Timestamp,AccX,AccY,AccZ,AngleX,AngleY,AngleZ,AngularVelX,AngularVelY,AngularVelZ,QW,QX,QY,QZ,MagX,MagY,MagZ,Height,AirPressure
130854,0.0382813,-1.10537,10.0967,-7.45972,-0.302124,165.948,0,0,0,0.122192,-0.00531006,-0.0648804,0.990326,12.375,-42.5083,-45.2167,-2245,-29477
130860,0.0574219,-1.09102,10.0967,-7.45422,-0.302124,165.943,0,0,0,0.122223,-0.00531006,-0.0648499,0.990326,12.3833,-42.475,-45.2167,-2245,-29477
130866,0.0287109,-1.07666,10.0919,-7.44873,-0.302124,165.938,0,0,0,0.122284,-0.00531006,-0.0647888,0.990326,12.3917,-42.4167,-45.225,-2245,-29477
130872,0.062207,-1.09102,10.0775,-7.44324,-0.302124,165.938,0,0,0,0.122284,-0.00531006,-0.0647583,0.990326,12.4,-42.4,-45.2167,-2245,-29477
130878,0.0334961,-1.08145,10.0967,-7.44324,-0.302124,165.932,0,0,0,0.122314,-0.00531006,-0.0647278,0.990326,12.4,-42.3833,-45.2167,-2245,-29477
130884,0.0191406,-1.10059,10.0632,-7.43774,-0.302124,165.932,0,0,0,0.122345,-0.00531006,-0.0646973,0.990326,12.4083,-42.3667,-45.1917,-2245,-29477
130890,0.0430664,-1.04795,10.1254,-7.43225,-0.302124,165.927,0,0,0,0.122375,-0.00531006,-0.0646667,0.990326,12.4167,-42.3333,-45.15,-2245,-29477
130896,0.0669922,-1.08145,10.1158,-7.42676,-0.302124,165.921,0,0,0,0.122437,-0.00527954,-0.0646057,0.990295,12.425,-42.2833,-45.0667,-2245,-29477
130902,0.0574219,-1.06709,10.0871,-7.42126,-0.302124,165.916,0,0,0,0.122437,-0.00527954,-0.0645752,0.990295,12.4333,-42.2667,-45.025,-2245,-29477
130908,0.0478516,-1.10059,10.111,-7.42126,-0.302124,165.916,0,0,0,0.122467,-0.00527954,-0.0645447,0.990295,12.4333,-42.275,-45.0167,-2245,-29477
130914,0.0334961,-1.06709,10.1015,-7.41577,-0.302124,165.91,0,0,0,0.122498,-0.00527954,-0.0645142,0.990295,12.4333,-42.2917,-45.0167,-2245,-29477
130920,0.0334961,-1.08145,10.111,-7.41028,-0.302124,165.905,0,0,0,0.122528,-0.00527954,-0.0644836,0.990295,12.45,-42.2833,-45.0083,-2245,-29477
130926,0.0239258,-1.07187,10.1206,-7.40479,-0.302124,165.905,0,0,0,0.122589,-0.00527954,-0.0644226,0.990295,12.4667,-42.2667,-44.975,-2245,-29477
130932,0.0669922,-1.06709,10.111,-7.39929,-0.302124,165.899,0,0,0,0.12262,-0.00527954,-0.0643616,0.990295,12.4833,-42.2583,-44.9583,-2245,-29477
130938,0.0574219,-1.07187,10.1062,-7.3938,-0.302124,165.894,0,0,0,0.12265,-0.00527954,-0.0643311,0.990295,12.5,-42.25,-44.9333,-2245,-29477
130944,0.062207,-1.05752,10.1302,-7.3938,-0.302124,165.894,0,0,0,0.122681,-0.00527954,-0.0643005,0.990295,12.5167,-42.2417,-44.9167,-2245,-29477
130950,0.0669922,-1.06709,10.1206,-7.38281,-0.302124,165.888,0,0,0,0.122711,-0.00527954,-0.06427,0.990295,12.5167,-42.225,-44.9417,-2245,-29477
130956,0.0478516,-1.0958,10.135,-7.38281,-0.302124,165.883,0,0,0,0.122742,-0.00527954,-0.064209,0.990295,12.4917,-42.1833,-44.9583,-2245,-29477
130962,0.0478516,-1.09102,10.0919,-7.37732,-0.302124,165.877,0,0,0,0.122772,-0.00527954,-0.0641785,0.990295,12.4667,-42.1583,-45.0083,-2245,-29477
130968,0.0287109,-1.10537,10.0967,-7.37183,-0.302124,165.877,0,0,0,0.122803,-0.00524902,-0.0641479,0.990295,12.4583,-42.6417,-45.0667,-2245,-29477
130974,0.0334961,-1.0958,10.0728,-7.37183,-0.302124,165.877,0,0,0,0.122833,-0.00524902,-0.0641174,0.990295,12.4583,-43.075,-45.1167,-2245,-29477
130980,0.0287109,-1.06709,10.1062,-7.36084,-0.302124,165.872,0,0,0,0.122833,-0.00524902,-0.0640869,0.990295,12.4583,-42.9583,-45.1583,-2245,-29477
130986,0.0669922,-1.07666,10.0823,-7.36084,-0.302124,165.866,0,0,0,0.122894,-0.00524902,-0.0640259,0.990295,12.4917,-42.8,-45.1917,-2245,-29477
130992,0.0574219,-1.0958,10.1015,-7.35535,-0.302124,165.866,0,0,0,0.122925,-0.00524902,-0.0639954,0.990295,12.5,-42.7417,-45.2,-2245,-29477
130998,0.0717773,-1.09102,10.1062,-7.34985,-0.302124,165.861,0,0,0,0.122925,-0.00524902,-0.0639648,0.990295,12.4917,-42.6833,-45.1917,-2245,-29477
131004,0.062207,-1.0958,10.0919,-7.34985,-0.302124,165.861,0,0,0,0.122955,-0.00524902,-0.0639343,0.990295,12.4833,-42.6333,-45.15,-2245,-29477
131010,0.0574219,-1.10059,10.1206,-7.33887,-0.302124,165.855,0,0,0,0.122986,-0.00524902,-0.0639038,0.990295,12.475,-42.575,-45.1333,-2245,-29477
131046,0.0334961,-1.11494,10.1158,-7.31689,-0.302124,165.833,0,0,0,0.123169,-0.00521851,-0.0636597,0.990265,12.4583,-42.3417,-44.975,-2245,-29477
131052,0.0382813,-1.12451,10.0967,-7.3114,-0.302124,165.833,0,0,0,0.123199,-0.00521851,-0.0636292,0.990265,12.475,-42.775,-44.9333,-2245,-29477
131058,0.0287109,-1.10537,10.1206,-7.3114,-0.302124,165.828,0,0,0,0.12323,-0.00521851,-0.0635986,0.990265,12.4917,-43.1917,-44.9167,-2245,-29477
131064,0.062207,-1.09102,10.0919,-7.30591,-0.302124,165.828,0,0,0,0.12326,-0.00521851,-0.0635681,0.990265,12.5083,-43.0667,-44.9083,-2245,-29477
131070,0.0430664,-1.11016,10.1254,-7.30042,-0.302124,165.822,0,0,0,0.12326,-0.00521851,-0.0635376,0.990265,12.5167,-43.4583,-44.9,-2245,-29477
131076,0.0526367,-1.11494,10.1062,-7.29492,-0.302124,165.822,0,0,0,0.123291,-0.00518799,-0.0634766,0.990265,12.525,-43.1917,-44.95,-2245,-29477
131082,0.0334961,-1.15801,10.1254,-7.29492,-0.302124,165.817,0,0,0,0.123322,-0.00518799,-0.063446,0.990265,12.5333,-43.0917,-44.9667,-2245,-29477
131088,0.0239258,-1.1293,10.111,-7.28943,-0.302124,165.817,0,0,0,0.123352,-0.00518799,-0.0634155,0.990265,12.55,-42.9917,-45.0083,-2245,-29477
131094,0.0334961,-1.11973,10.1015,-7.28394,-0.302124,165.811,0,0,0,0.123352,-0.00518799,-0.063385,0.990265,12.5583,-42.9167,-45.025,-2245,-29477
131100,0.0382813,-1.11494,10.1206,-7.27844,-0.302124,165.806,0,0,0,0.123383,-0.00518799,-0.0633545,0.990265,12.5583,-42.8417,-45.025,-2245,-29477
131106,0.0765625,-1.08145,10.135,-7.27844,-0.302124,165.806,0,0,0,0.123444,-0.00518799,-0.0632935,0.990265,12.5333,-42.6917,-44.9833,-2245,-29477
131112,0.0526367,-1.0623,10.1015,-7.27295,-0.302124,165.8,0,0,0,0.123444,-0.00518799,-0.0632629,0.990265,12.5083,-42.625,-44.9417,-2245,-29477
131118,0.0526367,-1.09102,10.1015,-7.26746,-0.302124,165.8,0,0,0,0.123474,-0.00518799,-0.0632629,0.990265,12.5,-42.6,-44.9333,-2245,-29477
131124,0.0334961,-1.0958,10.0919,-7.26746,-0.302124,165.795,0,0,0,0.123505,-0.00518799,-0.0632324,0.990265,12.4917,-42.5833,-44.9167,-2245,-29477
131130,0.0239258,-1.09102,10.0823,-7.26196,-0.302124,165.789,0,0,0,0.123535,-0.00518799,-0.0632019,0.990265,12.4917,-42.5583,-44.9,-2245,-29477
131136,0.0143555,-1.08623,10.0919,-7.25647,-0.302124,165.789,0,0,0,0.123566,-0.00518799,-0.0631409,0.990265,12.5,-42.5167,-44.825,-2245,-29477
131142,0.0430664,-1.06709,10.0919,-7.25647,-0.302124,165.789,0,0,0,0.123596,-0.00518799,-0.0631104,0.990265,12.4917,-42.4833,-44.7917,-2245,-29477
131148,0.0574219,-1.05752,10.1015,-7.25098,-0.302124,165.784,0,0,0,0.123627,-0.00518799,-0.0630798,0.990265,12.4917,-42.45,-44.7833,-2245,-29477
131154,0.0574219,-1.08623,10.0919,-7.24548,-0.302124,165.784,0,0,0,0.123627,-0.00518799,-0.0630493,0.990265,12.475,-42.4167,-44.8,-2245,-29477
131160,0.0526367,-1.0623,10.0967,-7.23999,-0.302124,165.778,0,0,0,0.123657,-0.00518799,-0.0630188,0.990265,12.4583,-42.3833,-44.825,-2245,-29477
131166,0.0669922,-1.08145,10.111,-7.23999,-0.302124,165.773,0,0,0,0.123718,-0.00515747,-0.0629578,0.990265,12.425,-42.3083,-44.8917,-2245,-29477
131172,0.0478516,-1.08623,10.1062,-7.2345,-0.302124,165.773,0,0,0,0.123718,-0.00515747,-0.0629272,0.990265,12.4167,-42.2667,-44.9333,-2245,-29477
131178,0.0478516,-1.08623,10.0919,-7.229,-0.302124,165.767,0,0,0,0.123749,-0.00515747,-0.0629272,0.990265,12.4167,-42.2333,-44.9417,-2245,-29477
131184,0.0717773,-1.09102,10.1015,-7.229,-0.302124,165.767,0,0,0,0.123779,-0.00515747,-0.0628967,0.990265,12.4083,-42.225,-44.95,-2245,-29477
131190,0.0574219,-1.08145,10.1158,-7.22351,-0.302124,165.762,0,0,0,0.123779,-0.00515747,-0.0628662,0.990265,12.4,-42.2,-44.95,-2245,-29477
131196,0.062207,-1.04795,10.1254,-7.21802,-0.302124,165.756,0,0,0,0.12384,-0.00515747,-0.0628052,0.990265,12.4083,-42.1667,-44.9833,-2245,-29477
131202,0.0526367,-1.08145,10.1062,-7.21802,-0.302124,165.756,0,0,0,0.123871,-0.00515747,-0.0627747,0.990265,12.4,-42.1417,-45.0417,-2245,-29477
131208,0.0478516,-1.10059,10.1158,-7.21252,-0.302124,165.756,0,0,0,0.123871,-0.00515747,-0.0627441,0.990234,12.4083,-42.125,-45.0833,-2245,-29477
131214,0.0574219,-1.0958,10.1015,-7.20703,-0.302124,165.751,0,0,0,0.123901,-0.00515747,-0.0627136,0.990234,12.4083,-42.6083,-45.1083,-2245,-29477
131220,0.062207,-1.10537,10.1062,-7.20154,-0.302124,165.745,0,0,0,0.123932,-0.00515747,-0.0626831,0.990234,12.4,-43.0417,-45.125,-2245,-29477
131226,0.0287109,-1.10537,10.0919,-7.20154,-0.302124,165.745,0,0,0,0.123962,-0.00515747,-0.0626221,0.990234,12.4083,-43.3417,-45.075,-2245,-29477
131232,0.0382813,-1.10059,10.111,-7.19604,-0.302124,165.74,0,0,0,0.123993,-0.00515747,-0.0626221,0.990234,12.4083,-43.2167,-45.0667,-2245,-29477
131238,0.0143555,-1.09102,10.0967,-7.19604,-0.302124,165.74,0,0,0,0.124023,-0.00515747,-0.0625916,0.990234,12.425,-43.1333,-45.0417,-2245,-29477
131244,0.0478516,-1.10537,10.0871,-7.19055,-0.302124,165.734,0,0,0,0.124023,-0.00512695,-0.062561,0.990234,12.45,-43.05,-45.0333,-2245,-29477
131250,0.0382813,-1.10059,10.1062,-7.18506,-0.302124,165.734,0,0,0,0.124054,-0.00512695,-0.0625305,0.990234,12.4667,-42.975,-45.0333,-2245,-29477
131256,0.0526367,-1.11016,10.1445,-7.17957,-0.302124,165.729,0,0,0,0.124084,-0.00512695,-0.0624695,0.990234,12.4833,-42.8083,-44.9583,-2245,-29477
131262,0.0526367,-1.08145,10.0823,-7.17957,-0.302124,165.729,0,0,0,0.124115,-0.00512695,-0.062439,0.990234,12.4583,-42.725,-44.9333,-2245,-29477
131268,0.062207,-1.09102,10.1062,-7.17407,-0.302124,165.723,0,0,0,0.124146,-0.00512695,-0.062439,0.990234,12.4167,-42.6667,-44.925,-2245,-29477
131274,0.0334961,-1.10537,10.1015,-7.17407,-0.302124,165.723,0,0,0,0.124146,-0.00512695,-0.0624084,0.990234,12.375,-42.6083,-44.9333,-2245,-29477
131280,0.0287109,-1.10537,10.0967,-7.16858,-0.302124,165.718,0,0,0,0.124176,-0.00512695,-0.0623779,0.990234,12.3417,-42.55,-44.9583,-2245,-29477
131286,0.0382813,-1.08145,10.111,-7.16309,-0.302124,165.712,0,0,0,0.124207,-0.00512695,-0.0623169,0.990234,12.3,-42.4667,-44.95,-2245,-29477
131292,0.0478516,-1.10059,10.1302,-7.15759,-0.302124,165.712,0,0,0,0.124237,-0.00512695,-0.0622864,0.990234,12.2917,-42.4417,-44.9417,-2245,-29477
131298,0.0717773,-1.10059,10.1015,-7.15759,-0.302124,165.712,0,0,0,0.124268,-0.00512695,-0.0622559,0.990234,12.2833,-42.425,-44.9417,-2245,-29477
131304,0.0574219,-1.09102,10.111,-7.1521,-0.302124,165.707,0,0,0,0.124268,-0.00512695,-0.0622559,0.990234,12.2833,-42.4,-44.95,-2245,-29477
131310,0.0765625,-1.0958,10.0919,-7.14661,-0.302124,165.701,0,0,0,0.124298,-0.00512695,-0.0622253,0.990234,12.2833,-42.3833,-44.9667,-2245,-29477
131316,0.0717773,-1.11494,10.1206,-7.14661,-0.302124,165.701,0,0,0,0.124329,-0.00512695,-0.0621643,0.990234,12.2917,-42.3333,-45.0083,-2245,-29477
131322,0.0717773,-1.09102,10.0967,-7.14111,-0.302124,165.696,0,0,0,0.124359,-0.00512695,-0.0621338,0.990234,12.2917,-42.3167,-45.05,-2245,-29477
131328,0.0334961,-1.08623,10.1015,-7.14111,-0.302124,165.696,0,0,0,0.12439,-0.00512695,-0.0621338,0.990234,12.2833,-42.3,-45.0583,-2245,-29477
131334,0.062207,-1.09102,10.111,-7.13562,-0.302124,165.696,0,0,0,0.12439,-0.00512695,-0.0621033,0.990234,12.2917,-42.7667,-45.0417,-2245,-29477
131340,0.0574219,-1.09102,10.1206,-7.13013,-0.302124,165.69,0,0,0,0.12442,-0.00512695,-0.0620728,0.990234,12.2833,-43.1833,-45.0083,-2245,-29477
131346,0.0574219,-1.07187,10.1015,-7.13013,-0.302124,165.685,0,0,0,0.124451,-0.00509644,-0.0620117,0.990234,12.3083,-43.4083,-44.9333,-2245,-29477
131352,0.0669922,-1.0958,10.1158,-7.12463,-0.302124,165.685,0,0,0,0.124481,-0.00509644,-0.0619812,0.990234,12.325,-43.2667,-44.9417,-2245,-29477
131358,0.0574219,-1.08623,10.0823,-7.12463,-0.302124,165.685,0,0,0,0.124512,-0.00509644,-0.0619812,0.990234,12.3417,-43.1583,-44.9583,-2245,-29477
131364,0.0765625,-1.11973,10.1015,-7.11914,-0.302124,165.679,0,0,0,0.124512,-0.00509644,-0.0619507,0.990234,12.3583,-43.05,-45.0083,-2245,-29477
131370,0.0574219,-1.11016,10.1158,-7.11365,-0.302124,165.674,0,0,0,0.124542,-0.00509644,-0.0619202,0.990204,12.3583,-42.95,-45.0667,-2245,-29477
131376,0.0334961,-1.11973,10.0967,-7.11365,-0.302124,165.674,0,0,0,0.124573,-0.00509644,-0.0618591,0.990204,12.3583,-42.7833,-45.175,-2245,-29477
131382,0.0334961,-1.11973,10.135,-7.10815,-0.302124,165.668,0,0,0,0.124603,-0.00509644,-0.0618591,0.990204,12.3583,-42.7417,-45.1833,-2245,-29477
131388,0.062207,-1.10537,10.0919,-7.10815,-0.302124,165.668,0,0,0,0.124603,-0.00509644,-0.0618286,0.990204,12.35,-42.6833,-45.1583,-2245,-29477
131394,0.0526367,-1.11973,10.1206,-7.10266,-0.302124,165.668,0,0,0,0.124634,-0.00509644,-0.0617981,0.990204,12.35,-42.6417,-45.1083,-2245,-29477
131400,0.0717773,-1.0958,10.0967,-7.09717,-0.302124,165.663,0,0,0,0.124664,-0.00509644,-0.0617676,0.990204,12.35,-42.6083,-45.05,-2245,-29477
131406,0.0478516,-1.13887,10.0967,-7.09717,-0.302124,165.657,0,0,0,0.124695,-0.00509644,-0.0617371,0.990204,12.3333,-42.5417,-44.95,-2245,-29477
131412,0.062207,-1.1293,10.1302,-7.09167,-0.302124,165.657,0,0,0,0.124725,-0.00506592,-0.0617065,0.990204,12.325,-42.5083,-44.95,-2245,-29477
131418,0.0526367,-1.11494,10.0919,-7.09167,-0.302124,165.657,0,0,0,0.124725,-0.00506592,-0.061676,0.990204,12.3167,-42.475,-44.9333,-2245,-29477
131424,0.0861328,-1.11494,10.1015,-7.08618,-0.302124,165.652,0,0,0,0.124756,-0.00506592,-0.061676,0.990204,12.3083,-42.45,-44.9417,-2245,-29477
131430,0.062207,-1.10059,10.1206,-7.08069,-0.302124,165.646,0,0,0,0.124786,-0.00506592,-0.0616455,0.990204,12.3083,-42.4167,-44.9417,-2245,-29477
131436,0.0526367,-1.10537,10.0919,-7.08069,-0.302124,165.646,0,0,0,0.124817,-0.00506592,-0.061615,0.990204,12.325,-42.3667,-44.975,-2253,-29476
131442,0.0669922,-1.11973,10.0919,-7.0752,-0.302124,165.646,0,0,0,0.124817,-0.00506592,-0.0615845,0.990204,12.3583,-42.3583,-44.9917,-2253,-29476
131448,0.0382813,-1.1293,10.0871,-7.0752,-0.302124,165.641,0,0,0,0.124847,-0.00506592,-0.061554,0.990204,12.375,-42.3333,-45.0083,-2253,-29476
131454,0.0478516,-1.09102,10.1015,-7.0752,-0.302124,165.641,0,0,0,0.124878,-0.00506592,-0.0615234,0.990204,12.3833,-42.3167,-45.0083,-2253,-29476
131460,0.0191406,-1.10537,10.0728,-7.0697,-0.302124,165.635,0,0,0,0.124878,-0.00506592,-0.0615234,0.990204,12.375,-42.3,-45,-2253,-29476
131466,0.0382813,-1.1293,10.0632,-7.06421,-0.302124,165.635,0,0,0,0.124908,-0.00506592,-0.0614624,0.990204,12.3583,-42.2583,-44.975,-2253,-29476
131472,0.00957031,-1.10537,10.0919,-7.06421,-0.302124,165.63,0,0,0,0.124939,-0.00506592,-0.0614624,0.990204,12.35,-42.225,-44.9583,-2253,-29476
131478,0.0574219,-1.08145,10.1015,-7.05872,-0.302124,165.63,0,0,0,0.124969,-0.00506592,-0.0614319,0.990204,12.35,-42.7,-44.925,-2253,-29476
131484,0.0526367,-1.05752,10.111,-7.05872,-0.302124,165.63,0,0,0,0.124969,-0.00506592,-0.0614014,0.990204,12.35,-42.625,-44.9,-2253,-29476
131490,0.0861328,-1.08145,10.1397,-7.05322,-0.302124,165.624,0,0,0,0.125,-0.0050354,-0.0614014,0.990204,12.35,-42.5583,-44.875,-2253,-29476
131496,0.062207,-1.0958,10.135,-7.05322,-0.302124,165.619,0,0,0,0.125031,-0.0050354,-0.0613403,0.990204,12.375,-42.4667,-44.8417,-2253,-29476
131502,0.0478516,-1.0958,10.111,-7.04773,-0.302124,165.619,0,0,0,0.125061,-0.0050354,-0.0613403,0.990204,12.4,-42.4167,-44.8583,-2253,-29476
131508,0.0574219,-1.08145,10.1254,-7.04773,-0.302124,165.619,0,0,0,0.125061,-0.0050354,-0.0613098,0.990204,12.4167,-42.3667,-44.85,-2253,-29476
131514,0.062207,-1.09102,10.1254,-7.04224,-0.302124,165.613,0,0,0,0.125092,-0.0050354,-0.0612793,0.990204,12.4167,-42.825,-44.8667,-2253,-29476
131520,0.0669922,-1.08145,10.1015,-7.03674,-0.302124,165.613,0,0,0,0.125092,-0.0050354,-0.0612488,0.990204,12.425,-43.225,-44.8583,-2253,-29476
131526,0.0669922,-1.10059,10.1158,-7.03674,-0.302124,165.608,0,0,0,0.125153,-0.0050354,-0.0612183,0.990173,12.4333,-43.45,-44.875,-2253,-29476
131532,0.0574219,-1.08145,10.1062,-7.03125,-0.302124,165.608,0,0,0,0.125153,-0.0050354,-0.0611877,0.990173,12.425,-43.325,-44.9083,-2253,-29476
131538,0.0382813,-1.10059,10.1015,-7.03125,-0.302124,165.602,0,0,0,0.125183,-0.0050354,-0.0611877,0.990173,12.4167,-43.2333,-44.9583,-2253,-29476
131544,0.0430664,-1.08623,10.1158,-7.03125,-0.302124,165.602,0,0,0,0.125183,-0.0050354,-0.0611572,0.990173,12.4083,-43.15,-44.9833,-2253,-29476
131550,0.0669922,-1.07666,10.0967,-7.02576,-0.302124,165.602,0,0,0,0.125214,-0.0050354,-0.0611267,0.990173,12.3917,-43.0917,-45,-2253,-29476
131556,0.0574219,-1.0623,10.0584,-7.02026,-0.302124,165.597,0,0,0,0.125244,-0.0050354,-0.0610962,0.990173,12.4,-42.9583,-45.05,-2245,-29477
131562,0.0478516,-1.06709,10.1062,-7.02026,-0.302124,165.597,0,0,0,0.125275,-0.00500488,-0.0610657,0.990173,12.4083,-42.9,-45.0833,-2245,-29477
131568,0.0430664,-1.08623,10.111,-7.01477,-0.302124,165.591,0,0,0,0.125275,-0.00500488,-0.0610352,0.990173,12.4167,-42.8167,-45.125,-2245,-29477
131574,0.0191406,-1.06709,10.0823,-7.01477,-0.302124,165.591,0,0,0,0.125305,-0.00500488,-0.0610352,0.990173,12.425,-42.7333,-45.1333,-2245,-29477
131580,0.0478516,-1.08623,10.0728,-7.00928,-0.302124,165.586,0,0,0,0.125305,-0.00500488,-0.0610046,0.990173,12.4333,-42.675,-45.1333,-2245,-29477
131586,0.062207,-1.10537,10.1158,-7.00378,-0.302124,165.586,0,0,0,0.125336,-0.00500488,-0.0609436,0.990173,12.4333,-42.575,-45.0917,-2245,-29477
131592,0.0574219,-1.05752,10.1015,-7.00378,-0.302124,165.58,0,0,0,0.125366,-0.00500488,-0.0609436,0.990173,12.4333,-42.5583,-45.075,-2245,-29477
131598,0.0478516,-1.07666,10.1015,-6.99829,-0.302124,165.58,0,0,0,0.125397,-0.00500488,-0.0609131,0.990173,12.4167,-42.5333,-45.0583,-2245,-29477
131604,0.062207,-1.07666,10.1493,-6.99829,-0.302124,165.58,0,0,0,0.125397,-0.00500488,-0.0608826,0.990173,12.4083,-42.4917,-45.0333,-2245,-29477
131610,0.0430664,-1.09102,10.1254,-6.99829,-0.302124,165.575,0,0,0,0.125427,-0.00500488,-0.0608826,0.990173,12.4083,-42.4667,-45.0167,-2245,-29477
131616,0.0526367,-1.0958,10.0871,-6.9928,-0.302124,165.575,0,0,0,0.125458,-0.00500488,-0.0608215,0.990173,12.4167,-42.3833,-44.9333,-2245,-29477
131622,0.0287109,-1.10537,10.0728,-6.9873,-0.302124,165.569,0,0,0,0.125458,-0.00500488,-0.060791,0.990173,12.4167,-42.8417,-44.925,-2245,-29477
131628,0.00957031,-1.09102,10.1015,-6.9873,-0.302124,165.569,0,0,0,0.125488,-0.00500488,-0.060791,0.990173,12.425,-43.25,-44.9417,-2245,-29477
131634,0.0287109,-1.05273,10.0775,-6.98181,-0.302124,165.569,0,0,0,0.125488,-0.00500488,-0.0607605,0.990173,12.4417,-43.625,-44.975,-2245,-29477
131640,0.0478516,-1.06709,10.0728,-6.98181,-0.302124,165.564,0,0,0,0.125519,-0.00500488,-0.06073,0.990173,12.4583,-43.4583,-45.0167,-2245,-29477
131646,0.0430664,-1.08145,10.0871,-6.97632,-0.302124,165.564,0,0,0,0.125549,-0.00500488,-0.0606995,0.990173,12.4333,-43.2,-45.0833,-2245,-29477
131652,0.0430664,-1.04316,10.0584,-6.97083,-0.302124,165.558,0,0,0,0.12558,-0.00500488,-0.0606689,0.990173,12.425,-43.075,-45.1167,-2245,-29477
131658,0.0478516,-1.08623,10.0871,-6.97083,-0.302124,165.558,0,0,0,0.12558,-0.00500488,-0.0606384,0.990173,12.4167,-42.9583,-45.125,-2253,-29476
131664,0.0669922,-1.07666,10.111,-6.97083,-0.302124,165.553,0,0,0,0.12561,-0.00500488,-0.0606384,0.990173,12.4333,-43.3667,-45.125,-2253,-29476
131670,0.0765625,-1.0958,10.0823,-6.96533,-0.302124,165.553,0,0,0,0.12561,-0.00500488,-0.0606079,0.990173,12.4333,-43.725,-45.1167,-2253,-29476
131676,0.0765625,-1.10059,10.1062,-6.95984,-0.302124,165.547,0,0,0,0.125641,-0.00497437,-0.0605774,0.990173,12.4417,-43.4333,-45.1083,-2253,-29476
131682,0.0574219,-1.09102,10.135,-6.95984,-0.302124,165.547,0,0,0,0.125671,-0.00497437,-0.0605469,0.990173,12.4417,-43.3167,-45.0917,-2253,-29476
131688,0.0669922,-1.10537,10.1206,-6.95435,-0.302124,165.547,0,0,0,0.125671,-0.00497437,-0.0605164,0.990173,12.4417,-43.2167,-45.0583,-2253,-29476
131694,0.062207,-1.08623,10.1445,-6.95435,-0.302124,165.542,0,0,0,0.125702,-0.00497437,-0.0605164,0.990173,12.45,-43.1167,-45.0333,-2253,-29476
131700,0.0765625,-1.0958,10.0967,-6.94885,-0.302124,165.542,0,0,0,0.125702,-0.00497437,-0.0604858,0.990173,12.4417,-43.025,-45.0083,-2253,-29476
131706,0.0478516,-1.13408,10.135,-6.94885,-0.302124,165.536,0,0,0,0.125763,-0.00497437,-0.0604248,0.990143,12.4583,-42.8333,-44.9583,-2253,-29476
131712,0.0382813,-1.13408,10.1254,-6.94336,-0.302124,165.536,0,0,0,0.125763,-0.00497437,-0.0604248,0.990143,12.4667,-42.75,-44.9417,-2253,-29476
131718,0.0430664,-1.09102,10.0967,-6.94336,-0.302124,165.536,0,0,0,0.125793,-0.00497437,-0.0603943,0.990143,12.4667,-42.675,-44.925,-2253,-29476
131724,0.0287109,-1.10537,10.0823,-6.93787,-0.302124,165.531,0,0,0,0.125793,-0.00497437,-0.0603638,0.990143,12.4583,-42.6167,-44.9167,-2253,-29476
131730,0.0143555,-1.11016,10.1158,-6.93787,-0.302124,165.531,0,0,0,0.125824,-0.00497437,-0.0603638,0.990143,12.45,-42.575,-44.9333,-2253,-29476
131736,0.090918,-1.0958,10.111,-6.93237,-0.302124,165.526,0,0,0,0.125854,-0.00497437,-0.0603333,0.990143,12.4417,-42.5,-45.05,-2253,-29476
131742,0.0765625,-1.08145,10.1206,-6.93237,-0.302124,165.526,0,0,0,0.125854,-0.00497437,-0.0603027,0.990143,12.4417,-42.4583,-45.0917,-2253,-29476
131748,0.0765625,-1.12451,10.111,-6.92688,-0.302124,165.526,0,0,0,0.125885,-0.00497437,-0.0602722,0.990143,12.4417,-42.4167,-45.0917,-2253,-29476
131754,0.062207,-1.11973,10.068,-6.92688,-0.302124,165.52,0,0,0,0.125885,-0.00497437,-0.0602722,0.990143,12.4417,-42.8667,-45.0583,-2253,-29476
131760,0.0382813,-1.09102,10.0823,-6.92139,-0.302124,165.52,0,0,0,0.125916,-0.00497437,-0.0602417,0.990143,12.4333,-43.275,-45.025,-2253,-29476
131766,0.0334961,-1.12451,10.1015,-6.92139,-0.302124,165.515,0,0,0,0.125946,-0.00494385,-0.0602112,0.990143,12.4083,-43.0583,-45,-2253,-29476
131772,0.0382813,-1.09102,10.1015,-6.91589,-0.302124,165.515,0,0,0,0.125946,-0.00494385,-0.0601807,0.990143,12.3917,-42.975,-44.9917,-2253,-29476
131778,0.0669922,-1.07666,10.0871,-6.91589,-0.302124,165.515,0,0,0,0.125977,-0.00494385,-0.0601807,0.990143,12.375,-42.9,-45.0083,-2253,-29476
131784,0.0287109,-1.10059,10.0919,-6.9104,-0.302124,165.515,0,0,0,0.125977,-0.00494385,-0.0601501,0.990143,12.3583,-42.8167,-45.0167,-2253,-29476
131790,0.0239258,-1.09102,10.111,-6.9104,-0.302124,165.509,0,0,0,0.126007,-0.00494385,-0.0601196,0.990143,12.35,-42.7333,-45.0417,-2253,-29476
131796,0.0334961,-1.06709,10.068,-6.90491,-0.302124,165.509,0,0,0,0.126038,-0.00494385,-0.0600891,0.990143,12.3417,-43.0917,-45.0583,-2253,-29476
131802,0.0478516,-1.0958,10.0871,-6.90491,-0.302124,165.504,0,0,0,0.126038,-0.00494385,-0.0600891,0.990143,12.3333,-43.4833,-45.0417,-2253,-29476
131808,0.062207,-1.08145,10.111,-6.90491,-0.302124,165.504,0,0,0,0.126068,-0.00494385,-0.0600586,0.990143,12.3083,-43.3333,-45.025,-2253,-29476
131814,0.090918,-1.06709,10.1158,-6.89941,-0.302124,165.504,0,0,0,0.126068,-0.00494385,-0.0600281,0.990143,12.2833,-43.2,-45.025,-2253,-29476
131820,0.0574219,-1.0623,10.0728,-6.89941,-0.302124,165.498,0,0,0,0.126099,-0.00494385,-0.0600281,0.990143,12.275,-43.0833,-45.025,-2253,-29476
131826,0.062207,-1.11016,10.1015,-6.89392,-0.302124,165.498,0,0,0,0.126129,-0.00494385,-0.059967,0.990143,12.2833,-42.8833,-45.0833,-2253,-29476
131832,0.0430664,-1.0958,10.0871,-6.89392,-0.302124,165.493,0,0,0,0.126129,-0.00494385,-0.059967,0.990143,12.2833,-42.7917,-45.1,-2253,-29476
131838,0.0574219,-1.08623,10.1062,-6.88843,-0.302124,165.493,0,0,0,0.12616,-0.00494385,-0.0599365,0.990143,12.2833,-42.725,-45.125,-2253,-29476
131844,0.0430664,-1.10537,10.1015,-6.88843,-0.302124,165.493,0,0,0,0.12616,-0.00494385,-0.0599365,0.990143,12.2833,-42.6833,-45.1417,-2253,-29476
131850,0.0574219,-1.08623,10.135,-6.88293,-0.302124,165.487,0,0,0,0.12619,-0.00494385,-0.059906,0.990143,12.2917,-42.6333,-45.1333,-2253,-29476
131856,0.0430664,-1.08145,10.1206,-6.88293,-0.302124,165.487,0,0,0,0.126221,-0.00494385,-0.0598755,0.990143,12.35,-42.5583,-45.1583,-2253,-29476
131862,0.0813477,-1.08145,10.1254,-6.87744,-0.302124,165.487,0,0,0,0.126221,-0.00494385,-0.059845,0.990143,12.375,-42.5083,-45.1583,-2253,-29476
131868,0.0669922,-1.07666,10.1062,-6.87744,-0.302124,165.482,0,0,0,0.126251,-0.00494385,-0.059845,0.990143,12.4,-42.4667,-45.1917,-2253,-29476
131874,0.0478516,-1.05752,10.111,-6.87195,-0.302124,165.482,0,0,0,0.126251,-0.00494385,-0.0598145,0.990143,12.425,-42.4333,-45.2083,-2253,-29476
131880,0.0574219,-1.07187,10.1062,-6.87195,-0.302124,165.482,0,0,0,0.126251,-0.00494385,-0.0597839,0.990143,12.4333,-42.3833,-45.2083,-2253,-29476
131886,0.0478516,-1.10059,10.0823,-6.86646,-0.302124,165.476,0,0,0,0.126282,-0.00494385,-0.0597534,0.990143,12.45,-42.3083,-45.1833,-2253,-29476
131892,0.0334961,-1.08145,10.1015,-6.86646,-0.302124,165.476,0,0,0,0.126312,-0.00494385,-0.0597534,0.990143,12.45,-42.2833,-45.1583,-2253,-29476
131898,0.0287109,-1.10059,10.1062,-6.86096,-0.302124,165.471,0,0,0,0.126312,-0.00491333,-0.0597229,0.990143,12.45,-42.2583,-45.15,-2253,-29476
131904,0.00957031,-1.10537,10.111,-6.86096,-0.302124,165.471,0,0,0,0.126343,-0.00491333,-0.0596924,0.990143,12.45,-42.2417,-45.15,-2253,-29476
131910,0.0239258,-1.08145,10.1062,-6.86096,-0.302124,165.471,0,0,0,0.126343,-0.00491333,-0.0596924,0.990112,12.4417,-42.225,-45.1417,-2253,-29476
131916,0.0717773,-1.08145,10.1206,-6.85547,-0.302124,165.465,0,0,0,0.126373,-0.00491333,-0.0596313,0.990112,12.4583,-42.2,-45.1333,-2253,-29476
131922,0.0765625,-1.09102,10.1302,-6.85547,-0.302124,165.465,0,0,0,0.126404,-0.00491333,-0.0596313,0.990112,12.4583,-42.2,-45.1,-2253,-29476
131928,0.062207,-1.10537,10.1062,-6.84998,-0.302124,165.465,0,0,0,0.126404,-0.00491333,-0.0596008,0.990112,12.4667,-42.2,-45.0917,-2253,-29476
131934,0.0717773,-1.08145,10.1254,-6.84998,-0.302124,165.46,0,0,0,0.126434,-0.00491333,-0.0596008,0.990112,12.475,-42.2,-45.0833,-2253,-29476
131940,0.0574219,-1.09102,10.1158,-6.84448,-0.302124,165.46,0,0,0,0.126434,-0.00491333,-0.0595703,0.990112,12.4667,-42.2,-45.075,-2253,-29476
131946,0.0478516,-1.08145,10.1206,-6.84448,-0.302124,165.454,0,0,0,0.126434,-0.00491333,-0.0595398,0.990112,12.45,-42.1833,-45.05,-2253,-29476
131952,0.0669922,-1.11494,10.1158,-6.83899,-0.302124,165.454,0,0,0,0.126465,-0.00491333,-0.0595093,0.990112,12.4333,-42.1667,-45.05,-2253,-29476
131958,0.0861328,-1.11494,10.111,-6.83899,-0.302124,165.454,0,0,0,0.126495,-0.00491333,-0.0595093,0.990112,12.425,-42.15,-45.05,-2253,-29476
131964,0.0717773,-1.11973,10.0823,-6.8335,-0.302124,165.454,0,0,0,0.126495,-0.00491333,-0.0594788,0.990112,12.4167,-42.1417,-45.0417,-2253,-29476
131970,0.062207,-1.1293,10.0919,-6.8335,-0.302124,165.449,0,0,0,0.126526,-0.00491333,-0.0594788,0.990112,12.4083,-42.125,-45.0417,-2253,-29476
131976,0.0813477,-1.13887,10.111,-6.828,-0.302124,165.449,0,0,0,0.126526,-0.00491333,-0.0594482,0.990112,12.4,-42.1083,-45.0333,-2253,-29476
131982,0.0717773,-1.11494,10.0967,-6.828,-0.302124,165.443,0,0,0,0.126556,-0.00491333,-0.0594177,0.990112,12.4083,-42.1,-45.025,-2253,-29476
131988,0.0765625,-1.12451,10.1254,-6.828,-0.302124,165.443,0,0,0,0.126587,-0.00491333,-0.0593872,0.990112,12.4167,-42.1083,-45.0083,-2253,-29476
131994,0.105273,-1.14365,10.1015,-6.82251,-0.302124,165.443,0,0,0,0.126587,-0.00491333,-0.0593872,0.990112,12.4167,-42.1,-45,-2253,-29476
132000,0.0526367,-1.1293,10.1062,-6.82251,-0.302124,165.443,0,0,0,0.126587,-0.00488281,-0.0593567,0.990112,12.4167,-42.1,-44.9833,-2253,-29476
132006,0.062207,-1.11016,10.0728,-6.81702,-0.302124,165.438,0,0,0,0.126617,-0.00488281,-0.0593567,0.990112,12.4333,-42.1,-45.0083,-2253,-29476
132012,0.0526367,-1.10059,10.1062,-6.81702,-0.302124,165.438,0,0,0,0.126648,-0.00488281,-0.0593262,0.990112,12.45,-42.1,-45.0417,-2253,-29476
132018,0.0526367,-1.11016,10.0823,-6.81702,-0.302124,165.432,0,0,0,0.126648,-0.00488281,-0.0592957,0.990112,12.4667,-42.0917,-45.0833,-2253,-29476
132024,0.0430664,-1.13408,10.0919,-6.81702,-0.302124,165.432,0,0,0,0.126678,-0.00488281,-0.0592957,0.990112,12.4833,-42.075,-45.1167,-2253,-29476
132030,0.062207,-1.0958,10.0871,-6.81152,-0.302124,165.432,0,0,0,0.126678,-0.00488281,-0.0592957,0.990112,12.4833,-42.5667,-45.1333,-2253,-29476
132036,0.0334961,-1.10059,10.1062,-6.81152,-0.302124,165.427,0,0,0,0.126678,-0.00488281,-0.0592651,0.990112,12.475,-43.3917,-45.1167,-2253,-29476
132042,0.0765625,-1.0958,10.1062,-6.80603,-0.302124,165.427,0,0,0,0.126709,-0.00488281,-0.0592346,0.990112,12.475,-43.2583,-45.1083,-2253,-29476
132048,0.062207,-1.08623,10.135,-6.80603,-0.302124,165.427,0,0,0,0.12674,-0.00488281,-0.0592346,0.990112,12.4583,-43.6333,-45.1167,-2253,-29476
132054,0.0526367,-1.10537,10.1158,-6.80603,-0.302124,165.427,0,0,0,0.12674,-0.00488281,-0.0592041,0.990112,12.4417,-43.9667,-45.1,-2253,-29476
132060,0.0334961,-1.08623,10.0823,-6.80054,-0.302124,165.421,0,0,0,0.12677,-0.00488281,-0.0592041,0.990112,12.4333,-43.7667,-45.075,-2253,-29476
132066,0.0526367,-1.09102,10.1302,-6.80054,-0.302124,165.421,0,0,0,0.12677,-0.00488281,-0.0591736,0.990112,12.4083,-43.8833,-45.0417,-2253,-29476
132072,0.0813477,-1.09102,10.1015,-6.79504,-0.302124,165.416,0,0,0,0.126801,-0.00485229,-0.0591431,0.990112,12.4083,-43.7083,-45.025,-2253,-29476
132078,0.0526367,-1.0623,10.0584,-6.79504,-0.302124,165.416,0,0,0,0.126801,-0.00485229,-0.0591431,0.990112,12.4083,-43.55,-45.0417,-2253,-29476
132084,0.0478516,-1.0958,10.1062,-6.79504,-0.302124,165.416,0,0,0,0.126831,-0.00485229,-0.0591125,0.990112,12.4167,-43.4083,-45.0583,-2253,-29476
132090,0.0669922,-1.0958,10.0919,-6.79504,-0.302124,165.416,0,0,0,0.126831,-0.00485229,-0.0591125,0.990112,12.4167,-43.2833,-45.05,-2253,-29476
132096,0.0382813,-1.07187,10.111,-6.78955,-0.302124,165.41,0,0,0,0.126862,-0.00485229,-0.059082,0.990112,12.4167,-43.1083,-45.0833,-2253,-29476
132102,0.0430664,-1.07187,10.111,-6.78955,-0.302124,165.41,0,0,0,0.126862,-0.00485229,-0.0590515,0.990112,12.425,-43.025,-45.0417,-2253,-29476
132108,0.0717773,-1.0958,10.0967,-6.78406,-0.302124,165.41,0,0,0,0.126892,-0.00485229,-0.0590515,0.990112,12.4167,-42.9667,-45.025,-2253,-29476
132114,0.0478516,-1.07666,10.111,-6.78406,-0.302124,165.405,0,0,0,0.126892,-0.00485229,-0.059021,0.990082,12.425,-42.8917,-45.0083,-2253,-29476
132120,0.0239258,-1.07666,10.0919,-6.78406,-0.302124,165.405,0,0,0,0.126923,-0.00485229,-0.059021,0.990082,12.425,-42.825,-44.975,-2253,-29476
132126,0.062207,-1.08145,10.1015,-6.77856,-0.302124,165.405,0,0,0,0.126923,-0.00485229,-0.0589905,0.990082,12.4167,-42.7167,-44.9833,-2253,-29476
132132,0.0478516,-1.08623,10.1206,-6.77856,-0.302124,165.399,0,0,0,0.126953,-0.00485229,-0.05896,0.990082,12.4167,-42.6583,-44.9583,-2253,-29476
132138,0.0765625,-1.09102,10.0919,-6.77307,-0.302124,165.399,0,0,0,0.126953,-0.00485229,-0.05896,0.990082,12.4083,-42.6083,-44.925,-2253,-29476
132144,0.0526367,-1.0623,10.1254,-6.77307,-0.302124,165.399,0,0,0,0.126984,-0.00485229,-0.0589294,0.990082,12.4083,-42.5583,-44.9083,-2253,-29476
132150,0.0382813,-1.07187,10.1015,-6.77307,-0.302124,165.399,0,0,0,0.126984,-0.00482178,-0.0589294,0.990082,12.4083,-42.5167,-44.8917,-2253,-29476
132156,0.0430664,-1.05273,10.0632,-6.76758,-0.302124,165.394,0,0,0,0.127014,-0.00482178,-0.0588989,0.990082,12.4,-42.425,-44.9083,-2253,-29476
132162,0.0382813,-1.07187,10.1015,-6.76758,-0.302124,165.394,0,0,0,0.127014,-0.00482178,-0.0588684,0.990082,12.3917,-42.3917,-44.9417,-2253,-29476
132168,0.0191406,-1.06709,10.1062,-6.76208,-0.302124,165.388,0,0,0,0.127045,-0.00482178,-0.0588684,0.990082,12.3833,-42.85,-44.9417,-2253,-29476
132174,0.0526367,-1.08623,10.1158,-6.76208,-0.302124,165.388,0,0,0,0.127045,-0.00482178,-0.0588379,0.990082,12.375,-42.7583,-44.9417,-2253,-29476
132180,0.0287109,-1.07666,10.1015,-6.76208,-0.302124,165.388,0,0,0,0.127075,-0.00482178,-0.0588379,0.990082,12.375,-42.6833,-44.9333,-2253,-29476
132186,0.0382813,-1.10059,10.1158,-6.75659,-0.302124,165.383,0,0,0,0.127075,-0.00482178,-0.0588074,0.990082,12.3917,-42.575,-44.9583,-2253,-29476
132192,0.0526367,-1.07666,10.1254,-6.75659,-0.302124,165.383,0,0,0,0.127106,-0.00482178,-0.0587769,0.990082,12.4167,-42.5417,-44.9417,-2253,-29476
132198,0.0287109,-1.07666,10.1206,-6.7511,-0.302124,165.383,0,0,0,0.127106,-0.00482178,-0.0587463,0.990082,12.4333,-42.5083,-44.925,-2253,-29476
132204,0.0478516,-1.07666,10.1062,-6.7511,-0.302124,165.383,0,0,0,0.127106,-0.00482178,-0.0587463,0.990082,12.4417,-42.4833,-44.9083,-2253,-29476
132210,0.0239258,-1.09102,10.0967,-6.7511,-0.302124,165.377,0,0,0,0.127136,-0.00482178,-0.0587158,0.990082,12.4583,-42.475,-44.8667,-2253,-29476
132216,0.0287109,-1.07666,10.0919,-6.74561,-0.302124,165.377,0,0,0,0.127136,-0.00482178,-0.0587158,0.990082,12.4333,-42.4417,-44.9,-2253,-29476
132222,0.0382813,-1.05273,10.0967,-6.74561,-0.302124,165.377,0,0,0,0.127167,-0.00482178,-0.0586853,0.990082,12.425,-42.425,-44.9333,-2253,-29476
132228,0.105273,-1.08145,10.1302,-6.74011,-0.302124,165.372,0,0,0,0.127167,-0.00482178,-0.0586548,0.990082,12.4083,-42.3833,-44.9583,-2253,-29476
132234,0.0239258,-1.05752,10.1158,-6.74011,-0.302124,165.372,-0.183105,0.671387,0,0.127197,-0.00482178,-0.0586548,0.990082,12.3833,-42.3417,-44.9583,-2253,-29476
132240,0.00957031,-1.10059,10.1015,-6.74011,-0.302124,165.372,-0.183105,0.549316,0,0.127197,-0.00485229,-0.0586243,0.990082,12.35,-42.3,-44.9417,-2253,-29476
132246,0.0287109,-1.09102,10.1158,-6.73462,-0.296631,165.366,-0.12207,0.549316,0,0.127228,-0.00488281,-0.0586243,0.990082,12.3083,-42.2583,-44.9167,-2253,-29476
132252,0.0478516,-1.09102,10.0871,-6.73462,-0.291138,165.366,-0.244141,0.610352,0,0.127228,-0.00491333,-0.0585938,0.990082,12.3,-42.2333,-44.9417,-2253,-29476
132258,0.105273,-1.07666,10.1206,-6.73462,-0.291138,165.366,-0.12207,0.854492,0,0.127258,-0.00494385,-0.0585938,0.990082,12.3,-42.2083,-44.9833,-2253,-29476
132264,0.0765625,-1.0623,10.1015,-6.73462,-0.285645,165.361,-0.366211,1.2207,0,0.127258,-0.00497437,-0.0585632,0.990082,12.3083,-42.2,-45.0333,-2253,-29476
132270,0.0526367,-1.06709,10.0967,-6.73462,-0.280151,165.361,-0.427246,1.2207,0.305176,0.127289,-0.0050354,-0.0585632,0.990082,12.3083,-42.1833,-45.0667,-2253,-29476
132276,0.0813477,-1.10537,10.1206,-6.73462,-0.263672,165.361,-0.549316,1.46484,0.244141,0.127289,-0.00509644,-0.0585632,0.990082,12.35,-42.1917,-45.125,-2253,-29476
132282,0.0287109,-1.0623,10.0584,-6.73462,-0.258179,165.361,-0.366211,1.95312,0.366211,0.127289,-0.00521851,-0.0585632,0.990082,12.375,-42.2083,-45.1417,-2253,-29476
132288,0.00478516,-1.08145,10.0823,-6.73462,-0.247192,165.361,-0.610352,1.46484,0.305176,0.127289,-0.00531006,-0.0585327,0.990082,12.3917,-42.2333,-45.1417,-2253,-29476
132294,-0.0478516,-1.10059,10.1062,-6.73462,-0.241699,165.355,-0.488281,0.915527,0.183105,0.127289,-0.00537109,-0.0585327,0.990082,12.4083,-42.25,-45.1333,-2253,-29476
132300,-0.090918,-1.10537,10.1015,-6.73462,-0.236206,165.355,0,0.0610352,0,0.127289,-0.00540161,-0.0585327,0.990082,12.4,-42.2667,-45.1,-2253,-29476
132306,-0.14834,-1.0623,10.0488,-6.72913,-0.241699,165.355,0.183105,-1.15967,-0.12207,0.127289,-0.00540161,-0.0585327,0.990082,12.3917,-42.2333,-45.0417,-2253,-29476
132312,-0.124414,-1.11016,10.0967,-6.72913,-0.252686,165.355,0.976562,-4.76074,-0.549316,0.127319,-0.00524902,-0.0585022,0.990082,12.3833,-42.2,-45.0667,-2253,-29476
132318,-0.0382813,-1.11494,10.1158,-6.71814,-0.280151,165.355,1.52588,-6.04248,-0.549316,0.12735,-0.0050354,-0.0584717,0.990082,12.3833,-42.175,-45.0917,-2253,-29476
132324,0.172266,-1.0001,10.1062,-6.71265,-0.307617,165.355,1.34277,-5.7373,-0.427246,0.12735,-0.00476074,-0.0584106,0.990082,12.4,-42.15,-45.125,-2253,-29476
132330,0.45459,-0.952246,10.0871,-6.70166,-0.335083,165.355,-0.0610352,-2.92969,0,0.12738,-0.0045166,-0.0583801,0.990082,12.4,-42.1333,-45.1583,-2253,-29476
132336,0.47373,-1.09102,10.1637,-6.70166,-0.346069,165.355,-0.732422,0.854492,0.0610352,0.12738,-0.00439453,-0.0583801,0.990082,12.4167,-42.125,-45.2,-2253,-29476
132342,0.00478516,-1.10059,10.1158,-6.70166,-0.32959,165.35,-0.488281,3.11279,0.0610352,0.127411,-0.00454712,-0.0583801,0.990082,12.4167,-42.1333,-45.2333,-2253,-29476
132348,-0.114844,-1.11016,10.068,-6.70715,-0.31311,165.35,-0.488281,1.34277,0.12207,0.127411,-0.00469971,-0.0583496,0.990082,12.4083,-42.1583,-45.2333,-2253,-29476
132354,-0.14834,-1.16279,10.1302,-6.70715,-0.307617,165.344,-0.244141,-0.549316,-0.12207,0.127441,-0.00476074,-0.0583496,0.990082,12.3833,-42.1667,-45.2333,-2253,-29476
132360,-0.0813477,-1.15322,10.1637,-6.70715,-0.31311,165.344,0.549316,-1.95312,0,0.127441,-0.00473022,-0.0583496,0.990082,12.3583,-42.1583,-45.2083,-2253,-29476
132366,0.0287109,-1.03838,10.0536,-6.69617,-0.32959,165.344,0.671387,-2.19727,-0.12207,0.127441,-0.00463867,-0.0583191,0.990082,12.2917,-42.1333,-45.15,-2253,-29476
132372,0.229688,-1.08145,10.111,-6.69617,-0.340576,165.344,-0.305176,0.183105,-0.12207,0.127441,-0.00448608,-0.0582886,0.990082,12.2833,-42.1167,-45.1667,-2253,-29476
132378,0.129199,-1.11494,10.1015,-6.69617,-0.335083,165.344,-0.12207,1.28174,0.0610352,0.127472,-0.00448608,-0.0582886,0.990082,12.2917,-42.1167,-45.1667,-2253,-29476
132384,0.0287109,-1.04316,10.0153,-6.69067,-0.32959,165.339,-0.610352,1.40381,0.12207,0.127472,-0.00454712,-0.0582581,0.990082,12.2917,-42.1167,-45.1583,-2253,-29476
132390,-0.0430664,-1.11016,10.1015,-6.69617,-0.324097,165.339,-0.793457,0.610352,-0.0610352,0.127502,-0.00460815,-0.0582886,0.990082,12.3083,-42.1167,-45.1583,-2253,-29476
132396,-0.00478516,-1.13887,10.0823,-6.69617,-0.324097,165.339,-0.427246,-0.244141,-0.12207,0.127502,-0.00463867,-0.0582886,0.990051,12.3167,-42.1,-45.1333,-2253,-29476
132402,0.119629,-1.10059,10.044,-6.69617,-0.324097,165.333,-0.671387,-0.183105,-0.366211,0.127533,-0.00460815,-0.0582886,0.990051,12.3167,-42.5833,-45.1333,-2253,-29476
132408,0.14834,-1.12451,10.2067,-6.69617,-0.324097,165.333,-0.549316,0.183105,-0.305176,0.127563,-0.00460815,-0.0583191,0.990051,12.3083,-43.0167,-45.1333,-2253,-29476
132414,0.124414,-1.08623,10.1924,-6.70166,-0.324097,165.333,-0.366211,1.0376,-0.183105,0.127563,-0.00460815,-0.0583191,0.990051,12.3,-42.9167,-45.125,-2253,-29476
132420,0.0526367,-1.02881,10.1206,-6.70166,-0.318604,165.328,-0.244141,1.46484,-0.12207,0.127563,-0.00466919,-0.0583191,0.990051,12.3,-43.325,-45.075,-2253,-29476
132426,0.00957031,-1.11016,10.1062,-6.69617,-0.307617,165.328,-0.244141,1.09863,-0.12207,0.127594,-0.00473022,-0.0583191,0.990051,12.3333,-43.0833,-44.9667,-2253,-29476
132432,0.100488,-1.00488,9.99619,-6.69617,-0.302124,165.328,-0.671387,0.671387,-0.305176,0.127594,-0.00479126,-0.0582886,0.990051,12.3583,-42.975,-44.9167,-2253,-29476
132438,0.181836,-1.03359,10.0488,-6.69617,-0.302124,165.322,-1.70898,1.89209,-0.732422,0.127625,-0.00482178,-0.0582886,0.990051,12.3833,-42.9083,-44.9333,-2253,-29476
132444,0.339746,-1.1293,10.2498,-6.70715,-0.291138,165.317,-1.64795,4.21143,-1.09863,0.127655,-0.00491333,-0.0583496,0.990051,12.4167,-42.8583,-44.9417,-2253,-29476
132450,0.502441,-1.03359,10.1924,-6.71265,-0.274658,165.306,-1.15967,7.32422,-2.31934,0.127747,-0.00509644,-0.0583801,0.990021,12.4333,-42.8083,-44.9417,-2253,-29476
132456,0.92832,-0.799121,10.1732,-6.71814,-0.197754,165.24,-1.2207,9.52148,-8.8501,0.127869,-0.00540161,-0.0583496,0.990021,12.4333,-42.7083,-45.0083,-2253,-29476
132462,0.947461,-0.626855,10.1445,-6.72363,-0.153809,165.125,-1.64795,13.9771,-33.6914,0.129242,-0.00622559,-0.0583191,0.989838,12.4167,-42.675,-45.0333,-2253,-29476
132468,0.6125,-0.693848,10.1254,-6.72913,-0.109863,164.949,-2.56348,15.3809,-43.396,0.130768,-0.00671387,-0.0583191,0.989624,12.3833,-42.6417,-45.0417,-2253,-29476
132474,0.220117,-0.899609,10.111,-6.74011,-0.0604248,164.724,-2.74658,15.5029,-50.415,0.13269,-0.00723267,-0.0583191,0.989349,12.3583,-42.625,-45.0333,-2253,-29476
132480,-0.124414,-1.05752,10.1302,-6.74561,-0.0164795,164.46,-0.610352,12.8174,-56.2134,0.134918,-0.00775146,-0.0583496,0.989044,12.3,-42.5917,-45.0083,-2253,-29476
132486,-0.00478516,-0.937891,9.91963,-6.74011,0,163.856,0.366211,7.93457,-63.2935,0.13736,-0.00814819,-0.0582886,0.988708,12.1583,-42.55,-44.975,-2253,-29476
132492,0.62207,-0.832617,9.98184,-6.74011,-0.0219727,163.493,0,1.15967,-87.2192,0.14328,-0.00817871,-0.058197,0.987885,12.0667,-42.525,-44.9667,-2253,-29476
132498,1.01445,-0.856543,10.0919,-6.73462,-0.0714111,163.059,1.0376,0.305176,-103.394,0.147003,-0.00799561,-0.058197,0.987335,11.9667,-42.525,-44.9667,-2253,-29476
132504,1.22979,-0.76084,10.0393,-6.72363,-0.137329,162.554,2.31934,0.183105,-122.742,0.151428,-0.00769043,-0.0581665,0.986664,11.8667,-42.525,-44.975,-2253,-29476
132510,1.23457,-0.842188,10.0919,-6.70715,-0.214233,161.949,3.2959,-0.549316,-143.066,0.156647,-0.00732422,-0.058075,0.98587,11.7583,-42.55,-44.95,-2253,-29476
132516,1.0623,-1.02402,10.044,-6.65771,-0.406494,160.466,3.23486,-0.610352,-159.79,0.16272,-0.00683594,-0.0579529,0.984894,12.2583,-42.675,-44.95,-2253,-29476
132522,0.861328,-1.04795,9.95312,-6.63025,-0.505371,159.62,3.05176,2.68555,-183.411,0.176819,-0.00585938,-0.0577087,0.982483,12.4,-42.7583,-44.9417,-2253,-29476
132528,0.722559,-1.48818,10.202,-6.60278,-0.604248,158.725,0.976562,7.93457,-195.679,0.18457,-0.00540161,-0.0575867,0.981079,12.4833,-42.8417,-44.95,-2253,-29476
132534,0.569434,-1.38291,10.1445,-6.5863,-0.686646,157.764,2.38037,8.97217,-208.008,0.19281,-0.00518799,-0.0575256,0.979492,12.525,-42.925,-44.9417,-2253,-29476
132540,0.60293,-1.33984,10.1828,-6.55884,-0.76355,156.742,1.77002,11.2915,-218.811,0.201569,-0.00497437,-0.057373,0.977722,12.925,-43.0167,-44.9417,-2253,-29476
132546,0.449805,-1.45469,10.3599,-6.49841,-0.895386,154.539,2.99072,15.9302,-230.103,0.210754,-0.00482178,-0.057251,0.9758,13.425,-42.7917,-44.925,-2253,-29476
132552,0.531152,-1.73701,10.2594,-6.45447,-0.97229,153.336,4.21143,13.6108,-256.348,0.230621,-0.00469971,-0.0567627,0.971313,13.9667,-42.5167,-44.9167,-2253,-29476
132558,0.267969,-1.52646,10.2642,-6.41052,-1.05469,152.084,4.94385,19.3481,-265.198,0.241302,-0.0045166,-0.056488,0.96875,14.375,-42.3417,-44.8917,-2253,-29476
132564,-0.13877,-1.40684,9.83828,-6.36108,-1.10962,150.782,6.04248,11.1694,-272.278,0.252289,-0.00457764,-0.0561523,0.965973,14.6917,-42.2,-44.8667,-2253,-29476
132570,-0.105273,-1.56953,10.3694,-6.30066,-1.2085,149.458,5.85938,13.5498,-279.724,0.263519,-0.00427246,-0.0558167,0.962982,15.3167,-42.1333,-44.85,-2253,-29476
132576,0.215332,-1.72266,10.3551,-6.16882,-1.3678,146.7,8.42285,17.395,-285.645,0.274994,-0.00405884,-0.055481,0.959778,16.5333,-41.3083,-44.85,-2253,-29476
132582,0.30625,-2.11504,10.9484,-6.08093,-1.4447,145.267,15.3198,16.7236,-306.641,0.298645,-0.00378418,-0.0543823,0.952759,17.1167,-41.0917,-44.875,-2253,-29476
132588,-0.239258,-2.30166,10.8527,-5.96558,-1.52161,143.773,25.5737,20.874,-326.294,0.311066,-0.00354004,-0.0536194,0.948822,17.5583,-40.4667,-44.9167,-2253,-29476
132594,-0.220117,-2.11982,10.6326,-5.80078,-1.58752,142.185,37.9639,15.8081,-350.891,0.324219,-0.00326538,-0.0523682,0.944458,18.3333,-39.95,-44.9583,-2253,-29476
132600,1.01924,-2.43086,10.6087,-5.56458,-1.6864,140.477,41.626,3.72314,-377.258,0.338318,-0.00256348,-0.0506592,0.939606,18.9417,-39.5583,-44.9917,-2253,-29476
132606,0.311035,-2.34473,10.5226,-5.03723,-1.91711,136.664,42.2974,22.9492,-405.518,0.353333,-0.00125122,-0.0490112,0.934143,20.1167,-38.2167,-44.9333,-2253,-29476
132612,-0.468945,-2.21553,9.55117,-4.75159,-1.98853,134.566,42.0532,16.1743,-445.557,0.386414,0,-0.0449524,0.921173,21.0667,-37.7833,-44.8833,-2253,-29476
132618,-1.13408,-2.20596,9.12051,-4.47693,-2.0874,132.396,28.4424,33.2642,-453.003,0.403809,0.000915527,-0.0430908,0.913788,21.8167,-36.9917,-44.8,-2253,-29476
132624,-1.64609,-2.4165,8.7999,-4.2627,-2.0929,130.188,15.8691,31.3721,-452.942,0.421326,0.000915527,-0.0414429,0.905884,22.4333,-36.3167,-44.7333,-2253,-29476
132630,-0.861328,-2.78018,8.10606,-4.11438,-2.10388,127.985,0.427246,22.0337,-444.397,0.43869,0.000732422,-0.0403137,0.897675,23.3083,-35.8167,-44.6333,-2253,-29476
132636,-0.0143555,-2.64619,8.50322,-4.05945,-2.1698,123.745,-14.8926,25.7568,-430.603,0.455475,0.000610352,-0.039978,0.889282,24.9167,-33.95,-44.475,-2253,-29476
132642,-0.291895,-2.19639,8.29268,-4.14734,-2.15881,121.75,-52.9785,41.2598,-401.917,0.486847,-0.00112915,-0.040802,0.872467,25.6417,-33.15,-44.3917,-2253,-29476
132648,-0.215332,-2.05283,9.87178,-4.35608,-2.10388,119.806,-65.979,32.1045,-393.005,0.501556,-0.00317383,-0.0420837,0.864044,26.625,-32.0917,-44.325,-2253,-29476
132654,-0.100488,-2.41172,9.71865,-4.63074,-2.0929,117.916,-70.4346,22.4609,-388.184,0.515747,-0.00515747,-0.0440369,0.85553,27.4667,-31.2083,-44.25,-2253,-29476
132660,0.689063,-1.34463,9.90049,-4.92737,-2.14233,116.049,-72.5708,14.2822,-375.977,0.529602,-0.00689697,-0.0463867,0.846893,28.1333,-30.075,-44.1583,-2253,-29476
132666,4.13438,-1.56953,19.5952,-5.35583,-2.17529,112.445,-35.5225,46.6309,-373.291,0.542816,-0.00839233,-0.0489502,0.838318,29.875,-28.1167,-43.975,-2253,-29476
132672,0.282324,-0.440234,12.1017,-5.42175,-1.92261,110.528,-14.4043,46.9971,-421.448,0.569672,-0.0131226,-0.0484314,0.820282,30.5167,-26.8167,-43.925,-2253,-29476
132678,0.775195,0.497656,8.9626,-5.43274,-1.89514,108.484,1.15967,22.7051,-451.843,0.584229,-0.0142822,-0.0480957,0.809967,31.4833,-25.325,-43.8833,-2253,-29476
132684,0.60293,0.846973,12.1017,-5.35583,-1.99402,106.298,5.06592,25.6958,-472.656,0.599609,-0.0140686,-0.0478516,0.798676,32.3333,-24.0917,-43.8417,-2253,-29476
132690,0.062207,1.52168,10.5656,-5.25146,-2.0874,104.008,17.8833,42.6025,-478.577,0.615479,-0.0138245,-0.0473328,0.78653,33.0417,-22.675,-43.775,-2253,-29476
132696,-1.4834,1.76572,10.6422,-4.9054,-2.13135,99.4043,18.6157,33.6914,-467.896,0.631378,-0.0138245,-0.045929,0.773926,34.1333,-19.4,-43.6417,-2253,-29476
132702,-1.08623,-0.866113,11.2738,-4.77356,-2.1698,97.2345,6.53076,35.1562,-416.138,0.660919,-0.0133057,-0.0437622,0.748993,34.9833,-17.6,-43.55,-2253,-29476
132708,-1.90449,-0.746484,10.6518,-4.6637,-2.16431,95.2185,10.9863,34.8511,-374.817,0.674042,-0.0134888,-0.0427856,0.737274,35.725,-16.2,-43.4583,-2253,-29476
132714,-0.282324,-0.177051,10.0345,-4.54285,-2.13684,93.4058,3.54004,25.6958,-329.529,0.685608,-0.0136108,-0.041626,0.726562,36.3917,-14.55,-43.3583,-2253,-29476
132720,2.44521,0.483301,9.4459,-4.46594,-2.13135,91.8182,-28.3813,26.4282,-274.902,0.695618,-0.0137329,-0.0409546,0.717041,36.975,-12.725,-43.225,-2253,-29476
132726,-2.23467,-1.4834,11.7188,-4.59778,-1.92261,89.3079,-15.8691,56.3965,-245.361,0.703827,-0.0149231,-0.0411987,0.708954,37.9,-9.60833,-42.9333,-2253,-29476
132732,-1.53604,1.22021,8.74248,-4.52087,-1.82922,88.3026,-6.40869,25.3296,-174.683,0.717255,-0.0171509,-0.0389099,0.695435,38.2917,-7.75833,-42.8083,-2253,-29476
132738,-0.631641,0.62207,10.3168,-4.52637,-1.76331,87.4677,-11.2305,15.1367,-157.532,0.72226,-0.0178528,-0.0384216,0.690247,38.6333,-6.225,-42.6833,-2253,-29476
132744,0.401953,0.349316,9.71387,-4.55383,-1.74133,86.7206,-14.4653,-1.89209,-144.043,0.726746,-0.0184326,-0.0383301,0.685516,38.9417,-4.89167,-42.5583,-2253,-29476
132750,0.961816,-0.0957031,9.90049,-4.60327,-1.80176,86.0449,-19.7144,-7.14111,-128.357,0.730804,-0.0186157,-0.0388794,0.681152,39.225,-3.25833,-42.425,-2253,-29476
132756,0.899609,-1.83271,10.9437,-4.75159,-1.92261,84.9188,-19.3481,-0.183105,-110.535,0.734375,-0.0188293,-0.0397339,0.677246,39.7583,-0.633333,-42.2083,-2253,-29476
132762,-0.0574219,-0.550293,9.63731,-4.76257,-1.89514,84.4629,-6.22559,9.15527,-89.7827,0.740082,-0.0196533,-0.0401917,0.670929,40.0083,0.4,-42.125,-2253,-29476
132768,0.0239258,-0.44502,10.312,-4.77905,-1.87866,84.0399,-8.42285,6.28662,-90.0269,0.742584,-0.019989,-0.0401001,0.668182,40.2417,1.26667,-42.0667,-2253,-29476
132774,0.0717773,-0.492871,10.178,-4.80103,-1.87866,83.606,-7.38525,8.60596,-90.5762,0.745087,-0.0202942,-0.0401611,0.665375,40.4583,2.525,-42.0083,-2253,-29476
132780,0.0861328,-0.669922,9.94834,-4.823,-1.86768,83.172,-8.78906,9.09424,-86.792,0.74762,-0.0206299,-0.0401306,0.662506,40.6583,3.60833,-41.925,-2253,-29476
132786,0.277539,-0.856543,10.0728,-4.88892,-1.84021,82.3645,-11.5356,8.30078,-79.1626,0.750031,-0.0210571,-0.0401001,0.65976,41.025,5.35833,-41.75,-2253,-29476
132792,0.392383,-0.842188,10.3072,-4.93286,-1.81824,82.0294,-9.70459,9.21631,-60.9131,0.75415,-0.0220337,-0.0401917,0.655029,40.7583,6.04167,-41.6667,-2253,-29476
132798,0.46416,-1.0958,10.2594,-4.96582,-1.79077,81.7328,-12.085,9.70459,-58.5327,0.755829,-0.022522,-0.0401917,0.653046,40.95,6.625,-41.6,-2253,-29476
132804,0.248828,-1.36377,10.2689,-5.01526,-1.76331,81.4417,-7.99561,8.11768,-56.4575,0.757446,-0.0231018,-0.0402222,0.651154,40.7083,7.125,-41.5417,-2253,-29476
132810,0.421094,-0.693848,10.3646,-5.04272,-1.74683,81.1615,2.13623,8.91113,-53.2227,0.759033,-0.0234985,-0.0401917,0.649292,40.4917,8.05,-41.45,-2253,-29476
132816,0.617285,-0.75127,9.57031,-5.01526,-1.70288,80.6177,-0.854492,8.17871,-55.7251,0.760529,-0.0235901,-0.039856,0.647552,40.1333,9.55833,-41.3,-2253,-29476
132822,0.626855,-1.49297,9.91006,-4.98779,-1.66992,80.2991,7.08008,12.8174,-71.7163,0.763916,-0.0238342,-0.0391846,0.643585,39.9833,10.175,-41.2167,-2253,-29476
132828,0.46416,-1.75137,10.0393,-4.93835,-1.63696,79.9365,5.7373,14.4043,-80.8105,0.765961,-0.0238342,-0.0386047,0.641205,39.85,10.7083,-41.1417,-2253,-29476
132834,0.267969,-1.92842,10.1637,-4.8999,-1.59302,79.5245,8.60596,13.7939,-84.1675,0.76825,-0.0239258,-0.0380249,0.638489,39.7333,11.1667,-41.075,-2253,-29476
132840,0.354102,-1.71787,10.135,-4.84497,-1.56006,79.1016,11.2305,13.6108,-83.1909,0.77063,-0.0238953,-0.0374146,0.635651,39.6417,11.5583,-40.9917,-2253,-29476
132846,0.210547,-1.17715,10.3072,-4.70215,-1.48865,78.2776,12.9395,14.2822,-79.2236,0.772949,-0.0237732,-0.0367432,0.632874,39.4667,12.1583,-40.8833,-2253,-29476
132852,-0.258398,-0.722559,9.87656,-4.65271,-1.4447,77.9095,3.479,13.855,-66.9556,0.777222,-0.0236511,-0.0353088,0.627716,39.3917,12.3583,-40.825,-2253,-29476
132858,-0.502441,-1.02881,10.0871,-4.63074,-1.40076,77.569,1.95312,10.1929,-58.5327,0.779083,-0.0238342,-0.0348206,0.625427,39.3333,13.0083,-40.775,-2253,-29476
132864,-0.373242,-0.942676,10.1158,-4.61426,-1.3678,77.2668,1.83105,6.04248,-50.9644,0.780701,-0.0239868,-0.0344849,0.623383,39.2917,13.575,-40.7167,-2253,-29476
132870,-0.248828,-0.961816,10.2115,-4.60327,-1.35681,77.0087,1.15967,4.3335,-42.7856,0.782135,-0.0240479,-0.0342712,0.621613,39.2583,14.025,-40.6333,-2253,-29476
132876,-0.224902,-1.13408,10.2785,-4.58679,-1.34033,76.6132,1.0376,4.27246,-33.6304,0.783325,-0.0240784,-0.0341187,0.620117,39.2417,14.7667,-40.4667,-2253,-29476
132882,-0.325391,-0.890039,10.1302,-4.57581,-1.32935,76.4758,1.28174,1.0376,-18.8599,0.784973,-0.0241699,-0.033844,0.618042,39.25,15.0667,-40.4,-2253,-29476
132888,-0.100488,-0.851758,10.1637,-4.57031,-1.32935,76.377,0.976562,-0.854492,-14.7095,0.785553,-0.0241699,-0.033783,0.61734,39.2417,15.325,-40.35,-2253,-29476
132894,0.0813477,-0.846973,10.2211,-4.56482,-1.33484,76.2946,0.976562,-0.549316,-10.6201,0.78598,-0.0241394,-0.033783,0.61676,39.2417,15.5667,-40.3083,-2253,-29476
132900,0.46416,-0.842188,10.1015,-4.56482,-1.33484,76.2341,0.244141,2.31934,-6.95801,0.786316,-0.0241089,-0.0337524,0.616333,39.2417,15.7667,-40.275,-2253,-29476
132906,0.162695,-0.971387,10.1254,-4.55933,-1.29639,76.1682,1.34277,5.43213,-1.09863,0.78656,-0.0241699,-0.0336609,0.616028,39.2,16.1167,-40.1833,-2253,-29476
132912,0.282324,-1.07666,10.0775,-4.55383,-1.26343,76.1627,0.793457,7.14111,3.60107,0.786682,-0.0244446,-0.0331726,0.615906,39.1833,16.2667,-40.1833,-2253,-29476
132918,0.0143555,-1.44512,10.2977,-4.55383,-1.22498,76.1682,2.99072,10.7422,6.71387,0.786652,-0.0246582,-0.0328979,0.615936,39.1917,16.4,-40.2,-2253,-29476
132924,-0.468945,-1.59346,10.3024,-4.53735,-1.16455,76.1847,5.37109,16.4185,16.0522,0.78656,-0.0249023,-0.0324402,0.616089,39.2,16.5,-40.225,-2253,-29476
132930,-0.330176,-1.6748,10.2785,-4.51538,-1.07666,76.2451,6.65283,22.8882,27.0386,0.786224,-0.0252075,-0.0317078,0.616547,39.2083,16.5833,-40.2667,-2253,-29476
132936,-0.129199,-1.4834,10.623,-4.43848,-0.785522,76.5143,11.7798,29.1138,35.3394,0.785583,-0.0256653,-0.0307312,0.617371,39.2167,16.7333,-40.2667,-2253,-29476
132942,-0.224902,-0.0717773,9.13965,-4.37805,-0.637207,76.6571,8.48389,15.9302,22.583,0.783966,-0.0265198,-0.0280457,0.619507,39.2,16.8333,-40.2417,-2253,-29476
132948,0.186621,-0.430664,9.54639,-4.3396,-0.543823,76.745,2.56348,7.62939,12.0239,0.783478,-0.0267029,-0.0272522,0.620178,39.1833,16.925,-40.2083,-2253,-29476
132954,0.263184,-4.00518,12.0969,-4.32861,-0.499878,76.7889,10.498,10.3149,12.085,0.783234,-0.026886,-0.0269165,0.620453,39.125,17.0333,-40.1667,-2253,-29476
132960,0.717773,-2.20596,10.4269,-4.28467,-0.444946,76.8274,27.9541,30.7617,41.3208,0.78302,-0.0268555,-0.0262756,0.620758,39.075,17.15,-40.1333,-2253,-29476
132966,0.301465,0.47373,8.68984,-4.03748,-0.0769043,77.1844,24.6582,36.7432,40.4663,0.782043,-0.026825,-0.0244446,0.62207,39.7417,17.3917,-40.0833,-2253,-29476
132972,0.062207,1.42119,8.68506,-4.00452,0.0714111,77.2833,-11.3525,19.043,10.0098,0.780518,-0.02771,-0.0213013,0.624054,39.6167,17.525,-40.0833,-2253,-29476
132978,-0.526367,-0.617285,10.6805,-4.06494,0.170288,77.3053,-14.7705,12.0239,-1.15967,0.780365,-0.0286255,-0.0209656,0.624237,39.5,17.6417,-40.0667,-2253,-29476
132984,-0.521582,-1.27764,11.0537,-4.13635,0.22522,77.2723,-4.15039,4.21143,-6.89697,0.780518,-0.0294495,-0.0209961,0.624023,39.8083,17.7583,-40.0333,-2253,-29476
132990,-0.0239258,-0.794336,10.4747,-4.16382,0.241699,77.2174,2.2583,0.12207,-10.1318,0.780823,-0.0297241,-0.0209656,0.623627,40.075,17.8833,-39.9917,-2253,-29476
132996,0.344531,-0.263184,9.87656,-4.15833,0.252686,77.0746,-0.793457,3.2959,-9.39941,0.781219,-0.0296326,-0.0209351,0.623138,40.5,18.0583,-39.9167,-2253,-29476
133002,-0.330176,-1.14844,10.0249,-4.19128,0.291138,77.0142,-8.48389,10.3149,-3.05176,0.781891,-0.0302124,-0.020752,0.622223,40.6583,18.1333,-39.9083,-2253,-29476
133008,-0.550293,-1.23457,10.1732,-4.23523,0.340576,76.9702,-7.38525,8.72803,2.13623,0.782104,-0.0307922,-0.0206604,0.621979,40.8,18.2083,-39.9083,-2253,-29476
133014,-0.478516,-0.971387,10.1876,-4.27368,0.384521,76.9592,-5.67627,6.7749,4.88281,0.782166,-0.0312805,-0.0205688,0.621887,40.9333,18.2667,-39.8917,-2253,-29476
133020,-0.392383,-0.660352,10.0967,-4.30115,0.41748,76.9592,-3.78418,2.44141,1.89209,0.782135,-0.0316772,-0.0204773,0.621887,41.0417,18.3167,-39.8667,-2253,-29476
133026,-0.224902,-0.6125,10.1015,-4.33411,0.411987,76.8933,-1.58691,-3.66211,-6.65283,0.782196,-0.0318909,-0.0205078,0.621796,41.1333,18.3583,-39.8083,-2253,-29476
133032,0.0526367,-0.765625,10.1972,-4.32861,0.362549,76.7889,2.62451,-10.9253,-23.5596,0.783051,-0.0315552,-0.0209656,0.620728,41.3167,18.425,-39.725,-2253,-29476
133038,0.0334961,-0.937891,10.1828,-4.31763,0.296631,76.6571,3.66211,-10.6201,-25.7568,0.783783,-0.0311584,-0.0213013,0.619781,41.3917,18.45,-39.6917,-2253,-29476
133044,-0.00478516,-1.07666,10.178,-4.30115,0.236206,76.5143,4.76074,-8.91113,-24.0479,0.784607,-0.0307312,-0.0216064,0.618774,41.4417,18.4667,-39.6667,-2253,-29476
133050,-0.0239258,-1.1293,10.1541,-4.27917,0.181274,76.377,5.43213,-7.01904,-20.6909,0.785339,-0.0303345,-0.0218201,0.617828,41.5167,18.4667,-39.65,-2253,-29476
133056,-0.105273,-1.04795,10.0345,-4.22974,0.109863,76.1572,5.18799,-5.06592,-16.4795,0.786011,-0.0299683,-0.0219421,0.617004,41.6167,18.45,-39.6,-2253,-29476
133062,-0.535937,-0.837402,9.82871,-4.21326,0.0878906,76.0858,1.0376,-2.31934,-3.479,0.786926,-0.0294189,-0.0220337,0.615845,41.7,18.425,-39.5917,-2253,-29476
133068,-0.521582,-0.827832,9.9292,-4.20776,0.0769043,76.0529,-0.915527,-2.86865,3.2959,0.78714,-0.0293579,-0.0220642,0.615601,41.775,18.4083,-39.5917,-2253,-29476
133074,-0.459375,-0.732129,10.0297,-4.21326,0.065918,76.0529,-2.19727,-4.45557,8.48389,0.78714,-0.0293274,-0.0221863,0.615601,41.85,18.375,-39.5917,-2253,-29476
133080,-0.440234,-0.665137,10.0153,-4.22974,0.0494385,76.0803,-3.23486,-6.16455,12.3901,0.786987,-0.0293274,-0.0223694,0.615784,41.925,18.3583,-39.6083,-2253,-29476
133086,-0.598145,-0.684277,10.0058,-4.26819,-0.00549316,76.1902,-4.39453,-9.15527,16.2354,0.786743,-0.0292969,-0.022644,0.616089,41.9917,18.3417,-39.6167,-2253,-29476
133092,-0.837402,-0.75127,9.94834,-4.29565,-0.0604248,76.2781,-6.46973,-17.1509,26.7334,0.785919,-0.0291443,-0.0235596,0.617126,42.075,18.3667,-39.65,-2253,-29476
133098,-0.6125,-0.722559,9.96748,-4.32861,-0.131836,76.3989,-7.93457,-22.0947,30.8228,0.785278,-0.0289612,-0.0242615,0.61792,42.1083,18.3833,-39.6333,-2253,-29476
133104,-0.110059,-0.60293,10.0153,-4.37256,-0.22522,76.5417,-9.0332,-26.123,31.189,0.784515,-0.028717,-0.025177,0.618835,42.1417,18.425,-39.6417,-2253,-29476
133110,0.550293,-0.564648,10.2498,-4.4165,-0.335083,76.6846,-9.39941,-26.7334,27.771,0.783752,-0.0283813,-0.0262146,0.619812,42.1667,18.4667,-39.6583,-2253,-29476
133116,0.985742,-0.631641,10.4316,-4.50989,-0.55481,76.9098,-8.91113,-22.3389,21.9727,0.783051,-0.0280457,-0.0273132,0.620636,42.2,18.5083,-39.6917,-2253,-29476
133122,0.124414,-0.813477,10.4173,-4.55383,-0.620728,76.9867,-5.98145,-11.9629,19.9585,0.782104,-0.02771,-0.0289612,0.621765,41.8667,18.5667,-39.775,-2253,-29476
133128,-0.196191,-0.478516,10.0058,-4.5813,-0.670166,77.0691,-4.82178,-12.207,18.0054,0.781677,-0.0276184,-0.02948,0.622284,41.5333,18.575,-39.7917,-2253,-29476
133134,-0.0861328,-0.311035,9.82871,-4.60876,-0.719604,77.1405,-7.75146,-18.0054,12.7563,0.781281,-0.0274963,-0.0299683,0.622742,41.2417,18.6,-39.8,-2253,-29476
133140,0.0478516,-0.373242,9.82871,-4.64722,-0.796509,77.1899,-10.6201,-25.4517,4.69971,0.781036,-0.0273132,-0.0307312,0.623016,40.975,18.6167,-39.7917,-2253,-29476
133146,0.200977,-0.655566,10.0393,-4.75708,-1.06567,77.179,-12.146,-29.9683,-1.09863,0.781006,-0.0270081,-0.0318604,0.623047,40.725,18.6333,-39.7917,-2253,-29476
133152,0.507227,-1.1293,10.379,-4.80652,-1.2085,77.157,-8.30078,-26.8555,-1.95312,0.78125,-0.0262146,-0.0344238,0.62262,40.3,18.7,-39.825,-2253,-29476
133158,0.90918,-1.32549,10.4699,-4.85046,-1.34033,77.1295,-6.10352,-21.9116,-1.0376,0.781403,-0.0257874,-0.0355225,0.622406,40.1333,18.725,-39.85,-2253,-29476
133164,1.78008,-1.44512,10.8336,-4.87793,-1.4447,77.1075,-0.549316,-7.87354,0.0610352,0.781525,-0.0254211,-0.036377,0.622223,40,18.7667,-39.9,-2253,-29476
133170,0.77041,-0.957031,10.1015,-4.87793,-1.48315,77.0911,2.13623,2.38037,0.183105,0.781647,-0.025238,-0.0366516,0.62207,39.8917,18.8,-39.9417,-2253,-29476
133176,-0.220117,-0.684277,9.77129,-4.86145,-1.46118,77.0416,0.976562,0.427246,0.0610352,0.781769,-0.025238,-0.0364685,0.621887,39.8,18.8083,-39.9917,-2253,-29476
133182,0.665137,-0.980957,10.3024,-4.86145,-1.48315,77.0197,0.488281,-2.62451,0.427246,0.782013,-0.025116,-0.0365601,0.621582,39.6417,18.7833,-40.0833,-2253,-29476
133188,0.569434,-0.885254,10.2498,-4.86145,-1.49414,76.9977,1.64795,1.52588,0.671387,0.782135,-0.0250549,-0.0365906,0.621429,39.575,18.7583,-40.15,-2253,-29476
133194,0.234473,-0.717773,10.0871,-4.85046,-1.48315,76.9757,1.52588,2.80762,0.854492,0.782257,-0.0250549,-0.036499,0.621307,39.5083,18.7417,-40.2167,-2253,-29476
133200,0.205762,-0.698633,10.0536,-4.83948,-1.47217,76.9537,0.854492,2.0752,0.854492,0.782379,-0.0250854,-0.0363464,0.621155,39.45,18.7417,-40.275,-2253,-29476
133206,0.30625,-0.823047,10.1445,-4.83398,-1.4502,76.9153,0.793457,1.58691,0.427246,0.782471,-0.025116,-0.0362244,0.621033,39.4,18.75,-40.3333,-2253,-29476
133212,0.244043,-0.784766,10.111,-4.82849,-1.43921,76.8878,0.671387,2.99072,0.12207,0.782745,-0.025177,-0.0360107,0.620728,39.3167,18.7833,-40.3833,-2253,-29476
133218,0.100488,-0.746484,10.0775,-4.823,-1.42273,76.8658,0.366211,2.44141,0,0.782867,-0.025238,-0.0358887,0.620544,39.2917,18.8,-40.4,-2253,-29476
133224,0.0813477,-0.775195,10.0775,-4.823,-1.40625,76.8384,-0.183105,1.09863,-0.427246,0.78299,-0.0252991,-0.0357666,0.620392,39.275,18.8083,-40.425,-2253,-29476
133230,0.177051,-0.794336,10.1685,-4.823,-1.40076,76.8109,-0.183105,0.0610352,-0.549316,0.783142,-0.0253601,-0.0357056,0.620209,39.2667,18.8333,-40.425,-2253,-29476
133236,0.220117,-0.77041,10.1732,-4.8175,-1.40076,76.756,0.0610352,0.12207,-0.671387,0.783295,-0.0253601,-0.0357056,0.620026,39.25,18.85,-40.4083,-2253,-29476
133242,0.133984,-0.832617,10.1397,-4.8175,-1.39526,76.7285,-0.12207,0.976562,-0.366211,0.783569,-0.0254211,-0.0356445,0.619659,39.2,18.8833,-40.375,-2253,-29476
133248,0.177051,-0.75127,10.1062,-4.8175,-1.38977,76.7065,-0.0610352,0.915527,-0.305176,0.783722,-0.0254517,-0.0355835,0.619476,39.1833,18.8917,-40.35,-2253,-29476
133254,0.253613,-0.789551,10.0632,-4.8175,-1.38428,76.6791,-0.610352,0.915527,0,0.783875,-0.0254822,-0.035553,0.619293,39.1583,18.9,-40.3417,-2253,-29476
133260,0.253613,-0.818262,10.0871,-4.823,-1.37878,76.6516,-0.854492,1.15967,0.12207,0.783997,-0.0255432,-0.0355225,0.619141,39.1417,18.9083,-40.3167,-2253,-29476
133266,0.263184,-0.842188,10.1062,-4.82849,-1.3623,76.6022,-0.671387,1.46484,-0.0610352,0.784119,-0.0256042,-0.0354919,0.618988,39.1333,18.9167,-40.2917,-2253,-29476
133272,0.181836,-0.92832,10.1302,-4.82849,-1.35681,76.5802,-0.12207,0.976562,-0.427246,0.784393,-0.0257263,-0.0354004,0.618622,39.1167,18.9167,-40.2667,-2253,-29476
133278,0.234473,-0.923535,10.1206,-4.82849,-1.35132,76.5527,0.366211,1.58691,-0.244141,0.784546,-0.0257568,-0.0353394,0.618439,39.1167,18.925,-40.2833,-2253,-29476
133284,0.282324,-0.952246,10.1493,-4.823,-1.34033,76.5253,0.976562,2.86865,-0.12207,0.784668,-0.0257874,-0.0352783,0.618286,39.125,18.9417,-40.3,-2253,-29476
133290,0.267969,-0.91875,10.1828,-4.8175,-1.32935,76.5033,1.34277,3.90625,-0.12207,0.784821,-0.0258484,-0.0351257,0.618103,39.1167,18.9417,-40.3583,-2253,-29476
133296,0.210547,-0.91875,10.178,-4.80103,-1.27991,76.4484,2.01416,5.06592,0.0610352,0.784943,-0.0259094,-0.0349426,0.61795,39.1083,18.95,-40.4167,-2253,-29476
133302,0.162695,-0.76084,10.1445,-4.79004,-1.25244,76.4264,2.19727,6.40869,0.488281,0.785217,-0.026062,-0.0344238,0.617645,39.0917,18.9417,-40.4667,-2253,-29476
133308,0.0669922,-0.75127,10.1732,-4.77905,-1.21948,76.4044,1.89209,6.16455,0.488281,0.785339,-0.0261841,-0.0341492,0.617493,39.0667,18.9583,-40.4667,-2253,-29476
133314,0.0430664,-0.732129,10.1206,-4.76807,-1.18652,76.3824,1.70898,5.5542,0.305176,0.785461,-0.0262756,-0.0338745,0.61734,39.0417,18.9667,-40.4667,-2253,-29476
133320,0.0669922,-0.741699,10.0919,-4.75708,-1.15906,76.3605,1.15967,4.5166,0.244141,0.785583,-0.0263672,-0.0336304,0.617218,39,18.4833,-40.475,-2253,-29476
133326,0.14834,-0.775195,10.1015,-4.75159,-1.11511,76.322,0.793457,3.96729,0.549316,0.785675,-0.0264587,-0.0334473,0.617065,38.975,18.0583,-40.475,-2253,-29476
133332,0.129199,-0.837402,10.1206,-4.74609,-1.09863,76.3,0.793457,3.66211,0.610352,0.785858,-0.0266418,-0.0331116,0.616852,38.95,17.8083,-40.4833,-2253,-29476
133338,0.0382813,-0.856543,10.1302,-4.7406,-1.07666,76.2836,0.854492,2.86865,0.488281,0.78595,-0.0267029,-0.032959,0.61673,38.9333,17.9333,-40.4833,-2253,-29476
133344,0.0813477,-0.799121,10.0967,-4.73511,-1.06567,76.2671,0.427246,2.31934,0.427246,0.786072,-0.0267639,-0.0328369,0.616608,38.9333,18.0333,-40.5,-2253,-29476
133350,0.0717773,-0.784766,10.068,-4.73511,-1.04919,76.2451,0,1.89209,0.671387,0.786163,-0.026825,-0.0327148,0.616486,38.925,18.125,-40.5083,-2253,-29476
133356,0.0813477,-0.789551,10.0919,-4.73511,-1.03271,76.2122,-0.366211,1.64795,0.854492,0.786255,-0.026886,-0.0326538,0.616364,38.9,18.2083,-40.525,-2253,-29476
133362,0.0382813,-0.794336,10.0919,-4.7406,-1.02722,76.1957,-0.793457,0.671387,1.34277,0.786438,-0.0270081,-0.0325623,0.61615,38.8583,18.3583,-40.5083,-2253,-29476
133368,-0.00478516,-0.775195,10.0871,-4.7406,-1.02173,76.1792,-1.28174,-0.427246,1.58691,0.786499,-0.0270691,-0.0325317,0.616028,38.8167,18.4333,-40.5083,-2253,-29476
133374,0.0239258,-0.784766,10.0728,-4.74609,-1.02173,76.1682,-2.01416,-1.58691,2.50244,0.786591,-0.0270996,-0.0325623,0.615936,38.7833,18.5,-40.5,-2253,-29476
133380,-0.0334961,-0.837402,10.1062,-4.75708,-1.02722,76.1572,-2.62451,-2.68555,4.02832,0.786621,-0.0271301,-0.0326538,0.615875,38.7583,18.075,-40.4667,-2253,-29476
133386,-0.674707,-1.15801,9.9292,-4.79004,-1.06567,76.1957,-3.54004,-6.40869,9.70459,0.786621,-0.0271606,-0.0328064,0.615906,38.725,17.7,-40.425,-2253,-29476
133392,0.0669922,-0.837402,10.068,-4.81201,-1.10413,76.2836,-4.3335,-12.6343,24.9023,0.78595,-0.0270386,-0.0335083,0.61673,38.7083,17.0417,-40.3083,-2253,-29476
133398,0.330176,-0.789551,10.1541,-4.83398,-1.15356,76.3989,-4.45557,-12.207,23.8037,0.785339,-0.0269165,-0.0339966,0.617462,38.675,16.7583,-40.2667,-2253,-29476
133404,0.478516,-0.77998,10.245,-4.85596,-1.203,76.5088,-3.66211,-10.498,20.2637,0.78476,-0.0267639,-0.0344849,0.618195,38.65,16.5,-40.225,-2253,-29476
133410,0.512012,-0.77998,10.2737,-4.87793,-1.24695,76.5967,-2.56348,-8.91113,16.0522,0.784271,-0.0266724,-0.0349121,0.618774,38.6417,16.275,-40.1917,-2253,-29476
133416,0.46416,-0.77998,10.202,-4.8999,-1.30737,76.723,-1.58691,-6.71387,12.6953,0.783875,-0.0265503,-0.0352478,0.619263,38.6333,16.075,-40.1917,-2253,-29476
133422,0.0191406,-0.923535,10.0584,-4.91089,-1.32385,76.767,-1.52588,-4.39453,12.0239,0.783356,-0.0263977,-0.0356445,0.619934,38.6917,15.7417,-40.225,-2253,-29476
133428,-0.114844,-0.980957,10.1015,-4.92188,-1.32935,76.8384,-2.38037,-4.39453,24.7803,0.782959,-0.0264282,-0.0357971,0.620392,38.725,15.5917,-40.2917,-2253,-29476
133434,0.0669922,-0.990527,10.1254,-4.93835,-1.34033,76.9537,-2.50244,-4.5166,31.9214,0.782349,-0.0264282,-0.0359497,0.621185,38.7667,15.4583,-40.3583,-2253,-29476
133440,0.277539,-0.899609,10.1685,-4.94934,-1.34583,77.1021,-2.38037,-3.41797,36.1328,0.781525,-0.0264587,-0.0361328,0.622192,38.7833,15.3417,-40.4,-2253,-29476
133446,0.291895,-0.851758,10.1541,-4.9823,-1.34033,77.4481,-2.31934,-2.62451,37.5977,0.780609,-0.0264893,-0.0362549,0.623322,38.7833,15.25,-40.4083,-2253,-29476
133452,0.330176,-0.808691,10.1828,-4.99878,-1.33484,77.6239,-2.2583,-2.44141,37.5366,0.778687,-0.0266724,-0.0364075,0.625732,38.775,15.125,-40.3167,-2253,-29476
133458,0.406738,-0.846973,10.1637,-5.00977,-1.33484,77.7887,-1.40381,-2.2583,30.7617,0.777771,-0.0267029,-0.036499,0.626831,38.7583,15.0917,-40.2833,-2253,-29476
133464,0.349316,-0.789551,10.1254,-5.02075,-1.32935,77.926,-0.976562,-2.01416,25.4517,0.777008,-0.0267639,-0.0365906,0.627777,38.7417,15.075,-40.2417,-2253,-29476
133470,0.291895,-0.890039,10.1541,-5.02625,-1.32935,78.0414,-0.854492,-1.34277,21.0571,0.776367,-0.0267639,-0.0366211,0.62854,38.7167,15.0583,-40.2417,-2253,-29476
133476,0.277539,-0.937891,10.1637,-5.03723,-1.31836,78.2117,-0.12207,-1.09863,18.3105,0.775879,-0.0267944,-0.0366516,0.62915,38.6917,15.0583,-40.2333,-2253,-29476
133482,0.234473,-0.851758,10.1015,-5.03723,-1.31836,78.2831,0.305176,-0.976562,16.9678,0.775055,-0.0267944,-0.0366516,0.630188,39.0583,15.1167,-40.2333,-2253,-29476
133488,0.229688,-0.842188,10.1732,-5.03723,-1.31287,78.349,0.244141,-0.854492,15.0146,0.774689,-0.0267944,-0.0366516,0.630615,39.4083,15.1583,-40.2167,-2253,-29476
133494,0.244043,-0.842188,10.1158,-5.03723,-1.31287,78.4094,0.183105,-0.793457,14.4653,0.774353,-0.0267944,-0.0366516,0.631042,39.7333,15.1917,-40.2,-2253,-29476
133500,0.267969,-0.827832,10.1254,-5.03723,-1.30737,78.4698,0.244141,-0.732422,13.9771,0.774048,-0.0267944,-0.0366516,0.631439,40.0167,15.225,-40.2083,-2253,-29476
133506,0.229688,-0.823047,10.1254,-5.03723,-1.30188,78.5797,-0.12207,-0.427246,14.2212,0.773712,-0.0267944,-0.0366211,0.631805,39.8667,15.2667,-40.25,-2253,-29476
133512,0.143555,-0.904395,10.1397,-5.04272,-1.29639,78.6401,-0.671387,-0.671387,15.3198,0.773071,-0.0268555,-0.0366211,0.632599,39.625,15.3833,-40.3583,-2253,-29476
133560,0.105273,-0.957031,10.1302,-5.08667,-1.2854,79.3652,-1.70898,-3.35693,29.9683,0.769043,-0.0269775,-0.0369873,0.637482,40.9667,15.8333,-40.6417,-2253,-29476
133566,0.105273,-0.933105,10.1685,-5.11414,-1.29089,79.6509,-1.89209,-3.54004,34.1187,0.768311,-0.0270081,-0.0371094,0.638367,41.1167,15.875,-40.675,-2253,-29476
133572,0.301465,-0.765625,10.2307,-5.12512,-1.29639,79.8212,-1.89209,-4.15039,37.0483,0.76651,-0.0270386,-0.0373535,0.640503,41.3917,15.975,-40.6667,-2253,-29476
133578,0.392383,-0.727344,10.1685,-5.13611,-1.29639,79.9915,-1.83105,-3.479,34.5459,0.765564,-0.0270691,-0.0374756,0.641632,41.5083,15.5333,-40.675,-2253,-29476
133584,0.368457,-0.76084,10.1637,-5.15259,-1.29639,80.1453,-2.01416,-3.17383,31.7383,0.764679,-0.0270691,-0.0375977,0.64267,41.6167,15.1333,-40.6917,-2253,-29476
133590,0.31582,-0.789551,10.1493,-5.16357,-1.29639,80.2881,-1.83105,-2.44141,29.2969,0.763855,-0.0271301,-0.0377197,0.643616,41.7167,14.8,-40.7167,-2253,-29476
133596,0.224902,-0.856543,10.1015,-5.18555,-1.29639,80.5463,-1.83105,-2.44141,27.9541,0.763123,-0.0271606,-0.0378113,0.644501,41.8,14.5333,-40.75,-2253,-29476
133602,0.224902,-0.885254,10.1302,-5.19653,-1.29639,80.6671,-1.83105,-2.44141,26.3672,0.761719,-0.0272217,-0.0379639,0.646118,41.925,14.1083,-40.8083,-2253,-29476
133608,0.210547,-0.913965,10.1158,-5.20752,-1.29639,80.777,-2.01416,-1.70898,24.8413,0.761108,-0.0272827,-0.0380554,0.646851,41.975,13.9417,-40.85,-2253,-29476
133614,0.114844,-0.942676,10.044,-5.21851,-1.29089,80.8923,-2.38037,-1.77002,26.3672,0.760468,-0.0273438,-0.0381165,0.647583,42.0167,13.8083,-40.875,-2253,-29476
133620,0,-0.980957,10.0345,-5.23499,-1.2854,81.0077,-2.86865,-2.2583,31.4331,0.759796,-0.0274048,-0.038208,0.648376,42.0417,13.6917,-40.9,-2253,-29476
133626,-0.0765625,-1.05752,10.0584,-5.27344,-1.27991,81.3428,-3.60107,-3.35693,39.856,0.758972,-0.0274963,-0.0382996,0.649323,42.0583,13.6167,-40.9083,-2253,-29476
133632,-0.0191406,-1.16758,10.1637,-5.29541,-1.27991,81.579,-4.08936,-4.76074,50.0488,0.756531,-0.0276794,-0.0386658,0.65213,42.0583,13.4917,-40.9,-2253,-29476
133638,-0.0574219,-1.15322,10.135,-5.32288,-1.27991,81.8646,-2.86865,-6.34766,70.0073,0.754913,-0.0277405,-0.0388489,0.654022,42.05,13.45,-40.8667,-2253,-29476
133644,-0.0526367,-1.1293,10.1254,-5.34485,-1.27991,82.2052,-2.44141,-7.56836,79.7729,0.75296,-0.0278015,-0.0390625,0.656219,42.0417,13.425,-40.875,-2253,-29476
133650,-0.0191406,-1.16279,10.111,-5.36682,-1.27441,82.5897,-1.95312,-8.48389,89.5386,0.750763,-0.0278015,-0.0392456,0.658752,42.0333,13.4333,-40.8833,-2253,-29476
133656,-0.062207,-1.16279,10.1062,-5.40527,-1.26892,83.5071,-1.95312,-9.0332,100.891,0.74826,-0.027771,-0.0394592,0.66156,42.0417,13.4583,-40.8917,-2253,-29476
133662,-0.29668,-1.40205,10.0488,-5.43274,-1.26343,84.0729,-2.92969,-9.76562,116.76,0.742126,-0.0278015,-0.039917,0.668427,42.0083,13.0667,-40.8917,-2253,-29476
133668,-0.492871,-1.65566,10.0871,-5.47119,-1.24695,84.743,-4.57764,-13.4888,157.532,0.73822,-0.0279236,-0.0402222,0.672699,42,12.7,-40.8917,-2253,-29476
133674,-0.502441,-1.72744,10.0871,-5.51514,-1.23596,85.5121,-3.35693,-16.2964,181.274,0.733673,-0.0279541,-0.0405884,0.677643,41.9833,12.4,-40.8917,-2253,-29476
133680,-0.382812,-1.55996,10.0775,-5.5481,-1.23047,86.402,-3.54004,-17.9443,207.214,0.728363,-0.0279541,-0.0409546,0.683319,41.9667,12.1917,-40.8833,-2253,-29476
133686,-0.449805,-1.49297,10.0967,-5.64697,-1.19751,88.5553,-5.5542,-20.3857,231.934,0.72226,-0.0279236,-0.0413818,0.689728,41.95,12.0667,-40.9,-2253,-29476
133692,0.258398,-1.1293,10.3599,-5.69641,-1.19202,89.7803,-4.3335,-24.8413,248.413,0.707855,-0.027832,-0.04245,0.704437,41.8833,11.1417,-40.9583,-2253,-29476
133698,0.215332,-1.17715,10.1589,-5.74036,-1.19202,91.0382,-1.34277,-24.4751,258.301,0.700073,-0.0276489,-0.0429993,0.712158,41.85,10.8583,-41.0083,-2253,-29476
133704,-0.133984,-1.19629,10.202,-5.77332,-1.18103,92.3071,0.671387,-24.5972,265.808,0.692139,-0.0274658,-0.043457,0.719849,41.8083,10.175,-41.05,-2253,-29476
133710,-0.990527,-1.81836,9.63731,-5.80078,-1.16455,93.609,6.71387,-29.6631,280.823,0.683899,-0.0271912,-0.0438232,0.727661,41.775,9.675,-41.0833,-2253,-29476
133716,-0.244043,-1.43555,10.6087,-5.7843,-1.15906,96.4709,9.39941,-30.4565,302.917,0.67511,-0.0266418,-0.0441589,0.73584,41.7333,9.34167,-41.1167,-2253,-29476
133722,-1.18672,-2.24424,10.001,-5.77332,-1.1261,98.0804,8.36182,-27.1606,327.637,0.654999,-0.0256042,-0.0444946,0.753815,41.6917,8.15,-41.2333,-2253,-29476
133728,-1.18672,-2.70361,10.1493,-5.7843,-1.08215,99.8328,9.39941,-35.6445,388.611,0.643372,-0.0252686,-0.0447083,0.763763,41.6833,7.25833,-41.2833,-2253,-29476
133734,-0.502441,-2.94287,9.95312,-5.77881,-1.05469,101.744,11.8408,-35.7666,420.41,0.630554,-0.0246277,-0.0449219,0.774384,41.675,6.61667,-41.3333,-2253,-29476
133740,-0.435449,-3.20127,10.1685,-5.76233,-1.01624,103.81,9.94873,-34.0576,447.51,0.616455,-0.0240173,-0.0450439,0.785675,41.7,5.71667,-41.3667,-2253,-29476
133746,-0.133984,-3.23955,9.46982,-5.7843,-0.878906,108.325,4.94385,-33.7524,469.543,0.601227,-0.0235596,-0.0451355,0.797394,41.75,4.6,-41.425,-2253,-29476
133752,1.17236,-3.26826,10.4077,-5.82275,-0.785522,110.726,1.0376,-32.0435,487.732,0.567871,-0.0232239,-0.0456848,0.821442,41.5333,1.83333,-41.6167,-2253,-29476
133758,1.85664,-2.91416,10.3359,-5.85022,-0.637207,113.192,-1.77002,-5.00488,511.475,0.549988,-0.0234375,-0.0456543,0.833527,41.2833,0.641667,-41.75,-2253,-29476
133764,2.0624,-2.49307,11.2547,-5.89417,-0.395508,115.697,-0.305176,13.1226,513.367,0.531555,-0.0244141,-0.0453796,0.845398,41.1,-0.691667,-41.8917,-2253,-29476
133770,2.12939,-1.44033,11.092,-5.92163,-0.065918,118.196,-0.915527,30.8838,507.202,0.512848,-0.026001,-0.0446167,0.856842,40.975,-2.16667,-42.0583,-2253,-29476
133776,2.06719,-0.459375,9.95312,-5.96008,0.845947,123.036,-8.78906,51.3916,494.263,0.494202,-0.0281982,-0.043457,0.867737,40.925,-3.79167,-42.1833,-2253,-29476
133782,0.14834,-0.60293,11.6231,-5.97656,1.40625,125.343,-10.0708,63.7817,480.347,0.457825,-0.0348206,-0.0406799,0.88736,40.2167,-6.94167,-42.3667,-2253,-29476
133788,-0.090918,-1.6748,11.8193,-5.99304,2.12036,127.573,-13.5498,124.512,466.248,0.440094,-0.0396423,-0.0387268,0.896179,39.975,-8.60833,-42.4083,-2253,-29476
133794,0.62207,-2.60313,11.3647,-5.97107,2.96631,129.776,-8.11768,147.217,480.164,0.422394,-0.0455322,-0.0361633,0.90448,39.425,-9.925,-42.3917,-2253,-29476
133800,0.459375,-0.789551,11.8911,-5.88318,3.93311,132.039,-8.66699,183.35,481.567,0.403992,-0.0521545,-0.032959,0.912628,38.9833,-11.425,-42.35,-2253,-29476
133806,0.6125,-1.10059,11.36,-5.60303,6.38306,136.456,-10.7422,222.168,466.675,0.385406,-0.0602112,-0.0291138,0.920258,38.6417,-13.1083,-42.25,-2253,-29476
133812,-0.215332,-0.75127,10.1445,-5.3833,7.70691,138.521,-4.63867,229.553,445.129,0.349915,-0.0794067,-0.0200195,0.933136,37.7833,-16.05,-41.9667,-2253,-29476
133818,-0.177051,0.0574219,9.37412,-5.10315,8.99231,140.449,4.76074,209.534,381.592,0.333618,-0.0887146,-0.0152893,0.938354,37.25,-17.3917,-41.8,-2253,-29476
133824,-0.320605,0.746484,9.18272,-4.79004,10.1678,142.229,3.05176,193.42,347.046,0.318573,-0.097229,-0.0107117,0.94278,36.8167,-18.9333,-41.575,-2253,-29476
133830,-0.698633,1.11016,8.79033,-4.47693,11.2335,143.849,-4.39453,184.753,311.951,0.304871,-0.105042,-0.00662231,0.946503,36.4667,-20.6583,-41.3,-2253,-29476
133836,-1.33027,1.13887,8.77598,-3.97705,13.1781,146.662,-14.2212,176.636,289.612,0.29248,-0.112518,-0.00308228,0.949554,36.1917,-22.0417,-41.0167,-2253,-29476
133842,-2.52656,0.890039,8.73291,-3.80127,14.0845,147.964,-25.8179,171.082,275.513,0.269775,-0.126862,0.00216675,0.954468,35.025,-25.45,-40.4,-2253,-29476
133848,-3.05771,0.631641,8.72813,-3.66943,14.9524,149.233,-49.4995,159.973,266.724,0.25882,-0.13382,0.00387573,0.956543,34.5667,-27.0333,-40.1083,-2253,-29476
133854,-3.58408,0.258398,8.86211,-3.57056,15.7928,150.507,-58.6548,152.771,266.418,0.247803,-0.140656,0.00506592,0.958466,34.175,-28.3667,-39.7917,-2253,-29476
133860,-3.96211,-0.0382813,9.08223,-3.50464,16.5948,151.793,-63.1104,141.785,264.404,0.236694,-0.147278,0.00579834,0.960297,33.8667,-29.475,-39.45,-2253,-29476
133866,-4.00996,-0.200977,9.18272,-3.36731,18.0066,154.336,-63.6597,126.343,257.019,0.225586,-0.153473,0.00622559,0.962006,33.6167,-30.9167,-39.1333,-2253,-29476
133872,-3.33525,-0.397168,9.59902,-3.28491,18.5834,155.55,-61.2183,109.07,245.972,0.204315,-0.163727,0.00650024,0.965027,32.875,-33.1583,-38.475,-2253,-29476
133878,-2.6749,-0.411523,9.96748,-3.18604,19.0723,156.698,-47.7905,77.3926,214.783,0.194519,-0.167725,0.00656128,0.96637,32.4,-34.0333,-38.175,-2253,-29476
133884,-1.97627,-0.349316,10.1828,-3.06519,19.4788,157.769,-37.9028,64.27,192.81,0.185455,-0.171021,0.00671387,0.96759,32.0167,-35.2583,-37.8917,-2253,-29476
133890,-1.46426,-0.373242,10.178,-2.92236,19.8083,158.73,-27.771,54.9316,166.504,0.177399,-0.173645,0.00701904,0.968628,31.725,-36.2917,-37.625,-2253,-29476
133896,-1.58867,-0.645996,9.92441,-2.64221,20.3522,160.225,-21.8506,55.1147,136.902,0.170502,-0.175812,0.00747681,0.969452,31.525,-37.175,-37.3667,-2253,-29476
133902,-1.95234,-0.062207,9.39326,-2.50488,20.5994,160.785,-13.2446,51.5747,114.624,0.160278,-0.17984,0.00857544,0.970459,30.5,-39.0583,-36.8917,-2253,-29476
133908,-2.56963,0.354102,8.42188,-2.32361,20.7806,161.378,-10.498,51.4526,91.1865,0.155457,-0.181152,0.00942993,0.970978,30.1,-40.0667,-36.6833,-2253,-29476
133914,-3.90947,0.559863,8.92432,-2.21375,21.0168,161.818,-10.3149,39.5508,73.8525,0.151825,-0.183044,0.0100098,0.971222,29.7583,-40.925,-36.4917,-2253,-29476
133920,-4.09131,1.00488,8.07734,-2.13135,21.1871,162.169,-15.3809,14.7705,64.3311,0.148895,-0.184448,0.010376,0.971405,29.5,-41.675,-36.3,-2253,-29476
133926,-3.56973,1.3542,8.28311,-2.0929,21.2366,162.477,-24.6582,-9.52148,51.2085,0.146332,-0.184845,0.0102844,0.97171,29.2833,-42.3333,-36.15,-2253,-29476
133932,-4.00996,-0.330176,9.33105,-2.18079,21.0992,162.845,-23.3154,-7.69043,27.4658,0.143127,-0.183807,0.00875854,0.972382,28.5667,-43.4333,-35.9083,-2253,-29476
133938,-3.41182,0.0574219,9.3167,-2.23022,20.9509,162.894,-10.1929,-45.3491,1.52588,0.14267,-0.182587,0.00808716,0.972687,28.0917,-43.8917,-35.8333,-2253,-29476
133944,-2.97158,0.60293,9.0583,-2.27417,20.6927,162.889,-9.64355,-60.73,-14.5874,0.142731,-0.180481,0.00738525,0.973083,27.6917,-44.3083,-35.775,-2253,-29476
133950,-3.19648,0.13877,9.27363,-2.34558,20.3632,162.806,-8.17871,-61.7065,-32.959,0.143463,-0.177765,0.00646973,0.97348,27.3583,-44.6583,-35.7333,-2253,-29476
133956,-3.92861,-0.339746,9.68516,-2.43896,20.0226,162.631,-4.3335,-61.0962,-43.7012,0.144958,-0.174988,0.00549316,0.973785,27.0583,-45,-35.7083,-2253,-29476
133962,-4.13438,0.435449,8.92432,-2.61475,19.3744,162.219,-6.04248,-57.9834,-34.9731,0.148468,-0.169678,0.00375366,0.974182,26.5417,-45.5917,-35.7,-2253,-29476
133968,-3.64629,0.124414,8.76641,-2.70264,19.0778,162.12,-13.9771,-71.228,-29.1748,0.149323,-0.167297,0.00271606,0.974487,26.3333,-45.85,-35.6917,-2253,-29476
133974,-2.82324,-0.29668,9.47939,-2.8125,18.7042,161.977,-12.5122,-84.4116,-41.2598,0.150513,-0.164246,0.00149536,0.974823,26.1417,-46.1,-35.7083,-2253,-29476
133980,-2.31123,-0.555078,10.3407,-2.93335,18.2648,161.779,-7.44629,-82.8247,-44.4336,0.152222,-0.160645,0.000152588,0.975159,25.9833,-46.325,-35.7167,-2253,-29476
133986,-2.07676,-0.890039,10.1493,-3.02673,17.8253,161.565,-6.10352,-76.7212,-42.7856,0.154083,-0.157074,-0.000976562,0.975433,25.8417,-46.55,-35.7417,-2253,-29476
133992,-2.56006,-0.363672,9.8957,-3.18054,17.0398,161.164,-2.50244,-73.0591,-42.6025,0.157684,-0.150604,-0.00286865,0.975891,25.6333,-46.95,-35.9,-2253,-29476
133998,-2.67012,-0.358887,9.27842,-3.21899,16.6168,160.977,-0.671387,-88.4399,-34.4238,0.159363,-0.147064,-0.00354004,0.976135,25.5583,-47.1417,-36,-2253,-29476
134004,-3.11035,-0.401953,9.50811,-3.25745,16.1609,160.829,-5.5542,-92.1631,-25.7568,0.160797,-0.14325,-0.00436401,0.976471,25.4917,-47.3333,-36.125,-2253,-29476
134010,-3.3209,-0.526367,9.80479,-3.31238,15.694,160.724,-8.66699,-91.8579,-15.8691,0.161835,-0.139313,-0.00537109,0.976868,25.4583,-47.525,-36.2667,-2253,-29476
134016,-2.66533,-0.526367,8.90518,-3.36182,15.2271,160.675,-8.48389,-103.149,-3.78418,0.162384,-0.135437,-0.00643921,0.977325,25.45,-47.7167,-36.3833,-2253,-29476
134022,-1.82314,-0.784766,9.81914,-3.47717,14.1559,160.73,-18.1274,-112.183,-0.732422,0.162262,-0.126465,-0.00906372,0.978516,24.6917,-47.5583,-36.65,-2253,-29476
134028,-1.69873,-0.808691,10.1158,-3.57605,13.5901,160.757,-17.0288,-111.511,-5.85938,0.162201,-0.121765,-0.0107727,0.979095,24.4083,-47.7583,-36.7833,-2253,-29476
134034,-1.00967,-0.746484,9.21143,-3.65295,13.0353,160.768,-16.0522,-117.371,-7.14111,0.162262,-0.117157,-0.0122986,0.979645,24.2,-47.4333,-36.9417,-2253,-29476
134040,-0.947461,-0.569434,9.68037,-3.72986,12.453,160.779,-19.043,-116.333,-11.2915,0.162354,-0.112274,-0.0137939,0.980164,24.05,-47.1583,-37.1,-2253,-29476
134046,-0.875684,-0.875684,9.44111,-3.82324,11.8707,160.768,-20.813,-116.821,-15.8691,0.162628,-0.107452,-0.0154724,0.980652,23.9417,-46.9,-37.25,-2253,-29476
134052,-1.09102,-0.62207,10.3742,-4.04846,10.7172,160.664,-21.5454,-114.99,-22.2168,0.163788,-0.0979004,-0.0190125,0.981384,23.4167,-46.475,-37.6,-2253,-29476
134058,-0.923535,-0.540723,9.00566,-4.13635,10.1733,160.576,-11.5356,-113.22,-27.4658,0.164703,-0.0933838,-0.0204773,0.981659,23.0167,-46.3167,-37.7917,-2253,-29476
134064,-0.90918,-0.947461,8.55586,-4.20227,9.60205,160.488,-19.2261,-109.436,-31.0669,0.16568,-0.0886536,-0.0218506,0.981903,22.7083,-46.1833,-37.975,-2253,-29476
134160,-0.732129,-1.07666,9.96748,-6.48193,3.87817,161.862,-2.56348,-24.5361,-0.732422,0.155334,-0.0422974,-0.0504761,0.985626,17.75,-45.6167,-41.9,-2253,-29476
134166,-0.703418,-1.14844,10.1015,-6.49292,3.7738,161.889,-1.52588,-25.8789,-3.78418,0.155151,-0.0413818,-0.0507202,0.985657,17.6333,-45.25,-42.0833,-2253,-29476
134172,-0.478516,-0.947461,10.1302,-6.49292,3.54309,161.906,-0.305176,-26.6113,-5.67627,0.155182,-0.0393982,-0.0510864,0.985718,17.4833,-44.65,-42.325,-2253,-29476
134178,-0.46416,-1.03359,10.178,-6.49841,3.42224,161.895,-0.732422,-25.5127,-8.17871,0.155304,-0.0383606,-0.051239,0.985748,17.4167,-44.8833,-42.45,-2253,-29476
134184,-0.459375,-1.11973,10.2259,-6.49841,3.30688,161.884,-0.12207,-23.8647,-7.62939,0.155457,-0.037384,-0.0514221,0.985748,17.3667,-45.0917,-42.5667,-2253,-29476
134190,-0.550293,-1.0623,10.202,-6.49841,3.20251,161.873,0,-21.9116,-6.53076,0.155609,-0.0364685,-0.0515442,0.985748,17.3167,-45.275,-42.7083,-2253,-29476
134196,-0.818262,-1.03838,10.0536,-6.49292,3.10364,161.867,-0.671387,-20.5078,-3.41797,0.155731,-0.035614,-0.0516663,0.985748,17.2917,-44.9417,-42.8583,-2253,-29476
134202,-1.00488,-1.17715,10.0249,-6.50391,2.92786,161.911,-2.44141,-20.1416,1.89209,0.155426,-0.0341187,-0.052002,0.98584,16.4583,-45.3083,-43.1583,-2253,-29476
134208,-1.08145,-1.35898,10.068,-6.51489,2.83997,161.977,-4.08936,-21.2402,14.3433,0.154907,-0.0333557,-0.0522461,0.985931,16.125,-44.9667,-43.2917,-2253,-29476
134214,-1.04795,-1.30156,10.0105,-6.53137,2.75757,162.076,-4.57764,-21.3623,23.5596,0.154083,-0.0326233,-0.0525208,0.986084,15.8417,-45.175,-43.4167,-2253,-29476
134220,-0.818262,-1.15322,10.0297,-6.54785,2.68066,162.224,-5.18799,-22.1558,31.1279,0.152863,-0.0318909,-0.0527954,0.986267,15.5917,-45.35,-43.5,-2253,-29476
134226,-0.492871,-1.05273,10.044,-6.56433,2.60376,162.405,-5.24902,-23.6816,35.7056,0.151306,-0.0311584,-0.0530701,0.986511,15.375,-45.0167,-43.5667,-2253,-29476
134232,0.0143555,-1.30156,10.202,-6.59729,2.43347,162.839,-5.79834,-24.5972,38.8184,0.147675,-0.029541,-0.0537109,0.987091,15.0083,-45.3917,-43.675,-2253,-29476
134238,0.191406,-1.3542,10.3838,-6.61377,2.35107,163.076,-5.5542,-20.3857,44.7388,0.14566,-0.0287781,-0.0540466,0.987396,14.875,-45.525,-43.7417,-2253,-29476
134244,0.191406,-1.30156,10.3072,-6.63025,2.29065,163.323,-4.15039,-16.4185,44.7388,0.143555,-0.0281067,-0.0543213,0.987701,14.7833,-45.6417,-43.7917,-2253,-29476
134250,0.186621,-1.08623,10.4029,-6.64124,2.24121,163.57,-2.38037,-11.5967,41.8701,0.141449,-0.0276184,-0.0545349,0.988007,14.7417,-45.7417,-43.8417,-2253,-29476
134256,0.0526367,-0.937891,10.2881,-6.64124,2.21924,163.795,-1.46484,-6.83594,36.9873,0.139526,-0.0273132,-0.0546265,0.988281,14.7167,-45.8167,-43.8667,-2253,-29476
134262,-0.411523,-1.00488,10.1158,-6.64124,2.22473,164.169,-1.52588,-3.54004,32.4097,0.136322,-0.0271606,-0.0546875,0.988739,14.3333,-45.975,-43.8833,-2253,-29476
134268,-0.478516,-1.0623,10.0919,-6.64124,2.24121,164.328,-0.976562,-1.58691,28.1372,0.134949,-0.0272217,-0.054718,0.988922,13.9917,-46.05,-43.9,-2253,-29476
134274,-0.492871,-0.966602,10.1302,-6.63574,2.2522,164.476,-0.610352,-1.58691,25.3906,0.133606,-0.0272827,-0.0546875,0.989105,13.7083,-46.1167,-43.925,-2253,-29476
134280,-0.516797,-0.985742,10.0249,-6.63025,2.26868,164.614,-0.610352,-1.83105,23.3154,0.132416,-0.0273438,-0.0546875,0.989258,13.45,-46.1667,-43.95,-2253,-29476
134286,-0.645996,-0.990527,10.0201,-6.63025,2.27966,164.745,-1.34277,-2.74658,23.1934,0.131317,-0.0273438,-0.054657,0.98941,13.225,-46.2167,-43.9917,-2253,-29476
134292,-0.45459,-1.20586,10.2881,-6.63574,2.29614,165.009,-2.31934,-1.95312,24.9634,0.128998,-0.0273743,-0.0547485,0.989716,12.875,-46.2583,-44.0333,-2253,-29476
134298,-0.45459,-1.17715,10.1254,-6.63574,2.30713,165.152,-0.488281,-1.46484,27.1606,0.127747,-0.0274353,-0.0547791,0.989868,12.7333,-46.2833,-44.0583,-2253,-29476
134304,-0.449805,-0.966602,10.0871,-6.63025,2.32361,165.3,-0.244141,-2.44141,25.7568,0.126465,-0.0274658,-0.0547485,0.990021,12.6167,-46.3,-44.0583,-2253,-29476
134310,-0.478516,-0.913965,10.0297,-6.62476,2.3291,165.443,-0.854492,-3.41797,22.7661,0.125275,-0.0274658,-0.054718,0.990173,12.525,-46.3167,-44.025,-2253,-29476
134316,-0.516797,-1.02402,10.111,-6.61926,2.3291,165.569,-0.915527,-4.45557,19.5923,0.124176,-0.0274048,-0.054718,0.990326,12.45,-46.35,-43.9917,-2253,-29476
134322,-0.44502,-1.07666,10.1445,-6.61377,2.31812,165.773,0.0610352,-4.82178,16.4795,0.122406,-0.0271606,-0.0547485,0.99054,12.35,-46.3833,-43.9667,-2253,-29476
134328,-0.368457,-0.923535,10.068,-6.60278,2.30713,165.85,1.52588,-4.15039,8.66699,0.121765,-0.0270386,-0.0546875,0.990631,12.3167,-46.4,-43.9667,-2253,-29476
134334,-0.45459,-0.961816,10.0632,-6.5918,2.29065,165.905,1.64795,-3.84521,4.08936,0.121277,-0.026886,-0.0545959,0.990692,12.2917,-46.4,-43.9667,-2253,-29476
134340,-0.631641,-0.980957,9.99141,-6.58081,2.27966,165.938,1.70898,-5.12695,0.976562,0.121033,-0.0267639,-0.0545349,0.990753,12.2667,-46.3833,-43.9667,-2253,-29476
134346,-0.583789,-0.593359,10.1732,-6.56982,2.25769,165.954,0.976562,-7.26318,-0.793457,0.12088,-0.0265503,-0.0544739,0.990753,12.25,-46.3667,-43.975,-2253,-29476
134352,-0.708203,-1.31592,10.0201,-6.56433,2.19177,165.959,-0.793457,-7.93457,-3.66211,0.12088,-0.0259399,-0.0545044,0.990784,12.2333,-46.3417,-43.9833,-2253,-29476
134358,-0.559863,-0.985742,9.90527,-6.55334,2.13135,165.959,2.38037,-15.3809,-5.85938,0.120911,-0.0254517,-0.0544739,0.990784,12.2417,-46.3583,-44,-2253,-29476
134364,-0.339746,-0.741699,9.98662,-6.54236,2.05994,165.948,1.34277,-17.8833,-10.0708,0.121063,-0.0247803,-0.0544434,0.990784,12.2583,-46.375,-44.0333,-2253,-29476
134370,-0.277539,-0.827832,10.0249,-6.53137,1.96655,165.916,0.732422,-20.0195,-15.1978,0.121368,-0.0240173,-0.0544434,0.990784,12.275,-46.3833,-44.0583,-2253,-29476
134376,-0.325391,-0.985742,10.0584,-6.53137,1.86218,165.861,0.671387,-21.3623,-18.5547,0.121887,-0.0231323,-0.0545044,0.990723,12.2917,-46.3833,-44.1083,-2253,-29476
134382,-0.392383,-1.14365,10.135,-6.52039,1.63147,165.712,1.0376,-22.7051,-19.8364,0.123291,-0.0212097,-0.054657,0.990601,12.3417,-46.35,-44.125,-2253,-29476
134388,-0.459375,-1.19629,10.1972,-6.51489,1.51611,165.641,0.915527,-22.0947,-14.6484,0.123962,-0.0202026,-0.0547485,0.990509,12.3583,-46.3333,-44.1167,-2253,-29476
134394,-0.339746,-1.22021,10.2115,-6.5094,1.40076,165.591,0.854492,-20.752,-9.70459,0.124481,-0.0192566,-0.0548096,0.990479,12.375,-46.35,-44.125,-2253,-29476
134400,-0.320605,-1.20107,10.1732,-6.50391,1.29639,165.564,1.2207,-19.2261,-6.04248,0.124756,-0.0183716,-0.0548706,0.990448,12.3917,-46.3583,-44.1167,-2253,-29476
134406,-0.31582,-1.15801,10.1206,-6.49841,1.203,165.553,1.09863,-17.8223,-2.86865,0.124908,-0.0175476,-0.0549011,0.990448,12.4083,-46.3583,-44.1333,-2253,-29476
134412,-0.220117,-1.0623,10.0871,-6.48193,1.03821,165.575,0.976562,-17.334,-0.549316,0.124817,-0.0161133,-0.0549622,0.990479,12.4667,-46.3667,-44.2,-2253,-29476
134418,-0.291895,-1.04316,10.0297,-6.47644,0.961304,165.586,0.854492,-18.5547,-0.610352,0.124725,-0.0153809,-0.0550232,0.990509,12.4917,-46.375,-44.2333,-2253,-29476
134424,-0.851758,-0.636426,9.56553,-6.47095,0.873413,165.602,-0.305176,-24.4751,-4.02832,0.124603,-0.0146179,-0.0550537,0.990509,12.1,-46.3833,-44.2583,-2253,-29476
134430,-0.693848,-0.717773,9.85264,-6.47095,0.752563,165.608,-0.976562,-35.5835,-10.2539,0.124634,-0.0136108,-0.0551758,0.990509,11.7583,-46.3917,-44.2917,-2253,-29476
134436,-0.311035,-0.775195,9.94834,-6.47644,0.582275,165.591,-0.366211,-43.8232,-16.9067,0.124878,-0.0121155,-0.0554199,0.990509,11.45,-46.4,-44.325,-2253,-29476
134442,-0.421094,-1.05752,10.1254,-6.48743,0.12085,165.482,-2.74658,-47.1802,-20.1416,0.126038,-0.00820923,-0.0559998,0.990356,10.95,-46.4083,-44.3833,-2253,-29476
134448,-0.301465,-1.75137,10.3407,-6.5094,-0.109863,165.438,-5.49316,-44.1895,-10.9863,0.126556,-0.00622559,-0.0564575,0.990295,10.7417,-46.4167,-44.4,-2253,-29476
134454,1.46426,-2.50264,12.6854,-6.53687,-0.324097,165.421,6.22559,-30.5786,0.366211,0.126801,-0.00439453,-0.0569153,0.990234,10.55,-46.4333,-44.45,-2253,-29476
134460,2.01455,-0.555078,9.76172,-6.50391,-0.466919,165.454,11.5967,-11.5967,0.854492,0.126587,-0.00311279,-0.0567932,0.990265,10.4,-46.425,-44.475,-2253,-29476
134466,1.52168,0.349316,8.78076,-6.44348,-0.516357,165.476,-1.95312,2.31934,-0.183105,0.126404,-0.00259399,-0.0563354,0.990326,10.2833,-46.425,-44.5083,-2253,-29476
134472,0.0526367,-1.98105,11.2068,-6.49292,-0.439453,165.498,-8.42285,11.5967,1.2207,0.12619,-0.0032959,-0.0566711,0.990326,10.1167,-46.4333,-44.55,-2253,-29476
134478,-0.803906,-0.579004,9.45068,-6.48193,-0.357056,165.504,3.90625,10.2539,0.610352,0.126099,-0.0039978,-0.056488,0.990356,10.0417,-46.4667,-44.5417,-2253,-29476
134484,-0.913965,-0.492871,9.34062,-6.45996,-0.302124,165.515,-3.54004,0.915527,0.732422,0.125977,-0.00445557,-0.0562439,0.990387,9.975,-46.5,-44.55,-2253,-29476
134490,-0.449805,-1.60781,10.5704,-6.47644,-0.296631,165.531,-2.86865,-5.06592,0.671387,0.125854,-0.0045166,-0.056366,0.990387,9.89167,-46.5083,-44.5583,-2253,-29476
134496,-0.0382813,-1.49297,10.4986,-6.48743,-0.31311,165.547,4.02832,-5.00488,-0.12207,0.125671,-0.00436401,-0.056488,0.990387,9.80833,-46.5167,-44.5833,-2253,-29476
134502,0.244043,-0.693848,9.86221,-6.45447,-0.351562,165.58,2.68555,-3.72314,-0.183105,0.125427,-0.0039978,-0.0562134,0.990448,9.66667,-46.5083,-44.6,-2253,-29476
134508,0.339746,-1.3877,10.6278,-6.46545,-0.357056,165.591,-1.70898,0.732422,0,0.125305,-0.00396729,-0.0563354,0.990448,9.625,-46.5167,-44.6083,-2253,-29476
134514,0.239258,-1.16758,10.3024,-6.47095,-0.346069,165.608,1.89209,2.50244,0.12207,0.125214,-0.00402832,-0.0563965,0.990479,9.59167,-46.5333,-44.5917,-2253,-29476
134520,0.0526367,-0.6125,9.65645,-6.45996,-0.335083,165.619,-0.488281,2.2583,-0.12207,0.125092,-0.00411987,-0.0562744,0.990479,9.575,-46.525,-44.6,-2253,-29476
134526,0.0861328,-1.08623,10.1828,-6.45996,-0.318604,165.63,-3.11279,1.46484,0.366211,0.125,-0.00424194,-0.0562744,0.990509,9.56667,-46.5083,-44.6167,-2253,-29476
134532,0.00478516,-1.05752,10.0058,-6.47095,-0.296631,165.652,-0.183105,2.19727,0.12207,0.124786,-0.00445557,-0.056366,0.99054,9.56667,-46.475,-44.6167,-2253,-29476
134538,-0.129199,-0.827832,9.78086,-6.46545,-0.280151,165.663,-0.976562,1.83105,0.12207,0.124664,-0.00457764,-0.0562439,0.99054,9.56667,-46.4667,-44.6,-2253,-29476
134544,-0.0717773,-1.11973,10.1972,-6.46545,-0.269165,165.679,-1.95312,1.2207,0.12207,0.124573,-0.00466919,-0.0562744,0.99057,9.55833,-46.475,-44.5833,-2253,-29476
134550,-0.0478516,-1.23457,10.312,-6.47644,-0.258179,165.69,0.183105,1.09863,0.0610352,0.124451,-0.00476074,-0.0563354,0.99057,9.55833,-46.4917,-44.575,-2253,-29476
134556,-0.0478516,-0.90918,9.97705,-6.47095,-0.252686,165.701,0.549316,0.732422,0,0.124359,-0.00482178,-0.0563049,0.99057,9.55833,-46.5083,-44.6083,-2253,-29476
134562,0.14834,-1.1293,10.2402,-6.47095,-0.241699,165.723,-1.09863,0.305176,0.12207,0.124146,-0.00488281,-0.0563049,0.990601,9.55833,-46.525,-44.6917,-2253,-29476
134568,-0.0526367,-1.14365,10.178,-6.47644,-0.236206,165.734,0,0.854492,-0.732422,0.124023,-0.00494385,-0.0563354,0.990631,9.55833,-46.5167,-44.7333,-2253,-29476
134574,-0.205762,-1.09102,10.044,-6.47644,-0.230713,165.745,0.12207,-1.0376,0.0610352,0.123962,-0.00497437,-0.0563049,0.990631,9.55,-46.5083,-44.7583,-2253,-29476
134580,-0.062207,-1.0623,10.0871,-6.47644,-0.236206,165.756,0.0610352,-2.80762,-0.427246,0.12384,-0.00494385,-0.0563049,0.990631,9.51667,-46.5,-44.7833,-2253,-29476
134586,0.0382813,-1.12451,10.178,-6.47095,-0.247192,165.767,0.305176,-3.11279,-0.0610352,0.123749,-0.00482178,-0.0563049,0.990662,9.49167,-46.5083,-44.775,-2253,-29476
134592,0.062207,-1.05752,10.0919,-6.46545,-0.269165,165.795,0.854492,-2.62451,-0.305176,0.123535,-0.00457764,-0.0562439,0.990692,9.43333,-46.4667,-44.75,-2253,-29476
134598,0.0430664,-1.03359,10.1302,-6.45996,-0.280151,165.806,0.244141,-2.0752,-0.12207,0.123444,-0.00448608,-0.0562134,0.990692,9.4,-46.4417,-44.725,-2253,-29476
134604,0.100488,-1.04795,10.1445,-6.45996,-0.291138,165.817,0.366211,-1.70898,-0.12207,0.123352,-0.00439453,-0.0562134,0.990723,9.375,-46.4083,-44.7167,-2253,-29476
134610,0.143555,-1.02881,10.1158,-6.45447,-0.296631,165.833,0.244141,-1.09863,-0.12207,0.12323,-0.0043335,-0.0561829,0.990723,9.35833,-46.3917,-44.725,-2253,-29476
134616,0.153125,-1.00967,10.135,-6.44897,-0.302124,165.844,-0.0610352,0.183105,0.0610352,0.123138,-0.00430298,-0.0561829,0.990753,9.35,-46.4083,-44.725,-2253,-29476
134622,0.0143555,-1.07187,10.1302,-6.44897,-0.291138,165.866,-0.244141,1.0376,0,0.122955,-0.00436401,-0.0561523,0.990753,9.35833,-46.425,-44.675,-2253,-29476
134628,-0.0334961,-1.05273,10.0584,-6.44897,-0.285645,165.877,-0.0610352,0.976562,-0.12207,0.122864,-0.00442505,-0.0561523,0.990784,9.36667,-46.45,-44.6667,-2253,-29476
134634,-0.0813477,-1.08145,10.0775,-6.44897,-0.280151,165.883,-0.12207,0.305176,-0.0610352,0.122772,-0.00445557,-0.0561218,0.990784,9.375,-46.475,-44.6667,-2253,-29476
134640,-0.0430664,-1.09102,10.0632,-6.44897,-0.274658,165.894,0,-0.488281,0,0.122681,-0.00448608,-0.0561218,0.990814,9.38333,-46.5,-44.675,-2253,-29476
134646,-0.00957031,-1.07187,10.1015,-6.44897,-0.274658,165.91,0.0610352,-0.854492,0,0.122559,-0.00445557,-0.0560913,0.990814,9.39167,-46.5333,-44.6833,-2253,-29476
134652,0.0334961,-1.05273,10.0823,-6.44348,-0.280151,165.932,0,-0.610352,-0.12207,0.122375,-0.00439453,-0.0560913,0.990845,9.41667,-46.5917,-44.6583,-2253,-29476
134658,0.0478516,-1.06709,10.1062,-6.44348,-0.280151,165.943,-0.12207,0.12207,-0.12207,0.122284,-0.00439453,-0.0560913,0.990845,9.40833,-46.5917,-44.6333,-2253,-29476
134664,0.0239258,-1.07187,10.1445,-6.44348,-0.280151,165.954,-0.0610352,0.305176,-0.0610352,0.122192,-0.00439453,-0.0560608,0.990875,9.4,-46.5917,-44.6167,-2253,-29476
134670,0.0143555,-1.06709,10.1302,-6.43799,-0.280151,165.959,0,0.183105,0,0.122101,-0.00442505,-0.0560608,0.990875,9.4,-46.5917,-44.6167,-2253,-29476
134676,0.0143555,-1.08145,10.0775,-6.43799,-0.274658,165.97,-0.0610352,0.0610352,0,0.122009,-0.00442505,-0.0560303,0.990875,9.39167,-46.5833,-44.6083,-2253,-29476
134682,0.0382813,-1.10059,10.1254,-6.43799,-0.274658,165.992,-0.0610352,-0.0610352,0,0.121826,-0.00442505,-0.0560303,0.990906,9.36667,-46.5333,-44.6583,-2253,-29476
134688,0.0191406,-1.0623,10.1206,-6.43799,-0.274658,166.003,-0.0610352,-0.244141,-0.0610352,0.121735,-0.00442505,-0.0560303,0.990936,9.36667,-46.525,-44.65,-2253,-29476
134694,0.00478516,-1.07187,10.1158,-6.4325,-0.274658,166.014,-0.0610352,-0.0610352,0.0610352,0.121643,-0.00442505,-0.0559998,0.990936,9.36667,-46.5083,-44.6583,-2253,-29476
134700,0.0430664,-1.07666,10.1302,-6.4325,-0.274658,166.025,0,-0.12207,0,0.121552,-0.00442505,-0.0559998,0.990936,9.35833,-46.5,-44.6667,-2253,-29476
134706,0.0287109,-1.04316,10.1302,-6.4325,-0.274658,166.036,0,0.12207,-0.0610352,0.12146,-0.00442505,-0.0559998,0.990967,9.35833,-46.5083,-44.65,-2253,-29476
134712,0.0430664,-1.05752,10.1062,-6.4325,-0.269165,166.058,0,0,0,0.121277,-0.00442505,-0.0559692,0.990997,9.36667,-46.5333,-44.7083,-2253,-29476
134718,0.0239258,-1.08623,10.135,-6.427,-0.269165,166.069,0.12207,0,0,0.121185,-0.00442505,-0.0559387,0.990997,9.36667,-46.5417,-44.7333,-2253,-29476
134724,-0.00478516,-1.08145,10.0632,-6.427,-0.269165,166.08,0.0610352,0.12207,0,0.121094,-0.00442505,-0.0559387,0.990997,9.38333,-46.5167,-44.75,-2253,-29476
134730,0,-1.04316,10.1015,-6.427,-0.269165,166.091,0,0.183105,-0.12207,0.121002,-0.00442505,-0.0559082,0.991028,9.38333,-46.5083,-44.7417,-2253,-29476
134736,0,-1.08623,10.1062,-6.42151,-0.269165,166.097,0,0,-0.0610352,0.120911,-0.00442505,-0.0559082,0.991028,9.38333,-46.4917,-44.75,-2253,-29476
134742,-0.00478516,-1.07187,10.1302,-6.42151,-0.269165,166.119,0.12207,-0.12207,0.0610352,0.120728,-0.00442505,-0.0558777,0.991058,9.36667,-46.475,-44.6917,-2253,-29476
134748,0.0143555,-1.05752,10.0967,-6.41602,-0.263672,166.13,0.0610352,-0.305176,0,0.120636,-0.00442505,-0.0558472,0.991058,9.34167,-46.4917,-44.6583,-2253,-29476
134754,0.0143555,-1.0623,10.1254,-6.41602,-0.269165,166.141,0,-0.244141,0,0.120544,-0.00439453,-0.0558472,0.991089,9.325,-46.5083,-44.6417,-2253,-29476
134760,0,-1.04316,10.1206,-6.41602,-0.269165,166.152,0,-0.244141,-0.12207,0.120453,-0.00439453,-0.0558472,0.991089,9.3,-46.5,-44.625,-2253,-29476
134766,0.00957031,-1.07666,10.111,-6.41602,-0.269165,166.163,0.183105,-0.12207,-0.12207,0.120361,-0.00439453,-0.0558167,0.991089,9.29167,-46.4917,-44.6167,-2253,-29476
134844,0.0143555,-1.0001,10.1206,-6.38855,-0.263672,166.317,0,-0.12207,0.0610352,0.119049,-0.0043335,-0.0555725,0.991272,9.425,-46.4917,-44.5,-2262,-29475
134850,0.0574219,-1.00967,10.1158,-6.38306,-0.263672,166.328,-0.0610352,0.12207,-0.12207,0.118958,-0.0043335,-0.0555725,0.991272,9.40833,-46.5083,-44.5,-2262,-29475
134856,0.0478516,-1.00488,10.111,-6.38306,-0.258179,166.333,0.0610352,0,0,0.118866,-0.0043335,-0.0555725,0.991302,9.4,-46.5083,-44.525,-2262,-29475
134862,0.0334961,-1.00967,10.111,-6.38306,-0.258179,166.349,-0.12207,0,-0.0610352,0.118713,-0.0043335,-0.055542,0.991302,9.375,-46.5417,-44.6,-2262,-29475
134868,0.0143555,-1.02881,10.0919,-6.37756,-0.258179,166.36,-0.12207,0.12207,-0.0610352,0.118652,-0.0043335,-0.0555115,0.991333,9.35833,-46.5667,-44.65,-2262,-29475
134874,0.00957031,-1.05273,10.0919,-6.37756,-0.258179,166.371,-0.12207,0.244141,-0.0610352,0.118561,-0.0043335,-0.0555115,0.991333,9.35833,-46.5667,-44.7167,-2262,-29475
134880,0.0239258,-1.01924,10.111,-6.37756,-0.258179,166.377,-0.12207,0.12207,0,0.1185,-0.0043335,-0.0555115,0.991333,9.35,-46.575,-44.7667,-2262,-29475
134886,0.0191406,-1.02881,10.1158,-6.37756,-0.252686,166.388,-0.12207,0.12207,-0.12207,0.118408,-0.00436401,-0.0555115,0.991364,9.36667,-46.5917,-44.7917,-2262,-29475
134892,0.0143555,-1.02402,10.1015,-6.37756,-0.252686,166.404,-0.244141,0.0610352,-0.0610352,0.118256,-0.00436401,-0.055481,0.991364,9.41667,-46.15,-44.8,-2262,-29475
134898,0.0191406,-1.01445,10.1062,-6.37756,-0.252686,166.415,-0.183105,-0.244141,0,0.118195,-0.00436401,-0.055481,0.991394,9.45,-46.2333,-44.7917,-2262,-29475
134904,0.0239258,-1.00967,10.111,-6.37207,-0.252686,166.421,-0.183105,0,0.12207,0.118103,-0.0043335,-0.055481,0.991394,9.475,-46.2833,-44.8,-2262,-29475
134910,0.0334961,-1.01924,10.1254,-6.37207,-0.252686,166.432,-0.0610352,0.12207,-0.0610352,0.118011,-0.0043335,-0.055481,0.991394,9.48333,-46.3,-44.825,-2262,-29475
134916,0.0143555,-1.00488,10.1206,-6.37207,-0.252686,166.437,-0.244141,-0.0610352,-0.0610352,0.11795,-0.0043335,-0.0554504,0.991425,9.48333,-46.3,-44.825,-2262,-29475
134922,0.0143555,-1.03359,10.0919,-6.37207,-0.252686,166.454,-0.183105,0.0610352,-0.12207,0.117828,-0.0043335,-0.0554504,0.991425,9.48333,-46.3,-44.8667,-2262,-29475
134928,0.00478516,-1.05752,10.1015,-6.37207,-0.247192,166.465,-0.12207,0,-0.12207,0.117737,-0.00436401,-0.0554504,0.991425,9.475,-46.325,-44.8833,-2262,-29475
134934,-0.00957031,-1.08145,10.1015,-6.37207,-0.247192,166.47,-0.12207,0,0,0.117676,-0.00436401,-0.0554504,0.991455,9.475,-46.3417,-44.9,-2262,-29475
134940,0.0239258,-1.06709,10.1254,-6.36658,-0.247192,166.481,-0.244141,-0.305176,0.0610352,0.117584,-0.0043335,-0.0554199,0.991455,9.46667,-46.3583,-44.9,-2253,-29476
134946,0.0239258,-1.0623,10.1493,-6.36658,-0.247192,166.492,-0.183105,-0.0610352,0,0.117523,-0.0043335,-0.0554199,0.991455,9.45,-46.375,-44.875,-2253,-29476
134952,0.0239258,-1.0623,10.1158,-6.36658,-0.247192,166.509,-0.305176,0,0,0.117371,-0.0043335,-0.0554199,0.991486,9.43333,-46.4083,-44.8,-2253,-29476
134958,-0.00478516,-1.07666,10.0919,-6.36658,-0.247192,166.514,-0.244141,0.183105,0,0.11731,-0.0043335,-0.0554199,0.991486,9.43333,-46.45,-44.775,-2253,-29476
134964,0.00957031,-1.07666,10.0967,-6.36658,-0.247192,166.525,-0.244141,0.244141,0.0610352,0.117218,-0.0043335,-0.0554199,0.991486,9.41667,-46.4667,-44.7583,-2253,-29476
134970,-0.0287109,-1.06709,10.0823,-6.36658,-0.247192,166.531,-0.244141,0,0,0.117157,-0.00436401,-0.0554199,0.991516,9.425,-46.5,-44.7667,-2253,-29476
134976,0,-1.0623,10.0919,-6.36658,-0.241699,166.542,-0.183105,-0.0610352,0,0.117065,-0.00436401,-0.0554199,0.991516,9.425,-46.5167,-44.775,-2253,-29476
134982,0.00478516,-1.07187,10.1206,-6.36658,-0.241699,166.558,-0.0610352,-0.12207,0,0.116913,-0.0043335,-0.0553894,0.991547,9.4,-46.5333,-44.8083,-2253,-29476
134988,0.105273,-1.07187,10.0967,-6.36658,-0.241699,166.569,-0.488281,0.671387,0,0.116852,-0.0043335,-0.0553894,0.991547,9.39167,-46.5333,-44.8,-2253,-29476
134994,0.0861328,-1.1293,10.1541,-6.36658,-0.241699,166.575,-0.244141,1.2207,-0.0610352,0.11676,-0.00436401,-0.0554199,0.991547,9.38333,-46.5167,-44.8,-2253,-29476
135000,-0.00478516,-1.15322,10.1206,-6.36658,-0.230713,166.586,0,1.46484,-0.12207,0.116699,-0.00442505,-0.0553894,0.991577,9.36667,-46.4833,-44.8,-2253,-29476
135006,-0.0669922,-1.08623,10.0536,-6.36658,-0.22522,166.591,0.366211,1.0376,0,0.116638,-0.00448608,-0.0553894,0.991577,9.36667,-46.4583,-44.7833,-2253,-29476
135012,-0.090918,-1.06709,10.044,-6.36108,-0.219727,166.608,0.0610352,0.0610352,-0.12207,0.116486,-0.0045166,-0.0553284,0.991577,9.35,-46.4167,-44.7417,-2253,-29476
135018,0.0861328,-1.04795,10.1015,-6.36108,-0.219727,166.613,-0.0610352,-0.12207,-0.12207,0.116425,-0.0045166,-0.0553284,0.991608,9.35,-46.4083,-44.7583,-2253,-29476
135024,0.14834,-1.01924,10.1302,-6.36108,-0.219727,166.624,-0.488281,0.915527,0,0.116364,-0.0045166,-0.0553284,0.991608,9.34167,-46.3917,-44.775,-2253,-29476
135030,0.0813477,-1.02402,10.135,-6.36108,-0.219727,166.63,-0.732422,1.83105,0.0610352,0.116272,-0.00454712,-0.0553284,0.991608,9.325,-46.3833,-44.775,-2253,-29476
135036,0.0430664,-1.06709,10.135,-6.36108,-0.20874,166.641,-0.549316,1.95312,0,0.116211,-0.00460815,-0.0553589,0.991608,9.31667,-46.3917,-44.75,-2253,-29476
135042,0,-1.05273,10.1158,-6.36658,-0.186768,166.652,-0.366211,1.89209,-0.12207,0.116058,-0.00479126,-0.0553589,0.991638,9.29167,-46.4167,-44.6917,-2253,-29476
135048,0.0813477,-1.11016,10.1397,-6.36658,-0.181274,166.663,-0.366211,1.77002,-0.183105,0.115997,-0.00485229,-0.0553589,0.991638,9.29167,-46.4417,-44.65,-2253,-29476
135054,0.143555,-1.09102,10.1541,-6.36658,-0.170288,166.668,-0.183105,2.92969,-0.244141,0.115936,-0.00491333,-0.0553589,0.991638,9.30833,-46.45,-44.65,-2262,-29475
135060,0.13877,-1.07666,10.1397,-6.36658,-0.159302,166.674,-0.12207,3.96729,-0.488281,0.115875,-0.0050354,-0.0553284,0.991669,9.33333,-46.4667,-44.675,-2262,-29475
135066,0.124414,-1.01924,10.1206,-6.36658,-0.137329,166.679,-0.366211,4.69971,-0.610352,0.115845,-0.00518799,-0.0552979,0.991669,9.35833,-46.4917,-44.7083,-2262,-29475
135072,-0.502441,-0.976172,10.2881,-6.36658,-0.098877,166.685,-0.366211,3.90625,-0.488281,0.115784,-0.0055542,-0.0552673,0.991669,9.38333,-46.5083,-44.7833,-2262,-29475
135078,-0.478516,-1.16279,9.9292,-6.36658,-0.12085,166.701,0.305176,-11.4746,-0.549316,0.115662,-0.00534058,-0.0552979,0.991699,9.375,-46.4917,-44.7917,-2262,-29475
135084,-0.0717773,-1.42598,10.2163,-6.36658,-0.175781,166.712,2.31934,-13.4277,-0.610352,0.11557,-0.00485229,-0.0553284,0.991699,9.36667,-46.4667,-44.7917,-2262,-29475
135090,0.440234,-1.03359,9.97227,-6.3501,-0.241699,166.723,3.35693,-10.6201,-0.671387,0.115479,-0.00427246,-0.0552979,0.991699,9.35,-46.4417,-44.7583,-2262,-29475
135096,0.583789,-0.775195,9.81436,-6.33362,-0.291138,166.734,0.244141,-5.18799,-0.244141,0.115417,-0.0038147,-0.0551758,0.99173,9.34167,-46.4333,-44.7,-2262,-29475
135102,0.693848,-1.00488,10.2115,-6.33911,-0.31311,166.756,-1.52588,1.0376,0.0610352,0.115265,-0.00363159,-0.0552368,0.99173,9.325,-46.425,-44.6333,-2262,-29475
135108,0.13877,-0.91875,10.0728,-6.33911,-0.280151,166.761,0.0610352,7.93457,0.671387,0.115204,-0.00390625,-0.0552063,0.99176,9.33333,-46.4333,-44.5833,-2262,-29475
135114,-0.210547,-0.875684,9.97227,-6.33911,-0.241699,166.767,-1.64795,5.85938,0.427246,0.115112,-0.00424194,-0.0551758,0.99176,9.34167,-46.4417,-44.5667,-2262,-29475
135120,-0.330176,-1.14844,10.1732,-6.3446,-0.214233,166.772,-1.46484,2.62451,0.244141,0.115051,-0.00448608,-0.0552063,0.99176,9.35,-46.4667,-44.575,-2262,-29475
135126,-0.349316,-1.26328,10.2211,-6.3501,-0.197754,166.783,0.488281,-0.244141,0,0.11496,-0.00460815,-0.0552368,0.99176,9.35833,-46.4917,-44.5667,-2262,-29475
135132,-0.29668,-1.02402,9.94834,-6.33911,-0.214233,166.8,1.0376,-2.62451,-0.244141,0.114838,-0.00448608,-0.0551758,0.991791,9.39167,-46.525,-44.6583,-2262,-29475
135138,0.0813477,-1.11494,10.1732,-6.33911,-0.230713,166.811,-0.0610352,-4.08936,-0.12207,0.114746,-0.00430298,-0.0551758,0.991791,9.4,-46.55,-44.7,-2262,-29475
135144,0.272754,-1.06709,10.202,-6.33911,-0.252686,166.822,0.854492,-2.44141,-0.12207,0.114685,-0.00411987,-0.0551758,0.991821,9.41667,-46.5667,-44.75,-2262,-29475
135150,0.267969,-0.899609,10.0823,-6.33362,-0.263672,166.827,0.244141,-0.427246,0.0610352,0.114594,-0.00402832,-0.0551453,0.991821,9.425,-46.5917,-44.7583,-2262,-29475
135156,0.224902,-0.937891,10.1254,-6.33362,-0.263672,166.838,-0.671387,0.915527,0.0610352,0.114532,-0.0039978,-0.0551453,0.991821,9.43333,-46.6083,-44.7667,-2262,-29475
135162,0.119629,-1.11494,10.2402,-6.33362,-0.252686,166.849,-0.671387,1.64795,0,0.11441,-0.00411987,-0.0551453,0.991852,9.425,-46.5917,-44.8083,-2262,-29475
135168,-0.0574219,-1.00967,10.0058,-6.33362,-0.241699,166.86,-0.0610352,0.732422,-0.12207,0.114349,-0.00418091,-0.0551453,0.991852,9.41667,-46.5833,-44.8083,-2262,-29475
135174,-0.0765625,-1.05752,10.0919,-6.33362,-0.241699,166.866,-0.488281,-0.0610352,0.0610352,0.114288,-0.00421143,-0.0551147,0.991852,9.40833,-46.55,-44.8,-2262,-29475
135180,-0.0574219,-1.11973,10.1445,-6.33362,-0.241699,166.871,0,-0.427246,0,0.114197,-0.00421143,-0.0551453,0.991882,9.39167,-46.5417,-44.7833,-2262,-29475
135186,-0.0478516,-1.04795,10.0632,-6.33362,-0.241699,166.882,0.366211,-0.610352,-0.12207,0.114136,-0.00418091,-0.0551453,0.991882,9.38333,-46.5333,-44.725,-2262,-29475
135192,0.00957031,-0.961816,10.068,-6.32812,-0.247192,166.899,-0.0610352,-0.854492,0,0.114014,-0.00411987,-0.0551147,0.991882,9.38333,-46.5333,-44.6333,-2262,-29475
135198,0.0957031,-1.07666,10.1828,-6.32812,-0.252686,166.904,0.12207,-0.305176,0,0.113922,-0.00408936,-0.0551147,0.991913,9.4,-46.5333,-44.5917,-2262,-29475
135204,0.100488,-1.02881,10.1062,-6.32812,-0.252686,166.91,0.0610352,0.0610352,0,0.113861,-0.00405884,-0.0551147,0.991913,9.39167,-46.5083,-44.5917,-2262,-29475
135210,0.0957031,-1.02402,10.1158,-6.32812,-0.252686,166.921,-0.305176,0.12207,-0.12207,0.1138,-0.00405884,-0.0550842,0.991913,9.38333,-46.4833,-44.5917,-2262,-29475
135216,0.0574219,-1.10537,10.1397,-6.32812,-0.252686,166.926,-0.244141,0.366211,-0.0610352,0.113739,-0.00408936,-0.0550842,0.991913,9.38333,-46.4667,-44.6,-2262,-29475
135222,0.0334961,-1.12451,10.1493,-6.32812,-0.247192,166.943,0.12207,0.488281,0,0.113617,-0.00411987,-0.0550842,0.991943,9.39167,-46.4583,-44.6083,-2262,-29475
135228,-0.0143555,-1.04795,10.0919,-6.32263,-0.241699,166.948,-0.0610352,0.12207,0,0.113556,-0.00411987,-0.0550537,0.991943,9.41667,-46.4833,-44.6167,-2262,-29475
135234,0.0191406,-1.08623,10.1493,-6.32263,-0.241699,166.954,-0.0610352,-0.183105,0,0.113495,-0.00411987,-0.0550537,0.991943,9.43333,-46.5083,-44.65,-2262,-29475
135240,0.0478516,-1.07187,10.1541,-6.32263,-0.241699,166.965,0.12207,-0.244141,0.0610352,0.113434,-0.00411987,-0.0550537,0.991974,9.44167,-46.5167,-44.675,-2262,-29475
135246,0.0526367,-1.02402,10.0823,-6.32263,-0.247192,166.97,0.183105,-0.12207,0,0.113373,-0.00408936,-0.0550232,0.991974,9.44167,-46.5083,-44.7,-2262,-29475
135252,0.0669922,-1.05273,10.0919,-6.31714,-0.247192,166.987,-0.12207,-0.12207,0,0.113251,-0.00408936,-0.0550232,0.991974,9.44167,-46.5,-44.7083,-2262,-29475
135258,0.0382813,-1.09102,10.1015,-6.31714,-0.241699,166.992,0.12207,0.305176,0,0.11319,-0.00408936,-0.0549927,0.992004,9.44167,-46.4833,-44.6917,-2262,-29475
135264,0.0143555,-1.04795,10.0488,-6.31714,-0.241699,166.998,0.0610352,0.183105,0,0.113129,-0.00408936,-0.0549927,0.992004,9.44167,-46.4833,-44.7083,-2262,-29475
135270,0.0239258,-1.05273,10.0871,-6.31714,-0.241699,167.003,-0.244141,0.12207,-0.12207,0.113068,-0.00408936,-0.0549927,0.992004,9.41667,-46.4833,-44.7083,-2262,-29475
135276,0,-1.05752,10.1158,-6.31714,-0.241699,167.009,0.12207,0.244141,0,0.113007,-0.00411987,-0.0549927,0.992004,9.40833,-46.4917,-44.7333,-2262,-29475
135282,-0.0287109,-1.0623,10.0919,-6.31165,-0.236206,167.025,0,0.244141,-0.183105,0.112885,-0.00411987,-0.0549622,0.992035,9.36667,-46.5083,-44.7667,-2262,-29475
135288,0.00478516,-1.06709,10.1254,-6.31165,-0.236206,167.031,-0.12207,-0.0610352,-0.12207,0.112823,-0.00411987,-0.0549622,0.992035,9.36667,-46.5,-44.7667,-2262,-29475
135294,-0.00478516,-1.03838,10.1206,-6.31165,-0.236206,167.036,-0.0610352,-0.183105,0,0.112762,-0.00411987,-0.0549622,0.992035,9.35833,-46.4833,-44.7667,-2262,-29475
135300,0.0191406,-1.04316,10.0919,-6.31165,-0.236206,167.047,-0.0610352,-0.183105,0,0.112701,-0.00411987,-0.0549316,0.992065,9.35833,-46.4667,-44.7417,-2262,-29475
135306,0.0430664,-1.05752,10.0919,-6.31165,-0.241699,167.053,-0.0610352,-0.0610352,-0.12207,0.11264,-0.00408936,-0.0549316,0.992065,9.36667,-46.4583,-44.775,-2262,-29475
135312,0.0478516,-1.08623,10.1206,-6.31165,-0.241699,167.069,-0.0610352,0,0,0.112518,-0.00408936,-0.0549316,0.992065,9.36667,-46.475,-44.8333,-2262,-29475
135318,0.0526367,-1.06709,10.1062,-6.30615,-0.236206,167.075,-0.0610352,0.183105,-0.0610352,0.112457,-0.00408936,-0.0549011,0.992065,9.36667,-46.4917,-44.8917,-2262,-29475
135324,0.0334961,-1.05273,10.1062,-6.30615,-0.236206,167.08,-0.0610352,0.12207,-0.12207,0.112396,-0.00408936,-0.0549011,0.992096,9.36667,-46.5167,-44.925,-2262,-29475
135330,0,-1.05752,10.1015,-6.30615,-0.236206,167.086,0,0.183105,-0.0610352,0.112335,-0.00408936,-0.0549011,0.992096,9.36667,-46.5083,-44.9417,-2262,-29475
135336,0.00478516,-1.04795,10.0871,-6.30615,-0.236206,167.097,0,-0.0610352,0,0.112274,-0.00411987,-0.0549011,0.992096,9.34167,-46.5083,-44.9167,-2262,-29475
135342,-0.00957031,-1.04316,10.0967,-6.30615,-0.236206,167.108,0,-0.12207,-0.12207,0.112152,-0.00408936,-0.0548706,0.992126,9.30833,-46.5,-44.8583,-2262,-29475
135348,0.0430664,-1.05273,10.1158,-6.30066,-0.236206,167.113,-0.0610352,-0.244141,-0.12207,0.112091,-0.00408936,-0.0548706,0.992126,9.3,-46.5,-44.8583,-2262,-29475
135354,0.0430664,-1.02881,10.1397,-6.30066,-0.236206,167.124,-0.0610352,0.12207,0,0.11203,-0.00405884,-0.0548706,0.992126,9.29167,-46.5,-44.8583,-2262,-29475
135360,0.0191406,-1.05273,10.1015,-6.30066,-0.236206,167.13,-0.183105,0,-0.12207,0.111969,-0.00405884,-0.0548706,0.992126,9.29167,-46.5083,-44.8417,-2262,-29475
135366,0.0191406,-1.06709,10.1206,-6.30066,-0.236206,167.135,-0.244141,-0.0610352,-0.0610352,0.111938,-0.00405884,-0.0548706,0.992157,9.28333,-46.5167,-44.85,-2262,-29475
135372,0.0143555,-1.05752,10.135,-6.30066,-0.236206,167.151,0,0,-0.0610352,0.111816,-0.00405884,-0.0548401,0.992157,9.28333,-46.55,-44.8333,-2262,-29475
135378,0,-1.07187,10.0967,-6.30066,-0.236206,167.157,-0.0610352,-0.12207,0,0.111755,-0.00405884,-0.0548401,0.992157,9.3,-46.5667,-44.8333,-2262,-29475
135384,0.0334961,-1.0623,10.1158,-6.30066,-0.236206,167.162,-0.0610352,0,0,0.111664,-0.00405884,-0.0548401,0.992188,9.325,-46.575,-44.825,-2262,-29475
135390,0.133984,-1.02402,10.1062,-6.29517,-0.236206,167.173,-0.366211,0.793457,-0.0610352,0.111603,-0.00405884,-0.0548401,0.992188,9.35,-46.5917,-44.8333,-2262,-29475
135396,0.114844,-1.13408,10.2211,-6.30066,-0.230713,167.179,-0.12207,1.95312,0.305176,0.111572,-0.00408936,-0.0548401,0.992188,9.375,-46.6083,-44.85,-2262,-29475
135402,0.0430664,-1.07666,10.111,-6.29517,-0.20874,167.19,0.366211,2.2583,0.0610352,0.11145,-0.00427246,-0.0547791,0.992188,9.4,-46.65,-44.8917,-2262,-29475
135408,-0.181836,-1.07666,10.0871,-6.29517,-0.203247,167.195,-0.671387,-0.366211,-0.305176,0.111389,-0.0043335,-0.0547791,0.992218,9.40833,-46.175,-44.9083,-2262,-29475
135414,-0.110059,-1.17715,10.1924,-6.29517,-0.203247,167.201,0.183105,-2.13623,-0.12207,0.111328,-0.00430298,-0.0547791,0.992218,9.41667,-46.2417,-44.9167,-2262,-29475
135420,-0.0526367,-1.04795,10.111,-6.29517,-0.214233,167.206,0.854492,-2.62451,-0.244141,0.111298,-0.00421143,-0.0547791,0.992218,9.40833,-46.2833,-44.9417,-2262,-29475
135426,0.0669922,-0.966602,10.0345,-6.28967,-0.230713,167.217,0.183105,-2.50244,-0.305176,0.111237,-0.00408936,-0.0547485,0.992218,9.4,-46.3167,-44.9333,-2262,-29475
135432,0.191406,-1.0623,10.1637,-6.28967,-0.247192,167.228,-0.427246,-1.28174,0,0.111115,-0.00393677,-0.0547791,0.992249,9.38333,-46.3417,-44.875,-2262,-29475
135438,0.0861328,-1.02881,10.0871,-6.28967,-0.241699,167.234,0.183105,0.915527,0,0.111053,-0.00393677,-0.0547485,0.992249,9.39167,-46.3583,-44.825,-2262,-29475
135444,0.00478516,-0.995313,10.0536,-6.28418,-0.241699,167.245,-0.244141,0.732422,0,0.110992,-0.00396729,-0.054718,0.992249,9.38333,-46.3667,-44.8,-2262,-29475
135450,-0.00478516,-1.10059,10.1493,-6.28418,-0.236206,167.25,-0.183105,0.244141,0.0610352,0.110962,-0.0039978,-0.054718,0.992249,9.375,-46.4,-44.8,-2262,-29475
135456,-0.0143555,-1.11016,10.1541,-6.28418,-0.236206,167.256,0.305176,-0.244141,-0.0610352,0.110901,-0.00402832,-0.054718,0.992279,9.36667,-46.4333,-44.8,-2262,-29475
135462,0.0143555,-1.01924,10.0345,-6.28418,-0.236206,167.267,0.244141,-0.244141,0.0610352,0.11084,-0.0039978,-0.054718,0.992279,9.35,-46.4917,-44.8167,-2262,-29475
135468,0.0669922,-1.08623,10.1589,-6.28418,-0.236206,167.278,-0.244141,0.732422,0,0.110718,-0.0039978,-0.0546875,0.992279,9.35,-46.5083,-44.8167,-2262,-29475
135474,0.0143555,-1.03838,10.1302,-6.28418,-0.230713,167.283,0.0610352,1.09863,0,0.110657,-0.00402832,-0.0546875,0.99231,9.35,-46.5333,-44.825,-2262,-29475
135480,-0.062207,-1.00967,10.0728,-6.27869,-0.22522,167.289,-0.0610352,0.427246,0,0.110596,-0.00408936,-0.0546875,0.99231,9.35833,-46.5667,-44.8167,-2262,-29475
135486,-0.062207,-1.08145,10.111,-6.27869,-0.219727,167.294,-0.12207,-0.427246,0,0.110535,-0.00408936,-0.054657,0.99231,9.36667,-46.6,-44.875,-2262,-29475
135492,-0.0287109,-1.0958,10.1158,-6.27869,-0.230713,167.305,0.183105,-1.28174,-0.183105,0.110504,-0.00408936,-0.054657,0.99231,9.375,-46.6417,-44.9083,-2262,-29475
135498,0.0765625,-0.976172,10.0632,-6.27319,-0.236206,167.316,0.183105,-1.34277,0.0610352,0.110382,-0.00396729,-0.0546265,0.99234,9.375,-46.6583,-44.925,-2262,-29475
135504,0.100488,-1.04316,10.1637,-6.27319,-0.241699,167.322,-0.183105,-0.244141,0,0.110321,-0.00390625,-0.0546265,0.99234,9.38333,-46.6667,-44.9167,-2262,-29475
135510,0.110059,-1.04795,10.1637,-6.27319,-0.241699,167.327,-0.0610352,0.549316,-0.0610352,0.11026,-0.00387573,-0.0546265,0.99234,9.36667,-46.6917,-44.8833,-2262,-29475
135516,0.0334961,-1.02402,10.1206,-6.27319,-0.241699,167.333,0.0610352,0.671387,0.12207,0.110199,-0.00390625,-0.0546265,0.99234,9.35,-46.7083,-44.8583,-2262,-29475
135522,-0.0191406,-1.02881,10.068,-6.27319,-0.236206,167.349,-0.244141,0.427246,-0.0610352,0.110138,-0.00393677,-0.0545959,0.992371,9.30833,-46.7083,-44.8,-2262,-29475
135528,-0.00957031,-1.06709,10.0919,-6.27319,-0.236206,167.355,0,-0.244141,-0.183105,0.110016,-0.00393677,-0.0545959,0.992371,9.29167,-46.6833,-44.775,-2262,-29475
135534,0.00478516,-1.04316,10.0871,-6.2677,-0.236206,167.36,0.0610352,-0.366211,0.12207,0.109985,-0.00393677,-0.0545959,0.992371,9.29167,-46.6583,-44.775,-2262,-29475
135540,0.0287109,-1.03359,10.0823,-6.2677,-0.236206,167.371,0,-0.183105,0,0.109924,-0.00390625,-0.0545959,0.992371,9.28333,-46.6417,-44.75,-2262,-29475
135546,0.0430664,-1.04316,10.1302,-6.2677,-0.236206,167.377,-0.244141,0.244141,0,0.109863,-0.00390625,-0.0545654,0.992401,9.275,-46.625,-44.7333,-2262,-29475
135552,0.0430664,-0.976172,10.1254,-6.2677,-0.236206,167.388,0.12207,0.12207,0,0.109802,-0.00393677,-0.0545654,0.992401,9.26667,-46.6083,-44.7333,-2262,-29475
135558,0.0143555,-1.0001,10.0919,-6.2677,-0.236206,167.393,-0.244141,-0.12207,-0.12207,0.10968,-0.00393677,-0.0545654,0.992401,9.28333,-46.575,-44.7417,-2262,-29475
135564,0.0478516,-1.03359,10.1206,-6.2677,-0.236206,167.399,-0.244141,-0.183105,0,0.109619,-0.00393677,-0.0545654,0.992432,9.30833,-46.5417,-44.7583,-2262,-29475
135570,0.0239258,-1.04795,10.1206,-6.2677,-0.236206,167.41,0,0,-0.12207,0.109589,-0.00390625,-0.0545654,0.992432,9.31667,-46.5167,-44.775,-2262,-29475
135576,0.0861328,-0.995313,10.0584,-6.26221,-0.236206,167.415,-0.305176,0.244141,-0.0610352,0.109528,-0.00390625,-0.0545349,0.992432,9.325,-46.4917,-44.775,-2262,-29475
135582,0.090918,-1.03838,10.1158,-6.2677,-0.230713,167.426,-0.793457,0.793457,0.0610352,0.109467,-0.00393677,-0.0545349,0.992432,9.29167,-46.4667,-44.8083,-2262,-29475
135588,-0.00478516,-1.00488,10.0536,-6.2677,-0.22522,167.432,-0.549316,1.2207,0.0610352,0.109375,-0.0039978,-0.0545959,0.992432,9.275,-46.45,-44.8083,-2262,-29475
135594,0,-0.995313,10.0201,-6.27319,-0.219727,167.437,-1.58691,1.2207,0.305176,0.109314,-0.00405884,-0.0545959,0.992462,9.26667,-46.4583,-44.8083,-2262,-29475
135600,0.0669922,-1.14844,10.202,-6.27869,-0.20874,167.443,-1.40381,1.34277,0.305176,0.109253,-0.00411987,-0.0546265,0.992462,9.26667,-46.475,-44.8083,-2262,-29475
135606,0.0669922,-1.08145,10.1302,-6.28418,-0.203247,167.454,-0.915527,2.13623,1.09863,0.109192,-0.00418091,-0.0546875,0.992462,9.275,-46.4833,-44.8,-2262,-29475
135612,0.0861328,-1.01924,10.0153,-6.29517,-0.175781,167.476,-1.83105,3.23486,2.38037,0.1091,-0.00427246,-0.054718,0.992462,9.28333,-46.5,-44.8,-2262,-29475
135618,-0.645996,-1.41162,10.1015,-6.30615,-0.153809,167.514,-1.64795,1.46484,17.2729,0.108612,-0.00460815,-0.0548401,0.992523,9.3,-46.5,-44.8083,-2262,-29475
135624,-1.09102,-1.4834,10.0345,-6.31165,-0.137329,167.607,0.12207,-4.57764,34.3628,0.107819,-0.00473022,-0.0549011,0.992584,9.31667,-46.4833,-44.825,-2262,-29475
135630,-0.153125,-0.803906,9.76172,-6.31165,-0.137329,167.783,-0.976562,-8.30078,47.7905,0.106262,-0.00460815,-0.0549011,0.992767,9.325,-46.4667,-44.8167,-2262,-29475
135636,0.368457,-1.04795,10.1445,-6.31714,-0.153809,168.036,-3.41797,-6.22559,49.1943,0.104126,-0.00439453,-0.0549622,0.992981,9.34167,-46.4583,-44.8083,-2262,-29475
135642,0.210547,-1.43555,10.3599,-6.33911,-0.142822,168.519,-1.09863,-3.41797,45.8984,0.101929,-0.00427246,-0.0551147,0.993195,9.38333,-46.4667,-44.75,-2262,-29475
135648,-0.143555,-0.689063,9.72822,-6.33362,-0.142822,168.723,-0.12207,-6.10352,34.729,0.098114,-0.00415039,-0.0550842,0.993591,9.44167,-46.475,-44.725,-2262,-29475
135654,-0.133984,-0.741699,9.8335,-6.33362,-0.153809,168.904,-3.90625,-6.40869,32.4097,0.0965881,-0.0039978,-0.0551147,0.993744,9.50833,-46.4917,-44.725,-2262,-29475
135660,-0.526367,-1.20107,10.1828,-6.3501,-0.164795,169.069,-4.5166,-6.89697,40.2222,0.0951538,-0.0038147,-0.0552979,0.993866,9.575,-46.5,-44.7167,-2262,-29475
135666,-0.641211,-1.04795,10.1541,-6.37207,-0.175781,169.272,-3.41797,-7.26318,57.7393,0.0933838,-0.00363159,-0.0555115,0.994019,9.65,-46.4833,-44.7083,-2262,-29475
135672,-0.0813477,-0.483301,9.63731,-6.427,-0.153809,169.937,-7.50732,-4.76074,75.1343,0.0908508,-0.00350952,-0.0556641,0.994263,9.775,-46.4583,-44.6667,-2262,-29475
135678,-0.550293,-1.62695,10.4891,-6.47644,-0.131836,170.42,-5.24902,-7.50732,121.277,0.0834045,-0.00354004,-0.056366,0.994873,9.85,-46.425,-44.65,-2262,-29475
