Timestamp,AccX,AccY,AccZ,AngularVelX,AngularVelY,AngularVelZ,MagX,MagY,MagZ,AirPressure
54842,0.172166,9.80392,-0.0813008,1.4,-2.45,-0.63,23.4022,-49.9454,-17.1577,1020.2
54848,0.181731,9.84218,-0.11956,1.33,-2.24,-0.07,23.6928,-50.2847,-17.1873,1020.19
54854,0.200861,9.82783,-0.105213,0.98,-2.17,-0.14,22.8211,-46.4914,-18.6206,1020.19
54860,0.186514,9.79914,-0.109995,1.12,-2.31,-0.14,23.3151,-48.6502,-17.7488,1020.21
54866,0.157819,9.81827,-0.0765184,1.47,-2.45,-0.28,23.6637,-51.4874,-16.6405,1020.21
54872,0.176949,9.8087,-0.095648,1.33,-2.66,-0.35,23.0826,-47.6324,-16.9065,1020.22
54878,0.205643,9.8087,-0.133907,1.47,-2.45,0.07,23.4022,-46.9231,-18.6797,1020.22
54884,0.205643,9.84218,-0.114778,1.26,-2.52,0.07,23.5475,-50.6239,-17.4237,1020.22
54890,0.196078,9.81349,-0.10043,1.54,-2.87,-0.14,23.6928,-48.496,-16.7144,1020.19
54896,0.215208,9.82783,-0.105213,1.47,-2.94,-0.63,23.1988,-46.8306,-18.0295,1020.19
54902,0.253467,9.85653,-0.176949,1.33,-2.03,-0.07,22.5305,-49.452,-18.0148,1020.18
54908,0.277379,9.87087,-0.205643,1.05,-2.17,-0.56,23.4894,-50.8089,-16.6701,1020.18
54914,0.200861,9.79436,-0.129125,0.98,-2.17,-1.05,23.0826,-47.139,-17.8818,1020.22
54920,0.143472,9.78001,-0.071736,1.26,-2.03,-0.91,23.0536,-48.5268,-18.857,1020.22
54926,0.157819,9.80392,-0.0573888,0.98,-2.52,-0.42,22.9664,-50.9323,-15.7835,1020.2
54932,0.181731,9.81827,-0.0765184,2.1,-2.24,-0.35,22.8792,-47.8175,-17.6306,1020.2
54938,0.153037,9.82305,-0.0908656,1.54,-2.52,-0.7,23.3732,-47.6016,-18.4285,1020.2
54944,0.157819,9.80392,-0.095648,1.47,-2.03,-0.49,23.1117,-50.5622,-17.2021,1020.19
54950,0.162602,9.8087,-0.114778,1.4,-2.24,-0.63,22.9664,-50.2538,-18.0739,1020.19
54956,0.148254,9.82783,-0.10043,1.54,-2.66,-0.49,23.1407,-46.183,-19.4776,1020.17
54962,0.13869,9.79914,-0.0382592,1.12,-2.52,-0.07,22.8211,-48.9894,-17.0986,1020.17
54968,0.148254,9.79914,-0.0765184,1.89,-2.94,-0.14,23.8671,-50.7781,-17.335,1020.21
54974,0.186514,9.82305,-0.13869,1.54,-2.94,0,22.792,-48.0025,-19.6106,1020.21
54980,0.176949,9.82783,-0.133907,1.54,-3.01,0,22.792,-47.9408,-17.9852,1020.16
54986,0.172166,9.79914,-0.071736,1.54,-2.73,-0.35,23.6056,-51.3332,-17.4089,1020.16
54992,0.191296,9.81827,-0.114778,1.89,-2.52,0.21,23.3732,-47.8792,-16.3746,1020.16
54998,0.13869,9.7561,-0.071736,1.68,-2.66,0.28,23.2279,-46.7689,-17.6749,1020.22
55004,0.210426,9.82305,-0.133907,1.61,-3.08,-0.14,23.6347,-50.0688,-17.2021,1020.22
55010,0.167384,9.8374,-0.0765184,1.96,-2.66,0.07,23.6928,-49.4212,-16.5962,1020.18
55016,0.172166,9.81827,-0.071736,1.96,-2.94,0.14,22.9373,-47.0773,-18.3251,1020.18
55022,0.210426,9.87087,-0.153037,1.47,-2.87,0.21,23.257,-49.452,-18.5319,1020.18
55028,0.224773,9.84696,-0.153037,1.82,-3.01,0.21,23.8671,-51.2715,-17.3055,1020.18
55034,0.210426,9.85174,-0.143472,1.47,-2.24,0,22.8792,-47.6941,-18.724,1020.19
55040,0.196078,9.81349,-0.124342,1.89,-2.66,-0.42,23.3151,-47.6633,-18.6206,1020.19
55046,0.133907,9.81827,-0.0860832,1.89,-2.59,0.14,22.9954,-50.6547,-16.6701,1020.19
55052,0.172166,9.79436,-0.071736,1.61,-2.59,0.28,23.4603,-49.5137,-18.1625,1020.19
55058,0.167384,9.81827,-0.0860832,2.03,-2.59,0,23.1698,-46.3372,-18.5763,1020.19
55064,0.186514,9.81827,-0.11956,1.33,-2.1,-0.35,23.0245,-50.408,-16.6849,1020.19
55070,0.191296,9.81349,-0.095648,1.54,-2.59,0.56,24.1287,-49.2053,-16.3894,1020.19
55076,0.153037,9.79914,-0.0908656,1.61,-2.59,-0.28,23.286,-46.6147,-18.2807,1020.18
55082,0.181731,9.79436,-0.0813008,1.75,-2.73,0.28,23.78,-49.1436,-18.133,1020.18
55088,0.191296,9.82305,-0.095648,1.54,-2.45,0,23.8671,-50.6547,-17.7783,1020.19
55094,0.191296,9.79436,-0.0813008,1.75,-2.45,0,23.8962,-47.1082,-18.2216,1020.19
55100,0.153037,9.82305,-0.071736,1.47,-2.45,0.42,23.3151,-48.0334,-17.3055,1020.18
55106,0.191296,9.8374,-0.11956,1.82,-2.94,0.7,24.1868,-51.3024,-16.8474,1020.18
55112,0.191296,9.81349,-0.0765184,1.4,-2.38,0.42,24.5064,-48.4034,-17.3794,1020.18
55118,0.205643,9.83261,-0.114778,1.96,-2.52,-0.07,22.8792,-47.2315,-19.123,1020.2
55124,0.205643,9.81827,-0.143472,1.19,-2.24,0.7,24.2158,-51.3024,-18.6797,1020.2
55130,0.176949,9.85174,-0.133907,1.82,-2.52,0.07,23.7509,-49.3595,-17.5862,1020.19
55136,0.200861,9.81827,-0.114778,1.33,-2.59,0.14,22.9083,-45.8437,-17.8079,1020.19
55142,0.191296,9.82305,-0.11956,1.61,-2.59,0.42,23.4313,-48.8352,-17.5271,1020.21
55148,0.143472,9.8087,-0.0860832,1.75,-2.73,0.28,24.0415,-50.1305,-16.4632,1020.21
55154,0.200861,9.78479,-0.0908656,1.82,-2.59,0.77,23.3732,-46.8923,-17.3646,1020.19
55160,0.181731,9.83261,-0.0813008,1.68,-2.59,0.56,23.5766,-47.9717,-18.8127,1020.19
55166,0.181731,9.8087,-0.0669536,1.82,-2.73,0.14,24.303,-50.8398,-16.3007,1020.19
55172,0.181731,9.78957,-0.0908656,1.75,-2.73,0.21,24.0996,-49.3595,-17.5715,1020.18
55178,0.172166,9.8087,-0.071736,1.75,-2.94,0.28,23.0245,-47.0773,-18.0295,1020.18
55184,0.143472,9.81827,-0.114778,1.82,-2.52,0.42,23.7509,-50.1305,-17.9409,1020.19
55190,0.181731,9.83261,-0.095648,1.61,-2.66,0.42,23.0536,-49.637,-16.744,1020.19
55196,0.153037,9.8087,-0.124342,1.96,-2.52,0.63,23.1698,-46.8615,-18.8275,1020.18
55202,0.215208,9.86131,-0.105213,1.75,-2.59,0.91,23.6347,-49.2053,-20.3199,1020.18
55208,0.176949,9.84696,-0.109995,1.26,-2.38,0.98,23.5766,-50.4697,-17.4976,1020.19
55214,0.181731,9.81827,-0.0908656,1.96,-2.45,0.7,23.5185,-46.954,-18.133,1020.19
55220,0.167384,9.79436,-0.11956,1.61,-2.73,0.98,23.4022,-48.1876,-17.9852,1020.17
55226,0.200861,9.84218,-0.0813008,1.68,-2.66,0.84,23.8381,-51.0557,-17.4828,1020.17
55232,0.172166,9.82783,-0.133907,1.75,-2.8,0.7,23.6637,-48.6193,-17.6897,1020.17
55238,0.200861,9.8374,-0.0908656,1.61,-2.66,0.42,23.6347,-47.6941,-19.3299,1020.2
55244,0.205643,9.79914,-0.10043,1.96,-2.8,0.98,23.286,-50.223,-17.3055,1020.2
55250,0.215208,9.8087,-0.129125,1.33,-2.24,0.84,23.3732,-50.0688,-17.6158,1020.2
55256,0.196078,9.79436,-0.0813008,1.96,-2.31,0.63,23.4894,-46.8615,-18.0591,1020.2
55262,0.167384,9.90913,-0.162602,1.75,-2.66,1.12,23.1407,-49.6987,-18.2955,1020.19
55268,0.234338,9.85174,-0.186514,1.61,-2.31,0.63,23.6637,-51.3641,-17.4976,1020.19
55274,0.200861,9.86131,-0.124342,1.05,-1.75,0.77,23.2279,-47.0773,-19.0787,1020.2
55280,0.186514,9.81349,-0.10043,1.4,-2.59,0.7,23.0826,-48.6502,-19.9652,1020.2
55286,0.205643,9.82305,-0.0908656,1.61,-2.45,0.42,23.3151,-51.2407,-17.2021,1020.2
55292,0.181731,9.81827,-0.0813008,1.54,-2.17,1.12,23.0245,-48.3418,-19.4037,1020.19
55298,0.196078,9.78001,-0.10043,1.33,-2.24,1.4,23.0245,-47.4782,-19.3446,1020.19
55304,0.23912,9.8374,-0.124342,1.4,-2.24,0.77,23.1698,-50.1613,-16.7588,1020.19
55310,0.224773,9.79914,-0.10043,1.33,-2.17,1.19,24.0415,-49.7295,-17.0247,1020.19
55316,0.167384,9.82783,-0.109995,1.54,-1.89,1.26,23.3732,-47.2007,-19.847,1020.19
55322,0.148254,9.82305,-0.0669536,0.7,-1.75,1.47,22.1237,-49.4212,-17.7931,1020.19
55328,0.181731,9.78957,-0.0334768,1.82,-1.61,1.75,23.6928,-50.5005,-16.8917,1020.18
55334,0.263032,9.93783,-0.181731,1.47,-2.1,1.47,23.0536,-47.5091,-18.857,1020.18
55340,0.267814,9.87566,-0.167384,0.49,-0.7,1.89,22.6468,-47.7558,-18.857,1020.18
55346,0.133907,9.72262,-0.0047824,1.47,-0.7,1.61,23.4603,-50.7473,-15.1629,1020.24
55352,0.162602,9.73697,0,1.75,-1.47,1.26,22.9083,-48.4034,-17.5124,1020.24
55358,0.277379,9.89957,-0.21999,0.91,-1.26,1.19,22.7339,-47.1698,-18.0886,1020.2
55364,0.248685,9.84696,-0.176949,0.84,-0.56,1.54,22.6177,-49.8837,-17.468,1020.2
55370,0.186514,9.87087,-0.143472,0.35,-0.42,1.68,22.792,-49.3595,-16.4632,1020.18
55376,0.234338,9.85653,-0.11956,0.7,-0.49,1.26,22.5015,-47.1698,-18.8422,1020.18
55382,0.272597,9.86131,-0.167384,0.28,-0.49,1.19,22.5886,-49.2978,-17.0986,1020.22
55388,0.234338,9.8374,-0.105213,0.14,-0.49,1.68,22.792,-50.6239,-16.5814,1020.22
55394,0.229555,9.86609,-0.148254,-0.14,-0.35,1.68,23.1117,-46.9848,-17.7488,1020.21
55400,0.205643,9.82783,-0.095648,0.07,-0.49,1.19,22.6468,-48.1259,-16.9065,1020.21
55406,0.248685,9.78479,-0.023912,0,-0.7,1.47,23.3151,-51.0865,-16.3155,1020.21
55412,0.21999,9.82305,-0.0908656,0.35,-0.42,1.4,23.4894,-48.6502,-16.8031,1020.19
55418,0.234338,9.78479,-0.0143472,0.42,-0.21,1.47,22.4724,-46.5222,-17.1134,1020.19
55424,0.143472,9.77044,0.0382592,0.91,-0.84,1.89,23.5766,-50.6856,-17.601,1020.19
55430,0.167384,9.82305,-0.0191296,0.77,-0.63,1.89,23.1407,-51.1482,-18.2216,1020.19
55436,0.215208,9.82305,-0.0430416,0.84,-0.84,1.75,23.1988,-46.6456,-17.2168,1020.17
55442,0.21999,9.80392,-0.0813008,0.84,-0.63,1.82,22.9373,-48.9586,-17.5567,1020.17
55448,0.229555,9.8374,-0.0908656,0.56,-0.91,1.96,23.9543,-50.6856,-15.8574,1020.19
55454,0.210426,9.82305,-0.0573888,0.91,-1.12,1.82,23.0536,-47.2007,-17.9556,1020.19
55460,0.263032,9.82305,-0.0908656,1.75,-1.54,1.33,23.3151,-47.725,-16.8474,1020.19
55466,0.291726,9.8374,-0.10043,1.05,-1.26,1.47,23.5766,-50.9015,-17.2464,1020.18
55472,0.286944,9.8087,-0.0765184,1.4,-1.82,1.26,23.4022,-48.2801,-17.2907,1020.18
55478,0.286944,9.84218,-0.095648,1.68,-2.38,0.77,22.4143,-47.4166,-17.9409,1020.18
55484,0.320421,9.8087,-0.0860832,1.19,-1.61,0.7,23.286,-49.8221,-17.1873,1020.18
55490,0.25825,9.8374,-0.114778,1.26,-2.1,0,23.286,-49.9763,-17.7931,1020.22
55496,0.267814,9.81827,-0.10043,1.33,-2.31,0.14,23.257,-47.0465,-17.5419,1020.22
55502,0.243902,9.8087,-0.0621712,1.4,-2.59,-0.14,22.9954,-49.1128,-18.0886,1020.21
55508,0.25825,9.81827,-0.095648,1.47,-2.38,0.07,22.8792,-51.179,-16.7883,1020.21
55514,0.224773,9.8087,-0.0382592,1.47,-2.87,0.42,22.7049,-48.0334,-17.5124,1020.21
55520,0.23912,9.81349,-0.0573888,1.54,-3.15,-0.28,22.9373,-48.0642,-17.468,1020.19
55526,0.272597,9.83261,-0.114778,1.4,-3.01,0.07,23.4022,-51.1482,-16.5667,1020.19
55532,0.267814,9.81349,-0.0621712,1.33,-2.66,-0.28,23.1988,-48.7118,-17.7488,1020.16
55538,0.277379,9.79914,-0.0669536,1.96,-2.59,-0.49,23.0536,-47.6941,-18.5763,1020.16
55544,0.277379,9.83261,-0.11956,1.82,-2.87,-0.07,23.6347,-49.8529,-18.2955,1020.2
55550,0.277379,9.85653,-0.124342,1.26,-2.52,-0.28,23.4022,-50.4697,-16.9065,1020.2
55556,0.23912,9.84218,-0.105213,1.54,-2.03,0.07,22.763,-47.0773,-19.0048,1020.22
55562,0.200861,9.79436,-0.0573888,1.47,-2.66,-0.77,23.1988,-50.3463,-18.4728,1020.22
55568,0.229555,9.8374,-0.0813008,1.47,-2.45,-0.91,23.257,-51.0865,-16.5667,1020.2
55574,0.215208,9.81349,-0.095648,1.19,-2.73,-0.28,23.3441,-47.9408,-18.2807,1020.2
55580,0.224773,9.78957,-0.0382592,1.82,-2.87,-0.21,22.9954,-47.7866,-17.9409,1020.2
55586,0.229555,9.78479,-0.0669536,2.1,-3.43,-0.7,23.4603,-51.7958,-16.2268,1020.19
55592,0.248685,9.81827,-0.0526064,2.17,-3.43,-0.7,22.9954,-48.681,-18,1020.19
55598,0.253467,9.82783,-0.105213,2.1,-2.94,0,22.4143,-47.2932,-18.6058,1020.2
55604,0.224773,9.8374,-0.0813008,1.96,-3.36,-0.77,24.0124,-50.223,-17.1282,1020.2
55610,0.248685,9.84218,-0.071736,1.68,-3.08,-1.05,22.9954,-50.3463,-17.5715,1020.18
55616,0.234338,9.8374,-0.10043,1.75,-2.52,-0.21,22.8792,-46.9848,-19.8027,1020.18
55622,0.157819,9.78957,0.0095648,2.03,-3.01,-0.49,22.6468,-48.866,-18.0148,1020.22
55628,0.186514,9.79436,-0.0143472,2.24,-3.36,-0.14,23.3441,-50.2538,-16.8474,1020.22
55634,0.267814,9.85653,-0.13869,1.89,-3.15,-0.14,23.1988,-48.0025,-17.8227,1020.22
55640,0.224773,9.78479,-0.0669536,1.61,-2.73,-0.14,23.5185,-47.8792,-19.6106,1020.2
55646,0.186514,9.79914,-0.0286944,2.38,-3.01,-0.56,23.6056,-50.6856,-17.3055,1020.2
55652,0.248685,9.85653,-0.0430416,1.89,-2.94,0.07,23.9834,-49.3286,-17.0838,1020.18
55658,0.248685,9.85174,-0.13869,1.89,-3.15,0.07,22.9373,-47.9717,-19.1821,1020.18
55664,0.234338,9.83261,-0.0908656,1.75,-2.87,-0.28,23.8962,-49.9146,-17.9409,1020.18
55670,0.186514,9.82783,-0.071736,1.82,-2.52,-0.35,23.4313,-49.8837,-16.8031,1020.18
55676,0.21999,9.82305,-0.0669536,1.89,-2.87,-0.28,22.5015,-47.3549,-19.0491,1020.21
55682,0.25825,9.81349,-0.0908656,1.96,-3.43,0.14,23.4894,-48.5885,-17.7931,1020.21
55688,0.243902,9.82783,-0.105213,1.47,-2.59,17.43,23.4022,-51.179,-16.1677,1020.2
55694,0.210426,9.87087,-0.0765184,2.1,-3.08,-0.28,23.7219,-48.0642,-18.2068,1020.2
55700,0.205643,9.81827,-0.0813008,1.68,-2.66,-0.63,22.7049,-48.095,-17.8965,1020.2
55706,0.21999,9.84696,-0.0669536,1.75,-2.52,-0.28,23.7509,-50.8089,-17.0247,1020.23
55712,0.196078,9.77044,-0.0382592,1.89,-2.8,-0.07,23.0826,-48.6502,-17.4237,1020.23
55718,0.191296,9.8087,-0.0526064,2.03,-3.43,-0.49,22.8502,-46.5531,-18.8866,1020.2
55724,0.234338,9.84696,-0.114778,2.1,-3.01,-0.56,23.3151,-49.8221,-17.8818,1020.2
55730,0.200861,9.80392,-0.105213,1.75,-3.15,-0.14,23.257,-49.7912,-17.4385,1020.16
55736,0.191296,9.79436,-0.0860832,2.38,-3.22,-0.14,22.6468,-48.2184,-21.0587,1020.16
55742,0.224773,9.84696,-0.10043,2.1,-2.94,-0.42,22.9664,-48.8969,-18.7831,1020.18
55748,0.229555,9.83261,-0.0765184,2.17,-2.94,0,23.5766,-50.8706,-17.6749,1020.18
55754,0.253467,9.85174,-0.114778,2.1,-2.94,-0.07,23.7219,-48.095,-18.5763,1020.18
55760,0.200861,9.83261,-0.10043,2.1,-3.08,-0.42,23.2279,-47.7558,-19.5072,1020.24
55766,0.210426,9.83261,-0.095648,2.1,-2.87,-0.21,24.2158,-50.8089,-17.6453,1020.24
55772,0.234338,9.82783,-0.124342,1.68,-2.52,0.07,23.8381,-49.452,-17.8227,1020.2
55778,0.234338,9.84696,-0.095648,1.89,-3.01,-0.49,22.5886,-47.725,-18.0591,1020.2
55784,0.224773,9.81827,-0.0813008,1.96,-3.01,-0.14,23.257,-50.8398,-17.8965,1020.19
55790,0.23912,9.8374,-0.10043,2.1,-3.22,-0.21,23.257,-50.5622,-16.4189,1020.19
55796,0.25825,9.8087,-0.0860832,1.47,-2.45,-0.63,23.5475,-46.8306,-18.8718,1020.18
55802,0.23912,9.82783,-0.11956,1.82,-2.8,-0.35,23.5475,-48.4651,-17.2612,1020.18
55808,0.205643,9.82305,-0.109995,2.1,-2.94,-0.14,24.1868,-50.6856,-16.9213,1020.18
55814,0.243902,9.84218,-0.0765184,1.82,-2.73,-0.35,23.3151,-47.6633,-18.0739,1020.21
55820,0.248685,9.84696,-0.105213,1.75,-2.87,-0.21,23.6637,-47.4166,-18.7388,1020.21
55826,0.224773,9.82783,-0.114778,1.75,-3.01,-0.56,23.3441,-50.8089,-16.7883,1020.2
55832,0.205643,9.82783,-0.0908656,1.26,-2.52,-0.21,23.9253,-49.8221,-16.8917,1020.2
55838,0.215208,9.78001,-0.0765184,1.82,-2.73,0.49,23.5766,-47.6633,-21.1326,1020.2
55844,0.186514,9.84218,-0.11956,1.61,-2.73,0.21,23.7219,-50.7164,-18.4285,1020.2
55850,0.229555,9.8374,-0.0908656,1.54,-2.73,-0.35,23.809,-49.8221,-17.2464,1020.18
55856,0.21999,9.81349,-0.13869,1.89,-2.59,0.07,23.5766,-46.6764,-19.1082,1020.18
55862,0.215208,9.84696,-0.0908656,1.26,-2.24,0.35,23.5185,-47.6633,-18.4728,1020.19
55868,0.205643,9.79436,-0.047824,1.89,-3.08,0,24.5354,-50.4697,-17.8522,1020.19
55874,0.23912,9.85174,-0.071736,1.82,-3.01,-0.28,23.4313,-47.1698,-17.2168,1020.19
55880,0.229555,9.8374,-0.11956,1.96,-2.59,-0.07,23.0536,-47.5091,-19.2855,1020.2
55886,0.205643,9.81827,-0.0813008,1.33,-2.8,0.28,23.5185,-50.1921,-16.8474,1020.2
55892,0.23912,9.82305,-0.129125,1.82,-2.66,-0.28,23.4022,-48.3418,-18.7684,1020.19
55898,0.215208,9.85653,-0.124342,1.33,-2.59,-0.14,22.792,-46.5531,-19.5367,1020.19
55904,0.253467,9.83261,-0.0860832,1.54,-2.73,-0.63,23.3732,-49.9454,-16.9952,1020.19
55910,0.191296,9.82305,-0.0669536,1.82,-2.66,-0.14,23.9253,-50.1921,-17.8522,1020.19
55916,0.215208,9.8374,-0.095648,1.75,-2.59,-0.07,23.286,-47.1082,-19.3594,1020.18
55922,0.248685,9.80392,-0.105213,1.96,-2.73,-0.14,22.9083,-48.5576,-18.2068,1020.18
55928,0.196078,9.78479,-0.0191296,1.68,-2.73,0.07,23.4603,-50.7473,-17.7636,1020.18
55934,0.224773,9.81827,-0.0860832,2.03,-2.87,0.28,23.6637,-48.0334,-19.4481,1020.17
55940,0.224773,9.8374,-0.10043,2.03,-2.87,0.07,22.763,-47.4166,-19.1821,1020.17
55946,0.191296,9.82783,-0.10043,1.75,-2.59,0.35,22.8211,-51.3332,-19.98,1020.17
55952,0.200861,9.83261,-0.124342,1.96,-2.31,0.07,23.1407,-48.6193,-17.8374,1020.17
55958,0.248685,9.84696,-0.124342,1.33,-2.38,0,22.5886,-46.954,-18.458,1020.17
55964,0.243902,9.84696,-0.105213,1.61,-2.52,0.07,22.9083,-49.5137,-18.4433,1020.17
55970,0.196078,9.81349,-0.0908656,1.61,-2.52,0.14,23.0536,-50.8706,-16.877,1020.2
55976,0.234338,9.82305,-0.0286944,2.03,-2.66,0.28,23.0536,-47.2932,-17.9704,1020.2
55982,0.243902,9.83261,-0.143472,1.54,-2.45,0,23.1698,-48.4651,-17.1725,1020.2
55988,0.200861,9.83261,-0.0860832,1.47,-2.66,0.21,23.4313,-50.8706,-18.0591,1020.17
55994,0.200861,9.79436,-0.071736,1.54,-2.66,0.21,23.4313,-47.6016,-17.9852,1020.17
56000,0.21999,9.8374,-0.0908656,1.75,-2.8,0.07,22.5886,-47.2007,-18.6945,1020.2
56006,0.25825,9.8374,-0.11956,1.75,-2.45,0.07,22.6468,-51.2099,-16.877,1020.2
56012,0.224773,9.85174,-0.095648,1.68,-2.87,-0.14,23.1698,-49.452,-16.9804,1020.19
56018,0.23912,9.81349,-0.114778,1.33,-2.45,0,22.0366,-46.1521,-18.7092,1020.19
56024,0.210426,9.77044,-0.0765184,1.54,-2.24,0,23.6347,-49.6062,-17.8818,1020.17
56030,0.205643,9.83261,-0.095648,1.54,-2.87,-17.5,23.4603,-49.8221,-17.7931,1020.17
56036,0.215208,9.83261,-0.105213,1.33,-2.87,-0.14,22.8502,-46.7381,-17.3055,1020.18
56042,0.172166,9.80392,-0.0669536,1.54,-2.52,0.07,23.1698,-48.6193,-19.7879,1020.18
56048,0.186514,9.8374,-0.0813008,1.96,-2.52,0.14,23.1698,-50.8706,-16.877,1020.18
56054,0.176949,9.82305,-0.105213,1.96,-3.01,0.14,22.8792,-47.9717,-18.2216,1020.19
56060,0.21999,9.8374,-0.109995,1.68,-2.8,0.28,22.6758,-47.324,-19.0787,1020.19
56066,0.21999,9.8087,-0.11956,1.68,-2.8,0.07,23.6928,-50.7473,-17.2759,1020.19
56072,0.200861,9.81827,-0.129125,1.75,-2.73,0.42,24.2158,-49.3286,-17.8079,1020.19
56078,0.234338,9.83261,-0.143472,1.54,-2.59,0.21,23.4022,-46.0596,-20.4676,1020.2
56084,0.248685,9.8374,-0.129125,1.33,-2.8,-0.14,23.3441,-48.8352,-16.9509,1020.2
56090,0.210426,9.79914,-0.0765184,1.68,-2.45,-0.07,23.7219,-50.0996,-17.01,1020.16
56096,0.234338,9.80392,-0.0813008,1.54,-2.45,0.28,23.1117,-47.1082,-17.8227,1020.16
56102,0.234338,9.86131,-0.109995,1.4,-2.52,0.14,23.4313,-47.91,-18.724,1020.16
56108,0.229555,9.85174,-0.10043,1.26,-2.73,0.07,23.1698,-50.0071,-16.6553,1020.15
56114,0.157819,9.80392,-0.0334768,1.61,-2.73,0,23.4313,-47.3857,-17.6749,1020.15
56120,0.181731,9.82305,-0.0908656,1.47,-3.08,0,23.0536,-46.183,-19.0639,1020.18
56126,0.21999,9.79914,-0.109995,1.68,-2.38,0.21,23.286,-49.6679,-17.5715,1020.18
56132,0.21999,9.79914,-0.0860832,1.89,-3.01,0.07,23.3732,-48.0025,-16.9065,1020.19
56138,0.234338,9.8087,-0.114778,1.82,-3.08,-0.07,22.3562,-46.4914,-18.857,1020.19
56144,0.229555,9.81349,-0.0908656,1.96,-3.15,0.21,23.1988,-49.7295,-18.3103,1020.15
56150,0.21999,9.82305,-0.124342,1.82,-2.59,-0.14,23.3732,-49.8837,-18.133,1020.15
56156,0.215208,9.79914,-0.0765184,1.47,-3.08,0.07,22.9954,-47.1698,-19.4037,1020.15
56162,0.200861,9.79914,-0.10043,1.96,-2.94,0.21,23.1407,-48.4343,-18.3251,1020.2
56168,0.21999,9.84218,-0.0908656,1.75,-2.59,-0.49,23.6056,-50.7781,-18.0148,1020.2
56174,0.191296,9.82305,-0.11956,1.68,-2.52,-0.14,22.5596,-47.5708,-17.3646,1020.18
56180,0.210426,9.82305,-0.114778,1.89,-2.59,-0.07,22.9373,-47.0157,-19.5958,1020.18
56186,0.23912,9.83261,-0.10043,1.75,-3.15,0,23.4022,-50.7473,-17.1725,1020.18
56192,0.215208,9.81349,-0.114778,1.54,-2.87,-0.14,24.3902,-49.2669,-17.9704,1020.18
56198,0.21999,9.84218,-0.095648,1.96,-2.8,0,22.0947,-46.954,-18.9752,1020.16
56204,0.21999,9.81827,-0.109995,1.75,-2.87,0.07,22.8502,-50.1921,-17.601,1020.16
56210,0.205643,9.81349,-0.0813008,1.89,-3.36,-0.14,23.3441,-50.0996,-17.5567,1020.2
56216,0.21999,9.83261,-0.105213,1.96,-2.66,0,22.8792,-47.2315,-17.8522,1020.2
56222,0.224773,9.82783,-0.105213,1.75,-2.8,0.28,23.1988,-49.1436,-17.9261,1020.2
56228,0.224773,9.78001,-0.124342,1.96,-2.73,0,23.9543,-51.1173,-17.0395,1020.19
56234,0.21999,9.82305,-0.109995,1.96,-2.87,-17.43,23.1407,-48.4651,-17.5271,1020.19
56240,0.210426,9.81349,-0.10043,1.89,-2.66,0.07,22.269,-48.0642,-19.7731,1020.22
56246,0.23912,9.81827,-0.143472,1.54,-2.66,0.14,23.4022,-51.0865,-17.7045,1020.22
56252,0.205643,9.81349,-0.095648,1.54,-2.87,0.49,22.763,-50.0379,-18.6058,1020.19
56258,0.210426,9.82305,-0.129125,1.61,-3.01,-0.07,23.3151,-46.8306,-18.8275,1020.19
56264,0.176949,9.81349,-0.0860832,1.96,-2.59,-0.56,23.4313,-49.3286,-18.5763,1020.2
56270,0.229555,9.8087,-0.133907,1.68,-2.66,0.42,23.5475,-50.408,-17.2316,1020.2
56276,0.196078,9.85174,-0.11956,1.75,-2.8,0.14,22.9373,-47.4166,-18.3842,1020.2
56282,0.234338,9.82305,-0.095648,1.75,-2.66,-0.07,23.0536,-49.2978,-19.0048,1020.18
56288,0.229555,9.8087,-0.105213,2.03,-2.52,0,22.7339,-51.1482,-17.8227,1020.18
56294,0.229555,9.82305,-0.105213,1.47,-2.94,0.14,23.257,-48.4034,-16.8031,1020.19
56300,0.224773,9.81827,-0.10043,1.68,-2.8,0,22.1818,-47.6633,-18.6501,1020.19
56306,0.200861,9.8087,-0.10043,1.4,-3.01,0,23.4313,-50.7473,-17.8965,1020.17
56312,0.23912,9.84218,-0.153037,1.75,-2.87,-0.14,22.9373,-49.1128,-18.3398,1020.17
56318,0.205643,9.84218,-0.13869,1.54,-2.38,-0.07,23.4022,-47.2624,-18.4137,1020.21
56324,0.210426,9.84218,-0.095648,1.26,-2.59,0,22.9373,-49.3286,-18.9752,1020.21
56330,0.224773,9.81827,-0.095648,1.75,-2.38,-0.21,23.0826,-50.2847,-17.6453,1020.21
56336,0.181731,9.8374,-0.10043,1.61,-2.52,-0.14,23.4022,-46.7073,-19.4776,1020.22
56342,0.186514,9.8087,-0.095648,1.68,-2.66,0.21,23.0245,-47.3549,-18.6945,1020.22
56348,0.181731,9.81827,-0.105213,2.17,-2.94,-0.35,23.3441,-50.7473,-17.0691,1020.23
56354,0.267814,9.81827,-0.186514,1.54,-2.45,0.14,23.1117,-48.4651,-18.2364,1020.23
56360,0.21999,9.81349,-0.124342,1.47,-2.31,0.14,23.3441,-47.324,-18.2216,1020.2
56366,0.181731,9.82305,-0.10043,1.82,-2.59,-0.14,23.4894,-50.5005,-17.9409,1020.2
56372,0.21999,9.85174,-0.105213,1.61,-2.87,0.21,23.8671,-49.637,-18.8275,1020.21
56378,0.243902,9.90913,-0.162602,1.54,-2.17,-0.49,23.1407,-47.1698,-18.591,1020.21
56384,0.210426,9.85174,-0.114778,1.4,-2.17,0.14,23.0245,-49.7912,-18.2364,1020.19
56390,0.191296,9.84696,-0.124342,1.33,-1.75,0.84,23.4603,-50.0688,-17.7931,1020.19
56396,0.200861,9.88044,-0.157819,1.12,-1.47,0.21,23.4894,-47.0465,-17.9409,1020.19
56402,0.200861,9.85653,-0.095648,0.91,-1.54,0,23.7509,-47.7558,-19.0048,1020.21
56408,0.234338,9.79914,-0.105213,0.42,-0.49,0.56,23.2279,-51.0557,-16.9656,1020.21
56414,0.11956,9.84696,-0.0047824,-0.07,-0.07,1.33,23.257,-48.7118,-17.1282,1020.17
56420,0.095648,9.69871,0.0382592,0.77,-0.77,1.33,24.2449,-47.7866,-18.4433,1020.17
56426,0.143472,9.88522,-0.105213,0.7,-0.91,1.54,23.7509,-49.8837,-16.7883,1020.15
56432,0.248685,9.86609,-0.162602,0.21,-0.28,1.19,23.3151,-49.3286,-15.7244,1020.15
56438,0.224773,9.78479,-0.0143472,0.07,-0.28,1.54,22.9083,-46.8615,-18.3251,1020.19
56444,0.129125,9.79914,-0.0430416,0.91,-0.63,1.61,22.9083,-50.0996,-18.7831,1020.19
56450,0.23912,9.79914,-0.105213,0.91,-0.56,1.68,22.9954,-50.1305,-17.5271,1020.19
56456,0.191296,9.87566,-0.047824,0.21,-0.21,1.75,23.809,-47.4474,-18.5763,1020.17
56462,0.186514,9.76566,-0.0095648,0.35,-0.7,1.54,23.2279,-48.095,-18.0295,1020.17
56468,0.196078,9.72262,0.0143472,1.75,-1.26,1.89,23.0245,-50.1613,-16.8179,1020.2
56474,0.229555,9.86609,-0.157819,1.33,-0.91,2.03,23.3151,-47.8792,-18.6058,1020.2
56480,0.205643,9.81349,-0.0813008,0.63,-0.42,1.89,22.9373,-47.725,-18.6354,1020.17
56486,0.153037,9.70827,0.047824,1.82,-1.19,2.52,23.286,-50.0688,-18.0295,1020.17
56492,0.13869,9.80392,-0.023912,2.52,-1.82,3.08,23.4603,-50.1613,-17.2316,1020.2
56498,0.167384,9.84696,-0.0860832,2.38,-1.33,2.8,22.6758,-47.0465,-17.734,1020.2
56504,0.243902,9.80392,0.0047824,2.8,-1.54,2.8,21.9785,-49.637,-16.8474,1020.2
56510,0.267814,9.83261,-0.105213,2.94,-1.96,3.08,23.6928,-50.8398,-17.4385,1020.17
56516,0.306074,9.82783,-0.0765184,2.73,-1.47,2.94,22.8502,-48.0025,-18.8127,1020.17
56522,0.286944,9.8087,-0.0813008,3.15,-1.68,3.08,22.792,-49.6062,-17.8522,1020.13
56528,0.267814,9.79436,-0.143472,3.29,-1.61,2.38,23.1407,-50.9631,-16.8622,1020.13
56534,0.349115,9.90435,-0.167384,2.66,-1.19,2.45,22.9664,-48.9586,-17.8522,1020.17
56540,0.267814,9.82305,-0.109995,2.31,-0.84,2.94,22.763,-48.1259,-18.8127,1020.17
56546,0.153037,9.77044,0.023912,2.66,-1.4,2.87,22.9373,-50.6239,-17.5715,1020.18
56552,0.210426,9.74175,0,3.71,-2.24,2.66,23.4894,-49.8837,-17.4237,1020.18
56558,0.315638,9.87087,-0.167384,3.08,-1.75,2.87,23.4022,-46.5222,-17.2907,1020.21
56564,0.25825,9.81827,-0.129125,2.66,-1.05,2.94,23.3732,-49.2978,-17.6453,1020.21
56570,0.234338,9.69871,0.023912,3.43,-1.96,2.31,24.5645,-50.2538,-16.5814,1020.21
56576,0.35868,9.85653,-0.215208,3.78,-2.31,2.59,23.257,-47.4782,-18.1182,1020.2
56582,0.363462,9.94739,-0.286944,2.38,-1.61,2.03,22.9083,-48.2801,-18.4728,1020.2
56588,0.315638,9.82305,-0.153037,2.31,-0.91,2.1,23.6347,-51.4566,-16.8917,1020.18
56594,0.248685,9.8087,-0.095648,2.45,-1.47,1.96,23.3441,-48.0334,-18,1020.18
56600,0.286944,9.84696,-0.133907,2.31,-1.61,1.47,22.792,-47.1082,-19.714,1020.18
56606,0.191296,9.76566,-0.0573888,2.38,-0.98,1.82,23.0536,-50.5622,-18.3694,1020.18
56612,0.13869,9.70349,0.0334768,2.73,-1.33,2.31,23.1407,-50.1305,-17.2021,1020.21
56618,0.205643,9.75131,-0.0191296,3.99,-2.17,3.36,22.9083,-47.6941,-18.8866,1020.21
56624,0.253467,9.82783,-0.071736,3.36,-2.31,2.66,23.1698,-50.3463,-17.3055,1020.21
56630,0.315638,9.80392,-0.191296,3.57,-1.68,2.8,23.1117,-50.5005,-17.2168,1020.18
56636,0.411286,9.84696,-0.253467,3.15,-1.4,3.08,22.9664,-48.2492,-18.0739,1020.18
56642,0.315638,9.79914,-0.186514,2.17,-0.63,3.15,22.9373,-48.5268,-17.7488,1020.21
56648,0.291726,9.78957,-0.133907,2.45,-0.49,3.01,23.4313,-51.5491,-17.2021,1020.21
56654,0.25825,9.83261,-0.129125,2.38,-0.7,3.5,23.3151,-48.7735,-16.8917,1020.18
56660,0.33955,9.79914,-0.162602,2.38,-0.77,2.66,22.6758,-47.7866,-17.9852,1020.18
56666,0.325203,9.79436,-0.133907,1.68,-0.35,2.24,22.8211,-51.1482,-18.4728,1020.19
56672,0.272597,9.74175,-0.023912,2.45,-1.33,2.59,22.9954,-50.1921,-17.4828,1020.19
56678,0.363462,9.8374,-0.109995,2.59,-1.68,2.73,22.5305,-47.5091,-17.1429,1020.19
56684,0.37781,9.80392,-0.148254,2.31,-1.33,1.61,22.3271,-50.1921,-16.8917,1020.19
56690,0.396939,9.78957,-0.109995,1.82,-0.91,1.82,23.1698,-50.7473,-16.744,1020.19
56696,0.387374,9.79914,-0.162602,1.68,-1.47,1.61,22.8502,-47.6016,-18.6945,1020.22
56702,0.430416,9.84696,-0.215208,1.12,-1.19,0.7,22.9664,-49.0511,-17.3055,1020.22
56708,0.368245,9.8374,-0.157819,0.91,-0.49,0,23.4894,-51.3024,-17.468,1020.2
56714,0.315638,9.7561,-0.13869,0.98,-1.05,-0.07,23.0536,-49.1436,-17.4828,1020.2
56720,0.353898,9.79436,-0.124342,0.49,-1.12,0.21,22.5596,-47.8175,-18.4876,1020.2
56726,0.368245,9.77523,-0.109995,0.42,-0.7,0.56,23.257,-50.6239,-16.5814,1020.2
56732,0.373027,9.78479,-0.105213,0.49,-0.7,-0.42,23.0245,-50.5931,-16.2564,1020.21
56738,0.387374,9.79436,-0.148254,0.14,-0.56,-0.98,22.6177,-47.4166,-18.6649,1020.21
56744,0.396939,9.79914,-0.172166,-0.07,-0.7,-0.35,22.8211,-50.1305,-17.3055,1020.21
56750,0.368245,9.76566,-0.095648,-0.07,-0.84,-0.63,23.257,-51.3949,-15.7096,1020.18
56756,0.344333,9.84218,-0.105213,-0.42,-0.7,-1.47,23.3441,-48.1567,-17.4237,1020.18
56762,0.306074,9.78479,-0.0860832,-0.7,-0.21,-1.82,23.7219,-48.7427,-18.0295,1020.18
56768,0.277379,9.76088,-0.0095648,-0.28,-0.63,-1.26,22.9373,-51.7033,-17.4237,1020.18
56774,0.263032,9.77523,0.0143472,0.07,-1.61,-2.17,23.6347,-49.3595,-18.1921,1020.2
56780,0.401722,9.74175,-0.095648,0.07,-1.68,-1.89,23.1698,-47.3857,-19.4481,1020.2
56786,0.344333,9.73697,-0.0191296,-0.14,-0.84,-3.29,23.8962,-50.2847,-18.2364,1020.21
56792,0.277379,9.70827,-0.0095648,0.28,-1.26,-2.94,23.4894,-50.6239,-17.5124,1020.21
56798,0.301291,9.6461,0.109995,0,-1.96,-2.87,23.1698,-47.2932,-18,1020.21
56804,0.301291,9.7274,0.0095648,0.91,-2.59,-3.5,23.257,-50.3463,-16.877,1020.2
56810,0.33955,9.84218,-0.10043,-0.21,-2.73,-3.64,23.4313,-51.2099,-16.3894,1020.2
56816,0.325203,9.76566,-0.10043,1.05,-2.66,-3.57,23.3151,-48.8044,-18.6058,1020.18
56822,0.315638,9.8374,-0.0765184,0.77,-2.59,-4.27,22.792,-48.2184,-17.8522,1020.18
56828,0.243902,9.76088,-0.0286944,0.21,-2.94,-4.41,23.286,-51.4566,-17.601,1020.19
56834,0.196078,9.66523,0.0573888,1.47,-3.64,-4.2,23.0536,-48.5576,-17.1282,1020.19
56840,0.205643,9.69392,-0.0286944,2.03,-4.41,-3.85,22.7049,-47.2624,-18.6354,1020.21
56846,0.224773,9.67958,0.0430416,2.38,-4.97,-4.48,23.9253,-50.3155,-16.9656,1020.21
56852,0.148254,9.60306,0.0908656,2.66,-5.6,-4.2,23.8671,-50.0379,-17.6306,1020.18
56858,0.172166,9.62697,0.0765184,3.5,-5.67,-3.99,23.257,-47.1082,-17.2464,1020.18
56864,0.229555,9.65088,0.109995,3.78,-6.37,-3.78,23.7509,-49.5445,-17.468,1020.18
56870,0.191296,9.63654,0.0813008,4.76,-6.58,-3.78,24.2158,-51.0865,-17.468,1020.2
56876,0.172166,9.69392,0.0526064,4.83,-6.86,-3.85,23.1117,-48.1259,-17.6453,1020.2
56882,0.210426,9.67958,0.109995,5.74,-6.58,-3.57,23.7219,-48.3726,-18.4285,1020.15
56888,0.176949,9.73218,-0.071736,6.93,-7.07,-2.87,24.3321,-50.9323,-16.4485,1020.15
56894,0.25825,9.90913,-0.25825,6.44,-6.44,-3.15,23.4313,-48.3109,-17.5862,1020.2
56900,0.291726,9.90913,-0.33955,6.09,-5.53,-2.73,23.3151,-47.725,-19.123,1020.2
56906,0.267814,10.0096,-0.329986,6.3,-5.6,-2.8,23.809,-49.5137,-18.4728,1020.18
56912,0.253467,10.0478,-0.37781,5.32,-5.32,-2.45,23.3441,-49.5753,-18.3398,1020.18
56918,0.243902,10.0574,-0.329986,5.46,-4.97,-2.38,22.9083,-46.8923,-18.1773,1020.18
56924,0.143472,10.0765,-0.344333,5.88,-5.04,-1.96,23.1698,-47.9717,-18.2512,1020.21
56930,0.153037,10.0622,-0.296509,4.97,-5.11,-1.89,23.5766,-50.0379,-15.9904,1020.21
56936,0.172166,9.98087,-0.277379,4.97,-5.6,-1.47,22.5015,-47.5708,-17.2316,1020.21
56942,0.243902,10.0526,-0.310856,4.62,-5.67,-1.61,22.3562,-48.095,-18.6354,1020.21
56948,0.243902,10.0574,-0.35868,3.92,-5.04,-1.96,22.5305,-50.9631,-17.0247,1020.16
56954,0.176949,9.90913,-0.243902,3.22,-4.55,-1.05,23.6928,-48.5885,-17.6158,1020.16
56960,0.13869,9.82783,-0.162602,3.99,-5.18,-1.19,22.8211,-46.7073,-18.1921,1020.18
56966,0.153037,9.90913,-0.13869,3.85,-5.74,-1.05,23.3732,-49.2669,-18.1477,1020.18
56972,0.191296,9.87087,-0.205643,3.64,-5.88,-1.26,24.2449,-49.2978,-17.01,1020.18
56978,0.181731,9.89957,-0.234338,3.85,-5.74,-0.49,22.1818,-46.954,-17.5124,1020.19
56984,0.234338,9.93783,-0.248685,3.64,-5.67,-0.98,23.3151,-47.9408,-17.7192,1020.19
56990,0.21999,9.88044,-0.210426,3.5,-6.51,-0.42,23.6928,-51.0248,-16.877,1020.17
56996,0.234338,9.9187,-0.267814,3.5,-6.44,-1.47,22.9954,-47.5091,-17.0395,1020.17
57002,0.349115,9.94261,-0.301291,2.38,-5.67,-2.45,22.763,-48.496,-17.6306,1020.17
57008,0.310856,9.93783,-0.296509,2.24,-5.81,-2.31,23.5475,-51.3332,-16.611,1020.17
57014,0.349115,9.95696,-0.310856,1.4,-6.44,-2.94,24.0124,-48.4651,-17.468,1020.19
57020,0.320421,9.88522,-0.291726,1.05,-5.88,-4.2,22.9954,-46.9848,-19.5219,1020.19
57026,0.229555,9.87566,-0.200861,0.56,-5.88,-3.92,23.1698,-50.0688,-17.3498,1020.2
57032,0.186514,9.79914,-0.114778,1.26,-7.07,-4.13,24.2449,-50.0379,-16.3155,1020.2
57038,0.286944,9.85174,-0.176949,1.12,-7.35,-4.9,23.2279,-46.7073,-18.1625,1020.2
57044,0.320421,9.87087,-0.282162,0.35,-6.65,-5.95,22.6468,-49.1128,-18.5615,1020.17
57050,0.210426,9.89,-0.277379,0.07,-6.79,-5.46,23.8671,-49.3903,-17.6306,1020.17
57056,0.21999,9.81349,-0.157819,0.21,-7.63,-6.02,23.8381,-47.5091,-19.8323,1020.19
57062,0.143472,9.81827,-0.172166,1.05,-7.42,-5.46,22.9373,-47.2932,-18.6501,1020.19
57068,0.0143472,9.82783,-0.124342,0.91,-7.91,-5.46,23.0536,-50.6547,-16.9213,1020.17
57074,0.196078,9.68914,-0.143472,0.7,-7.35,-5.6,23.3441,-48.866,-17.9852,1020.17
57080,0.0908656,9.73697,-0.143472,1.47,-7.49,-5.53,22.763,-46.954,-18.6058,1020.2
57086,0.186514,9.87566,-0.315638,1.19,-7.56,-5.11,23.0536,-49.8221,-17.6306,1020.2
57092,0.224773,10.0048,-0.420851,0.28,-6.51,-5.46,23.0826,-50.2847,-17.601,1020.2
57098,0.143472,9.88522,-0.224773,-0.28,-7.07,-5.6,23.257,-47.4782,-19.0491,1020.17
57104,0.263032,9.88044,-0.310856,-0.21,-6.72,-5.81,23.1988,-48.5268,-17.5124,1020.17
57110,0.315638,9.89957,-0.320421,-0.07,-6.3,-6.58,23.809,-50.994,-16.6258,1020.21
57116,0.286944,10.043,-0.411286,-0.35,-6.58,-7.35,23.286,-47.7866,-18.0148,1020.21
57122,0.296509,10.0383,-0.425634,-1.33,-5.81,-8.19,23.1117,-47.0157,-18.7684,1020.19
57128,0.176949,9.80392,-0.129125,-0.91,-5.25,-8.05,23.8671,-50.9323,-17.6749,1020.19
57134,0.0621712,9.68914,0.0765184,0.63,-5.11,-8.05,23.9253,-48.0642,-17.8079,1020.21
57140,-0.0047824,9.76088,-0.0334768,1.68,-5.32,-7.91,22.9083,-46.7073,-18.7536,1020.21
57146,0.143472,9.84218,-0.133907,2.38,-5.25,-8.75,23.5475,-48.8044,-17.7488,1020.21
57152,0.124342,9.78957,-0.176949,2.59,-4.41,-7.84,23.4894,-49.3286,-17.6749,1020.17
57158,0.0430416,9.77044,-0.133907,2.59,-3.71,-7.7,23.6347,-46.4605,-18.9604,1020.17
57164,0.0286944,9.81349,-0.11956,3.5,-3.5,-8.4,23.2279,-48.4651,-19.0048,1020.18
57170,0.0191296,9.74653,-0.105213,3.71,-3.43,-8.19,24.0415,-49.8837,-18.458,1020.18
57176,0.0526064,9.77523,-0.0813008,4.62,-3.78,-8.33,23.0536,-47.2624,-17.6749,1020.19
57182,0.0430416,9.87566,-0.23912,4.9,-3.57,-8.4,23.3732,-47.6016,-18.8866,1020.19
57188,0.0573888,9.92826,-0.272597,4.76,-3.43,-7.84,23.9834,-50.2538,-18.4137,1020.18
57194,0.0286944,9.89,-0.248685,5.81,-3.15,-8.47,23.9834,-48.4343,-17.8079,1020.18
57200,0.0526064,9.86609,-0.224773,5.53,-3.01,-8.68,23.5766,-46.7998,-18.9161,1020.19
57206,0.071736,9.8374,-0.234338,6.58,-2.66,-9.24,24.4192,-49.7604,-18.8275,1020.19
57212,0.10043,9.78479,-0.191296,6.93,-2.73,-9.31,24.3321,-49.1744,-17.7045,1020.19
57218,0.0573888,9.8374,-0.23912,8.4,-1.96,-9.38,23.4894,-46.5531,-19.0196,1020.17
57224,-0.0813008,9.86131,-0.320421,9.03,-2.1,-9.31,23.6056,-48.1876,-19.0491,1020.17
57230,-0.157819,9.87087,-0.267814,8.4,-1.82,-9.1,24.6807,-49.8221,-16.6553,1020.18
57236,-0.129125,9.76088,-0.124342,9.1,-3.22,-8.4,24.4192,-47.6941,-18.4876,1020.18
57242,-0.109995,9.76088,-0.153037,10.43,-2.87,-8.47,23.5185,-46.5222,-18.8422,1020.22
57248,-0.0573888,9.76566,-0.224773,10.71,-1.54,-8.26,24.5936,-49.6987,-17.2759,1020.22
57254,-0.133907,9.8374,-0.282162,11.34,-1.47,-7.98,25.1166,-46.9231,-17.8227,1020.2
57260,-0.0860832,9.82783,-0.368245,10.99,-1.05,-8.05,24.5064,-45.6279,-19.0048,1020.2
57266,0.0286944,9.89,-0.272597,10.15,0.98,-8.33,24.6517,-49.1128,-18.2364,1020.2
57272,0.0573888,9.84218,-0.301291,10.43,2.03,-8.19,24.7098,-50.0379,-17.2612,1020.21
57278,-0.047824,9.90913,-0.37781,10.36,3.64,-7.56,23.8381,-45.9054,-18.2512,1020.21
57284,-0.172166,9.9713,-0.325203,8.61,3.22,-7.84,23.2279,-47.7866,-17.7192,1020.21
57290,-0.0143472,9.90913,-0.334768,8.47,3.43,-8.05,24.5354,-49.9454,-18.2364,1020.21
57296,0.0286944,9.97609,-0.454328,8.19,5.67,-7.98,23.7219,-47.2624,-18.2512,1020.19
57302,0.071736,9.85653,-0.344333,8.47,8.19,-8.82,23.9834,-46.4914,-17.9556,1020.19
57308,0.277379,9.7561,-0.473458,9.66,10.57,-9.52,25.0294,-49.5445,-16.5371,1020.2
57314,0.310856,9.83261,-0.286944,11.06,14.07,-10.29,24.4192,-47.4474,-17.3941,1020.2
57320,-0.200861,9.90913,-0.712578,10.78,15.47,-10.85,24.4773,-45.597,-18.1477,1020.2
57326,-0.0143472,9.9713,-0.526064,10.36,15.82,-11.55,25.1166,-49.3595,-16.9065,1020.2
57332,0.45911,9.72262,-0.243902,14.21,20.02,-13.65,25.3781,-49.4212,-15.4141,1020.2
57338,0.425634,9.87566,0.0095648,17.71,22.89,-16.03,24.4192,-46.183,-17.6897,1020.17
57344,0.430416,10.8417,0.73649,27.65,24.15,-20.86,24.797,-48.3109,-17.1725,1020.17
57350,0.569106,12.2908,0.913438,31.64,12.46,-32.13,25.2619,-50.3463,-14.956,1020.16
57356,1.30081,14.5863,-1.04735,17.01,1.82,-42.42,24.797,-47.2624,-15.9904,1020.16
57362,1.64036,12.3386,-2.20469,0,16.87,-46.27,25.1456,-46.3063,-17.4385,1020.21
57368,-0.291726,9.95218,0.750837,10.78,14.63,-48.72,25.9011,-49.1744,-15.1038,1020.21
57374,-0.416069,10.5213,0.71736,18.76,5.04,-53.48,25.4362,-46.8306,-17.9852,1020.19
57380,0.607365,11.473,-0.631277,20.72,3.64,-57.19,25.0585,-46.2755,-16.9361,1020.19
57386,0.57867,11.7121,-0.502152,17.01,5.04,-61.67,26.9472,-48.3418,-15.1629,1020.19
57392,0.549976,10.9278,-0.353898,16.8,7.63,-66.71,27.5574,-48.0025,-13.8774,1020.2
57398,0.21999,10.77,-0.310856,19.6,6.58,-70.07,26.6856,-45.3503,-15.1334,1020.2
57404,-0.229555,11.0665,-0.157819,21.84,3.57,-74.06,27.1796,-47.1698,-16.2268,1020.17
57410,-0.109995,10.6169,0.0047824,24.85,0.98,-76.79,28.5743,-48.496,-13.7296,1020.17
57416,-0.0860832,10.9852,0.0286944,27.93,-0.91,-79.94,28.0513,-45.5662,-15.2663,1020.18
57422,0.143472,11.6786,-0.243902,28.98,-3.08,-84.63,28.4872,-45.4428,-15.6801,1020.18
57428,0.114778,11.6547,-0.61693,28.07,-4.13,-89.81,28.9811,-47.9717,-13.8774,1020.2
57434,-0.215208,11.2865,-0.73649,29.33,-5.95,-94.85,28.9521,-45.2886,-13.5966,1020.2
57440,-0.425634,11.2721,-0.875179,29.89,-10.29,-98.91,29.1264,-43.7158,-15.754,1020.2
57446,-0.430416,11.516,-0.73649,33.95,-14.28,-102.97,29.9109,-46.4914,-12.6952,1020.15
57452,-0.35868,11.8508,-0.5978,36.19,-20.23,-109.2,30.7536,-46.1521,-13.3159,1020.15
57458,-0.363462,12.329,-1.40603,36.61,-21.7,-115.5,30.8408,-43.4382,-14.0399,1020.19
57464,-0.0095648,12.1521,-1.6021,34.23,-24.5,-121.59,31.3057,-43.9625,-13.7,1020.19
57470,-0.023912,12.4103,-1.53037,33.25,-24.64,-127.75,32.7585,-45.9979,-12.6214,1020.2
57476,-0.191296,13.1038,-1.8747,30.45,-25.13,-132.09,32.8166,-42.4822,-17.8818,1020.2
57482,0.095648,13.7877,-1.45385,26.39,-32.13,-140.77,32.3808,-41.9271,-13.966,1020.19
57488,0.793878,13.7111,-1.75036,18.34,-30.24,-150.29,34.2985,-44.4559,-14.0547,1020.19
57494,0.430416,12.9794,-1.53993,17.85,-26.25,-158.69,34.4729,-43.0373,-13.6114,1020.19
57500,-0.267814,13.0368,-1.65471,20.02,-32.27,-167.72,34.4147,-39.9534,-15.2368,1020.2
57506,-0.272597,13.802,-2.48685,20.09,-39.97,-179.2,36.1,-43.099,-14.1138,1020.2
57512,-0.282162,14.6581,-3.48159,10.01,-45.99,-188.79,36.3034,-41.8037,-12.9612,1020.18
57518,0.167384,14.9498,-3.90722,1.75,-42.42,-200.06,36.1,-39.645,-15.4289,1020.18
57524,-1.05213,15.8106,-3.50072,-6.93,-40.88,-209.93,37.7563,-39.9225,-14.7787,1020.19
57530,-0.286944,14.8924,-4.11286,-20.65,-46.69,-222.46,39.4125,-41.372,-13.1238,1020.19
57536,0.392157,14.3424,-4.92109,-24.57,-43.68,-232.96,38.8604,-37.8562,-15.9756,1020.18
57542,-0.784314,17.3123,-5.29412,-34.16,-40.04,-241.29,39.151,-36.6227,-15.1629,1020.18
57548,-1.9847,19.7178,-3.89766,-38.08,-43.47,-254.03,41.9986,-38.3805,-15.1481,1020.18
57554,-1.64036,19.1966,-3.25203,-36.05,-52.71,-271.74,42.0567,-34.3097,-14.7787,1020.18
57560,-1.61167,14.022,-3.22812,-18.34,-64.26,-291.2,41.1559,-32.4593,-16.4485,1020.18
57566,-1.53037,13.1851,-2.30512,9.17,-73.5,-302.68,44.1197,-33.7237,-15.0595,1020.16
57572,0.731707,18.7135,-1.78384,26.46,-77.84,-314.93,44.9042,-32.3976,-14.1138,1020.16
57578,2.3099,23.4481,-3.56289,8.33,-67.06,-332.15,43.3933,-28.7277,-17.0247,1020.14
57584,1.09039,26.3797,-4.56241,-28.98,-61.04,-343.21,44.9914,-28.0492,-16.0347,1020.14
57590,-0.0765184,24.4811,-3.39072,-49.7,-59.5,-347.41,47.4322,-27.7408,-16.3302,1020.14
57596,-2.31946,19.5218,-0.310856,-37.17,-58.87,-352.94,46.9673,-23.8242,-17.0986,1020.14
57602,-1.69775,18.2449,-0.932568,-19.74,-80.64,-365.4,46.8801,-21.9738,-18.1477,1020.16
57608,2.30033,18.1683,-5.4615,-25.48,-76.79,-368.62,49.1175,-22.0355,-16.7883,1020.16
57614,1.65949,19.3257,-5.19847,-20.72,-66.71,-368.27,48.5363,-17.6562,-16.7144,1020.16
57620,-1.07126,23.7255,-5.10282,-31.01,-68.25,-372.61,47.4322,-15.1582,-18.8866,1020.17
57626,-0.999522,24.3759,-5.82975,-53.13,-84.63,-378.14,49.4371,-14.9423,-19.4924,1020.17
57632,2.65423,19.9761,-5.6241,-62.86,-104.93,-386.05,50.8318,-13.4928,-19.0343,1020.15
57638,4.50502,19.4692,-6.15495,-63.77,-118.72,-386.96,47.4903,-9.79208,-19.0639,1020.15
57644,7.08752,15.7102,-9.29699,-107.8,-123.97,-371.42,48.7397,-8.52765,-19.2412,1020.15
57650,9.66523,10.7078,-9.24916,-163.03,-121.38,-349.72,50.8609,-5.38199,-19.0491,1020.15
57656,13.5007,-2.30512,-7.91965,-233.8,-104.09,-298.9,48.8269,-3.09985,-21.4429,1020.12
57662,10.6026,-10.7174,-4.90674,-181.65,56.49,-172.9,47.6065,-1.31115,-21.2065,1020.12
57668,-1.95122,-6.15495,6.35103,-43.89,61.6,-62.44,50.2507,-1.61954,-19.714,1020.14
57674,-6.81014,4.75849,11.1526,-4.62,-17.08,-1.19,49.1756,-0.694352,-19.714,1020.14
57680,9.1583,10.4639,-2.53467,-24.36,42.56,55.79,47.0254,-0.200916,-20.6893,1020.14
57686,6.20756,4.8637,-2.75944,10.85,79.03,93.17,49.902,-1.80458,-19.0491,1020.16
57692,5.01196,5.32759,-0.530846,11.2,77.35,115.36,50.5994,-2.79145,-16.8326,1020.16
57698,7.63749,5.25586,-3.53419,12.53,78.47,126.42,47.868,-2.11298,-19.1969,1020.17
57704,7.36011,5.27499,-4.03156,14.77,90.79,128.31,49.4952,-2.76061,-17.8227,1020.17
57710,4.54806,6.66667,-3.12291,9.94,90.23,127.61,51.9069,-4.3026,-17.0691,1020.16
57716,3.61071,6.3845,-2.94118,2.73,82.18,128.38,49.5533,-4.85772,-17.4976,1020.16
57722,3.14204,4.86848,-2.24295,1.82,77.56,129.08,48.885,-4.88856,-18.0443,1020.16
57728,2.81205,4.35198,-2.21903,3.15,73.36,133.56,51.2677,-7.13986,-16.2268,1020.16
57734,2.63032,4.09852,-2.34816,2.45,67.83,140.21,51.2967,-6.95482,-16.2711,1020.16
57740,2.43902,4.16069,-2.41033,-0.28,61.67,151.41,48.1295,-7.0165,-17.4089,1020.14
57746,1.78862,4.60545,-2.57771,-2.87,56.49,163.52,50.2797,-8.89772,-15.1777,1020.14
57752,1.1956,4.81588,-2.71162,-7.14,49.77,177.31,52.0232,-10.1622,-13.7296,1020.12
57758,0.483022,4.58154,-2.46772,-8.89,40.53,193.2,49.2046,-10.2238,-15.222,1020.12
57764,0.373027,4.30894,-2.26686,-8.12,31.57,210.21,50.1926,-11.2415,-15.4437,1020.13
57770,0.741272,4.21808,-2.41989,-7.63,23.38,227.36,51.6745,-13.4928,-13.0647,1020.13
57776,0.97561,4.36155,-2.53467,-5.6,13.65,241.64,49.6696,-13.0919,-14.8969,1020.13
57782,1.30081,4.57197,-2.27164,-0.49,6.44,254.24,48.2748,-15.6208,-15.8426,1020.13
57788,1.50167,4.74414,-2.25251,2.38,-1.19,264.67,50.3379,-17.4712,-13.5671,1020.13
57794,1.36298,5.16021,-2.19512,5.6,-10.36,272.23,49.902,-17.3787,-13.4932,1020.14
57800,1.69775,4.99761,-2.02296,13.09,-16.03,279.37,46.7929,-18.7664,-14.956,1020.14
57806,1.70732,5.78192,-1.90818,20.58,-21.84,288.4,47.868,-22.0355,-14.8378,1020.1
57812,1.81731,6.47537,-2.20469,24.22,-24.78,296.66,48.9722,-23.5466,-14.4684,1020.1
57818,1.91774,7.42707,-2.16164,26.81,-26.04,304.29,46.2699,-23.1457,-15.0595,1020.11
57824,2.33859,8.45528,-2.2286,28.28,-24.99,311.36,45.6016,-25.7362,-15.9017,1020.11
57830,2.63988,9.22047,-2.34338,27.09,-22.19,318.5,46.9673,-28.7894,-14.7196,1020.12
57836,2.87422,10.4926,-2.83118,21.84,-18.34,325.15,45.1948,-28.9127,-15.089,1020.12
57842,3.08943,10.6074,-2.55858,18.13,-13.09,329.56,43.3352,-28.851,-16.3598,1020.14
57848,2.87422,10.8943,-2.43902,17.08,-8.12,332.36,44.4684,-32.891,-15.8426,1020.14
57854,2.49641,11.1573,-2.59684,16.31,-4.48,335.02,42.5216,-33.4153,-15.9608,1020.14
57860,1.85079,10.9995,-2.54424,18.41,-2.31,336.84,40.2552,-32.891,-16.744,1020.1
57866,1.3582,10.8417,-2.21425,25.83,-2.1,337.05,40.7201,-36.746,-15.355,1020.1
57872,0.655189,11.3104,-2.21903,34.72,-4.06,334.39,40.168,-38.7506,-14.9117,1020.12
57878,0.502152,11.8843,-2.2812,45.22,-6.37,327.95,37.9887,-37.2086,-17.0395,1020.12
57884,0.502152,12.8216,-2.1473,55.65,-8.4,318.43,36.2163,-39.7992,-16.2268,1020.12
57890,0.540411,13.5629,-2.19034,62.65,-9.17,306.18,37.088,-43.6233,-15.6653,1020.12
57896,0.612147,14.6676,-2.21425,68.74,-9.17,291.2,34.7634,-41.7421,-16.079,1020.14
57902,0.679101,15.6002,-2.07556,73.15,-8.68,274.4,32.7295,-42.0505,-17.3646,1020.14
57908,0.946915,17.0301,-2.10426,74.2,-4.27,256.69,32.003,-46.3063,-14.5571,1020.14
57914,0.73649,18.5175,-2.27164,66.99,2.59,245.42,31.5962,-46.3063,-14.7492,1020.14
57920,-0.368245,17.5466,0.210426,80.5,9.66,242.27,28.8358,-44.9802,-15.5766,1020.14
57926,-1.01387,18.3549,0.918221,87.01,12.25,247.03,29.4751,-48.095,-14.9265,1020.12
57932,-0.181731,19.6126,0.382592,90.72,27.09,255.78,28.6034,-50.1305,-13.3306,1020.12
57938,-0.0143472,20.8082,0.779531,90.72,41.02,264.18,26.1336,-48.2184,-13.8478,1020.12
57944,0.741272,23.4959,-0.133907,78.4,63.49,269.29,25.9592,-49.1744,-14.5275,1020.12
57950,0.827355,25.0406,-1.12865,60.83,83.58,267.05,24.8551,-52.536,-12.577,1020.12
57956,-0.143472,26.3797,-1.3869,41.16,102.06,258.51,23.1988,-49.5753,-11.8234,1020.12
57962,-3.35246,26.1549,-1.90818,22.47,115.29,250.74,21.6298,-50.408,-13.0942,1020.12
57968,-4.24199,25.1841,-2.59206,6.23,127.68,245.63,20.206,-53.8929,-10.9664,1020.12
57974,-8.0966,21.8508,-1.00909,5.53,130.9,241.71,20.0898,-53.5228,-10.3901,1020.12
57980,-9.97609,20.3491,-0.865614,14.56,132.37,245.98,18.4916,-50.8706,-12.7839,1020.12
57986,-12.1282,19.4739,-0.750837,27.16,130.97,258.02,16.8645,-54.5097,-10.1242,1020.12
57992,-12.8025,19.2826,-0.946915,34.3,125.37,265.09,15.7603,-55.805,-8.32143,1020.13
57998,-12.6877,19.7226,-1.45385,38.43,123.83,268.24,14.6852,-53.4612,-10.3901,1020.13
58004,-13.1038,20.3539,-2.15686,34.86,123.41,265.72,13.4067,-54.2013,-10.2867,1020.16
58010,-14.065,21.1047,-3.90722,22.26,118.72,254.31,11.518,-56.6377,-9.08981,1020.16
58016,-15.0837,20.7221,-5.65758,0.49,111.58,238,11.3146,-54.7564,-8.69085,1020.15
58022,-18.0249,18.8953,-7.43185,-21.21,99.54,221.06,9.77461,-53.4612,-10.8778,1020.15
58028,-19.9522,16.1549,-7.29316,-35.7,85.68,203.7,7.85686,-56.6993,-9.40011,1020.15
58034,-22.7594,11.2626,-4.87805,-34.72,69.86,185.22,7.97309,-55.3732,-8.79428,1020.16
58040,-24.4524,8.29268,-3.13247,-14.14,48.58,164.85,7.53724,-53.6462,-10.6118,1020.16
58046,-26.7241,5.64801,-0.444763,16.94,20.09,144.06,5.61949,-55.5274,-9.68086,1020.15
58052,-27.5897,4.8637,1.12865,53.9,-11.27,123.27,4.8059,-56.7919,-7.9668,1020.15
58058,-26.7097,5.87757,2.49641,87.22,-36.05,98.77,5.0093,-53.6462,-9.65131,1020.17
58064,-26.0258,8.5318,1.98948,100.59,-53.2,70.21,4.77684,-54.5405,-9.08981,1020.17
58070,-24.4333,11.5065,1.82688,96.18,-60.62,39.76,3.64363,-57.347,-7.50873,1020.17
58076,-23.6442,13.692,1.20516,79.66,-64.4,4.97,4.1376,-55.4966,-7.73038,1020.17
58082,-21.6547,15.5189,0.109995,46.9,-64.33,-24.29,4.31194,-54.0163,-8.54308,1020.17
58088,-19.8087,15.5906,-0.181731,16.73,-60.27,-47.95,3.75986,-57.1003,-6.51871,1020.16
58094,-19.1344,13.912,-0.176949,19.04,-49.35,-62.86,3.90514,-57.4086,-6.43005,1020.16
58100,-17.2406,11.9895,0.148254,-34.65,-57.61,-84.49,5.18364,-53.492,-8.64652,1020.17
58106,-15.6241,11.1286,0.224773,-12.32,-58.1,-87.22,5.03836,-56.0825,-8.39532,1020.17
58112,16.2171,62.7164,-11.6595,29.96,18.06,-243.32,5.35798,-57.4395,-6.29707,1020.15
58118,-10.6026,30.4113,-17.8575,-208.81,-45.71,-253.75,7.79875,-54.263,-9.99117,1020.15
58124,9.75131,2.95552,-10.813,-351.82,-182.84,-234.36,8.67045,-55.1882,-11.0403,1020.14
58130,15.7771,-10.9804,12.7881,-223.16,-112.63,-262.57,9.80367,-56.6685,-10.9516,1020.14
58136,20.6074,-8.64658,12.2382,-39.06,51.03,-227.15,10.8497,-54.078,-11.8973,1020.14
58142,12.4199,-4.69153,-3.37159,90.72,105.7,-219.03,12.2735,-52.5976,-13.109,1020.15
58148,1.38211,14.7633,3.25681,82.53,107.17,-259.49,14.0169,-55.4966,-10.2424,1020.15
58154,-3.53898,15.0502,0.640842,30.17,43.82,-259.7,15.2954,-53.5228,-10.3606,1020.16
58160,-1.5208,19.9474,-2.46772,-9.24,43.61,-271.67,16.7773,-51.3949,-10.9073,1020.16
58166,-6.90579,21.7791,-2.17599,-73.01,73.22,-232.4,18.2011,-53.492,-9.19324,1020.16
58172,-9.00526,14.4237,5.20803,-124.46,45.08,-235.55,19.0147,-54.1396,-9.29668,1020.16
58178,-10.7461,9.40698,6.60449,-89.88,-12.25,-202.16,20.5837,-49.9146,-11.1881,1020.16
58184,-10.703,13.759,4.61023,-36.05,-81.34,-182.91,21.0196,-51.4874,-12.6657,1020.16
58190,-5.81062,17.2262,-2.88379,-63.63,-110.04,-154.35,22.3562,-53.307,-11.2767,1020.16
58196,1.97513,16.3175,-5.36585,-116.41,-93.45,-148.47,23.5185,-49.637,-11.2619,1020.16
58202,-1.45385,19.7944,-9.56958,-123.55,43.89,-73.29,23.4313,-49.1744,-13.0203,1020.16
58208,-7.40794,6.78144,2.63988,-54.53,96.18,-22.61,24.4192,-50.9015,-12.4588,1020.14
58214,-4.25634,3.3429,4.2946,16.94,9.1,-52.5,24.0124,-50.5622,-11.6166,1020.14
58220,-2.96031,17.3171,-2.86944,-51.94,-30.45,-49.28,24.0705,-47.9717,-15.5028,1020.18
58226,1.63558,13.4051,-4.12721,-98.63,-8.82,-44.87,23.5185,-50.2538,-14.8083,1020.18
58232,0.626494,5.11717,3.57245,-46.97,49.84,-14.63,23.78,-51.179,-12.9021,1020.17
58238,-4.31372,6.41798,5.60019,11.55,24.22,-21,24.0415,-47.7558,-13.8183,1020.17
58244,-3.62506,12.0612,0.784314,-2.31,-23.17,-18.06,24.5064,-48.0025,-13.3159,1020.17
58250,0.526064,11.1478,-2.23816,-18.34,-12.25,-11.9,25.0294,-51.2099,-14.4093,1020.17
58256,0.588235,8.68006,1.14778,-12.74,6.02,-8.61,24.5064,-48.5885,-12.8282,1020.17
58262,-1.25777,8.94309,1.20038,0.49,-1.4,-5.6,23.8381,-48.496,-16.0938,1020.18
58268,-0.789096,9.91392,0.105213,2.94,-8.89,-1.89,24.8841,-51.2407,-14.3502,1020.18
58274,0.483022,10.5069,-1.14778,-1.54,-8.47,-3.29,24.6226,-48.8352,-14.2024,1020.15
58280,0.133907,10.2152,-0.516499,-1.82,-2.94,-3.57,24.5936,-47.5708,-14.7492,1020.15
58286,0.167384,10.1626,-0.234338,-0.14,-4.97,-2.73,24.6226,-50.2538,-14.2763,1020.17
58292,0.315638,10.5548,-0.769966,-0.91,-2.66,-3.71,24.6226,-51.1173,-13.7296,1020.17
58298,0.583453,10.4687,-0.683883,-3.5,-2.73,-7.35,24.5064,-47.725,-15.2516,1020.2
58304,0.215208,10.0813,-0.243902,-3.78,-3.99,-7.14,24.4483,-47.8792,-15.1186,1020.2
58310,0.277379,9.52176,0.095648,-1.33,-4.55,-7.21,25.0875,-50.5622,-13.0942,1020.18
58316,0.157819,10.0765,-0.176949,0.7,-5.18,-8.05,24.5936,-48.3109,-12.7396,1020.18
58322,0.406504,9.8087,-0.172166,1.12,-5.95,-9.17,25.2909,-47.1698,-14.4389,1020.18
58328,0.349115,9.96652,-0.153037,2.38,-6.02,-8.05,25.7849,-51.3024,-13.6262,1020.16
58334,0.325203,10.0765,-0.224773,2.31,-6.09,-7.63,25.9011,-50.3155,-12.4145,1020.16
58340,0.45911,9.88044,-0.210426,4.2,-5.53,-9.03,24.7388,-47.1082,-14.8231,1020.19
58346,0.392157,9.82305,-0.148254,5.53,-4.41,-9.59,25.0004,-49.3286,-14.2911,1020.19
58352,0.181731,9.83261,-0.0573888,7,-4.2,-10.15,25.4072,-51.5799,-13.6114,1020.15
58358,0.349115,9.78479,-0.129125,8.47,-4.62,-10.36,24.797,-47.6324,-14.9708,1020.15
58364,0.329986,9.87566,-0.387374,8.54,-4.41,-10.43,25.0294,-47.324,-14.8822,1020.15
58370,0.229555,9.88522,-0.37781,7.84,-4.06,-11.41,25.0294,-51.0248,-13.5966,1020.15
58376,0.196078,9.8087,-0.277379,7.35,-4.13,-11.55,24.9132,-48.5576,-14.0104,1020.15
58382,0.129125,9.87087,-0.37781,7.35,-4.27,-11.13,25.6977,-46.8923,-15.6653,1020.17
58388,0.071736,9.96174,-0.430416,6.58,-4.41,-11.55,25.4653,-50.408,-13.6409,1020.17
58394,0.0765184,9.8374,-0.449546,6.79,-4.69,-11.83,25.5815,-49.8529,-13.7,1020.15
58400,0.114778,9.87087,-0.573888,6.51,-4.06,-12.11,24.826,-46.9231,-13.833,1020.15
58406,0.143472,9.82305,-0.545194,6.51,-3.08,-11.41,25.9592,-48.5576,-14.6162,1020.17
58412,0.023912,9.7274,-0.444763,7.07,-2.66,-11.27,24.826,-50.6239,-12.5918,1020.17
58418,0.0573888,9.64132,-0.306074,8.05,-2.17,-11.2,25.3781,-47.5091,-14.6014,1020.16
58424,0.0095648,9.69871,-0.282162,8.75,-0.91,-10.64,25.7558,-47.5708,-13.508,1020.16
58430,-0.0573888,9.8087,-0.267814,8.68,-0.21,-11.13,25.9011,-50.6856,-12.2963,1020.16
58436,0.0143472,9.72262,-0.234338,8.96,0.21,-9.66,25.6977,-49.452,-12.9021,1020.18
58442,0.0095648,9.83261,-0.363462,9.24,0.28,-10.01,25.6396,-47.1082,-14.7048,1020.18
58448,-0.047824,9.72262,-0.392157,10.08,1.33,-9.94,26.1917,-49.6062,-13.508,1020.2
58454,-0.0191296,9.8087,-0.439981,10.78,1.05,-9.73,25.8139,-48.496,-12.3258,1020.2
58460,0.071736,9.9187,-0.612147,9.31,2.1,-10.15,26.366,-46.5222,-14.3945,1020.15
58466,0.095648,9.85174,-0.640842,9.03,3.78,-10.29,25.2328,-48.1567,-13.8478,1020.15
58472,0.0382592,9.84696,-0.487805,9.03,6.23,-9.87,26.2789,-49.8529,-12.2076,1020.17
58478,0.0430416,9.74175,-0.540411,10.22,6.93,-9.8,26.4823,-47.8792,-14.099,1020.17
58484,0.0573888,9.89479,-0.607365,8.68,8.68,-10.43,26.0755,-48.6502,-13.7,1020.16
58490,0.105213,9.8374,-0.640842,8.82,10.99,-10.29,26.337,-50.8706,-12.6066,1020.16
58496,-0.229555,9.98087,-0.267814,5.74,9.38,-11.27,26.337,-48.7427,-12.9612,1020.16
58502,-0.186514,10.0383,-0.530846,2.94,6.72,-11.27,25.4943,-46.7073,-14.0251,1020.19
58508,-0.0765184,9.89957,-0.650406,1.19,7.63,-10.78,26.5113,-49.6987,-11.5575,1020.19
58514,-0.095648,10.0861,-0.535629,-6.37,9.87,-9.87,26.9472,-49.9763,-11.8382,1020.15
58520,-0.0286944,9.89957,-0.559541,-4.97,12.32,-10.78,25.6977,-45.9671,-14.6753,1020.15
58526,-0.215208,9.72262,-0.286944,-3.92,10.92,-11.27,27.1215,-48.3726,-13.6409,1020.19
58532,-0.11956,9.7274,-0.267814,-1.82,10.08,-12.11,27.1796,-49.637,-12.2224,1020.19
58538,0.162602,10.0335,-0.707795,-5.46,10.22,-12.67,26.3951,-47.5708,-13.5818,1020.14
58544,0.210426,10.2822,-1.09517,-5.46,13.37,-13.44,26.4823,-47.5399,-14.3354,1020.14
58550,0.0621712,10.3922,-1.02343,-6.3,15.26,-14.98,27.1506,-50.0996,-11.6313,1020.14
58556,-0.0860832,10.6552,-0.918221,-8.26,12.11,-16.94,27.1506,-48.5885,-12.119,1020.17
58562,-0.688666,11.0665,-1.42037,-12.95,10.29,-16.17,26.6856,-46.2447,-13.9956,1020.17
58568,-0.985174,12.1329,-0.640842,-18.27,-6.02,-18.27,27.9932,-48.2492,-13.4045,1020.17
58574,-0.822573,11.5734,-1.6834,-30.38,-16.94,-19.18,27.5283,-49.2053,-11.8973,1020.17
58580,-0.0573888,10.3491,-1.38211,-34.09,-15.19,-20.3,27.1506,-45.8129,-14.8674,1020.15
58586,-0.109995,10.0765,0.286944,-28.84,-16.24,-21.21,27.7607,-47.9717,-12.6805,1020.15
58592,1.15734,10.1626,1.62123,-16.24,-17.99,-29.89,28.5162,-49.0511,-10.9664,1020.17
58598,4.04113,11.3343,4.21808,5.18,-5.95,-46.06,27.6736,-45.9363,-13.4193,1020.17
58604,3.54854,12.3912,1.23864,3.01,17.78,-58.59,28.0513,-45.6279,-16.6258,1020.17
58610,0.368245,12.0564,-2.33381,-9.31,26.46,-61.46,28.3419,-48.496,-13.109,1020.17
58616,-1.04735,11.3008,-0.793878,-10.92,11.62,-65.1,28.8358,-46.9231,-13.1385,1020.17
58622,-0.23912,10.6408,1.42037,-0.91,-3.92,-71.33,28.5162,-44.5793,-13.8774,1020.17
58628,0.593018,11.0043,1.04256,6.65,-4.2,-76.23,29.3879,-47.8175,-11.9417,1020.17
58634,1.12386,11.6643,0.401722,6.3,1.05,-82.67,29.5332,-47.139,-12.1929,1020.17
58640,0.760402,11.4873,0.109995,6.16,4.62,-88.06,29.7657,-44.3943,-14.4093,1020.17
58646,0.157819,11.3582,0.511717,8.47,1.89,-92.96,30.5793,-45.7512,-15.1481,1020.19
58652,-0.047824,11.0473,1.62602,15.26,-5.39,-98.84,30.8989,-46.8923,-12.8873,1020.19
58658,0.282162,10.7556,1.42516,23.45,-7.42,-104.37,30.7245,-44.1476,-14.0547,1020.18
58664,0.23912,10.8847,0.942133,28.77,-4.62,-108.64,31.7125,-43.3766,-14.5275,1020.18
58670,-0.253467,11.2673,0.903874,33.25,-3.92,-112.49,32.7295,-46.5531,-12.2224,1020.18
58676,-0.731707,11.3199,0.903874,39.83,-7.84,-118.09,32.7585,-44.1784,-12.9317,1020.17
58682,-1.12865,11.8556,-0.0047824,47.04,-15.89,-122.15,32.7004,-41.3411,-14.1729,1020.17
58688,-0.798661,12.7594,-1.02822,49.35,-27.51,-126.42,34.0951,-45.0111,-13.1976,1020.15
58694,-0.143472,13.3812,-1.48733,46.06,-32.55,-132.44,34.531,-43.9934,-11.8234,1020.15
58700,0.889526,13.9933,-0.243902,46.27,-33.53,-141.82,33.8046,-41.0636,-13.5671,1020.15
58706,1.3056,14.4572,-0.21999,49,-32.69,-154.56,35.577,-42.8831,-15.3254,1020.15
58712,1.43472,15.7437,-1.80775,40.39,-34.02,-166.32,36.7974,-44.2092,-11.3063,1020.19
58718,2.03252,16.021,-2.39598,23.94,-22.4,-181.93,36.3616,-39.9225,-12.3258,1020.19
58724,0.47824,13.8259,-1.70732,23.66,-25.06,-193.76,36.7393,-39.7066,-12.6361,1020.19
58730,0.191296,14.1607,-1.6308,25.34,-30.03,-205.73,38.2793,-41.8037,-11.2767,1020.19
58736,0.583453,15.2224,-2.67814,24.5,-33.53,-220.92,38.628,-39.3674,-11.129,1020.19
58742,-0.645624,16.6428,-4.87327,20.79,-36.96,-237.93,39.4706,-36.9002,-13.8035,1020.17
58748,-2.2286,17.1353,-7.71879,11.2,-59.29,-253.05,40.7782,-38.7506,-11.3506,1020.17
58754,-0.621712,17.7284,-7.84314,-5.18,-66.43,-264.74,41.0687,-38.473,-11.321,1020.14
58760,1.41081,21.2865,-5.31325,-12.53,-62.02,-281.89,41.2431,-33.7546,-13.4784,1020.14
58766,2.1473,24.0507,-3.04161,-32.62,-62.72,-301.63,42.8993,-34.433,-12.2667,1020.12
58772,5.04065,22.5681,-3.00335,-55.44,-63,-329.14,44.759,-35.1423,-11.9269,1020.12
58778,3.14682,18.2736,1.06648,-26.46,-56.56,-354.48,43.8873,-30.4239,-13.6705,1020.12
58784,1.59254,19.8087,-0.712578,10.78,-52.71,-377.37,44.4393,-29.1903,-14.0104,1020.16
58790,0.0095648,23.7159,-4.23721,18.27,-72.8,-400.75,46.6477,-29.7454,-13.7444,1020.16
58796,1.05213,26.198,-6.7384,3.92,-69.72,-419.23,46.7058,-26.1371,-13.2272,1020.14
58802,1.58297,25.1554,-3.57245,-15.33,-80.99,-435.54,46.822,-23.5158,-13.5227,1020.14
58808,1.49211,18.2401,-1.34385,4.27,-82.88,-455.91,49.379,-22.9606,-16.2859,1020.15
58814,-5.70062,18.2209,0.47824,80.08,-80.78,-455.28,49.9311,-19.8767,-14.099,1020.15
58820,-1.99426,28.2592,-1.72645,62.79,-113.4,-446.04,48.3039,-16.0525,-15.5028,1020.13
58826,5.32759,30.8704,-8.2879,28.49,-105.28,-453.46,50.1054,-15.2816,-16.9952,1020.13
58832,4.32807,31.7551,-8.09182,13.65,-86.87,-455.56,51.965,-13.277,-15.6949,1020.15
58838,2.16164,29.8948,-6.60928,-13.09,-111.02,-454.09,49.4371,-8.55849,-16.5519,1020.15
58844,1.97035,24.8589,-7.44141,-14.7,-130.97,-461.58,49.1465,-6.8623,-18.2364,1020.15
58850,6.69536,21.4682,-6.03061,-26.39,-163.52,-458.36,52.1103,-5.62871,-17.2759,1020.12
58856,10.8465,16.3941,-8.02965,-60.55,-170.1,-421.47,50.3379,-1.52702,-18.3398,1020.12
58862,20.7508,8.91918,-8.27355,-141.68,-154.35,-382.55,47.5194,0.940155,-18,1020.09
58868,17.2979,-1.89861,-8.94309,-177.66,-51.24,-306.6,49.9892,2.20458,-18.2364,1020.09
58874,5.34194,-6.02582,3.65854,-79.1,77.84,-132.3,50.3379,3.31482,-18.133,1020.14
58880,5.16499,3.30942,4.40937,-42.84,109.13,-32.97,47.7809,3.83909,-18.7092,1020.14
58886,4.84935,9.41176,1.91774,-45.78,104.23,39.9,49.379,3.90077,-17.335,1020.12
58892,8.14921,7.04926,-0.607365,-15.75,136.36,118.93,51.8488,3.86993,-16.5519,1020.12
58898,9.30655,6.35581,-2.71162,5.74,164.71,139.86,49.0013,4.08581,-15.5323,1020.12
58904,9.59828,6.20277,-4.20373,2.38,165.62,155.26,49.2628,2.7597,-16.3302,1020.12
58910,8.44572,6.13104,-5.01196,8.82,170.59,153.65,51.7326,0.169161,-15.0004,1020.12
58916,5.59541,5.02152,-4.04591,10.29,168.35,148.75,51.5001,0.940155,-12.843,1020.11
58922,3.93113,5.21282,-4.47154,15.47,149.94,144.55,49.7277,0.38504,-13.6705,1020.11
58928,1.85557,3.55811,-3.65854,10.99,130.55,145.25,52.2265,-1.28031,-11.0107,1020.11
58934,1.45385,2.99856,-3.20899,10.15,110.18,147.35,53.1273,-2.39054,-10.4492,1020.11
58940,1.23864,1.50646,-2.62554,14.91,93.31,150.01,50.2507,-2.08214,-12.3258,1020.14
58946,0.69823,1.67862,-2.74988,17.85,75.39,157.01,51.3548,-3.68581,-10.6266,1020.14
58952,-0.425634,2.37207,-2.80727,18.83,53.48,166.04,53.7956,-5.84459,-9.23757,1020.14
58958,-0.899091,3.08465,-2.65901,17.85,33.46,178.43,51.2096,-5.75207,-9.45922,1020.14
58964,-1.42516,3.96939,-2.4725,17.15,10.64,195.3,51.2096,-6.18383,-11.3654,1020.14
58970,-1.66906,4.66762,-2.59684,8.68,-8.82,214.62,53.2145,-9.32948,-9.0307,1020.13
58976,-1.14778,4.5385,-2.52511,3.57,-25.69,236.04,52.1975,-9.79208,-9.87296,1020.13
58982,-0.961262,4.69632,-2.52511,-2.17,-40.53,259.42,50.5122,-9.82292,-11.2767,1020.15
58988,-0.114778,4.60545,-1.7934,-6.79,-55.02,281.82,52.5752,-12.5677,-9.75474,1020.15
58994,0.769966,4.24199,-1.36298,-2.59,-62.51,300.79,52.6043,-15.4358,-9.31145,1020.08
59000,1.53515,4.1846,-1.24342,-2.03,-69.79,316.96,49.6114,-14.9115,-11.6757,1020.08
59006,1.89383,4.54328,-1.17647,-0.28,-77.7,329.91,50.396,-16.9777,-11.3801,1020.09
59012,3.1516,4.05069,-0.674318,5.74,-81.9,338.94,52.0813,-19.9384,-10.4936,1020.09
59018,3.45289,3.96461,-0.186514,16.38,-82.95,345.94,49.0594,-19.7842,-12.5918,1020.09
59024,3.62028,4.99761,-0.483022,22.61,-82.81,349.3,48.362,-22.2513,-14.5866,1020.09
59030,3.73984,5.55237,-0.530846,30.31,-82.6,354.13,48.7397,-24.626,-11.6905,1020.09
59036,3.55332,6.09756,-0.387374,36.82,-82.11,355.25,47.7809,-26.2605,-13.0351,1020.09
59042,3.63462,6.75753,-1.17169,41.79,-79.24,357.91,44.5846,-26.2913,-14.8231,1020.09
59048,3.32377,8.06313,-1.15256,44.59,-77.63,360.85,45.805,-30.0846,-14.1877,1020.07
59054,2.7164,9.1583,-1.31038,48.44,-78.26,363.79,45.282,-32.3051,-14.1729,1020.07
59060,2.56337,9.78001,-1.51124,52.85,-76.65,367.92,42.202,-31.2257,-15.2368,1020.07
59066,2.09469,10.9373,-1.86514,54.18,-76.65,372.4,41.1269,-34.1246,-14.5275,1020.07
59072,1.77905,11.6404,-1.88905,56.35,-78.12,375.34,41.3884,-37.6404,-13.4784,1020.07
59078,1.61645,12.4582,-2.25251,58.87,-77.56,378.42,39.0348,-36.7152,-15.1186,1020.07
59084,1.16691,13.1038,-2.43424,62.72,-79.17,380.73,36.4778,-38.3805,-15.355,1020.07
59090,0.516499,13.955,-2.69249,66.5,-80.85,382.69,37.2333,-42.143,-14.2468,1020.1
59096,0.11956,14.3711,-2.5825,73.99,-82.04,382.9,34.7925,-41.8037,-15.6505,1020.1
59102,-0.176949,15.3324,-2.67336,82.11,-83.44,379.89,32.5551,-41.0019,-16.744,1020.06
59108,-0.353898,16.1502,-2.97944,90.72,-82.6,375.41,31.8287,-45.0419,-17.3498,1020.06
59114,-0.0095648,17.0206,-3.14204,97.58,-82.11,370.23,29.94,-47.9408,-14.6162,1020.09
59120,0.0621712,17.7475,-2.93639,107.1,-80.99,363.79,27.354,-45.8437,-16.5814,1020.09
59126,0.143472,18.6514,-3.01291,115.85,-82.11,357.63,26.0464,-47.9408,-17.3941,1020.11
59132,-0.0860832,19.6891,-3.12291,126.77,-73.5,348.04,24.6517,-50.7164,-13.833,1020.11
59138,-0.583453,20.8991,-2.78814,133.77,-65.94,341.95,22.4143,-49.3286,-14.9856,1020.11
59144,-1.09517,21.2865,-1.6021,154.63,-61.39,331.59,20.4966,-50.0996,-14.9708,1020.13
59150,-0.760402,22.9651,-2.3099,162.68,-53.34,321.09,19.2762,-53.2761,-13.4932,1020.13
59156,-1.31516,24.5194,-2.25729,167.44,-42.91,320.67,18.0267,-52.6902,-12.7544,1020.17
59162,-2.4725,25.6958,-0.401722,180.11,-28.91,318.29,15.4988,-51.4566,-12.9612,1020.17
59168,-3.45289,27.8288,-0.487805,180.25,-13.44,314.16,14.598,-54.8489,-12.3702,1020.16
59174,-5.1363,29.2874,0.186514,179.83,3.64,314.3,12.4188,-56.1442,-9.7843,1020.16
59180,-7.1736,30.0861,1.2769,172.9,19.81,315.91,11.1984,-53.7079,-11.6018,1020.12
59186,-7.55141,29.7848,2.91248,168.77,42.14,319.69,9.89083,-55.034,-9.26712,1020.12
59192,-9.08656,28.6705,6.32712,164.5,66.92,323.54,6.81082,-57.6862,-5.86855,1020.12
59198,-10.33,27.4414,11.8556,151.27,78.61,318.57,5.53232,-55.6816,-7.13932,1020.17
59204,-8.15877,19.4165,21.9464,177.8,100.03,290.85,4.10854,-54.5714,-7.59739,1020.17
59210,-10.9947,25.5571,12.2477,233.8,158.97,264.04,2.56853,-57.347,-4.56823,1020.18
59216,-21.3821,45.715,-10.6791,144.06,178.99,231.7,1.5806,-57.0386,-3.69642,1020.18
59222,-24.7728,49.737,-22.2382,-59.99,182.84,197.19,1.08663,-54.2322,-5.73556,1020.17
59228,-35.7819,33.4864,-18.0392,-238.63,165.9,160.79,-1.6447,-56.1134,-5.55825,1020.17
59234,-40.483,16.4802,-7.55141,-311.43,176.68,118.02,-1.20885,-56.1442,-5.82422,1020.15
59240,-48.6418,-3.56767,6.13104,-298.41,205.03,85.33,-0.976396,-53.8621,-9.8434,1020.15
59246,-51.5877,-14.2994,14.9546,-182.63,188.51,43.33,-2.10961,-54.0163,-11.8234,1020.15
59252,-50.2056,-22.8407,23.9503,47.46,84.42,-3.36,-2.60358,-56.0209,-9.72519,1020.19
59258,-39.737,-12.219,17.2119,218.61,8.19,-65.8,-0.743942,-53.7079,-10.7448,1020.19
59264,-25.1315,5.67671,6.34624,250.11,14.14,-125.44,-0.511488,-52.906,-9.63653,1020.2
59270,-20.373,14.4476,1.04256,210.35,42.98,-177.38,-0.104693,-56.8844,-7.31664,1020.2
59276,6.71449,43.3859,51.8364,427.35,-274.05,-244.3,0.883237,-55.6816,-6.87335,1020.18
59282,38.0057,78.8809,-18.4983,-80.99,121.94,-345.24,3.87608,-53.8621,-6.17886,1020.18
59288,3.41942,32.989,-62.0038,-331.38,-23.31,-318.92,4.71873,-56.7302,-6.32662,1020.15
59294,17.2406,5.4902,-6.82449,-394.31,44.59,-336.7,7.01422,-56.761,-7.92247,1020.15
59300,3.88331,-2.17121,11.5686,-132.65,71.89,-262.85,8.61234,-53.9546,-11.587,1020.15
59306,16.5758,7.12578,0.942133,-116.97,152.88,-288.26,10.2105,-53.677,-11.986,1020.15
59312,3.56289,10.8847,-0.114778,-170.66,163.03,-283.99,11.8376,-56.3601,-9.60698,1020.15
59318,-3.4242,-0.153037,19.7752,-95.13,123.41,-274.4,13.3776,-53.0911,-11.3949,1020.13
59324,-2.34338,-0.0047824,16.4993,-7.84,62.79,-288.47,14.1622,-51.0557,-11.7496,1020.13
59330,-6.46102,15.3898,6.24103,-6.23,102.34,-270.55,16.8935,-55.3732,-10.7743,1020.15
59336,-7.35055,15.3754,-2.81205,-8.33,80.08,-258.72,17.3294,-53.307,-10.5674,1020.15
59342,-9.89957,19.5122,1.31994,-65.94,43.68,-234.22,19.1018,-50.5931,-12.252,1020.14
59348,-9.64132,16.3223,1.74079,-101.01,8.89,-223.72,20.4384,-52.1659,-11.0994,1020.14
59354,-7.51793,13.6298,3.73984,-92.05,-24.29,-198.31,20.9905,-52.906,-10.5674,1020.13
59360,-5.67193,12.6112,4.33764,-74.55,-29.4,-188.93,22.792,-49.1744,-13.0351,1020.13
59366,-3.01291,9.18699,2.11382,-83.02,-50.82,-173.67,23.1407,-49.6987,-12.5475,1020.13
59372,-12.4629,18.2831,2.41511,-52.01,-11.76,-86.1,24.2739,-52.3509,-13.5375,1020.17
59378,-3.89287,5.66714,1.47298,15.4,-19.04,-45.99,24.1287,-49.0819,-12.4293,1020.17
59384,-0.439981,8.67049,-2.34338,44.17,-38.92,-62.16,23.78,-47.9717,-13.7296,1020.16
59390,2.61119,18.7087,-9.12482,-39.76,-16.87,-66.5,23.9834,-51.3024,-12.8873,1020.16
59396,0.353898,17.7953,-7.89096,-98.7,37.59,-37.52,25.0585,-49.6062,-12.6066,1020.2
59402,-2.45815,4.25155,3.72071,-48.3,68.81,-27.44,23.9253,-46.9848,-13.7148,1020.2
59408,-6.07365,5.59063,6.45624,-1.82,9.94,-21.98,25.2328,-50.1305,-12.4588,1020.17
59414,-2.73075,10.2774,2.70206,-10.99,-40.88,-22.89,24.826,-50.7164,-11.9417,1020.17
59420,1.09995,9.42133,-0.903874,-7.21,-19.53,-16.59,25.4943,-47.5091,-12.9317,1020.17
59426,1.09039,10.1004,-1.3582,-7.07,2.94,-15.47,24.7098,-48.7735,-14.0695,1020.16
59432,-0.301291,9.86609,-0.894309,-7.7,8.12,-7.49,24.9422,-50.7781,-13.5966,1020.16
59438,-0.942133,10.1769,-0.296509,-7.28,1.19,-10.08,25.3781,-48.4343,-12.2076,1020.2
59444,-1.16212,9.8087,0.0621712,-8.19,-3.36,-10.71,25.2328,-47.2007,-14.1286,1020.2
59450,0.0573888,9.79436,-0.664754,-1.82,-4.13,-9.73,25.6105,-50.1921,-12.8726,1020.18
59456,0.363462,10.6026,-1.7121,-9.59,3.99,-8.61,25.9302,-49.637,-12.5475,1020.18
59462,0.61693,10.2152,-1.09039,-8.75,1.47,-5.18,24.8841,-47.4474,-14.2911,1020.18
59468,0.334768,10.2009,-1.07126,-11.34,0.7,-11.27,25.6977,-49.6987,-14.0251,1020.18
59474,0.927786,10.0622,-1.33907,-7.14,5.53,-13.3,26.3079,-51.2099,-12.5327,1020.16
59480,-0.406504,11.033,-0.923003,-13.3,2.73,-10.43,25.5234,-47.4474,-13.4636,1020.16
59486,-0.463893,9.61741,0.148254,-13.02,-3.85,-10.78,25.7268,-48.3726,-14.2024,1020.16
59492,0.23912,9.22525,0.157819,-5.88,-3.64,-12.11,25.8139,-50.5005,-12.7987,1020.13
59498,-0.263032,9.96174,0.109995,-2.94,-2.31,-9.45,26.1626,-47.6633,-13.5523,1020.13
59504,-0.0047824,9.55045,-0.0621712,-3.64,-3.78,-10.64,25.9011,-46.5531,-14.2172,1020.19
59510,-0.210426,9.56958,0.071736,1.19,-5.46,-8.75,26.2207,-50.1613,-14.2468,1020.19
59516,0.13869,9.88522,-0.487805,2.8,-6.51,-10.43,26.1917,-48.4034,-14.1286,1020.18
59522,0.0573888,9.9187,-0.506934,2.24,-5.53,-9.59,25.8721,-47.324,-15.355,1020.18
59528,0.13869,9.69871,-0.253467,4.27,-5.11,-11.55,25.843,-48.9894,-13.4193,1020.17
59534,0.124342,9.72262,-0.382592,6.37,-3.57,-11.55,26.6566,-50.3463,-13.375,1020.17
59540,0.071736,9.92826,-0.368245,5.11,-3.57,-10.78,25.8139,-47.3549,-14.2763,1020.17
59546,0.234338,9.76088,-0.363462,5.88,-2.1,-12.18,26.0173,-47.6941,-14.2468,1020.16
59552,0.277379,9.78001,-0.329986,6.65,-0.56,-13.86,26.3079,-50.7781,-12.8135,1020.16
59558,0.0908656,9.93304,-0.224773,6.58,0.98,-13.16,26.0464,-47.7866,-14.0695,1020.17
59564,-0.0430416,9.62697,-0.186514,9.38,1.33,-13.16,26.0173,-46.7381,-14.5866,1020.17
59570,-0.234338,9.89957,-0.583453,10.08,0.7,-14.07,26.4823,-49.9146,-12.8135,1020.19
59576,-0.0765184,10.0574,-0.994739,9.66,-0.77,-14.7,26.4241,-48.681,-13.109,1020.19
59582,-0.095648,10.2487,-1.31516,7.28,0.91,-14.14,25.9011,-47.1082,-13.4341,1020.19
59588,-0.153037,10.1196,-1.34864,4.9,3.01,-13.58,26.4532,-49.0819,-13.2272,1020.19
59594,-0.25825,10.0526,-1.09995,2.1,3.85,-13.51,26.7728,-50.0688,-12.3111,1020.19
59600,-0.267814,9.89479,-0.703013,1.68,4.06,-13.37,25.9011,-47.6016,-13.3011,1020.17
59606,-0.33955,9.90913,-0.688666,0.56,4.2,-12.18,26.9181,-48.095,-14.3059,1020.17
59612,-0.234338,9.96174,-0.703013,-0.77,4.97,-11.97,27.0343,-50.0688,-11.2472,1020.14
59618,0.621712,10.44,-0.789096,-11.2,16.1,-11.55,27.0634,-48.0025,-13.2863,1020.14
59624,-0.73649,9.14395,-0.559541,-8.12,15.54,-10.15,26.4823,-46.5531,-13.7739,1020.17
59630,-0.387374,10.0335,0.0191296,-16.45,14.7,-9.73,27.1796,-49.9454,-12.577,1020.17
59636,-0.449546,9.08656,-0.353898,-9.73,11.27,-9.1,26.9181,-48.8969,-11.3949,1020.18
59642,-0.425634,10.153,-0.0860832,-10.15,12.11,-8.61,26.4823,-45.597,-14.2172,1020.18
59648,-0.392157,9.62697,-0.215208,-9.17,10.85,-8.89,27.0053,-48.9277,-13.1238,1020.2
59654,-0.45911,10.1483,-0.607365,-10.78,10.78,-8.61,28.1385,-49.3286,-12.8135,1020.2
59660,-0.894309,10.067,-0.650406,-11.97,6.16,-8.82,27.0343,-46.1521,-13.8774,1020.2
59666,-0.463893,10.6026,-0.61693,-14.98,2.24,-10.01,27.1796,-47.2315,-13.8921,1020.2
59672,-0.746054,10.2917,-0.875179,-15.54,-2.73,-10.29,28.0513,-50.1305,-13.109,1020.2
59678,-0.731707,10.3635,-1.07604,-20.16,-6.3,-12.32,27.4411,-47.3857,-13.9512,1020.14
59684,-0.172166,10.1674,-1.01865,-22.33,-5.95,-13.37,26.7147,-46.0288,-13.7,1020.14
59690,0.263032,10.2726,0.047824,-21,-3.22,-15.82,27.5574,-49.1744,-14.1286,1020.18
59696,0.133907,10.0574,0.683883,-17.08,-4.55,-19.04,28.1385,-48.095,-13.2863,1020.18
59702,1.85557,10.7939,2.22382,-9.17,-2.1,-27.65,27.354,-45.5045,-14.8378,1020.17
59708,1.033,10.2774,1.28647,-0.98,0.77,-34.37,27.1796,-47.6324,-14.7492,1020.17
59714,-0.13869,9.96652,-0.425634,-0.63,2.38,-34.86,28.4291,-48.9894,-13.109,1020.17
59720,-0.282162,10.3491,0.133907,-0.98,-0.91,-37.24,28.1094,-45.9671,-14.498,1020.15
59726,0.401722,10.5356,0.746054,1.68,-0.14,-41.37,28.4291,-47.324,-15.0151,1020.15
59732,0.506934,10.6456,0.602582,5.53,0.84,-46.06,29.9109,-48.2184,-13.0647,1020.18
59738,0.483022,10.856,0.45911,7.84,2.45,-50.12,29.6204,-46.4297,-13.9512,1020.18
59744,0.392157,11.2912,0.167384,7.56,4.62,-55.3,28.7487,-44.2709,-14.9708,1020.16
59750,0.21999,11.3391,0.129125,7.84,4.41,-60.13,29.0974,-47.3549,-11.454,1020.16
59756,0.176949,11.186,0.124342,9.38,3.78,-64.96,29.8238,-46.5222,-14.0695,1020.18
59762,0.181731,11.2673,-0.0191296,12.81,2.52,-70.28,29.7657,-44.0242,-14.4241,1020.18
59768,0.0669536,11.7264,-0.679101,12.46,1.96,-75.6,30.2306,-46.1213,-14.1138,1020.18
59774,0.0095648,11.9512,-0.999522,9.03,1.12,-80.64,31.0151,-47.1698,-12.1781,1020.17
59780,-0.248685,12.023,-0.492587,7.35,-0.28,-85.61,31.2766,-44.5793,-13.508,1020.17
59786,-0.114778,12.0899,-0.11956,6.16,-2.45,-90.51,31.5381,-43.7466,-13.2863,1020.18
59792,-0.23912,11.8795,-0.349115,8.61,-5.11,-96.6,32.2064,-46.368,-13.7739,1020.18
59798,-0.229555,12.0277,-0.0573888,10.64,-9.38,-103.18,32.8457,-43.8392,-13.4932,1020.17
59804,-0.176949,12.1856,0.37781,13.51,-10.78,-110.32,32.8747,-42.7598,-14.099,1020.17
59810,-0.310856,12.1808,0.363462,16.24,-11.76,-114.94,33.1653,-44.641,-12.7987,1020.13
59816,-0.248685,11.9512,0.569106,17.01,-15.26,-120.12,34.8797,-44.3634,-12.2076,1020.13
59822,-0.0191296,11.8986,1.0043,22.26,-16.17,-125.58,34.008,-41.4028,-13.8774,1020.16
59828,-0.186514,11.693,0.569106,26.74,-16.17,-130.62,34.0951,-43.0373,-14.0547,1020.16
59834,-0.392157,12.3673,0.23912,34.93,-18.55,-135.31,35.6351,-44.055,-12.2372,1020.16
59840,-0.483022,13.5772,-0.674318,33.67,-27.58,-142.59,35.1993,-40.786,-13.3159,1020.17
59846,-0.306074,13.9407,-1.05691,32.06,-31.43,-149.94,35.6351,-40.4468,-14.1138,1020.17
59852,0.105213,13.6824,-0.85605,33.95,-34.93,-161.98,37.4948,-42.7906,-11.587,1020.17
59858,0.315638,14.1607,-0.439981,40.81,-39.41,-174.72,37.3204,-40.6318,-12.2667,1020.17
59864,1.98948,16.0593,-1.53993,32.55,-26.88,-189.91,37.2914,-38.9048,-13.6557,1020.17
59870,1.20038,17.7188,-3.00813,33.6,-29.47,-208.11,39.2382,-39.9842,-11.7791,1020.17
59876,0.215208,18.2783,-4.88761,22.33,-36.75,-225.61,40.662,-39.7683,-11.6905,1020.14
59882,-0.282162,19.2587,-6.94883,8.68,-43.68,-245,39.4997,-35.4507,-13.2272,1020.14
59888,-0.023912,19.5839,-6.80536,-9.52,-57.26,-262.99,41.0687,-36.6843,-12.6214,1020.14
59894,1.65949,19.3209,-4.87805,-16.8,-64.4,-282.1,42.8122,-36.1292,-12.0008,1020.14
59900,2.58728,20.4639,-3.5055,-19.6,-64.54,-307.79,42.1438,-32.5826,-14.1433,1020.14
59906,2.57293,23.955,-2.59206,-12.95,-59.15,-329.91,42.754,-31.3182,-13.5523,1020.16
59912,2.45815,23.8929,-3.93592,-21.35,-64.26,-360.5,45.2529,-32.3051,-13.4932,1020.16
59918,-0.0191296,20.8369,-1.57819,-2.38,-75.39,-386.33,45.5435,-28.5118,-14.8378,1020.14
59924,0.889526,19.7178,-4.70588,20.37,-83.09,-412.44,44.9042,-26.2297,-15.0004,1020.14
59930,-1.37255,22.5873,-4.65328,34.37,-92.68,-427.14,47.5194,-26.2913,-14.0104,1020.14
59936,-0.803443,28.3453,-4.84457,21,-94.01,-440.58,49.4662,-24.1017,-13.8626,1020.14
59942,2.94118,30.6743,-4.74892,-21,-105.56,-451.01,47.0544,-19.229,-15.5028,1020.14
59948,0.392157,26.2171,-3.33333,-9.1,-83.86,-446.67,49.1756,-18.7973,-14.9117,1020.12
59954,-1.33429,24.6054,1.07604,8.96,-111.86,-453.32,50.7447,-17.5637,-14.7048,1020.12
59960,2.65423,24.902,-4.25634,15.82,-110.95,-464.94,48.7397,-13.6162,-16.6701,1020.11
59966,2.31946,24.7202,-9.0483,24.5,-112.7,-469.42,48.9431,-11.5499,-17.1725,1020.11
59972,0.49737,23.8737,-9.5935,22.26,-129.64,-462.84,51.6164,-10.5631,-16.4928,1020.13
59978,2.19034,23.4672,-8.63223,7.98,-156.24,-452.83,49.902,-6.52306,-17.468,1020.13
59984,6.58058,20.9373,-7.50837,-5.6,-187.32,-438.62,48.5073,-3.68581,-21.0882,1020.13
59990,13.5581,17.2453,-13.0894,-64.68,-191.66,-408.38,51.0933,-1.8971,-19.7879,1020.13
59996,16.8723,11.9273,-12.8264,-144.48,-154,-393.33,50.3379,-0.416794,-20.3938,1020.11
60002,4.39981,-2.42946,-6.62841,-142.52,-78.68,-302.12,46.7058,2.66718,-21.3394,1020.11
60008,0.310856,-0.047824,7.2549,-76.93,-20.93,-162.26,48.5363,3.71573,-21.5611,1020.11
60014,3.12769,5.47585,3.3955,-46.76,-12.67,-78.54,50.1926,4.54841,-19.9209,1020.11
60020,5.99713,7.07795,0.918221,-20.72,21.91,-8.75,46.822,4.57924,-22.492,1020.11
60026,6.64754,6.09278,0.5978,8.19,48.16,53.97,46.3861,5.41192,-22.8023,1020.13
60032,8.95744,5.62888,-2.2812,21,75.39,98.98,50.1345,3.56153,-20.1426,1020.13
60038,9.14873,6.05452,-3.06074,21.42,94.99,125.02,48.7979,3.49985,-21.8566,1020.12
60044,8.6944,6.59493,-3.27594,19.67,109.83,134.96,47.0835,3.31482,-20.9257,1020.12
60050,7.47489,7.23577,-3.5868,14.14,117.6,136.36,50.8028,2.11207,-18.6058,1020.15
60056,5.41846,5.89192,-3.11334,1.75,120.26,138.32,50.5122,1.68031,-18.9457,1020.15
60062,5.76757,5.09804,-3.5055,7.42,117.04,134.19,48.0714,1.61863,-18.5615,1020.15
60068,3.93592,3.63462,-2.30512,5.04,112.21,129.57,50.4541,-0.170076,-16.5667,1020.13
60074,3.32377,2.86466,-2.02296,6.44,102.13,137.55,51.442,-1.34199,-15.4141,1020.13
60080,3.31899,2.17599,-2.71162,7.07,96.67,145.32,48.9722,-1.28031,-15.3698,1020.15
60086,2.86466,2.05165,-2.5012,10.57,92.26,150.57,49.0594,-1.7429,-16.478,1020.15
60092,1.49689,2.78814,-2.08513,11.83,81.48,164.22,52.2847,-3.34657,-13.5375,1020.11
60098,1.04256,3.02726,-2.15686,10.64,71.75,184.03,50.7156,-4.08672,-14.3354,1020.11
60104,0.769966,3.28551,-2.19034,12.18,63.49,203.42,49.902,-4.4568,-13.7148,1020.1
60110,0.612147,3.70158,-2.19034,10.5,52.78,224.91,52.3137,-6.95482,-12.4736,1020.1
60116,0.664754,4.03635,-1.98948,11.06,40.18,247.87,52.5752,-8.18841,-13.6409,1020.09
60122,0.798661,3.81636,-1.35342,11.27,45.78,271.32,49.7567,-8.28093,-14.0695,1020.09
60128,1.3869,3.3955,-0.71736,14.84,29.05,291.06,51.0352,-11.0257,-13.7444,1020.09
60134,1.49211,3.86896,-0.153037,22.4,16.59,308.91,52.953,-13.277,-12.2815,1020.09
60140,2.18556,3.6968,0.315638,31.85,10.78,319.62,50.0182,-13.1844,-13.5523,1020.09
60146,2.68293,4.51937,0.430416,42.14,7.35,329.07,49.3499,-15.8675,-14.2763,1020.08
60152,2.93161,5.22238,0.61693,47.46,4.34,335.44,51.0643,-19.1057,-13.2124,1020.08
60158,3.16117,6.53276,0.291726,51.38,3.22,339.99,49.0013,-19.4758,-12.8578,1020.09
60164,2.96509,7.42229,0.215208,50.4,2.94,343,47.1997,-20.0309,-14.5275,1020.09
60170,3.12291,8.75657,0.282162,45.71,5.04,346.43,48.856,-24.2559,-13.833,1020.08
60176,3.13247,9.40698,0.564323,41.3,7.49,347.97,48.1877,-25.4278,-11.6757,1020.08
60182,3.31899,10.2917,0.669536,36.54,11.41,348.39,45.805,-24.9652,-13.8478,1020.08
60188,3.03682,11.1765,0.659971,29.61,15.82,350,45.1948,-28.2959,-13.4193,1020.07
60194,2.71162,11.889,0.664754,23.66,19.32,351.33,47.0544,-31.3182,-12.7396,1020.07
60200,2.45337,12.2477,0.674318,21.49,22.68,353.78,43.8873,-30.393,-12.2963,1020.08
60206,1.48254,12.946,0.506934,17.71,22.89,357.77,42.4635,-32.4284,-13.8183,1020.08
60212,0.961262,13.0846,0.483022,20.72,23.45,362.39,43.0737,-36.8385,-11.6018,1020.04
60218,-0.109995,13.6011,0.612147,24.01,20.02,368.83,40.662,-36.2217,-14.4241,1020.04
60224,-0.396939,13.9072,0.406504,30.1,17.92,376.53,38.3084,-36.6227,-14.6753,1020.07
60230,-0.875179,14.5002,0.47824,39.06,18.27,383.53,38.657,-40.4159,-13.7739,1020.07
60236,-0.774749,15.6671,-0.114778,41.93,3.99,385.28,37.0299,-41.7421,-12.1781,1020.07
60242,-0.353898,16.901,-0.889526,49.91,2.52,381.15,34.9087,-40.8477,-12.6361,1020.06
60248,-0.5978,17.9388,-1.12386,51.45,1.4,376.88,33.8336,-43.7775,-11.8825,1020.06
60254,-1.00909,19.3113,-1.2769,54.46,-4.9,370.51,33.2234,-46.9848,-11.129,1020.08
60260,-1.05691,19.8422,-1.22429,54.67,-10.92,359.38,30.3759,-44.9802,-11.6166,1020.08
60266,-1.42516,21.5973,-1.34385,63.7,-13.72,349.79,27.9932,-46.5839,-12.8726,1020.07
60272,-1.64036,23.6442,-1.4682,67.69,-14.84,339.85,27.9932,-50.0379,-10.1242,1020.07
60278,-2.2812,25.5428,-1.84601,65.59,-15.82,335.65,25.9302,-49.2053,-10.5674,1020.13
60284,-2.67814,26.638,-0.85605,66.5,-10.57,340.06,24.3611,-47.91,-11.7643,1020.13
60290,-3.26638,27.0827,0.215208,69.37,0.07,350,23.1698,-51.9809,-10.5379,1020.11
60296,-3.5868,27.4462,0.392157,71.33,14.84,359.24,21.6007,-52.9986,-9.72519,1020.11
60302,-4.47633,27.4797,1.15256,71.47,30.45,367.78,19.3633,-50.5931,-10.464,1020.11
60308,-6.92013,27.6853,2.76901,74.9,42.28,371.49,17.0388,-53.0911,-10.6266,1020.11
60314,-9.09134,28.3357,3.2329,80.71,51.66,369.74,15.7312,-56.0825,-8.88294,1020.11
60320,-13.1899,29.6604,3.30464,80.64,59.08,364.42,14.1041,-53.2453,-8.74995,1020.1
60326,-15.8297,30.6026,2.43902,75.67,65.38,354.13,11.6342,-53.307,-10.5822,1020.1
60332,-19.6126,32.2955,-0.851267,50.05,69.02,339.08,9.77461,-56.6068,-8.35099,1020.17
60338,-21.693,32.2955,-3.71592,12.32,71.54,317.31,8.46705,-55.4349,-8.29188,1020.17
60344,-25.1937,31.0904,-9.34959,-43.96,64.68,289.38,7.82781,-54.6947,-11.72,1020.14
60350,-28.1396,28.4027,-13.6968,-105.84,54.39,263.34,5.53232,-55.805,-8.55786,1020.14
60356,-34.1272,19.2683,-13.4672,-158.13,33.95,229.74,4.34099,-56.1134,-9.41489,1020.14
60362,-37.0253,11.1669,-9.31133,-182.07,24.57,194.74,3.75986,-53.2144,-11.6018,1020.13
60368,-41.2625,-3.18508,2.05165,-138.81,23.73,157.78,2.42325,-54.4172,-12.0894,1020.13
60374,-45.1841,-8.94787,9.13438,-45.29,-9.66,121.38,0.767009,-56.7919,-11.3358,1020.14
60380,-48.9766,-10.3969,12.9555,101.57,-78.89,88.48,1.5806,-53.6154,-12.0451,1020.14
60386,-44.3998,-2.19034,8.59876,196.21,-120.33,42.63,0.854181,-53.3686,-11.7939,1020.14
60392,-33.9837,11.2004,3.16117,193.55,-108.29,-31.92,0.185875,-56.3601,-9.45922,1020.14
60398,-27.6471,17.867,-0.215208,190.05,-53.55,-85.12,0.970406,-54.9106,-10.3606,1020.17
60404,9.32568,74.7489,33.4003,175.21,9.45,-355.53,2.24891,-53.5537,-9.34101,1020.17
60410,-34.9259,34.7872,-24.022,-167.65,-30.03,-320.67,3.38212,-56.1442,-8.08501,1020.17
60416,0.124342,15.3563,-25.7771,-346.99,-209.58,-307.23,5.35798,-56.6377,-9.90251,1020.19
60422,22.0516,4.72501,6.35581,-395.78,-157.85,-298.48,6.72365,-53.7696,-12.577,1020.19
60428,20.1722,-11.6786,9.71305,-124.81,43.75,-315.7,8.35083,-54.7564,-14.0399,1020.13
60434,16.858,-9.67001,7.94357,7.84,138.32,-308.35,10.5301,-56.2059,-12.2815,1020.13
60440,3.80679,5.42324,5.58584,104.79,171.29,-302.54,12.2735,-53.677,-12.3554,1020.13
60446,-6.46581,14.6055,4.64371,94.78,130.13,-268.17,14.1622,-54.5405,-14.9708,1020.13
60452,-5.38498,17.4271,4.25155,46.97,58.52,-312.55,15.1792,-55.3424,-9.59221,1020.18
60458,-10.6456,24.6102,-6.27929,-23.8,86.8,-280.21,16.6611,-54.4789,-9.50355,1020.18
60464,-8.40746,18.4457,-2.29555,-117.18,45.43,-278.32,17.9396,-51.8575,-12.9169,1020.15
60470,-12.9029,14.2229,4.91631,-126.56,5.46,-250.81,19.4215,-53.7079,-10.6118,1020.15
60476,-13.1612,13.8307,6.22669,-65.38,-44.38,-209.65,20.4966,-53.5537,-10.5083,1020.15
60482,-7.58967,15.4567,1.06169,-67.41,-107.03,-178.5,21.0486,-49.6987,-12.6657,1020.17
60488,-6.59971,19.5744,-4.02678,-94.99,-89.46,-130.97,21.4554,-51.0557,-13.8774,1020.17
60494,2.10904,12.5251,-9.21568,-87.71,2.94,-95.06,22.6177,-52.3201,-12.4884,1020.18
60500,0.593018,9.34959,-5.19847,-40.95,76.86,-63,23.5185,-49.2053,-14.1729,1020.18
60506,-3.64897,10.4735,1.77905,-37.59,45.08,-64.33,23.4603,-49.1128,-14.1877,1020.14
60512,-5.32281,12.5968,0.0286944,-51.94,3.22,-63.21,23.6347,-51.3641,-13.0056,1020.14
60518,-3.52463,10.2965,1.33907,-57.82,-27.09,-46.69,23.8381,-49.9454,-13.7444,1020.18
60524,0.248685,6.42755,0.588235,-19.18,-8.4,-33.39,22.7339,-48.1876,-14.631,1020.18
60530,-0.554758,9.62219,-0.133907,-3.78,9.31,-26.81,23.78,-50.6547,-13.5818,1020.18
60536,-1.58776,11.3725,0.0621712,-27.23,-0.21,-27.72,24.2739,-50.2847,-14.5866,1020.15
60542,-1.76949,9.56958,0.674318,-21.7,-2.17,-19.11,24.2449,-47.2624,-15.7392,1020.15
60548,-1.24821,8.97657,0.655189,-6.72,-3.29,-15.54,24.5354,-48.4651,-14.7344,1020.13
60554,-1.45863,9.78957,0.530846,-4.13,-8.05,-6.58,24.9132,-50.7473,-14.4832,1020.13
60560,0.224773,9.43568,0.0669536,-8.75,-10.36,-5.53,24.7679,-48.7118,-14.6753,1020.15
60566,0.13869,9.63654,-0.109995,-1.68,-1.89,-6.09,23.9834,-48.1567,-15.6801,1020.15
60572,-0.334768,10.2056,-0.640842,-4.41,1.89,-3.29,24.6807,-50.7781,-14.4832,1020.18
60578,0.0813008,11.3773,-1.81253,-7.14,-0.14,-4.34,25.4362,-50.0996,-14.6605,1020.18
60584,0.205643,10.2343,-0.85605,-8.68,-1.47,-6.37,24.3902,-47.2007,-16.2711,1020.18
60590,0.516499,9.7274,-0.83692,-7.28,1.54,-10.92,25.4072,-50.7781,-14.5866,1020.18
60596,0.277379,9.43089,-0.210426,-7.21,0.98,-10.22,25.0294,-50.9631,-13.8035,1020.18
60602,-0.263032,10.0526,-0.406504,-6.16,-0.14,-8.96,23.9543,-47.324,-15.9904,1020.16
60608,-0.205643,9.70827,-0.0860832,-3.99,-1.89,-8.82,24.2449,-48.2801,-15.222,1020.16
60614,-0.282162,9.61741,-0.124342,-1.68,-3.71,-8.75,24.4483,-51.1173,-13.7,1020.18
60620,0.0382592,9.78957,-0.224773,2.52,-5.11,-8.19,25.0294,-49.1744,-15.1629,1020.18
60626,0.0669536,9.81827,-0.334768,3.36,-6.44,-7.98,25.0004,-47.6941,-15.887,1020.18
60632,-0.0286944,9.77044,-0.25825,5.53,-6.37,-7.21,25.2619,-50.7473,-13.7444,1020.18
60638,0.157819,9.53132,-0.0860832,8.33,-6.65,-7.56,25.1166,-49.5753,-13.1533,1020.17
60644,0.248685,10.067,-0.726925,9.24,-5.32,-9.8,24.2739,-47.2007,-15.1629,1020.17
60650,0.243902,10.0048,-0.712578,7.7,-4.69,-8.96,24.7679,-50.0071,-16.5962,1020.17
60656,0.229555,9.7561,-0.516499,8.4,-3.85,-9.52,25.6977,-51.0865,-13.4636,1020.16
60662,0.143472,9.89479,-0.554758,8.61,-3.57,-10.5,24.9713,-47.6633,-15.4732,1020.16
60668,0.162602,9.97609,-0.71736,7.98,-2.03,-10.36,25.349,-49.2669,-15.6505,1020.16
60674,0.272597,9.92348,-0.674318,8.19,-0.56,-11.76,25.7849,-50.7164,-13.9069,1020.16
60680,0.124342,10.0909,-0.798661,8.12,0.98,-11.69,24.9132,-48.7118,-14.3354,1020.17
60686,0.129125,10.0096,-0.793878,6.51,2.73,-12.32,24.826,-46.8923,-15.9017,1020.17
60692,-0.0191296,9.9713,-0.722142,5.67,3.43,-12.11,25.7268,-50.994,-14.1138,1020.16
60698,-0.0143472,9.87087,-0.712578,5.18,3.22,-12.67,26.1045,-49.1436,-14.7048,1020.16
60704,-0.172166,9.96652,-0.932568,3.71,3.08,-11.97,25.2619,-46.3372,-15.3993,1020.16
60710,-0.11956,9.89,-0.793878,2.59,4.06,-11.9,25.4943,-49.5137,-13.833,1020.17
60716,-0.0430416,9.90435,-0.722142,1.4,5.95,-11.76,26.5404,-49.6062,-13.1533,1020.17
60722,-0.25825,9.78001,-0.549976,0.28,7.21,-10.85,25.6396,-46.9231,-14.5571,1020.17
60728,-0.267814,9.72262,-0.492587,0.21,7.7,-10.36,25.2909,-48.3109,-15.7392,1020.17
60734,-0.200861,9.6748,-0.636059,-0.63,9.03,-9.87,26.4823,-51.179,-14.0695,1020.17
60740,-0.215208,9.64132,-0.5978,0.07,8.61,-9.59,26.1336,-47.6633,-14.0399,1020.17
60746,-0.25825,9.92348,-0.564323,-1.26,9.24,-9.24,25.1166,-47.1698,-15.8426,1020.17
60752,-0.310856,9.7274,-0.703013,-1.4,9.24,-9.52,25.5815,-50.1305,-15.8426,1020.17
60758,-0.215208,9.92826,-0.521282,-5.04,9.73,-7.49,25.9011,-49.7295,-15.5323,1020.17
60764,-0.267814,9.86131,-0.803443,-6.37,10.71,-8.26,26.0173,-46.5839,-15.6505,1020.16
60770,-0.468675,9.83261,-0.401722,-5.81,8.75,-8.33,26.4823,-48.681,-13.508,1020.16
60776,-0.306074,9.70827,-0.191296,-3.99,6.16,-9.03,26.9472,-50.0071,-13.1238,1020.14
60782,-0.0860832,9.86609,-0.650406,-5.39,6.93,-9.24,26.2789,-46.954,-15.621,1020.14
60788,-0.0813008,9.99522,-0.765184,-7.63,9.94,-8.61,26.4532,-47.6633,-13.8035,1020.14
60794,-0.23912,9.90435,-0.760402,-7.91,9.8,-10.29,26.1917,-50.408,-13.7296,1020.14
60800,-0.435198,9.88044,-0.726925,-8.61,8.89,-9.94,26.5985,-47.0157,-15.0742,1020.19
60806,-0.454328,10.2487,-0.334768,-7.91,6.02,-10.29,25.9302,-46.6147,-15.6358,1020.19
60812,-0.803443,11.3439,-0.803443,-11.9,-3.64,-12.04,26.889,-49.5137,-14.1138,1020.16
60818,-0.191296,10.6456,-1.49689,-20.37,-6.3,-12.88,26.1336,-48.6193,-14.4389,1020.16
60824,-0.229555,9.95696,-0.286944,-21,-4.13,-13.3,26.1336,-46.3063,-15.5914,1020.16
60830,-0.487805,10,0.109995,-20.51,-7.56,-14.07,26.889,-48.7735,-14.1286,1020.14
60836,-0.607365,9.65088,-0.951698,-22.82,-7.91,-13.23,27.2087,-48.681,-13.9512,1020.14
60842,-0.49737,9.62697,-0.224773,-22.54,-9.66,-13.44,27.0053,-45.9054,-16.9361,1020.14
60848,-0.25825,9.82305,-0.205643,-21.07,-11.9,-14.28,26.6566,-47.139,-15.7687,1020.14
60854,-0.382592,9.99043,-0.636059,-21.42,-12.32,-14.14,27.2377,-49.0511,-15.4289,1020.18
60860,-0.277379,10.2152,-0.306074,-22.26,-13.79,-16.17,26.6566,-45.8129,-15.3107,1020.18
60866,0.0621712,10.2248,-0.10043,-21.14,-14.35,-17.85,26.5113,-45.0727,-15.3993,1020.18
60872,1.3582,11.1669,0.344333,-24.71,-7.77,-21.7,27.0343,-48.1259,-15.3993,1020.18
60878,2.83596,10.9469,2.96509,-7.07,-1.68,-36.96,27.1215,-46.6456,-15.6949,1020.18
60884,1.20995,11.1573,1.16691,8.19,0.14,-46.41,27.1215,-43.9625,-16.3155,1020.16
60890,0.750837,11.5304,-1.25299,0.91,7.56,-49.35,27.2668,-46.8923,-14.6014,1020.16
60896,-0.11956,11.5447,-0.0143472,-3.08,3.78,-53.62,28.2257,-48.095,-14.9265,1020.14
60902,0.21999,11.1526,0.985174,3.5,-1.89,-60.62,27.6445,-45.3195,-17.4089,1020.14
60908,0.588235,11.0187,0.425634,6.65,0,-64.68,28.2547,-45.3811,-16.4632,1020.14
60914,0.387374,11.3104,0.167384,7.98,2.52,-68.6,28.7777,-47.6016,-14.6605,1020.14
60920,0.248685,11.2052,0.344333,10.57,1.19,-74.76,28.3709,-45.2886,-15.5766,1020.15
60926,0.210426,11.3056,0.373027,13.65,-1.19,-79.17,29.3298,-44.1476,-16.5519,1020.15
60932,0.0191296,11.3391,0.416069,16.38,-2.87,-82.74,30.2015,-47.139,-15.3107,1020.15
60938,-0.023912,11.4395,0.554758,19.18,-5.18,-89.32,30.1434,-46.0596,-14.7787,1020.16
60944,0.205643,11.5447,0.645624,22.89,-5.67,-95.34,29.7366,-42.8214,-15.0742,1020.16
60950,0.0908656,11.6308,0.879962,26.11,-4.9,-101.71,31.1023,-44.8877,-15.1629,1020.15
60956,-0.545194,12.4199,0.803443,30.45,-8.47,-107.24,31.7996,-45.2886,-12.3997,1020.15
60962,-0.0382592,11.2578,0.540411,32.62,-14.42,-113.82,31.5381,-42.6672,-14.3798,1020.16
60968,0.0095648,11.4969,0.0191296,39.69,-13.02,-117.18,32.1483,-44.1476,-14.6901,1020.16
60974,-0.69823,12.439,-0.473458,43.82,-16.31,-122.85,32.7585,-45.5353,-14.5571,1020.17
60980,-0.913438,13.4194,-1.14778,45.85,-25.41,-128.24,32.6423,-43.099,-13.8921,1020.17
60986,-0.401722,14.2516,-1.43472,40.6,-37.03,-135.59,32.7004,-41.4028,-15.8574,1020.17
60992,0.621712,14.5672,-1.02822,36.54,-34.37,-146.58,34.6472,-44.1784,-14.0104,1020.17
60998,1.04256,14.7872,-1.56863,29.12,-27.86,-158.48,35.2574,-43.2224,-13.8183,1020.17
61004,1.75036,15.9923,-1.42994,27.72,-26.6,-173.18,34.0951,-39.1207,-15.2072,1020.18
61010,1.1956,14.9641,-0.95648,26.18,-30.73,-189.63,36.3616,-42.0196,-14.1433,1020.18
61016,1.19082,15.2272,-1.29603,30.8,-31.78,-204.19,37.8434,-42.1738,-13.6557,1020.15
61022,0.865614,17.4366,-3.62984,29.89,-32.97,-224.42,37.1461,-38.0721,-14.5719,1020.15
61028,0.69823,19.4022,-4.88283,15.33,-43.54,-244.65,37.117,-38.6889,-13.1533,1020.2
61034,0.61693,19.4213,-6.68101,0,-53.55,-263.9,39.9646,-40.3234,-12.577,1020.2
61040,1.4395,19.5935,-5.42324,-5.88,-58.17,-282.94,40.1389,-35.6049,-13.8478,1020.16
61046,3.65375,20.0717,-2.28599,-12.11,-68.95,-307.09,39.8193,-34.6797,-13.9512,1020.16
61052,5.54758,20.1339,-1.68819,-6.86,-56.56,-333.9,42.8412,-36.0675,-14.3354,1020.16
61058,0.411286,25.1889,-0.741272,13.3,-44.17,-357.07,43.1899,-33.9396,-13.1681,1020.15
61064,1.29603,24.9976,-1.37255,10.57,-63.56,-388.85,42.1438,-29.9304,-14.8378,1020.15
61070,2.26686,19.8804,-4.23721,17.29,-72.45,-414.54,44.6718,-30.3005,-15.4584,1020.14
61076,2.41033,21.1669,-4.6198,25.69,-69.86,-434.98,46.5605,-28.7894,-13.8478,1020.14
61082,0.989957,26.3749,-1.75992,14.07,-79.45,-454.65,45.7469,-24.8419,-15.6062,1020.15
61088,1.35342,25.6767,-3.79723,9.38,-67.06,-468.16,46.3571,-22.8064,-16.0199,1020.15
61094,-5.28455,26.5375,0.10043,42.14,-59.78,-464.03,49.3499,-22.4055,-15.1334,1020.12
61100,-1.75992,28.1253,-4.22286,27.16,-109.06,-469.28,48.6235,-19.2907,-16.1529,1020.12
61106,3.90244,25.7867,-7.61836,3.71,-91.07,-465.92,47.7228,-15.5899,-17.0395,1020.15
61112,1.4682,26.1263,-5.35151,16.45,-78.12,-466.2,50.6865,-14.4489,-16.6405,1020.15
61118,0.841702,29.0722,-6.64275,4.27,-100.1,-469.14,50.6284,-12.2593,-16.1382,1020.15
61124,3.61549,27.5514,-10.8704,-32.13,-118.93,-465.43,48.1295,-8.06505,-17.2759,1020.13
61130,7.20708,21.8651,-9.04352,-62.3,-139.65,-452.48,51.2386,-6.58474,-17.8079,1020.13
61136,11.2721,13.2951,-9.72262,-80.43,-147.21,-419.58,51.7907,-4.7652,-17.6749,1020.13
61142,13.0894,9.56002,-13.0225,-120.61,-142.38,-382.41,47.868,-0.91023,-19.389,1020.13
61148,7.61358,-0.569106,-14.022,-183.89,-100.45,-342.51,47.9261,0.878476,-20.6154,1020.12
61154,-2.30033,-5.56193,-3.4768,-130.76,-39.69,-199.5,50.5994,2.7597,-20.1278,1020.12
61160,-1.05213,-2.2286,11.0904,-52.08,-54.6,-93.17,48.1877,4.27085,-18.5763,1020.11
61166,3.84983,0.961262,5.21282,5.46,-27.65,-14.98,46.5895,4.05497,-20.7927,1020.11
61172,4.39024,4.6198,1.18604,53.69,-4.41,55.51,49.7858,3.99329,-20.6893,1020.11
61178,6.21712,5.92539,-2.12817,58.66,10.99,109.69,49.379,3.56153,-19.1082,1020.13
61184,9.14873,5.56671,-3.45289,60.48,31.22,144.76,46.1827,2.57466,-20.9996,1020.13
61190,9.62219,5.82975,-3.15638,59.78,45.08,157.71,47.9552,0.909315,-21.0882,1020.11
61196,9.39742,7.80966,-4.32807,50.33,60.13,159.32,50.3379,0.200001,-19.5367,1020.11
61202,8.30225,8.044,-4.32807,32.48,70.21,155.54,47.6937,0.940155,-19.4628,1020.12
61208,6.51363,7.14491,-3.20421,21.56,71.68,149.94,48.2748,-0.663512,-19.123,1020.12
61214,5.8967,5.8967,-2.80727,11.97,72.59,146.02,50.6865,-2.39054,-17.4976,1020.12
61220,5.34194,3.95026,-2.52511,7.28,74.41,146.51,48.7107,-1.61954,-17.0838,1020.12
61226,4.60545,3.08943,-2.35772,1.96,74.55,150.64,47.1416,-2.69894,-17.2316,1020.12
61232,4.24199,2.67336,-2.32903,-0.28,74.97,159.04,51.2967,-4.67268,-16.7144,1020.11
61238,3.51506,2.93639,-2.08991,-2.24,73.64,169.89,50.0182,-5.22779,-16.4337,1020.11
61244,2.38642,2.76423,-1.76949,-3.22,67.34,181.09,48.4492,-4.70352,-17.5567,1020.11
61250,2.45337,3.11812,-2.06121,-2.24,67.97,195.93,50.7156,-7.97253,-15.9608,1020.11
61256,2.08513,3.83548,-1.956,-4.76,64.4,215.88,51.9941,-8.62017,-15.1777,1020.1
61262,1.4682,4.22286,-2.0373,-5.95,55.93,233.45,48.856,-8.58933,-15.7983,1020.1
61268,1.47298,4.06026,-2.40555,-8.33,50.54,249.97,48.5654,-10.1005,-16.3746,1020.1
61274,1.10952,4.51937,-2.41033,-9.52,46.76,268.8,51.1805,-12.3209,-14.5275,1020.1
61280,1.01387,4.4572,-2.066,-8.26,37.94,285.74,49.6986,-13.647,-15.0447,1020.08
61286,1.14299,4.2946,-1.98948,-3.5,29.47,300.02,47.7518,-14.1405,-16.0052,1020.08
61292,1.20038,4.36155,-1.69775,3.15,23.03,311.71,49.873,-17.9029,-14.5423,1020.08
61298,1.57819,4.93065,-1.77905,8.61,16.17,320.67,50.2507,-19.2599,-13.4193,1020.08
61304,1.75992,5.16977,-1.64515,15.61,11.41,328.3,47.5484,-18.3347,-14.9708,1020.08
61310,1.99426,5.94931,-1.53515,19.81,5.95,334.74,48.1005,-22.5289,-15.7096,1020.06
61316,2.4725,6.27929,-1.50646,24.22,4.55,340.34,48.3911,-24.2251,-13.4341,1020.06
61322,2.94596,7.05882,-1.19082,29.75,5.11,344.89,45.6307,-24.3176,-14.7492,1020.04
61328,3.10378,8.13008,-1.40603,31.22,6.65,348.88,45.0786,-25.5203,-16.6405,1020.04
61334,3.5055,9.38307,-1.66428,31.78,9.73,351.82,45.9503,-30.0229,-13.8478,1020.07
61340,3.35724,10.1483,-1.5208,31.99,13.23,355.81,43.8873,-29.9304,-13.6853,1020.07
61346,3.14204,11.1,-1.62123,31.22,16.45,358.82,41.4465,-30.7014,-14.7935,1020.07
61352,2.96509,11.693,-1.65949,31.01,21.49,362.53,43.0156,-34.8031,-13.8921,1020.1
61358,2.43902,12.3051,-1.37255,33.11,23.52,364.84,42.1148,-35.7591,-13.9217,1020.1
61364,1.91774,13.3955,-1.52559,35.14,25.34,366.52,38.8314,-34.4022,-14.7492,1020.1
61370,1.56384,13.7064,-1.36777,38.64,26.25,365.47,38.9767,-38.7198,-14.5571,1020.1
61376,1.09995,14.6915,-1.45385,42.49,25.34,359.87,38.2212,-41.3411,-13.1533,1020.09
61382,0.5978,15.9589,-1.81731,47.95,20.86,351.68,34.9668,-40.0459,-14.2615,1020.09
61388,-0.750837,18.6896,-2.22382,51.38,19.74,340.34,34.1242,-41.2178,-14.5719,1020.09
61394,-1.65471,20.7365,-2.39598,49.56,11.2,326.27,34.5019,-44.7335,-13.6557,1020.09
61400,-2.42468,22.3242,-1.94644,45.36,5.25,314.37,31.7706,-44.1784,-13.9217,1020.09
61406,-2.83596,23.099,-1.31516,38.64,-0.42,306.25,30.3759,-44.2709,-13.6557,1020.07
61412,-3.56289,23.9598,-0.832138,34.65,-1.96,302.82,30.5793,-47.6016,-13.2863,1020.07
61418,-4.06504,24.7537,-0.511717,31.64,0.49,308.21,28.2838,-48.7427,-13.508,1020.09
61424,-4.61502,25.4328,0.162602,28.56,2.31,318.64,26.7147,-46.4914,-13.5375,1020.09
61430,-4.58632,24.9498,1.3582,29.4,7.7,329,25.7268,-50.3772,-13.8774,1020.11
61436,-4.32807,24.8159,2.41989,40.11,19.39,333.41,24.5645,-51.2407,-11.7348,1020.11
61442,-4.51937,26.3032,1.55906,46.83,33.25,330.12,22.9373,-49.4828,-12.1337,1020.08
61448,-6.46102,29.3831,0.0526064,40.04,43.12,320.6,20.4384,-50.3772,-13.8478,1020.08
61454,-8.08226,29.957,0.0382592,30.03,51.87,310.73,19.6539,-53.9546,-11.7791,1020.12
61460,-10.9947,28.8809,0.133907,20.79,61.18,303.38,17.7943,-52.7827,-12.7248,1020.12
61466,-13.6681,27.7618,-0.071736,11.69,72.38,302.68,16.9226,-50.4697,-12.8578,1020.12
61472,-16.901,25.012,-0.124342,6.16,78.61,306.6,15.092,-53.9238,-11.9564,1020.11
61478,-18.5653,23.3477,-0.176949,3.29,85.54,309.4,13.3486,-54.6331,-11.0255,1020.11
61484,-20.1769,21.5351,-1.1956,-0.14,88.27,305.83,12.5641,-51.7958,-11.853,1020.1
61490,-21.0665,20.7174,-2.69249,-8.33,89.74,293.79,10.6463,-53.8621,-12.3997,1020.1
61496,-23.6298,19.8996,-6.52319,-25.34,83.79,274.54,8.08932,-55.1573,-10.0798,1020.13
61502,-27.8575,16.7288,-8.04878,-44.31,72.45,253.89,8.26366,-53.2761,-12.6066,1020.13
61508,-30.0239,12.0995,-5.96844,-48.3,56.77,227.36,7.1595,-52.721,-14.3059,1020.13
61514,-32.6112,5.70062,-1.1143,-32.48,45.78,198.17,4.86401,-56.0517,-11.7791,1020.13
61520,-34.2324,2.03252,2.0373,10.43,32.27,167.93,4.54439,-54.1705,-13.375,1020.13
61526,-36.1502,0.37781,4.64371,61.53,10.5,138.04,3.87608,-52.3818,-13.3159,1020.14
61532,-36.4132,1.65471,5.16021,113.47,-11.55,102.9,3.03344,-54.9106,-12.252,1020.14
61538,-33.7398,6.46581,4.39981,141.47,-25.06,58.52,3.23684,-55.5274,-10.9516,1020.14
61544,-30.2822,10.153,3.46724,142.1,-20.72,8.54,3.29495,-52.8752,-11.9712,1020.14
61550,-25.4519,15.1985,1.32951,118.65,-4.06,-44.1,2.36513,-54.3863,-11.0994,1020.13
61556,-22.6686,16.3988,0.37781,79.52,9.31,-90.93,2.59759,-56.8535,-9.31145,1020.13
61562,8.6944,40.0717,46.2984,293.86,-216.86,-203.28,4.54439,-53.677,-10.1094,1020.16
61568,-19.4022,51.8221,-6.901,-22.61,97.58,-268.8,5.06741,-54.5097,-9.44444,1020.16
61574,-10.7652,25.8345,-28.4744,-251.79,-155.12,-275.59,6.52025,-56.4218,-8.09979,1020.16
61580,19.5983,12.4008,-15.4089,-393.05,-125.58,-280.14,8.17649,-55.4041,-9.88773,1020.11
61586,23.0464,-6.19799,12.4773,-235.83,48.02,-285.95,9.77461,-52.3818,-14.0842,1020.11
61592,11.1956,-11.8795,13.4194,13.93,144.83,-244.79,10.995,-55.0031,-12.5918,1020.15
61598,7.16882,-1.12865,7.99617,123.97,125.44,-289.1,13.1452,-54.8489,-10.9812,1020.15
61604,-1.82209,16.4323,4.93065,83.09,107.31,-265.72,15.0048,-52.3509,-13.242,1020.15
61610,0.889526,15.4376,1.49689,60.06,66.71,-294.42,15.9637,-53.8929,-11.2176,1020.15
61616,-3.44333,18.7948,-2.19512,25.27,99.96,-276.36,17.3584,-54.7256,-9.00115,1020.13
61622,-7.56097,16.4275,-2.26208,-20.02,103.67,-264.04,18.4626,-52.135,-9.82863,1020.13
61628,-12.0851,17.0301,5.51411,-83.23,53.41,-256.06,19.8573,-52.0117,-12.0155,1020.14
61634,-15.1698,15.5715,3.5868,-103.67,-35.77,-231,21.2811,-53.2761,-9.25235,1020.14
61640,-10.4352,13.8737,5.54758,-69.02,-110.11,-204.89,22.269,-50.6856,-10.4936,1020.14
61646,-4.58632,14.2276,-0.832138,-60.34,-124.04,-174.23,23.5475,-48.8969,-12.6066,1020.11
61652,-1.9034,18.1253,-4.02678,-55.44,-78.05,-162.26,23.8671,-50.6547,-12.1929,1020.11
61658,-3.01291,18.2831,-7.56097,-73.15,36.89,-62.44,24.5645,-51.0248,-12.252,1020.12
61664,-4.87327,3.65854,4.11286,20.44,23.52,-46.06,24.5645,-46.9231,-13.7444,1020.12
61670,-1.84122,12.8647,-6.2219,20.51,-23.8,-77.21,24.1287,-49.1128,-12.2224,1020.13
61676,-0.865614,17.6327,-5.70062,-86.73,-24.01,-68.11,24.9713,-51.2715,-12.1337,1020.13
61682,-0.808226,8.85701,-1.72166,-74.2,34.09,-23.45,25.6105,-47.725,-13.7739,1020.15
61688,-1.58297,5.26542,5.3802,-6.23,42.63,-35.63,25.6977,-47.4782,-14.7344,1020.15
61694,-4.10808,9.99043,4.36633,-13.58,-12.95,-29.05,25.9302,-50.7164,-12.7839,1020.15
61700,-1.76949,9.90435,-0.282162,-13.86,-10.92,-17.85,26.1917,-48.9277,-12.5623,1020.14
61706,-0.176949,9.17743,0.502152,-7.56,0.84,-17.43,25.5524,-46.2755,-14.1433,1020.14
61712,-1.01387,9.08178,0.875179,-5.39,1.54,-12.04,26.5113,-49.6679,-12.4588,1020.15
61718,-1.06169,9.2109,0.846485,2.59,-1.33,-5.88,25.6977,-49.3903,-12.1929,1020.15
61724,-0.798661,10.2104,-0.626494,1.61,-2.87,-2.52,25.7558,-46.9231,-12.4736,1020.16
61730,-0.396939,10.4974,-0.93735,-1.54,-2.8,-3.01,25.6977,-48.1259,-13.3306,1020.16
61736,-0.411286,10.5308,-0.439981,-4.48,-2.31,0,26.4241,-49.5445,-12.1042,1020.18
61742,0.124342,9.25873,0.325203,2.24,-2.59,-2.52,25.9883,-47.7558,-13.242,1020.18
61748,0.129125,10.4926,-0.674318,0.98,-2.73,-4.69,25.9011,-47.6633,-14.6014,1020.18
61754,0.047824,10.2535,-0.516499,-1.33,-4.06,-6.02,26.6856,-50.4697,-12.843,1020.14
61760,0.095648,9.77044,-0.167384,0.98,-3.22,-6.93,26.889,-48.681,-12.9169,1020.14
61766,-0.191296,9.98087,-0.124342,2.17,-4.9,-5.74,25.7558,-46.4914,-13.3159,1020.16
61772,-0.196078,10.0048,-0.21999,2.73,-6.58,-6.09,25.7558,-49.4212,-12.2224,1020.16
61778,-0.114778,10.0239,-0.124342,2.87,-6.37,-6.02,26.6275,-49.8529,-13.7887,1020.16
61784,-0.172166,9.84696,-0.196078,6.58,-7.63,-5.88,26.2789,-46.4605,-13.9956,1020.16
61790,-0.114778,10.1196,-0.449546,5.6,-8.4,-6.23,27.354,-48.7735,-14.5719,1020.16
61796,0.143472,9.86131,-0.401722,7.63,-7.56,-6.86,26.5694,-50.408,-12.2667,1020.16
61802,0.143472,9.85653,-0.263032,8.05,-6.65,-7.49,26.1045,-47.2932,-13.4045,1020.16
61808,0.095648,9.87566,-0.296509,9.52,-4.97,-7.77,26.337,-46.3989,-14.2763,1020.16
61814,-0.0765184,9.79436,-0.320421,9.38,-4.83,-8.75,26.7438,-50.3463,-11.4245,1020.16
61820,0.0047824,9.82305,-0.373027,9.87,-5.6,-9.8,26.6566,-47.6016,-11.7643,1020.14
61826,0.224773,9.8087,-0.382592,9.94,-4.97,-10.99,26.1336,-46.0905,-13.8478,1020.14
61832,0.200861,9.93783,-0.626494,9.94,-3.71,-11.55,27.0924,-49.1128,-12.7691,1020.14
61838,0.0573888,10.0574,-0.741272,8.4,-2.8,-12.53,26.9762,-50.0996,-12.8135,1020.14
61844,-0.071736,10.0096,-0.650406,7,-1.61,-12.18,26.5694,-46.2447,-13.7296,1020.14
61850,0.291726,10.1339,-0.612147,4.27,1.96,-12.67,26.6856,-48.6193,-13.2863,1020.14
61856,0.10043,10.0096,-0.870397,2.1,5.18,-13.16,27.6155,-49.4828,-13.5671,1020.16
61862,-0.13869,9.97609,-0.593018,0.84,5.95,-13.23,26.86,-47.0773,-12.9317,1020.16
61868,-0.196078,9.81827,-0.612147,0.49,6.3,-12.11,26.9762,-46.183,-14.1138,1020.16
61874,-0.267814,9.8374,-0.621712,0.35,6.86,-12.04,26.5404,-49.452,-12.9317,1020.16
61880,-0.368245,9.86131,-0.683883,-1.47,8.96,-11.97,26.5113,-49.0819,-14.2911,1020.16
61886,-0.368245,9.81827,-0.506934,-2.17,9.52,-11.62,27.0343,-45.7821,-12.6361,1020.14
61892,-0.344333,9.78479,-0.382592,-2.17,10.64,-10.92,27.1506,-49.2361,-12.4293,1020.14
61898,-0.545194,9.71305,-0.215208,-2.73,9.17,-10.43,27.6155,-49.1436,-11.6757,1020.13
61904,-0.191296,9.66045,-0.502152,-0.98,8.89,-9.87,26.4241,-46.0596,-13.7887,1020.13
61910,-0.200861,9.8374,-0.554758,-3.36,10.99,-10.36,26.5404,-47.8483,-13.7,1020.16
61916,-0.526064,9.97609,-0.47824,-6.44,8.4,-9.24,27.6445,-49.2978,-13.2863,1020.16
61922,-0.167384,9.68914,-0.650406,-3.43,9.8,-10.08,27.6445,-46.8306,-13.7739,1020.16
61928,-0.569106,9.69392,-0.167384,-4.62,10.78,-9.66,27.1506,-46.7998,-13.7444,1020.16
61934,-0.454328,9.68914,-0.196078,-3.78,9.03,-9.24,28.4291,-49.9763,-12.2815,1020.16
61940,-0.439981,9.74175,-0.291726,-3.5,8.89,-8.54,28.2547,-48.3109,-12.4736,1020.16
61946,-0.373027,9.70827,-0.468675,-3.85,9.66,-9.1,27.383,-46.3063,-13.7,1020.16
61952,-0.420851,9.74175,-0.320421,-3.43,9.8,-8.68,26.9472,-49.1128,-12.3258,1020.19
61958,-0.334768,9.70827,-0.430416,-3.71,10.22,-8.96,27.8479,-49.2053,-12.2667,1020.19
61964,-0.49737,9.68914,-0.315638,-3.5,9.94,-8.75,27.6736,-46.4605,-12.7839,1020.14
61970,-0.439981,9.4835,-0.277379,-2.24,10.29,-9.45,28.0223,-47.6941,-12.9021,1020.14
61976,-0.392157,9.84218,-0.35868,-1.61,8.96,-10.29,28.0223,-49.5137,-11.8234,1020.14
61982,-0.449546,10.1196,-0.468675,-3.78,7.35,-10.29,27.7317,-46.954,-13.0203,1020.14
61988,-0.760402,10.0956,-0.73649,-6.58,4.55,-11.27,27.6155,-46.183,-14.1581,1020.14
61994,-0.899091,10.3061,-0.97561,-9.94,1.4,-11.2,28.2838,-49.1436,-13.4932,1020.17
62000,-0.779531,10.5595,-0.97561,-13.37,-0.84,-11.62,27.9641,-47.1082,-14.099,1020.17
62006,-0.679101,11.0856,-1.01865,-20.86,-5.18,-11.76,27.4121,-45.9979,-13.3159,1020.14
62012,-0.554758,10.2439,-1.44907,-23.66,-7.91,-12.67,27.5864,-47.5708,-13.0203,1020.14
62018,-0.416069,10.1052,-0.913438,-26.32,-6.23,-13.23,28.0804,-48.4343,-12.3849,1020.14
62024,-0.200861,10.7987,-0.463893,-24.64,-8.89,-14.91,27.2958,-45.7512,-13.9365,1020.14
62030,0.114778,11.3056,-0.167384,-25.13,-11.13,-19.81,28.4,-46.4605,-14.099,1020.15
62036,2.15686,12.1234,1.52559,-21.56,-9.87,-32.06,29.3879,-48.681,-11.9417,1020.15
62042,2.51076,11.7743,3.63462,2.94,-3.71,-51.17,28.6034,-46.0288,-13.8626,1020.15
62048,0.664754,11.2147,-0.157819,7.42,-1.68,-55.37,28.3128,-44.9494,-15.1777,1020.17
62054,-0.181731,11.5591,-0.526064,2.03,-2.1,-56.77,29.1845,-48.095,-12.0451,1020.17
62060,0.114778,11.7982,0.49737,2.17,-8.05,-64.89,29.6785,-46.5839,-12.8873,1020.14
62066,0.693448,11.5447,0.310856,3.78,-7,-70.42,29.2426,-43.685,-14.8822,1020.14
62072,0.47824,11.4204,0.602582,3.15,-4.2,-73.85,30.2015,-46.4914,-13.8035,1020.14
62078,0.726925,11.6499,0.822573,9.03,-2.8,-81.13,31.0732,-46.5531,-13.3011,1020.14
62084,0.631277,11.8843,0.803443,10.99,-3.15,-88.62,30.2015,-43.5924,-14.2468,1020.13
62090,-0.0191296,11.6547,0.143472,10.92,-2.1,-93.17,31.4219,-44.2709,-14.1433,1020.13
62096,-0.45911,11.0378,0.69823,14.35,-4.13,-98.49,32.4098,-46.6147,-12.8578,1020.15
62102,-0.411286,10.9326,1.42516,24.71,-10.57,-102.62,32.003,-44.1476,-13.3159,1020.15
62108,-0.157819,11.2721,1.31516,29.33,-12.25,-108.36,31.8578,-42.7289,-12.5327,1020.15
62114,0.13869,11.5017,1.20995,34.16,-10.85,-114.38,32.8166,-45.4428,-11.6018,1020.15
62120,-0.0382592,11.7791,1.07126,42.14,-9.03,-120.12,33.9498,-44.4251,-11.2915,1020.15
62126,-0.344333,12.3482,0.071736,46.48,-16.03,-126.49,32.9619,-41.4645,-14.6605,1020.17
62132,-0.435198,12.9747,-0.865614,47.81,-20.86,-133,34.2695,-43.5924,-12.1633,1020.17
62138,-0.224773,13.2616,-0.923003,42.84,-28.7,-140.98,35.6351,-43.5924,-11.8973,1020.14
62144,-0.129125,13.3238,-0.985174,41.72,-29.4,-147.84,34.7925,-40.3234,-12.1042,1020.14
62150,0.411286,13.9216,-0.913438,38.99,-24.22,-156.94,35.7223,-41.6187,-12.6066,1020.17
62156,0.267814,15.1602,-1.06169,42.35,-24.57,-168,37.5529,-42.914,-11.8825,1020.17
62162,1.0043,16.1645,-1.60689,27.58,-32.97,-183.26,37.5819,-39.4907,-12.5327,1020.17
62168,1.61167,15.7532,-1.32472,28.42,-31.08,-201.25,38.2212,-38.4114,-12.7987,1020.17
62174,1.66428,15.9397,-0.894309,32.97,-31.22,-219.52,39.2382,-41.0944,-11.6166,1020.17
62180,1.39646,17.6471,-3.60593,33.18,-33.95,-241.36,39.8774,-39.2749,-10.9516,1020.16
62186,-0.334768,18.1779,-5.49976,29.26,-46.27,-262.15,39.9936,-35.6975,-13.3306,1020.16
62192,0.373027,18.7374,-5.97322,18.48,-59.5,-279.58,41.9695,-37.0544,-11.2472,1020.12
62198,2.61119,19.67,-4.31851,11.48,-62.51,-300.51,43.0156,-35.9133,-11.4688,1020.12
62204,3.86896,20.5308,-0.884744,13.79,-62.86,-325.5,42.6378,-32.5518,-13.0203,1020.14
62210,3.83548,21.6691,0.267814,27.58,-51.38,-349.72,43.6839,-31.4107,-13.5523,1020.14
62216,0.93735,27.3601,2.57293,39.2,-48.16,-373.59,45.8631,-31.9967,-11.72,1020.14
62222,3.22334,24.4094,-1.16691,37.59,-59.5,-408.45,45.6597,-28.0184,-11.8825,1020.14
62228,2.0373,23.3046,-3.39072,41.3,-55.72,-430.85,44.7299,-25.9521,-13.7592,1020.14
62234,1.98948,26.1789,-0.473458,32.27,-61.53,-446.04,48.6816,-25.7054,-11.2767,1020.13
62240,3.37637,24.6676,-0.889526,25.83,-60.13,-458.36,49.5533,-22.7756,-12.4588,1020.13
62246,0.526064,24.1607,-1.81253,49.35,-37.17,-460.53,47.7809,-19.1982,-13.8478,1020.14
62252,-1.36777,28.2257,0.703013,26.18,-73.15,-467.25,50.7156,-18.1188,-11.8234,1020.14
62258,3.88809,23.1229,-1.78862,21.28,-86.17,-475.86,51.4711,-16.546,-12.5623,1020.11
62264,4.84935,19.6748,-2.39598,50.05,-63.77,-481.95,50.1054,-12.3518,-13.4045,1020.11
62270,0.468675,22.0947,-2.00861,71.75,-65.73,-486.43,50.7737,-10.378,-14.7639,1020.12
62276,1.66428,24.5002,-6.45146,63.63,-87.78,-481.6,53.5632,-8.37345,-12.6066,1020.12
62282,4.55763,22.7642,-8.35964,31.92,-102.27,-467.11,51.1224,-4.82688,-14.5423,1020.12
62288,6.83883,15.6337,-7.25012,12.39,-119,-441.21,49.8148,-2.6681,-16.3302,1020.1
62294,8.16834,13.1564,-8.14921,-16.31,-132.09,-402.36,52.1394,-1.18779,-14.2468,1020.1
62300,7.05404,4.60067,-15.1459,-79.94,-129.08,-348.74,50.8028,1.03267,-15.3698,1020.1
62306,0.61693,-0.387374,-8.51267,-69.16,-55.93,-206.71,47.4322,4.51757,-17.5124,1020.1
62312,-4.18938,5.83453,8.13008,-34.79,-53.55,-80.29,50.1926,4.11665,-16.2416,1020.1
62318,2.06121,9.75131,1.97991,-13.44,-52.64,3.92,50.9771,4.36337,-15.4141,1020.1
62324,4.11286,10.2152,-0.607365,7.98,-26.95,78.68,47.6356,4.8568,-16.9952,1020.12
62330,7.6901,8.46007,-2.35772,8.12,-13.44,134.4,48.3329,3.86993,-16.744,1020.12
62336,9.18221,6.32233,-2.48207,7.28,-1.26,164.01,51.7907,2.48214,-16.0347,1020.12
62342,9.4022,5.91105,-2.88857,8.19,4.9,174.58,49.3499,1.61863,-16.6849,1020.14
62348,8.55093,6.28886,-3.76853,8.54,11.83,173.95,48.1877,2.1429,-17.1873,1020.14
62354,6.39407,5.85366,-2.88857,6.72,10.57,167.72,51.5873,-0.447634,-16.212,1020.11
62360,5.71019,4.945,-2.54902,5.46,6.79,160.93,51.413,-0.632672,-16.1973,1020.11
62366,4.48111,3.51506,-1.69775,10.5,3.85,157.64,49.6114,-1.24947,-18.2955,1020.12
62372,5.03108,1.94165,-1.86514,10.57,1.75,150.29,50.9481,-2.45222,-17.5567,1020.12
62378,4.46676,1.7121,-1.22429,16.52,0.28,155.19,51.6745,-3.31573,-16.2711,1020.13
62384,4.33764,2.35772,-1.89861,15.05,0.49,164.57,48.7688,-3.71665,-17.0247,1020.13
62390,3.73505,2.92683,-1.40603,13.86,-0.07,176.75,49.3499,-4.70352,-17.1577,1020.13
62396,3.47202,3.28551,-1.12386,10.22,-3.29,191.17,51.3548,-7.38658,-16.9952,1020.14
62402,3.25681,3.72071,-0.846485,11.48,1.19,211.12,49.902,-6.89314,-17.0247,1020.14
62408,3.88809,4.69153,-2.1186,2.24,4.76,232.26,47.5194,-8.06505,-17.4385,1020.11
62414,3.48637,5.39455,-1.3582,-1.89,6.23,249.41,50.8609,-11.1799,-16.7883,1020.11
62420,3.64419,5.26542,-1.23864,-7.42,10.08,265.93,50.7737,-12.4135,-14.956,1020.12
62426,3.51028,5.03587,-0.93735,-8.96,12.67,279.93,48.1877,-12.1359,-17.2907,1020.12
62432,3.12291,5.38976,-1.25299,-8.82,11.69,292.95,49.7858,-14.5722,-16.3894,1020.13
62438,2.95552,5.30846,-1.59732,-8.12,15.89,302.54,50.8028,-17.2861,-14.7787,1020.13
62444,2.63032,5.17934,-1.07604,-3.78,13.86,311.78,47.8099,-16.1142,-15.8722,1020.06
62450,2.92683,5.25108,-1.26734,-0.21,15.96,316.89,47.6937,-17.9338,-16.9213,1020.06
62456,2.989,5.06934,-0.401722,10.85,15.61,320.88,49.6405,-21.2645,-15.3254,1020.06
62462,3.10856,5.6528,-0.779531,17.08,15.61,324.24,46.822,-21.2645,-15.6949,1020.06
62468,2.95552,6.35103,-0.554758,25.97,18.69,326.69,45.1658,-21.6962,-17.7192,1020.06
62474,2.83596,7.31707,-0.808226,31.85,19.46,330.47,46.5024,-26.9698,-15.1038,1020.08
62480,2.56337,8.67049,-0.942133,35.77,20.79,335.58,46.6767,-27.8642,-17.1282,1020.08
62486,2.12817,9.87566,-1.34385,36.68,21.91,340.97,42.8703,-27.2782,-17.468,1020.08
62492,1.56384,11.3104,-1.72166,37.03,22.75,347.41,43.5676,-30.7939,-16.3598,1020.08
62498,0.899091,12.2669,-1.94644,34.79,20.3,355.81,43.248,-33.3536,-15.6653,1020.06
62504,0.234338,12.6303,-1.58297,34.02,16.8,365.19,41.0978,-32.5826,-16.6405,1020.06
62510,0.334768,12.6303,-1.34864,31.57,0.49,373.1,40.6038,-34.5256,-16.9065,1020.06
62516,0.0382592,13.4385,-1.31038,43.89,11.69,389.06,41.0687,-37.7946,-15.7687,1020.09
62522,0.0621712,13.9455,-1.24821,48.23,9.94,383.25,38.2502,-37.5478,-16.7144,1020.09
62528,-0.047824,14.8733,-1.31516,53.55,0.77,379.82,36.3034,-38.103,-16.4337,1020.05
62534,0.095648,15.7867,-1.56384,55.51,-5.81,383.53,36.3325,-42.2972,-14.7787,1020.05
62540,0.023912,16.968,-1.64036,62.58,-8.12,373.59,34.7053,-43.3149,-14.3354,1020.04
62546,-0.583453,17.9627,-1.17647,67.97,-14.07,356.37,31.8578,-42.4205,-15.6949,1020.04
62552,-0.392157,18.924,-1.29125,72.24,-16.24,344.61,31.7415,-46.1521,-14.2615,1020.11
62558,-0.650406,20.1769,-1.44907,79.17,-14.28,332.57,29.94,-47.5708,-13.6114,1020.11
62564,-1.09039,22.3864,-1.55428,79.1,-14.91,317.03,28.4581,-45.7821,-15.5619,1020.11
62570,-1.31994,23.5007,-1.34385,83.58,-12.25,308.42,25.9592,-46.9231,-15.8131,1020.08
62576,-1.84601,24.8446,-0.373027,87.57,-1.68,311.36,25.9011,-50.3463,-12.0451,1020.08
62582,-1.77427,25.978,-0.109995,87.85,13.02,320.67,24.0996,-49.2978,-13.109,1020.09
62588,-1.47298,27.8814,-0.49737,82.95,35.84,334.11,22.2109,-49.3286,-13.833,1020.09
62594,-2.73553,29.0196,-0.0286944,70.7,58.17,342.93,20.8162,-52.5668,-12.5623,1020.09
62600,-4.27068,28.7135,1.13343,62.79,77.42,348.6,19.9445,-53.8929,-12.6214,1020.09
62606,-7.75705,28.5175,2.29077,64.4,94.01,354.69,18.3173,-50.8706,-12.8135,1020.1
62612,-10.8752,29.4452,1.93687,62.44,104.23,357.49,15.2373,-54.2938,-12.252,1020.1
62618,-15.4615,30.4304,1.09995,56.14,109.62,357.21,13.9588,-55.4041,-9.8434,1020.13
62624,-18.2066,30.8178,0.0382592,42.7,112.07,354.69,12.6803,-53.8312,-12.119,1020.13
62630,-21.0186,30.3539,-2.16643,22.26,115.22,346.08,10.9078,-53.677,-11.2324,1020.13
62636,-22.6638,29.7465,-4.28025,-6.86,114.24,326.62,9.1063,-57.4086,-10.73,1020.11
62642,-24.4668,27.4892,-9.27307,-43.68,125.09,294.28,8.14743,-55.3424,-10.4788,1020.11
62648,-27.3984,25.9636,-14.1176,-96.74,94.64,259.63,6.46214,-54.2013,-12.3406,1020.14
62654,-34.768,18.1779,-14.6294,-148.26,72.52,226.03,4.63156,-55.805,-11.986,1020.14
62660,-38.7087,8.71832,-9.09613,-162.26,55.51,186.06,3.5274,-54.9415,-11.8825,1020.13
62666,-41.0473,-4.3759,2.15686,-129.22,67.9,144.41,4.02137,-52.5668,-13.9217,1020.13
62672,-45.1793,-10.9469,9.93304,-20.09,51.17,108.5,2.33608,-54.3863,-14.3945,1020.14
62678,-49.0387,-10.8226,11.3152,131.32,-22.26,74.34,1.784,-55.5583,-13.2124,1020.14
62684,-43.4768,-1.1143,5.98278,210.49,-66.08,25.69,2.30702,-52.9986,-13.4636,1020.14
62690,-32.5203,11.6356,0.526064,202.51,-55.79,-30.94,1.90022,-54.5405,-11.9417,1020.18
62696,-26.968,16.2076,-1.34385,143.85,-37.8,-79.03,0.708897,-56.6685,-10.6118,1020.18
62702,-23.3525,21.2434,-1.57819,136.64,-12.25,-126.07,3.00438,-55.99,-10.6118,1020.13
62708,37.4079,95.2271,29.2635,157.08,202.65,-308.77,4.77684,-54.2013,-9.96162,1020.13
62714,-21.5591,23.7781,-23.3046,-151.2,-95.55,-327.39,5.35798,-57.1928,-8.12934,1020.13
62720,23.3285,19.78,-2.43902,-348.53,-116.69,-282.31,7.3629,-56.0825,-9.35578,1020.13
62726,14.505,-12.4151,9.37829,-238.42,63.42,-350,9.36781,-53.7079,-13.5818,1020.13
62732,9.45481,-10.8752,13.5103,32.48,114.59,-258.23,10.8497,-54.7873,-12.5032,1020.13
62738,5.4902,-5.60019,9.11525,197.61,104.3,-310.59,11.8376,-57.1311,-10.8039,1020.13
62744,0.521282,20.2535,3.02726,166.32,86.38,-318.92,14.3946,-53.9238,-11.5427,1020.16
62750,-4.43807,25.9063,-6.03539,70.77,66.43,-307.51,15.7022,-54.1088,-10.2424,1020.16
62756,-7.25968,25.6384,-14.5002,-27.44,103.74,-275.59,17.3875,-56.4526,-8.01113,1020.17
62762,-8.41702,19.4692,-0.664754,-149.87,66.57,-295.12,19.1018,-53.0602,-9.0307,1020.17
62768,-15.428,13.7207,8.07747,-150.71,13.86,-264.04,21.5426,-51.0248,-11.7643,1020.14
62774,-19.0387,17.6949,-0.645624,-116.13,-67.55,-201.81,22.2109,-53.8004,-10.0355,1020.14
62780,-6.43711,13.0703,2.59684,-138.46,-175.35,-195.58,22.5886,-53.2144,-10.7004,1020.15
62786,-4.28981,17.1162,-6.28407,-90.09,-60.62,-104.93,23.4894,-49.3595,-12.577,1020.15
62792,-0.808226,8.63223,-1.64515,-28.91,90.72,-41.16,23.9543,-51.6416,-12.8873,1020.12
62798,-4.21808,5.01196,6.19799,31.92,37.87,-52.85,23.9834,-52.0425,-12.3258,1020.12
62804,-5.88235,17.4079,-2.87422,-27.23,-32.06,-66.92,24.3321,-49.2053,-11.5279,1020.12
62810,-0.124342,15.2224,-5.30368,-83.58,-34.51,-58.17,24.3321,-49.3595,-13.7,1020.14
62816,1.26734,6.3032,1.34385,-45.01,44.8,-34.16,24.8841,-51.4257,-12.5918,1020.14
62822,-1.85079,6.3032,4.5385,-9.94,26.81,-29.4,24.8551,-49.2361,-12.577,1020.17
62828,-4.15591,9.84696,2.37207,-15.19,-27.09,-26.95,25.0875,-48.095,-14.0695,1020.17
62834,0.176949,8.82831,0.73649,-6.09,-18.34,-21.28,24.8841,-51.5183,-12.7987,1020.13
62840,-0.57867,10.5165,0.0334768,-1.68,3.36,-11.9,25.2619,-50.5931,-10.9073,1020.13
62846,-0.808226,11.0378,-1.01387,-16.17,-0.35,-12.46,24.5064,-47.1082,-14.2763,1020.13
62852,-0.49737,9.12004,0.473458,-7.35,-1.47,-6.72,25.349,-49.9146,-12.5623,1020.13
62858,0.793878,8.70875,-0.679101,4.06,-0.7,-11.06,25.6396,-50.9631,-12.71,1020.13
62864,0.267814,9.17743,0.368245,-7.49,-10.22,-5.39,24.826,-48.0334,-12.71,1020.18
62870,0.349115,10.4065,-1.15734,12.25,-12.53,-10.36,25.7849,-49.0511,-13.5966,1020.18
62876,1.42037,9.76088,-1.62602,-12.74,-0.98,-15.26,26.2207,-51.4257,-11.8678,1020.12
62882,0.95648,10.4352,-1.20995,-3.43,8.75,-10.78,26.2498,-48.3109,-12.2667,1020.12
62888,-0.463893,9.73697,-0.612147,-10.5,-5.67,-10.78,25.6105,-47.7866,-13.4488,1020.14
62894,0.559541,9.74653,-0.0095648,-2.52,-4.13,-15.12,26.1045,-50.6547,-12.7987,1020.14
62900,0.573888,9.76566,-0.215208,-2.73,-0.49,-11.69,25.7268,-50.6239,-11.9564,1020.13
62906,-0.196078,9.95218,-0.167384,4.2,-4.2,-8.05,25.6105,-46.5222,-14.4389,1020.13
62912,0.334768,10.3156,-0.325203,3.85,-4.62,-10.57,25.5234,-49.2053,-13.0794,1020.15
62918,0.181731,9.63654,0.368245,6.02,-2.03,-9.1,25.6105,-51.2407,-11.4688,1020.15
62924,-0.071736,9.89479,0.0430416,9.8,-2.17,-10.36,25.5524,-48.9277,-14.2763,1020.15
62930,-0.153037,10.2917,-0.439981,9.38,-4.2,-9.17,25.8721,-48.0642,-14.1729,1020.13
62936,0.248685,9.57915,-0.13869,12.39,-3.71,-9.31,25.7558,-51.3024,-12.4293,1020.13
62942,0.0047824,10.1865,-0.722142,10.08,-4.62,-9.52,25.8139,-49.3286,-12.7396,1020.2
62948,0.0047824,10.2296,-0.693448,8.96,-4.41,-9.8,25.6977,-47.2315,-13.3306,1020.2
62954,0.320421,9.87087,-0.425634,10.5,-2.03,-9.87,26.1336,-50.6547,-14.6162,1020.16
62960,0.234338,9.97609,-0.655189,9.03,-1.47,-10.22,26.5694,-50.5622,-12.0155,1020.16
62966,0.215208,9.71784,-0.573888,7.91,-2.1,-11.55,25.9592,-46.9848,-13.2863,1020.19
62972,0.143472,10.0191,-0.511717,6.51,-1.47,-11.34,26.0755,-49.2053,-12.5623,1020.19
62978,0.196078,9.76566,-0.406504,6.93,-0.77,-11.2,26.8309,-50.5314,-12.3111,1020.19
62984,0.186514,9.76088,-0.473458,7.63,-0.84,-12.04,25.7558,-47.9408,-13.3011,1020.16
62990,0.129125,9.96174,-0.674318,7.7,-0.49,-11.27,25.3781,-47.8483,-12.9021,1020.16
62996,0.200861,9.84696,-0.83692,7.21,1.68,-12.11,26.7728,-51.2099,-11.0107,1020.16
63002,0.143472,10.0622,-0.946915,5.25,3.36,-11.83,26.366,-48.5268,-12.3702,1020.16
63008,0.0526064,9.87087,-0.664754,3.08,6.02,-11.83,25.9592,-47.8483,-13.3011,1020.15
63014,-0.0095648,9.94739,-0.535629,-3.5,8.47,-10.71,26.8309,-49.8221,-11.6313,1020.15
63020,-0.0860832,9.46915,-0.793878,-2.38,10.01,-9.94,26.7147,-49.7295,-13.0794,1020.13
63026,-0.334768,9.59828,-0.416069,-0.98,8.12,-10.99,26.4241,-46.954,-15.1334,1020.13
63032,-0.181731,9.69392,-0.47824,-0.98,7.98,-10.78,26.2207,-48.6193,-12.3702,1020.13
63038,-0.0621712,10,-0.387374,-2.17,8.82,-9.52,26.3951,-50.7473,-11.9564,1020.14
63044,-0.0765184,10.067,-0.659971,-3.71,7.56,-10.92,26.1045,-47.9408,-12.3702,1020.14
63050,-0.129125,9.93304,-0.679101,-6.51,8.47,-10.71,26.0173,-48.0334,-12.9908,1020.15
63056,-0.196078,9.80392,-0.449546,-6.02,7.56,-11.83,27.1796,-50.3772,-13.109,1020.15
63062,-0.176949,9.84696,-0.473458,-6.44,8.33,-10.92,27.1796,-48.7118,-13.2715,1020.17
63068,0,9.88522,-0.540411,-7.84,6.86,-11.83,26.1917,-47.2007,-14.3945,1020.17
63074,-0.291726,10.0526,-0.573888,-8.82,5.25,-11.9,26.7147,-49.9454,-12.2963,1020.15
63080,-0.186514,9.99522,-0.530846,-10.92,4.34,-12.88,26.5985,-49.7295,-11.8825,1020.15
63086,-0.248685,9.8087,-0.521282,-11.34,4.48,-12.6,26.0755,-47.2624,-13.6557,1020.17
63092,-0.25825,10.0574,-0.37781,-11.97,1.05,-13.37,26.9181,-48.4343,-14.6901,1020.17
63098,-0.468675,10.6265,-0.502152,-13.86,-3.43,-13.93,27.2377,-50.0996,-13.0056,1020.17
63104,-0.210426,10.2104,-0.688666,-18.76,-5.11,-14.77,27.0634,-47.2315,-13.4193,1020.15
63110,0.0191296,9.88522,-0.282162,-18.62,-3.36,-15.12,27.1506,-47.3857,-14.1729,1020.15
63116,-0.253467,10.0956,-0.047824,-17.78,-6.16,-15.89,27.7607,-49.9763,-12.1633,1020.15
63122,-0.329986,10.0717,-0.487805,-19.81,-8.26,-15.82,27.6155,-47.6633,-12.8135,1020.15
63128,-0.243902,10.0813,-0.353898,-21.35,-9.45,-16.17,27.2087,-46.2755,-14.8231,1020.16
63134,-0.277379,10.11,-0.306074,-22.61,-14.35,-16.38,27.4121,-49.2978,-13.3454,1020.16
63140,0.0382592,10.3348,-0.172166,-20.93,-16.59,-17.92,27.3249,-48.866,-13.6557,1020.14
63146,0.301291,10.5595,-0.0860832,-19.46,-15.4,-21,27.0924,-45.7204,-13.4193,1020.14
63152,1.29603,11.0521,0.306074,-20.23,-11.34,-27.3,27.1796,-47.725,-14.9265,1020.14
63158,3.78766,10.9995,4.66284,-0.07,-1.54,-44.52,28.1675,-49.0511,-13.8035,1020.12
63164,1.52559,11.3247,1.64515,14.77,-0.21,-54.95,28.5162,-46.4297,-15.0151,1020.12
63170,0.430416,11.6308,-1.65471,4.69,9.52,-57.12,27.8479,-46.6456,-14.5719,1020.16
63176,-0.263032,11.5065,-0.129125,3.22,3.22,-60.9,29.0683,-48.5576,-12.7544,1020.16
63182,0.368245,11.3773,0.593018,9.03,-6.09,-67.76,28.5743,-46.3372,-13.7887,1020.13
63188,0.875179,11.6356,-0.0526064,10.99,-4.76,-74.13,28.9521,-44.4868,-15.2663,1020.13
63194,0.875179,12.2525,-0.215208,8.4,-1.61,-79.66,29.417,-47.139,-13.9956,1020.15
63200,0.607365,12.1282,0.0382592,6.3,1.89,-84.7,29.9981,-46.7381,-13.7444,1020.15
63206,0.23912,11.6786,0.191296,10.29,-0.7,-90.3,30.1143,-43.5308,-13.5227,1020.15
63212,0.095648,11.8986,0.129125,14.49,-6.51,-97.23,30.8408,-45.8437,-15.8574,1020.13
63218,0.234338,12.4342,-0.0047824,16.59,-12.11,-104.58,31.974,-47.6016,-12.7544,1020.13
63224,0.243902,12.3769,-0.133907,15.47,-10.99,-111.86,31.7706,-43.7466,-13.4341,1020.14
63230,0.0430416,12.1664,1.03778,20.02,-12.04,-118.86,32.1774,-44.0242,-13.4341,1020.14
63236,0.272597,11.7073,1.50167,25.48,-18.83,-126.42,33.4559,-45.7512,-12.843,1020.16
63242,0.846485,11.9608,1.05691,33.67,-17.99,-131.32,32.6713,-44.2092,-11.4688,1020.16
63248,0.545194,12.6877,0.325203,37.45,-15.89,-138.32,32.9329,-42.2046,-13.3159,1020.16
63254,0.248685,13.4912,-0.45911,38.29,-19.88,-146.09,34.3857,-44.5176,-13.1385,1020.16
63260,0.253467,13.7494,-0.473458,37.1,-26.11,-155.12,36.0129,-44.3943,-10.863,1020.15
63266,0.0765184,14.3185,-1.06648,38.36,-29.54,-161.28,34.8215,-40.2001,-13.5227,1020.15
63272,0.306074,15.3993,-1.08082,37.38,-38.01,-170.87,35.7223,-42.0196,-11.8825,1020.15
63278,1.96557,15.9493,-1.24342,27.16,-32.27,-186.48,37.7563,-43.7158,-11.6018,1020.12
63284,1.37733,14.6294,-1.20995,28.84,-28.98,-199.99,37.1461,-40.4468,-12.8873,1020.12
63290,1.82688,16.1932,-0.45911,34.37,-27.79,-216.65,37.6982,-38.6272,-14.365,1020.15
63296,0.353898,18.1157,-2.85509,41.3,-35.84,-237.3,39.6159,-40.7243,-12.3111,1020.15
63302,0.860832,19.5074,-5.35629,23.52,-47.74,-259.07,40.7201,-38.0104,-12.6214,1020.13
63308,1.90818,20.3061,-6.54232,11.27,-52.64,-278.18,40.6038,-35.6049,-13.4193,1020.13
63314,2.61119,21.2673,-5.60497,-1.54,-54.11,-299.88,42.1148,-36.746,-12.4441,1020.14
63320,2.81205,21.4443,-3.25203,-5.53,-59.15,-325.99,43.1608,-36.1292,-11.0403,1020.14
63326,2.07078,21.4299,-2.74988,6.58,-49.28,-350.98,42.7831,-31.6575,-13.7739,1020.14
63332,0.989957,24.0411,1.12386,27.09,-62.44,-376.53,43.3933,-32.0275,-13.8035,1020.14
63338,2.97465,25.3132,-2.57293,21.28,-76.72,-402.57,46.7639,-30.6397,-12.7839,1020.14
63344,5.08369,25.7915,-7.52272,10.71,-58.45,-424.83,46.2409,-27.124,-14.6605,1020.15
63350,1.95122,27.8479,-4.35677,-9.31,-62.44,-445.69,46.2409,-24.4718,-14.0251,1020.15
63356,2.17121,31.2769,-3.78288,-28.7,-63.14,-456.68,49.8148,-24.1942,-13.0942,1020.14
63362,2.84075,28.2688,-4.83022,-47.25,-57.05,-465.29,49.1756,-21.7271,-13.6409,1020.14
63368,-2.13295,22.879,-0.860832,-12.18,-75.32,-469.84,47.6937,-17.2861,-15.0004,1020.1
63374,2.1186,21.6977,-4.17025,-17.5,-107.52,-475.16,51.1805,-16.3918,-14.0251,1020.1
63380,4.64849,18.3883,-4.97848,-2.59,-88.62,-481.04,51.5873,-13.8012,-13.3159,1020.1
63386,2.13295,20.373,-1.2769,40.67,-106.33,-487.27,49.2628,-9.39116,-16.2564,1020.09
63392,3.01769,25.2654,-9.92348,38.29,-112,-487.69,50.1635,-8.52765,-17.5271,1020.09
