Timestamp,AccX,AccY,AccZ,AngularVelX,AngularVelY,AngularVelZ,MagX,MagY,MagZ,AirPressure
94808,-0.0047824,9.83261,0.153037,1.75,-2.52,-0.21,-20.8512,-43.8083,17.3895,1020.12
94814,0.0095648,9.79914,0.200861,1.75,-3.08,-0.14,-20.6478,-46.8306,17.6259,1020.12
94820,-0.0095648,9.83261,0.162602,1.82,-3.15,-0.28,-21.4614,-47.4782,15.2322,1020.13
94826,-0.0286944,9.84696,0.13869,1.68,-2.45,0.21,-21.5486,-44.6718,17.2417,1020.13
94832,0.0095648,9.84696,0.114778,1.54,-2.73,0.14,-21.4033,-44.9802,16.8576,1020.13
94838,-0.0191296,9.84218,0.167384,1.61,-2.8,0.14,-21.5195,-47.5091,15.2322,1020.13
94844,-0.0382592,9.79914,0.153037,1.82,-3.29,0.21,-21.9554,-46.0596,15.6163,1020.13
94850,-0.023912,9.80392,0.133907,1.33,-2.87,0.63,-21.229,-44.0242,16.3995,1020.14
94856,0.0047824,9.82305,0.148254,1.89,-3.43,0.63,-21.5195,-46.7689,15.2322,1020.14
94862,-0.023912,9.79914,0.13869,1.96,-2.8,1.05,-22.2169,-46.5531,15.7937,1020.17
94868,0.0286944,9.77044,0.162602,1.61,-2.87,1.05,-21.1418,-44.2092,17.7737,1020.17
94874,0.0191296,9.82783,0.162602,2.17,-3.36,0.7,-20.9965,-45.412,16.3995,1020.16
94880,0.0286944,9.79914,0.13869,1.82,-3.08,0.77,-21.5486,-47.7558,15.4833,1020.16
94886,0.0573888,9.83261,0.109995,1.82,-3.08,0.63,-20.9093,-45.4737,16.2369,1020.16
94892,0.124342,9.87087,0.0765184,1.82,-2.8,0.21,-21.0256,-45.1036,16.1926,1020.12
94898,0.0908656,9.86609,0.0813008,1.54,-2.17,-0.07,-21.4033,-47.6633,15.1287,1020.12
94904,0.0669536,9.84696,0.191296,1.33,-2.66,0.07,-21.4614,-46.8923,16.0449,1020.14
94910,0.133907,9.84696,0.0860832,1.68,-3.15,0.14,-20.6478,-44.4868,16.7689,1020.14
94916,0.071736,9.89957,0.0573888,1.47,-2.38,-0.7,-21.0837,-46.5531,15.9119,1020.14
94922,-0.0095648,9.82783,0.10043,1.4,-2.1,-0.91,-21.5776,-47.1082,15.4242,1020.14
94928,-0.0334768,9.8087,0.200861,1.4,-2.52,-0.84,-20.212,-43.9625,16.5768,1020.09
94934,-0.0047824,9.8087,0.13869,1.61,-2.59,-0.56,-20.4735,-45.3195,16.7985,1020.09
94940,0.0334768,9.82305,0.13869,1.68,-2.59,-0.28,-21.0546,-48.1876,15.2026,1020.13
94946,-0.0047824,9.8374,0.148254,1.47,-2.24,-0.42,-21.0546,-45.4428,16.4438,1020.13
94952,-0.0430416,9.81827,0.13869,1.54,-2.66,-0.14,-21.0837,-44.641,16.8723,1020.13
94958,-0.0334768,9.8087,0.148254,1.89,-3.01,0.14,-21.6067,-47.8175,13.5624,1020.1
94964,-0.023912,9.81827,0.13869,1.05,-2.94,0.63,-20.9675,-46.4297,15.0844,1020.1
94970,0.0047824,9.82305,0.172166,1.61,-2.66,0.49,-20.7059,-44.7952,16.2222,1020.13
94976,0,9.80392,0.176949,1.12,-2.87,0.35,-21.1127,-46.9231,14.9366,1020.13
94982,0.0047824,9.79436,0.181731,1.33,-2.59,0.77,-21.7229,-46.7998,14.8036,1020.14
94988,0.0526064,9.82783,0.181731,1.61,-2.87,0.98,-20.9675,-44.055,17.1974,1020.14
94994,0.0669536,9.83261,0.133907,1.68,-2.31,0.98,-20.5607,-45.6279,15.2174,1020.11
95000,0.0621712,9.84218,0.11956,1.68,-2.31,0.56,-21.6358,-47.324,16.3108,1020.11
95006,0.047824,9.85174,0.133907,1.75,-2.1,0.28,-21.6067,-45.7821,16.1926,1020.11
95012,0.0382592,9.87087,0.10043,1.54,-2.66,0.14,-21.6358,-45.2269,16.1631,1020.12
95018,0.105213,9.85653,0.0860832,1.89,-2.52,0.21,-21.8392,-47.9408,16.3256,1020.12
95024,0.0621712,9.89479,0.0860832,1.89,-2.24,-0.28,-21.8101,-46.5531,16.0005,1020.15
95030,0.0334768,9.88044,0.0860832,1.47,-2.24,-0.28,-21.1709,-43.7775,17.0496,1020.15
95036,0,9.82305,0.143472,1.89,-2.31,0.14,-21.3452,-47.7558,16.1778,1020.13
95042,-0.0143472,9.81349,0.148254,1.4,-2.31,-0.14,-20.7059,-47.6016,14.449,1020.13
95048,0.0191296,9.84218,0.124342,1.96,-2.87,-0.63,-21.1418,-44.4559,16.2074,1020.14
95054,0.0047824,9.84696,0.105213,1.82,-2.66,-0.07,-20.9675,-45.7204,16.6802,1020.14
95060,0,9.8374,0.13869,1.61,-2.52,-17.85,-20.9093,-48.1876,15.5572,1020.14
95066,0,9.80392,0.186514,1.61,-2.45,0.28,-21.4033,-45.597,17.0496,1020.15
95072,0.0047824,9.81827,0.153037,1.47,-2.52,0.21,-20.6769,-44.641,17.4782,1020.15
95078,0.023912,9.84218,0.143472,1.54,-2.94,0.14,-21.6067,-47.6941,16.4734,1020.12
95084,0.0143472,9.78479,0.143472,1.19,-2.59,0.63,-21.0837,-46.8306,16.0005,1020.12
95090,0.0095648,9.8087,0.172166,1.68,-2.52,0.7,-21.0837,-44.0242,16.4881,1020.15
95096,0.0382592,9.81827,0.153037,1.47,-2.38,0.07,-21.1709,-47.1082,16.7246,1020.15
95102,-0.0047824,9.80392,0.153037,1.82,-3.08,0.35,-21.6067,-47.4166,14.7593,1020.1
95108,0.0621712,9.83261,0.162602,1.89,-2.59,0.14,-20.9093,-44.5485,16.7098,1020.1
95114,0.124342,9.86609,0.0573888,1.75,-2.38,0,-21.3452,-45.7512,15.9857,1020.12
95120,0.0765184,9.89957,0.0813008,1.54,-2.45,-0.35,-21.1709,-47.7866,14.7002,1020.12
95126,-0.0047824,9.78957,0.162602,1.75,-2.59,-0.28,-20.735,-44.826,16.3108,1020.12
95132,0.0334768,9.8374,0.13869,2.03,-2.87,-0.63,-21.0546,-44.3943,17.3895,1020.13
95138,0.071736,9.84218,0.129125,2.1,-2.31,-0.28,-20.6478,-47.5399,16.0301,1020.13
95144,0.0286944,9.82783,0.13869,1.61,-2.03,-0.63,-21.1127,-46.2755,16.5177,1020.13
95150,0.0143472,9.81827,0.13869,1.96,-2.52,-0.91,-21.229,-44.8877,16.2074,1020.13
95156,-0.023912,9.81349,0.153037,2.03,-2.8,-0.49,-20.3863,-47.4166,15.4981,1020.11
95162,-0.0526064,9.8374,0.210426,2.17,-2.94,0.07,-21.6648,-46.1213,14.7741,1020.11
95168,0.023912,9.84218,0.143472,1.75,-3.01,-0.42,-20.9093,-44.4251,15.5277,1020.17
95174,0.0191296,9.83261,0.13869,2.03,-2.94,-0.42,-20.8512,-45.7512,15.4538,1020.17
95180,0,9.81349,0.143472,1.82,-2.66,0,-19.9214,-47.5399,14.8184,1020.17
95186,-0.0191296,9.81827,0.143472,1.54,-3.01,0.07,-20.6769,-43.8392,16.6359,1020.16
95192,-0.0143472,9.8374,0.153037,2.1,-2.87,0.21,-20.6478,-44.6101,17.3747,1020.16
95198,0.0047824,9.82783,0.11956,1.61,-3.15,0.42,-21.229,-46.9848,14.9662,1020.14
95204,0.0095648,9.85174,0.148254,1.89,-2.8,0.49,-21.3452,-45.9671,15.4686,1020.14
95210,0,9.82305,0.13869,1.68,-2.8,0.7,-21.3452,-44.0242,16.3404,1020.15
95216,0.0095648,9.81349,0.129125,1.75,-3.08,0.28,-21.1999,-46.5222,16.3699,1020.15
95222,0.0143472,9.78957,0.148254,1.68,-2.8,0,-21.5486,-46.7998,16.1631,1020.12
95228,0.0621712,9.8374,0.129125,1.82,-2.66,0.91,-20.5607,-44.2709,16.1483,1020.12
95234,0.0621712,9.84696,0.10043,1.33,-2.73,0.21,-20.9384,-45.2886,16.7985,1020.12
95240,0.0573888,9.85174,0.114778,1.82,-2.8,-0.21,-21.3742,-47.9408,14.4342,1020.14
95246,0.0286944,9.84696,0.148254,1.61,-2.45,0,-21.3452,-45.5662,16.1631,1020.14
95252,0.0095648,9.82305,0.153037,1.4,-2.8,0.28,-20.8512,-45.3195,16.6064,1020.17
95258,0.0286944,9.81827,0.11956,1.75,-2.66,-0.35,-21.0256,-48.4343,15.5572,1020.17
95264,0.0860832,9.88522,0.0143472,1.75,-2.38,17.57,-20.7641,-46.3372,15.8084,1020.16
95270,0.0669536,9.87566,0.0908656,1.26,-2.1,-0.49,-20.8222,-43.7775,16.0596,1020.16
95276,-0.0286944,9.78001,0.167384,1.4,-2.24,0.14,-21.1999,-47.5091,16.0892,1020.13
95282,-0.0047824,9.8087,0.153037,1.68,-2.73,-0.35,-20.9675,-47.8792,15.2913,1020.13
95288,0.0286944,9.79914,0.153037,1.68,-2.59,-0.28,-20.5025,-44.9802,15.971,1020.14
95294,0.0382592,9.81349,0.172166,1.4,-2.24,0.28,-20.2701,-46.0596,17.4782,1020.14
95300,-0.0047824,9.85653,0.114778,1.4,-2.38,0.21,-21.4033,-47.9408,15.2913,1020.14
95306,0.0047824,9.81349,0.124342,1.33,-2.24,-0.28,-20.241,-45.5045,17.1826,1020.12
95312,0.0191296,9.81349,0.162602,1.82,-2.8,0.07,-20.5025,-44.9185,16.5325,1020.12
95318,-0.0095648,9.8087,0.186514,1.68,-2.24,0.56,-21.4033,-47.2315,15.572,1020.15
95324,-0.0191296,9.78479,0.153037,1.54,-2.45,-0.28,-21.3452,-46.0288,17.1383,1020.15
95330,0.0191296,9.80392,0.124342,1.47,-2.59,0.14,-20.4735,-43.9317,17.0496,1020.12
95336,0.0095648,9.83261,0.114778,1.75,-2.38,-0.21,-21.1999,-47.1082,16.562,1020.12
95342,0.0430416,9.79436,0.143472,1.33,-2.45,0.56,-21.6648,-47.9408,13.8727,1020.14
95348,0,9.8374,0.109995,1.47,-2.45,0.56,-20.8512,-44.5176,17.0201,1020.14
95354,0.0047824,9.8374,0.124342,1.82,-2.8,0.42,-20.7931,-45.6587,15.4833,1020.14
95360,0.0047824,9.8374,0.157819,1.4,-2.59,0.14,-21.4033,-47.8175,15.9857,1020.16
95366,0.0813008,9.82783,0.114778,1.54,-2.38,-0.21,-21.1999,-45.2886,16.9462,1020.16
95372,0.071736,9.85174,0.11956,1.47,-2.45,0.14,-20.5025,-44.641,16.4143,1020.11
95378,0.0191296,9.8374,0.11956,1.4,-2.59,-0.14,-20.7641,-46.9231,15.4686,1020.11
95384,0.0382592,9.84218,0.11956,1.68,-2.66,0.07,-21.4033,-46.7381,15.0105,1020.13
95390,0.023912,9.8374,0.153037,1.33,-2.66,0.07,-20.6478,-44.0242,16.3995,1020.13
95396,0.0334768,9.81827,0.153037,1.19,-2.31,-0.35,-20.8803,-47.0773,15.8232,1020.14
95402,0.0143472,9.85653,0.129125,1.54,-2.59,0.28,-21.5486,-47.2624,14.8627,1020.14
95408,0.0047824,9.8374,0.143472,2.1,-3.01,-0.07,-20.7641,-45.0111,15.3799,1020.13
95414,0,9.82783,0.162602,1.19,-2.8,0.35,-20.9384,-45.9054,15.8084,1020.13
95420,0.0095648,9.81349,0.143472,1.54,-2.38,0.7,-21.4614,-47.725,14.981,1020.13
95426,0.0047824,9.80392,0.153037,1.89,-3.01,0.07,-21.6939,-45.7512,15.7641,1020.16
95432,0.0669536,9.81349,0.153037,1.75,-2.73,0.28,-20.6769,-45.1036,16.5029,1020.16
95438,0.0573888,9.83261,0.129125,1.89,-2.94,0.21,-21.6648,-48.0025,15.4538,1020.14
95444,0.124342,9.88044,0.0621712,1.4,-2.38,-0.35,-21.4033,-46.368,14.7593,1020.14
95450,0.11956,9.87566,0.095648,2.03,-2.45,-0.7,-19.9505,-44.3943,15.9414,1020.15
95456,0.0191296,9.84696,0.124342,1.33,-2.52,-0.42,-20.6769,-46.6456,14.981,1020.15
95462,0.0095648,9.85174,0.13869,1.89,-2.38,-0.7,-21.6939,-46.9848,14.6854,1020.15
95468,0.114778,9.86131,0.10043,1.4,-2.38,-0.63,-21.1709,-44.5485,16.1187,1020.15
95474,0.0382592,9.8374,0.114778,1.75,-2.03,-0.84,-21.0546,-45.5353,17.3452,1020.15
95480,-0.0047824,9.8087,0.200861,1.47,-2.1,-0.42,-21.5486,-47.9717,14.9366,1020.1
95486,-0.047824,9.79436,0.172166,1.96,-2.8,-0.63,-20.8803,-45.9979,16.4143,1020.1
95492,0,9.8374,0.153037,1.75,-2.66,-0.28,-20.2991,-45.1036,17.2417,1020.13
95498,0,9.78957,0.129125,1.89,-3.01,-0.35,-21.1999,-47.7558,15.6311,1020.13
95504,0.0191296,9.81349,0.133907,1.89,-2.87,-0.28,-21.2871,-46.6456,16.3699,1020.14
95510,-0.0143472,9.83261,0.129125,1.4,-2.45,-0.35,-21.1709,-44.055,17.4634,1020.14
95516,-0.0191296,9.85174,0.143472,2.03,-3.08,-0.28,-20.5897,-47.2624,16.2665,1020.12
95522,0.0143472,9.84696,0.148254,1.68,-2.52,-0.56,-20.735,-48.2492,16.4438,1020.12
95528,0.0143472,9.82783,0.181731,1.61,-2.66,-0.28,-21.258,-45.0727,15.7198,1020.12
95534,0.0430416,9.8374,0.148254,1.61,-2.45,-0.14,-20.7641,-46.3372,16.4586,1020.11
95540,0.023912,9.81349,0.153037,1.54,-2.38,-0.42,-21.752,-48.0642,15.8675,1020.11
95546,0,9.85174,0.109995,1.47,-2.45,-0.14,-21.3742,-45.8437,15.3947,1020.13
95552,0.071736,9.83261,0.148254,1.68,-3.01,-0.42,-21.1709,-44.4251,16.7393,1020.13
95558,0.0573888,9.82305,0.157819,1.75,-2.66,0.07,-21.2871,-48.5885,15.5129,1020.13
95564,0.0191296,9.8374,0.105213,1.47,-2.38,-0.42,-20.5316,-46.7998,15.3799,1020.13
95570,0.0095648,9.83261,0.153037,1.82,-2.59,-0.35,-21.2871,-44.2401,16.429,1020.13
95576,0.0382592,9.83261,0.13869,1.54,-2.8,-0.7,-21.0837,-47.5091,15.3356,1020.13
95582,0.0382592,9.86131,0.129125,1.89,-2.73,-0.7,-21.6648,-47.2007,14.4342,1020.12
95588,0.047824,9.85174,0.114778,1.82,-2.59,-0.56,-21.1418,-44.4559,14.449,1020.12
95594,0.047824,9.85653,0.0860832,2.17,-2.52,-0.49,-21.0256,-45.5045,15.9857,1020.12
95600,0.047824,9.87087,0.0621712,1.89,-1.68,-1.12,-21.2871,-48.4343,15.1878,1020.13
95606,0,9.81349,0.143472,1.4,-1.82,-1.05,-20.6188,-45.4428,15.9414,1020.13
95612,-0.047824,9.79914,0.167384,1.82,-2.52,-0.28,-19.8633,-44.8569,16.7541,1020.13
95618,-0.0047824,9.8087,0.143472,1.96,-2.87,-0.56,-21.6358,-47.2624,15.4686,1020.13
95624,-0.0095648,9.82305,0.0813008,2.24,-2.45,-0.49,-21.3742,-46.9231,15.6311,1020.12
95630,-0.0143472,9.8087,0.13869,1.82,-2.52,-0.42,-20.8803,-44.9802,15.173,1020.12
95636,-0.0526064,9.78479,0.143472,1.96,-2.94,-0.77,-21.1418,-46.8306,16.2961,1020.13
95642,-0.0095648,9.81827,0.124342,1.75,-2.73,-0.21,-21.1709,-47.725,14.5524,1020.13
95648,-0.0143472,9.81827,0.129125,1.82,-2.52,-0.35,-21.4324,-44.826,15.5572,1020.13
95654,0.0143472,9.84218,0.133907,1.54,-2.31,-0.21,-21.0256,-46.2447,16.0449,1020.13
95660,0.0191296,9.8374,0.0908656,1.75,-2.59,-0.35,-21.8973,-48.4651,15.1878,1020.13
95666,0.0286944,9.84696,0.143472,1.89,-2.03,-0.7,-21.3161,-45.9363,15.173,1020.13
95672,0.0526064,9.81349,0.114778,2.38,-2.73,-0.56,-21.8682,-44.7643,16.1187,1020.13
95678,0.0526064,9.85653,0.105213,2.1,-1.82,-0.63,-21.5486,-47.8175,16.6359,1020.11
95684,0.0286944,9.86131,0.0908656,1.82,-1.96,-0.77,-20.4154,-46.0596,16.2074,1020.11
95690,0.0095648,9.84218,0.124342,1.89,-2.38,-1.26,-21.4324,-44.5176,16.104,1020.14
95696,-0.023912,9.8374,0.153037,2.24,-2.38,-0.91,-20.4735,-46.8923,15.6607,1020.14
95702,-0.0191296,9.83261,0.162602,2.03,-2.31,-0.56,-21.3742,-47.5399,15.8084,1020.14
95708,-0.023912,9.79436,0.143472,1.89,-2.17,-0.7,-20.735,-44.5485,15.4981,1020.13
95714,-0.0621712,9.81827,0.167384,2.24,-2.59,-0.84,-19.9214,-45.1653,15.4242,1020.13
95720,-0.0286944,9.8374,0.133907,1.89,-2.17,-0.49,-21.4905,-47.8483,15.8232,1020.13
95726,-0.047824,9.81827,0.129125,1.75,-2.8,-0.35,-20.4154,-44.6101,15.0105,1020.13
95732,-0.0191296,9.8087,0.162602,2.1,-2.66,-0.28,-20.3282,-44.3634,16.5916,1020.16
95738,-0.0286944,9.84218,0.153037,2.17,-2.38,0,-20.6769,-46.6147,14.9366,1020.16
95744,-0.0573888,9.81349,0.172166,1.89,-2.66,-0.21,-20.6478,-45.7512,14.8923,1020.15
95750,-0.0382592,9.8087,0.162602,1.68,-2.66,0,-20.6188,-45.0111,15.9857,1020.15
95756,0,9.81349,0.114778,1.89,-2.8,0.28,-21.0256,-46.9231,15.4538,1020.16
95762,0.0095648,9.81349,0.13869,1.75,-2.66,-0.28,-21.1127,-46.9848,16.6802,1020.16
95768,-0.023912,9.84696,0.11956,1.82,-2.59,0.14,-20.7059,-44.4559,16.2222,1020.16
95774,0.0334768,9.8374,0.13869,1.75,-2.87,-0.14,-21.4324,-45.1344,13.4147,1020.14
95780,-0.0095648,9.83261,0.095648,1.54,-2.87,-0.35,-21.5776,-47.7866,16.7246,1020.14
95786,-0.0143472,9.85174,0.109995,1.89,-2.52,0.07,-21.229,-45.7512,16.8576,1020.14
95792,-0.0047824,9.78957,0.124342,1.82,-2.17,0.56,-21.1999,-44.641,17.1235,1020.14
95798,0.0047824,9.81827,0.153037,1.96,-2.45,-0.28,-21.1999,-46.8615,17.4191,1020.12
95804,-0.0095648,9.87566,0.13869,1.47,-2.73,-0.07,-21.2871,-46.0905,15.6902,1020.12
95810,0.0191296,9.82783,0.143472,1.96,-2.73,-17.64,-20.7931,-43.8083,16.6359,1020.09
95816,-0.0286944,9.83261,0.133907,2.03,-2.59,-0.14,-20.5025,-46.2138,16.5177,1020.09
95822,-1.20038,9.79914,0.143472,2.45,-2.52,0.14,-20.9093,-47.4166,15.2322,1020.09
95828,-0.023912,9.84696,0.13869,1.82,-2.87,-0.07,-21.1999,-44.1476,16.1926,1020.16
95834,0,9.8374,0.109995,1.82,-2.45,0,-20.6188,-45.2578,15.5572,1020.16
95840,-0.0382592,9.79914,0.153037,2.1,-2.45,0.49,-21.4905,-47.9717,15.0844,1020.12
95846,-0.0095648,9.8087,0.114778,1.61,-2.52,0.21,-21.6648,-45.3195,16.104,1020.12
95852,-0.0047824,9.82783,0.0908656,1.96,-2.52,0.07,-21.3161,-43.87,16.5473,1020.11
95858,-0.0382592,9.82305,0.0908656,1.68,-2.52,0.21,-21.781,-47.1082,16.3699,1020.11
95864,-0.0047824,9.8374,0.143472,1.47,-2.45,0.49,-21.4033,-46.8923,15.5868,1020.14
95870,0.0095648,9.84218,0.0908656,2.24,-2.52,-0.07,-20.9965,-43.9317,16.7541,1020.14
95876,0.0334768,9.87566,0.071736,1.96,-2.45,-0.21,-21.8101,-46.1213,15.5277,1020.14
95882,0.0430416,9.86131,0.109995,1.68,-2.17,-0.42,-21.8682,-47.7866,15.5129,1020.11
95888,0.0526064,9.8374,0.129125,1.75,-2.52,-0.49,-21.3742,-45.1961,16.5029,1020.11
95894,-0.0095648,9.8087,0.114778,1.75,-1.96,-0.07,-21.3742,-45.0111,15.7493,1020.12
95900,-0.0430416,9.83261,0.0765184,1.61,-2.45,-0.28,-21.0837,-48.2801,14.1239,1020.12
95906,0.0191296,9.79914,0.124342,1.54,-2.45,-0.77,-20.5607,-45.5045,15.0844,1020.15
95912,-0.0286944,9.83261,0.167384,1.96,-2.45,-0.49,-20.8803,-44.9802,16.6802,1020.15
95918,-0.0191296,9.84218,0.143472,1.54,-2.73,-0.21,-21.0256,-47.2932,16.1778,1020.14
95924,-0.0430416,9.81827,0.11956,2.17,-2.8,-0.21,-21.5486,-46.954,15.0844,1020.14
95930,-0.047824,9.82783,0.133907,1.68,-2.87,-0.42,-20.5607,-44.0859,16.0744,1020.12
95936,-0.0143472,9.80392,0.109995,1.68,-2.59,0.21,-20.9965,-46.3989,16.1926,1020.12
95942,-0.023912,9.82783,0.153037,1.61,-2.59,0.56,-20.5897,-47.7558,14.7298,1020.12
95948,-0.023912,9.80392,0.129125,1.47,-2.59,0.28,-21.7229,-45.1344,15.1287,1020.16
95954,-0.0047824,9.82783,0.0860832,1.54,-2.73,0.35,-21.0837,-45.1344,15.8232,1020.16
95960,-0.023912,9.87566,0.0765184,1.33,-2.66,0.35,-21.1709,-48.4343,15.6607,1020.14
95966,-0.0286944,9.78001,0.129125,1.26,-2.24,0.63,-21.1418,-46.0905,14.7889,1020.14
95972,-0.0334768,9.81349,0.162602,1.4,-2.73,0.35,-20.7059,-44.5176,16.5916,1020.14
95978,0.0143472,9.82783,0.129125,1.89,-3.15,-0.07,-21.5776,-47.1698,12.7202,1020.14
95984,0.0382592,9.87087,0.0526064,1.4,-2.8,-0.42,-20.5607,-47.2624,14.8036,1020.16
95990,0.0143472,9.87566,0.0813008,0.98,-1.89,0.21,-20.5607,-43.8083,16.0744,1020.16
95996,0.0095648,9.80392,0.153037,1.12,-2.45,0.35,-21.0546,-46.5531,14.6263,1020.16
96002,0.023912,9.82783,0.129125,1.61,-2.24,-0.49,-21.4033,-48.2184,15.2174,1020.17
96008,0.0621712,9.86131,0.095648,1.33,-2.52,0.07,-20.9384,-44.9494,17.094,1020.17
96014,0.0191296,9.84696,0.10043,1.12,-2.66,-0.56,-20.735,-45.1653,15.2322,1020.14
96020,-0.0143472,9.81827,0.148254,1.61,-2.17,-0.49,-21.0837,-48.3418,15.5277,1020.14
96026,-0.0669536,9.79914,0.157819,1.68,-2.8,-0.21,-20.2991,-45.7512,17.094,1020.15
96032,-0.0382592,9.8374,0.148254,1.4,-2.38,-0.49,-20.0958,-44.3326,16.2813,1020.15
96038,0.0047824,9.81827,0.129125,1.61,-2.66,-0.14,-21.229,-47.1698,16.1778,1020.12
96044,-0.0143472,9.85174,0.114778,1.82,-2.73,-0.35,-21.5195,-47.6324,14.9071,1020.12
96050,-0.0430416,9.82305,0.11956,1.47,-2.03,0.14,-20.6769,-43.7158,17.0792,1020.12
96056,-0.0334768,9.81349,0.153037,1.54,-2.45,0.07,-20.4735,-45.7512,17.0053,1020.14
96062,0.0286944,9.81827,0.172166,1.54,-2.52,0.42,-21.1418,-47.6633,15.9414,1020.14
96068,0.0286944,9.8374,0.109995,1.47,-2.59,0,-20.8512,-44.3943,16.2222,1020.15
96074,0.0143472,9.86131,0.105213,1.54,-2.31,0.07,-20.241,-44.7335,16.1926,1020.15
96080,-0.0191296,9.8374,0.071736,1.54,-2.45,-0.07,-21.1418,-47.7558,16.3995,1020.14
96086,-0.0286944,9.82305,0.172166,1.26,-2.17,0.56,-20.212,-45.9054,16.2961,1020.14
96092,-0.0047824,9.8374,0.133907,1.61,-2.87,-0.21,-19.9505,-43.9625,16.8723,1020.13
96098,0.0095648,9.88522,0.129125,1.89,-2.59,-0.63,-20.735,-47.2007,16.5473,1020.13
96104,0.0047824,9.8374,0.0765184,1.26,-2.1,-0.07,-20.9384,-46.954,15.6311,1020.13
96110,-0.0143472,9.79436,0.143472,1.82,-2.24,0,-20.5607,-44.7335,16.2961,1020.13
96116,-0.0334768,9.81349,0.186514,1.68,-2.66,-0.7,-20.2991,-45.7204,15.8084,1020.13
96122,0.0286944,9.87566,0.0765184,2.1,-2.66,-0.28,-21.1127,-47.6016,15.5129,1020.16
96128,0.0047824,9.86609,0.0669536,1.47,-2.24,-0.42,-20.7931,-44.641,17.1679,1020.16
96134,-0.0573888,9.82783,0.157819,1.54,-2.38,-0.21,-20.3573,-44.8877,17.1088,1020.15
96140,-0.0526064,9.8087,0.200861,1.89,-2.94,-0.35,-20.9384,-47.5708,16.3256,1020.15
96146,-0.023912,9.85653,0.109995,2.1,-2.94,-0.42,-20.6769,-45.5353,17.0201,1020.15
96152,-0.0095648,9.82305,0.0860832,2.03,-2.73,-0.63,-20.6769,-44.5176,16.1483,1020.15
96158,0.0143472,9.87087,0.0765184,1.82,-2.59,-0.14,-20.5607,-47.324,17.2417,1020.12
96164,-0.0382592,9.86609,0.0860832,1.68,-2.38,-0.07,-21.8973,-46.6764,15.1878,1020.12
96170,-0.0526064,9.8087,0.186514,1.82,-2.38,-0.7,-20.5025,-44.1476,16.7985,1020.12
96176,0.0095648,9.86131,0.109995,2.1,-2.66,-0.49,-20.5316,-46.7689,16.1483,1020.13
96182,0.0047824,9.86609,0.0669536,1.54,-2.38,-0.28,-21.2871,-47.2932,14.7889,1020.13
96188,-0.0095648,9.81827,0.162602,1.96,-2.8,-0.42,-21.1999,-45.5662,15.5868,1020.14
96194,-0.023912,9.78479,0.167384,1.96,-3.08,-0.7,-21.4033,-45.5662,16.8723,1020.14
96200,-0.023912,9.84696,0.157819,2.38,-3.01,-0.14,-21.2871,-47.9717,16.4438,1020.15
96206,0.0286944,9.85174,0.071736,2.24,-2.38,-1.33,-21.0256,-45.8437,16.9462,1020.15
96212,0.0047824,9.83261,0.0669536,1.89,-2.1,-0.91,-20.4735,-44.3943,17.4191,1020.13
96218,-0.023912,9.81349,0.124342,2.31,-2.59,-0.49,-21.258,-46.954,15.2469,1020.13
96224,-0.023912,9.84696,0.133907,2.1,-2.24,-1.05,-21.2871,-46.8615,16.6064,1020.13
96230,0,9.83261,0.10043,2.45,-2.66,-0.7,-20.8803,-43.7775,15.7345,1020.1
96236,-0.0286944,9.8087,0.157819,2.03,-2.38,-0.84,-20.6769,-46.4605,16.1926,1020.1
96242,-0.023912,9.85653,0.124342,2.17,-2.03,-0.98,-21.0256,-47.1082,15.2617,1020.12
96248,-0.0047824,9.8374,0.109995,2.31,-2.24,-1.19,-21.0546,-45.2578,16.7541,1020.12
96254,-0.0095648,9.88044,0.0908656,2.1,-2.45,-1.05,-20.9675,-45.2886,17.2861,1020.15
96260,-0.0573888,9.78957,0.172166,2.03,-2.17,-0.7,-21.1127,-47.6633,16.2961,1020.15
96266,-0.0621712,9.81827,0.124342,2.8,-2.66,-1.26,-21.1709,-46.5222,15.8528,1020.14
96272,-0.0334768,9.8374,0.071736,2.17,-2.38,-0.91,-20.3573,-44.5485,16.562,1020.14
96278,-0.0286944,9.85174,0.0908656,2.24,-2.31,-0.7,-20.8222,-47.4166,16.0301,1020.15
96284,-0.0669536,9.82305,0.133907,1.89,-2.45,-0.56,-20.9675,-46.954,15.6902,1020.15
96290,-0.0526064,9.80392,0.143472,2.17,-2.59,-0.63,-20.735,-44.7027,17.0201,1020.15
96296,-0.0573888,9.83261,0.11956,2.17,-2.52,0.14,-20.9384,-46.2447,15.2174,1020.1
96302,-0.0621712,9.80392,0.13869,1.96,-3.22,-0.84,-20.9965,-48.095,15.3799,1020.1
96308,-0.071736,9.80392,0.11956,1.75,-3.29,-0.42,-21.258,-45.6279,15.5129,1020.11
96314,-0.0669536,9.8087,0.162602,1.75,-1.82,0.35,-21.258,-44.3634,16.9314,1020.11
96320,-0.047824,9.85174,0.095648,2.24,-2.87,-0.84,-21.5195,-47.9408,16.2517,1020.15
96326,-0.0095648,9.82305,0.105213,1.89,-2.66,-0.56,-21.0546,-46.1213,16.8871,1020.15
96332,-0.047824,9.84696,0.0813008,2.1,-2.59,0.56,-20.5607,-44.1784,17.5373,1020.12
96338,-0.0573888,9.87087,0.0813008,1.33,-2.38,-0.07,-20.5607,-46.7073,15.7198,1020.12
96344,-0.0382592,9.8374,0.10043,2.03,-3.36,-1.05,-21.3742,-46.9848,15.6754,1020.12
96350,-0.0765184,9.83261,0.133907,1.68,-2.52,-0.21,-20.7641,-44.1784,16.3847,1020.12
96356,-0.0334768,9.85653,0.0860832,1.96,-2.17,-0.84,-20.2701,-45.8129,14.5672,1020.12
96362,-0.0621712,9.88522,0.0621712,1.75,-2.52,0,-20.9384,-47.6633,15.4686,1020.13
96368,-0.0908656,9.82305,0.095648,1.68,-1.68,0,-20.5316,-45.7512,16.7393,1020.13
96374,-0.071736,9.79914,0.0860832,2.03,-2.45,-0.77,-20.4154,-44.8569,17.0644,1020.15
96380,-0.071736,9.85653,0.129125,1.75,-2.87,-0.63,-20.5025,-48.1567,14.3603,1020.15
96386,-0.0669536,9.85653,0.129125,1.75,-2.73,0.14,-21.2871,-46.1521,16.2074,1020.16
96392,-0.0526064,9.85174,0.10043,1.4,-2.52,-0.28,-20.3282,-44.6101,16.2369,1020.16
96398,-0.0669536,9.78957,0.114778,1.68,-2.52,-0.21,-20.4444,-47.4166,16.429,1020.16
96404,-0.0813008,9.79914,0.148254,1.54,-2.59,-0.21,-20.5025,-47.5708,15.9857,1020.16
96410,-0.047824,9.83261,0.10043,1.89,-2.45,0.14,-20.735,-44.1167,17.2565,1020.16
96416,-0.0286944,9.89,0.071736,1.68,-2.59,0.28,-20.5607,-46.4605,16.2222,1020.14
96422,-0.0143472,9.82783,0.0908656,1.54,-2.03,17.57,-20.8222,-48.0642,15.6754,1020.14
96428,-0.0286944,9.79436,0.157819,2.1,-2.66,-0.49,-20.7931,-44.7952,17.0349,1020.15
96434,-0.0430416,9.85174,0.0765184,2.1,-2.59,-0.77,-20.9675,-45.2578,17.1974,1020.15
96440,-0.0526064,9.87566,0.0382592,1.54,-2.52,-0.56,-20.9965,-47.7866,16.5473,1020.13
96446,-0.023912,9.81827,0.0765184,2.03,-2.59,-0.49,-20.6769,-46.183,16.7098,1020.13
96452,-0.0669536,9.84218,0.0813008,2.03,-2.38,-0.7,-20.4154,-44.5176,16.3256,1020.1
96458,-0.023912,9.84218,0.0813008,1.4,-2.24,-0.49,-20.5316,-47.4474,15.3356,1020.1
96464,-0.0573888,9.84218,0.0813008,2.31,-2.38,-0.7,-21.0837,-47.725,14.715,1020.1
96470,-0.105213,9.8374,0.11956,2.17,-2.66,-0.84,-20.7641,-44.7027,16.0744,1020.14
96476,-0.0813008,9.81827,0.105213,2.1,-2.17,-0.35,-20.5607,-45.5045,15.4538,1020.14
96482,-0.0813008,9.79914,0.0908656,1.82,-2.38,-0.35,-20.8512,-48.496,14.6559,1020.13
96488,-0.0860832,9.8087,0.105213,1.96,-2.66,-0.42,-21.0837,-45.8746,16.0744,1020.13
96494,-0.105213,9.87087,0.0860832,2.1,-2.87,-0.35,-20.3863,-45.0727,15.8232,1020.08
96500,-0.0765184,9.83261,0.0621712,1.96,-2.38,0.21,-21.3161,-47.725,13.6806,1020.08
96506,-0.0908656,9.84696,0.114778,1.61,-2.17,0,-20.9093,-46.1521,15.5572,1020.16
96512,-0.0621712,9.79914,0.143472,1.75,-2.24,-0.21,-20.2991,-44.1167,16.5325,1020.16
96518,-0.0621712,9.81349,0.143472,2.1,-2.8,-0.07,-20.6478,-47.6941,15.4686,1020.16
96524,-0.0382592,9.82305,0.0669536,1.89,-2.94,0.14,-20.9675,-46.954,15.838,1020.14
96530,-0.0334768,9.8087,0.114778,1.61,-2.59,-0.28,-20.6188,-44.7643,15.3651,1020.14
96536,0,9.86609,0.047824,2.03,-2.8,-0.21,-21.258,-46.2138,17.0349,1020.11
96542,-0.023912,9.89479,0.0143472,2.24,-2.73,-0.42,-21.229,-48.6193,14.9957,1020.11
96548,-0.0191296,9.85174,0.0334768,1.75,-2.31,-0.56,-20.8222,-44.641,16.2074,1020.12
96554,-0.0860832,9.80392,0.10043,1.75,-2.66,-0.63,-20.7641,-44.8569,16.2665,1020.12
96560,-0.0573888,9.83261,0.109995,2.17,-2.66,-0.56,-21.9554,-47.3857,15.5129,1020.13
96566,-0.023912,9.8374,0.109995,2.1,-2.52,-0.42,-21.258,-45.9363,16.5916,1020.13
96572,-0.0382592,9.83261,0.114778,2.03,-2.52,-0.7,-20.0667,-44.7027,17.5816,1020.15
96578,-0.10043,9.81827,0.105213,2.03,-2.8,-0.7,-20.735,-47.5091,15.7345,1020.15
96584,-0.105213,9.80392,0.10043,2.24,-2.94,-0.42,-20.8222,-47.6324,16.4438,1020.15
96590,-0.109995,9.81827,0.0908656,1.96,-2.8,-0.14,-20.4154,-44.9185,16.8871,1020.12
96596,-0.0860832,9.8374,0.0860832,1.89,-2.59,-0.56,-21.1418,-46.1213,14.9662,1020.12
96602,-0.0573888,9.82783,0.0669536,2.38,-2.73,-0.21,-21.1418,-48.2801,15.6311,1020.12
96608,-0.0286944,9.85653,0.0526064,2.1,-2.73,0.07,-20.8222,-45.0111,15.7937,1020.12
96614,-0.0813008,9.83261,0.0573888,1.75,-2.8,-0.35,-21.3161,-44.3634,14.9957,1020.14
96620,-0.071736,9.83261,0.0860832,2.1,-2.8,-0.63,-21.6067,-47.4474,15.3799,1020.14
96626,-0.0286944,9.86131,0.0286944,1.68,-2.73,-0.35,-21.3452,-46.1521,14.9218,1020.14
96632,-0.0191296,9.85653,0.0047824,1.47,-2.73,-0.84,-20.7641,-43.6541,15.6902,1020.14
96638,-0.047824,9.88044,0.0573888,2.03,-2.52,-0.56,-20.8512,-46.8923,16.0892,1020.14
96644,-0.0621712,9.82783,0.11956,1.75,-2.17,-0.84,-21.6939,-46.8615,15.1287,1020.13
96650,-0.0860832,9.82783,0.10043,2.03,-2.31,-0.84,-20.8803,-43.8083,16.3256,1020.13
96656,-0.0860832,9.81349,0.095648,2.1,-2.59,-0.49,-20.7931,-45.8437,15.7198,1020.11
96662,-0.0621712,9.84218,0.0765184,2.24,-2.03,-0.77,-20.8803,-47.7866,15.1139,1020.11
96668,-0.0908656,9.81827,0.0765184,1.96,-2.17,-0.35,-20.735,-44.4868,16.6655,1020.16
96674,-0.11956,9.8087,0.0860832,1.89,-2.24,-0.77,-20.3863,-45.2578,17.7589,1020.16
96680,-0.129125,9.81827,0.0908656,2.1,-2.73,-0.42,-20.7641,-47.6324,15.971,1020.11
96686,-0.0669536,9.84696,0.0813008,1.75,-2.66,-0.14,-21.3452,-45.9054,16.2222,1020.11
96692,-0.105213,9.8087,0.0669536,2.24,-2.8,-0.56,-21.3452,-43.5616,17.0644,1020.11
96698,-0.109995,9.81349,0.153037,1.82,-2.31,0.14,-20.9384,-46.6764,15.3208,1020.15
96704,-0.095648,9.81349,0.0669536,1.89,-2.8,-0.35,-21.0256,-47.2007,15.1878,1020.15
96710,-0.0669536,9.79436,0.105213,1.96,-2.73,-0.42,-20.3863,-44.3943,16.9758,1020.1
96716,-0.0430416,9.82305,0.0908656,2.17,-2.38,-0.28,-20.7641,-46.5839,16.1483,1020.1
96722,-0.0382592,9.85653,0.0908656,1.61,-2.45,-0.49,-21.0837,-47.6016,15.5868,1020.14
96728,-0.0813008,9.82305,0.0860832,1.89,-3.01,-0.63,-21.0837,-45.3195,16.7098,1020.14
96734,-0.071736,9.80392,0.109995,1.82,-2.45,-0.35,-21.1999,-45.0727,16.3108,1020.13
96740,-0.095648,9.83261,0.0382592,1.61,-2.1,-0.14,-21.1418,-47.2624,16.1335,1020.13
96746,-0.0621712,9.84696,0.071736,1.54,-2.31,-0.7,-20.7641,-45.7512,16.0596,1020.14
96752,-0.0860832,9.83261,0.0573888,1.89,-2.73,-0.49,-20.0958,-44.4559,18.5273,1020.14
96758,-0.0573888,9.86131,0.047824,2.03,-2.24,-0.56,-20.6188,-46.6147,17.227,1020.14
96764,-0.0813008,9.88044,0.0669536,1.61,-2.66,-0.77,-20.6188,-47.5091,14.6263,1020.15
96770,-0.047824,9.86131,0.071736,2.17,-2.31,-0.63,-20.7641,-45.1344,16.8428,1020.15
96776,-0.0191296,9.85653,0.0334768,1.4,-2.45,-0.91,-20.5025,-46.2447,15.9266,1020.12
96782,-0.0813008,9.84696,0.0573888,1.89,-2.17,-0.84,-20.4444,-47.8175,15.1139,1020.12
96788,-0.133907,9.79914,0.0908656,1.61,-2.17,-0.56,-20.8222,-46.0596,17.227,1020.14
96794,-0.129125,9.79436,0.11956,1.96,-2.59,-0.63,-20.9384,-44.7335,17.1235,1020.14
96800,-0.0908656,9.86609,0.11956,2.1,-2.45,-0.56,-20.5316,-47.2315,16.4586,1020.12
96806,-0.0908656,9.82783,0.0860832,1.61,-2.17,-0.07,-21.4905,-46.0905,15.3208,1020.12
96812,-0.105213,9.81349,0.105213,1.4,-2.24,-0.35,-19.8924,-44.5793,17.0053,1020.12
96818,-0.13869,9.78479,0.157819,1.82,-2.45,-0.07,-20.8512,-47.6016,16.1187,1020.15
96824,-0.0908656,9.8087,0.095648,1.75,-2.59,-0.56,-21.258,-47.7866,15.572,1020.15
96830,-0.0526064,9.84696,0.0621712,1.89,-2.87,-0.35,-20.5897,-43.9625,17.4338,1020.12
96836,-0.0334768,9.85653,0.0334768,1.89,-2.52,-0.56,-20.6769,-45.3503,16.0596,1020.12
96842,-0.0765184,9.86131,0.0621712,1.61,-2.59,-0.42,-20.6769,-47.9717,15.8823,1020.13
96848,-0.071736,9.82783,0.0334768,1.89,-2.45,-0.49,-20.6769,-44.7643,16.695,1020.13
96854,-0.0621712,9.83261,0.071736,1.61,-2.24,-0.14,-20.3573,-44.6101,16.5768,1020.11
96860,-0.0860832,9.84696,0.0765184,1.54,-2.38,-0.56,-20.9384,-47.2315,16.0301,1020.11
96866,-0.071736,9.82783,0.047824,1.61,-2.52,-0.35,-20.4444,-46.0288,15.7641,1020.11
96872,-0.095648,9.87087,0.0621712,1.61,-2.38,-0.42,-20.5316,-44.2709,17.0349,1020.14
96878,-0.10043,9.86131,0.10043,1.54,-2.38,-0.56,-21.229,-46.5222,15.9266,1020.14
96884,-0.109995,9.82783,0.0573888,1.54,-2.66,-0.84,-20.7641,-47.3549,16.0005,1020.12
96890,-0.114778,9.86131,0.0908656,1.54,-2.31,-0.42,-20.0376,-44.7952,17.5668,1020.12
96896,-0.0765184,9.79914,0.0908656,1.54,-2.03,-0.49,-19.9214,-45.6587,16.8576,1020.13
96902,-0.0908656,9.81827,0.071736,1.61,-1.61,-0.56,-20.4444,-48.4651,15.0844,1020.13
96908,-0.129125,9.85174,0.0908656,1.54,-2.31,0.07,-20.4735,-45.2578,17.094,1020.12
96914,-0.109995,9.78957,0.143472,1.82,-2.73,-0.28,-20.1829,-44.1476,16.828,1020.12
96920,-0.133907,9.78957,0.148254,1.89,-3.15,-0.49,-20.3573,-48.3109,15.2765,1020.12
96926,-0.0765184,9.80392,0.11956,1.96,-2.59,0.42,-20.9675,-46.3063,15.9266,1020.12
96932,-0.095648,9.83261,0.0621712,1.82,-2.31,0.21,-19.9214,-44.3943,16.828,1020.12
96938,-0.10043,9.82783,0.071736,1.82,-2.38,-0.42,-20.212,-47.0157,15.3208,1020.13
96944,-0.105213,9.83261,0.105213,1.82,-2.52,-0.28,-21.2871,-47.2624,16.3847,1020.13
96950,-0.0430416,9.88522,0.0334768,1.82,-2.94,-0.35,-20.8222,-44.4251,16.1631,1020.14
96956,-0.0573888,9.86131,0.0334768,1.61,-2.66,-0.49,-20.4735,-45.4428,15.9857,1020.14
96962,-0.0813008,9.81827,0.0621712,1.47,-2.38,-0.49,-20.7641,-47.6941,15.2765,1020.13
96968,-0.0813008,9.88044,0.047824,1.68,-2.52,-0.35,-21.1418,-45.3503,16.2369,1020.13
96974,-0.095648,9.83261,0.071736,1.47,-2.31,-1.05,-20.8222,-44.4251,16.8576,1020.14
96980,-0.13869,9.80392,0.0573888,1.75,-2.38,-0.7,-21.0256,-47.9408,16.4143,1020.14
96986,-0.133907,9.77523,0.129125,2.03,-3.01,-0.63,-21.3452,-46.2447,15.1287,1020.14
96992,-0.095648,9.81827,0.10043,2.03,-2.73,-0.77,-20.5316,-44.2092,16.0153,1020.17
96998,-0.0813008,9.85653,0.0813008,1.89,-2.87,-1.05,-20.6188,-47.0465,16.4734,1020.17
97004,-0.124342,9.86609,0.0430416,1.68,-2.03,-0.49,-20.5607,-47.3857,14.9514,1020.12
97010,-0.143472,9.86609,0.0621712,1.89,-2.8,-0.77,-20.5316,-44.3634,17.7885,1020.12
97016,-0.11956,9.84218,0.047824,2.03,-2.31,-0.63,-20.0958,-45.5353,17.0349,1020.13
97022,-0.124342,9.85174,0.0573888,1.4,-2.45,-0.07,-20.3863,-47.9717,15.971,1020.13
97028,-0.143472,9.78957,0.114778,1.61,-2.45,-0.42,-20.7931,-44.7952,17.9067,1020.11
97034,-0.129125,9.78001,0.124342,1.47,-2.59,-0.21,-20.1539,-44.3018,16.8428,1020.11
97040,-0.10043,9.78479,0.095648,1.89,-2.94,-0.56,-20.7641,-47.7866,16.5177,1020.11
97046,-0.0908656,9.84696,0.0526064,1.68,-3.01,-0.42,-21.1999,-47.4166,15.6902,1020.14
97052,-0.0813008,9.82783,0.0908656,1.19,-2.31,-0.14,-20.241,-43.87,16.8723,1020.14
97058,-0.129125,9.82305,0.11956,1.61,-2.24,0.07,-20.0376,-46.8923,16.8576,1020.13
97064,-0.11956,9.81349,0.109995,1.54,-2.52,-0.77,-20.9965,-47.2624,15.4538,1020.13
97070,-0.0669536,9.84218,0.0526064,1.54,-2.45,-0.49,-20.6769,-43.87,16.8871,1020.11
97076,-0.0908656,9.8374,0.0573888,1.47,-2.45,0,-20.8512,-45.4737,16.5768,1020.11
97082,-0.133907,9.79436,0.105213,1.47,-2.38,-0.49,-21.3161,-47.0773,15.3504,1020.12
97088,-0.124342,9.78479,0.143472,1.75,-2.52,-0.56,-20.5607,-45.1344,16.104,1020.12
97094,-0.114778,9.8087,0.0860832,2.17,-3.01,-0.42,-20.3282,-44.826,16.9905,1020.13
97100,-0.124342,9.79436,0.124342,1.89,-2.73,0.14,-20.1829,-47.5399,15.2174,1020.13
97106,-0.153037,9.78479,0.153037,2.24,-2.94,0.35,-20.6478,-46.2138,15.9266,1020.13
97112,-0.181731,9.80392,0.143472,1.96,-2.17,0.28,-20.4444,-43.8083,18.4534,1020.12
97118,-0.143472,9.78479,0.0908656,2.1,-2.59,0,-20.3282,-47.5091,15.9266,1020.12
97124,-0.13869,9.78479,0.0286944,1.75,-2.66,0.56,-20.0958,-47.6016,15.2913,1020.14
97130,-0.167384,9.81827,0.0573888,1.75,-2.31,0.7,-19.6599,-44.2092,16.7985,1020.14
97136,-0.196078,9.7274,0.205643,2.03,-3.01,0.49,-20.4444,-45.1344,16.0449,1020.14
97142,-0.157819,9.68436,0.210426,2.45,-3.01,1.05,-20.2991,-47.5708,15.6016,1020.14
97148,-0.143472,9.7274,0.157819,2.52,-3.01,1.4,-20.241,-45.597,15.8971,1020.14
97154,-0.0573888,9.81349,0.109995,2.17,-2.66,0.77,-20.4444,-44.3018,17.6407,1020.14
97160,-0.10043,9.86609,0.0573888,1.96,-2.59,0.91,-20.0376,-47.5091,16.6507,1020.14
97166,-0.13869,9.82305,0.095648,1.61,-2.94,1.05,-20.0376,-46.183,15.7345,1020.14
97172,-0.172166,9.78479,0.129125,2.03,-3.08,0.84,-20.2701,-43.7775,16.6211,1020.14
97178,-0.172166,9.76088,0.191296,1.82,-3.08,1.4,-20.5607,-47.0773,17.1974,1020.15
97184,-0.181731,9.71784,0.200861,1.61,-3.78,1.19,-20.241,-47.9408,14.6115,1020.15
97190,-0.234338,9.69871,0.301291,1.68,-4.2,0.91,-19.8342,-44.826,17.0053,1020.15
97196,-0.243902,9.67001,0.329986,1.61,-4.69,1.19,-19.8342,-45.8129,16.5473,1020.15
97202,-0.248685,9.73697,0.234338,1.89,-5.88,1.75,-20.1248,-48.496,15.2469,1020.14
97208,-0.191296,9.79436,0.176949,1.12,-5.74,1.68,-20.6188,-46.5531,16.5916,1020.14
97214,-0.229555,9.79436,0.124342,0.84,-6.23,2.31,-20.4735,-44.9494,17.9362,1020.14
97220,-0.196078,9.81827,0.162602,-0.21,-6.23,2.38,-20.9675,-47.2624,16.7393,1020.14
97226,-0.191296,9.78001,0.224773,-0.84,-6.44,2.66,-20.7641,-45.597,16.0005,1020.14
97232,-0.186514,9.71784,0.205643,-1.26,-6.65,3.15,-20.4154,-43.9317,16.8132,1020.12
97238,-0.172166,9.81827,0.167384,-0.77,-7,3.36,-20.2701,-46.368,17.1974,1020.12
97244,-0.157819,9.84696,0,-0.91,-7.28,3.15,-20.2701,-47.8483,16.4586,1020.11
97250,-0.148254,9.97609,-0.0669536,-1.82,-7.21,3.29,-20.3573,-44.7027,16.9019,1020.11
97256,-0.0669536,9.89479,-0.124342,-2.03,-6.65,3.99,-20.1248,-45.5045,17.552,1020.12
97262,-0.129125,9.92348,-0.0526064,-1.96,-5.88,4.2,-20.2991,-47.6016,16.5177,1020.12
97268,-0.172166,9.86609,0.0908656,-2.87,-6.37,3.99,-20.7641,-45.2886,17.4929,1020.12
97274,-0.143472,9.74653,0.181731,-2.45,-5.95,4.76,-20.5897,-44.3634,17.4191,1020.12
97280,-0.200861,9.77044,0.23912,-2.38,-5.88,5.53,-20.6769,-47.2624,16.5325,1020.12
97286,-0.215208,9.78001,0.215208,-2.38,-6.72,5.6,-20.735,-46.5839,17.4486,1020.13
97292,-0.153037,9.78479,0.162602,-2.24,-6.79,6.16,-21.0837,-44.3943,18.5273,1020.13
97298,-0.153037,9.77044,0.11956,-2.59,-6.86,6.51,-20.5316,-47.0157,16.8428,1020.12
97304,-0.186514,9.86131,0.0286944,-2.66,-6.65,7.42,-20.9093,-47.5708,16.4881,1020.12
97310,-0.095648,9.92826,-0.0047824,-2.52,-6.79,7.56,-20.7059,-44.2709,14.1683,1020.12
97316,0,9.91392,-0.0143472,-2.8,-6.37,8.26,-20.8512,-45.3503,16.8576,1020.12
97322,0.0286944,9.89,0.0669536,-2.8,-5.88,7.49,-20.3282,-48.1876,16.0153,1020.12
97328,0.0765184,9.90435,0.047824,-2.73,-5.74,7.14,-20.9093,-45.5353,17.8624,1020.12
97334,0.157819,9.98087,-0.0286944,-1.82,-5.95,6.65,-20.5607,-45.0419,17.8624,1020.12
97340,0.25825,10,-0.10043,-2.03,-4.83,6.16,-21.5776,-47.0465,15.705,1020.14
97346,0.21999,9.95696,-0.0286944,-1.68,-3.29,5.88,-21.1709,-46.6456,16.2074,1020.14
97352,0.13869,9.9713,0.0286944,-0.77,-3.29,5.53,-20.7641,-44.3634,17.0201,1020.14
97358,0.129125,9.96652,0.0047824,-0.42,-3.29,5.25,-21.0837,-45.9054,16.7689,1020.14
97364,0.172166,9.95696,0.0334768,-0.28,-3.43,4.48,-21.4614,-46.954,16.0301,1020.11
97370,0.21999,9.96174,0.0191296,-0.42,-2.59,4.06,-20.7931,-44.4559,17.5964,1020.11
97376,0.205643,9.90913,0.114778,-0.28,-2.31,3.78,-21.0837,-44.5793,16.9905,1020.11
97382,0.124342,9.87566,0.13869,-0.14,-1.89,3.64,-21.9844,-47.2624,16.5473,1020.11
97388,0.0382592,9.88522,0.162602,0.35,-2.17,3.57,-20.8803,-45.0419,17.3452,1020.11
97394,0.0573888,9.88044,0.215208,0.63,-2.38,3.36,-21.1418,-43.9934,17.5964,1020.11
97400,0.10043,9.90913,0.10043,0.21,-2.03,3.5,-21.4324,-47.1698,17.1974,1020.11
97406,0.0860832,9.9713,0.071736,0.07,-1.68,3.15,-22.2169,-47.0773,15.4981,1020.11
97412,0.0573888,9.92348,0.0813008,-0.28,-0.98,3.29,-21.4033,-43.9625,14.8036,1020.11
97418,0.0860832,9.88522,0.181731,0,-1.47,3.29,-20.6478,-46.1213,17.6259,1020.15
97424,0.248685,9.84218,0.243902,0.7,-1.96,2.24,-21.3161,-46.5839,15.2026,1020.15
97430,0.47824,9.92348,0.10043,1.96,-1.68,0.84,-21.1709,-44.1476,15.7345,1020.16
97436,0.645624,10.1435,-0.210426,0.21,0.91,-0.7,-20.7059,-44.7952,17.2565,1020.16
97442,0.631277,9.99522,-0.0047824,-0.21,1.82,-2.8,-21.6939,-47.5399,15.1287,1020.11
97448,0.674318,9.86131,0.191296,2.52,0.28,-5.6,-20.4444,-45.7512,15.9562,1020.11
97454,0.774749,10.1243,-0.215208,3.29,2.17,-8.05,-21.258,-44.3634,17.3008,1020.11
97460,0.483022,10.3252,-0.329986,2.66,2.1,-10.5,-21.4614,-47.3857,17.2565,1020.1
97466,0.487805,10.1196,-0.224773,3.64,1.82,-12.25,-21.2871,-46.6147,15.4686,1020.1
97472,0.549976,10.1004,-0.205643,6.37,0.49,-14.07,-20.7641,-44.6101,17.1383,1020.11
97478,0.640842,10.2869,-0.5978,9.52,0.35,-17.22,-20.9093,-46.3989,15.5868,1020.11
97484,0.61693,10.3395,-0.73649,10.64,0.56,-19.6,-20.6188,-48.1259,15.5425,1020.15
97490,0.411286,10.2248,-0.750837,13.58,2.03,-19.39,-21.1418,-44.8877,17.1974,1020.15
97496,0.315638,10.1722,-0.784314,18.06,1.54,-20.23,-20.0958,-44.9185,16.4881,1020.14
97502,0.196078,10.3061,-0.980392,22.75,1.75,-19.74,-20.8803,-47.8175,15.9562,1020.14
97508,-0.0526064,11.0856,-0.889526,22.47,-3.15,-20.02,-20.5897,-45.7821,16.2961,1020.14
97514,-0.0430416,12.6686,-2.03252,14.98,-4.83,-21.56,-20.5897,-44.3634,15.8528,1020.14
97520,-0.0621712,14.5289,-1.25777,-0.14,-16.45,-24.78,-20.2701,-48.0025,16.0596,1020.14
97526,2.98422,17.0158,1.31994,-13.02,-41.72,-51.59,-19.9505,-47.6941,16.3552,1020.14
97532,9.86609,13.4577,5.91105,22.96,-8.61,-95.06,-20.3573,-44.8877,17.9215,1020.14
97538,6.20277,15.3324,-0.69823,21.14,37.24,-107.87,-19.0207,-47.8175,17.0792,1020.13
97544,2.43902,14.9546,-3.30942,-5.32,54.46,-113.75,-19.4274,-48.9586,16.2369,1020.13
97550,-1.78384,13.2759,1.01387,7.21,21.91,-126.28,-18.3814,-45.2269,17.094,1020.14
97556,-0.970827,12.9364,3.75418,35.35,-19.18,-138.25,-17.684,-46.7689,16.8871,1020.14
97562,1.73601,15.2128,0.564323,45.85,-24.99,-148.19,-17.2482,-50.0379,16.7541,1020.12
97568,3.10378,16.5519,-1.13821,43.68,-25.83,-158.76,-16.5508,-47.3857,17.552,1020.12
97574,4.28025,19.3974,-1.96557,22.47,-29.47,-174.3,-15.592,-46.4297,18.6455,1020.12
97580,4.51459,17.891,-1.5208,4.41,-18.76,-192.99,-14.2263,-50.0996,16.9314,1020.12
97586,2.00383,14.7298,-1.14299,7.14,-13.37,-207.76,-14.081,-50.2847,17.0792,1020.12
97592,0.411286,13.9359,-2.50598,29.19,-28.28,-219.73,-13.2093,-47.6633,18.6751,1020.13
97598,0.282162,18.7183,-3.96461,24.99,-56.77,-232.61,-10.9429,-50.223,17.7737,1020.13
97604,3.05117,22.6351,-1.94644,10.85,-58.38,-246.05,-10.6523,-52.5051,18.1431,1020.13
97610,5.07891,22.4916,-2.12339,-12.04,-37.52,-257.18,-8.73455,-49.2978,18.3204,1020.13
97616,3.70636,21.363,-3.37159,-31.08,-13.09,-261.31,-7.28172,-49.4828,18.0544,1020.13
97622,2.34338,17.231,-4.70588,-51.24,-14.84,-273.98,-6.00322,-53.7387,17.36,1020.13
97628,-1.66428,9.60306,-3.34768,-50.96,-18.76,-271.39,-4.05641,-51.1173,18.5421,1020.13
97634,-3.78288,6.26016,-3.48159,-29.12,-27.02,-260.4,-3.27188,-50.6239,18.3943,1020.13
97640,-5.86322,11.6451,-4.44285,-14.07,-45.92,-234.5,-1.03451,-53.5537,17.0201,1020.13
97646,-5.28933,14.4046,-4.73936,-49.35,-48.16,-225.26,-0.308091,-52.9677,18.0397,1020.14
97652,-0.789096,11.7504,-3.82592,-81.06,-40.74,-209.51,0.21493,-50.5931,16.9019,1020.14
97658,2.42468,7.82401,-2.48207,-106.75,-61.11,-181.93,1.75494,-53.8929,17.9362,1020.1
97664,10.7795,-2.46772,-2.50598,-116.06,-55.37,-127.54,3.35306,-55.4349,16.2517,1020.1
97670,14.2563,-5.32281,-2.2286,-63.56,-13.79,-69.23,2.6557,-52.9369,16.0301,1020.11
97676,14.2707,1.13821,-2.97465,-32.06,12.53,-39.62,3.46929,-53.0911,15.9414,1020.11
97682,10.44,3.63462,-3.8307,-49,44.1,-25.76,3.87608,-55.5583,14.449,1020.11
97688,3.45289,0.286944,-3.81636,-20.3,65.87,4.97,3.09155,-53.7387,15.7789,1020.11
97694,2.63032,0.439981,-4.01722,13.79,17.99,25.55,2.53947,-52.3818,16.9758,1020.11
97700,8.05356,0.73649,-5.06456,20.79,-0.42,49.07,2.59759,-54.6947,15.6607,1020.09
97706,10.0861,-0.588235,-5.19369,31.92,15.33,73.64,3.58552,-54.2938,14.8775,1020.09
97712,8.967,0.0573888,-2.68293,51.87,22.33,96.04,1.52249,-51.5491,16.8132,1020.13
97718,7.84792,2.0373,-1.72645,62.93,8.54,113.19,1.63871,-54.1396,15.6459,1020.13
97724,9.18699,4.5098,-2.97465,59.22,1.4,121.94,1.26098,-54.5405,15.7345,1020.11
97730,8.68962,4.44763,-2.41033,58.8,-4.97,138.6,0.0405907,-52.3818,16.7393,1020.11
97736,9.25394,4.75371,-1.69775,55.23,-2.45,145.67,-0.627714,-52.8444,16.0596,1020.08
97742,9.19656,5.04065,-1.01865,51.24,0.35,148.96,-0.918284,-55.3732,15.7641,1020.08
97748,8.93352,4.99761,-0.631277,48.79,0.21,156.73,-2.2549,-51.7341,16.4586,1020.08
97754,8.35964,4.93065,0.0860832,49.84,-3.57,164.29,-2.98131,-50.9631,19.3991,1020.11
97760,7.64706,5.4615,0.301291,50.26,-5.25,167.79,-3.18471,-53.8004,18.2022,1020.11
97766,7.48446,5.95409,0.176949,50.26,-4.9,172.41,-5.04434,-52.9677,18.7933,1020.1
97772,7.05882,5.93974,0.549976,51.1,-7.42,180.88,-6.23567,-50.1305,20.8472,1020.1
97778,6.92492,6.70014,0.81779,53.06,-11.62,184.94,-6.3519,-51.5491,20.1379,1020.1
97784,6.99187,7.61836,0.502152,53.27,-11.13,186.13,-7.71757,-52.536,18.7046,1020.1
97790,6.87709,8.76614,0.61693,51.24,-9.73,189.84,-9.19946,-50.8706,18.3352,1020.08
97796,6.7671,9.13917,0.803443,50.33,-7,189.98,-8.99606,-49.7912,20.7142,1020.08
97802,6.43711,9.92826,0.85605,49.91,-2.45,195.3,-9.89682,-52.2584,18.808,1020.08
97808,6.16451,10.6074,0.593018,47.53,0.7,196.7,-11.3206,-49.7912,20.064,1020.09
97814,5.7341,11.3343,0.502152,46.69,6.58,198.31,-11.8727,-47.7558,21.0541,1020.09
97820,5.25108,11.7504,0.650406,48.23,12.25,205.24,-12.6572,-49.7604,19.8128,1020.07
97826,4.57676,12.1521,1.09995,49.98,15.61,212.45,-14.4006,-49.2669,20.5812,1020.07
97832,4.51937,12.836,0.841702,53.83,21.98,218.4,-14.6912,-46.0596,22.3248,1020.08
97838,3.84505,14.0363,0.655189,55.65,28,225.4,-16.0859,-47.725,20.7733,1020.08
97844,3.37159,14.9785,0.263032,55.09,31.71,231.98,-17.0157,-48.4343,21.5269,1020.08
97850,3.3955,16.1597,-0.674318,53.41,37.24,236.46,-18.1489,-45.2578,21.9554,1020.08
97856,2.56337,16.5567,-0.454328,49.77,41.65,237.79,-19.3403,-44.8877,23.1375,1020.08
97862,2.04208,17.3458,-1.09039,46.13,44.31,236.32,-20.9093,-46.5531,21.3791,1020.1
97868,1.45385,17.714,-1.78862,41.86,47.46,233.8,-21.8682,-44.3326,21.7929,1020.1
97874,0.879962,18.4314,-1.95122,36.89,49.98,229.95,-23.0595,-41.4028,22.3692,1020.12
97880,0.334768,18.5366,-2.20469,33.39,52.78,223.93,-24.9192,-43.2224,20.8472,1020.12
97886,0.0286944,18.7757,-2.34338,31.57,56.98,215.6,-25.2679,-43.1607,21.453,1020.06
97892,-0.487805,18.9909,-2.40076,30.94,60.27,209.51,-25.9071,-39.3982,21.3348,1020.06
97898,-0.631277,19.5361,-2.76901,24.01,68.11,198.8,-27.389,-40.6318,20.8029,1020.11
97904,-1.5495,19.6461,-2.75466,20.23,76.86,185.36,-28.2607,-41.1869,20.9654,1020.11
97910,-2.13295,19.7226,-2.48685,12.6,85.61,173.46,-28.5222,-37.9179,21.0688,1020.11
97916,-2.23338,35.8823,1.56384,91,97.16,69.16,-28.9,-37.517,21.32,1020.11
97922,-12.7547,25.1219,-9.89957,-69.16,108.5,102.2,-31.5732,-39.9225,20.1822,1020.11
97928,-2.0373,3.13725,6.25538,-58.87,118.72,96.04,-31.4279,-38.3497,19.8276,1020.09
97934,-10.2391,2.24773,5.21282,29.47,135.87,138.95,-30.963,-35.5741,20.33,1020.09
97940,-29.517,24.9833,-6.3319,28,126.56,147.07,-32.2705,-37.4553,18.4534,1020.15
97946,-5.7341,10.7556,-7.46054,-10.08,88.27,118.16,-32.9679,-36.9927,18.6307,1020.15
97952,-18.747,14.022,-1.68819,-3.15,164.01,154.77,-33.3747,-33.8779,18.4977,1020.11
97958,-9.18699,7.90053,-1.93687,13.65,119.91,127.12,-34.2464,-34.7414,17.6407,1020.11
97964,-2.51554,17.3745,9.57436,99.68,86.03,69.86,-35.5249,-35.8208,16.7393,1020.14
97970,-20.1961,28.4075,-8.42181,-32.97,152.6,114.03,-35.089,-32.9527,17.3304,1020.14
97976,-4.68675,11.4156,-3.55811,-49,78.05,51.45,-35.1181,-33.0452,17.7441,1020.14
97982,-13.955,12.6303,-1.97991,3.43,146.51,1.61,-36.5128,-35.3891,16.7837,1020.11
97988,-18.9813,12.0182,-11.1095,-140.91,76.44,34.86,-36.4257,-33.8162,15.3504,1020.11
97994,-13.4051,-1.08082,-2.19034,-73.29,112.21,-16.45,-36.077,-32.9836,15.0844,1020.09
98000,-25.4806,5.00717,7.38403,39.48,117.39,-25.27,-37.094,-34.4639,13.6806,1020.09
98006,-21.1239,2.35294,-7.86705,26.67,19.6,-41.93,-37.0358,-35.0498,13.0157,1020.1
98012,-13.1181,1.58776,4.52893,98.84,6.93,-76.58,-36.2513,-32.3668,13.8136,1020.1
98018,-12.9747,13.1325,3.34768,132.72,56,-107.38,-37.0649,-34.1863,14.1535,1020.1
98024,-10.4543,14.6485,-2.5538,84.84,52.85,-136.08,-37.2102,-36.5918,13.4442,1020.1
98030,-8.56528,17.054,5.30846,75.46,71.19,-178.92,-35.583,-34.1246,15.3356,1020.16
98036,-9.1583,14.792,-0.631277,-5.74,72.45,-167.93,-35.0309,-34.9881,15.0696,1020.16
98042,-2.09947,8.21616,1.38211,-22.26,-3.71,-188.51,-35.4958,-37.9796,13.592,1020.16
98048,-1.75036,9.75131,1.80296,19.32,18.97,-170.45,-34.7113,-37.6712,12.1882,1020.13
98054,-1.51124,13.2377,0.148254,25.2,23.73,-154.98,-33.4328,-35.79,13.8136,1020.13
98060,-2.67336,17.1784,-0.889526,26.25,-12.67,-149.03,-32.6773,-39.9225,14.1239,1020.11
98066,-1.15734,15.1602,-0.49737,0.28,-28.56,-139.51,-32.8807,-40.0767,13.8875,1020.11
98072,-0.109995,12.7547,1.46341,-7,-17.15,-132.23,-31.8637,-38.6889,14.1091,1020.12
98078,-0.822573,10.0478,0.903874,-5.46,-23.17,-130.55,-31.6022,-40.4468,14.6854,1020.12
98084,-2.26686,10.2726,1.74079,5.74,-48.58,-129.5,-30.7596,-42.328,13.6215,1020.16
98090,-0.47824,11.5399,-0.325203,-6.86,-65.24,-127.82,-29.8007,-39.6758,13.6215,1020.16
98096,0.645624,12.0277,-2.26208,-22.68,-60.34,-126.7,-29.6264,-40.7552,15.1878,1020.16
98102,1.5495,11.7025,-3.60115,-30.8,-40.95,-125.65,-29.1905,-43.9317,13.0748,1020.12
98108,-0.640842,13.8307,-3.08465,-36.33,-27.93,-113.68,-29.3067,-42.0813,14.2865,1020.12
98114,-0.291726,13.9216,-3.75897,-64.4,-29.05,-108.36,-27.6505,-41.7421,15.0844,1020.14
98120,-0.832138,15.1172,-4.18938,-77.63,10.01,-88.69,-27.0694,-44.9185,14.5377,1020.14
98126,-4.33764,13.0368,0.21999,-98.28,40.39,-41.79,-27.5633,-45.5045,11.8484,1020.11
98132,-6.2506,5.16021,7.20229,-28.21,0.77,-21.84,-27.5633,-44.2092,12.2178,1020.11
98138,-0.95648,5.56671,3.84505,24.92,-33.11,-31.15,-27.0694,-44.5176,14.2126,1020.14
98144,2.1186,14.6676,-4.1846,-16.59,-25.97,-37.31,-27.5924,-46.8615,12.07,1020.14
98150,2.18556,13.5438,-4.20851,-64.96,-1.05,-35.14,-27.3018,-43.7158,12.3508,1020.14
98156,-0.564323,7.4175,1.34864,-40.46,24.22,-19.95,-26.7207,-43.7466,13.0305,1020.14
98162,-1.14778,6.82449,1.82209,-0.77,16.03,-16.31,-26.7788,-46.5531,12.336,1020.14
98168,-0.712578,11.7456,-0.473458,-13.44,-1.61,-20.86,-26.6335,-45.1653,11.6563,1020.16
98174,0.21999,10.9708,-0.760402,-34.02,-0.28,-18.69,-26.0233,-43.4691,12.8532,1020.16
98180,0,8.4505,1.00909,-20.79,9.87,-14.07,-26.0233,-46.2447,11.346,1020.12
98186,-0.683883,8.91918,0.913438,-6.58,9.17,-11.55,-26.8369,-46.3989,10.9174,1020.12
98192,-0.798661,10.22,0.320421,-6.51,2.03,-8.33,-26.5464,-43.8392,12.8679,1020.13
98198,-0.406504,9.82783,0.224773,-6.93,-1.4,-6.16,-26.2267,-45.8437,11.7449,1020.13
98204,-0.109995,9.59828,0.449546,-1.89,-1.54,-5.81,-25.9943,-46.8306,9.01129,1020.1
98210,-0.200861,9.78957,0.253467,2.31,-3.92,-4.06,-25.9362,-44.2709,11.5381,1020.1
98216,-0.124342,10,0.13869,3.5,-5.46,-2.59,-25.5003,-44.7643,11.7892,1020.1
98222,-0.047824,10.1578,-0.071736,1.75,-6.16,-3.22,-25.7328,-47.1082,10.8288,1020.14
98228,0.33955,9.39263,0.363462,6.37,-6.86,-3.36,-26.8079,-45.4428,10.1047,1020.14
98234,-0.0860832,9.78479,0.349115,9.03,-7.98,-1.33,-25.6456,-43.4999,12.5281,1020.14
98240,0.124342,10.1578,-0.071736,8.96,-10.57,-1.26,-26.2267,-46.0905,11.5085,1020.14
98246,0.33955,10.1483,-0.47824,8.47,-9.8,-2.38,-26.0814,-46.2138,10.548,1020.12
98252,0.349115,10.2678,-0.49737,6.65,-7.98,-2.31,-26.343,-43.5924,12.6315,1020.12
98258,0.181731,10.22,-0.33955,6.16,-7.49,-1.82,-25.9071,-45.0111,12.2769,1020.12
98264,0.253467,10.0861,-0.162602,6.65,-8.82,-2.31,-25.7909,-47.3549,11.213,1020.12
98270,0.411286,10.1243,-0.368245,6.3,-8.4,-2.31,-25.3841,-44.2401,12.3212,1020.12
98276,0.411286,10.2678,-0.564323,4.55,-7.63,-3.29,-25.5875,-44.4559,13.3703,1020.15
98282,0.325203,10.0143,-0.248685,3.43,-6.72,-3.43,-25.6165,-47.0465,10.7992,1020.15
98288,0.25825,9.92826,-0.109995,4.13,-7,-4.13,-25.4131,-46.3063,11.804,1020.14
98294,0.435198,10.1769,-0.483022,3.43,-8.19,-4.9,-25.1807,-44.055,11.6267,1020.14
98300,0.420851,10.2726,-0.573888,1.47,-7.21,-5.39,-25.9071,-45.9054,12.3951,1020.15
98306,0.291726,10.0478,-0.344333,0.35,-5.95,-6.02,-25.5875,-46.7998,11.2277,1020.15
98312,0.215208,9.96174,-0.167384,0.21,-6.09,-5.88,-25.6165,-43.7158,11.9518,1020.13
98318,0.210426,9.85174,-0.11956,0.56,-6.72,-5.39,-25.7618,-45.1344,11.4346,1020.13
98324,0.234338,9.82783,-0.047824,0.63,-7.07,-5.6,-25.9071,-47.6941,11.7301,1020.13
98330,0.210426,9.82783,-0.0526064,1.33,-7.35,-5.74,-25.2679,-44.3634,11.9666,1020.17
98336,0.286944,9.88522,-0.229555,0.98,-7.14,-6.23,-26.1396,-44.3634,13.459,1020.17
98342,0.234338,9.86131,-0.186514,0.63,-5.04,-5.39,-25.9943,-46.7073,10.8436,1020.15
98348,0.0143472,9.73218,-0.0095648,1.33,-5.18,-4.76,-26.4592,-45.1961,11.937,1020.15
98354,0.0669536,9.7274,0.023912,1.68,-6.3,-5.11,-25.9943,-43.4999,13.1782,1020.13
98360,0.143472,9.79914,-0.114778,2.17,-6.72,-5.18,-26.0814,-46.3372,11.5676,1020.13
98366,0.25825,9.76088,-0.124342,2.52,-6.02,-4.62,-25.7037,-45.9671,12.2325,1020.14
98372,0.181731,9.79914,-0.0430416,2.17,-5.18,-3.99,-25.355,-43.4691,11.7449,1020.14
98378,0.0621712,9.7561,-0.0621712,2.87,-5.88,-3.99,-24.9192,-45.3195,12.9861,1020.14
98384,0.13869,9.76566,-0.0047824,3.43,-7.14,-4.69,-26.0233,-46.8306,12.3212,1020.14
98390,0.133907,9.90913,-0.181731,4.06,-7.91,-4.55,-25.9652,-44.2401,12.4394,1020.14
98396,0.186514,9.90913,-0.277379,4.41,-7.91,-4.97,-25.326,-44.055,13.3851,1020.13
98402,0.215208,10.0191,-0.363462,4.69,-8.4,-5.39,-25.7618,-47.0157,12.3803,1020.13
98408,0.329986,9.96174,-0.401722,4.48,-8.68,-6.51,-25.2679,-46.183,11.7301,1020.12
98414,0.353898,9.76566,-0.143472,5.32,-7.7,-7.49,-25.9652,-44.0242,13.9466,1020.12
98420,0.291726,9.74175,-0.0573888,6.37,-7.7,-7.49,-25.7618,-46.8923,12.6758,1020.11
98426,0.33955,9.73697,-0.0813008,8.26,-7,-8.33,-25.5875,-46.9231,11.7745,1020.11
98432,0.37781,9.82783,-0.215208,8.89,-4.97,-9.31,-25.0063,-43.6541,12.8088,1020.13
98438,0.306074,9.74175,-0.301291,10.08,-2.66,-9.52,-25.6747,-45.5662,11.3903,1020.13
98444,0.109995,9.83261,-0.21999,11.41,-1.68,-9.24,-25.1226,-46.9848,11.9518,1020.13
98450,0.071736,9.84218,-0.248685,11.97,-1.12,-8.89,-24.8901,-44.1167,11.8336,1020.15
98456,0.0860832,9.87087,-0.181731,12.6,-1.12,-9.38,-24.3961,-44.0859,13.9762,1020.15
98462,0.0860832,9.92348,-0.23912,12.46,-0.14,-9.45,-24.5705,-46.7998,13.1782,1020.13
98468,0.0813008,9.86131,-0.229555,13.02,0.42,-8.89,-25.0935,-46.3063,13.725,1020.13
98474,0.10043,9.94261,-0.353898,11.83,0.91,-9.03,-24.8901,-44.0859,14.05,1020.13
98480,-0.0047824,10.0526,-0.401722,9.03,0.84,-8.82,-25.5584,-46.5222,12.5576,1020.13
98486,0.109995,10.043,-0.401722,5.74,1.75,-8.89,-24.4543,-47.1698,12.5133,1020.12
98492,0.162602,9.92826,-0.396939,4.62,3.92,-9.38,-24.7448,-43.8392,13.5329,1020.12
98498,0.0430416,9.97609,-0.320421,4.27,3.85,-9.1,-24.9192,-44.6718,13.8432,1020.12
98504,-0.0286944,10.0335,-0.416069,2.1,4.41,-9.17,-24.8029,-47.2315,12.0404,1020.13
98510,0.124342,9.88044,-0.387374,0.07,5.74,-10.22,-24.338,-44.7335,12.602,1020.13
98516,0.0573888,9.85174,-0.334768,-0.77,7.56,-10.85,-24.4543,-43.9008,12.1734,1020.14
98522,0.0095648,9.88522,-0.23912,-1.33,8.47,-10.36,-24.7448,-46.8306,12.2473,1020.14
98528,0.0765184,9.83261,-0.320421,-1.33,9.17,-10.78,-24.8029,-46.4605,11.9961,1020.11
98534,0.200861,9.88522,-0.487805,-1.61,10.71,-11.62,-24.0765,-43.1607,13.3408,1020.11
98540,0.114778,10.0191,-0.506934,-2.73,11.83,-12.04,-24.9192,-47.6324,10.4741,1020.13
98546,0.114778,9.96174,-0.344333,-3.64,13.23,-13.3,-23.786,-47.0773,11.8779,1020.13
98552,0.0430416,9.90435,-0.243902,-3.15,13.3,-13.93,-24.5124,-43.9317,12.7497,1020.13
98558,0.0382592,9.8374,-0.387374,-2.45,14.07,-15.05,-23.7278,-44.9494,12.6315,1020.13
98564,-0.0286944,9.93304,-0.621712,-0.98,13.72,-16.1,-24.3961,-47.6633,12.2325,1020.13
98570,-0.37781,10.3204,-0.908656,-3.08,13.16,-15.68,-23.6116,-44.9185,12.4394,1020.15
98576,-0.172166,10.22,-0.798661,-3.08,10.08,-17.71,-22.9433,-45.3195,11.8188,1020.15
98582,0.25825,9.87566,-0.21999,0.42,9.94,-21.28,-22.9724,-48.4651,11.6415,1020.14
98588,0.669536,10.4926,0.946915,12.25,4.2,-29.12,-23.3211,-46.6456,11.1686,1020.14
98594,1.59254,12.2477,1.75514,22.61,2.45,-36.68,-23.292,-44.2401,13.0157,1020.15
98600,2.51076,15.2941,2.85031,26.53,-6.86,-49.21,-22.8561,-46.8615,13.1487,1020.15
98606,3.22334,13.5677,-2.02296,0,9.38,-63.07,-22.769,-48.2184,12.1734,1020.12
98612,1.48254,11.3104,-1.7934,-0.42,22.47,-66.71,-22.5365,-45.3811,12.2325,1020.12
98618,-0.827355,11.5973,0.334768,4.9,3.78,-72.73,-22.2169,-46.0596,12.5872,1020.12
98624,-0.0860832,11.6499,-0.0526064,7.77,-9.17,-79.66,-21.8101,-48.8969,11.2869,1020.13
98630,0.903874,11.5399,0.172166,5.67,-7.7,-82.88,-20.5316,-46.3372,12.6315,1020.13
98636,0.980392,11.4347,0.559541,5.95,-2.45,-87.22,-21.3742,-46.368,13.725,1020.13
98642,0.511717,10.99,1.26734,12.18,-1.33,-93.73,-21.3742,-48.8352,10.6515,1020.13
98648,0.267814,11.2386,0.961262,18.83,-3.99,-98.21,-20.4735,-48.3418,11.4051,1020.15
98654,-0.0908656,11.2578,0.363462,21.07,-7.98,-101.85,-20.5316,-46.0288,12.9714,1020.15
98660,-0.224773,11.4252,0.47824,25.2,-11.34,-105.21,-19.689,-48.866,12.7645,1020.15
98666,0,11.6978,0.162602,32.06,-16.24,-110.39,-18.6429,-50.0071,11.4642,1020.15
98672,-0.114778,12.5155,-0.430416,36.19,-19.74,-116.76,-18.5557,-47.1082,12.3212,1020.15
98678,0.263032,13.1755,-0.334768,38.5,-31.29,-126.07,-17.3354,-48.7735,13.9762,1020.14
98684,1.31516,13.3525,-0.0095648,44.38,-31.99,-136.92,-16.9867,-50.6239,12.3803,1020.14
98690,1.35342,14.5481,-0.73649,43.61,-29.12,-147.84,-16.8705,-48.5885,14.1387,1020.14
98696,1.07126,14.9641,-1.72645,36.75,-28.84,-158.41,-16.7542,-47.9408,14.1683,1020.14
98702,0.760402,15.5811,-1.62123,37.45,-32.76,-167.72,-14.7784,-51.7033,13.6511,1020.16
98708,1.55906,15.7389,-1.42516,31.43,-44.1,-183.61,-14.0229,-50.0996,13.5181,1020.16
98714,1.88905,15.2415,-1.96078,26.67,-41.65,-196.91,-13.2965,-48.8044,15.7198,1020.12
98720,2.90292,15.6241,-1.65949,21.7,-32.48,-213.78,-11.6983,-51.2407,14.6559,1020.12
98726,1.42516,15.3276,-2.2812,23.1,-34.37,-228.69,-9.80966,-52.1042,13.6659,1020.14
98732,-0.215208,17.0014,-4.24677,21.14,-37.38,-246.68,-9.08324,-50.0379,15.2617,1020.14
98738,0.129125,16.6141,-4.86848,7.56,-55.23,-263.06,-7.65945,-51.3024,15.838,1020.14
98744,1.0856,18.484,-4.25155,9.03,-55.37,-278.39,-6.00322,-54.078,13.4147,1020.13
98750,2.10426,20.5835,-3.44333,-13.72,-58.87,-298.06,-5.71265,-52.3818,15.173,1020.13
98756,4.30416,19.01,-1.53037,-17.43,-54.39,-319.06,-4.02736,-51.95,15.572,1020.12
98762,3.52463,18.6609,1.05691,-1.47,-45.15,-340.27,-1.20885,-54.7873,15.3356,1020.12
98768,-0.114778,23.4625,3.48637,19.18,-50.89,-359.87,1.11569,-53.7079,14.8775,1020.12
98774,3.34768,21.7025,-1.23864,18.41,-52.78,-388.43,2.27796,-51.3641,15.971,1020.12
98780,1.37733,18.3309,-1.85557,36.12,-55.79,-411.25,5.03836,-53.3995,15.4242,1020.13
98786,0.966045,21.9417,-0.492587,44.94,-56.21,-427.98,7.71158,-54.5714,14.9662,1020.13
98792,3.58202,24.7585,-0.248685,30.59,-67.69,-445.13,8.17649,-52.1659,15.6754,1020.13
98798,2.42468,22.439,-3.17073,51.66,-34.51,-445.48,11.4018,-52.2276,16.5768,1020.14
98804,-2.24295,29.737,1.15256,41.02,-57.33,-448.63,14.6271,-53.9546,16.7246,1020.14
98810,2.74988,26.2506,-3.35724,6.65,-79.45,-464.59,15.3245,-50.5622,17.4191,1020.11
98816,5.14586,18.2209,-1.06169,20.93,-68.95,-468.51,19.2762,-50.0688,17.4782,1020.11
98822,2.67814,17.5705,-1.02343,51.94,-61.67,-476.14,21.9785,-50.994,17.2122,1020.11
98828,0.545194,21.406,-2.32903,74.76,-73.5,-491.33,23.5766,-49.5753,17.0792,1020.11
98834,0.172166,26.7432,-5.68627,73.01,-98.77,-493.08,23.9834,-46.1213,19.2957,1020.11
98840,3.61071,22.4868,-6.02582,34.3,-134.96,-475.93,28.1675,-46.6147,18.6455,1020.11
98846,6.31277,15.2128,-8.21616,17.01,-136.08,-423.92,31.5962,-45.3811,17.4043,1020.11
98852,9.16308,10.5165,-10.2535,-41.51,-129.64,-377.86,30.463,-42.914,18.084,1020.08
98858,3.68723,-3.95504,-13.9407,-105.21,-129.36,-305.34,31.6834,-42.6056,17.6112,1020.08
98864,-1.03778,-6.18364,-4.87327,-58.73,-83.3,-173.88,35.4027,-43.6233,15.9562,1020.07
98870,-8.06313,7.46054,5.98757,-9.1,-87.15,-36.19,34.3857,-41.5879,16.6655,1020.07
98876,-4.35198,9.70827,3.75418,-6.79,-132.02,42.77,33.8046,-41.9888,16.3552,1020.06
98882,4.31372,6.68101,-0.430416,43.47,-100.73,116.34,35.7223,-43.0373,15.0105,1020.06
98888,4.57676,6.04974,-0.765184,61.74,-96.46,167.93,35.3736,-42.4514,14.2865,1020.08
98894,8.68484,4.69632,-3.38594,60.06,-85.26,197.26,32.3517,-41.7421,15.3504,1020.08
98900,10.3491,4.98804,-3.69201,57.75,-73.92,214.27,33.7174,-43.4999,15.8084,1020.06
98906,10.1961,5.37542,-3.36203,55.37,-62.37,216.37,34.2695,-45.1036,14.848,1020.06
98912,9.41655,5.71975,-3.02726,49,-50.12,211.61,29.9691,-44.4559,14.8332,1020.06
98918,8.48398,5.77236,-2.13295,44.45,-40.04,206.78,30.7245,-44.9494,15.6607,1020.08
98924,8.41702,5.26542,-1.95122,40.18,-29.33,202.86,31.5962,-46.8306,13.4738,1020.08
98930,8.48398,4.67719,-1.77427,34.3,-15.47,197.82,28.8649,-46.6147,14.5229,1020.07
98936,8.1253,4.42372,-1.44428,29.33,-3.92,196.77,27.7607,-45.7821,15.4686,1020.07
98942,7.79053,4.9737,-1.64515,19.32,12.18,200.69,28.5743,-48.681,14.2274,1020.05
98948,7.3649,5.52845,-1.70253,9.52,29.19,205.87,27.354,-49.1128,13.4738,1020.05
98954,6.95839,7.19751,-1.93687,-3.99,40.67,214.41,24.2158,-47.6941,15.3208,1020.08
98960,6.78623,7.11143,-1.80296,-9.1,51.94,226.8,25.5524,-49.7912,14.5081,1020.08
98966,4.91152,6.32712,-2.38642,-14.35,64.19,238.98,24.5064,-50.7473,14.0057,1020.08
98972,3.36203,5.20325,-1.44428,-15.68,69.3,253.89,21.746,-49.6987,17.0792,1020.04
98978,3.46724,5.26064,-1.94165,-12.95,76.58,269.08,20.0026,-50.5005,16.104,1020.04
98984,2.57771,5.22716,-2.02296,-12.67,73.36,283.22,20.9615,-53.6462,14.9662,1020.04
98990,1.97991,4.74414,-1.64036,-4.2,67.76,292.04,17.8524,-52.0734,15.2913,1020.04
98996,2.48685,4.6198,-2.03252,4.69,65.73,299.74,15.3535,-50.9015,17.8624,1020.06
99002,2.13773,4.87805,-1.73601,16.03,60.62,306.11,15.5278,-54.2938,16.3699,1020.06
99008,2.13295,5.62888,-1.72645,25.2,55.23,309.54,14.0169,-53.2144,14.8775,1020.05
99014,2.1999,6.34146,-1.8747,33.46,48.37,314.3,9.74555,-52.0425,16.0596,1020.05
99020,2.30512,7.57054,-1.97991,39.2,45.22,316.68,9.3097,-53.8004,16.6359,1020.06
99026,2.04208,8.967,-2.5012,39.41,40.25,320.04,8.67045,-55.219,15.3651,1020.06
99032,2.05165,9.99043,-2.43902,36.82,35.84,323.4,5.76477,-52.3509,15.4833,1020.06
99038,2.03252,10.6217,-2.21903,34.86,31.85,326.55,4.05043,-52.906,16.8428,1020.06
99044,1.65949,11.583,-2.37207,30.38,28.14,330.12,3.20778,-55.1882,15.8971,1020.06
99050,1.43472,11.9417,-2.34816,27.23,24.43,334.32,0.621727,-53.1219,16.1335,1020.08
99056,1.01387,12.1856,-1.94165,25.97,20.44,339.08,-1.23791,-51.2715,16.8576,1020.08
99062,0.808226,12.2334,-1.72645,28.42,15.96,343.21,-1.73187,-54.4789,16.429,1020.07
99068,0.750837,12.7451,-1.59254,33.32,11.41,346.99,-3.44622,-53.7079,16.7837,1020.07
99074,0.731707,13.1325,-1.55428,38.36,6.37,347.97,-5.62548,-50.7164,17.3156,1020.06
99080,0.583453,13.9598,-1.54472,44.31,2.03,346.43,-7.74662,-53.0602,17.2713,1020.06
99086,0.521282,14.6963,-1.64036,49.77,-1.89,338.94,-9.43192,-52.8444,15.6016,1020.06
99092,0.416069,16.0832,-1.76471,54.32,-4.34,329.21,-12.0761,-49.1436,19.2809,1020.05
99098,0.21999,17.3219,-1.68819,57.89,-6.44,316.47,-13.3836,-49.6987,17.9362,1020.05
99104,0.071736,17.6662,-1.21473,63.07,-7.28,303.17,-14.8946,-51.7958,17.5373,1020.08
99110,0.0095648,18.3788,-0.583453,70.14,-6.58,292.11,-15.9406,-48.1876,18.0692,1020.08
99116,-0.153037,19.2922,-0.693448,77.84,-4.76,285.39,-17.161,-46.0596,18.9115,1020.06
99122,-0.73649,20.9517,-1.033,83.79,-2.31,283.78,-18.5267,-48.5885,19.3843,1020.06
99128,-1.02343,21.9034,-1.10952,87.08,1.61,290.08,-19.8342,-46.3372,18.941,1020.06
99134,-0.779531,23.5581,-1.37255,86.87,10.5,300.51,-20.5897,-42.8214,20.7142,1020.06
99140,-0.540411,24.7059,-1.67384,82.67,23.24,310.31,-22.0135,-44.3018,20.197,1020.06
99146,-0.49737,26.3654,-2.32903,73.71,39.62,318.22,-23.4663,-44.3634,20.6255,1020.06
99152,-1.10952,27.2597,-2.70206,61.25,57.4,322.84,-25.0935,-40.5701,21.4382,1020.06
99158,-3.3429,26.9058,-2.38642,48.09,70.49,323.82,-26.2558,-40.2926,19.8867,1020.09
99164,-5.47585,25.4854,-1.40603,44.73,77.98,323.05,-28.929,-41.8654,20.2709,1020.09
99170,-9.54567,23.4481,0.0143472,54.46,81.55,323.75,-29.9169,-37.3011,20.7881,1020.09
99176,-12.5873,23.2807,0.521282,67.41,78.4,326.2,-30.7305,-35.4507,20.3448,1020.09
99182,-15.6337,23.3764,0.923003,76.44,72.52,329.35,-32.9388,-36.3451,20.0493,1020.12
99188,-16.9823,23.2568,1.42037,84.28,67.9,328.37,-34.566,-35.4816,19.6207,1020.12
99194,-18.4075,23.6824,1.27212,86.45,65.17,321.72,-35.0309,-30.208,21.9406,1020.12
99200,-18.9,24.6198,0.0382592,78.54,66.78,309.33,-36.4257,-31.4416,20.6108,1020.12
99206,-19.8517,26.1454,-3.48159,56.35,70.49,288.33,-38.7211,-30.7939,19.7242,1020.12
99212,-20.9995,27.9531,-8.14921,9.87,69.02,256.76,-37.8494,-27.1857,20.596,1020.08
99218,-25.2989,26.5471,-13.4099,-58.24,71.33,222.81,-39.3313,-26.4455,20.4187,1020.08
99224,-28.747,20.8895,-11.4156,-116.06,64.96,185.57,-40.5517,-28.5118,18.217,1020.13
99230,-32.2429,9.42611,-4.72501,-122.85,65.1,147.14,-40.4355,-25.582,18.6159,1020.13
99236,-36.8723,-0.13869,3.5868,-80.22,51.73,111.37,-40.0868,-24.9652,19.1331,1020.13
99242,-38.484,-4.06982,7.82879,1.75,31.92,75.95,-42.3242,-26.1063,17.2713,1020.13
99248,-38.1492,-3.40029,9.92348,99.33,0.84,39.62,-41.3072,-25.4278,17.36,1020.18
99254,-35.012,1.89383,7.5275,165.27,-24.78,6.44,-40.1449,-22.128,18.6751,1020.18
99260,-1.12386,32.922,46.6427,422.73,-159.39,-142.87,-40.6679,-23.67,18.6455,1020.18
99266,-31.7647,55.9971,1.00909,156.94,6.93,-223.23,-40.3483,-26.1063,19.2661,1020.16
99272,-11.4491,27.5418,-17.2788,-47.11,23.31,-289.66,-39.2732,-24.5026,19.1922,1020.16
99278,-15.6576,22.5395,-9.49306,-133,122.78,-349.72,-38.8083,-27.2165,19.8128,1020.13
99284,-10.4543,11.9943,3.16117,-207.62,24.71,-315.7,-39.0117,-30.979,18.2761,1020.13
99290,-0.0813008,-0.535629,0.0430416,-191.52,-233.24,-340.55,-36.6872,-30.4855,18.3795,1020.09
99296,26.1836,5.67671,19.8374,-150.15,31.43,-338.24,-34.5079,-31.8733,18.6898,1020.09
99302,8.47441,-3.63941,1.56384,94.78,107.8,-323.54,-35.2343,-36.1601,17.5816,1020.09
99308,0.167384,17.0588,-1.53037,59.15,182.98,-308.42,-34.1592,-36.0059,16.6211,1020.09
99314,-5.7867,14.9498,6.91535,88.48,150.92,-300.93,-31.98,-35.4507,18.1136,1020.09
99320,-16.1167,24.2611,3.87374,20.02,99.68,-290.71,-32.5611,-37.9796,16.695,1020.09
99326,-11.999,18.7566,-0.320421,-74.41,28,-288.12,-31.5151,-39.9842,16.1631,1020.09
99332,-12.8455,13.3238,4.04113,-75.46,-30.8,-262.15,-30.1494,-38.9665,16.7689,1020.12
99338,-10.2774,11.6978,6.00669,-39.27,-80.5,-240.31,-28.2898,-41.0327,16.6211,1020.12
99344,-7.13534,19.7513,-4.58632,-44.17,-91.14,-189.91,-28.5513,-43.9008,16.1631,1020.14
99350,-2.00861,17.3984,-6.08321,-95.55,-93.73,-174.44,-26.9241,-42.4514,16.5029,1020.14
99356,-3.94548,20.6934,-6.54232,-92.96,4.2,-114.24,-25.9652,-41.5262,16.4881,1020.16
99362,-1.33907,13.9885,-6.72405,-79.8,86.45,-67.9,-25.878,-44.8569,15.8528,1020.16
99368,-8.65614,7.0636,5.32281,-1.54,22.68,-35.98,-26.5464,-44.1167,13.5476,1020.13
99374,-1.81253,14.065,-4.94022,-6.16,-27.58,-61.74,-26.3139,-41.9579,16.4143,1020.13
99380,-0.363462,16.9058,-4.06982,-76.51,-8.33,-46.55,-26.1396,-44.3943,15.0253,1020.13
99386,1.7934,5.43759,1.66428,-65.59,33.74,-34.37,-25.2388,-46.1213,13.7693,1020.15
99392,-3.57724,6.54232,5.66714,-21.49,28.7,-32.34,-25.326,-43.8083,13.7988,1020.15
99398,-3.75897,8.46485,2.13773,-11.2,-17.85,-23.73,-25.0354,-43.7466,14.316,1020.12
99404,-0.545194,10.1291,-0.85605,-4.76,-17.85,-16.31,-25.5294,-47.0157,13.1339,1020.12
99410,0.11956,10.4017,-0.966045,-14.21,-0.84,-15.89,-25.0354,-45.1653,13.7988,1020.15
99416,-0.722142,9.55523,0.181731,-15.4,3.71,-9.87,-24.6286,-43.4382,14.8332,1020.15
99422,-0.779531,9.66045,-0.0813008,-4.76,0,-5.6,-24.5414,-45.5045,12.3064,1020.16
99428,-0.129125,10.4161,-0.946915,-7.35,0.35,-4.27,-25.0063,-45.7512,12.2916,1020.16
99434,0.913438,9.55523,-0.411286,-11.69,-3.5,-7.77,-25.0063,-43.1915,13.6806,1020.16
99440,0.640842,8.90483,0.315638,-2.38,0.49,-7.91,-24.7158,-44.3018,14.5229,1020.11
99446,-0.329986,10.1339,-0.148254,-1.75,-3.99,-7.35,-24.5124,-45.7821,12.4542,1020.11
99452,0.186514,10.3013,-0.5978,-3.15,-3.85,-6.3,-24.832,-43.4074,15.8232,1020.09
99458,0.13869,9.65567,-0.114778,-0.7,-2.66,-9.1,-24.3671,-43.6233,13.7693,1020.09
99464,-0.492587,10.2822,-0.210426,-1.19,-4.83,-7.84,-24.4252,-46.9231,11.2425,1020.1
99470,-0.229555,9.59828,0.243902,1.19,-7.84,-5.81,-24.7739,-45.1961,13.5181,1020.1
99476,0.047824,9.76088,0.023912,5.95,-9.31,-6.93,-24.338,-43.4691,14.0648,1020.14
99482,0.205643,10.2678,-0.870397,5.39,-10.22,-7.35,-23.8441,-46.3063,13.0452,1020.14
99488,0.186514,10.2726,-0.774749,3.5,-9.66,-7.21,-24.5414,-46.7689,13.2521,1020.14
99494,0.167384,9.85653,-0.593018,5.18,-8.19,-8.12,-24.309,-43.4074,13.3408,1020.15
99500,0.023912,9.90913,-0.487805,5.53,-8.12,-8.47,-25.2679,-45.0727,12.9566,1020.15
99506,0.425634,9.70349,-0.454328,6.58,-6.3,-7.77,-24.7739,-46.6456,13.5329,1020.13
99512,0.344333,9.89479,-0.454328,5.88,-5.32,-9.66,-24.2799,-43.2224,15.3356,1020.13
99518,0.296509,9.93304,-0.612147,6.02,-2.03,-9.66,-24.4833,-44.9185,16.1926,1020.09
99524,-0.0765184,9.85653,-0.588235,7.07,-1.47,-9.94,-24.7158,-47.2932,13.7693,1020.09
99530,0.047824,9.84218,-0.626494,7.07,-2.66,-10.43,-25.4422,-45.6587,13.9466,1020.11
99536,0.10043,9.7561,-0.306074,7.84,-3.64,-11.41,-25.0063,-43.284,16.1335,1020.11
99542,0.023912,9.80392,-0.444763,8.68,-2.73,-10.92,-24.7739,-46.5839,13.0452,1020.13
99548,-0.196078,9.82783,-0.569106,9.52,-1.26,-9.17,-24.7158,-46.3063,12.6611,1020.13
99554,-0.243902,10.2535,-0.822573,6.86,-2.73,-10.64,-23.786,-43.9008,14.6854,1020.13
99560,-0.0430416,9.85653,-0.755619,5.46,-3.29,-10.43,-24.0475,-45.1961,13.9762,1020.14
99566,0.0765184,9.90913,-0.636059,4.97,-2.59,-11.2,-24.6577,-47.9408,10.9322,1020.14
99572,0.153037,9.92348,-0.774749,4.06,-2.03,-11.9,-24.2799,-43.9625,13.1191,1020.13
99578,-0.157819,10.0813,-0.83692,0.84,-0.07,-10.22,-23.9312,-44.1476,13.592,1020.13
99584,-0.315638,9.6461,-0.425634,2.8,0.35,-9.73,-24.2799,-46.8615,13.5476,1020.13
99590,-0.253467,9.81827,-0.516499,1.54,-0.91,-10.22,-23.3211,-45.6895,13.8432,1020.13
99596,0.205643,10.2869,-0.545194,-5.04,3.22,-8.89,-23.9022,-43.7466,14.6411,1020.13
99602,0.105213,10.1052,-1.10952,-12.39,8.47,-9.1,-24.1056,-47.2932,13.06,1020.13
99608,-0.664754,9.26351,-0.277379,-7.21,5.81,-7.91,-23.8731,-46.6147,12.9123,1020.13
99614,-0.621712,9.63654,0.0047824,-4.55,3.22,-7.14,-23.6697,-43.9008,14.316,1020.13
99620,-0.0334768,9.76566,-0.430416,-5.04,3.78,-7.21,-23.6407,-45.412,13.1339,1020.13
99626,-0.0047824,10.0813,-0.612147,-7.49,7,-7.28,-23.786,-47.9717,13.6806,1020.12
99632,-0.0908656,9.87087,-0.559541,-8.33,9.52,-8.05,-23.2339,-45.1653,13.8579,1020.12
99638,-0.124342,9.84696,-0.61693,-8.96,9.52,-8.47,-23.786,-44.5485,13.5476,1020.1
99644,-0.25825,9.98565,-0.664754,-9.87,8.4,-8.4,-23.5535,-47.6633,12.4837,1020.1
99650,-0.129125,9.94261,-0.707795,-11.76,9.03,-9.94,-23.4082,-45.1961,13.5033,1020.14
99656,-0.349115,10.0383,-0.722142,-14.42,9.45,-9.45,-23.0886,-44.4251,13.8432,1020.14
99662,-0.483022,10.0048,-0.722142,-14.91,8.12,-10.64,-23.6116,-47.6941,11.6415,1020.14
99668,-0.57867,9.98087,-0.726925,-16.66,4.97,-10.29,-24.2799,-47.1698,12.7202,1020.1
99674,-0.430416,10.3922,-0.640842,-16.52,0.63,-11.34,-23.7278,-44.1476,14.3603,1020.1
99680,-0.334768,10.7556,-0.636059,-18.83,-5.25,-13.3,-23.2339,-45.9363,13.5476,1020.13
99686,-0.143472,10.7461,-1.13821,-23.87,-5.88,-13.51,-23.7569,-48.095,12.07,1020.13
99692,0.0813008,10.3874,-0.124342,-23.17,-10.92,-16.8,-23.9022,-45.3195,12.2621,1020.13
99698,-0.196078,10.1626,-0.5978,-26.95,-11.97,-17.08,-23.5244,-45.1961,13.3851,1020.13
99704,-0.0526064,10.4448,-0.301291,-25.55,-12.18,-19.32,-22.7399,-48.7118,11.0504,1020.14
99710,0.521282,11.4204,-0.0334768,-30.31,-8.82,-23.24,-23.2048,-46.5222,11.4642,1020.14
99716,2.09947,11.3343,1.57341,-21.63,-7.63,-34.3,-22.9724,-45.5662,13.5181,1020.14
99722,3.19943,11.3199,4.55763,3.22,-2.1,-52.01,-21.9263,-49.2361,10.3559,1020.14
99728,1.22429,11.1717,1.12386,9.1,1.82,-57.68,-22.1588,-49.0511,10.9618,1020.14
99734,0.23912,11.2912,-0.774749,2.73,8.4,-60.13,-22.4203,-45.8746,12.3803,1020.14
99740,-0.267814,11.1908,0.406504,5.18,-0.14,-64.89,-21.4905,-47.5708,12.9418,1020.14
99746,0.263032,11.3247,0.679101,9.24,-5.39,-70.56,-21.8101,-49.2978,10.7549,1020.12
99752,0.683883,11.3869,0.291726,10.71,-3.85,-75.18,-21.258,-47.3857,12.5281,1020.12
99758,0.731707,11.8604,0.105213,11.83,-1.61,-80.43,-20.7641,-47.0157,12.6167,1020.11
99764,0.645624,12.0708,-0.0334768,10.71,-0.56,-88.13,-21.0256,-49.9146,10.9027,1020.11
99770,0.124342,12.1377,-0.272597,11.34,-3.36,-94.01,-19.8633,-49.2053,12.469,1020.15
99776,0.196078,12.1521,0.291726,14.42,-9.31,-101.22,-19.5437,-46.4605,11.4198,1020.15
99782,0.272597,12.4964,0.712578,17.78,-12.39,-108.5,-19.2822,-49.8837,11.5676,1020.15
99788,0.793878,12.8503,0.593018,20.23,-10.15,-116.34,-18.7301,-50.223,11.0061,1020.13
99794,0.674318,12.4151,0.153037,20.16,-6.79,-123.27,-18.3233,-47.6941,14.3899,1020.13
99800,0.186514,12.0421,0.980392,25.2,-10.01,-129.43,-16.6671,-49.9763,13.1782,1020.11
99806,0.023912,12.5634,0.927786,33.67,-16.73,-135.03,-15.7953,-50.9631,12.1291,1020.11
99812,0.229555,13.759,0.349115,32.97,-20.58,-142.87,-15.9987,-49.7604,13.1043,1020.16
99818,0.47824,14.0698,-0.148254,40.53,-26.53,-150.01,-15.6501,-48.7118,13.7102,1020.16
99824,0.884744,14.835,-1.47298,35.49,-30.87,-157.71,-14.4297,-52.4743,12.0848,1020.16
99830,0.860832,15.0072,-1.23864,35.7,-32.27,-174.16,-13.2965,-50.7781,13.6215,1020.16
99836,0.860832,15.1554,-0.841702,42.7,-43.05,-189,-13.0059,-48.866,13.8727,1020.12
99842,3.28551,16.9536,-1.3582,36.12,-29.96,-208.25,-11.5531,-52.135,14.0057,1020.12
99848,2.11382,16.7145,-1.66428,38.92,-36.61,-226.94,-9.7806,-52.9369,13.5772,1020.12
99854,1.40603,18.0727,-3.28551,38.5,-39.2,-246.68,-9.46097,-50.1921,15.3356,1020.13
99860,1.09517,20.0191,-6.26016,24.78,-55.51,-273.21,-7.45606,-51.5491,15.3208,1020.13
99866,2.21425,20.4256,-7.21186,12.46,-62.09,-296.03,-5.36397,-54.5097,15.2469,1020.1
99872,3.22812,22.0851,-4.32329,-2.52,-67.97,-320.67,-4.02736,-51.7341,16.5029,1020.1
99878,4.66762,22.2955,-2.56815,-8.26,-76.3,-346.01,-2.63263,-52.2584,17.3747,1020.12
99884,6.34624,22.1043,-1.17169,6.44,-54.67,-374.99,-0.0175235,-55.034,14.8036,1020.12
99890,4.71066,26.1789,1.6021,22.68,-50.19,-404.04,0.883237,-53.307,15.2617,1020.14
99896,4.58632,24.3759,-3.912,13.09,-74.13,-446.32,3.09155,-52.2892,16.9462,1020.14
99902,3.35724,20.3874,-6.91057,24.01,-68.95,-466.97,6.69459,-54.078,16.1631,1020.14
99908,-0.860832,26.2649,-0.439981,30.1,-85.61,-485.17,9.80367,-54.4789,15.1435,1020.15
99914,3.21856,26.0306,-5.41368,9.17,-75.95,-495.53,10.8207,-51.8267,17.6112,1020.15
99920,-3.67767,31.1047,0.291726,46.9,-54.39,-486.5,14.1622,-51.3332,18.0692,1020.12
99926,-0.970827,30.2152,-3.2329,6.02,-119.49,-498.12,17.7071,-53.0602,16.0153,1020.12
99932,3.87853,24.1607,-8.77092,3.71,-90.02,-491.26,18.7241,-49.9763,17.0349,1020.1
99938,1.64036,28.3883,-5.27021,20.3,-75.32,-485.1,21.1358,-49.5137,17.8032,1020.1
99944,3.16595,31.4586,-10.4065,-7.28,-87.01,-484.61,25.5524,-50.1921,15.6163,1020.09
99950,6.08321,26.2697,-9.39742,-43.19,-110.53,-481.95,27.0053,-48.2184,16.2369,1020.09
99956,8.70875,18.3166,-6.48972,-38.15,-151.13,-465.08,27.4411,-45.2886,16.429,1020.09
99962,14.1703,12.1903,-13.3955,-65.1,-155.61,-422.38,31.9159,-44.9185,15.5868,1020.09
99968,15.8584,8.18269,-13.9311,-128.87,-154.35,-371.84,34.2114,-44.4868,12.8532,1020.09
99974,5.32281,-7.46054,-14.5002,-164.5,-113.96,-276.71,32.8747,-43.7775,12.9714,1020.08
99980,2.33859,-8.44572,2.02774,-68.32,-40.39,-110.95,34.9959,-42.4205,13.5772,1020.08
99986,1.45385,-0.83692,11.7025,16.1,-65.38,-15.33,36.7393,-43.8392,11.346,1020.09
99992,5.38976,3.97417,3.11334,70.91,-57.96,57.96,34.8506,-41.6804,11.5972,1020.09
99998,9.71784,8.27833,-5.20325,90.3,-24.57,121.38,33.8917,-41.372,13.4294,1020.08
100004,10.9278,7.68053,-5.52845,79.73,-10.92,161.63,35.7804,-43.87,11.1391,1020.08
100010,12.6112,6.10713,-4.44763,74.83,1.96,182.42,34.4729,-43.4691,12.5428,1020.07
100016,13.2759,6.48972,-4.18938,73.5,17.43,186.76,31.6253,-42.6364,14.05,1020.07
100022,11.5065,7.62315,-4.42372,63.21,32.41,187.46,32.7876,-44.5793,13.1782,1020.07
100028,10.2965,7.81444,-4.10808,49.35,42.91,186.13,32.4679,-46.1521,13.6954,1020.1
100034,8.2066,6.72884,-2.85031,37.1,45.36,188.51,29.3589,-44.5176,13.9318,1020.1
100040,7.72836,5.41368,-2.87422,32.41,51.8,190.33,28.5162,-45.7512,15.0105,1020.06
100046,6.92013,4.1033,-1.57819,28.98,54.74,198.66,29.7657,-47.4782,14.1387,1020.06
100052,6.43711,4.87327,-2.45815,19.04,57.19,208.81,26.86,-46.0288,15.0992,1020.07
100058,5.44237,4.24677,-1.93209,16.24,59.22,222.39,25.5815,-46.368,14.9662,1020.07
100064,5.05978,4.47154,-2.20947,14.91,65.17,237.09,26.0755,-48.9277,13.8875,1020.06
100070,3.86418,4.74892,-1.35342,12.32,61.25,250.88,24.2158,-49.2669,14.9366,1020.06
100076,2.93639,4.82544,-1.74558,12.39,56.14,270.13,21.5426,-48.3726,17.4782,1020.06
100082,2.5825,5.98757,-3.14682,8.26,53.83,285.04,22.0075,-50.1305,16.9758,1020.07
100088,1.37255,5.92061,-2.43902,3.01,47.25,301,21.1939,-51.7958,14.7002,1020.07
100094,1.36777,5.72932,-2.33859,3.01,39.34,316.89,17.9396,-49.637,17.5373,1020.07
100100,1.48733,5.46628,-2.09947,8.26,34.09,329.42,16.8354,-50.9631,17.2417,1020.07
100106,1.23864,5.80105,-1.83166,12.6,23.52,340.62,16.5448,-53.9546,14.9366,1020.07
100112,1.50167,5.94931,-1.65949,18.48,15.54,347.83,12.9999,-51.0557,15.8971,1020.07
100118,1.75992,6.17408,-1.53993,26.25,10.01,352.8,10.8207,-51.6725,16.5325,1020.05
100124,2.02296,6.70971,-1.32472,33.88,5.11,355.95,10.3848,-54.8181,16.0301,1020.05
100130,2.25729,7.08752,-1.06648,42.98,2.24,358.75,8.2346,-53.0294,15.5425,1020.05
100136,2.43424,8.34051,-1.10473,49.42,0.49,358.89,5.47421,-50.8089,16.3995,1020.05
100142,2.39598,9.33525,-1.38211,53.9,-0.28,359.38,5.38704,-54.2013,15.9562,1020.05
100148,2.28599,10.6887,-1.41559,56.35,-2.45,360.36,2.97532,-54.3863,17.0201,1020.05
100154,1.86035,11.6786,-1.41081,61.18,-1.47,359.87,-0.453375,-51.3024,19.473,1020.05
100160,1.53515,12.9699,-1.60689,61.32,-1.89,359.66,-1.47036,-51.9192,18.1283,1020.08
100166,1.06169,13.8785,-1.66428,60.34,-3.57,361.13,-3.06848,-55.0031,17.1383,1020.08
100172,0.851267,14.9498,-1.75036,60.13,-4.83,359.1,-5.16057,-51.8575,17.3895,1020.08
100178,0.688666,15.7963,-1.87948,56.35,-5.25,355.11,-6.61341,-50.0071,18.0544,1020.08
100184,0.468675,16.8914,-1.92252,53.83,-5.88,346.78,-8.41493,-52.906,17.8032,1020.06
100190,0.406504,17.5753,-1.47776,51.87,-5.88,334.25,-9.80966,-50.994,17.2861,1020.06
100196,0.23912,17.8718,-1.15256,53.9,-3.78,320.46,-12.2795,-47.6016,18.7489,1020.06
100202,-0.253467,18.4983,-0.731707,56.98,-3.92,307.09,-12.7444,-50.2847,18.0544,1020.07
100208,-0.545194,18.8331,-0.416069,62.72,-0.56,295.61,-15.1561,-50.223,18.2613,1020.07
100214,-1.42516,19.34,0.483022,74.34,0.91,287.91,-16.1731,-46.2138,18.6898,1020.08
100220,-1.69297,20.1961,0.454328,85.19,2.94,285.67,-17.0448,-46.6456,20.4334,1020.08
100226,-1.64515,22.2286,0.0430416,92.12,8.12,287.7,-18.8754,-47.6324,19.34,1020.06
100232,-1.28168,24.2037,-0.502152,91.49,17.71,290.71,-20.212,-44.1167,20.1231,1020.06
100238,-1.21951,27.0827,-0.95648,84.49,30.17,294.7,-20.212,-43.099,21.453,1020.08
100244,-1.56863,28.5892,-1.19082,71.89,48.23,301.56,-22.5946,-45.3195,21.0688,1020.08
100250,-2.33859,29.6509,-1.57819,58.59,67.06,310.03,-24.338,-42.5747,21.32,1020.08
100256,-3.56767,29.7178,-2.00383,41.09,85.54,320.32,-25.3841,-39.1207,21.0836,1020.08
100262,-6.74797,26.8962,-1.08082,28.98,99.33,334.6,-27.2437,-40.3543,21.8224,1020.08
100268,-9.54089,23.319,1.32472,37.66,105.56,350,-28.8418,-40.4776,21.2018,1020.09
100274,-13.4099,20.77,2.75944,63.14,107.17,363.37,-29.7135,-36.7152,20.6551,1020.09
100280,-15.4663,21.4299,2.14252,81.76,104.51,373.45,-32.1543,-35.6049,21.2018,1020.1
100286,-17.1306,23.1612,0.798661,87.92,100.45,372.05,-33.9849,-35.2657,20.8324,1020.1
100292,-17.977,24.3998,0.196078,86.17,96.18,359.17,-35.2343,-31.7808,18.9558,1020.12
100298,-19.34,25.9445,-1.59732,73.5,92.4,334.88,-35.583,-28.9436,20.8324,1020.12
100304,-20.3204,26.7145,-4.04591,47.11,89.18,300.65,-37.9366,-30.1155,20.3005,1020.12
100310,-23.9216,27.5371,-9.5648,0,81.62,259.28,-38.8955,-28.6352,19.2661,1020.11
100316,-28.154,25.2367,-10.1817,-59.29,67.41,224.21,-37.8494,-25.1503,19.8867,1020.11
100322,-33.6968,14.9737,-4.96413,-78.19,45.08,186.06,-40.0868,-26.4147,20.0493,1020.09
100328,-36.9106,5.86322,1.34864,-72.38,45.29,150.64,-41.6559,-27.124,17.1679,1020.09
100334,-40.1196,1.38211,4.7824,-31.22,42.28,117.53,-39.9415,-23.7316,17.7146,1020.13
100340,-43.7207,-0.61693,8.31181,32.9,17.15,85.54,-40.8423,-24.441,18.5125,1020.13
100346,-43.1899,1.50167,8.81875,99.61,-24.71,49.98,-42.2951,-26.0755,17.3895,1020.12
100352,-35.9493,8.8044,5.39933,135.38,-51.17,6.51,-41.4525,-23.2382,17.9806,1020.12
100358,-30.2343,13.5581,3.03682,123.97,-42,-39.55,-40.0577,-22.8373,19.1036,1020.13
100364,-24.6772,18.7805,0.373027,66.29,-28,-88.48,-41.3072,-24.6877,18.4977,1020.13
100370,-4.20851,32.5777,28.7135,297.71,-207.83,-190.89,-39.9706,-24.3793,18.8967,1020.13
100376,-29.9474,57.4175,-15.6432,-62.86,115.92,-294.98,-38.4887,-23.9475,20.4187,1020.14
100382,-22.5251,25.7437,-30.2678,-354.48,-51.66,-308.56,-38.8955,-28.7585,16.5916,1020.14
100388,20.0096,0.789096,12.4725,-370.09,-208.46,-310.03,-38.5468,-29.9304,18.0544,1020.12
100394,15.098,-8.71353,11.7408,-198.8,-12.39,-325.5,-35.8445,-30.979,19.0592,1020.12
100400,24.3902,-6.67145,8.92874,7.21,89.53,-295.89,-34.6241,-32.0275,17.1383,1020.11
100406,13.2712,-0.267814,6.66188,80.78,225.47,-319.2,-34.7404,-35.9442,16.0153,1020.11
100412,0.679101,13.9168,0.444763,81.13,204.75,-304.5,-34.0139,-33.8162,17.9362,1020.09
100418,-4.00765,17.5514,3.62984,52.78,106.4,-335.58,-32.8517,-34.4947,17.8476,1020.09
100424,-10.11,19.2587,-0.353898,-21.84,87.29,-307.09,-32.3287,-38.9665,17.0644,1020.09
100430,-11.5256,15.7867,-2.94596,-51.8,72.66,-292.74,-31.2245,-39.6141,15.4686,1020.1
100436,-16.6571,18.197,7.97226,-80.57,29.4,-270.06,-30.0622,-38.2572,16.0744,1020.1
100442,-17.384,20.9182,6.13104,-53.83,-30.8,-231.14,-29.5683,-41.4953,15.2913,1020.14
100448,-8.23529,18.9383,-2.67814,-117.74,-143.78,-201.39,-27.912,-43.7466,12.7793,1020.14
100454,-2.36251,12.7116,0.13869,-127.33,-152.11,-192.43,-27.4762,-41.9579,14.6706,1020.1
100460,-2.52511,15.868,-8.24008,-55.37,20.65,-101.22,-26.6916,-42.2355,14.8332,1020.1
100466,-4.68675,10.4256,0.511717,-21.84,105.63,-53.48,-26.9531,-45.0727,14.2717,1020.15
100472,-5.71975,9.90435,0.923003,-6.23,19.74,-60.9,-26.2267,-43.2532,14.4342,1020.15
100478,-3.6681,14.2563,-2.46294,-51.94,-47.39,-86.59,-25.7328,-42.3897,14.4047,1020.15
100484,-0.368245,10.1722,0.626494,-66.57,-24.85,-58.87,-25.5875,-45.3195,13.6215,1020.12
100490,-1.01865,5.27499,4.95935,-8.33,30.73,-39.27,-25.2679,-45.0419,12.9861,1020.12
100496,-4.94022,11.3678,0.645624,-8.54,-1.33,-35.07,-24.4833,-43.3149,14.05,1020.15
100502,-0.712578,9.84218,0.263032,-26.18,-26.6,-26.88,-25.0063,-45.1961,14.0944,1020.15
100508,0.554758,8.18747,1.71688,-7.7,2.94,-18.48,-25.6456,-46.0288,12.3655,1020.1
100514,-1.91774,9.59828,0.731707,-4.41,-1.75,-10.08,-25.1807,-43.7158,14.981,1020.1
100520,-0.966045,10.4495,-0.903874,-6.93,-6.02,-6.44,-24.8611,-44.1476,14.1683,1020.1
100526,0.607365,10.263,-1.0856,-9.52,1.68,-7.63,-25.4422,-47.2932,13.7397,1020.1
100532,-0.0334768,10.0526,-0.215208,-10.64,2.94,-3.43,-24.6286,-43.685,14.4786,1020.13
100538,0.095648,9.61741,0.47824,-8.12,-0.14,-3.08,-24.5124,-43.6233,14.6706,1020.13
100544,0.0382592,9.91392,-0.296509,-8.33,-8.26,-4.41,-24.832,-46.4914,12.1587,1020.13
100550,0.282162,10.2965,-0.593018,-3.85,-3.64,-6.09,-25.1226,-45.7821,13.4294,1020.15
100556,0.124342,9.99043,-0.47824,-5.32,3.01,-6.58,-24.1928,-42.8831,13.4294,1020.15
100562,0.172166,10.2391,-0.549976,-7.84,2.66,-5.81,-24.6286,-45.412,12.794,1020.13
100568,-0.23912,9.71305,0.047824,-3.43,-1.75,-8.54,-24.4833,-46.8306,11.7154,1020.13
100574,-0.234338,9.85653,0.047824,-2.24,-4.27,-6.65,-25.0354,-43.3149,14.3751,1020.09
100580,-0.224773,10.1722,-0.272597,-0.56,-6.93,-3.85,-24.8611,-44.5485,14.6559,1020.09
100586,0.071736,10.0383,-0.425634,0.07,-7.35,-5.25,-24.3671,-47.324,11.8779,1020.13
100592,0.0573888,9.91392,-0.368245,0.77,-7.35,-3.57,-24.2799,-44.3326,12.7349,1020.13
100598,-0.0143472,9.97609,-0.176949,0.98,-5.67,-4.9,-24.2799,-43.0682,13.6067,1020.13
100604,0.416069,9.85653,-0.248685,2.8,-4.69,-6.23,-24.4252,-46.5839,10.7106,1020.14
100610,0.588235,9.73218,-0.129125,4.9,-2.17,-6.51,-24.1928,-46.1213,12.0996,1020.14
100616,0.272597,9.65567,-0.162602,5.6,0.42,-7.42,-24.5124,-43.5308,14.05,1020.16
100622,0.0334768,9.82305,-0.296509,6.09,-1.12,-8.89,-25.2097,-45.8746,13.0748,1020.16
100628,0.167384,9.77523,-0.37781,5.88,-0.98,-9.03,-24.3671,-47.0773,11.8779,1020.13
100634,0.095648,9.73697,-0.296509,7.14,-0.28,-8.4,-23.9894,-44.2401,13.4738,1020.13
100640,0.191296,9.99522,-0.573888,7.14,0.14,-10.15,-24.1346,-45.1344,13.0009,1020.16
100646,0.11956,10.0143,-0.564323,4.62,0.63,-10.85,-24.2799,-47.1698,12.602,1020.16
100652,0.325203,10.067,-0.879962,1.68,4.06,-10.29,-24.5995,-44.4251,12.8088,1020.15
100658,-0.0382592,9.84696,-0.707795,1.33,4.69,-10.43,-25.1516,-43.7158,13.6659,1020.15
100664,0.0286944,10.0143,-0.71736,-0.49,5.46,-9.8,-24.8901,-46.9231,13.6511,1020.15
100670,-0.0047824,9.87087,-0.645624,-1.96,6.37,-10.64,-24.3671,-46.3989,12.3064,1020.14
100676,-0.0573888,9.78479,-0.559541,-2.59,7.56,-10.36,-24.4252,-44.055,13.2817,1020.14
100682,-0.10043,9.79436,-0.454328,-4.62,8.68,-9.38,-24.1637,-46.4914,13.2226,1020.13
100688,-0.229555,9.77523,-0.416069,-3.64,8.12,-9.52,-24.338,-46.954,12.6611,1020.13
100694,-0.10043,9.88044,-0.387374,-6.58,6.93,-9.17,-23.9603,-44.3018,13.193,1020.14
100700,-0.153037,9.66045,-0.636059,-5.53,6.93,-7,-23.5244,-45.0419,13.6954,1020.14
100706,0.0573888,9.77044,-0.215208,-5.39,8.68,-9.03,-24.0765,-47.725,11.7006,1020.14
100712,-0.320421,9.72262,-0.382592,-5.46,7.84,-9.94,-24.309,-45.0111,12.3803,1020.14
100718,-0.181731,9.92826,-0.392157,-6.44,7.35,-9.59,-24.0765,-43.8083,13.2964,1020.14
100724,-0.200861,9.72262,-0.181731,-5.32,7.42,-9.38,-24.2799,-47.139,12.6167,1020.15
100730,-0.157819,9.68436,-0.0191296,-4.27,6.93,-8.61,-24.5124,-46.2138,11.8927,1020.15
100736,-0.272597,9.86131,-0.205643,-3.64,6.51,-9.52,-23.4954,-43.5616,12.0848,1020.13
100742,-0.196078,9.89,-0.224773,-4.27,5.04,-10.71,-23.6116,-46.9848,13.5181,1020.13
100748,-0.129125,9.98565,-0.272597,-4.55,3.92,-11.13,-24.2218,-47.3549,10.548,1020.15
100754,-0.153037,9.85174,-0.37781,-5.18,4.13,-11.41,-24.0184,-45.3195,12.5281,1020.15
100760,-0.196078,9.93304,-0.334768,-6.86,3.5,-12.32,-23.9603,-45.2886,12.4985,1020.12
100766,-0.37781,9.79436,-0.224773,-6.51,2.73,-12.46,-23.3211,-48.0642,12.2325,1020.12
100772,-0.291726,9.88522,-0.109995,-7.28,0.77,-12.67,-23.3792,-46.4297,11.5972,1020.12
100778,-0.291726,9.76088,-0.109995,-8.19,0.84,-13.51,-23.9603,-44.4251,12.2178,1020.14
100784,-0.167384,9.65567,-0.234338,-6.72,0.56,-14,-23.2048,-47.2932,11.4494,1020.14
100790,-0.310856,10.0574,-0.23912,-7.35,-0.84,-14.35,-23.3792,-47.5399,10.3116,1020.14
100796,-0.21999,10.2535,-0.468675,-9.52,-1.75,-14.56,-23.6988,-43.9625,12.4837,1020.14
100802,-0.205643,10.2965,-0.683883,-13.09,-2.87,-15.96,-23.4082,-45.9671,12.2621,1020.11
100808,-0.784314,10.6552,-1.06169,-15.12,-6.79,-14.98,-23.3501,-48.2492,10.7549,1020.11
100814,-0.167384,11.7121,-1.26255,-24.85,-11.06,-16.38,-23.5535,-45.3195,11.3903,1020.14
100820,0.186514,11.4921,-1.10952,-30.52,-12.04,-19.74,-23.2629,-45.8437,12.5281,1020.14
100826,0.349115,11.3199,-0.296509,-32.48,-11.97,-23.66,-23.6116,-49.7912,9.27726,1020.13
100832,0.114778,11.1478,-0.0430416,-33.46,-13.23,-27.65,-23.0595,-46.3063,11.3016,1020.13
100838,1.53037,11.3343,1.3869,-30.66,-11.62,-33.74,-21.9554,-46.5222,12.8975,1020.13
100844,4.47154,11.8747,5.47107,-3.22,-4.34,-54.11,-22.6237,-48.866,10.9027,1020.15
100850,1.85079,11.5017,1.48254,17.92,-1.26,-68.6,-22.1588,-47.8175,10.1047,1020.15
100856,0.344333,12.1282,-1.93687,10.01,1.54,-70.28,-21.8101,-45.4428,11.1834,1020.11
100862,-0.286944,12.4008,0.0334768,3.15,-7.49,-75.88,-21.0546,-48.0334,11.3016,1020.11
100868,1.25299,11.999,1.01387,7.77,-8.61,-83.16,-21.4033,-49.0202,9.48413,1020.12
100874,0.989957,12.176,1.21951,10.43,-6.72,-89.46,-20.6478,-47.2932,10.09,1020.12
100880,1.01387,11.7408,1.1956,14.91,-4.48,-96.25,-19.9795,-48.0025,12.6315,1020.13
100886,0.918221,11.6069,0.942133,19.25,-2.24,-103.25,-18.9044,-50.8706,9.66145,1020.13
100892,0.0286944,11.6691,0.908656,21.56,-3.5,-109.27,-19.0497,-48.7735,11.3903,1020.13
100898,-0.10043,11.8651,1.68819,29.47,-9.94,-116.27,-18.5557,-48.0642,12.6611,1020.14
100904,0.593018,12.176,1.68819,37.52,-14.56,-124.32,-18.4395,-50.4697,12.1439,1020.14
100910,0.851267,12.6255,0.631277,43.47,-11.69,-132.16,-17.161,-50.7164,11.6267,1020.11
100916,0.205643,13.4959,-1.05213,44.03,-13.37,-140.21,-17.0448,-48.0334,12.8236,1020.11
100922,-0.291726,13.7829,-1.29125,41.93,-22.54,-149.1,-16.5218,-49.2361,12.4099,1020.13
100928,-0.13869,13.8164,-0.961262,43.47,-33.88,-156.59,-15.7663,-50.9323,10.8436,1020.13
100934,1.25299,15.5906,-1.53037,37.31,-29.54,-165.55,-13.9938,-49.1436,13.5033,1020.13
100940,1.56384,16.5136,-1.7934,28.63,-31.15,-179.2,-13.0931,-49.7604,14.4933,1020.13
100946,1.66428,15.9063,-1.15734,24.29,-33.46,-196.28,-12.8606,-52.4743,13.2669,1020.13
100952,0.827355,14.3329,-1.42994,29.68,-38.22,-209.79,-11.524,-50.9631,13.4147,1020.13
100958,1.52559,15.165,-1.5495,31.85,-41.16,-225.96,-10.2164,-50.6239,14.8775,1020.13
100964,0.741272,18.0583,-4.17025,36.47,-31.29,-244.86,-8.99606,-53.7696,14.7741,1020.14
100970,0.636059,19.0579,-4.06026,22.19,-56.77,-269.71,-7.25266,-53.5537,14.3603,1020.14
100976,3.25681,19.6987,-4.06504,7.63,-63.35,-288.47,-6.38096,-50.1613,15.0548,1020.11
100982,3.90244,19.3783,-2.74988,5.95,-58.31,-311.15,-4.63755,-52.2892,15.0548,1020.11
100988,4.01243,19.9378,0.387374,20.93,-58.59,-335.3,-2.66169,-55.3115,14.3899,1020.12
100994,4.77762,22.6877,0.095648,32.34,-42.42,-361.06,-0.889226,-52.0734,16.3995,1020.12
101000,2.52511,28.4935,0.310856,23.1,-50.12,-391.16,0.185875,-52.536,16.4143,1020.13
101006,4.83501,21.9608,-4.68675,14.77,-56,-427.84,4.25382,-55.6816,15.7937,1020.13
101012,0.851267,18.6083,-3.099,33.74,-60.76,-452.9,6.40402,-53.7079,15.2913,1020.13
101018,0.746054,22.7881,0.73649,49.91,-71.96,-463.68,7.13044,-51.95,15.8823,1020.09
101024,0.813008,27.2597,-0.162602,63.7,-59.29,-466.76,11.4599,-53.6462,15.6016,1020.09
101030,-0.755619,33.4146,-1.52559,61.95,-57.4,-479.36,13.7263,-53.5228,14.9366,1020.15
101036,-0.0047824,33.3716,-2.19512,24.22,-81.13,-486.92,14.1622,-50.0379,17.8328,1020.15
101042,6.25538,26.3223,-3.49593,2.24,-84.77,-491.89,18.5498,-50.1921,17.6998,1020.11
101048,4.74892,28.1109,-3.45768,17.92,-52.85,-485.03,21.7751,-50.9323,15.9857,1020.11
101054,4.57197,33.9263,-6.04974,-8.82,-63.42,-493.22,21.8913,-47.8175,17.6112,1020.1
101060,7.05882,28.1396,-8.53658,-44.31,-85.54,-496.02,24.1577,-46.8306,16.9905,1020.1
101066,9.45481,22.1282,-7.0636,-38.01,-94.22,-470.12,29.3589,-47.1698,16.1335,1020.1
101072,13.4672,18.5175,-10,-85.96,-107.66,-437.08,29.7657,-45.5045,15.0401,1020.12
101078,17.3027,11.0426,-13.4338,-151.9,-118.79,-407.82,30.4049,-43.5924,15.8084,1020.12
101084,9.91392,-0.93735,-16.5567,-212.66,-75.18,-343.77,34.2695,-43.9625,15.2174,1020.08
101090,-1.97513,-7.28838,2.06121,-137.83,-0.77,-161.35,35.3155,-43.2532,14.05,1020.08
101096,-0.535629,-2.65423,12.3195,-59.92,-21.07,-56.84,32.991,-42.4514,14.2569,1020.08
101102,5.26542,4.19895,3.32855,-9.45,-13.93,22.96,34.7344,-41.9888,14.2569,1020.08
101108,6.80536,6.29364,-0.530846,30.59,6.51,90.16,35.6932,-43.8392,12.7349,1020.09
101114,9.57915,6.30799,-3.80201,37.59,19.18,133.21,32.8747,-42.2972,13.9171,1020.09
101120,10.6887,5.1889,-3.84027,35.77,29.96,159.32,32.4389,-43.1298,15.4686,1020.09
101126,10.8178,5.00717,-3.36203,39.2,41.44,166.6,33.9208,-44.9802,13.5772,1020.12
101132,10.1817,6.03539,-3.89287,40.74,47.88,169.4,32.2064,-44.7335,14.6115,1020.12
101138,7.81922,7.14012,-3.96939,23.59,48.37,165.55,29.6785,-43.7466,14.3012,1020.11
101144,6.52798,5.26064,-3.34768,18.06,46.69,164.64,30.6374,-45.3195,15.1139,1020.11
101150,6.13104,4.03635,-1.95122,14.49,47.6,163.38,30.4049,-47.1082,13.7988,1020.07
101156,5.20325,3.14204,-1.76471,13.16,43.12,175.14,27.2668,-45.2578,15.1287,1020.07
101162,5.22238,3.39072,-2.3912,11.41,45.85,182.63,27.5283,-47.4166,15.6607,1020.07
101168,4.24199,4.05069,-2.26208,6.37,43.68,190.19,28.3128,-49.0202,14.5081,1020.07
101174,2.74988,3.63941,-1.56384,0.91,35.56,206.99,24.5645,-47.1698,15.1139,1020.07
101180,3.42898,4.27068,-2.71162,-3.64,43.75,224.63,23.9543,-46.9231,15.5129,1020.07
101186,3.18508,4.97848,-1.6021,-8.05,44.45,242.13,25.2619,-50.9015,14.3012,1020.07
101192,2.44381,5.92061,-2.40555,-17.08,37.31,259.77,23.0536,-49.2978,15.4242,1020.06
101198,2.32425,5.58106,-2.42468,-18.06,33.39,281.4,19.8283,-49.2361,15.7937,1020.06
101204,2.12817,5.44715,-2.1186,-22.54,34.37,300.23,19.9735,-53.1528,15.3356,1020.05
101210,1.58297,5.75801,-2.33859,-23.94,27.51,317.66,19.0728,-52.4743,13.5624,1020.05
101216,1.7934,5.19847,-2.20469,-21.42,22.89,330.47,15.7022,-50.8398,15.3799,1020.06
101222,1.58297,5.16977,-1.83166,-16.31,17.78,338.8,15.092,-52.7827,14.582,1020.06
101228,1.76949,5.58584,-1.94165,-9.73,12.18,348.04,14.2203,-54.9723,12.8236,1020.06
101234,1.78862,5.46628,-1.31516,-0.56,7.7,354.83,10.5591,-52.8135,13.4294,1020.06
101240,2.21425,5.92061,-1.44907,7.7,6.02,358.12,8.75762,-52.2892,14.3456,1020.06
101246,2.48207,6.16451,-1.21951,17.71,4.2,361.76,8.40894,-55.1265,13.06,1020.04
101252,2.76423,7.24055,-1.31038,25.69,4.2,365.12,5.29987,-54.0163,13.6806,1020.04
101258,2.62554,8.18269,-1.37733,31.29,3.15,366.52,2.77193,-52.4126,15.0401,1020.06
101264,2.65423,9.67958,-1.62123,35.98,4.41,367.43,2.24891,-55.4041,14.05,1020.06
101270,2.21425,10.8082,-1.70253,39.69,4.27,369.88,0.708897,-55.1573,13.459,1020.09
101276,1.79818,12.1282,-1.91774,40.67,3.99,371.91,-2.45829,-52.9986,16.1631,1020.09
101282,1.20995,13.3333,-1.94165,40.74,3.43,375.27,-3.9983,-53.492,14.6115,1020.09
101288,0.884744,14.1607,-1.98948,39.97,1.33,375.48,-5.45114,-54.2938,14.5377,1020.09
101294,0.425634,15.2893,-2.32903,39.76,-1.68,372.82,-8.41493,-51.4566,15.4981,1020.09
101300,-0.205643,16.5471,-2.70206,36.75,-7.63,366.24,-9.92588,-51.0865,15.5277,1020.08
101306,-0.664754,17.4845,-2.69249,40.53,-10.36,356.58,-11.2334,-52.6902,14.5081,1020.08
101312,-1.47776,18.2544,-2.47728,40.25,-20.93,343.91,-13.7033,-50.5005,16.2517,1020.11
101318,-1.64515,18.7709,-2.1473,43.96,-26.67,330.12,-15.0108,-47.6016,17.7294,1020.11
101324,-1.956,18.9431,-1.40603,51.1,-32.27,317.94,-16.0569,-50.1305,15.3947,1020.11
101330,-2.42946,19.67,-0.640842,61.81,-34.3,308.77,-17.8003,-49.0511,16.1926,1020.11
101336,-2.7977,20.4352,-0.277379,75.6,-36.47,307.16,-18.5267,-46.4297,16.4881,1020.1
101342,-3.21377,21.8269,0.0526064,88.9,-32.9,311.99,-20.6769,-46.5839,17.0053,1020.1
101348,-2.96987,23.3381,0.0095648,96.39,-25.83,319.97,-21.8101,-46.8615,16.4438,1020.1
101354,-2.0373,26.0354,-0.129125,98.49,-11.48,328.79,-22.4203,-43.1915,18.8819,1020.1
101360,-1.59254,27.9675,-0.47824,93.31,9.87,335.37,-23.9603,-41.7112,19.3104,1020.1
101366,-1.88905,30.6408,-1.48254,77.63,33.67,339.15,-25.849,-44.2709,18.3795,1020.08
101372,-2.94118,31.3247,-1.75036,53.83,54.88,340.34,-27.1275,-40.5701,18.6898,1020.08
101378,-5.83931,28.6992,0.35868,40.25,73.15,339.99,-27.883,-38.0721,19.2661,1020.11
101384,-8.46963,26.901,1.29603,43.26,87.99,341.74,-30.2947,-39.4907,18.6012,1020.11
101390,-13.1803,26.088,0.927786,45.08,95.13,345.31,-32.4449,-38.6272,19.0297,1020.12
101396,-15.6528,26.0306,-0.253467,40.6,98.63,347.48,-32.5611,-34.3405,18.8967,1020.12
101402,-18.2736,25.2941,-1.11908,36.82,99.05,342.86,-34.6822,-35.0498,18.0249,1020.12
101408,-19.6796,25.3372,-3.62984,21.91,96.74,329.35,-36.1932,-33.4462,16.6211,1020.12
101414,-21.2578,24.6533,-5.84888,-1.61,89.53,307.58,-37.2102,-30.6089,16.6211,1020.12
101420,-23.8785,22.9842,-9.40698,-28.7,79.87,279.79,-37.5589,-30.0538,16.9462,1020.11
101426,-26.8962,20.44,-9.93304,-57.96,65.87,251.79,-39.68,-30.979,15.7198,1020.11
101432,-31.9464,13.0225,-6.59493,-68.32,39.83,218.19,-40.4355,-27.4941,16.2665,1020.13
101438,-33.8211,8.13486,-3.25681,-61.04,28.77,184.45,-39.7091,-25.7362,15.2913,1020.13
101444,-37.5897,1.29125,1.88427,-23.52,19.04,152.67,-41.1329,-27.124,15.3504,1020.11
101450,-40.1674,-0.612147,4.3759,33.88,-1.61,121.73,-42.208,-26.2605,14.6559,1020.11
101456,-41.6117,0.655189,5.58106,95.97,-38.15,87.92,-40.9585,-23.8858,15.838,1020.13
101462,-39.4835,4.3472,4.9737,142.66,-71.82,47.18,-41.2781,-24.3793,17.6259,1020.13
101468,-32.8503,11.8317,2.27164,149.03,-98.7,-18.83,-42.76,-25.7054,16.429,1020.13
101474,-28.7279,15.8441,1.07126,136.5,-58.59,-65.24,-40.6679,-23.0532,17.4782,1020.15
101480,-23.6346,18.8857,-0.860832,62.09,-52.85,-91.63,-40.0287,-22.9606,19.931,1020.15
101486,-21.0043,19.1822,-1.08082,41.79,-48.93,-116.13,-41.22,-25.5512,17.5816,1020.15
101492,-17.9101,18.3453,-1.0043,1.61,-11.27,-139.93,-40.7261,-25.7671,18.9263,1020.15
101498,20.1339,62.2525,67.4127,185.99,-186.76,-360.29,-38.8374,-23.6391,20.6846,1020.12
101504,-19.407,28.5988,-29.5026,-227.08,-37.38,-275.38,-39.0117,-27.6791,19.6355,1020.12
101510,6.17886,15.3085,-42.6829,-424.76,-74.06,-239.19,-37.5879,-31.3491,15.1878,1020.08
101516,17.341,-11.4443,14.0363,-366.45,-8.12,-266.07,-36.3966,-30.3005,17.7737,1020.08
101522,17.2262,-19.6126,22.7307,-106.33,91.07,-277.55,-36.0479,-32.7985,16.4586,1020.12
101528,14.8446,-14.285,14.5289,103.04,155.47,-296.17,-36.6291,-35.6666,14.5081,1020.12
101534,8.77092,4.09852,3.43376,148.26,162.26,-298.2,-34.0721,-34.4947,15.5572,1020.12
101540,1.09039,12.1329,1.93687,85.68,139.86,-329.63,-33.8396,-35.6358,15.3799,1020.11
101546,-4.40459,13.3285,-0.970827,54.74,96.95,-344.26,-33.1713,-39.7066,15.1583,1020.11
101552,-12.3769,24.1463,-9.33046,15.4,129.57,-305.83,-31.5151,-39.1207,15.439,1020.1
101558,-17.5944,20.0143,5.8967,-74.97,57.54,-287.21,-30.1785,-37.5478,15.2765,1020.1
101564,-18.9909,16.5088,12.0899,-102.48,-43.54,-273.07,-30.3237,-41.4645,14.9957,1020.12
101570,-10.3922,11.0665,4.3759,-56.98,-139.72,-244.02,-29.0743,-43.7466,13.3851,1020.12
101576,-7.00143,16.8054,-2.27164,-42.77,-159.53,-205.45,-27.4471,-41.1561,14.8923,1020.13
101582,-4.03635,20.4974,-14.5959,-80.08,-33.67,-178.57,-25.9943,-43.0373,15.2765,1020.13
101588,-6.95361,19.45,-8.74223,-95.48,51.66,-76.72,-25.2097,-46.4297,13.193,1020.13
101594,-1.32472,0.234338,4.86848,4.27,19.25,-60.55,-25.355,-42.6981,13.1191,1020.14
101600,-3.04161,14.505,-9.11047,6.3,2.24,-82.6,-24.9773,-43.099,13.9023,1020.14
101606,-0.989957,14.2946,-5.49498,-124.04,22.68,-68.74,-25.0354,-46.8923,12.794,1020.15
101612,-4.7824,5.00717,5.49976,-51.94,31.08,-29.82,-25.355,-45.7821,9.86832,1020.15
101618,-4.10808,6.43711,7.54184,0.42,-3.08,-32.34,-25.0354,-43.6233,12.9566,1020.15
101624,-1.08082,11.0904,0.679101,-16.38,-6.72,-21.7,-24.7739,-46.0905,13.06,1020.15
101630,-1.99426,8.2592,1.22908,-7.35,7.84,-19.39,-24.4252,-47.0465,12.4837,1020.16
101636,-3.18508,9.61262,2.43424,-4.76,-12.53,-13.58,-25.0063,-43.9934,12.0109,1020.16
101642,-0.966045,9.27786,0.769966,6.93,-8.47,-6.16,-24.1056,-44.7643,13.9762,1020.16
101648,-1.16212,10.2774,-0.210426,5.11,-10.08,-2.17,-24.3671,-47.2624,12.5281,1020.13
101654,0.272597,10.856,-1.71688,-0.49,-4.97,-1.96,-24.338,-45.0727,12.3803,1020.13
101660,0.023912,10.4782,-1.20038,-4.27,-3.85,-4.13,-24.1928,-43.9317,12.7054,1020.13
101666,-0.13869,10.1148,-0.406504,-5.25,-1.54,-1.54,-24.2509,-47.1082,11.9518,1020.13
101672,-0.109995,10.1148,-0.234338,-4.27,-1.4,-3.85,-24.1346,-46.2138,11.4051,1020.13
101678,0.602582,9.73218,-0.449546,-1.89,-2.52,-5.6,-24.832,-43.5308,12.5133,1020.13
101684,-0.224773,10.1196,-0.636059,-4.34,-1.19,-3.5,-24.0475,-46.1521,12.1734,1020.13
101690,-0.109995,10.0717,-0.344333,-3.43,-2.87,-6.93,-24.6286,-46.5222,10.3412,1020.13
101696,-0.248685,9.93783,-0.129125,-0.91,-2.73,-5.67,-24.5414,-43.7158,11.2573,1020.12
101702,0.148254,9.78001,-0.0382592,0.91,-3.01,-5.18,-24.1056,-45.9979,13.3555,1020.12
101708,-0.114778,9.90435,-0.0908656,0.35,-3.01,-5.25,-24.7158,-47.6324,11.7449,1020.12
101714,0.129125,9.77044,-0.191296,3.43,-2.1,-5.81,-24.6577,-45.3195,12.8975,1020.13
101720,0.296509,9.88044,-0.282162,3.01,-0.91,-7.28,-24.1056,-44.5793,12.7349,1020.13
101726,0.229555,9.78479,-0.301291,3.99,1.05,-7.84,-24.5124,-46.7998,12.3508,1020.14
101732,0.114778,9.77523,-0.267814,5.88,2.31,-8.61,-24.5124,-46.3063,11.1243,1020.14
101738,0.0621712,9.78001,-0.310856,5.53,3.22,-9.73,-24.1637,-44.0242,12.4394,1020.15
101744,0.047824,9.84218,-0.282162,5.88,3.64,-10.22,-24.6577,-46.7073,11.1686,1020.15
101750,0.095648,9.65567,-0.267814,7.49,2.94,-11.06,-23.786,-47.2315,11.8484,1020.12
101756,0.0669536,9.96174,-0.71736,6.16,4.76,-10.78,-24.309,-44.055,13.0452,1020.12
101762,0.0286944,9.97609,-0.746054,4.69,6.65,-11.97,-24.3671,-45.9363,13.1339,1020.12
101768,-0.153037,9.79436,-0.45911,3.57,6.44,-12.53,-24.5124,-46.8615,11.5824,1020.16
101774,-0.334768,9.77523,-0.33955,3.92,5.95,-11.2,-24.6867,-44.6101,11.6415,1020.16
101780,-0.243902,9.87087,-0.583453,2.24,5.6,-10.92,-23.4663,-44.8569,13.2226,1020.11
101786,-0.234338,9.9713,-0.841702,0.7,6.3,-12.46,-23.3501,-48.3109,9.97175,1020.11
101792,-0.023912,10.0861,-1.04256,-0.98,8.89,-11.48,-24.1346,-46.5222,11.9518,1020.14
101798,-0.243902,9.99043,-0.923003,-3.5,9.52,-9.38,-23.6407,-44.2092,11.5824,1020.14
101804,-0.334768,9.98565,-0.636059,-5.74,11.83,-9.52,-23.9603,-47.1082,11.4937,1020.13
101810,-0.33955,9.69871,-0.516499,-8.26,10.43,-10.29,-23.5244,-46.954,10.3559,1020.13
101816,-0.320421,9.79436,-0.645624,-8.05,13.3,-9.38,-24.8611,-44.3326,11.7745,1020.13
101822,-0.373027,9.78001,-0.382592,-6.86,13.3,-9.24,-24.2509,-45.5662,12.3655,1020.13
101828,-0.368245,9.74175,-0.329986,-6.09,13.09,-8.82,-24.1346,-47.3857,10.5037,1020.13
101834,-0.535629,9.77523,-0.306074,-7.49,11.83,-8.26,-23.6697,-45.5353,11.0652,1020.13
101840,-0.468675,9.79436,-0.224773,-7.49,11.06,-8.33,-24.0475,-44.9185,11.1243,1020.13
101846,-0.559541,9.59828,0.0095648,-7.07,11.06,-7.77,-23.5244,-48.9586,10.3116,1020.13
101852,-0.703013,9.61741,0.0382592,-6.44,8.96,-6.65,-23.8731,-47.2007,10.7253,1020.13
101858,-0.535629,9.6461,0.0860832,-5.88,6.86,-6.51,-23.292,-44.055,11.9518,1020.17
101864,-0.521282,9.7561,-0.047824,-5.88,5.11,-6.58,-23.0305,-47.4782,12.2769,1020.17
101870,-0.530846,9.69392,-0.291726,-5.46,3.92,-7.07,-23.6407,-47.6941,9.95698,1020.13
101876,-0.411286,9.81349,-0.325203,-6.02,3.15,-7,-23.8441,-45.2886,11.6119,1020.13
101882,-0.468675,9.90913,-0.282162,-6.23,1.82,-7.91,-23.5535,-45.1036,12.1439,1020.13
101888,-0.511717,9.85653,-0.35868,-6.72,-0.07,-8.68,-23.292,-48.5268,10.8583,1020.16
101894,-0.229555,10.1243,-0.664754,-8.19,-0.56,-9.59,-22.3041,-45.2886,10.223,1020.16
101900,-0.33955,10.1913,-0.645624,-10.08,-1.82,-9.94,-23.5535,-45.1961,11.4346,1020.14
101906,-0.454328,10.8752,-0.688666,-12.46,-5.39,-12.11,-23.2339,-48.496,9.46935,1020.14
101912,-0.315638,10.9613,-1.06648,-18.62,-7,-13.37,-23.1467,-47.6633,10.7549,1020.11
101918,-0.463893,10.5117,-0.841702,-22.61,-9.8,-13.72,-23.4373,-44.3326,8.83397,1020.11
101924,-0.487805,10.6887,-0.73649,-25.48,-12.46,-14.35,-22.6237,-48.4034,10.4889,1020.12
101930,-0.492587,10.9613,-0.932568,-28.56,-16.1,-16.31,-23.1758,-48.866,8.56799,1020.12
101936,0.157819,10.88,-0.626494,-32.2,-14.98,-19.25,-22.6527,-45.5353,10.6219,1020.12
101942,0.401722,10.7078,0.401722,-31.36,-13.65,-22.96,-23.292,-47.2624,9.79444,1020.14
101948,2.46772,11.2673,3.33812,-14.63,-7.98,-38.71,-23.0886,-48.9277,9.45458,1020.14
101954,2.05643,10.0526,4.05548,18.34,-2.8,-53.55,-22.1878,-46.2138,10.6515,1020.17
101960,-0.215208,11.1239,-1.34385,14,0.63,-55.3,-21.8682,-46.2138,10.6219,1020.17
101966,-0.33955,11.8604,-0.813008,8.4,-4.76,-58.38,-22.0716,-49.8529,9.45458,1020.17
101972,0.827355,11.9225,0.143472,8.4,-7.49,-65.59,-20.9675,-48.3418,10.1491,1020.17
101978,0.894309,12.219,-0.0191296,7.77,-5.95,-72.73,-21.0256,-46.1213,11.5381,1020.1
101984,0.511717,11.6499,0.870397,8.47,-6.86,-77.98,-20.5607,-49.3286,9.85354,1020.1
101990,0.69823,11.406,0.875179,12.39,-4.55,-82.53,-20.4735,-49.1436,10.3559,1020.14
101996,0.263032,12.0708,0.636059,18.06,-6.02,-89.95,-20.5897,-47.2315,11.4198,1020.14
102002,0.248685,12.4534,0.296509,17.08,-10.64,-97.3,-19.9795,-49.2361,11.0948,1020.14
102008,0.392157,11.8747,0.726925,16.59,-9.8,-102.97,-18.6429,-51.8575,9.24771,1020.14
102014,0.186514,11.1573,1.16212,20.86,-7.14,-110.11,-18.7591,-49.1128,9.64667,1020.14
102020,-0.023912,11.1478,2.53467,33.39,-8.05,-115.78,-18.3233,-47.7558,11.6858,1020.15
102026,0.0669536,11.3295,2.00383,43.19,-10.71,-122.92,-17.4516,-50.7164,11.1982,1020.15
102032,-0.143472,12.0373,0.243902,49.28,-12.32,-128.87,-16.4927,-49.9454,7.60753,1020.14
102038,-0.583453,12.6255,-0.5978,53.13,-20.3,-135.17,-16.8705,-48.6502,12.5281,1020.14
102044,-0.368245,13.8498,-0.769966,54.18,-28.63,-142.52,-15.3304,-50.5622,12.6315,1020.15
102050,1.07604,14.7107,-1.44907,42.49,-24.57,-152.67,-14.4878,-52.135,11.7597,1020.15
102056,0.741272,14.4715,-1.10473,43.12,-24.64,-162.26,-13.7323,-49.1744,13.7102,1020.15
102062,0.69823,16.0019,-0.841702,42.91,-28.35,-173.18,-12.8606,-50.3772,13.8284,1020.1
102068,1.49689,16.198,-1.47298,33.95,-32.76,-190.47,-11.9017,-53.0602,13.4738,1020.1
102074,1.85079,15.9493,-1.36777,32.55,-31.71,-206.22,-10.8848,-51.5491,13.3703,1020.09
102080,2.08034,16.1693,-1.38211,35.98,-30.73,-225.96,-9.80966,-50.223,14.3308,1020.09
102086,1.69775,17.1832,-1.75036,37.03,-35.42,-249.27,-8.21153,-53.4303,14.1091,1020.11
102092,0.966045,19.4883,-3.80679,32.06,-44.87,-272.72,-6.23567,-52.6902,14.4342,1020.11
102098,1.20516,19.3305,-5.92539,21.28,-58.73,-295.75,-6.26473,-50.7473,15.0992,1020.12
102104,2.26208,19.2874,-4.3759,16.52,-65.03,-317.03,-4.02736,-53.5845,15.1287,1020.12
102110,4.22764,20.11,-1.47776,21.77,-63.35,-341.18,-1.87716,-55.2807,14.9662,1020.12
102116,3.72549,23.3285,0.325203,38.99,-45.36,-364.35,-1.06357,-52.0425,15.8084,1020.11
102122,5.25586,29.2683,0.33955,24.92,-57.96,-397.18,0.854181,-52.2276,15.6311,1020.11
102128,4.77284,23.9168,-3.59636,24.15,-56.21,-433.93,5.03836,-55.2807,14.8775,1020.13
102134,-1.36298,19.8087,-4.24199,43.26,-52.71,-458.29,6.22968,-53.0294,15.4242,1020.13
102140,-0.114778,24.2037,0.0669536,46.41,-78.96,-467.46,8.78668,-50.8706,16.9314,1020.15
102146,1.47776,25.1076,-2.22382,59.22,-61.39,-471.66,12.8256,-52.8135,16.8723,1020.15
102152,-3.49593,34.7346,-2.36729,76.44,-57.61,-476.42,14.5399,-51.8883,17.4486,1020.13
102158,0.530846,33.252,-6.15495,5.46,-107.87,-492.59,14.8305,-48.7735,17.818,1020.13
102164,5.22238,24.0411,-7.04448,4.9,-87.57,-485.73,19.3924,-50.9323,17.1088,1020.09
102170,2.38642,24.1559,-4.54328,25.97,-72.59,-480.41,23.286,-49.9146,17.0496,1020.09
102176,2.5012,29.6222,-5.47107,18.27,-92.4,-489.09,23.4022,-47.2007,17.2565,1020.09
102182,6.94404,26.8484,-10.1004,-11.13,-111.02,-500.22,24.797,-46.4297,17.8919,1020.08
102188,7.13056,20.3826,-8.94787,-5.53,-125.93,-483.91,30.6374,-47.2932,16.3256,1020.08
102194,7.97704,15.275,-10.9995,-13.23,-156.17,-437.22,30.8698,-44.0242,16.6359,1020.08
102200,12.2956,13.0607,-16.2028,-83.44,-181.09,-395.01,30.957,-42.2972,16.0153,1020.08
102206,4.00765,-2.18556,-20.55,-153.44,-159.74,-329.84,35.6351,-42.3897,15.173,1020.07
102212,-3.51028,-9.45481,-6.24581,-68.67,-112.21,-165.55,36.3616,-42.2355,14.1387,1020.07
102218,-3.21856,-4.46198,15.0885,20.37,-150.08,-26.6,33.8627,-40.6935,14.3012,1020.11
102224,3.46724,0.506934,0.10043,112.07,-132.16,60.83,36.5649,-41.3103,14.8036,1020.11
102230,6.99187,7.11143,-4.09373,141.68,-107.17,143.01,38.3084,-42.4514,12.469,1020.11
102236,11.2339,7.51315,-5.93018,130.9,-91.28,197.26,34.2404,-41.557,14.05,1020.09
102242,13.8403,6.3319,-4.23721,128.45,-70.42,217.07,34.2985,-42.2663,14.0796,1020.09
102248,15.0741,6.65232,-3.42898,131.39,-48.23,221.9,35.4608,-44.3943,14.183,1020.13
102254,14.3233,8.44094,-4.46198,122.71,-24.15,220.92,32.8166,-43.685,14.4786,1020.13
102260,12.4964,9.91392,-4.65806,96.53,-10.22,209.58,31.0442,-43.5616,14.9514,1020.05
102266,11.2865,8.71353,-3.3955,77.98,1.54,197.68,31.974,-45.5662,14.8775,1020.05
102272,9.93304,6.81492,-1.64036,63.21,16.1,193.48,31.7706,-46.2755,14.5672,1020.08
102278,9.2109,6.31755,-1.13821,51.31,28.35,193.13,28.923,-44.6718,14.2717,1020.08
102284,8.31659,6.01626,-1.12386,38.85,40.74,196.77,28.5162,-46.7998,14.981,1020.08
102290,7.47967,7.08752,-0.73649,21.21,51.03,203.49,29.1264,-47.6633,14.6263,1020.07
102296,7.38403,6.10713,-0.416069,15.19,62.93,212.73,26.2207,-46.183,16.7393,1020.07
102302,5.71019,6.69058,-0.487805,8.61,71.68,224.63,25.4653,-47.324,17.1383,1020.07
102308,4.00287,6.07843,0.57867,5.6,75.53,245.07,26.0173,-49.6679,15.4538,1020.07
102314,4.28503,6.0593,-0.095648,-3.01,74.97,256.06,23.3151,-48.8044,15.6459,1020.06
102320,2.99378,6.04974,0.11956,-0.7,74.13,268.8,21.7169,-48.3418,16.2665,1020.06
102326,1.96078,5.87757,0.439981,-2.59,67.9,285.04,20.8162,-51.3949,15.838,1020.06
102332,2.04687,5.25108,0.0047824,3.08,68.81,304.99,19.712,-51.4257,15.4242,1020.06
102338,1.59254,5.7867,0.401722,9.24,63.07,316.82,16.5448,-49.5753,16.4586,1020.05
102344,1.66906,6.07843,0.353898,15.47,55.44,326.55,16.1671,-51.1173,16.0449,1020.05
102350,1.66428,6.42276,0.286944,23.87,49,335.51,15.1792,-53.4612,16.5325,1020.05
102356,1.43472,7.48446,-0.124342,30.03,41.09,340.41,11.5761,-51.179,17.1235,1020.06
102362,1.20516,7.98661,-0.10043,34.86,33.53,344.75,10.0361,-51.3641,17.3895,1020.06
102368,0.927786,9.1583,-0.21999,37.17,27.51,345.31,9.83272,-54.7564,16.8576,1020.08
102374,0.411286,10.5356,-0.315638,37.94,21.42,345.17,6.7527,-52.536,16.5325,1020.08
102380,0.114778,11.4443,-0.310856,37.1,15.75,347.2,4.28288,-51.3949,17.8771,1020.02
102386,-0.210426,12.6781,-0.483022,34.58,11.34,349.72,3.29495,-54.2938,16.0744,1020.02
102392,-0.607365,13.6011,-0.683883,29.33,7.14,351.96,2.16174,-53.3686,16.7541,1020.08
102398,-1.20995,14.2611,-0.545194,26.11,2.66,355.6,-1.00545,-50.1305,18.2318,1020.08
102404,-1.70732,14.6628,-0.468675,23.66,-2.1,359.94,-1.47036,-52.6902,17.7885,1020.08
102410,-2.33381,15.1554,-0.416069,21.42,-7.21,363.23,-2.69075,-54.2938,16.4586,1020.08
102416,-2.47728,15.3372,-0.33955,23.31,-10.15,364.21,-6.03227,-49.9454,18.2909,1020.08
102422,-2.86944,15.5954,-0.224773,24.43,-14.35,364.28,-7.25266,-50.1305,18.2613,1020.06
102428,-2.88857,15.4089,0.0860832,29.89,-18.41,359.38,-8.76361,-51.8883,16.3552,1020.06
102434,-2.29077,15.2893,0.320421,39.69,-19.18,350.84,-10.9429,-49.5753,18.2022,1020.04
102440,-2.16643,16.1215,-0.0334768,46.69,-20.37,337.82,-12.5119,-47.6324,18.8967,1020.04
102446,-1.86992,16.9393,-0.420851,54.18,-20.02,322,-13.7614,-49.5445,18.1874,1020.09
102452,-1.74558,17.5275,-0.401722,59.57,-19.53,305.48,-15.5048,-48.866,18.8376,1020.09
102458,-1.18125,18.6131,-0.439981,67.83,-15.68,289.52,-16.4927,-45.2886,19.3843,1020.09
102464,-1.15734,20.0813,-0.765184,71.68,-8.96,277.9,-18.0327,-46.6764,19.8572,1020.09
102470,-1.42516,22.1138,-0.5978,72.66,-0.98,272.51,-19.5727,-47.3549,19.2218,1020.09
102476,-1.36777,22.8407,-0.368245,73.29,12.46,275.24,-20.2701,-43.5308,20.596,1020.06
102482,-1.48733,24.0746,-0.808226,69.37,32.34,282.38,-22.0426,-42.4822,21.0245,1020.06
102488,-1.77905,25.0837,-1.59254,59.01,54.95,292.67,-23.6407,-44.2401,20.2118,1020.11
102494,-2.84553,26.1549,-2.70206,43.54,81.2,298.76,-25.1516,-40.3851,20.0345,1020.11
102500,-5.40889,26.4802,-3.35246,29.89,103.04,303.03,-26.6626,-38.5039,19.7242,1020.11
102506,-7.61358,24.6437,-2.87422,23.45,117.11,305.83,-27.5343,-40.1384,19.8276,1020.11
102512,-11.516,19.5074,-0.181731,26.74,122.15,307.37,-29.7717,-38.6889,18.808,1020.11
102518,-14.2563,16.1406,1.86514,57.26,124.46,307.37,-30.0041,-34.9573,20.6551,1020.11
102524,-18.6944,15.9637,3.1803,95.55,119.28,306.74,-32.2124,-35.9442,18.6603,1020.11
102530,-19.8852,17.4701,3.25681,119.77,111.65,301.98,-33.6071,-36.4685,18.6898,1020.1
102536,-20.0909,19.9139,3.22812,134.33,111.37,289.94,-34.3336,-32.3976,19.3104,1020.1
102542,-20.483,21.9703,2.56815,133.42,113.19,269.71,-35.089,-31.0098,18.9706,1020.13
102548,-21.2434,25.6289,-0.793878,115.5,116.76,240.52,-37.8494,-31.4107,19.3695,1020.13
102554,-22.2047,28.6035,-5.38498,72.59,118.23,209.58,-38.6049,-29.1903,19.7685,1020.13
102560,-26.7575,32.0421,-14.6485,-26.95,126.21,174.37,-38.1109,-26.4147,19.6207,1020.13
102566,-31.0904,28.6896,-15.1363,-112.21,108.15,144.69,-40.9295,-28.481,17.1974,1020.13
102572,-34.2659,16.6045,-10.2296,-157.5,92.61,115.78,-41.1329,-27.9875,17.1826,1020.13
102578,-35.3706,9.14395,-6.26973,-160.51,92.96,85.68,-39.5057,-25.2736,18.1431,1020.13
102584,-37.5179,-1.49211,0.463893,-126.14,86.73,58.45,-40.8423,-26.3839,15.8675,1020.15
102590,-37.9483,-7.03013,5.44237,-46.27,63.35,35.14,-42.3532,-27.9258,14.4638,1020.15
102596,-36.8006,-9.28742,10.2009,67.34,20.44,13.58,-40.4645,-25.5203,13.8727,1020.12
102602,-33.4577,-4.53372,7.91965,164.85,-17.78,-13.37,-41.0747,-25.582,16.1483,1020.12
102608,-26.4802,8.74701,3.05117,195.02,-50.33,-44.38,-41.6559,-26.7539,14.4342,1020.13
102614,33.1659,76.7766,25.3085,300.09,207.48,-280.84,-40.5227,-26.4455,17.1383,1020.13
102620,-26.8388,36.6954,-26.8675,-88.34,33.32,-327.53,-38.7502,-27.4016,17.0053,1020.15
102626,5.51411,11.4586,-18.9479,-319.13,-157.15,-341.11,-38.6049,-30.3622,16.7837,1020.15
102632,15.4041,-5.59063,20.5069,-217.42,-3.15,-368.13,-37.7041,-32.4593,16.0596,1020.15
102638,10,-11.7073,15.2032,85.47,97.44,-309.96,-35.06,-32.0584,16.1335,1020.14
102644,9.47872,-3.9933,4.23242,189.42,109.2,-382.69,-34.3917,-33.6312,15.8971,1020.14
102650,-7.07317,26.9536,-5.25108,158.34,157.78,-332.43,-34.3917,-37.3937,15.4095,1020.11
102656,-9.2109,26.1358,3.33812,50.05,82.18,-314.3,-32.4449,-36.3759,15.5425,1020.11
102662,-13.319,19.9952,-2.01339,-6.37,40.53,-293.37,-31.8347,-36.0984,16.0596,1020.15
102668,-12.8168,15.2654,1.18604,-51.38,-42.28,-307.44,-30.6434,-40.7243,13.5772,1020.15
102674,-12.4151,16.9106,1.64515,-54.81,-80.36,-260.4,-29.3649,-40.9094,14.715,1020.13
102680,-11.6834,24.5911,-1.10952,-54.6,-104.65,-219.87,-28.1445,-39.0282,14.7741,1020.13
102686,-0.172166,18.8714,-6.16451,-155.26,-137.34,-203.14,-27.4181,-43.099,14.9366,1020.1
102692,-6.15495,21.7886,-12.5921,-138.25,14.84,-105.07,-26.4592,-43.7466,14.9071,1020.1
102698,-3.59158,5.22238,0.296509,-44.38,134.05,-49.84,-26.5173,-41.372,13.2521,1020.1
102704,-4.43328,4.96891,5.44715,16.8,40.46,-65.1,-25.878,-43.1607,12.5724,1020.13
102710,-4.52893,15.8776,-2.94596,-62.3,-44.52,-80.71,-26.895,-46.183,12.0404,1020.13
102716,0.526064,12.5634,-3.89766,-85.33,4.34,-59.57,-24.8901,-42.6672,12.5281,1020.12
102722,-1.67384,4.59589,6.52798,-31.36,50.54,-28.49,-26.0814,-42.2972,13.7841,1020.12
102728,-3.81157,6.23147,3.74462,0.84,2.1,-38.15,-26.1396,-47.0157,10.4003,1020.14
102734,-1.61645,10.3204,-0.492587,-12.95,-29.61,-29.47,-25.7328,-44.9494,11.1834,1020.14
102740,0.35868,10.0239,-0.10043,-11.83,-0.98,-21.49,-25.5003,-43.4074,12.927,1020.12
102746,-1.88905,9.37829,1.40124,-11.13,1.61,-11.62,-25.326,-45.6587,12.2473,1020.12
102752,-1.72166,9.22047,0.659971,-2.52,-6.23,-4.41,-25.4713,-45.3503,11.9222,1020.12
102758,-0.0430416,10.5261,-1.28168,-6.3,-6.51,-3.22,-24.8901,-43.4999,12.8088,1020.11
102764,0.37781,10.8321,-1.18125,-13.16,1.68,-2.1,-25.3841,-44.3018,11.9666,1020.11
102770,0.176949,9.25394,0.430416,-3.99,-6.79,0.42,-25.5875,-47.1698,11.6267,1020.11
102776,-0.0860832,9.5648,-0.114778,-5.32,-3.71,-2.24,-24.7739,-43.4999,12.7793,1020.11
102782,0.411286,10.043,-0.363462,-3.43,-1.4,-5.81,-24.5414,-43.0373,14.0648,1020.14
102788,0.368245,10.4017,-0.640842,-3.99,3.01,-4.69,-25.355,-47.0773,10.7992,1020.14
102794,0.167384,9.87087,-0.129125,-5.95,2.94,-4.27,-24.8611,-44.9802,11.6119,1020.12
102800,-0.243902,9.90913,0.0095648,-2.38,0.63,-5.88,-24.6286,-43.3457,12.1882,1020.12
102806,0.0382592,9.86609,-0.13869,1.68,-2.03,-5.88,-25.2097,-45.5662,13.4442,1020.12
102812,-0.0669536,9.77523,-0.11956,2.45,-2.66,-3.57,-25.2097,-46.0596,11.4789,1020.11
102818,0.0286944,9.90913,-0.176949,3.78,-3.71,-6.09,-24.9482,-43.8392,13.1339,1020.11
102824,0.210426,9.92826,-0.564323,5.46,-3.43,-6.72,-24.8611,-45.3195,11.9075,1020.13
102830,0.186514,9.82783,-0.444763,6.02,-4.06,-6.51,-25.2097,-46.8306,10.5185,1020.13
102836,0.023912,9.88522,-0.296509,5.67,-2.87,-5.88,-25.0063,-44.055,11.4789,1020.12
102842,-0.0860832,9.64132,-0.13869,8.4,-3.22,-5.95,-25.0935,-43.9934,12.9566,1020.12
102848,0.13869,9.59828,-0.10043,9.24,-4.69,-6.44,-25.2097,-46.4297,11.8631,1020.12
102854,0.13869,9.81827,-0.267814,9.8,-5.32,-7.28,-25.2679,-45.2886,12.2325,1020.12
102860,0.253467,9.65088,-0.229555,10.57,-3.43,-7.98,-25.326,-43.0373,13.5772,1020.13
102866,0.0382592,9.74653,-0.35868,11.27,-3.99,-8.75,-25.5003,-45.6587,12.8384,1020.13
102872,0.0621712,9.78001,-0.583453,11.97,-5.39,-8.82,-24.7739,-46.3989,11.2277,1020.13
102878,0.071736,9.90435,-0.822573,11.9,-4.9,-9.59,-24.1056,-42.8523,13.1191,1020.11
102884,0.248685,9.87087,-0.875179,10.29,-4.69,-10.64,-24.3961,-45.5353,12.5576,1020.11
102890,0.157819,10.0478,-1.02343,7.07,-2.17,-9.03,-24.4833,-46.6147,11.1982,1020.15
102896,0.277379,9.86131,-0.923003,5.04,-0.21,-10.15,-24.4833,-43.7775,13.5329,1020.15
102902,0.143472,10.0287,-0.875179,2.31,1.89,-9.17,-23.9894,-44.3018,13.7841,1020.13
102908,0.13869,9.7561,-0.731707,1.61,3.36,-9.45,-24.5124,-46.7381,10.5185,1020.13
102914,-0.114778,9.77523,-0.329986,1.75,4.13,-8.26,-24.1056,-44.7952,11.9666,1020.14
102920,-0.0621712,9.77523,-0.444763,0.98,4.76,-8.54,-24.3961,-43.5308,12.2916,1020.14
102926,0,9.81349,-0.564323,0.28,5.88,-9.38,-24.9192,-46.2447,11.7597,1020.14
102932,-0.0669536,9.94739,-0.439981,-1.61,6.72,-8.68,-24.6867,-46.368,10.1491,1020.13
102938,-0.148254,9.78479,-0.564323,-1.19,7.07,-8.4,-25.0354,-43.5924,13.1487,1020.13
102944,-0.21999,9.89,-0.363462,-3.01,6.86,-8.47,-24.5705,-45.3195,14.0205,1020.14
102950,-0.148254,9.56958,-0.143472,-2.52,6.3,-9.03,-24.5414,-47.6941,10.7845,1020.14
102956,-0.196078,9.6461,-0.248685,-0.98,6.51,-8.19,-24.0475,-43.87,12.927,1020.15
102962,-0.0669536,9.85653,-0.593018,-1.47,6.93,-8.61,-24.1928,-44.6718,12.9566,1020.15
102968,0.0191296,9.85653,-0.659971,-1.19,6.93,-8.96,-25.0645,-47.2007,12.4246,1020.08
102974,-0.0095648,9.98565,-0.803443,-2.94,8.54,-9.59,-24.1637,-46.5839,12.1734,1020.08
102980,-0.129125,9.99043,-0.679101,-4.9,8.68,-10.29,-24.4833,-44.1167,13.0305,1020.08
102986,-0.10043,9.92348,-0.602582,-5.53,7.98,-11.48,-24.0475,-46.7073,11.7301,1020.13
102992,-0.25825,9.87566,-0.511717,-6.23,6.72,-11.76,-24.2509,-47.6016,10.6958,1020.13
102998,-0.196078,9.93783,-0.655189,-6.58,5.25,-12.53,-24.4543,-43.8083,12.0257,1020.17
103004,-0.25825,10.0048,-0.683883,-9.38,5.04,-12.53,-25.0935,-45.7821,13.326,1020.17
103010,-0.167384,9.74175,-0.540411,-10.08,5.39,-12.95,-24.7739,-47.8483,10.3116,1020.15
103016,-0.286944,9.75131,-0.23912,-8.68,3.08,-13.58,-24.1637,-44.7335,10.7697,1020.15
103022,-0.487805,10.2296,-0.640842,-9.87,-0.63,-13.23,-24.7158,-44.9494,11.4789,1020.14
103028,-0.406504,10.2869,-0.664754,-11.06,-2.87,-13.65,-23.4663,-48.496,11.8188,1020.14
103034,-0.392157,10.7269,-0.989957,-14.91,-7.77,-14.21,-23.9603,-45.8129,11.1686,1020.14
103040,-0.296509,11.0617,-0.865614,-17.64,-13.37,-16.52,-24.0765,-44.4868,11.9518,1020.14
103046,-0.286944,11.2004,-1.1143,-23.24,-17.29,-18.27,-24.9192,-47.3857,9.41025,1020.14
103052,0.191296,11.1526,-1.9034,-34.23,-12.81,-18.41,-23.8731,-46.6764,11.6119,1020.11
103058,-0.884744,10.2726,-1.96557,-39.34,-15.89,-18.13,-23.3211,-43.7775,11.7745,1020.11
103064,1.11908,11.4443,0.703013,-40.04,-14,-24.29,-24.2799,-46.4297,11.1982,1020.14
103070,1.93209,11.2721,1.7121,-28.49,-12.95,-35.63,-23.4954,-48.6502,11.5233,1020.14
103076,4.09852,11.2769,5.52845,0,-4.06,-56,-24.338,-45.9054,10.9913,1020.13
103082,1.83644,11.6547,1.39168,15.68,-1.75,-67.69,-23.0886,-45.9979,10.2082,1020.13
103088,-0.315638,12.0421,-2.0373,6.23,1.4,-68.88,-23.3501,-48.6193,9.73533,1020.16
103094,-0.473458,12.1186,0.0143472,1.33,-8.68,-73.22,-22.7399,-47.6324,10.2082,1020.16
103100,1.28647,11.6499,1.14778,7.28,-10.36,-80.43,-22.2169,-46.4605,10.2673,1020.16
103106,1.28168,12.023,0.832138,12.04,-5.88,-88.06,-22.275,-48.9586,10.4003,1020.13
103112,0.755619,11.7791,0.707795,14.35,-5.39,-94.36,-22.1588,-50.0379,10.1047,1020.13
103118,0.516499,11.6643,0.674318,19.53,-6.72,-100.31,-21.0256,-46.2138,11.3312,1020.13
103124,0.334768,12.1951,1.09995,22.33,-10.64,-107.24,-20.3282,-47.9717,10.4741,1020.13
103130,0.411286,11.9034,0.942133,25.76,-8.75,-114.8,-18.9916,-50.5314,8.92263,1020.1
103136,0.0143472,11.4299,1.88905,35,-11.06,-121.73,-19.0207,-47.7558,10.9913,1020.1
103142,0.349115,12.0947,1.77905,46.2,-14.84,-129.01,-19.3112,-48.4651,12.2621,1020.14
103148,0.760402,13.1755,-0.325203,48.86,-14.07,-136.64,-17.5678,-51.7341,11.7745,1020.14
103154,0.468675,13.8642,-0.999522,47.88,-16.03,-145.39,-16.9286,-50.2847,11.804,1020.16
103160,-0.0286944,14.0124,-1.37255,45.57,-24.43,-152.67,-15.9987,-47.6633,12.9566,1020.16
103166,0.334768,14.5959,-1.67862,42.21,-25.76,-161.28,-15.7082,-50.5622,12.4394,1020.16
103172,0.894309,15.1315,-2.35294,33.46,-29.26,-173.11,-14.575,-51.0865,12.8679,1020.13
103178,0.927786,15.4472,-1.73123,29.61,-33.18,-186.48,-14.2844,-48.5576,14.0205,1020.13
103184,1.06169,14.9976,-0.942133,30.17,-38.01,-200.27,-12.8897,-49.3286,13.1339,1020.15
103190,1.53037,15.7676,-1.79818,32.34,-38.57,-214.83,-10.507,-52.9677,13.326,1020.15
103196,1.73601,16.8245,-2.77857,29.33,-39.97,-233.73,-10.7104,-50.7781,13.0748,1020.14
103202,0.970827,18.8427,-3.53419,28.49,-40.39,-257.53,-9.86777,-50.6856,14.7889,1020.14
103208,0.645624,18.6179,-3.28073,26.81,-59.71,-281.33,-6.90398,-52.8444,14.3456,1020.14
103214,3.59636,19.8278,-3.07987,23.24,-63.35,-301.49,-5.82888,-53.0602,13.5624,1020.14
103220,5.41846,21.0952,-1.48254,21.42,-54.46,-324.24,-5.39302,-50.5005,15.6459,1020.14
103226,5.43281,22.836,0.942133,25.27,-44.38,-350.77,-2.54546,-53.2761,14.6854,1020.11
103232,3.97417,24.3281,1.32472,36.4,-38.36,-381.43,-0.249977,-53.8312,14.1978,1020.11
103238,1.99426,23.0464,-0.789096,40.46,-70,-417.41,0.854181,-51.3641,16.2074,1020.18
103244,2.22382,19.3974,-3.78766,49.42,-66.5,-439.88,3.32401,-51.765,16.6359,1020.18
103250,0.607365,22.5634,-3.26638,66.36,-51.1,-456.19,7.10139,-54.7256,14.3603,1020.13
103256,2.13295,27.0445,0.746054,45.15,-76.37,-472.64,8.06026,-52.1042,16.695,1020.13
103262,0.923003,28.6466,-2.52989,63.77,-36.61,-474.88,10.5591,-51.3641,17.3895,1020.11
103268,-1.88427,34.9833,-0.765184,35.63,-61.53,-482.72,15.2373,-53.8929,17.0201,1020.11
103274,4.31372,28.6035,-3.91679,-6.23,-85.26,-494.62,16.7192,-51.3641,16.4438,1020.11
103280,6.26494,21.6117,-4.39981,4.2,-65.94,-497.42,17.126,-48.2801,17.1383,1020.1
103286,1.64036,22.8886,-1.28168,35,-61.18,-495.74,21.6007,-50.0996,17.5668,1020.1
103292,1.56384,27.3745,-4.77762,38.78,-63.21,-497,24.0996,-48.7118,17.8919,1020.13
103298,5.868,25.9636,-6.59971,8.19,-91.77,-495.81,24.0124,-45.412,18.1283,1020.13
103304,9.69392,19.5744,-7.28838,-5.81,-108.78,-472.71,27.1215,-45.6587,17.8476,1020.12
103310,9.44046,13.1277,-10.9804,-23.87,-101.92,-426.44,31.7706,-45.5045,16.9019,1020.12
103316,9.1583,10.4256,-13.6442,-95.9,-143.36,-366.38,30.8408,-42.7289,17.4043,1020.07
103322,2.83596,-5.22716,-14.4189,-154.42,-132.44,-253.75,31.3928,-41.6187,17.0053,1020.07
103328,0.263032,-6.34146,7.43663,-52.36,-53.2,-82.25,36.4487,-42.6981,13.2669,1020.1
103334,-0.784314,0.473458,14.2468,38.57,-62.51,20.44,34.9668,-42.7598,13.4147,1020.1
