TimeSinceCollection,Timestamp,AccX,AccY,AccZ,AngleRoll,AnglePitch,AngleYaw,AngularVelX,AngularVelY,             AngularVelZ,Q1,Q2,Q3,Q4,MagX,MagY,MagZ,Height,Airpressure
0,244025,4.7708,9.4459,0.626855,79.4366,-26.532,16.7651,43.457,-37.9639,-4.57764,0.720551,0.639252,-0.0835266,0.255096,64314,61223,62139,5601,-30418
6,244031,5.10576,9.56074,0.0191406,79.7003,-26.543,16.6058,38.8794,-33.4473,-3.90625,0.719238,0.641022,-0.0839539,0.254211,64321,61214,62151,5601,-30418
12,244037,5.0292,9.80957,-0.119629,79.953,-26.543,16.4465,36.0107,-31.9214,-5.24902,0.718079,0.642578,-0.0843201,0.253448,64328,61206,62164,5601,-30418
18,244043,4.9,10.0967,-0.172266,80.1727,-26.543,16.3037,30.8838,-29.2358,-5.18799,0.71701,0.644043,-0.0846558,0.252655,64286,61199,62175,5601,-30418
24,244049,4.81387,9.54639,0.114844,80.3485,-26.5375,16.1664,17.0288,-24.292,-4.5166,0.715393,0.646301,-0.0853271,0.25119,64214,61195,62199,5601,-30418
30,244055,4.67988,9.23535,0.502441,80.6122,-26.5265,15.9302,13.4888,-21.7285,-4.57764,0.714874,0.647095,-0.0856934,0.250519,64183,61194,62208,5601,-30418
36,244061,4.46455,8.97695,1.02402,80.7166,-26.521,15.8313,11.7798,-19.9585,-4.39453,0.714478,0.647766,-0.0859985,0.249878,64157,61196,62217,5601,-30418
42,244067,4.4167,8.7999,1.24893,80.8209,-26.5155,15.7269,11.8408,-19.2871,-4.39453,0.714111,0.648346,-0.0863037,0.249268,64133,61197,62225,5601,-30418
48,244073,3.81377,8.51279,1.40684,80.9363,-26.4825,15.6061,11.7188,-21.9727,-9.76563,0.713745,0.648926,-0.0866089,0.248688,64111,61199,62233,5601,-30418
54,244079,4.14395,8.6085,1.33984,81.0626,-26.4771,15.4852,16.1133,-23.6816,-3.90625,0.712982,0.650269,-0.0872498,0.247162,64078,61202,62249,5601,-30418
60,244085,4.23965,8.73291,1.29678,81.3428,-26.4771,15.2271,17.0898,-24.9634,-3.96729,0.712494,0.651001,-0.0876465,0.24646,64064,61204,62256,5601,-30418
66,244091,4.26836,8.81904,1.13408,81.4856,-26.4771,15.0952,17.2119,-24.7803,-3.54004,0.711975,0.651794,-0.0880737,0.245728,64053,61165,62262,5601,-30418
72,244097,4.70381,9.04873,1.07187,81.6284,-26.4716,14.9689,16.7236,-23.9258,-4.3335,0.711426,0.652588,-0.088501,0.245026,64043,61132,62270,5601,-30418
78,244103,4.0626,8.80947,0.91875,81.7657,-26.4441,14.8315,15.7471,-24.9023,-8.78906,0.710907,0.653381,-0.0888977,0.244324,64032,61103,62280,5601,-30418
84,244109,4.48848,8.95781,0.90918,81.8921,-26.4386,14.7162,14.1602,-20.3247,-3.17383,0.709991,0.654846,-0.0895996,0.242798,64014,61054,62297,5601,-30418
90,244115,4.43105,8.88603,0.942676,82.1228,-26.4331,14.5129,13.1226,-19.2261,-3.23486,0.709534,0.655487,-0.0899353,0.242249,64008,61035,62302,5601,-30418
96,244121,4.33057,8.77119,0.947461,82.2272,-26.4276,14.4196,12.8174,-17.8833,-3.2959,0.709137,0.656097,-0.0902405,0.241699,64005,61017,62307,5601,-30418
102,244127,4.55547,8.87168,0.92832,82.337,-26.4221,14.3317,13.3057,-17.4561,-3.479,0.70871,0.656677,-0.0904846,0.24118,64004,61000,62208,5601,-30418
108,244133,3.72285,8.69941,1.00967,82.4524,-26.4001,14.2273,13.855,-20.0195,-7.14111,0.708313,0.657288,-0.0907288,0.240692,64004,60985,62316,5601,-30418
114,244139,4.30186,8.79033,1.03838,82.5677,-26.4001,14.1284,13.4277,-19.7144,-2.19727,0.707458,0.658569,-0.0912781,0.239502,64004,60959,62326,5601,-30418
120,244145,4.34971,8.7999,1.0958,82.793,-26.4001,13.9307,13.9771,-19.6533,-2.13623,0.707001,0.65918,-0.0916138,0.238983,64004,60948,62330,5601,-30418
126,244151,4.29229,8.78076,0.952246,82.9138,-26.4001,13.8318,14.7705,-19.8975,-2.01416,0.706543,0.659821,-0.0919189,0.238495,64004,60941,62336,5601,-30418
132,244157,4.2875,8.84297,0.77041,83.0402,-26.4056,13.7384,15.4419,-19.8975,-1.83105,0.706055,0.660461,-0.0922546,0.237976,64006,60936,62341,5601,-30418
138,244163,4.29229,8.83818,0.617285,83.161,-26.4056,13.6395,15.564,-19.9585,-1.58691,0.705566,0.661133,-0.0925903,0.237488,64009,60930,62346,5601,-30418
144,244169,4.4167,8.9626,0.732129,83.2819,-26.4111,13.5406,14.2822,-18.4937,-1.09863,0.704529,0.662506,-0.0932312,0.236511,64015,60921,62358,5601,-30418
150,244175,4.53154,8.90518,0.679492,83.5071,-26.4166,13.3649,13.7329,-17.6392,-1.2207,0.704041,0.663116,-0.0935364,0.236084,64017,60917,62365,5601,-30418
156,244181,4.64639,9.03438,0.507227,83.6169,-26.3947,13.2825,13.6719,-16.7847,-5.98145,0.703583,0.663727,-0.0938416,0.235687,64019,60916,62373,5601,-30418
162,244187,4.34971,8.88603,0.46416,83.7213,-26.4001,13.2111,13.1836,-15.9912,-1.28174,0.703156,0.664337,-0.0939636,0.235138,64020,60914,62379,5601,-30418
168,244193,4.5124,9.02002,0.626855,83.8092,-26.3947,13.1506,11.7798,-13.1836,-1.52588,0.702698,0.664917,-0.0941772,0.234772,64023,60910,62385,5601,-30418
174,244199,4.34014,8.94824,0.923535,83.8861,-26.3947,13.1012,9.15527,-10.3149,-1.58691,0.701965,0.665863,-0.0944519,0.234222,64028,60903,62396,5601,-30418
180,244205,4.17266,8.71855,0.913965,84.0234,-26.3892,13.0133,8.60596,-10.0098,-1.70898,0.70166,0.666229,-0.0945435,0.233978,64030,60900,62403,5601,-30418
186,244211,4.22051,8.64199,0.894824,84.0948,-26.3837,12.9694,9.58252,-10.6812,-1.64795,0.701355,0.666626,-0.094635,0.233765,64032,60901,62408,5601,-30418
192,244217,4.40234,8.76162,0.933105,84.1827,-26.3727,12.9144,11.5967,-11.8408,-2.99072,0.70105,0.667023,-0.0947266,0.233521,64035,60904,62415,5601,-30418
198,244223,3.79941,8.58936,0.813477,84.2816,-26.3672,12.8485,13.4277,-14.7705,-2.99072,0.700684,0.667511,-0.0947876,0.233215,64038,60904,62420,5601,-30418
204,244229,4.35449,8.97217,0.564648,84.386,-26.3617,12.7826,15.0757,-15.0146,-1.34277,0.699768,0.668671,-0.0950928,0.232513,64046,60901,62428,5601,-30418
210,244235,4.3832,9.05352,0.368457,84.6057,-26.3617,12.6453,14.8315,-14.4653,-1.58691,0.699249,0.669281,-0.0952759,0.232178,64049,60900,62431,5601,-30418
216,244241,4.41191,9.14922,0.258398,84.6991,-26.3617,12.5903,12.5732,-12.8174,-0.915527,0.698761,0.669891,-0.0954285,0.231842,64053,60900,62433,5601,-30418
222,244247,4.40234,9.18272,0.301465,84.7815,-26.3617,12.5354,10.8032,-11.7188,-0.915527,0.698334,0.67041,-0.0955811,0.231567,64055,60904,62436,5601,-30418
228,244253,4.43584,9.08223,0.344531,84.8529,-26.3617,12.4915,9.0332,-10.437,-0.793457,0.697968,0.670868,-0.0957031,0.231323,64057,60909,62439,5601,-30418
234,244259,4.18701,8.89561,0.559863,84.9133,-26.3617,12.453,8.05664,-8.72803,-0.12207,0.697357,0.6716,-0.0959167,0.230957,64063,60915,62448,5601,-30418
240,244265,4.16309,8.85254,0.535937,85.0397,-26.3617,12.3816,7.99561,-9.27734,-0.244141,0.697052,0.671967,-0.0960083,0.230804,64065,60916,62454,5601,-30418
246,244271,4.18701,8.87646,0.579004,85.1001,-26.3672,12.3431,7.93457,-9.70459,0.12207,0.696747,0.672302,-0.0960999,0.230621,64069,60913,62458,5601,-30418
252,244277,4.26836,8.86689,0.545508,85.166,-26.3672,12.2992,8.54492,-9.94873,-0.12207,0.696472,0.672638,-0.0962219,0.230438,64072,60912,62464,5601,-30418
258,244283,4.24443,8.91475,0.497656,85.2319,-26.3672,12.2607,8.54492,-9.82666,-0.244141,0.696167,0.673004,-0.096344,0.230286,64076,60907,62470,5601,-30418
264,244289,4.23965,8.95781,0.488086,85.2924,-26.3727,12.2278,7.87354,-9.15527,0.549316,0.695557,0.673706,-0.0965881,0.22995,64084,60904,62477,5601,-30418
270,244295,4.18223,8.85732,0.478516,85.4242,-26.3837,12.1399,7.93457,-10.498,0.671387,0.695251,0.674072,-0.0967102,0.229797,64087,60907,62479,5601,-30418
276,244301,4.22051,8.7999,0.526367,85.4901,-26.3947,12.0959,8.11768,-11.1694,1.0376,0.694946,0.674408,-0.0968933,0.229614,64090,60912,62483,5601,-30418
282,244307,4.24443,8.75205,0.579004,85.556,-26.4001,12.0465,8.23975,-11.0474,1.09863,0.694611,0.674774,-0.0970764,0.229431,64092,60915,62486,5601,-30418
288,244313,4.33057,8.77119,0.655566,85.6329,-26.4056,11.9971,9.33838,-11.6577,0.915527,0.694305,0.67514,-0.0972595,0.229248,64093,60919,62488,5601,-30418
294,244319,4.26357,8.78555,0.660352,85.7043,-26.4166,11.9531,9.46045,-11.1084,0.793457,0.693604,0.675964,-0.0976257,0.228851,64101,60919,62496,5601,-30418
300,244325,4.23486,8.82861,0.574219,85.8527,-26.4276,11.8542,9.46045,-10.437,1.2207,0.693237,0.676361,-0.0978088,0.228668,64055,60920,62499,5601,-30418
306,244331,4.25879,8.81904,0.588574,85.9241,-26.4331,11.8103,9.64355,-10.2539,0.915527,0.692902,0.676758,-0.0979919,0.228485,64014,60920,62502,5601,-30418
312,244337,4.22051,8.81426,0.488086,85.9955,-26.4441,11.7554,9.46045,-10.3149,1.15967,0.692535,0.677124,-0.098175,0.228302,63977,60921,62505,5601,-30418
318,244343,4.2875,8.79512,0.449805,86.0669,-26.4496,11.7059,9.33838,-10.0708,1.28174,0.6922,0.677521,-0.0983582,0.228088,63944,60918,62509,5601,-30418
324,244349,4.29229,8.83818,0.440234,86.1383,-26.4551,11.6565,9.58252,-10.3149,1.15967,0.691559,0.678284,-0.0987854,0.227661,63885,60912,62515,5601,-30418
330,244355,4.21572,8.79033,0.47373,86.2811,-26.4716,11.5411,9.46045,-10.498,1.2207,0.691223,0.67865,-0.0990295,0.227448,63860,60911,62519,5601,-30418
336,244361,4.29229,8.78555,0.545508,86.3525,-26.4771,11.4862,9.39941,-10.2539,1.40381,0.690887,0.679047,-0.0992432,0.227203,63838,60914,62524,5601,-30418
342,244367,4.29229,8.69463,0.483301,86.4294,-26.488,11.4258,10.2539,-10.9863,0.976563,0.690552,0.679413,-0.0994873,0.226959,63818,60917,62529,5601,-30418
348,244373,4.30664,8.71377,0.44502,86.5118,-26.4935,11.3654,10.9253,-10.9253,1.09863,0.690216,0.67981,-0.099762,0.226715,63801,60922,62533,5601,-30418
354,244379,4.36885,8.80469,0.0813477,86.5997,-26.4935,11.2939,12.207,-11.9629,0.305176,0.689453,0.680725,-0.10025,0.226135,63773,60938,62538,5601,-30418
360,244385,4.44541,9.02002,0.090918,86.781,-26.499,11.1566,12.6953,-11.5356,0,0.689026,0.681213,-0.100494,0.2258,63762,60945,62540,5601,-30418
366,244391,4.36885,9.04873,-0.0526367,86.8634,-26.499,11.0962,10.8643,-10.7422,0.0610352,0.688629,0.681702,-0.100739,0.225494,63753,60911,62543,5601,-30418
372,244397,4.55068,9.14922,-0.00478516,86.9293,-26.5045,11.0468,8.91113,-9.09424,0.244141,0.688263,0.682129,-0.100952,0.225189,63744,60881,62547,5601,-30418
378,244403,4.50283,9.08223,-0.0430664,86.9843,-26.5045,11.0028,7.38525,-7.50732,0.12207,0.687958,0.682465,-0.101135,0.224945,63738,60855,62550,5601,-30418
384,244409,4.37363,9.02481,0.153125,87.0337,-26.5045,10.9644,6.28662,-6.5918,-0.244141,0.6875,0.683014,-0.10144,0.224548,63726,60809,62555,5601,-30418
390,244415,4.33535,8.96738,0.114844,87.1051,-26.5045,10.8984,4.63867,-5.00488,0.366211,0.687347,0.683228,-0.101563,0.224396,63721,60829,62558,5601,-30418
396,244421,4.2875,8.93389,0.196191,87.1436,-26.5045,10.871,4.45557,-4.39453,0.427246,0.687164,0.683411,-0.101685,0.224243,63716,60848,62559,5601,-30418
402,244427,4.06738,8.81426,0.181836,87.182,-26.5045,10.838,4.88281,-5.18799,0.0610352,0.687042,0.683594,-0.101776,0.224121,63714,60865,62557,5601,-30418
408,244433,4.23008,8.87646,0.291895,87.215,-26.51,10.8051,4.27246,-5.18799,0.854492,0.686859,0.683777,-0.101898,0.223938,63712,60840,62558,5601,-30418
414,244439,4.26357,8.7999,0.234473,87.2534,-26.51,10.7666,5.12695,-5.79834,0.610352,0.686523,0.684174,-0.102203,0.223633,63710,60838,62562,5601,-30418
420,244445,4.13438,8.72813,0.0430664,87.3468,-26.5155,10.6897,6.04248,-6.46973,0.610352,0.68634,0.684387,-0.102356,0.22348,63708,60815,62564,5601,-30418
426,244451,4.36406,8.9291,0.14834,87.3907,-26.521,10.6512,5.85938,-6.16455,0.732422,0.686127,0.684631,-0.102509,0.223297,63705,60836,62567,5601,-30418
432,244457,4.38799,8.93867,0.0669922,87.4347,-26.521,10.6128,5.00488,-5.7373,0.427246,0.685944,0.684875,-0.102692,0.223114,63703,60852,62569,5601,-30418
438,244463,4.33057,8.93389,0.16748,87.4731,-26.521,10.5743,4.88281,-5.79834,0.427246,0.68576,0.685089,-0.102844,0.222931,63701,60868,62572,5601,-30418
444,244469,4.40234,8.86211,0.13877,87.5006,-26.5265,10.5469,3.72314,-4.39453,0.915527,0.685455,0.685455,-0.103149,0.222626,63699,60892,62580,5601,-30418
450,244475,4.35928,8.80469,0.14834,87.561,-26.532,10.4919,3.78418,-3.41797,0.427246,0.685333,0.685608,-0.103271,0.222473,63700,60903,62584,5601,-30418
456,244481,4.33057,8.87168,0.14834,87.594,-26.532,10.4645,3.78418,-3.23486,0.427246,0.685211,0.68576,-0.103363,0.222351,63700,60914,62588,5601,-30418
462,244487,4.24443,8.90518,0.0861328,87.6215,-26.532,10.437,3.84521,-3.66211,0.305176,0.685059,0.685913,-0.103485,0.222229,63701,60923,62591,5601,-30418
468,244493,3.91904,8.74727,0.153125,87.6599,-26.532,10.3986,4.02832,-5.7373,0.0610352,0.684937,0.686066,-0.103577,0.222107,63702,60931,62594,5601,-30418
474,244499,4.48848,8.81426,0.30625,87.6929,-26.532,10.3656,3.2959,-5.67627,0.854492,0.684662,0.686401,-0.103912,0.221741,63702,60870,62595,5601,-30418
480,244505,4.41191,8.7377,0.253613,87.7533,-26.5375,10.3052,3.78418,-4.02832,0.244141,0.68454,0.686554,-0.104065,0.221588,63702,60844,62595,5601,-30418
486,244511,4.30664,8.76641,0.287109,87.7863,-26.5375,10.2832,4.21143,-3.11279,0.244141,0.684387,0.686737,-0.104156,0.221436,63701,60821,62595,5601,-30418
492,244517,4.18223,8.78076,0.277539,87.8302,-26.532,10.2502,5.61523,-5.67627,-0.366211,0.684265,0.68689,-0.104218,0.221344,63703,60802,62594,5601,-30418
498,244523,4.07695,8.7042,0.186621,87.8741,-26.5375,10.2173,5.61523,-5.85938,0.610352,0.684082,0.687103,-0.10434,0.221191,63705,60784,62594,5601,-30418
504,244529,4.35449,8.80947,0.181836,87.9236,-26.5375,10.1733,6.71387,-7.38525,0.183105,0.683624,0.687622,-0.104614,0.220825,63709,60756,62598,5601,-30418
510,244535,4.29707,8.89561,0.234473,88.028,-26.5375,10.1019,7.08008,-6.04248,0.305176,0.68338,0.687897,-0.104736,0.220642,63711,60743,62600,5601,-30418
516,244541,4.10088,8.74248,-0.0287109,88.0829,-26.5375,10.0635,7.32422,-6.71387,0,0.683136,0.688171,-0.104858,0.22049,63711,60732,62603,5601,-30418
522,244547,4.3832,8.90039,-0.133984,88.1378,-26.5375,10.0305,7.08008,-6.46973,0.0610352,0.682892,0.688477,-0.10498,0.220337,63712,60721,62607,5601,-30418
528,244553,4.45498,8.99609,-0.258398,88.1818,-26.5375,9.99756,6.10352,-5.49316,0.244141,0.682648,0.688751,-0.105072,0.220154,63715,60710,62611,5601,-30418
534,244559,4.34971,9.08701,-0.105273,88.2147,-26.5375,9.97559,4.63867,-4.15039,0.183105,0.682251,0.689178,-0.105255,0.21991,63723,60694,62618,5601,-30418
540,244565,4.33057,9.00566,0.0526367,88.2532,-26.5375,9.95911,1.2207,-1.09863,0.488281,0.682159,0.689301,-0.105286,0.219849,63727,60688,62620,5601,-30418
546,244571,4.23486,8.87168,0.14834,88.2587,-26.5375,9.95361,0.976563,-0.854492,0.366211,0.682098,0.689362,-0.105286,0.219818,63730,60683,62621,5601,-30418
552,244577,4.23486,8.74248,0.220117,88.2697,-26.5375,9.94812,1.28174,-1.28174,0.244141,0.682037,0.689423,-0.105286,0.219818,63733,60679,62621,5601,-30418
558,244583,4.1583,8.69941,0.177051,88.2916,-26.532,9.93713,2.50244,-1.89209,0.244141,0.681976,0.689484,-0.105286,0.219788,63734,60672,62620,5601,-30418
564,244589,4.15352,8.82383,0.124414,88.3136,-26.532,9.92615,3.17383,-2.62451,0.183105,0.681763,0.689728,-0.105347,0.219696,63734,60665,62616,5601,-30418
570,244595,4.24922,8.82383,0.0382813,88.3795,-26.532,9.8877,3.96729,-4.15039,0.427246,0.68161,0.68988,-0.105377,0.219604,63734,60662,62616,5601,-30418
576,244601,4.33057,8.88125,0.0861328,88.4235,-26.532,9.85474,5.5542,-6.28662,0.305176,0.681458,0.690063,-0.105469,0.219513,63734,60661,62616,5601,-30418
582,244607,4.14395,8.74248,-0.153125,88.4619,-26.5375,9.82178,4.82178,-6.16455,1.0376,0.681274,0.690308,-0.105591,0.21936,63733,60657,62617,5593,-30417
588,244613,4.42148,8.9291,-0.0239258,88.5059,-26.5375,9.78882,4.69971,-5.92041,0.549316,0.681061,0.690521,-0.105713,0.219238,63732,60653,62618,5593,-30417
594,244619,4.42627,8.90518,0.13877,88.5443,-26.5375,9.76135,4.39453,-5.7373,0.0610352,0.680725,0.690918,-0.105927,0.218933,63732,60646,62618,5593,-30417
600,244625,4.41191,8.82383,0.119629,88.5883,-26.5375,9.72839,2.74658,-2.56348,0.244141,0.680603,0.69104,-0.106018,0.218842,63733,60645,62617,5593,-30417
606,244631,4.26836,8.73291,0.133984,88.6102,-26.5375,9.7229,2.99072,-1.89209,0.183105,0.680481,0.691162,-0.106018,0.218811,63734,60648,62618,5593,-30417
612,244637,4.16787,8.72813,0.119629,88.6377,-26.5375,9.70642,3.72314,-2.56348,0,0.680359,0.691284,-0.106049,0.21875,63734,60649,62620,5593,-30417
618,244643,3.82813,8.57979,0.0526367,88.6761,-26.532,9.67896,4.94385,-5.18799,-0.427246,0.680237,0.691437,-0.106049,0.218719,63734,60650,62623,5593,-30417
624,244649,4.30664,8.81426,-0.0478516,88.7256,-26.5265,9.646,5.61523,-6.53076,-0.244141,0.67984,0.691895,-0.106201,0.218384,63732,60643,62628,5593,-30417
630,244655,4.34492,8.90039,-0.186621,88.8354,-26.521,9.5636,6.46973,-7.32422,0,0.679596,0.6922,-0.106323,0.21817,63735,60641,62630,5593,-30417
636,244661,4.48369,9.03438,-0.200977,88.8794,-26.521,9.53064,6.04248,-6.46973,-0.244141,0.679352,0.692474,-0.106476,0.217957,63737,60641,62631,5593,-30417
642,244667,4.35928,9.02481,-0.244043,88.9233,-26.5155,9.50317,4.94385,-5.37109,-0.488281,0.679138,0.692749,-0.106567,0.217804,63739,60642,62630,5593,-30417
648,244673,4.43584,9.03916,-0.220117,88.9508,-26.5155,9.48669,3.2959,-3.60107,-0.183105,0.678955,0.692963,-0.106628,0.217651,63741,60648,62629,5593,-30417
654,244679,4.30664,8.90039,-0.248828,88.9728,-26.51,9.47571,2.62451,-2.68555,0,0.678711,0.693237,-0.106689,0.217499,63746,60653,62627,5593,-30417
660,244685,4.254,8.90996,-0.133984,89.0057,-26.51,9.45923,1.46484,-1.89209,0.183105,0.678619,0.693329,-0.106689,0.217438,63749,60653,62629,5593,-30417
666,244691,4.24443,8.84297,-0.100488,89.0167,-26.51,9.44824,1.28174,-1.83105,0.305176,0.678558,0.69339,-0.10672,0.217407,63751,60652,62629,5593,-30417
672,244697,4.23008,8.81904,-0.062207,89.0332,-26.51,9.44275,1.34277,-1.70898,0.366211,0.678497,0.693481,-0.10672,0.217377,63752,60652,62634,5593,-30417
678,244703,4.23965,8.82383,0.00478516,89.0497,-26.51,9.43176,1.64795,-1.95313,0.427246,0.678406,0.693542,-0.10675,0.217346,63752,60656,62639,5593,-30417
684,244709,4.20615,8.79512,-0.14834,89.0717,-26.51,9.41528,2.74658,-3.479,0.244141,0.678223,0.693756,-0.106812,0.217224,63750,60667,62645,5593,-30417
690,244715,4.36406,8.88603,-0.143555,89.1266,-26.5155,9.37683,2.92969,-3.90625,0.671387,0.678101,0.693909,-0.106903,0.217133,63750,60670,62646,5593,-30417
696,244721,4.39756,8.9626,-0.196191,89.1486,-26.5155,9.36035,2.56348,-3.23486,0.427246,0.677948,0.694031,-0.106995,0.217072,63749,60673,62646,5593,-30417
702,244727,4.35449,8.9626,-0.200977,89.1705,-26.5155,9.34937,1.89209,-2.38037,0.427246,0.677856,0.694183,-0.107056,0.21698,63749,60674,62645,5593,-30417
708,244733,4.33057,8.91475,-0.153125,89.1815,-26.5155,9.34387,1.15967,-1.40381,0.549316,0.677765,0.694275,-0.107086,0.216949,63749,60676,62645,5593,-30417
714,244739,4.20137,8.75205,0,89.1925,-26.5155,9.33838,0.793457,-1.0376,0.244141,0.677643,0.694397,-0.107117,0.216888,63752,60677,62645,5593,-30417
720,244745,4.19658,8.7377,0.0287109,89.22,-26.5155,9.32739,1.95313,-1.58691,0.488281,0.677582,0.694458,-0.107117,0.216888,63751,60677,62645,5593,-30417
726,244751,4.18223,8.79512,-0.0191406,89.2419,-26.5155,9.31641,2.68555,-2.19727,0.427246,0.67749,0.69455,-0.107117,0.216858,63751,60675,62645,5593,-30417
732,244757,4.1918,8.84297,-0.0382813,89.2639,-26.5155,9.29993,2.86865,-2.56348,0.549316,0.677368,0.694672,-0.107147,0.216797,63750,60674,62644,5593,-30417
738,244763,4.21094,8.85254,-0.0334961,89.2859,-26.5155,9.28894,2.80762,-2.86865,0.427246,0.677277,0.694794,-0.107178,0.216766,63750,60675,62646,5593,-30417
744,244769,4.27793,8.7999,-0.0526367,89.3134,-26.5155,9.27246,2.68555,-2.86865,0.732422,0.677032,0.695038,-0.1073,0.216644,63749,60678,62649,5593,-30417
750,244775,4.23008,8.79512,-0.062207,89.3628,-26.521,9.245,3.41797,-2.62451,0.671387,0.67691,0.69516,-0.10733,0.216583,63749,60679,62651,5593,-30417
756,244781,4.20137,8.86211,-0.062207,89.3903,-26.521,9.22852,3.66211,-2.92969,0.732422,0.676758,0.695313,-0.107391,0.216522,63749,60679,62650,5593,-30417
762,244787,3.99561,8.71855,-0.0861328,89.4232,-26.521,9.20654,4.15039,-3.96729,0.854492,0.676605,0.695465,-0.107422,0.216492,63748,60680,62651,5593,-30417
768,244793,4.17744,8.77598,-0.0478516,89.4617,-26.5265,9.19006,4.76074,-3.479,0.976563,0.676453,0.695648,-0.107513,0.2164,63748,60681,62655,5593,-30417
774,244799,4.13916,8.87168,0.129199,89.4891,-26.5265,9.17358,4.57764,-2.56348,0.915527,0.676117,0.695984,-0.107605,0.216309,63750,60683,62665,5593,-30417
780,244805,4.19658,8.71377,-0.0239258,89.5551,-26.5375,9.15161,5.43213,-2.56348,1.46484,0.675934,0.696167,-0.107635,0.216278,63751,60681,62670,5593,-30417
786,244811,4.16787,8.66113,-0.062207,89.5935,-26.543,9.13513,5.92041,-2.86865,1.58691,0.67572,0.69635,-0.107666,0.216278,63754,60677,62674,5593,-30417
792,244817,4.06738,8.73291,0.220117,89.6375,-26.543,9.11865,6.46973,-3.78418,1.52588,0.675507,0.696564,-0.107727,0.216248,63756,60676,62678,5593,-30417
798,244823,4.09131,8.64199,0.272754,89.6869,-26.5485,9.09119,7.01904,-4.94385,1.64795,0.675293,0.696808,-0.107788,0.216217,63758,60676,62679,5593,-30417
804,244829,4.2875,8.53193,-0.0430664,89.7473,-26.5594,9.06372,8.54492,-6.10352,1.70898,0.674713,0.697357,-0.108002,0.216034,63765,60677,62678,5593,-30417
810,244835,4.321,8.74248,-0.205762,89.9011,-26.5649,8.98682,12.5732,-7.69043,1.40381,0.674347,0.697754,-0.108093,0.215942,63768,60680,62678,5593,-30417
816,244841,4.40713,8.95303,-0.421094,89.9835,-26.5704,8.94836,12.4512,-7.75146,1.15967,0.673889,0.698181,-0.108215,0.21579,63772,60681,62677,5593,-30417
822,244847,4.47412,9.04873,-0.665137,90.0549,-26.5704,8.90991,10.9863,-6.89697,1.0376,0.673462,0.698639,-0.108337,0.215668,63775,60682,62676,5593,-30417
828,244853,4.44063,9.17793,-0.669922,90.1154,-26.5759,8.88794,9.0332,-5.00488,1.09863,0.673065,0.699036,-0.108429,0.215546,63777,60683,62677,5593,-30417
834,244859,4.3832,8.92432,-0.220117,90.1538,-26.5814,8.87146,6.46973,-3.2959,1.2207,0.672516,0.699585,-0.108521,0.215454,63774,60688,62680,5593,-30417
840,244865,4.2875,8.65635,-0.00478516,90.2087,-26.5869,8.86597,4.57764,-0.671387,1.52588,0.672363,0.699738,-0.108521,0.215454,63773,60693,62682,5593,-30417
846,244871,4.21572,8.54629,0.0430664,90.2417,-26.5924,8.86047,5.98145,-0.915527,1.2207,0.67218,0.69986,-0.108521,0.215515,63772,60696,62683,5593,-30417
852,244877,4.13916,8.55586,-0.0957031,90.2911,-26.5924,8.84949,8.48389,-2.92969,0.793457,0.671997,0.700073,-0.10849,0.215546,63772,60699,62683,5593,-30417
858,244883,4.1248,8.69463,-0.339746,90.3571,-26.5924,8.82202,9.94873,-5.12695,0.732422,0.671692,0.700348,-0.10849,0.215515,63774,60699,62683,5593,-30417
864,244889,4.33535,9.06309,-0.732129,90.4285,-26.5979,8.78906,10.1929,-6.53076,0.793457,0.67099,0.70105,-0.108612,0.215302,63777,60702,62685,5593,-30417
870,244895,4.56025,9.17314,-0.823047,90.5493,-26.6034,8.71765,7.38525,-6.65283,1.09863,0.670654,0.701416,-0.108734,0.215179,63780,60705,62687,5593,-30417
876,244901,4.67031,9.13965,-0.90918,90.5878,-26.6034,8.69019,5.12695,-4.82178,0.854492,0.67038,0.701691,-0.108856,0.215027,63782,60707,62686,5593,-30417
882,244907,4.6751,9.14443,-0.789551,90.6097,-26.6034,8.68469,2.74658,-1.58691,0.854492,0.670166,0.701904,-0.108948,0.214935,63784,60711,62685,5593,-30417
888,244913,4.59854,9.12529,-0.564648,90.6152,-26.6089,8.69568,0.732422,1.09863,0.732422,0.670044,0.702026,-0.108948,0.214935,63787,60715,62685,5593,-30417
894,244919,4.29707,8.77119,-0.392383,90.6097,-26.6089,8.71216,-0.427246,2.50244,0.671387,0.670013,0.702057,-0.108826,0.215088,63792,60720,62687,5593,-30417
900,244925,4.16309,8.74727,-0.29668,90.5988,-26.6089,8.73962,-0.0610352,1.83105,0.488281,0.670013,0.702026,-0.108734,0.215179,63796,60722,62688,5593,-30417
906,244931,4.16787,8.76641,-0.253613,90.6042,-26.6089,8.74512,0.427246,0.854492,0.610352,0.669983,0.702026,-0.108673,0.215271,63798,60722,62692,5593,-30417
912,244937,4.24443,8.77119,-0.320605,90.6152,-26.6144,8.74512,0.610352,-0.244141,0.793457,0.669952,0.702057,-0.108612,0.215332,63799,60723,62693,5593,-30417
918,244943,4.33535,8.79033,-0.344531,90.6207,-26.6144,8.74512,1.09863,-0.488281,0.671387,0.669891,0.702087,-0.108612,0.215332,63799,60723,62693,5593,-30417
924,244949,4.36406,8.87646,-0.416309,90.6317,-26.6144,8.74512,0.976563,-0.427246,0.366211,0.669769,0.702209,-0.108582,0.215363,63798,60720,62698,5593,-30417
930,244955,4.37842,8.88125,-0.435449,90.6427,-26.6144,8.75061,-0.244141,-0.183105,0.305176,0.669739,0.702271,-0.108582,0.215363,63796,60719,62701,5593,-30417
936,244961,4.34971,8.86689,-0.435449,90.6427,-26.6144,8.75061,-0.671387,0.0610352,0.244141,0.669708,0.702271,-0.108551,0.215393,63796,60718,62704,5584,-30416
942,244967,4.31621,8.83818,-0.358887,90.6427,-26.6089,8.75061,-0.854492,0.0610352,0.0610352,0.669708,0.702301,-0.108551,0.215393,63795,60720,62705,5584,-30416
948,244973,4.254,8.82861,-0.349316,90.6427,-26.6089,8.7561,-0.854492,-0.0610352,0.12207,0.669708,0.702301,-0.108521,0.215393,63797,60723,62705,5584,-30416
954,244979,4.26357,8.82383,-0.334961,90.6427,-26.6089,8.7561,-0.793457,-0.183105,0,0.669708,0.702301,-0.10849,0.215393,63799,60726,62712,5584,-30416
960,244985,4.30186,8.83818,-0.358887,90.6482,-26.6034,8.75061,-0.549316,-0.854492,-0.244141,0.669708,0.702332,-0.108459,0.215363,63800,60726,62714,5584,-30416
966,244991,4.30664,8.88125,-0.363672,90.6537,-26.5979,8.74512,-0.793457,-0.793457,0,0.669678,0.702332,-0.108459,0.215332,63799,60726,62717,5584,-30416
972,244997,4.30664,8.88603,-0.344531,90.6537,-26.5979,8.74512,-0.915527,-0.366211,-0.183105,0.669678,0.702362,-0.108459,0.215302,63797,60725,62716,5584,-30416
978,245003,4.26357,8.82383,-0.30625,90.6537,-26.5924,8.75061,-1.28174,-0.0610352,-0.244141,0.669678,0.702362,-0.108429,0.215302,63797,60727,62714,5584,-30416
984,245009,4.16787,8.75684,-0.220117,90.6482,-26.5924,8.75061,-1.34277,-0.0610352,0.244141,0.669708,0.702332,-0.108398,0.215271,63796,60724,62709,5584,-30416
990,245015,4.16309,8.7042,-0.172266,90.6537,-26.5869,8.74512,-0.488281,-1.0376,-0.0610352,0.669708,0.702332,-0.108398,0.215271,63796,60723,62708,5584,-30416
996,245021,4.20137,8.70898,-0.215332,90.6647,-26.5869,8.73962,0.183105,-1.46484,0,0.669708,0.702362,-0.108398,0.21521,63795,60726,62706,5584,-30416
1002,245027,4.22529,8.73291,-0.263184,90.6757,-26.5814,8.72864,0.854492,-2.0752,-0.183105,0.669678,0.702423,-0.108398,0.215179,63795,60729,62705,5584,-30416
1008,245033,4.27793,8.80947,-0.31582,90.6921,-26.5814,8.71765,1.09863,-2.44141,-0.12207,0.669617,0.702484,-0.108429,0.215118,63794,60731,62704,5584,-30416
1014,245039,4.24922,8.81904,-0.349316,90.7031,-26.5759,8.70667,0.854492,-2.50244,-0.427246,0.669495,0.702637,-0.10849,0.214966,63795,60730,62704,5584,-30416
1020,245045,4.30186,8.8334,-0.406738,90.7306,-26.5649,8.6792,0.488281,-2.80762,-0.427246,0.669434,0.702728,-0.108521,0.214874,63794,60729,62702,5584,-30416
1026,245051,4.29707,8.84775,-0.416309,90.7471,-26.5594,8.66272,0.488281,-2.68555,-0.610352,0.669373,0.702789,-0.108551,0.214783,63794,60726,62701,5584,-30416
1032,245057,4.27793,8.87646,-0.406738,90.7581,-26.554,8.65173,0.549316,-2.74658,-0.366211,0.669342,0.70285,-0.108582,0.214661,63796,60728,62699,5584,-30416
1038,245063,4.25879,8.87168,-0.401953,90.7745,-26.554,8.63525,0.427246,-2.56348,-0.244141,0.669281,0.702911,-0.108612,0.214569,63798,60727,62697,5584,-30416
1044,245069,4.25879,8.77119,-0.325391,90.7855,-26.5485,8.62427,0.305176,-2.68555,-0.244141,0.669189,0.703064,-0.108673,0.214417,63802,60724,62695,5584,-30416
1050,245075,4.23486,8.78555,-0.29668,90.8075,-26.543,8.5968,0.427246,-2.62451,-0.305176,0.669159,0.703125,-0.108704,0.214325,63805,60724,62696,5584,-30416
1056,245081,4.1918,8.74727,-0.287109,90.824,-26.5375,8.58582,0.671387,-3.05176,-0.549316,0.669098,0.703186,-0.108734,0.214233,63807,60726,62698,5584,-30416
1062,245087,4.24922,8.7377,-0.311035,90.8405,-26.532,8.56384,1.09863,-3.66211,-0.610352,0.669067,0.703247,-0.108765,0.214142,63809,60727,62699,5584,-30416
1068,245093,4.27793,8.74727,-0.382813,90.8624,-26.5265,8.54736,1.46484,-4.02832,-0.732422,0.668976,0.703339,-0.108826,0.21402,63809,60731,62698,5584,-30416
1074,245099,4.36885,8.83818,-0.488086,90.8844,-26.521,8.5199,1.46484,-4.5166,-0.854492,0.668823,0.703583,-0.108917,0.213715,63808,60739,62697,5584,-30416
1080,245105,4.35928,8.88603,-0.512012,90.9283,-26.5045,8.48145,1.09863,-3.66211,-1.0376,0.668732,0.703705,-0.108978,0.213562,63809,60741,62696,5584,-30416
1086,245111,4.34971,8.94824,-0.449805,90.9393,-26.4935,8.46497,0.488281,-3.05176,-1.15967,0.668671,0.703796,-0.109009,0.21344,63810,60742,62697,5584,-30416
1092,245117,4.2875,8.92432,-0.387598,90.9503,-26.488,8.45398,-0.305176,-2.13623,-0.976563,0.66864,0.703857,-0.109009,0.213318,63812,60740,62698,5584,-30416
1098,245123,4.20615,8.86211,-0.31582,90.9558,-26.4825,8.44849,-0.549316,-2.0752,-1.0376,0.66861,0.703918,-0.109039,0.213226,63812,60735,62699,5584,-30416
1104,245129,4.15352,8.72813,-0.196191,90.9613,-26.4716,8.4375,-0.244141,-2.2583,-0.976563,0.668579,0.703979,-0.109039,0.213043,63810,60721,62702,5584,-30416
1110,245135,4.11523,8.73291,-0.205762,90.9998,-26.4606,8.40454,1.58691,-3.78418,-0.610352,0.668549,0.704071,-0.109039,0.212952,63810,60715,62702,5584,-30416
1116,245141,4.15352,8.77119,-0.229688,91.0217,-26.4551,8.38257,2.01416,-4.69971,-0.793457,0.668457,0.704163,-0.1091,0.21283,63811,60713,62703,5584,-30416
1122,245147,3.88076,8.53672,-0.344531,91.0602,-26.4496,8.3551,3.35693,-5.7373,-1.0376,0.668365,0.704315,-0.109131,0.212677,63813,60714,62703,5584,-30416
1128,245153,4.21094,8.86211,-0.301465,91.0931,-26.4386,8.32214,3.54004,-6.46973,-0.915527,0.668213,0.704498,-0.109222,0.212494,63815,60716,62701,5584,-30416
1134,245159,4.23486,8.82861,-0.502441,91.1261,-26.4331,8.28918,3.17383,-5.98145,-0.732422,0.667908,0.704865,-0.109375,0.212097,63816,60719,62699,5584,-30416
1140,245165,4.25879,8.9291,-0.44502,91.1865,-26.4166,8.23975,2.31934,-4.88281,-0.915527,0.667786,0.705017,-0.109436,0.211945,63814,60720,62697,5584,-30416
1146,245171,4.27793,8.83818,-0.449805,91.2085,-26.4111,8.21777,2.0752,-4.39453,-0.793457,0.667694,0.705139,-0.109497,0.211792,63813,60723,62699,5584,-30416
1152,245177,4.18701,8.72813,-0.502441,91.236,-26.4056,8.1958,2.31934,-4.45557,-0.793457,0.667603,0.705261,-0.109558,0.211639,63812,60725,62701,5584,-30416
1158,245183,4.19658,8.86689,-0.373242,91.2634,-26.4001,8.17383,2.50244,-4.69971,-0.915527,0.66748,0.705414,-0.109619,0.211487,63812,60729,62705,5584,-30416
1164,245189,4.18223,8.80947,-0.559863,91.2909,-26.3947,8.14636,2.92969,-4.63867,-0.793457,0.667267,0.705719,-0.109711,0.211182,63815,60739,62713,5584,-30416
1170,245195,4.20137,8.94824,-0.46416,91.3513,-26.3782,8.10242,2.62451,-4.57764,-0.671387,0.667114,0.705872,-0.109772,0.21106,63817,60741,62716,5584,-30416
1176,245201,4.22529,8.90518,-0.545508,91.3733,-26.3782,8.08044,2.01416,-4.15039,-0.183105,0.666992,0.706024,-0.109802,0.210907,63819,60743,62720,5584,-30416
1182,245207,4.25879,8.84297,-0.507227,91.3953,-26.3727,8.05847,1.83105,-3.96729,-0.305176,0.666901,0.706146,-0.109894,0.210785,63818,60746,62721,5584,-30416
1188,245213,4.22051,8.80947,-0.440234,91.4172,-26.3672,8.04199,1.70898,-3.84521,-0.366211,0.666809,0.706268,-0.109924,0.210663,63817,60748,62721,5584,-30416
1194,245219,4.24922,8.7999,-0.47373,91.4392,-26.3617,8.02002,1.83105,-4.08936,-0.488281,0.666626,0.706482,-0.110046,0.210419,63813,60756,62725,5584,-30416
1200,245225,4.29707,8.84775,-0.559863,91.4941,-26.3507,7.97058,2.56348,-4.69971,-0.549316,0.666534,0.706604,-0.110107,0.210266,63814,60758,62725,5584,-30416
1206,245231,4.19658,8.82383,-0.665137,91.5216,-26.3452,7.94861,2.80762,-4.63867,-1.09863,0.666412,0.706757,-0.110168,0.210114,63816,60758,62727,5584,-30416
1212,245237,4.33057,9.01045,-0.521582,91.5436,-26.3397,7.92664,1.83105,-4.02832,-0.671387,0.66629,0.706909,-0.110229,0.209961,63819,60756,62727,5584,-30416
1218,245243,4.32578,8.99609,-0.698633,91.5656,-26.3342,7.91016,1.09863,-3.41797,-0.488281,0.666199,0.707031,-0.11026,0.209839,63822,60755,62726,5584,-30416
1224,245249,4.22051,8.88603,-0.411523,91.571,-26.3287,7.89917,-0.244141,-2.19727,-0.671387,0.666107,0.707153,-0.110321,0.209625,63828,60754,62728,5584,-30416
1230,245255,4.20615,8.73291,-0.368457,91.5765,-26.3177,7.88818,-0.488281,-1.40381,-0.366211,0.666107,0.707184,-0.110321,0.209564,63832,60756,62730,5584,-30416
1236,245261,4.13916,8.6707,-0.411523,91.5875,-26.3123,7.88269,0.427246,-2.01416,-0.366211,0.666077,0.707214,-0.110321,0.209503,63834,60754,62734,5584,-30416
1242,245267,4.13916,8.76162,-0.425879,91.6095,-26.3068,7.8717,1.70898,-2.56348,-0.549316,0.666046,0.707275,-0.110321,0.209442,63834,60752,62737,5584,-30416
1248,245273,4.11523,8.79033,-0.540723,91.6315,-26.3013,7.85522,1.70898,-3.2959,-0.305176,0.665955,0.707367,-0.110321,0.209381,63835,60750,62741,5584,-30416
1254,245279,4.32578,8.88125,-0.645996,91.6479,-26.2958,7.83325,1.09863,-3.90625,-0.549316,0.665802,0.707581,-0.110413,0.209137,63834,60750,62746,5584,-30416
1260,245285,4.38799,8.86211,-0.641211,91.6754,-26.2848,7.80029,0.12207,-3.35693,-0.915527,0.665741,0.707642,-0.110474,0.209015,63833,60751,62749,5584,-30416
1266,245291,4.321,8.90996,-0.631641,91.6864,-26.2793,7.78931,-0.244141,-2.80762,-1.0376,0.66571,0.707703,-0.110504,0.208893,63832,60752,62751,5584,-30416
1272,245297,4.27793,8.89082,-0.598145,91.6919,-26.2683,7.77832,-0.732422,-1.89209,-0.976563,0.66568,0.707764,-0.110504,0.208801,63831,60754,62753,5584,-30416
1278,245303,4.22051,8.89082,-0.507227,91.6919,-26.2628,7.77283,-1.70898,-1.46484,-1.2207,0.66568,0.707794,-0.110504,0.20871,63828,60753,62756,5584,-30416
1284,245309,4.14395,8.7377,-0.31582,91.6864,-26.2573,7.76733,-1.89209,-1.40381,-0.915527,0.665741,0.707794,-0.110504,0.208557,63826,60753,62761,5584,-30416
1290,245315,4.13438,8.71377,-0.287109,91.6974,-26.2408,7.75085,-0.732422,-2.19727,-0.793457,0.665771,0.707794,-0.110504,0.208466,63827,60753,62760,5584,-30416
1296,245321,4.23008,8.68984,-0.392383,91.7139,-26.2354,7.73987,1.09863,-3.17383,-1.2207,0.665771,0.707825,-0.110504,0.208374,63828,60755,62757,5584,-30416
1302,245327,4.17266,8.82383,-0.334961,91.7303,-26.2244,7.72339,1.15967,-3.2959,-0.732422,0.66571,0.707916,-0.110504,0.208252,63829,60758,62755,5584,-30416
1308,245333,4.16309,8.83818,-0.526367,91.7523,-26.2189,7.70142,1.58691,-4.5166,-0.732422,0.665619,0.708008,-0.110535,0.20813,63827,60762,62752,5584,-30416
1314,245339,4.23008,8.91953,-0.574219,91.7743,-26.2134,7.67395,1.64795,-4.63867,-0.854492,0.665466,0.708252,-0.110657,0.207825,63824,60771,62751,5584,-30416
1320,245345,4.27314,8.88603,-0.497656,91.8127,-26.2024,7.6355,0.610352,-3.60107,-0.549316,0.665375,0.708344,-0.110718,0.207703,63824,60771,62751,5584,-30416
1326,245351,4.21094,8.80469,-0.46416,91.8237,-26.1969,7.61902,0.427246,-2.99072,-0.610352,0.665314,0.708435,-0.110779,0.207581,63825,60770,62749,5584,-30416
1332,245357,4.17744,8.76162,-0.459375,91.8402,-26.1914,7.60803,0.732422,-3.05176,-0.732422,0.665283,0.708496,-0.110809,0.207458,63826,60768,62748,5584,-30416
1338,245363,4.12959,8.77119,-0.406738,91.8567,-26.1859,7.59155,1.34277,-3.23486,-0.488281,0.665222,0.708588,-0.11084,0.207367,63828,60765,62746,5584,-30416
1344,245369,4.17266,8.79033,-0.492871,91.8787,-26.1804,7.56958,2.0752,-3.96729,-0.427246,0.665039,0.708801,-0.110931,0.207123,63832,60762,62750,5584,-30416
1350,245375,4.14395,8.8334,-0.564648,91.9336,-26.1694,7.53113,2.74658,-4.39453,-0.427246,0.664917,0.708923,-0.110962,0.207031,63834,60764,62755,5584,-30416
1356,245381,4.21094,8.91475,-0.598145,91.9611,-26.1694,7.50916,2.31934,-4.39453,-0.244141,0.664795,0.709076,-0.111023,0.206879,63835,60763,62759,5584,-30416
1362,245387,4.24443,8.85732,-0.660352,91.983,-26.1639,7.48718,2.0752,-4.02832,-0.366211,0.664673,0.709229,-0.111084,0.206757,63836,60763,62762,5584,-30416
1368,245393,4.26357,8.86689,-0.650781,92.0105,-26.1584,7.4707,2.0752,-3.84521,-0.183105,0.664581,0.709351,-0.111145,0.206635,63836,60763,62764,5584,-30416
1374,245399,4.21572,8.90039,-0.665137,92.0325,-26.153,7.45422,1.95313,-3.479,-0.12207,0.664368,0.709564,-0.111237,0.206451,63840,60765,62765,5584,-30416
1380,245405,4.23486,8.88603,-0.62207,92.0654,-26.1475,7.42676,1.2207,-2.99072,-0.366211,0.664307,0.709686,-0.111267,0.20636,63841,60767,62763,5584,-30416
1386,245411,4.23965,8.87168,-0.607715,92.0874,-26.142,7.41028,1.34277,-2.92969,-0.366211,0.664215,0.709778,-0.111298,0.206268,63843,60770,62759,5584,-30416
1392,245417,4.21094,8.87646,-0.564648,92.1039,-26.142,7.39929,1.2207,-2.99072,-0.0610352,0.664154,0.709869,-0.111328,0.206177,63844,60771,62754,5584,-30416
1398,245423,4.22051,8.88603,-0.60293,92.1204,-26.1365,7.38831,1.2207,-2.56348,-0.12207,0.664063,0.709961,-0.111359,0.206085,63846,60771,62753,5584,-30416
1404,245429,4.20615,8.90039,-0.636426,92.1313,-26.1365,7.37183,1.09863,-2.44141,0.0610352,0.66391,0.710114,-0.111389,0.205963,63846,60775,62755,5576,-30415
1410,245435,4.1918,8.89561,-0.617285,92.1643,-26.131,7.35535,0.732422,-2.0752,0,0.663849,0.710205,-0.11142,0.205902,63846,60776,62755,5576,-30415
1416,245441,4.1918,8.87646,-0.631641,92.1753,-26.1255,7.34985,0.549316,-1.70898,0.12207,0.663788,0.710266,-0.11145,0.205841,63847,60775,62754,5576,-30415
1422,245447,4.18701,8.87168,-0.598145,92.1863,-26.1255,7.33887,0.427246,-2.01416,0.12207,0.663727,0.710327,-0.11145,0.205811,63849,60775,62751,5576,-30415
1428,245453,4.21094,8.81426,-0.617285,92.1973,-26.1255,7.33337,0.305176,-1.89209,0.244141,0.663696,0.710388,-0.111481,0.20575,63850,60774,62749,5576,-30415
1434,245459,4.27793,8.87646,-0.655566,92.2083,-26.12,7.32239,0.488281,-2.0752,-0.12207,0.663605,0.71051,-0.111511,0.205658,63852,60776,62753,5576,-30415
1440,245465,4.2875,8.93867,-0.727344,92.2302,-26.1145,7.30591,0.12207,-1.70898,-0.244141,0.663544,0.710571,-0.111542,0.205597,63852,60778,62753,5576,-30415
1446,245471,4.254,8.95303,-0.741699,92.2357,-26.109,7.30042,-0.366211,-1.0376,-0.244141,0.663483,0.710632,-0.111542,0.205536,63851,60777,62754,5576,-30415
1452,245477,4.254,8.90518,-0.655566,92.2357,-26.109,7.30042,-1.15967,-0.671387,-0.183105,0.663483,0.710663,-0.111542,0.205505,63849,60777,62752,5576,-30415
1458,245483,4.20615,8.84297,-0.593359,92.2302,-26.1035,7.30042,-1.64795,-0.305176,-0.183105,0.663483,0.710663,-0.111511,0.205475,63847,60777,62751,5576,-30415
1464,245489,4.1918,8.76162,-0.516797,92.2302,-26.1035,7.30042,-1.58691,-0.305176,0.12207,0.663513,0.710632,-0.111511,0.205444,63844,60776,62751,5576,-30415
1470,245495,4.16309,8.81904,-0.531152,92.2302,-26.098,7.30042,-0.610352,-0.793457,-0.244141,0.663544,0.710632,-0.111481,0.205414,63844,60778,62754,5576,-30415
1476,245501,4.17266,8.86689,-0.598145,92.2357,-26.0925,7.29492,-0.488281,-1.0376,-0.183105,0.663513,0.710663,-0.111481,0.205383,63845,60780,62755,5576,-30415
1482,245507,4.1583,8.90039,-0.6125,92.2412,-26.0925,7.29492,-0.732422,-0.915527,0.244141,0.663513,0.710663,-0.11145,0.205353,63845,60742,62757,5576,-30415
1488,245513,4.19658,8.86211,-0.593359,92.2412,-26.0925,7.29492,-0.854492,-0.732422,0.12207,0.663483,0.710693,-0.11145,0.205353,63846,60708,62758,5576,-30415
1494,245519,4.23965,8.85732,-0.6125,92.2412,-26.087,7.29492,-0.915527,-0.793457,0.12207,0.663452,0.710724,-0.11142,0.205322,63847,60650,62756,5576,-30415
1500,245525,4.20137,8.85732,-0.617285,92.2467,-26.087,7.29492,-0.610352,-0.549316,0,0.663452,0.710754,-0.11142,0.205322,63848,60666,62755,5576,-30415
1506,245531,4.19658,8.89082,-0.593359,92.2522,-26.0815,7.29492,-0.793457,-0.427246,0.12207,0.663422,0.710754,-0.111389,0.205322,63848,60678,62751,5576,-30415
1512,245537,4.1918,8.84297,-0.617285,92.2522,-26.0815,7.30042,-0.976563,-0.183105,0.12207,0.663422,0.710785,-0.111359,0.205322,63845,60689,62749,5576,-30415
1518,245543,4.16309,8.82861,-0.588574,92.2522,-26.0815,7.30042,-1.0376,-0.183105,0.12207,0.663422,0.710785,-0.111328,0.205322,63844,60699,62750,5576,-30415
1524,245549,4.15352,8.76641,-0.564648,92.2522,-26.076,7.30591,-1.0376,-0.12207,0.183105,0.663422,0.710785,-0.111298,0.205322,63845,60717,62751,5576,-30415
1530,245555,4.14395,8.82861,-0.583789,92.2577,-26.076,7.30591,-0.427246,-0.610352,0.183105,0.663422,0.710785,-0.111267,0.205322,63848,60724,62753,5576,-30415
1536,245561,4.21094,8.84297,-0.626855,92.2632,-26.076,7.30042,-0.366211,-0.793457,0.366211,0.663391,0.710815,-0.111267,0.205322,63850,60730,62756,5576,-30415
1542,245567,4.23486,8.89082,-0.669922,92.2632,-26.076,7.30042,-0.549316,-0.488281,0.366211,0.663361,0.710846,-0.111267,0.205322,63848,60734,62756,5576,-30415
1548,245573,4.20137,8.88125,-0.674707,92.2632,-26.076,7.30591,-1.0376,-0.12207,0.427246,0.66333,0.710876,-0.111267,0.205322,63847,60736,62756,5576,-30415
1554,245579,4.14395,8.80469,-0.60293,92.2632,-26.076,7.30591,-1.28174,0.244141,0.366211,0.663361,0.710846,-0.111237,0.205353,63848,60738,62756,5576,-30415
1560,245585,4.16787,8.75205,-0.574219,92.2577,-26.076,7.31689,-1.0376,0,0.366211,0.663361,0.710846,-0.111206,0.205353,63848,60740,62756,5576,-30415
1566,245591,4.1918,8.78555,-0.617285,92.2632,-26.0706,7.3114,-0.549316,-0.549316,0.183105,0.663361,0.710846,-0.111206,0.205383,63849,60742,62757,5576,-30415
1572,245597,4.22529,8.83818,-0.626855,92.2687,-26.0706,7.3114,-0.427246,-0.549316,0.12207,0.66333,0.710876,-0.111176,0.205353,63850,60747,62758,5576,-30415
1578,245603,4.23965,8.94346,-0.636426,92.2687,-26.0706,7.3114,-0.732422,-0.366211,0.12207,0.66333,0.710907,-0.111176,0.205353,63851,60751,62757,5576,-30415
1584,245609,4.18223,8.87646,-0.574219,92.2687,-26.0651,7.31689,-1.0376,0.12207,0.12207,0.6633,0.710907,-0.111115,0.205353,63852,60759,62750,5576,-30415
1590,245615,4.13916,8.81426,-0.512012,92.2632,-26.0651,7.32239,-1.40381,0.244141,0.244141,0.66333,0.710907,-0.111115,0.205353,63853,60760,62745,5576,-30415
1596,245621,4.11045,8.75684,-0.449805,92.2632,-26.0651,7.32239,-0.793457,-0.183105,0.427246,0.66333,0.710876,-0.111084,0.205383,63852,60757,62743,5576,-30415
1602,245627,4.10566,8.75684,-0.492871,92.2687,-26.0651,7.32239,-0.0610352,-0.610352,0.427246,0.66333,0.710876,-0.111084,0.205383,63850,60755,62741,5576,-30415
1608,245633,4.11045,8.81904,-0.516797,92.2797,-26.0651,7.32239,0.305176,-0.793457,0.244141,0.6633,0.710907,-0.111084,0.205383,63851,60754,62743,5576,-30415
1614,245639,4.20137,8.89561,-0.655566,92.2852,-26.0596,7.31689,0.488281,-1.2207,0.183105,0.663208,0.711029,-0.111053,0.205322,63853,60759,62750,5576,-30415
1620,245645,4.23965,8.90039,-0.641211,92.3016,-26.0596,7.30591,0.0610352,-1.15967,0.244141,0.663177,0.71106,-0.111084,0.205322,63853,60724,62754,5576,-30415
1626,245651,4.26357,8.89561,-0.689063,92.3071,-26.0596,7.30591,-0.0610352,-0.976563,0.305176,0.663116,0.711121,-0.111084,0.205292,63854,60732,62759,5576,-30415
1632,245657,4.24443,8.90996,-0.645996,92.3126,-26.0596,7.30042,-0.244141,-0.671387,0.244141,0.663086,0.711151,-0.111084,0.205261,63852,60739,62764,5576,-30415
1638,245663,4.21572,8.91953,-0.655566,92.3181,-26.0541,7.30591,-0.610352,-0.244141,0.305176,0.663055,0.711182,-0.111084,0.205261,63850,60744,62764,5576,-30415
1644,245669,4.1583,8.87646,-0.574219,92.3181,-26.0596,7.30591,-0.854492,-0.0610352,0.549316,0.663055,0.711182,-0.111053,0.205261,63848,60750,62763,5576,-30415
1650,245675,4.13916,8.79033,-0.588574,92.3181,-26.0541,7.30591,-0.732422,-0.427246,0.305176,0.663055,0.711182,-0.111023,0.205261,63849,60753,62761,5576,-30415
1656,245681,4.1583,8.79033,-0.531152,92.3236,-26.0541,7.30591,-0.427246,-0.549316,0.305176,0.663025,0.711212,-0.111023,0.205261,63851,60758,62760,5576,-30415
1662,245687,4.16309,8.82861,-0.574219,92.3291,-26.0541,7.30042,0.0610352,-0.793457,0.305176,0.663025,0.711243,-0.111023,0.205261,63851,60762,62760,5576,-30415
1668,245693,4.1583,8.85254,-0.636426,92.3346,-26.0541,7.30042,0.0610352,-0.854492,0.244141,0.662964,0.711273,-0.111023,0.205231,63850,60726,62761,5576,-30415
1674,245699,4.1918,8.85254,-0.598145,92.3456,-26.0486,7.30042,-0.0610352,-0.976563,0.183105,0.662903,0.711334,-0.110992,0.2052,63848,60702,62762,5576,-30415
1680,245705,4.17744,8.78555,-0.564648,92.3566,-26.0486,7.28943,-0.366211,-1.09863,0.12207,0.662872,0.711365,-0.110992,0.2052,63849,60710,62759,5576,-30415
1686,245711,4.18223,8.78076,-0.545508,92.3621,-26.0431,7.28943,0.0610352,-1.15967,-0.0610352,0.662842,0.711395,-0.110992,0.20517,63849,60716,62760,5576,-30415
1692,245717,4.16787,8.79512,-0.516797,92.373,-26.0431,7.28394,0.610352,-1.34277,0.0610352,0.662811,0.711456,-0.110992,0.205139,63850,60720,62760,5576,-30415
1698,245723,4.1583,8.79033,-0.579004,92.384,-26.0376,7.27844,0.976563,-1.58691,-0.0610352,0.66275,0.711517,-0.110992,0.205109,63850,60727,62761,5576,-30415
1704,245729,4.19658,8.81904,-0.617285,92.4005,-26.0376,7.26746,0.915527,-2.19727,-0.0610352,0.662628,0.71167,-0.110992,0.205017,63851,60738,62767,5576,-30415
1710,245735,4.23486,8.83818,-0.693848,92.4335,-26.0266,7.24548,1.09863,-2.44141,-0.183105,0.662567,0.711731,-0.111023,0.204926,63850,60743,62772,5576,-30415
1716,245741,4.22529,8.87168,-0.674707,92.4445,-26.0266,7.2345,0.854492,-2.13623,-0.12207,0.662476,0.711823,-0.111053,0.204865,63850,60748,62777,5576,-30415
1722,245747,4.22051,8.84297,-0.641211,92.4554,-26.0211,7.229,0.610352,-1.70898,-0.0610352,0.662415,0.711914,-0.111053,0.204803,63850,60752,62780,5576,-30415
1728,245753,4.19658,8.81426,-0.655566,92.4664,-26.0156,7.22351,0.305176,-1.83105,-0.305176,0.662384,0.711975,-0.111053,0.204742,63850,60754,62783,5576,-30415
1734,245759,4.16309,8.7999,-0.60293,92.4774,-26.0156,7.21252,0.427246,-1.95313,-0.244141,0.662292,0.712067,-0.111084,0.204651,63853,60757,62793,5576,-30415
1740,245765,4.1583,8.80469,-0.617285,92.5049,-26.0046,7.19055,0.915527,-2.56348,-0.671387,0.662231,0.712158,-0.111084,0.204559,63854,60761,62795,5576,-30415
1746,245771,4.16787,8.82383,-0.645996,92.5214,-25.9991,7.17957,0.976563,-2.74658,-0.427246,0.66217,0.71225,-0.111084,0.204468,63853,60764,62794,5576,-30415
1752,245777,4.18223,8.83818,-0.626855,92.5378,-25.9937,7.16309,0.854492,-2.80762,-0.488281,0.662109,0.712311,-0.111115,0.204376,63852,60769,62790,5576,-30415
1758,245783,4.1918,8.84297,-0.674707,92.5543,-25.9882,7.1521,1.0376,-2.86865,-0.427246,0.662018,0.712402,-0.111145,0.204285,63851,60772,62785,5576,-30415
1764,245789,4.18223,8.88125,-0.708203,92.5708,-25.9827,7.13562,1.0376,-2.86865,-0.366211,0.661896,0.712585,-0.111206,0.204102,63851,60777,62778,5576,-30415
1770,245795,4.20615,8.90039,-0.717773,92.6038,-25.9772,7.11365,1.0376,-2.50244,-0.427246,0.661835,0.712646,-0.111237,0.20401,63852,60780,62773,5576,-30415
1776,245801,4.18223,8.89561,-0.732129,92.6147,-25.9717,7.10266,0.671387,-2.44141,-0.305176,0.661774,0.712738,-0.111237,0.203949,63852,60782,62771,5576,-30415
1782,245807,4.16787,8.9291,-0.76084,92.6257,-25.9662,7.09167,0.488281,-2.0752,-0.366211,0.661713,0.712799,-0.111267,0.203857,63853,60784,62771,5576,-30415
1788,245813,4.18223,8.92432,-0.76084,92.6367,-25.9607,7.08069,0.183105,-1.70898,-0.305176,0.661652,0.71286,-0.111267,0.203796,63854,60785,62771,5576,-30415
1794,245819,4.14395,8.84297,-0.665137,92.6422,-25.9607,7.0752,-0.244141,-1.46484,-0.183105,0.661591,0.712952,-0.111298,0.203674,63855,60783,62776,5576,-30415
1800,245825,4.11045,8.79512,-0.583789,92.6532,-25.9497,7.06421,-0.671387,-1.28174,-0.183105,0.661591,0.712982,-0.111298,0.203613,63856,60781,62779,5576,-30415
1806,245831,4.10088,8.77119,-0.550293,92.6587,-25.9497,7.05872,-0.12207,-1.58691,-0.305176,0.66156,0.713013,-0.111298,0.203583,63855,60778,62781,5576,-30415
1812,245837,4.09609,8.74248,-0.540723,92.6752,-25.9442,7.04773,0.671387,-2.44141,-0.305176,0.66153,0.713043,-0.111328,0.203522,63855,60776,62783,5576,-30415
1818,245843,4.09609,8.78076,-0.555078,92.6917,-25.9387,7.03125,1.2207,-3.05176,-0.183105,0.661469,0.713135,-0.111328,0.20343,63856,60778,62782,5576,-30415
1824,245849,4.18223,8.84775,-0.583789,92.7136,-25.9332,7.01477,1.77002,-3.2959,-0.427246,0.661316,0.713318,-0.111389,0.203247,63857,60742,62779,5576,-30415
1830,245855,3.82334,8.61328,-0.746484,92.7576,-25.9222,6.9873,2.19727,-3.479,-0.732422,0.661224,0.71344,-0.11142,0.203156,63856,60710,62777,5576,-30415
1836,245861,4.07695,8.91953,-0.669922,92.785,-25.9167,6.96533,2.19727,-4.27246,-0.488281,0.661102,0.713562,-0.11145,0.203033,63856,60719,62775,5576,-30415
1842,245867,4.16787,8.82383,-0.75127,92.807,-25.9113,6.94336,1.89209,-3.96729,-0.366211,0.661011,0.713684,-0.111511,0.202911,63855,60686,62775,5576,-30415
1848,245873,4.22051,8.88125,-0.765625,92.829,-25.9058,6.92688,1.95313,-3.78418,-0.305176,0.660889,0.713806,-0.111542,0.202789,63854,60697,62776,5576,-30415
1854,245879,4.21572,8.90518,-0.803906,92.851,-25.9003,6.91589,1.83105,-3.23486,-0.549316,0.660706,0.71405,-0.111603,0.202576,63855,60714,62779,5576,-30415
1860,245885,4.22529,8.92432,-0.842188,92.8839,-25.8893,6.88293,0.976563,-3.05176,-0.671387,0.660614,0.714142,-0.111633,0.202484,63856,60721,62784,5576,-30415
1866,245891,4.21094,8.91953,-0.837402,92.9004,-25.8838,6.87195,0.732422,-2.62451,-0.366211,0.660553,0.714233,-0.111633,0.202393,63858,60728,62788,5576,-30415
1872,245897,4.19658,8.89561,-0.76084,92.9114,-25.8783,6.86646,0.366211,-2.2583,-0.488281,0.660492,0.714325,-0.111664,0.202301,63859,60736,62789,5576,-30415
1878,245903,4.16309,8.88603,-0.808691,92.9224,-25.8728,6.85547,0.12207,-2.01416,-0.244141,0.660431,0.714386,-0.111664,0.202209,63859,60702,62791,5576,-30415
1884,245909,4.13916,8.84775,-0.708203,92.9279,-25.8728,6.84998,0.12207,-1.64795,-0.244141,0.66037,0.714478,-0.111664,0.202118,63856,60721,62791,5576,-30415
1890,245915,4.11045,8.82861,-0.689063,92.9498,-25.8618,6.83899,0.305176,-1.70898,0,0.660309,0.714539,-0.111664,0.202057,63854,60728,62791,5576,-30415
1896,245921,4.11045,8.81426,-0.703418,92.9608,-25.8618,6.8335,0.610352,-1.70898,-0.0610352,0.660278,0.7146,-0.111664,0.202026,63853,60695,62793,5576,-30415
1902,245927,4.13438,8.83818,-0.703418,92.9773,-25.8563,6.828,0.854492,-1.89209,0.183105,0.660217,0.714661,-0.111664,0.201965,63852,60666,62793,5576,-30415
1908,245933,4.15352,8.85732,-0.794336,92.9883,-25.8563,6.82251,1.0376,-1.95313,0.305176,0.660156,0.714722,-0.111664,0.201935,63852,60639,62795,5576,-30415
1914,245939,4.23008,8.91475,-0.880469,93.0048,-25.8563,6.81152,0.976563,-2.01416,0.183105,0.660004,0.714905,-0.111664,0.201874,63853,60594,62798,5576,-30415
1920,245945,4.254,8.93867,-0.90918,93.0212,-25.8508,6.81152,-0.12207,-0.854492,0.305176,0.659943,0.714966,-0.111664,0.201874,63853,60574,62795,5576,-30415
1926,245951,4.22529,8.92432,-0.823047,93.0212,-25.8508,6.81702,-0.793457,-0.305176,0.305176,0.659882,0.714996,-0.111633,0.201874,63853,60557,62792,5576,-30415
1932,245957,4.18223,8.87168,-0.794336,93.0212,-25.8508,6.82251,-1.2207,0.0610352,0.244141,0.659882,0.714996,-0.111603,0.201904,63852,60541,62788,5576,-30415
1938,245963,4.15352,8.82861,-0.736914,93.0212,-25.8508,6.8335,-1.15967,0,0.244141,0.659882,0.714996,-0.111542,0.201935,63851,60528,62787,5576,-30415
1944,245969,4.14873,8.82383,-0.746484,93.0212,-25.8453,6.83899,-0.915527,-0.244141,0.183105,0.659851,0.715027,-0.11145,0.201996,63852,60507,62789,5576,-30415
1950,245975,4.14873,8.86211,-0.727344,93.0212,-25.8453,6.84448,-0.915527,-0.244141,0.305176,0.659851,0.715027,-0.11142,0.202026,63853,60537,62790,5576,-30415
1956,245981,4.13916,8.87646,-0.717773,93.0267,-25.8453,6.84998,-0.915527,-0.305176,0.488281,0.659821,0.715057,-0.111389,0.202026,63854,60562,62791,5576,-30415
1962,245987,4.16787,8.86689,-0.756055,93.0267,-25.8453,6.85547,-0.976563,-0.0610352,0.366211,0.659821,0.715057,-0.111359,0.202057,63854,60583,62790,5576,-30415
1968,245993,4.16787,8.85732,-0.727344,93.0267,-25.8453,6.85547,-1.0376,0,0.427246,0.65979,0.715057,-0.111328,0.202087,63855,60601,62789,5576,-30415
1974,245999,4.14873,8.85254,-0.746484,93.0267,-25.8453,6.86096,-1.0376,0,0.366211,0.65979,0.715088,-0.111298,0.202118,63858,60636,62789,5576,-30415
1980,246005,4.12959,8.85254,-0.717773,93.0267,-25.8453,6.86096,-1.2207,0.0610352,0.244141,0.65979,0.715088,-0.111267,0.202118,63810,60650,62787,5576,-30415
1986,246011,4.14873,8.83818,-0.732129,93.0212,-25.8398,6.86096,-1.46484,-0.0610352,0.305176,0.65979,0.715057,-0.111267,0.202118,63768,60661,62787,5576,-30415
1992,246017,4.13916,8.82383,-0.698633,93.0212,-25.8398,6.86096,-1.34277,-0.12207,0.183105,0.659821,0.715057,-0.111267,0.202087,63779,60674,62787,5576,-30415
1998,246023,4.18223,8.83818,-0.732129,93.0212,-25.8398,6.86096,-1.15967,-0.244141,0.12207,0.659821,0.715057,-0.111267,0.202087,63789,60685,62785,5576,-30415
2004,246029,4.16787,8.85732,-0.765625,93.0212,-25.8398,6.86096,-1.15967,-0.183105,0.183105,0.659851,0.715057,-0.111267,0.202057,63802,60669,62782,5576,-30415
2010,246035,4.13438,8.88603,-0.75127,93.0212,-25.8344,6.86096,-1.2207,0.0610352,0.183105,0.659851,0.715057,-0.111237,0.202057,63807,60644,62782,5576,-30415
2016,246041,4.1248,8.87646,-0.741699,93.0157,-25.8344,6.86646,-1.52588,0.244141,0.305176,0.659851,0.715057,-0.111237,0.202057,63812,60621,62782,5576,-30415
2022,246047,4.10566,8.84297,-0.703418,93.0103,-25.8344,6.87195,-1.46484,0.305176,0.366211,0.659851,0.715027,-0.111206,0.202057,63817,60640,62785,5576,-30415
2028,246053,4.10566,8.81426,-0.684277,93.0103,-25.8344,6.87195,-1.34277,0,0.427246,0.659882,0.715027,-0.111176,0.202087,63821,60655,62786,5576,-30415
2034,246059,4.1248,8.81426,-0.698633,93.0103,-25.8344,6.87195,-1.15967,-0.0610352,0.366211,0.659882,0.714996,-0.111176,0.202087,63827,60681,62789,5576,-30415
2040,246065,4.16309,8.85254,-0.794336,93.0157,-25.8344,6.87195,-0.610352,-0.488281,0.427246,0.659851,0.715027,-0.111176,0.202087,63830,60693,62791,5576,-30415
2046,246071,4.1918,8.91953,-0.808691,93.0212,-25.8289,6.86646,-0.976563,-0.366211,0.366211,0.659851,0.715057,-0.111176,0.202087,63834,60705,62795,5576,-30415
2052,246077,4.23008,8.9291,-0.77998,93.0157,-25.8344,6.87195,-1.52588,0.0610352,0.610352,0.659851,0.715057,-0.111176,0.202057,63838,60715,62793,5576,-30415
2058,246083,4.19658,8.89561,-0.741699,93.0103,-25.8344,6.87744,-1.83105,0.488281,0.488281,0.659851,0.715057,-0.111176,0.202087,63842,60684,62791,5576,-30415
2064,246089,4.10088,8.81426,-0.727344,93.0048,-25.8344,6.88293,-1.77002,0.671387,0.366211,0.659912,0.714996,-0.111115,0.202118,63845,60702,62784,5576,-30415
2070,246095,4.09609,8.81904,-0.693848,93.0048,-25.8289,6.88843,-1.0376,0.366211,0.366211,0.659912,0.714996,-0.111084,0.202148,63845,60712,62783,5576,-30415
2076,246101,4.08174,8.87646,-0.712988,92.9993,-25.8289,6.88843,-1.15967,0,0.488281,0.659912,0.714996,-0.111084,0.202148,63844,60720,62782,5576,-30415
2082,246107,4.12002,8.8334,-0.693848,92.9993,-25.8289,6.88843,-1.40381,-0.0610352,0.488281,0.659912,0.714966,-0.111084,0.202179,63847,60729,62783,5576,-30415
2088,246113,4.15352,8.80947,-0.660352,92.9993,-25.8344,6.88843,-0.915527,-0.0610352,0.671387,0.659912,0.714966,-0.111084,0.202179,63848,60737,62783,5576,-30415
2094,246119,4.1583,8.82383,-0.741699,93.0048,-25.8344,6.89392,-0.732422,-0.0610352,0.488281,0.659912,0.714996,-0.111053,0.202179,63853,60710,62788,5576,-30415
2100,246125,4.15352,8.87646,-0.803906,93.0048,-25.8344,6.89392,-0.549316,-0.0610352,0.488281,0.659882,0.714996,-0.111053,0.202209,63855,60681,62790,5576,-30415
2106,246131,4.17744,8.89561,-0.794336,93.0103,-25.8344,6.89941,-0.732422,-0.305176,0.488281,0.659851,0.715027,-0.111023,0.202209,63857,60654,62792,5576,-30415
2112,246137,4.1918,8.89082,-0.784766,93.0103,-25.8344,6.89941,-1.09863,-0.183105,0.488281,0.659851,0.715027,-0.110992,0.20224,63858,60629,62793,5576,-30415
2118,246143,4.16787,8.8334,-0.75127,93.0103,-25.8344,6.90491,-1.28174,0.244141,0.610352,0.659851,0.715027,-0.110992,0.20224,63859,60608,62792,5576,-30415
2124,246149,4.13916,8.80947,-0.717773,93.0048,-25.8344,6.9104,-1.15967,0.12207,0.366211,0.659851,0.715027,-0.110931,0.202301,63859,60605,62794,5576,-30415
2130,246155,4.14873,8.83818,-0.77041,93.0103,-25.8289,6.92139,-0.915527,0.0610352,0.305176,0.659821,0.715027,-0.110901,0.202332,63857,60584,62791,5576,-30415
2136,246161,4.12002,8.84775,-0.75127,93.0103,-25.8289,6.92688,-0.549316,-0.12207,0.427246,0.659821,0.715057,-0.11084,0.202362,63856,60566,62788,5576,-30415
2142,246167,4.1583,8.87168,-0.75127,93.0103,-25.8289,6.93237,-1.0376,-0.244141,0.427246,0.65979,0.715057,-0.110809,0.202393,63855,60552,62785,5576,-30415
2148,246173,4.17744,8.86211,-0.76084,93.0103,-25.8289,6.93787,-1.0376,-0.12207,0.427246,0.65979,0.715088,-0.110779,0.202423,63855,60538,62781,5576,-30415
2154,246179,4.14395,8.87168,-0.708203,93.0103,-25.8289,6.94336,-1.2207,-0.0610352,0.427246,0.65976,0.715088,-0.110718,0.202484,63856,60513,62774,5576,-30415
2160,246185,4.12959,8.82383,-0.732129,93.0103,-25.8289,6.95435,-1.0376,0.0610352,0.366211,0.65976,0.715088,-0.110657,0.202515,63857,60542,62772,5576,-30415
2166,246191,4.11045,8.8334,-0.736914,93.0103,-25.8289,6.95984,-0.915527,-0.244141,0.305176,0.65976,0.715088,-0.110626,0.202545,63857,60568,62771,5576,-30415
2172,246197,4.15352,8.85254,-0.722559,93.0103,-25.8289,6.95984,-0.854492,-0.244141,0.366211,0.659729,0.715088,-0.110596,0.202545,63857,60589,62769,5576,-30415
2178,246203,4.15352,8.80947,-0.727344,93.0157,-25.8289,6.95984,-0.854492,-0.427246,0.488281,0.659729,0.715118,-0.110596,0.202576,63856,60609,62770,5576,-30415
2184,246209,4.16309,8.86211,-0.75127,93.0212,-25.8289,6.95984,-0.488281,-0.427246,0.488281,0.659698,0.715149,-0.110565,0.202576,63856,60645,62774,5576,-30415
2190,246215,4.14873,8.91475,-0.76084,93.0212,-25.8234,6.97083,-0.732422,-0.12207,0.366211,0.659668,0.715179,-0.110535,0.202606,63855,60620,62777,5576,-30415
2196,246221,4.1583,8.87646,-0.77998,93.0267,-25.8234,6.97083,-0.915527,-0.0610352,0.488281,0.659637,0.715179,-0.110504,0.202606,63854,60598,62778,5576,-30415
2202,246227,4.13916,8.86689,-0.722559,93.0212,-25.8289,6.97632,-1.28174,-0.0610352,0.610352,0.659637,0.715179,-0.110474,0.202637,63855,60619,62778,5576,-30415
2208,246233,4.15352,8.84775,-0.722559,93.0212,-25.8234,6.97632,-1.15967,0,0.366211,0.659637,0.715179,-0.110474,0.202637,63855,60637,62779,5576,-30415
2214,246239,4.16787,8.82861,-0.722559,93.0212,-25.8234,6.98181,-1.0376,-0.183105,0.488281,0.659637,0.71521,-0.110443,0.202698,63852,60594,62781,5576,-30415
2220,246245,4.18223,8.88125,-0.775195,93.0267,-25.8234,6.9873,-0.915527,-0.366211,0.549316,0.659607,0.71521,-0.110413,0.202698,63851,60576,62783,5576,-30415
2226,246251,4.19658,8.88603,-0.789551,93.0267,-25.8234,6.9928,-1.0376,-0.305176,0.305176,0.659576,0.71521,-0.110382,0.202728,63848,60561,62782,5576,-30415
2232,246257,4.18223,8.90518,-0.75127,93.0267,-25.8234,6.99829,-1.28174,0.0610352,0.488281,0.659576,0.71524,-0.110352,0.202728,63847,60545,62779,5576,-30415
2238,246263,4.18223,8.88125,-0.722559,93.0212,-25.8234,7.00378,-1.52588,0.366211,0.427246,0.659576,0.71524,-0.110321,0.202759,63846,60531,62777,5576,-30415
2244,246269,4.09131,8.79512,-0.655566,93.0212,-25.8234,7.00928,-1.46484,0.610352,0.488281,0.659607,0.71521,-0.110229,0.20285,63845,60506,62772,5576,-30415
2250,246275,4.08174,8.7999,-0.650781,93.0157,-25.8234,7.02026,-1.0376,0,0.488281,0.659607,0.71521,-0.110199,0.202881,63844,60536,62770,5576,-30415
2256,246281,4.09609,8.78555,-0.674707,93.0212,-25.8234,7.02576,-0.671387,-0.366211,0.488281,0.659576,0.71521,-0.110168,0.202911,63845,60563,62767,5576,-30415
2262,246287,4.13438,8.80947,-0.674707,93.0267,-25.8234,7.02576,-0.488281,-0.671387,0.671387,0.659576,0.71521,-0.110168,0.202911,63847,60588,62764,5576,-30415
2268,246293,4.15352,8.88125,-0.736914,93.0267,-25.8234,7.02576,-0.488281,-0.549316,0.488281,0.659546,0.71524,-0.110168,0.202942,63848,60609,62762,5576,-30415
2274,246299,4.14395,8.84297,-0.756055,93.0322,-25.8234,7.02576,-0.549316,-0.244141,0.488281,0.659485,0.715271,-0.110138,0.202972,63853,60569,62767,5576,-30415
2280,246305,4.14395,8.86689,-0.703418,93.0322,-25.8289,7.03674,-0.732422,-0.0610352,0.671387,0.659485,0.715302,-0.110107,0.202972,63856,60592,62770,5576,-30415
2286,246311,4.14395,8.82383,-0.736914,93.0377,-25.8289,7.03674,-0.610352,-0.244141,0.610352,0.659454,0.715302,-0.110077,0.203003,63859,60614,62774,5576,-30415
2292,246317,4.14395,8.83818,-0.741699,93.0377,-25.8289,7.03674,-0.427246,-0.488281,0.610352,0.659454,0.715332,-0.110077,0.203033,63859,60633,62777,5576,-30415
2298,246323,4.1583,8.83818,-0.75127,93.0432,-25.8289,7.03674,-0.366211,-0.549316,0.427246,0.659424,0.715332,-0.110077,0.203033,63858,60650,62780,5576,-30415
2304,246329,4.16309,8.85732,-0.765625,93.0487,-25.8289,7.03674,-0.366211,-0.549316,0.427246,0.659363,0.715393,-0.110046,0.203064,63857,60605,62785,5576,-30415
2310,246335,4.16787,8.83818,-0.732129,93.0542,-25.8289,7.04224,-0.793457,-0.12207,0.305176,0.659332,0.715424,-0.110016,0.203064,63857,60625,62785,5576,-30415
2316,246341,4.12959,8.81904,-0.727344,93.0542,-25.8289,7.04224,-0.549316,-0.305176,0.610352,0.659332,0.715424,-0.109985,0.203064,63859,60643,62782,5576,-30415
2322,246347,4.10088,8.83818,-0.746484,93.0597,-25.8289,7.04224,-0.549316,-0.488281,0.610352,0.659302,0.715454,-0.109985,0.203094,63860,60658,62781,5576,-30415
2328,246353,4.11523,8.80469,-0.689063,93.0652,-25.8289,7.04224,-0.427246,-0.671387,0.549316,0.659271,0.715454,-0.109985,0.203094,63861,60671,62780,5576,-30415
2334,246359,4.11045,8.85254,-0.736914,93.0707,-25.8289,7.04224,-0.0610352,-0.793457,0.305176,0.65921,0.715515,-0.109985,0.203064,63863,60656,62776,5576,-30415
2340,246365,4.14395,8.81904,-0.77998,93.0872,-25.8289,7.03674,-0.0610352,-0.976563,0.610352,0.65918,0.715576,-0.109985,0.203094,63864,60630,62775,5576,-30415
2346,246371,4.14873,8.83818,-0.75127,93.0927,-25.8289,7.03674,-0.0610352,-0.671387,0.610352,0.659119,0.715607,-0.109985,0.203094,63866,60607,62774,5576,-30415
2352,246377,4.18701,8.84775,-0.741699,93.0981,-25.8289,7.04224,-0.12207,-0.549316,0.488281,0.659088,0.715637,-0.109955,0.203094,63868,60586,62776,5576,-30415
2358,246383,4.1583,8.83818,-0.689063,93.1036,-25.8289,7.03674,-0.12207,-0.793457,0.610352,0.659058,0.715668,-0.109955,0.203094,63868,60608,62777,5576,-30415
2364,246389,4.14873,8.81904,-0.722559,93.1091,-25.8289,7.04224,0,-0.610352,0.610352,0.658966,0.715759,-0.109924,0.203125,63867,60604,62781,5576,-30415
2370,246395,4.18223,8.84297,-0.799121,93.1256,-25.8289,7.04224,0.366211,-0.915527,0.305176,0.658905,0.71579,-0.109924,0.203125,63865,60585,62783,5576,-30415
2376,246401,4.18701,8.89561,-0.808691,93.1366,-25.8289,7.03674,0.12207,-1.09863,0.427246,0.658875,0.715851,-0.109894,0.203125,63864,60569,62782,5576,-30415
2382,246407,4.20137,8.90039,-0.823047,93.1421,-25.8289,7.04224,-0.0610352,-0.854492,0.366211,0.658813,0.715912,-0.109863,0.203125,63862,60556,62781,5576,-30415
2388,246413,4.22529,8.84775,-0.789551,93.1476,-25.8234,7.04224,-0.549316,-0.549316,0.305176,0.658783,0.715942,-0.109863,0.203156,63860,60543,62779,5576,-30415
2394,246419,4.13916,8.82861,-0.722559,93.1476,-25.8234,7.04773,-0.610352,-0.183105,0.305176,0.658722,0.715973,-0.109802,0.203186,63858,60521,62775,5576,-30415
2400,246425,4.11045,8.81904,-0.746484,93.1586,-25.8234,7.05322,-0.305176,-0.427246,0.305176,0.658691,0.716003,-0.109741,0.203217,63860,60511,62774,5576,-30415
2406,246431,4.12002,8.82861,-0.75127,93.1641,-25.8234,7.05872,-0.0610352,-0.671387,0.366211,0.658661,0.716034,-0.109711,0.203217,63862,60502,62771,5576,-30415
2412,246437,4.13916,8.8334,-0.756055,93.1696,-25.8234,7.05872,0,-1.0376,0.305176,0.65863,0.716064,-0.10968,0.203247,63864,60494,62768,5576,-30415
2418,246443,4.17266,8.88603,-0.756055,93.175,-25.8179,7.05872,0.0610352,-1.2207,0.366211,0.658569,0.716125,-0.10965,0.203247,63866,60486,62766,5576,-30415
2424,246449,4.17744,8.89561,-0.813477,93.186,-25.8179,7.05872,-0.12207,-1.0376,0.183105,0.658478,0.716217,-0.109619,0.203247,63867,60512,62767,5576,-30415
2430,246455,4.14395,8.89561,-0.813477,93.197,-25.8179,7.06421,-0.427246,-0.549316,0.305176,0.658447,0.716248,-0.109589,0.203247,63868,60541,62772,5576,-30415
2436,246461,4.12959,8.87646,-0.76084,93.197,-25.8179,7.06421,-0.732422,-0.305176,0.366211,0.658417,0.716278,-0.109558,0.203278,63870,60567,62777,5576,-30415
2442,246467,4.1248,8.8334,-0.703418,93.2025,-25.8179,7.05872,-0.671387,-0.610352,0.183105,0.658417,0.716278,-0.109558,0.203278,63821,60591,62779,5576,-30415
2448,246473,4.14395,8.81426,-0.698633,93.2025,-25.8179,7.05322,-0.427246,-0.549316,0.488281,0.658386,0.716309,-0.109558,0.203247,63779,60612,62781,5576,-30415
2454,246479,4.14873,8.85732,-0.77041,93.208,-25.8124,7.04773,-0.12207,-0.793457,0.366211,0.658356,0.716339,-0.109619,0.203186,63753,60575,62779,5576,-30415
2460,246485,4.1583,8.88125,-0.799121,93.2245,-25.8124,7.03674,0.0610352,-0.976563,0.305176,0.658325,0.7164,-0.109619,0.203156,63716,60559,62774,5576,-30415
2466,246491,4.21094,8.86689,-0.77998,93.23,-25.8124,7.03125,-0.488281,-0.854492,0.183105,0.658295,0.716431,-0.10965,0.203125,63732,60546,62772,5576,-30415
2472,246497,4.18701,8.82861,-0.784766,93.2355,-25.8124,7.02576,-0.488281,-0.671387,0.183105,0.658264,0.716461,-0.10968,0.203064,63745,60534,62770,5576,-30415
2478,246503,4.16309,8.86211,-0.75127,93.241,-25.8069,7.02576,-0.549316,-0.610352,0.12207,0.658234,0.716492,-0.10968,0.203064,63756,60523,62766,5576,-30415
2484,246509,4.13916,8.83818,-0.789551,93.241,-25.8069,7.02576,-0.549316,-0.610352,0.183105,0.658203,0.716522,-0.10965,0.203033,63777,60504,62767,5576,-30415
2490,246515,4.14873,8.82861,-0.818262,93.252,-25.8014,7.02026,-0.366211,-0.915527,0,0.658203,0.716553,-0.10965,0.203003,63788,60497,62768,5576,-30415
2496,246521,4.20137,8.86211,-0.789551,93.2574,-25.8014,7.01477,-0.427246,-1.09863,0.12207,0.658173,0.716583,-0.10965,0.202972,63747,60492,62773,5576,-30415
2502,246527,4.1918,8.87168,-0.799121,93.2629,-25.7959,7.00928,-0.549316,-0.854492,0.12207,0.658142,0.716614,-0.10965,0.202942,63761,60487,62775,5576,-30415
2508,246533,4.17266,8.84297,-0.746484,93.2629,-25.7959,7.00928,-0.671387,-0.488281,0.12207,0.658112,0.716644,-0.10965,0.202911,63772,60482,62778,5576,-30415
2514,246539,4.12959,8.7999,-0.736914,93.2684,-25.7959,7.01477,-0.549316,-0.549316,0.0610352,0.658081,0.716675,-0.109619,0.202911,63789,60474,62786,5576,-30415
2520,246545,4.09609,8.81426,-0.765625,93.2794,-25.7904,7.00928,-0.0610352,-0.915527,0.12207,0.658051,0.716705,-0.109589,0.202881,63796,60468,62789,5576,-30415
2526,246551,4.14395,8.81904,-0.775195,93.2904,-25.7849,7.00928,0.0610352,-1.15967,0.0610352,0.65802,0.716736,-0.109558,0.202881,63802,60463,62793,5576,-30415
2532,246557,4.14395,8.84297,-0.837402,93.2959,-25.7849,7.00928,0,-1.2207,-0.0610352,0.65799,0.716797,-0.109558,0.202881,63810,60457,62792,5576,-30415
2538,246563,4.17744,8.89561,-0.842188,93.3014,-25.7794,7.00928,-0.244141,-1.09863,-0.12207,0.657928,0.716827,-0.109528,0.20285,63815,60451,62790,5576,-30415
2544,246569,4.18223,8.85732,-0.808691,93.3069,-25.7794,7.00928,-0.671387,-0.854492,0.0610352,0.657867,0.716919,-0.109467,0.20282,63827,60442,62793,5576,-30415
2550,246575,4.14873,8.84297,-0.794336,93.3124,-25.7739,7.00928,-0.793457,-0.305176,0.12207,0.657867,0.716919,-0.109467,0.20282,63782,60438,62795,5576,-30415
2556,246581,4.14395,8.8334,-0.765625,93.3124,-25.7739,7.00928,-0.793457,-0.488281,0.0610352,0.657867,0.716919,-0.109436,0.20282,63743,60436,62798,5576,-30415
2562,246587,4.13438,8.85254,-0.808691,93.3179,-25.7739,7.00378,-0.610352,-0.488281,0,0.657867,0.716949,-0.109436,0.202789,63706,60434,62798,5576,-30415
2568,246593,4.13438,8.88125,-0.794336,93.3179,-25.7684,7.00378,-0.671387,-0.488281,0.0610352,0.657837,0.716949,-0.109436,0.202789,63724,60432,62798,5576,-30415
2574,246599,4.1583,8.90996,-0.827832,93.3234,-25.7684,7.00378,-0.732422,-0.488281,0.12207,0.657806,0.71701,-0.109436,0.202759,63751,60467,62794,5567,-30414
2580,246605,4.19658,8.85732,-0.803906,93.3234,-25.7629,7.00378,-1.2207,-0.183105,0,0.657806,0.71701,-0.109406,0.202728,63761,60500,62788,5567,-30414
2586,246611,4.16309,8.82383,-0.794336,93.3234,-25.7629,7.00378,-1.34277,-0.183105,0.0610352,0.657806,0.71701,-0.109406,0.202728,63771,60491,62785,5567,-30414
2592,246617,4.13916,8.82861,-0.75127,93.3234,-25.7574,7.00928,-1.15967,-0.244141,-0.183105,0.657837,0.71701,-0.109375,0.202728,63780,60482,62782,5567,-30414
2598,246623,4.1248,8.84297,-0.803906,93.3234,-25.7574,7.00928,-1.09863,-0.427246,-0.12207,0.657837,0.71701,-0.109344,0.202728,63789,60475,62780,5567,-30414
2604,246629,4.11523,8.89082,-0.784766,93.3234,-25.7574,7.00928,-1.15967,-0.305176,0,0.657837,0.71701,-0.109283,0.202698,63802,60461,62783,5567,-30414
2610,246635,4.14873,8.83818,-0.775195,93.3234,-25.752,7.01477,-1.40381,-0.427246,0,0.657806,0.717041,-0.109283,0.202698,63809,60457,62784,5567,-30414
2616,246641,4.13916,8.82383,-0.77041,93.3234,-25.7465,7.01477,-1.28174,-0.244141,-0.12207,0.657837,0.717041,-0.109253,0.202698,63816,60452,62784,5567,-30414
2622,246647,4.12002,8.85254,-0.746484,93.3234,-25.7465,7.01477,-1.09863,-0.366211,0,0.657837,0.717041,-0.109222,0.202698,63772,60448,62783,5567,-30414
2628,246653,4.12959,8.86689,-0.789551,93.3234,-25.741,7.01477,-1.15967,-0.183105,-0.0610352,0.657837,0.717041,-0.109222,0.202667,63734,60445,62784,5567,-30414
2634,246659,4.10566,8.85732,-0.76084,93.3234,-25.741,7.00928,-1.15967,-0.183105,0.12207,0.657837,0.717041,-0.109222,0.202637,63718,60476,62785,5567,-30414
2640,246665,4.12002,8.81904,-0.775195,93.3234,-25.7355,7.00378,-1.15967,-0.427246,0.12207,0.657867,0.717041,-0.109222,0.202606,63732,60508,62789,5567,-30414
2646,246671,4.15352,8.83818,-0.808691,93.3234,-25.7355,7.00378,-1.0376,-0.488281,0,0.657867,0.717041,-0.109222,0.202576,63746,60536,62793,5567,-30414
2652,246677,4.13916,8.86689,-0.775195,93.3289,-25.73,6.99829,-0.915527,-0.549316,-0.12207,0.657867,0.717041,-0.109222,0.202545,63759,60559,62799,5567,-30414
2658,246683,4.16787,8.88125,-0.808691,93.3289,-25.73,6.9928,-1.15967,-0.427246,-0.183105,0.657867,0.717072,-0.109222,0.202515,63771,60580,62804,5567,-30414
2664,246689,4.17744,8.90039,-0.803906,93.3289,-25.7245,6.9873,-1.28174,-0.244141,0.0610352,0.657898,0.717041,-0.109253,0.202423,63747,60617,62804,5567,-30414
2670,246695,4.12002,8.86689,-0.784766,93.3234,-25.7245,6.9873,-1.70898,0.183105,-0.0610352,0.657898,0.717041,-0.109253,0.202393,63761,60633,62804,5567,-30414
2676,246701,4.08174,8.83818,-0.736914,93.3179,-25.719,6.9873,-1.52588,0.12207,0.183105,0.657928,0.71701,-0.109253,0.202362,63774,60649,62805,5567,-30414
2682,246707,4.08174,8.81426,-0.717773,93.3179,-25.719,6.9873,-1.34277,-0.0610352,0.12207,0.657959,0.71701,-0.109253,0.202362,63784,60624,62807,5567,-30414
2688,246713,4.09609,8.7999,-0.712988,93.3179,-25.719,6.9873,-0.671387,-0.427246,0.305176,0.657959,0.71701,-0.109222,0.202362,63794,60601,62810,5567,-30414
2694,246719,4.13916,8.85732,-0.775195,93.3234,-25.719,6.98181,-0.549316,-0.793457,0.244141,0.657928,0.717041,-0.109253,0.202332,63810,60600,62811,5567,-30414
2700,246725,4.13438,8.86211,-0.832617,93.3344,-25.7135,6.97083,-0.427246,-0.732422,0.488281,0.657898,0.717072,-0.109253,0.202301,63768,60582,62811,5567,-30414
2706,246731,4.14873,8.88603,-0.846973,93.3398,-25.7135,6.97083,-0.549316,-0.427246,0.488281,0.657898,0.717102,-0.109283,0.202271,63729,60565,62809,5567,-30414
2712,246737,4.14873,8.87168,-0.832617,93.3398,-25.7135,6.96533,-0.854492,-0.244141,0.244141,0.657867,0.717102,-0.109314,0.20224,63745,60551,62806,5567,-30414
2718,246743,4.12959,8.89082,-0.856543,93.3398,-25.7135,6.96533,-1.0376,0.0610352,0.244141,0.657867,0.717102,-0.109314,0.202209,63708,60536,62802,5567,-30414
2724,246749,4.17744,8.86211,-0.856543,93.3398,-25.7135,6.95984,-1.28174,-0.183105,0.12207,0.657898,0.717102,-0.109314,0.202179,63738,60549,62801,5567,-30414
2730,246755,4.19658,8.89082,-0.846973,93.3398,-25.708,6.95435,-1.46484,-0.12207,0.183105,0.657898,0.717102,-0.109344,0.202148,63750,60574,62803,5567,-30414
2736,246761,4.17744,8.88125,-0.818262,93.3344,-25.708,6.95435,-1.64795,0.0610352,-0.12207,0.657898,0.717102,-0.109344,0.202118,63760,60597,62805,5567,-30414
2742,246767,4.16787,8.86689,-0.77998,93.3289,-25.7025,6.95435,-1.89209,0.183105,0,0.657928,0.717102,-0.109344,0.202118,63768,60616,62804,5567,-30414
2748,246773,4.12002,8.82383,-0.75127,93.3289,-25.7025,6.95435,-1.70898,0.244141,-0.12207,0.657959,0.717072,-0.109344,0.202087,63777,60634,62801,5567,-30414
2754,246779,4.07217,8.82861,-0.76084,93.3234,-25.697,6.95435,-1.34277,0,0.0610352,0.65799,0.717041,-0.109314,0.202057,63795,60594,62793,5567,-30414
2760,246785,4.06738,8.84775,-0.736914,93.3234,-25.697,6.94885,-1.15967,-0.305176,0.244141,0.65799,0.717041,-0.109283,0.202057,63754,60578,62789,5567,-30414
2766,246791,4.07695,8.82383,-0.732129,93.3289,-25.697,6.94336,-1.2207,-0.427246,0.244141,0.65802,0.717041,-0.109314,0.202026,63717,60562,62787,5567,-30414
2772,246797,4.14395,8.79033,-0.727344,93.3289,-25.697,6.93787,-1.0376,-0.305176,0.488281,0.65802,0.717041,-0.109344,0.201965,63684,60548,62787,5567,-30414
2778,246803,4.13916,8.79033,-0.708203,93.3289,-25.6915,6.93237,-0.610352,-0.610352,0.0610352,0.65802,0.717041,-0.109375,0.201935,63703,60533,62788,5567,-30414
2784,246809,4.11523,8.84775,-0.775195,93.3344,-25.6915,6.92688,-0.549316,-0.732422,0.12207,0.65799,0.717072,-0.109406,0.201874,63736,60582,62791,5567,-30414
2790,246815,4.12959,8.87646,-0.813477,93.3453,-25.686,6.91589,-0.305176,-0.671387,0.0610352,0.65799,0.717102,-0.109436,0.201813,63749,60600,62791,5567,-30414
2796,246821,4.1248,8.88603,-0.799121,93.3508,-25.686,6.9104,-0.488281,-0.915527,0.244141,0.657959,0.717133,-0.109436,0.201782,63761,60616,62792,5567,-30414
2802,246827,4.13916,8.89082,-0.77041,93.3508,-25.686,6.90491,-0.915527,-0.427246,0.183105,0.657959,0.717163,-0.109467,0.201752,63773,60631,62792,5567,-30414
2808,246833,4.1248,8.84775,-0.818262,93.3508,-25.686,6.90491,-0.793457,-0.305176,0.12207,0.657959,0.717163,-0.109467,0.201721,63783,60647,62791,5567,-30414
2814,246839,4.13438,8.84775,-0.823047,93.3563,-25.6805,6.90491,-0.610352,-0.488281,0.183105,0.657928,0.717194,-0.109467,0.201691,63796,60601,62788,5567,-30414
2820,246845,4.1248,8.87646,-0.842188,93.3618,-25.675,6.89941,-0.671387,-0.610352,0.0610352,0.657928,0.717194,-0.109467,0.20166,63802,60580,62787,5567,-30414
2826,246851,4.1583,8.87646,-0.851758,93.3618,-25.675,6.89941,-0.915527,-0.427246,0.244141,0.657898,0.717224,-0.109467,0.20163,63807,60563,62789,5567,-30414
2832,246857,4.16309,8.86689,-0.789551,93.3673,-25.675,6.89941,-1.0376,-0.305176,0.305176,0.657898,0.717224,-0.109467,0.20163,63813,60547,62791,5567,-30414
2838,246863,4.14395,8.83818,-0.775195,93.3618,-25.675,6.90491,-1.34277,-0.183105,0.366211,0.657898,0.717255,-0.109436,0.20163,63819,60533,62795,5567,-30414
2844,246869,4.11523,8.83818,-0.736914,93.3673,-25.675,6.90491,-1.0376,-0.488281,0.244141,0.657898,0.717255,-0.109406,0.20166,63826,60508,62805,5567,-30414
2850,246875,4.12002,8.86211,-0.77998,93.3728,-25.6696,6.90491,-0.549316,-0.671387,0.12207,0.657867,0.717285,-0.109375,0.20166,63829,60496,62808,5567,-30414
2856,246881,4.11045,8.86211,-0.823047,93.3783,-25.6696,6.90491,-0.488281,-0.854492,0.12207,0.657837,0.717285,-0.109344,0.20166,63832,60487,62813,5567,-30414
2862,246887,4.12959,8.89561,-0.784766,93.3838,-25.6641,6.9104,-0.610352,-0.793457,0.0610352,0.657806,0.717316,-0.109344,0.20163,63835,60478,62816,5567,-30414
2868,246893,4.13916,8.86211,-0.803906,93.3838,-25.6641,6.9104,-0.549316,-0.976563,0.183105,0.657776,0.717346,-0.109314,0.20163,63838,60472,62815,5567,-30414
2874,246899,4.1583,8.86689,-0.803906,93.3893,-25.6586,6.9104,-0.671387,-0.610352,-0.244141,0.657745,0.717407,-0.109253,0.20163,63845,60465,62809,5567,-30414
2880,246905,4.1583,8.89561,-0.823047,93.4003,-25.6531,6.91589,-0.305176,-0.854492,-0.12207,0.657715,0.717438,-0.109222,0.20163,63849,60462,62804,5567,-30414
2886,246911,4.15352,8.91953,-0.885254,93.4058,-25.6531,6.91589,-0.671387,-0.793457,0.0610352,0.657684,0.717468,-0.109161,0.20163,63852,60458,62799,5567,-30414
2892,246917,4.15352,8.88125,-0.866113,93.4058,-25.6531,6.92139,-1.09863,-0.427246,0,0.657654,0.717499,-0.109131,0.20163,63854,60455,62795,5567,-30414
2898,246923,4.11045,8.88603,-0.818262,93.4003,-25.6476,6.92688,-1.40381,-0.0610352,0.183105,0.657654,0.717499,-0.1091,0.20163,63856,60452,62791,5567,-30414
2904,246929,4.0626,8.76641,-0.708203,93.4003,-25.6476,6.93237,-1.40381,-0.0610352,0.183105,0.657654,0.717499,-0.109009,0.201691,63858,60442,62787,5567,-30414
2910,246935,4.08652,8.7377,-0.75127,93.4058,-25.6476,6.93787,-0.549316,-0.610352,0.366211,0.657654,0.717499,-0.108978,0.201721,63859,60437,62786,5567,-30414
2916,246941,4.10088,8.86689,-0.75127,93.4113,-25.6476,6.94336,-0.183105,-0.793457,0.427246,0.657623,0.717529,-0.108948,0.201721,63859,60473,62789,5567,-30414
2922,246947,4.15352,8.91953,-0.837402,93.4167,-25.6476,6.94336,-0.244141,-0.915527,0.610352,0.657593,0.71756,-0.108948,0.201721,63860,60506,62791,5567,-30414
2928,246953,4.20615,8.89082,-0.91875,93.4222,-25.6476,6.94336,-0.427246,-0.549316,0.244141,0.657562,0.71759,-0.108917,0.201752,63861,60495,62793,5567,-30414
2934,246959,4.23008,8.90039,-0.861328,93.4222,-25.6476,6.94885,-1.09863,-0.244141,0.366211,0.657501,0.717651,-0.108856,0.201782,63864,60476,62796,5567,-30414
2940,246965,4.20137,8.87646,-0.813477,93.4167,-25.6421,6.96533,-1.58691,0.427246,0.244141,0.657501,0.717621,-0.108826,0.201813,63865,60468,62797,5567,-30414
2946,246971,4.11523,8.87168,-0.784766,93.4113,-25.6421,6.97632,-1.77002,0.671387,0.183105,0.657532,0.717621,-0.108765,0.201874,63867,60461,62799,5567,-30414
2952,246977,4.04346,8.79512,-0.789551,93.4058,-25.6421,6.9873,-1.89209,0.488281,0.427246,0.657532,0.71759,-0.108704,0.201904,63869,60455,62800,5567,-30414
2958,246983,4.0626,8.74727,-0.76084,93.4003,-25.6421,6.9928,-1.46484,-0.183105,0.366211,0.657562,0.71759,-0.108643,0.201965,63870,60449,62800,5567,-30414
2964,246989,4.1583,8.82383,-0.789551,93.4058,-25.6421,6.9928,-1.0376,-0.610352,0.305176,0.657532,0.71759,-0.108582,0.201996,63870,60443,62802,5567,-30414
2970,246995,4.19658,8.88603,-0.789551,93.4058,-25.6366,7.00378,-1.0376,-0.427246,0,0.657501,0.717621,-0.108551,0.202026,63870,60441,62804,5567,-30414
2976,247001,4.1583,8.86689,-0.784766,93.4058,-25.6366,7.00928,-1.2207,-0.0610352,0,0.657501,0.717621,-0.10849,0.202026,63870,60439,62805,5567,-30414
2982,247007,4.10566,8.85254,-0.77041,93.4058,-25.6366,7.02026,-1.15967,0.0610352,0,0.657501,0.717621,-0.108459,0.202057,63870,60437,62804,5567,-30414
2988,247013,4.07695,8.84297,-0.76084,93.4058,-25.6311,7.02576,-1.0376,-0.244141,-0.0610352,0.657501,0.717651,-0.108398,0.202087,63869,60435,62804,5567,-30414
2994,247019,4.09131,8.77598,-0.765625,93.4113,-25.6311,7.02576,-0.915527,-0.488281,0.183105,0.657471,0.717651,-0.108307,0.202118,63868,60433,62802,5567,-30414
3000,247025,4.11523,8.79033,-0.746484,93.4167,-25.6256,7.03674,-0.305176,-0.732422,0.12207,0.65744,0.717682,-0.108246,0.202148,63869,60431,62801,5567,-30414
3006,247031,4.12959,8.82383,-0.76084,93.4277,-25.6256,7.03674,-0.12207,-0.793457,0.305176,0.65741,0.717743,-0.108215,0.202148,63871,60428,62798,5567,-30414
3012,247037,4.12959,8.86211,-0.77041,93.4332,-25.6256,7.04224,-0.183105,-0.610352,0.305176,0.657349,0.717773,-0.108185,0.202179,63872,60426,62793,5567,-30414
3018,247043,4.11045,8.85732,-0.813477,93.4387,-25.6256,7.04224,-0.183105,-0.488281,0.366211,0.657318,0.717804,-0.108154,0.202179,63873,60464,62788,5567,-30414
3024,247049,4.10088,8.88603,-0.846973,93.4442,-25.6201,7.04224,-0.0610352,-0.488281,0.305176,0.657257,0.717865,-0.108093,0.202209,63830,60490,62779,5567,-30414
3030,247055,4.1248,8.86211,-0.823047,93.4497,-25.6201,7.04224,-0.549316,-0.793457,0.366211,0.657227,0.717896,-0.108093,0.202209,63832,60482,62776,5567,-30414
3036,247061,4.18701,8.88603,-0.827832,93.4552,-25.6201,7.04224,-0.549316,-0.610352,0.366211,0.657196,0.717926,-0.108093,0.202209,63836,60477,62775,5567,-30414
3042,247067,4.17266,8.87168,-0.837402,93.4552,-25.6201,7.04773,-0.732422,-0.12207,0.183105,0.657166,0.717957,-0.108063,0.202209,63838,60474,62775,5567,-30414
3048,247073,4.16309,8.87168,-0.827832,93.4552,-25.6201,7.05322,-1.0376,-0.0610352,0.244141,0.657135,0.717957,-0.108032,0.202209,63838,60471,62776,5567,-30414
3054,247079,4.13916,8.84297,-0.799121,93.4552,-25.6146,7.05872,-1.15967,0.0610352,0,0.657135,0.717987,-0.107941,0.202271,63843,60463,62777,5567,-30414
3060,247085,4.10088,8.82383,-0.75127,93.4552,-25.6146,7.05872,-1.2207,-0.305176,0.0610352,0.657135,0.717987,-0.107941,0.202271,63846,60497,62780,5567,-30414
3066,247091,4.1248,8.79033,-0.736914,93.4552,-25.6091,7.06421,-0.976563,-0.488281,0.244141,0.657135,0.717987,-0.10791,0.202271,63850,60527,62782,5567,-30414
3072,247097,4.12002,8.85732,-0.756055,93.4607,-25.6091,7.06421,-0.610352,-0.488281,0,0.657135,0.717987,-0.10788,0.202271,63852,60554,62783,5567,-30414
3078,247103,4.10088,8.88125,-0.784766,93.4662,-25.6091,7.05872,-0.366211,-0.732422,0.12207,0.657135,0.718018,-0.10788,0.20224,63852,60577,62786,5567,-30414
3084,247109,4.09609,8.9291,-0.875684,93.4717,-25.6036,7.05872,-0.549316,-0.793457,-0.0610352,0.657074,0.718079,-0.107849,0.202209,63854,60581,62788,5567,-30414
3090,247115,4.11523,8.85254,-0.823047,93.4717,-25.6036,7.05872,-1.28174,-0.610352,0.244141,0.657074,0.718079,-0.107819,0.202209,63855,60563,62791,5567,-30414
3096,247121,4.13916,8.80469,-0.77998,93.4717,-25.5981,7.05872,-1.0376,-0.488281,0.244141,0.657074,0.718079,-0.107819,0.202209,63857,60547,62790,5567,-30414
3102,247127,4.11523,8.80469,-0.77041,93.4772,-25.5981,7.05872,-0.671387,-0.732422,0.183105,0.657074,0.718079,-0.107819,0.202209,63860,60533,62790,5567,-30414
3108,247133,4.12002,8.78555,-0.813477,93.4827,-25.5981,7.05872,-0.305176,-1.09863,0.183105,0.657043,0.718109,-0.107788,0.202209,63862,60520,62792,5567,-30414
3114,247139,4.15352,8.94346,-0.923535,93.4882,-25.5981,7.05872,-0.12207,-1.0376,0.12207,0.656982,0.718201,-0.107758,0.202179,63863,60500,62793,5567,-30414
3120,247145,4.18701,8.95781,-0.92832,93.4991,-25.5927,7.05872,-1.09863,-0.549316,0,0.656921,0.718231,-0.107727,0.202179,63863,60491,62796,5567,-30414
3126,247151,4.16787,8.90996,-0.861328,93.4937,-25.5872,7.06421,-1.64795,0.0610352,0,0.656921,0.718231,-0.107697,0.202179,63865,60483,62797,5567,-30414
3132,247157,4.1248,8.85254,-0.808691,93.4882,-25.5872,7.0752,-1.64795,0.427246,0.12207,0.656952,0.718231,-0.107666,0.202179,63867,60475,62798,5567,-30414
3138,247163,4.08174,8.82383,-0.75127,93.4882,-25.5872,7.08069,-1.46484,0.244141,0.183105,0.656952,0.718201,-0.107605,0.202209,63868,60469,62799,5567,-30414
3144,247169,4.09609,8.81426,-0.732129,93.4882,-25.5872,7.08618,-1.2207,-0.0610352,0.0610352,0.656952,0.718201,-0.107513,0.202271,63870,60460,62801,5567,-30414
3150,247175,4.1248,8.81426,-0.823047,93.4937,-25.5817,7.09167,-0.671387,-0.793457,0.305176,0.656921,0.718231,-0.107483,0.202271,63870,60455,62801,5567,-30414
3156,247181,4.16787,8.85732,-0.827832,93.4991,-25.5817,7.09717,-0.488281,-0.549316,0.183105,0.656921,0.718262,-0.107452,0.202301,63869,60451,62802,5567,-30414
3162,247187,4.15352,8.84775,-0.846973,93.4991,-25.5817,7.10266,-0.549316,-0.366211,0.610352,0.656891,0.718292,-0.107422,0.202301,63869,60446,62801,5567,-30414
3168,247193,4.13916,8.83818,-0.827832,93.5046,-25.5817,7.10266,-0.732422,-0.305176,0.183105,0.65686,0.718292,-0.107391,0.202332,63868,60442,62802,5567,-30414
3174,247199,4.13916,8.92432,-0.885254,93.5046,-25.5817,7.10815,-0.671387,-0.366211,0.244141,0.656799,0.718353,-0.10733,0.202362,63868,60512,62802,5567,-30414
3180,247205,4.11523,8.9291,-0.885254,93.5046,-25.5762,7.11365,-1.2207,0.183105,0.183105,0.656799,0.718353,-0.1073,0.202393,63869,60501,62802,5567,-30414
3186,247211,4.08652,8.88603,-0.799121,93.5046,-25.5762,7.11914,-1.58691,0,0.305176,0.656799,0.718353,-0.107269,0.202393,63870,60530,62802,5567,-30414
3192,247217,4.11045,8.85254,-0.765625,93.4991,-25.5762,7.12463,-1.58691,0.12207,0.244141,0.656799,0.718353,-0.107239,0.202423,63872,60555,62802,5567,-30414
3198,247223,4.11523,8.85254,-0.736914,93.4991,-25.5762,7.12463,-1.15967,-0.0610352,0.183105,0.65683,0.718323,-0.107208,0.202423,63873,60579,62802,5567,-30414
3204,247229,4.11045,8.83818,-0.813477,93.4991,-25.5707,7.11914,-1.0376,-0.244141,0.183105,0.65683,0.718323,-0.107208,0.202393,63782,60618,62802,5567,-30414
3210,247235,4.10088,8.85732,-0.837402,93.5046,-25.5707,7.10815,-0.732422,-0.488281,0.305176,0.65683,0.718353,-0.107239,0.202362,63742,60637,62803,5567,-30414
3216,247241,4.13916,8.86689,-0.832617,93.5046,-25.5707,7.09717,-0.915527,-0.244141,0.183105,0.65683,0.718353,-0.107269,0.202301,63706,60653,62802,5567,-30414
3222,247247,4.12002,8.87646,-0.813477,93.5046,-25.5707,7.08618,-0.915527,-0.244141,0.244141,0.65683,0.718353,-0.10733,0.20224,63673,60668,62801,5567,-30414
3228,247253,4.14873,8.89082,-0.823047,93.5101,-25.5652,7.08069,-0.854492,-0.0610352,0.183105,0.65686,0.718353,-0.107391,0.202209,63693,60682,62800,5567,-30414
3234,247259,4.11523,8.93389,-0.818262,93.5101,-25.5652,7.0752,-1.09863,0,0.183105,0.65686,0.718353,-0.107452,0.202118,63726,60666,62801,5567,-30414
3240,247265,4.11045,8.88125,-0.784766,93.5046,-25.5652,7.0697,-1.52588,0.183105,0.244141,0.656891,0.718323,-0.107483,0.202087,63738,60640,62801,5567,-30414
3246,247271,4.09609,8.81904,-0.794336,93.4991,-25.5652,7.0697,-1.40381,0.183105,0.244141,0.656921,0.718323,-0.107483,0.202057,63750,60617,62799,5567,-30414
3252,247277,4.07217,8.82383,-0.818262,93.4991,-25.5652,7.06421,-1.0376,0.12207,0.366211,0.656921,0.718292,-0.107483,0.202026,63760,60596,62797,5567,-30414
3258,247283,4.11045,8.86689,-0.813477,93.5046,-25.5652,7.06421,-0.854492,-0.305176,0.427246,0.656921,0.718292,-0.107513,0.202026,63770,60577,62795,5567,-30414
3264,247289,4.17744,8.92432,-0.880469,93.5046,-25.5652,7.06421,-1.09863,-0.305176,0.244141,0.656921,0.718323,-0.107513,0.201996,63791,60545,62794,5567,-30414
3270,247295,4.1918,8.91953,-0.856543,93.5046,-25.5597,7.06421,-1.34277,0.244141,0.366211,0.656921,0.718323,-0.107513,0.201996,63800,60531,62793,5567,-30414
3276,247301,4.09609,8.88603,-0.823047,93.4991,-25.5597,7.0697,-1.70898,0.488281,0.366211,0.656921,0.718292,-0.107483,0.201996,63805,60519,62791,5567,-30414
3282,247307,4.08174,8.8334,-0.775195,93.4937,-25.5597,7.0752,-1.58691,0.549316,0.427246,0.656952,0.718292,-0.107483,0.202026,63810,60509,62788,5567,-30414
3288,247313,4.08174,8.8334,-0.756055,93.4937,-25.5597,7.0752,-1.40381,0.12207,0.549316,0.656982,0.718262,-0.107452,0.202057,63814,60500,62786,5567,-30414
3294,247319,4.11045,8.82383,-0.803906,93.4937,-25.5597,7.08069,-1.2207,-0.0610352,0.366211,0.656982,0.718262,-0.107422,0.202087,63825,60486,62782,5567,-30414
3300,247325,4.11045,8.88125,-0.818262,93.4937,-25.5597,7.0752,-0.915527,-0.305176,0.549316,0.656982,0.718262,-0.107422,0.202087,63782,60479,62783,5567,-30414
3306,247331,4.15352,8.88125,-0.842188,93.4937,-25.5597,7.0697,-1.15967,-0.305176,0.488281,0.656952,0.718262,-0.107452,0.202057,63744,60472,62786,5567,-30414
3312,247337,4.15352,8.80469,-0.827832,93.4937,-25.5597,7.0697,-1.46484,0.0610352,0.366211,0.656952,0.718262,-0.107452,0.202057,63710,60465,62790,5567,-30414
3318,247343,4.12002,8.83818,-0.794336,93.4937,-25.5597,7.06421,-1.15967,-0.0610352,0.366211,0.656982,0.718262,-0.107483,0.202026,63678,60460,62791,5567,-30414
3324,247349,4.11045,8.84297,-0.818262,93.4937,-25.5597,7.06421,-1.0376,0,0.305176,0.656982,0.718262,-0.107513,0.201996,63717,60453,62793,5567,-30414
3330,247355,4.10088,8.88125,-0.813477,93.4937,-25.5597,7.06421,-1.28174,-0.12207,0.488281,0.656982,0.718262,-0.107513,0.201965,63731,60448,62793,5567,-30414
3336,247361,4.09131,8.83818,-0.77998,93.4937,-25.5597,7.06421,-1.34277,0.0610352,0.488281,0.657013,0.718262,-0.107513,0.201965,63744,60443,62794,5567,-30414
3342,247367,4.08652,8.80469,-0.756055,93.4882,-25.5597,7.06421,-1.28174,0.12207,0.488281,0.657013,0.718231,-0.107513,0.201996,63757,60438,62795,5567,-30414
3348,247373,4.07217,8.80947,-0.756055,93.4882,-25.5597,7.06421,-1.0376,-0.12207,0.366211,0.657013,0.718231,-0.107513,0.201996,63768,60435,62797,5567,-30414
3354,247379,4.08174,8.82861,-0.823047,93.4937,-25.5597,7.0697,-0.732422,-0.305176,0.366211,0.656982,0.718262,-0.107483,0.201996,63788,60429,62797,5567,-30414
3360,247385,4.12002,8.85732,-0.823047,93.4991,-25.5597,7.0697,-0.732422,-0.244141,0.610352,0.656982,0.718262,-0.107483,0.201996,63796,60428,62799,5567,-30414
3366,247391,4.14395,8.88125,-0.818262,93.4991,-25.5597,7.0697,-0.915527,-0.366211,0.610352,0.656952,0.718292,-0.107483,0.202026,63802,60427,62799,5567,-30414
3372,247397,4.14873,8.85254,-0.842188,93.4991,-25.5597,7.0752,-1.09863,-0.183105,0.427246,0.656952,0.718292,-0.107452,0.202026,63808,60427,62801,5567,-30414
3378,247403,4.12959,8.82861,-0.813477,93.4991,-25.5597,7.0752,-0.793457,-0.183105,0.427246,0.656952,0.718292,-0.107452,0.202057,63815,60426,62801,5567,-30414
3384,247409,4.11523,8.86689,-0.803906,93.5046,-25.5597,7.08069,-0.610352,-0.244141,0.427246,0.656921,0.718323,-0.107391,0.202087,63826,60428,62797,5567,-30414
3390,247415,4.10088,8.87168,-0.803906,93.5046,-25.5597,7.08618,-0.915527,-0.305176,0.427246,0.656891,0.718323,-0.107391,0.202087,63830,60426,62793,5567,-30414
3396,247421,4.10088,8.82861,-0.799121,93.5101,-25.5597,7.08618,-0.549316,-0.305176,0.366211,0.656891,0.718353,-0.107361,0.202118,63834,60426,62791,5567,-30414
3402,247427,4.10566,8.84297,-0.827832,93.5156,-25.5597,7.09167,-0.366211,-0.549316,0.427246,0.65686,0.718353,-0.10733,0.202148,63837,60426,62791,5567,-30414
3408,247433,4.11045,8.89082,-0.832617,93.5156,-25.5597,7.09167,-0.488281,-0.427246,0.305176,0.65683,0.718384,-0.1073,0.202148,63840,60426,62790,5567,-30414
3414,247439,4.09609,8.87168,-0.818262,93.5211,-25.5597,7.09167,-0.610352,-0.549316,0.305176,0.656769,0.718445,-0.107269,0.202179,63844,60428,62791,5567,-30414
3420,247445,4.09609,8.81426,-0.832617,93.5266,-25.5597,7.09717,-0.854492,-0.244141,0.610352,0.656769,0.718445,-0.107239,0.202179,63847,60425,62791,5567,-30414
3426,247451,4.08174,8.81426,-0.789551,93.5266,-25.5597,7.10266,-0.671387,-0.305176,0.427246,0.656738,0.718475,-0.107208,0.202209,63849,60464,62792,5567,-30414
3432,247457,4.07695,8.81426,-0.775195,93.5321,-25.5597,7.09717,-0.366211,-0.732422,0.610352,0.656708,0.718475,-0.107208,0.202209,63853,60498,62794,5567,-30414
3438,247463,4.07695,8.8334,-0.803906,93.5376,-25.5597,7.09167,-0.0610352,-0.793457,0.610352,0.656708,0.718506,-0.107208,0.202209,63806,60529,62795,5567,-30414
3444,247469,4.1248,8.86689,-0.799121,93.5431,-25.5597,7.09167,-0.0610352,-0.854492,0.549316,0.656616,0.718567,-0.107239,0.202179,63820,60542,62798,5567,-30414
3450,247475,4.10566,8.85254,-0.818262,93.5596,-25.5597,7.08618,-0.0610352,-0.732422,0.610352,0.656586,0.718628,-0.107239,0.202179,63825,60529,62798,5567,-30414
3456,247481,4.12959,8.82861,-0.837402,93.5651,-25.5597,7.08618,-0.0610352,-0.488281,0.549316,0.656555,0.718658,-0.107239,0.202179,63829,60516,62798,5567,-30414
3462,247487,4.11523,8.85254,-0.827832,93.5706,-25.5597,7.08618,0,-0.488281,0.610352,0.656494,0.718689,-0.107239,0.202179,63835,60505,62797,5567,-30414
3468,247493,4.11523,8.90039,-0.846973,93.576,-25.5597,7.08618,-0.0610352,-0.732422,0.549316,0.656464,0.718719,-0.107239,0.202209,63839,60495,62798,5567,-30414
3474,247499,4.1248,8.89561,-0.813477,93.5815,-25.5597,7.08618,-0.305176,-0.549316,0.671387,0.656372,0.718781,-0.107208,0.202209,63844,60476,62800,5567,-30414
3480,247505,4.14873,8.8334,-0.813477,93.5925,-25.5652,7.09167,-0.427246,-0.427246,0.793457,0.656372,0.718811,-0.107208,0.20224,63845,60471,62802,5567,-30414
3486,247511,4.11523,8.80469,-0.823047,93.5925,-25.5652,7.09167,-0.427246,-0.305176,0.610352,0.656342,0.718842,-0.107208,0.202271,63846,60466,62803,5567,-30414
3492,247517,4.12959,8.7999,-0.813477,93.598,-25.5652,7.09167,-0.12207,-0.488281,0.305176,0.656311,0.718842,-0.107178,0.202301,63849,60461,62802,5567,-30414
3498,247523,4.10566,8.83818,-0.813477,93.609,-25.5652,7.08618,0.12207,-1.0376,0.305176,0.656281,0.718872,-0.107178,0.202301,63802,60457,62800,5567,-30414
3504,247529,4.10566,8.86689,-0.803906,93.6145,-25.5652,7.08618,-0.183105,-0.915527,0.427246,0.656189,0.718964,-0.107178,0.20224,63773,60448,62798,5567,-30414
3510,247535,4.08652,8.85732,-0.765625,93.6255,-25.5597,7.08069,-0.305176,-0.793457,0.305176,0.656158,0.718994,-0.107178,0.20224,63782,60443,62796,5567,-30414
3516,247541,4.09131,8.7999,-0.789551,93.631,-25.5597,7.08069,-0.244141,-0.671387,0.305176,0.656128,0.719025,-0.107178,0.202209,63790,60439,62796,5567,-30414
3522,247547,4.06738,8.78076,-0.77041,93.6365,-25.5597,7.0752,0.244141,-0.793457,0.305176,0.656097,0.719055,-0.107178,0.202209,63798,60436,62797,5567,-30414
3528,247553,4.08652,8.81904,-0.813477,93.6475,-25.5597,7.0752,0.549316,-1.2207,0.488281,0.656067,0.719086,-0.107178,0.202209,63806,60435,62799,5567,-30414
3534,247559,4.13916,8.87646,-0.942676,93.6584,-25.5597,7.0697,0.732422,-1.34277,0.610352,0.655945,0.719208,-0.107178,0.202179,63821,60436,62798,5567,-30414
3540,247565,4.15352,8.92432,-0.91875,93.6804,-25.5597,7.06421,0.183105,-1.2207,0.549316,0.655853,0.719299,-0.107178,0.202148,63825,60438,62800,5567,-30414
3546,247571,4.15352,8.87646,-0.890039,93.6859,-25.5597,7.06421,-0.305176,-0.732422,0.244141,0.655823,0.71933,-0.107178,0.202148,63830,60438,62802,5567,-30414
3552,247577,4.13438,8.81426,-0.875684,93.6914,-25.5597,7.06421,-0.671387,-0.305176,0.610352,0.655792,0.71936,-0.107147,0.202148,63833,60437,62800,5567,-30414
3558,247583,4.11045,8.79033,-0.846973,93.6914,-25.5597,7.06421,-0.488281,-0.366211,0.549316,0.655762,0.719391,-0.107117,0.202179,63838,60433,62805,5567,-30414
3564,247589,4.10566,8.82861,-0.856543,93.6969,-25.5597,7.06421,-0.183105,-0.427246,0.427246,0.655701,0.719421,-0.107147,0.202148,63753,60503,62811,5567,-30414
3570,247595,4.09609,8.83818,-0.890039,93.7134,-25.5542,7.04773,-0.244141,-0.854492,0.305176,0.65567,0.719452,-0.107178,0.202118,63716,60534,62813,5567,-30414
3576,247601,4.12002,8.80947,-0.890039,93.7189,-25.5542,7.03674,-0.427246,-0.732422,0.488281,0.65567,0.719482,-0.107208,0.202057,63682,60522,62813,5567,-30414
3582,247607,4.11045,8.80947,-0.861328,93.7189,-25.5542,7.03125,-0.793457,-0.488281,0.12207,0.65564,0.719513,-0.107269,0.202026,63702,60512,62812,5567,-30414
3588,247613,4.12959,8.78555,-0.861328,93.7244,-25.5542,7.02026,-0.610352,-0.549316,0.488281,0.65564,0.719513,-0.1073,0.201965,63670,60506,62811,5567,-30414
3594,247619,4.09609,8.84775,-0.875684,93.7244,-25.5542,7.00928,-0.671387,-0.366211,0.12207,0.65564,0.719543,-0.107391,0.201874,63618,60493,62812,5567,-30414
3600,247625,4.09609,8.80947,-0.846973,93.7244,-25.5542,6.9928,-1.15967,-0.0610352,0.305176,0.65564,0.719543,-0.107452,0.201813,63596,60486,62810,5567,-30414
3606,247631,4.08174,8.77119,-0.808691,93.7244,-25.5542,6.98181,-1.34277,-0.183105,0.488281,0.65567,0.719543,-0.107483,0.201752,63575,60480,62811,5567,-30414
3612,247637,4.07695,8.7377,-0.746484,93.7244,-25.5542,6.97632,-1.15967,0,0.366211,0.655701,0.719513,-0.107574,0.201691,63555,60475,62812,5567,-30414
3618,247643,4.06738,8.71377,-0.717773,93.7244,-25.5542,6.96533,-0.976563,-0.183105,0.305176,0.655701,0.719513,-0.107605,0.20163,63588,60472,62812,5567,-30414
3624,247649,4.02432,8.71855,-0.775195,93.7299,-25.5487,6.95984,-0.549316,-0.427246,0.366211,0.655701,0.719513,-0.107697,0.201569,63642,60463,62814,5567,-30414
3630,247655,4.07217,8.74248,-0.880469,93.7408,-25.5487,6.94336,-0.0610352,-0.976563,0.366211,0.655701,0.719543,-0.107727,0.201508,63664,60458,62815,5567,-30414
3636,247661,4.05781,8.75684,-0.90918,93.7518,-25.5487,6.93787,0,-1.15967,0.305176,0.65567,0.719574,-0.107758,0.201477,63686,60453,62815,5567,-30414
3642,247667,4.05303,8.75684,-0.913965,93.7573,-25.5487,6.92688,-0.183105,-0.915527,0.366211,0.65564,0.719604,-0.107788,0.201416,63704,60447,62815,5567,-30414
3648,247673,4.05781,8.77598,-0.890039,93.7573,-25.5487,6.92688,-0.427246,-0.610352,0.366211,0.655609,0.719635,-0.107819,0.201385,63721,60442,62815,5567,-30414
3654,247679,4.09131,8.71855,-0.799121,93.7628,-25.5487,6.92139,-0.610352,-0.549316,0.549316,0.655579,0.719696,-0.107849,0.201355,63750,60436,62818,5567,-30414
3660,247685,4.09609,8.69941,-0.789551,93.7683,-25.5487,6.92139,-0.671387,-0.427246,0.549316,0.655548,0.719696,-0.107849,0.201355,63762,60434,62821,5567,-30414
3666,247691,4.09131,8.65635,-0.808691,93.7683,-25.5487,6.92139,-0.915527,-0.305176,0.488281,0.655518,0.719727,-0.107849,0.201355,63774,60433,62822,5567,-30414
3672,247697,4.08652,8.61328,-0.756055,93.7738,-25.5487,6.92688,-0.610352,-0.183105,0.488281,0.655518,0.719727,-0.107819,0.201355,63785,60431,62823,5567,-30414
3678,247703,4.04824,8.66592,-0.823047,93.7738,-25.5487,6.92688,-0.366211,-0.12207,0.305176,0.655487,0.719727,-0.107819,0.201385,63794,60429,62822,5567,-30414
3684,247709,3.97168,8.7377,-0.890039,93.7793,-25.5487,6.93237,-0.549316,-0.305176,0.488281,0.655457,0.719788,-0.107758,0.201416,63811,60427,62814,5567,-30414
3690,247715,3.99082,8.71855,-0.904395,93.7848,-25.5487,6.93787,-0.488281,-0.305176,0.549316,0.655426,0.719788,-0.107727,0.201447,63819,60426,62810,5567,-30414
3696,247721,3.98604,8.67549,-0.875684,93.7903,-25.5487,6.93787,-0.549316,-0.427246,0.366211,0.655396,0.719818,-0.107727,0.201447,63825,60427,62806,5567,-30414
3702,247727,4.00996,8.67549,-0.875684,93.7903,-25.5487,6.93787,-0.549316,-0.549316,0.488281,0.655396,0.719849,-0.107697,0.201477,63831,60428,62803,5567,-30414
3708,247733,4.01953,8.69941,-0.846973,93.8013,-25.5487,6.94336,-0.12207,-0.488281,0.610352,0.655365,0.719879,-0.107666,0.201477,63836,60429,62799,5567,-30414
3714,247739,4.05781,8.7377,-0.842188,93.8013,-25.5487,6.94336,-0.183105,-0.366211,0.610352,0.655273,0.71994,-0.107666,0.201508,63794,60430,62796,5567,-30414
3720,247745,4.07217,8.7377,-0.813477,93.8068,-25.5487,6.94336,-0.671387,-0.244141,0.610352,0.655273,0.71994,-0.107635,0.201508,63803,60429,62795,5567,-30414
3726,247751,4.0626,8.7377,-0.765625,93.8123,-25.5487,6.94885,-0.732422,-0.0610352,0.549316,0.655243,0.719971,-0.107635,0.201538,63811,60426,62795,5567,-30414
3732,247757,4.0291,8.66592,-0.789551,93.8123,-25.5487,6.94885,-0.671387,0,0.610352,0.655212,0.719971,-0.107635,0.201538,63769,60423,62798,5567,-30414
3738,247763,3.99561,8.64678,-0.832617,93.8177,-25.5487,6.94336,-0.366211,0.0610352,0.366211,0.655212,0.719971,-0.107635,0.201569,63730,60422,62801,5567,-30414
3744,247769,4.00039,8.66592,-0.899609,93.8232,-25.5487,6.93787,-0.0610352,-0.427246,0.549316,0.655182,0.720032,-0.107666,0.201508,63663,60418,62810,5567,-30414
3750,247775,4.03389,8.70898,-0.890039,93.8342,-25.5542,6.92688,-0.0610352,-0.854492,0.793457,0.655121,0.720062,-0.107697,0.201508,63685,60418,62815,5567,-30414
3756,247781,4.08174,8.68027,-0.880469,93.8397,-25.5542,6.92139,-0.305176,-0.915527,0.671387,0.65509,0.720093,-0.107727,0.201477,63704,60417,62819,5567,-30414
3762,247787,4.06738,8.68984,-0.842188,93.8452,-25.5542,6.91589,-0.610352,-0.366211,0.671387,0.65506,0.720123,-0.107758,0.201447,63723,60416,62823,5567,-30414
3768,247793,4.0626,8.66113,-0.818262,93.8507,-25.5542,6.91589,-0.427246,-0.183105,0.671387,0.65506,0.720123,-0.107788,0.201447,63739,60416,62826,5567,-30414
3774,247799,3.98604,8.60371,-0.832617,93.8507,-25.5542,6.91589,-0.366211,-0.183105,0.610352,0.654999,0.720184,-0.107758,0.201477,63766,60416,62826,5567,-30414
3780,247805,3.99082,8.62764,-0.861328,93.8617,-25.5597,6.92139,-0.0610352,-0.549316,0.488281,0.654968,0.720184,-0.107758,0.201477,63776,60416,62826,5567,-30414
3786,247811,4.04346,8.64199,-0.937891,93.8727,-25.5597,6.91589,0.183105,-0.854492,0.732422,0.654938,0.720245,-0.107758,0.201477,63786,60416,62826,5567,-30414
3792,247817,4.07217,8.72813,-1.0001,93.8782,-25.5597,6.9104,0,-0.854492,0.549316,0.654877,0.720276,-0.107758,0.201477,63746,60415,62720,5567,-30414
3798,247823,4.09609,8.74727,-1.00488,93.8782,-25.5597,6.90491,-0.549316,-0.183105,0.549316,0.654846,0.720306,-0.107788,0.201447,63711,60415,62720,5567,-30414
3804,247829,4.06738,8.65156,-0.913965,93.8782,-25.5597,6.90491,-1.15967,0.427246,0.549316,0.654846,0.720306,-0.107819,0.201447,63654,60412,62823,5567,-30414
3810,247835,4.01475,8.60371,-0.823047,93.8672,-25.5597,6.90491,-1.77002,0.976563,0.427246,0.654877,0.720276,-0.107849,0.201447,63629,60414,62827,5567,-30414
3816,247841,3.97168,8.58936,-0.818262,93.8672,-25.5597,6.89941,-1.28174,0.488281,0.366211,0.654907,0.720245,-0.107849,0.201416,63607,60413,62829,5567,-30414
3822,247847,4.00518,8.58457,-0.799121,93.8672,-25.5597,6.89392,-1.28174,0.366211,0.427246,0.654938,0.720245,-0.10788,0.201416,63587,60414,62829,5567,-30414
3828,247853,4.00518,8.6085,-0.813477,93.8672,-25.5597,6.88293,-1.0376,0,0.610352,0.654968,0.720215,-0.107941,0.201385,63568,60415,62831,5567,-30414
3834,247859,4.01953,8.58457,-0.827832,93.8617,-25.5652,6.87744,-1.15967,0.427246,0.488281,0.654999,0.720184,-0.108032,0.201294,63533,60415,62828,5567,-30414
3840,247865,3.99561,8.53193,-0.823047,93.8562,-25.5652,6.86646,-1.52588,0.732422,0.488281,0.655029,0.720154,-0.108093,0.201263,63518,60415,62827,5567,-30414
3846,247871,3.96689,8.5415,-0.818262,93.8562,-25.5652,6.85547,-1.09863,0.488281,0.488281,0.65506,0.720123,-0.108154,0.201202,63505,60416,62827,5567,-30414
3852,247877,3.99561,8.55586,-0.875684,93.8562,-25.5652,6.84998,-0.915527,0.244141,0.610352,0.65509,0.720123,-0.108185,0.201172,63543,60418,62828,5567,-30414
3858,247883,4.00518,8.58457,-0.861328,93.8507,-25.5652,6.84448,-1.2207,0.366211,0.610352,0.65509,0.720123,-0.108246,0.201141,63526,60420,62829,5567,-30414
3864,247889,4.03867,8.58457,-0.861328,93.8507,-25.5707,6.83899,-1.0376,0.183105,0.488281,0.655121,0.720093,-0.108337,0.20108,63594,60421,62720,5567,-30414
3870,247895,4.0291,8.61328,-0.837402,93.8452,-25.5707,6.828,-1.58691,0.671387,0.488281,0.655151,0.720062,-0.108368,0.20108,63573,60421,62820,5567,-30414
3876,247901,4.00039,8.58457,-0.789551,93.8397,-25.5707,6.828,-1.70898,0.854492,0.488281,0.655182,0.720032,-0.108398,0.20105,63554,60421,62816,5567,-30414
3882,247907,3.96211,8.55586,-0.756055,93.8342,-25.5707,6.82251,-1.70898,0.793457,0.549316,0.655212,0.720001,-0.108459,0.201019,63537,60421,62815,5567,-30414
3888,247913,3.94297,8.5415,-0.77998,93.8342,-25.5707,6.81152,-1.52588,0.732422,0.488281,0.655243,0.719971,-0.10849,0.200989,63521,60423,62814,5567,-30414
3894,247919,3.95732,8.55586,-0.789551,93.8287,-25.5707,6.80603,-1.28174,0.488281,0.488281,0.655304,0.71991,-0.108612,0.200897,63494,60425,62810,5567,-30414
3900,247925,3.96689,8.52236,-0.775195,93.8287,-25.5762,6.78406,-1.0376,0.244141,0.610352,0.655334,0.71991,-0.108704,0.200836,63484,60425,62809,5567,-30414
3906,247931,3.95254,8.5415,-0.789551,93.8287,-25.5762,6.77307,-0.854492,0.12207,0.610352,0.655365,0.71991,-0.108765,0.200806,63474,60425,62809,5567,-30414
3912,247937,3.97646,8.57022,-0.77998,93.8287,-25.5762,6.76208,-0.854492,0.183105,0.488281,0.655365,0.719879,-0.108856,0.200745,63467,60423,62813,5567,-30414
3918,247943,4.01953,8.5415,-0.813477,93.8287,-25.5762,6.74561,-0.854492,-0.0610352,0.732422,0.655396,0.719879,-0.108917,0.200684,63461,60423,62816,5567,-30414
3924,247949,4.04346,8.575,-0.837402,93.8342,-25.5817,6.73462,-0.732422,0.12207,0.671387,0.655396,0.719849,-0.1091,0.200531,63447,60420,62820,5567,-30414
3930,247955,3.98604,8.5415,-0.875684,93.8287,-25.5872,6.71814,-1.0376,0.488281,0.854492,0.655426,0.719849,-0.109161,0.2005,63491,60419,62819,5567,-30414
3936,247961,4.00039,8.55586,-0.890039,93.8287,-25.5872,6.71814,-1.40381,0.610352,0.671387,0.655426,0.719849,-0.109222,0.2005,63530,60417,62819,5567,-30414
3942,247967,3.98604,8.55586,-0.880469,93.8232,-25.5872,6.71265,-1.34277,0.488281,0.793457,0.655457,0.719818,-0.109253,0.20047,63565,60416,62819,5567,-30414
3948,247973,4.03867,8.5415,-0.890039,93.8232,-25.5927,6.71265,-1.34277,0.366211,0.610352,0.655487,0.719788,-0.109283,0.20047,63597,60416,62816,5567,-30414
3954,247979,4.07217,8.64199,-0.942676,93.8232,-25.5927,6.70715,-1.0376,0.183105,0.427246,0.655487,0.719788,-0.109344,0.200439,63651,60424,62812,5567,-30414
3960,247985,4.03389,8.67549,-0.899609,93.8177,-25.5927,6.70715,-1.83105,0.732422,0.488281,0.655518,0.719757,-0.109344,0.200439,63625,60429,62812,5567,-30414
3966,247991,4.00518,8.63242,-0.813477,93.8068,-25.5927,6.70715,-2.31934,1.2207,0.488281,0.655548,0.719727,-0.109375,0.200439,63601,60431,62812,5567,-30414
3972,247997,3.97646,8.55107,-0.75127,93.7958,-25.5927,6.70715,-2.38037,1.46484,0.488281,0.655609,0.719696,-0.109406,0.200439,63581,60432,62813,5567,-30414
3978,248003,3.91904,8.48408,-0.679492,93.7903,-25.5927,6.70166,-1.89209,1.0376,0.488281,0.65564,0.719635,-0.109406,0.200439,63565,60431,62814,5567,-30414
3984,248009,3.90469,8.52715,-0.75127,93.7903,-25.5927,6.69617,-0.976563,0.366211,0.488281,0.655701,0.719574,-0.109497,0.200378,63536,60426,62810,5567,-30414
3990,248015,3.91904,8.55586,-0.818262,93.8013,-25.5927,6.67419,-0.305176,-0.549316,0.610352,0.655701,0.719574,-0.109558,0.200317,63521,60425,62808,5576,-30415
3996,248021,3.96689,8.56065,-0.870898,93.8013,-25.5981,6.65771,-0.549316,-0.671387,0.610352,0.655701,0.719604,-0.109619,0.200256,63507,60423,62807,5576,-30415
4002,248027,4.00518,8.56543,-0.866113,93.8068,-25.5981,6.64673,-0.671387,-0.427246,0.549316,0.655701,0.719604,-0.109711,0.200195,63495,60423,62807,5576,-30415
4008,248033,3.99561,8.575,-0.856543,93.8068,-25.5981,6.63025,-0.732422,-0.305176,0.549316,0.655701,0.719604,-0.109802,0.200104,63484,60423,62806,5576,-30415
4014,248039,3.96211,8.58457,-0.803906,93.8123,-25.5981,6.61926,-0.732422,-0.305176,0.671387,0.655701,0.719604,-0.109985,0.199982,63467,60427,62800,5576,-30415
4020,248045,3.99561,8.57022,-0.842188,93.8177,-25.5981,6.5863,-0.549316,-0.366211,0.671387,0.655701,0.719635,-0.110077,0.19989,63459,60430,62799,5576,-30415
4026,248051,4.00039,8.575,-0.856543,93.8232,-25.6036,6.56982,-0.488281,-0.488281,0.610352,0.655731,0.719635,-0.110168,0.199829,63454,60433,62800,5576,-30415
4032,248057,3.99561,8.59414,-0.846973,93.8232,-25.5981,6.55884,-0.732422,-0.305176,0.366211,0.655731,0.719635,-0.11026,0.199738,63450,60435,62801,5576,-30415
4038,248063,4.03389,8.52236,-0.832617,93.8287,-25.6036,6.54236,-0.732422,-0.244141,0.671387,0.655731,0.719635,-0.110352,0.199646,63446,60438,62803,5576,-30415
4044,248069,3.99561,8.53672,-0.823047,93.8287,-25.6036,6.52588,-0.549316,-0.12207,0.610352,0.655731,0.719635,-0.110535,0.199493,63441,60442,62800,5576,-30415
4050,248075,4.00518,8.53672,-0.866113,93.8342,-25.6036,6.49841,-0.610352,-0.0610352,0.305176,0.655762,0.719635,-0.110626,0.199432,63436,60445,62799,5576,-30415
4056,248081,3.98604,8.53672,-0.875684,93.8397,-25.6036,6.48743,-0.793457,0,0.427246,0.655762,0.719635,-0.110687,0.199341,63433,60447,62797,5576,-30415
4062,248087,3.99561,8.5415,-0.827832,93.8397,-25.6036,6.47095,-0.915527,-0.12207,0.427246,0.655762,0.719635,-0.110779,0.19928,63429,60446,62793,5576,-30415
4068,248093,4.00039,8.46973,-0.808691,93.8397,-25.6036,6.45447,-0.915527,-0.183105,0.549316,0.655792,0.719635,-0.11087,0.199188,63426,60445,62791,5576,-30415
4074,248099,4.00518,8.46973,-0.818262,93.8397,-25.6036,6.44348,-0.793457,-0.183105,0.549316,0.655823,0.719604,-0.111053,0.199036,63417,60443,62786,5576,-30415
4080,248105,4.01953,8.50801,-0.890039,93.8452,-25.6036,6.41602,-0.549316,-0.305176,0.366211,0.655823,0.719604,-0.111145,0.198944,63464,60445,62785,5576,-30415
4086,248111,3.99082,8.53193,-0.885254,93.8507,-25.6036,6.40503,-0.793457,-0.244141,0.366211,0.655823,0.719604,-0.111206,0.198883,63506,60448,62786,5576,-30415
4092,248117,3.98604,8.48887,-0.866113,93.8507,-25.6036,6.39404,-1.15967,0.0610352,0.366211,0.655853,0.719604,-0.111267,0.198822,63494,60453,62786,5576,-30415
4098,248123,3.98604,8.51279,-0.846973,93.8452,-25.6036,6.38306,-1.28174,0.305176,0.366211,0.655853,0.719604,-0.111328,0.198761,63484,60456,62788,5576,-30415
4104,248129,3.98125,8.51758,-0.832617,93.8452,-25.6036,6.37207,-1.09863,0.183105,0.366211,0.655914,0.719574,-0.111481,0.198639,63466,60456,62789,5567,-30414
4110,248135,3.95254,8.50801,-0.813477,93.8452,-25.6036,6.3501,-1.34277,0.183105,0.244141,0.655945,0.719543,-0.111542,0.198578,63459,60453,62789,5567,-30414
4116,248141,3.93818,8.50322,-0.808691,93.8397,-25.6036,6.33911,-1.58691,0.366211,0.244141,0.655975,0.719543,-0.111603,0.198517,63452,60451,62789,5567,-30414
4122,248147,3.90469,8.46973,-0.775195,93.8342,-25.6036,6.32813,-1.70898,0.305176,0.305176,0.656006,0.719513,-0.111694,0.198456,63446,60450,62790,5567,-30414
4128,248153,3.90469,8.43145,-0.756055,93.8342,-25.6036,6.31714,-1.40381,0.183105,0.305176,0.656067,0.719482,-0.111755,0.198364,63440,60451,62793,5567,-30414
4134,248159,3.92383,8.43145,-0.76084,93.8342,-25.6036,6.30615,-0.854492,-0.183105,0.366211,0.656097,0.719452,-0.111908,0.198212,63432,60452,62795,5567,-30414
4140,248165,3.93818,8.51758,-0.880469,93.8397,-25.6036,6.27319,-0.549316,-0.305176,0.427246,0.656097,0.719452,-0.112,0.198151,63430,60452,62796,5567,-30414
4146,248171,3.94775,8.55586,-0.856543,93.8452,-25.6036,6.25671,-0.976563,-0.305176,0.610352,0.656097,0.719452,-0.112091,0.198059,63428,60451,62796,5567,-30414
4152,248177,3.98604,8.51758,-0.837402,93.8397,-25.6036,6.24573,-1.52588,0.183105,0.610352,0.656128,0.719452,-0.112213,0.197968,63424,60452,62795,5567,-30414
4158,248183,3.95254,8.47451,-0.784766,93.8397,-25.6036,6.23474,-1.40381,0.305176,0.610352,0.656158,0.719421,-0.112305,0.197906,63423,60451,62797,5567,-30414
4164,248189,3.94297,8.42666,-0.775195,93.8342,-25.6091,6.22375,-1.34277,0.488281,0.610352,0.656219,0.71936,-0.112457,0.197784,63422,60450,62792,5567,-30414
4170,248195,3.92861,8.46973,-0.827832,93.8397,-25.6091,6.19629,-0.732422,0.0610352,0.488281,0.65625,0.71936,-0.112549,0.197723,63423,60450,62791,5567,-30414
4176,248201,3.94775,8.49365,-0.827832,93.8397,-25.6091,6.1853,-1.09863,0.0610352,0.549316,0.65625,0.71936,-0.11261,0.197662,63425,60450,62790,5567,-30414
4182,248207,3.97646,8.47451,-0.837402,93.8342,-25.6091,6.17432,-1.2207,0.244141,0.610352,0.656281,0.71933,-0.112701,0.197571,63425,60450,62789,5567,-30414
4188,248213,3.94297,8.49365,-0.784766,93.8342,-25.6091,6.16333,-1.40381,0.427246,0.610352,0.656311,0.719299,-0.112793,0.19751,63425,60450,62788,5567,-30414
4194,248219,3.95732,8.42188,-0.784766,93.8342,-25.6146,6.15234,-1.2207,0.366211,0.610352,0.656372,0.719269,-0.112946,0.197418,63424,60452,62783,5567,-30414
4200,248225,3.92861,8.51758,-0.784766,93.8342,-25.6146,6.12488,-0.488281,0.0610352,0.610352,0.656372,0.719269,-0.113037,0.197357,63423,60453,62780,5567,-30414
4206,248231,3.92861,8.50801,-0.803906,93.8342,-25.6146,6.11389,-0.915527,0.0610352,0.793457,0.656403,0.719269,-0.113129,0.197266,63421,60456,62776,5567,-30414
4212,248237,3.96211,8.43623,-0.808691,93.8342,-25.6201,6.09741,-0.915527,-0.0610352,0.671387,0.656403,0.719238,-0.11322,0.197205,63419,60460,62774,5567,-30414
4218,248243,3.99082,8.43145,-0.827832,93.8397,-25.6201,6.08643,-0.732422,0.0610352,0.732422,0.656433,0.719238,-0.113312,0.197144,63417,60462,62773,5567,-30414
4224,248249,3.96689,8.47451,-0.832617,93.8397,-25.6201,6.06995,-0.671387,0.183105,0.671387,0.656433,0.719208,-0.113495,0.197021,63415,60467,62780,5567,-30414
4230,248255,3.96211,8.46016,-0.91875,93.8397,-25.6256,6.04797,-1.0376,0.366211,0.671387,0.656464,0.719208,-0.113586,0.19696,63417,60470,62783,5567,-30414
4236,248261,3.95732,8.50801,-0.913965,93.8397,-25.6256,6.03699,-1.15967,0.366211,0.671387,0.656494,0.719177,-0.113647,0.196899,63416,60473,62788,5567,-30414
4242,248267,3.97168,8.50801,-0.923535,93.8342,-25.6311,6.026,-1.58691,0.488281,0.732422,0.656525,0.719177,-0.113739,0.196838,63416,60475,62787,5567,-30414
4248,248273,4.00518,8.48408,-0.885254,93.8287,-25.6311,6.01501,-1.89209,0.793457,0.610352,0.656555,0.719116,-0.113831,0.196777,63415,60477,62784,5567,-30414
4254,248279,3.98604,8.46973,-0.856543,93.8232,-25.6311,6.00952,-1.89209,0.915527,0.610352,0.656647,0.719055,-0.113983,0.196686,63415,60479,62779,5567,-30414
4260,248285,3.90469,8.43145,-0.77998,93.8123,-25.6366,5.99304,-1.64795,1.0376,0.793457,0.656708,0.718994,-0.114044,0.196655,63415,60481,62778,5567,-30414
4266,248291,3.9334,8.43145,-0.77998,93.8068,-25.6366,5.98206,-1.40381,0.610352,0.671387,0.656738,0.718964,-0.114136,0.196625,63415,60482,62777,5567,-30414
4272,248297,3.9334,8.40752,-0.789551,93.8068,-25.6366,5.97107,-1.2207,0.488281,0.549316,0.656769,0.718933,-0.114197,0.196564,63416,60481,62777,5567,-30414
4278,248303,3.92861,8.45537,-0.866113,93.8068,-25.6366,5.96008,-1.0376,0.305176,0.671387,0.656799,0.718903,-0.114288,0.196503,63416,60479,62773,5567,-30414
4284,248309,3.95732,8.4793,-0.861328,93.8013,-25.6421,5.9491,-1.2207,0.488281,0.854492,0.65686,0.718872,-0.114441,0.196381,63417,60475,62765,5567,-30414
4290,248315,3.97168,8.4793,-0.813477,93.7958,-25.6421,5.92712,-1.70898,0.732422,0.610352,0.656891,0.718842,-0.114532,0.19635,63418,60474,62764,5567,-30414
4296,248321,3.94297,8.43145,-0.794336,93.7903,-25.6476,5.91614,-1.64795,0.732422,0.732422,0.656921,0.718811,-0.114594,0.196289,63418,60474,62765,5567,-30414
4302,248327,3.98125,8.42188,-0.818262,93.7903,-25.6476,5.91064,-1.58691,0.854492,0.671387,0.656952,0.71875,-0.114685,0.196228,63418,60474,62766,5567,-30414
4308,248333,3.9334,8.42188,-0.813477,93.7848,-25.6531,5.89966,-1.52588,0.610352,0.793457,0.657013,0.718719,-0.114746,0.196198,63417,60474,62767,5567,-30414
4314,248339,3.92383,8.4458,-0.77041,93.7793,-25.6531,5.88867,-1.58691,0.610352,0.610352,0.657074,0.718658,-0.114899,0.196106,63418,60474,62761,5567,-30414
4320,248345,3.91426,8.36445,-0.703418,93.7738,-25.6531,5.87219,-1.40381,0.488281,0.671387,0.657104,0.718628,-0.11499,0.196045,63418,60475,62759,5567,-30414
4326,248351,3.91426,8.35488,-0.674707,93.7738,-25.6586,5.86121,-0.976563,0.427246,0.915527,0.657135,0.718597,-0.115082,0.195984,63418,60474,62758,5567,-30414
4332,248357,3.92383,8.36445,-0.689063,93.7793,-25.6586,5.84473,-0.366211,-0.0610352,0.549316,0.657166,0.718597,-0.115143,0.195953,63418,60475,62757,5567,-30414
4338,248363,3.91904,8.39795,-0.76084,93.7848,-25.6586,5.82825,0.0610352,-0.427246,0.610352,0.657166,0.718597,-0.115234,0.195892,63416,60477,62756,5567,-30414
4344,248369,3.92383,8.44102,-0.818262,93.7903,-25.6586,5.81726,-0.183105,-0.305176,0.671387,0.657135,0.718628,-0.115417,0.19574,63416,60481,62751,5567,-30414
4350,248375,3.92383,8.4123,-0.784766,93.7958,-25.6641,5.78979,-0.549316,-0.183105,0.732422,0.657135,0.718628,-0.115509,0.195679,63415,60483,62748,5567,-30414
4356,248381,3.91426,8.37402,-0.75127,93.7958,-25.6641,5.77332,-0.549316,-0.183105,0.732422,0.657135,0.718628,-0.115601,0.195587,63416,60484,62746,5567,-30414
4362,248387,3.91426,8.38838,-0.77041,93.8013,-25.6696,5.75684,-0.0610352,-0.244141,0.854492,0.657135,0.718628,-0.115692,0.195526,63418,60485,62744,5567,-30414
4368,248393,3.8999,8.39795,-0.77041,93.8068,-25.6696,5.74585,0,-0.244141,0.793457,0.657135,0.718658,-0.115784,0.195465,63420,60486,62744,5567,-30414
4374,248399,3.85205,8.38359,-0.784766,93.8123,-25.6696,5.72937,-0.0610352,-0.305176,0.793457,0.657104,0.718689,-0.115967,0.195343,63422,60486,62744,5567,-30414
4380,248405,3.89033,8.34531,-0.77998,93.8287,-25.675,5.7019,-0.183105,-0.427246,0.976563,0.657074,0.718689,-0.116058,0.195282,63423,60486,62744,5567,-30414
4386,248411,3.91904,8.37881,-0.799121,93.8342,-25.6805,5.68542,0.12207,-0.488281,0.915527,0.657074,0.718719,-0.11618,0.19519,63423,60488,62747,5567,-30414
4392,248417,3.94297,8.36445,-0.813477,93.8397,-25.6805,5.66895,0.305176,-0.488281,0.976563,0.657043,0.718719,-0.116272,0.195129,63424,60492,62747,5567,-30414
4398,248423,3.9334,8.37402,-0.856543,93.8507,-25.6805,5.65247,0.244141,-0.671387,0.732422,0.657043,0.71875,-0.116364,0.195068,63425,60495,62748,5567,-30414
4404,248429,3.93818,8.39316,-0.870898,93.8562,-25.686,5.63599,0.183105,-0.671387,0.732422,0.656982,0.718811,-0.116547,0.194916,63426,60496,62741,5567,-30414
4410,248435,3.94775,8.41709,-0.885254,93.8672,-25.686,5.60852,-0.427246,-0.244141,0.732422,0.656982,0.718811,-0.116669,0.194855,63427,60496,62737,5567,-30414
4416,248441,3.94297,8.39316,-0.818262,93.8672,-25.6915,5.59204,-0.732422,-0.0610352,0.671387,0.656982,0.718811,-0.11676,0.194794,63428,60497,62733,5567,-30414
4422,248447,3.9334,8.35488,-0.765625,93.8672,-25.6915,5.58105,-0.671387,-0.0610352,0.793457,0.656982,0.718811,-0.116821,0.194733,63429,60497,62732,5567,-30414
4428,248453,3.88076,8.29268,-0.703418,93.8727,-25.6915,5.57007,-0.427246,-0.183105,0.671387,0.656982,0.718811,-0.116913,0.194672,63430,60500,62733,5567,-30414
4434,248459,3.89033,8.30225,-0.756055,93.8782,-25.6915,5.55359,0.12207,-0.610352,0.671387,0.656952,0.718842,-0.117096,0.194519,63434,60498,62740,5567,-30414
4440,248465,3.90469,8.38359,-0.832617,93.9001,-25.697,5.52063,0.854492,-1.2207,0.793457,0.656921,0.718903,-0.117188,0.194458,63435,60496,62742,5567,-30414
4446,248471,3.94775,8.39316,-0.890039,93.9111,-25.697,5.50415,0.366211,-0.976563,0.793457,0.65686,0.718933,-0.117279,0.194366,63437,60495,62741,5567,-30414
4452,248477,3.96689,8.39795,-0.866113,93.9166,-25.697,5.48767,0.12207,-0.610352,0.793457,0.65683,0.718964,-0.117401,0.194275,63437,60494,62743,5567,-30414
4458,248483,3.96211,8.3501,-0.813477,93.9221,-25.7025,5.47119,-0.0610352,-0.305176,0.732422,0.65683,0.718994,-0.117493,0.194214,63435,60498,62743,5567,-30414
4464,248489,3.91426,8.34053,-0.799121,93.9276,-25.7025,5.46021,0,-0.366211,0.854492,0.656799,0.719025,-0.117645,0.194092,63434,60509,62747,5567,-30414
4470,248495,3.91426,8.34531,-0.832617,93.9441,-25.708,5.42725,0.427246,-0.793457,0.793457,0.656769,0.719055,-0.117737,0.194031,63434,60513,62746,5567,-30414
4476,248501,3.90469,8.36445,-0.856543,93.9551,-25.708,5.41077,0.366211,-0.793457,0.793457,0.656738,0.719086,-0.117828,0.19397,63435,60515,62744,5567,-30414
4482,248507,3.91426,8.38838,-0.837402,93.9606,-25.708,5.39978,0,-0.732422,0.671387,0.656708,0.719116,-0.11795,0.193878,63437,60516,62744,5567,-30414
4488,248513,3.95732,8.35967,-0.861328,93.9661,-25.7135,5.3833,0.12207,-0.610352,0.854492,0.656677,0.719147,-0.118042,0.193817,63438,60517,62744,5567,-30414
4494,248519,3.93818,8.35967,-0.842188,93.9771,-25.7135,5.36682,0,-0.366211,0.732422,0.656647,0.719177,-0.118195,0.193665,63442,60523,62745,5567,-30414
4500,248525,3.88555,8.3501,-0.827832,93.9825,-25.7135,5.34485,-0.12207,-0.12207,0.793457,0.656647,0.719177,-0.118286,0.193634,63444,60527,62746,5567,-30414
4506,248531,3.86641,8.34053,-0.808691,93.988,-25.719,5.32837,0.0610352,-0.427246,0.793457,0.656616,0.719208,-0.118347,0.193573,63446,60531,62746,5567,-30414
4512,248537,3.89512,8.33096,-0.861328,93.999,-25.719,5.31738,0.305176,-0.732422,0.793457,0.656616,0.719238,-0.118439,0.193512,63448,60533,62744,5567,-30414
4518,248543,3.94297,8.35967,-0.894824,94.01,-25.719,5.3009,0.305176,-0.976563,0.671387,0.656586,0.719269,-0.11853,0.193451,63448,60533,62742,5567,-30414
4524,248549,3.99561,8.38838,-0.904395,94.0155,-25.719,5.28442,0.12207,-0.793457,0.610352,0.656525,0.719299,-0.118713,0.193298,63452,60533,62739,5567,-30414
4530,248555,3.95732,8.39795,-0.827832,94.021,-25.7245,5.26245,-0.732422,0.366211,0.427246,0.656525,0.71933,-0.118805,0.193237,63454,60534,62737,5567,-30414
4536,248561,3.89512,8.37402,-0.803906,94.021,-25.7245,5.25146,-0.793457,0.305176,0.732422,0.656525,0.71933,-0.118866,0.193176,63456,60535,62737,5567,-30414
4542,248567,3.86641,8.30225,-0.77998,94.021,-25.7245,5.24597,-0.549316,0.183105,0.610352,0.656525,0.719299,-0.118927,0.193146,63458,60534,62738,5567,-30414
4548,248573,3.86162,8.27832,-0.76084,94.0265,-25.7245,5.23499,-0.244141,-0.0610352,0.549316,0.656525,0.719299,-0.118988,0.193085,63457,60534,62737,5567,-30414
4554,248579,3.88555,8.31182,-0.789551,94.032,-25.7245,5.21851,0.305176,-0.549316,0.549316,0.656494,0.71936,-0.119141,0.192963,63456,60533,62737,5567,-30414
4560,248585,3.92383,8.36445,-0.885254,94.054,-25.73,5.18555,0.366211,-0.854492,0.610352,0.656464,0.719391,-0.119202,0.192902,63456,60533,62737,5567,-30414
4566,248591,3.92861,8.37402,-0.894824,94.0594,-25.73,5.17456,0.183105,-0.610352,0.732422,0.656433,0.719421,-0.119293,0.19281,63457,60535,62736,5559,-30413
4572,248597,3.93818,8.37402,-0.837402,94.0704,-25.73,5.15808,0.0610352,-0.549316,0.793457,0.656403,0.719452,-0.119385,0.192749,63458,60536,62738,5559,-30413
4578,248603,3.94297,8.37402,-0.832617,94.0759,-25.73,5.14709,0.12207,-0.488281,0.732422,0.656372,0.719482,-0.119476,0.192688,63458,60540,62740,5559,-30413
4584,248609,3.93818,8.37881,-0.818262,94.0814,-25.7355,5.13611,0.183105,-0.488281,0.671387,0.656342,0.719513,-0.119629,0.192566,63457,60549,62742,5559,-30413
4590,248615,3.92383,8.36924,-0.866113,94.0979,-25.7355,5.10864,0.0610352,-0.549316,0.610352,0.656311,0.719543,-0.11969,0.192505,63455,60513,62740,5559,-30413
4596,248621,3.8999,8.36445,-0.827832,94.1034,-25.7355,5.09766,0.12207,-0.366211,0.610352,0.656281,0.719574,-0.119751,0.192444,63455,60480,62741,5559,-30413
4602,248627,3.90469,8.3501,-0.846973,94.1089,-25.7355,5.08667,0.0610352,-0.305176,0.671387,0.656281,0.719604,-0.119843,0.192413,63454,60491,62740,5559,-30413
4608,248633,3.88076,8.33574,-0.842188,94.1144,-25.7355,5.07568,-0.0610352,-0.244141,0.610352,0.65625,0.719604,-0.119904,0.192352,63454,60501,62737,5559,-30413
