TimeSinceCollection,Timestamp,AccX,AccY,AccZ,AngleRoll,AnglePitch,AngleYaw,AngularVelX,AngularVelY,             AngularVelZ,Q1,Q2,Q3,Q4,MagX,MagY,MagZ,Height,Airpressure
0,27833,4.10088,9.0918,-1.21543,94.5154,-25.1642,-47.8564,-2.74658,1.0376,-0.12207,0.670319,0.595154,-0.425873,-0.122406,59454,59586,63148,3160,-30126
6,27839,4.14395,8.90518,-0.952246,94.4604,-25.1697,-47.818,-5.92041,3.66211,0.366211,0.670441,0.595093,-0.425751,-0.122375,59452,59586,63147,3160,-30126
12,27845,4.19658,8.74248,-1.00967,94.4275,-25.1697,-47.7795,-5.49316,5.5542,0.305176,0.670654,0.594971,-0.425598,-0.122345,59451,59587,63146,3160,-30126
18,27851,4.13438,8.78555,-1.1915,94.3945,-25.1752,-47.7411,-4.82178,6.10352,0.488281,0.670868,0.59491,-0.425385,-0.122253,59451,59587,63144,3160,-30126
24,27857,3.97646,9.0583,-1.15322,94.3616,-25.1807,-47.7026,-5.12695,6.34766,0.793457,0.671082,0.594849,-0.425171,-0.122131,59451,59588,63142,3160,-30126
30,27863,4.05303,9.09658,-1.31592,94.3176,-25.1862,-47.6642,-6.53076,6.40869,1.15967,0.67157,0.594666,-0.424744,-0.121857,59453,59587,63145,3160,-30126
36,27869,4.20137,9.17314,-1.0958,94.2133,-25.2026,-47.5708,-9.39941,8.54492,1.64795,0.671875,0.594513,-0.4245,-0.121735,59455,59588,63147,3160,-30126
42,27875,4.21094,9.08701,-0.947461,94.1473,-25.2136,-47.5104,-10.2539,9.58252,1.77002,0.672241,0.594299,-0.424225,-0.121613,59457,59588,63147,3160,-30126
48,27881,4.1918,8.9626,-1.04795,94.0759,-25.2246,-47.45,-10.437,10.437,1.89209,0.672668,0.594086,-0.42392,-0.12146,59456,59588,63146,3160,-30126
54,27887,4.18223,8.94824,-1.14844,94.0045,-25.2356,-47.3895,-10.6201,10.498,1.95313,0.673096,0.593872,-0.423584,-0.121277,59453,59587,63143,3160,-30126
60,27893,4.12002,9.02481,-1.18193,93.9331,-25.2466,-47.3236,-11.2305,10.8643,2.13623,0.674011,0.593414,-0.422882,-0.120911,59448,59585,63136,3160,-30126
66,27899,4.32578,9.10137,-1.11973,93.7738,-25.274,-47.1918,-13.1836,12.085,2.0752,0.6745,0.59317,-0.422516,-0.120758,59446,59584,63130,3160,-30126
72,27905,4.20137,9.07266,-1.12451,93.6804,-25.285,-47.1149,-14.5264,12.9395,2.0752,0.675018,0.592865,-0.42215,-0.120575,59444,59583,63124,3160,-30126
78,27911,4.34971,9.09658,-0.957031,93.576,-25.296,-47.038,-15.3809,13.855,2.19727,0.675598,0.59256,-0.421722,-0.120392,59443,59583,63116,3160,-30126
84,27917,4.21094,9.02002,-1.05273,93.4772,-25.307,-46.9611,-15.686,13.5498,1.70898,0.676208,0.592194,-0.421265,-0.120209,59442,59582,63110,3160,-30126
90,27923,4.17744,9.02959,-1.05752,93.3728,-25.318,-46.8842,-16.7236,13.3057,1.58691,0.676819,0.591858,-0.420807,-0.120056,59439,59580,63098,3160,-30126
96,27929,4.1248,9.0918,-1.00488,93.1531,-25.3345,-46.7249,-18.1274,13.7939,1.0376,0.678101,0.591125,-0.419861,-0.119812,59438,59578,63096,3160,-30126
102,27935,4.11523,9.00088,-0.827832,93.0377,-25.34,-46.6479,-18.9209,14.1602,0.793457,0.678772,0.590729,-0.419373,-0.11972,59438,59616,63091,3160,-30126
108,27941,4.07695,8.9291,-0.569434,92.9169,-25.3455,-46.5656,-19.4702,14.1602,0.793457,0.679443,0.590302,-0.418884,-0.119629,59436,59652,63086,3160,-30126
114,27947,4.03389,8.75205,-0.512012,92.807,-25.3455,-46.4941,-18.4326,13.2446,0.488281,0.680176,0.589844,-0.418365,-0.119568,59433,59683,63077,3160,-30126
120,27953,4.01475,8.69463,-0.6125,92.7026,-25.351,-46.4282,-17.1509,12.207,0.488281,0.681427,0.58905,-0.41745,-0.119476,59427,59736,63054,3160,-30126
126,27959,3.97646,8.91953,-0.521582,92.5104,-25.3564,-46.3129,-16.1743,10.2539,0.488281,0.682007,0.588684,-0.417053,-0.119476,59424,59759,63043,3160,-30126
132,27965,4.03867,8.81904,-0.44502,92.417,-25.3564,-46.2634,-16.0522,9.46045,0.610352,0.682556,0.588318,-0.416687,-0.119476,59419,59779,63034,3160,-30126
138,27971,4.03389,8.75684,-0.29668,92.3291,-25.3619,-46.214,-15.1978,8.97217,0.305176,0.683075,0.587952,-0.416351,-0.119507,59414,59798,63024,3160,-30126
144,27977,4.03867,8.74248,-0.229688,92.2522,-25.3619,-46.1755,-13.7329,8.05664,0.244141,0.683563,0.587585,-0.416016,-0.119507,59410,59813,63017,3160,-30126
150,27983,4.00518,8.72813,-0.325391,92.1863,-25.3619,-46.1371,-11.9629,7.01904,0,0.684387,0.587006,-0.415466,-0.119598,59402,59831,63004,3160,-30126
156,27989,3.99082,8.91475,-0.478516,92.0764,-25.3564,-46.0931,-10.1929,4.57764,-0.244141,0.684723,0.586761,-0.415253,-0.119659,59400,59836,62998,3160,-30126
162,27995,4.04346,8.91953,-0.492871,92.0215,-25.351,-46.0767,-10.1318,3.66211,-0.244141,0.684998,0.586517,-0.4151,-0.119751,59398,59841,62990,3160,-30126
168,28001,4.08652,8.85732,-0.512012,91.972,-25.351,-46.0602,-9.94873,3.54004,-0.0610352,0.685272,0.586304,-0.414948,-0.119843,59395,59846,62981,3160,-30126
174,28007,4.1583,8.83818,-0.516797,91.9281,-25.3455,-46.0437,-9.58252,3.35693,-0.0610352,0.685547,0.58606,-0.414795,-0.119934,59393,59851,62972,3160,-30126
180,28013,4.15352,8.90518,-0.607715,91.8787,-25.3455,-46.0327,-9.27734,3.54004,-0.0610352,0.686035,0.585632,-0.414551,-0.120148,59386,59860,62950,3160,-30126
186,28019,4.01475,9.01523,-0.421094,91.7798,-25.3455,-45.9943,-10.6812,4.21143,0.183105,0.68631,0.585388,-0.414398,-0.120209,59385,59865,62939,3160,-30126
192,28025,4.05303,8.78076,-0.344531,91.7194,-25.3455,-45.9723,-10.9253,4.69971,0.610352,0.686615,0.585144,-0.414246,-0.1203,59382,59870,62927,3160,-30126
198,28031,4.11045,8.63242,-0.330176,91.6644,-25.3455,-45.9503,-10.0708,5.06592,0.732422,0.68692,0.584869,-0.414063,-0.120361,59379,59875,62916,3160,-30126
204,28037,4.00518,8.6707,-0.14834,91.615,-25.351,-45.9283,-8.91113,5.37109,0.671387,0.687225,0.584625,-0.41391,-0.120422,59377,59879,62908,3160,-30126
210,28043,3.95254,8.71855,-0.0717773,91.571,-25.351,-45.9064,-7.93457,5.00488,0.854492,0.687775,0.584198,-0.413605,-0.120453,59371,59883,62896,3160,-30126
216,28049,3.90469,8.68027,-0.13877,91.5051,-25.3619,-45.8734,-5.43213,3.479,1.40381,0.687988,0.584015,-0.413483,-0.120453,59369,59884,62892,3160,-30126
222,28055,3.90469,8.75205,-0.277539,91.4886,-25.3674,-45.8679,-4.08936,2.44141,1.52588,0.688141,0.583893,-0.413422,-0.120422,59367,59885,62887,3160,-30126
228,28061,3.94775,8.89561,-0.378027,91.4722,-25.3784,-45.8624,-3.35693,1.58691,2.01416,0.688263,0.583771,-0.413391,-0.120422,59365,59884,62882,3160,-30126
234,28067,4.09609,9.02002,-0.564648,91.4557,-25.3839,-45.8624,-3.41797,1.64795,2.19727,0.688354,0.583649,-0.413422,-0.120422,59365,59884,62877,3160,-30126
240,28073,4.15352,9.0583,-0.60293,91.4392,-25.3949,-45.8569,-4.39453,2.50244,2.62451,0.688568,0.583405,-0.413422,-0.120361,59361,59885,62866,3160,-30126
246,28079,4.22529,8.89561,-0.382813,91.3733,-25.4169,-45.8185,-5.7373,5.43213,2.62451,0.688721,0.583252,-0.413361,-0.120331,59359,59884,62862,3160,-30126
252,28085,4.14873,8.74727,-0.210547,91.3348,-25.4279,-45.791,-5.7373,6.22559,2.68555,0.688965,0.583069,-0.413269,-0.120239,59357,59883,62859,3160,-30126
258,28091,4.02432,8.66592,-0.0861328,91.3019,-25.4388,-45.7635,-4.69971,6.16455,2.44141,0.689178,0.582916,-0.413147,-0.120148,59354,59883,62858,3160,-30126
264,28097,3.98125,8.59414,-0.196191,91.2854,-25.4498,-45.7416,-2.56348,4.76074,2.50244,0.689392,0.582794,-0.413025,-0.120026,59353,59881,62856,3160,-30126
270,28103,3.97646,8.68027,-0.368457,91.2799,-25.4608,-45.7361,-0.549316,2.80762,2.31934,0.689514,0.582703,-0.412964,-0.119904,59352,59878,62851,3160,-30126
276,28109,4.14395,8.99609,-0.478516,91.2854,-25.4773,-45.7361,-0.549316,0.854492,2.2583,0.689545,0.582672,-0.413025,-0.119751,59351,59876,62849,3160,-30126
282,28115,4.254,8.98174,-0.507227,91.2799,-25.4883,-45.7361,-1.70898,1.40381,2.31934,0.689545,0.582642,-0.413086,-0.11969,59352,59872,62845,3160,-30126
288,28121,4.25879,8.88603,-0.44502,91.2689,-25.4993,-45.7251,-2.38037,2.62451,2.19727,0.689575,0.58255,-0.413116,-0.119659,59353,59870,62840,3160,-30126
294,28127,4.17266,8.86689,-0.258398,91.2524,-25.5048,-45.7141,-2.80762,3.41797,2.01416,0.689667,0.582489,-0.413086,-0.119598,59356,59868,62836,3160,-30126
300,28133,4.06738,8.76162,-0.162695,91.236,-25.5103,-45.7031,-2.44141,3.23486,1.77002,0.68988,0.582336,-0.413025,-0.119476,59360,59867,62828,3160,-30126
306,28139,3.98125,8.67549,-0.181836,91.2305,-25.5267,-45.6976,0.305176,0.671387,1.64795,0.689911,0.582275,-0.413025,-0.119415,59362,59866,62828,3160,-30126
312,28145,4.0291,8.73291,-0.330176,91.2469,-25.5322,-45.7141,1.77002,-0.976563,1.46484,0.689911,0.582275,-0.413055,-0.119385,59363,59866,62825,3160,-30126
318,28151,4.13438,8.87168,-0.47373,91.2689,-25.5377,-45.7306,2.31934,-2.2583,1.52588,0.689819,0.582306,-0.413177,-0.119354,59362,59865,62821,3160,-30126
324,28157,4.17744,8.93389,-0.512012,91.2854,-25.5377,-45.7471,1.58691,-2.19727,1.34277,0.689697,0.582367,-0.4133,-0.119385,59362,59865,62820,3160,-30126
330,28163,4.20615,8.94346,-0.330176,91.3019,-25.5432,-45.7635,0.732422,-1.70898,1.40381,0.689514,0.582367,-0.413544,-0.119415,59360,59865,62808,3160,-30126
336,28169,4.18701,8.64199,0.00478516,91.3184,-25.5542,-45.7855,1.2207,-1.09863,0.915527,0.689484,0.582367,-0.413635,-0.119415,59359,59864,62806,3160,-30126
342,28175,4.05781,8.57022,-0.0143555,91.3458,-25.5542,-45.8075,3.66211,-2.44141,0.549316,0.689392,0.582397,-0.413727,-0.119415,59357,59863,62803,3160,-30126
348,28181,4.00518,8.72813,-0.14834,91.3898,-25.5542,-45.8405,6.04248,-4.63867,0.244141,0.68924,0.582489,-0.413849,-0.119446,59355,59861,62805,3160,-30126
354,28187,4.1248,8.89561,-0.449805,91.4502,-25.5487,-45.8844,7.69043,-7.08008,-0.0610352,0.688995,0.582642,-0.414063,-0.119476,59355,59859,62807,3160,-30126
360,28193,4.34971,9.0918,-0.842188,91.5161,-25.5432,-45.9393,8.42285,-8.8501,-0.488281,0.688232,0.583069,-0.414642,-0.11969,59356,59856,62817,3160,-30126
366,28199,4.79473,9.50811,-1.6126,91.6205,-25.5267,-46.0272,4.63867,-6.28662,-1.40381,0.687836,0.583282,-0.414948,-0.119812,59357,59855,62821,3160,-30126
372,28205,4.76602,9.68037,-1.46904,91.6315,-25.5157,-46.0437,-0.427246,-1.83105,-1.77002,0.687592,0.583435,-0.415131,-0.119934,59357,59856,62821,3160,-30126
378,28211,4.50762,9.51768,-1.04316,91.604,-25.5048,-46.0327,-5.43213,2.0752,-1.64795,0.687531,0.583466,-0.415161,-0.120056,59360,59857,62821,3160,-30126
384,28217,4.17266,9.0918,-0.535937,91.5601,-25.4993,-46.0107,-7.56836,4.08936,-1.58691,0.687653,0.583374,-0.415039,-0.120148,59361,59858,62823,3160,-30126
390,28223,4.00518,8.72813,-0.387598,91.5271,-25.4883,-45.9943,-6.40869,3.2959,-1.89209,0.687866,0.583221,-0.414856,-0.120239,59364,59858,62822,3160,-30126
396,28229,4.0626,8.89082,-0.76084,91.5216,-25.4608,-46.0162,-1.28174,-3.17383,-2.44141,0.68811,0.583099,-0.414612,-0.120453,59364,59858,62720,3160,-30126
402,28235,4.08652,9.20664,-0.913965,91.5326,-25.4498,-46.0437,-1.2207,-4.94385,-2.50244,0.688019,0.583099,-0.414642,-0.120605,59364,59860,62825,3160,-30126
408,28241,4.39756,9.35977,-1.17236,91.5326,-25.4333,-46.0767,-3.66211,-5.12695,-2.38037,0.687927,0.58313,-0.414734,-0.12085,59364,59862,62720,3160,-30126
414,28247,4.67988,9.39805,-1.20107,91.5161,-25.4169,-46.0876,-6.5918,-2.62451,-2.50244,0.687866,0.583069,-0.414825,-0.121094,59365,59864,62825,3160,-30126
420,28253,4.73252,9.34541,-1.0623,91.4667,-25.4059,-46.0822,-10.2539,1.83105,-2.62451,0.687927,0.582947,-0.414825,-0.121368,59366,59865,62823,3160,-30126
426,28259,4.36885,9.07266,-0.650781,91.3074,-25.3784,-45.9943,-14.7705,9.09424,-2.80762,0.688568,0.582489,-0.414337,-0.121704,59367,59864,62822,3160,-30126
432,28265,4.11523,8.91475,-0.617285,91.214,-25.3619,-45.9393,-15.1978,10.1929,-3.05176,0.689056,0.582184,-0.41391,-0.121796,59367,59863,62822,3160,-30126
438,28271,3.8999,8.91953,-0.693848,91.1316,-25.351,-45.8899,-14.8315,9.52148,-2.68555,0.689545,0.581909,-0.413452,-0.121887,59367,59864,62821,3160,-30126
444,28277,3.85205,9.01523,-0.803906,91.0437,-25.34,-45.8459,-14.6484,8.05664,-2.44141,0.690033,0.581604,-0.413055,-0.121979,59366,59865,62819,3160,-30126
450,28283,3.92861,9.00566,-0.818262,90.9613,-25.329,-45.8075,-15.4419,7.08008,-2.01416,0.690491,0.581299,-0.412659,-0.12207,59364,59865,62810,3160,-30126
456,28289,4.37363,9.0583,-0.564648,90.7745,-25.307,-45.7251,-17.6392,7.93457,-1.64795,0.691406,0.580597,-0.411987,-0.122375,59363,59864,62802,3160,-30126
462,28295,4.34492,9.04873,-0.392383,90.6757,-25.3015,-45.6812,-18.3716,8.91113,-1.64795,0.691956,0.5802,-0.411652,-0.122498,59361,59861,62797,3160,-30126
468,28301,4.27793,8.90039,-0.521582,90.5713,-25.296,-45.6262,-18.6157,9.94873,-1.28174,0.692505,0.579803,-0.411255,-0.12265,59358,59859,62791,3160,-30126
474,28307,4.23965,8.95781,-0.483301,90.4559,-25.285,-45.5658,-19.104,10.8643,-1.52588,0.693085,0.579376,-0.410828,-0.122742,59353,59856,62787,3160,-30126
480,28313,4.20615,9.03916,-0.540723,90.3461,-25.274,-45.5054,-19.2261,11.9629,-2.01416,0.693695,0.578949,-0.41037,-0.122833,59346,59852,62779,3160,-30126
486,28319,3.92383,8.94824,-0.488086,90.1044,-25.2576,-45.39,-21.5454,9.46045,-1.70898,0.695007,0.578033,-0.409393,-0.122986,59343,59850,62772,3160,-30126
492,28325,3.8377,8.89082,-0.153125,89.989,-25.2521,-45.3406,-21.4844,9.27734,-0.976563,0.695648,0.577545,-0.408966,-0.123169,59341,59848,62767,3160,-30126
498,28331,3.93818,8.6707,-0.0861328,89.8792,-25.2466,-45.3021,-20.9351,7.69043,-0.793457,0.696289,0.577026,-0.408569,-0.123322,59339,59845,62761,3160,-30126
504,28337,3.90947,8.57022,-0.14834,89.7858,-25.2411,-45.2802,-18.7988,4.5166,-1.15967,0.696869,0.576508,-0.408234,-0.123535,59336,59842,62756,3160,-30126
510,28343,4.16787,8.72813,0.0861328,89.7198,-25.2246,-45.2911,-15.1978,-1.15967,-3.05176,0.697357,0.576019,-0.40799,-0.123779,59377,59835,62743,3160,-30126
516,28349,4.63682,8.44102,0.00478516,89.6594,-25.1752,-45.3571,-10.2539,-6.46973,-5.06592,0.697754,0.575439,-0.407867,-0.124603,59368,59832,62733,3160,-30126
522,28355,4.70859,8.70898,-0.162695,89.6375,-25.1422,-45.379,-7.75146,-2.99072,-6.22559,0.697815,0.575226,-0.407898,-0.125092,59360,59828,62726,3160,-30126
528,28361,4.50283,9.0583,-0.401953,89.6045,-25.1093,-45.3735,-8.30078,1.2207,-6.83594,0.697876,0.575134,-0.407837,-0.125458,59354,59823,62719,3160,-30126
534,28367,4.12002,9.30234,-0.660352,89.5496,-25.0763,-45.3516,-11.2305,4.76074,-6.65283,0.698029,0.575073,-0.407593,-0.125763,59349,59819,62716,3160,-30126
540,28373,3.64629,9.25449,-0.851758,89.4781,-25.0433,-45.3296,-14.3433,4.57764,-6.46973,0.698303,0.574921,-0.407257,-0.126007,59340,59816,62713,3160,-30126
546,28379,3.27783,9.13486,-0.526367,89.3298,-24.9939,-45.3351,-17.7612,-2.2583,-4.5166,0.699005,0.574341,-0.406616,-0.126709,59337,59814,62710,3160,-30126
552,28385,3.66543,9.23535,-0.30625,89.2914,-24.9609,-45.4065,-15.625,-12.146,-5.67627,0.69931,0.573944,-0.406494,-0.127228,59334,59812,62704,3160,-30126
558,28391,3.67979,9.27363,-0.579004,89.2859,-24.928,-45.5164,-12.4512,-19.2261,-6.89697,0.699402,0.573547,-0.406647,-0.12796,59331,59810,62698,3160,-30126
564,28397,4.33535,10.3886,-0.957031,89.3243,-24.873,-45.6921,-9.21631,-31.1279,-10.8643,0.69928,0.573273,-0.407043,-0.128876,59327,59808,62693,3160,-30126
570,28403,4.27314,9.94355,-2.12939,89.3353,-24.8126,-45.8679,-14.5874,-31.311,-12.0239,0.698822,0.573059,-0.407684,-0.130157,59319,59804,62681,3160,-30126
576,28409,3.92861,9.82871,-2.40215,89.22,-24.6808,-46.1261,-29.7241,-21.3623,-12.3291,0.698425,0.572266,-0.408569,-0.132935,59366,59803,62680,3160,-30126
582,28415,3.11035,9.3502,-2.36865,89.0991,-24.6039,-46.2195,-36.438,-17.8223,-14.8315,0.698639,0.571564,-0.408752,-0.134308,59358,59803,62681,3160,-30126
588,28421,1.70352,8.81426,-2.38779,88.9508,-24.538,-46.3184,-41.5649,-17.7612,-12.6953,0.699036,0.57074,-0.408691,-0.135803,59401,59803,62682,3160,-30126
594,28427,0.75127,8.71377,-1.8375,88.8409,-24.472,-46.4832,-40.5884,-29.7241,-12.6343,0.699554,0.569763,-0.408661,-0.137299,59439,59804,62681,3160,-30126
600,28433,-0.488086,8.66592,-1.89492,88.7915,-24.4116,-46.7633,-36.6821,-50.293,-11.2915,0.69986,0.568726,-0.409027,-0.139099,59412,59803,62681,3160,-30126
606,28439,-0.253613,8.35488,-2.8376,88.9343,-24.3237,-47.7191,-27.4048,-97.1069,-6.40869,0.698914,0.566559,-0.411865,-0.144073,59403,59801,62683,3160,-30126
612,28445,1.40684,8.98174,-2.61748,89.1101,-24.3018,-48.3783,-24.9023,-119.751,-3.35693,0.697662,0.56543,-0.41449,-0.147186,59398,59797,62684,3160,-30126
618,28451,4.43584,10.0919,-1.57432,89.3188,-24.2523,-49.1144,-23.4985,-134.46,-7.75146,0.695923,0.564178,-0.417847,-0.150696,59396,59834,62687,3160,-30126
624,28457,5.95273,9.97705,-2.40693,89.4891,-24.2084,-49.801,-27.9541,-125.061,-7.62939,0.693817,0.562927,-0.421539,-0.154694,59396,59867,62695,3160,-30126
630,28463,6.52217,10.2833,-3.15342,89.5496,-24.1644,-50.3503,-39.2456,-101.501,-7.14111,0.692017,0.561584,-0.424866,-0.158478,59405,59925,62717,3160,-30126
636,28469,3.28262,10.068,-2.03848,89.3848,-24.0656,-51.2018,-63.2324,-76.8433,-8.42285,0.69043,0.558289,-0.429291,-0.164978,59414,59950,62738,3160,-30126
642,28475,2.26338,9.11094,-2.11982,89.2365,-24.0271,-51.6193,-70.6787,-77.4536,-5.49316,0.690308,0.556244,-0.430878,-0.168182,59425,59971,62759,3160,-30126
648,28481,1.29199,8.10606,-1.68438,89.0991,-24.0106,-52.0752,-71.5332,-84.7778,-2.56348,0.690369,0.553925,-0.432495,-0.171448,59388,59988,62780,3160,-30126
654,28487,0.980957,7.82373,-1.02402,89.0057,-24.0051,-52.6025,-67.8101,-97.5342,0.610352,0.690308,0.551453,-0.434387,-0.174835,59357,60003,62802,3160,-30126
660,28493,0.971387,7.81416,-0.827832,88.9728,-24.0161,-53.2068,-62.6221,-111.877,3.90625,0.689941,0.54892,-0.436768,-0.178375,59310,60027,62846,3160,-30126
666,28499,2.22031,8.51279,-1.42119,89.0002,-24.093,-54.5691,-59.4482,-128.296,10.2539,0.68808,0.543732,-0.442993,-0.185883,59294,60036,62871,3160,-30126
672,28505,2.82324,8.9626,-1.47861,89.0112,-24.1479,-55.2722,-62.2559,-130.493,13.0005,0.68692,0.540955,-0.446503,-0.189697,59283,60043,62901,3160,-30126
678,28511,3.26348,9.20186,-1.3877,89.0057,-24.2194,-55.9808,-66.7725,-131.226,15.3809,0.685791,0.538055,-0.450134,-0.193542,59276,60046,62936,3160,-30126
684,28517,3.67979,9.02002,-1.21543,88.9673,-24.2963,-56.6785,-71.6553,-129.883,17.2729,0.684753,0.534912,-0.453766,-0.197418,59274,60046,62972,3160,-30126
690,28523,4.07217,8.89082,-0.636426,88.9178,-24.3896,-57.3761,-74.585,-129.395,19.5923,0.683838,0.531616,-0.457336,-0.201263,59183,60043,63042,3160,-30126
696,28529,9.80957,9.51768,2.6127,88.83,-24.5599,-58.8098,-74.585,-127.747,15.5029,0.681915,0.524567,-0.464722,-0.209106,59151,60039,63079,3160,-30126
702,28535,20.9733,17.6381,5.53643,88.6707,-24.6149,-59.3207,-79.5898,-96.7407,7.87354,0.681061,0.521088,-0.468109,-0.212952,59128,60034,63118,3160,-30126
708,28541,25.8638,18.1501,10.9006,88.429,-24.6753,-59.6722,-80.8105,-68.9697,7.99561,0.680939,0.517853,-0.470367,-0.216339,59112,60068,63158,3160,-30126
714,28547,12.3122,8.92432,6.49824,88.1268,-24.7028,-59.837,-76.9043,-34.6069,1.2207,0.681458,0.514709,-0.471771,-0.219055,59103,60096,63199,3160,-30126
720,28553,11.4461,7.44092,6.704,87.7039,-24.7192,-59.7491,-78.2471,12.5732,-1.52588,0.682556,0.512115,-0.472076,-0.22113,58996,60141,63273,3160,-30126
726,28559,5.3498,4.87129,7.61318,86.6547,-24.7028,-58.9691,-66.2231,84.5947,-2.56348,0.6875,0.508179,-0.468506,-0.222504,58954,60157,63305,3160,-30126
732,28565,1.90449,4.27314,7.43135,86.1493,-24.7357,-58.4583,-54.5654,94.6655,7.26318,0.690765,0.506866,-0.465363,-0.221924,58918,60169,63333,3160,-30126
738,28571,0.301465,4.08174,7.19209,85.7373,-24.7687,-58.0243,-38.5742,83.6792,8.66699,0.694031,0.505737,-0.46228,-0.220734,58883,60176,63353,3160,-30126
744,28577,-1.3877,3.5458,6.79492,85.4352,-24.8071,-57.7386,-26.3672,60.3027,8.78906,0.696747,0.504822,-0.459747,-0.219543,58850,60181,63368,3160,-30126
750,28583,-1.47383,3.44531,5.80918,85.4242,-24.8895,-57.6782,13.3667,19.3481,15.5029,0.698669,0.503998,-0.458099,-0.218781,58790,60184,63376,3160,-30126
756,28589,0.689063,5.52686,3.74199,85.9955,-25.1532,-58.0957,62.9883,-39.917,25.8179,0.697998,0.504028,-0.459808,-0.217346,58813,60184,63373,3160,-30126
762,28595,2.78018,6.79492,3.18691,86.4404,-25.318,-58.4253,75.2563,-49.6826,28.8696,0.696106,0.504517,-0.462402,-0.216736,58833,60185,63369,3160,-30126
768,28601,4.04824,8.45059,2.86152,86.9183,-25.4883,-58.7549,81.4819,-48.645,31.6162,0.693756,0.505219,-0.465485,-0.216003,58850,60227,63366,3160,-30126
774,28607,4.81387,8.71377,1.61738,87.3468,-25.6531,-59.0295,76.2939,-39.6118,31.25,0.691345,0.506042,-0.468658,-0.215057,58817,60264,63367,3160,-30126
780,28613,7.59404,14.6952,5.49336,87.9126,-25.7465,-59.436,93.3228,-61.5234,15.8691,0.689209,0.506775,-0.471436,-0.213989,58765,60250,63372,3160,-30126
786,28619,4.1918,7.1873,-4.9,88.9893,-25.7025,-60.2875,72.2046,-47.0581,-4.76074,0.682159,0.509827,-0.47821,-0.214264,58746,60247,63380,3160,-30126
792,28625,5.27803,10.2163,-3.0625,89.4507,-25.752,-60.5621,78.6133,-42.6636,8.23975,0.679626,0.5112,-0.480316,-0.214386,58732,60246,63394,3160,-30126
798,28631,4.14873,11.3265,-3.03857,89.9231,-25.7574,-60.8972,74.2798,-54.2603,0.732422,0.677124,0.512573,-0.482635,-0.213806,58719,60247,63413,3160,-30126
804,28637,4.90957,10.8336,-3.31611,90.3296,-25.7684,-61.2323,59.6924,-55.3589,0.610352,0.674408,0.513885,-0.485046,-0.213715,58709,60248,63439,3160,-30126
810,28643,5.18232,9.84785,-3.47881,90.6976,-25.7574,-61.5399,53.4668,-52.4902,-2.56348,0.671997,0.514832,-0.487335,-0.213928,58695,60249,63494,3160,-30126
816,28649,5.98623,10.7905,-3.74199,91.2909,-25.7465,-61.9574,41.8701,-29.48,-2.31934,0.667786,0.516571,-0.491058,-0.214294,58691,60251,63522,3160,-30126
822,28655,5.94316,11.3552,-4.29707,91.4777,-25.73,-62.0618,31.7993,-17.8223,-3.66211,0.66626,0.517426,-0.49231,-0.214203,58690,60254,63553,3160,-30126
828,28661,5.65605,11.6279,-4.75645,91.571,-25.7245,-62.0892,16.9067,-4.94385,-2.62451,0.665192,0.518127,-0.493073,-0.21405,58689,60259,63582,3160,-30126
834,28667,5.3498,11.6088,-4.45977,91.5491,-25.7245,-62.0508,-0.427246,6.34766,-1.40381,0.664703,0.518555,-0.493347,-0.213867,58689,60266,63612,3160,-30126
840,28673,5.0292,10.958,-3.42139,91.4392,-25.7245,-61.9684,-15.4419,14.2212,-1.0376,0.664886,0.518616,-0.493134,-0.213745,58692,60281,63669,3160,-30126
846,28679,4.32578,9.05352,-0.263184,91.0547,-25.741,-61.7102,-29.2358,24.9023,-0.244141,0.666595,0.517761,-0.49173,-0.213745,58694,60289,63694,3160,-30126
852,28685,3.77549,8.25439,0.866113,90.8624,-25.7465,-61.5729,-27.4658,25.2075,0.12207,0.667786,0.517151,-0.490753,-0.213776,58695,60297,63712,3160,-30126
858,28691,3.48359,7.7376,1.34941,90.7141,-25.752,-61.4575,-19.6533,20.813,-0.305176,0.668915,0.516571,-0.489777,-0.213745,58695,60303,63727,3160,-30126
864,28697,3.23477,7.61318,1.31113,90.6317,-25.752,-61.3861,-10.1318,13.7329,-0.732422,0.6698,0.516174,-0.489014,-0.213684,58693,60308,63736,3160,-30126
870,28703,3.07207,7.90029,1.08145,90.6097,-25.752,-61.3641,-1.89209,5.92041,-0.610352,0.670319,0.515991,-0.488556,-0.213623,58688,60312,63751,3160,-30126
876,28709,3.48359,8.48887,0.77041,90.6647,-25.7574,-61.4301,5.00488,-6.34766,0.366211,0.670349,0.515961,-0.488525,-0.213623,58683,60312,63756,3160,-30126
882,28715,3.81377,8.40273,0.756055,90.7196,-25.7629,-61.496,7.01904,-9.8877,0.427246,0.670105,0.515991,-0.488831,-0.213715,58679,60310,63760,3160,-30126
888,28721,3.91426,8.46973,0.478516,90.7965,-25.7629,-61.5729,9.8877,-12.085,0.244141,0.669739,0.516022,-0.489227,-0.213837,58677,60310,63765,3160,-30126
894,28727,4.16309,8.45059,0.287109,90.8844,-25.7574,-61.6608,13.0615,-12.8174,-0.793457,0.66925,0.516083,-0.489746,-0.213989,58676,60310,63772,3160,-30126
900,28733,4.12002,8.78076,-0.0526367,90.9888,-25.7574,-61.7377,14.8315,-12.3291,-0.732422,0.668671,0.516296,-0.490265,-0.214081,58677,60313,63782,3160,-30126
906,28739,3.97646,9.03916,-0.598145,91.1755,-25.7465,-61.9025,13.7329,-12.5122,-0.671387,0.66748,0.516785,-0.491333,-0.214233,58677,60318,63789,3160,-30126
912,28745,3.95254,8.95303,-0.674707,91.2744,-25.7465,-61.9849,13.4277,-13.1836,-0.12207,0.66687,0.516998,-0.491852,-0.214325,58678,60322,63796,3160,-30126
918,28751,4.12002,9.05352,-0.727344,91.3678,-25.741,-62.0673,13.3057,-12.8174,-0.183105,0.66629,0.517212,-0.492401,-0.214417,58678,60326,63804,3160,-30126
924,28757,4.31621,9.154,-0.746484,91.4612,-25.741,-62.1442,13.4888,-11.7798,-0.366211,0.66571,0.517395,-0.49295,-0.214508,58680,60331,63812,3160,-30126
930,28763,4.34014,9.22578,-0.957031,91.5381,-25.7355,-62.2046,11.1694,-8.72803,-0.244141,0.665131,0.517639,-0.493469,-0.214569,58683,60301,63831,3160,-30126
936,28769,4.02432,9.24971,-1.25371,91.6425,-25.73,-62.2815,7.56836,-4.94385,-0.976563,0.664337,0.518005,-0.494141,-0.21463,58684,60271,63839,3160,-30126
942,28775,4.20615,9.36455,-1.36377,91.6809,-25.7245,-62.309,5.67627,-3.72314,-0.610352,0.664032,0.518158,-0.494354,-0.214661,58684,60243,63852,3160,-30126
948,28781,3.8999,9.30713,-1.39727,91.7139,-25.719,-62.3419,3.96729,-4.76074,-0.976563,0.663788,0.51828,-0.494537,-0.214661,58685,60215,63865,3160,-30126
954,28787,4.19658,9.46025,-1.19629,91.7303,-25.7135,-62.3694,0.854492,-3.41797,0.183105,0.663574,0.518341,-0.49472,-0.214752,58685,60233,63877,3160,-30126
960,28793,4.17266,9.35977,-0.966602,91.7358,-25.7135,-62.3969,-1.15967,-4.39453,-0.12207,0.663452,0.518311,-0.494873,-0.214844,58686,60259,63893,3160,-30126
966,28799,4.36406,8.96738,-0.526367,91.7249,-25.7135,-62.4353,-2.50244,-1.09863,0,0.663361,0.518097,-0.495087,-0.215179,58685,60270,63899,3160,-30126
972,28805,4.13916,8.88125,-0.535937,91.7084,-25.708,-62.4353,-3.2959,0.610352,-0.244141,0.663361,0.518036,-0.495148,-0.215271,58684,60279,63903,3160,-30126
978,28811,4.18701,9.01523,-0.334961,91.6864,-25.708,-62.4353,-3.84521,2.0752,-0.305176,0.663391,0.517944,-0.495117,-0.215393,58685,60288,63910,3160,-30126
984,28817,4.01953,8.86689,-0.239258,91.6644,-25.7025,-62.4298,-4.45557,2.2583,-0.610352,0.663513,0.517853,-0.495056,-0.215454,58688,60298,63914,3160,-30126
990,28823,3.82334,8.59893,-0.224902,91.6479,-25.697,-62.4353,-3.41797,0.244141,-0.915527,0.663605,0.517731,-0.494965,-0.215576,58693,60315,63921,3160,-30126
996,28829,3.87598,8.71377,-0.00957031,91.6479,-25.6915,-62.4683,-0.732422,-2.2583,-0.0610352,0.663635,0.517578,-0.494965,-0.21582,58695,60322,63923,3160,-30126
1002,28835,3.86162,8.75205,-0.220117,91.6589,-25.686,-62.5012,0.305176,-3.78418,-0.12207,0.663574,0.517517,-0.495056,-0.215973,58695,60328,63926,3160,-30126
1008,28841,3.89512,8.79033,-0.301465,91.6754,-25.6805,-62.5397,1.0376,-4.88281,-0.0610352,0.663452,0.517456,-0.495209,-0.216095,58694,60335,63929,3160,-30126
1014,28847,3.99082,8.83818,-0.330176,91.7029,-25.6805,-62.5836,1.70898,-6.16455,0.12207,0.6633,0.517426,-0.495392,-0.216248,58693,60340,63931,3160,-30126
1020,28853,4.08174,8.88125,-0.325391,91.7303,-25.675,-62.6276,2.44141,-6.28662,-0.183105,0.663086,0.517395,-0.495636,-0.2164,58692,60347,63934,3160,-30126
1026,28859,4.20615,9.07744,-0.693848,91.8018,-25.6641,-62.7155,3.41797,-5.7373,-0.244141,0.662628,0.517426,-0.496124,-0.216736,58693,60351,63936,3160,-30126
1032,28865,4.27793,9.20664,-0.904395,91.8237,-25.6641,-62.7484,2.31934,-4.02832,-0.305176,0.662384,0.517456,-0.496338,-0.216858,58695,60354,63940,3160,-30126
1038,28871,4.25879,9.27363,-1.0001,91.8347,-25.6586,-62.7649,0.488281,-1.77002,-0.183105,0.662201,0.517456,-0.496521,-0.216949,58697,60316,63947,3160,-30126
1044,28877,4.20615,9.26406,-0.952246,91.8292,-25.6531,-62.7704,-1.52588,0,-0.427246,0.662109,0.517456,-0.496613,-0.217041,58699,60322,63954,3160,-30126
1050,28883,4.12002,9.20664,-0.92832,91.8182,-25.6476,-62.7759,-2.86865,1.34277,-0.244141,0.662109,0.517426,-0.496613,-0.217133,58702,60332,63967,3160,-30126
1056,28889,4.08652,9.0918,-0.880469,91.7798,-25.6421,-62.7704,-4.02832,1.70898,-0.305176,0.662231,0.517273,-0.496521,-0.217316,58702,60335,63972,3160,-30126
1062,28895,4.08174,9.13486,-0.880469,91.7578,-25.6366,-62.7704,-4.63867,1.64795,-0.305176,0.662323,0.517181,-0.49646,-0.217407,58701,60338,63975,3160,-30126
1068,28901,4.12002,9.13486,-0.861328,91.7303,-25.6311,-62.7649,-5.61523,1.95313,-0.305176,0.662415,0.51709,-0.496399,-0.217529,58700,60340,63979,3160,-30126
1074,28907,4.16309,9.09658,-0.775195,91.6974,-25.6311,-62.7594,-6.71387,2.44141,-0.305176,0.662537,0.516937,-0.496307,-0.217651,58699,60344,63982,3160,-30126
1080,28913,4.1248,9.11572,-0.684277,91.6589,-25.6256,-62.7539,-7.62939,3.11279,-0.244141,0.662689,0.516785,-0.496216,-0.217804,58699,60350,63988,3160,-30126
1086,28919,4.14395,8.98174,-0.559863,91.5656,-25.6146,-62.7264,-8.78906,3.90625,-0.305176,0.663086,0.516418,-0.495911,-0.218079,58699,60353,63986,3160,-30126
1092,28925,4.09131,9.00566,-0.598145,91.5161,-25.6146,-62.7155,-8.72803,4.21143,-0.244141,0.6633,0.516235,-0.495758,-0.218231,58700,60356,63986,3160,-30126
1098,28931,4.05781,9.07266,-0.631641,91.4722,-25.6091,-62.699,-9.09424,4.15039,0.0610352,0.663544,0.516052,-0.495575,-0.218384,58699,60359,63983,3160,-30126
1104,28937,4.12002,9.0583,-0.665137,91.4172,-25.6091,-62.6825,-9.64355,4.45557,0,0.663788,0.515839,-0.495422,-0.218506,58698,60360,63979,3160,-30126
1110,28943,4.12959,9.08223,-0.689063,91.3623,-25.6036,-62.6605,-10.437,4.94385,-0.0610352,0.664063,0.515625,-0.495239,-0.218658,58695,60360,63975,3160,-30126
1116,28949,4.16309,8.98174,-0.617285,91.2305,-25.5981,-62.6166,-12.146,5.7373,-0.427246,0.664673,0.515137,-0.494781,-0.218964,58694,60361,63972,3160,-30126
1122,28955,4.16787,8.98174,-0.741699,91.1646,-25.5927,-62.5891,-12.2681,5.79834,-0.854492,0.665009,0.514862,-0.494537,-0.219116,58693,60362,63969,3160,-30126
1128,28961,4.1918,9.12051,-0.76084,91.0931,-25.5872,-62.5616,-12.6343,6.10352,-0.915527,0.665344,0.514618,-0.494263,-0.219299,58692,60363,63965,3160,-30126
1134,28967,4.20615,9.24971,-0.837402,91.0162,-25.5762,-62.5342,-13.9771,6.89697,-1.28174,0.66568,0.514343,-0.493988,-0.219513,58691,60366,63963,3160,-30126
1140,28973,4.22529,9.34541,-0.794336,90.9229,-25.5707,-62.4957,-16.1743,7.75146,-1.34277,0.666077,0.514069,-0.493652,-0.219696,58689,60368,63957,3160,-30126
1146,28979,4.29229,9.25928,-0.717773,90.7086,-25.5487,-62.4078,-19.8364,9.64355,-1.52588,0.667084,0.513336,-0.492859,-0.220184,58688,60368,63950,3160,-30126
1152,28985,4.33535,9.13965,-0.803906,90.5933,-25.5432,-62.3639,-20.6299,9.33838,-1.28174,0.667633,0.512909,-0.492401,-0.220459,58687,60369,63944,3160,-30126
1158,28991,4.46455,9.16357,-0.823047,90.4724,-25.5322,-62.3145,-20.813,10.376,-1.95313,0.668243,0.512482,-0.491913,-0.220734,58687,60369,63938,3160,-30126
1164,28997,4.46934,9.46982,-0.966602,90.3516,-25.5157,-62.254,-21.1182,12.0239,-2.31934,0.668823,0.512054,-0.491425,-0.221008,58685,60369,63933,3160,-30126
1170,29003,4.34971,9.62773,-1.09102,90.2197,-25.4993,-62.1881,-23.0103,12.207,-3.479,0.669464,0.511658,-0.490845,-0.221283,58685,60368,63927,3160,-30126
1176,29009,4.28271,9.33584,-1.50732,89.978,-25.4279,-62.1222,-23.4375,6.22559,-7.20215,0.670685,0.510803,-0.489716,-0.222076,58685,60366,63921,3160,-30126
1182,29015,4.55068,9.78086,-1.4834,89.8462,-25.4004,-62.0782,-25.9399,8.78906,-5.61523,0.671204,0.510406,-0.489166,-0.222626,58685,60366,63910,3160,-30126
1188,29021,4.47412,9.91006,-1.50732,89.6979,-25.3619,-62.0343,-28.3203,8.42285,-6.71387,0.671844,0.509949,-0.488586,-0.223114,58684,60364,63899,3160,-30126
1194,29027,4.51719,9.8,-1.49297,89.5331,-25.329,-61.9849,-31.6772,9.8877,-7.01904,0.672485,0.50943,-0.487946,-0.223694,58681,60362,63889,3160,-30126
1200,29033,4.74688,9.80479,-1.39727,89.3573,-25.2905,-61.9299,-34.3628,10.2539,-7.14111,0.673248,0.50882,-0.487213,-0.224304,58676,60361,63876,3160,-30126
1206,29039,5.44072,10.6422,0.325391,89.1376,-25.1093,-61.9684,-22.7661,-10.3149,-23.0713,0.674683,0.50766,-0.485779,-0.22583,58673,60359,63872,3160,-30126
1212,29045,6.89063,13.3362,-0.617285,89.187,-24.928,-62.1881,-11.9019,-39.5508,-36.7432,0.674652,0.507477,-0.485382,-0.227173,58669,60358,63864,3160,-30126
1218,29051,7.08203,11.537,-3.72285,89.176,-24.7302,-62.3914,-22.7051,-36.377,-41.1377,0.673645,0.507599,-0.485657,-0.229309,58665,60356,63854,3160,-30126
1224,29057,9.54639,11.7476,-1.44033,89.0552,-24.4775,-62.5067,-38.5742,-21.4233,-51.8188,0.672882,0.507568,-0.485626,-0.231689,58660,60356,63845,3160,-30126
1230,29063,10.5704,12.2309,2.20596,88.9948,-24.115,-62.644,-27.4658,-24.7803,-74.7681,0.672668,0.507416,-0.484741,-0.234344,58651,60357,63836,3160,-30126
1236,29069,9.46982,10.6518,-1.0958,88.7531,-23.2635,-62.6111,-25.8179,13.7939,-91.9189,0.671509,0.508972,-0.48172,-0.24057,58645,60360,63835,3160,-30126
1242,29075,7.86201,11.1733,-2.08154,88.6102,-22.7472,-62.4738,-22.8882,25.7568,-106.384,0.671356,0.510345,-0.479065,-0.243256,58638,60322,63833,3160,-30126
1248,29081,5.49814,12.3122,-1.49297,88.4729,-22.1539,-62.3859,-24.8413,17.5171,-122.253,0.671265,0.512238,-0.475769,-0.246002,58630,60291,63829,3160,-30126
1254,29087,4.78994,13.5468,-0.660352,88.3795,-21.5607,-62.4408,-27.3438,-8.8501,-124.084,0.670837,0.514313,-0.472351,-0.249451,58622,60267,63826,3160,-30126
1260,29093,5.75654,12.3936,-1.28721,88.3246,-20.9235,-62.655,-31.5552,-38.5132,-132.385,0.669891,0.516052,-0.469604,-0.253571,58653,60238,63824,3160,-30126
1266,29099,9.45547,11.805,-2.01934,88.2971,-19.5612,-63.1879,-26.3062,-49.1943,-151.062,0.666382,0.518951,-0.465607,-0.263977,58682,60192,63823,3160,-30126
1272,29105,9.50811,11.8815,-2.57441,88.2532,-18.7646,-63.3856,-28.9917,-37.7197,-166.748,0.664246,0.520782,-0.463409,-0.269623,58703,60158,63821,3160,-30126
1278,29111,7.72324,12.0395,-2.09111,88.1653,-17.9022,-63.501,-31.4941,-20.752,-179.81,0.66217,0.52298,-0.460449,-0.275482,58718,60135,63820,3160,-30126
1284,29117,5.3833,11.9103,-2.69883,88.0499,-16.9904,-63.5834,-34.729,-15.8081,-189.941,0.660339,0.525513,-0.456665,-0.281311,58725,60080,63816,3160,-30126
1290,29123,3.19648,12.628,-3.71328,87.995,-16.04,-63.7317,-27.771,-26.9165,-199.158,0.658478,0.528229,-0.452423,-0.287354,58822,60003,63812,3160,-30126
1296,29129,3.37354,17.351,-6.02451,88.1213,-14.1559,-64.5337,-16.6016,-98.938,-197.754,0.652832,0.534027,-0.445221,-0.300476,58854,59942,63812,3160,-30126
1302,29135,6.9002,16.9442,-8.6085,88.1488,-13.2001,-65.1764,-34.1187,-125.793,-202.087,0.648682,0.536255,-0.443298,-0.308228,58874,59895,63814,3160,-30126
1308,29141,9.26406,15.7288,-9.75693,88.0939,-12.2552,-65.7971,-49.9878,-124.207,-200.5,0.644318,0.537689,-0.441742,-0.316986,58936,59819,63817,3160,-30126
1314,29147,8.45059,12.2644,-10.068,87.8247,-11.4532,-66.1926,-82.2144,-81.4819,-171.082,0.64032,0.538696,-0.439911,-0.325836,58985,59759,63823,3160,-30126
1320,29153,8.78076,16.9299,-8.35967,87.4841,-10.7172,-66.3464,-87.4023,-35.4614,-156.555,0.638245,0.538849,-0.437042,-0.333405,59060,59672,63843,3160,-30126
1326,29159,4.98613,19.9063,-5.74219,86.5558,-8.97034,-66.8134,-127.991,-56.5186,-196.594,0.636383,0.53949,-0.428772,-0.346405,59084,59604,63855,3160,-30126
1332,29165,5.11533,14.0827,-8.23525,85.9131,-8.14087,-67.1484,-153.076,-66.1011,-178.223,0.635345,0.539124,-0.423828,-0.354828,59151,59551,63865,3168,-30127
1338,29171,5.3498,9.94834,-9.16836,85.21,-7.39929,-67.4561,-164.551,-62.8662,-161.072,0.634949,0.537567,-0.419189,-0.363342,59203,59508,63870,3168,-30127
1344,29177,4.5459,7.77109,-7.0916,84.4958,-6.78406,-67.7747,-167.847,-66.4063,-137.268,0.635071,0.535431,-0.414612,-0.37146,59242,59433,63870,3168,-30127
1350,29183,4.91914,7.24951,-3.4166,83.8531,-6.28967,-68.0823,-153.137,-64.9414,-114.563,0.635559,0.532684,-0.410614,-0.378937,59345,59312,63869,3168,-30127
1356,29189,1.53604,7.12988,0.550293,82.9797,-5.77881,-68.1482,-88.7451,-3.84521,-37.1094,0.636963,0.528168,-0.404144,-0.389679,59405,59264,63868,3168,-30127
1362,29195,0.516797,6.61787,-0.985742,82.771,-5.75134,-68.2086,-60.4248,-26.3672,-15.564,0.638336,0.526855,-0.401978,-0.391449,59455,59224,63864,3168,-30127
1368,29201,0.995313,6.24941,-2.3208,82.7325,-5.84473,-68.3844,-28.9307,-51.5747,4.69971,0.639008,0.525574,-0.401428,-0.392639,59497,59188,63857,3168,-30127
1374,29207,2.91895,7.05332,-3.56494,82.8314,-6.026,-68.6536,-2.68555,-73.1201,20.3247,0.638885,0.524384,-0.402557,-0.393311,59533,59156,63850,3168,-30127
1380,29213,5.22061,7.92422,-3.61279,83.0017,-6.25122,-68.9502,9.09424,-80.3223,28.3203,0.638031,0.523285,-0.40509,-0.393555,59595,59099,63841,3168,-30127
1386,29219,8.72813,9.17314,-2.89502,83.3752,-6.66321,-69.4116,14.7095,-61.2793,24.4751,0.635803,0.521484,-0.411163,-0.393188,59625,59073,63840,3168,-30127
1392,29225,9.08701,9.4459,-2.6749,83.562,-6.81152,-69.5105,16.4795,-42.7246,17.334,0.634857,0.521057,-0.413696,-0.39267,59656,59049,63842,3168,-30127
1398,29231,8.43623,9.28799,-2.44521,83.7323,-6.92139,-69.5105,15.625,-22.1558,12.085,0.634094,0.521149,-0.415558,-0.391815,59686,59026,63849,3168,-30127
1404,29237,6.94326,8.62285,-1.94756,83.8916,-7.02026,-69.4226,14.8315,-5.00488,12.085,0.633636,0.521667,-0.416718,-0.390625,59716,59004,63856,3168,-30127
1410,29243,5.50293,7.72803,-1.58867,84.0564,-7.14111,-69.2963,17.6392,2.13623,16.9678,0.633514,0.522461,-0.417358,-0.389069,59775,58961,63882,3168,-30127
1416,29249,4.00996,7.11553,-0.890039,84.5453,-7.4762,-69.0765,39.4287,-5.7373,28.6865,0.633453,0.524414,-0.418884,-0.384918,59751,58941,63897,3168,-30127
1422,29255,4.13438,7.38828,-0.722559,84.8804,-7.70691,-69.0161,50.5981,-12.085,37.2925,0.633057,0.525543,-0.420319,-0.382446,59732,58923,63913,3168,-30127
1428,29261,4.49326,7.90029,-0.349316,85.2539,-7.97607,-68.9722,58.8379,-16.2964,44.1895,0.632416,0.526703,-0.422302,-0.3797,59716,58907,63931,3168,-30127
1434,29267,4.70381,8.42188,-0.401953,85.6494,-8.2782,-68.9392,63.2324,-17.6392,50.9033,0.631622,0.527863,-0.424713,-0.37674,59704,58892,63948,3168,-30127
1440,29273,4.78516,8.97217,-0.416309,86.0559,-8.60779,-68.9008,65.6128,-17.0288,57.312,0.630798,0.528961,-0.427368,-0.373535,59695,58900,63987,3168,-30127
1446,29279,4.88086,10.0584,-0.330176,86.825,-9.37683,-68.8568,58.8379,-18.9819,70.9229,0.629333,0.530884,-0.433167,-0.366547,59697,58921,64009,3072,-30128
1452,29285,5.07705,9.70908,-0.775195,87.182,-9.79431,-68.8568,56.1523,-22.8271,75.0122,0.628876,0.531372,-0.436218,-0.362976,59704,58937,64037,3072,-30128
1458,29291,5.70391,9.50811,-0.708203,87.4951,-10.2338,-68.8623,48.645,-21.6064,78.9185,0.628479,0.531616,-0.439423,-0.359436,59663,58948,64070,3072,-30128
1464,29297,5.69912,8.97217,-0.0430664,87.7643,-10.6787,-68.8458,40.4053,-18.1885,80.2002,0.628296,0.531586,-0.442566,-0.355896,59630,58957,64102,3072,-30128
1470,29303,5.86182,8.66113,0.129199,87.995,-11.1292,-68.8293,34.3018,-16.4795,80.2612,0.628387,0.531311,-0.445496,-0.352448,59585,58964,64167,3072,-30128
1476,29309,5.42158,7.0916,1.60303,88.3521,-12.0081,-68.7579,23.4985,-9.76563,80.1392,0.62915,0.530304,-0.450806,-0.345856,59572,58961,64199,3072,-30128
1482,29315,5.22539,6.11064,1.88057,88.5388,-12.453,-68.714,27.771,-8.8501,80.0171,0.629791,0.529602,-0.453247,-0.34256,59566,58997,64233,3072,-30128
1488,29321,4.95742,5.36895,1.95713,88.7695,-12.8979,-68.6865,36.2549,-10.6201,80.1392,0.63031,0.528992,-0.455719,-0.339203,59514,59026,64269,3072,-30128
1494,29327,5.18232,5.03877,2.10068,89.0497,-13.3539,-68.6755,47.5464,-13.0615,81.4819,0.630646,0.528564,-0.458374,-0.335724,59469,59050,64301,3072,-30128
1500,29333,5.6417,5.17275,2.20596,89.3903,-13.8263,-68.67,59.1431,-13.4277,84.0454,0.630646,0.52832,-0.461304,-0.332062,59404,59079,64365,3072,-30128
1506,29339,7.03418,6.16328,1.57432,90.1923,-14.7986,-68.6206,76.4771,-4.76074,88.3789,0.630005,0.528473,-0.467773,-0.323822,59383,59125,64393,3072,-30128
1512,29345,7.4457,6.35469,1.19629,90.5988,-15.304,-68.5437,78.3081,4.5166,90.5762,0.629608,0.52887,-0.471008,-0.319244,59370,59160,64422,3072,-30128
1518,29351,7.55098,6.30205,1.26807,90.9778,-15.8203,-68.4064,76.6602,16.5405,92.4683,0.629364,0.529358,-0.474091,-0.314331,59313,59187,64454,3072,-30128
1524,29357,7.18252,6.00537,1.20586,91.3129,-16.3477,-68.2031,72.8149,30.1514,93.4448,0.629425,0.529877,-0.476837,-0.309113,59265,59208,64486,3072,-30128
1530,29363,6.72793,5.38809,0.885254,91.6425,-16.886,-67.9669,74.2188,38.3911,94.9097,0.629852,0.530396,-0.479187,-0.30368,59193,59306,64549,3072,-30128
1536,29369,5.79961,4.22529,1.36377,92.3016,-17.9517,-67.4176,81.604,48.5229,93.3228,0.631073,0.531708,-0.483307,-0.292145,59169,59340,64581,3072,-30128
1542,29375,5.61777,3.85684,1.56475,92.6752,-18.4845,-67.1265,89.8438,52.7344,93.4448,0.631622,0.532562,-0.485229,-0.286133,59153,59365,64608,3072,-30128
1548,29381,5.34023,3.58408,1.49775,93.0872,-19.0283,-66.8134,101.135,57.6172,93.9331,0.632019,0.53363,-0.487152,-0.279877,59090,59423,64634,3072,-30128
1554,29387,5.07705,3.45488,1.36855,93.5431,-19.5886,-66.4948,111.816,61.7065,96.0083,0.632263,0.535004,-0.489105,-0.273285,59037,59472,64658,3072,-30128
1560,29393,4.92393,3.61758,1.14365,94.032,-20.1544,-66.1652,120.361,65.3076,98.0225,0.632355,0.53656,-0.491089,-0.266357,58960,59541,64699,3072,-30128
1566,29399,4.49326,4.58896,0.45459,95.0757,-21.3409,-65.495,133.911,70.6787,102.783,0.632141,0.540161,-0.495178,-0.251648,58933,59605,64717,3185,-30129
1572,29405,4.40713,5.21104,0.110059,95.6195,-21.9397,-65.1599,137.451,72.2046,102.844,0.631836,0.542084,-0.497284,-0.243958,58913,59656,64736,3185,-30129
1578,29411,4.31143,5.68955,-0.114844,96.1469,-22.5494,-64.8248,135.376,73.8525,104.065,0.631439,0.544067,-0.499359,-0.236206,58848,59697,64753,3185,-30129
1584,29417,4.15352,5.88096,-0.239258,96.6357,-23.1647,-64.4843,129.761,77.2705,105.286,0.631104,0.545898,-0.501373,-0.228424,58792,59731,64768,3185,-30129
1590,29423,3.80898,5.8666,-0.406738,97.0862,-23.7799,-64.1327,124.634,80.7495,105.713,0.630951,0.547546,-0.503235,-0.220703,58704,59850,64791,3185,-30129
1596,29429,3.01465,5.59385,0.00478516,97.9211,-25.0214,-63.4406,116.821,80.9326,105.835,0.631012,0.550354,-0.506561,-0.205444,58670,59891,64797,3185,-30129
1602,29435,2.6749,5.27324,0.119629,98.3057,-25.6421,-63.1165,113.708,79.6509,106.262,0.631104,0.551514,-0.508148,-0.197998,58641,59922,64799,3185,-30129
1608,29441,2.50264,5.0292,0.229688,98.6902,-26.2628,-62.8033,112.366,77.9419,107.239,0.631226,0.552551,-0.509705,-0.190674,58618,59984,64800,3185,-30129
1614,29447,2.24424,4.81865,0.378027,99.0802,-26.8781,-62.5177,112.732,75.0122,106.995,0.631287,0.553436,-0.511292,-0.183441,58599,60036,64800,3185,-30129
1620,29453,2.15332,4.91914,0.311035,99.4867,-27.4933,-62.2595,115.356,71.228,107.788,0.631256,0.554291,-0.512909,-0.176331,58576,60143,64792,3185,-30129
1626,29459,2.32559,5.80918,-0.0717773,100.338,-28.7128,-61.8146,116.882,64.6973,108.948,0.630615,0.555939,-0.51651,-0.162231,58518,60198,64785,3185,-30129
1632,29465,2.39258,6.30205,-0.186621,100.756,-29.3225,-61.6168,113.403,63.5986,108.887,0.630157,0.556702,-0.518402,-0.155304,58470,60279,64774,3185,-30129
1638,29471,2.43086,6.72314,-0.234473,101.14,-29.9213,-61.4246,108.582,63.1714,108.459,0.6297,0.557312,-0.520294,-0.148529,58429,60347,64765,3185,-30129
1644,29477,2.51699,7.10596,-0.406738,101.503,-30.52,-61.2323,103.638,63.2324,107.483,0.629333,0.55777,-0.522095,-0.141907,58393,60405,64756,3185,-30129
1650,29483,2.42607,7.44092,-0.502441,101.832,-31.1023,-61.0345,98.1445,64.6973,105.835,0.629028,0.558105,-0.523804,-0.135437,58339,60526,64732,3185,-30129
1656,29489,1.89971,7.87637,-0.416309,102.36,-32.2394,-60.6006,83.6792,69.519,101.013,0.628876,0.558441,-0.526733,-0.122986,58320,60589,64716,3185,-30129
1662,29495,1.39727,7.90986,-0.234473,102.552,-32.7777,-60.3644,76.7212,70.9229,97.4121,0.629059,0.55838,-0.527893,-0.117065,58304,60636,64699,3185,-30129
1668,29501,0.870898,7.89072,0,102.717,-33.2886,-60.1337,71.167,70.1294,93.3838,0.629395,0.558228,-0.52887,-0.11142,58289,60713,64680,3185,-30129
1674,29507,0.430664,7.84766,0.291895,102.854,-33.7775,-59.903,65.6738,68.0542,89.1113,0.629822,0.558014,-0.529694,-0.106079,58276,60778,64662,3185,-30129
1680,29513,-0.062207,7.79502,0.406738,102.975,-34.2279,-59.6887,60.9131,65.4907,84.1064,0.63028,0.557709,-0.530457,-0.101044,58254,60871,64621,3185,-30129
1686,29519,-1.17236,7.929,0.799121,103.184,-35.0189,-59.3097,55.2979,56.8848,72.4487,0.631165,0.557098,-0.531647,-0.0921326,58248,60942,64594,3185,-30129
1692,29525,-1.71787,8.30703,1.05273,103.304,-35.3485,-59.1669,54.6265,49.7437,66.04,0.63147,0.556885,-0.532166,-0.0882263,58243,61001,64564,3185,-30129
1698,29531,-2.48828,9.38369,1.1915,103.442,-35.6287,-59.0735,52.4292,39.7949,59.082,0.631592,0.556793,-0.532715,-0.0847473,58238,61051,64532,3185,-30129
1704,29537,-2.56484,10.0153,0.703418,103.574,-35.8484,-59.024,46.9971,31.25,51.9409,0.6315,0.556763,-0.533325,-0.0818176,58234,61092,64500,3185,-30129
1710,29543,-2.78975,10.4173,0.62207,103.7,-36.0187,-59.0186,41.0156,21.6675,43.5181,0.631287,0.556763,-0.533936,-0.0794373,58225,61231,64433,3185,-30129
1716,29549,-1.16758,5.32588,0.545508,104.008,-36.1505,-59.1284,37.7197,4.15039,22.8271,0.630371,0.556946,-0.535217,-0.0766296,58220,61284,64400,3185,-30129
1722,29555,-1.88057,10.6326,1.42598,104.172,-36.123,-59.2053,38.6963,0.183105,11.0474,0.629639,0.557343,-0.535767,-0.0760498,58217,61327,64365,3185,-30129
1728,29561,-1.95234,10.7044,1.79922,104.332,-36.0297,-59.2548,40.7715,1.70898,-0.915527,0.628723,0.558014,-0.536133,-0.0758972,58213,61362,64331,3185,-30129
1734,29567,-2.78975,10.9628,2.11982,104.48,-35.8923,-59.2548,45.3491,6.83594,-11.3525,0.627747,0.559052,-0.536163,-0.0759888,58211,61391,64301,3185,-30129
1740,29573,-4.34014,11.671,2.01934,104.645,-35.7166,-59.2218,51.1475,10.498,-18.6768,0.62677,0.560486,-0.535797,-0.0762024,58208,61515,64241,3185,-30129
1746,29579,-6.4791,13.7478,0.239258,105.09,-35.2551,-59.2438,60.1807,-5.31006,-27.2217,0.624329,0.564362,-0.534485,-0.0767822,58205,61566,64216,3185,-30129
1752,29585,-6.29727,15.0445,-0.722559,105.403,-34.9585,-59.3756,60.9131,-21.3623,-31.25,0.622589,0.56662,-0.534058,-0.0774536,58200,61612,64190,3185,-30129
1758,29591,-5.37373,16.2456,-1.29678,105.716,-34.6289,-59.5569,55.9082,-31.9214,-35.7666,0.620422,0.568939,-0.533905,-0.0786743,58195,61652,64166,3185,-30129
1764,29597,-3.99561,16.8581,-1.6748,105.969,-34.2664,-59.7272,44.0674,-31.9214,-40.6494,0.618103,0.571259,-0.533905,-0.0803528,58191,61687,64142,3185,-30129
1770,29603,-2.90459,16.4896,-1.88057,106.095,-33.8873,-59.826,26.7944,-22.4609,-47.6685,0.616028,0.573334,-0.533752,-0.0824585,58179,61750,64100,3185,-30129
1776,29609,-2.11982,14.4416,-1.84707,105.963,-33.0469,-59.7766,-5.98145,0.12207,-66.3452,0.61377,0.576813,-0.531799,-0.087616,58173,61779,64084,3185,-30129
1782,29615,-2.59355,13.3889,-1.90449,105.732,-32.5745,-59.6558,-22.644,7.8125,-76.8433,0.613525,0.578278,-0.529907,-0.0906982,58168,61808,64074,3185,-30129
1788,29621,-2.46914,12.3601,-1.49297,105.43,-32.0581,-59.502,-32.1655,12.207,-86.1816,0.613861,0.57959,-0.527496,-0.0942383,58164,61793,64064,3185,-30129
1794,29627,-3.42617,10.2737,-0.119629,105.112,-31.5143,-59.3097,-34.0576,16.5405,-92.5903,0.614441,0.580872,-0.524658,-0.0981445,58160,61781,64056,3185,-30129
1800,29633,-3.76592,8.90518,1.27764,104.832,-30.9595,-59.1284,-26.4282,15.9302,-94.7876,0.615143,0.582275,-0.521545,-0.102142,58151,61766,64039,3072,-30128
1806,29639,-19.5617,72.1075,-27.4477,106.749,-28.559,-60.1337,212.524,-164.307,-211.304,0.609955,0.589661,-0.517242,-0.112213,58146,61764,64030,3072,-30128
1812,29645,-34.4627,88.2239,-77.7923,106.254,-27.9437,-59.7766,-63.1714,39.2456,-115.417,0.599487,0.599335,-0.516998,-0.118317,58141,61769,64019,3072,-30128
1818,29651,-11.5322,34.1373,-42.7602,105.134,-27.9382,-59.2877,-179.138,96.3745,-4.82178,0.601044,0.60083,-0.512421,-0.12265,58136,61739,64011,3072,-30128
1824,29657,-9.27842,37.8793,-21.6959,103.892,-27.9712,-59.2603,-249.268,19.6533,25.6348,0.607422,0.597137,-0.508636,-0.125092,58130,61715,64003,3072,-30128
1830,29663,7.00068,22.6577,-13.4894,101.992,-28.1854,-59.4965,-407.043,-18.7988,69.8853,0.613953,0.590485,-0.507263,-0.130249,58112,61692,63982,3072,-30128
1836,29669,12.7668,-3.43096,5.9958,98.064,-28.515,-59.079,-354.187,62.8662,45.3491,0.634644,0.567017,-0.504333,-0.145844,58152,61681,63965,3072,-30128
1842,29675,10.9484,-1.94756,10.69,96.3116,-28.6688,-58.4528,-294.373,124.634,34.3018,0.644501,0.557007,-0.501282,-0.151489,58185,61665,63943,3072,-30128
1848,29681,10.1924,-5.42158,11.3456,94.8889,-28.8171,-57.5409,-202.576,172.546,30.5176,0.654053,0.549225,-0.496552,-0.154572,58212,61684,63913,3072,-30128
1854,29687,8.02471,-4.37842,11.3504,93.8068,-28.916,-56.5796,-126.77,180.42,23.1934,0.662354,0.544342,-0.490906,-0.154572,58235,61697,63882,3072,-30128
1860,29693,4.9,-3.48838,7.78545,93.0487,-28.8721,-55.7007,-70.6177,164.734,-2.0752,0.668915,0.541748,-0.485321,-0.152985,58262,61699,63797,3072,-30128
1866,29699,0.277539,1.71787,6.95283,92.5983,-28.3667,-54.4867,41.0156,97.168,-49.6216,0.67627,0.54245,-0.475159,-0.150085,58264,61736,63742,3072,-30128
1872,29705,-5.40244,10.9771,7.68018,92.8564,-28.0975,-54.3329,65.1245,35.8276,-39.3066,0.676575,0.545624,-0.471375,-0.149078,58313,61765,63681,3072,-30128
1878,29711,-4.64639,13.0922,0.995313,93.0981,-27.8943,-54.6075,22.8882,-39.5508,-20.874,0.67514,0.548859,-0.469757,-0.148773,58354,61791,63618,3072,-30128
1884,29717,-0.952246,9.30234,-5.23496,93.4167,-27.735,-55.1294,13.7939,-83.313,-10.0098,0.673309,0.549988,-0.47049,-0.150635,58389,61815,63559,3072,-30128
1890,29723,3.25391,9.66602,-3.78984,93.7079,-27.6031,-55.7117,2.80762,-94.1162,-4.27246,0.670837,0.550354,-0.472717,-0.153381,58445,61861,63453,3072,-30128
1896,29729,8.74727,11.0824,-3.86641,94.0045,-27.334,-56.5302,-13.4277,-45.7764,-7.56836,0.666443,0.549866,-0.477478,-0.159363,58470,61881,63415,3072,-30128
1902,29735,9.4459,11.8528,-5.75654,93.8617,-27.2406,-56.5082,-28.7476,10.1318,-6.34766,0.665436,0.549591,-0.478455,-0.16156,58494,61858,63386,3072,-30128
1908,29741,8.23047,12.9486,-5.91924,93.4717,-27.1527,-56.2445,-56.8237,53.5889,-8.60596,0.665985,0.549255,-0.477753,-0.162628,58518,61879,63366,3072,-30128
1914,29747,5.79482,12.4653,-4.44063,92.8564,-27.0758,-55.8215,-87.1582,81.9092,-8.17871,0.668091,0.548431,-0.475525,-0.163239,58540,61898,63350,3072,-30128
1920,29753,4.08174,10.6613,-2.90459,92.1313,-27.0099,-55.3601,-107.239,88.7451,-6.22559,0.671509,0.546906,-0.47229,-0.163757,58578,61892,63316,3072,-30128
1926,29759,3.11035,7.8333,0.837402,90.7196,-26.8781,-54.5691,-106.567,71.5942,-4.15039,0.679504,0.54245,-0.465363,-0.165283,58592,61908,63296,3072,-30128
1932,29765,3.33525,7.18252,1.56953,90.1373,-26.8066,-54.2889,-95.6421,56.5186,-5.18799,0.683136,0.540161,-0.462372,-0.16626,58602,61920,63270,3072,-30128
1938,29771,3.58887,7.19209,2.15332,89.6484,-26.7297,-54.0582,-80.8105,48.4009,-5.18799,0.686157,0.538086,-0.459869,-0.167389,58609,61929,63239,3072,-30128
1944,29777,3.66064,7.49356,2.2873,89.2365,-26.6583,-53.8715,-69.1528,41.2598,-4.5166,0.68869,0.536377,-0.457733,-0.168427,58613,61936,63208,3072,-30128
1950,29783,3.38789,7.49356,2.10547,88.8849,-26.5814,-53.7177,-58.7769,34.9731,-6.22559,0.690796,0.534912,-0.455902,-0.169342,58613,61943,63138,3072,-30128
1956,29789,3.68936,8.36445,1.21064,88.3301,-26.4386,-53.4814,-45.5933,26.3672,-4.57764,0.694,0.532776,-0.452911,-0.171112,58611,61943,63104,3072,-30128
1962,29795,3.75156,8.50322,0.756055,88.0719,-26.3617,-53.399,-46.5088,22.2778,-5.98145,0.695282,0.531891,-0.451691,-0.171906,58606,61942,63071,3072,-30128
1968,29801,4.08174,8.33574,1.19629,87.8247,-26.3013,-53.3167,-44.6167,21.3013,-3.72314,0.696503,0.530945,-0.450562,-0.172852,58600,61940,63040,3072,-30128
1974,29807,4.13438,8.21133,1.12451,87.605,-26.2408,-53.2452,-40.5884,19.7144,-4.57764,0.697662,0.529999,-0.449524,-0.173676,58595,61937,63013,3072,-30128
1980,29813,4.23008,8.34531,1.33506,87.3962,-26.1804,-53.1793,-36.9873,19.2261,-4.08936,0.69873,0.529144,-0.448547,-0.1745,58580,61929,62966,3072,-30128
1986,29819,4.18701,8.33096,1.0958,87.0337,-26.0596,-53.0695,-31.7993,16.2354,-4.69971,0.700592,0.52774,-0.446777,-0.175995,58623,61924,62942,3072,-30128
1992,29825,4.00039,8.55107,1.37813,86.8689,-26.0101,-53.009,-29.2969,16.5405,-3.90625,0.701385,0.5271,-0.445953,-0.176666,58660,61920,62920,3072,-30128
1998,29831,3.74199,8.21611,1.37334,86.7151,-25.9552,-52.9761,-28.6865,13.0005,-4.45557,0.702148,0.52652,-0.44519,-0.177277,58693,61917,62897,3072,-30128
2004,29837,3.85684,8.24961,1.52646,86.5887,-25.9003,-52.9431,-23.6816,12.0239,-4.15039,0.70285,0.52594,-0.444519,-0.177979,58722,61914,62878,3072,-30128
2010,29843,3.79941,8.37402,1.68916,86.4789,-25.8563,-52.9266,-20.6299,9.27734,-3.72314,0.70343,0.525482,-0.443909,-0.178558,58766,61909,62837,3072,-30128
2016,29849,3.8377,8.14434,1.6126,86.3251,-25.7794,-52.9211,-13.4277,4.63867,-2.74658,0.704254,0.524719,-0.443054,-0.179657,58785,61905,62815,3072,-30128
2022,29855,3.97646,8.2209,1.46904,86.2921,-25.741,-52.9376,-8.60596,2.56348,-2.44141,0.704468,0.524475,-0.44278,-0.180176,58802,61902,62792,3072,-30128
2028,29861,4.01953,8.42666,1.16758,86.2756,-25.708,-52.9651,-5.61523,0.366211,-2.19727,0.704559,0.524323,-0.442627,-0.180634,58817,61899,62771,3072,-30128
2034,29867,4.31621,8.7042,0.856543,86.2701,-25.6805,-52.998,-2.74658,-0.183105,-2.13623,0.704559,0.524231,-0.442566,-0.181061,58830,61896,62752,3072,-30128
2040,29873,4.26357,9.03916,0.421094,86.2701,-25.6476,-53.031,-2.38037,-0.732422,-1.95313,0.704498,0.524231,-0.442566,-0.181427,58852,61968,62723,3072,-30128
2046,29879,4.32578,9.11094,0.421094,86.2372,-25.5981,-53.075,-6.22559,1.46484,-0.976563,0.704376,0.524139,-0.442535,-0.182159,58864,61998,62714,3072,-30128
2052,29885,4.34971,8.88125,0.598145,86.2042,-25.5817,-53.0859,-7.14111,2.56348,-0.488281,0.704407,0.524017,-0.442474,-0.182495,58873,62025,62705,3072,-30128
2058,29891,4.29707,8.7377,0.870898,86.1713,-25.5597,-53.0914,-6.65283,3.479,-0.427246,0.704529,0.523865,-0.442352,-0.182831,58880,62050,62697,3072,-30128
2064,29897,4.19658,8.64199,0.976172,86.1438,-25.5432,-53.0969,-5.43213,3.84521,-0.183105,0.704651,0.523712,-0.442261,-0.183105,58886,62073,62690,3072,-30128
2070,29903,4.06738,8.68506,1.0001,86.1218,-25.5267,-53.0969,-4.02832,3.60107,0.12207,0.704742,0.52359,-0.442139,-0.183319,58891,62110,62674,3072,-30128
2076,29909,4.05781,8.72813,0.756055,86.0999,-25.5103,-53.1244,-1.95313,1.58691,0.976563,0.704865,0.523407,-0.442017,-0.183685,58891,62124,62668,3072,-30128
2082,29915,4.13916,8.7999,0.693848,86.0944,-25.5048,-53.1409,-1.0376,0.915527,1.28174,0.704834,0.523346,-0.442017,-0.183868,58892,62137,62663,3072,-30128
2088,29921,4.22051,8.89082,0.617285,86.0999,-25.4993,-53.1628,-0.732422,0.488281,1.58691,0.704803,0.523285,-0.442078,-0.184021,58893,62149,62656,3072,-30128
2094,29927,4.28271,8.82383,0.665137,86.0999,-25.4938,-53.1848,-0.549316,0.366211,1.58691,0.704773,0.523224,-0.442139,-0.184174,58894,62160,62651,3072,-30128
2100,29933,4.29707,9.13965,0.325391,86.0944,-25.4938,-53.2013,-1.95313,0.610352,2.0752,0.704742,0.523163,-0.44223,-0.184326,58897,62181,62640,3072,-30128
2106,29939,4.40234,8.575,0.933105,86.0504,-25.4938,-53.2233,-4.27246,1.95313,2.0752,0.704803,0.522858,-0.442322,-0.184601,58899,62190,62639,3072,-30128
2112,29945,4.321,8.24482,1.24893,86.0449,-25.4938,-53.2343,-0.610352,1.95313,1.64795,0.704895,0.522705,-0.442352,-0.184753,58902,62199,62634,3072,-30128
2118,29951,4.18701,8.41709,1.17236,86.0614,-25.4938,-53.2452,3.11279,1.70898,1.52588,0.704895,0.522644,-0.442383,-0.184845,58905,62207,62629,3072,-30128
2124,29957,4.16787,8.8334,0.77998,86.0834,-25.4938,-53.2617,4.82178,0.793457,1.58691,0.704803,0.522675,-0.442444,-0.184875,58907,62213,62620,3072,-30128
2130,29963,4.21572,9.04873,0.44502,86.1053,-25.4938,-53.2782,3.66211,0.305176,2.01416,0.704681,0.522766,-0.442566,-0.184875,58911,62224,62605,3072,-30128
2136,29969,4.32578,8.98174,0.468945,86.1218,-25.5048,-53.3167,0.427246,0.549316,2.62451,0.704468,0.522797,-0.44281,-0.184937,58912,62228,62603,3072,-30128
2142,29975,4.29707,8.85732,0.674707,86.1218,-25.5103,-53.3276,0,1.2207,2.62451,0.704437,0.522736,-0.442902,-0.184998,58913,62232,62602,3072,-30128
2148,29981,4.33057,8.7377,0.746484,86.1218,-25.5212,-53.3386,0.610352,1.34277,2.68555,0.704437,0.522675,-0.442993,-0.185028,58914,62235,62600,3072,-30128
2154,29987,4.29707,8.68984,0.598145,86.1273,-25.5267,-53.3496,1.83105,1.0376,2.56348,0.704407,0.522614,-0.443085,-0.185059,58915,62237,62595,3072,-30128
2160,29993,4.30664,8.8334,0.401953,86.1438,-25.5322,-53.3661,2.92969,0.366211,2.56348,0.704376,0.522583,-0.443176,-0.185059,58913,62246,62585,3072,-30128
2166,29999,4.35449,9.11094,0.440234,86.1658,-25.5487,-53.3936,0.793457,0.610352,2.99072,0.704193,0.522583,-0.443451,-0.185028,58911,62249,62582,3072,-30128
2172,30005,4.4167,8.95303,0.784766,86.1548,-25.5597,-53.399,-1.2207,1.70898,3.23486,0.704163,0.522522,-0.443573,-0.185059,58910,62212,62581,3072,-30128
2178,30011,4.40234,8.61328,1.0623,86.1438,-25.5707,-53.4045,-1.2207,2.74658,3.17383,0.704224,0.5224,-0.443634,-0.185059,58909,62177,62581,3072,-30128
2184,30017,4.30186,8.4123,1.01445,86.1438,-25.5817,-53.4045,1.40381,2.74658,3.11279,0.704285,0.522278,-0.443695,-0.185059,58910,62188,62579,3072,-30128
2190,30023,4.10088,8.48887,0.803906,86.1603,-25.5927,-53.41,4.3335,1.58691,2.99072,0.704285,0.522247,-0.443756,-0.184998,58913,62127,62575,3072,-30128
2196,30029,4.03389,8.96738,0.574219,86.2152,-25.6201,-53.454,4.63867,-1.64795,3.41797,0.704071,0.522339,-0.444031,-0.184814,58915,62102,62571,3072,-30128
2202,30035,4.21572,8.90996,0.722559,86.2372,-25.6366,-53.4814,3.2959,-2.38037,3.96729,0.703918,0.522369,-0.444244,-0.184784,58917,62120,62571,3072,-30128
2208,30041,4.33057,8.69941,0.875684,86.2592,-25.6531,-53.5034,3.05176,-1.77002,4.08936,0.703796,0.522308,-0.444519,-0.184784,58920,62136,62571,3072,-30128
2214,30047,4.37363,8.61328,0.976172,86.2866,-25.6696,-53.5309,4.57764,-2.0752,3.54004,0.703705,0.522278,-0.444733,-0.184753,58921,62150,62573,3072,-30128
2220,30053,4.27314,8.56065,0.947461,86.3196,-25.686,-53.5583,6.34766,-2.50244,3.60107,0.703552,0.522278,-0.444977,-0.184723,58922,62175,62576,3072,-30128
2226,30059,4.22529,8.76162,0.593359,86.4294,-25.7135,-53.6462,9.39941,-5.43213,3.05176,0.703094,0.5224,-0.445557,-0.184631,58921,62186,62578,3072,-30128
2232,30065,4.30664,8.88125,0.497656,86.4899,-25.7245,-53.6957,9.52148,-6.71387,2.86865,0.702789,0.522522,-0.445923,-0.184601,58922,62196,62580,3072,-30128
2238,30071,4.34971,8.87646,0.617285,86.5503,-25.741,-53.7506,8.8501,-7.08008,3.05176,0.702454,0.522644,-0.44635,-0.184601,58921,62163,62582,3072,-30128
2244,30077,4.42148,8.74727,0.784766,86.6052,-25.7574,-53.8,8.36182,-6.89697,2.99072,0.702118,0.522736,-0.446747,-0.184631,58921,62133,62586,3072,-30128
2250,30083,4.41191,8.59414,0.904395,86.6602,-25.7684,-53.8495,8.8501,-6.10352,2.99072,0.701782,0.522827,-0.447144,-0.184631,58922,62084,62591,3072,-30128
2256,30089,4.1248,8.58457,0.823047,86.792,-25.7959,-53.9484,11.5356,-6.5918,2.80762,0.701141,0.523071,-0.447906,-0.184601,58923,62063,62595,3072,-30128
2262,30095,4.05303,8.63242,0.727344,86.8744,-25.8124,-54.0088,13.0615,-8.78906,2.74658,0.700745,0.523224,-0.448334,-0.18457,58927,62044,62598,3072,-30128
2268,30101,4.09131,8.66592,0.631641,86.9623,-25.8289,-54.0802,13.855,-10.437,3.17383,0.700287,0.523438,-0.448822,-0.18454,58930,62027,62601,3072,-30128
2274,30107,4.17266,8.76641,0.574219,87.0612,-25.8453,-54.1626,14.3433,-11.8408,3.17383,0.699799,0.523651,-0.449371,-0.184509,58935,62013,62603,3072,-30128
2280,30113,4.254,8.75205,0.569434,87.1545,-25.8618,-54.2395,14.3433,-12.3291,3.66211,0.699249,0.523865,-0.449951,-0.18454,58943,61987,62610,3072,-30128
2286,30119,4.36406,8.70898,0.512012,87.3578,-25.9003,-54.4043,15.0146,-12.3291,3.2959,0.698151,0.524261,-0.451202,-0.18454,58946,61977,62617,3072,-30128
2292,30125,4.34971,8.74248,0.521582,87.4567,-25.9167,-54.4867,15.3809,-12.3901,3.05176,0.697571,0.524475,-0.451813,-0.184509,58949,61966,62624,3072,-30128
2298,30131,4.29707,8.75205,0.526367,87.5665,-25.9332,-54.5691,15.8691,-13.0615,3.05176,0.696991,0.524719,-0.452423,-0.184509,58951,61957,62632,3072,-30128
2304,30137,4.22529,8.75205,0.545508,87.6709,-25.9497,-54.657,15.8691,-13.5498,3.05176,0.696411,0.524963,-0.453064,-0.184509,58953,61950,62638,3072,-30128
2310,30143,4.2875,8.65635,0.550293,87.7808,-25.9662,-54.7449,16.2964,-14.5264,3.17383,0.695801,0.525208,-0.453705,-0.184509,58958,61939,62647,3072,-30128
2316,30149,4.37363,8.62764,0.215332,88.0334,-25.9991,-54.9481,19.165,-16.9067,2.50244,0.694489,0.525726,-0.455109,-0.18454,58963,61935,62650,3072,-30128
2322,30155,4.4167,8.84297,0.215332,88.1653,-26.0101,-55.0525,19.104,-16.8457,2.50244,0.693726,0.526031,-0.455872,-0.18457,58968,61932,62655,3072,-30128
2328,30161,4.48369,8.94346,0.15791,88.2916,-26.0211,-55.1569,18.1885,-16.8457,2.0752,0.692993,0.526367,-0.456635,-0.184601,58973,61928,62662,3072,-30128
2334,30167,4.49326,8.92432,0.16748,88.407,-26.0321,-55.2502,16.2964,-15.8081,1.77002,0.692261,0.526672,-0.457367,-0.184631,58927,61925,62669,3072,-30128
2340,30173,4.51719,8.81426,0.267969,88.5059,-26.0431,-55.3436,14.7095,-14.5874,1.70898,0.691589,0.526917,-0.458038,-0.184723,58945,61922,62687,3072,-30128
2346,30179,4.2875,8.59414,0.46416,88.7036,-26.0596,-55.5194,14.3433,-13.7939,1.34277,0.690399,0.527374,-0.459259,-0.184875,58903,61921,62696,3072,-30128
2352,30185,4.4167,8.59414,0.339746,88.808,-26.0651,-55.6018,14.8926,-13.7939,1.58691,0.689819,0.527588,-0.459869,-0.184967,58867,61922,62704,3072,-30128
2358,30191,4.46934,8.5415,0.215332,88.9178,-26.076,-55.6952,16.6016,-14.2212,1.34277,0.68924,0.527802,-0.46048,-0.185028,58835,61923,62710,3072,-30128
2364,30197,4.34014,8.5415,0.0957031,89.0442,-26.087,-55.7886,18.6768,-15.2588,1.46484,0.688599,0.528076,-0.461121,-0.185059,58807,61925,62715,3072,-30128
2370,30203,4.2875,8.67549,-0.239258,89.1815,-26.0925,-55.8929,20.5688,-17.0898,1.52588,0.687866,0.528412,-0.461792,-0.185089,58762,61926,62738,3072,-30128
2376,30209,4.50283,9.27363,-0.746484,89.4562,-26.1145,-56.1182,18.5547,-18.1274,2.01416,0.686249,0.529144,-0.463348,-0.18515,58744,61927,62749,3072,-30128
2382,30215,4.70859,9.4124,-0.75127,89.566,-26.1255,-56.217,14.4043,-15.9912,2.31934,0.685455,0.529449,-0.464111,-0.185211,58728,61929,62759,3072,-30128
2388,30221,4.79473,9.35498,-0.655566,89.6375,-26.142,-56.2939,9.94873,-11.7798,2.80762,0.684845,0.529633,-0.464813,-0.185303,58714,61931,62767,3072,-30128
2394,30227,4.83301,9.18272,-0.579004,89.6924,-26.153,-56.3489,6.89697,-8.11768,2.38037,0.684387,0.529724,-0.465332,-0.185364,58703,61934,62773,3072,-30128
2400,30233,4.70381,9.06787,-0.449805,89.7198,-26.1639,-56.3763,4.39453,-3.84521,2.56348,0.684082,0.529755,-0.465729,-0.185394,58689,61938,62792,3072,-30128
2406,30239,4.26836,8.97695,0.0143555,89.7363,-26.1969,-56.4038,0.488281,0,3.11279,0.683838,0.529724,-0.466125,-0.185333,58682,61940,62805,3072,-30128
2412,30245,4.15352,8.79033,0.239258,89.7308,-26.2079,-56.4203,-0.427246,-0.976563,2.92969,0.683868,0.529633,-0.466248,-0.185303,58676,61942,62818,3072,-30128
2418,30251,4.12002,8.44102,0.172266,89.7418,-26.2244,-56.4478,0.671387,-3.60107,2.99072,0.683868,0.52948,-0.4664,-0.185303,58671,61945,62827,3072,-30128
2424,30257,4.34492,8.27354,0.0143555,89.7748,-26.2408,-56.4917,3.84521,-5.92041,2.68555,0.683777,0.529358,-0.466614,-0.185364,58667,61948,62837,3072,-30128
2430,30263,4.56982,8.42666,-0.31582,89.8297,-26.2463,-56.5466,7.56836,-8.23975,1.89209,0.683594,0.529327,-0.466919,-0.185394,58663,61950,62849,3072,-30128
2436,30269,4.96221,9.13965,-0.732129,89.9396,-26.2573,-56.6565,5.49316,-7.99561,0.366211,0.682892,0.52951,-0.467712,-0.185516,58662,61950,62855,3072,-30128
2442,30275,5.24453,9.1875,-0.904395,89.9615,-26.2573,-56.6949,1.83105,-5.5542,-0.671387,0.682587,0.529541,-0.468048,-0.185608,58661,61951,62861,3072,-30128
2448,30281,5.42637,9.13965,-1.08145,89.9561,-26.2518,-56.7114,-1.89209,-1.15967,-1.40381,0.682434,0.529541,-0.468262,-0.18576,58659,61953,62867,3072,-30128
2454,30287,5.36895,9.26885,-0.990527,89.9231,-26.2408,-56.6949,-5.37109,3.72314,-2.80762,0.682404,0.52948,-0.468292,-0.185913,58657,61955,62874,3072,-30128
2460,30293,5.06748,9.26406,-0.607715,89.8572,-26.2189,-56.6565,-10.0708,8.17871,-4.02832,0.682587,0.529358,-0.46814,-0.186035,58653,61957,62885,3072,-30128
2466,30299,4.78037,8.39795,0.0765625,89.6814,-26.1694,-56.5686,-13.0005,9.09424,-6.71387,0.68338,0.528931,-0.467285,-0.186401,58651,61957,62891,3072,-30128
2472,30305,4.66074,8.23047,-0.0287109,89.6155,-26.131,-56.5356,-10.6201,6.53076,-8.54492,0.683807,0.528748,-0.466797,-0.186646,58649,61957,62896,3072,-30128
2478,30311,4.59854,8.48887,-0.062207,89.566,-26.0815,-56.5247,-8.54492,3.90625,-9.94873,0.684082,0.528625,-0.46637,-0.186981,58648,61956,62899,3072,-30128
2484,30317,4.66074,8.89082,-0.244043,89.5221,-26.0376,-56.5192,-8.54492,2.74658,-10.376,0.684265,0.528564,-0.466034,-0.187378,58645,61956,62900,3072,-30128
2490,30323,4.74688,9.20664,-0.100488,89.4617,-25.9882,-56.5027,-11.2305,4.3335,-10.6201,0.684418,0.528534,-0.465698,-0.187775,58641,61956,62899,3072,-30128
2496,30329,4.64639,8.91475,-0.239258,89.2859,-25.8893,-56.4313,-14.9536,9.09424,-11.2915,0.684967,0.528229,-0.464813,-0.18869,58640,61957,62900,3072,-30128
2502,30335,4.50762,8.96738,-0.516797,89.1925,-25.8344,-56.3873,-15.3809,9.82666,-11.5356,0.685394,0.528076,-0.464203,-0.189117,58640,61958,62901,3072,-30128
2508,30341,4.60332,9.13008,-0.756055,89.0991,-25.7794,-56.3489,-15.8691,7.56836,-11.7798,0.685822,0.527893,-0.463593,-0.189545,58639,61959,62903,3072,-30128
2514,30347,4.62246,9.21621,-1.03359,89.0057,-25.7245,-56.3214,-17.2119,6.46973,-12.3291,0.686218,0.52771,-0.463043,-0.190033,58637,61959,62901,3072,-30128
2520,30353,4.7708,9.37412,-1.07666,88.9014,-25.6641,-56.2939,-19.5313,7.38525,-13.0615,0.686584,0.527496,-0.462494,-0.190582,58629,61962,62894,3072,-30128
2526,30359,4.93828,9.67559,-0.545508,88.6047,-25.5322,-56.1896,-28.9307,12.6343,-13.7939,0.687622,0.526886,-0.461151,-0.191833,58625,61963,62891,3072,-30128
2532,30365,5.17754,9.19707,-0.0957031,88.4454,-25.4498,-56.1456,-29.1138,9.0332,-17.1509,0.688385,0.526398,-0.460266,-0.192535,58622,61963,62888,3072,-30128
2538,30371,4.87607,8.64678,-0.258398,88.2916,-25.3619,-56.0907,-27.4048,11.6577,-19.043,0.689026,0.52597,-0.459442,-0.19339,58619,61964,62884,3072,-30128
2544,30377,5.13447,8.77119,0.287109,88.1543,-25.2576,-56.0358,-24.292,11.7798,-21.1792,0.689667,0.525635,-0.458496,-0.194183,58616,61964,62882,3072,-30128
2550,30383,4.62725,8.85254,0.229688,88.028,-25.1477,-55.9808,-22.8882,12.3901,-23.4375,0.690247,0.525421,-0.45755,-0.195007,58607,61965,62876,3072,-30128
2556,30389,3.5793,8.79033,0.947461,87.7588,-24.95,-55.8435,-21.4233,15.0757,-20.0806,0.691345,0.525177,-0.455475,-0.196564,58602,61967,62871,3072,-30128
2562,30395,3.88555,9.02959,0.784766,87.6654,-24.8511,-55.8051,-16.2964,9.09424,-20.3857,0.691925,0.525055,-0.454468,-0.197235,58595,61969,62864,3072,-30128
2568,30401,3.52188,8.61328,1.00488,87.6874,-24.7137,-55.9039,-4.45557,-14.5264,-29.0527,0.692261,0.525024,-0.453674,-0.197937,58588,61971,62857,3072,-30128
2574,30407,3.56494,8.10606,0.181836,87.7203,-24.6149,-55.9863,-0.854492,-12.2681,-22.1558,0.691772,0.525299,-0.453522,-0.199249,58582,61973,62851,3072,-30128
2580,30413,4.88564,9.41719,1.29199,87.8467,-24.4995,-56.1621,11.1694,-28.5034,-26.001,0.691315,0.525574,-0.453461,-0.200226,58569,61979,62839,3072,-30128
2586,30419,3.92861,12.9295,-2.84238,88.3466,-24.1589,-56.8927,17.0898,-81.543,-41.626,0.688507,0.527008,-0.454865,-0.203003,58613,61982,62836,3072,-30128
2592,30425,6.57959,12.494,-1.89971,88.6102,-23.9172,-57.4695,4.39453,-103.088,-52.1851,0.686096,0.527618,-0.456573,-0.205811,58653,61987,62835,3072,-30128
2598,30431,12.9438,12.7812,4.85215,88.8629,-23.6261,-58.1012,-0.549316,-113.831,-63.2935,0.683411,0.527863,-0.458557,-0.209625,58689,61991,62834,3072,-30128
2604,30437,17.93,11.0585,9.38848,89.0881,-23.1976,-58.5901,6.95801,-88.3179,-91.8579,0.680573,0.528015,-0.460541,-0.214081,58722,61998,62840,3072,-30128
2610,30443,15.1737,6.89541,4.69902,89.22,-22.6758,-58.6945,20.0806,-18.1885,-110.535,0.677826,0.529114,-0.461182,-0.218597,58690,61939,62862,3072,-30128
2616,30449,7.50791,8.52715,3.36396,89.4727,-21.4563,-58.2495,54.4434,48.8892,-137.451,0.674927,0.535156,-0.456055,-0.223572,58679,61920,62879,3072,-30128
2622,30455,3.78506,9.71387,1.94756,89.7363,-20.7642,-58.1067,66.3452,27.4658,-145.874,0.673401,0.539734,-0.452087,-0.22522,58667,61910,62894,3072,-30128
2628,30461,1.94277,9.68516,1.0623,90.0659,-20.061,-58.1232,68.9697,-1.89209,-147.705,0.671082,0.544556,-0.448639,-0.227386,58656,61903,62908,3072,-30128
2634,30467,1.69873,9.66602,1.21543,90.4834,-19.3744,-58.299,76.1719,-32.8369,-145.081,0.668091,0.549164,-0.446014,-0.230286,58644,61863,62919,3072,-30128
2640,30473,3.25869,9.8,1.01924,90.9833,-18.6603,-58.6395,82.4585,-64.6362,-148.682,0.664307,0.553558,-0.444427,-0.233704,58712,61779,62944,3072,-30128
2646,30479,5.80439,9.71865,-0.272754,92.1588,-17.1552,-59.5679,96.8628,-96.7407,-159.607,0.654358,0.562225,-0.443573,-0.242554,58736,61737,62957,3072,-30128
2652,30485,6.33076,9.82393,-0.90918,92.785,-16.3367,-60.0568,101.624,-100.769,-167.786,0.64859,0.566742,-0.443604,-0.247467,58754,61666,62972,3072,-30128
2658,30491,5.98145,10.2115,-1.34941,93.4058,-15.4742,-60.5347,102.539,-101.929,-176.636,0.642517,0.571442,-0.443542,-0.252563,58771,61607,62987,3072,-30128
2664,30497,5.80439,11.0585,-2.23945,94.0375,-14.5679,-61.0236,104.736,-107.056,-184.692,0.63623,0.576294,-0.443268,-0.257843,58782,61563,63007,3072,-30128
2670,30503,5.61299,11.7906,-2.72754,94.6527,-13.6121,-61.5344,101.746,-116.333,-193.42,0.629669,0.581268,-0.442902,-0.263397,58796,61442,63059,3072,-30128
2676,30509,6.89541,14.6952,-5.546,95.8337,-11.5137,-62.6385,93.1396,-135.193,-215.759,0.615692,0.591095,-0.441956,-0.275879,58797,61366,63092,3072,-30128
2682,30515,8.1874,16.303,-6.77578,96.3116,-10.3711,-63.1934,74.8291,-136.658,-225.891,0.608276,0.595856,-0.441284,-0.28299,58796,61309,63133,3072,-30128
2688,30521,8.36924,17.5998,-7.60361,96.6357,-9.21753,-63.6218,50.1099,-115.845,-231.201,0.601135,0.600281,-0.440063,-0.29068,58794,61220,63176,3072,-30128
2694,30527,8.25918,19.2411,-8.39795,96.8115,-8.09143,-63.88,26.1841,-83.9844,-229.248,0.594879,0.604401,-0.437805,-0.29834,58840,61154,63225,3072,-30128
2700,30533,7.64668,20.5857,-8.88125,96.8115,-6.98181,-64.0063,-4.94385,-57.9834,-229.675,0.589813,0.608215,-0.434418,-0.305511,58904,60959,63339,3072,-30128
2706,30539,5.27803,19.5426,-8.46494,96.3776,-4.72412,-64.0503,-58.5938,-33.9355,-232.239,0.583099,0.614502,-0.424225,-0.319855,58920,60878,63391,3072,-30128
2712,30545,4.254,18.8439,-6.08672,96.0425,-3.70789,-63.9404,-70.5566,-7.99561,-215.881,0.580963,0.616791,-0.418213,-0.327148,58978,60775,63442,3072,-30128
2718,30551,2.36387,20.5235,-6.39775,95.6689,-2.74109,-63.7152,-76.8433,17.395,-208.374,0.579803,0.618805,-0.411774,-0.333527,59025,60688,63486,3072,-30128
2724,30557,0.818262,20.6671,-7.32607,95.213,-1.72485,-63.479,-95.0928,21.1792,-217.468,0.579285,0.62088,-0.404755,-0.339111,59057,60579,63523,3072,-30128
2730,30563,-1.38291,20.8729,-5.4168,94.6692,-0.653687,-63.2538,-113.098,20.3247,-228.333,0.579132,0.62262,-0.397095,-0.345123,59176,60416,63583,3072,-30128
2736,30569,-7.09639,22.2988,-3.029,93.4772,1.54358,-62.7539,-127.441,32.5928,-234.741,0.579498,0.625275,-0.380219,-0.35849,59258,60316,63600,3185,-30129
2742,30575,-8.42188,21.2605,-5.39766,92.818,2.69714,-62.6166,-137.878,10.1929,-241.028,0.579895,0.626465,-0.371216,-0.365173,59319,60236,63611,3185,-30129
2748,30581,-8.32139,22.873,-4.01953,92.1368,3.92761,-62.5891,-142.7,-7.87354,-254.578,0.579987,0.627045,-0.362396,-0.372772,59417,60126,63617,3185,-30129
2754,30587,-10.8719,21.3896,-4.24443,91.4392,5.16357,-62.7155,-143.921,-35.2783,-253.479,0.57962,0.62735,-0.353516,-0.381256,59491,60034,63616,3185,-30129
2760,30593,-12.1112,20.3178,-2.75146,90.7251,6.30615,-62.9297,-144.897,-49.6826,-235.291,0.578766,0.627075,-0.345306,-0.390442,59672,59859,63590,3185,-30129
2766,30599,-13.5372,16.1595,-4.17266,89.165,7.97607,-63.3582,-163.452,-46.3257,-152.283,0.577972,0.624512,-0.331268,-0.407501,59780,59775,63570,3185,-30129
2772,30605,-13.9248,14.4942,-2.08154,88.363,8.53638,-63.6877,-159.363,-64.209,-118.164,0.578949,0.621887,-0.325592,-0.414673,59869,59700,63549,3185,-30129
2778,30611,-13.6664,13.9822,0.545508,87.6489,8.95935,-64.2261,-133.728,-105.042,-90.1489,0.580078,0.61853,-0.32132,-0.421387,59988,59639,63524,3185,-30129
2784,30617,-10.1685,13.9966,2.26816,87.0502,9.26697,-65.0116,-102.6,-153.32,-70.9229,0.580414,0.614655,-0.319244,-0.428131,60084,59587,63498,3185,-30129
2790,30623,-5.57471,14.4272,1.32549,86.5887,9.53064,-65.9235,-70.1294,-179.26,-64.6362,0.579529,0.610352,-0.319458,-0.435272,60278,59424,63441,3185,-30129
2796,30629,-1.52646,17.2696,-1.52646,85.8856,10.0854,-67.7142,-43.7012,-172.18,-70.7397,0.57489,0.602661,-0.322937,-0.44931,60379,59357,63416,3185,-30129
2802,30635,-0.736914,17.3749,-2.51699,85.5286,10.3821,-68.5602,-48.7061,-166.199,-73.3032,0.572113,0.599396,-0.324646,-0.455963,60470,59298,63396,3185,-30129
2808,30641,0.090918,16.6571,-2.79932,85.155,10.6897,-69.3842,-52.002,-161.377,-77.2095,0.569458,0.59613,-0.325989,-0.462555,60550,59246,63381,3185,-30129
2814,30647,1.3877,16.3078,-2.78496,84.7925,11.0138,-70.1917,-50.4761,-158.508,-81.9702,0.566864,0.592926,-0.326996,-0.469086,60619,59203,63375,3185,-30129
2820,30653,2.49307,16.7337,-2.74189,84.4354,11.3544,-70.9827,-47.4243,-154.724,-86.1206,0.564178,0.589844,-0.32785,-0.475586,60724,59134,63374,3185,-30129
2826,30659,2.42129,8.87646,-1.73223,83.7158,12.0465,-72.5043,-51.6357,-146.912,-88.623,0.558502,0.584167,-0.329041,-0.488281,60761,59108,63379,3185,-30129
2832,30665,7.04854,17.7386,-4.30186,83.2983,12.3761,-73.1635,-63.2324,-129.761,-85.6323,0.555847,0.581329,-0.329346,-0.494476,60795,59086,63385,3185,-30129
2838,30671,8.80947,17.1739,-4.70859,82.8314,12.7002,-73.6578,-80.3833,-99.6704,-83.313,0.553772,0.578552,-0.329041,-0.500214,60872,59069,63394,3185,-30129
2844,30677,10.0967,15.9633,-4.31621,82.3206,13.0298,-73.96,-98.4497,-61.9507,-80.7495,0.552643,0.575958,-0.327698,-0.505341,60937,59017,63405,3185,-30129
2850,30683,9.97227,14.5708,-3.43574,81.7767,13.3594,-74.0643,-113.037,-23.9868,-78.3081,0.552582,0.57373,-0.325104,-0.509583,61034,58933,63424,3185,-30129
2856,30689,8.35967,11.0489,-1.69395,81.2329,13.6945,-74.0149,-121.094,27.4048,-68.4814,0.555054,0.570618,-0.316772,-0.515594,61067,58899,63427,3193,-30130
2862,30695,7.78545,9.77607,-1.53604,80.2441,14.2877,-73.5754,-119.08,45.105,-59.2651,0.557129,0.569672,-0.311829,-0.517456,61144,58868,63427,3193,-30130
2868,30701,7.16338,8.29746,-1.49297,79.7992,14.5239,-73.2074,-117.31,61.1572,-47.3633,0.55957,0.569031,-0.306732,-0.518555,61207,58840,63424,3193,-30130
2874,30707,6.27334,7.05332,-1.39727,79.3927,14.7052,-72.746,-115.479,77.5146,-33.5083,0.5625,0.568634,-0.301575,-0.51886,61256,58814,63414,3193,-30130
2880,30713,4.88086,5.74697,-1.18193,79.0192,14.8206,-72.2076,-113.892,89.0503,-17.4561,0.565857,0.568451,-0.296387,-0.518372,61365,58771,63379,3193,-30130
2886,30719,3.23477,3.37354,-0.45459,78.3435,14.7876,-70.9827,-108.948,97.8394,20.2637,0.574066,0.568207,-0.286652,-0.515106,61423,58751,63350,3193,-30130
2892,30725,1.33027,1.67002,0.382813,78.0688,14.6228,-70.351,-97.7173,93.2617,42.6025,0.578705,0.567932,-0.28241,-0.512543,61473,58732,63321,3193,-30130
2898,30731,0.722559,1.55996,-0.282324,77.8052,14.3152,-69.7028,-97.9004,91.6748,70.9229,0.583496,0.567535,-0.279083,-0.509338,61510,58712,63284,3193,-30130
2904,30737,1.02881,0.358887,1.10059,77.6184,13.8977,-69.082,-79.3457,80.2612,91.98,0.588898,0.566742,-0.276459,-0.505432,61589,58692,63243,3193,-30130
2910,30743,1.42119,-2.47871,2.41172,77.558,13.3649,-68.4998,-51.5747,67.4438,113.22,0.594116,0.565887,-0.275055,-0.501007,61716,58726,63151,3193,-30130
2916,30749,3.78027,-3.56016,1.871,77.915,12.1344,-67.5385,20.9961,37.0483,124.329,0.602905,0.565002,-0.276581,-0.490601,61768,58734,63101,3193,-30130
2922,30755,5.19189,-2.46914,1.04316,78.2996,11.5027,-67.1155,48.0957,32.1045,124.207,0.605804,0.565399,-0.279175,-0.485046,61814,58738,63053,3193,-30130
2928,30761,6.49346,-1.29199,0.598145,78.7665,10.8875,-66.6595,64.5142,37.3535,120.85,0.607971,0.566406,-0.28244,-0.479218,61857,58739,63005,3193,-30130
2934,30767,6.42168,-0.689063,0.684277,79.3213,10.3052,-66.1816,81.1157,41.626,114.197,0.609711,0.568054,-0.285767,-0.473053,61896,58736,62962,3193,-30130
2940,30773,6.39775,0.0526367,0.224902,79.8651,9.75586,-65.6433,77.9419,54.9927,109.436,0.610992,0.570282,-0.289093,-0.466644,61969,58809,62893,3193,-30130
2946,30779,5.9623,1.2585,-1.44512,80.9747,8.72864,-64.5062,78.9795,62.5,99.3042,0.613678,0.575531,-0.294281,-0.453247,62001,58839,62864,3193,-30130
2952,30785,5.7709,1.84229,-1.82793,81.5186,8.22876,-63.902,76.7212,67.3828,98.6938,0.614899,0.578369,-0.296509,-0.446472,62030,58865,62835,3193,-30130
2958,30791,5.63213,2.23945,-1.77051,82.0404,7.7179,-63.2648,71.9604,74.646,101.013,0.61618,0.581268,-0.298492,-0.439545,62057,58889,62811,3193,-30130
2964,30797,5.04355,2.21074,-1.76572,82.5293,7.18506,-62.5836,63.4766,82.5195,105.469,0.617706,0.584167,-0.300201,-0.432373,62081,58909,62789,3193,-30130
2970,30803,4.33535,1.98584,-1.75615,82.9633,6.61926,-61.875,53.1006,88.1348,111.389,0.619537,0.586914,-0.301636,-0.424957,62124,58940,62752,3210,-30132
2976,30809,2.66533,0.645996,-1.21543,83.7048,5.41626,-60.4742,40.3442,84.4116,120.361,0.624298,0.591583,-0.303955,-0.409607,62142,58952,62737,3210,-30132
2982,30815,2.17246,-0.119629,-0.655566,84.0564,4.77356,-59.826,40.0391,76.9043,123.84,0.626862,0.593506,-0.305237,-0.401917,62159,58962,62724,3210,-30132
2988,30821,1.73701,-0.899609,-0.234473,84.4189,4.10889,-59.2218,44.7388,68.3594,126.709,0.629333,0.595215,-0.306732,-0.394287,62173,58969,62711,3210,-30132
2994,30827,1.56475,-1.42119,0.0574219,84.809,3.42773,-58.667,51.7578,59.2651,129.883,0.631561,0.596832,-0.308624,-0.386688,62187,58972,62696,3210,-30132
3000,30833,1.53604,-1.72744,0.119629,85.2374,2.71362,-58.1561,60.9131,49.8047,133.423,0.633514,0.59845,-0.310944,-0.37915,62214,58969,62663,3210,-30132
3006,30839,1.98584,-1.41641,0.153125,86.2592,1.19751,-57.2772,84.5337,32.959,144.043,0.63623,0.601807,-0.317078,-0.363892,62179,58965,62648,3210,-30132
3012,30845,2.47393,-0.894824,-0.0287109,86.8414,0.379028,-56.8872,92.7734,27.9541,151.245,0.636993,0.603638,-0.320923,-0.356049,62148,59002,62634,3210,-30132
3018,30851,3.00508,-0.373242,-0.459375,87.4292,-0.466919,-56.5192,95.3369,25.2686,157.837,0.637512,0.605499,-0.325226,-0.347961,62122,59033,62624,3210,-30132
3024,30857,3.63193,0.0478516,-0.846973,88.017,-1.34583,-56.1621,95.3369,23.1934,162.415,0.637939,0.607269,-0.329773,-0.339691,62102,59060,62616,3210,-30132
3030,30863,4.01475,0.459375,-0.631641,88.6047,-2.23572,-55.8105,95.8252,24.6582,164.063,0.638336,0.608917,-0.334503,-0.331299,62078,59097,62602,3210,-30132
3036,30869,3.85205,1.15322,-0.645996,89.7803,-4.03748,-55.0525,96.6797,34.9121,165.649,0.638977,0.612213,-0.343719,-0.314056,62074,59108,62600,3210,-30132
3042,30875,3.52666,1.54082,-0.76084,90.368,-4.94385,-54.6625,97.29,37.5366,165.466,0.639313,0.613922,-0.348114,-0.305115,62074,59116,62596,3210,-30132
3048,30881,2.93809,1.94756,-0.689063,90.9503,-5.85571,-54.267,98.3887,40.7104,166.748,0.639557,0.615601,-0.352386,-0.296112,62027,59120,62593,3210,-30132
3054,30887,2.30645,2.38301,-0.440234,91.5271,-6.78406,-53.8715,98.0225,42.5415,169.739,0.639771,0.61731,-0.356598,-0.286926,61988,59122,62597,3210,-30132
3060,30893,1.66045,2.6749,-0.421094,92.0874,-7.73438,-53.4979,96.1914,41.5039,173.706,0.639984,0.618896,-0.360779,-0.277649,61937,59197,62605,3210,-30132
3066,30899,0.62207,3.12949,-0.363672,93.186,-9.71191,-52.8278,95.7642,34.8511,184.387,0.640411,0.621429,-0.369476,-0.258911,61921,59226,62614,3210,-30132
3072,30905,0.416309,3.36396,-0.253613,93.7299,-10.7281,-52.5641,96.1304,28.0151,188.782,0.640533,0.622406,-0.374115,-0.249512,61909,59249,62620,3210,-30132
3078,30911,0.291895,3.675,-0.090918,94.2847,-11.7554,-52.3499,96.8628,20.9351,191.589,0.640503,0.623108,-0.379028,-0.240204,61901,59266,62627,3210,-30132
3084,30917,0.15791,4.14395,0.00957031,94.8395,-12.7826,-52.1796,98.999,15.0757,192.383,0.64032,0.623627,-0.384155,-0.231049,61847,59276,62634,3210,-30132
3090,30923,-0.00957031,4.82344,-0.0669922,95.4163,-13.8098,-52.0532,103.271,9.8877,193.054,0.639893,0.624023,-0.389465,-0.222046,61769,59361,62645,3226,-30134
3096,30929,-0.110059,6.63701,-0.430664,96.0095,-14.826,-51.9818,105.164,-0.732422,194.641,0.638336,0.624603,-0.400574,-0.204529,61745,59391,62654,3226,-30134
3102,30935,0.210547,7.53184,-0.957031,97.1631,-16.8311,-51.9818,99.5483,-5.7373,194.214,0.637329,0.624634,-0.406311,-0.196106,61726,59415,62662,3226,-30134
3108,30941,0.497656,8.41709,-1.24893,97.6849,-17.8088,-52.0313,91.4917,-6.65283,191.833,0.636292,0.624329,-0.412109,-0.18808,61662,59432,62674,3226,-30134
3114,30947,0.392383,9.80479,-1.1293,98.1299,-18.7701,-52.0972,77.1484,-4.21143,191.04,0.635376,0.623749,-0.417816,-0.18045,61613,59483,62685,3226,-30134
3120,30953,0.344531,9.84785,-1.31113,98.4705,-19.7095,-52.1521,58.2275,0.183105,188.599,0.634827,0.622681,-0.423279,-0.173157,61574,59525,62695,3226,-30134
3126,30959,-0.861328,8.23525,0.0430664,98.7451,-20.6323,-52.196,45.7153,7.44629,182.922,0.63504,0.619232,-0.433197,-0.159698,61474,59577,62718,3226,-30134
3132,30965,-1.52646,8.55107,0.574219,99.2834,-22.4011,-52.3169,47.4854,5.12695,178.101,0.635284,0.61731,-0.437836,-0.153259,61412,59637,62731,3226,-30134
3138,30971,-2.27295,8.97217,0.736914,99.5691,-23.2416,-52.4213,48.645,1.70898,174.805,0.635376,0.615448,-0.442444,-0.147125,61362,59684,62745,3226,-30134
3144,30977,-2.6749,9.34062,0.808691,99.8602,-24.0491,-52.5586,48.8892,-1.46484,172.119,0.635284,0.613586,-0.447021,-0.141296,61322,59719,62760,3226,-30134
3150,30983,-2.89023,9.45547,0.92832,100.168,-24.8236,-52.7289,50.0488,-5.98145,168.213,0.635071,0.611725,-0.45163,-0.135742,61291,59745,62773,3226,-30134
3156,30989,-2.38301,10.4986,1.53125,100.508,-25.5597,-52.9376,59.3872,-15.2588,154.724,0.633942,0.608154,-0.460846,-0.125641,61199,59850,62792,3226,-30134
3162,30995,-1.90449,11.4413,1.65566,101.277,-26.8726,-53.41,64.0259,-14.5874,145.264,0.632935,0.606689,-0.465363,-0.121063,61139,59890,62799,3226,-30134
3168,31001,-1.63652,12.3553,1.78008,101.673,-27.4493,-53.6188,67.627,-9.09424,135.071,0.631744,0.605499,-0.469604,-0.116699,61090,59920,62807,3226,-30134
3174,31007,-1.79443,13.0635,1.93799,102.052,-27.9822,-53.7726,69.6411,-0.427246,125.61,0.630493,0.604645,-0.473419,-0.112488,61050,59982,62816,3226,-30134
3180,31013,-2.48828,13.5707,2.05762,102.409,-28.4821,-53.8715,71.4111,9.0332,117.432,0.629303,0.604004,-0.476776,-0.108307,61017,60031,62828,3226,-30134
3186,31019,-3.82813,14.944,1.95713,102.761,-28.9435,-53.9374,76.2939,18.0054,101.135,0.627136,0.603485,-0.482086,-0.100006,60971,60144,62848,3226,-30134
3192,31025,-4.92871,16.8103,0.722559,103.447,-29.7345,-54.0143,73.4863,18.6157,93.75,0.625977,0.603577,-0.484253,-0.0960388,60954,60210,62856,3226,-30134
3198,31031,-6.11543,18.2219,0.411523,103.733,-30.0366,-54.0747,62.3169,12.8784,81.1157,0.624847,0.60376,-0.486176,-0.0923767,60938,60268,62865,3226,-30134
3204,31037,-3.69414,16.815,0.516797,103.975,-30.2948,-54.1132,55.1758,14.0991,71.7773,0.62384,0.603912,-0.487854,-0.0895081,60875,60320,62872,3210,-30132
3210,31043,-5.40244,18.6573,1.39727,104.145,-30.4596,-54.1022,45.5933,18.6157,52.5513,0.622986,0.604034,-0.489227,-0.0870056,60820,60368,62880,3210,-30132
3216,31049,-5.57471,17.5328,-0.14834,104.211,-30.564,-54.0637,10.9863,20.2637,28.4424,0.622223,0.604462,-0.490173,-0.0839844,60729,60442,62889,3210,-30132
3222,31055,-5.60342,16.2504,0.559863,104.101,-30.5859,-53.9648,-1.83105,17.395,16.7236,0.622467,0.60437,-0.490051,-0.0835266,60690,60471,62890,3210,-30132
3228,31061,-5.16797,14.9871,1.05273,103.98,-30.509,-53.9264,-10.3149,12.5732,5.5542,0.622925,0.604187,-0.489655,-0.0837402,60657,60496,62892,3210,-30132
3234,31067,-4.39277,13.6329,1.21543,103.826,-30.3607,-53.8879,-16.3574,9.39941,-7.08008,0.623474,0.604004,-0.489044,-0.0845947,60624,60518,62891,3210,-30132
3240,31073,-3.83291,12.4414,1.36377,103.645,-30.1575,-53.8385,-19.8975,9.39941,-18.2495,0.624054,0.603912,-0.48819,-0.0859985,60594,60536,62891,3210,-30132
3246,31079,-2.99072,9.98184,1.06709,103.447,-29.8993,-53.7671,-23.4375,9.8877,-42.2974,0.625336,0.604218,-0.485474,-0.0899658,60591,60562,62884,3210,-30132
3252,31085,-2.52178,8.66113,0.846973,103.024,-29.1907,-53.5913,-23.9258,8.23975,-56.0913,0.625946,0.604675,-0.483643,-0.0924683,60613,60573,62879,3210,-30132
3258,31091,-4.18701,10.0967,5.12012,102.816,-28.7402,-53.432,-15.625,17.395,-70.7397,0.626495,0.605377,-0.481476,-0.0954285,60631,60582,62872,3210,-30132
3264,31097,-3.83291,49.8326,2.55527,103.843,-28.6688,-53.0914,249.817,65.5518,-6.16455,0.626923,0.606659,-0.478699,-0.0983582,60644,60593,62864,3210,-30132
3270,31103,-0.60293,78.3952,-18.9253,104.409,-28.4381,-53.7616,58.4717,-116.394,5.00488,0.621613,0.613983,-0.477417,-0.0927124,60653,60606,62856,3210,-30132
3276,31109,-6.0293,11.3839,-24.3134,102.827,-28.6798,-53.4595,-491.943,242.432,120.972,0.626709,0.606873,-0.478577,-0.0988159,60662,60641,62845,3210,-30132
3282,31115,5.59385,-5.7709,6.88105,96.9324,-30.141,-51.3556,-477.661,183.533,145.63,0.644958,0.592102,-0.472534,-0.100159,60664,60657,62839,3210,-30132
3288,31121,15.6953,3.99082,38.1521,95.1416,-30.4156,-51.2238,-338.989,36.6211,72.2656,0.661316,0.576691,-0.468567,-0.101959,60666,60669,62825,3210,-30132
3294,31127,7.16338,-5.25889,19.0258,93.999,-30.4156,-51.3007,-229.553,-5.49316,20.2026,0.670715,0.565765,-0.467468,-0.106781,60666,60666,62804,3210,-30132
3300,31133,2.44043,-7.54619,8.3501,92.9279,-30.531,-50.9875,-174.866,64.0259,39.0015,0.676239,0.558716,-0.466766,-0.111908,60665,60687,62770,3210,-30132
3306,31139,5.29238,-4.51719,2.56484,92.7576,-30.6024,-50.8777,113.586,-50.0488,-20.6299,0.682922,0.552338,-0.464325,-0.113251,60664,60803,62690,3210,-30132
3312,31145,5.8666,-0.210547,2.33994,94.2627,-30.097,-51.5094,141.174,-51.2085,-38.5132,0.679016,0.555939,-0.465637,-0.113678,60664,60861,62651,3210,-30132
3318,31151,7.05811,5.66563,-0.0574219,95.4657,-29.751,-51.9159,210.693,-69.5801,-47.3633,0.674377,0.560669,-0.466644,-0.114044,60666,60911,62615,3210,-30132
3324,31157,9.18272,8.90996,-5.40244,96.8005,-29.3115,-52.2565,242.004,-63.8428,-67.3828,0.667572,0.567444,-0.468323,-0.113647,60668,60958,62584,3210,-30132
3330,31163,3.77549,23.4138,-7.12988,97.7124,-28.9984,-52.5311,163.452,-52.4292,-42.5415,0.659973,0.575531,-0.469421,-0.112946,60669,61005,62560,3210,-30132
3336,31169,6.07715,18.3128,-15.3125,97.9266,-28.8556,-52.6465,-72.2046,11.5967,-4.02832,0.653198,0.582184,-0.470551,-0.113495,60673,61024,62534,3210,-30132
3342,31175,6.07236,11.3743,-4.48848,96.7346,-28.7567,-52.2894,-127.747,49.7437,1.46484,0.655212,0.580444,-0.469452,-0.115204,60675,61040,62527,3210,-30132
3348,31181,5.43594,7.00547,5.41201,95.8942,-28.7347,-51.9049,-129.333,67.3828,-1.0376,0.659424,0.577179,-0.467133,-0.116913,60679,61058,62520,3210,-30132
3354,31187,3.81855,2.7084,7.84287,95.191,-28.7183,-51.46,-95.2759,77.2705,-0.549316,0.664032,0.574005,-0.464233,-0.118256,60683,61033,62512,3210,-30132
3360,31193,2.63662,1.73223,7.32129,94.7516,-28.6963,-51.0425,-43.457,74.3408,-0.671387,0.667969,0.571747,-0.461212,-0.118652,60684,61050,62500,3210,-30132
3366,31199,-0.516797,6.85234,1.34463,94.5758,-28.6084,-50.7239,31.0669,19.5923,-7.44629,0.671661,0.571533,-0.456421,-0.117462,60683,61069,62472,3210,-30132
3372,31205,0.47373,9.71865,-0.923535,94.8615,-28.4546,-50.7074,37.1094,-15.8691,-2.50244,0.671265,0.572754,-0.455597,-0.117004,60679,61075,62456,3210,-30132
3378,31211,2.40215,10.6422,-2.21074,95.0702,-28.3997,-50.9326,25.5127,-38.8794,2.31934,0.670044,0.573853,-0.455933,-0.117218,60672,61081,62441,3210,-30132
3384,31217,5.23975,10.781,-2.01455,95.257,-28.3502,-51.1908,16.2354,-45.4102,5.06592,0.668671,0.574432,-0.457031,-0.118042,60666,61087,62428,3210,-30132
3390,31223,6.6418,9.8957,-1.21064,95.3394,-28.3118,-51.3776,2.86865,-33.3862,4.88281,0.667419,0.574646,-0.458313,-0.11908,60660,61093,62416,3210,-30132
3396,31229,6.35947,8.62764,0.363672,95.3448,-28.2788,-51.4545,-4.02832,3.17383,-0.915527,0.666595,0.574402,-0.459381,-0.120697,60656,61106,62405,3210,-30132
3402,31235,5.03398,8.56065,0.933105,95.2295,-28.1964,-51.3391,-1.89209,13.4277,-2.19727,0.666809,0.574402,-0.459015,-0.121002,60656,61111,62401,3210,-30132
3408,31241,3.22998,8.16826,0.334961,95.1855,-28.1525,-51.2567,1.15967,11.7188,-3.479,0.667175,0.574524,-0.458313,-0.121002,60655,61114,62397,3210,-30132
3414,31247,2.99551,8.24961,0.535937,95.1855,-28.1085,-51.2238,6.16455,3.479,-1.64795,0.667419,0.574738,-0.457672,-0.121033,60656,61116,62395,3210,-30132
3420,31253,2.74668,8.24004,0.090918,95.2515,-28.0646,-51.2732,11.7188,-10.8643,-1.40381,0.667389,0.575043,-0.457306,-0.121094,60655,61117,62391,3210,-30132
3426,31259,3.99561,8.56065,-0.119629,95.3668,-28.0206,-51.3885,18.9819,-29.7241,-0.244141,0.666168,0.575806,-0.457916,-0.121857,60653,61122,62379,3210,-30132
3432,31265,4.84736,8.85732,-0.344531,95.6854,-27.9272,-51.6962,20.752,-31.311,-0.610352,0.665192,0.576263,-0.458649,-0.122406,60652,61125,62375,3210,-30132
3438,31271,5.23496,8.97695,-0.866113,95.8392,-27.8778,-51.8335,20.6909,-27.9541,-1.70898,0.664124,0.576752,-0.459412,-0.122986,60653,61131,62373,3210,-30132
3444,31277,5.20625,9.16357,-1.00488,95.9711,-27.8229,-51.9434,19.043,-23.1934,-2.92969,0.663116,0.577301,-0.460022,-0.123474,60655,61138,62372,3210,-30132
3450,31283,4.9,9.35977,-0.842188,96.0754,-27.7734,-52.0148,15.686,-18.1274,-3.2959,0.662262,0.57785,-0.46048,-0.123871,60656,61145,62372,3210,-30132
3456,31289,4.09131,8.61807,0.0574219,96.1523,-27.7295,-52.0752,10.8032,-15.0146,-2.86865,0.661072,0.578735,-0.460938,-0.124512,60658,61158,62375,3210,-30132
3462,31295,3.82334,8.15391,0.521582,96.3116,-27.6416,-52.196,13.1836,-16.8457,-2.44141,0.660583,0.579071,-0.46109,-0.124817,60659,61163,62375,3210,-30132
3468,31301,3.68457,7.87637,0.765625,96.4325,-27.5977,-52.2894,18.3716,-21.6064,-2.2583,0.660004,0.579468,-0.461334,-0.125122,60663,61169,62377,3210,-30132
3474,31307,3.80898,7.80459,0.626855,96.6028,-27.5537,-52.4103,25.0244,-26.6724,-2.38037,0.65921,0.579987,-0.461761,-0.125427,60666,61171,62379,3210,-30132
3480,31313,3.97168,8.02471,0.220117,96.817,-27.4988,-52.5586,31.311,-32.0435,-2.99072,0.658142,0.580658,-0.462341,-0.125732,60671,61175,62383,3210,-30132
3486,31319,4.39756,8.81904,-0.535937,97.0587,-27.4493,-52.7179,37.2314,-36.5601,-3.35693,0.655304,0.582428,-0.463959,-0.126312,60681,61184,62402,3210,-30132
3492,31325,4.49326,8.87646,-0.870898,97.5641,-27.3395,-53.053,36.5601,-35.7666,-3.11279,0.653748,0.583405,-0.464874,-0.126617,60687,61147,62412,3210,-30132
3498,31331,4.54111,8.94346,-1.09102,97.8058,-27.2845,-53.2123,36.0718,-35.0952,-3.35693,0.652191,0.584351,-0.465759,-0.126892,60695,61115,62424,3210,-30132
3504,31337,4.49805,8.97695,-0.971387,98.0365,-27.2351,-53.3551,34.729,-32.5317,-2.92969,0.650696,0.585327,-0.466614,-0.127136,60704,61088,62438,3210,-30132
3510,31343,4.44063,8.89561,-1.15801,98.2672,-27.1857,-53.4924,34.1797,-31.9824,-3.35693,0.649261,0.586243,-0.467377,-0.127289,60714,61064,62452,3210,-30132
3516,31349,4.42148,8.76641,-1.17715,98.4924,-27.1362,-53.6188,34.79,-31.9214,-3.35693,0.646484,0.588104,-0.468811,-0.127625,60682,61024,62485,3210,-30132
3522,31355,4.23965,9.02481,-1.57432,98.9539,-27.0319,-53.9044,34.1797,-33.6914,-3.05176,0.645081,0.58905,-0.469543,-0.127747,60645,61008,62502,3210,-30132
3528,31361,4.49326,9.30713,-1.83271,99.1736,-26.9824,-54.0527,31.8604,-34.729,-2.80762,0.643616,0.589935,-0.470337,-0.12793,60613,60996,62519,3210,-30132
3534,31367,4.68467,9.02481,-1.68916,99.3823,-26.933,-54.1901,29.1748,-32.7759,-2.80762,0.642212,0.59079,-0.471161,-0.128204,60585,60986,62533,3210,-30132
3540,31373,4.6751,8.7377,-1.46904,99.5856,-26.8835,-54.3219,29.541,-30.9448,-3.11279,0.6409,0.591553,-0.471893,-0.128448,60561,60977,62551,3210,-30132
3546,31379,4.39277,9.12051,-1.41162,99.7888,-26.8341,-54.4373,29.2358,-26.9775,-3.23486,0.638367,0.593201,-0.473206,-0.128754,60521,60959,62591,3210,-30132
3552,31385,4.45498,9.154,-1.59346,100.146,-26.7462,-54.6295,25.8789,-24.292,-2.86865,0.637177,0.593994,-0.473785,-0.128815,60505,60951,62610,3210,-30132
3558,31391,4.47891,9.04873,-1.65088,100.3,-26.7078,-54.7064,23.0713,-22.0947,-2.80762,0.636108,0.594727,-0.474274,-0.128906,60491,60946,62630,3210,-30132
3564,31397,4.50762,8.8334,-1.63174,100.437,-26.6693,-54.7723,21.5454,-20.0195,-2.38037,0.635162,0.595398,-0.47467,-0.128967,60479,60942,62647,3210,-30132
3570,31403,4.45498,8.85732,-1.50732,100.569,-26.6364,-54.8328,20.9351,-18.4937,-2.80762,0.634308,0.596008,-0.475037,-0.128967,60469,60944,62665,3210,-30132
3576,31409,4.321,8.7999,-1.3877,100.69,-26.6034,-54.8877,19.4092,-17.1509,-2.44141,0.632721,0.597229,-0.475616,-0.128967,60455,60949,62700,3210,-30132
3582,31415,4.20615,8.63721,-1.53604,100.937,-26.543,-54.9866,19.7144,-17.395,-1.95313,0.631989,0.597839,-0.475861,-0.128937,60451,60953,62715,3210,-30132
3588,31421,4.25879,8.74248,-1.57432,101.063,-26.51,-55.0415,20.0806,-17.5781,-1.46484,0.631226,0.598419,-0.476166,-0.128906,60448,60954,62730,3210,-30132
3594,31427,4.35449,8.90996,-1.47383,101.184,-26.488,-55.0909,19.165,-16.9067,-1.28174,0.630463,0.598999,-0.476471,-0.128876,60446,60953,62748,3210,-30132
3600,31433,4.22051,8.84297,-1.54082,101.299,-26.4551,-55.1404,18.0664,-16.9678,-1.89209,0.62973,0.599548,-0.476746,-0.128815,60446,60952,62764,3210,-30132
3606,31439,4.27793,8.61807,-1.3877,101.404,-26.4276,-55.1843,17.1509,-15.0757,-1.46484,0.628357,0.600586,-0.477264,-0.128754,60450,60953,62795,3210,-30132
3612,31445,4.20615,8.52236,-1.21543,101.618,-26.3782,-55.2557,17.334,-14.3433,-1.70898,0.627686,0.601105,-0.477478,-0.128693,60453,60957,62809,3210,-30132
3618,31451,4.14873,8.50322,-1.08623,101.728,-26.3507,-55.2942,18.8599,-14.7705,-1.89209,0.627045,0.601654,-0.477661,-0.128601,60456,60962,62820,3210,-30132
3624,31457,4.00039,8.53193,-0.861328,101.849,-26.3287,-55.3326,20.3247,-15.3198,-1.64795,0.626373,0.602203,-0.477875,-0.12851,60457,60966,62832,3210,-30132
3630,31463,4.04346,8.51279,-1.3542,101.986,-26.2958,-55.3876,21.6064,-18.3105,-2.01416,0.625641,0.602814,-0.478119,-0.128387,60458,60972,62845,3210,-30132
3636,31469,4.28271,8.66113,-1.60781,102.123,-26.2683,-55.448,22.644,-20.5688,-0.244141,0.623932,0.604065,-0.47879,-0.128235,60459,60902,62866,3210,-30132
3642,31475,4.25879,8.77598,-1.85186,102.415,-26.2134,-55.5798,22.2778,-20.2026,-1.15967,0.623047,0.604675,-0.479218,-0.128143,60459,60872,62879,3210,-30132
3648,31481,4.36406,8.85732,-1.91885,102.546,-26.1914,-55.6293,20.5078,-18.0054,0,0.622162,0.605286,-0.479614,-0.128082,60462,60847,62889,3210,-30132
3654,31487,4.34971,8.90996,-1.79443,102.662,-26.1694,-55.6732,18.7378,-16.2964,-0.671387,0.621368,0.605865,-0.47995,-0.12796,60464,60823,62903,3210,-30132
3660,31493,4.14395,8.6707,-1.48818,102.766,-26.153,-55.7007,17.334,-13.916,-0.305176,0.620667,0.606415,-0.480194,-0.127838,60467,60803,62917,3210,-30132
3666,31499,4.07695,8.4793,-1.8375,102.876,-26.131,-55.7336,19.2261,-15.7471,-0.915527,0.619385,0.607452,-0.480621,-0.127533,60475,60772,62941,3210,-30132
3672,31505,4.20137,8.7999,-2.03848,103.118,-26.0815,-55.8215,19.2871,-17.8833,-0.732422,0.618683,0.608002,-0.480835,-0.127411,60479,60762,62954,3210,-30132
3678,31511,4.4167,9.05352,-2.2251,103.233,-26.0541,-55.8655,17.334,-17.334,-1.28174,0.61792,0.608582,-0.48114,-0.127289,60483,60752,62968,3201,-30131
3684,31517,4.37842,8.98174,-2.25381,103.332,-26.0321,-55.9094,14.6484,-17.0288,-0.488281,0.617218,0.6091,-0.481384,-0.127228,60488,60744,62983,3201,-30131
3690,31523,4.47412,8.9291,-2.35908,103.414,-26.0101,-55.9424,12.207,-15.3198,-1.09863,0.616577,0.609558,-0.481659,-0.127197,60492,60737,62996,3201,-30131
3696,31529,4.39277,8.81426,-2.20117,103.486,-25.9882,-55.9644,8.48389,-10.9253,-0.610352,0.615601,0.610291,-0.481934,-0.127136,60502,60723,63025,3201,-30131
3702,31535,4.25879,8.71377,-1.9332,103.585,-25.9607,-55.9698,6.65283,-8.78906,0.0610352,0.615265,0.610626,-0.481995,-0.127045,60507,60719,63038,3201,-30131
3708,31541,4.20615,8.72813,-1.69873,103.618,-25.9552,-55.9589,5.61523,-7.26318,-0.12207,0.615021,0.610901,-0.481995,-0.126923,60512,60714,63049,3201,-30131
3714,31547,3.79463,8.45059,-1.55039,103.651,-25.9387,-55.9534,5.61523,-7.99561,-0.366211,0.614838,0.611176,-0.481934,-0.12677,60516,60712,63058,3201,-30131
3720,31553,3.96689,8.43623,-1.40205,103.705,-25.9332,-55.9644,7.87354,-11.0474,1.28174,0.614624,0.61145,-0.481873,-0.126678,60519,60709,63067,3201,-30131
3726,31559,3.81855,8.51758,-2.05283,103.766,-25.9222,-55.9863,9.39941,-18.0664,0.671387,0.613922,0.612,-0.482117,-0.126495,60523,60705,63086,3201,-30131
3732,31565,4.11523,8.81426,-2.33516,103.931,-25.8838,-56.0962,9.15527,-20.1416,1.52588,0.613403,0.612274,-0.482391,-0.126556,60523,60704,63096,3201,-30131
3738,31571,4.33535,8.94824,-2.54092,104.002,-25.8673,-56.1566,7.32422,-19.7754,1.89209,0.612854,0.612549,-0.482758,-0.126648,60523,60703,63102,3201,-30131
3744,31577,4.69424,8.93389,-2.59834,104.063,-25.8563,-56.2061,4.39453,-17.7002,1.70898,0.612366,0.612732,-0.483093,-0.12674,60523,60700,63108,3201,-30131
3750,31583,4.9335,8.82383,-2.57441,104.09,-25.8453,-56.228,2.01416,-13.0005,1.0376,0.612,0.612885,-0.483337,-0.126862,60525,60701,63116,3201,-30131
3756,31589,4.83779,8.75684,-2.0002,104.101,-25.8344,-56.2115,-1.64795,-1.15967,-0.427246,0.611725,0.613159,-0.483337,-0.126862,60529,60700,63135,3201,-30131
3762,31595,4.57461,8.66592,-1.93799,104.063,-25.8289,-56.1072,-2.01416,2.13623,-1.15967,0.611847,0.613281,-0.483093,-0.126709,60482,60699,63146,3201,-30131
3768,31601,4.2875,8.5415,-2.13896,104.041,-25.8234,-56.0413,-1.46484,2.62451,-1.46484,0.61203,0.613434,-0.482727,-0.126495,60439,60698,63157,3201,-30131
3774,31607,4.18701,8.72334,-2.33994,104.024,-25.8179,-55.9808,-1.34277,1.95313,-1.58691,0.612213,0.613586,-0.48233,-0.126251,60402,60698,63165,3201,-30131
3780,31613,4.21572,8.98652,-2.45,104.002,-25.8179,-55.9259,-2.74658,1.89209,-1.09863,0.612366,0.61377,-0.481964,-0.126038,60368,60696,63173,3201,-30131
3786,31619,4.26836,8.87168,-2.05283,103.958,-25.8179,-55.8655,-8.54492,4.15039,-0.12207,0.612823,0.613922,-0.481293,-0.125702,60312,60697,63189,3201,-30131
3792,31625,4.21572,8.61807,-1.77529,103.832,-25.8289,-55.7227,-9.39941,6.34766,0.244141,0.61322,0.613861,-0.480865,-0.12558,60287,60697,63197,3201,-30131
3798,31631,4.15352,8.44102,-1.41641,103.771,-25.8398,-55.6458,-8.30078,7.08008,0.366211,0.613678,0.6138,-0.480438,-0.125397,60266,60699,63201,3201,-30131
3804,31637,3.94775,8.4793,-1.37813,103.711,-25.8508,-55.5634,-7.08008,7.32422,0.183105,0.614136,0.613739,-0.47998,-0.125153,60246,60700,63200,3201,-30131
3810,31643,3.81377,8.27832,-1.50732,103.661,-25.8618,-55.4919,-6.16455,6.34766,0.976563,0.614532,0.613739,-0.479523,-0.124908,60228,60700,63198,3201,-30131
3816,31649,3.96211,8.55107,-1.89971,103.629,-25.8728,-55.4315,-2.68555,1.2207,1.77002,0.615173,0.61377,-0.47879,-0.12442,60245,60697,63195,3201,-30131
3822,31655,4.18223,8.77119,-2.38779,103.596,-25.8893,-55.3491,-2.13623,-0.610352,2.0752,0.615356,0.6138,-0.478577,-0.124207,60274,60697,63197,3201,-30131
3828,31661,4.34492,9.06309,-2.86152,103.579,-25.8948,-55.3217,-3.72314,-1.34277,2.2583,0.615479,0.613861,-0.478394,-0.124023,60302,60695,63200,3201,-30131
3834,31667,4.50762,9.2832,-2.92373,103.535,-25.9058,-55.2777,-7.75146,0.305176,2.0752,0.615631,0.613861,-0.478241,-0.123871,60328,60696,63205,3201,-30131
3840,31673,4.65596,9.16357,-2.84238,103.469,-25.9113,-55.2283,-12.085,1.89209,1.34277,0.615906,0.61377,-0.477997,-0.123779,60301,60696,63209,3201,-30131
3846,31679,5.04834,9.07266,-2.47871,103.381,-25.9222,-55.1624,-18.4326,7.8125,-0.549316,0.616882,0.613373,-0.477295,-0.123718,60257,60694,63211,3201,-30131
3852,31685,5.00527,8.88603,-2.33994,103.134,-25.9277,-54.9756,-21.0571,11.7188,-2.0752,0.617584,0.613098,-0.476746,-0.123688,60238,60691,63212,3201,-30131
3858,31691,5.03877,8.77598,-2.42129,102.991,-25.9277,-54.8492,-21.7896,14.7705,-3.35693,0.618439,0.612793,-0.476044,-0.123657,60219,60688,63211,3201,-30131
3864,31697,4.89522,8.91953,-2.37822,102.832,-25.9277,-54.7009,-22.8882,18.4326,-4.3335,0.619324,0.612549,-0.47522,-0.123566,60203,60686,63206,3201,-30131
3870,31703,4.6751,9.04873,-2.29209,102.662,-25.9222,-54.5471,-24.9634,20.1416,-5.00488,0.620331,0.612305,-0.474243,-0.123444,60237,60683,63200,3201,-30131
3876,31709,4.63203,9.02002,-2.77539,102.469,-25.9222,-54.3823,-29.7241,22.8271,-4.76074,0.62262,0.611694,-0.472137,-0.123199,60294,60677,63184,3201,-30131
3882,31715,4.74209,9.1875,-2.88066,102.047,-25.9222,-54.0198,-33.5083,24.9634,-5.79834,0.623871,0.611298,-0.471008,-0.123077,60318,60673,63179,3201,-30131
3888,31721,4.87129,9.32627,-3.07207,101.794,-25.9222,-53.8165,-37.6587,28.5034,-6.04248,0.625244,0.61084,-0.469757,-0.122986,60339,60671,63171,3201,-30131
3894,31727,4.89043,9.48418,-2.71318,101.497,-25.9277,-53.5748,-43.6401,34.79,-6.04248,0.626831,0.610321,-0.468384,-0.122894,60356,60666,63165,3201,-30131
3900,31733,4.74209,9.35977,-2.14854,101.162,-25.9332,-53.3057,-49.3164,39.917,-6.22559,0.628662,0.60965,-0.466797,-0.122772,60371,60660,63160,3201,-30131
3906,31739,4.4502,8.44102,-1.86143,100.805,-25.9442,-53.02,-52.124,43.0298,-7.26318,0.632996,0.608032,-0.463196,-0.122406,60397,60652,63142,3201,-30131
3912,31745,4.09609,8.65635,-1.34941,100.102,-25.9552,-52.4323,-48.7061,45.0439,-7.26318,0.635193,0.607208,-0.461304,-0.122223,60405,60649,63131,3201,-30131
3918,31751,3.90469,9.19707,-0.980957,99.7559,-25.9552,-52.1466,-50.354,43.5791,-6.71387,0.637329,0.606476,-0.459381,-0.121948,60410,60647,63118,3201,-30131
3924,31757,3.74678,8.94824,-1.10537,99.4208,-25.9607,-51.8884,-49.9878,39.7949,-5.49316,0.639465,0.605652,-0.45752,-0.121735,60410,60645,63102,3201,-30131
3930,31763,3.94297,8.58457,-1.72266,99.1022,-25.9607,-51.6577,-48.5229,33.9355,-5.5542,0.641541,0.604797,-0.45578,-0.121582,60409,60682,63083,3201,-30131
3936,31769,4.84736,9.49854,-2.62227,98.8165,-25.9497,-51.46,-46.814,27.4048,-7.14111,0.645172,0.603149,-0.45285,-0.121643,60405,60740,63041,3201,-30131
3942,31775,5.2541,9.8957,-2.72754,98.1903,-25.9167,-51.0425,-54.0161,32.5317,-7.50732,0.646851,0.602356,-0.451447,-0.121765,60403,60765,63021,3201,-30131
3948,31781,5.45029,9.84307,-2.00498,97.8168,-25.8948,-50.7953,-59.3262,36.9263,-9.15527,0.648834,0.601379,-0.44986,-0.121948,60401,60785,63001,3201,-30131
3954,31787,5.20625,9.06787,-1.50732,97.4377,-25.8508,-50.5481,-60.4858,36.5601,-14.6484,0.651031,0.600311,-0.448059,-0.122131,60398,60805,62984,3201,-30131
3960,31793,4.62725,8.46973,-1.10537,97.0422,-25.8069,-50.2625,-60.9131,43.457,-13.9771,0.653198,0.599304,-0.446136,-0.122498,60394,60822,62965,3201,-30131
3966,31799,3.75635,8.49844,-0.430664,96.6632,-25.7574,-49.9823,-53.1006,37.6587,-18.0664,0.657715,0.597412,-0.441956,-0.122864,60382,60846,62925,3201,-30131
3972,31805,3.96211,8.50322,0.0861328,96.0205,-25.6091,-49.5319,-48.8892,27.8931,-19.043,0.659668,0.596649,-0.439972,-0.123169,60375,60851,62902,3201,-30131
3978,31811,3.77549,8.3501,0.253613,95.7898,-25.5048,-49.3945,-39.6118,16.9678,-23.3154,0.661316,0.595978,-0.438263,-0.123657,60368,60854,62879,3201,-30131
3984,31817,2.94287,8.35967,0.0717773,95.6415,-25.3784,-49.3286,-30.3345,2.99072,-25.4517,0.662506,0.595581,-0.436798,-0.12442,60411,60853,62857,3201,-30131
3990,31823,2.75625,8.13955,-0.45459,95.5426,-25.2576,-49.3176,-24.7192,-6.22559,-23.0713,0.663177,0.595398,-0.43573,-0.125397,60449,60853,62838,3201,-30131
3996,31829,7.929,10.5561,7.0916,95.5371,-25.1147,-49.4055,9.70459,-75.6836,-44.0674,0.663239,0.59549,-0.434814,-0.127899,60511,60856,62800,3201,-30131
4002,31835,12.7524,10.9963,10.1972,96.2787,-24.3842,-50.4053,49.4995,-132.996,-84.1675,0.661316,0.596313,-0.43573,-0.130707,60537,60858,62782,3201,-30131
4008,31841,14.6665,9.72344,5.17275,96.7731,-23.8293,-50.8392,62.6831,-100.647,-105.164,0.657135,0.598602,-0.4375,-0.135376,60559,60864,62765,3201,-30131
4014,31847,13.9296,9.19707,0.669922,97.1686,-23.2635,-50.9491,68.1763,-44.9219,-114.502,0.653107,0.601837,-0.437836,-0.139465,60578,60869,62752,3201,-30131
4020,31853,12.0395,10.7379,-1.69395,97.5201,-22.6263,-50.8557,74.2798,-12.207,-134.277,0.649933,0.605713,-0.43634,-0.14212,60595,60879,62748,3201,-30131
4026,31859,5.67998,11.6758,-0.301465,97.8278,-21.9122,-50.6964,70.3125,-2.68555,-151.062,0.644379,0.615204,-0.429688,-0.146729,60623,60831,62751,3210,-30132
4032,31865,4.16309,9.88135,0.287109,98.3936,-20.3577,-50.5206,60.4248,-28.5645,-165.039,0.641754,0.619904,-0.425842,-0.149719,60633,60818,62759,3210,-30132
4038,31871,3.31133,7.49834,0.579004,98.7946,-19.5282,-50.6085,71.8994,-53.5889,-168.823,0.638702,0.624481,-0.422394,-0.153442,60639,60815,62768,3210,-30132
4044,31877,2.9333,6.23506,0.593359,99.3274,-18.6548,-50.8008,94.2993,-75.0732,-173.157,0.634827,0.629211,-0.419617,-0.157745,60642,60777,62777,3210,-30132
4050,31883,2.12461,6.771,0.712988,99.9976,-17.7484,-51.0535,117.798,-90.0879,-178.955,0.629913,0.63443,-0.417419,-0.162323,60638,60754,62787,3210,-30132
4056,31889,2.6749,11.4365,-0.957031,100.789,-16.7871,-51.416,137.512,-115.112,-183.044,0.616974,0.646332,-0.41449,-0.172211,60718,60657,62814,3210,-30132
4062,31895,5.2541,13.4606,-2.99551,102.486,-14.7162,-52.5641,138,-178.772,-190.43,0.609222,0.652283,-0.414124,-0.178192,60747,60628,62835,3210,-30132
4068,31901,8.94824,14.9297,-5.9958,103.282,-13.5516,-53.2782,124.878,-201.111,-204.59,0.600861,0.657898,-0.414337,-0.185303,60770,60572,62861,3210,-30132
4074,31907,11.7954,15.9968,-8.32617,103.92,-12.3212,-53.9044,99.0601,-191.345,-218.323,0.592285,0.663116,-0.414581,-0.193604,60787,60532,62897,3210,-30132
4080,31913,13.3649,15.8149,-9.84785,104.332,-11.0577,-54.3164,63.7207,-157.654,-232.91,0.584381,0.667969,-0.413849,-0.202301,60800,60465,62940,3210,-30132
4086,31919,11.0441,15.0924,-8.44102,104.535,-9.78333,-54.4757,30.9448,-111.877,-247.986,0.572968,0.676666,-0.407074,-0.219055,60813,60332,63040,3210,-30132
4092,31925,7.76631,15.8341,-8.0917,104.628,-7.229,-54.1351,6.83594,-32.7148,-270.63,0.569153,0.68103,-0.401062,-0.226501,60864,60268,63095,3210,-30132
4098,31931,4.22051,19.5378,-9.12051,104.65,-5.98755,-53.8275,6.46973,-22.9492,-264.648,0.565948,0.68573,-0.393707,-0.233154,60902,60179,63150,3210,-30132
4104,31937,3.16299,23.6243,-12.0921,104.562,-4.80652,-53.5419,-17.6392,-22.8271,-252.014,0.562897,0.690308,-0.386261,-0.23938,60929,60109,63204,3210,-30132
4110,31943,2.89502,23.5669,-11.6375,104.233,-3.62549,-53.2727,-67.1997,-24.0479,-251.221,0.560638,0.694,-0.378906,-0.245697,60992,60015,63253,3210,-30132
4116,31949,1.79922,19.0162,-9.50332,103.76,-2.50488,-53.0365,-97.3511,-24.7803,-237.183,0.559875,0.697723,-0.363251,-0.260162,61070,59876,63333,3210,-30132
4122,31955,0.349316,18.7626,-5.74697,102.722,-0.444946,-52.2729,-113.708,23.0713,-229.431,0.560547,0.698944,-0.355255,-0.266418,61140,59784,63363,3210,-30132
4128,31961,-2.89023,19.5713,-5.13926,102.206,0.598755,-51.817,-109.253,29.1748,-233.032,0.561829,0.700134,-0.346283,-0.272308,61189,59709,63388,3210,-30132
4134,31967,-6.23506,22.6146,-7.43613,101.728,1.6095,-51.2897,-102.6,48.7671,-227.6,0.562958,0.701447,-0.337097,-0.278015,61273,59647,63407,3210,-30132
4140,31973,-9.10615,24.9163,-7.29258,101.146,2.6532,-50.8063,-124.573,42.1753,-231.018,0.564148,0.703003,-0.327637,-0.282928,61336,59554,63421,3210,-30132
4146,31979,-13.4415,19.5617,-4.85215,100.415,3.7793,-50.4272,-155.334,22.4609,-242.065,0.567871,0.703766,-0.308044,-0.29541,61508,59405,63435,3210,-30132
4152,31985,-14.1401,19.0306,-2.5792,98.8385,6.26221,-50.1801,-158.447,-39.3066,-263.55,0.569794,0.702789,-0.298553,-0.303619,61616,59347,63432,3210,-30132
4158,31991,-18.4037,18.6047,-2.69883,98.2837,7.60803,-50.3943,-110.168,-87.7075,-264.343,0.570618,0.701843,-0.289368,-0.312988,61701,59297,63422,3210,-30132
4164,31997,-21.0643,21.0403,-4.67988,97.7948,8.75061,-50.7843,-90.4541,-112.671,-219.116,0.569214,0.701294,-0.282013,-0.323303,61813,59255,63407,3210,-30132
4170,32003,-19.7723,21.6959,-7.13467,97.218,9.69543,-51.4435,-99.1821,-156.433,-171.997,0.567413,0.700256,-0.276855,-0.333038,61902,59219,63390,3210,-30132
4176,32009,-12.1352,19.9158,-5.28281,96.5643,10.4755,-52.3828,-103.943,-205.811,-133.728,0.564514,0.693787,-0.273529,-0.353638,62124,59086,63359,3210,-30132
4182,32015,-7.93379,19.734,-4.89043,95.213,11.5686,-54.5801,-95.6421,-234.802,-72.6318,0.563171,0.689148,-0.274475,-0.363922,62208,59033,63346,3210,-30132
4188,32021,-4.84736,19.2985,-3.42139,94.5374,11.9476,-55.7281,-94.4824,-235.596,-56.7017,0.56192,0.684113,-0.27652,-0.373688,62279,58988,63339,3210,-30132
4194,32027,-2.18682,18.7243,-2.72275,93.8947,12.2717,-56.8597,-86.2427,-231.506,-48.584,0.560852,0.678833,-0.278992,-0.382996,62341,58947,63332,3210,-30132
4200,32033,-0.090918,18.8296,-2.67969,93.2959,12.5629,-57.9309,-79.7729,-219.177,-46.2646,0.559662,0.673645,-0.281738,-0.391815,62398,58912,63327,3210,-30132
4206,32039,3.20127,19.3703,-4.87129,92.7246,12.843,-58.9197,-76.416,-203.979,-46.6919,0.557251,0.664124,-0.286469,-0.407745,62500,58854,63323,3210,-30132
4212,32045,4.81387,19.088,-5.71826,91.5326,13.3813,-60.6445,-90.9424,-171.509,-50.8423,0.556335,0.659668,-0.288147,-0.414978,62545,58830,63323,3210,-30132
4218,32051,6.63223,18.6334,-6.28291,90.8734,13.656,-61.3477,-105.408,-150.269,-55.2979,0.555847,0.655273,-0.289124,-0.421814,62588,58808,63325,3210,-30132
4224,32057,8.05342,18.3224,-6.36426,90.1593,13.9307,-61.9189,-122.314,-125.427,-59.021,0.555969,0.65097,-0.289154,-0.428284,62627,58788,63330,3210,-30132
4230,32063,8.6085,17.729,-5.9958,89.3903,14.2053,-62.3804,-138.55,-104.309,-59.8145,0.556793,0.646759,-0.288116,-0.434204,62663,58768,63232,3210,-30132
4236,32069,11.9055,16.5806,-4.95742,88.5773,14.469,-62.7704,-151.001,-91.1865,-60.4248,0.560364,0.638275,-0.283783,-0.444885,62722,58734,63346,3210,-30132
4242,32075,13.4894,15.8963,-5.30674,86.8744,14.9469,-63.1549,-176.575,-38.8794,-54.5654,0.562988,0.634155,-0.280609,-0.449463,62744,58720,63349,3210,-30132
4248,32081,14.432,14.566,-5.36895,85.979,15.1501,-63.056,-192.81,-0.0610352,-48.7061,0.566498,0.630188,-0.276489,-0.453186,62761,58708,63346,3210,-30132
4254,32087,13.6042,12.0395,-5.09619,85.0836,15.3314,-62.699,-208.435,47.4854,-41.3818,0.570984,0.626556,-0.27124,-0.45575,62771,58696,63339,3210,-30132
4260,32093,12.1399,9.11094,-4.85215,84.1992,15.4413,-62.0782,-220.947,97.0459,-22.583,0.576599,0.623352,-0.264679,-0.456909,62828,58683,63326,3210,-30132
4266,32099,6.68486,3.50273,-2.91416,83.3478,15.4688,-61.2323,-226.501,136.536,-0.12207,0.591309,0.618195,-0.249023,-0.453949,62912,58656,63282,3226,-30134
4272,32105,4.36885,1.6126,-1.89492,81.7328,15.1721,-59.1888,-229.309,169.678,56.1523,0.599915,0.615845,-0.241028,-0.450165,62942,58681,63255,3226,-30134
4278,32111,1.45947,-0.368457,-0.665137,80.9528,14.8315,-58.1287,-225.159,166.382,85.022,0.60907,0.613251,-0.23349,-0.445313,62961,58697,63218,3226,-30134
4284,32117,2.11982,-2.85674,-0.363672,80.2112,14.3756,-57.1179,-213.745,150.757,109.619,0.618561,0.610321,-0.226868,-0.439667,63023,58703,63167,3226,-30134
4290,32123,1.99063,-4.82344,0.330176,79.552,13.8153,-56.2115,-191.65,127.38,127.014,0.62793,0.607086,-0.221497,-0.433563,63073,58742,63106,3226,-30134
4296,32129,2.63184,-7.6084,1.88535,79.0137,13.1946,-55.3931,-161.072,106.018,138.55,0.644592,0.600739,-0.21521,-0.420929,63145,58793,62972,3226,-30134
4302,32135,2.56963,-8.45059,1.8375,78.4589,11.8158,-54.0912,-82.8857,58.1665,148.621,0.651154,0.598358,-0.214386,-0.414612,63174,58806,62901,3226,-30134
4308,32141,3.675,-8.95781,1.24414,78.4369,11.0907,-53.6133,-40.7715,32.959,146.545,0.656586,0.596497,-0.214966,-0.408325,63199,58854,62833,3226,-30134
4314,32147,3.31133,-6.91455,-0.655566,78.5303,10.2887,-53.2178,-15.0146,13.1836,158.569,0.660614,0.595428,-0.21698,-0.402283,63221,58891,62762,3226,-30134
4320,32153,6.76621,-5.92402,-0.679492,78.7445,9.49768,-52.9541,14.5264,-11.3525,149.841,0.663971,0.594635,-0.220276,-0.396118,63244,58920,62694,3226,-30134
4326,32159,11.427,-5.90967,-0.334961,79.118,8.78906,-52.7563,46.6309,-22.7661,131.409,0.666931,0.595093,-0.229187,-0.385223,63292,59001,62575,3226,-30134
4332,32165,12.0921,-4.26357,-1.29678,80.2661,7.53113,-52.1027,94.5435,14.4043,112.183,0.667175,0.596893,-0.233521,-0.379425,63319,59052,62525,3226,-30134
4338,32171,12.0825,-2.64619,-2.38779,80.9583,6.95984,-51.5808,97.9614,45.6543,111.206,0.666718,0.599884,-0.237366,-0.373077,63348,59097,62483,3226,-30134
4344,32177,11.4413,-1.14844,-3.34961,81.6669,6.38306,-50.9052,98.2666,76.7212,115.112,0.666412,0.603485,-0.240326,-0.365814,63326,59137,62446,3226,-30134
4350,32183,9.67559,-0.392383,-3.8377,82.348,5.77332,-50.1141,91.2476,101.685,123.047,0.666412,0.607544,-0.242523,-0.357544,63310,59174,62418,3226,-30134
4356,32189,6.35947,-0.411523,-4.23008,82.9907,5.10315,-49.2407,81.4819,117.737,136.536,0.667908,0.615601,-0.245392,-0.338531,63283,59242,62377,3226,-30134
4362,32195,5.34023,-1.30156,-4.11523,84.0839,3.5321,-47.4335,58.5938,125.183,164.185,0.669373,0.61908,-0.246735,-0.328156,63271,59273,62362,3226,-30134
4368,32201,4.39756,-2.44043,-3.23477,84.5618,2.64771,-46.5601,53.2227,120.911,174.561,0.671265,0.622009,-0.24823,-0.317474,63260,59258,62347,3226,-30134
4374,32207,3.7707,-3.5793,-2.14375,85.0397,1.73035,-45.7361,55.6641,113.098,178.955,0.673248,0.624573,-0.250092,-0.30661,63250,59286,62334,3243,-30136
4380,32213,3.20127,-4.57939,-1.37334,85.556,0.807495,-44.967,64.6362,103.394,178.101,0.675018,0.626984,-0.252319,-0.295807,63243,59311,62321,3243,-30136
4386,32219,2.08633,-5.53643,-0.966602,86.1383,-0.098877,-44.2749,80.1392,92.8345,173.096,0.676849,0.632294,-0.257904,-0.274689,63232,59351,62300,3243,-30136
4392,32225,1.7418,-5.09619,-0.961816,87.6654,-1.90613,-43.1378,128.967,64.6973,167.236,0.676392,0.635651,-0.261505,-0.264496,63229,59366,62290,3243,-30136
4398,32231,1.43076,-4.09131,-1.14844,88.6102,-2.84546,-42.7039,152.771,49.7437,170.837,0.674957,0.639526,-0.265747,-0.254395,63230,59381,62284,3243,-30136
4404,32237,1.88057,-2.57441,-1.60781,89.6265,-3.82874,-42.3578,168.091,36.1938,179.81,0.672577,0.643829,-0.270782,-0.244324,63233,59393,62278,3243,-30136
4410,32243,2.72754,-1.0958,-2.42129,90.6812,-4.87244,-42.0776,174.683,27.0386,190.613,0.669586,0.648224,-0.276611,-0.234161,63238,59404,62275,3243,-30136
4416,32249,4.88086,1.24414,-2.88066,91.7358,-5.97107,-41.8469,174.5,22.0947,200.562,0.662811,0.656494,-0.289856,-0.213409,63257,59422,62282,3243,-30136
4422,32255,5.07705,1.78965,-2.65576,93.7738,-8.23425,-41.424,167.847,26.7944,210.449,0.659454,0.660217,-0.296661,-0.20282,63220,59429,62293,3243,-30136
4428,32261,5.37852,2.51699,-2.14854,94.7021,-9.39331,-41.1713,155.029,38.3911,211.731,0.656128,0.663666,-0.303406,-0.192017,63195,59437,62308,3243,-30136
4434,32267,4.59854,2.78975,-2.11982,95.592,-10.5524,-40.8911,149.17,47.8516,210.999,0.653229,0.666718,-0.309692,-0.181,63178,59441,62329,3243,-30136
4440,32273,3.5123,3.03379,-1.94756,96.4655,-11.7114,-40.6,148.071,54.3823,211.304,0.650513,0.669556,-0.315552,-0.16983,63170,59445,62351,3243,-30136
4446,32279,1.59346,3.67021,-1.22979,97.3444,-12.887,-40.3198,150.696,55.481,212.952,0.644989,0.674927,-0.326721,-0.147003,63074,59449,62404,3243,-30136
4452,32285,0.995313,3.98604,-1.46426,99.1187,-15.282,-39.8584,152.893,50.6592,221.619,0.641968,0.677429,-0.332428,-0.135498,63041,59448,62435,3243,-30136
4458,32291,0.263184,4.33057,-1.50732,100.009,-16.507,-39.6991,153.198,44.7998,227.356,0.638855,0.679718,-0.338196,-0.123962,63019,59446,62468,3243,-30136
4464,32297,-0.0287109,5.06748,-1.04795,100.92,-17.7209,-39.6002,156.433,36.5601,227.661,0.63559,0.681763,-0.344208,-0.112488,62953,59441,62502,3243,-30136
4470,32303,-0.234473,6.01016,-0.961816,101.865,-18.9075,-39.5508,161.255,30.8228,223.694,0.632019,0.683685,-0.350403,-0.101257,62901,59435,62536,3243,-30136
4476,32309,-1.16758,8.51758,-1.13408,102.832,-20.0555,-39.5563,165.527,23.6816,220.52,0.623932,0.687561,-0.36264,-0.0796814,62826,59421,62605,3243,-30136
4482,32315,-1.15322,10.1732,-2.19639,104.777,-22.2363,-39.6661,166.748,18.1885,210.388,0.619537,0.689453,-0.368652,-0.069397,62802,59413,62643,3243,-30136
4488,32321,-2.81367,13.8674,-2.64619,105.661,-23.269,-39.7925,149.109,12.146,207.275,0.615112,0.691223,-0.374451,-0.0594482,62736,59445,62683,3252,-30137
4494,32327,-3.68457,15.8724,-4.16309,106.386,-24.2633,-39.9902,115.723,4.21143,206.482,0.611084,0.692383,-0.380157,-0.0502625,62683,59471,62726,3252,-30137
4500,32333,-4.1918,15.3699,-4.21572,106.985,-25.2246,-40.2594,86.3647,-4.5166,206.116,0.60791,0.692505,-0.385956,-0.0421448,62644,59491,62771,3252,-30137
4506,32339,-3.80898,14.7144,-1.36855,107.54,-26.1475,-40.5945,74.0967,-11.7798,204.651,0.60321,0.690521,-0.39798,-0.0285339,62499,59516,62861,3252,-30137
4512,32345,-3.36875,15.1881,-0.899609,108.589,-27.8668,-41.347,64.3921,-14.8315,192.2,0.601013,0.689148,-0.403992,-0.0226135,62446,59521,62903,3252,-30137
4518,32351,-3.2252,16.0016,-0.521582,109.05,-28.6414,-41.6876,60.3027,-7.8125,180.542,0.598969,0.687714,-0.409729,-0.0170288,62405,59561,62943,3252,-30137
4524,32357,-3.63193,16.6619,-0.44502,109.457,-29.3555,-41.9678,54.4434,1.46484,165.771,0.597137,0.68631,-0.414917,-0.0117798,62326,59593,62979,3252,-30137
4530,32363,-4.41191,16.8103,-0.263184,109.786,-29.9982,-42.182,48.0347,9.82666,149.292,0.595612,0.684967,-0.419434,-0.00683594,62260,59617,63017,3252,-30137
4536,32369,-6.11543,16.7241,0.521582,110.067,-30.553,-42.3468,43.9453,16.4795,130.615,0.593475,0.682587,-0.426331,0.00164795,62158,59688,63088,3252,-30137
4542,32375,-6.78535,16.6858,0.827832,110.506,-31.4044,-42.5116,41.2598,25.9399,94.2383,0.592651,0.681763,-0.428741,0.00521851,62121,59732,63126,3252,-30137
4548,32381,-7.1873,16.7098,1.00967,110.671,-31.7065,-42.5116,41.2598,32.1045,76.4771,0.591949,0.681244,-0.430511,0.0083313,62091,59768,63157,3252,-30137
4554,32387,-9.14443,16.6858,1.05752,110.814,-31.9208,-42.5061,38.0249,27.71,60.3027,0.591339,0.681,-0.431641,0.0110474,62016,59795,63187,3252,-30137
4560,32393,-5.27803,14.3603,1.72744,110.978,-32.135,-42.4457,49.0723,38.208,57.0679,0.590729,0.681,-0.432404,0.013092,61949,59817,63212,3252,-30137
4566,32399,-9.06309,15.1785,1.43555,111.083,-32.157,-42.3083,45.8374,38.6963,17.6392,0.589417,0.682281,-0.432068,0.0167542,61838,59888,63258,3252,-30137
4572,32405,-8.61807,13.8817,1.23936,111.242,-31.8384,-41.9897,46.2646,28.6865,-29.1138,0.588776,0.683594,-0.430817,0.0171204,61793,59933,63280,3252,-30137
4578,32411,-8.43623,13.0491,1.871,111.313,-31.4703,-41.7645,49.4995,27.1606,-59.1431,0.588013,0.685455,-0.428955,0.0167847,61751,59972,63303,3252,-30137
4584,32417,-7.81895,12.0395,2.31123,111.368,-30.976,-41.4789,52.4292,28.6255,-87.1582,0.587097,0.687958,-0.426239,0.0156555,61713,60007,63324,3252,-30137
4590,32423,-7.3835,10.6183,2.36865,111.396,-30.3113,-41.1053,56.0913,30.5786,-123.535,0.586121,0.69104,-0.422638,0.0138855,61677,60041,63343,3252,-30137
4596,32429,-8.68984,8.97217,2.8041,111.434,-29.5477,-40.6824,61.7065,33.4473,-144.897,0.583893,0.699158,-0.412415,0.00823975,61661,60103,63374,3252,-30137
4602,32435,-9.14443,7.00547,3.33047,111.731,-27.7844,-39.8145,90.5151,26.9775,-175.659,0.582092,0.704102,-0.406555,0.00494385,61674,60094,63391,3252,-30137
4608,32441,-13.0874,18.3032,12.4605,112.148,-26.9385,-39.1663,157.471,67.1387,-175.964,0.579803,0.709595,-0.400269,0.00137329,61682,60092,63406,3243,-30136
4614,32447,-3.5793,52.6894,-28.108,114.835,-26.0156,-40.2924,449.341,-237.915,-66.1621,0.576111,0.716644,-0.392914,0.000152588,61681,60096,63417,3243,-30136
4620,32453,4.38799,156.795,-87.2143,115.637,-25.7465,-41.0339,102.966,-128.784,25.6958,0.557861,0.728973,-0.396576,-0.00262451,61674,60068,63430,3243,-30136
4626,32459,-0.392383,15.9489,-13.7525,113.038,-26.499,-40.3308,-451.721,190.674,102.417,0.569916,0.718475,-0.39859,-0.00564575,61747,60035,63462,3243,-30136
4632,32465,-11.1255,-4.45977,-1.51689,105.057,-29.2401,-36.0187,-549.805,491.15,167.236,0.597107,0.700043,-0.39151,-0.000427246,61774,60027,63475,3243,-30136
4638,32471,-8.82383,-15.4561,14.7191,101.876,-30.3223,-34.3213,-467.529,353.516,163.147,0.621735,0.682831,-0.383453,0.0085144,61797,60014,63477,3243,-30136
4644,32477,4.13438,3.2252,13.3745,101.19,-30.2673,-35.3595,-241.15,-161.804,46.0815,0.641022,0.667389,-0.378601,0.0145569,61818,60028,63458,3243,-30136
4650,32483,-4.92871,-12.4558,8.51758,101.239,-29.8004,-37.2491,-178.711,-323.975,-6.5918,0.64505,0.660278,-0.38443,0.006073,61832,60023,63416,3243,-30136
