TimeSinceCollection,Timestamp,AccX,AccY,AccZ,AngleRoll,AnglePitch,AngleYaw,AngularVelX,AngularVelY,             AngularVelZ,Q1,Q2,Q3,Q4,MagX,MagY,MagZ,Height,Airpressure
0,122969,4.1248,8.65635,-0.200977,103.997,-26.8011,-32.7997,6.34766,-8.23975,0.915527,0.62619,0.695496,-0.352173,0.00738525,58914,57546,65412,4187,-30249
6,122975,4.31143,8.54629,0.0430664,104.03,-26.7682,-33.2172,8.11768,-7.62939,2.13623,0.626007,0.694489,-0.354523,0.00488281,58917,57539,65429,4187,-30249
12,122981,4.25879,8.68984,-0.124414,104.057,-26.7517,-33.4314,8.42285,-7.99561,3.72314,0.625854,0.694031,-0.355682,0.00366211,58920,57535,65446,4187,-30249
18,122987,4.30664,8.8334,-0.277539,104.084,-26.7407,-33.6456,8.42285,-8.48389,4.02832,0.625702,0.693542,-0.356903,0.00250244,58923,57531,65465,4187,-30249
24,122993,4.31621,8.88125,-0.507227,104.106,-26.7297,-33.8654,7.32422,-8.78906,4.39453,0.625519,0.693054,-0.358154,0.00131226,58925,57528,65481,4187,-30249
30,122999,4.53633,9.11094,-0.550293,104.117,-26.7188,-34.0686,5.06592,-7.32422,4.27246,0.625366,0.692535,-0.359436,0.000152588,58928,57522,65513,4187,-30249
36,123005,4.6751,8.94824,-0.507227,104.095,-26.7188,-34.4696,0.732422,-5.12695,4.76074,0.625336,0.691315,-0.361877,-0.00213623,58930,57520,65528,4187,-30249
42,123011,4.79473,8.69941,-0.497656,104.073,-26.7133,-34.6619,-0.549316,-5.12695,4.94385,0.625427,0.690613,-0.363007,-0.00326538,58931,57518,7,4187,-30249
48,123017,4.91914,8.69463,-0.555078,104.052,-26.7133,-34.8486,-0.366211,-4.39453,3.84521,0.625549,0.68988,-0.364166,-0.00439453,58933,57517,22,4187,-30249
54,123023,5.04355,8.83818,-0.516797,104.019,-26.7023,-35.0244,-0.976563,-3.23486,2.80762,0.625702,0.689178,-0.365265,-0.00552368,58934,57515,37,4187,-30249
60,123029,4.9957,8.94346,-0.45459,103.975,-26.6968,-35.1892,-2.74658,-1.0376,1.70898,0.625854,0.688446,-0.366302,-0.00662231,58939,57508,59,4187,-30249
66,123035,5.12969,8.59414,-0.521582,103.848,-26.6583,-35.4913,-4.76074,-0.0610352,-1.83105,0.626465,0.68692,-0.368103,-0.0088501,58941,57503,66,4187,-30249
72,123041,5.15361,8.68506,-0.803906,103.804,-26.6199,-35.6506,-2.62451,-2.13623,-4.27246,0.626801,0.686188,-0.368896,-0.0100403,58942,57498,70,4187,-30249
78,123047,5.24932,9.08701,-1.02881,103.76,-26.5759,-35.799,-2.86865,-1.83105,-5.79834,0.627014,0.685547,-0.369659,-0.011261,58942,57496,74,4187,-30249
84,123053,5.16797,9.4459,-0.866113,103.689,-26.532,-35.9308,-5.85938,0.427246,-7.44629,0.627258,0.684937,-0.370361,-0.0125427,58942,57494,80,4187,-30249
90,123059,5.04355,9.31191,-0.488086,103.585,-26.4825,-36.0406,-11.4136,4.08936,-8.97217,0.627594,0.684265,-0.370911,-0.0137939,58943,57493,96,4187,-30249
96,123065,4.95264,8.28789,-0.0574219,103.343,-26.3672,-36.2494,-12.9395,4.57764,-12.207,0.628845,0.682648,-0.371704,-0.0164185,58945,57493,101,4187,-30249
102,123071,5.19668,8.1874,-0.435449,103.26,-26.2793,-36.3757,-7.32422,0,-15.3809,0.629486,0.681854,-0.37204,-0.0177917,58946,57494,0,4187,-30249
108,123077,5.24932,8.77119,-0.669922,103.2,-26.1859,-36.5021,-4.57764,-1.70898,-17.334,0.629852,0.681274,-0.372375,-0.0192871,58945,57495,106,4187,-30249
114,123083,5.33066,9.40762,-0.789551,103.134,-26.0815,-36.6339,-5.31006,-2.56348,-19.5923,0.630127,0.680817,-0.372711,-0.0208435,58945,57496,106,4187,-30249
120,123089,5.59863,9.60381,-0.904395,103.046,-25.9662,-36.7493,-9.58252,-0.732422,-22.0947,0.630371,0.680359,-0.372986,-0.0224609,58942,57500,106,4187,-30249
126,123095,5.59863,9.42676,-0.162695,102.805,-25.719,-36.9031,-12.6343,7.44629,-27.0996,0.631317,0.679291,-0.373108,-0.0258789,58939,57504,106,4187,-30249
132,123101,5.69434,8.9291,-0.320605,102.689,-25.5652,-36.969,-9.70459,5.49316,-32.3486,0.631958,0.678772,-0.372864,-0.0274963,58934,57509,0,4187,-30249
138,123107,5.31152,8.95303,-0.990527,102.585,-25.4059,-37.0129,-6.53076,9.39941,-34.3018,0.632446,0.678436,-0.372528,-0.0292664,58928,57515,101,4187,-30249
144,123113,5.10098,9.72822,-0.976172,102.486,-25.2356,-37.0459,-5.24902,9.82666,-36.8042,0.632904,0.678223,-0.37204,-0.0308838,58921,57520,99,4187,-30249
150,123119,4.63203,9.92441,-1.05752,102.371,-25.0598,-37.0844,-8.91113,9.27734,-37.6587,0.633301,0.67807,-0.371429,-0.0325317,58905,57535,102,4187,-30249
156,123125,4.67031,9.24492,-0.358887,102.063,-24.7137,-37.1338,-17.7002,11.8408,-37.9028,0.634491,0.67749,-0.370148,-0.0360413,58896,57542,99,4187,-30249
162,123131,4.2875,8.84297,-0.0813477,101.904,-24.5435,-37.1558,-17.0288,11.8408,-37.5366,0.635284,0.677032,-0.369415,-0.0378418,58886,57551,98,4187,-30249
168,123137,4.11045,8.90518,0.210547,101.75,-24.3732,-37.1722,-14.5264,13.3667,-38.3911,0.636047,0.676605,-0.368713,-0.0396118,58875,57559,96,4187,-30249
174,123143,3.60801,8.66592,0.239258,101.618,-24.2029,-37.2107,-13.3057,10.6201,-36.6821,0.636749,0.67627,-0.36795,-0.0413513,58912,57568,93,4187,-30249
180,123149,3.45967,8.78555,-0.0765625,101.486,-24.0381,-37.2491,-11.8408,10.6812,-35.3394,0.63739,0.675903,-0.36734,-0.0431213,58966,57508,81,4187,-30249
186,123155,2.66055,9.55117,-0.875684,101.234,-23.7524,-37.3425,-14.1602,10.437,-28.9917,0.638458,0.675232,-0.366241,-0.0465088,58985,57484,72,4187,-30249
192,123161,2.46914,9.80479,-0.741699,101.08,-23.6371,-37.403,-19.9585,8.30078,-24.292,0.639099,0.674744,-0.365845,-0.0480652,59000,57464,62,4187,-30249
198,123167,2.91416,10.4651,-1.20586,100.915,-23.5327,-37.4908,-24.9634,3.23486,-21.3623,0.639862,0.674042,-0.365601,-0.0496216,59014,57447,52,4187,-30249
204,123173,2.50264,9.53682,0.416309,100.931,-23.324,-37.8259,-8.54492,-44.5557,-32.6538,0.640686,0.673157,-0.36554,-0.0513306,59025,57433,43,4187,-30249
210,123179,0.090918,9.20664,-1.81836,100.931,-23.1921,-38.0896,-6.83594,-30.1514,-20.0195,0.640228,0.672791,-0.366547,-0.0545349,59036,57409,24,4187,-30249
216,123185,18.3989,16.8868,10.3503,101.909,-22.2034,-40.21,52.4902,-233.459,-87.7686,0.637299,0.672455,-0.370972,-0.0625305,59038,57401,18,4187,-30249
222,123191,22.9257,13.3506,5.44072,102.415,-21.3245,-41.1987,53.1006,-183.105,-140.869,0.631866,0.67392,-0.375885,-0.0720215,59086,57396,16,4187,-30249
228,123197,18.887,7.67061,-3.16299,102.519,-20.5554,-41.402,30.7617,-36.9873,-151.428,0.626984,0.676178,-0.377991,-0.081604,59127,57393,19,4187,-30249
234,123203,15.8867,8.6085,-6.3499,102.541,-19.8358,-41.1108,45.2881,49.3774,-163.696,0.625122,0.678436,-0.375732,-0.0874634,59162,57392,30,4187,-30249
240,123209,11.0106,12.4797,-5.17754,102.579,-18.9789,-40.6165,55.2368,67.688,-198.425,0.624207,0.681641,-0.370697,-0.0905457,59198,57366,73,4187,-30249
246,123215,2.73711,15.7192,-0.827832,102.53,-17.0343,-40.0507,13.4888,4.21143,-213.013,0.621979,0.690002,-0.356995,-0.0974426,59248,57346,100,4187,-30249
252,123221,3.05293,13.1927,-0.775195,102.497,-15.9961,-40.1605,2.38037,-46.936,-209.961,0.620941,0.693024,-0.351257,-0.103333,59279,57294,125,4187,-30249
258,123227,5.20625,10.3407,-2.07197,102.524,-14.9359,-40.4517,4.08936,-83.9233,-207.275,0.619385,0.695404,-0.346954,-0.11087,59351,57251,148,4187,-30249
264,123233,6.45996,8.62285,-0.866113,102.601,-13.8043,-40.7922,10.8643,-97.5952,-218.689,0.617188,0.697571,-0.343719,-0.119354,59403,57220,173,4187,-30249
270,123239,6.14893,8.84775,1.42598,102.728,-12.6178,-41.1493,23.8037,-101.99,-230.347,0.614441,0.699982,-0.340454,-0.128357,59544,57148,213,4187,-30249
276,123245,4.9,10.69,2.30645,103.173,-10.0964,-42.0447,51.3916,-118.774,-243.591,0.607117,0.70575,-0.333862,-0.147369,59633,57109,236,4187,-30249
282,123251,5.43594,11.5418,0.239258,103.497,-8.7561,-42.605,66.8335,-133.972,-250.549,0.602417,0.708893,-0.331024,-0.157623,59747,57042,262,4187,-30249
288,123257,7.32129,14.1641,-2.26338,103.892,-7.32788,-43.2257,80.7495,-152.954,-264.343,0.596863,0.71228,-0.328491,-0.168396,59840,56984,290,4187,-30249
294,123263,9.42676,20.246,-2.36387,104.337,-5.8667,-43.8959,92.2852,-168.213,-268.494,0.590393,0.716003,-0.32608,-0.179779,59958,56941,322,4187,-30249
300,123269,13.1975,24.1315,-6.53652,104.65,-4.38904,-44.3958,64.6973,-157.166,-278.381,0.583191,0.719849,-0.323944,-0.191437,60153,56810,406,4187,-30249
306,123275,11.7763,23.0022,-10.0728,104.716,-2.91138,-44.5056,-18.9819,-52.8564,-293.762,0.572632,0.726715,-0.314148,-0.212555,60279,56766,458,4187,-30249
312,123281,9.20186,25.3135,-5.33066,104.42,-0.230713,-43.8245,-42.7246,-2.80762,-281.677,0.570099,0.729889,-0.305664,-0.220642,60422,56690,517,4187,-30249
318,123287,6.52217,25.5623,-7.10596,104.101,1.02722,-43.2147,-66.5283,32.7148,-287.415,0.569061,0.732666,-0.296082,-0.227142,60541,56625,572,4187,-30249
324,123293,3.08643,25.1077,-6.43125,103.667,2.31262,-42.5885,-90.8813,43.2739,-292.969,0.569061,0.735107,-0.285248,-0.233032,60675,56573,621,4187,-30249
330,123299,1.14365,25.6484,-4.98613,103.167,3.60352,-41.9952,-105.286,44.3115,-293.457,0.569824,0.736877,-0.273865,-0.239166,60986,56461,696,4187,-30249
336,123305,1.23936,21.7629,-2.43086,101.882,6.32813,-40.8527,-145.813,49.2554,-314.392,0.572601,0.738556,-0.250641,-0.252472,61159,56404,719,4187,-30249
342,123311,-0.617285,18.6812,-0.890039,101.25,7.78381,-40.155,-141.541,75.4395,-330.261,0.574585,0.738678,-0.238007,-0.259735,61343,56356,731,4187,-30249
348,123317,-3.12471,17.2601,0.0430664,100.723,9.28894,-39.3475,-127.563,101.379,-343.628,0.576385,0.739136,-0.224304,-0.266571,61496,56315,736,4187,-30249
354,123323,-9.02959,17.6237,0.808691,100.393,10.7117,-38.3807,-97.4731,145.508,-331.909,0.577667,0.740112,-0.209747,-0.272797,61660,56240,728,4187,-30249
360,123329,-13.4032,19.1311,-3.37832,100.118,11.8982,-37.3315,-93.9941,173.462,-287.292,0.578308,0.742004,-0.194977,-0.277222,62015,56116,674,4187,-30249
366,123335,-18.4994,17.5472,-5.30674,99.2725,13.7659,-35.7111,-130.554,125.061,-202.026,0.581299,0.744385,-0.168488,-0.281891,62204,56064,633,4196,-30250
372,123341,-19.7005,16.2791,-4.1248,98.7286,14.4635,-35.2936,-131.042,75.7446,-163.33,0.583954,0.743774,-0.158051,-0.284058,62401,56018,582,4196,-30250
378,123347,-18.9875,13.9248,-1.94756,98.1683,15.0513,-35.2661,-116.516,6.28662,-127.808,0.58667,0.742218,-0.150055,-0.286896,62618,55977,530,4196,-30250
384,123353,-15.9011,11.8433,1.63652,97.641,15.5566,-35.6122,-91.4917,-59.6313,-101.013,0.588776,0.739929,-0.145172,-0.291016,62847,55938,467,4196,-30250
390,123359,-12.2644,10.0297,3.1582,97.2345,15.9961,-36.1835,-53.7109,-100.708,-82.0313,0.589935,0.737213,-0.143158,-0.296478,63250,55908,327,4196,-30250
396,123365,-8.53193,10.2785,1.10059,96.85,16.7047,-37.6062,11.0474,-127.014,-53.894,0.588501,0.733032,-0.144775,-0.308655,63434,55911,254,4196,-30250
402,123371,-8.19697,11.3982,-0.172266,96.7841,16.9464,-38.4027,28.4424,-137.573,-36.1938,0.586426,0.73172,-0.147308,-0.314484,63594,55912,185,4196,-30250
408,123377,-7.35479,12.006,-1.03359,96.7511,17.1002,-39.3036,41.1987,-154.907,-15.686,0.583923,0.73056,-0.150818,-0.320068,63736,55910,121,4196,-30250
414,123383,-5.55557,11.982,-2.30645,96.7401,17.1497,-40.3088,52.3071,-173.828,6.71387,0.581177,0.72934,-0.155609,-0.325562,63863,55904,60,4196,-30250
420,123389,-3.14863,11.9103,-3.43574,96.7346,17.1112,-41.4185,60.5469,-193.481,27.832,0.578217,0.727936,-0.161652,-0.330963,64081,55886,65498,4196,-30250
426,123395,3.87598,11.4844,-4.46455,96.7072,16.8311,-43.7915,61.7065,-212.097,52.4902,0.572052,0.724335,-0.177063,-0.341522,64180,55875,65460,4196,-30250
432,123401,6.70879,11.3791,-4.14873,96.6742,16.6113,-44.9615,57.9224,-210.999,63.5986,0.569092,0.722137,-0.185425,-0.346619,64274,55904,65431,4196,-30250
438,123407,10.0728,11.6088,-3.62715,96.6467,16.3477,-46.0492,54.3213,-198.303,70.2515,0.566437,0.719757,-0.193939,-0.351227,64363,55929,65407,4196,-30250
444,123413,12.9582,12.2404,-3.92383,96.6357,16.0236,-46.972,47.1191,-171.753,76.9653,0.564117,0.717377,-0.202179,-0.355164,64399,55949,65387,4196,-30250
450,123419,16.4418,13.9966,-4.76602,96.6577,15.6445,-47.6807,43.1519,-139.282,83.252,0.562439,0.715179,-0.209717,-0.35788,64438,55973,65366,4196,-30250
456,123425,18.2602,11.9916,-7.23994,96.4105,14.6448,-47.9553,-36.6821,-10.3149,94.2993,0.562408,0.711639,-0.220825,-0.358276,64445,55980,65362,4196,-30250
462,123431,18.3511,10.3072,-7.59883,96.1469,14.057,-47.5269,-75.5005,57.251,102.173,0.565308,0.710114,-0.22287,-0.355469,64461,55982,65361,4196,-30250
468,123437,17.4802,8.68984,-7.43613,95.8063,13.4143,-46.7468,-108.765,122.803,105.408,0.57019,0.70871,-0.222748,-0.350555,64430,55982,65358,4196,-30250
474,123443,13.6281,5.6752,-6.30684,95.3943,12.7771,-45.6976,-135.559,171.631,101.746,0.576691,0.70752,-0.220459,-0.343689,64413,56021,65350,4196,-30250
480,123449,11.5992,4.16309,-3.67021,94.8889,12.074,-44.5331,-158.997,194.336,113.586,0.584351,0.70639,-0.2164,-0.335541,64365,56076,65313,4196,-30250
486,123455,5.63691,-2.26816,-1.68438,93.7244,11.0028,-42.0337,-173.401,210.693,83.8013,0.601654,0.703156,-0.205505,-0.318176,64336,56095,65281,4212,-30252
492,123461,3.59844,-4.57461,-0.583789,93.197,10.4315,-40.7483,-164.124,213.867,91.5527,0.610168,0.701538,-0.19928,-0.309387,64267,56107,65240,4212,-30252
498,123467,0.430664,-6.93369,0.258398,92.7246,9.86023,-39.5178,-149.78,204.773,94.5435,0.618378,0.700012,-0.193329,-0.300171,64207,56116,65197,4212,-30252
504,123473,-2.41172,-8.96738,1.43555,92.3291,9.23401,-38.4027,-129.028,182.495,107.117,0.625977,0.698608,-0.187927,-0.290955,64162,56160,65140,4212,-30252
510,123479,-3.52666,-10.2067,2.32559,91.9775,8.53638,-37.4579,-111.816,150.757,123.23,0.632782,0.697296,-0.183807,-0.281891,64053,56220,65001,4212,-30252
516,123485,-3.42617,-11.5657,3.45488,91.8842,7.0752,-36.546,-11.8408,21.8506,137.878,0.642975,0.694946,-0.181458,-0.265747,63993,56278,64921,4212,-30252
522,123491,-0.851758,-11.0298,2.91895,92.2028,6.32813,-36.59,48.8892,-44.1895,140.564,0.645081,0.69455,-0.184174,-0.259735,63946,56325,64842,4212,-30252
528,123497,2.81846,-9.26406,1.71309,92.7466,5.59204,-36.8481,97.6563,-87.4023,139.221,0.644806,0.695068,-0.189514,-0.255096,63909,56365,64768,4212,-30252
534,123503,6.40732,-6.73272,0.373242,93.4607,4.87793,-37.1997,131.165,-106.445,137.085,0.642609,0.696533,-0.196564,-0.251312,63836,56397,64700,4212,-30252
540,123509,9.21143,-4.14873,-0.995313,94.2847,4.16931,-37.5403,148.132,-103.21,134.521,0.639069,0.698761,-0.204407,-0.247803,63694,56442,64594,4212,-30252
546,123515,12.25,-0.105273,-2.42129,96.0919,2.70264,-37.8809,145.325,-41.0156,141.174,0.630066,0.705048,-0.220062,-0.239532,63629,56498,64564,4212,-30252
552,123521,12.1974,1.28242,-2.56006,96.8829,1.88965,-37.738,129.578,1.46484,146.484,0.626404,0.708313,-0.22641,-0.233521,63531,56546,64549,4212,-30252
558,123527,10.6661,1.871,-2.77539,97.5696,1.00525,-37.4359,107.239,36.9873,155.762,0.623596,0.711487,-0.231598,-0.226196,63450,56589,64543,4212,-30252
564,123533,8.75684,1.76094,-2.87109,98.1573,0.0714111,-37.0404,86.792,59.5703,163.147,0.621826,0.714264,-0.235901,-0.217712,63389,56625,64552,4212,-30252
570,123539,6.78057,1.04316,-2.43564,98.6682,-0.895386,-36.6119,72.876,69.2749,168.579,0.62088,0.716583,-0.239594,-0.208527,63225,56678,64592,4212,-30252
576,123545,4.31143,-0.516797,-0.75127,99.6021,-2.8949,-35.8209,64.6973,64.6362,175.293,0.620209,0.720062,-0.246613,-0.189484,63124,56693,64619,4212,-30252
582,123551,3.37832,-1.0001,-0.090918,100.08,-3.91113,-35.4749,66.9556,60.0586,177.002,0.619843,0.721527,-0.250336,-0.180023,63045,56743,64647,4212,-30252
588,123557,2.32559,-1.54561,0.272754,100.591,-4.94934,-35.1837,73.9746,52.4292,183.105,0.619293,0.7229,-0.254242,-0.170624,62930,56786,64674,4212,-30252
594,123563,1.64609,-1.53604,0.153125,101.151,-6.00403,-34.953,83.8013,43.0908,188.293,0.618378,0.724304,-0.258575,-0.161224,62838,56819,64703,4229,-30254
600,123569,0.90918,-1.28721,0.0669922,101.794,-7.08618,-34.8157,98.1445,28.5034,195.862,0.617004,0.725769,-0.263397,-0.151825,62621,56903,64762,4229,-30254
606,123575,1.65088,0.47373,-0.91875,103.255,-9.27246,-34.8816,113.77,-7.87354,207.947,0.612305,0.728943,-0.275208,-0.133575,62495,56950,64794,4229,-30254
612,123581,2.75625,1.65088,-1.37334,104.03,-10.3656,-35.0464,114.746,-19.104,211.487,0.609222,0.730438,-0.282104,-0.124969,62395,56986,64828,4229,-30254
618,123587,3.8042,2.86152,-1.40684,104.793,-11.4532,-35.2441,112.122,-23.0713,212.341,0.605896,0.73175,-0.289368,-0.116608,62313,57015,64864,4229,-30254
624,123593,4.1918,3.88076,-1.30156,105.529,-12.5354,-35.4364,106.262,-19.165,211.487,0.602539,0.732849,-0.296692,-0.108398,62200,57076,64906,4229,-30254
630,123599,3.94297,4.76602,-1.225,106.227,-13.623,-35.6067,99.1211,-11.8408,211.365,0.599335,0.733734,-0.303802,-0.10022,61953,57156,65010,4229,-30254
636,123605,1.92363,5.79004,-1.18193,107.468,-15.8258,-35.8868,81.604,1.15967,215.881,0.593811,0.73468,-0.317139,-0.0834045,61818,57219,65068,4229,-30254
642,123611,0.995313,6.03408,-1.04795,108.023,-16.9354,-36.0406,74.0967,0.610352,217.834,0.591553,0.734619,-0.323517,-0.0748901,61711,57264,65131,4229,-30254
648,123617,0.425879,6.22549,-0.421094,108.561,-18.0341,-36.2274,69.2139,-2.99072,218.323,0.589508,0.734253,-0.329895,-0.0664673,61571,57341,65193,4229,-30254
654,123623,0.153125,6.45039,0.234473,109.089,-19.1162,-36.4362,67.1997,-6.40869,216.919,0.587555,0.733612,-0.336273,-0.0582886,61457,57402,65257,4229,-30254
660,123629,-0.191406,6.63701,0.617285,109.611,-20.1709,-36.6559,67.8101,-6.89697,213.379,0.585602,0.732819,-0.342621,-0.050354,61204,57554,65388,4229,-30254
666,123635,-0.76084,7.24951,0.617285,110.72,-22.1924,-37.1008,80.5054,-3.17383,202.759,0.581482,0.731201,-0.354828,-0.0349121,61063,57647,65455,4229,-30254
672,123641,-1.51211,7.84287,1.29678,111.313,-23.1537,-37.326,90.3931,-0.366211,196.228,0.579163,0.73056,-0.360565,-0.0273132,60950,57718,65523,4229,-30254
678,123647,-2.18203,8.71855,1.68438,111.945,-24.0656,-37.6172,101.501,0.610352,189.758,0.576569,0.730072,-0.366119,-0.0198364,60852,57775,51,4229,-30254
684,123653,-2.74668,9.68516,1.69395,112.615,-24.9115,-38.0237,111.694,0.549316,181.396,0.57373,0.729614,-0.371765,-0.0128784,60724,57859,117,4229,-30254
690,123659,-3.07207,10.7379,1.60303,113.329,-25.6805,-38.5016,120.239,0.427246,172.546,0.570526,0.729095,-0.377808,-0.0067749,60532,58012,249,4229,-30254
696,123665,-3.03379,13.0874,1.5791,114.857,-27.0264,-39.4574,135.864,5.98145,151.428,0.563171,0.728607,-0.389679,0.00372314,60413,58083,314,4229,-30254
702,123671,-3.25869,14.6521,1.17715,115.637,-27.6306,-39.8639,140.442,16.6626,141.235,0.559143,0.72879,-0.39502,0.00866699,60313,58179,380,4229,-30254
708,123677,-4.70381,18.0018,0.75127,116.323,-28.2129,-40.2209,126.526,26.5503,136.108,0.555084,0.729248,-0.39975,0.0136719,60226,58262,443,4229,-30254
714,123683,-5.63691,18.1262,-0.334961,116.933,-28.7567,-40.545,112.976,29.8462,128.296,0.551575,0.729431,-0.404022,0.0185242,60156,58369,506,4229,-30254
720,123689,-5.45029,17.9826,-0.272754,117.482,-29.2621,-40.7977,107.361,39.978,116.333,0.548523,0.729431,-0.407898,0.0229797,59955,58529,637,4229,-30254
726,123695,-8.33574,20.5235,-1.02402,118.328,-30.0751,-41.0669,83.9844,55.0537,84.7168,0.543427,0.729767,-0.413574,0.0314026,59877,58625,701,4229,-30254
732,123701,-9.5416,20.7389,-1.25371,118.586,-30.3827,-41.1163,66.5283,56.0913,68.4814,0.541687,0.729858,-0.415405,0.0350037,59811,58704,764,4229,-30254
738,123707,-10.3455,20.3321,-1.60303,118.735,-30.6134,-41.1273,48.1567,56.0303,53.4058,0.540497,0.729858,-0.416656,0.0378723,59754,58772,821,4229,-30254
744,123713,-11.6758,19.6718,-1.36377,118.784,-30.7727,-41.1328,27.832,50.293,40.7104,0.539886,0.729767,-0.41745,0.0400696,59707,58869,873,4229,-30254
750,123719,-11.6279,19.5187,-0.502441,118.773,-30.8441,-41.1658,12.2681,37.5366,28.7476,0.539795,0.729431,-0.417999,0.0413513,59538,59023,965,4229,-30254
756,123725,-2.58877,56.4409,-13.0252,120.624,-28.4052,-42.2974,106.384,-165.039,-212.097,0.530792,0.73526,-0.419861,0.0355225,59469,59084,1006,4229,-30254
762,123731,-33.319,96.5788,-44.0809,119.207,-28.2678,-40.7263,-119.324,259.766,-151.917,0.524628,0.741577,-0.417175,0.0255737,59403,59140,1048,4229,-30254
768,123737,-16.6954,50.7131,-41.1667,117.032,-28.7457,-38.985,-257.996,348.999,-49.5605,0.533234,0.741119,-0.406891,0.0267029,59341,59192,1090,4229,-30254
774,123743,-24.3469,32.6539,0.851758,114.395,-28.8171,-38.1116,-431.824,179.871,-41.8091,0.547516,0.735443,-0.397858,0.0307312,59331,59244,1126,4229,-30254
780,123749,-12.4271,16.3222,0.866113,111.583,-29.317,-37.1008,-455.688,236.633,35.8887,0.564178,0.725464,-0.393188,0.0263977,59298,59272,1149,4229,-30254
786,123755,-4.33057,-7.69453,7.05332,107.463,-29.3719,-37.1118,-372.07,4.27246,21.7896,0.596497,0.70166,-0.389099,0.0189209,59282,59290,1124,4229,-30254
792,123761,-5.52686,-7.82852,15.6379,106.386,-29.339,-37.6996,-264.038,-63.7207,40.8936,0.607513,0.691589,-0.390381,0.0116577,59267,59307,1077,4229,-30254
798,123767,0.0813477,-14.968,15.7432,106.144,-29.2896,-38.8037,-148.376,-151.855,62.9272,0.613953,0.68399,-0.393829,0.00463867,59256,59322,1023,4229,-30254
804,123773,6.89541,-14.3076,13.6855,106.282,-29.0588,-40.1935,-97.5952,-210.632,43.1519,0.615387,0.678986,-0.400177,-0.00244141,59247,59332,958,4229,-30254
810,123779,9.25449,-8.64199,6.90977,106.919,-28.5919,-41.5393,9.0332,-218.262,-3.05176,0.614227,0.675629,-0.40744,-0.0109863,59236,59339,832,4229,-30254
816,123785,13.3171,2.82324,-0.626855,109.292,-27.2736,-43.2257,223.633,-109.497,-71.7773,0.602509,0.679718,-0.417419,-0.0256042,59234,59381,786,4229,-30254
822,123791,12.6567,9.10137,-5.34023,110.775,-26.7572,-43.4509,291.931,-40.4663,-70.6787,0.593567,0.686584,-0.418793,-0.0283203,59232,59418,754,4229,-30254
828,123797,11.8672,12.628,-8.05342,111.89,-26.3892,-43.2916,253.296,31.311,-68.8477,0.583801,0.695129,-0.418488,-0.0276184,59230,59451,734,4212,-30252
834,123803,7.41221,30.1034,-8.62285,112.379,-26.1365,-43.0994,130.615,44.1284,-52.002,0.576447,0.702576,-0.416351,-0.0252991,59227,59441,729,4212,-30252
840,123809,4.11045,30.6872,-14.7861,112.077,-26.0376,-42.7423,-15.1978,81.1157,-34.79,0.57309,0.706543,-0.414276,-0.0243225,59215,59434,751,4212,-30252
846,123815,-0.301465,14.121,-9.61338,110.116,-26.1969,-41.8469,-179.016,103.821,1.52588,0.580231,0.70401,-0.408661,-0.0244751,59206,59437,765,4212,-30252
852,123821,0.736914,8.35488,0.258398,109.023,-26.2958,-41.5942,-186.89,78.064,10.9863,0.587341,0.699371,-0.406372,-0.0256958,59198,59442,774,4212,-30252
858,123827,2.01455,3.5458,2.87109,108.089,-26.4276,-41.391,-158.386,71.4111,21.1792,0.594208,0.694275,-0.404968,-0.0275574,59190,59446,779,4212,-30252
864,123833,2.92373,3.16299,6.15371,107.347,-26.543,-41.1987,-120.728,69.2749,19.4092,0.600067,0.689697,-0.404053,-0.0289001,59183,59452,775,4212,-30252
870,123839,2.27295,4.35928,8.12041,106.771,-26.5759,-41.0559,-90.6372,56.2744,6.34766,0.604736,0.686096,-0.403198,-0.0296936,59173,59459,737,4212,-30252
876,123845,1.52168,4.79473,4.81865,106.216,-26.5924,-41.0999,-29.0527,15.4419,13.1836,0.610565,0.681519,-0.402008,-0.0317383,59169,59462,711,4212,-30252
882,123851,1.99541,6.17285,4.29707,106.199,-26.5704,-41.2976,-6.16455,-4.21143,12.8174,0.611572,0.680298,-0.402496,-0.0328064,59165,59463,680,4212,-30252
888,123857,3.14385,6.99111,1.97627,106.287,-26.532,-41.5503,9.58252,-14.8926,13.4277,0.611572,0.679596,-0.403564,-0.0340881,59161,59464,652,4212,-30252
894,123863,4.08652,8.02949,0.890039,106.43,-26.4825,-41.8414,18.5547,-21.6675,13.0615,0.610931,0.679291,-0.404938,-0.0354004,59158,59463,623,4212,-30252
900,123869,4.9335,8.80947,-0.253613,106.6,-26.4276,-42.149,21.7285,-25.4517,11.2305,0.609924,0.679199,-0.406494,-0.0367432,59151,59460,568,4212,-30252
906,123875,5.89531,10.2115,-1.92842,106.88,-26.2903,-42.6984,18.4326,-19.6533,6.04248,0.607635,0.679199,-0.409607,-0.0396423,59150,59456,547,4212,-30252
912,123881,6.03408,10.7427,-2.44043,106.946,-26.2244,-42.9126,9.70459,-11.7798,3.66211,0.606689,0.679169,-0.410919,-0.0410156,59149,59453,530,4212,-30252
918,123887,5.86182,10.4747,-2.39258,106.93,-26.1694,-43.0719,-1.52588,-2.44141,1.46484,0.60614,0.678955,-0.411957,-0.0423279,59150,59448,517,4212,-30252
924,123893,5.53643,10.0967,-1.90928,106.853,-26.1255,-43.1818,-9.64355,5.61523,0.427246,0.60611,0.678467,-0.412659,-0.0436096,59155,59443,508,4212,-30252
930,123899,4.98135,9.46025,-0.890039,106.727,-26.0815,-43.2587,-15.4419,11.4746,-0.488281,0.606476,0.677826,-0.413086,-0.0447998,59164,59435,487,4212,-30252
936,123905,3.95732,8.32617,0.593359,106.479,-26.0046,-43.396,-13.3057,12.6343,-1.46484,0.607819,0.676208,-0.413513,-0.0469971,59167,59432,479,4212,-30252
942,123911,3.53623,8.11563,0.823047,106.392,-25.9662,-43.4839,-8.72803,9.76563,-0.915527,0.608398,0.675476,-0.413727,-0.0480652,59169,59430,472,4212,-30252
948,123917,3.33047,8.24961,0.698633,106.342,-25.9222,-43.5992,-3.35693,5.06592,-0.305176,0.608826,0.674805,-0.414032,-0.0491028,59170,59428,465,4212,-30252
954,123923,3.36875,8.54629,0.382813,106.331,-25.8783,-43.7476,1.46484,-1.52588,0.305176,0.609009,0.674286,-0.41452,-0.0502014,59170,59425,460,4212,-30252
960,123929,3.71328,8.76641,-0.124414,106.353,-25.8234,-43.9343,5.24902,-8.36182,0.854492,0.608948,0.673828,-0.415192,-0.0513611,59169,59424,449,4212,-30252
966,123935,4.53633,9.27363,-0.607715,106.425,-25.708,-44.3573,5.85938,-13.2446,0.793457,0.608246,0.673096,-0.417084,-0.0539856,59169,59424,444,4212,-30252
972,123941,4.83301,9.27363,-0.425879,106.441,-25.6476,-44.5551,2.68555,-11.2305,0.305176,0.607849,0.672699,-0.418091,-0.0553894,59168,59423,440,4212,-30252
978,123947,4.95264,8.9291,-0.090918,106.43,-25.6036,-44.7308,0.732422,-6.95801,0.12207,0.607574,0.672241,-0.419037,-0.0567627,59167,59422,438,4212,-30252
984,123953,4.40713,8.7999,-0.090918,106.414,-25.5542,-44.8901,0.549316,-3.96729,-0.305176,0.607483,0.671722,-0.419861,-0.058075,59167,59421,438,4212,-30252
990,123959,4.14395,8.69463,0.0669922,106.397,-25.5103,-45.0494,1.09863,-3.78418,-0.366211,0.607422,0.671204,-0.420624,-0.0592651,59171,59417,442,4212,-30252
996,123965,3.94297,8.37881,0.492871,106.397,-25.4224,-45.3735,5.24902,-4.63867,-0.427246,0.607239,0.670197,-0.422119,-0.0616455,59174,59416,443,4212,-30252
1002,123971,3.86641,8.33096,0.46416,106.425,-25.3729,-45.5548,8.66699,-7.44629,-0.305176,0.607056,0.669769,-0.422882,-0.0628052,59175,59415,445,4212,-30252
1008,123977,3.89512,8.27832,0.210547,106.479,-25.3235,-45.7526,12.5732,-10.9253,-0.488281,0.60672,0.669434,-0.423767,-0.0639648,59176,59415,445,4212,-30252
1014,123983,4.08174,8.46016,-0.0526367,106.562,-25.2686,-45.9668,16.7236,-14.2212,-0.671387,0.606201,0.669159,-0.424713,-0.065155,59178,59414,444,4212,-30252
1020,123989,4.25879,8.77598,-0.354102,106.655,-25.2081,-46.1865,18.8599,-15.564,-1.0376,0.605499,0.668976,-0.425781,-0.0663757,59178,59416,445,4212,-30252
1026,123995,4.38799,9.19229,-0.77998,106.826,-25.0928,-46.615,16.7236,-14.2212,-0.793457,0.603973,0.668732,-0.427979,-0.0687866,59178,59416,447,4212,-30252
1032,124001,4.42148,9.16836,-0.765625,106.891,-25.0433,-46.8182,14.4653,-13.1226,-1.0376,0.603302,0.668549,-0.429047,-0.0699768,59179,59417,447,4212,-30252
1038,124007,4.34492,9.11094,-0.521582,106.941,-24.9939,-47.016,12.2681,-11.6577,-0.610352,0.602692,0.668304,-0.430054,-0.071167,59178,59417,451,4212,-30252
1044,124013,4.1918,8.92432,-0.373242,106.99,-24.9445,-47.2137,11.9629,-11.5967,-0.732422,0.602203,0.667999,-0.43103,-0.0723267,59178,59416,455,4212,-30252
1050,124019,4.14873,8.78076,-0.277539,107.045,-24.9005,-47.4115,12.8784,-12.5122,-0.549316,0.601715,0.667694,-0.432007,-0.0734863,59179,59415,466,4212,-30252
1056,124025,4.11523,8.66592,-0.483301,107.188,-24.7906,-47.8455,15.8691,-17.395,-0.976563,0.600586,0.667084,-0.434082,-0.0758362,59179,59417,473,4212,-30252
1062,124031,4.1918,8.73291,-0.46416,107.281,-24.7302,-48.0817,16.9067,-19.8364,-1.28174,0.599884,0.66684,-0.435211,-0.0770874,59177,59419,481,4212,-30252
1068,124037,4.34014,8.72813,-0.545508,107.375,-24.6698,-48.3234,18.0664,-21.4844,-1.95313,0.599091,0.666626,-0.436401,-0.0783997,59175,59421,490,4212,-30252
1074,124043,4.44063,8.84297,-0.550293,107.479,-24.6039,-48.5651,18.8599,-21.3623,-1.95313,0.598236,0.666412,-0.437622,-0.0797119,59171,59423,501,4212,-30252
1080,124049,4.47412,8.94824,-0.674707,107.567,-24.538,-48.8013,18.1274,-19.9585,-2.38037,0.597382,0.666229,-0.438843,-0.0810242,59166,59423,526,4212,-30252
1086,124055,4.56025,8.94346,-0.961816,107.732,-24.4226,-49.2407,16.7236,-16.4185,-2.56348,0.595764,0.665833,-0.441162,-0.0835876,59166,59424,542,4212,-30252
1092,124061,4.53154,9.00088,-1.08145,107.803,-24.3677,-49.4385,15.9912,-14.1602,-2.74658,0.595062,0.665619,-0.44223,-0.0847778,59166,59424,557,4212,-30252
1098,124067,4.53633,9.154,-1.26328,107.858,-24.3127,-49.6307,14.2212,-13.0615,-3.23486,0.594391,0.665405,-0.443207,-0.085907,59167,59425,571,4212,-30252
1104,124073,4.47891,9.19707,-1.24414,107.902,-24.2633,-49.812,12.146,-11.2915,-2.99072,0.593811,0.665131,-0.444153,-0.0870361,59166,59428,586,4212,-30252
1110,124079,4.47891,9.17793,-1.14844,107.93,-24.2194,-49.9823,9.70459,-9.15527,-2.62451,0.593323,0.664825,-0.445068,-0.0881348,59166,59431,611,4212,-30252
1116,124085,4.3832,9.02002,-1.21543,107.957,-24.1425,-50.3064,7.01904,-6.65283,-2.62451,0.592651,0.664032,-0.446716,-0.090271,59166,59432,627,4212,-30252
1122,124091,4.45498,9.11572,-1.17236,107.957,-24.104,-50.4547,5.49316,-5.49316,-2.38037,0.592407,0.663605,-0.447479,-0.0913086,59167,59431,640,4212,-30252
1128,124097,4.40234,9.11572,-1.16279,107.941,-24.0765,-50.5975,3.84521,-3.96729,-2.31934,0.592224,0.663147,-0.448212,-0.0923157,59168,59432,652,4212,-30252
1134,124103,4.42148,9.12051,-1.23457,107.919,-24.0491,-50.7294,1.89209,-1.89209,-1.89209,0.592102,0.662628,-0.448883,-0.0932922,59168,59433,662,4212,-30252
1140,124109,4.3832,9.07266,-1.24893,107.88,-24.0271,-50.8447,-0.0610352,0.183105,-1.77002,0.592102,0.662079,-0.449524,-0.0942688,59167,59438,674,4212,-30252
1146,124115,4.33535,9.08701,-1.10059,107.759,-23.9996,-51.059,-3.72314,3.479,-1.2207,0.592377,0.660828,-0.450623,-0.0960388,59168,59440,679,4212,-30252
1152,124121,4.26836,8.90996,-1.11494,107.688,-23.9941,-51.1523,-5.61523,4.5166,-0.488281,0.592621,0.660126,-0.451111,-0.0968933,59168,59442,683,4212,-30252
1158,124127,4.28271,8.93867,-0.961816,107.606,-23.9886,-51.2457,-6.46973,5.5542,-0.183105,0.592957,0.659393,-0.451569,-0.0977478,59168,59445,688,4212,-30252
1164,124133,4.31621,8.90518,-0.961816,107.523,-23.9886,-51.3336,-7.20215,6.65283,0,0.593323,0.65863,-0.452026,-0.0985718,59168,59448,690,4212,-30252
1170,124139,4.21094,8.90996,-0.947461,107.424,-23.9886,-51.4105,-8.91113,8.17871,0.305176,0.59375,0.657837,-0.452454,-0.0993652,59165,59449,700,4212,-30252
1176,124145,4.07695,8.85732,-0.60293,107.205,-24.0161,-51.5479,-11.7188,11.3525,1.83105,0.594818,0.656158,-0.453156,-0.10083,59164,59447,703,4212,-30252
1182,124151,3.62715,8.62285,-0.660352,107.084,-24.0271,-51.6138,-12.4512,10.6812,1.64795,0.595459,0.655243,-0.453491,-0.101532,59163,59446,706,4212,-30252
1188,124157,3.84727,8.45059,-0.253613,106.968,-24.0491,-51.6852,-12.8174,10.0708,2.80762,0.5961,0.654327,-0.453827,-0.102264,59162,59445,707,4212,-30252
1194,124163,3.92383,8.34053,0.090918,106.859,-24.0601,-51.7676,-10.9253,8.30078,2.74658,0.596741,0.653351,-0.454224,-0.102997,59159,59445,705,4212,-30252
1200,124169,3.84727,8.11084,0.263184,106.776,-24.071,-51.8719,-8.11768,5.24902,2.74658,0.59729,0.652435,-0.454651,-0.10376,59157,59443,699,4212,-30252
1206,124175,4.00996,8.08213,0.0382813,106.672,-24.0875,-52.1082,-0.0610352,1.15967,3.23486,0.597992,0.650726,-0.45578,-0.105316,59157,59442,698,4212,-30252
1212,124181,4.08652,8.32617,-0.406738,106.661,-24.093,-52.24,4.15039,-1.28174,3.23486,0.598114,0.650024,-0.456482,-0.106079,59158,59442,697,4212,-30252
1218,124187,4.14395,8.77119,-0.947461,106.655,-24.093,-52.3828,4.76074,-2.38037,3.41797,0.598053,0.649414,-0.457275,-0.106812,59159,59442,695,4212,-30252
1224,124193,4.28271,9.18272,-1.21543,106.639,-24.0985,-52.5256,2.68555,-2.31934,3.60107,0.597961,0.648804,-0.458069,-0.107574,59159,59442,693,4212,-30252
1230,124199,4.47412,9.29756,-1.20586,106.6,-24.1095,-52.6575,-1.70898,-0.244141,4.15039,0.5979,0.648132,-0.458862,-0.108337,59163,59443,693,4212,-30252
1236,124205,4.53633,8.8334,-0.741699,106.447,-24.1425,-52.8607,-7.99561,6.34766,4.21143,0.598358,0.646515,-0.460236,-0.109863,59164,59443,691,4212,-30252
1242,124211,4.40234,8.61807,-0.689063,106.359,-24.1644,-52.9431,-7.26318,8.17871,3.72314,0.598785,0.64563,-0.460754,-0.110565,59163,59445,691,4212,-30252
1248,124217,3.76113,8.77119,-0.765625,106.271,-24.1809,-53.0255,-7.26318,8.11768,2.99072,0.599243,0.644775,-0.461212,-0.111206,59163,59446,688,4212,-30252
1254,124223,3.99561,8.81904,-0.784766,106.183,-24.2029,-53.1079,-8.54492,7.38525,4.5166,0.59967,0.643921,-0.461639,-0.111877,59163,59446,685,4212,-30252
1260,124229,4.15352,8.74727,-0.91875,106.1,-24.2194,-53.2068,-8.36182,4.94385,4.15039,0.600128,0.643036,-0.462128,-0.112518,59165,59443,674,4212,-30252
1266,124235,4.96221,8.88603,-1.07666,105.947,-24.2358,-53.421,-7.69043,2.0752,1.77002,0.600922,0.641235,-0.463226,-0.114044,59165,59440,667,4212,-30252
1272,124241,5.24932,9.03438,-1.49297,105.87,-24.2303,-53.5199,-7.38525,2.38037,-0.854492,0.601227,0.640411,-0.463776,-0.114899,59163,59437,660,4212,-30252
1278,124247,5.44551,9.42197,-1.83271,105.782,-24.2194,-53.6023,-9.09424,5.12695,-2.74658,0.601532,0.639618,-0.464233,-0.115753,59163,59436,657,4212,-30252
1284,124253,5.34502,9.71387,-1.99541,105.667,-24.2029,-53.6572,-13.0005,8.30078,-4.57764,0.601929,0.638885,-0.464539,-0.116608,59163,59435,656,4212,-30252
1290,124259,5.17754,9.74736,-1.83271,105.507,-24.1919,-53.6902,-19.6533,13.3667,-5.37109,0.602478,0.638092,-0.464691,-0.117493,59165,59436,654,4212,-30252
1296,124265,4.81387,9.11572,-0.947461,105.084,-24.1699,-53.6902,-29.6631,19.4702,-7.75146,0.604401,0.636139,-0.464447,-0.119293,59168,59436,650,4212,-30252
1302,124271,4.60332,8.71377,-0.373242,104.859,-24.1479,-53.6737,-30.6396,19.9585,-9.15527,0.605591,0.63504,-0.464111,-0.120239,59169,59436,645,4212,-30252
1308,124277,4.28271,8.51758,0.354102,104.639,-24.1205,-53.6627,-27.0996,20.752,-10.9863,0.606842,0.633942,-0.463715,-0.121216,59171,59437,636,4212,-30252
1314,124283,4.2875,8.27354,0.641211,104.453,-24.0765,-53.6682,-23.7427,16.0522,-12.4512,0.608002,0.632965,-0.463287,-0.122192,59172,59438,628,4212,-30252
1320,124289,4.42148,7.929,0.267969,104.326,-24.0106,-53.7177,-14.1602,8.42285,-15.7471,0.608948,0.63208,-0.462982,-0.123291,59169,59441,609,4212,-30252
1326,124295,4.72773,8.87646,-0.181836,104.183,-23.8184,-53.877,-3.2959,-0.732422,-20.813,0.60965,0.631042,-0.462799,-0.125793,59166,59442,602,4212,-30252
1332,124301,5.00049,9.19707,-0.62207,104.134,-23.7085,-53.9703,-2.86865,-2.19727,-22.8271,0.60965,0.630768,-0.462799,-0.127167,59163,59444,593,4212,-30252
1338,124307,5.05791,9.29277,-1.1915,104.068,-23.5876,-54.0582,-4.39453,-0.854492,-24.5972,0.609589,0.630524,-0.462799,-0.128601,59159,59446,585,4212,-30252
1344,124313,4.9335,9.53682,-1.23936,103.991,-23.4668,-54.1187,-6.28662,2.74658,-26.062,0.609619,0.63028,-0.462708,-0.130096,59154,59451,578,4212,-30252
1350,124319,4.59375,9.65166,-1.01924,103.881,-23.3459,-54.1571,-10.376,6.71387,-26.3672,0.609741,0.630035,-0.462463,-0.131531,59146,59460,567,4212,-30252
1356,124325,4.48848,9.29277,-1.00488,103.601,-23.1097,-54.2065,-16.2354,9.52148,-26.5503,0.610474,0.629364,-0.461548,-0.134399,59141,59465,559,4212,-30252
1362,124331,4.27314,9.11094,-1.11973,103.458,-22.9944,-54.223,-16.3574,10.0098,-27.0996,0.610992,0.628937,-0.46106,-0.135864,59136,59468,550,4212,-30252
1368,124337,3.92383,9.36934,-1.1293,103.304,-22.8735,-54.2395,-18.3716,10.498,-27.4658,0.611511,0.62851,-0.46051,-0.137299,59130,59473,541,4212,-30252
1374,124343,3.55059,9.55117,-0.827832,103.134,-22.7747,-54.245,-21.9116,12.3901,-24.231,0.612091,0.628052,-0.4599,-0.138733,59124,59479,533,4212,-30252
1380,124349,3.39268,9.34062,-0.746484,102.958,-22.6758,-54.2725,-23.9258,9.70459,-22.522,0.612823,0.627472,-0.45932,-0.140137,59108,59415,517,4212,-30252
1386,124355,3.77549,9.39805,-1.3207,102.629,-22.5,-54.3713,-22.7661,-0.671387,-20.1416,0.61438,0.626007,-0.458405,-0.142975,59149,59390,511,4212,-30252
1392,124361,4.44541,9.58945,-0.0430664,102.59,-22.3132,-54.6021,-11.6577,-31.189,-31.6162,0.614868,0.625244,-0.458252,-0.144592,59186,59368,502,4212,-30252
1398,124367,1.68438,8.04385,-2.58877,102.502,-22.1924,-54.7284,-16.2354,-10.7422,-22.3999,0.614349,0.624817,-0.458679,-0.147156,59219,59350,494,4212,-30252
1404,124373,1.70352,9.46982,-2.65576,102.42,-22.11,-54.8712,-15.8081,-12.8174,-14.9536,0.614441,0.624268,-0.458771,-0.148956,59246,59334,486,4212,-30252
1410,124379,10.0536,16.5997,8.18262,102.678,-21.7529,-55.5743,12.6343,-123.23,-44.9829,0.614502,0.623566,-0.459076,-0.150604,59288,59312,470,4212,-30252
1416,124385,18.6669,9.53203,4.23008,103.497,-20.3247,-57.3157,32.5928,-127.686,-127.319,0.605469,0.624237,-0.465698,-0.163574,59305,59304,465,4212,-30252
1422,124391,15.6714,5.31152,-1.59346,103.546,-19.7369,-57.3376,29.7241,-6.65283,-122.986,0.601166,0.625854,-0.466553,-0.170624,59319,59298,462,4212,-30252
1428,124397,13.1783,8.5415,-2.12939,103.607,-19.1602,-57.03,53.2837,54.5044,-137.573,0.599426,0.628143,-0.464355,-0.174286,59328,59295,467,4212,-30252
1434,124403,7.58926,13.1592,-1.66045,103.733,-18.4406,-56.7279,64.5142,46.1426,-164.307,0.598145,0.631775,-0.460358,-0.176147,59333,59297,478,4212,-30252
1440,124409,4.21094,14.3172,-1.94277,103.843,-17.644,-56.5796,50.5981,13.916,-173.279,0.596191,0.636139,-0.455933,-0.178619,59370,59241,507,4212,-30252
1446,124415,3.00986,10.1015,-2.00498,104.063,-15.9521,-56.662,40.0391,-40.6494,-172.058,0.59137,0.643433,-0.448364,-0.187378,59401,59226,521,4212,-30252
1452,124421,4.09609,9.99619,-1.00967,104.299,-15.0073,-56.9366,49.7437,-76.0498,-182.19,0.588165,0.646637,-0.445648,-0.19281,59424,59175,534,4212,-30252
1458,124427,4.9957,10.4651,-0.583789,104.645,-13.9856,-57.3541,65.1245,-107.422,-190.857,0.583893,0.649933,-0.443634,-0.19931,59486,59137,549,4212,-30252
1464,124433,6.48389,11.8146,-2.13896,105.046,-12.9034,-57.8485,73.9746,-127.014,-197.754,0.57843,0.653473,-0.442261,-0.206543,59534,59111,566,4212,-30252
1470,124439,7.32607,12.2787,-3.52666,105.414,-11.7719,-58.3429,67.0776,-133.667,-206.726,0.572235,0.657135,-0.441223,-0.214325,59636,59013,624,4212,-30252
1476,124445,8.46973,13.6951,-3.62715,105.963,-9.35486,-59.2548,47.7905,-133.301,-229.858,0.559814,0.664063,-0.438324,-0.231079,59689,58940,659,4212,-30252
1482,124451,9.01523,14.5564,-4.56982,106.166,-8.05847,-59.6393,41.1377,-129.578,-244.08,0.553741,0.66745,-0.436096,-0.240021,59730,58879,693,4212,-30252
1488,124457,9.52725,15.7814,-5.38809,106.309,-6.69617,-59.9744,30.8228,-127.136,-259.399,0.547729,0.670898,-0.433228,-0.249176,59805,58834,730,4212,-30252
1494,124463,9.47939,17.8534,-6.31641,106.408,-5.31738,-60.2106,25.1465,-112,-268.921,0.541809,0.674377,-0.429657,-0.258698,59858,58760,766,4212,-30252
1500,124469,9.38848,21.3896,-6.95762,106.458,-3.98254,-60.3259,15.564,-89.5386,-266.602,0.536194,0.67804,-0.425262,-0.267944,60051,58660,837,4212,-30252
1506,124475,6.54609,20.3226,-11.0059,106.051,-1.24695,-60.2545,-52.8564,-59.5093,-285.156,0.527283,0.684845,-0.414001,-0.285309,60139,58585,868,4212,-30252
1512,124481,4.66553,20.2412,-6.89063,105.727,0.0109863,-60.0842,-61.2793,-36.1328,-268.921,0.524506,0.687622,-0.406616,-0.294312,60252,58526,900,4212,-30252
1518,124487,2.74668,22.4328,-6.46475,105.403,1.15906,-59.7986,-63.1714,-6.53076,-253.235,0.522522,0.690094,-0.399017,-0.302277,60335,58439,931,4212,-30252
1524,124493,0.545508,23.1937,-8.51758,105.007,2.33459,-59.5239,-78.6133,-8.66699,-257.202,0.52124,0.692596,-0.391174,-0.309021,60445,58372,956,4212,-30252
1530,124499,-1.40205,23.3085,-7.55098,104.518,3.54858,-59.3097,-98.5718,-19.165,-261.658,0.520233,0.694733,-0.382965,-0.316132,60681,58241,993,4212,-30252
1536,124505,-3.67021,22.9783,-3.25391,103.348,5.99854,-58.8647,-125.732,-9.64355,-266.541,0.519165,0.697357,-0.365906,-0.33194,60817,58174,1003,4221,-30253
1542,124511,-3.84248,21.2078,-2.10547,102.695,7.31689,-58.7,-133.85,-22.1558,-279.724,0.519104,0.698242,-0.35672,-0.340057,60921,58122,1007,4221,-30253
1548,124517,-4.78516,18.2649,-1.78965,102.107,8.67371,-58.5681,-121.216,-25.6348,-286.987,0.518829,0.698822,-0.34726,-0.348938,61047,58041,1003,4221,-30253
1554,124523,-6.30684,17.5615,-1.02402,101.646,9.99207,-58.4198,-96.2524,-18.7378,-278.381,0.517853,0.699646,-0.33783,-0.35788,61193,57974,993,4221,-30253
1560,124529,-9.61338,18.1884,-2.40215,101.277,11.0687,-58.1946,-82.2144,9.0332,-234.192,0.516266,0.700867,-0.328857,-0.366028,61481,57799,948,4221,-30253
1566,124535,-11.9007,15.102,-5.36895,100.333,12.4695,-57.8156,-108.643,15.625,-133.118,0.515656,0.702515,-0.313721,-0.376862,61637,57730,921,4221,-30253
1572,124541,-11.9103,14.4081,-4.41191,99.8492,12.8595,-57.821,-98.5107,-6.40869,-87.4023,0.517059,0.701843,-0.308105,-0.380798,61761,57673,886,4221,-30253
1578,124547,-10.8767,14.4272,-2.3208,99.3933,13.1067,-58.0682,-83.252,-47.5464,-50.9033,0.518524,0.70047,-0.304504,-0.384247,61909,57625,846,4221,-30253
1584,124553,-7.16338,14.0684,0.277539,98.9758,13.2605,-58.5132,-65.979,-82.3364,-26.001,0.519562,0.698242,-0.303162,-0.38797,62032,57583,798,4221,-30253
1590,124559,-2.84238,13.164,0.880469,98.6353,13.3484,-58.9966,-48.1567,-87.4634,-11.9629,0.519989,0.695465,-0.30365,-0.391937,62324,57514,695,4221,-30253
1596,124565,-0.186621,11.5083,0.258398,98.2233,13.4418,-59.7821,-18.1885,-62.561,-6.95801,0.519867,0.690674,-0.306366,-0.398376,62445,57484,643,4221,-30253
1602,124571,-0.894824,10.7188,-0.186621,98.1354,13.4747,-60.1172,-3.72314,-58.2275,-6.04248,0.51944,0.689087,-0.307739,-0.400665,62554,57455,592,4221,-30253
1608,124577,-1.45947,10.6183,-0.890039,98.1244,13.4912,-60.4852,11.9629,-64.209,-1.77002,0.518646,0.687866,-0.309265,-0.402588,62654,57429,541,4221,-30253
1614,124583,-0.861328,11.3456,-2.14854,98.1464,13.4802,-60.9137,23.0103,-77.2705,5.85938,0.517395,0.686829,-0.31131,-0.404388,62744,57406,491,4221,-30253
1620,124589,0.894824,11.939,-3.05293,98.1738,13.4418,-61.3971,26.6724,-87.5244,13.1226,0.515778,0.68573,-0.314056,-0.406219,62904,57363,404,4221,-30253
1626,124595,4.64639,12.7477,-3.63193,98.1519,13.2715,-62.3804,15.4419,-89.3555,24.292,0.512512,0.682892,-0.320648,-0.409973,62973,57345,368,4221,-30253
1632,124601,6.40732,12.7429,-3.43096,98.0914,13.1451,-62.7979,5.85938,-78.186,27.2827,0.511322,0.681213,-0.323914,-0.411652,63037,57328,336,4221,-30253
1638,124607,7.81416,12.5706,-3.24912,97.9926,12.9968,-63.111,-6.65283,-61.1572,29.2358,0.510681,0.679474,-0.326813,-0.413025,63045,57310,310,4221,-30253
1644,124613,8.71855,11.9581,-3.25391,97.8552,12.8265,-63.3032,-20.813,-39.5508,30.0903,0.510712,0.677795,-0.329132,-0.41394,63058,57293,287,4221,-30253
1650,124619,8.58936,12.4414,-4.01475,97.63,12.6123,-63.3636,-43.5181,-15.9912,34.1187,0.511536,0.676208,-0.330658,-0.414276,63092,57258,250,4237,-30255
1656,124625,8.53672,8.46973,-1.99063,97.1521,12.2058,-63.1,-56.6406,25.0854,25.3906,0.515991,0.673126,-0.331116,-0.413422,63112,57242,230,4237,-30255
1662,124631,7.42656,8.39316,-1.85186,96.9269,11.9806,-62.7869,-60.6079,44.8608,27.5879,0.51886,0.67215,-0.33017,-0.41214,63133,57226,209,4237,-30255
1668,124637,5.7709,7.73281,-1.95713,96.6742,11.7224,-62.4023,-69.0308,57.9834,32.3486,0.522186,0.671478,-0.328735,-0.410187,63155,57210,181,4237,-30255
1674,124643,4.34492,6.41211,-2.45,96.3776,11.4203,-61.9739,-79.2236,64.8193,41.5649,0.526031,0.670807,-0.326904,-0.407806,63127,57193,148,4237,-30255
1680,124649,3.08164,5.19668,-2.68926,96.0315,11.0577,-61.5564,-89.4165,63.9038,53.9551,0.530457,0.669922,-0.324982,-0.40509,63090,57236,73,4237,-30255
1686,124655,2.57441,2.30166,-1.51211,95.224,10.2008,-60.8698,-98.7549,42.1143,74.2798,0.540497,0.666809,-0.321838,-0.399414,63076,57251,33,4237,-30255
1692,124661,2.80889,1.05752,-0.311035,94.812,9.71191,-60.6226,-95.459,27.6489,84.2285,0.545654,0.664642,-0.320953,-0.396729,63068,57262,65527,4237,-30255
1698,124667,3.71328,-0.0382813,0.0478516,94.4604,9.20105,-60.4138,-83.8623,18.4326,90.5762,0.550659,0.66214,-0.32074,-0.394135,63066,57269,65479,4237,-30255
1704,124673,4.52197,-0.875684,0.253613,94.1638,8.66272,-60.2216,-70.6177,12.6343,95.9473,0.555298,0.659729,-0.321045,-0.391418,63070,57272,65428,4237,-30255
1710,124679,5.52686,-1.5791,0.133984,93.9496,8.10242,-60.0238,-56.2744,10.0098,101.074,0.55957,0.657501,-0.321838,-0.388458,63000,57270,65311,4237,-30255
1716,124685,7.20645,-2.02891,-0.325391,93.7628,6.94336,-59.5349,-26.8555,17.8833,105.103,0.566986,0.653992,-0.324371,-0.381409,62975,57307,65255,4237,-30255
1722,124691,7.62754,-1.88535,-0.397168,93.7848,6.36108,-59.2053,-13.6719,27.5269,105.042,0.570221,0.652985,-0.325775,-0.377106,62963,57338,65201,4237,-30255
1728,124697,7.75195,-1.69873,-0.631641,93.8727,5.77881,-58.8098,-4.02832,38.0249,103.699,0.573151,0.652527,-0.327118,-0.372253,62907,57361,65149,4237,-30255
1734,124703,7.55576,-1.52646,-0.827832,93.9935,5.20203,-58.3594,0.976563,48.5229,102.234,0.575928,0.652557,-0.328247,-0.366913,62865,57376,65099,4237,-30255
1740,124709,7.10117,-1.55996,-0.976172,94.1364,4.63074,-57.854,3.96729,57.8003,99.9146,0.578644,0.652924,-0.329132,-0.361145,62761,57434,65008,4237,-30255
1746,124715,5.33066,-2.06719,-0.62207,94.5099,3.47717,-56.7554,14.2212,69.1528,100.647,0.583832,0.65448,-0.330231,-0.348724,62699,57475,64967,4237,-30255
1752,124721,4.4502,-2.37822,-0.497656,94.7406,2.86194,-56.1951,20.2026,70.4956,106.201,0.586243,0.655579,-0.33075,-0.342072,62649,57508,64927,4237,-30255
1758,124727,3.85205,-2.79453,-0.555078,95.0043,2.20825,-55.6567,26.7944,68.1763,114.075,0.588531,0.656769,-0.331482,-0.335083,62611,57535,64888,4237,-30255
1764,124733,3.51709,-3.17256,-0.583789,95.3064,1.51062,-55.1459,34.4238,62.8662,122.742,0.590637,0.65799,-0.332581,-0.32785,62582,57554,64853,4237,-30255
1770,124739,3.5793,-3.4166,-0.947461,95.6525,0.780029,-54.6899,43.2129,54.7485,129.761,0.592468,0.65918,-0.334198,-0.320404,62455,57578,64790,4254,-30257
1776,124745,2.21074,-1.45469,-0.406738,96.5259,-0.725098,-53.9099,66.5894,41.1377,135.864,0.594971,0.661682,-0.338989,-0.305206,62409,57627,64763,4254,-30257
1782,124751,4.78994,-2.29209,-0.803906,97.0477,-1.49963,-53.5529,77.8809,40.2832,137.573,0.59549,0.663177,-0.34201,-0.297485,62375,57668,64736,4254,-30257
1788,124757,4.78994,-1.57432,-1.0623,97.6135,-2.29065,-53.1958,86.1206,42.2363,140.625,0.595612,0.664886,-0.345245,-0.289551,62299,57701,64712,4254,-30257
1794,124763,4.4167,-0.890039,-1.52168,98.1958,-3.11462,-52.8442,90.0879,44.5557,146.118,0.59549,0.666779,-0.348633,-0.281342,62240,57726,64693,4254,-30257
1800,124769,4.01475,-0.392383,-1.96191,98.7836,-3.97705,-52.5092,89.9658,44.0063,153.625,0.595245,0.668701,-0.352142,-0.272827,62156,57765,64666,4254,-30257
1806,124775,3.61279,0.0574219,-1.98105,99.9646,-5.81726,-51.9489,91.2476,37.9028,170.471,0.594696,0.671936,-0.359924,-0.25528,62075,57778,64656,4254,-30257
1812,124781,3.73242,0.258398,-1.67959,100.569,-6.79504,-51.7236,93.1396,34.1187,178.894,0.594299,0.673279,-0.364319,-0.246307,62011,57829,64651,4254,-30257
1818,124787,3.76592,0.397168,-1.70352,101.19,-7.80579,-51.5314,95.0928,32.1045,185.486,0.593811,0.674408,-0.369049,-0.237183,61961,57870,64651,4254,-30257
1824,124793,3.79941,0.531152,-1.86143,101.821,-8.84399,-51.3666,97.1069,30.8228,190.796,0.59317,0.675415,-0.374023,-0.227905,61874,57901,64657,4254,-30257
1830,124799,3.66064,0.784766,-1.55996,102.475,-9.8877,-51.2183,100.464,29.541,193.359,0.592438,0.6763,-0.379181,-0.218475,61751,57944,64687,4254,-30257
1836,124805,3.15342,1.3542,-1.13408,103.848,-11.9751,-51.0095,108.643,24.7803,193.97,0.590332,0.678009,-0.389771,-0.199463,61708,57958,64704,4254,-30257
1842,124811,2.79453,1.57432,-1.07666,104.573,-13.0078,-50.9381,113.586,22.8271,193.787,0.588898,0.678864,-0.395142,-0.189941,61632,58006,64724,4254,-30257
1848,124817,2.2873,1.86621,-0.775195,105.331,-14.046,-50.8942,118.835,20.9961,194.336,0.587189,0.679749,-0.400574,-0.18042,61574,58044,64744,4254,-30257
1854,124823,1.62695,2.3208,-0.62207,106.117,-15.0732,-50.8777,124.878,19.043,194.458,0.585236,0.680664,-0.406036,-0.170837,61480,58073,64769,4254,-30257
1860,124829,1.02402,3.096,-1.0001,106.952,-16.0895,-50.8887,133.057,15.564,193.665,0.583008,0.681641,-0.41153,-0.161224,61299,58186,64830,4254,-30257
1866,124835,0.186621,6.34033,-1.82314,108.787,-18.056,-51.037,153.564,5.98145,190.125,0.577332,0.683899,-0.422699,-0.142029,61207,58227,64861,4254,-30257
1872,124841,0.13877,8.23525,-1.64609,109.731,-19.0063,-51.1688,155.701,3.17383,187.866,0.573822,0.685211,-0.428375,-0.132538,61135,58260,64900,4254,-30257
1878,124847,0.13877,9.80957,-1.50254,110.632,-19.9347,-51.3062,149.109,5.85938,185.486,0.57019,0.686432,-0.434021,-0.123291,61033,58326,64940,4254,-30257
1884,124853,0.416309,10.7857,-1.90449,111.462,-20.8521,-51.4325,140.93,14.7705,181.702,0.566803,0.687347,-0.439423,-0.114319,60953,58379,64984,4254,-30257
1890,124859,-0.488086,11.537,-1.81836,112.209,-21.7584,-51.5314,131.592,26.2451,176.208,0.563782,0.687988,-0.444489,-0.105499,60746,58456,65082,4254,-30257
1896,124865,-3.25391,13.9631,-1.41162,113.538,-23.4338,-51.7181,119.324,38.4521,158.569,0.55899,0.688477,-0.453369,-0.0887146,60667,58482,65129,4254,-30257
1902,124871,-5.32588,15.4369,-1.78486,114.093,-24.1699,-51.8884,101.99,32.4097,150.879,0.556885,0.688446,-0.457397,-0.0811768,60555,58541,65180,4254,-30257
1908,124877,-6.2542,14.7718,-2.03369,114.587,-24.8621,-52.1136,87.9517,26.3062,147.705,0.555115,0.687958,-0.461365,-0.0746765,60465,58589,65233,4254,-30257
1914,124883,-6.62744,13.8291,-0.722559,115.082,-25.5048,-52.3828,85.083,20.9351,143.738,0.553528,0.687073,-0.465424,-0.0690002,60394,58624,65287,4254,-30257
1920,124889,-6.79014,13.5133,0.239258,115.604,-26.0925,-52.674,88.9893,16.7847,137.146,0.55188,0.686157,-0.469513,-0.0638733,60205,58748,65396,4254,-30257
1926,124895,-6.9002,15.2407,0.0334961,116.708,-27.0758,-53.2397,100.342,17.0898,114.014,0.547699,0.684906,-0.477325,-0.0545959,60134,58797,65445,4254,-30257
1932,124901,-7.11074,16.126,-0.30625,117.241,-27.4548,-53.454,100.159,20.6299,97.0459,0.545258,0.684845,-0.480652,-0.050354,60031,58835,65496,4254,-30257
1938,124907,-7.31172,16.1978,-0.244043,117.713,-27.757,-53.5968,95.7642,27.8931,78.4302,0.542877,0.68512,-0.483368,-0.0465393,59945,58906,8,4254,-30257
1944,124913,-7.62275,15.5613,0.205762,118.125,-27.9822,-53.6407,92.7124,37.6587,57.9224,0.54068,0.685669,-0.485321,-0.0430908,59875,58964,59,4254,-30257
1950,124919,-8.30225,14.7,0.583789,118.488,-28.136,-53.5748,94.2383,48.8281,36.6211,0.538727,0.686615,-0.48645,-0.0399475,59674,59048,159,4254,-30257
1956,124925,-9.84785,12.2213,1.82793,119.169,-28.2513,-53.2068,104.004,64.7583,5.92041,0.535065,0.690033,-0.486084,-0.0344238,59593,59081,205,4254,-30257
1962,124931,-11.3169,42.1572,-0.0813477,120.366,-28.4601,-52.7948,294.739,110.474,16.7236,0.533203,0.692383,-0.484985,-0.0316467,59526,59109,248,4254,-30257
1968,124937,-9.99619,77.1272,-14.2741,121.284,-28.1689,-52.8333,196.594,-8.8501,-31.4331,0.52652,0.698914,-0.483398,-0.0232239,59470,59133,291,4254,-30257
1974,124943,-19.0832,156.795,-61.3553,121.069,-27.5867,-52.7399,-20.813,-22.3999,-94.2383,0.520203,0.703979,-0.482941,-0.0215759,59422,59157,333,4254,-30257
1980,124949,-11.5418,58.0535,-21.7055,118.575,-27.8394,-51.5973,-381.042,225.83,-43.7012,0.520172,0.705414,-0.480652,-0.0261841,59342,59205,409,4254,-30257
1986,124955,-23.3276,10.6278,11.4892,110.561,-29.0204,-48.4442,-675.964,261.658,28.0762,0.562469,0.684052,-0.463226,-0.0318909,59307,59229,434,4254,-30257
1992,124961,-8.33574,-3.12471,33.7928,107.721,-29.339,-48.3069,-547.241,71.7163,71.4722,0.587311,0.667084,-0.456604,-0.0383911,59275,59251,437,4254,-30257
1998,124967,-4.37363,-16.6332,28.0793,105.15,-29.9817,-47.9224,-468.933,128.357,124.756,0.604218,0.651703,-0.455963,-0.0467834,59246,59269,412,4254,-30257
2004,124973,3.38789,-16.949,19.4852,103.618,-30.3717,-48.3124,-336.487,-17.6392,114.014,0.619843,0.637115,-0.4552,-0.0506897,59218,59279,357,4254,-30257
2010,124979,-2.61748,-19.9015,3.11992,103.425,-30.3717,-49.1858,-119.324,-119.08,59.2041,0.628632,0.625793,-0.458191,-0.0563049,59172,59344,189,4246,-30256
2016,124985,7.23516,-8.61807,13.274,104.947,-29.6136,-51.5918,111.084,-231.873,-13.9771,0.626495,0.619843,-0.467529,-0.067749,59155,59405,106,4246,-30256
2022,124991,9.0918,-4.03867,6.66094,106.666,-28.8062,-53.0365,215.515,-260.803,-63.5986,0.618378,0.622559,-0.473816,-0.0737305,59093,59454,26,4246,-30256
2028,124997,8.68027,0.990527,-2.38779,108.765,-27.8448,-54.2944,314.27,-245.117,-93.9941,0.606598,0.628815,-0.479767,-0.0796509,59041,59494,65499,4246,-30256
2034,125003,10.4651,6.51738,-11.7954,111.072,-26.8506,-55.3052,382.385,-212.952,-106.506,0.592194,0.638153,-0.484711,-0.0838318,58996,59534,65459,4246,-30256
2040,125009,15.3508,13.1209,-16.126,113.198,-25.9332,-55.9589,380.554,-155.579,-111.084,0.576355,0.649323,-0.488586,-0.0858459,58918,59572,65448,4246,-30256
2046,125015,13.609,41.1619,-15.7192,114.258,-25.4004,-55.6128,21.3013,88.9893,-27.8931,0.553314,0.667755,-0.490509,-0.0848999,58883,59575,65465,4246,-30256
2052,125021,3.23955,19.533,-23.2176,113.214,-25.5432,-54.8438,-133.179,157.654,-19.5313,0.554413,0.669037,-0.487762,-0.0836182,58849,59586,65503,4246,-30256
2058,125027,0.794336,11.2882,-9.83828,111.874,-25.8179,-54.0143,-186.768,177.429,2.74658,0.561432,0.666687,-0.483002,-0.0833435,58817,59602,9,4246,-30256
2064,125033,-0.933105,7.23994,3.30176,110.588,-26.098,-53.3331,-188.721,153.992,17.6392,0.570404,0.662567,-0.47818,-0.0829773,58836,59579,52,4246,-30256
2070,125039,-0.636426,2.8998,7.84287,109.523,-26.3727,-52.8003,-157.166,129.517,29.9683,0.578918,0.657959,-0.474304,-0.0830383,58866,59540,99,4246,-30256
2076,125045,-0.124414,0.875684,8.91475,108.364,-26.6144,-52.218,-52.002,59.082,8.05664,0.590942,0.650696,-0.469513,-0.0827026,58878,59522,103,4246,-30256
2082,125051,-1.55518,2.31123,7.72324,108.298,-26.5485,-52.2455,-3.17383,14.1602,0.732422,0.593475,0.649261,-0.468231,-0.0830078,58890,59504,95,4246,-30256
2088,125057,0.0478516,5.27324,5.79004,108.572,-26.4331,-52.5201,43.8843,-31.0059,5.24902,0.593689,0.649048,-0.468109,-0.0838318,58901,59528,77,4246,-30256
2094,125063,1.47383,6.4791,1.5791,109.034,-26.2628,-52.9651,66.3452,-63.5986,4.63867,0.591705,0.64975,-0.469421,-0.0848999,58911,59548,53,4246,-30256
2100,125069,3.12949,8.575,-1.58389,109.567,-26.0815,-53.4924,74.646,-78.4912,7.32422,0.58844,0.650909,-0.47168,-0.0864563,58931,59579,12,4246,-30256
2106,125075,6.47432,11.9533,-4.33535,110.555,-25.7465,-54.5526,67.0776,-81.1768,10.437,0.581055,0.653046,-0.477173,-0.0899353,58940,59593,1,4246,-30256
2112,125081,7.17295,11.8672,-5.1249,110.792,-25.6366,-54.9152,29.1138,-49.1333,10.3149,0.577423,0.653961,-0.480011,-0.0916748,58897,59606,65534,4246,-30256
2118,125087,7.94336,11.5657,-5.35938,110.874,-25.5652,-55.1404,10.1929,-24.231,8.05664,0.575531,0.654022,-0.481873,-0.0932617,58861,59618,2,4246,-30256
2124,125093,7.62754,11.1638,-4.43584,110.808,-25.5377,-55.2228,-7.8125,1.64795,5.49316,0.574738,0.653748,-0.482971,-0.0945129,58827,59628,10,4246,-30256
2130,125099,6.49346,10.1732,-2.8376,110.627,-25.5322,-55.1953,-21.1182,21.1182,2.86865,0.574982,0.653168,-0.483276,-0.0953979,58774,59642,31,4246,-30256
2136,125105,4.04824,8.04385,-0.282324,110.209,-25.5322,-55.069,-21.9727,27.2827,0,0.577301,0.651581,-0.482391,-0.0966187,58751,59648,41,4246,-30256
2142,125111,3.10078,7.84287,0.234473,110.067,-25.5157,-55.0525,-15.0757,19.043,0,0.578461,0.650848,-0.481873,-0.097168,58731,59652,50,4246,-30256
2148,125117,2.85674,7.86201,0.210547,109.979,-25.4883,-55.1019,-8.48389,7.14111,1.95313,0.579285,0.650238,-0.481598,-0.0978088,58713,59657,56,4246,-30256
2154,125123,3.42139,7.8333,0.0478516,109.951,-25.4443,-55.1953,-1.0376,-2.0752,1.64795,0.579651,0.649719,-0.481689,-0.0986023,58697,59662,56,4246,-30256
2160,125129,4.18223,8.30225,-0.124414,109.951,-25.4004,-55.3052,4.39453,-4.08936,2.0752,0.579651,0.649292,-0.482086,-0.0995178,58669,59671,55,4246,-30256
2166,125135,4.31143,8.89561,-0.803906,109.957,-25.329,-55.4865,6.71387,0.427246,1.95313,0.579254,0.648773,-0.482941,-0.101044,58657,59676,56,4246,-30256
2172,125141,4.06738,8.85254,-1.00967,109.957,-25.3015,-55.5743,6.10352,0.549316,2.31934,0.579071,0.648529,-0.483307,-0.101685,58647,59681,60,4246,-30256
2178,125147,4.00996,8.74248,-0.966602,109.957,-25.274,-55.6677,6.22559,-1.46484,2.44141,0.578949,0.648285,-0.483704,-0.102325,58637,59685,67,4246,-30256
2184,125153,4.09609,8.6085,-0.846973,109.973,-25.2411,-55.7776,7.32422,-4.39453,2.50244,0.578796,0.64801,-0.484131,-0.102997,58630,59688,72,4246,-30256
2190,125159,4.20137,8.56543,-0.851758,110.001,-25.2026,-55.9039,8.8501,-7.32422,2.2583,0.578522,0.647736,-0.48465,-0.103699,58619,59690,77,4246,-30256
2196,125165,4.321,8.70898,-0.875684,110.078,-25.1202,-56.1621,10.5591,-9.27734,1.89209,0.577759,0.647247,-0.48587,-0.105255,58614,59689,77,4246,-30256
2202,125171,4.26836,8.65156,-0.866113,110.116,-25.0818,-56.2939,10.498,-9.21631,1.52588,0.577332,0.647034,-0.486511,-0.106018,58610,59689,77,4246,-30256
2208,125177,4.26357,8.61807,-0.866113,110.154,-25.0378,-56.4313,11.3525,-9.76563,1.28174,0.576904,0.64682,-0.487122,-0.106781,58606,59690,78,4246,-30256
2214,125183,4.17266,8.56543,-0.842188,110.209,-24.9994,-56.5686,12.7563,-10.8643,1.2207,0.576447,0.646606,-0.487762,-0.107544,58601,59693,80,4246,-30256
2220,125189,4.12959,8.57979,-0.947461,110.27,-24.95,-56.7114,14.2822,-12.7563,0.793457,0.575928,0.646454,-0.488464,-0.108307,58592,59697,94,4246,-30256
2226,125195,4.12002,8.73291,-1.03838,110.413,-24.8566,-57.03,15.3809,-15.625,0.854492,0.574677,0.646149,-0.48996,-0.109894,58588,59700,102,4246,-30256
2232,125201,4.18701,8.67549,-1.00488,110.49,-24.8016,-57.1948,15.5029,-17.2729,0.183105,0.573975,0.646027,-0.490753,-0.110687,58584,59702,108,4246,-30256
2238,125207,4.29707,8.575,-1.10059,110.572,-24.7467,-57.3706,16.4795,-18.7378,-0.12207,0.573242,0.645874,-0.491577,-0.111572,58578,59703,112,4246,-30256
2244,125213,4.34492,8.57979,-1.24414,110.665,-24.6808,-57.5464,17.8833,-20.0195,-0.854492,0.572479,0.645752,-0.492432,-0.112457,58574,59704,111,4246,-30256
2250,125219,4.45498,8.72334,-1.40205,110.764,-24.6204,-57.7277,19.043,-20.3857,-1.34277,0.571625,0.645691,-0.493317,-0.113373,58567,59705,115,4246,-30256
2256,125225,4.50283,8.81426,-1.27285,110.923,-24.4995,-58.0573,16.4795,-17.8223,-1.70898,0.569946,0.645569,-0.495026,-0.115112,58565,59704,120,4246,-30256
2262,125231,4.24922,8.49844,-1.43555,111.006,-24.4446,-58.2166,16.5405,-17.4561,-1.58691,0.569214,0.645477,-0.495789,-0.115967,58564,59704,127,4246,-30256
2268,125237,4.39277,8.65635,-1.37813,111.083,-24.3896,-58.3704,17.395,-16.7236,-1.52588,0.568451,0.645386,-0.496582,-0.116791,58564,59705,138,4246,-30256
2274,125243,4.32578,8.77119,-1.7418,111.165,-24.3402,-58.5187,17.2729,-15.7471,-1.28174,0.567719,0.645294,-0.497345,-0.117584,58565,59705,152,4246,-30256
2280,125249,4.35449,8.93867,-1.62695,111.231,-24.2963,-58.6615,15.7471,-14.1602,-0.976563,0.566986,0.645233,-0.498108,-0.118317,58566,59707,182,4246,-30256
2286,125255,4.321,8.81426,-1.88057,111.352,-24.2139,-58.9417,13.6719,-13.7939,0.183105,0.565735,0.644958,-0.499512,-0.11972,58568,59709,196,4246,-30256
2292,125261,4.24443,8.90039,-1.98584,111.407,-24.1809,-59.079,12.5122,-12.8784,0.366211,0.565155,0.644775,-0.500244,-0.120392,58568,59712,211,4246,-30256
2298,125267,4.2875,8.9626,-2.10547,111.445,-24.1534,-59.2108,10.376,-11.9629,0.915527,0.564636,0.644562,-0.500946,-0.121063,58567,59714,224,4246,-30256
2304,125273,4.55547,9.13965,-2.2251,111.467,-24.1205,-59.3317,8.05664,-10.9253,0.488281,0.564209,0.644287,-0.501617,-0.121735,58565,59716,238,4246,-30256
2310,125279,4.56504,9.13486,-2.30166,111.484,-24.0985,-59.4525,5.79834,-10.0708,0.915527,0.563843,0.643982,-0.502228,-0.122437,58559,59720,267,4246,-30256
2316,125285,4.79951,8.97695,-2.19639,111.451,-24.071,-59.6503,-0.12207,-5.31006,0.793457,0.563477,0.643158,-0.503357,-0.123779,58557,59722,283,4246,-30256
2322,125291,4.73252,8.7999,-2.37822,111.418,-24.0546,-59.7327,-1.34277,-4.02832,0.305176,0.563477,0.6427,-0.503815,-0.124451,58557,59723,297,4246,-30256
2328,125297,4.83301,9.05352,-2.52656,111.368,-24.0491,-59.8041,-2.74658,-1.15967,0.915527,0.563538,0.642212,-0.504211,-0.125092,58559,59724,311,4246,-30256
2334,125303,4.87129,9.37412,-2.58398,111.302,-24.0491,-59.8535,-6.28662,2.19727,0.305176,0.563721,0.641693,-0.504517,-0.125641,58560,59725,324,4246,-30256
2340,125309,4.87129,9.45547,-2.33516,111.198,-24.0601,-59.8755,-11.5356,7.56836,0,0.564026,0.641144,-0.50473,-0.126221,58563,59727,346,4246,-30256
2346,125315,4.44541,8.7999,-1.61738,110.918,-24.093,-59.8755,-17.4561,13.3057,0.427246,0.565399,0.639771,-0.5047,-0.127228,58564,59727,356,4246,-30256
2352,125321,4.27314,8.55107,-1.47861,110.781,-24.115,-59.8645,-16.5405,13.1836,0.12207,0.566254,0.639008,-0.504547,-0.127716,58564,59727,362,4246,-30256
2358,125327,3.95254,8.37881,-1.66045,110.649,-24.126,-59.87,-14.9536,11.1084,-0.244141,0.567108,0.638275,-0.504425,-0.128174,58563,59726,367,4246,-30256
2364,125333,4.32578,8.81426,-1.52646,110.522,-24.1425,-59.8755,-14.7705,10.5591,0.12207,0.567871,0.637573,-0.504364,-0.128632,58562,59727,369,4246,-30256
2370,125339,4.22051,8.7999,-1.31592,110.391,-24.1589,-59.881,-16.1743,10.9253,0.549316,0.568604,0.636871,-0.504303,-0.12912,58557,59729,371,4246,-30256
2376,125345,4.17744,8.34531,-0.746484,110.105,-24.1974,-59.881,-16.9067,12.3291,0.549316,0.570221,0.635315,-0.50415,-0.130127,58557,59731,370,4246,-30256
2382,125351,3.99082,8.12041,-0.775195,109.979,-24.2139,-59.8865,-14.2822,10.8643,-0.0610352,0.571045,0.634552,-0.504059,-0.130615,58557,59733,370,4246,-30256
2388,125357,4.03867,8.05342,-0.77998,109.869,-24.2303,-59.903,-11.7798,9.8877,0.610352,0.571777,0.63382,-0.503998,-0.131104,58557,59734,367,4246,-30256
2394,125363,3.83291,8.25918,-0.732129,109.775,-24.2413,-59.9249,-9.15527,7.93457,0.732422,0.572418,0.633148,-0.504028,-0.131561,58557,59734,363,4246,-30256
2400,125369,3.79463,8.39316,-0.626855,109.693,-24.2523,-59.9634,-7.93457,6.04248,1.15967,0.572937,0.632538,-0.504089,-0.131989,58554,59733,351,4246,-30256
2406,125375,3.86162,8.13477,-0.574219,109.567,-24.2743,-60.0677,-4.15039,1.58691,2.01416,0.573761,0.631287,-0.504456,-0.132935,58553,59733,346,4246,-30256
2412,125381,4.07217,8.12041,-0.736914,109.534,-24.2798,-60.1447,-0.549316,-1.40381,1.89209,0.574005,0.630737,-0.504761,-0.133423,58552,59732,343,4246,-30256
2418,125387,4.1918,8.1874,-1.15322,109.523,-24.2743,-60.238,1.77002,-4.39453,1.52588,0.574097,0.630219,-0.505157,-0.133942,58552,59732,341,4246,-30256
2424,125393,4.47891,8.57022,-1.59824,109.523,-24.2633,-60.3369,4.27246,-6.71387,0.305176,0.574066,0.629761,-0.505615,-0.134491,58553,59730,338,4246,-30256
2430,125399,4.68467,8.97217,-2.04326,109.528,-24.2468,-60.4358,4.15039,-6.40869,-0.12207,0.573883,0.629395,-0.506134,-0.135071,58552,59728,326,4246,-30256
2436,125405,5.11055,9.39326,-2.20117,109.451,-24.2249,-60.5731,-4.94385,-0.0610352,-1.70898,0.5737,0.628632,-0.506989,-0.13623,58552,59729,319,4246,-30256
2442,125411,5.04355,8.98652,-2.00498,109.363,-24.2139,-60.6061,-9.27734,4.39453,-2.99072,0.573914,0.628113,-0.507202,-0.13681,58551,59731,311,4246,-30256
2448,125417,4.87129,8.79033,-1.76572,109.265,-24.2084,-60.6171,-10.3149,7.56836,-3.96729,0.574341,0.627563,-0.507233,-0.13739,58550,59732,303,4246,-30256
2454,125423,4.60811,8.87646,-1.55518,109.16,-24.2029,-60.6226,-10.9863,8.66699,-4.57764,0.57486,0.627045,-0.507172,-0.137939,58550,59734,298,4246,-30256
2460,125429,4.37842,8.95303,-1.30635,109.045,-24.1974,-60.6226,-11.8408,9.0332,-4.94385,0.575409,0.626526,-0.50705,-0.138489,58550,59732,288,4246,-30256
2466,125435,4.11523,8.62285,-1.13408,108.809,-24.1754,-60.6335,-14.0991,7.69043,-5.61523,0.57663,0.625397,-0.506714,-0.139587,58549,59731,285,4246,-30256
2472,125441,4.18223,8.37881,-1.32549,108.699,-24.1589,-60.65,-12.6343,5.37109,-5.7373,0.57724,0.624817,-0.506561,-0.140259,58548,59729,280,4246,-30256
2478,125447,4.4502,8.58936,-1.60303,108.616,-24.1315,-60.6885,-9.52148,2.01416,-6.89697,0.577759,0.624237,-0.50647,-0.140961,58548,59728,277,4246,-30256
2484,125453,4.67988,9.07266,-1.8375,108.534,-24.0985,-60.7269,-9.76563,0.915527,-7.62939,0.578094,0.623779,-0.50647,-0.141693,58545,59726,273,4246,-30256
2490,125459,4.85215,9.35977,-2.04805,108.435,-24.0601,-60.7599,-12.5122,0.976563,-8.78906,0.57843,0.623322,-0.506439,-0.142456,58542,59726,258,4246,-30256
2496,125465,5.15361,9.21143,-2.23945,108.155,-23.9832,-60.7709,-20.3857,7.44629,-11.2305,0.579376,0.622253,-0.506165,-0.144196,58539,59724,251,4246,-30256
2502,125471,5.19189,9.16357,-2.37344,107.99,-23.9447,-60.7489,-22.9492,9.76563,-12.6343,0.580109,0.621643,-0.505829,-0.145081,58537,59722,246,4246,-30256
2508,125477,5.29717,9.32148,-2.56963,107.798,-23.9008,-60.705,-26.4282,13.1836,-13.7939,0.580933,0.621063,-0.505341,-0.145966,58585,59720,243,4246,-30256
2514,125483,5.31631,9.53682,-2.82324,107.578,-23.8623,-60.639,-31.25,16.5405,-14.8315,0.58194,0.620422,-0.50473,-0.146851,58629,59718,243,4246,-30256
2520,125489,5.04355,9.78564,-2.58398,107.314,-23.8293,-60.5402,-36.438,23.3154,-15.0146,0.583099,0.61972,-0.503937,-0.147766,58658,59721,240,4246,-30256
2526,125495,4.44541,9.33584,-1.28721,106.617,-23.8184,-60.2216,-52.5513,37.6587,-13.6719,0.586517,0.61795,-0.501709,-0.149353,58692,59725,235,4246,-30256
2532,125501,4.27314,8.66113,-0.870898,106.232,-23.8184,-60.0403,-54.9316,40.3442,-12.8174,0.588715,0.616821,-0.500275,-0.150146,58721,59728,226,4246,-30256
2538,125507,4.16309,8.30225,-1.03359,105.87,-23.8074,-59.8645,-51.2085,37.7197,-14.4043,0.591034,0.615631,-0.498779,-0.150848,58747,59689,211,4246,-30256
2544,125513,4.12002,8.46494,-1.07666,105.535,-23.7964,-59.7052,-47.2412,35.3394,-13.4888,0.59317,0.614563,-0.497345,-0.151611,58770,59696,194,4246,-30256
2550,125519,4.38799,8.97695,-1.4834,105.216,-23.7744,-59.5679,-45.3491,31.4331,-14.7095,0.595154,0.613556,-0.496002,-0.152313,58811,59629,160,4246,-30256
2556,125525,4.65596,9.51289,-0.47373,104.601,-23.692,-59.3317,-44.7998,23.9868,-18.3105,0.598755,0.611633,-0.49353,-0.153961,58830,59642,140,4246,-30256
2562,125531,4.03867,8.79033,-0.569434,104.343,-23.5986,-59.2767,-40.1611,14.0381,-23.7427,0.600403,0.610687,-0.492371,-0.15506,58846,59612,117,4246,-30256
2568,125537,3.59844,8.41709,-0.827832,104.084,-23.5327,-59.2108,-39.3066,16.5405,-19.104,0.601624,0.609955,-0.491333,-0.156433,58858,59585,89,4246,-30256
2574,125543,4.30664,8.67549,-0.411523,103.865,-23.4503,-59.1779,-35.2783,9.58252,-20.6909,0.602936,0.609131,-0.490387,-0.157623,58869,59562,63,4246,-30256
2580,125549,4.4502,9.36934,0.45459,103.7,-23.3295,-59.2108,-27.3438,-3.41797,-25.5127,0.603973,0.608398,-0.489594,-0.158966,58885,59524,16,4246,-30256
2586,125555,1.81357,7.88115,-2.01455,103.53,-23.0493,-59.4086,-18.8599,-17.7612,-19.7754,0.604431,0.607697,-0.488739,-0.162445,58890,59510,65533,4246,-30256
2592,125561,6.55566,10.4364,4.08652,103.64,-22.8131,-59.7931,0.793457,-70.9839,-33.3862,0.604431,0.607178,-0.4888,-0.164154,58893,59498,65513,4246,-30256
2598,125567,13.6186,13.164,11.3695,104.112,-22.2528,-60.5951,45.7764,-157.715,-77.3926,0.602722,0.607025,-0.490051,-0.167236,58894,59489,65492,4246,-30256
2604,125573,16.7098,12.0682,7.61318,104.667,-21.5057,-61.3367,70.6787,-157.349,-117.737,0.597656,0.608215,-0.492828,-0.172913,58893,59483,65478,4246,-30256
2610,125579,16.6523,9.56074,0.550293,105.057,-20.7587,-61.6882,68.4814,-89.1113,-135.742,0.591644,0.610718,-0.49472,-0.179138,58886,59477,65466,4246,-30256
2616,125585,10.8814,12.4414,-4.98613,105.469,-19.3524,-61.3147,66.1011,24.5361,-165.161,0.583984,0.618134,-0.49173,-0.18692,58881,59480,65470,4246,-30256
2622,125591,6.19199,14.3698,-3.8999,105.568,-18.5614,-61.0236,50.0488,18.1885,-177.795,0.581604,0.622925,-0.487579,-0.18927,58921,59447,65482,4246,-30256
2628,125597,3.37354,12.585,-1.73223,105.623,-17.7209,-60.8752,31.1279,-10.0708,-180.054,0.579407,0.627533,-0.483063,-0.192383,58952,59424,65496,4246,-30256
2634,125603,2.61748,9.39805,-0.784766,105.716,-16.8475,-60.8752,30.1514,-39.6118,-178.589,0.577057,0.631439,-0.479034,-0.196747,58974,59412,65511,4246,-30256
2640,125609,2.39736,7.11074,0.617285,105.903,-15.9412,-60.9741,43.7012,-58.1055,-180.298,0.574066,0.63501,-0.475739,-0.201874,58993,59334,3,4246,-30256
2646,125615,3.10078,8.83818,0.593359,106.749,-13.8977,-61.6058,93.689,-126.038,-194.458,0.565125,0.642822,-0.470978,-0.213165,59043,59312,19,4246,-30256
2652,125621,5.43115,11.269,-1.24414,107.347,-12.7441,-62.1606,107.056,-161.682,-201.05,0.55835,0.647278,-0.46994,-0.219818,59081,59259,37,4246,-30256
2658,125627,8.7377,13.7621,-3.92861,107.93,-11.5192,-62.7484,104.126,-176.453,-211.731,0.550323,0.651733,-0.469666,-0.227325,59106,59220,61,4246,-30256
2664,125633,10.5465,14.7,-5.83311,108.375,-10.2338,-63.2483,81.604,-167.542,-227.112,0.541931,0.656128,-0.469299,-0.235413,59172,59151,91,4246,-30256
2670,125639,11.9055,15.3221,-6.72314,108.671,-8.92639,-63.5944,56.3354,-145.752,-241.028,0.534149,0.66037,-0.467957,-0.243958,59260,59055,172,4246,-30256
2676,125645,10.6948,15.3029,-5.97666,108.842,-6.31714,-63.7152,15.3198,-78.5522,-263.55,0.521698,0.668488,-0.461304,-0.260834,59335,58983,222,4246,-30256
2682,125651,8.84297,16.949,-6.62266,108.842,-5.02625,-63.5339,9.27734,-53.4668,-271.362,0.517059,0.67276,-0.455872,-0.268524,59391,58927,276,4246,-30256
2688,125657,6.72314,19.7244,-7.79502,108.803,-3.79028,-63.3032,-0.183105,-40.1001,-264.893,0.512909,0.677338,-0.449493,-0.275635,59479,58846,331,4246,-30256
2694,125663,6.23984,23.4281,-9.87656,108.649,-2.57629,-63.0341,-23.8037,-32.7759,-261.902,0.509308,0.681641,-0.442841,-0.282349,59544,58782,383,4246,-30256
2700,125669,6.05801,23.0788,-10.5896,108.303,-1.3678,-62.7429,-64.8193,-27.771,-262.268,0.506531,0.685425,-0.43573,-0.289185,59714,58618,473,4246,-30256
2706,125675,4.2875,19.9445,-7.17295,107.243,0.615234,-61.7706,-115.723,48.3398,-225.586,0.505035,0.690582,-0.419617,-0.30304,59818,58558,509,4246,-30256
2712,125681,1.94277,17.3893,-5.50293,106.611,1.5271,-61.1334,-127.686,63.2935,-225.22,0.506714,0.692535,-0.410492,-0.308167,59898,58471,541,4246,-30256
2718,125687,0.378027,17.6477,-4.22051,105.974,2.42249,-60.639,-129.639,39.5508,-214.905,0.508972,0.694366,-0.400879,-0.313019,60007,58400,562,4246,-30256
2724,125693,-0.119629,17.6859,-3.44531,105.337,3.24097,-60.1282,-132.751,50.8423,-199.829,0.510925,0.695526,-0.392029,-0.31842,60094,58343,572,4246,-30256
2730,125699,-0.942676,18.6573,-1.3207,104.694,4.05396,-59.502,-135.071,77.0264,-203.552,0.513306,0.696442,-0.383331,-0.323151,60211,58256,571,4246,-30256
2736,125705,-5.41201,17.4563,-0.483301,104.063,4.96033,-58.8593,-137.39,68.1152,-247.559,0.518524,0.699036,-0.36377,-0.331726,60392,58119,545,4246,-30256
2742,125711,-9.13008,17.2792,-0.15791,102.936,7.05322,-57.6782,-109.802,69.9463,-242.615,0.520386,0.7005,-0.353149,-0.337158,60503,58066,520,4246,-30256
2748,125717,-13.8195,18.4037,-3.21084,102.563,7.89917,-57.1289,-88.1348,75.1343,-202.026,0.521393,0.702393,-0.343048,-0.342041,60591,58023,483,4246,-30256
2754,125723,-15.5661,18.9636,-6.80928,102.085,8.48145,-56.7114,-107.666,62.561,-142.456,0.522308,0.704224,-0.33432,-0.345551,60710,57945,439,4246,-30256
2760,125729,-16.1786,16.9777,-7.58447,101.453,8.85498,-56.4917,-133.606,33.9355,-92.1631,0.524414,0.704498,-0.327393,-0.348389,60805,57878,387,4246,-30256
2766,125735,-12.5228,15.2742,-1.12451,100.761,9.04724,-56.4862,-140.869,0.488281,-45.4712,0.531189,0.700256,-0.319061,-0.35434,60994,57769,275,4246,-30256
2772,125741,-10.7666,14.4177,1.00967,99.4482,9.27795,-57.2552,-106.873,-95.3369,-12.4512,0.534332,0.696472,-0.317902,-0.358093,61087,57723,209,4246,-30256
2778,125747,-7.71846,14.2071,3.71328,98.9703,9.45374,-57.8925,-78.125,-120.422,-19.3481,0.53595,0.692505,-0.318451,-0.362854,61167,57678,142,4246,-30256
2784,125753,-5.78047,14.0636,2.97158,98.6298,9.70642,-58.5681,-47.5464,-130.066,-33.5693,0.536194,0.688873,-0.319824,-0.368164,61241,57676,77,4246,-30256
2790,125759,-5.34502,14.6378,0.224902,98.3881,10.0415,-59.2603,-25.5127,-136.047,-49.5605,0.535126,0.685974,-0.321472,-0.373657,61309,57668,13,4246,-30256
2796,125765,-5.86182,17.0447,-4.49326,98.1903,10.4425,-59.9963,-15.9302,-146.301,-62.0728,0.530304,0.68161,-0.324677,-0.385559,61425,57646,65435,4246,-30256
2802,125771,-4.44541,18.4372,-5.63213,97.7069,11.3708,-61.7267,-19.8975,-185.12,-74.4019,0.52713,0.679321,-0.326447,-0.392365,61475,57630,65280,4246,-30256
2808,125777,-1.83271,20.112,-6.10586,97.3718,11.8927,-62.7429,-29.3579,-206.238,-79.9561,0.523682,0.676636,-0.3284,-0.399902,61517,57612,65335,4246,-30256
2814,125783,1.79443,20.9494,-6.36904,96.9324,12.4365,-63.8031,-45.4102,-216.492,-86.4868,0.520081,0.673431,-0.330475,-0.408234,61556,57636,65294,4246,-30256
2820,125789,5.68477,22.0261,-7.06289,96.3776,13.0023,-64.8029,-70.5566,-205.261,-93.75,0.516663,0.669708,-0.332275,-0.417175,61590,57656,65256,4246,-30256
2826,125795,10.4029,20.5953,-7.06768,95.6909,13.5681,-65.6708,-101.257,-180.664,-101.501,0.512421,0.661499,-0.33252,-0.434937,61645,57687,65196,4254,-30257
2832,125801,11.1829,18.9014,-5.99102,94.0485,14.6722,-66.6595,-158.081,-81.2378,-111.145,0.512207,0.657532,-0.33017,-0.442871,61667,57695,65169,4254,-30257
2838,125807,10.2211,16.6332,-4.98135,93.175,15.1886,-66.7474,-175.293,-30.1514,-111.084,0.513519,0.654083,-0.325958,-0.449554,61685,57699,65139,4254,-30257
2844,125813,8.04863,14.3555,-4.46934,92.3071,15.6555,-66.6595,-183.655,5.00488,-104.858,0.516022,0.651245,-0.320251,-0.454926,61749,57700,65107,4254,-30257
2850,125819,6.26377,12.1974,-4.01475,91.4612,16.062,-66.4673,-186.096,25.5737,-92.2852,0.519348,0.648773,-0.313721,-0.459137,61803,57697,65069,4254,-30257
2856,125825,3.76113,8.85732,-2.66055,90.6372,16.3641,-66.2146,-184.998,37.5366,-73.6084,0.527649,0.644196,-0.300568,-0.464905,61887,57729,64980,4254,-30257
2862,125831,4.02432,5.45986,-0.406738,89.0881,16.6113,-65.6158,-173.462,48.3398,-24.6582,0.532654,0.641632,-0.294678,-0.466522,61917,57756,64923,4254,-30257
2868,125837,3.95254,2.81846,0.16748,88.4509,16.5729,-65.2533,-155.457,56.0913,-3.479,0.537781,0.63916,-0.28952,-0.467255,61942,57775,64857,4254,-30257
2874,125843,3.11992,1.55518,-0.0382813,87.9126,16.4246,-64.8688,-137.939,60.5469,18.9209,0.542938,0.636932,-0.285156,-0.46698,61961,57785,64784,4254,-30257
2880,125849,3.1582,0.344531,-0.0143555,87.4731,16.1774,-64.4897,-117.493,56.8237,40.4053,0.548096,0.634949,-0.281647,-0.46579,61978,57828,64704,4254,-30257
2886,125855,4.36885,-0.411523,-0.110059,87.1381,15.8643,-64.1711,-68.3594,26.6724,58.4106,0.557434,0.631439,-0.277893,-0.461761,62009,57885,64545,4254,-30257
2892,125861,5.85703,-0.291895,0.0239258,86.77,15.1611,-63.7372,-45.0439,15.564,59.6313,0.561035,0.629974,-0.277618,-0.459564,62024,57940,64460,4254,-30257
2898,125867,7.21602,0.00478516,-0.00957031,86.7426,14.8206,-63.5449,-24.9634,13.6108,56.0913,0.563904,0.628876,-0.278076,-0.457275,62041,57983,64375,4254,-30257
2904,125873,7.74238,0.459375,-0.31582,86.781,14.491,-63.3197,-12.4512,17.0898,53.0396,0.566132,0.628296,-0.278839,-0.454834,62059,58015,64289,4254,-30257
2910,125879,8.29746,0.775195,-1.0958,86.8689,14.1888,-63.0505,-5.49316,23.3765,48.4009,0.568054,0.628174,-0.279663,-0.452118,62079,58079,64207,4254,-30257
2916,125885,8.19697,0.90918,-1.38291,86.9952,13.9087,-62.7319,4.88281,39.1235,40.4053,0.571381,0.62912,-0.280609,-0.445953,62121,58173,64053,4254,-30257
2922,125891,7.65146,0.794336,-0.913965,87.3798,13.3813,-61.9244,12.2681,48.4619,41.4429,0.572906,0.630157,-0.280701,-0.442444,62143,58244,63982,4254,-30257
2928,125897,7.12988,0.641211,-0.77041,87.6434,13.0847,-61.441,18.5547,56.9458,47.5464,0.574341,0.631622,-0.280701,-0.438477,62163,58302,63918,4254,-30257
2934,125903,6.45039,0.330176,-1.13408,87.9346,12.7332,-60.9247,22.4609,62.561,57.0679,0.575836,0.633331,-0.280762,-0.43399,62182,58350,63858,4254,-30257
2940,125909,5.97666,0.0143555,-1.55039,88.2422,12.3322,-60.3918,25.0244,63.9038,67.8711,0.577454,0.635162,-0.280975,-0.428986,62121,58422,63750,4254,-30257
2946,125915,5.7709,-0.430664,-1.69395,88.9124,11.3818,-59.3481,33.9966,60.791,84.8389,0.580963,0.638763,-0.282318,-0.417908,62097,58489,63697,4271,-30259
2952,125921,5.68477,-0.526367,-1.6126,89.2914,10.849,-58.8373,39.7949,59.5093,91.98,0.582642,0.640564,-0.283508,-0.411957,62077,58544,63644,4279,-30260
2958,125927,5.99102,-0.301465,-1.68438,89.6869,10.2777,-58.3374,43.8232,56.8237,98.999,0.584259,0.642395,-0.285004,-0.405731,62060,58589,63593,4279,-30260
2964,125933,6.48389,-0.550293,-1.64131,90.1044,9.71191,-57.8375,48.645,57.1899,96.9238,0.585785,0.644196,-0.286835,-0.399323,62048,58625,63544,4279,-30260
2970,125939,6.42168,-0.684277,-1.72266,90.5548,9.11316,-57.3157,54.5654,62.1338,102.783,0.587097,0.646179,-0.288666,-0.392822,62033,58755,63460,4279,-30260
2976,125945,5.37852,-0.483301,-2.46914,91.5051,7.82776,-56.2335,58.4717,68.6646,113.159,0.5896,0.650543,-0.292633,-0.378662,62030,58803,63424,4279,-30260
2982,125951,4.84736,-0.449805,-2.68926,91.9666,7.14111,-55.7172,56.7017,64.5752,118.469,0.590881,0.65274,-0.294769,-0.371185,62031,58839,63388,4279,-30260
2988,125957,2.30645,-0.272754,-1.28242,92.4005,6.427,-55.2448,53.772,58.4717,123.23,0.592163,0.654755,-0.297119,-0.363678,62035,58908,63357,4279,-30260
2994,125963,4.6416,-0.77041,-2.36387,92.8235,5.69092,-54.8108,52.063,52.1851,127.686,0.593445,0.656464,-0.299713,-0.356232,61992,58962,63329,4279,-30260
3000,125969,4.83301,-1.03359,-2.02412,93.241,4.93835,-54.4098,51.2085,47.1191,131.775,0.594727,0.65799,-0.302551,-0.348877,61927,59039,63281,4279,-30260
3006,125975,4.9335,-1.5791,-1.90928,94.0869,3.36182,-53.6737,55.1147,41.5039,138.916,0.597046,0.660553,-0.308929,-0.334137,61902,59107,63262,4279,-30260
3012,125981,4.89522,-1.70352,-1.80879,94.5428,2.54883,-53.3386,59.8755,39.0625,142.517,0.597992,0.661774,-0.312408,-0.32666,61881,59161,63244,4279,-30260
3018,125987,4.7708,-1.73701,-1.6126,95.0262,1.71387,-53.0255,65.1245,36.438,146.667,0.598785,0.663025,-0.316132,-0.319061,61865,59201,63229,4279,-30260
3024,125993,4.78516,-1.63174,-1.3877,95.5371,0.845947,-52.7454,71.106,33.2031,152.039,0.599335,0.664276,-0.320129,-0.31134,61855,59271,63218,4279,-30260
3030,125999,4.92393,-1.43555,-1.37334,96.0809,-0.0439453,-52.4872,77.7588,30.0293,158.264,0.59967,0.665558,-0.324402,-0.303436,61847,59373,63203,4279,-30260
3036,126005,5.56514,-0.775195,-1.64609,97.2729,-1.93909,-52.0477,91.6748,26.4893,171.753,0.59964,0.668121,-0.334015,-0.287048,61800,59447,63202,4279,-30260
3042,126011,5.94316,-0.368457,-1.60303,97.9156,-2.92786,-51.8555,96.9238,26.1841,177.368,0.599274,0.669403,-0.339264,-0.278442,61760,59504,63200,4279,-30260
3048,126017,6.29248,0.0574219,-1.51211,98.5803,-3.94958,-51.6687,101.929,27.8931,182.617,0.598724,0.670715,-0.344757,-0.269623,61730,59589,63201,4279,-30260
3054,126023,6.6083,0.550293,-1.58389,99.267,-4.99878,-51.4929,106.995,30.8228,187.5,0.598022,0.671997,-0.350403,-0.260529,61708,59655,63202,4279,-30260
3060,126029,6.81885,1.07187,-1.82793,99.9811,-6.07544,-51.3116,111.877,34.79,191.772,0.597198,0.67334,-0.35611,-0.251099,61637,59824,63211,4296,-30262
3066,126035,6.6418,2.23945,-2.17725,101.448,-8.28369,-50.9381,119.69,42.9688,198.73,0.595184,0.676025,-0.367584,-0.231323,61590,59883,63221,4296,-30262
3072,126041,6.46475,2.87109,-2.27773,102.2,-9.42078,-50.7623,122.925,45.6543,201.965,0.594025,0.677338,-0.373322,-0.221008,61552,59965,63232,4296,-30262
3078,126047,6.31641,3.4501,-2.43564,102.964,-10.5688,-50.5975,125.488,47.4243,204.712,0.592773,0.678619,-0.379059,-0.21048,61520,60068,63245,4296,-30262
3084,126053,6.16328,4.03867,-2.63662,103.733,-11.7334,-50.4437,127.502,49.0112,207.153,0.5914,0.67981,-0.384796,-0.199799,61495,60152,63260,4296,-30262
3090,126059,5.99102,4.63682,-2.8041,104.507,-12.9034,-50.3009,129.578,50.5371,209.595,0.589905,0.680939,-0.390503,-0.188995,61456,60346,63292,4296,-30262
3096,126065,5.57949,6.04844,-2.92373,106.084,-15.2765,-50.0757,134.583,51.8799,213.745,0.586639,0.682861,-0.401886,-0.167023,61441,60415,63309,4296,-30262
3102,126071,5.44072,6.70879,-2.96201,106.88,-16.474,-49.9933,136.292,51.8188,216.003,0.584808,0.683685,-0.407593,-0.155914,61428,60507,63325,4296,-30262
3108,126077,5.3833,7.30215,-3.02422,107.677,-17.677,-49.9438,136.108,51.3306,218.445,0.582886,0.684387,-0.413269,-0.144775,61417,60617,63342,4296,-30262
3114,126083,5.3498,7.82373,-3.16299,108.468,-18.891,-49.9164,135.559,51.5747,221.008,0.580872,0.684875,-0.418976,-0.133636,61408,60703,63359,4296,-30262
3120,126089,5.18232,8.39795,-3.50752,109.27,-20.105,-49.9109,136.719,52.002,223.755,0.578827,0.685181,-0.424683,-0.122528,61388,60901,63385,4296,-30262
3126,126095,5.23496,9.99619,-3.1582,110.891,-22.5494,-50.0153,138.489,49.2554,227.417,0.574463,0.685272,-0.436157,-0.10022,61374,61012,63395,4296,-30262
3132,126101,5.20625,10.7044,-3.00508,111.693,-23.7524,-50.1086,135.437,48.9502,227.295,0.572113,0.685059,-0.441925,-0.0892029,61357,61097,63399,4296,-30262
3138,126107,4.87129,11.2547,-3.04814,112.467,-24.9554,-50.213,131.348,52.002,226.44,0.569794,0.684631,-0.447601,-0.0783386,61333,61201,63401,4296,-30262
3144,126113,4.1248,11.8385,-3.07686,113.22,-26.1475,-50.3284,128.052,54.1382,225.586,0.567596,0.68399,-0.453125,-0.0675659,61353,61322,63402,4296,-30262
3150,126119,3.31133,12.7764,-3.10557,113.967,-27.3175,-50.4822,125.183,52.124,223.45,0.56546,0.683136,-0.458496,-0.0569763,61366,61573,63400,4296,-30262
3156,126125,2.12461,15.2264,-4.14395,115.362,-29.5477,-50.9546,103.638,38.269,220.337,0.561218,0.680786,-0.469147,-0.0368958,61409,61704,63397,4296,-30262
3162,126131,2.21074,15.2407,-4.10566,115.999,-30.6024,-51.2842,89.5996,29.8462,218.14,0.559326,0.679016,-0.474579,-0.0278015,61436,61811,63392,4296,-30262
3168,126137,2.68926,14.9488,-3.66543,116.603,-31.6132,-51.6577,80.2002,23.9258,213.135,0.557617,0.676849,-0.480072,-0.0194092,61497,61937,63381,4296,-30262
3174,126143,3.24912,14.8531,-3.00029,117.175,-32.5745,-52.0313,73.8525,22.8271,205.2,0.55603,0.674469,-0.485474,-0.0116272,61538,62040,63368,4296,-30262
3180,126149,3.52666,14.9728,-2.34951,117.708,-33.4918,-52.3718,68.9697,27.0386,195.74,0.554535,0.672028,-0.490662,-0.00430298,61666,62283,63337,4296,-30262
3186,126155,2.83281,15.2407,-2.03848,118.603,-35.2057,-52.8992,58.96,40.2222,173.035,0.552216,0.667236,-0.499634,0.00952148,61755,62378,63319,4296,-30262
3192,126161,2.04805,15.2838,-1.86143,118.954,-35.9912,-53.0695,53.6499,47.0581,160.461,0.551483,0.664978,-0.503296,0.0160522,61822,62463,63296,4296,-30262
3198,126167,1.43076,15.145,-1.73223,119.24,-36.7328,-53.1683,49.6826,53.894,147.156,0.551025,0.662811,-0.506378,0.0223083,61917,62539,63270,4296,-30262
3204,126173,0.153125,15.2312,-1.18672,119.46,-37.4139,-53.2068,44.2505,58.4717,133.057,0.550812,0.660828,-0.508911,0.0282898,61988,62607,63240,4296,-30262
3210,126179,-0.942676,15.1594,-1.00967,119.625,-38.0182,-53.1848,40.2222,59.1431,116.15,0.550903,0.658997,-0.510864,0.0338745,62171,62728,63179,4296,-30262
3216,126185,-2.07676,15.0206,-0.665137,119.844,-38.9795,-53.0255,37.4756,55.9692,83.8623,0.551361,0.656158,-0.513275,0.0434265,62285,62782,63151,4296,-30262
3222,126191,-2.45,14.8914,-0.45459,119.899,-39.3475,-52.8662,38.5132,56.4575,67.2607,0.551636,0.655243,-0.513794,0.0474548,62375,62834,63120,4296,-30262
3228,126197,-2.84238,14.7957,-0.0574219,119.927,-39.6497,-52.6355,42.3584,59.021,51.3306,0.55191,0.654755,-0.513794,0.0510559,62495,62846,63088,4296,-30262
3234,126203,-3.33525,14.7718,0.382813,119.938,-39.8969,-52.3334,49.5605,64.1479,38.269,0.552216,0.654694,-0.513214,0.0543823,62592,62864,63053,4296,-30262
3240,126209,-4.1248,14.6809,0.660352,119.949,-40.1221,-51.9489,59.5093,72.2656,29.1748,0.552429,0.65509,-0.512115,0.0576782,62829,62872,62983,4296,-30262
3246,126215,-5.86182,14.432,0.0957031,120.026,-40.578,-51.0095,84.5337,87.5244,24.5361,0.552612,0.657074,-0.508453,0.0649719,62919,62868,62951,4296,-30262
3252,126221,-6.5126,14.7813,-0.248828,120.135,-40.8307,-50.4877,99.1211,93.2007,26.3672,0.552399,0.658569,-0.506195,0.0692444,62994,62831,62925,4296,-30262
3258,126227,-6.99111,15.6618,-0.497656,120.295,-41.1053,-49.9438,113.342,99.3652,30.2124,0.551849,0.660339,-0.503784,0.0739746,63103,62807,62900,4296,-30262
3264,126233,-7.2208,16.839,-1.1915,120.482,-41.424,-49.3671,124.329,108.032,36.2549,0.551025,0.662354,-0.501251,0.0792542,63193,62755,62875,4296,-30262
3270,126239,-6.85713,18.0544,-2.92852,120.646,-41.803,-48.7408,126.343,119.751,43.335,0.550049,0.664459,-0.498596,0.0851135,63374,62690,62825,4296,-30262
3276,126245,-4.48848,16.7002,-3.2874,120.624,-42.6654,-47.2137,105.225,152.039,41.3818,0.548859,0.667969,-0.492767,0.098114,63466,62632,62803,4296,-30262
3282,126251,-6.63223,19.5521,-5.25889,120.361,-43.1268,-46.3623,73.4863,156.555,44.5557,0.549255,0.669281,-0.489136,0.104858,63541,62589,62782,4296,-30262
3288,126257,-6.53652,15.011,-2.77539,119.949,-43.5223,-45.3296,67.8711,171.448,22.3389,0.550598,0.669739,-0.485596,0.111115,63651,62516,62764,4296,-30262
3294,126263,-7.80459,13.2932,-1.11494,119.394,-43.8904,-44.1266,64.3311,190.43,7.32422,0.55249,0.670471,-0.481049,0.117126,63743,62459,62747,4279,-30260
3300,126269,-9.78086,11.6231,-1.16279,118.757,-44.1925,-42.8357,61.5845,195.251,-6.65283,0.554901,0.671295,-0.475555,0.123199,63882,62379,62716,4279,-30260
3306,126275,-3.5793,18.3941,-3.20605,119.328,-42.572,-41.2207,237.549,19.2261,-241.211,0.555634,0.677338,-0.464447,0.129089,63982,62310,62701,4279,-30260
3312,126281,-5.40244,15.5709,-9.06787,118.312,-41.759,-39.5013,38.6963,147.034,-237.305,0.550751,0.68811,-0.454712,0.127625,64065,62256,62686,4279,-30260
3318,126287,-15.2551,2.25859,-6.68008,116.763,-41.012,-37.2272,0.610352,237.671,-260.132,0.55423,0.693207,-0.443054,0.126099,64129,62214,62673,4279,-30260
3324,126293,-9.52725,1.66045,-4.57939,115.593,-40.0671,-35.4144,10.8643,168.945,-261.108,0.560516,0.697205,-0.428619,0.125977,64230,62143,62659,4279,-30260
3330,126299,-7.54141,0.91875,6.74707,115.065,-38.7103,-34.4312,27.8931,26.3062,-280.334,0.565063,0.701721,-0.41568,0.123871,64373,62040,62637,4279,-30260
3336,126305,-7.41221,36.4772,-2.37822,116.422,-35.1617,-34.4641,128.296,-206.116,-265.686,0.561615,0.717896,-0.396667,0.108246,64471,61959,62630,4279,-30260
3342,126311,-5.71348,43.8464,-13.3362,116.938,-33.6676,-35.0409,48.4009,-217.285,-197.144,0.555634,0.726746,-0.392029,0.0964661,64547,61892,62626,4279,-30260
3348,126317,-1.6126,42.9181,-18.5903,117.059,-32.8271,-35.365,-2.44141,-123.962,-98.3887,0.551605,0.732361,-0.390015,0.0847168,64659,61836,62623,4279,-30260
3354,126323,-0.0191406,39.4536,-11.2116,116.554,-32.6184,-35.3265,-88.623,-13.9771,-13.6719,0.550293,0.73465,-0.389069,0.0775146,64756,61790,62628,4279,-30260
3360,126329,2.2873,24.1268,-9.07266,115.527,-32.7338,-35.0684,-170.776,46.5698,27.3438,0.553314,0.733032,-0.388397,0.0744934,64920,61712,62638,4279,-30260
3366,126335,2.02412,-0.311035,0.636426,113.406,-32.926,-34.7443,-177.185,5.5542,33.2031,0.567261,0.723206,-0.387299,0.0715027,64991,61677,62641,4279,-30260
3372,126341,3.22998,-1.85664,-3.19648,112.83,-32.7667,-34.9585,-134.216,-50.1709,10.1929,0.57312,0.718506,-0.387848,0.0688782,65055,61642,62639,4279,-30260
3378,126347,5.6417,-1.88057,-5.19668,112.654,-32.5031,-35.2771,-66.3452,-76.7822,-2.31934,0.576752,0.715424,-0.388885,0.0647278,65113,61607,62631,4279,-30260
3384,126353,8.59414,1.95713,-3.78506,112.769,-32.2339,-35.5573,-4.5166,-72.5708,-6.7749,0.577789,0.714355,-0.389954,0.0606689,65166,61574,62622,4279,-30260
3390,126359,10.3599,6.67529,1.39248,112.846,-32.0087,-35.5682,15.9302,-29.3579,-15.9912,0.576996,0.714874,-0.390625,0.0577393,65261,61512,62606,4279,-30260
3396,126365,7.47441,14.1066,3.096,112.302,-31.8274,-34.552,-16.2354,80.7495,-30.0293,0.576782,0.717072,-0.386963,0.0570679,65303,61484,62598,4279,-30260
3402,126371,3.04814,10.0536,-6.62266,111.753,-31.8054,-33.8214,-31.3721,99.7925,-29.4189,0.579071,0.717224,-0.383026,0.0583801,65340,61460,62591,4279,-30260
3408,126377,2.00498,9.76172,-6.03408,111.237,-31.767,-33.2117,-37.9639,80.6885,-23.8037,0.582123,0.716949,-0.378662,0.0600891,65372,61439,62585,4279,-30260
3414,126383,2.06719,11.8576,-5.95752,110.792,-31.7065,-32.7228,-38.3911,59.6924,-20.3247,0.584991,0.716492,-0.374939,0.0612488,65397,61420,62579,4271,-30259
3420,126389,2.45479,13.1113,-4.97656,110.297,-31.6296,-32.3328,-58.7769,43.0298,-15.7471,0.587463,0.716003,-0.371887,0.0618286,65438,61389,62571,4271,-30259
3426,126395,3.72285,9.01523,-0.392383,109.094,-31.4923,-31.7065,-95.0317,31.6772,-8.60596,0.593658,0.713257,-0.367432,0.0609741,65451,61373,62567,4271,-30259
3432,126401,4.0291,7.09639,2.66055,108.474,-31.4484,-31.3715,-91.2476,35.6445,-7.44629,0.597382,0.711182,-0.365601,0.0601807,65461,61399,62566,4271,-30259
3438,126407,3.675,5.65605,3.26826,107.952,-31.4044,-31.0419,-72.0825,35.3394,-6.95801,0.601013,0.709137,-0.363647,0.0596008,65467,61420,62561,4271,-30259
3444,126413,3.3209,5.88574,1.46904,107.589,-31.333,-30.7507,-44.9829,26.3672,-9.82666,0.604034,0.707581,-0.361694,0.0593872,65472,61435,62553,4271,-30259
3450,126419,2.5792,8.12041,0.0717773,107.369,-31.2396,-30.5255,-22.9492,14.8926,-11.1694,0.60611,0.706787,-0.359802,0.0592651,65476,61458,62534,4271,-30259
3456,126425,3.54102,10.4269,-3.029,107.029,-31.0474,-30.2673,-27.2827,-5.7373,-5.92041,0.608215,0.706543,-0.356842,0.0588074,65477,61466,62520,4271,-30259
3462,126431,4.34971,10.1876,-2.44521,106.809,-30.954,-30.1849,-38.147,-8.42285,-4.3335,0.609192,0.706207,-0.355865,0.058136,65476,61472,62507,4271,-30259
3468,126437,4.94307,9.29756,-1.24414,106.551,-30.8826,-30.0751,-44.3115,-4.02832,-2.86865,0.610443,0.705597,-0.355072,0.0572815,65475,61476,62497,4271,-30259
3474,126443,4.89522,8.30703,0.483301,106.282,-30.8221,-29.9158,-41.748,4.3335,-2.38037,0.611969,0.704803,-0.354187,0.0565491,65475,61479,62489,4271,-30259
3480,126449,4.65596,7.57012,0.655566,106.035,-30.7727,-29.7345,-34.729,9.09424,-2.92969,0.613525,0.70401,-0.353119,0.0561523,65476,61483,62476,4271,-30259
3486,126455,3.88555,8.04385,-0.143555,105.672,-30.6628,-29.3665,-18.1274,6.83594,-4.94385,0.616058,0.703064,-0.350586,0.0560913,65479,61483,62468,4271,-30259
3492,126461,3.74678,8.7042,-0.746484,105.551,-30.6024,-29.2126,-13.5498,2.0752,-4.21143,0.616943,0.702942,-0.349304,0.0561523,65481,61481,62458,4271,-30259
3498,126467,4.01475,8.90039,-1.17715,105.436,-30.542,-29.0808,-14.1602,-1.58691,-3.35693,0.617584,0.702911,-0.348145,0.0561829,65483,61478,62446,4271,-30259
3504,126473,4.42627,8.82383,-1.44512,105.326,-30.4816,-28.9655,-14.9536,-3.23486,-2.74658,0.618195,0.702881,-0.347137,0.0561218,65484,61516,62438,4271,-30259
3510,126479,4.55068,8.93867,-1.05273,105.2,-30.4321,-28.8281,-16.8457,-0.366211,-3.17383,0.618805,0.70282,-0.346222,0.0560303,65482,61581,62424,4271,-30259
3516,126485,4.42627,8.29746,-0.0861328,104.914,-30.3552,-28.4875,-16.4795,7.26318,-1.64795,0.62027,0.702576,-0.344086,0.0562134,65482,61568,62418,4271,-30259
3522,126491,4.12959,8.05342,-0.13877,104.788,-30.3278,-28.3063,-12.146,6.95801,-1.77002,0.621063,0.702423,-0.342926,0.0565186,65480,61557,62412,4271,-30259
3528,126497,3.81377,8.24482,-0.105273,104.7,-30.2893,-28.147,-7.75146,3.66211,-2.01416,0.621704,0.702362,-0.341736,0.0569153,65478,61546,62406,4271,-30259
3534,126503,3.66064,8.40752,-0.15791,104.634,-30.2509,-28.0151,-4.88281,-1.15967,-1.52588,0.622192,0.702454,-0.340637,0.057251,65477,61536,62399,4271,-30259
3540,126509,3.675,8.49844,-0.330176,104.595,-30.2124,-27.9108,-3.23486,-6.22559,-0.366211,0.622498,0.702637,-0.339691,0.0575256,65473,61594,62389,4271,-30259
3546,126515,4.2875,8.14434,-0.512012,104.579,-30.13,-27.7789,1.15967,-14.8315,0.183105,0.622772,0.703064,-0.338257,0.0578003,65470,61619,62385,4279,-30260
3552,126521,4.56504,8.28311,-0.660352,104.612,-30.0861,-27.7295,5.12695,-15.7471,-0.12207,0.622681,0.7034,-0.337708,0.0578003,65467,61642,62382,4279,-30260
3558,126527,4.64639,8.85732,-0.866113,104.645,-30.0421,-27.6691,7.32422,-13.855,-0.488281,0.622467,0.703827,-0.337189,0.0578613,65465,61663,62379,4279,-30260
3564,126533,4.61768,9.27363,-1.13887,104.667,-30.0037,-27.5922,6.04248,-12.0239,-0.793457,0.622192,0.704346,-0.336578,0.0580139,65465,61681,62376,4279,-30260
3570,126539,4.58418,9.15879,-1.55518,104.672,-29.9652,-27.5098,2.62451,-10.498,-0.793457,0.622009,0.704803,-0.335938,0.0582275,65470,61714,62368,4279,-30260
3576,126545,4.52676,8.68027,-1.08623,104.639,-29.8938,-27.3285,-1.28174,-8.54492,-1.0376,0.621948,0.705475,-0.334564,0.0586243,65475,61728,62365,4279,-30260
3582,126551,4.49805,8.49365,-0.937891,104.617,-29.8608,-27.2296,-1.15967,-7.87354,-1.58691,0.622009,0.705719,-0.333832,0.0588379,65479,61700,62361,4279,-30260
3588,126557,4.39277,8.43623,-0.808691,104.606,-29.8224,-27.1307,0.12207,-7.8125,-1.89209,0.622101,0.705994,-0.333099,0.059082,65482,61675,62357,4279,-30260
3594,126563,4.37363,8.4458,-0.851758,104.601,-29.7894,-27.0319,1.83105,-8.36182,-2.2583,0.622131,0.706329,-0.332306,0.0593262,65484,61693,62355,4279,-30260
3600,126569,4.3832,8.53672,-0.976172,104.601,-29.751,-26.9385,2.44141,-9.27734,-2.31934,0.622101,0.706696,-0.331543,0.0596008,65486,61647,62358,4279,-30260
3606,126575,4.43584,8.73291,-1.33027,104.617,-29.6741,-26.7682,3.35693,-10.6201,-2.31934,0.621948,0.707458,-0.330078,0.0600891,65486,61667,62358,4279,-30260
3612,126581,4.52197,8.84775,-1.43555,104.623,-29.6356,-26.6803,2.31934,-10.6812,-3.05176,0.621826,0.707886,-0.329376,0.0603333,65488,61686,62356,4279,-30260
3618,126587,4.58418,8.88603,-1.32549,104.623,-29.5972,-26.5924,0.427246,-10.3149,-3.41797,0.621735,0.708282,-0.328674,0.0605469,65489,61702,62356,4279,-30260
3624,126593,4.75166,8.80469,-1.42598,104.612,-29.5477,-26.5045,-0.671387,-10.437,-4.5166,0.621704,0.708618,-0.327942,0.06073,65491,61716,62357,4279,-30260
3630,126599,4.76602,8.75684,-1.59824,104.59,-29.5038,-26.4111,-2.2583,-9.52148,-5.00488,0.621704,0.708954,-0.327179,0.0608521,65491,61741,62357,4279,-30260
3636,126605,4.55068,8.89082,-1.28721,104.524,-29.4104,-26.1969,-4.94385,-6.40869,-6.34766,0.621857,0.709534,-0.325562,0.0611877,65493,61752,62360,4279,-30260
3642,126611,4.75645,8.78076,-1.36377,104.474,-29.361,-26.0815,-6.7749,-6.71387,-6.83594,0.62204,0.709747,-0.324677,0.0613708,65495,61761,62360,4279,-30260
3648,126617,4.43105,8.53672,-1.46904,104.431,-29.306,-25.9772,-5.79834,-7.69043,-8.05664,0.622284,0.709961,-0.323792,0.0614929,65498,61770,62362,4271,-30259
3654,126623,4.52676,8.85732,-1.62217,104.392,-29.2566,-25.8618,-5.00488,-5.61523,-6.71387,0.622467,0.710205,-0.322876,0.0615845,65499,61778,62364,4271,-30259
3660,126629,4.4502,9.12051,-1.63174,104.332,-29.2017,-25.752,-9.27734,-7.20215,-8.48389,0.62265,0.710419,-0.32196,0.0617676,65499,61792,62367,4271,-30259
3666,126635,4.43105,9.00566,-1.13887,104.167,-29.1138,-25.4993,-13.9771,-3.2959,-8.05664,0.623352,0.710632,-0.320129,0.0620117,65501,61798,62368,4271,-30259
3672,126641,4.46934,8.49844,-1.34463,104.068,-29.0698,-25.3674,-14.8315,-2.56348,-6.10352,0.62384,0.710632,-0.319122,0.0621338,65502,61763,62368,4271,-30259
3678,126647,4.34971,8.69463,-1.06709,103.975,-29.0314,-25.2191,-13.2446,-0.183105,-7.44629,0.624359,0.710602,-0.318176,0.0623169,65506,61772,62367,4271,-30259
3684,126653,4.09609,8.7999,-0.756055,103.881,-28.9984,-25.0763,-13.916,-0.427246,-5.67627,0.624847,0.710602,-0.317139,0.062561,65509,61739,62368,4271,-30259
3690,126659,4.254,8.71855,-0.890039,103.788,-28.9545,-24.9335,-13.2446,-0.793457,-6.65283,0.625366,0.710571,-0.316132,0.0628357,65513,61761,62369,4271,-30259
3696,126665,4.321,8.76641,-0.708203,103.618,-28.8885,-24.6753,-12.085,-2.38037,-5.24902,0.626312,0.710541,-0.314209,0.0632935,65516,61767,62369,4271,-30259
3702,126671,4.06738,8.65635,-0.741699,103.541,-28.8556,-24.5435,-11.0474,-2.13623,-4.82178,0.62674,0.710541,-0.313293,0.0635681,65518,61772,62368,4271,-30259
3708,126677,4.31621,8.71855,-0.971387,103.464,-28.8281,-24.4061,-10.8032,-0.976563,-4.3335,0.627136,0.710571,-0.312378,0.0638733,65520,61777,62368,4271,-30259
3714,126683,4.09609,8.87168,-0.44502,103.381,-28.8007,-24.2633,-10.437,0.915527,-4.94385,0.627563,0.710602,-0.311462,0.0642395,65522,61779,62368,4271,-30259
3720,126689,4.00039,8.46973,-0.334961,103.31,-28.7842,-24.126,-10.3149,-0.854492,-3.2959,0.62796,0.710632,-0.310455,0.0646362,65527,61784,62367,4271,-30259
3726,126695,4.09131,8.32617,-0.378027,103.222,-28.7292,-23.8733,-2.68555,-2.92969,-3.2959,0.628632,0.710785,-0.308624,0.0653992,65530,61786,62366,4271,-30259
3732,126701,4.00039,8.61807,-0.44502,103.206,-28.7073,-23.7579,0,-4.69971,-3.479,0.628754,0.710999,-0.30777,0.0658264,65533,61787,62366,4271,-30259
3738,126707,4.05781,8.65156,-0.803906,103.2,-28.6798,-23.6481,0.732422,-6.34766,-3.54004,0.628754,0.711304,-0.306946,0.0662537,65535,61788,62365,4271,-30259
3744,126713,4.29707,8.65635,-1.21064,103.206,-28.6469,-23.5547,2.01416,-8.30078,-3.60107,0.628754,0.711609,-0.306152,0.0666504,65535,61789,62363,4271,-30259
3750,126719,4.60332,8.98174,-1.70352,103.217,-28.6084,-23.4613,2.74658,-9.0332,-5.5542,0.628662,0.711975,-0.30542,0.0669556,0,61793,62358,4271,-30259
3756,126725,4.72773,9.49375,-1.21064,103.167,-28.5535,-23.2471,-5.49316,-3.17383,-3.60107,0.62851,0.712708,-0.303925,0.0675354,0,61795,62354,4271,-30259
3762,126731,4.66074,9.154,-1.02881,103.096,-28.537,-23.0988,-9.27734,1.34277,-3.2959,0.628693,0.71286,-0.30307,0.0679321,0,61797,62350,4271,-30259
3768,126737,4.58418,8.91953,-0.866113,103.008,-28.5095,-22.934,-9.82666,4.69971,-6.46973,0.629089,0.71286,-0.302124,0.0684204,0,61798,62350,4271,-30259
3774,126743,4.0626,8.59893,-0.937891,102.92,-28.493,-22.7692,-9.58252,5.18799,-2.99072,0.629517,0.712891,-0.300995,0.0689087,65534,61800,62352,4271,-30259
3780,126749,3.97646,8.77119,-0.851758,102.843,-28.4821,-22.6044,-8.05664,4.5166,-3.23486,0.629974,0.712891,-0.299957,0.069519,65531,61802,62355,4271,-30259
3786,126755,4.32578,8.97695,-1.17715,102.7,-28.4436,-22.3077,-7.99561,1.58691,-5.37109,0.630707,0.712952,-0.297974,0.0706787,65529,61803,62356,4271,-30259
3792,126761,4.09609,8.82383,-1.37334,102.629,-28.4271,-22.1704,-8.97217,0.488281,-2.2583,0.631042,0.713013,-0.296967,0.0711365,65528,61802,62354,4271,-30259
3798,126767,4.43584,9.10137,-1.37334,102.557,-28.4106,-22.0331,-10.2539,0.671387,-3.54004,0.631409,0.713043,-0.296112,0.0715942,65529,61800,62353,4271,-30259
3804,126773,4.59854,9.16836,-1.40684,102.464,-28.3997,-21.8793,-12.4512,3.35693,-2.38037,0.631775,0.713043,-0.295197,0.0720215,65528,61798,62349,4271,-30259
3810,126779,4.84736,9.3167,-1.46904,102.354,-28.3777,-21.709,-14.2822,6.04248,-5.24902,0.632263,0.712952,-0.29425,0.0725708,65528,61794,62342,4271,-30259
3816,126785,4.56504,9.07744,-1.37334,102.079,-28.3502,-21.3464,-19.7144,11.2915,-2.99072,0.633514,0.712616,-0.292114,0.0735779,65527,61794,62339,4271,-30259
3822,126791,4.51719,9.03916,-1.0623,101.915,-28.3447,-21.1432,-21.9727,13.0615,-4.08936,0.634308,0.712311,-0.290955,0.0742188,65527,61794,62337,4271,-30259
3828,126797,4.34971,8.83818,-1.49297,101.75,-28.3173,-20.9399,-23.1323,12.146,-6.5918,0.635193,0.711945,-0.289764,0.0748596,65526,61794,62337,4271,-30259
3834,126803,4.28271,8.9291,-0.971387,101.569,-28.3118,-20.7312,-24.292,15.1978,-3.72314,0.636108,0.711578,-0.288513,0.0754089,65523,61794,62337,4271,-30259
3840,126809,4.3832,8.98652,-0.60293,101.387,-28.2953,-20.5115,-24.9023,15.0146,-5.67627,0.637054,0.711151,-0.287262,0.0761108,65520,61792,62339,4271,-30259
3846,126815,4.36885,8.7042,-0.861328,101.03,-28.2568,-20.105,-24.7192,13.1836,-6.16455,0.639038,0.710266,-0.284729,0.077301,65518,61791,62335,4271,-30259
3852,126821,4.27793,8.7377,-1.05273,100.865,-28.2349,-19.9072,-23.4375,12.085,-5.79834,0.640015,0.709839,-0.283478,0.0778503,65516,61788,62330,4271,-30259
3858,126827,4.00518,9.09658,-0.665137,100.695,-28.2184,-19.704,-23.6206,13.5498,-5.85938,0.6409,0.709442,-0.282257,0.0783997,65515,61784,62324,4271,-30259
3864,126833,4.30186,9.42676,-0.220117,100.497,-28.2019,-19.4843,-27.3438,16.0522,-5.49316,0.641846,0.709045,-0.281036,0.0789795,65511,61779,62320,4271,-30259
3870,126839,4.07217,8.82861,-0.16748,100.294,-28.1799,-19.2755,-28.8696,15.1978,-5.85938,0.642914,0.708496,-0.279724,0.0796204,65504,61770,62308,4271,-30259
3876,126845,3.98125,8.20654,0.641211,99.8987,-28.1415,-18.8361,-26.2451,15.625,-5.61523,0.645142,0.707367,-0.27713,0.0808105,65499,61764,62304,4271,-30259
3882,126851,3.66064,8.01035,0.641211,99.7394,-28.1195,-18.6383,-20.5688,12.207,-6.7749,0.646149,0.706848,-0.275848,0.0814514,65493,61758,62300,4271,-30259
3888,126857,3.7707,8.14434,0.0478516,99.624,-28.0865,-18.468,-15.9912,7.14111,-6.83594,0.646973,0.706512,-0.274597,0.0820313,0,61753,62297,4271,-30259
3894,126863,3.5123,8.57022,0.291895,99.5416,-28.0536,-18.3142,-10.437,3.35693,-6.83594,0.647614,0.706329,-0.273468,0.0825195,38,61749,62296,4271,-30259
3900,126869,3.55537,8.53672,0.0287109,99.4922,-28.0206,-18.1989,-7.50732,-3.23486,-5.7373,0.64801,0.706299,-0.27243,0.0829468,105,61742,62290,4271,-30259
3906,126875,4.39756,8.95303,-1.04316,99.4537,-27.9437,-18.0341,-3.54004,-10.1929,-5.31006,0.648346,0.706543,-0.270844,0.0834351,134,61740,62284,4271,-30259
3912,126881,4.98135,9.42197,-1.73223,99.4373,-27.8998,-17.9572,-4.82178,-9.58252,-6.5918,0.648376,0.706757,-0.270203,0.0835876,110,61739,62281,4271,-30259
3918,126887,4.97178,9.9292,-1.9667,99.3713,-27.8723,-17.8418,-9.8877,-2.0752,-4.57764,0.648438,0.70694,-0.269501,0.0837097,90,61739,62278,4271,-30259
3924,126893,4.93828,10.0393,-1.43076,99.2505,-27.8503,-17.6825,-18.2495,5.67627,-4.94385,0.648743,0.70694,-0.268677,0.0840454,72,61737,62277,4271,-30259
3930,126899,5.27803,9.91963,-1.00488,99.0802,-27.8174,-17.4847,-24.4751,12.0239,-7.26318,0.649414,0.706665,-0.26767,0.0845032,42,61730,62279,4271,-30259
3936,126905,4.29707,8.64199,-0.502441,98.7012,-27.7515,-17.0673,-27.0386,16.3574,-7.69043,0.651306,0.70575,-0.265137,0.0854797,29,61724,62278,4271,-30259
3942,126911,3.99561,8.85254,-0.416309,98.5199,-27.713,-16.842,-24.5972,17.395,-9.33838,0.652374,0.7052,-0.263794,0.0860901,17,61718,62277,4271,-30259
3948,126917,3.51709,9.04873,-0.449805,98.3386,-27.6855,-16.6278,-24.1089,15.564,-7.26318,0.653351,0.704742,-0.26236,0.0867004,6,61713,62276,4271,-30259
3954,126923,3.73242,9.03916,-0.478516,98.1683,-27.6581,-16.4355,-24.8413,12.085,-7.20215,0.654266,0.704285,-0.261047,0.0873413,45,61709,62273,4271,-30259
3960,126929,3.84248,9.15879,-0.559863,97.998,-27.6196,-16.2543,-25.6958,10.5591,-8.17871,0.655182,0.703827,-0.259827,0.0878296,61,61741,62270,4271,-30259
3966,126935,4.254,9.16357,-0.31582,97.8168,-27.5867,-16.0785,-28.5645,10.7422,-6.95801,0.657104,0.702789,-0.257538,0.0886536,95,61774,62265,4271,-30259
3972,126941,4.19658,8.91475,-0.229688,97.4432,-27.5317,-15.705,-28.8086,11.8408,-4.94385,0.658112,0.702209,-0.256378,0.0890808,124,61802,62262,4271,-30259
3978,126947,4.27793,8.81426,-0.679492,97.2565,-27.5043,-15.5182,-29.1138,11.5356,-6.7749,0.659119,0.701599,-0.255249,0.0896301,151,61827,62257,4271,-30259
3984,126953,4.21094,9.01045,-0.325391,97.0642,-27.4878,-15.3149,-28.9917,14.2212,-4.02832,0.660156,0.701019,-0.254089,0.0900879,174,61850,62254,4271,-30259
3990,126959,3.8999,8.96738,-0.0813477,96.8719,-27.4603,-15.1227,-28.9917,11.9629,-5.79834,0.661194,0.700378,-0.25293,0.0906982,213,61889,62253,4271,-30259
3996,126965,3.675,9.11094,0.0287109,96.6852,-27.4384,-14.9359,-29.6021,10.8032,-5.06592,0.663239,0.699127,-0.250641,0.0917358,230,61904,62251,4271,-30259
4002,126971,4.05781,8.94824,-0.100488,96.3171,-27.3944,-14.5953,-29.9683,7.01904,-3.84521,0.664246,0.698486,-0.249542,0.0922241,244,61918,62247,4271,-30259
4008,126977,3.87119,9.01523,-0.200977,96.1523,-27.3669,-14.447,-28.3203,4.27246,-5.18799,0.665222,0.697845,-0.248596,0.0926514,257,61928,62242,4271,-30259
4014,126983,4.75645,9.03916,0.425879,96.0315,-27.312,-14.3536,-23.8647,-5.85938,-8.60596,0.666107,0.697266,-0.247711,0.0929565,268,61936,62238,4271,-30259
4020,126989,4.254,8.46016,0.0526367,95.9161,-27.2406,-14.2548,-22.4609,-4.5166,-13.855,0.666779,0.696899,-0.246948,0.0928955,278,61943,62233,4271,-30259
4026,126995,3.94297,9.13008,0.258398,95.7953,-27.1967,-14.1174,-17.395,0.610352,-10.3149,0.668091,0.696289,-0.245056,0.0930481,295,61953,62217,4271,-30259
4032,127001,3.44053,9.34541,-0.177051,95.5865,-27.0813,-13.8647,-18.6768,-0.12207,-11.5356,0.66864,0.696106,-0.24408,0.0932312,302,61957,62211,4271,-30259
4038,127007,3.2252,9.32148,-0.363672,95.4822,-27.0319,-13.7604,-20.2637,-3.54004,-8.91113,0.66922,0.695862,-0.243042,0.0933228,310,61961,62207,4271,-30259
4044,127013,2.5457,9.19707,-0.708203,95.3888,-26.9769,-13.6835,-20.4468,-7.99561,-9.15527,0.66983,0.695587,-0.242249,0.0933838,318,61963,62203,4271,-30259
4050,127019,3.8999,11.1973,0.497656,95.3998,-26.8945,-13.7823,-14.4043,-40.0391,-10.8643,0.67038,0.695313,-0.241547,0.0932922,330,61965,62195,4271,-30259
4056,127025,12.049,8.90996,5.22061,95.592,-26.6748,-14.1119,3.78418,-70.5566,-52.4902,0.669647,0.696228,-0.24234,0.0892639,335,61966,62190,4271,-30259
4062,127031,10.9484,6.72793,0.818262,95.8392,-26.1035,-14.2657,16.1743,-13.916,-57.5562,0.669006,0.697327,-0.242065,0.0863647,291,61966,62186,4271,-30259
4068,127037,8.91953,9.27842,0.913965,95.8392,-25.8234,-13.9252,21.1792,31.0669,-62.9883,0.668579,0.698608,-0.23996,0.0852661,252,61965,62184,4271,-30259
4074,127043,5.81875,11.8576,-0.153125,95.8612,-25.4883,-13.6011,24.5361,28.5034,-73.4863,0.668457,0.699921,-0.236359,0.0854187,218,61964,62182,4271,-30259
4080,127049,4.5459,12.317,-0.765625,95.8887,-25.1147,-13.3868,16.1743,8.30078,-79.5288,0.668274,0.701416,-0.232513,0.0852051,189,61964,62181,4271,-30259
4086,127055,5.57471,9.8957,-0.301465,95.9106,-24.7192,-13.2495,11.6577,-13.9771,-87.7075,0.668091,0.70401,-0.226074,0.0823975,135,61970,62178,4271,-30259
4092,127061,6.55566,10.0584,0.937891,96.0809,-23.8458,-13.0957,20.752,-19.9585,-92.4072,0.667908,0.705383,-0.223114,0.0803223,111,61974,62178,4271,-30259
4098,127067,7.65146,10.8001,0.971387,96.2622,-23.3295,-13.0518,31.7993,-25.8179,-104.736,0.667358,0.707062,-0.220184,0.0780029,89,61979,62175,4271,-30259
4104,127073,8.21133,11.5083,0.77041,96.4545,-22.7582,-13.0188,34.668,-28.6255,-117.432,0.666473,0.709167,-0.21698,0.0752869,70,61983,62174,4271,-30259
4110,127079,8.86211,12.3074,-0.846973,96.6907,-22.121,-13.0078,41.687,-34.6069,-130.615,0.665497,0.711487,-0.21347,0.0721436,55,61989,62174,4271,-30259
4116,127085,9.75693,13.1353,-2.38779,96.8994,-21.4124,-12.9749,36.0718,-35.0342,-157.043,0.663239,0.716675,-0.205505,0.0645142,30,61963,62174,4271,-30259
4122,127091,10.4029,13.9439,-2.87109,97.2894,-19.8083,-12.8979,34.1187,-35.2173,-172.668,0.66217,0.719299,-0.200989,0.0600586,19,61936,62171,4271,-30259
4128,127097,10.58,13.8865,-3.42139,97.4323,-18.891,-12.8485,24.353,-36.8042,-188.293,0.661194,0.721985,-0.195984,0.0551758,9,61913,62169,4271,-30259
4134,127103,10.3934,13.9679,-4.18223,97.5531,-17.8912,-12.7991,19.9585,-38.7573,-205.444,0.660492,0.724457,-0.190552,0.0497131,1,61892,62166,4271,-30259
4140,127109,10.1206,13.4702,-4.6416,97.63,-16.8201,-12.7386,10.9253,-38.5132,-220.947,0.659882,0.726929,-0.184662,0.0436707,65530,61877,62161,4271,-30259
4146,127115,9.78564,12.9869,-5.36895,97.6685,-15.6665,-12.7057,0.671387,-58.4106,-253.479,0.659393,0.731262,-0.171692,0.0298157,65513,61864,62155,4271,-30259
4152,127121,9.34062,13.3937,-6.62266,97.7893,-13.0847,-12.832,0.366211,-78.125,-271.179,0.659119,0.733368,-0.164886,0.021637,65505,61823,62153,4271,-30259
4158,127127,10.3503,14.6761,-7.28779,97.8497,-11.6345,-13.0188,-4.76074,-97.9004,-291.016,0.65863,0.735504,-0.158081,0.0123291,65498,61788,62153,4271,-30259
4164,127133,11.0394,16.7289,-8.34531,97.8882,-10.0635,-13.288,-11.0474,-116.028,-313.843,0.658051,0.737549,-0.151215,0.00180054,65491,61759,62153,4271,-30259
4170,127139,11.7811,18.5329,-9.82393,97.8168,-8.39905,-13.6011,-34.9121,-128.418,-331.665,0.65744,0.739441,-0.144135,-0.00997925,65485,61736,62156,4271,-30259
4176,127145,14.3746,22.4807,-13.0635,97.619,-6.65771,-13.9142,-79.3457,-109.375,-354.248,0.657867,0.741058,-0.128998,-0.0362244,65477,61705,62161,4271,-30259
4182,127151,15.9011,26.6964,-14.6952,96.7731,-3.17505,-14.2053,-117.188,-77.5757,-354.187,0.658966,0.740784,-0.120331,-0.0493164,65472,61697,62161,4271,-30259
4188,127157,17.595,26.4141,-18.8009,95.9216,-1.43372,-14.1779,-182.495,-53.833,-359.802,0.661255,0.739319,-0.110657,-0.0615234,65468,61651,62156,4271,-30259
4194,127163,17.9778,23.988,-17.2553,94.7736,0.269165,-13.9471,-242.92,-6.95801,-358.459,0.665558,0.735901,-0.0999451,-0.0733948,65514,61651,62149,4271,-30259
4200,127169,18.2267,22.1553,-11.9868,93.4058,1.93909,-13.4088,-289.612,63.2324,-355.286,0.671783,0.730652,-0.087738,-0.0839233,19,61650,62139,4271,-30259
4206,127175,11.6949,17.0878,-6.78057,91.9775,3.57056,-12.5629,-298.889,177.307,-348.999,0.687805,0.716888,-0.0570984,-0.0982361,80,61643,62103,4271,-30259
4212,127181,8.62285,19.1167,-7.82852,89.4122,6.9104,-10.5304,-281.494,179.871,-360.718,0.695587,0.7099,-0.0396118,-0.102692,97,61636,62082,4271,-30259
4218,127187,6.49824,18.2458,-8.24961,88.1268,8.5968,-9.70642,-296.082,151.855,-353.149,0.702484,0.703156,-0.021759,-0.107361,104,61627,62057,4271,-30259
4224,127193,7.01025,15.4226,-7.49834,86.803,10.2118,-8.89343,-307.007,156.433,-336.365,0.709534,0.695526,-0.00497437,-0.112579,155,61618,62032,4271,-30259
4230,127199,7.31172,10.9389,-9.07744,85.5011,11.7334,-8.12439,-307.983,153.076,-314.392,0.716675,0.687317,0.0114136,-0.117096,189,61605,62004,4271,-30259
4236,127205,1.97627,0.287109,-10.6135,84.1443,13.0847,-7.41028,-342.041,157.776,-232.117,0.730927,0.669739,0.0413818,-0.12384,302,61610,61930,4288,-30261
4242,127211,-0.291895,-3.27305,-7.65625,81.2164,15.0018,-5.85571,-360.596,155.823,-156.067,0.7388,0.659912,0.0548096,-0.124817,382,61622,61886,4288,-30261
4248,127217,1.92363,-5.78525,-2.86631,79.5905,15.3809,-5.20203,-381.47,121.155,-78.3691,0.747314,0.649506,0.0660095,-0.123291,440,61666,61837,4288,-30261
4254,127223,4.54111,-9.35498,2.43564,78.1018,15.5072,-4.55933,-354.492,111.023,-26.001,0.756714,0.638275,0.0739136,-0.120148,538,61704,61792,4279,-30260
4260,127229,5.65605,-10.4221,6.56045,77.1075,15.4742,-3.66943,-270.874,150.757,16.6626,0.765411,0.62793,0.079834,-0.11554,617,61728,61745,4279,-30260
4266,127235,7.29736,-8.04385,1.50254,76.8494,15.3479,-2.65869,-21.8506,158.936,41.8701,0.774231,0.618164,0.090271,-0.101013,778,61788,61650,4279,-30260
4272,127241,6.97197,-3.65107,1.92842,77.7338,15.0238,-0.807495,53.2837,146.79,40.5273,0.773743,0.619263,0.0942078,-0.0939331,859,61824,61606,4279,-30260
4278,127247,6.00537,-1.01924,-1.78008,78.5522,14.7986,0.032959,96.6797,136.047,46.7529,0.771271,0.622803,0.0974121,-0.0874939,922,61854,61565,4279,-30260
4284,127253,5.93359,2.00498,-4.54111,79.3872,14.502,0.85144,101.257,130.066,57.1899,0.767609,0.627747,0.099884,-0.0812988,975,61881,61528,4279,-30260
4290,127259,5.81396,3.71328,-5.81875,80.1453,14.1449,1.66443,86.9751,128.601,67.4438,0.763824,0.632813,0.101837,-0.0749512,1064,61909,61498,4279,-30260
4296,127265,6.35947,5.81875,-5.92881,80.7825,13.7329,2.4884,39.4287,132.629,87.0972,0.757629,0.641205,0.105011,-0.0610046,1196,61938,61447,4279,-30260
4302,127271,6.65137,6.04365,-5.8666,81.6943,12.7661,4.16382,17.7002,133.972,93.8721,0.755463,0.644196,0.106384,-0.0533447,1292,61941,61429,4279,-30260
4308,127277,6.92891,5.71826,-6.03887,82.002,12.2278,5.02625,-0.244141,138.123,100.586,0.753876,0.646484,0.107666,-0.0453186,1371,61949,61412,4279,-30260
4314,127283,7.12031,5.12012,-6.08193,82.2382,11.6565,5.92712,-14.2822,146.484,108.154,0.752716,0.648163,0.108917,-0.0368958,1438,61960,61398,4279,-30260
4320,127289,7.12031,4.45977,-5.74697,82.4304,11.0522,6.88293,-23.6206,157.654,116.272,0.751862,0.649353,0.110229,-0.0279541,1488,61934,61384,4279,-30260
4326,127295,6.3834,3.63193,-4.9957,82.6007,10.4041,7.90466,-29.1748,181.58,136.23,0.750458,0.651031,0.113281,-0.00814819,1648,61905,61358,4279,-30260
4332,127301,5.7374,3.48838,-5.08662,82.9358,8.96484,10.1074,-28.6865,190.979,148.132,0.749634,0.651733,0.114929,0.00271606,1705,61900,61348,4279,-30260
4338,127307,5.11533,3.49316,-5.22539,83.0951,8.15186,11.272,-27.5879,198.242,161.56,0.748627,0.652435,0.116516,0.0142517,1800,61861,61340,4279,-30260
4344,127313,4.48848,3.49316,-5.32109,83.2544,7.26746,12.464,-26.062,203.674,175.781,0.747467,0.653137,0.11792,0.0263977,1882,61829,61334,4279,-30260
4350,127319,3.87119,3.48838,-5.35938,83.4082,6.31714,13.678,-23.9258,207.092,190.674,0.746094,0.65387,0.11911,0.0391235,1948,61805,61330,4279,-30260
4356,127325,3.03379,3.22998,-5.74219,83.562,5.28992,14.892,-13.4888,208.679,219.299,0.742554,0.655487,0.120392,0.06604,2089,61703,61332,4304,-30263
4362,127331,2.67969,3.30654,-5.88574,83.9081,3.02124,17.3199,-5.92041,206.726,234.619,0.740265,0.656494,0.120453,0.0801086,2160,61667,61340,4304,-30263
4368,127337,2.30166,3.47881,-5.96709,84.1003,1.77429,18.501,2.31934,201.66,248.657,0.737549,0.657684,0.120026,0.0945129,2218,61639,61348,4304,-30263
4374,127343,2.11504,3.72764,-6.20156,84.3091,0.455933,19.6436,9.21631,193.909,263.245,0.734406,0.659119,0.119049,0.1091,2267,61617,61358,4304,-30263
4380,127349,2.17246,4.00518,-6.66572,84.5068,-0.939331,20.7422,12.9395,184.998,279.419,0.730865,0.660736,0.117432,0.12381,2355,61563,61373,4304,-30263
4386,127355,3.01943,4.04824,-7.40742,84.6826,-2.4115,21.8024,12.7563,172.607,303.772,0.7229,0.664154,0.112061,0.153687,2486,61455,61413,4304,-30263
4392,127361,3.675,3.86641,-7.37871,84.9683,-5.48767,23.8458,14.9536,168.457,309.57,0.718597,0.665771,0.108582,0.168762,2537,61407,61439,4304,-30263
4398,127367,4.34014,3.89033,-7.05811,85.1221,-7.04224,24.8236,23.4375,164.246,309.998,0.713989,0.667328,0.104797,0.183807,2584,61335,61467,4304,-30263
4404,127373,4.7373,4.24922,-6.93848,85.3308,-8.57483,25.7794,38.8794,159.485,305.237,0.708984,0.669006,0.100922,0.198608,2627,61277,61492,4304,-30263
4410,127379,4.81387,4.97178,-7.27822,85.6165,-10.0745,26.6968,57.7393,154.48,297.729,0.7034,0.671051,0.0971375,0.212952,2668,61195,61518,4304,-30263
4416,127385,4.91436,6.63701,-8.62764,85.9735,-11.5302,27.5757,88.562,144.592,282.41,0.69043,0.676331,0.0903015,0.23999,2741,61015,61578,4304,-30263
4422,127391,5.22539,7.32129,-9.68037,86.825,-14.3427,29.2456,98.3276,142.456,274.719,0.683228,0.679443,0.0871887,0.252716,2778,60917,61611,4304,-30263
4428,127397,5.20625,8.51279,-10.3024,87.2809,-15.705,30.0531,104.858,141.907,268.555,0.675659,0.682648,0.0843506,0.264984,2816,60841,61646,4304,-30263
4434,127403,5.46465,9.43633,-10.8145,87.7478,-17.0178,30.8606,110.046,144.043,259.521,0.667877,0.685913,0.0817566,0.276917,2855,60737,61680,4304,-30263
4440,127409,5.48379,9.8957,-11.092,88.2367,-18.2758,31.6736,119.629,147.034,248.962,0.659882,0.689087,0.0795593,0.288513,2846,60656,61718,4304,-30263
4446,127415,5.41201,11.6088,-12.0155,88.786,-19.4733,32.4866,151.733,152.222,222.839,0.643005,0.69574,0.0768433,0.310577,2853,60472,61799,4304,-30263
4452,127421,5.37852,12.762,-13.1448,90.0714,-21.687,34.1235,167.236,155.762,211.121,0.633911,0.699432,0.0764771,0.320923,2815,60366,61845,4304,-30263
4458,127427,5.17275,13.9774,-14.5756,90.769,-22.7307,34.9805,178.711,164.429,203.613,0.62439,0.703308,0.0767822,0.330872,2787,60282,61891,4304,-30263
4464,127433,4.72295,14.7766,-15.4943,91.4612,-23.7689,35.8923,187.012,177.612,200.806,0.614532,0.707184,0.0776978,0.340759,2763,60168,61936,4304,-30263
4470,127439,4.19658,15.48,-15.8676,92.1368,-24.8181,36.8701,191.284,190.796,201.904,0.604309,0.710907,0.0791626,0.350769,2747,60078,61986,4304,-30263
4476,127445,3.58408,16.5279,-16.2887,92.8015,-25.8838,37.8973,207.275,205.383,205.261,0.582916,0.717682,0.0830688,0.371643,2685,59873,62102,4313,-30264
4482,127451,3.0625,17.0017,-16.6188,94.2023,-28.0426,39.9628,216.248,206.299,203.674,0.571625,0.720978,0.0853577,0.382172,2639,59759,62167,4313,-30264
4488,127457,3.40703,16.4227,-10.4077,94.8395,-29.1193,40.957,202.148,201.172,202.209,0.559937,0.724274,0.0878296,0.392487,2603,59666,62238,4313,-30264
4494,127463,3.57451,16.0733,-19.1311,95.6799,-30.141,41.9678,248.596,205.261,189.697,0.548676,0.727142,0.0899658,0.402527,2571,59588,62305,4313,-30264
4500,127469,3.8377,21.069,-18.7817,96.427,-31.1572,43.0884,244.324,225.342,184.387,0.536041,0.730774,0.0933533,0.412048,2546,59486,62381,4313,-30264
4506,127475,2.56006,21.3227,-19.9254,96.9763,-32.1625,44.3188,200.867,264.587,173.95,0.511505,0.735596,0.101349,0.432312,2513,59304,62551,4313,-30264
4512,127481,1.26807,20.447,-19.2411,97.5751,-34.14,47.1204,192.139,281.189,168.579,0.500153,0.736389,0.105591,0.443085,2504,59223,62645,4313,-30264
4518,127487,-0.425879,20.1168,-18.1501,97.7344,-35.1068,48.6365,188.416,290.527,164.246,0.488983,0.73645,0.110168,0.454163,2450,59117,62741,4313,-30264
4524,127493,-1.88535,20.0163,-17.4754,97.8333,-36.0626,50.1855,185.669,294.434,161.133,0.477905,0.736053,0.114929,0.465271,2402,59027,62835,4313,-30264
4530,127499,-3.3209,19.6191,-17.2983,97.8827,-37.0129,51.7456,181.213,294.067,161.194,0.466888,0.735321,0.119751,0.476288,2366,58912,62930,4313,-30264
4536,127505,-5.44551,18.643,-16.7193,97.9047,-37.9578,53.2837,177.307,280.029,162.231,0.445007,0.733185,0.128906,0.49765,2316,58741,63136,4313,-30264
4542,127511,-6.10107,18.4133,-16.3509,97.9761,-39.8199,56.1841,176.758,266.968,162.17,0.434113,0.732086,0.133087,0.507751,2302,58638,63243,4313,-30264
4548,127517,-6.37383,18.3415,-16.0016,98.0585,-40.7263,57.5134,176.575,251.77,161.377,0.423218,0.731079,0.136963,0.517212,2243,58554,63351,4313,-30264
4554,127523,-6.49346,18.2123,-15.7049,98.1793,-41.6162,58.7494,176.208,237.061,159.912,0.412415,0.730316,0.140503,0.526031,2195,58481,63457,4313,-30264
4560,127529,-6.52217,18.064,-15.4608,98.3221,-42.4841,59.9139,175.415,225.403,157.593,0.401703,0.729706,0.143768,0.53421,2161,58381,63561,4313,-30264
4566,127535,-6.27334,18.0353,-14.8627,98.4814,-43.3356,61.0291,173.889,210.144,151.733,0.380646,0.728821,0.14978,0.549011,2040,58225,63777,4313,-30264
4572,127541,-7.55098,18.2314,-14.9728,98.8,-44.978,63.1714,172.424,207.581,149.353,0.37027,0.728424,0.152618,0.555786,1955,58166,63883,4313,-30264
4578,127547,-8.51279,18.1932,-14.8148,98.9594,-45.769,64.1821,169.25,199.158,146.057,0.360046,0.727966,0.155396,0.562317,1889,58075,63990,4313,-30264
4584,127553,-9.2832,17.8821,-14.2311,99.1241,-46.5271,65.116,162.903,188.416,141.479,0.350006,0.727539,0.15799,0.56842,1834,57995,64092,4313,-30264
4590,127559,-10.379,16.1164,-11.3935,99.234,-47.2522,65.9949,144.165,178.711,135.498,0.340363,0.727173,0.16037,0.574036,1744,57925,64191,4313,-30264
4596,127565,-9.5751,6.89541,2.79932,99.267,-47.9443,66.7969,137.512,161.011,127.258,0.323578,0.726044,0.163574,0.584167,1618,57810,64386,4296,-30262
4602,127571,-9.24971,3.92383,6.3499,99.7559,-49.2352,68.302,180.725,159.607,120.483,0.315338,0.725739,0.165192,0.588593,1528,57762,64479,4296,-30262
4608,127577,-9.07266,4.63682,4.9,100.75,-49.7296,68.7964,274.353,123.901,98.5107,0.305939,0.725952,0.16806,0.592468,1458,57718,64569,4296,-30262
4614,127583,-10.1015,8.01035,-1.12451,102.283,-50.0262,69.0326,343.872,86.4258,63.7817,0.294403,0.728088,0.173492,0.594116,1401,57677,64652,4296,-30262
4620,127589,-10.3312,14.3794,-6.0293,104.128,-50.257,69.0326,373.047,56.8848,55.7861,0.28186,0.73172,0.181244,0.593445,1306,57639,64733,4296,-30262
4626,127595,-6.48867,21.2892,-10.9771,105.996,-50.4382,68.8953,322.083,37.8418,44.1895,0.256439,0.740814,0.197205,0.588562,1159,57579,64911,4296,-30262
4632,127601,-3.73242,21.5284,-10.6805,108.918,-50.7458,68.8458,266.357,70.0684,34.79,0.245361,0.744843,0.204102,0.585876,1101,57555,65012,4296,-30262
4638,127607,-2.68926,20.9016,-9.32627,109.682,-50.8997,69.2743,226.868,109.192,19.2261,0.236053,0.747223,0.210114,0.584503,1053,57534,65123,4296,-30262
4644,127613,-3.78027,20.1072,-7.30215,110.045,-51.037,70.0049,195.19,144.104,2.86865,0.228058,0.747986,0.215973,0.584595,1010,57515,65231,4296,-30262
4650,127619,-5.92402,19.0545,-6.13457,110.154,-51.1469,70.9003,170.471,162.781,-10.9863,0.221191,0.747314,0.221832,0.585876,974,57496,65342,4296,-30262
4656,127625,-9.20186,17.8438,-6.52695,110.116,-51.2128,71.8561,132.019,160.339,-33.0811,0.210297,0.743805,0.233307,0.589905,910,57464,31,4296,-30262
4662,127631,-10.1589,17.8486,-6.56045,109.83,-51.1578,73.6359,110.474,149.414,-42.2363,0.206268,0.741699,0.238678,0.591827,881,57451,142,4296,-30262
