Timestamp,AccX,AccY,AccZ,AngleX,AngleY,AngleZ,AngularVelX,AngularVelY,AngularVelZ,QW,QX,QY,QZ,MagX,MagY,MagZ,Height,AirPressure
66491,-0.15791,0.397168,9.81914,2.78503,0.406494,-1.98303,0,0,0,0.999542,0.0212097,0.00750732,-0.0174561,-30746,-23571,18116,-9167,-28641
66497,-0.162695,0.416309,9.79521,2.78503,0.406494,-1.98303,0,0,0,0.999542,0.0212097,0.00750732,-0.0174561,-30746,-23571,18628,-9167,-28641
66503,-0.13877,0.392383,9.77129,2.78503,0.406494,-1.98303,0,0,0,0.999542,0.0212097,0.00750732,-0.0174561,-31002,-23571,18372,-9167,-28641
66509,-0.13877,0.411523,9.79043,2.78503,0.406494,-1.98303,0,0,0,0.999542,0.0212097,0.00750732,-0.0174561,-31258,-23315,18372,-9167,-28641
66515,-0.15791,0.382812,9.8,2.78503,0.406494,-1.98303,0,0,0,0.999542,0.0212097,0.00750732,-0.0174561,-31770,-24339,16836,-9167,-28641
66521,-0.177051,0.411523,9.77129,2.78503,0.406494,-1.98303,0,0,0,0.999542,0.0212097,0.00750732,-0.0174561,-31770,-25107,17092,-9167,-28641
66527,-0.15791,0.411523,9.78086,2.78503,0.406494,-1.98303,0,0,0,0.999542,0.0212097,0.00750732,-0.0174561,-31514,-25363,17860,-9167,-28641
66533,-0.15791,0.430664,9.78564,2.78503,0.406494,-1.98303,0,0,0,0.999542,0.0211792,0.00750732,-0.0174561,-31258,-25363,18628,-9167,-28641
66539,-0.119629,0.397168,9.79521,2.78503,0.406494,-1.98303,0,0,0,0.999542,0.0211792,0.00750732,-0.0174561,-31258,-25619,18628,-9167,-28641
66545,-0.162695,0.430664,9.79043,2.78503,0.406494,-1.98303,0,0,0,0.999542,0.0211792,0.00750732,-0.0174561,-32026,-25875,16836,-9167,-28641
66551,-0.14834,0.411523,9.78086,2.78503,0.406494,-1.98303,0,0,0,0.999542,0.0211792,0.00750732,-0.0174561,-32026,-25875,14788,-9167,-28641
66557,-0.153125,0.430664,9.8,2.78503,0.406494,-1.98303,0,0,0,0.999542,0.0211792,0.00750732,-0.0174561,-32026,-25363,13508,-9167,-28641
66563,-0.162695,0.387598,9.78564,2.78503,0.406494,-1.98303,0,0,0,0.999542,0.0211792,0.00750732,-0.0174561,-31770,-24851,12740,-9167,-28641
66569,-0.119629,0.411523,9.77607,2.78503,0.406494,-1.98303,0,0,0,0.999542,0.0211792,0.00750732,-0.0174561,-31514,-24339,11972,-9167,-28641
66575,-0.15791,0.397168,9.78086,2.78503,0.406494,-1.98303,0,0,0,0.999542,0.0211792,0.00750732,-0.0174561,-31258,-23827,10692,-9167,-28641
66581,-0.162695,0.387598,9.8,2.78503,0.406494,-1.98303,0,0,0,0.999542,0.0211792,0.00750732,-0.0174561,-31002,-23827,9412,-9167,-28641
66587,-0.15791,0.411523,9.79043,2.78503,0.406494,-1.98303,0,0,0,0.999542,0.0211792,0.00750732,-0.0174561,-31002,-23315,8132,-9167,-28641
66593,-0.172266,0.406738,9.79043,2.78503,0.406494,-1.98303,0,0,0,0.999542,0.0211792,0.00750732,-0.0174561,-31002,-22803,7876,-9167,-28641
66599,-0.14834,0.411523,9.80957,2.78503,0.406494,-1.98303,0,0,0,0.999542,0.0211792,0.00750732,-0.0174561,-30746,-22547,8900,-9167,-28641
66605,-0.15791,0.406738,9.79521,2.78503,0.406494,-1.98303,0,0,0,0.999542,0.0211792,0.00750732,-0.0174561,-30746,-21779,10692,-9167,-28641
66611,-0.15791,0.421094,9.77607,2.78503,0.406494,-1.98303,0,0,0,0.999542,0.0211792,0.00750732,-0.0174561,-30490,-21267,11716,-9167,-28641
66617,-0.162695,0.411523,9.77607,2.78503,0.406494,-1.98303,0,0,0,0.999542,0.0211792,0.00750732,-0.0174561,-30490,-20499,11972,-9167,-28641
66623,-0.16748,0.416309,9.77129,2.78503,0.406494,-1.98303,0,0,0,0.999542,0.0211792,0.00750732,-0.0174561,-30746,-19475,11972,-9167,-28641
66629,-0.13877,0.425879,9.77607,2.78503,0.406494,-1.98303,0,0,0,0.999542,0.0211792,0.00750732,-0.0174561,-31002,-18451,11716,-9167,-28641
66635,-0.129199,0.416309,9.82393,2.78503,0.406494,-1.98303,0,0,0,0.999542,0.0211792,0.00750732,-0.0174561,-30746,-17427,9156,-9167,-28641
66641,-0.15791,0.425879,9.81436,2.78503,0.406494,-1.98303,0,0,0,0.999542,0.0211792,0.00750732,-0.0174561,-31258,-17171,8388,-9167,-28641
66647,-0.15791,0.392383,9.8,2.78503,0.406494,-1.98303,0,0,0,0.999542,0.0211792,0.00750732,-0.0174561,-31258,-16915,7876,-9167,-28641
66653,-0.153125,0.411523,9.81914,2.78503,0.406494,-1.98303,0,0,0,0.999542,0.0211792,0.00750732,-0.0174561,-31002,-16659,8388,-9167,-28641
66659,-0.14834,0.392383,9.78564,2.78503,0.406494,-1.98303,0,0,0,0.999542,0.0211792,0.00750732,-0.0174561,-31002,-16915,9156,-9167,-28641
66665,-0.172266,0.397168,9.77607,2.78503,0.406494,-1.98303,0,0,0,0.999542,0.0211792,0.00750732,-0.0174561,-30746,-17683,10692,-9167,-28641
66671,-0.14834,0.416309,9.8,2.78503,0.406494,-1.98303,0,0,0,0.999542,0.0211792,0.00750732,-0.0174561,-31002,-17939,11460,-9167,-28641
66677,-0.153125,0.406738,9.7665,2.78503,0.406494,-1.98303,0,0,0,0.999542,0.0211792,0.00750732,-0.0174561,-31258,-17939,11716,-9167,-28641
66683,-0.153125,0.416309,9.7665,2.78503,0.406494,-1.98303,0,0,0,0.999542,0.0211792,0.00750732,-0.0174561,-31514,-17939,11972,-9167,-28641
66689,-0.14834,0.421094,9.77129,2.78503,0.406494,-1.98303,0,0,0,0.999542,0.0211792,0.00750732,-0.0174561,-31770,-17939,11972,-9167,-28641
66695,-0.14834,0.416309,9.80479,2.78503,0.406494,-1.98303,0,0,0,0.999542,0.0211792,0.00750732,-0.0174561,-31002,-18451,11460,-9167,-28641
66701,-0.15791,0.425879,9.78086,2.78503,0.406494,-1.98303,0,0,0,0.999542,0.0211792,0.00750732,-0.0174561,-30490,-18707,11716,-9167,-28641
66707,-0.162695,0.411523,9.81436,2.78503,0.406494,-1.98303,0,0,0,0.999542,0.0211792,0.00750732,-0.0174561,-30234,-19219,12228,-9167,-28641
66713,-0.14834,0.397168,9.75693,2.78503,0.406494,-1.98303,0,0,0,0.999542,0.0211792,0.00750732,-0.0174561,-30234,-19731,12996,-9167,-28641
66719,-0.153125,0.416309,9.8,2.78503,0.406494,-1.98303,0,0,0,0.999542,0.0211792,0.00750732,-0.0174561,-30234,-19987,13764,-9167,-28641
66725,-0.129199,0.397168,9.79043,2.78503,0.406494,-1.98303,0,0,0,0.999542,0.0211792,0.00750732,-0.0174561,-30746,-19731,14532,-9167,-28641
66731,-0.13877,0.430664,9.80479,2.78503,0.406494,-1.98303,0,0,0,0.999542,0.0211792,0.00750732,-0.0174561,-30746,-19219,14532,-9167,-28641
66737,-0.14834,0.411523,9.78564,2.78503,0.406494,-1.98303,0,0,0,0.999542,0.0211792,0.00750732,-0.0174561,-30746,-18963,14276,-9167,-28641
66743,-0.153125,0.411523,9.81914,2.78503,0.406494,-1.98303,0,0,0,0.999542,0.0211792,0.00750732,-0.0174561,-30746,-18451,13764,-9167,-28641
66749,-0.14834,0.421094,9.78564,2.78503,0.406494,-1.98303,0,0,0,0.999542,0.0211792,0.00750732,-0.0174561,-30490,-18963,14788,-9167,-28641
66755,-0.16748,0.401953,9.76172,2.78503,0.406494,-1.98303,0,0,0,0.999542,0.0211792,0.00750732,-0.0174561,-29978,-19475,17348,-9167,-28641
66761,-0.13877,0.401953,9.83828,2.78503,0.406494,-1.98303,0,0,0,0.999542,0.0212097,0.00750732,-0.0174561,-29466,-19987,18628,-9167,-28641
66767,-0.129199,0.406738,9.81914,2.78503,0.406494,-1.98303,0,0,0,0.999542,0.0212097,0.00750732,-0.0174561,-29466,-20243,19652,-9167,-28641
66773,-0.15791,0.406738,9.75693,2.78503,0.406494,-1.98303,0,0,0,0.999542,0.0212097,0.00750732,-0.0174561,-29466,-20243,18628,-9167,-28641
66779,-0.124414,0.416309,9.80957,2.78503,0.406494,-1.98303,0,0,0,0.999542,0.0212097,0.00750732,-0.0174561,-29722,-20243,16836,-9167,-28641
66785,-0.143555,0.425879,9.77129,2.78503,0.406494,-1.98303,0,0,0,0.999542,0.0212097,0.00750732,-0.0174561,-29978,-19475,11204,-9167,-28641
66791,-0.153125,0.425879,9.78086,2.78503,0.406494,-1.98303,0,0,0,0.999542,0.0212097,0.00750732,-0.0174561,-30490,-19219,8900,-9167,-28641
66797,-0.162695,0.411523,9.77129,2.78503,0.406494,-1.98303,0,0,0,0.999542,0.0212097,0.00750732,-0.0174561,-30490,-19219,6852,-9167,-28641
66803,-0.15791,0.397168,9.8,2.78503,0.406494,-1.98303,0,0,0,0.999542,0.0212097,0.00750732,-0.0174561,-30746,-19475,5828,-9167,-28641
66809,-0.186621,0.416309,9.79043,2.78503,0.406494,-1.98303,0,0,0,0.999542,0.0212097,0.00750732,-0.0174561,-31002,-19731,6084,-9167,-28641
66815,0.090918,0.425879,9.57988,2.79053,0.401001,-1.98303,0.427246,-0.854492,-0.366211,0.999542,0.0212097,0.00750732,-0.0174561,-31002,-21011,7364,-9167,-28641
66821,-0.258398,0.421094,10.1302,2.79053,0.401001,-1.98303,0.183105,-0.732422,0.0610352,0.999542,0.0212097,0.00747681,-0.0174561,-30746,-21267,8388,-9167,-28641
66827,-0.143555,0.45459,9.24014,2.79602,0.401001,-1.97754,0.976562,0.488281,0.549316,0.999542,0.0212097,0.00744629,-0.0174561,-30490,-21523,8644,-9167,-28641
66833,-0.162695,0.301465,10.0728,2.77405,0.411987,-1.97754,-3.60107,2.0752,-0.244141,0.999542,0.0212708,0.00744629,-0.0174561,-30234,-21779,9412,-9167,-28641
66839,0.0526367,0.430664,9.45068,2.79053,0.411987,-1.97754,-1.2207,-0.0610352,-0.0610352,0.999542,0.0212097,0.00753784,-0.0174561,-29978,-22035,10180,-9167,-28641
66845,-0.224902,0.334961,10.0632,2.78503,0.411987,-1.97754,0.183105,0.366211,0.12207,0.999542,0.0211792,0.00753784,-0.0174561,-29722,-21011,10436,-9167,-28641
66851,-0.090918,0.483301,9.6708,2.79053,0.411987,-1.97754,1.34277,-0.366211,-0.0610352,0.999542,0.0211792,0.00756836,-0.0174561,-29978,-21267,9668,-9167,-28641
66857,-0.162695,0.401953,9.65645,2.77954,0.411987,-1.97754,-2.68555,0.488281,0,0.999542,0.0212402,0.00753784,-0.0174561,-30234,-21267,8900,-9167,-28641
66863,-0.210547,0.330176,9.95791,2.78503,0.411987,-1.97754,1.15967,0,0.183105,0.999542,0.0211182,0.00756836,-0.0174561,-30490,-21523,9156,-9167,-28641
66869,-0.14834,0.387598,9.90049,2.78503,0.411987,-1.97754,-1.09863,0,-0.12207,0.999542,0.0211792,0.00753784,-0.0174561,-30490,-21779,10436,-9167,-28641
66875,-0.16748,0.406738,9.8335,2.77954,0.411987,-1.98303,0.793457,0,-0.0610352,0.999542,0.0211182,0.00753784,-0.0174561,-30746,-22547,12996,-9167,-28641
66881,-0.13877,0.449805,9.65645,2.77954,0.411987,-1.98303,-0.854492,0.183105,0,0.999542,0.0211487,0.00753784,-0.0174561,-31258,-22547,14276,-9167,-28641
66887,-0.177051,0.373242,9.89092,2.77954,0.411987,-1.98303,-0.0610352,0.305176,0,0.999542,0.0211182,0.00753784,-0.0174561,-31514,-22547,15044,-9167,-28641
66893,-0.143555,0.416309,9.75693,2.77954,0.411987,-1.98303,1.0376,0.183105,-0.12207,0.999542,0.0211182,0.00753784,-0.0174561,-31770,-22291,15300,-9167,-28641
66899,-0.13877,0.411523,9.83828,2.78503,0.411987,-1.98303,0.0610352,-0.183105,-0.0610352,0.999542,0.0211792,0.00756836,-0.0174561,-32026,-21779,15812,-9167,-28641
66905,-0.15791,0.392383,9.81914,2.78503,0.411987,-1.98303,0.427246,0,0.0610352,0.999542,0.0211792,0.00753784,-0.0174561,-32282,-21267,16068,-9167,-28641
66911,-0.14834,0.425879,9.77129,2.78503,0.411987,-1.98303,0.244141,-0.244141,0.0610352,0.999542,0.0211792,0.00753784,-0.0174561,-32538,-21011,15556,-9167,-28641
66917,-0.15791,0.401953,9.76172,2.78503,0.406494,-1.98303,-0.366211,-0.366211,0,0.999542,0.0212097,0.00753784,-0.0174561,32486,-21011,15812,-9167,-28641
66923,-0.14834,0.387598,9.83828,2.78503,0.406494,-1.98303,-0.183105,-0.244141,-0.0610352,0.999542,0.0211792,0.00750732,-0.0174561,32486,-21011,15556,-9167,-28641
66929,-0.129199,0.397168,9.81914,2.78503,0.406494,-1.98303,-0.12207,0,0.0610352,0.999542,0.0211487,0.00750732,-0.0174561,32486,-21267,14788,-9167,-28641
66935,-0.14834,0.411523,9.81436,2.77954,0.406494,-1.98303,0,0.183105,0,0.999542,0.0211487,0.00750732,-0.0174561,-31770,-21779,14276,-9167,-28641
66941,-0.153125,0.425879,9.80479,2.77954,0.411987,-1.98303,-0.305176,0.488281,0,0.999542,0.0211487,0.00750732,-0.0174561,-31258,-22291,12996,-9167,-28641
66947,-0.186621,0.392383,9.80957,2.77954,0.411987,-1.98303,0.244141,0.183105,0,0.999542,0.0211487,0.00753784,-0.0174561,-30490,-22291,12996,-9167,-28641
66953,-0.14834,0.416309,9.75693,2.78503,0.411987,-1.98303,0.427246,0,-0.0610352,0.999542,0.0211487,0.00753784,-0.0174561,-30490,-22291,12996,-9167,-28641
66959,-0.13877,0.411523,9.79521,2.78503,0.411987,-1.98303,0.427246,-0.244141,0,0.999542,0.0211792,0.00753784,-0.0174561,-30746,-22291,13764,-9167,-28641
66965,-0.13877,0.387598,9.7665,2.78503,0.406494,-1.98303,-0.0610352,-0.12207,0.0610352,0.999542,0.0212097,0.00750732,-0.0174561,-30234,-22291,17348,-9167,-28641
66971,-0.153125,0.425879,9.8,2.78503,0.406494,-1.98303,-0.366211,-0.12207,-0.0610352,0.999542,0.0212097,0.00750732,-0.0174561,-29978,-22547,18372,-9167,-28641
66977,-0.162695,0.397168,9.81914,2.78503,0.406494,-1.98303,-0.366211,0.12207,0,0.999542,0.0211792,0.00750732,-0.0174561,-29722,-22547,18628,-9167,-28641
66983,-0.153125,0.430664,9.7665,2.77954,0.406494,-1.98303,-0.183105,0,-0.0610352,0.999542,0.0211792,0.00750732,-0.0174561,-29466,-22547,18116,-9167,-28641
66989,-0.162695,0.416309,9.81914,2.77954,0.406494,-1.98303,0,0.183105,0,0.999542,0.0211487,0.00750732,-0.0174561,-29466,-22547,17348,-9167,-28641
66995,-0.15791,0.421094,9.8,2.77954,0.406494,-1.98303,0,0.0610352,0,0.999542,0.0211487,0.00750732,-0.0174561,-30234,-23315,15044,-9167,-28641
67001,-0.14834,0.406738,9.8,2.78503,0.411987,-1.98303,0.183105,0.12207,-0.0610352,0.999542,0.0211487,0.00753784,-0.0174561,-30490,-23827,14276,-9167,-28641
67007,-0.14834,0.382812,9.78086,2.78503,0.411987,-1.98303,0.244141,0,0,0.999542,0.0211792,0.00753784,-0.0174561,-31002,-24083,13764,-9167,-28641
67013,-0.162695,0.416309,9.7665,2.78503,0.406494,-1.98303,0.183105,-0.0610352,0.0610352,0.999542,0.0211792,0.00753784,-0.0174561,-31514,-24083,13508,-9167,-28641
67019,-0.153125,0.382812,9.80957,2.78503,0.406494,-1.98303,0.0610352,-0.12207,0,0.999542,0.0211792,0.00753784,-0.0174561,-31770,-23827,14276,-9167,-28641
67025,-0.153125,0.421094,9.78086,2.78503,0.406494,-1.98303,0,-0.183105,0,0.999542,0.0211792,0.00750732,-0.0174561,-32026,-23827,15812,-9167,-28641
67031,-0.14834,0.406738,9.78564,2.78503,0.406494,-1.98303,-0.0610352,-0.12207,-0.183105,0.999542,0.0211792,0.00750732,-0.0174561,-31770,-23315,16580,-9167,-28641
67037,-0.143555,0.411523,9.79521,2.78503,0.406494,-1.98303,0,0.0610352,0.0610352,0.999542,0.0211792,0.00750732,-0.0174561,-31514,-23059,17092,-9167,-28641
67043,-0.162695,0.421094,9.79521,2.78503,0.406494,-1.98303,-0.12207,0.0610352,0,0.999542,0.0211792,0.00750732,-0.0174561,-31258,-22547,18116,-9167,-28641
67049,-0.15791,0.401953,9.82393,2.78503,0.406494,-1.98303,0.0610352,0.244141,0.0610352,0.999542,0.0211792,0.00750732,-0.0174561,-31002,-21779,18372,-9167,-28641
67055,-0.15791,0.411523,9.81436,2.78503,0.406494,-1.98303,0.0610352,-0.12207,0,0.999542,0.0211792,0.00750732,-0.0174561,-30490,-20499,18884,-9167,-28641
67061,-0.143555,0.406738,9.74736,2.78503,0.406494,-1.98303,0.183105,0,0.12207,0.999542,0.0211792,0.00750732,-0.0174561,-29978,-20243,19140,-9167,-28641
67067,-0.153125,0.406738,9.79521,2.78503,0.406494,-1.98303,0.0610352,-0.0610352,0,0.999542,0.0211792,0.00750732,-0.0174561,-29722,-19731,18884,-9167,-28641
67073,-0.162695,0.406738,9.8,2.78503,0.406494,-1.97754,-0.0610352,-0.244141,0.0610352,0.999542,0.0211792,0.00750732,-0.0174561,-29210,-19475,19140,-9167,-28641
67079,-0.14834,0.416309,9.77607,2.78503,0.406494,-1.98303,0,0,0,0.999542,0.0211792,0.00750732,-0.0174561,-28954,-19219,19140,-9167,-28641
67085,-0.14834,0.406738,9.77607,2.78503,0.406494,-1.98303,-0.244141,0,0,0.999542,0.0211792,0.00750732,-0.0174561,-29466,-18963,19652,-9167,-28641
67091,-0.153125,0.406738,9.77607,2.78503,0.406494,-1.98303,0,0.0610352,0,0.999542,0.0211792,0.00750732,-0.0174561,-29466,-19219,20420,-9167,-28641
67097,-0.153125,0.401953,9.80479,2.78503,0.406494,-1.98303,-0.0610352,0,0.0610352,0.999542,0.0211792,0.00750732,-0.0174561,-29466,-19475,20932,-9167,-28641
67103,-0.153125,0.406738,9.8,2.78503,0.406494,-1.98303,0,0.0610352,-0.0610352,0.999542,0.0211792,0.00750732,-0.0174561,-28698,-19475,21700,-9167,-28641
67109,-0.15791,0.416309,9.8,2.78503,0.406494,-1.98303,0.0610352,0,0,0.999542,0.0211792,0.00750732,-0.0174561,-28442,-19731,21956,-9167,-28641
67115,-0.162695,0.406738,9.76172,2.78503,0.406494,-1.98303,0.0610352,0,0,0.999542,0.0211792,0.00750732,-0.0174561,-27674,-19987,21444,-9167,-28641
67121,-0.13877,0.387598,9.80957,2.78503,0.406494,-1.98303,0,0,-0.0610352,0.999542,0.0211792,0.00750732,-0.0174561,-27418,-20243,21188,-9167,-28641
67127,-0.13877,0.411523,9.78086,2.78503,0.406494,-1.98303,0.0610352,-0.0610352,-0.12207,0.999542,0.0211792,0.00750732,-0.0174561,-27418,-21011,21444,-9167,-28641
67133,-0.13877,0.430664,9.79521,2.78503,0.406494,-1.98303,-0.0610352,-0.0610352,0,0.999542,0.0211792,0.00750732,-0.0174561,-27674,-21267,21444,-9167,-28641
67139,-0.129199,0.406738,9.80957,2.78503,0.406494,-1.98303,-0.0610352,0,0,0.999542,0.0211792,0.00750732,-0.0174866,-27930,-22035,21188,-9167,-28641
67145,-0.133984,0.411523,9.75215,2.78503,0.406494,-1.98303,0,0.0610352,-0.244141,0.999542,0.0211792,0.00750732,-0.0174866,-27418,-22803,20164,-9167,-28641
67151,-0.14834,0.387598,9.77607,2.78503,0.406494,-1.98303,0.12207,0,-0.0610352,0.999542,0.0211792,0.00750732,-0.0174866,-27162,-22547,19652,-9167,-28641
67157,-0.13877,0.421094,9.78564,2.78503,0.406494,-1.98303,0,0,0.0610352,0.999542,0.0211792,0.00750732,-0.0174866,-26906,-22291,18884,-9167,-28641
67163,-0.143555,0.406738,9.77129,2.78503,0.406494,-1.98303,0,0,-0.183105,0.999542,0.0211792,0.00750732,-0.0174866,-27162,-22035,18628,-9167,-28641
67169,-0.15791,0.406738,9.78086,2.78503,0.406494,-1.98303,0.0610352,-0.0610352,0,0.999542,0.0211792,0.00750732,-0.0174866,-27418,-21779,17860,-9167,-28641
67175,-0.143555,0.406738,9.78564,2.78503,0.406494,-1.98303,0.0610352,-0.183105,0.0610352,0.999542,0.0211792,0.00750732,-0.0174866,-27930,-21779,15812,-9167,-28641
67181,-0.162695,0.406738,9.77129,2.78503,0.406494,-1.98303,-0.0610352,0,0.0610352,0.999542,0.0211792,0.00747681,-0.0174866,-28186,-21523,15556,-9167,-28641
67187,-0.162695,0.421094,9.80957,2.78503,0.406494,-1.98303,0,0.0610352,-0.0610352,0.999542,0.0211792,0.00747681,-0.0174866,-28442,-21011,14788,-9167,-28641
67193,-0.172266,0.425879,9.79521,2.78503,0.406494,-1.98303,0.0610352,-0.12207,0,0.999542,0.0211792,0.00750732,-0.0174866,-28698,-19987,14788,-9167,-28641
67199,-0.162695,0.406738,9.81436,2.78503,0.406494,-1.98303,0,0,0.0610352,0.999542,0.0211792,0.00747681,-0.0174866,-28442,-19219,15044,-9167,-28641
67205,-0.14834,0.416309,9.78564,2.78503,0.406494,-1.98303,0.0610352,0,0.0610352,0.999542,0.0211792,0.00747681,-0.0174866,-28442,-18963,14276,-9167,-28641
67211,-0.162695,0.421094,9.78564,2.78503,0.406494,-1.98303,0.0610352,0,0,0.999542,0.0212097,0.00747681,-0.0174866,-28698,-19219,14276,-9167,-28641
67217,-0.162695,0.416309,9.79043,2.78503,0.406494,-1.98303,0.0610352,0,0,0.999542,0.0212097,0.00747681,-0.0174866,-29210,-19219,14276,-9167,-28641
67223,-0.129199,0.411523,9.78564,2.78503,0.406494,-1.98303,0.12207,0,0,0.999542,0.0212097,0.00747681,-0.0174866,-29978,-19219,14276,-9167,-28641
67229,-0.14834,0.416309,9.7665,2.79053,0.406494,-1.98303,0.0610352,-0.12207,-0.0610352,0.999542,0.0212097,0.00747681,-0.0174866,-30746,-19219,13508,-9167,-28641
67235,-0.14834,0.401953,9.79521,2.78503,0.406494,-1.98303,0,0,0,0.999542,0.0212097,0.00747681,-0.0174866,-32282,-18963,12484,-9167,-28641
67241,-0.162695,0.430664,9.78564,2.78503,0.406494,-1.98303,-0.12207,0,0,0.999542,0.0212097,0.00747681,-0.0174866,-32538,-19219,11716,-9167,-28641
67247,-0.14834,0.440234,9.80957,2.79053,0.406494,-1.98303,0.12207,-0.0610352,-0.0610352,0.999542,0.0212097,0.00747681,-0.0174866,32742,-19731,11204,-9167,-28641
67253,-0.143555,0.401953,9.79043,2.79053,0.406494,-1.98303,0,0,0.12207,0.999542,0.0212097,0.00747681,-0.0174866,-32538,-20499,10948,-9167,-28641
67259,-0.14834,0.411523,9.80479,2.79053,0.406494,-1.98303,0,0,0,0.999542,0.0212097,0.00747681,-0.0174866,-32538,-21523,10180,-9167,-28641
67265,-0.14834,0.411523,9.75693,2.79053,0.406494,-1.98303,0.12207,0,-0.244141,0.999542,0.0212097,0.00747681,-0.0174866,-32282,-22547,9156,-9167,-28641
67271,-0.15791,0.392383,9.79043,2.79053,0.406494,-1.98303,0,0,0,0.999542,0.0212097,0.00747681,-0.0174866,-32538,-22803,9156,-9167,-28641
67277,-0.14834,0.435449,9.77129,2.79053,0.406494,-1.98303,0,0.0610352,0,0.999542,0.0212097,0.00747681,-0.0174866,32742,-23315,9668,-9167,-28641
67283,-0.162695,0.425879,9.77607,2.79053,0.406494,-1.98303,0,-0.0610352,-0.0610352,0.999542,0.0212097,0.00747681,-0.0174866,32486,-23059,9924,-9167,-28641
67289,-0.133984,0.397168,9.8,2.79053,0.406494,-1.98303,0.0610352,0,-0.0610352,0.999542,0.0212097,0.00747681,-0.0174866,32230,-23571,10436,-9167,-28641
67295,-0.14834,0.401953,9.77607,2.79053,0.406494,-1.98303,0.244141,0.0610352,0.0610352,0.999542,0.0212097,0.00747681,-0.0174866,32742,-24595,11204,-9167,-28641
67301,-0.153125,0.421094,9.78564,2.79053,0.406494,-1.98303,-0.12207,0,0,0.999542,0.0212402,0.00747681,-0.0174866,-31770,-25107,11460,-9167,-28641
67307,-0.14834,0.406738,9.78564,2.79053,0.406494,-1.98303,-0.0610352,0,0.0610352,0.999542,0.0212097,0.00747681,-0.0174866,-31002,-24851,12996,-9167,-28641
67313,-0.143555,0.425879,9.79521,2.79053,0.406494,-1.98303,-0.0610352,0,0.0610352,0.999542,0.0212097,0.00747681,-0.0174866,-30234,-24595,14020,-9167,-28641
67319,-0.133984,0.392383,9.83828,2.79053,0.406494,-1.98303,0.0610352,0.0610352,-0.0610352,0.999542,0.0212402,0.00747681,-0.0174866,-30234,-24339,14276,-9167,-28641
67325,-0.162695,0.401953,9.79521,2.79053,0.401001,-1.98303,0.0610352,-0.183105,0,0.999542,0.0212402,0.00747681,-0.0174866,-31258,-23571,12740,-9167,-28641
67331,-0.14834,0.406738,9.77129,2.79053,0.401001,-1.98303,-0.0610352,-0.12207,0,0.999542,0.0212402,0.00747681,-0.0174866,-31514,-23571,11716,-9167,-28641
67337,-0.172266,0.411523,9.77607,2.79053,0.401001,-1.98303,0,-0.0610352,0,0.999542,0.0212402,0.00747681,-0.0174866,-31258,-23315,11204,-9167,-28641
67343,-0.15791,0.397168,9.81436,2.79053,0.401001,-1.98303,0,0.0610352,0,0.999542,0.0212402,0.00747681,-0.0174866,-31002,-23571,10436,-9167,-28641
67349,-0.177051,0.392383,9.80957,2.79053,0.401001,-1.98303,0,0.0610352,0,0.999542,0.0212402,0.00747681,-0.0174866,-30490,-23827,9924,-9167,-28641
67355,-0.162695,0.411523,9.78086,2.79053,0.401001,-1.98303,0.0610352,0,0,0.999542,0.0212402,0.00747681,-0.0174866,-29722,-24339,8388,-9167,-28641
67361,-0.16748,0.421094,9.78086,2.79053,0.406494,-1.98303,-0.0610352,0.183105,0,0.999542,0.0212402,0.00747681,-0.0174866,-29722,-23571,7876,-9167,-28641
67367,-0.13877,0.401953,9.78086,2.79053,0.406494,-1.98303,0.0610352,0,0,0.999542,0.0212402,0.00747681,-0.0174866,-29978,-23059,8388,-9167,-28641
67373,-0.162695,0.401953,9.78086,2.79053,0.406494,-1.98303,0,0,0,0.999542,0.0212402,0.00747681,-0.0174866,-30234,-22547,9412,-9167,-28641
67379,-0.129199,0.406738,9.79043,2.79053,0.406494,-1.98303,0,0,0,0.999542,0.0212402,0.00747681,-0.0174866,-31002,-21779,11204,-9167,-28641
67385,-0.16748,0.411523,9.80479,2.79053,0.406494,-1.98303,-0.0610352,-0.0610352,0,0.999542,0.0212402,0.00747681,-0.0174866,-31514,-21267,11972,-9167,-28641
67391,-0.133984,0.421094,9.81436,2.79053,0.406494,-1.98303,-0.0610352,0,0,0.999542,0.0212402,0.00747681,-0.0174866,-32026,-21267,12996,-9167,-28641
67397,-0.14834,0.397168,9.80479,2.79053,0.406494,-1.98303,0.0610352,0,0,0.999542,0.0212402,0.00747681,-0.0174866,32742,-21267,12996,-9167,-28641
67403,-0.177051,0.411523,9.8,2.79053,0.406494,-1.98303,0,0,0,0.999542,0.0212402,0.00747681,-0.0174866,32230,-21523,14020,-9167,-28641
67409,-0.143555,0.397168,9.76172,2.79053,0.406494,-1.98303,0.0610352,0,0,0.999542,0.0212402,0.00747681,-0.0174866,31974,-22291,13252,-9167,-28641
67415,-0.14834,0.416309,9.78086,2.79053,0.406494,-1.98303,0,-0.0610352,0,0.999542,0.0212402,0.00747681,-0.0174866,32230,-22547,12996,-9167,-28641
67421,-0.13877,0.406738,9.80479,2.79053,0.406494,-1.98303,0.12207,0.0610352,0,0.999542,0.0212402,0.00747681,-0.0174866,32230,-22803,12484,-9167,-28641
67427,-0.162695,0.425879,9.79521,2.79053,0.406494,-1.98303,0,-0.183105,0,0.999542,0.0212402,0.00747681,-0.0174866,-32538,-23059,11972,-9167,-28641
67433,-0.162695,0.411523,9.75693,2.79053,0.406494,-1.98303,0.0610352,0.0610352,0,0.999542,0.0212402,0.00747681,-0.0174866,-32282,-23059,11716,-9167,-28641
67439,-0.162695,0.406738,9.78564,2.79053,0.406494,-1.98303,0,0,0,0.999542,0.0212402,0.00747681,-0.0174866,-31514,-23059,12484,-9167,-28641
67445,-0.13877,0.421094,9.80957,2.79053,0.406494,-1.98303,0,0.0610352,0,0.999542,0.0212402,0.00747681,-0.0174866,-31514,-22803,12740,-9167,-28641
67451,-0.172266,0.397168,9.77607,2.79053,0.406494,-1.98303,-0.0610352,0.0610352,0,0.999542,0.0212402,0.00747681,-0.0174866,-31514,-22803,12996,-9167,-28641
67457,-0.13877,0.411523,9.81436,2.79053,0.406494,-1.98303,0,0,0,0.999542,0.0212402,0.00747681,-0.0174866,-31514,-23059,12996,-9167,-28641
67463,-0.162695,0.406738,9.8,2.79053,0.406494,-1.98303,0,-0.0610352,0,0.999542,0.0212402,0.00747681,-0.0174866,-31770,-22803,12996,-9167,-28641
67469,-0.14834,0.397168,9.77607,2.79053,0.406494,-1.98303,0.0610352,-0.0610352,0,0.999542,0.0212402,0.00747681,-0.0174866,-32282,-22803,13764,-9167,-28641
67475,-0.143555,0.401953,9.79521,2.79053,0.406494,-1.98303,-0.12207,0,0,0.999542,0.0212402,0.00747681,-0.0174866,-32282,-22803,14532,-9167,-28641
67481,-0.162695,0.425879,9.80479,2.79053,0.406494,-1.98303,0,-0.183105,0,0.999542,0.0212402,0.00747681,-0.0174866,-32538,-23059,16580,-9167,-28641
67487,-0.143555,0.430664,9.75693,2.79053,0.406494,-1.98303,0.0610352,0,0,0.999542,0.0212402,0.00747681,-0.0174866,-32538,-23315,18372,-9167,-28641
67493,-0.153125,0.425879,9.78564,2.79053,0.406494,-1.98303,0,0,0,0.999542,0.0212402,0.00747681,-0.0174866,-32282,-23827,20164,-9167,-28641
67499,-0.124414,0.397168,9.80479,2.79053,0.406494,-1.98303,-0.0610352,0.0610352,0,0.999542,0.0212402,0.00747681,-0.0174866,-32538,-24083,22468,-9167,-28641
67505,-0.162695,0.411523,9.78564,2.79053,0.406494,-1.98303,0.0610352,0,0,0.999542,0.0212402,0.00747681,-0.0174866,-32538,-24083,22468,-9167,-28641
67511,-0.14834,0.421094,9.79043,2.79053,0.406494,-1.98303,0,-0.0610352,0,0.999542,0.0212402,0.00747681,-0.0174866,32486,-24083,22212,-9167,-28641
67517,-0.172266,0.425879,9.79043,2.79053,0.406494,-1.98303,0,0.0610352,0,0.999542,0.0212402,0.00747681,-0.0174866,31974,-24083,21956,-9167,-28641
67523,-0.14834,0.406738,9.79043,2.79053,0.406494,-1.98303,0.0610352,0.0610352,0,0.999542,0.0212402,0.00747681,-0.0174866,31718,-23827,21700,-9167,-28641
67529,-0.15791,0.430664,9.78564,2.79053,0.406494,-1.98303,0,-0.0610352,0,0.999542,0.0212402,0.00747681,-0.0174866,31718,-23059,20676,-9167,-28641
67535,-0.14834,0.411523,9.80957,2.79053,0.406494,-1.98303,0,0,0,0.999542,0.0212402,0.00747681,-0.0174866,31718,-23059,20164,-9167,-28641
67541,-0.162695,0.411523,9.79043,2.79053,0.406494,-1.98303,-0.0610352,0,0,0.999542,0.0212402,0.00747681,-0.0174866,31974,-23315,18884,-9167,-28641
67547,-0.16748,0.425879,9.79043,2.79053,0.406494,-1.98303,0,0,0,0.999542,0.0212402,0.00747681,-0.0174866,31974,-23315,18884,-9167,-28641
67553,-0.16748,0.392383,9.79521,2.79053,0.406494,-1.98303,0,0,0,0.999542,0.0212402,0.00747681,-0.0174866,31974,-22803,18628,-9167,-28641
67559,-0.15791,0.421094,9.78086,2.79053,0.406494,-1.98303,0,0,0,0.999542,0.0212402,0.00747681,-0.0174866,31718,-22291,17604,-9167,-28641
67565,-0.162695,0.397168,9.80957,2.79053,0.406494,-1.98303,0,0,0,0.999542,0.0212402,0.00747681,-0.0174866,31718,-21779,17860,-9167,-28641
67571,-0.15791,0.411523,9.75215,2.79053,0.406494,-1.98303,0.12207,0,0,0.999542,0.0212402,0.00747681,-0.0174866,31462,-21779,18116,-9167,-28641
67577,-0.124414,0.406738,9.78086,2.79053,0.406494,-1.98303,0,0,0,0.999542,0.0212402,0.00747681,-0.0174866,31718,-22291,18116,-9167,-28641
67583,-0.143555,0.401953,9.78086,2.79053,0.406494,-1.98303,0.0610352,0,0,0.999542,0.0212402,0.00747681,-0.0174866,32230,-22547,18628,-9167,-28641
67589,-0.162695,0.435449,9.77607,2.79053,0.406494,-1.98303,0,0,0,0.999542,0.0212402,0.00747681,-0.0174866,32486,-23059,17092,-9167,-28641
67595,-0.177051,0.421094,9.78564,2.79053,0.406494,-1.98303,0.0610352,0,0,0.999542,0.0212402,0.00747681,-0.0174866,32486,-22803,15556,-9167,-28641
67601,-0.13877,0.401953,9.79521,2.79053,0.406494,-1.98303,-0.0610352,0.0610352,0,0.999542,0.0212402,0.00747681,-0.0174866,31974,-22803,14788,-9167,-28641
67607,-0.13877,0.387598,9.79043,2.79053,0.406494,-1.98303,0.0610352,0,0,0.999542,0.0212402,0.00747681,-0.0174866,31462,-23059,14020,-9167,-28641
67613,-0.162695,0.425879,9.79521,2.79053,0.406494,-1.98303,0,0.0610352,0,0.999542,0.0212402,0.00747681,-0.0174866,30694,-23571,12996,-9167,-28641
67619,-0.186621,0.421094,9.78086,2.79053,0.406494,-1.98303,0.0610352,0,0,0.999542,0.0212402,0.00747681,-0.0174866,30182,-25107,12740,-9167,-28641
67625,-0.129199,0.411523,9.77129,2.79053,0.406494,-1.98303,-0.0610352,0,0,0.999542,0.0212402,0.00747681,-0.0174866,29926,-24851,12996,-9167,-28641
67631,-0.13877,0.406738,9.78564,2.79053,0.406494,-1.98303,0,-0.0610352,0,0.999542,0.0212402,0.00747681,-0.0174866,30182,-25107,13508,-9167,-28641
67637,-0.16748,0.411523,9.77129,2.79053,0.406494,-1.98303,0,0,0,0.999542,0.0212402,0.00747681,-0.0174866,30438,-25107,13508,-9167,-28641
67643,-0.15791,0.416309,9.80479,2.79053,0.401001,-1.98303,0,-0.0610352,0,0.999542,0.0212402,0.00747681,-0.0174866,30438,-25107,13508,-9167,-28641
67649,-0.15791,0.411523,9.77607,2.79053,0.406494,-1.98303,0,0.0610352,0,0.999542,0.0212402,0.00747681,-0.0174866,30950,-24851,13508,-9167,-28641
67655,-0.143555,0.416309,9.8,2.79053,0.401001,-1.98303,0,-0.12207,0,0.999542,0.0212402,0.00747681,-0.0174866,30694,-24851,13764,-9167,-28641
67661,-0.16748,0.421094,9.81436,2.79053,0.401001,-1.98303,0,0,0,0.999542,0.0212402,0.00747681,-0.0174866,30694,-24851,14532,-9167,-28641
67667,-0.153125,0.401953,9.76172,2.79053,0.401001,-1.98303,0,0,0,0.999542,0.0212402,0.00747681,-0.0174866,30694,-24851,15044,-9167,-28641
67673,-0.162695,0.392383,9.77607,2.79053,0.401001,-1.98303,0,0,0,0.999542,0.0212402,0.00747681,-0.0174866,30950,-24595,16068,-9167,-28641
67679,-0.16748,0.406738,9.78564,2.79053,0.401001,-1.98303,0,0,0,0.999542,0.0212402,0.00747681,-0.0174866,31718,-23827,16580,-9167,-28641
67685,-0.15791,0.411523,9.81436,2.79053,0.406494,-1.98303,0.0610352,0,0,0.999542,0.0212402,0.00747681,-0.0174866,32230,-23059,16580,-9167,-28641
67691,-0.15791,0.406738,9.77607,2.79053,0.406494,-1.98303,0.12207,0,0,0.999542,0.0212402,0.00747681,-0.0174866,32742,-22803,16324,-9167,-28641
67697,-0.15791,0.435449,9.78086,2.79053,0.406494,-1.98303,0.0610352,0,0,0.999542,0.0212402,0.00747681,-0.0174866,-32538,-23059,16324,-9167,-28641
67703,-0.13877,0.425879,9.78086,2.79053,0.406494,-1.98303,0.0610352,0,0,0.999542,0.0212402,0.00747681,-0.0174866,-32026,-23571,16324,-9167,-28641
67709,-0.143555,0.406738,9.77607,2.79053,0.406494,-1.98303,-0.0610352,0.0610352,0,0.999542,0.0212402,0.00747681,-0.0174866,-31770,-24339,17348,-9167,-28641
67715,-0.16748,0.411523,9.79043,2.79053,0.406494,-1.98303,0,0,0,0.999542,0.0212402,0.00747681,-0.0174866,-32026,-24595,17348,-9167,-28641
67721,-0.153125,0.406738,9.78564,2.79053,0.406494,-1.98303,0.0610352,0,0,0.999542,0.0212402,0.00747681,-0.0174866,-32026,-24851,17092,-9167,-28641
67727,-0.15791,0.387598,9.79521,2.79602,0.406494,-1.98303,0.0610352,0,0,0.999542,0.0212402,0.00747681,-0.0174866,-32282,-25107,15812,-9167,-28641
67733,-0.133984,0.401953,9.80479,2.79602,0.406494,-1.98303,0.0610352,0,0,0.999542,0.0212708,0.00747681,-0.0174866,-32282,-24851,14788,-9167,-28641
67739,-0.13877,0.421094,9.77129,2.79053,0.406494,-1.98303,-0.12207,0.0610352,0,0.999542,0.0212708,0.00747681,-0.0174866,-31770,-23827,13508,-9167,-28641
67745,-0.15791,0.411523,9.79043,2.79053,0.406494,-1.98303,0.0610352,0,0,0.999542,0.0212402,0.00747681,-0.0174866,-31258,-23571,12740,-9167,-28641
67751,-0.13877,0.401953,9.77607,2.79053,0.406494,-1.98303,0,0,0,0.999542,0.0212402,0.00747681,-0.0174866,-30746,-23315,11972,-9167,-28641
67757,-0.162695,0.411523,9.79043,2.79602,0.406494,-1.98303,0.0610352,0,0,0.999542,0.0212402,0.00747681,-0.0174866,-30490,-23315,10692,-9167,-28641
67763,-0.162695,0.397168,9.79521,2.79602,0.406494,-1.98303,0,0.0610352,0,0.999542,0.0212708,0.00750732,-0.0174866,-30746,-23571,9924,-9167,-28641
67769,-0.162695,0.421094,9.76172,2.79602,0.406494,-1.98303,0,0,0,0.999542,0.0212708,0.00750732,-0.0174866,-31514,-22803,10180,-9167,-28641
67775,-0.14834,0.392383,9.8,2.79053,0.406494,-1.98303,-0.0610352,0,0,0.999542,0.0212708,0.00750732,-0.0174866,-31770,-22547,10692,-9167,-28641
67781,-0.162695,0.411523,9.79043,2.79602,0.406494,-1.98303,0.12207,0,0,0.999542,0.0212402,0.00750732,-0.0174866,-31770,-22291,11972,-9167,-28641
67787,-0.114844,0.397168,9.79043,2.79602,0.406494,-1.98303,0,0,0,0.999542,0.0212708,0.00750732,-0.0174866,-32026,-22291,12484,-9167,-28641
67793,-0.162695,0.401953,9.78564,2.79602,0.406494,-1.98303,0,0,0,0.999542,0.0212708,0.00750732,-0.0174866,-32026,-22547,13764,-9167,-28641
67799,-0.162695,0.387598,9.79043,2.79602,0.406494,-1.98303,0.0610352,0,0,0.999542,0.0212708,0.00750732,-0.0174866,-31770,-22291,13764,-9167,-28641
67805,-0.14834,0.421094,9.78564,2.79602,0.406494,-1.98303,0.12207,0.0610352,0,0.999542,0.0212708,0.00750732,-0.0174866,-31770,-22291,13252,-9167,-28641
67811,-0.162695,0.406738,9.80957,2.79602,0.406494,-1.98303,0,0,0,0.999542,0.0212708,0.00750732,-0.0174866,-32026,-22035,12996,-9167,-28641
67817,-0.13877,0.401953,9.79043,2.79602,0.406494,-1.98303,0,-0.0610352,0,0.999542,0.0212708,0.00750732,-0.0174866,-32282,-22547,12996,-9167,-28641
67823,-0.124414,0.421094,9.79521,2.79602,0.406494,-1.98303,0,0,0,0.999542,0.0212708,0.00750732,-0.0174866,-32282,-23059,13508,-9167,-28641
67829,-0.172266,0.392383,9.79521,2.79602,0.406494,-1.98303,0.12207,0,0,0.999542,0.0212708,0.00750732,-0.0174866,-32282,-23571,15556,-9167,-28641
67835,-0.110059,0.387598,9.80957,2.79602,0.406494,-1.98303,0.0610352,0.0610352,0,0.999542,0.0212708,0.00750732,-0.0174866,-32538,-23571,16068,-9167,-28641
67841,-0.153125,0.435449,9.77607,2.79602,0.406494,-1.98303,0.0610352,0.0610352,0,0.999542,0.0212708,0.00750732,-0.0174866,32742,-23315,16580,-9167,-28641
67847,-0.143555,0.401953,9.7665,2.79602,0.406494,-1.98303,0,0,0,0.999542,0.0212708,0.00750732,-0.0174866,-32538,-22547,17348,-9167,-28641
67853,-0.14834,0.397168,9.79521,2.79602,0.406494,-1.98303,0.0610352,0.0610352,0,0.999542,0.0212708,0.00750732,-0.0174866,-32282,-22291,18116,-9167,-28641
67859,-0.14834,0.430664,9.79521,2.79602,0.406494,-1.98303,0,0.0610352,0,0.999542,0.0212708,0.00750732,-0.0174866,-32026,-22291,18628,-9167,-28641
67865,-0.15791,0.397168,9.78564,2.79602,0.406494,-1.98303,0,-0.12207,0,0.999542,0.0212708,0.00750732,-0.0174866,-31770,-22547,18116,-9167,-28641
67871,-0.14834,0.401953,9.77607,2.79602,0.406494,-1.98303,0.0610352,0,0,0.999542,0.0212708,0.00750732,-0.0174866,-31770,-22803,16836,-9167,-28641
67877,-0.14834,0.416309,9.80957,2.79602,0.406494,-1.98303,0.0610352,0.0610352,0,0.999542,0.0212708,0.00750732,-0.0174866,-31770,-22803,15300,-9167,-28641
67883,-0.15791,0.406738,9.79521,2.79602,0.406494,-1.98303,0.0610352,0,0,0.999542,0.0212708,0.00750732,-0.0174866,-31770,-22547,14532,-9167,-28641
67889,-0.162695,0.406738,9.8,2.79602,0.406494,-1.98303,0.0610352,0,0,0.999542,0.0212708,0.00750732,-0.0174866,-30746,-22547,13764,-9167,-28641
67895,-0.14834,0.392383,9.78564,2.79602,0.406494,-1.98303,0,-0.0610352,0,0.999542,0.0212708,0.00750732,-0.0174866,-30234,-22547,14532,-9167,-28641
67901,-0.15791,0.430664,9.76172,2.79602,0.406494,-1.98303,0,0,0,0.999542,0.0212708,0.00750732,-0.0174866,-29978,-23059,14788,-9167,-28641
67907,-0.14834,0.401953,9.79043,2.79602,0.406494,-1.98303,0,0,0,0.999542,0.0212708,0.00750732,-0.0174866,-29978,-23315,14788,-9167,-28641
67913,-0.15791,0.397168,9.78086,2.79602,0.406494,-1.98303,0.0610352,0.0610352,0,0.999542,0.0212708,0.00750732,-0.0174866,-29722,-23571,15044,-9167,-28641
67919,-0.153125,0.416309,9.79043,2.79602,0.406494,-1.98303,0,0,0,0.999542,0.0212708,0.00750732,-0.0174866,-31514,-24851,14276,-9167,-28641
67925,-0.14834,0.411523,9.79043,2.79602,0.406494,-1.98303,-0.0610352,0.0610352,0,0.999542,0.0212708,0.00750732,-0.0174866,-32282,-25363,14532,-9167,-28641
67931,-0.14834,0.401953,9.8,2.79602,0.406494,-1.98303,0,-0.0610352,0,0.999542,0.0212708,0.00750732,-0.0174866,32742,-25875,14532,-9167,-28641
67937,-0.14834,0.401953,9.8,2.79602,0.406494,-1.98303,0,0,0,0.999542,0.0212708,0.00750732,-0.0174866,31974,-26131,14532,-9167,-28641
67943,-0.129199,0.411523,9.79521,2.79602,0.406494,-1.98303,0.0610352,-0.0610352,0,0.999542,0.0212708,0.00750732,-0.0174866,31462,-26131,14532,-9167,-28641
67949,-0.15791,0.392383,9.79521,2.79602,0.406494,-1.98303,0,0,0,0.999542,0.0212708,0.00750732,-0.0174866,30950,-25363,13508,-9167,-28641
67955,-0.162695,0.406738,9.79043,2.79602,0.406494,-1.98303,0,0,0,0.999542,0.0212708,0.00750732,-0.0174866,31206,-25107,12996,-9167,-28641
67961,-0.14834,0.406738,9.79521,2.79602,0.406494,-1.98303,0,0,0,0.999542,0.0212708,0.00750732,-0.0174866,31462,-25107,12740,-9167,-28641
67967,-0.143555,0.411523,9.78086,2.79602,0.406494,-1.98303,0,0,0,0.999542,0.0212708,0.00750732,-0.0174866,31974,-24851,12740,-9167,-28641
67973,-0.16748,0.406738,9.77129,2.79602,0.406494,-1.98303,0,0,0,0.999542,0.0212708,0.00750732,-0.0174866,32486,-25107,12228,-9167,-28641
67979,-0.143555,0.392383,9.79043,2.79602,0.406494,-1.98303,0,0,0,0.999542,0.0212708,0.00750732,-0.0174866,-32026,-24851,14020,-9167,-28641
67985,-0.13877,0.421094,9.77129,2.79602,0.406494,-1.98303,0,0,0,0.999542,0.0212708,0.00750732,-0.0174866,-31770,-24595,15300,-9167,-28641
67991,-0.14834,0.411523,9.80479,2.79602,0.406494,-1.98303,0,0,0,0.999542,0.0212708,0.00750732,-0.0174866,-31770,-24083,16580,-9167,-28641
67997,-0.13877,0.416309,9.78564,2.79602,0.406494,-1.98303,0,0,0,0.999542,0.0212708,0.00750732,-0.0174866,-31770,-23571,17860,-9167,-28641
68003,-0.177051,0.406738,9.79521,2.79602,0.406494,-1.98303,0,0,0,0.999542,0.0212708,0.00750732,-0.0174866,-32026,-23059,17604,-9167,-28641
68009,-0.172266,0.406738,9.7665,2.79602,0.406494,-1.98303,0,0,0,0.999542,0.0212708,0.00750732,-0.0174866,-31258,-22803,17348,-9167,-28641
68015,-0.143555,0.401953,9.77607,2.79053,0.406494,-1.98303,0,0,0,0.999542,0.0212708,0.00750732,-0.0174866,-31258,-22547,17604,-9167,-28641
68021,-0.133984,0.392383,9.79043,2.79053,0.406494,-1.98303,0,0,0,0.999542,0.0212402,0.00750732,-0.0174866,-31258,-22035,17860,-9167,-28641
68027,-0.13877,0.397168,9.79521,2.79053,0.406494,-1.98303,0,0,0,0.999542,0.0212402,0.00750732,-0.0174866,-31258,-21523,17860,-9167,-28641
68033,-0.143555,0.397168,9.79043,2.79053,0.406494,-1.98303,0,0,0,0.999542,0.0212402,0.00750732,-0.0174866,-31258,-21267,17860,-9167,-28641
68039,-0.14834,0.397168,9.79043,2.79053,0.406494,-1.98303,0,0,0,0.999542,0.0212402,0.00750732,-0.0174866,-31258,-20755,17604,-9167,-28641
68045,-0.153125,0.411523,9.8,2.79053,0.406494,-1.98303,0,0,0,0.999542,0.0212402,0.00750732,-0.0174866,-30490,-20499,18116,-9167,-28641
68051,-0.16748,0.401953,9.80479,2.79053,0.406494,-1.98303,0,0,0,0.999542,0.0212402,0.00750732,-0.0174866,-29466,-21267,18372,-9167,-28641
68057,-0.153125,0.406738,9.78564,2.79053,0.406494,-1.98303,0,0,0,0.999542,0.0212402,0.00750732,-0.0174866,-28698,-21779,18628,-9167,-28641
68063,-0.14834,0.401953,9.78564,2.79053,0.406494,-1.98303,0,0,0,0.999542,0.0212402,0.00750732,-0.0174866,-28186,-21779,18372,-9167,-28641
68069,-0.15791,0.406738,9.79043,2.79053,0.406494,-1.98303,0,0,0,0.999542,0.0212402,0.00750732,-0.0174866,-29210,-21779,18884,-9167,-28641
68075,-0.14834,0.421094,9.79043,2.79053,0.406494,-1.98303,0,0,0,0.999542,0.0212402,0.00750732,-0.0174866,-29978,-21523,18884,-9167,-28641
68081,-0.143555,0.392383,9.80957,2.79053,0.406494,-1.98303,0,0,0,0.999542,0.0212402,0.00747681,-0.0174866,-30234,-21011,18372,-9167,-28641
68087,-0.162695,0.392383,9.79043,2.79053,0.406494,-1.98303,0,0,0,0.999542,0.0212402,0.00747681,-0.0174866,-30746,-20499,17604,-9167,-28641
68093,-0.177051,0.397168,9.77607,2.79053,0.406494,-1.98303,0,0,0,0.999542,0.0212402,0.00747681,-0.0174866,-31002,-19987,16580,-9167,-28641
68099,-0.15791,0.401953,9.79043,2.79053,0.406494,-1.98303,0,0,0,0.999542,0.0212402,0.00747681,-0.0174866,-31770,-19731,13764,-9167,-28641
68105,-0.13877,0.411523,9.77607,2.79053,0.406494,-1.98303,0,0,0,0.999542,0.0212402,0.00747681,-0.0174866,-32282,-19475,12740,-9167,-28641
68111,-0.14834,0.416309,9.79043,2.79053,0.406494,-1.98303,0,0,0,0.999542,0.0212402,0.00747681,-0.0174866,-32538,-19219,11972,-9167,-28641
68117,-0.14834,0.416309,9.80957,2.79053,0.406494,-1.98303,0,0,0,0.999542,0.0212402,0.00750732,-0.0174866,-32538,-19219,12228,-9167,-28641
68123,-0.129199,0.406738,9.78086,2.79053,0.406494,-1.98303,0,0,0,0.999542,0.0212402,0.00750732,-0.0174866,-32538,-19219,12996,-9167,-28641
68129,-0.162695,0.406738,9.78086,2.79053,0.406494,-1.98303,0,0,0,0.999542,0.0212402,0.00750732,-0.0174866,32486,-18963,13764,-9167,-28641
68135,-0.162695,0.401953,9.81436,2.79053,0.406494,-1.98303,0,0,0,0.999542,0.0212402,0.00750732,-0.0174866,32230,-18451,14276,-9167,-28641
68141,-0.143555,0.421094,9.80957,2.79053,0.406494,-1.98303,0,0,0,0.999542,0.0212402,0.00750732,-0.0174866,31974,-18195,15044,-9167,-28641
68147,-0.15791,0.401953,9.77607,2.79053,0.406494,-1.98303,0,0,0,0.999542,0.0212402,0.00750732,-0.0174866,31462,-18451,15556,-9167,-28641
68153,-0.16748,0.401953,9.78086,2.79053,0.406494,-1.98303,0,0,0,0.999542,0.0212402,0.00750732,-0.0174866,31974,-19219,16324,-9167,-28641
68159,-0.16748,0.406738,9.79043,2.79053,0.406494,-1.98303,0,0,0,0.999542,0.0212402,0.00750732,-0.0174866,32742,-21011,17604,-9167,-28641
68165,-0.172266,0.392383,9.80957,2.79053,0.406494,-1.98303,0,0,0,0.999542,0.0212402,0.00750732,-0.0174866,-32026,-21523,18116,-9167,-28641
68171,-0.14834,0.430664,9.78564,2.79053,0.406494,-1.98303,0,0,0,0.999542,0.0212402,0.00750732,-0.0174866,-31514,-22291,18372,-9167,-28641
68177,-0.153125,0.416309,9.8,2.79053,0.406494,-1.98303,0,0,0,0.999542,0.0212402,0.00750732,-0.0174866,-30746,-22547,17860,-9167,-28641
68183,-0.172266,0.416309,9.77607,2.79053,0.406494,-1.98303,0,0,0,0.999542,0.0212402,0.00750732,-0.0174866,-30234,-23315,16836,-9167,-28641
68189,-0.143555,0.401953,9.77607,2.79053,0.406494,-1.98303,0,0,0,0.999542,0.0212402,0.00750732,-0.0174866,-29210,-24595,15812,-9167,-28641
68195,-0.181836,0.411523,9.80479,2.79053,0.406494,-1.98303,0,0,0,0.999542,0.0212402,0.00750732,-0.0174866,-28954,-25363,16068,-9167,-28641
68201,-0.14834,0.421094,9.78086,2.79053,0.406494,-1.98303,0,0,0,0.999542,0.0212402,0.00750732,-0.0174866,-29466,-25619,15812,-9167,-28641
68207,-0.14834,0.416309,9.77129,2.79053,0.406494,-1.98303,0,0,0,0.999542,0.0212402,0.00750732,-0.0174866,-29978,-25875,14532,-9167,-28641
68213,-0.177051,0.411523,9.78086,2.79053,0.406494,-1.98303,0,0,0,0.999542,0.0212402,0.00750732,-0.0174866,-30490,-26131,14020,-9167,-28641
68219,-0.162695,0.406738,9.79521,2.79053,0.406494,-1.98303,0,0,0,0.999542,0.0212402,0.00750732,-0.0174866,-31514,-25363,13252,-9167,-28641
68225,-0.16748,0.387598,9.77129,2.79053,0.406494,-1.98303,0,0,0,0.999542,0.0212402,0.00750732,-0.0174866,-32282,-25107,13508,-9167,-28641
68231,-0.15791,0.425879,9.77129,2.79053,0.406494,-1.98303,0,0,0,0.999542,0.0212402,0.00750732,-0.0174866,-32538,-24851,14532,-9167,-28641
68237,-0.16748,0.397168,9.78086,2.79053,0.406494,-1.98303,0,0,0,0.999542,0.0212097,0.00750732,-0.0174866,32742,-24339,16068,-9167,-28641
68243,-0.13877,0.416309,9.77607,2.79053,0.406494,-1.98303,0,0,0,0.999542,0.0212097,0.00750732,-0.0174866,32230,-23827,17604,-9167,-28641
68249,-0.177051,0.387598,9.8,2.79053,0.406494,-1.98303,0,0,0,0.999542,0.0212097,0.00750732,-0.0174866,32230,-22803,19396,-9167,-28641
68255,-0.143555,0.392383,9.80479,2.79053,0.406494,-1.98303,0,0,0,0.999542,0.0212097,0.00750732,-0.0174866,32230,-22291,18884,-9167,-28641
68261,-0.153125,0.416309,9.76172,2.79053,0.406494,-1.98303,0,0,0,0.999542,0.0212097,0.00750732,-0.0174866,32486,-21523,18628,-9167,-28641
68267,-0.162695,0.392383,9.77607,2.79053,0.406494,-1.98303,0,0,0,0.999542,0.0212097,0.00750732,-0.0174866,32742,-21011,18372,-9167,-28641
68273,-0.153125,0.411523,9.78086,2.79053,0.406494,-1.98303,0,0,0,0.999542,0.0212097,0.00750732,-0.0174866,32742,-20243,17860,-9167,-28641
68279,-0.143555,0.411523,9.79043,2.79053,0.406494,-1.98303,0,0,0,0.999542,0.0212097,0.00750732,-0.0174866,32742,-19731,16580,-9167,-28641
68285,-0.15791,0.397168,9.80957,2.79053,0.406494,-1.98303,0,0,0,0.999542,0.0212097,0.00750732,-0.0174866,-32282,-19987,15044,-9167,-28641
68291,-0.14834,0.406738,9.78086,2.79053,0.406494,-1.98303,0,0,0,0.999542,0.0212097,0.00750732,-0.0174866,-32282,-20243,13508,-9167,-28641
68297,-0.15791,0.387598,9.80479,2.79053,0.406494,-1.98303,0,0,0,0.999542,0.0212097,0.00750732,-0.0174866,-32026,-20243,11716,-9167,-28641
68303,-0.162695,0.411523,9.78564,2.79053,0.406494,-1.98303,0,0,0,0.999542,0.0212097,0.00750732,-0.0174866,-31258,-20243,10948,-9167,-28641
68309,-0.133984,0.406738,9.79521,2.79053,0.406494,-1.98303,0,0,0,0.999542,0.0212097,0.00750732,-0.0174866,-29978,-20755,10180,-9167,-28641
68315,-0.14834,0.387598,9.77607,2.79053,0.406494,-1.98303,0,0,0,0.999542,0.0212097,0.00750732,-0.0174866,-29466,-21267,9668,-9167,-28641
68321,-0.129199,0.411523,9.78086,2.79053,0.406494,-1.98303,0,0,0,0.999542,0.0212097,0.00750732,-0.0174866,-29466,-21779,8388,-9167,-28641
68327,-0.13877,0.401953,9.77607,2.79053,0.406494,-1.98303,0,0,0,0.999542,0.0212097,0.00750732,-0.0174866,-29722,-21523,7364,-9167,-28641
68333,-0.14834,0.44502,9.80479,2.79053,0.406494,-1.98303,0,0,0,0.999542,0.0212097,0.00750732,-0.0174866,-30234,-21523,6340,-9167,-28641
68339,-0.14834,0.382812,9.77129,2.79053,0.406494,-1.98303,0,0,0,0.999542,0.0212097,0.00750732,-0.0174866,-30746,-21523,5572,-9167,-28641
68345,-0.172266,0.430664,9.88613,2.79053,0.406494,-1.98303,0,0,0,0.999542,0.0212097,0.00750732,-0.0174866,-30490,-21267,5572,-9167,-28641
68351,-0.133984,0.416309,9.77607,2.79053,0.406494,-1.98303,0,0,0,0.999542,0.0212097,0.00750732,-0.0174866,-30490,-21267,5828,-9167,-28641
68357,-0.162695,0.406738,9.79521,2.79053,0.406494,-1.98303,0,0,0,0.999542,0.0212097,0.00750732,-0.0174866,-30234,-21523,6340,-9167,-28641
68363,-0.172266,0.890039,9.75693,2.79053,0.406494,-1.98303,0,0,0,0.999542,0.0212097,0.00750732,-0.0174866,-30234,-22035,6340,-9167,-28641
68369,1.76094,1.89492,6.53652,2.87842,0.368042,-2.01599,18.1885,-7.32422,-6.16455,0.999542,0.0212097,0.00750732,-0.0174866,-30746,-22803,8388,-9167,-28641
68375,0.0669922,0.880469,10.312,2.81799,0.368042,-2.05994,-13.3667,-0.305176,-8.91113,0.999542,0.0220032,0.00717163,-0.0177612,-30746,-23059,9156,-9167,-28641
68381,-2.80889,-1.49775,13.5372,2.76855,0.373535,-2.08191,-9.21631,0.427246,-3.84521,0.999542,0.0214539,0.00714111,-0.018158,-30234,-23059,10180,-9167,-28641
68387,-1.02402,-1.67959,11.1159,2.76855,0.411987,-2.03247,0,7.62939,9.0332,0.999542,0.0210571,0.00720215,-0.0183105,-29978,-22803,10948,-9167,-28641
68393,0.0191406,0.512012,8.63721,2.84546,0.384521,-2.005,14.0991,-9.70459,6.04248,0.999542,0.021698,0.0072937,-0.0176697,-29978,-22547,11716,-9167,-28641
68399,0.205762,0.947461,8.77598,2.90039,0.32959,-1.96106,-2.0752,-1.89209,3.11279,0.999542,0.0223083,0.00686646,-0.017395,-29210,-21779,12484,-9167,-28641
68405,0.119629,0.77998,9.52246,2.84546,0.351562,-1.95557,-10.6201,4.82178,1.28174,0.999542,0.0221863,0.00680542,-0.0172729,-28442,-21011,12740,-9167,-28641
68411,-0.0478516,0.823047,10.202,2.8125,0.373535,-1.95557,-6.40869,4.57764,-0.488281,0.999542,0.0217285,0.00701904,-0.0172119,-27930,-20243,11716,-9167,-28641
68417,-0.368457,0.497656,10.0201,2.80701,0.395508,-1.95557,-1.46484,3.479,-0.488281,0.999542,0.0214539,0.00723267,-0.0172119,-27674,-19219,10948,-9167,-28641
68423,-0.229688,0.430664,9.2832,2.8125,0.401001,-1.95557,3.17383,-0.183105,0.305176,0.999542,0.0213928,0.00744629,-0.0172424,-27930,-18451,10692,-9167,-28641
68429,-0.191406,0.526367,9.81436,2.80701,0.401001,-1.95557,-3.54004,0.366211,0.12207,0.999542,0.0215454,0.00741577,-0.0172424,-28954,-16915,11460,-9167,-28641
68435,-0.129199,0.368457,10.2546,2.79602,0.406494,-1.95557,-2.2583,1.0376,0,0.999542,0.0213928,0.00744629,-0.0172119,-28954,-16147,11972,-9167,-28641
68441,-0.119629,0.354102,9.76172,2.79602,0.406494,-1.95557,0.305176,-0.12207,0.0610352,0.999542,0.0212708,0.00750732,-0.0172119,-29210,-15891,13252,-9167,-28641
68447,-0.124414,0.373242,9.46504,2.80151,0.401001,-1.95557,0.793457,-1.15967,-0.0610352,0.999542,0.0213013,0.00750732,-0.0172119,-29210,-15891,14532,-9167,-28641
68453,-0.186621,0.449805,9.9627,2.80701,0.395508,-1.95557,0.427246,0,0,0.999542,0.0213623,0.00738525,-0.0172424,-29466,-16659,15044,-9167,-28641
68459,-0.191406,0.430664,9.67559,2.80701,0.395508,-1.95557,-0.244141,0.427246,0.0610352,0.999542,0.0213623,0.00738525,-0.0172424,-29722,-18195,16068,-9167,-28641
68465,-0.14834,0.401953,9.72344,2.80151,0.395508,-1.95557,-0.976562,0.183105,0,0.999542,0.0213623,0.00741577,-0.0172119,-29722,-18707,16580,-9167,-28641
68471,-0.162695,0.416309,9.97227,2.79602,0.401001,-1.95557,-0.305176,0.549316,-0.183105,0.999542,0.0213013,0.00741577,-0.0172119,-29210,-19219,16580,-9167,-28641
68477,-0.14834,0.430664,9.82393,2.80151,0.401001,-1.95557,0.549316,0.305176,-0.0610352,0.999542,0.0213013,0.00744629,-0.0172424,-28698,-19731,16580,-9167,-28641
68483,-0.153125,0.401953,9.70908,2.80151,0.401001,-1.95557,0.12207,0,-0.0610352,0.999542,0.0213013,0.00747681,-0.0172424,-28442,-20243,16068,-9167,-28641
68489,-0.153125,0.430664,9.78086,2.80151,0.401001,-1.95557,0,-0.305176,0,0.999542,0.0213318,0.00747681,-0.0172424,-27418,-21779,15044,-9167,-28641
68495,-0.14834,0.421094,9.82393,2.80151,0.401001,-1.95557,0,-0.12207,0,0.999542,0.0213013,0.00744629,-0.0172424,-27162,-21779,14020,-9167,-28641
68501,-0.153125,0.421094,9.79521,2.80151,0.401001,-1.95557,0.0610352,-0.366211,-0.0610352,0.999542,0.0213013,0.00744629,-0.0172424,-27418,-21779,13508,-9167,-28641
68507,-0.13877,0.425879,9.83828,2.80151,0.395508,-1.95557,-0.244141,-0.12207,-0.183105,0.999542,0.0213013,0.00744629,-0.0172424,-27418,-21523,13252,-9167,-28641
68513,-0.177051,0.411523,9.71387,2.79602,0.401001,-1.95557,0,0.183105,-0.244141,0.999542,0.0213013,0.00744629,-0.0172424,-27930,-21523,12996,-9167,-28641
68519,-0.129199,0.397168,9.75693,2.79602,0.401001,-1.95557,-0.427246,0.427246,0,0.999542,0.0213013,0.00744629,-0.0172424,-27930,-21523,10948,-9167,-28641
68525,-0.162695,0.392383,9.82393,2.79602,0.406494,-1.96106,0.12207,0.244141,-0.0610352,0.999542,0.0212708,0.00747681,-0.0172424,-28186,-21011,10180,-9167,-28641
68531,-0.162695,0.411523,9.7665,2.79602,0.406494,-1.96106,0.183105,0.0610352,-0.0610352,0.999542,0.0212708,0.00747681,-0.0172729,-28186,-20499,9668,-9167,-28641
68537,-0.153125,0.406738,9.8,2.79602,0.406494,-1.96106,0,0,0,0.999542,0.0213013,0.00747681,-0.0172729,-28186,-19987,9668,-9167,-28641
68543,-0.15791,0.401953,9.82871,2.79602,0.401001,-1.96106,0.12207,-0.0610352,-0.0610352,0.999542,0.0212708,0.00747681,-0.0172729,-28442,-19731,9924,-9167,-28641
68549,-0.162695,0.406738,9.73779,2.79602,0.401001,-1.96106,0.0610352,-0.12207,0,0.999542,0.0213013,0.00747681,-0.0172729,-28186,-19987,11204,-9167,-28641
68555,-0.143555,0.416309,9.71387,2.79602,0.401001,-1.96106,-0.427246,-0.0610352,-0.0610352,0.999542,0.0213013,0.00747681,-0.0172729,-27674,-20243,11460,-9167,-28641
68561,-0.14834,0.401953,9.82871,2.79053,0.401001,-1.96106,-0.427246,0.183105,0,0.999542,0.0212708,0.00747681,-0.0172729,-27162,-20243,12484,-9167,-28641
68567,-0.177051,0.406738,9.82393,2.79053,0.406494,-1.96106,0,0.0610352,-0.305176,0.999542,0.0212402,0.00747681,-0.0172729,-26650,-20499,12996,-9167,-28641
68573,-0.124414,0.411523,9.74258,2.79602,0.401001,-1.96106,0.12207,-0.12207,-0.0610352,0.999542,0.0212708,0.00747681,-0.0172729,-26650,-20755,13252,-9167,-28641
68579,-0.119629,0.406738,9.77607,2.79602,0.401001,-1.96106,0,-0.12207,0,0.999542,0.0212708,0.00747681,-0.0172729,-26906,-21523,15044,-9167,-28641
68585,-0.119629,0.421094,9.79521,2.79602,0.401001,-1.96106,-0.12207,0,0.0610352,0.999542,0.0212708,0.00747681,-0.0172729,-27674,-22035,16580,-9167,-28641
68591,-0.133984,0.406738,9.77129,2.79602,0.401001,-1.96106,0,0.0610352,-0.0610352,0.999542,0.0212402,0.00747681,-0.0172729,-27930,-22291,18116,-9167,-28641
68597,-0.143555,0.421094,9.79043,2.79053,0.401001,-1.96106,0,0,0,0.999542,0.0212402,0.00747681,-0.0172729,-27930,-22803,19140,-9167,-28641
68603,-0.14834,0.416309,9.74736,2.79053,0.401001,-1.96106,-0.244141,0,0,0.999542,0.0212402,0.00747681,-0.0172729,-28186,-22291,19396,-9167,-28641
68609,-0.177051,0.406738,9.81436,2.79053,0.401001,-1.96106,-0.12207,0,-0.0610352,0.999542,0.0212402,0.00747681,-0.0172729,-28186,-22035,18884,-9167,-28641
68615,-0.14834,0.440234,9.77129,2.79053,0.401001,-1.96106,0,0,0.12207,0.999542,0.0212402,0.00747681,-0.0172729,-27930,-21779,19140,-9167,-28641
68621,-0.143555,0.406738,9.82871,2.79053,0.401001,-1.96106,0,0.0610352,-0.12207,0.999542,0.0212402,0.00747681,-0.0172729,-27674,-22035,19908,-9167,-28641
68627,-0.16748,0.421094,9.8,2.79053,0.401001,-1.96106,0.183105,0,-0.0610352,0.999542,0.0212402,0.00747681,-0.0172729,-27418,-22291,19908,-9167,-28641
68633,-0.177051,0.411523,9.7665,2.79053,0.401001,-1.96106,0,0,0,0.999542,0.0212402,0.00747681,-0.0172729,-26906,-22803,19908,-9167,-28641
68639,-0.14834,0.416309,9.77129,2.79053,0.401001,-1.96106,-0.0610352,0,0,0.999542,0.0212402,0.00747681,-0.0172729,-26650,-23571,19908,-9167,-28641
68645,-0.143555,0.397168,9.80957,2.79053,0.401001,-1.96106,-0.183105,0,-0.183105,0.999542,0.0212402,0.00747681,-0.0172729,-26650,-23827,19140,-9167,-28641
68651,-0.143555,0.411523,9.85742,2.79053,0.401001,-1.96106,0,0,-0.0610352,0.999542,0.0212402,0.00747681,-0.0173035,-26906,-24083,18884,-9167,-28641
68657,-0.13877,0.392383,9.76172,2.79053,0.401001,-1.96106,0.183105,-0.244141,0.12207,0.999542,0.0212402,0.00747681,-0.0173035,-27162,-24339,18628,-9167,-28641
68663,-0.13877,0.425879,9.79521,2.79053,0.401001,-1.96106,0,-0.0610352,0,0.999542,0.0212402,0.00744629,-0.0173035,-27674,-24339,18628,-9167,-28641
68669,-0.124414,0.421094,9.81436,2.79053,0.401001,-1.96106,-0.183105,0.0610352,-0.0610352,0.999542,0.0212402,0.00744629,-0.0173035,-28954,-24595,19140,-9167,-28641
68675,-0.13877,0.411523,9.82393,2.79053,0.401001,-1.96106,0,0.0610352,-0.0610352,0.999542,0.0212402,0.00744629,-0.0173035,-29466,-24083,19396,-9167,-28641
68681,-0.14834,0.401953,9.77607,2.79053,0.401001,-1.96106,0.0610352,0,0,0.999542,0.0212402,0.00744629,-0.0173035,-29722,-23571,18628,-9167,-28641
68687,-0.162695,0.397168,9.78564,2.79053,0.401001,-1.96106,-0.0610352,0,0,0.999542,0.0212402,0.00744629,-0.0173035,-29722,-23315,17604,-9167,-28641
68693,-0.162695,0.406738,9.81914,2.79053,0.401001,-1.96106,-0.12207,0,0.0610352,0.999542,0.0212402,0.00744629,-0.0173035,-29466,-23059,16836,-9167,-28641
68699,-0.153125,0.416309,9.81436,2.79053,0.401001,-1.96106,0,0,0.0610352,0.999542,0.0212097,0.00744629,-0.0173035,-29210,-23059,16324,-9167,-28641
68705,-0.153125,0.416309,9.79521,2.79053,0.401001,-1.96106,0,0.0610352,0,0.999542,0.0212097,0.00744629,-0.0173035,-28954,-22803,16836,-9167,-28641
68711,-0.143555,0.421094,9.79521,2.79053,0.401001,-1.96106,0,0,-0.12207,0.999542,0.0212097,0.00747681,-0.0173035,-28698,-22803,17092,-9167,-28641
68717,-0.15791,0.435449,9.79043,2.79053,0.401001,-1.96106,0.0610352,0.0610352,-0.12207,0.999542,0.0212097,0.00747681,-0.0173035,-28442,-22035,17604,-9167,-28641
68723,-0.14834,0.416309,9.79521,2.79053,0.401001,-1.96106,0,0,0.0610352,0.999542,0.0212402,0.00747681,-0.0173035,-28442,-22035,18116,-9167,-28641
68729,-0.153125,0.421094,9.75693,2.79053,0.401001,-1.96106,0,0.0610352,0,0.999542,0.0212402,0.00747681,-0.0173035,-28186,-21779,18372,-9167,-28641
68735,-0.162695,0.416309,9.81436,2.79053,0.401001,-1.96106,-0.0610352,0,0,0.999542,0.0212402,0.00747681,-0.0173035,-27930,-21267,17604,-9167,-28641
68741,-0.143555,0.435449,9.79043,2.79053,0.401001,-1.96106,0,-0.0610352,0.0610352,0.999542,0.0212097,0.00747681,-0.0173035,-27930,-21011,16324,-9167,-28641
68747,-0.153125,0.425879,9.7665,2.79053,0.401001,-1.96106,0,0,0,0.999542,0.0212097,0.00747681,-0.0173035,-27674,-21011,15044,-9167,-28641
68753,-0.16748,0.425879,9.8,2.79053,0.401001,-1.96106,0,-0.0610352,-0.0610352,0.999542,0.0212402,0.00747681,-0.0173035,-27930,-21011,14020,-9167,-28641
68759,-0.129199,0.425879,9.8,2.79053,0.401001,-1.96106,0,-0.12207,-0.0610352,0.999542,0.0212402,0.00744629,-0.0173035,-28954,-21523,12996,-9167,-28641
68765,-0.133984,0.411523,9.81914,2.79053,0.401001,-1.96106,0.0610352,0,0,0.999542,0.0212402,0.00744629,-0.0173035,-29210,-21779,13764,-9167,-28641
68771,-0.162695,0.401953,9.75693,2.79053,0.401001,-1.96106,0,0,0,0.999542,0.0212402,0.00744629,-0.0173035,-28954,-21267,14532,-9167,-28641
68777,-0.162695,0.425879,9.79043,2.79053,0.401001,-1.96655,-0.0610352,0,-0.0610352,0.999542,0.0212402,0.00744629,-0.0173035,-28698,-20755,15812,-9167,-28641
68783,-0.13877,0.411523,9.81914,2.79053,0.401001,-1.96655,-0.0610352,0,0.0610352,0.999542,0.0212402,0.00744629,-0.0173035,-28698,-20499,17604,-9167,-28641
68789,-0.143555,0.406738,9.78086,2.79053,0.401001,-1.96655,-0.0610352,0,0,0.999542,0.0212097,0.00744629,-0.0173035,-29210,-20243,18116,-9167,-28641
68795,-0.14834,0.401953,9.75215,2.79053,0.401001,-1.96106,-0.0610352,-0.12207,0.0610352,0.999542,0.0212097,0.00744629,-0.0173035,-29466,-20243,18116,-9167,-28641
68801,-0.13877,0.411523,9.81436,2.79053,0.401001,-1.96106,-0.12207,-0.0610352,0.0610352,0.999542,0.0212097,0.00744629,-0.0173035,-29466,-20243,18116,-9167,-28641
68807,-0.133984,0.425879,9.77607,2.79053,0.401001,-1.96106,0,0.0610352,-0.0610352,0.999542,0.0212097,0.00744629,-0.0173035,-29722,-20243,18116,-9167,-28641
68813,-0.129199,0.425879,9.79043,2.79053,0.401001,-1.96106,0,-0.0610352,0,0.999542,0.0212097,0.00744629,-0.0173035,-29466,-21267,18372,-9167,-28641
68819,-0.177051,0.406738,9.80957,2.79053,0.401001,-1.96106,-0.0610352,0.0610352,0.12207,0.999542,0.0212097,0.00744629,-0.0173035,-29466,-21779,18628,-9167,-28641
68825,-0.13877,0.421094,9.79521,2.79053,0.401001,-1.96106,0,0,0,0.999542,0.0212097,0.00744629,-0.0173035,-28954,-22547,19140,-9167,-28641
68831,-0.172266,0.416309,9.80479,2.79053,0.401001,-1.96106,0,0,0,0.999542,0.0212097,0.00744629,-0.0173035,-28698,-23059,20164,-9167,-28641
68837,-0.153125,0.397168,9.80479,2.79053,0.401001,-1.96106,0,0,0,0.999542,0.0212097,0.00744629,-0.0173035,-28186,-22803,20932,-9167,-28641
68843,-0.16748,0.425879,9.80957,2.79053,0.401001,-1.96106,0,0,-0.12207,0.999542,0.0212097,0.00744629,-0.0173035,-27930,-22547,21444,-9167,-28641
68849,-0.15791,0.430664,9.79043,2.79053,0.401001,-1.96106,0,0,0,0.999542,0.0212097,0.00744629,-0.0173035,-28442,-21267,22724,-9167,-28641
68855,-0.143555,0.421094,9.79043,2.79053,0.401001,-1.96106,0,0.12207,0,0.999542,0.0212097,0.00744629,-0.0173035,-28954,-20499,21956,-9167,-28641
68861,-0.13877,0.411523,9.78564,2.79053,0.401001,-1.96106,0,0,0,0.999542,0.0212097,0.00744629,-0.0173035,-29210,-19731,21188,-9167,-28641
68867,-0.13877,0.440234,9.78086,2.79053,0.401001,-1.96106,0,0.0610352,0.0610352,0.999542,0.0212097,0.00744629,-0.0173035,-29722,-19219,20164,-9167,-28641
68873,-0.13877,0.430664,9.81436,2.79053,0.401001,-1.96106,-0.0610352,0,0.12207,0.999542,0.0212097,0.00744629,-0.0173035,-30234,-19731,18372,-9167,-28641
68879,-0.143555,0.421094,9.78086,2.79053,0.401001,-1.96106,0,0,0,0.999542,0.0212097,0.00744629,-0.0173035,-30746,-19987,17860,-9167,-28641
68885,-0.133984,0.406738,9.8335,2.79053,0.401001,-1.96106,0,0,0,0.999542,0.0212097,0.00744629,-0.0173035,-30746,-20499,17860,-9167,-28641
68891,-0.13877,0.416309,9.80957,2.79053,0.401001,-1.96106,-0.0610352,0,0.0610352,0.999542,0.0212097,0.00744629,-0.0173035,-31002,-20499,17860,-9167,-28641
68897,-0.13877,0.421094,9.79521,2.79053,0.401001,-1.96106,0,0,0,0.999542,0.0212097,0.00744629,-0.0173035,-31514,-20755,18372,-9167,-28641
68903,-0.172266,0.421094,9.8,2.79053,0.401001,-1.96106,0,0,-0.0610352,0.999542,0.0212097,0.00744629,-0.0173035,-30746,-21011,18884,-9167,-28641
68909,-0.177051,0.406738,9.79521,2.79053,0.401001,-1.96106,0,0.0610352,-0.0610352,0.999542,0.0212097,0.00744629,-0.0173035,-29722,-21267,19140,-9167,-28641
68915,-0.143555,0.392383,9.75693,2.79053,0.401001,-1.96106,0,0.0610352,0,0.999542,0.0212097,0.00744629,-0.0173035,-28442,-21523,19396,-9167,-28641
68921,-0.13877,0.430664,9.80479,2.79053,0.401001,-1.96106,0,-0.0610352,0,0.999542,0.0212097,0.00744629,-0.0173035,-27418,-21267,19140,-9167,-28641
68927,-0.153125,0.406738,9.78564,2.79053,0.401001,-1.96106,0,-0.0610352,0,0.999542,0.0212097,0.00744629,-0.0173035,-26650,-21523,19140,-9167,-28641
68933,-0.14834,0.421094,9.8,2.79053,0.401001,-1.96106,-0.0610352,-0.0610352,0,0.999542,0.0212097,0.00744629,-0.0173035,-27418,-21779,18628,-9167,-28641
68939,-0.143555,0.392383,9.80479,2.79053,0.401001,-1.96106,0,0,0,0.999542,0.0212097,0.00744629,-0.0173035,-27674,-22291,17604,-9167,-28641
68945,-0.124414,0.392383,9.79521,2.79053,0.401001,-1.96106,-0.12207,0.0610352,0,0.999542,0.0212097,0.00744629,-0.0173035,-27674,-22547,16324,-9167,-28641
68951,-0.13877,0.406738,9.78564,2.79053,0.401001,-1.96106,0,0,0,0.999542,0.0212097,0.00744629,-0.0173035,-27418,-22803,16068,-9167,-28641
68957,-0.153125,0.421094,9.7665,2.79053,0.401001,-1.96106,0,0,-0.0610352,0.999542,0.0212097,0.00744629,-0.0173035,-27162,-22803,15812,-9167,-28641
68963,-0.13877,0.416309,9.78564,2.79053,0.401001,-1.96106,-0.12207,0,0.12207,0.999542,0.0212097,0.00744629,-0.0173035,-26650,-22547,18116,-9167,-28641
68969,-0.15791,0.411523,9.78564,2.78503,0.401001,-1.96106,-0.12207,0,0.0610352,0.999542,0.0212097,0.00744629,-0.0173035,-26650,-22291,18884,-9167,-28641
68975,-0.162695,0.416309,9.78564,2.78503,0.401001,-1.96106,0,0,0.0610352,0.999542,0.0212097,0.00744629,-0.0173035,-26906,-22291,18884,-9167,-28641
68981,-0.15791,0.416309,9.80479,2.79053,0.401001,-1.96106,0,-0.12207,0,0.999542,0.0212097,0.00744629,-0.0173035,-27674,-22291,18628,-9167,-28641
68987,-0.15791,0.406738,9.78564,2.79053,0.401001,-1.96106,0,0,0,0.999542,0.0212097,0.00744629,-0.0173035,-28186,-21779,18116,-9167,-28641
68993,-0.14834,0.411523,9.79043,2.78503,0.401001,-1.96106,0,0.0610352,0,0.999542,0.0212097,0.00744629,-0.0173035,-28442,-20243,17348,-9167,-28641
68999,-0.16748,0.416309,9.77607,2.78503,0.401001,-1.96106,-0.0610352,0,0.12207,0.999542,0.0212097,0.00744629,-0.0173035,-28186,-19987,16836,-9167,-28641
69005,-0.14834,0.421094,9.79521,2.78503,0.401001,-1.96106,0,0,0.0610352,0.999542,0.0212097,0.00744629,-0.0172729,-27930,-19987,16324,-9167,-28641
69011,-0.143555,0.401953,9.8,2.78503,0.395508,-1.96106,0,-0.183105,0,0.999542,0.0212097,0.00744629,-0.0172729,-27418,-19987,16068,-9167,-28641
69017,-0.129199,0.416309,9.78086,2.78503,0.395508,-1.96106,-0.0610352,0,0,0.999542,0.0212097,0.00741577,-0.0172729,-27162,-20755,15556,-9167,-28641
69023,-0.129199,0.421094,9.80957,2.78503,0.395508,-1.96106,0,0,0.0610352,0.999542,0.0212097,0.00741577,-0.0172729,-26650,-21779,13764,-9167,-28641
69029,-0.15791,0.421094,9.79521,2.79053,0.395508,-1.96106,0,0,-0.0610352,0.999542,0.0212097,0.00741577,-0.0172729,-26906,-22035,12996,-9167,-28641
69035,-0.133984,0.416309,9.79043,2.78503,0.395508,-1.96106,-0.183105,0.0610352,0.0610352,0.999542,0.0212097,0.00741577,-0.0172729,-27162,-21779,12484,-9167,-28641
69041,-0.15791,0.430664,9.7665,2.78503,0.395508,-1.96106,0,0.0610352,-0.0610352,0.999542,0.0212097,0.00744629,-0.0172729,-27162,-21779,13252,-9167,-28641
69047,-0.13877,0.416309,9.78086,2.78503,0.401001,-1.96106,-0.12207,0.12207,0.0610352,0.999542,0.0212097,0.00744629,-0.0172729,-27674,-21779,14020,-9167,-28641
69053,-0.13877,0.411523,9.8,2.78503,0.401001,-1.96106,0,0.0610352,0,0.999542,0.0211792,0.00744629,-0.0172729,-27930,-22035,16068,-9167,-28641
69059,-0.177051,0.411523,9.77129,2.78503,0.401001,-1.96106,-0.0610352,0,-0.0610352,0.999542,0.0211792,0.00744629,-0.0172729,-28442,-22035,16836,-9167,-28641
69065,-0.143555,0.411523,9.79043,2.78503,0.401001,-1.96106,0,0,0,0.999542,0.0211792,0.00744629,-0.0172729,-28954,-22547,16836,-9167,-28641
69071,-0.177051,0.411523,9.77607,2.78503,0.401001,-1.96106,0,0,0,0.999542,0.0211792,0.00744629,-0.0172729,-28954,-22547,15812,-9167,-28641
69077,-0.14834,0.425879,9.81436,2.78503,0.401001,-1.96106,-0.12207,0,0,0.999542,0.0211792,0.00744629,-0.0172729,-29210,-22291,15556,-9167,-28641
69083,-0.153125,0.416309,9.7665,2.78503,0.401001,-1.96106,-0.244141,0,0,0.999542,0.0211792,0.00744629,-0.0172729,-29466,-22291,16068,-9167,-28641
69089,-0.14834,0.401953,9.79521,2.78503,0.401001,-1.96106,0,0,0,0.999542,0.0211792,0.00744629,-0.0172729,-29466,-21779,17604,-9167,-28641
69095,-0.133984,0.406738,9.78564,2.78503,0.401001,-1.96106,0,0,0,0.999542,0.0211792,0.00744629,-0.0172729,-29210,-21267,18884,-9167,-28641
69101,-0.129199,0.416309,9.77129,2.78503,0.395508,-1.96106,-0.0610352,-0.12207,0,0.999542,0.0211792,0.00744629,-0.0172729,-28442,-20243,19908,-9167,-28641
69107,-0.143555,0.421094,9.78564,2.78503,0.395508,-1.96106,0,0.0610352,0,0.999542,0.0211792,0.00741577,-0.0172729,-27674,-19475,20676,-9167,-28641
69113,-0.143555,0.406738,9.78086,2.78503,0.395508,-1.96106,0,0,0,0.999542,0.0211792,0.00744629,-0.0172729,-26138,-18707,20932,-9167,-28641
69119,-0.13877,0.397168,9.8,2.78503,0.395508,-1.96106,0,0.0610352,0,0.999542,0.0211792,0.00744629,-0.0172729,-26138,-18963,20932,-9167,-28641
69125,-0.153125,0.401953,9.78564,2.78503,0.401001,-1.96106,0.12207,0.0610352,0,0.999542,0.0211792,0.00744629,-0.0172729,-26394,-19219,20164,-9167,-28641
69131,-0.162695,0.411523,9.79521,2.78503,0.395508,-1.96106,0,-0.0610352,0,0.999542,0.0211792,0.00744629,-0.0172729,-26906,-19475,19652,-9167,-28641
69137,-0.15791,0.411523,9.79043,2.78503,0.395508,-1.96106,0,0,0,0.999542,0.0211792,0.00744629,-0.0172729,-27674,-19731,19908,-9167,-28641
69143,-0.181836,0.430664,9.80479,2.78503,0.395508,-1.96106,0,0,0,0.999542,0.0211792,0.00744629,-0.0172729,-28442,-19987,19652,-9167,-28641
69149,-0.14834,0.421094,9.78086,2.78503,0.395508,-1.96106,0,0,0,0.999542,0.0211792,0.00741577,-0.0172729,-28186,-19731,20420,-9167,-28641
69155,-0.124414,0.411523,9.80957,2.78503,0.395508,-1.96106,-0.12207,0,0,0.999542,0.0211792,0.00741577,-0.0172729,-27930,-19731,20676,-9167,-28641
69161,-0.143555,0.411523,9.80957,2.78503,0.395508,-1.96106,0,0,0,0.999542,0.0211792,0.00741577,-0.0172729,-27930,-19731,20932,-9167,-28641
69167,-0.16748,0.397168,9.79521,2.78503,0.395508,-1.96106,0,0.0610352,0,0.999542,0.0211792,0.00744629,-0.0172729,-27930,-19731,20932,-9167,-28641
69173,-0.133984,0.440234,9.80957,2.78503,0.395508,-1.96106,-0.0610352,0,0,0.999542,0.0211792,0.00744629,-0.0172729,-28954,-19987,21188,-9167,-28641
69179,-0.13877,0.416309,9.77129,2.78503,0.395508,-1.96106,0,0,0,0.999542,0.0211792,0.00744629,-0.0172729,-29466,-19987,20420,-9167,-28641
69185,-0.15791,0.406738,9.77129,2.78503,0.395508,-1.96106,0,0,0,0.999542,0.0211792,0.00744629,-0.0172729,-29722,-20243,20676,-9167,-28641
69191,-0.16748,0.435449,9.8,2.78503,0.395508,-1.96106,-0.0610352,0,0,0.999542,0.0211792,0.00744629,-0.0172729,-29722,-19987,20164,-9167,-28641
69197,-0.15791,0.411523,9.79521,2.78503,0.395508,-1.96106,0,0.0610352,0,0.999542,0.0211792,0.00744629,-0.0172729,-29722,-19987,19140,-9167,-28641
69203,-0.14834,0.435449,9.79521,2.78503,0.395508,-1.96106,0,0,0,0.999542,0.0211792,0.00744629,-0.0172729,-29466,-19987,18884,-9167,-28641
69209,-0.129199,0.425879,9.8,2.78503,0.401001,-1.96106,0,0.0610352,0,0.999542,0.0211792,0.00744629,-0.0172729,-29466,-20755,18372,-9167,-28641
69215,-0.15791,0.401953,9.81436,2.78503,0.401001,-1.96106,0,0,0,0.999542,0.0211792,0.00744629,-0.0172729,-29466,-21267,17860,-9167,-28641
69221,-0.124414,0.435449,9.8,2.78503,0.401001,-1.96106,0,0,0,0.999542,0.0211792,0.00744629,-0.0172729,-29466,-21779,17860,-9167,-28641
69227,-0.13877,0.425879,9.78564,2.78503,0.395508,-1.96106,-0.12207,0,0,0.999542,0.0211792,0.00744629,-0.0172729,-29722,-21779,17604,-9167,-28641
69233,-0.13877,0.401953,9.79521,2.78503,0.395508,-1.96106,-0.12207,0,0,0.999542,0.0211792,0.00744629,-0.0172729,-30234,-21011,18116,-9167,-28641
69239,-0.129199,0.425879,9.78086,2.78503,0.395508,-1.96106,0,0,0,0.999542,0.0211792,0.00744629,-0.0172729,-30746,-20499,17860,-9167,-28641
69245,-0.129199,0.425879,9.82871,2.78503,0.395508,-1.96106,0,0,0,0.999542,0.0211792,0.00744629,-0.0172729,-30490,-19987,17860,-9167,-28641
69251,-0.162695,0.411523,9.82393,2.78503,0.395508,-1.96106,0,0,0,0.999542,0.0211792,0.00744629,-0.0172729,-30490,-19731,17348,-9167,-28641
69257,-0.143555,0.387598,9.78086,2.78503,0.395508,-1.96106,0,-0.0610352,0,0.999542,0.0211792,0.00741577,-0.0172729,-30234,-19987,16836,-9167,-28641
69263,-0.143555,0.44502,9.81914,2.78503,0.395508,-1.96106,0,-0.0610352,0,0.999542,0.0211792,0.00741577,-0.0172729,-29978,-20243,14532,-9167,-28641
69269,-0.162695,0.425879,9.81436,2.78503,0.395508,-1.96106,0,-0.305176,0,0.999542,0.0211792,0.00741577,-0.0172729,-29978,-20499,14020,-9167,-28641
69275,-0.181836,0.421094,9.79521,2.78503,0.395508,-1.96106,-0.244141,0,0,0.999542,0.0211792,0.00741577,-0.0172729,-29466,-20499,13252,-9167,-28641
69281,-0.13877,0.440234,9.77607,2.78503,0.395508,-1.96106,0.12207,0.0610352,0,0.999542,0.0211487,0.00741577,-0.0172729,-29210,-20499,12740,-9167,-28641
69287,-0.100488,0.392383,9.80957,2.78503,0.395508,-1.96106,-0.305176,0,0,0.999542,0.0211487,0.00741577,-0.0172729,-29210,-20243,12996,-9167,-28641
69293,-0.13877,0.358887,9.77607,2.78503,0.395508,-1.96106,0,-0.12207,0,0.999542,0.0211487,0.00741577,-0.0172729,-29210,-20499,12740,-9167,-28641
69299,0.617285,1.46904,8.3166,2.84546,0.395508,-1.98853,12.0239,-0.427246,-5.43213,0.999542,0.0211487,0.00741577,-0.0172729,-29466,-20755,12740,-9167,-28641
69305,0.191406,1.3542,8.66113,2.83447,0.362549,-2.02148,-2.38037,-6.53076,-6.5918,0.999542,0.021698,0.00738525,-0.0175171,-29466,-20755,12228,-9167,-28641
69311,-1.88057,-0.559863,12.7764,2.75757,0.384521,-2.03247,-14.7095,4.08936,-1.70898,0.999542,0.0216064,0.00708008,-0.0178223,-29466,-20499,12228,-9167,-28641
69317,-0.143555,-0.693848,11.8433,2.76306,0.401001,-2.0105,0.183105,4.21143,3.72314,0.999542,0.0209656,0.00747681,-0.0177307,-29466,-20499,12740,-9167,-28641
69323,0.0239258,0.267969,9.48897,2.83447,0.373535,-1.96106,7.50732,-5.37109,4.57764,0.999542,0.0212708,0.00744629,-0.0174866,-29466,-20243,14788,-9167,-28641
69329,0.133984,0.741699,8.575,2.85645,0.357056,-1.94458,4.57764,-2.62451,3.35693,0.999542,0.0216064,0.00720215,-0.0173035,-29466,-20499,15556,-9167,-28641
69335,-0.0382813,0.200977,8.97695,2.82898,0.362549,-1.93909,-5.00488,0.488281,1.2207,0.999542,0.0217896,0.00708008,-0.0171509,-29722,-20755,15812,-9167,-28641
69341,-0.818262,0.947461,9.88613,2.79602,0.379028,-1.93909,-6.83594,4.21143,0.488281,0.999542,0.0215759,0.0071106,-0.0170898,-29466,-21011,16580,-9167,-28641
69347,-0.210547,0.45459,10.0775,2.77954,0.401001,-1.93359,-3.479,3.41797,0,0.999542,0.0211182,0.00744629,-0.0170593,-29466,-21011,16580,-9167,-28641
69353,-0.186621,0.440234,9.51289,2.80151,0.406494,-1.93359,2.68555,0.305176,0.183105,0.999542,0.0212097,0.00747681,-0.0170593,-29978,-20755,18116,-9167,-28641
69359,-0.162695,0.545508,9.56074,2.79602,0.401001,-1.93359,-0.976562,-0.549316,0,0.999542,0.0213013,0.00747681,-0.0170593,-30234,-20243,19140,-9167,-28641
69365,-0.172266,0.344531,10.1828,2.78503,0.406494,-1.93359,-2.0752,0.976562,0,0.999542,0.0212708,0.00747681,-0.0170593,-30490,-19987,20164,-9167,-28641
69371,-0.172266,0.387598,9.76172,2.78503,0.406494,-1.93359,0.183105,-0.183105,0.0610352,0.999542,0.0211792,0.00750732,-0.0170593,-29978,-20243,19908,-9167,-28641
69377,-0.0861328,0.378027,9.58945,2.79053,0.401001,-1.93359,0.488281,-0.976562,0,0.999542,0.0212097,0.00747681,-0.0170593,-29466,-20243,19396,-9167,-28641
69383,-0.133984,0.45459,9.84307,2.79602,0.395508,-1.93359,0.183105,0,0,0.999542,0.0212708,0.00741577,-0.0170593,-28698,-20755,16836,-9167,-28641
69389,-0.186621,0.440234,9.8,2.79602,0.401001,-1.93359,-0.488281,0.427246,0.0610352,0.999542,0.0212708,0.00741577,-0.0170593,-28698,-20755,17092,-9167,-28641
69395,-0.16748,0.425879,9.68516,2.79053,0.401001,-1.93359,-0.671387,0.244141,-0.183105,0.999542,0.0212402,0.00744629,-0.0170288,-28442,-20243,17348,-9167,-28641
69401,-0.143555,0.421094,9.91006,2.79053,0.401001,-1.93359,-0.305176,0.244141,0,0.999542,0.0212097,0.00744629,-0.0170593,-28442,-19987,17604,-9167,-28641
69407,-0.153125,0.387598,9.66602,2.79053,0.401001,-1.93359,0.366211,0.366211,-0.12207,0.999542,0.0212402,0.00747681,-0.0170593,-27930,-19987,18116,-9167,-28641
69413,-0.15791,0.425879,9.75693,2.79053,0.401001,-1.93359,0.183105,-0.244141,0,0.999542,0.0212402,0.00747681,-0.0170593,-27162,-19475,17348,-9167,-28641
69419,-0.15791,0.411523,9.78564,2.79053,0.401001,-1.93359,0,-0.0610352,0,0.999542,0.0212402,0.00747681,-0.0170593,-26906,-19475,17348,-9167,-28641
69425,-0.133984,0.425879,9.72822,2.79053,0.401001,-1.93359,-0.0610352,-0.183105,0.0610352,0.999542,0.0212402,0.00747681,-0.0170593,-27162,-19475,16836,-9167,-28641
69431,-0.14834,0.411523,9.82393,2.79053,0.401001,-1.93359,-0.366211,-0.244141,0.0610352,0.999542,0.0212402,0.00747681,-0.0170593,-27418,-19475,16068,-9167,-28641
69437,-0.133984,0.421094,9.8,2.79053,0.401001,-1.93359,-0.0610352,-0.0610352,-0.12207,0.999542,0.0212402,0.00744629,-0.0170593,-28186,-19731,15044,-9167,-28641
69443,-0.14834,0.421094,9.73779,2.79053,0.401001,-1.93359,0,0.244141,0,0.999542,0.0212402,0.00744629,-0.0170593,-29466,-19987,12228,-9167,-28641
69449,-0.162695,0.421094,9.76172,2.79053,0.401001,-1.93359,-0.12207,0.0610352,0,0.999542,0.0212402,0.00747681,-0.0170593,-29466,-19731,10948,-9167,-28641
69455,-0.15791,0.401953,9.8335,2.79053,0.401001,-1.93359,0,0.0610352,0,0.999542,0.0212402,0.00747681,-0.0170593,-29722,-19475,10180,-9167,-28641
69461,-0.133984,0.406738,9.78086,2.79053,0.401001,-1.93359,0,0.183105,0.0610352,0.999542,0.0212402,0.00747681,-0.0170593,-29466,-18963,9668,-9167,-28641
69467,-0.14834,0.411523,9.87178,2.79053,0.401001,-1.93359,0,-0.12207,-0.0610352,0.999542,0.0212402,0.00747681,-0.0170593,-29466,-18707,9412,-9167,-28641
69473,-0.143555,0.425879,9.82393,2.79053,0.401001,-1.93359,0.305176,-0.12207,0,0.999542,0.0212097,0.00747681,-0.0170593,-30234,-17939,8900,-9167,-28641
69479,-0.15791,0.392383,9.7665,2.79053,0.401001,-1.93359,0.0610352,0,-0.0610352,0.999542,0.0212402,0.00747681,-0.0170593,-30490,-18195,8644,-9167,-28641
69485,-0.162695,0.401953,9.77129,2.79053,0.401001,-1.93359,-0.366211,0,0,0.999542,0.0212402,0.00747681,-0.0170593,-30234,-18451,9412,-9167,-28641
69491,-0.143555,0.425879,9.79521,2.79053,0.401001,-1.93359,-0.244141,0.0610352,0,0.999542,0.0212402,0.00747681,-0.0170593,-30234,-18963,10436,-9167,-28641
69497,-0.14834,0.387598,9.82871,2.79053,0.401001,-1.93359,-0.12207,0.0610352,0,0.999542,0.0212097,0.00747681,-0.0170593,-30746,-19731,10948,-9167,-28641
69503,-0.153125,0.425879,9.77607,2.79053,0.401001,-1.93359,0.305176,-0.0610352,0,0.999542,0.0212097,0.00747681,-0.0170593,-30490,-20499,10436,-9167,-28641
69509,-0.14834,0.411523,9.81436,2.79053,0.401001,-1.93359,-0.0610352,0,0.244141,0.999542,0.0212097,0.00747681,-0.0170593,-30490,-20755,9668,-9167,-28641
69515,-0.153125,0.392383,9.80479,2.79053,0.401001,-1.93359,0,0,0,0.999542,0.0212097,0.00747681,-0.0170593,-30234,-20755,8644,-9167,-28641
69521,-0.129199,0.416309,9.77129,2.79053,0.401001,-1.93359,0,0.0610352,0,0.999542,0.0212097,0.00747681,-0.0170593,-30234,-20755,7620,-9167,-28641
69527,-0.143555,0.435449,9.77129,2.79053,0.401001,-1.93359,0,0,0.183105,0.999542,0.0212097,0.00747681,-0.0170288,-30234,-20755,7620,-9167,-28641
69533,-0.13877,0.416309,9.78086,2.79053,0.401001,-1.93359,0,0,-0.183105,0.999542,0.0212402,0.00747681,-0.0170288,-29978,-19987,9668,-9167,-28641
69539,-0.177051,0.411523,9.79043,2.79053,0.401001,-1.93359,0,0.0610352,0,0.999542,0.0212402,0.00747681,-0.0170593,-30490,-19475,11460,-9167,-28641
69545,-0.129199,0.401953,9.80957,2.79053,0.401001,-1.93359,-0.0610352,0.0610352,-0.183105,0.999542,0.0212402,0.00747681,-0.0170593,-30746,-18963,12740,-9167,-28641
69551,-0.15791,0.421094,9.82393,2.79053,0.401001,-1.93359,0,-0.12207,-0.0610352,0.999542,0.0212402,0.00747681,-0.0170593,-31002,-18963,13508,-9167,-28641
69557,-0.143555,0.430664,9.80957,2.79053,0.401001,-1.93359,0.183105,0,0.0610352,0.999542,0.0212402,0.00747681,-0.0170593,-31002,-18963,13508,-9167,-28641
69563,-0.16748,0.416309,9.77129,2.79053,0.401001,-1.93359,0,0,0.12207,0.999542,0.0212402,0.00747681,-0.0170593,-30746,-19475,11460,-9167,-28641
69569,-0.153125,0.416309,9.7665,2.79053,0.401001,-1.93359,-0.0610352,0,0.0610352,0.999542,0.0212402,0.00747681,-0.0170593,-31002,-19731,10692,-9167,-28641
69575,-0.14834,0.435449,9.84307,2.79053,0.401001,-1.93359,-0.0610352,0,-0.0610352,0.999542,0.0212402,0.00747681,-0.0170593,-31258,-19731,9668,-9167,-28641
69581,-0.133984,0.392383,9.81436,2.79053,0.401001,-1.93359,0,0,-0.0610352,0.999542,0.0212402,0.00747681,-0.0170593,-31514,-20243,8900,-9167,-28641
69587,-0.13877,0.406738,9.79043,2.79053,0.401001,-1.93359,0,-0.0610352,0.0610352,0.999542,0.0212402,0.00747681,-0.0170593,-31514,-20499,9668,-9167,-28641
69593,-0.124414,0.411523,9.7665,2.79053,0.401001,-1.93359,-0.183105,-0.0610352,0,0.999542,0.0212402,0.00747681,-0.0170593,-30490,-21011,10436,-9167,-28641
69599,-0.14834,0.411523,9.82393,2.79053,0.401001,-1.93359,-0.12207,0,0,0.999542,0.0212402,0.00747681,-0.0170593,-29722,-21523,10180,-9167,-28641
69605,-0.13877,0.416309,9.80479,2.79053,0.401001,-1.93359,0,0,0.0610352,0.999542,0.0212097,0.00747681,-0.0170593,-29210,-22035,9668,-9167,-28641
69611,-0.13877,0.401953,9.79043,2.79053,0.401001,-1.93359,0,0.0610352,0.12207,0.999542,0.0212097,0.00747681,-0.0170593,-28698,-22035,8644,-9167,-28641
69617,-0.172266,0.411523,9.79043,2.79053,0.401001,-1.93359,0,-0.0610352,-0.0610352,0.999542,0.0212097,0.00744629,-0.0170593,-28442,-21779,8388,-9167,-28641
69623,-0.114844,0.397168,9.80957,2.79053,0.401001,-1.93359,-0.183105,0.0610352,-0.0610352,0.999542,0.0212402,0.00744629,-0.0170593,-28186,-21523,9924,-9167,-28641
69629,-0.143555,0.421094,9.77607,2.79053,0.401001,-1.93359,0,0,0,0.999542,0.0212097,0.00747681,-0.0170593,-28442,-21523,10692,-9167,-28641
69635,-0.13877,0.416309,9.77129,2.79053,0.401001,-1.93359,0,0,-0.0610352,0.999542,0.0212097,0.00747681,-0.0170593,-29210,-21523,10948,-9167,-28641
69641,-0.153125,0.421094,9.77607,2.79053,0.401001,-1.93359,0,0,0.0610352,0.999542,0.0212097,0.00747681,-0.0170593,-29722,-21523,10948,-9167,-28641
69647,-0.124414,0.416309,9.80479,2.79053,0.401001,-1.93359,0,0,-0.0610352,0.999542,0.0212097,0.00744629,-0.0170593,-29978,-21011,10436,-9167,-28641
69653,-0.16748,0.416309,9.79043,2.79053,0.401001,-1.93359,0,0.0610352,-0.0610352,0.999542,0.0212097,0.00744629,-0.0170593,-29466,-19731,11204,-9167,-28641
69659,-0.133984,0.421094,9.75215,2.79053,0.401001,-1.93359,0,0,0.0610352,0.999542,0.0212097,0.00744629,-0.0170593,-28954,-19731,12228,-9167,-28641
69665,-0.129199,0.416309,9.77607,2.79053,0.401001,-1.93359,-0.12207,0.0610352,0.0610352,0.999542,0.0212097,0.00744629,-0.0170593,-28954,-19475,13252,-9167,-28641
69671,-0.129199,0.421094,9.7665,2.79053,0.401001,-1.93359,0,0,-0.12207,0.999542,0.0212097,0.00744629,-0.0170593,-28442,-19219,13764,-9167,-28641
69677,-0.13877,0.411523,9.79043,2.79053,0.401001,-1.93359,0,0,0,0.999542,0.0212097,0.00744629,-0.0170593,-28186,-19219,13508,-9167,-28641
69683,-0.143555,0.406738,9.81436,2.79053,0.401001,-1.93359,0,0,0,0.999542,0.0212097,0.00744629,-0.0170593,-28442,-18707,13252,-9167,-28641
69689,-0.16748,0.416309,9.77607,2.79053,0.401001,-1.93359,0,0,0,0.999542,0.0212097,0.00744629,-0.0170593,-28186,-18451,13252,-9167,-28641
69695,-0.13877,0.411523,9.8,2.79053,0.401001,-1.93359,0,-0.12207,0,0.999542,0.0212097,0.00744629,-0.0170593,-28442,-18195,13764,-9167,-28641
69701,-0.13877,0.425879,9.79521,2.79053,0.401001,-1.93359,-0.12207,0,-0.0610352,0.999542,0.0212097,0.00744629,-0.0170593,-28442,-17939,14276,-9167,-28641
69707,-0.13877,0.421094,9.79043,2.79053,0.401001,-1.93359,0,0,0,0.999542,0.0212097,0.00744629,-0.0170593,-27930,-17939,14532,-9167,-28641
69713,-0.14834,0.421094,9.79043,2.79053,0.401001,-1.93359,0,0,0.0610352,0.999542,0.0212097,0.00744629,-0.0170593,-28186,-18195,12484,-9167,-28641
69719,-0.14834,0.397168,9.79521,2.79053,0.401001,-1.93359,-0.12207,0,0.0610352,0.999542,0.0212097,0.00744629,-0.0170593,-28186,-17939,11460,-9167,-28641
69725,-0.14834,0.421094,9.77607,2.79053,0.401001,-1.93359,0,0,0,0.999542,0.0212097,0.00744629,-0.0170593,-27930,-17427,10180,-9167,-28641
69731,-0.15791,0.401953,9.77607,2.79053,0.401001,-1.93359,0,0,0,0.999542,0.0212097,0.00744629,-0.0170593,-27930,-17171,9668,-9167,-28641
69737,-0.15791,0.406738,9.82393,2.79053,0.401001,-1.93359,0,-0.0610352,0.244141,0.999542,0.0212097,0.00744629,-0.0170593,-27930,-17171,10180,-9167,-28641
69743,-0.133984,0.435449,9.77607,2.78503,0.395508,-1.93359,-0.12207,-0.0610352,0.0610352,0.999542,0.0212097,0.00744629,-0.0170288,-28186,-18451,11716,-9167,-28641
69749,-0.162695,0.411523,9.79521,2.78503,0.395508,-1.93359,-0.0610352,-0.0610352,0,0.999542,0.0212097,0.00744629,-0.0170288,-27930,-19219,11716,-9167,-28641
69755,-0.14834,0.425879,9.79043,2.78503,0.395508,-1.93359,0,0,0,0.999542,0.0212097,0.00744629,-0.0170288,-27674,-19987,10948,-9167,-28641
69761,-0.124414,0.416309,9.78086,2.78503,0.395508,-1.93359,0,0,-0.0610352,0.999542,0.0212097,0.00744629,-0.0170288,-27162,-20499,10692,-9167,-28641
69767,-0.14834,0.411523,9.80479,2.78503,0.395508,-1.93359,0,0,-0.0610352,0.999542,0.0212097,0.00741577,-0.0170288,-26650,-20243,10948,-9167,-28641
69773,-0.143555,0.416309,9.79043,2.78503,0.395508,-1.93359,0,-0.0610352,0,0.999542,0.0212097,0.00741577,-0.0170288,-25370,-20499,13252,-9167,-28641
69779,-0.153125,0.421094,9.78564,2.78503,0.395508,-1.93359,0,0,0.0610352,0.999542,0.0212097,0.00741577,-0.0170288,-25370,-20243,14020,-9167,-28641
69785,-0.172266,0.430664,9.8,2.78503,0.395508,-1.93359,-0.0610352,-0.0610352,0.0610352,0.999542,0.0212097,0.00741577,-0.0170288,-25370,-19731,14276,-9167,-28641
69791,-0.153125,0.411523,9.79521,2.78503,0.395508,-1.93359,0,0.0610352,0,0.999542,0.0212097,0.00741577,-0.0170288,-25882,-19731,13764,-9167,-28641
69797,-0.13877,0.411523,9.78564,2.78503,0.395508,-1.93359,0,0,-0.0610352,0.999542,0.0212097,0.00741577,-0.0170288,-26394,-19475,14020,-9167,-28641
69803,-0.114844,0.430664,9.79043,2.78503,0.395508,-1.93359,0,0,0,0.999542,0.0212097,0.00741577,-0.0170288,-27162,-18963,15044,-9167,-28641
69809,-0.143555,0.430664,9.80479,2.78503,0.395508,-1.93359,-0.0610352,0,0,0.999542,0.0212097,0.00741577,-0.0170288,-27162,-18195,14788,-9167,-28641
69815,-0.14834,0.406738,9.79043,2.78503,0.395508,-1.93359,0,0.0610352,0.0610352,0.999542,0.0212097,0.00741577,-0.0170288,-26906,-17683,14532,-9167,-28641
69821,-0.14834,0.411523,9.79521,2.78503,0.395508,-1.93359,0,-0.0610352,0,0.999542,0.0212097,0.00741577,-0.0170288,-26650,-17427,14020,-9167,-28641
69827,-0.14834,0.421094,9.79043,2.78503,0.395508,-1.93359,0.0610352,0,0.0610352,0.999542,0.0211792,0.00741577,-0.0170288,-26650,-17171,13764,-9167,-28641
69833,-0.14834,0.411523,9.79521,2.78503,0.395508,-1.93359,-0.12207,-0.0610352,0.0610352,0.999542,0.0212097,0.00741577,-0.0170288,-27418,-18195,15044,-9167,-28641
69839,-0.172266,0.411523,9.77129,2.78503,0.395508,-1.93359,-0.0610352,-0.12207,0,0.999542,0.0211792,0.00741577,-0.0170288,-27674,-18707,15556,-9167,-28641
69845,-0.129199,0.406738,9.78086,2.78503,0.395508,-1.93359,-0.0610352,0,0,0.999542,0.0211792,0.00741577,-0.0170288,-27418,-18963,16068,-9167,-28641
69851,-0.162695,0.416309,9.8335,2.78503,0.395508,-1.93359,0,-0.0610352,0,0.999542,0.0211792,0.00741577,-0.0170288,-27674,-18963,16324,-9167,-28641
69857,-0.153125,0.411523,9.81436,2.78503,0.395508,-1.93359,-0.12207,0,0,0.999542,0.0211792,0.00741577,-0.0170288,-27674,-18963,16068,-9167,-28641
69863,-0.13877,0.411523,9.79521,2.78503,0.395508,-1.93359,-0.0610352,0.0610352,0,0.999542,0.0211792,0.00741577,-0.0170288,-27674,-19731,17092,-9167,-28641
69869,-0.129199,0.406738,9.78564,2.78503,0.395508,-1.93359,0,0,0,0.999542,0.0211792,0.00741577,-0.0170288,-27930,-19987,17348,-9167,-28641
69875,-0.129199,0.411523,9.77129,2.78503,0.395508,-1.93359,-0.0610352,0.0610352,0,0.999542,0.0211792,0.00741577,-0.0170288,-28186,-19731,17860,-9167,-28641
69881,-0.15791,0.421094,9.78564,2.78503,0.395508,-1.93359,0,0.0610352,0,0.999542,0.0211792,0.00741577,-0.0170288,-28698,-19731,17860,-9167,-28641
69887,-0.143555,0.425879,9.78086,2.78503,0.395508,-1.93359,0,-0.0610352,0,0.999542,0.0211792,0.00741577,-0.0170288,-29210,-19731,16836,-9167,-28641
69893,-0.13877,0.421094,9.79521,2.78503,0.395508,-1.93359,-0.0610352,0,0,0.999542,0.0211792,0.00741577,-0.0170288,-30234,-20243,14020,-9167,-28641
69899,-0.143555,0.392383,9.80957,2.78503,0.395508,-1.93359,0,-0.12207,0,0.999542,0.0211792,0.00741577,-0.0170288,-29978,-20499,13764,-9167,-28641
69905,-0.172266,0.411523,9.80479,2.78503,0.395508,-1.93359,0.0610352,0,0,0.999542,0.0211792,0.00741577,-0.0170288,-29978,-20499,13508,-9167,-28641
69911,-0.143555,0.440234,9.79043,2.78503,0.395508,-1.93359,0,0.0610352,0,0.999542,0.0211792,0.00741577,-0.0170288,-29978,-20243,14532,-9167,-28641
69917,-0.14834,0.416309,9.79521,2.78503,0.395508,-1.93359,0,0.0610352,0,0.999542,0.0211792,0.00741577,-0.0170288,-30490,-20243,15556,-9167,-28641
69923,-0.13877,0.406738,9.78086,2.78503,0.395508,-1.93359,-0.0610352,0,0,0.999542,0.0211792,0.00741577,-0.0170288,-31514,-20755,17860,-9167,-28641
69929,-0.153125,0.425879,9.79521,2.78503,0.395508,-1.93359,0,0.0610352,0,0.999542,0.0211792,0.00741577,-0.0170288,-31514,-20755,18884,-9167,-28641
69935,-0.119629,0.425879,9.77129,2.78503,0.395508,-1.93359,-0.12207,0,0,0.999542,0.0211792,0.00741577,-0.0170288,-31002,-21011,19652,-9167,-28641
69941,-0.143555,0.421094,9.78086,2.78503,0.395508,-1.93359,0,0.0610352,0,0.999542,0.0211792,0.00741577,-0.0170288,-30746,-21011,19908,-9167,-28641
69947,-0.153125,0.406738,9.78564,2.78503,0.395508,-1.93359,0,0,0,0.999542,0.0211792,0.00741577,-0.0170288,-30234,-21011,19396,-9167,-28641
69953,-0.14834,0.406738,9.79043,2.78503,0.395508,-1.93359,0,0,0,0.999542,0.0211792,0.00741577,-0.0170288,-29978,-21011,18372,-9167,-28641
69959,-0.162695,0.421094,9.79043,2.78503,0.395508,-1.93359,-0.12207,0,0,0.999542,0.0211792,0.00741577,-0.0170288,-29722,-21523,18628,-9167,-28641
69965,-0.162695,0.406738,9.79043,2.78503,0.395508,-1.93359,0,0,0,0.999542,0.0211792,0.00741577,-0.0170288,-29978,-21523,19652,-9167,-28641
69971,-0.14834,0.411523,9.79043,2.78503,0.395508,-1.93359,0,-0.12207,0,0.999542,0.0211792,0.00741577,-0.0170288,-29978,-21523,20676,-9167,-28641
69977,-0.162695,0.421094,9.77129,2.78503,0.395508,-1.93359,0,-0.0610352,0,0.999542,0.0211792,0.00741577,-0.0170288,-29722,-21779,21700,-9167,-28641
69983,-0.14834,0.406738,9.78564,2.78503,0.395508,-1.93359,-0.0610352,-0.0610352,0,0.999542,0.0211792,0.00738525,-0.0170288,-30234,-21267,21700,-9167,-28641
69989,-0.14834,0.411523,9.80957,2.78503,0.390015,-1.93359,-0.0610352,-0.12207,0,0.999542,0.0211792,0.00738525,-0.0170288,-30746,-21011,21188,-9167,-28641
69995,-0.16748,0.430664,9.79043,2.78503,0.390015,-1.93359,-0.183105,-0.0610352,0,0.999542,0.0211792,0.00738525,-0.0170288,-31258,-20499,19652,-9167,-28641
70001,-0.14834,0.397168,9.78564,2.78503,0.390015,-1.93359,-0.0610352,0.0610352,0,0.999573,0.0211487,0.00738525,-0.0170288,-31770,-20243,19140,-9167,-28641
70007,-0.15791,0.387598,9.80479,2.78503,0.390015,-1.93359,-0.0610352,0,0,0.999573,0.0211487,0.00738525,-0.0170288,-31514,-19987,18372,-9167,-28641
70013,-0.14834,0.401953,9.7665,2.78503,0.390015,-1.93359,0,0,0,0.999573,0.0211487,0.00738525,-0.0170288,-31514,-20243,18628,-9167,-28641
70019,-0.133984,0.416309,9.8,2.78503,0.390015,-1.93359,0,0,0,0.999573,0.0211487,0.00738525,-0.0170288,-31002,-20243,19396,-9167,-28641
70025,-0.162695,0.406738,9.79043,2.78503,0.390015,-1.93359,0,0,0,0.999573,0.0211487,0.00738525,-0.0170288,-31002,-20499,20164,-9167,-28641
70031,-0.13877,0.425879,9.8,2.78503,0.390015,-1.93359,0,0,0,0.999573,0.0211487,0.00738525,-0.0170288,-30746,-21011,20164,-9167,-28641
70037,-0.162695,0.435449,9.78564,2.77954,0.395508,-1.93359,0,0.0610352,0,0.999573,0.0211487,0.00738525,-0.0170288,-30234,-20755,20420,-9167,-28641
70043,-0.14834,0.425879,9.80957,2.77954,0.395508,-1.93359,0,0.0610352,0,0.999573,0.0211487,0.00738525,-0.0170288,-29978,-21011,19908,-9167,-28641
70049,-0.14834,0.397168,9.78086,2.77954,0.395508,-1.93359,0,0,0,0.999573,0.0211487,0.00738525,-0.0170288,-29722,-21267,19140,-9167,-28641
70055,-0.133984,0.425879,9.79521,2.77954,0.395508,-1.93359,0,0,0,0.999573,0.0211487,0.00738525,-0.0170288,-29210,-21779,18628,-9167,-28641
70061,-0.14834,0.406738,9.78564,2.77954,0.390015,-1.93359,-0.0610352,-0.12207,0,0.999573,0.0211487,0.00738525,-0.0170288,-28954,-22803,17604,-9167,-28641
70067,-0.133984,0.397168,9.80479,2.77954,0.390015,-1.93359,0,0,0,0.999573,0.0211487,0.00738525,-0.0170288,-28698,-23059,16836,-9167,-28641
70073,-0.14834,0.397168,9.79521,2.77954,0.390015,-1.93359,-0.0610352,0.0610352,0,0.999573,0.0211487,0.00738525,-0.0170288,-28186,-23315,15044,-9167,-28641
70079,-0.16748,0.411523,9.78564,2.77954,0.390015,-1.93359,-0.0610352,-0.0610352,0,0.999573,0.0211487,0.00738525,-0.0170288,-28442,-23827,14532,-9167,-28641
70085,-0.13877,0.392383,9.8,2.77954,0.390015,-1.93359,0,0,0,0.999573,0.0211487,0.00738525,-0.0170288,-28698,-24339,14276,-9167,-28641
70091,-0.153125,0.416309,9.8,2.77954,0.390015,-1.93359,-0.0610352,0,0,0.999573,0.0211487,0.00738525,-0.0170288,-28954,-25363,14276,-9167,-28641
70097,-0.153125,0.416309,9.80957,2.77954,0.390015,-1.93359,-0.12207,0,0,0.999573,0.0211487,0.00738525,-0.0170288,-29210,-25875,14276,-9167,-28641
70103,-0.133984,0.421094,9.79043,2.77954,0.390015,-1.93359,0,-0.0610352,0,0.999573,0.0211487,0.00738525,-0.0170288,-29722,-26643,14276,-9167,-28641
70109,-0.14834,0.411523,9.80957,2.77954,0.390015,-1.93359,0,0,0,0.999573,0.0211487,0.00738525,-0.0170288,-29722,-26643,13764,-9167,-28641
70115,-0.15791,0.421094,9.78564,2.77954,0.390015,-1.93359,0,-0.0610352,0,0.999573,0.0211487,0.00738525,-0.0170288,-29466,-27155,12996,-9167,-28641
70121,-0.13877,0.392383,9.79521,2.77954,0.390015,-1.93359,0,-0.0610352,0,0.999573,0.0211487,0.00738525,-0.0170288,-29210,-27667,11972,-9167,-28641
70127,-0.143555,0.416309,9.79043,2.77954,0.390015,-1.93359,-0.0610352,0,0,0.999573,0.0211182,0.00738525,-0.0170288,-29210,-27923,11716,-9167,-28641
70133,-0.153125,0.392383,9.77129,2.77954,0.390015,-1.93359,0,-0.0610352,0,0.999573,0.0211182,0.00738525,-0.0170288,-28954,-27923,11460,-9167,-28641
70139,-0.172266,0.411523,9.82393,2.77954,0.390015,-1.93359,0,0,0,0.999573,0.0211182,0.00738525,-0.0170288,-28954,-27411,11460,-9167,-28641
70145,-0.162695,0.416309,9.82393,2.77954,0.390015,-1.93359,0,-0.305176,0,0.999573,0.0211182,0.00738525,-0.0170288,-28698,-27411,11972,-9167,-28641
70151,-0.16748,0.425879,9.7665,2.77954,0.390015,-1.93359,-0.244141,0.0610352,0,0.999573,0.0211182,0.00735474,-0.0170288,-28954,-27667,11972,-9167,-28641
70157,-0.162695,0.440234,9.79043,2.77954,0.390015,-1.93359,0,-0.0610352,0,0.999573,0.0211182,0.00738525,-0.0170288,-28954,-27667,11972,-9167,-28641
70163,-0.153125,0.416309,9.74258,2.77954,0.390015,-1.93359,0,0,0,0.999573,0.0211182,0.00735474,-0.0170288,-28442,-26899,14532,-9167,-28641
70169,-0.172266,0.416309,9.80957,2.77954,0.390015,-1.93359,0,0.183105,0,0.999573,0.0211182,0.00735474,-0.0170288,-28698,-25619,15300,-9167,-28641
70175,-0.162695,0.435449,9.82393,2.77954,0.390015,-1.93359,0.12207,0,0,0.999573,0.0211182,0.00738525,-0.0170288,-29210,-24595,15812,-9167,-28641
70181,1.20107,2.95723,8.15391,2.83997,0.390015,-1.96106,12.0239,0.305176,-5.79834,0.999573,0.0211182,0.00738525,-0.0170288,-29722,-23827,16068,-9167,-28641
70187,-4.1918,-2.71797,15.7288,2.88391,0.197754,-2.06543,1.52588,-16.2964,-8.60596,0.999542,0.0219421,0.00631714,-0.0177307,-29978,-23059,15556,-9167,-28641
70193,-0.818262,-0.880469,13.6664,2.77405,0.274658,-1.98853,-21.4233,16.1133,14.4043,0.999542,0.0220032,0.00564575,-0.0181274,-28954,-20755,15300,-9167,-28641
70199,0.885254,-0.392383,8.75205,2.96631,0.285645,-1.81274,37.6587,3.05176,34.4849,0.999573,0.0210876,0.00637817,-0.0174866,-27674,31725,14788,-9167,-28641
70205,1.09102,0.468945,6.42647,3.05969,0.203247,-1.65344,19.2261,-15.8081,33.3862,0.999542,0.0227051,0.00646973,-0.0159912,-26394,-31251,14276,-9167,-28641
70211,0.62207,0.339746,8.16826,3.01025,0.186768,-1.6095,-9.21631,-2.38037,8.48389,0.999542,0.0235291,0.0057373,-0.0145569,-24858,-29459,13508,-9167,-28641
70217,0.205762,0.660352,8.46494,2.83447,0.335083,-1.62598,-18.4937,17.4561,-1.0376,0.999573,0.0223694,0.00613403,-0.0143127,-23578,-28179,12484,-9167,-28641
70223,-0.244043,0.660352,10.8097,2.66968,0.379028,-1.62598,-32.4097,9.64355,-0.183105,0.999603,0.0215759,0.00692749,-0.0143433,-22298,-26899,10948,-9167,-28641
70229,-0.684277,-0.526367,11.9007,2.70813,0.390015,-1.6095,7.26318,1.83105,2.50244,0.999634,0.0201721,0.00735474,-0.0143433,-22554,-27155,9924,-9167,-28641
70235,-0.593359,0.693848,9.33584,2.8125,0.335083,-1.6095,21.5454,-10.5591,1.09863,0.999603,0.0204773,0.00744629,-0.0142212,-22554,-27411,9412,-9167,-28641
70241,-0.0143555,0.722559,9.34541,2.8894,0.263672,-1.604,15.2588,-15.1978,2.0752,0.999603,0.0214233,0.00695801,-0.0141907,-22298,-27923,9412,-9167,-28641
70247,-0.162695,0.401953,9.85742,2.83447,0.274658,-1.604,-11.2915,0.305176,-0.0610352,0.999603,0.0220642,0.00637817,-0.0141296,-21786,-28691,9924,-9167,-28641
70253,0.0287109,0.153125,10.2354,2.83447,0.291138,-1.604,-0.427246,3.2959,-0.183105,0.999603,0.0215759,0.00640869,-0.0141296,-20506,-29203,6596,-9167,-28641
70259,-0.220117,0.512012,9.45547,2.86194,0.274658,-1.59851,6.22559,-3.78418,0.366211,0.999603,0.0215759,0.00656128,-0.0141296,-19994,-29971,5060,-9167,-28641
70265,0.0143555,0.540723,9.87178,2.87292,0.274658,-1.59851,1.70898,-0.0610352,0,0.999603,0.0218201,0.00640869,-0.0141296,-19482,-29971,3268,-9167,-28641
70271,-0.153125,0.512012,9.73779,2.86194,0.291138,-1.59851,-1.83105,3.11279,0,0.999603,0.0219116,0.00637817,-0.0141296,-18970,-30483,3268,-9167,-28641
70277,-0.205762,0.339746,10.0488,2.80151,0.32959,-1.59851,-4.45557,2.99072,-0.305176,0.999603,0.0215149,0.00674438,-0.0141296,-18458,-30739,5060,-9167,-28641
70283,-0.191406,0.349316,10.1828,2.80701,0.32959,-1.59851,0.854492,0,0.183105,0.999603,0.0213013,0.00689697,-0.0141296,-17946,-29203,9668,-9167,-28641
70289,-0.153125,0.430664,9.71387,2.82349,0.318604,-1.59851,2.62451,-2.2583,0.305176,0.999603,0.0213623,0.00689697,-0.0141296,-17690,-28947,11716,-9167,-28641
70295,-0.0861328,0.449805,9.57988,2.82898,0.307617,-1.59851,1.58691,-2.01416,0.183105,0.999603,0.0214539,0.00680542,-0.0140991,-17946,-28179,13508,-9167,-28641
70301,-0.0861328,0.459375,9.7665,2.82898,0.302124,-1.59851,0.0610352,-0.793457,0.0610352,0.999603,0.0215454,0.00671387,-0.0140991,-18202,-27667,14532,-9167,-28641
70307,-0.124414,0.425879,9.76172,2.83447,0.307617,-1.59851,1.09863,0.244141,0,0.999603,0.0215149,0.00668335,-0.0140991,-17690,-26899,15044,-9167,-28641
70313,-0.114844,0.468945,9.69473,2.82898,0.307617,-1.59851,-0.732422,0.671387,0,0.999603,0.0215454,0.00668335,-0.0140991,-17178,-26387,15044,-9167,-28641
70319,-0.133984,0.406738,9.92441,2.81799,0.318604,-1.59851,-2.01416,1.46484,0,0.999603,0.0215149,0.00671387,-0.0140991,-16410,-26131,14788,-9167,-28641
70325,-0.162695,0.401953,9.87178,2.81799,0.318604,-1.59851,0.244141,0.549316,0.0610352,0.999603,0.0214233,0.00680542,-0.0140991,-15898,-26131,15044,-9167,-28641
70331,-0.114844,0.425879,9.68516,2.82349,0.318604,-1.59851,0.305176,0,0.0610352,0.999603,0.0214539,0.00680542,-0.0140991,-16154,-26131,14532,-9167,-28641
70337,-0.14834,0.425879,9.87656,2.82349,0.318604,-1.59851,0.488281,-0.0610352,0,0.999603,0.0214539,0.00680542,-0.0140991,-15898,-27155,14020,-9167,-28641
70343,-0.133984,0.44502,9.65166,2.82349,0.31311,-1.59851,0.183105,-0.427246,0,0.999603,0.0214844,0.00680542,-0.0140991,-15642,-27411,14020,-9167,-28641
70349,-0.14834,0.411523,9.83828,2.81799,0.31311,-1.59851,-0.976562,-0.305176,0,0.999603,0.0214844,0.0067749,-0.0140991,-15130,-27155,14532,-9167,-28641
70355,-0.13877,0.411523,9.97705,2.81799,0.31311,-1.59851,0,0,0.12207,0.999603,0.0214539,0.0067749,-0.0140991,-27162,-27411,15044,-9167,-28641
70361,-0.129199,0.440234,9.72344,2.82349,0.31311,-1.59851,0.488281,0.0610352,0,0.999603,0.0214539,0.0067749,-0.0140991,-25370,-27155,16068,-9167,-28641
70367,-0.133984,0.406738,9.81914,2.81799,0.318604,-1.59851,-0.427246,0.488281,-0.0610352,0.999603,0.0214539,0.0067749,-0.0140991,-23322,-27155,17348,-9167,-28641
70373,-0.119629,0.425879,9.80957,2.81799,0.318604,-1.59851,-0.244141,0.183105,0,0.999603,0.0214539,0.00680542,-0.0140991,-22554,-27155,18372,-9167,-28641
70379,-0.114844,0.435449,9.83828,2.81799,0.318604,-1.59851,-0.0610352,0.0610352,0.0610352,0.999603,0.0214233,0.00680542,-0.0140991,-21786,-27411,19140,-9167,-28641
70385,-0.162695,0.406738,9.83828,2.81799,0.318604,-1.59302,0.366211,-0.0610352,0.12207,0.999603,0.0214233,0.00680542,-0.0140991,-21274,-28179,19652,-9167,-28641
70391,-0.133984,0.44502,9.77129,2.82349,0.318604,-1.59302,0.366211,-0.305176,0.0610352,0.999603,0.0214539,0.00680542,-0.0140686,-20762,-29203,20164,-9167,-28641
70397,-0.110059,0.440234,9.78086,2.81799,0.318604,-1.59302,-0.366211,0.0610352,0,0.999603,0.0214844,0.00680542,-0.0140686,-19994,-30227,19908,-9167,-28641
70403,-0.124414,0.425879,9.8,2.81799,0.318604,-1.59302,-0.366211,0.12207,-0.0610352,0.999603,0.0214539,0.00680542,-0.0140686,-19994,-30483,19396,-9167,-28641
70409,-0.114844,0.425879,9.88613,2.81799,0.318604,-1.59851,-0.305176,0.12207,-0.12207,0.999603,0.0214539,0.00680542,-0.0140686,-19738,-30227,18372,-9167,-28641
70415,-0.14834,0.440234,9.74736,2.81799,0.318604,-1.59851,0.305176,0,0,0.999603,0.0214233,0.00680542,-0.0140991,-19482,-29971,17092,-9167,-28641
70421,-0.143555,0.430664,9.72822,2.81799,0.318604,-1.59851,-0.0610352,0,0,0.999603,0.0214539,0.00680542,-0.0140991,-19738,-29459,15556,-9167,-28641
70427,-0.153125,0.425879,9.84307,2.81799,0.318604,-1.59851,0,0.0610352,0.12207,0.999603,0.0214233,0.00680542,-0.0140991,-19994,-28435,13508,-9167,-28641
70433,-0.153125,0.430664,9.81914,2.81799,0.318604,-1.59302,0.12207,0,0.0610352,0.999603,0.0214539,0.00680542,-0.0140991,-20250,-27923,12228,-9167,-28641
70439,-0.153125,0.44502,9.81436,2.81799,0.318604,-1.59302,0.0610352,0,0.0610352,0.999603,0.0214539,0.00680542,-0.0140686,-20250,-27411,11204,-9167,-28641
70445,-0.133984,0.425879,9.77129,2.81799,0.318604,-1.59302,0,0,0,0.999603,0.0214539,0.00680542,-0.0140686,-19738,-27667,10436,-9167,-28641
70451,-0.110059,0.421094,9.74258,2.81799,0.318604,-1.59302,-0.183105,0,0.0610352,0.999603,0.0214539,0.00680542,-0.0140686,-19226,-27667,10436,-9167,-28641
70457,-0.119629,0.421094,9.8335,2.81799,0.318604,-1.59302,-0.305176,0,0,0.999603,0.0214233,0.00680542,-0.0140686,-18458,-28691,12484,-9167,-28641
70463,-0.124414,0.416309,9.80479,2.81799,0.318604,-1.59302,0,-0.0610352,0,0.999603,0.0214233,0.00680542,-0.0140686,-17946,-28691,13764,-9167,-28641
70469,-0.133984,0.406738,9.80479,2.81799,0.318604,-1.59302,0,0,-0.0610352,0.999603,0.0214233,0.00680542,-0.0140686,-17946,-28947,14532,-9167,-28641
70475,-0.110059,0.406738,9.77607,2.81799,0.318604,-1.59851,0,-0.0610352,-0.0610352,0.999603,0.0214233,0.00680542,-0.0140686,-17690,-28947,14788,-9167,-28641
70481,-0.133984,0.421094,9.77129,2.81799,0.318604,-1.59302,-0.0610352,0.12207,0,0.999603,0.0214233,0.00680542,-0.0140686,-16922,-28947,14276,-9167,-28641
70487,-0.129199,0.421094,9.80479,2.81799,0.318604,-1.59851,0.0610352,0.0610352,-0.12207,0.999603,0.0214233,0.00683594,-0.0140686,-16410,-28691,15044,-9167,-28641
70493,-0.124414,0.421094,9.76172,2.81799,0.318604,-1.59851,-0.0610352,-0.12207,0,0.999603,0.0214233,0.00683594,-0.0140991,-16154,-28691,16580,-9167,-28641
70499,-0.143555,0.411523,9.78564,2.81799,0.318604,-1.59851,-0.183105,0,0.0610352,0.999603,0.0214233,0.00680542,-0.0140991,-15898,-28947,18116,-9167,-28641
70505,-0.133984,0.387598,9.81436,2.81799,0.318604,-1.59851,0,0.0610352,0,0.999603,0.0214233,0.00680542,-0.0140991,-15898,-29203,20164,-9167,-28641
70511,-0.13877,0.416309,9.78086,2.81799,0.318604,-1.59302,-0.244141,-0.0610352,0.0610352,0.999603,0.0214233,0.00680542,-0.0140686,-15386,-29459,20932,-9167,-28641
70517,-0.133984,0.449805,9.7665,2.81799,0.318604,-1.59851,0,0,-0.0610352,0.999603,0.0214233,0.00680542,-0.0140991,-14618,-29203,21956,-9167,-28641
70523,-0.143555,0.430664,9.80957,2.81799,0.318604,-1.59851,0,0,0,0.999603,0.0214233,0.00680542,-0.0140991,-14362,-28947,21700,-9167,-28641
70529,-0.133984,0.416309,9.82393,2.81799,0.318604,-1.59851,0.0610352,0,-0.0610352,0.999603,0.0214233,0.00680542,-0.0140991,-14618,-28435,21956,-9167,-28641
70535,-0.129199,0.435449,9.82393,2.81799,0.318604,-1.59851,0,0,0.183105,0.999603,0.0214233,0.00680542,-0.0140991,-14618,-28179,22212,-9167,-28641
70541,-0.119629,0.440234,9.78086,2.81799,0.318604,-1.59851,0,0,-0.183105,0.999603,0.0214233,0.00680542,-0.0140991,-14618,-28179,22212,-9167,-28641
70547,-0.119629,0.425879,9.8,2.81799,0.318604,-1.59851,0,0,0,0.999603,0.0214233,0.00680542,-0.0140991,-14874,-28947,23236,-9167,-28641
70553,-0.133984,0.430664,9.79521,2.81799,0.318604,-1.59851,0,0,0,0.999603,0.0214233,0.00680542,-0.0140991,-14874,-29459,23236,-9167,-28641
70559,-0.143555,0.435449,9.76172,2.81799,0.318604,-1.59851,0.0610352,0.0610352,0,0.999603,0.0214233,0.00680542,-0.0140991,-15130,-29971,23748,-9167,-28641
70565,-0.129199,0.435449,9.78086,2.81799,0.318604,-1.59851,-0.12207,0,-0.0610352,0.999603,0.0214233,0.00680542,-0.0140991,-15130,-30227,24260,-9167,-28641
70571,-0.143555,0.44502,9.80479,2.81799,0.318604,-1.59851,0,0.0610352,0,0.999603,0.0214233,0.00680542,-0.0140991,-15642,-30483,23492,-9167,-28641
70577,-0.143555,0.435449,9.8,2.81799,0.318604,-1.59851,0,0,0,0.999603,0.0214233,0.00680542,-0.0140991,-15898,-30995,21188,-9175,-28640
70583,-0.124414,0.421094,9.77129,2.81799,0.318604,-1.59851,0,0,-0.0610352,0.999603,0.0214233,0.00680542,-0.0140991,-16410,-30739,19908,-9175,-28640
70589,-0.143555,0.425879,9.77129,2.81799,0.318604,-1.59851,0.0610352,0,0,0.999603,0.0214233,0.00680542,-0.0140991,-16666,-30739,18628,-9167,-28641
70595,-0.143555,0.416309,9.79521,2.81799,0.318604,-1.59851,0,-0.12207,0,0.999603,0.0214233,0.00680542,-0.0140991,-16410,-30739,17348,-9167,-28641
70601,-0.13877,0.416309,9.80957,2.81799,0.318604,-1.59851,0,0.0610352,0,0.999603,0.0214233,0.00680542,-0.0140991,-16410,-30483,16068,-9167,-28641
70607,-0.119629,0.397168,9.81914,2.81799,0.318604,-1.59851,-0.0610352,0,-0.0610352,0.999603,0.0214233,0.00680542,-0.0140991,-16154,-29459,15300,-9167,-28641
70613,-0.133984,0.416309,9.81436,2.81799,0.318604,-1.59851,-0.0610352,0,0,0.999603,0.0214233,0.00680542,-0.0140991,-15898,-28947,14788,-9167,-28641
70619,-0.124414,0.440234,9.79043,2.81799,0.318604,-1.59851,0,0,0,0.999603,0.0214233,0.00680542,-0.0140991,-15898,-28691,15300,-9167,-28641
70625,-0.143555,0.425879,9.7665,2.81799,0.318604,-1.59851,-0.0610352,0,0,0.999603,0.0214233,0.00680542,-0.0140991,-15898,-29203,16836,-9167,-28641
70631,-0.124414,0.416309,9.80957,2.81799,0.318604,-1.59851,0,0,-0.0610352,0.999603,0.0214233,0.00680542,-0.0140991,-16154,-29459,18116,-9167,-28641
70637,-0.13877,0.416309,9.78564,2.81799,0.318604,-1.59851,0,0.0610352,0,0.999603,0.0214233,0.00680542,-0.0140991,-15386,-29971,19652,-9167,-28641
70643,-0.162695,0.411523,9.80479,2.81799,0.318604,-1.59851,0,0,-0.0610352,0.999603,0.0214233,0.00680542,-0.0140991,-14874,-30483,20164,-9167,-28641
70649,-0.143555,0.435449,9.77129,2.81799,0.318604,-1.59851,0,0,0.0610352,0.999603,0.0214233,0.00680542,-0.0140991,-14618,-30739,20164,-9167,-28641
70655,-0.143555,0.44502,9.77129,2.81799,0.318604,-1.59851,0,0,-0.0610352,0.999603,0.0214233,0.00680542,-0.0140991,-14618,-30995,20420,-9167,-28641
70661,-0.162695,0.416309,9.80479,2.81799,0.318604,-1.59851,0,-0.0610352,-0.12207,0.999603,0.0214233,0.00680542,-0.0140991,-14618,-31507,20676,-9167,-28641
70667,-0.119629,0.416309,9.79043,2.81799,0.318604,-1.59851,0,0.0610352,0,0.999603,0.0214233,0.0067749,-0.0140991,-15130,-31507,20420,-9167,-28641
70673,-0.13877,0.430664,9.80957,2.81799,0.318604,-1.59851,-0.12207,0,0,0.999603,0.0214233,0.0067749,-0.0140991,-15642,-30995,19908,-9167,-28641
70679,-0.124414,0.416309,9.77607,2.81799,0.318604,-1.59851,0,0,-0.0610352,0.999603,0.0214233,0.0067749,-0.0140991,-16410,-30739,19652,-9167,-28641
70685,-0.133984,0.425879,9.76172,2.81799,0.318604,-1.59851,-0.0610352,0,0,0.999603,0.0214233,0.0067749,-0.0141296,-16666,-30227,19652,-9167,-28641
70691,-0.129199,0.430664,9.80957,2.81799,0.318604,-1.59851,0,0,0,0.999603,0.0214233,0.0067749,-0.0141296,-16922,-30227,19908,-9167,-28641
70697,-0.124414,0.440234,9.77607,2.81799,0.318604,-1.59851,-0.0610352,0,0,0.999603,0.0214233,0.00680542,-0.0141296,-16922,-29971,21188,-9175,-28640
70703,-0.124414,0.425879,9.8,2.81799,0.318604,-1.59851,-0.0610352,0.0610352,-0.12207,0.999603,0.0214233,0.00680542,-0.0141296,-16922,-30227,20932,-9175,-28640
70709,-0.14834,0.411523,9.81436,2.81799,0.318604,-1.59851,0,0,-0.12207,0.999603,0.0214233,0.00680542,-0.0141296,-17178,-30483,19908,-9175,-28640
70715,-0.14834,0.406738,9.78564,2.81799,0.318604,-1.59851,-0.12207,0.0610352,0.0610352,0.999603,0.0214233,0.00680542,-0.0141296,-17434,-30995,20164,-9175,-28640
70721,-0.133984,0.435449,9.78086,2.81799,0.318604,-1.59851,0,0.0610352,0,0.999603,0.0214233,0.00680542,-0.0141296,-17178,-31507,20932,-9175,-28640
70727,-0.153125,0.406738,9.79043,2.81799,0.318604,-1.59851,0.0610352,0.183105,0,0.999603,0.0214233,0.00680542,-0.0141296,-16922,-32531,22980,-9175,-28640
70733,-0.143555,0.421094,9.82393,2.81799,0.318604,-1.59851,-0.183105,0,-0.0610352,0.999603,0.0214233,0.00680542,-0.0141296,-16922,-32531,23748,-9175,-28640
70739,-0.153125,0.411523,9.77607,2.81799,0.318604,-1.59851,0,0,0,0.999603,0.0214233,0.00680542,-0.0141296,-16666,-32019,24516,-9175,-28640
70745,-0.162695,0.416309,9.80957,2.81799,0.318604,-1.604,-0.0610352,0.12207,-0.305176,0.999603,0.0214233,0.00680542,-0.0141296,-16410,-30995,24004,-9175,-28640
70751,-0.143555,0.416309,9.77607,2.81799,0.318604,-1.604,0.0610352,0,0.0610352,0.999603,0.0214233,0.00680542,-0.0141296,-15898,-29715,23748,-9175,-28640
70757,-0.124414,0.430664,9.77129,2.81799,0.318604,-1.604,0,0,0.12207,0.999603,0.0214233,0.00680542,-0.0141296,-15386,-28947,22212,-9175,-28640
70763,-0.119629,0.435449,9.8,2.81799,0.318604,-1.604,0.0610352,0.12207,0,0.999603,0.0214233,0.00680542,-0.0141296,-15386,-28947,21444,-9175,-28640
70769,-0.114844,0.416309,9.79521,2.81799,0.318604,-1.604,-0.0610352,0.0610352,0,0.999603,0.0214233,0.00680542,-0.0141296,-15642,-29459,20676,-9175,-28640
70775,-0.153125,0.435449,9.79521,2.81799,0.318604,-1.604,0,0,0,0.999603,0.0214233,0.00680542,-0.0141296,-15642,-29459,20420,-9175,-28640
70781,-0.119629,0.435449,9.79043,2.81799,0.318604,-1.604,0,0,0,0.999603,0.0214233,0.00680542,-0.0141296,-15386,-29715,19908,-9175,-28640
70787,-0.114844,0.401953,9.78086,2.81799,0.318604,-1.604,0,0,0,0.999603,0.0214233,0.00680542,-0.0141296,-14618,-29971,18116,-9175,-28640
70793,-0.129199,0.401953,9.8,2.81799,0.318604,-1.604,0,0,0,0.999603,0.0214233,0.00680542,-0.0141296,-14874,-29715,16836,-9175,-28640
70799,-0.124414,0.425879,9.79521,2.81799,0.318604,-1.604,0,0.0610352,-0.0610352,0.999603,0.0214233,0.00680542,-0.0141296,-15130,-29203,15300,-9175,-28640
70805,-0.129199,0.425879,9.79521,2.81799,0.318604,-1.604,0,0,-0.12207,0.999603,0.0214233,0.00680542,-0.0141296,-15386,-28691,14020,-9175,-28640
70811,-0.124414,0.416309,9.7665,2.81799,0.318604,-1.604,0.0610352,0.0610352,-0.0610352,0.999603,0.0214233,0.00680542,-0.0141296,-15642,-29203,13252,-9175,-28640
70817,-0.143555,0.421094,9.8,2.81799,0.318604,-1.604,-0.12207,-0.0610352,0.0610352,0.999603,0.0214233,0.00680542,-0.0141602,-15898,-29971,11204,-9175,-28640
70823,-0.14834,0.411523,9.80957,2.81799,0.318604,-1.604,0,0,-0.0610352,0.999603,0.0214233,0.00680542,-0.0141296,-16154,-29971,10180,-9175,-28640
70829,-0.110059,0.425879,9.8,2.81799,0.318604,-1.604,0,-0.0610352,0.12207,0.999603,0.0214233,0.00680542,-0.0141602,-16154,-29971,10180,-9175,-28640
70835,-0.133984,0.406738,9.79521,2.81799,0.318604,-1.604,0,0,-0.0610352,0.999603,0.0214233,0.00680542,-0.0141296,-16154,-29971,10180,-9175,-28640
70841,-0.105273,0.416309,9.82393,2.81799,0.318604,-1.604,0,0,0,0.999603,0.0214233,0.00680542,-0.0141296,-15898,-29971,10948,-9175,-28640
70847,-0.13877,0.440234,9.80479,2.81799,0.318604,-1.604,-0.183105,-0.0610352,0,0.999603,0.0214233,0.00680542,-0.0141296,-15642,-29971,13764,-9175,-28640
70853,-0.110059,0.425879,9.79043,2.81799,0.318604,-1.604,0,0,0,0.999603,0.0214233,0.00680542,-0.0141296,-15642,-29971,15044,-9175,-28640
70859,-0.119629,0.421094,9.8,2.81799,0.318604,-1.604,0,0,-0.0610352,0.999603,0.0214233,0.00680542,-0.0141296,-15898,-29971,16324,-9175,-28640
70865,-0.14834,0.411523,9.81914,2.81799,0.318604,-1.604,0,-0.0610352,-0.183105,0.999603,0.0214233,0.00680542,-0.0141602,-16410,-29971,16580,-9175,-28640
70871,-0.143555,0.421094,9.78564,2.81799,0.318604,-1.604,0,0.0610352,-0.0610352,0.999603,0.0214233,0.00680542,-0.0141602,-16410,-30227,16068,-9175,-28640
70877,-0.119629,0.411523,9.78564,2.81799,0.318604,-1.604,0,0,-0.0610352,0.999603,0.0214233,0.00680542,-0.0141602,-16666,-29971,14276,-9175,-28640
70883,-0.124414,0.421094,9.8,2.8125,0.318604,-1.604,-0.183105,-0.0610352,0,0.999603,0.0214233,0.00680542,-0.0141602,-16666,-29715,13508,-9175,-28640
70889,-0.119629,0.397168,9.78086,2.81799,0.318604,-1.604,0.0610352,-0.12207,0.0610352,0.999603,0.0214233,0.0067749,-0.0141602,-16666,-29971,12484,-9175,-28640
70895,-0.124414,0.425879,9.77129,2.81799,0.318604,-1.604,-0.0610352,0,0,0.999603,0.0214233,0.0067749,-0.0141602,-16666,-30483,11460,-9175,-28640
70901,-0.153125,0.421094,9.78564,2.81799,0.318604,-1.604,0,0.0610352,0,0.999603,0.0214233,0.0067749,-0.0141602,-16154,-30995,10692,-9175,-28640
70907,-0.133984,0.416309,9.8,2.8125,0.318604,-1.604,-0.0610352,0,0.0610352,0.999603,0.0214233,0.0067749,-0.0141602,-16154,-31507,9412,-9175,-28640
70913,-0.153125,0.416309,9.77607,2.81799,0.318604,-1.604,0,0,-0.183105,0.999603,0.0214233,0.0067749,-0.0141602,-15898,-32019,9668,-9167,-28641
70919,-0.110059,0.416309,9.8,2.81799,0.318604,-1.604,0,0,0,0.999603,0.0214233,0.0067749,-0.0141602,-15642,-32275,9412,-9167,-28641
70925,-0.133984,0.440234,9.79521,2.81799,0.318604,-1.604,0,-0.0610352,0.0610352,0.999603,0.0214233,0.0067749,-0.0141602,-15642,-32019,9668,-9167,-28641
70931,-0.129199,0.406738,9.79043,2.81799,0.318604,-1.604,0,0,0.0610352,0.999603,0.0214233,0.0067749,-0.0141602,-15642,-32275,9668,-9175,-28640
70937,-0.110059,0.425879,9.78564,2.81799,0.318604,-1.604,0,0,-0.0610352,0.999603,0.0214233,0.0067749,-0.0141602,-15642,-32275,8388,-9175,-28640
70943,-0.114844,0.416309,9.79521,2.81799,0.318604,-1.604,0,0,-0.0610352,0.999603,0.0214233,0.0067749,-0.0141602,-15386,32749,7876,-9175,-28640
70949,-0.14834,0.430664,9.78564,2.81799,0.318604,-1.604,0,0,0,0.999603,0.0214233,0.0067749,-0.0141602,-15386,32237,7364,-9175,-28640
70955,-0.153125,0.406738,9.75693,2.81799,0.318604,-1.604,0,0.0610352,0,0.999603,0.0214233,0.0067749,-0.0141602,-15642,32237,6852,-9175,-28640
70961,-0.114844,0.425879,9.77607,2.81799,0.318604,-1.604,0,0,0,0.999603,0.0214233,0.0067749,-0.0141602,-15898,32237,6340,-9175,-28640
70967,-0.143555,0.449805,9.80957,2.8125,0.318604,-1.6095,-0.183105,0.183105,-0.305176,0.999603,0.0214233,0.0067749,-0.0141602,-16410,32493,5060,-9175,-28640
70973,-0.153125,0.425879,9.78564,2.8125,0.318604,-1.6095,0,0.0610352,0.0610352,0.999603,0.0214233,0.0067749,-0.0141907,-16666,32749,5316,-9175,-28640
70979,-0.133984,0.411523,9.80957,2.8125,0.318604,-1.604,-0.0610352,0,0.0610352,0.999603,0.0214233,0.0067749,-0.0141907,-16922,-32531,5316,-9175,-28640
70985,-0.14834,0.440234,9.78564,2.8125,0.318604,-1.604,-0.0610352,0,0.0610352,0.999603,0.0213928,0.0067749,-0.0141907,-17434,-32019,5316,-9175,-28640
70991,-0.124414,0.425879,9.80957,2.8125,0.318604,-1.604,0,0,0,0.999603,0.0213928,0.0067749,-0.0141602,-17434,-30995,6084,-9175,-28640
70997,-0.119629,0.435449,9.77607,2.8125,0.318604,-1.604,0,0,0,0.999603,0.0213928,0.0067749,-0.0141602,-17434,-29459,7876,-9175,-28640
71003,-0.143555,0.421094,9.79043,2.8125,0.318604,-1.604,0,0,-0.0610352,0.999603,0.0214233,0.0067749,-0.0141602,-17178,-29459,8644,-9175,-28640
71009,-0.143555,0.387598,9.78086,2.8125,0.318604,-1.604,0,0,0,0.999603,0.0214233,0.0067749,-0.0141907,-17178,-29459,9668,-9175,-28640
71015,-0.153125,0.416309,9.78564,2.8125,0.31311,-1.6095,-0.0610352,-0.0610352,-0.12207,0.999603,0.0214233,0.0067749,-0.0141907,-17434,-29715,10180,-9175,-28640
71021,-0.14834,0.425879,9.77607,2.8125,0.318604,-1.6095,0,0.244141,0,0.999603,0.0213928,0.0067749,-0.0141907,-17946,-29459,10948,-9175,-28640
71027,-0.143555,0.440234,9.80479,2.8125,0.318604,-1.6095,0,0,-0.0610352,0.999603,0.0214233,0.0067749,-0.0141907,-17946,-29715,12228,-9175,-28640
71033,-0.133984,0.406738,9.78086,2.8125,0.318604,-1.6095,-0.0610352,0.0610352,0,0.999603,0.0214233,0.0067749,-0.0141907,-17946,-29971,11716,-9175,-28640
71039,-0.133984,0.425879,9.77129,2.8125,0.318604,-1.6095,0,-0.0610352,-0.0610352,0.999603,0.0213928,0.0067749,-0.0141907,-18202,-30739,11460,-9175,-28640
71045,-0.13877,0.411523,9.7665,2.8125,0.318604,-1.6095,-0.0610352,0,0,0.999603,0.0213928,0.0067749,-0.0141907,-18458,-30739,10692,-9175,-28640
71051,-0.100488,0.406738,9.79521,2.8125,0.318604,-1.6095,0.12207,0.0610352,0,0.999603,0.0214233,0.0067749,-0.0141907,-18714,-30483,10692,-9175,-28640
71057,-0.133984,0.416309,9.82393,2.8125,0.318604,-1.6095,-0.12207,0,-0.0610352,0.999603,0.0213928,0.0067749,-0.0141907,-18202,-30227,12484,-9175,-28640
71063,-0.129199,0.430664,9.83828,2.8125,0.31311,-1.6095,0,-0.0610352,-0.183105,0.999603,0.0213928,0.0067749,-0.0141907,-18202,-30483,13508,-9175,-28640
71069,-0.133984,0.45459,9.79521,2.8125,0.31311,-1.6095,0,0,0,0.999603,0.0213928,0.0067749,-0.0141907,-17946,-30483,14532,-9175,-28640
71075,-0.129199,0.435449,9.79043,2.8125,0.31311,-1.6095,-0.0610352,0,-0.0610352,0.999603,0.0213928,0.0067749,-0.0141907,-17178,-30483,15044,-9175,-28640
71081,0.545508,1.56953,6.73272,2.8125,0.31311,-1.61499,21.2402,-2.86865,-6.7749,0.999603,0.0213928,0.0067749,-0.0142212,-16666,-29971,16068,-9175,-28640
71087,-0.77998,0.626855,10.0345,2.8125,0.324097,-1.66443,-21.5454,4.02832,-4.08936,0.999573,0.0223389,0.00662231,-0.0145264,-15386,-30483,17604,-9175,-28640
71093,-1.28242,-0.665137,14.3363,2.7356,0.362549,-1.64246,-16.6016,7.8125,4.5166,0.999603,0.0214233,0.00683594,-0.0147095,-14874,-30739,17604,-9175,-28640
71099,0.119629,-0.210547,10.5465,2.80151,0.368042,-1.61499,14.1602,1.70898,5.31006,0.999603,0.0206909,0.00717163,-0.0144958,-14618,-30995,17092,-9175,-28640
71105,0.0813477,0.483301,7.8668,2.86743,0.335083,-1.59851,12.8174,-7.32422,3.90625,0.999603,0.0213318,0.00723267,-0.0142517,-14618,-30739,16580,-9175,-28640
71111,-0.301465,0.655566,9.53682,2.86194,0.307617,-1.58203,-0.915527,-4.63867,2.74658,0.999603,0.0218201,0.00671387,-0.0139771,-14618,-30483,15044,-9175,-28640
71117,0.0957031,0.861328,8.38359,2.90588,0.31311,-1.58203,-0.610352,4.82178,-0.976562,0.999603,0.0222168,0.00653076,-0.0139465,-15130,-29971,13764,-9175,-28640
71123,-0.277539,0.660352,10.0536,2.82898,0.335083,-1.58752,-15.0146,4.76074,-0.488281,0.999573,0.0221863,0.00674438,-0.0139771,-15130,-29459,12740,-9175,-28640
71129,-0.0143555,0.15791,10.8479,2.79602,0.384521,-1.58752,-7.20215,9.58252,-0.549316,0.999603,0.0215454,0.00695801,-0.0140076,-15130,-28691,11972,-9175,-28640
71135,-0.354102,0.440234,9.86699,2.8125,0.379028,-1.58752,2.99072,-0.488281,0.244141,0.999603,0.0212402,0.00738525,-0.0140076,-15130,-28435,11460,-9175,-28640
71141,-0.143555,0.598145,9.85742,2.83997,0.368042,-1.58203,5.61523,-2.50244,0.305176,0.999603,0.021637,0.00723267,-0.0139771,-15386,-28179,11460,-9175,-28640
71147,-0.14834,0.425879,10.0153,2.83997,0.357056,-1.58203,-0.854492,0.488281,0.12207,0.999603,0.0216675,0.0071106,-0.0139771,-16922,-28691,10180,-9175,-28640
71153,-0.114844,0.382812,9.7043,2.83997,0.357056,-1.58203,-0.183105,-0.0610352,0.183105,0.999603,0.021637,0.00714111,-0.0139771,-17434,-28947,9156,-9175,-28640
71159,-0.090918,0.392383,9.56074,2.84546,0.357056,-1.58203,1.09863,-0.854492,-0.12207,0.999603,0.021637,0.00714111,-0.0139465,-17690,-29459,7876,-9175,-28640
71165,-0.0861328,0.430664,9.82871,2.85095,0.351562,-1.58203,0.427246,-0.671387,0.0610352,0.999603,0.021698,0.0071106,-0.0139771,-18202,-29715,7620,-9175,-28640
71171,-0.191406,0.406738,9.68994,2.84546,0.357056,-1.58203,-0.488281,1.15967,0,0.999603,0.021698,0.00714111,-0.0139771,-17946,-29971,7364,-9175,-28640
71177,-0.153125,0.392383,9.78086,2.83447,0.362549,-1.58203,-1.15967,0.183105,0,0.999603,0.021637,0.00720215,-0.0139465,-17434,-30995,7108,-9175,-28640
71183,-0.15791,0.406738,9.97705,2.83997,0.362549,-1.58203,0.671387,-0.427246,0,0.999603,0.0215759,0.00720215,-0.0139465,-17178,-31763,6852,-9175,-28640
71189,-0.119629,0.421094,9.80479,2.84546,0.362549,-1.58203,1.2207,-0.488281,0.0610352,0.999603,0.0216064,0.00720215,-0.0139771,-17178,-32275,6340,-9175,-28640
71195,-0.110059,0.411523,9.65645,2.84546,0.357056,-1.58203,0.427246,-0.183105,-0.12207,0.999603,0.0216675,0.00717163,-0.0139465,-17434,-32531,6084,-9175,-28640
71201,-0.133984,0.411523,9.86221,2.84546,0.362549,-1.58203,-0.0610352,-0.0610352,0.0610352,0.999603,0.0216675,0.00717163,-0.0139771,-18202,-32531,5572,-9175,-28640
71207,-0.124414,0.416309,9.76172,2.84546,0.357056,-1.58203,0.671387,-0.244141,0.183105,0.999603,0.0216675,0.00717163,-0.0139465,-18714,32749,4548,-9175,-28640
71213,-0.100488,0.45459,9.74258,2.85095,0.357056,-1.58203,0,-0.12207,0.12207,0.999603,0.021698,0.00717163,-0.0139465,-18458,32749,4804,-9175,-28640
71219,-0.13877,0.425879,9.91484,2.84546,0.362549,-1.57654,-1.09863,0.671387,0,0.999603,0.021698,0.00714111,-0.0139465,-18458,32493,5060,-9175,-28640
71225,-0.172266,0.406738,9.81436,2.83997,0.362549,-1.58203,-0.366211,0.488281,-0.183105,0.999603,0.0216675,0.00717163,-0.0139465,-17946,-32531,5572,-9175,-28640
71231,-0.13877,0.406738,9.79521,2.83997,0.362549,-1.58203,0.12207,-0.244141,0,0.999603,0.0216675,0.00720215,-0.0139465,-17434,32749,6084,-9175,-28640
71237,-0.129199,0.411523,9.81436,2.84546,0.362549,-1.58203,0,0.0610352,0,0.999603,0.0216675,0.00720215,-0.0139465,-16410,-32531,7876,-9175,-28640
71243,-0.143555,0.411523,9.74736,2.84546,0.362549,-1.58203,0.0610352,0.0610352,0.0610352,0.999603,0.0216675,0.00720215,-0.0139465,-16410,32749,9156,-9175,-28640
71249,-0.143555,0.425879,9.79043,2.84546,0.362549,-1.58203,-0.0610352,-0.0610352,0,0.999603,0.0216675,0.00720215,-0.0139465,-15898,32237,10436,-9175,-28640
71255,-0.129199,0.406738,9.86699,2.84546,0.362549,-1.58203,0,0,-0.0610352,0.999603,0.0216675,0.00720215,-0.0139465,-15642,31981,11716,-9175,-28640
71261,-0.13877,0.421094,9.71387,2.84546,0.362549,-1.58203,0,0.12207,-0.0610352,0.999603,0.0216675,0.00720215,-0.0139465,-15642,32237,12484,-9175,-28640
71267,-0.110059,0.421094,9.76172,2.83997,0.362549,-1.58203,-0.244141,0,0.0610352,0.999603,0.0216675,0.00720215,-0.0139465,-15898,-32531,12740,-9175,-28640
71273,-0.0957031,0.411523,9.82871,2.83997,0.362549,-1.58203,-0.183105,0,0,0.999603,0.021637,0.00720215,-0.0139465,-16154,-32019,11972,-9175,-28640
71279,-0.114844,0.435449,9.7665,2.83997,0.362549,-1.58203,0.0610352,-0.0610352,0.12207,0.999603,0.021637,0.00720215,-0.0139465,-16410,-32019,12228,-9175,-28640
71285,-0.124414,0.425879,9.79043,2.83997,0.362549,-1.58203,-0.0610352,0,0,0.999603,0.021637,0.00720215,-0.0139465,-16922,-32275,11460,-9175,-28640
71291,-0.143555,0.411523,9.77607,2.83997,0.362549,-1.58203,0,0.0610352,0,0.999603,0.021637,0.00720215,-0.0139465,-16922,-32275,11204,-9175,-28640
71297,-0.14834,0.425879,9.79043,2.83997,0.362549,-1.57654,0,0,0.183105,0.999603,0.021637,0.00720215,-0.0139465,-16922,32493,12484,-9175,-28640
71303,-0.114844,0.416309,9.81436,2.83997,0.362549,-1.57654,0,0.0610352,0,0.999603,0.021637,0.00720215,-0.0139465,-16922,32493,11972,-9175,-28640
71309,-0.153125,0.421094,9.80479,2.83997,0.362549,-1.57654,-0.183105,0,0,0.999603,0.021637,0.00720215,-0.0139465,-17178,32493,11716,-9175,-28640
71315,-0.13877,0.416309,9.79521,2.83997,0.362549,-1.57654,0,-0.0610352,0,0.999603,0.021637,0.00720215,-0.0139465,-17178,32493,11460,-9175,-28640
71321,-0.129199,0.421094,9.81436,2.83997,0.362549,-1.57654,-0.366211,0,0,0.999603,0.021637,0.00720215,-0.0139465,-17690,-32275,11972,-9175,-28640
71327,-0.162695,0.435449,9.80479,2.83997,0.362549,-1.57654,0,0.0610352,0,0.999603,0.021637,0.00720215,-0.0139465,-17690,-31507,13508,-9175,-28640
71333,-0.162695,0.425879,9.80479,2.83997,0.362549,-1.57654,0,0.0610352,0,0.999603,0.021637,0.00720215,-0.0139465,-17434,-31251,13764,-9175,-28640
71339,-0.15791,0.406738,9.81914,2.83997,0.362549,-1.57654,0.0610352,-0.0610352,0,0.999603,0.021637,0.00720215,-0.0139465,-17434,-31507,12996,-9175,-28640
71345,-0.162695,0.416309,9.78086,2.83997,0.362549,-1.57654,0,-0.12207,0.12207,0.999603,0.021637,0.00720215,-0.0139465,-17434,-31763,12740,-9175,-28640
71351,-0.15791,0.406738,9.79043,2.83997,0.362549,-1.57654,-0.0610352,0.0610352,0,0.999603,0.021637,0.00717163,-0.0139465,-17434,-32275,13252,-9175,-28640
