Timestamp,AccX,AccY,AccZ,AngleX,AngleY,AngleZ,AngularVelX,AngularVelY,AngularVelZ,QW,QX,QY,QZ,MagX,MagY,MagZ,Height,AirPressure
9729,-0.090918,0.449805,9.7665,3.04871,0.0219727,-0.0604248,0,0,0,0.999664,0.0233459,0.00448608,-0.000671387,-22299,-26898,-19260,-9175,-28640
9735,-0.0813477,0.459375,9.7665,3.04871,0.0219727,-0.0604248,0,0,0,0.999664,0.0233459,0.00448608,-0.000671387,-22555,-26386,-19772,-9175,-28640
9741,-0.0861328,0.44502,9.77607,3.04871,0.0219727,-0.0604248,0,0,0,0.999664,0.0233459,0.00448608,-0.000671387,-23579,-26386,-20284,-9175,-28640
9747,-0.105273,0.44502,9.75693,3.04871,0.0219727,-0.0604248,0,0,0,0.999664,0.0233459,0.00448608,-0.000671387,-24091,-26130,-20540,-9175,-28640
9753,-0.090918,0.459375,9.78086,3.04871,0.0219727,-0.0604248,0,0,0,0.999664,0.0233459,0.00448608,-0.000671387,-24347,-25618,-21052,-9175,-28640
9759,-0.0765625,0.459375,9.76172,3.04871,0.0219727,-0.0604248,0,0,0,0.999664,0.0233459,0.00448608,-0.000671387,-24347,-25618,-22076,-9175,-28640
9765,-0.0574219,0.47373,9.75215,3.04871,0.0219727,-0.0604248,0,0,0,0.999664,0.0233459,0.00448608,-0.000671387,-23835,-25362,-23100,-9175,-28640
9771,-0.0813477,0.44502,9.77607,3.04871,0.0219727,-0.0604248,0,0,0,0.999664,0.0233459,0.00448608,-0.000671387,-23323,-25106,-23612,-9175,-28640
9777,-0.0957031,0.45459,9.78564,3.04871,0.0219727,-0.0604248,0,0,0,0.999664,0.0233459,0.00448608,-0.000671387,-23323,-25362,-24124,-9175,-28640
9783,-0.0861328,0.449805,9.79521,3.04871,0.0219727,-0.0604248,0,0,0,0.999664,0.0233459,0.00448608,-0.000671387,-23323,-25362,-24636,-9167,-28641
9789,-0.0717773,0.45459,9.78086,3.04871,0.0219727,-0.0604248,0,0,0,0.999664,0.0233459,0.00448608,-0.000671387,-23067,-25618,-24892,-9167,-28641
9795,-0.0813477,0.459375,9.77607,3.04871,0.0219727,-0.0604248,0,0,0,0.999664,0.0233459,0.00448608,-0.000671387,-22555,-26130,-25148,-9167,-28641
9801,-0.0717773,0.478516,9.76172,3.04871,0.0219727,-0.0604248,0,0,0,0.999664,0.0233459,0.00448608,-0.000671387,-21787,-26386,-23612,-9167,-28641
9807,-0.0813477,0.459375,9.77607,3.04871,0.0219727,-0.0604248,0,0,0,0.999664,0.0233459,0.00448608,-0.000671387,-21531,-26386,-22844,-9167,-28641
9813,-0.0861328,0.44502,9.75215,3.04871,0.0219727,-0.0604248,0,0,0,0.999664,0.0233459,0.00448608,-0.000671387,-21531,-26386,-22076,-9167,-28641
9819,-0.100488,0.44502,9.74736,3.04871,0.0219727,-0.0604248,0,0,0,0.999664,0.0233459,0.00448608,-0.000671387,-21531,-26130,-21308,-9167,-28641
9825,-0.100488,0.435449,9.77129,3.04871,0.0219727,-0.0604248,0,0,0,0.999664,0.0233459,0.00448608,-0.000671387,-21531,-26386,-21052,-9167,-28641
9831,-0.090918,0.45459,9.79521,3.04871,0.0219727,-0.0604248,0,0,0,0.999664,0.0233459,0.00448608,-0.000671387,-21019,-27922,-21820,-9167,-28641
9837,-0.105273,0.449805,9.75693,3.04871,0.0219727,-0.0604248,0,0,0,0.999664,0.0233459,0.00448608,-0.000671387,-20763,-28690,-22076,-9167,-28641
9843,-0.0813477,0.449805,9.78086,3.04871,0.0219727,-0.0604248,0,0,0,0.999664,0.0233459,0.00448608,-0.000671387,-20251,-29202,-22844,-9167,-28641
9849,-0.090918,0.45459,9.77129,3.04871,0.0219727,-0.0604248,0,0,0,0.999664,0.0233459,0.00448608,-0.000671387,-20251,-28946,-22844,-9167,-28641
9855,-0.0957031,0.459375,9.78564,3.04871,0.0219727,-0.0604248,0,0,0,0.999664,0.0233459,0.00448608,-0.000671387,-20251,-28690,-22588,-9167,-28641
9861,-0.0957031,0.44502,9.7665,3.04871,0.0219727,-0.0604248,0,0,0,0.999664,0.0233459,0.00448608,-0.000671387,-19995,-28946,-23612,-9167,-28641
9867,-0.0765625,0.449805,9.75693,3.04871,0.0219727,-0.0604248,0,0,0,0.999664,0.0233459,0.00448608,-0.000671387,-19739,-28946,-25660,-9167,-28641
9873,-0.0813477,0.44502,9.74258,3.04871,0.0219727,-0.0604248,0,0,0,0.999664,0.0233459,0.00448608,-0.000671387,-19483,-29202,-27452,-9167,-28641
9879,-0.0765625,0.435449,9.75693,3.04871,0.0164795,-0.0604248,0,0,0,0.999664,0.0233459,0.00448608,-0.000671387,-19227,-29714,-29500,-9167,-28641
9885,-0.090918,0.435449,9.75693,3.04871,0.0164795,-0.0604248,0,0,0,0.999664,0.0233459,0.00448608,-0.000671387,-19227,-29714,-30524,-9167,-28641
9891,-0.0574219,0.459375,9.77607,3.04871,0.0164795,-0.0604248,0,0,0,0.999664,0.0233459,0.00448608,-0.000671387,-20251,-30226,-31804,-9167,-28641
9897,-0.0765625,0.45459,9.77129,3.04871,0.0164795,-0.0604248,0,0,0,0.999664,0.0233154,0.00448608,-0.000671387,-21275,-29970,-31548,-9167,-28641
9903,-0.0717773,0.459375,9.75215,3.04871,0.0164795,-0.0604248,0,0,0,0.999664,0.0233154,0.00448608,-0.000671387,-21787,-30226,-31804,-9167,-28641
9909,-0.0669922,0.449805,9.79043,3.04321,0.0164795,-0.0604248,0,0,0,0.999664,0.0233154,0.00448608,-0.000671387,-22043,-30226,-31292,-9167,-28641
9915,-0.0957031,0.47373,9.7665,3.04321,0.0164795,-0.0604248,0,0,0,0.999664,0.0233154,0.00448608,-0.000671387,-22043,-30482,-31036,-9167,-28641
9921,-0.090918,0.435449,9.75693,3.04321,0.0164795,-0.0604248,0,0,0,0.999664,0.0233154,0.00448608,-0.000671387,-22043,-30482,-31548,-9167,-28641
9927,-0.110059,0.44502,9.76172,3.04321,0.0164795,-0.0604248,0,0,0,0.999664,0.0233154,0.00448608,-0.000671387,-22299,-30482,-31292,-9167,-28641
9933,-0.0765625,0.468945,9.78086,3.04321,0.0164795,-0.0604248,0,0,0,0.999664,0.0233154,0.00448608,-0.000671387,-22043,-30738,-30780,-9167,-28641
9939,-0.0861328,0.440234,9.77129,3.04321,0.0164795,-0.0604248,0,0,0,0.999664,0.0233154,0.00448608,-0.000671387,-21531,-30482,-30268,-9167,-28641
9945,-0.090918,0.47373,9.77607,3.04321,0.0164795,-0.0604248,0,0,0,0.999664,0.0233154,0.00448608,-0.000671387,-21019,-30482,-29756,-9167,-28641
9951,-0.0813477,0.45459,9.77607,3.04321,0.0164795,-0.0604248,0,0,0,0.999664,0.0233154,0.00448608,-0.000671387,-21019,-29458,-28220,-9167,-28641
9957,-0.0717773,0.459375,9.8,3.04321,0.0164795,-0.0604248,0,0,0,0.999664,0.0233154,0.00448608,-0.000671387,-21531,-29202,-27964,-9167,-28641
9963,-0.0717773,0.440234,9.77129,3.04321,0.0164795,-0.0604248,0,0,0,0.999664,0.0233154,0.00448608,-0.000671387,-22299,-29202,-27196,-9167,-28641
9969,-0.0813477,0.468945,9.77129,3.04321,0.0164795,-0.0604248,0,0,0,0.999664,0.0233154,0.00448608,-0.000671387,-22555,-29458,-26940,-9167,-28641
9975,-0.0813477,0.47373,9.78564,3.04321,0.0164795,-0.0604248,0,0,0,0.999664,0.0233154,0.00445557,-0.000671387,-22555,-29714,-26684,-9167,-28641
9981,-0.0861328,0.430664,9.75215,3.04321,0.0164795,-0.0604248,0,0,0,0.999664,0.0233154,0.00445557,-0.000671387,-21531,-29714,-26172,-9167,-28641
9987,-0.0861328,0.435449,9.78564,3.04321,0.0164795,-0.0604248,0,0,0,0.999664,0.0233154,0.00445557,-0.000671387,-20763,-29970,-25660,-9167,-28641
9993,-0.114844,0.459375,9.77129,3.04321,0.0164795,-0.0604248,0,0,0,0.999664,0.0233154,0.00445557,-0.000671387,-19995,-29714,-25404,-9167,-28641
9999,-0.0765625,0.449805,9.78564,3.04321,0.0164795,-0.0604248,0,0,0,0.999664,0.0233154,0.00445557,-0.000671387,-19483,-29714,-25148,-9167,-28641
10005,-0.0574219,0.468945,9.75693,3.04321,0.0164795,-0.0604248,0,0,0,0.999664,0.0233154,0.00445557,-0.000671387,-19483,-29714,-24636,-9167,-28641
10011,-0.090918,0.44502,9.75693,3.04321,0.0164795,-0.0604248,0,0,0,0.999664,0.0233154,0.00445557,-0.000671387,-20763,-28946,-23612,-9167,-28641
10017,-0.0861328,0.46416,9.77129,3.04321,0.0164795,-0.0604248,0,0,0,0.999664,0.0233154,0.00445557,-0.000671387,-21787,-28690,-23868,-9167,-28641
10023,-0.0717773,0.449805,9.79521,3.04321,0.0164795,-0.0604248,0,0,0,0.999664,0.0233154,0.00445557,-0.000671387,-22299,-28434,-24380,-9167,-28641
10029,-0.105273,0.45459,9.75215,3.04321,0.0164795,-0.0604248,0,0,0,0.999664,0.0233154,0.00445557,-0.000671387,-22555,-28434,-26172,-9167,-28641
10035,-0.0861328,0.435449,9.7665,3.04321,0.0164795,-0.0604248,0,0,0,0.999664,0.0233154,0.00445557,-0.000671387,-22811,-28434,-27452,-9167,-28641
10041,-0.090918,0.440234,9.80479,3.04321,0.0164795,-0.0604248,0,0,0,0.999664,0.0233154,0.00445557,-0.000671387,-23579,-28178,-29244,-9167,-28641
10047,-0.100488,0.45459,9.77129,3.04321,0.0164795,-0.0604248,0,0,0,0.999664,0.0233154,0.00445557,-0.000671387,-23835,-27666,-29244,-9167,-28641
10053,-0.0861328,0.459375,9.74736,3.04321,0.0164795,-0.0604248,0,0,0,0.999664,0.0233154,0.00445557,-0.000671387,-23835,-27666,-29244,-9167,-28641
10059,-0.0957031,0.449805,9.75215,3.04321,0.0164795,-0.0604248,0,0,0,0.999664,0.0233154,0.00445557,-0.000671387,-23835,-27666,-29244,-9167,-28641
10065,-0.119629,0.45459,9.76172,3.04321,0.0164795,-0.0604248,0,0,0,0.999664,0.0233154,0.00445557,-0.000671387,-24347,-27922,-28988,-9167,-28641
10071,-0.0765625,0.45459,9.75693,3.04321,0.0164795,-0.0604248,0,0,0,0.999664,0.0233154,0.00445557,-0.000671387,-24859,-28434,-29756,-9167,-28641
10077,-0.110059,0.449805,9.8,3.04321,0.0164795,-0.0604248,0,0,0,0.999664,0.0233154,0.00445557,-0.000671387,-25115,-28690,-30780,-9167,-28641
10083,-0.105273,0.45459,9.74736,3.04321,0.0164795,-0.0604248,0,0,0,0.999664,0.0233154,0.00445557,-0.000671387,-25627,-28946,-30780,-9167,-28641
10089,-0.0957031,0.44502,9.78086,3.04321,0.0164795,-0.0604248,0,0,0,0.999664,0.0233154,0.00445557,-0.000671387,-26395,-28690,-31804,-9167,-28641
10095,-0.0861328,0.459375,9.78564,3.04321,0.0164795,-0.0604248,0,0,0,0.999664,0.0233154,0.00445557,-0.000671387,-27163,-28690,-31548,-9167,-28641
10101,-0.0765625,0.47373,9.78086,3.04321,0.0164795,-0.0604248,0,0,0,0.999664,0.0233154,0.00445557,-0.000671387,-27163,-28178,-30012,-9167,-28641
10107,-0.090918,0.45459,9.74736,3.04321,0.0164795,-0.0604248,0,0,0,0.999664,0.0233154,0.00445557,-0.000671387,-26651,-28178,-29500,-9167,-28641
10113,-0.0813477,0.44502,9.7665,3.04321,0.0164795,-0.0604248,0,0,0,0.999664,0.0233154,0.00445557,-0.000671387,-25883,-28434,-28476,-9167,-28641
10119,-0.100488,0.449805,9.78086,3.04321,0.0164795,-0.0604248,0,0,0,0.999664,0.0233154,0.00445557,-0.000671387,-24859,-28434,-27964,-9167,-28641
10125,-0.105273,0.459375,9.76172,3.04321,0.0164795,-0.0604248,0,0,0,0.999664,0.0233154,0.00445557,-0.000671387,-24091,-28690,-28220,-9167,-28641
10131,-0.0813477,0.45459,9.78564,3.04321,0.0164795,-0.0604248,0,0,0,0.999664,0.0233154,0.00445557,-0.000671387,-22811,-29714,-27964,-9167,-28641
10137,-0.105273,0.440234,9.78086,3.04321,0.0164795,-0.0604248,0,0,0,0.999664,0.0233154,0.00445557,-0.000671387,-22811,-29970,-28476,-9167,-28641
10143,-0.0813477,0.440234,9.77129,3.04321,0.0164795,-0.0604248,0,0,0,0.999664,0.0233154,0.00445557,-0.000671387,-22811,-30226,-29244,-9167,-28641
10149,-0.0861328,0.468945,9.75693,3.04321,0.0164795,-0.0604248,0,0,0,0.999664,0.0233154,0.00445557,-0.000671387,-22811,-29970,-29500,-9167,-28641
10155,-0.0765625,0.45459,9.76172,3.04321,0.0164795,-0.0604248,0,0,0,0.999664,0.0233154,0.00445557,-0.000671387,-22811,-29714,-30012,-9167,-28641
10161,-0.0669922,0.47373,9.77607,3.04321,0.0164795,-0.0604248,0,0,0,0.999664,0.0233154,0.00445557,-0.000671387,-23067,-28178,-28732,-9167,-28641
10167,-0.062207,0.44502,9.75693,3.04321,0.0164795,-0.0604248,0,0,0,0.999664,0.0233154,0.00448608,-0.000671387,-22811,-28178,-28220,-9167,-28641
10173,-0.114844,0.449805,9.77607,3.04321,0.0164795,-0.0604248,0,0,0,0.999664,0.0233154,0.00448608,-0.000671387,-23067,-28178,-27708,-9167,-28641
10179,-0.0861328,0.45459,9.78086,3.04321,0.0164795,-0.0604248,0,0,0,0.999664,0.0233154,0.00448608,-0.000671387,-23067,-28434,-28220,-9167,-28641
10185,-0.0861328,0.468945,9.7665,3.04321,0.0164795,-0.0604248,0,0,0,0.999664,0.0233154,0.00448608,-0.000671387,-22811,-29202,-28732,-9167,-28641
10191,-0.0861328,0.45459,9.76172,3.04321,0.0164795,-0.0604248,0,0,0,0.999664,0.0233154,0.00448608,-0.000671387,-23067,-29970,-30012,-9167,-28641
10197,-0.0717773,0.449805,9.7665,3.04321,0.0164795,-0.0604248,0,0,0,0.999664,0.0233154,0.00448608,-0.000671387,-23067,-30226,-30268,-9167,-28641
10203,-0.090918,0.45459,9.75693,3.04321,0.0164795,-0.0604248,0,0,0,0.999664,0.0233154,0.00448608,-0.000671387,-23067,-30482,-31292,-9167,-28641
10209,-0.0765625,0.425879,9.79521,3.04321,0.0164795,-0.0604248,0,0,0,0.999664,0.0233154,0.00448608,-0.000671387,-23067,-30482,-32060,-9167,-28641
10215,-0.100488,0.44502,9.79043,3.04321,0.0164795,-0.0604248,0,0,0,0.999664,0.0233154,0.00448608,-0.000671387,-22811,-30738,32708,-9167,-28641
10221,-0.0813477,0.459375,9.79043,3.04321,0.0164795,-0.0604248,0,0,0,0.999664,0.0233154,0.00448608,-0.000671387,-22299,-30482,32196,-9167,-28641
10227,-0.114844,0.449805,9.7665,3.04321,0.0164795,-0.0604248,0,0,0,0.999664,0.0233154,0.00448608,-0.000671387,-22043,-30482,-32316,-9167,-28641
10233,-0.0957031,0.45459,9.7665,3.04321,0.0164795,-0.0604248,0,0,0,0.999664,0.0233154,0.00448608,-0.000671387,-22043,-30226,-30780,-9167,-28641
10239,-0.105273,0.45459,9.74258,3.04321,0.0164795,-0.0604248,0,0,0,0.999664,0.0233154,0.00448608,-0.000671387,-22811,-30226,-29244,-9167,-28641
10245,-0.0813477,0.449805,9.79043,3.04321,0.0164795,-0.0604248,0,0,0,0.999664,0.0233154,0.00448608,-0.000671387,-23067,-30226,-27708,-9167,-28641
10251,-0.0813477,0.435449,9.74258,3.04321,0.0164795,-0.0604248,0,0,0,0.999664,0.0233154,0.00448608,-0.000671387,-23835,-30226,-27196,-9167,-28641
10257,-0.062207,0.459375,9.7665,3.04321,0.0164795,-0.0604248,0,0,0,0.999664,0.0233154,0.00448608,-0.000671387,-23835,-30482,-27964,-9167,-28641
10263,-0.0574219,0.44502,9.77129,3.04321,0.0164795,-0.0604248,0,0,0,0.999664,0.0233154,0.00448608,-0.000671387,-23579,-30738,-29244,-9167,-28641
10269,-0.062207,0.440234,9.75693,3.04321,0.0164795,-0.0604248,0,0,0,0.999664,0.0233154,0.00448608,-0.000671387,-23323,-30994,-29756,-9167,-28641
10275,-0.0717773,0.440234,9.77607,3.04321,0.0164795,-0.0604248,0,0,0,0.999664,0.0233154,0.00448608,-0.000671387,-23067,-30994,-30780,-9167,-28641
10281,-0.0813477,0.45459,9.8,3.04321,0.0164795,-0.0604248,0,0,0,0.999664,0.0233154,0.00448608,-0.000671387,-23067,-30738,-32316,-9167,-28641
10287,-0.0957031,0.435449,9.79043,3.04321,0.0164795,-0.0604248,0,0,0,0.999664,0.0233154,0.00448608,-0.000671387,-23579,-30738,32452,-9167,-28641
10293,-0.0957031,0.459375,9.75215,3.04321,0.0164795,-0.0604248,0,0,0,0.999664,0.0233154,0.00448608,-0.000671387,-23579,-30482,31684,-9167,-28641
10299,-0.110059,0.449805,9.75215,3.04321,0.0164795,-0.0604248,0,0,0,0.999664,0.0233154,0.00448608,-0.000671387,-23579,-30226,31428,-9167,-28641
10305,-0.105273,0.468945,9.77607,3.04321,0.0164795,-0.0604248,0,0,0,0.999664,0.0233154,0.00448608,-0.000671387,-23579,-30226,31940,-9167,-28641
10311,-0.110059,0.45459,9.77607,3.04321,0.0164795,-0.0604248,0,0,0,0.999664,0.0233154,0.00448608,-0.000671387,-23323,-29970,-32060,-9167,-28641
10317,-0.090918,0.44502,9.75693,3.04321,0.0164795,-0.0604248,0,0,0,0.999664,0.0233154,0.00448608,-0.000671387,-23067,-29458,-30780,-9167,-28641
10323,-0.0861328,0.47373,9.78564,3.04321,0.0164795,-0.0604248,0,0,0,0.999664,0.0233154,0.00448608,-0.000671387,-23067,-29458,-30012,-9167,-28641
10329,-0.0861328,0.45459,9.76172,3.04321,0.0164795,-0.0604248,0,0,0,0.999664,0.0233154,0.00448608,-0.000671387,-23067,-29458,-28988,-9167,-28641
10335,-0.0669922,0.45459,9.76172,3.04321,0.0164795,-0.0604248,0,0,0,0.999664,0.0233154,0.00448608,-0.000671387,-23067,-29458,-27964,-9167,-28641
10341,-0.0813477,0.45459,9.73779,3.04321,0.0164795,-0.0604248,0,0,0,0.999664,0.0233154,0.00448608,-0.000671387,-23579,-29714,-28220,-9167,-28641
10347,-0.105273,0.440234,9.77607,3.04321,0.0164795,-0.0604248,0,0,0,0.999664,0.0233154,0.00448608,-0.000671387,-23835,-29714,-28476,-9167,-28641
10353,-0.114844,0.45459,9.77607,3.04321,0.0164795,-0.0604248,0,0,0,0.999664,0.0233154,0.00448608,-0.000671387,-24091,-29458,-29244,-9167,-28641
10359,-0.100488,0.44502,9.79043,3.04321,0.0164795,-0.0604248,0,0,0,0.999664,0.0233154,0.00448608,-0.000671387,-24603,-29202,-29500,-9167,-28641
10365,-0.0574219,0.430664,9.7665,3.04321,0.0164795,-0.0604248,0,0,0,0.999664,0.0233154,0.00448608,-0.000671387,-24603,-28690,-29500,-9167,-28641
10371,-0.062207,0.45459,9.74736,3.04321,0.0219727,-0.0604248,0,0,0,0.999664,0.0233154,0.00448608,-0.000671387,-24347,-29202,-29500,-9167,-28641
10377,-0.0574219,0.44502,9.75693,3.04321,0.0164795,-0.0604248,0,0,0,0.999664,0.0233154,0.00448608,-0.000671387,-23835,-29970,-30012,-9167,-28641
10383,-0.0526367,0.468945,9.75215,3.04321,0.0164795,-0.0604248,0,0,0,0.999664,0.0233154,0.00448608,-0.000671387,-23579,-30738,-30524,-9167,-28641
10389,-0.0765625,0.47373,9.74736,3.04321,0.0164795,-0.0604248,0,0,0,0.999664,0.0233154,0.00448608,-0.000671387,-23067,-31762,-30780,-9167,-28641
10395,-0.090918,0.478516,9.79043,3.04321,0.0164795,-0.0604248,0,0,0,0.999664,0.0233154,0.00448608,-0.000671387,-22811,-32018,-30780,-9167,-28641
10401,-0.0813477,0.449805,9.78564,3.04321,0.0164795,-0.0604248,0,0,0,0.999664,0.0233154,0.00448608,-0.000671387,-23323,-32018,-29244,-9167,-28641
10407,-0.0765625,0.459375,9.74258,3.04321,0.0164795,-0.0604248,0,0,0,0.999664,0.0233154,0.00448608,-0.000671387,-23835,-31506,-27708,-9167,-28641
10413,-0.0717773,0.46416,9.75215,3.04321,0.0164795,-0.0604248,0,0,0,0.999664,0.0233154,0.00448608,-0.000671387,-24347,-31506,-26428,-9167,-28641
10419,-0.0813477,0.449805,9.76172,3.04321,0.0164795,-0.0604248,0,0,0,0.999664,0.0233154,0.00448608,-0.000671387,-24859,-31506,-26428,-9167,-28641
10425,-0.110059,0.440234,9.74258,3.04321,0.0164795,-0.0604248,0,0,0,0.999664,0.0233154,0.00448608,-0.000671387,-25115,-31250,-26428,-9167,-28641
10431,-0.0813477,0.449805,9.76172,3.04321,0.0164795,-0.0604248,0,0,0,0.999664,0.0233154,0.00448608,-0.000671387,-25115,-31762,-27964,-9167,-28641
10437,-0.110059,0.449805,9.75693,3.04321,0.0164795,-0.0604248,0,0,0,0.999664,0.0233154,0.00445557,-0.000671387,-25115,-32018,-28476,-9167,-28641
10443,-0.100488,0.46416,9.76172,3.04321,0.0164795,-0.0604248,0,0,0,0.999664,0.0233154,0.00445557,-0.000671387,-25115,-32274,-28732,-9167,-28641
10449,-0.0765625,0.449805,9.78086,3.04321,0.0164795,-0.0604248,0,0,0,0.999664,0.0233154,0.00445557,-0.000671387,-24859,-31762,-28732,-9167,-28641
10455,-0.0765625,0.435449,9.7665,3.04321,0.0164795,-0.0604248,0,0,0,0.999664,0.0233154,0.00445557,-0.000671387,-24603,-31250,-28220,-9167,-28641
10461,-0.0813477,0.449805,9.77129,3.04321,0.0164795,-0.0604248,0,0,0,0.999664,0.0233154,0.00445557,-0.000671387,-24091,-29970,-26684,-9167,-28641
10467,-0.0861328,0.47373,9.77129,3.04321,0.0164795,-0.0604248,0,0,0,0.999664,0.0233154,0.00445557,-0.000671387,-24091,-29714,-25916,-9167,-28641
10473,-0.0669922,0.440234,9.74736,3.04321,0.0164795,-0.0604248,0,0,0,0.999664,0.0233154,0.00445557,-0.000671387,-24347,-29970,-25916,-9167,-28641
10479,-0.0574219,0.45459,9.7665,3.04321,0.0164795,-0.0604248,0,0,0,0.999664,0.0233154,0.00445557,-0.000671387,-24859,-29714,-25916,-9167,-28641
10485,-0.090918,0.449805,9.78086,3.04321,0.0164795,-0.0604248,0,0,0,0.999664,0.0233154,0.00445557,-0.000671387,-25371,-29714,-25660,-9167,-28641
10491,-0.0765625,0.47373,9.7665,3.04321,0.0164795,-0.0604248,0,0,0,0.999664,0.0233154,0.00445557,-0.000671387,-25883,-29970,-25660,-9167,-28641
10497,-0.090918,0.449805,9.8,3.04321,0.0164795,-0.0604248,0,0,0,0.999664,0.0233154,0.00445557,-0.000671387,-26139,-29970,-25148,-9167,-28641
10503,-0.105273,0.459375,9.79521,3.04321,0.0164795,-0.0604248,0,0,0,0.999664,0.0233154,0.00445557,-0.000671387,-26139,-29714,-24892,-9167,-28641
10509,-0.090918,0.459375,9.76172,3.04321,0.0164795,-0.0604248,0,0,0,0.999664,0.0233154,0.00445557,-0.000671387,-26139,-29458,-24892,-9167,-28641
10515,-0.0861328,0.449805,9.75693,3.04321,0.0164795,-0.0604248,0,0,0,0.999664,0.0233154,0.00445557,-0.000671387,-25627,-29202,-24636,-9167,-28641
10521,-0.0957031,0.47373,9.78564,3.04321,0.0164795,-0.0604248,0,0,0,0.999664,0.0233154,0.00445557,-0.000671387,-24091,-29458,-23612,-9167,-28641
10527,-0.090918,0.46416,9.75693,3.04321,0.0164795,-0.0604248,0,0,0,0.999664,0.0233154,0.00445557,-0.000671387,-23323,-29714,-22588,-9167,-28641
10533,-0.0669922,0.440234,9.8,3.04321,0.0164795,-0.0604248,0,0,0,0.999664,0.0233154,0.00445557,-0.000671387,-23323,-29714,-21564,-9167,-28641
10539,-0.0957031,0.47373,9.75693,3.04321,0.0164795,-0.0604248,0,0,0,0.999664,0.0233154,0.00445557,-0.000671387,-23579,-29970,-20540,-9167,-28641
10545,-0.0765625,0.44502,9.79043,3.04321,0.0164795,-0.0604248,0,0,0,0.999664,0.0233154,0.00445557,-0.000671387,-23835,-29970,-20028,-9167,-28641
10551,-0.0957031,0.459375,9.76172,3.04321,0.0164795,-0.0604248,0,0,0,0.999664,0.0233154,0.00445557,-0.000671387,-24347,-29970,-20540,-9167,-28641
10557,-0.105273,0.440234,9.77607,3.04321,0.0164795,-0.0604248,0,0,0,0.999664,0.0233154,0.00445557,-0.000671387,-24347,-29714,-21820,-9167,-28641
10563,-0.105273,0.46416,9.77607,3.04321,0.0164795,-0.0604248,0,0,0,0.999664,0.0233154,0.00445557,-0.000671387,-24091,-29714,-22332,-9167,-28641
10569,-0.0813477,0.459375,9.78086,3.04321,0.0164795,-0.0604248,0,0,0,0.999664,0.0233154,0.00445557,-0.000671387,-23835,-29714,-23100,-9167,-28641
10575,-0.0574219,0.449805,9.75693,3.04321,0.0164795,-0.0604248,0,0,0,0.999664,0.0233154,0.00445557,-0.000671387,-23835,-30226,-23612,-9167,-28641
10581,-0.0574219,0.435449,9.78086,3.04321,0.0164795,-0.0604248,0,0,0,0.999664,0.0233154,0.00445557,-0.000671387,-23835,-30226,-23868,-9167,-28641
10587,-0.0717773,0.449805,9.76172,3.04321,0.0164795,-0.0604248,0,0,0,0.999664,0.0233154,0.00445557,-0.000671387,-24091,-29970,-23868,-9167,-28641
10593,-0.0765625,0.459375,9.74258,3.04321,0.0164795,-0.0604248,0,0,0,0.999664,0.0233154,0.00445557,-0.000671387,-24091,-29970,-23356,-9167,-28641
10599,-0.0526367,0.459375,9.75693,3.04321,0.0164795,-0.0604248,0,0,0,0.999664,0.0233154,0.00445557,-0.000671387,-24091,-29714,-23356,-9167,-28641
10605,-0.090918,0.435449,9.77607,3.04321,0.0164795,-0.0604248,0,0,0,0.999664,0.0233154,0.00445557,-0.000671387,-23835,-29970,-23612,-9167,-28641
10611,-0.105273,0.449805,9.8,3.04321,0.0164795,-0.0604248,0,0,0,0.999664,0.0233154,0.00445557,-0.000671387,-24091,-29970,-24892,-9167,-28641
10617,-0.0765625,0.45459,9.78086,3.04321,0.0164795,-0.0604248,0,0,0,0.999664,0.0233154,0.00445557,-0.000671387,-24347,-29970,-24892,-9167,-28641
10623,-0.0861328,0.449805,9.78086,3.04321,0.0164795,-0.0604248,0,0,0,0.999664,0.0233154,0.00445557,-0.000671387,-24603,-29714,-25404,-9167,-28641
10629,-0.0717773,0.459375,9.76172,3.04321,0.0164795,-0.0604248,0,0,0,0.999664,0.0233154,0.00445557,-0.000671387,-24859,-29458,-25404,-9167,-28641
10635,-0.0957031,0.459375,9.7665,3.04321,0.0164795,-0.0604248,0,0,0,0.999664,0.0233154,0.00445557,-0.000671387,-25883,-27666,-24124,-9167,-28641
10641,-0.114844,0.45459,9.75215,3.04321,0.0164795,-0.0604248,0,0,0,0.999664,0.0233154,0.00445557,-0.000671387,-26139,-26898,-23868,-9167,-28641
10647,-0.090918,0.449805,9.8,3.04321,0.0164795,-0.0604248,0,0,0,0.999664,0.0233154,0.00445557,-0.000671387,-26395,-26130,-23100,-9167,-28641
10653,-0.0861328,0.440234,9.77129,3.04321,0.0164795,-0.0604248,0,0,0,0.999664,0.0233154,0.00445557,-0.000671387,-26139,-25618,-22588,-9167,-28641
10659,-0.0813477,0.46416,9.77607,3.04321,0.0164795,-0.0604248,0,0,0,0.999664,0.0233154,0.00445557,-0.000671387,-26139,-25874,-22332,-9167,-28641
10665,-0.0813477,0.449805,9.78564,3.04321,0.0164795,-0.0604248,0,0,0,0.999664,0.0233154,0.00445557,-0.000671387,-25883,-26386,-21564,-9167,-28641
10671,-0.100488,0.449805,9.77129,3.04321,0.0164795,-0.0604248,0,0,0,0.999664,0.0233154,0.00445557,-0.000671387,-25883,-26898,-21564,-9167,-28641
10677,-0.0813477,0.45459,9.77607,3.04321,0.0164795,-0.0604248,0,0,0,0.999664,0.0233154,0.00445557,-0.000671387,-25883,-26898,-20540,-9167,-28641
10683,-0.0765625,0.459375,9.79043,3.04321,0.0164795,-0.0604248,0,0,0,0.999664,0.0233154,0.00445557,-0.000671387,-25627,-27154,-19516,-9167,-28641
10689,-0.0861328,0.47373,9.79043,3.04321,0.0164795,-0.0604248,0,0,0,0.999664,0.0233154,0.00445557,-0.000671387,-25883,-26898,-18748,-9167,-28641
10695,-0.0861328,0.449805,9.77129,3.04321,0.0164795,-0.0604248,0,0,0,0.999664,0.0233154,0.00445557,-0.000671387,-25883,-26386,-18236,-9167,-28641
10701,-0.0861328,0.47373,9.75693,3.04321,0.0164795,-0.0604248,0,0,0,0.999664,0.0233154,0.00445557,-0.000671387,-26139,-26386,-19260,-9167,-28641
10707,-0.100488,0.44502,9.7665,3.04321,0.0164795,-0.0604248,0,0,0,0.999664,0.0233154,0.00445557,-0.000671387,-26139,-25874,-21052,-9167,-28641
10713,-0.0861328,0.435449,9.77607,3.04321,0.0164795,-0.0604248,0,0,0,0.999664,0.0233154,0.00445557,-0.000671387,-26139,-25618,-22844,-9167,-28641
10719,-0.0813477,0.435449,9.77607,3.04321,0.0164795,-0.0604248,0,0,0,0.999664,0.0233154,0.00445557,-0.000671387,-26139,-25106,-23868,-9167,-28641
10725,-0.0574219,0.435449,9.7665,3.04321,0.0164795,-0.0604248,0,0,0,0.999664,0.0233154,0.00445557,-0.000671387,-26139,-24082,-25660,-9167,-28641
10731,-0.062207,0.440234,9.8,3.04321,0.0164795,-0.0604248,0,0,0,0.999664,0.0233154,0.00445557,-0.000671387,-25883,-23826,-26428,-9167,-28641
10737,-0.0574219,0.45459,9.77607,3.04321,0.0164795,-0.0604248,0,0,0,0.999664,0.0233154,0.00445557,-0.000671387,-25627,-24082,-26428,-9167,-28641
10743,-0.0765625,0.468945,9.74736,3.04321,0.0164795,-0.0604248,0,0,0,0.999664,0.0233154,0.00445557,-0.000671387,-25115,-24594,-26428,-9167,-28641
10749,-0.114844,0.449805,9.75693,3.04321,0.0164795,-0.0604248,0,0,0,0.999664,0.0233154,0.00445557,-0.000671387,-24603,-25874,-25660,-9167,-28641
10755,-0.105273,0.45459,9.8,3.04321,0.0164795,-0.0604248,0,0,0,0.999664,0.0233154,0.00445557,-0.000671387,-23323,-27666,-23356,-9167,-28641
10761,-0.105273,0.46416,9.77607,3.04321,0.0164795,-0.0604248,0,0,0,0.999664,0.0233154,0.00445557,-0.000671387,-23067,-28178,-22588,-9167,-28641
10767,-0.062207,0.45459,9.77607,3.04321,0.0164795,-0.0604248,0,0,0,0.999664,0.0233154,0.00445557,-0.000671387,-22555,-28690,-22844,-9167,-28641
10773,-0.0957031,0.46416,9.77607,3.04321,0.0164795,-0.0604248,0,0,0,0.999664,0.0233154,0.00445557,-0.000671387,-22043,-28690,-23100,-9167,-28641
10779,-0.090918,0.44502,9.8,3.04321,0.0164795,-0.0604248,0,0,0,0.999664,0.0233154,0.00445557,-0.000671387,-21531,-29202,-24124,-9167,-28641
10785,-0.0813477,0.459375,9.75693,3.04321,0.0164795,-0.0604248,0,0,0,0.999664,0.0233154,0.00445557,-0.000671387,-21787,-29714,-24380,-9167,-28641
10791,-0.0957031,0.449805,9.76172,3.04321,0.0164795,-0.0604248,0,0,0,0.999664,0.0233154,0.00445557,-0.000671387,-21787,-30226,-24636,-9167,-28641
10797,-0.0861328,0.459375,9.75693,3.04321,0.0164795,-0.0604248,0,0,0,0.999664,0.0233154,0.00445557,-0.000671387,-22043,-30738,-24892,-9167,-28641
10803,-0.100488,0.459375,9.76172,3.04321,0.0164795,-0.0604248,0,0,0,0.999664,0.0233154,0.00445557,-0.000671387,-22299,-30482,-25148,-9167,-28641
10809,-0.0717773,0.44502,9.77607,3.04321,0.0164795,-0.0604248,0,0,0,0.999664,0.0233154,0.00445557,-0.000671387,-22811,-29970,-24892,-9167,-28641
10815,-0.0765625,0.44502,9.78086,3.04321,0.0164795,-0.0604248,0,0,0,0.999664,0.0233154,0.00445557,-0.000671387,-23835,-29970,-23356,-9167,-28641
10821,-0.105273,0.44502,9.79521,3.04321,0.0164795,-0.0604248,0,0,0,0.999664,0.0233154,0.00445557,-0.000671387,-24091,-29970,-22844,-9167,-28641
10827,-0.0861328,0.449805,9.77129,3.04321,0.0164795,-0.0604248,0,0,0,0.999664,0.0233154,0.00445557,-0.000671387,-24347,-30226,-23100,-9167,-28641
10833,-0.0861328,0.45459,9.78564,3.04321,0.0164795,-0.0604248,0,0,0,0.999664,0.0233154,0.00445557,-0.000671387,-24347,-29970,-23868,-9167,-28641
10839,-0.0957031,0.45459,9.75693,3.04321,0.0164795,-0.0604248,0,0,0,0.999664,0.0233154,0.00445557,-0.000671387,-24347,-29714,-25404,-9167,-28641
10845,-0.0861328,0.449805,9.78086,3.04321,0.0164795,-0.0604248,0,0,0,0.999664,0.0233154,0.00445557,-0.000671387,-25371,-28946,-27708,-9167,-28641
10851,-0.100488,0.45459,9.75693,3.04321,0.0164795,-0.0604248,0,0,0,0.999664,0.0233154,0.00445557,-0.000671387,-25883,-28946,-27964,-9167,-28641
10857,-0.0765625,0.449805,9.79043,3.04321,0.0164795,-0.0604248,0,0,0,0.999664,0.0233154,0.00445557,-0.000671387,-26139,-28946,-28220,-9167,-28641
10863,-0.0813477,0.46416,9.77607,3.04321,0.0164795,-0.0604248,0,0,0,0.999664,0.0233154,0.00445557,-0.000671387,-25883,-28946,-27708,-9167,-28641
10869,-0.0957031,0.47373,9.7665,3.04321,0.0164795,-0.0604248,0,0,0,0.999664,0.0233154,0.00445557,-0.000671387,-25627,-29202,-26684,-9167,-28641
10875,-0.090918,0.459375,9.78564,3.04321,0.0164795,-0.0604248,0,0,0,0.999664,0.0233154,0.00445557,-0.000671387,-25115,-29714,-24380,-9167,-28641
10881,-0.0765625,0.449805,9.77129,3.04321,0.0164795,-0.0604248,0,0,0,0.999664,0.0233154,0.00445557,-0.000671387,-24859,-29970,-23100,-9167,-28641
10887,-0.105273,0.449805,9.7665,3.04321,0.0164795,-0.0604248,0,0,0,0.999664,0.0233154,0.00445557,-0.000671387,-25115,-29970,-21052,-9167,-28641
10893,-0.090918,0.459375,9.77607,3.04321,0.0164795,-0.0604248,0,0,0,0.999664,0.0233154,0.00445557,-0.000671387,-25627,-30226,-19004,-9167,-28641
10899,-0.090918,0.468945,9.7665,3.04321,0.0164795,-0.0604248,0,0,0,0.999664,0.0233154,0.00445557,-0.000671387,-26139,-29714,-17724,-9167,-28641
10905,-0.0861328,0.47373,9.77607,3.04321,0.0164795,-0.0604248,0,0,0,0.999664,0.0233154,0.00445557,-0.000671387,-26651,-29202,-17468,-9167,-28641
10911,-0.100488,0.483301,9.79043,3.04321,0.0164795,-0.0604248,0,0,0,0.999664,0.0233154,0.00445557,-0.000671387,-26651,-28946,-18236,-9167,-28641
10917,-0.090918,0.459375,9.7665,3.04321,0.0164795,-0.0604248,0,0,0,0.999664,0.0233154,0.00445557,-0.000671387,-26651,-28690,-18492,-9167,-28641
10923,-0.0861328,0.468945,9.7665,3.04321,0.0164795,-0.0604248,0,0,0,0.999664,0.0233154,0.00445557,-0.000671387,-26651,-28434,-19260,-9167,-28641
10929,-0.0813477,0.468945,9.77129,3.04321,0.0164795,-0.0604248,0,0,0,0.999664,0.0233154,0.00445557,-0.000671387,-26651,-28690,-20028,-9167,-28641
10935,-0.105273,0.44502,9.7665,3.04321,0.0164795,-0.0604248,0,0,0,0.999664,0.0233154,0.00445557,-0.000671387,-26651,-28178,-21052,-9167,-28641
10941,-0.090918,0.449805,9.77129,3.04321,0.0164795,-0.0604248,0,0,0,0.999664,0.0233154,0.00445557,-0.000671387,-26395,-27922,-21564,-9167,-28641
10947,-0.0861328,0.45459,9.7665,3.04321,0.0164795,-0.0604248,0,0,0,0.999664,0.0233154,0.00445557,-0.000671387,-25883,-27154,-21820,-9167,-28641
10953,-0.090918,0.435449,9.75693,3.04321,0.0164795,-0.0604248,0,0,0,0.999664,0.0233154,0.00445557,-0.000671387,-25627,-26642,-22076,-9167,-28641
10959,-0.0765625,0.435449,9.75215,3.04321,0.0164795,-0.0604248,0,0,0,0.999664,0.0233154,0.00445557,-0.000671387,-25627,-26386,-22076,-9167,-28641
10965,-0.0765625,0.44502,9.7665,3.04321,0.0164795,-0.0604248,0,0,0,0.999664,0.0233154,0.00445557,-0.000671387,-25883,-26642,-21564,-9167,-28641
10971,-0.090918,0.459375,9.77129,3.04321,0.0164795,-0.0604248,0,0,0,0.999664,0.0233154,0.00445557,-0.000671387,-25627,-26898,-22076,-9167,-28641
10977,-0.0669922,0.440234,9.75215,3.04321,0.0164795,-0.0604248,0,0,0,0.999664,0.0233154,0.00445557,-0.000671387,-25371,-26898,-22332,-9167,-28641
10983,-0.100488,0.47373,9.78086,3.04321,0.0164795,-0.0604248,0,0,0,0.999664,0.0233154,0.00445557,-0.000671387,-25115,-27154,-22588,-9167,-28641
10989,-0.0813477,0.449805,9.78086,3.04321,0.0164795,-0.0604248,0,0,0,0.999664,0.0233154,0.00445557,-0.000671387,-24859,-27666,-22844,-9167,-28641
10995,-0.0957031,0.421094,9.74736,3.04321,0.0164795,-0.0604248,0,0,0,0.999664,0.0233154,0.00445557,-0.000671387,-24603,-27922,-23612,-9167,-28641
11001,-0.0813477,0.47373,9.78086,3.04321,0.0164795,-0.0604248,0,0,0,0.999664,0.0233154,0.00445557,-0.000671387,-25115,-28178,-23612,-9167,-28641
11007,-0.0765625,0.440234,9.80479,3.04321,0.0164795,-0.0604248,0,0,0,0.999664,0.0233154,0.00445557,-0.000671387,-25115,-27922,-23356,-9167,-28641
11013,-0.090918,0.45459,9.7665,3.04321,0.0164795,-0.0604248,0,0,0,0.999664,0.0233154,0.00445557,-0.000671387,-25115,-28178,-23356,-9167,-28641
11019,-0.0861328,0.468945,9.75693,3.04321,0.0164795,-0.0604248,0,0,0,0.999664,0.0233154,0.00445557,-0.000671387,-24859,-28178,-22844,-9167,-28641
11025,-0.0957031,0.44502,9.75693,3.04321,0.0164795,-0.0604248,0,0,0,0.999664,0.0233154,0.00445557,-0.000671387,-24347,-28178,-22076,-9167,-28641
11031,-0.0717773,0.497656,9.77129,3.04321,0.0164795,-0.0604248,0,0,0,0.999664,0.0233154,0.00445557,-0.000671387,-24347,-28178,-21820,-9167,-28641
11037,-0.0861328,0.468945,9.75693,3.04321,0.0164795,-0.0604248,0,0,0,0.999664,0.0233154,0.00445557,-0.000671387,-24603,-28690,-21052,-9167,-28641
11043,-0.0717773,0.45459,9.7665,3.04321,0.0164795,-0.0604248,0,0,0,0.999664,0.0233154,0.00445557,-0.000671387,-24859,-28690,-21308,-9167,-28641
11049,-0.0957031,0.449805,9.77129,3.04321,0.0164795,-0.0604248,0,0,0,0.999664,0.0233154,0.00445557,-0.000671387,-25115,-28690,-20540,-9167,-28641
11055,-0.114844,0.44502,9.78086,3.04321,0.0164795,-0.0604248,0,0,0,0.999664,0.0233154,0.00445557,-0.000671387,-25371,-28946,-22332,-9167,-28641
11061,-0.0765625,0.44502,9.77129,3.04321,0.0164795,-0.0604248,0,0,0,0.999664,0.0233154,0.00445557,-0.000671387,-25371,-29202,-23612,-9167,-28641
11067,-0.062207,0.483301,9.75215,3.04871,0.0164795,-0.0604248,0,0,0,0.999664,0.0233154,0.00445557,-0.000671387,-25115,-29458,-25148,-9167,-28641
11073,-0.100488,0.421094,9.75215,3.04871,0.0164795,-0.0604248,0,0,0,0.999664,0.0233154,0.00445557,-0.000671387,-24859,-29458,-26684,-9167,-28641
11079,-0.090918,0.449805,9.76172,3.04871,0.0164795,-0.0604248,0,0,0,0.999664,0.0233154,0.00445557,-0.000671387,-24603,-29202,-27964,-9167,-28641
11085,-0.0765625,0.45459,9.79521,3.04871,0.0164795,-0.0604248,0,0,0,0.999664,0.0233154,0.00445557,-0.000671387,-24091,-28434,-30012,-9167,-28641
11091,-0.090918,0.44502,9.79043,3.04871,0.0164795,-0.0604248,0,0,0,0.999664,0.0233154,0.00445557,-0.000671387,-23835,-28178,-30268,-9167,-28641
11097,-0.090918,0.46416,9.78564,3.04871,0.0164795,-0.0604248,0,0,0,0.999664,0.0233459,0.00445557,-0.000671387,-23323,-27666,-29756,-9167,-28641
11103,-0.0813477,0.459375,9.79043,3.04871,0.0164795,-0.0604248,0,0,0,0.999664,0.0233459,0.00445557,-0.000671387,-23067,-27410,-29244,-9167,-28641
11109,-0.0765625,0.45459,9.77129,3.04871,0.0164795,-0.0604248,0,0,0,0.999664,0.0233459,0.00445557,-0.000671387,-22555,-27154,-29244,-9167,-28641
11115,-0.0957031,0.45459,9.78086,3.04871,0.0164795,-0.0604248,0,0,0,0.999664,0.0233459,0.00445557,-0.000671387,-21531,-27154,-31292,-9167,-28641
11121,-0.0765625,0.449805,9.77607,3.04871,0.0164795,-0.0604248,0,0,0,0.999664,0.0233459,0.00445557,-0.000671387,-21019,-27922,-32060,-9167,-28641
11127,-0.0813477,0.459375,9.74258,3.04871,0.0164795,-0.0604248,0,0,0,0.999664,0.0233459,0.00445557,-0.000671387,-20507,-28178,-32572,-9167,-28641
11133,-0.0813477,0.449805,9.78086,3.04871,0.0164795,-0.0604248,0,0,0,0.999664,0.0233459,0.00445557,-0.000671387,-20507,-28178,-31804,-9167,-28641
11139,-0.100488,0.46416,9.74736,3.04871,0.0164795,-0.0604248,0,0,0,0.999664,0.0233459,0.00445557,-0.000671387,-20763,-27922,-31292,-9167,-28641
11145,-0.0957031,0.459375,9.75693,3.04871,0.0164795,-0.0604248,0,0,0,0.999664,0.0233459,0.00445557,-0.000671387,-21019,-27154,-29244,-9167,-28641
11151,-0.105273,0.46416,9.79043,3.04871,0.0164795,-0.0604248,0,0,0,0.999664,0.0233459,0.00445557,-0.000671387,-21019,-27154,-28220,-9167,-28641
11157,-0.090918,0.47373,9.77129,3.04871,0.0164795,-0.0604248,0,0,0,0.999664,0.0233459,0.00445557,-0.000671387,-21275,-27410,-28732,-9167,-28641
11163,-0.105273,0.459375,9.77129,3.04871,0.0164795,-0.0604248,0,0,0,0.999664,0.0233459,0.00445557,-0.000671387,-21787,-27410,-28988,-9167,-28641
11169,-0.0957031,0.449805,9.77129,3.04871,0.0164795,-0.0604248,0,0,0,0.999664,0.0233459,0.00445557,-0.000671387,-22299,-27666,-29244,-9167,-28641
11175,-0.0717773,0.449805,9.77129,3.04871,0.0164795,-0.0604248,0,0,0,0.999664,0.0233459,0.00445557,-0.000671387,-22811,-28178,-29500,-9167,-28641
11181,-0.062207,0.468945,9.78086,3.04871,0.0164795,-0.0604248,0,0,0,0.999664,0.0233459,0.00445557,-0.000671387,-23067,-28434,-28476,-9167,-28641
11187,-0.0765625,0.435449,9.76172,3.04871,0.0164795,-0.0604248,0,0,0,0.999664,0.0233459,0.00445557,-0.000671387,-23579,-28690,-27452,-9167,-28641
11193,-0.062207,0.449805,9.79043,3.04871,0.0164795,-0.0604248,0,0,0,0.999664,0.0233459,0.00445557,-0.000671387,-24091,-28690,-25916,-9167,-28641
11199,-0.100488,0.44502,9.77607,3.04871,0.0164795,-0.0604248,0,0,0,0.999664,0.0233459,0.00445557,-0.000671387,-24347,-28690,-24636,-9167,-28641
11205,-0.0765625,0.45459,9.73779,3.04871,0.0164795,-0.0604248,0,0,0,0.999664,0.0233459,0.00445557,-0.000671387,-24603,-28178,-24124,-9167,-28641
11211,-0.090918,0.468945,9.79043,3.04871,0.0164795,-0.0604248,0,0,0,0.999664,0.0233459,0.00445557,-0.000671387,-24859,-27922,-24380,-9167,-28641
11217,-0.090918,0.440234,9.76172,3.04871,0.0164795,-0.0604248,0,0,0,0.999664,0.0233459,0.00445557,-0.000671387,-25115,-28178,-24892,-9167,-28641
11223,-0.0765625,0.45459,9.7665,3.04871,0.0164795,-0.0604248,0,0,0,0.999664,0.0233459,0.00445557,-0.000671387,-24859,-27922,-24892,-9167,-28641
11229,-0.0526367,0.45459,9.77607,3.04871,0.0164795,-0.0604248,0,0,0,0.999664,0.0233459,0.00445557,-0.000671387,-24603,-27922,-26428,-9167,-28641
11235,-0.0717773,0.430664,9.76172,3.04871,0.0164795,-0.0604248,0,0,0,0.999664,0.0233459,0.00445557,-0.000671387,-24347,-28178,-28732,-9167,-28641
11241,-0.114844,0.435449,9.78564,3.04871,0.0164795,-0.0604248,0,0,0,0.999664,0.0233459,0.00445557,-0.000671387,-24091,-28434,-28732,-9167,-28641
11247,-0.114844,0.449805,9.74258,3.04871,0.0164795,-0.0604248,0,0,0,0.999664,0.0233459,0.00445557,-0.000671387,-23579,-28434,-28220,-9167,-28641
11253,-0.0765625,0.449805,9.78086,3.04871,0.0164795,-0.0604248,0,0,0,0.999664,0.0233459,0.00445557,-0.000671387,-23323,-28178,-26940,-9167,-28641
11259,-0.0717773,0.488086,9.77129,3.04871,0.0164795,-0.0604248,0,0,0,0.999664,0.0233459,0.00445557,-0.000671387,-22811,-27666,-25660,-9167,-28641
11265,-0.0717773,0.459375,9.79043,3.04871,0.0164795,-0.0604248,0,0,0,0.999664,0.0233459,0.00445557,-0.000671387,-22555,-27410,-24380,-9167,-28641
11271,-0.0861328,0.46416,9.78086,3.04871,0.0164795,-0.0604248,0,0,0,0.999664,0.0233459,0.00445557,-0.000671387,-22811,-27410,-24380,-9167,-28641
11277,-0.0861328,0.478516,9.77129,3.04871,0.0164795,-0.0604248,0,0,0,0.999664,0.0233459,0.00445557,-0.000671387,-22811,-27410,-25148,-9167,-28641
11283,-0.0861328,0.47373,9.77129,3.04871,0.0164795,-0.0604248,0,0,0,0.999664,0.0233459,0.00445557,-0.000671387,-23067,-27666,-25404,-9167,-28641
11289,-0.110059,0.435449,9.75215,3.04871,0.0164795,-0.0604248,0,0,0,0.999664,0.0233459,0.00445557,-0.000671387,-23067,-27666,-26172,-9167,-28641
11295,-0.114844,0.44502,9.77607,3.04871,0.0164795,-0.0604248,0,0,0,0.999664,0.0233459,0.00445557,-0.000671387,-22555,-27922,-27964,-9167,-28641
11301,-0.090918,0.45459,9.77129,3.04871,0.0164795,-0.0604248,0,0,0,0.999664,0.0233459,0.00445557,-0.000671387,-22555,-28178,-28988,-9167,-28641
11307,-0.090918,0.449805,9.77129,3.04871,0.0164795,-0.0604248,0,0,0,0.999664,0.0233459,0.00445557,-0.000671387,-22811,-27922,-29500,-9167,-28641
11313,-0.0813477,0.440234,9.77129,3.04871,0.0164795,-0.0604248,0,0,0,0.999664,0.0233459,0.00445557,-0.000671387,-22811,-28178,-30012,-9167,-28641
11319,-0.0861328,0.478516,9.77607,3.04871,0.0164795,-0.0604248,0,0,0,0.999664,0.0233459,0.00445557,-0.000671387,-22811,-28178,-30268,-9167,-28641
11325,-0.090918,0.468945,9.77129,3.04871,0.0164795,-0.0604248,0,0,0,0.999664,0.0233459,0.00445557,-0.000671387,-23579,-27922,-30524,-9167,-28641
11331,-0.0765625,0.440234,9.74736,3.04871,0.0164795,-0.0604248,0,0,0,0.999664,0.0233459,0.00445557,-0.000671387,-23835,-27666,-30780,-9167,-28641
11337,-0.090918,0.435449,9.77129,3.04871,0.0164795,-0.0604248,0,0,0,0.999664,0.0233459,0.00445557,-0.000671387,-23835,-27922,-30524,-9167,-28641
11343,-0.0717773,0.430664,9.75693,3.04871,0.0164795,-0.0604248,0,0,0,0.999664,0.0233459,0.00445557,-0.000671387,-23579,-27154,-29756,-9167,-28641
11349,-0.105273,0.468945,9.7665,3.04871,0.0164795,-0.0604248,0,0,0,0.999664,0.0233459,0.00445557,-0.000671387,-23323,-27154,-28988,-9167,-28641
11355,-0.062207,0.46416,9.74736,3.04871,0.0164795,-0.0604248,0,0,0,0.999664,0.0233459,0.00445557,-0.000671387,-23835,-27410,-28220,-9167,-28641
11361,-0.100488,0.459375,9.77607,3.04871,0.0164795,-0.0604248,0,0,0,0.999664,0.0233459,0.00445557,-0.000671387,-24347,-27410,-28220,-9167,-28641
11367,-0.0382813,0.44502,9.80479,3.04871,0.0164795,-0.0604248,0,0,0,0.999664,0.0233459,0.00445557,-0.000671387,-24859,-27154,-28476,-9167,-28641
11373,-0.0717773,0.45459,9.77607,3.04871,0.0164795,-0.0604248,0,0,0,0.999664,0.0233459,0.00445557,-0.000671387,-25115,-27154,-29244,-9167,-28641
11379,-0.062207,0.449805,9.7665,3.04871,0.0164795,-0.0604248,0,0,0,0.999664,0.0233459,0.00445557,-0.000671387,-25371,-27154,-30012,-9167,-28641
11385,-0.090918,0.440234,9.7665,3.04871,0.0164795,-0.0604248,0,0,0,0.999664,0.0233459,0.00445557,-0.000671387,-26139,-26898,-31292,-9167,-28641
11391,-0.090918,0.44502,9.76172,3.04871,0.0164795,-0.0604248,0,0,0,0.999664,0.0233459,0.00445557,-0.000671387,-26395,-26898,-31804,-9167,-28641
11397,-0.0957031,0.46416,9.7665,3.04871,0.0164795,-0.0604248,0,0,0,0.999664,0.0233459,0.00445557,-0.000671387,-26395,-26898,-32060,-9167,-28641
11403,-0.114844,0.425879,9.7665,3.04871,0.0164795,-0.0604248,0,0,0,0.999664,0.0233459,0.00445557,-0.000671387,-26651,-26898,-31804,-9167,-28641
11409,-0.105273,0.440234,9.7665,3.04871,0.0164795,-0.0604248,0,0,0,0.999664,0.0233459,0.00445557,-0.000671387,-26907,-27154,-31292,-9167,-28641
11415,-0.124414,0.45459,9.76172,3.04871,0.0164795,-0.0604248,0,0,0,0.999664,0.0233459,0.00445557,-0.000671387,-27675,-27154,-31036,-9167,-28641
11421,-0.0957031,0.459375,9.76172,3.04871,0.0164795,-0.0604248,0,0,0,0.999664,0.0233459,0.00445557,-0.000671387,-27675,-26898,-30268,-9167,-28641
11427,-0.105273,0.440234,9.75693,3.04871,0.0164795,-0.0604248,0,0,0,0.999664,0.0233459,0.00445557,-0.000671387,-27675,-26642,-28732,-9167,-28641
11433,-0.0717773,0.44502,9.75693,3.04871,0.0164795,-0.0604248,0,0,0,0.999664,0.0233459,0.00445557,-0.000671387,-27675,-26130,-27708,-9167,-28641
11439,-0.0765625,0.468945,9.79043,3.04871,0.0164795,-0.0604248,0,0,0,0.999664,0.0233459,0.00445557,-0.000671387,-27163,-26130,-26940,-9167,-28641
11445,-0.0765625,0.46416,9.8,3.04871,0.0164795,-0.0604248,0,0,0,0.999664,0.0233459,0.00445557,-0.000671387,-26651,-26642,-25916,-9167,-28641
11451,-0.0813477,0.459375,9.77129,3.04871,0.0164795,-0.0604248,0,0,0,0.999664,0.0233459,0.00445557,-0.000671387,-26651,-27154,-26172,-9167,-28641
11457,-0.090918,0.46416,9.76172,3.04871,0.0164795,-0.0604248,0,0,0,0.999664,0.0233459,0.00445557,-0.000671387,-26651,-27154,-26684,-9167,-28641
11463,-0.0669922,0.449805,9.73301,3.04871,0.0164795,-0.0604248,0,0,0,0.999664,0.0233459,0.00445557,-0.000671387,-26651,-27410,-27196,-9167,-28641
11469,-0.090918,0.44502,9.77607,3.04871,0.0164795,-0.0604248,0,0,0,0.999664,0.0233459,0.00445557,-0.000671387,-26395,-27922,-27964,-9167,-28641
11475,-0.0765625,0.449805,9.78086,3.04871,0.0164795,-0.0604248,0,0,0,0.999664,0.0233459,0.00445557,-0.000671387,-25627,-28946,-29756,-9167,-28641
11481,-0.100488,0.425879,9.74736,3.04871,0.0164795,-0.0604248,0,0,0,0.999664,0.0233459,0.00445557,-0.000671387,-25115,-29458,-29500,-9167,-28641
11487,-0.0861328,0.46416,9.75693,3.04871,0.0164795,-0.0604248,0,0,0,0.999664,0.0233459,0.00445557,-0.000671387,-24859,-29714,-27964,-9167,-28641
11493,-0.0813477,0.449805,9.77129,3.04871,0.0164795,-0.0604248,0,0,0,0.999664,0.0233459,0.00445557,-0.000671387,-24347,-30482,-26172,-9167,-28641
11499,-0.090918,0.440234,9.76172,3.04871,0.0164795,-0.0604248,0,0,0,0.999664,0.0233459,0.00445557,-0.000671387,-24091,-30738,-24892,-9167,-28641
11505,-0.0717773,0.468945,9.7665,3.04871,0.0164795,-0.0604248,0,0,0,0.999664,0.0233459,0.00445557,-0.000671387,-23323,-30994,-23100,-9167,-28641
11511,-0.105273,0.45459,9.77607,3.04871,0.0164795,-0.0604248,0,0,0,0.999664,0.0233459,0.00445557,-0.000671387,-23067,-30994,-23100,-9167,-28641
11517,-0.0430664,0.468945,9.77129,3.04871,0.0164795,-0.0604248,0,0,0,0.999664,0.0233459,0.00445557,-0.000671387,-22811,-30482,-22844,-9167,-28641
11523,-0.0717773,0.440234,9.77607,3.04871,0.0164795,-0.0604248,0,0,0,0.999664,0.0233459,0.00445557,-0.000671387,-22811,-30226,-22588,-9167,-28641
11529,0.401953,2.07676,9.82393,3.04871,0.0164795,-0.0604248,3.11279,-1.28174,-2.0752,0.999664,0.0233459,0.00445557,-0.000671387,-23067,-29458,-21564,-9167,-28641
11535,-0.842188,-0.842188,6.64658,3.19702,-0.098877,-0.098877,26.4893,-21.5454,-3.60107,0.999664,0.023468,0.00439453,-0.000762939,-23323,-28178,-19516,-9167,-28641
11541,0.263184,0.349316,10.6709,3.02124,0.032959,-0.0384521,-34.5459,26.6724,10.0708,0.999634,0.0246277,0.00344849,-0.000946045,-23579,-27154,-19516,-9167,-28641
11547,0.92832,0.119629,15.3221,2.86743,0.137329,-0.0439453,-31.6162,21.1792,-1.83105,0.999664,0.0231323,0.00460815,-0.000457764,-23579,-26898,-20284,-9167,-28641
11553,-0.555078,-0.229688,7.91943,3.03772,0.0769043,-0.0494385,34.5459,-11.8408,0,0.999695,0.021759,0.00552368,-0.000518799,-23323,-26642,-22076,-9167,-28641
11559,-0.311035,0.502441,10.7235,3.10364,0,-0.0494385,-0.366211,-4.5166,-0.366211,0.999664,0.0238647,0.00430298,-0.000549316,-23323,-26642,-23356,-9167,-28641
11565,0.229688,0.47373,9.11094,3.14758,-0.0549316,-0.0549316,8.42285,-6.71387,0.244141,0.999664,0.0238342,0.00411987,-0.000579834,-23323,-26898,-24124,-9167,-28641
11571,-0.0382813,0.736914,8.14912,3.14209,-0.032959,-0.0549316,-0.732422,5.00488,-0.488281,0.999664,0.0242004,0.0038147,-0.000579834,-23579,-27410,-23612,-9167,-28641
11577,-0.0191406,0.550293,11.1207,3.06519,0.0109863,-0.0549316,-15.8081,9.0332,-0.610352,0.999664,0.0241699,0.00402832,-0.000579834,-23323,-28178,-24636,-9167,-28641
11583,-0.301465,0.100488,10.5513,3.0542,0.0439453,-0.0604248,-2.31934,6.71387,-1.09863,0.999664,0.023468,0.00442505,-0.000610352,-23323,-28946,-25660,-9167,-28641
11589,-0.16748,0.598145,9.62295,3.06519,0.0384521,-0.065918,2.2583,-3.60107,0.366211,0.999664,0.0234985,0.00463867,-0.000671387,-23067,-29202,-26428,-9167,-28641
11595,-0.0574219,0.382812,10.2211,3.08716,0.00549316,-0.065918,2.13623,-3.05176,0.183105,0.999664,0.0235901,0.00448608,-0.000671387,-23067,-30226,-27964,-9167,-28641
11601,-0.181836,0.46416,9.61816,3.11462,-0.0109863,-0.0604248,5.00488,-3.54004,0.366211,0.999664,0.0237122,0.00436401,-0.000671387,-23323,-30226,-27708,-9167,-28641
11607,0.0478516,0.47373,9.36455,3.1311,-0.0219727,-0.0604248,2.99072,-2.31934,0.244141,0.999664,0.0239258,0.00418091,-0.000640869,-23579,-29714,-27196,-9167,-28641
11613,-0.0143555,0.574219,9.62773,3.12012,-0.0164795,-0.0604248,-2.13623,2.01416,-0.183105,0.999664,0.0240479,0.00408936,-0.000640869,-24091,-29202,-26684,-9167,-28641
11619,-0.172266,0.430664,9.81914,3.08716,0.0164795,-0.065918,-4.88281,3.60107,-0.305176,0.999664,0.0237122,0.00442505,-0.000671387,-24091,-28178,-25660,-9167,-28641
11625,-0.210547,0.373242,10.0488,3.06519,0.032959,-0.065918,0.183105,-0.427246,0.0610352,0.999664,0.0234985,0.00460815,-0.000671387,-23835,-27666,-23356,-9167,-28641
11631,-0.090918,0.401953,10.0058,3.09814,0.00549316,-0.065918,5.98145,-5.31006,0.549316,0.999664,0.0234985,0.00457764,-0.000671387,-23323,-28178,-22332,-9167,-28641
11637,-0.062207,0.502441,9.6708,3.12012,-0.0164795,-0.0604248,5.12695,-3.96729,0.427246,0.999664,0.0237732,0.0043335,-0.000671387,-23067,-28434,-22076,-9167,-28641
11643,-0.0143555,0.535937,9.48897,3.12561,-0.0164795,-0.0604248,0.671387,-0.366211,0,0.999664,0.0239868,0.00418091,-0.000640869,-22555,-28690,-21820,-9167,-28641
11649,-0.110059,0.459375,9.75693,3.08716,0.0109863,-0.065918,-4.63867,3.60107,-0.427246,0.999664,0.0239258,0.00424194,-0.000671387,-22299,-28690,-22076,-9167,-28641
11655,-0.13877,0.387598,10.0105,3.08167,0.0219727,-0.065918,-1.89209,1.58691,0,0.999664,0.0237122,0.00442505,-0.000671387,-22043,-27666,-24636,-9167,-28641
11661,-0.133984,0.435449,9.91963,3.09265,0.0109863,-0.065918,2.44141,-1.83105,0.12207,0.999664,0.0236206,0.00448608,-0.000671387,-22043,-27154,-25148,-9167,-28641
11667,-0.0813477,0.47373,9.81914,3.10364,0,-0.065918,2.2583,-1.77002,0.12207,0.999664,0.0237427,0.00439453,-0.000671387,-21787,-26898,-25404,-9167,-28641
11673,-0.0813477,0.478516,9.75693,3.10913,0,-0.065918,1.0376,-0.854492,0.0610352,0.999664,0.0238342,0.0043335,-0.000671387,-21275,-26642,-24892,-9167,-28641
11679,-0.0717773,0.47373,9.59902,3.10913,0,-0.065918,-1.2207,0.244141,0,0.999664,0.0238953,0.00427246,-0.000671387,-21275,-26898,-23612,-9167,-28641
11685,-0.105273,0.440234,9.88613,3.09814,0.00549316,-0.065918,-1.15967,1.0376,-0.12207,0.999664,0.0238342,0.00430298,-0.000671387,-22043,-26898,-22076,-9167,-28641
11691,-0.110059,0.430664,9.87178,3.09814,0.00549316,-0.065918,0.366211,0,0.0610352,0.999664,0.0237732,0.0043335,-0.000671387,-22555,-26642,-22332,-9167,-28641
11697,-0.114844,0.45459,9.71865,3.10364,0,-0.065918,1.28174,-0.915527,0,0.999664,0.0238037,0.0043335,-0.000671387,-22811,-26642,-22588,-9167,-28641
11703,-0.0526367,0.478516,9.77129,3.10364,0,-0.065918,-0.244141,0.12207,0.0610352,0.999664,0.0238647,0.00430298,-0.000671387,-23067,-26386,-22844,-9167,-28641
11709,-0.110059,0.440234,9.68994,3.10364,0,-0.065918,0.244141,0,0.12207,0.999664,0.0238037,0.0043335,-0.000671387,-23323,-26130,-23100,-9167,-28641
11715,-0.0765625,0.468945,9.75693,3.10364,0,-0.065918,0.244141,-0.183105,0,0.999664,0.0238342,0.0043335,-0.000671387,-24347,-25874,-22332,-9167,-28641
11721,-0.0861328,0.45459,9.81436,3.10364,0,-0.065918,0.244141,-0.244141,0,0.999664,0.0238342,0.0043335,-0.000671387,-24603,-26386,-21820,-9167,-28641
11727,-0.0717773,0.468945,9.78086,3.10913,0,-0.065918,0.305176,0,0,0.999664,0.0238342,0.00430298,-0.000671387,-25115,-26642,-22332,-9167,-28641
11733,-0.0957031,0.45459,9.78564,3.10364,0,-0.0604248,-0.732422,0.427246,0.0610352,0.999664,0.0238647,0.00430298,-0.000671387,-25371,-27410,-22844,-9167,-28641
11739,-0.062207,0.44502,9.7043,3.10364,0,-0.0604248,0.793457,-0.671387,0.0610352,0.999664,0.0238342,0.0043335,-0.000671387,-25627,-27922,-23100,-9167,-28641
11745,-0.0765625,0.46416,9.71865,3.10913,0,-0.0604248,0.183105,-0.12207,0,0.999664,0.0238647,0.00430298,-0.000671387,-26139,-28434,-21820,-9167,-28641
11751,-0.0526367,0.449805,9.81914,3.10913,0,-0.065918,-0.0610352,0.183105,-0.12207,0.999664,0.0238647,0.00430298,-0.000671387,-26395,-28946,-19772,-9167,-28641
11757,-0.090918,0.45459,9.74736,3.10364,0,-0.065918,-0.183105,0.183105,-0.12207,0.999664,0.0238647,0.00430298,-0.000671387,-26907,-29202,-18748,-9167,-28641
11763,-0.114844,0.478516,9.75215,3.10364,0,-0.065918,-0.366211,0.244141,0,0.999664,0.0238647,0.00430298,-0.000671387,-26907,-29202,-18236,-9167,-28641
11769,-0.100488,0.459375,9.77607,3.10364,0,-0.065918,0.549316,-0.183105,0,0.999664,0.0238342,0.0043335,-0.000671387,-26907,-29458,-18236,-9167,-28641
11775,-0.0717773,0.459375,9.74258,3.10913,0,-0.065918,0.183105,-0.12207,0,0.999664,0.0238647,0.00430298,-0.000671387,-26651,-30482,-19516,-9167,-28641
11781,-0.0765625,0.44502,9.7665,3.10913,0,-0.065918,0,-0.12207,0,0.999664,0.0238647,0.00430298,-0.000671387,-26395,-30994,-19260,-9167,-28641
11787,-0.062207,0.45459,9.78086,3.10913,0,-0.065918,-0.0610352,0,0,0.999664,0.0238647,0.00430298,-0.000671387,-26139,-31506,-19260,-9167,-28641
11793,-0.100488,0.430664,9.76172,3.10364,0,-0.065918,-0.183105,0.0610352,-0.0610352,0.999664,0.0238647,0.00430298,-0.000671387,-25883,-31762,-18492,-9167,-28641
11799,-0.0478516,0.44502,9.7665,3.10913,0,-0.065918,0.244141,-0.183105,0,0.999664,0.0238647,0.00430298,-0.000671387,-25883,-31506,-18236,-9167,-28641
11805,-0.0574219,0.47373,9.78086,3.10913,0,-0.065918,0.12207,-0.12207,0,0.999664,0.0238647,0.00430298,-0.000671387,-26395,-30994,-17468,-9167,-28641
11811,-0.090918,0.488086,9.80479,3.10913,0,-0.065918,-0.12207,0.183105,0,0.999664,0.0238647,0.00427246,-0.000671387,-26651,-30226,-17724,-9167,-28641
11817,-0.0813477,0.459375,9.79043,3.10364,0,-0.065918,-0.0610352,0.0610352,0,0.999664,0.0238647,0.00430298,-0.000671387,-26651,-29970,-18236,-9167,-28641
11823,-0.0957031,0.435449,9.77129,3.10364,0,-0.065918,0,-0.0610352,0.12207,0.999664,0.0238647,0.00430298,-0.000671387,-26395,-29458,-18492,-9167,-28641
11829,-0.0813477,0.45459,9.78564,3.10913,-0.00549316,-0.065918,0.12207,-0.12207,0,0.999664,0.0238647,0.00430298,-0.000671387,-25883,-28946,-19772,-9167,-28641
11835,-0.090918,0.44502,9.73779,3.10913,-0.00549316,-0.065918,0.12207,-0.12207,0,0.999664,0.0238647,0.00427246,-0.000671387,-25371,-27666,-20284,-9167,-28641
11841,-0.0813477,0.449805,9.78086,3.10913,-0.00549316,-0.065918,0,0,0.12207,0.999664,0.0238647,0.00427246,-0.000671387,-25371,-27154,-20540,-9167,-28641
11847,-0.105273,0.449805,9.79043,3.10364,-0.00549316,-0.0604248,-0.0610352,0,0.12207,0.999664,0.0238647,0.00427246,-0.000671387,-25627,-26642,-20540,-9167,-28641
11853,-0.124414,0.44502,9.74736,3.10364,-0.00549316,-0.0604248,0,0.12207,0,0.999664,0.0238647,0.00427246,-0.000671387,-25627,-27154,-20284,-9167,-28641
11859,-0.0813477,0.435449,9.8,3.10364,-0.00549316,-0.0604248,0,-0.0610352,0.0610352,0.999664,0.0238647,0.00427246,-0.000640869,-26139,-26898,-19772,-9167,-28641
11865,-0.090918,0.449805,9.78086,3.10364,-0.00549316,-0.0604248,0.12207,-0.12207,0.0610352,0.999664,0.0238342,0.00427246,-0.000640869,-25883,-27154,-20028,-9167,-28641
11871,-0.0957031,0.459375,9.73779,3.10364,-0.00549316,-0.0604248,0.0610352,0,-0.12207,0.999664,0.0238647,0.00427246,-0.000640869,-25627,-26642,-20028,-9167,-28641
11877,-0.0669922,0.45459,9.78086,3.10364,-0.00549316,-0.0604248,-0.12207,0.12207,0,0.999664,0.0238647,0.00427246,-0.000640869,-25371,-26386,-20284,-9167,-28641
11883,-0.100488,0.440234,9.79043,3.10364,0,-0.0604248,0,0.0610352,0,0.999664,0.0238342,0.00427246,-0.000640869,-25115,-26130,-20796,-9167,-28641
11889,-0.100488,0.47373,9.74736,3.10364,-0.00549316,-0.0604248,0.12207,-0.0610352,0.12207,0.999664,0.0238342,0.00427246,-0.000640869,-24859,-25874,-21820,-9167,-28641
11895,-0.0765625,0.435449,9.78086,3.10364,-0.00549316,-0.0604248,0,0,0.0610352,0.999664,0.0238647,0.00427246,-0.000640869,-25371,-27154,-21308,-9167,-28641
11901,-0.114844,0.449805,9.78564,3.10364,0,-0.0604248,-0.0610352,0.12207,-0.0610352,0.999664,0.0238342,0.00427246,-0.000640869,-26139,-27666,-20540,-9167,-28641
11907,-0.110059,0.421094,9.77607,3.10364,0,-0.0604248,0,0,0.0610352,0.999664,0.0238342,0.00427246,-0.000640869,-26907,-28178,-19004,-9167,-28641
11913,-0.105273,0.459375,9.77129,3.10364,-0.00549316,-0.0604248,0.0610352,-0.12207,-0.12207,0.999664,0.0238342,0.00427246,-0.000640869,-27419,-28434,-17724,-9167,-28641
11919,-0.0813477,0.435449,9.74258,3.10364,0,-0.0604248,-0.0610352,0,0,0.999664,0.0238342,0.00427246,-0.000640869,-27931,-28946,-17212,-9167,-28641
11925,-0.0765625,0.44502,9.75215,3.10364,0,-0.0604248,0.0610352,0,-0.0610352,0.999664,0.0238342,0.00427246,-0.000640869,-27675,-29202,-17980,-9167,-28641
11931,-0.090918,0.449805,9.78564,3.10364,0,-0.0604248,0,0.0610352,0,0.999664,0.0238342,0.00427246,-0.000640869,-27675,-29458,-18492,-9167,-28641
11937,-0.0765625,0.449805,9.76172,3.10364,0,-0.0604248,0,-0.12207,0.0610352,0.999664,0.0238342,0.00430298,-0.000640869,-27675,-29714,-19004,-9167,-28641
11943,-0.0957031,0.46416,9.76172,3.10364,0,-0.0604248,0,0,0,0.999664,0.0238342,0.00427246,-0.000640869,-27419,-29970,-19772,-9167,-28641
11949,-0.090918,0.449805,9.79043,3.10364,0,-0.0604248,-0.0610352,0,0,0.999664,0.0238342,0.00427246,-0.000640869,-27163,-30226,-20540,-9167,-28641
11955,-0.105273,0.449805,9.76172,3.10364,0,-0.0604248,0,0,0,0.999664,0.0238342,0.00430298,-0.000640869,-26651,-31250,-21564,-9167,-28641
11961,-0.105273,0.46416,9.76172,3.10364,0,-0.0604248,0,-0.0610352,0.0610352,0.999664,0.0238037,0.00430298,-0.000640869,-26395,-31762,-21820,-9167,-28641
11967,-0.0861328,0.435449,9.78086,3.10364,0,-0.0604248,-0.0610352,0.12207,0,0.999664,0.0238037,0.00427246,-0.000640869,-26139,-32274,-22076,-9167,-28641
11973,-0.0813477,0.46416,9.7665,3.10364,0,-0.0604248,0,0,0.12207,0.999664,0.0238037,0.00430298,-0.000640869,-26139,-32530,-22332,-9167,-28641
11979,-0.0861328,0.46416,9.74258,3.10364,0,-0.0604248,0.12207,-0.0610352,0,0.999664,0.0238037,0.00430298,-0.000640869,-26395,-32274,-22332,-9167,-28641
11985,-0.0813477,0.44502,9.75215,3.10364,0,-0.0604248,0.0610352,0,0,0.999664,0.0238037,0.00430298,-0.000640869,-26139,-30738,-21308,-9167,-28641
11991,-0.0861328,0.45459,9.78564,3.10364,0,-0.0604248,0,0,0,0.999664,0.0238342,0.00430298,-0.000640869,-25883,-29970,-20284,-9167,-28641
11997,-0.0765625,0.45459,9.74258,3.10364,0,-0.0604248,-0.0610352,-0.0610352,0,0.999664,0.0238037,0.00430298,-0.000640869,-25627,-28946,-19516,-9167,-28641
12003,-0.062207,0.430664,9.8,3.10364,0,-0.0604248,0,-0.12207,0,0.999664,0.0238037,0.00430298,-0.000640869,-25115,-28434,-19516,-9167,-28641
12009,-0.090918,0.44502,9.78564,3.09814,0,-0.0604248,0,0,0,0.999664,0.0238037,0.00430298,-0.000640869,-24603,-28434,-20284,-9167,-28641
12015,-0.114844,0.45459,9.78564,3.09814,0,-0.0604248,-0.244141,0.183105,0,0.999664,0.0238037,0.00430298,-0.000640869,-24347,-28434,-22588,-9167,-28641
12021,-0.114844,0.44502,9.79043,3.09814,0,-0.0604248,0,-0.0610352,0,0.999664,0.0238037,0.00430298,-0.000640869,-24347,-28178,-23612,-9167,-28641
12027,-0.0717773,0.435449,9.78086,3.09814,0,-0.0604248,0.12207,-0.0610352,0.0610352,0.999664,0.0238037,0.00430298,-0.000640869,-23835,-27922,-24380,-9167,-28641
12033,-0.090918,0.45459,9.77129,3.09814,0,-0.0604248,-0.0610352,-0.244141,0,0.999664,0.0238037,0.00430298,-0.000640869,-23323,-27410,-24892,-9167,-28641
12039,-0.0669922,0.45459,9.78564,3.09814,-0.00549316,-0.0604248,-0.12207,-0.0610352,0.0610352,0.999664,0.0238037,0.00427246,-0.000640869,-22811,-26898,-25148,-9167,-28641
12045,-0.0957031,0.46416,9.7665,3.09814,-0.00549316,-0.0604248,0.0610352,-0.12207,0,0.999664,0.0237732,0.00427246,-0.000640869,-22043,-25618,-25148,-9167,-28641
12051,-0.090918,0.45459,9.77607,3.09814,-0.00549316,-0.0604248,0,0.0610352,0,0.999664,0.0237732,0.00427246,-0.000640869,-22043,-25106,-25404,-9167,-28641
12057,-0.100488,0.468945,9.79043,3.09814,0,-0.0604248,0,0.0610352,0,0.999664,0.0237732,0.00427246,-0.000640869,-22555,-24338,-25148,-9167,-28641
12063,-0.114844,0.449805,9.79521,3.09814,0,-0.0604248,0,-0.0610352,-0.0610352,0.999664,0.0237732,0.00427246,-0.000640869,-23323,-24082,-24892,-9167,-28641
12069,-0.090918,0.440234,9.76172,3.09814,0,-0.0604248,0,0.0610352,0,0.999664,0.0237732,0.00427246,-0.000640869,-24091,-23826,-24380,-9167,-28641
12075,-0.0765625,0.47373,9.78564,3.09814,0,-0.0604248,-0.0610352,0,0,0.999664,0.0237732,0.00430298,-0.000640869,-24859,-24082,-22844,-9167,-28641
12081,-0.090918,0.483301,9.8,3.09814,0,-0.0604248,-0.0610352,0,0,0.999664,0.0237732,0.00430298,-0.000640869,-24859,-24082,-21564,-9167,-28641
12087,-0.105273,0.449805,9.77129,3.09814,0,-0.0604248,0,0,0.12207,0.999664,0.0237732,0.00430298,-0.000640869,-24347,-24082,-21820,-9167,-28641
12093,-0.0813477,0.435449,9.78086,3.09814,0,-0.0604248,0,0.0610352,0,0.999664,0.0237732,0.00430298,-0.000640869,-23579,-24082,-22588,-9167,-28641
12099,-0.090918,0.44502,9.78086,3.09814,0,-0.0604248,0,-0.12207,0,0.999664,0.0237732,0.00430298,-0.000640869,-22811,-24338,-23868,-9167,-28641
12105,-0.090918,0.459375,9.77129,3.09814,0,-0.0604248,0.0610352,0.12207,0.0610352,0.999664,0.0237732,0.00430298,-0.000640869,-21787,-25618,-26428,-9167,-28641
12111,-0.0861328,0.46416,9.77607,3.09265,0,-0.0604248,-0.0610352,-0.0610352,0.0610352,0.999664,0.0237732,0.00430298,-0.000640869,-21531,-26386,-27196,-9167,-28641
12117,-0.0861328,0.45459,9.71865,3.09814,0,-0.0604248,0.0610352,0,0.0610352,0.999664,0.0237732,0.00430298,-0.000640869,-21275,-27154,-27196,-9167,-28641
12123,-0.0813477,0.45459,9.75693,3.09265,0,-0.0604248,-0.0610352,-0.12207,0.0610352,0.999664,0.0237732,0.00430298,-0.000640869,-21275,-27922,-27452,-9167,-28641
12129,-0.0861328,0.449805,9.77129,3.09265,0,-0.0604248,0,0.0610352,0.0610352,0.999664,0.0237427,0.00430298,-0.000640869,-21531,-28946,-26684,-9167,-28641
12135,-0.090918,0.449805,9.75693,3.09265,0,-0.0604248,0.183105,-0.0610352,0,0.999664,0.0237427,0.00430298,-0.000610352,-21531,-29458,-26428,-9167,-28641
12141,-0.100488,0.44502,9.75215,3.09265,0,-0.0604248,0,0.12207,0,0.999664,0.0237732,0.00430298,-0.000610352,-21531,-29202,-25916,-9167,-28641
12147,-0.0813477,0.45459,9.79043,3.09265,0,-0.0604248,-0.183105,0.183105,0,0.999664,0.0237732,0.00430298,-0.000610352,-21531,-28946,-25660,-9167,-28641
12153,-0.090918,0.46416,9.79521,3.09265,0,-0.0604248,0,0,0,0.999664,0.0237427,0.00430298,-0.000610352,-21787,-28178,-25404,-9167,-28641
12159,-0.0957031,0.44502,9.74736,3.09265,0,-0.0604248,0.0610352,-0.0610352,0,0.999664,0.0237427,0.00430298,-0.000610352,-21531,-27666,-23612,-9167,-28641
12165,-0.0861328,0.45459,9.79043,3.09265,0,-0.0604248,-0.12207,0.0610352,0,0.999664,0.0237427,0.00430298,-0.000610352,-21531,-27922,-22844,-9167,-28641
12171,-0.090918,0.430664,9.8,3.09265,0,-0.0604248,0,-0.0610352,0,0.999664,0.0237427,0.00430298,-0.000610352,-21787,-28178,-22076,-9167,-28641
12177,-0.090918,0.468945,9.77607,3.09265,0,-0.0604248,0.0610352,0,0,0.999664,0.0237427,0.00430298,-0.000610352,-22299,-28690,-20540,-9167,-28641
12183,-0.100488,0.435449,9.75215,3.09265,0,-0.0604248,0,0,0,0.999664,0.0237427,0.00430298,-0.000610352,-22811,-29202,-19772,-9167,-28641
12189,-0.0957031,0.459375,9.8,3.09265,0,-0.0604248,-0.0610352,0.244141,0,0.999664,0.0237427,0.00430298,-0.000610352,-23835,-29202,-18492,-9167,-28641
12195,-0.0669922,0.45459,9.80957,3.09265,0,-0.0604248,0.12207,-0.12207,0,0.999664,0.0237427,0.00430298,-0.000610352,-24091,-29458,-19004,-9167,-28641
12201,-0.090918,0.46416,9.74736,3.09265,0,-0.0604248,0.244141,-0.0610352,0,0.999664,0.0237427,0.00430298,-0.000610352,-24091,-29202,-19772,-9167,-28641
12207,-0.062207,0.44502,9.75693,3.09265,0,-0.0604248,-0.183105,0,0,0.999664,0.0237427,0.00430298,-0.000610352,-24091,-29202,-20796,-9167,-28641
12213,-0.090918,0.44502,9.76172,3.09265,0,-0.0604248,0,-0.0610352,0,0.999664,0.0237427,0.00430298,-0.000610352,-23579,-28690,-22076,-9167,-28641
12219,-0.0813477,0.440234,9.78086,3.09265,0,-0.0604248,0,0,0,0.999664,0.0237427,0.00430298,-0.000610352,-23067,-27154,-23100,-9167,-28641
12225,-0.0861328,0.440234,9.75693,3.09265,0,-0.0604248,0.244141,-0.0610352,0,0.999664,0.0237427,0.00430298,-0.000610352,-22811,-27154,-23612,-9167,-28641
12231,-0.0861328,0.44502,9.76172,3.09265,0,-0.0604248,0.12207,0,0,0.999664,0.0237427,0.00430298,-0.000610352,-22555,-26898,-23612,-9167,-28641
12237,-0.0813477,0.45459,9.7665,3.09265,0,-0.0604248,-0.0610352,-0.0610352,0,0.999664,0.0237427,0.00430298,-0.000640869,-22555,-26898,-23868,-9167,-28641
12243,-0.105273,0.468945,9.79043,3.09265,0,-0.0604248,0,0,0,0.999664,0.0237427,0.00430298,-0.000640869,-22555,-26898,-24380,-9167,-28641
12249,-0.0717773,0.44502,9.78086,3.09265,0,-0.0604248,0.0610352,-0.0610352,0,0.999664,0.0237427,0.00430298,-0.000640869,-22299,-27154,-24380,-9167,-28641
12255,-0.105273,0.45459,9.77607,3.09265,0,-0.0604248,0.0610352,-0.0610352,0,0.999664,0.0237427,0.00430298,-0.000640869,-22555,-27154,-24124,-9167,-28641
12261,-0.0957031,0.45459,9.74258,3.09265,0,-0.0604248,0,0,0,0.999664,0.0237427,0.00430298,-0.000640869,-22555,-26642,-24124,-9167,-28641
12267,-0.090918,0.45459,9.77607,3.09265,0,-0.0604248,0,0.12207,0,0.999664,0.0237427,0.00430298,-0.000640869,-22811,-26386,-24124,-9167,-28641
12273,-0.0813477,0.45459,9.77607,3.09265,0,-0.0604248,0,0,0,0.999664,0.0237427,0.00430298,-0.000640869,-23067,-25874,-24124,-9167,-28641
12279,-0.0861328,0.45459,9.76172,3.09265,0,-0.0604248,0,-0.0610352,0,0.999664,0.0237427,0.00430298,-0.000640869,-23579,-25618,-25148,-9167,-28641
12285,-0.0717773,0.478516,9.71865,3.09265,0,-0.0604248,0.12207,-0.183105,0,0.999664,0.0237427,0.00430298,-0.000640869,-23835,-25618,-26428,-9167,-28641
12291,-0.0813477,0.44502,9.76172,3.09265,0,-0.0604248,0,-0.0610352,0,0.999664,0.0237427,0.00430298,-0.000640869,-24091,-25618,-28220,-9167,-28641
12297,-0.0957031,0.47373,9.78086,3.09265,0,-0.0604248,-0.0610352,0.0610352,0,0.999664,0.0237427,0.00430298,-0.000640869,-24347,-25874,-30012,-9167,-28641
12303,-0.0861328,0.459375,9.81436,3.09265,0,-0.0604248,-0.12207,0.0610352,0,0.999664,0.0237427,0.00430298,-0.000640869,-24603,-25874,-30780,-9167,-28641
12309,-0.0813477,0.459375,9.75693,3.09265,0,-0.0604248,0,0,0,0.999664,0.0237427,0.00430298,-0.000640869,-25115,-25618,-31548,-9167,-28641
12315,-0.090918,0.468945,9.74258,3.09265,0,-0.0604248,0.0610352,-0.0610352,0,0.999664,0.0237427,0.00430298,-0.000640869,-25115,-25874,-30524,-9167,-28641
12321,-0.090918,0.440234,9.76172,3.09265,0,-0.0604248,0,0,0,0.999664,0.0237427,0.00430298,-0.000640869,-25115,-26130,-29500,-9167,-28641
12327,-0.062207,0.45459,9.78086,3.09265,0,-0.0604248,0,0.0610352,0,0.999664,0.0237427,0.00430298,-0.000640869,-25115,-26386,-28732,-9167,-28641
12333,-0.0717773,0.435449,9.78564,3.09265,0,-0.0604248,-0.12207,0,0,0.999664,0.0237427,0.00430298,-0.000640869,-25115,-26898,-27964,-9167,-28641
12339,-0.0813477,0.435449,9.76172,3.09265,0,-0.0604248,-0.0610352,0.183105,0,0.999664,0.0237122,0.00430298,-0.000640869,-24347,-27410,-29244,-9167,-28641
12345,-0.0813477,0.46416,9.76172,3.09265,0,-0.0604248,-0.12207,-0.0610352,0,0.999664,0.0237122,0.0043335,-0.000640869,-24091,-27922,-29756,-9167,-28641
12351,-0.0861328,0.44502,9.79521,3.09265,0,-0.0604248,0.183105,-0.0610352,0,0.999664,0.0237122,0.0043335,-0.000640869,-24091,-27922,-30012,-9167,-28641
12357,-0.105273,0.440234,9.78564,3.09265,0,-0.0604248,0,0,0,0.999664,0.0237122,0.00430298,-0.000640869,-23579,-28178,-29500,-9167,-28641
12363,-0.0861328,0.44502,9.76172,3.09265,0,-0.0604248,0.0610352,-0.0610352,0,0.999664,0.0237122,0.00430298,-0.000640869,-23579,-28178,-29756,-9167,-28641
12369,-0.105273,0.449805,9.77129,3.09265,0,-0.0604248,0,-0.12207,0,0.999664,0.0237122,0.00430298,-0.000640869,-23835,-28434,-28476,-9167,-28641
12375,-0.0813477,0.45459,9.81436,3.09265,0,-0.0604248,0.0610352,0,0,0.999664,0.0237122,0.00430298,-0.000640869,-24091,-28434,-28220,-9167,-28641
12381,-0.090918,0.430664,9.79043,3.09265,0,-0.0604248,0.0610352,-0.12207,0,0.999664,0.0237122,0.00430298,-0.000640869,-24859,-27922,-27708,-9167,-28641
12387,-0.0717773,0.44502,9.76172,3.09265,0,-0.0604248,0,0,0,0.999664,0.0237122,0.00430298,-0.000640869,-25371,-27666,-27964,-9167,-28641
12393,-0.0813477,0.449805,9.75693,3.08716,0,-0.0604248,0,0,0,0.999664,0.0237122,0.00430298,-0.000640869,-25883,-27410,-28476,-9167,-28641
12399,-0.0765625,0.468945,9.76172,3.08716,0,-0.0604248,0,0.0610352,0,0.999664,0.0237122,0.00430298,-0.000640869,-26395,-27154,-30524,-9167,-28641
12405,-0.100488,0.45459,9.78086,3.08716,0,-0.0604248,0,-0.0610352,0,0.999664,0.0237122,0.00430298,-0.000640869,-26395,-27154,-30780,-9167,-28641
12411,-0.0765625,0.46416,9.78564,3.08716,0,-0.0604248,0,0,0,0.999664,0.0237122,0.00430298,-0.000640869,-26139,-27154,-31036,-9167,-28641
12417,-0.100488,0.449805,9.7665,3.08716,0,-0.0604248,0,0,0,0.999664,0.0237122,0.00430298,-0.000640869,-26139,-27154,-31292,-9167,-28641
12423,-0.100488,0.435449,9.77607,3.08716,0,-0.0604248,-0.0610352,0,0,0.999664,0.0237122,0.00430298,-0.000640869,-26395,-27410,-30780,-9167,-28641
12429,-0.0765625,0.449805,9.76172,3.08716,0,-0.0604248,0,0,0,0.999664,0.0237122,0.00430298,-0.000640869,-26139,-27410,-30268,-9167,-28641
12435,-0.0813477,0.478516,9.79043,3.08716,0,-0.0604248,0.12207,0,0,0.999664,0.0237122,0.00430298,-0.000640869,-25883,-26898,-29500,-9167,-28641
12441,-0.0861328,0.45459,9.77607,3.08716,0,-0.0604248,0,-0.12207,0,0.999664,0.0237122,0.00430298,-0.000640869,-25883,-26386,-28988,-9167,-28641
12447,-0.062207,0.47373,9.78086,3.08716,0,-0.0604248,0,0.0610352,0,0.999664,0.0237122,0.00430298,-0.000640869,-25883,-26130,-28732,-9167,-28641
12453,-0.124414,0.45459,9.77607,3.08716,0,-0.0604248,0.12207,0,0,0.999664,0.0237122,0.00430298,-0.000640869,-25883,-25618,-28220,-9167,-28641
12459,-0.100488,0.44502,9.8,3.08716,0,-0.0604248,0,0,0,0.999664,0.0237122,0.00430298,-0.000640869,-26395,-25874,-26940,-9167,-28641
12465,-0.0765625,0.435449,9.77129,3.08716,0,-0.0604248,0.0610352,-0.0610352,0,0.999664,0.0237122,0.00430298,-0.000640869,-26395,-25874,-25404,-9167,-28641
12471,-0.0813477,0.459375,9.77607,3.08716,0,-0.0604248,0,0,0,0.999664,0.0237122,0.00430298,-0.000640869,-26139,-25618,-24380,-9167,-28641
12477,-0.0717773,0.425879,9.79521,3.08716,0,-0.0604248,0,-0.0610352,0,0.999664,0.0237122,0.00430298,-0.000640869,-26139,-25618,-23612,-9167,-28641
12483,-0.0861328,0.46416,9.79043,3.08716,0,-0.0604248,0,0,0,0.999664,0.0237122,0.00430298,-0.000640869,-25883,-25618,-23100,-9167,-28641
12489,-0.0861328,0.440234,9.78564,3.08716,0,-0.0604248,-0.183105,-0.0610352,0,0.999664,0.0237122,0.00430298,-0.000640869,-25627,-26130,-23612,-9167,-28641
12495,-0.0813477,0.483301,9.75215,3.08716,0,-0.0604248,0.12207,0,0,0.999664,0.0236816,0.00430298,-0.000640869,-25627,-26642,-24380,-9167,-28641
12501,-0.0765625,0.47373,9.78086,3.08716,0,-0.0604248,0,0.183105,0,0.999664,0.0237122,0.00430298,-0.000640869,-25371,-26642,-25660,-9167,-28641
12507,-0.0813477,0.449805,9.77607,3.08716,0,-0.0604248,-0.12207,0,0,0.999664,0.0236816,0.00430298,-0.000640869,-25115,-27410,-26172,-9167,-28641
12513,-0.0861328,0.459375,9.77607,3.08716,0,-0.0604248,0,-0.0610352,0,0.999664,0.0236816,0.00430298,-0.000640869,-24859,-27666,-26172,-9167,-28641
12519,-0.0861328,0.44502,9.8,3.08716,0,-0.0604248,0,0,0,0.999664,0.0236816,0.00430298,-0.000640869,-24859,-28178,-24892,-9167,-28641
12525,-0.0861328,0.430664,9.76172,3.08716,0,-0.0604248,-0.0610352,0.12207,0,0.999664,0.0236816,0.00430298,-0.000640869,-24603,-27922,-24380,-9167,-28641
12531,-0.0813477,0.449805,9.79043,3.08716,0,-0.0604248,0,0,0,0.999664,0.0236816,0.00430298,-0.000640869,-24347,-28178,-24636,-9167,-28641
12537,-0.0861328,0.459375,9.75215,3.08716,0,-0.0604248,0.183105,-0.0610352,0,0.999664,0.0236816,0.00430298,-0.000640869,-24091,-28434,-24892,-9167,-28641
12543,-0.090918,0.46416,9.78086,3.08716,0,-0.0604248,0,-0.12207,0,0.999664,0.0236816,0.00430298,-0.000640869,-23579,-28178,-25404,-9167,-28641
12549,0.875684,1.76572,7.68496,3.24097,-0.0769043,-0.137329,31.1279,-16.2964,-14.7705,0.999664,0.0236816,0.00430298,-0.000640869,-23323,-27666,-26172,-9167,-28641
12555,-2.34951,-2.49307,6.67529,3.16406,-0.0604248,-0.0933838,-15.3198,3.90625,8.72803,0.999634,0.0250549,0.00360107,-0.00128174,-23323,-27154,-25916,-9167,-28641
12561,1.93799,3.11514,17.3366,2.8125,0.131836,-0.00549316,-70.3125,39.7339,15.4419,0.999664,0.024353,0.00378418,-0.000915527,-23323,-26898,-25148,-9167,-28641
12567,-0.521582,-1.0623,10.135,2.94983,0.137329,-0.00549316,27.5269,0.366211,-0.12207,0.999725,0.0213013,0.00549316,-0.000183105,-23579,-26898,-25148,-9167,-28641
12573,-0.784766,0.880469,6.24941,3.14209,-0.0384521,-0.0219727,38.3911,-35.4004,-0.976562,0.999664,0.0241699,0.00396729,-0.000274658,-24091,-27154,-25148,-9167,-28641
12579,-0.358887,0.282324,10.4508,3.11462,-0.0494385,-0.0164795,2.01416,-7.56836,0.488281,0.999664,0.0238647,0.00424194,-0.000244141,-24347,-27666,-25916,-9167,-28641
12585,0.15791,0.344531,8.1874,3.14758,-0.0439453,-0.0219727,6.28662,0.549316,-0.976562,0.999664,0.0239563,0.00390625,-0.000244141,-24859,-27410,-25916,-9167,-28641
12591,-0.229688,0.736914,9.50332,3.10364,0,-0.0274658,-9.09424,8.30078,-1.28174,0.999664,0.0242004,0.00393677,-0.000274658,-24347,-27154,-26172,-9167,-28641
12597,0.0191406,0.30625,11.3791,3.02124,0.0549316,-0.0274658,-15.9302,11.4136,-1.15967,0.999664,0.0238342,0.00430298,-0.000335693,-23835,-27154,-26172,-9167,-28641
12603,-0.406738,-0.449805,9.62295,3.01575,0.0823975,-0.0274658,-1.83105,5.5542,0,0.999664,0.0230408,0.0050354,-0.000366211,-23579,-27410,-26684,-9167,-28641
12609,-0.16748,0.502441,10.2785,3.04871,0.0219727,-0.0274658,4.3335,-6.95801,0.610352,0.999664,0.0231628,0.00482178,-0.000366211,-23579,-28178,-28732,-9167,-28641
12615,-0.0143555,0.349316,9.95791,3.08167,0.00549316,-0.0219727,6.65283,-3.78418,0.366211,0.999664,0.0233765,0.0045166,-0.000335693,-23835,-28690,-29500,-9167,-28641
12621,-0.0574219,0.555078,9.13486,3.10913,-0.0164795,-0.0219727,5.61523,-4.63867,0.610352,0.999664,0.0236511,0.00436401,-0.000335693,-23835,-28690,-29756,-9167,-28641
12627,0.090918,0.516797,9.35977,3.10364,-0.0109863,-0.0219727,-0.793457,1.2207,0.0610352,0.999664,0.0238953,0.00415039,-0.000305176,-23835,-28434,-29756,-9167,-28641
12633,-0.0382813,0.507227,9.86221,3.07068,0.0219727,-0.0219727,-6.40869,6.16455,-0.671387,0.999664,0.0235596,0.00448608,-0.000335693,-23323,-28178,-29500,-9167,-28641
12639,-0.181836,0.378027,9.99619,3.01575,0.065918,-0.0274658,-4.15039,2.01416,-0.244141,0.999664,0.0232239,0.00479126,-0.000335693,-22299,-27922,-28732,-9167,-28641
12645,-0.248828,0.30625,10.3312,3.03772,0.0384521,-0.0274658,5.18799,-4.88281,0.244141,0.999664,0.0230408,0.00488281,-0.000366211,-21787,-28178,-28476,-9167,-28641
12651,0,0.521582,9.75215,3.08716,0.00549316,-0.0274658,9.27734,-7.32422,0.488281,0.999664,0.0232544,0.00466919,-0.000335693,-21787,-28434,-28988,-9167,-28641
12657,0.00478516,0.531152,9.4124,3.09814,-0.00549316,-0.0274658,2.80762,-2.44141,0.183105,0.999664,0.0236816,0.00436401,-0.000335693,-21531,-28946,-29244,-9167,-28641
12663,-0.0526367,0.492871,9.51289,3.09265,0,-0.0274658,-1.09863,0.976562,-0.305176,0.999664,0.0237427,0.00430298,-0.000335693,-21531,-29458,-29244,-9167,-28641
12669,-0.181836,0.449805,9.91963,3.04321,0.0384521,-0.0274658,-5.49316,4.08936,-0.305176,0.999664,0.0235291,0.00445557,-0.000335693,-21531,-29970,-28732,-9167,-28641
12675,-0.16748,0.363672,10.0584,3.04321,0.0384521,-0.0274658,0.12207,0.0610352,0,0.999664,0.0232849,0.00463867,-0.000366211,-22043,-30482,-28476,-9167,-28641
12681,-0.0717773,0.44502,9.8957,3.05969,0.0219727,-0.0274658,3.78418,-2.74658,0.305176,0.999664,0.0232849,0.00463867,-0.000366211,-22555,-30738,-28732,-9167,-28641
12687,-0.0382813,0.478516,9.79521,3.07068,0.0109863,-0.0274658,2.38037,-2.13623,0.0610352,0.999664,0.023468,0.0045166,-0.000335693,-23579,-30738,-27708,-9167,-28641
12693,-0.0334961,0.459375,9.57988,3.07617,0.0109863,-0.0274658,0.671387,-0.244141,0,0.999664,0.0235901,0.00442505,-0.000335693,-24091,-30738,-27452,-9167,-28641
12699,-0.0813477,0.459375,9.73301,3.05969,0.0219727,-0.0274658,-1.83105,1.34277,-0.183105,0.999664,0.0235291,0.00445557,-0.000366211,-24347,-30226,-25916,-9167,-28641
12705,-0.110059,0.435449,9.90049,3.05969,0.0219727,-0.0274658,-0.549316,0.305176,0,0.999664,0.023468,0.0045166,-0.000366211,-24091,-29970,-25404,-9167,-28641
12711,-0.100488,0.435449,9.82393,3.06519,0.0219727,-0.0274658,1.28174,-0.549316,0.12207,0.999664,0.0234375,0.0045166,-0.000366211,-23835,-29714,-24892,-9167,-28641
12717,-0.090918,0.47373,9.73779,3.07068,0.0164795,-0.0274658,1.0376,-1.0376,0.0610352,0.999664,0.023468,0.00448608,-0.000366211,-23835,-29714,-23868,-9167,-28641
12723,-0.119629,0.411523,9.76172,3.06519,0.0164795,-0.0274658,-0.427246,0.366211,-0.0610352,0.999664,0.0234985,0.00445557,-0.000366211,-23579,-29714,-22844,-9167,-28641
12729,-0.105273,0.435449,9.64209,3.06519,0.0164795,-0.0274658,0.244141,-0.244141,0.0610352,0.999664,0.023468,0.00448608,-0.000366211,-23067,-30482,-21820,-9167,-28641
12735,-0.0717773,0.46416,9.7043,3.06519,0.0164795,-0.0274658,-0.0610352,0.0610352,0,0.999664,0.0234985,0.00448608,-0.000366211,-23067,-30738,-20540,-9167,-28641
12741,-0.0861328,0.468945,9.86699,3.06519,0.0164795,-0.0274658,0,0.12207,-0.12207,0.999664,0.0234985,0.00448608,-0.000366211,-22811,-30482,-19516,-9167,-28641
12747,-0.0957031,0.45459,9.77607,3.06519,0.0219727,-0.0274658,0,0,-0.0610352,0.999664,0.0234985,0.00448608,-0.000366211,-23067,-30482,-19004,-9167,-28641
12753,-0.105273,0.440234,9.80479,3.05969,0.0219727,-0.0274658,-0.488281,0.427246,-0.12207,0.999664,0.023468,0.0045166,-0.000366211,-23067,-30482,-18236,-9167,-28641
12759,-0.0957031,0.45459,9.7043,3.06519,0.0164795,-0.0274658,0.549316,-0.488281,0,0.999664,0.023468,0.00448608,-0.000366211,-23835,-31250,-18492,-9167,-28641
12765,-0.0669922,0.478516,9.72822,3.06519,0.0164795,-0.0274658,-0.183105,0.0610352,0.0610352,0.999664,0.0234985,0.00445557,-0.000366211,-24091,-31506,-19004,-9167,-28641
12771,-0.0861328,0.449805,9.8335,3.06519,0.0164795,-0.0274658,-0.305176,0.244141,0,0.999664,0.0234985,0.00445557,-0.000366211,-24347,-31506,-19516,-9167,-28641
12777,-0.100488,0.449805,9.81436,3.05969,0.0219727,-0.0274658,-0.305176,0.427246,-0.0610352,0.999664,0.023468,0.00448608,-0.000366211,-24091,-31506,-19260,-9167,-28641
12783,-0.0813477,0.459375,9.77129,3.05969,0.0219727,-0.0274658,0,0,0,0.999664,0.023468,0.00448608,-0.000366211,-24091,-30994,-19260,-9167,-28641
12789,-0.0813477,0.459375,9.75693,3.06519,0.0164795,-0.0274658,0.183105,-0.183105,0.0610352,0.999664,0.0234985,0.00448608,-0.000366211,-23835,-29970,-19260,-9167,-28641
12795,-0.062207,0.45459,9.77129,3.06519,0.0164795,-0.0274658,0,0,0,0.999664,0.0234985,0.00448608,-0.000366211,-23323,-29714,-19516,-9167,-28641
12801,-0.0574219,0.468945,9.79043,3.06519,0.0164795,-0.0274658,-0.12207,0.12207,0,0.999664,0.0234985,0.00448608,-0.000366211,-23067,-29458,-19772,-9167,-28641
12807,-0.062207,0.430664,9.81436,3.05969,0.0164795,-0.0274658,-0.305176,0.12207,-0.0610352,0.999664,0.0234985,0.00448608,-0.000366211,-22555,-29202,-20284,-9167,-28641
12813,-0.110059,0.45459,9.7665,3.05969,0.0164795,-0.0274658,-0.0610352,-0.0610352,0.12207,0.999664,0.023468,0.00448608,-0.000366211,-22043,-29458,-20540,-9167,-28641
12819,-0.0813477,0.47373,9.7665,3.06519,0.0164795,-0.0274658,0.0610352,-0.244141,0,0.999664,0.0234985,0.00445557,-0.000366211,-22299,-30738,-20796,-9167,-28641
12825,-0.090918,0.440234,9.80957,3.06519,0.0164795,-0.0274658,0,0.12207,0.12207,0.999664,0.0234985,0.00445557,-0.000366211,-22299,-31250,-20796,-9167,-28641
12831,-0.0861328,0.449805,9.77129,3.06519,0.0164795,-0.0274658,0,0.244141,0.12207,0.999664,0.0234985,0.00445557,-0.000335693,-22299,-31762,-20284,-9167,-28641
12837,-0.129199,0.44502,9.77607,3.06519,0.0164795,-0.0274658,-0.12207,0.183105,-0.0610352,0.999664,0.0234985,0.00445557,-0.000335693,-21787,-32274,-20028,-9167,-28641
12843,-0.090918,0.459375,9.77129,3.06519,0.0164795,-0.0274658,-0.0610352,0.0610352,-0.0610352,0.999664,0.023468,0.00448608,-0.000335693,-21531,-32530,-19516,-9167,-28641
12849,-0.0861328,0.45459,9.80957,3.06519,0.0164795,-0.0274658,0,0,0.12207,0.999664,0.023468,0.00448608,-0.000335693,-21275,32750,-21820,-9167,-28641
12855,-0.0861328,0.44502,9.78564,3.06519,0.0164795,-0.0274658,0.244141,-0.12207,-0.0610352,0.999664,0.023468,0.00448608,-0.000335693,-21019,32750,-22844,-9167,-28641
12861,-0.0861328,0.47373,9.74736,3.06519,0.0164795,-0.0274658,0.244141,0,-0.0610352,0.999664,0.0234985,0.00448608,-0.000335693,-21275,32750,-23612,-9167,-28641
12867,-0.0765625,0.45459,9.73779,3.06519,0.0164795,-0.0274658,-0.0610352,0.0610352,0,0.999664,0.0234985,0.00448608,-0.000335693,-21275,32750,-24636,-9167,-28641
12873,-0.062207,0.45459,9.8,3.06519,0.0164795,-0.0274658,-0.0610352,0,0.183105,0.999664,0.0234985,0.00448608,-0.000335693,-21531,-32530,-25916,-9167,-28641
12879,-0.090918,0.440234,9.78564,3.06519,0.0219727,-0.0274658,0.0610352,0,0,0.999664,0.023468,0.00448608,-0.000335693,-22555,-32274,-28220,-9167,-28641
12885,-0.090918,0.45459,9.75693,3.06519,0.0164795,-0.0274658,0.427246,-0.366211,0,0.999664,0.023468,0.00448608,-0.000335693,-23323,-32018,-29500,-9167,-28641
12891,-0.062207,0.459375,9.73301,3.06519,0.0164795,-0.0274658,-0.0610352,0,-0.183105,0.999664,0.0234985,0.00445557,-0.000335693,-23579,-32530,-30268,-9167,-28641
12897,-0.090918,0.459375,9.77129,3.06519,0.0164795,-0.0274658,-0.183105,0.12207,0,0.999664,0.0234985,0.00445557,-0.000366211,-23835,-32530,-30524,-9167,-28641
12903,-0.105273,0.440234,9.75215,3.06519,0.0164795,-0.0274658,-0.0610352,0.12207,-0.0610352,0.999664,0.023468,0.00448608,-0.000366211,-24091,32750,-31036,-9167,-28641
12909,-0.090918,0.45459,9.73779,3.06519,0.0164795,-0.0274658,0,-0.12207,0,0.999664,0.0234985,0.00445557,-0.000366211,-24091,32494,-31548,-9167,-28641
12915,-0.090918,0.440234,9.78564,3.06519,0.0164795,-0.0274658,-0.12207,0.0610352,0,0.999664,0.0234985,0.00445557,-0.000366211,-24347,32750,-31292,-9167,-28641
12921,-0.0957031,0.449805,9.75693,3.06519,0.0164795,-0.0274658,-0.12207,0,0.0610352,0.999664,0.0234985,0.00445557,-0.000366211,-24347,-32530,-31036,-9167,-28641
12927,-0.0765625,0.45459,9.78564,3.06519,0.0164795,-0.0274658,-0.0610352,-0.0610352,0,0.999664,0.023468,0.00445557,-0.000366211,-24091,-32018,-30780,-9167,-28641
12933,-0.114844,0.483301,9.75215,3.06519,0.0164795,-0.0274658,0.12207,-0.0610352,0.0610352,0.999664,0.023468,0.00445557,-0.000335693,-23835,-31506,-30012,-9167,-28641
12939,-0.062207,0.459375,9.77607,3.06519,0.0164795,-0.0274658,0,0,0.12207,0.999664,0.023468,0.00445557,-0.000335693,-23067,-30482,-28476,-9167,-28641
12945,-0.0717773,0.449805,9.77129,3.06519,0.0164795,-0.0274658,-0.0610352,0.12207,0.244141,0.999664,0.023468,0.00445557,-0.000335693,-22555,-30226,-27708,-9167,-28641
12951,-0.090918,0.430664,9.77129,3.05969,0.0164795,-0.0274658,0,0,0,0.999664,0.023468,0.00445557,-0.000335693,-22043,-29970,-27452,-9167,-28641
12957,-0.105273,0.46416,9.75693,3.05969,0.0164795,-0.0274658,0,0,0,0.999664,0.023468,0.00445557,-0.000335693,-22299,-29970,-27196,-9167,-28641
12963,-0.0717773,0.45459,9.77607,3.06519,0.0164795,-0.0274658,0,0.12207,-0.0610352,0.999664,0.023468,0.00445557,-0.000335693,-22299,-29970,-26940,-9167,-28641
12969,-0.114844,0.45459,9.79043,3.05969,0.0164795,-0.0274658,0,-0.12207,0.0610352,0.999664,0.023468,0.00448608,-0.000335693,-22555,-29970,-26940,-9167,-28641
12975,-0.0765625,0.430664,9.78564,3.06519,0.0164795,-0.0274658,0.12207,-0.0610352,0,0.999664,0.023468,0.00448608,-0.000335693,-22555,-29970,-27452,-9167,-28641
12981,-0.100488,0.45459,9.78086,3.06519,0.0164795,-0.0219727,0,0,0.0610352,0.999664,0.023468,0.00445557,-0.000335693,-22811,-29970,-27452,-9167,-28641
12987,-0.0765625,0.45459,9.78086,3.06519,0.0164795,-0.0219727,0,-0.0610352,0.12207,0.999664,0.023468,0.00445557,-0.000335693,-23067,-29714,-27196,-9167,-28641
12993,-0.0813477,0.440234,9.74258,3.06519,0.0164795,-0.0219727,-0.0610352,-0.0610352,0,0.999664,0.023468,0.00445557,-0.000335693,-23579,-29458,-26684,-9167,-28641
12999,-0.105273,0.44502,9.76172,3.05969,0.0164795,-0.0219727,0.0610352,0,0.12207,0.999664,0.023468,0.00445557,-0.000335693,-23835,-28946,-25916,-9167,-28641
13005,-0.0861328,0.425879,9.7665,3.06519,0.0164795,-0.0219727,0.244141,0,0,0.999664,0.023468,0.00445557,-0.000305176,-23835,-28946,-26172,-9167,-28641
13011,-0.0478516,0.468945,9.74736,3.06519,0.0164795,-0.0219727,0.12207,-0.244141,0,0.999664,0.023468,0.00445557,-0.000305176,-23579,-29202,-25916,-9167,-28641
13017,-0.0813477,0.440234,9.8,3.06519,0.0164795,-0.0219727,-0.183105,0.12207,0,0.999664,0.0234985,0.00445557,-0.000305176,-23579,-29458,-25404,-9167,-28641
13023,-0.100488,0.46416,9.77607,3.05969,0.0164795,-0.0219727,0.183105,-0.183105,-0.0610352,0.999664,0.023468,0.00445557,-0.000305176,-23579,-29970,-24892,-9167,-28641
13029,-0.0957031,0.46416,9.76172,3.06519,0.0164795,-0.0219727,0,0,0,0.999664,0.023468,0.00445557,-0.000335693,-24347,-31506,-24380,-9167,-28641
13035,-0.0813477,0.46416,9.77607,3.06519,0.0164795,-0.0219727,0,0.0610352,0,0.999664,0.023468,0.00445557,-0.000335693,-24603,-32274,-24380,-9167,-28641
13041,-0.110059,0.44502,9.7665,3.06519,0.0164795,-0.0219727,0.0610352,0,0.0610352,0.999664,0.023468,0.00445557,-0.000335693,-25115,32750,-24380,-9167,-28641
13047,-0.0813477,0.45459,9.74736,3.06519,0.0164795,-0.0219727,0.12207,0,0.12207,0.999664,0.023468,0.00445557,-0.000305176,-25115,32494,-24892,-9167,-28641
13053,-0.090918,0.478516,9.76172,3.06519,0.0164795,-0.0219727,0.12207,-0.0610352,0,0.999664,0.023468,0.00445557,-0.000305176,-25371,32750,-24892,-9167,-28641
13059,-0.105273,0.47373,9.74258,3.06519,0.0164795,-0.0219727,0,-0.0610352,0,0.999664,0.023468,0.00445557,-0.000305176,-25627,-32274,-23356,-9167,-28641
13065,-0.100488,0.449805,9.78086,3.06519,0.0164795,-0.0219727,0,0,0,0.999664,0.023468,0.00445557,-0.000305176,-25371,-32018,-23100,-9167,-28641
13071,-0.0813477,0.45459,9.75693,3.06519,0.0164795,-0.0219727,0,0,0.0610352,0.999664,0.023468,0.00445557,-0.000305176,-25115,-32018,-23100,-9167,-28641
13077,-0.0861328,0.449805,9.77607,3.06519,0.0164795,-0.0219727,0.0610352,-0.0610352,0,0.999664,0.023468,0.00445557,-0.000305176,-24859,-32018,-23612,-9167,-28641
13083,-0.0813477,0.44502,9.78564,3.06519,0.0164795,-0.0219727,-0.0610352,0.0610352,0,0.999664,0.023468,0.00445557,-0.000305176,-24859,-31762,-25404,-9167,-28641
13089,-0.090918,0.449805,9.77607,3.06519,0.0164795,-0.0219727,0,0.12207,-0.12207,0.999664,0.023468,0.00445557,-0.000305176,-24347,-30738,-28988,-9167,-28641
13095,-0.0813477,0.45459,9.77129,3.06519,0.0164795,-0.0219727,0.0610352,-0.0610352,0,0.999664,0.023468,0.00445557,-0.000305176,-24347,-30482,-30012,-9167,-28641
13101,-0.0717773,0.45459,9.8,3.06519,0.0164795,-0.0219727,0.12207,0,-0.12207,0.999664,0.023468,0.00445557,-0.000305176,-24347,-30226,-30012,-9167,-28641
13107,-0.0861328,0.44502,9.77607,3.06519,0.0164795,-0.0219727,-0.0610352,0.0610352,-0.0610352,0.999664,0.0234985,0.00445557,-0.000335693,-24347,-29970,-30012,-9167,-28641
13113,-0.0765625,0.449805,9.77129,3.06519,0.0164795,-0.0219727,0.12207,0,0.0610352,0.999664,0.0234985,0.00445557,-0.000305176,-24347,-29714,-28988,-9167,-28641
13119,-0.090918,0.45459,9.77607,3.06519,0.0164795,-0.0219727,-0.0610352,0,0,0.999664,0.0234985,0.00445557,-0.000305176,-24091,-28946,-27196,-9167,-28641
13125,-0.090918,0.45459,9.78086,3.06519,0.0164795,-0.0219727,0.0610352,0,-0.0610352,0.999664,0.0234985,0.00445557,-0.000305176,-23835,-28946,-26940,-9167,-28641
13131,-0.0669922,0.45459,9.75215,3.06519,0.0164795,-0.0219727,0.12207,-0.0610352,0.0610352,0.999664,0.0234985,0.00445557,-0.000305176,-23835,-29202,-26684,-9167,-28641
13137,-0.0717773,0.440234,9.74258,3.06519,0.0164795,-0.0219727,0,0,0,0.999664,0.0234985,0.00445557,-0.000305176,-24091,-29458,-26172,-9167,-28641
13143,-0.0813477,0.44502,9.76172,3.06519,0.0164795,-0.0219727,0.0610352,0,0.0610352,0.999664,0.0234985,0.00445557,-0.000305176,-24347,-29458,-25404,-9167,-28641
13149,-0.0861328,0.45459,9.75693,3.06519,0.0164795,-0.0219727,0,0,-0.12207,0.999664,0.0234985,0.00445557,-0.000305176,-24091,-28946,-23612,-9167,-28641
13155,-0.090918,0.459375,9.74736,3.06519,0.0164795,-0.0219727,0.0610352,-0.12207,0,0.999664,0.0234985,0.00445557,-0.000305176,-23835,-28946,-23100,-9167,-28641
13161,-0.0669922,0.449805,9.76172,3.06519,0.0164795,-0.0219727,0,-0.12207,0,0.999664,0.0234985,0.00445557,-0.000305176,-23323,-28946,-23612,-9167,-28641
13167,-0.0813477,0.44502,9.76172,3.06519,0.0164795,-0.0219727,-0.0610352,0.0610352,0,0.999664,0.0234985,0.00445557,-0.000305176,-23323,-29202,-25148,-9167,-28641
13173,-0.0813477,0.44502,9.74258,3.06519,0.0164795,-0.0219727,0,0,0,0.999664,0.023468,0.00445557,-0.000305176,-23579,-29458,-25916,-9167,-28641
13179,-0.105273,0.440234,9.74736,3.06519,0.0164795,-0.0219727,0.0610352,0,0,0.999664,0.023468,0.00445557,-0.000305176,-23579,-30226,-28220,-9167,-28641
13185,-0.100488,0.44502,9.75693,3.06519,0.0164795,-0.0219727,0.0610352,0,0,0.999664,0.023468,0.00445557,-0.000305176,-23067,-30482,-29756,-9167,-28641
13191,-0.0861328,0.459375,9.77129,3.06519,0.0164795,-0.0219727,-0.12207,0,0,0.999664,0.0234985,0.00445557,-0.000305176,-22811,-30738,-30012,-9167,-28641
13197,-0.090918,0.421094,9.78086,3.06519,0.0164795,-0.0219727,0,0,0,0.999664,0.023468,0.00445557,-0.000305176,-22811,-30994,-29756,-9167,-28641
13203,-0.0717773,0.449805,9.75693,3.06519,0.0164795,-0.0219727,0.12207,-0.12207,0,0.999664,0.023468,0.00445557,-0.000305176,-23323,-31250,-29756,-9167,-28641
13209,-0.090918,0.459375,9.7665,3.06519,0.0164795,-0.0219727,-0.0610352,0,0,0.999664,0.023468,0.00442505,-0.000305176,-24603,-30994,-26940,-9167,-28641
13215,-0.0813477,0.449805,9.79043,3.06519,0.0164795,-0.0219727,0,0.0610352,0,0.999664,0.023468,0.00442505,-0.000305176,-25115,-30994,-26684,-9167,-28641
13221,-0.0813477,0.440234,9.78564,3.06519,0.0164795,-0.0219727,0,-0.0610352,0,0.999664,0.023468,0.00445557,-0.000305176,-25115,-30738,-26428,-9167,-28641
13227,-0.062207,0.459375,9.78086,3.06519,0.0164795,-0.0219727,0.0610352,0,0,0.999664,0.023468,0.00445557,-0.000305176,-24859,-30994,-26428,-9167,-28641
13233,-0.100488,0.440234,9.77607,3.05969,0.0164795,-0.0219727,0,-0.0610352,0,0.999664,0.023468,0.00445557,-0.000305176,-24603,-30994,-27196,-9167,-28641
13239,-0.062207,0.449805,9.77607,3.05969,0.0164795,-0.0219727,0,0,0,0.999664,0.023468,0.00445557,-0.000305176,-24859,-31762,-26940,-9167,-28641
13245,-0.0765625,0.46416,9.76172,3.05969,0.0164795,-0.0219727,0,0,0,0.999664,0.023468,0.00445557,-0.000305176,-24859,-32018,-27452,-9167,-28641
13251,-0.0861328,0.440234,9.75215,3.05969,0.0164795,-0.0219727,0.0610352,0,0,0.999664,0.023468,0.00445557,-0.000305176,-24347,-32530,-27708,-9167,-28641
13257,-0.0717773,0.416309,9.7665,3.05969,0.0164795,-0.0219727,0,0,0,0.999664,0.023468,0.00445557,-0.000305176,-23835,32750,-28220,-9167,-28641
13263,-0.110059,0.435449,9.79043,3.05969,0.0164795,-0.0219727,0,0,0,0.999664,0.023468,0.00442505,-0.000305176,-23579,32494,-28220,-9167,-28641
13269,-0.0717773,0.449805,9.77129,3.05969,0.0164795,-0.0219727,0.0610352,0,0,0.999664,0.023468,0.00442505,-0.000305176,-22811,-32530,-25404,-9167,-28641
13275,-0.0957031,0.459375,9.77607,3.05969,0.0109863,-0.0219727,-0.0610352,-0.0610352,0,0.999664,0.023468,0.00442505,-0.000305176,-23067,-32018,-23868,-9167,-28641
13281,-0.090918,0.45459,9.78564,3.05969,0.0164795,-0.0219727,0.0610352,0.0610352,0,0.999664,0.023468,0.00442505,-0.000305176,-23067,-31506,-22332,-9167,-28641
13287,-0.062207,0.45459,9.7665,3.05969,0.0164795,-0.0219727,-0.0610352,0,0,0.999664,0.023468,0.00442505,-0.000305176,-22811,-31250,-21564,-9167,-28641
13293,-0.0861328,0.45459,9.78086,3.05969,0.0109863,-0.0219727,0,-0.0610352,0,0.999664,0.023468,0.00442505,-0.000305176,-22555,-30738,-21052,-9167,-28641
13299,-0.0717773,0.440234,9.75215,3.05969,0.0109863,-0.0219727,0,-0.12207,0,0.999664,0.023468,0.00442505,-0.000305176,-22555,-31250,-21820,-9167,-28641
13305,-0.090918,0.46416,9.78086,3.05969,0.0109863,-0.0219727,-0.0610352,0,0,0.999664,0.023468,0.00442505,-0.000305176,-22555,-31506,-21820,-9167,-28641
13311,-0.105273,0.44502,9.73779,3.05969,0.0109863,-0.0219727,0,0,0,0.999664,0.023468,0.00442505,-0.000305176,-23067,-32274,-21820,-9167,-28641
13317,-0.090918,0.45459,9.78564,3.05969,0.0109863,-0.0219727,0,0,0,0.999664,0.0234375,0.00442505,-0.000305176,-23067,32750,-21308,-9167,-28641
13323,-0.0957031,0.440234,9.76172,3.05969,0.0109863,-0.0219727,0,0,0,0.999664,0.0234375,0.00442505,-0.000305176,-23323,32494,-20796,-9167,-28641
13329,-0.0957031,0.449805,9.77129,3.05969,0.0109863,-0.0219727,0,0,0,0.999664,0.0234375,0.00442505,-0.000305176,-22811,32494,-21308,-9167,-28641
13335,-0.090918,0.45459,9.77129,3.05969,0.0109863,-0.0219727,0.0610352,0,0,0.999664,0.0234375,0.00442505,-0.000305176,-22811,32494,-21820,-9167,-28641
13341,-0.090918,0.46416,9.76172,3.05969,0.0109863,-0.0219727,0,0.0610352,0,0.999664,0.0234375,0.00442505,-0.000305176,-22811,32494,-21564,-9167,-28641
13347,-0.0957031,0.430664,9.78086,3.05969,0.0109863,-0.0219727,0.12207,0,0,0.999664,0.0234375,0.00442505,-0.000305176,-22555,-32530,-21052,-9167,-28641
13353,-0.090918,0.44502,9.8,3.05969,0.0164795,-0.0219727,0,0,0,0.999664,0.023468,0.00442505,-0.000305176,-23067,-32274,-20284,-9167,-28641
13359,-0.090918,0.44502,9.79043,3.05969,0.0164795,-0.0219727,-0.0610352,0,0,0.999664,0.023468,0.00442505,-0.000305176,-23579,-31250,-19772,-9167,-28641
13365,-0.0765625,0.44502,9.8,3.05969,0.0164795,-0.0219727,0,0,0,0.999664,0.023468,0.00442505,-0.000305176,-23835,-30738,-20796,-9167,-28641
13371,-0.090918,0.45459,9.78086,3.05969,0.0109863,-0.0219727,0,0,0,0.999664,0.023468,0.00442505,-0.000305176,-23835,-30738,-21564,-9167,-28641
13377,-0.105273,0.459375,9.79521,3.05969,0.0164795,-0.0219727,-0.0610352,0.12207,0,0.999664,0.0234375,0.00442505,-0.000305176,-23835,-30994,-22076,-9167,-28641
13383,-0.0813477,0.449805,9.77607,3.05969,0.0164795,-0.0219727,-0.12207,0.0610352,0,0.999664,0.0234375,0.00442505,-0.000305176,-24091,-31250,-22332,-9167,-28641
13389,-0.0765625,0.468945,9.76172,3.05969,0.0164795,-0.0219727,0.0610352,0.0610352,0,0.999664,0.0234375,0.00442505,-0.000305176,-24603,-32018,-23612,-9167,-28641
13395,-0.0957031,0.44502,9.77607,3.05969,0.0164795,-0.0219727,0,0,0,0.999664,0.0234375,0.00445557,-0.000305176,-24859,-31506,-24380,-9167,-28641
13401,-0.0957031,0.468945,9.77129,3.05969,0.0164795,-0.0219727,0,0,0,0.999664,0.0234375,0.00445557,-0.000305176,-25115,-31250,-25404,-9167,-28641
13407,-0.0478516,0.45459,9.77607,3.05969,0.0164795,-0.0219727,0,0,0,0.999664,0.0234375,0.00445557,-0.000305176,-24859,-30994,-26684,-9167,-28641
13413,-0.0669922,0.421094,9.77129,3.05969,0.0164795,-0.0219727,-0.0610352,0.0610352,0,0.999664,0.0234375,0.00445557,-0.000305176,-24859,-30482,-27196,-9167,-28641
13419,-0.090918,0.449805,9.77607,3.05969,0.0164795,-0.0219727,-0.0610352,-0.0610352,0,0.999664,0.0234375,0.00445557,-0.000305176,-24859,-30738,-26940,-9167,-28641
13425,-0.0717773,0.449805,9.75215,3.05969,0.0164795,-0.0219727,-0.12207,-0.12207,0,0.999664,0.0234375,0.00445557,-0.000305176,-25115,-30482,-26684,-9167,-28641
13431,-0.100488,0.45459,9.77607,3.05969,0.0164795,-0.0219727,0,0,0,0.999664,0.0234375,0.00442505,-0.000305176,-25627,-29970,-25660,-9167,-28641
13437,-0.090918,0.468945,9.79521,3.05969,0.0164795,-0.0219727,0,0,0,0.999664,0.0234375,0.00442505,-0.000305176,-25883,-29202,-24636,-9167,-28641
13443,-0.0717773,0.45459,9.77129,3.0542,0.0164795,-0.0219727,0.0610352,0,0,0.999664,0.023407,0.00442505,-0.000305176,-25883,-28690,-23868,-9167,-28641
13449,-0.0765625,0.440234,9.77129,3.0542,0.0164795,-0.0219727,0.0610352,0,0,0.999664,0.023407,0.00442505,-0.000305176,-25371,-28690,-22332,-9167,-28641
13455,-0.100488,0.449805,9.74736,3.0542,0.0164795,-0.0219727,0,0,0,0.999664,0.0234375,0.00442505,-0.000305176,-25115,-29202,-23100,-9167,-28641
13461,-0.0765625,0.440234,9.75693,3.0542,0.0164795,-0.0219727,0,0.0610352,0,0.999664,0.0234375,0.00442505,-0.000305176,-25371,-29970,-23100,-9167,-28641
13467,-0.0669922,0.45459,9.78564,3.0542,0.0164795,-0.0219727,0,0,0,0.999664,0.023407,0.00442505,-0.000305176,-25627,-30226,-23100,-9167,-28641
13473,-0.0861328,0.459375,9.79043,3.0542,0.0164795,-0.0219727,0,0.0610352,0,0.999664,0.023407,0.00442505,-0.000305176,-25883,-30482,-22588,-9167,-28641
13479,-0.0813477,0.449805,9.78564,3.0542,0.0109863,-0.0219727,-0.0610352,-0.12207,0,0.999664,0.023407,0.00442505,-0.000305176,-25371,-30226,-22076,-9167,-28641
13485,-0.090918,0.44502,9.77129,3.0542,0.0109863,-0.0219727,0,0,0,0.999664,0.023407,0.00442505,-0.000305176,-25115,-29458,-22332,-9167,-28641
13491,-0.0861328,0.45459,9.74736,3.0542,0.0109863,-0.0219727,0.0610352,-0.0610352,0,0.999664,0.023407,0.00442505,-0.000305176,-25115,-29202,-22332,-9167,-28641
13497,-0.090918,0.46416,9.78086,3.0542,0.0109863,-0.0219727,0.0610352,-0.0610352,0,0.999664,0.023407,0.00442505,-0.000305176,-25371,-29202,-22076,-9167,-28641
13503,-0.100488,0.468945,9.78086,3.0542,0.0109863,-0.0219727,0,0.12207,0,0.999664,0.023407,0.00442505,-0.000305176,-25371,-29202,-21564,-9167,-28641
13509,-0.0813477,0.46416,9.75215,3.0542,0.0109863,-0.0219727,0.12207,-0.0610352,0,0.999664,0.023407,0.00442505,-0.000305176,-24859,-29714,-21308,-9167,-28641
13515,-0.0717773,0.47373,9.77607,3.0542,0.0109863,-0.0219727,0,0,0,0.999664,0.023407,0.00442505,-0.000305176,-24603,-30226,-21564,-9167,-28641
13521,-0.090918,0.440234,9.79521,3.0542,0.0109863,-0.0219727,0,0.0610352,0,0.999664,0.023407,0.00442505,-0.000305176,-24347,-30738,-22332,-9167,-28641
13527,-0.0861328,0.449805,9.79043,3.05969,0.0109863,-0.0219727,0.12207,0,0,0.999664,0.023407,0.00442505,-0.000305176,-24091,-30994,-22588,-9167,-28641
13533,-0.0813477,0.459375,9.78564,3.0542,0.0109863,-0.0219727,-0.0610352,0,0,0.999664,0.0234375,0.00442505,-0.000305176,-24091,-31506,-23100,-9167,-28641
13539,-0.105273,0.478516,9.78564,3.0542,0.0109863,-0.0219727,0,0,0,0.999664,0.0234375,0.00442505,-0.000305176,-24603,-32530,-24636,-9167,-28641
13545,-0.0813477,0.468945,9.80479,3.05969,0.0109863,-0.0219727,0.0610352,0,0,0.999664,0.0234375,0.00442505,-0.000305176,-24859,32750,-25660,-9167,-28641
13551,-0.0813477,0.46416,9.77129,3.05969,0.0109863,-0.0219727,0.0610352,-0.0610352,0,0.999664,0.0234375,0.00442505,-0.000305176,-25115,-32530,-26172,-9167,-28641
13557,-0.0669922,0.440234,9.75693,3.05969,0.0109863,-0.0219727,0,-0.12207,0,0.999664,0.0234375,0.00442505,-0.000305176,-25627,-32274,-26940,-9167,-28641
13563,-0.0861328,0.45459,9.79043,3.05969,0.0109863,-0.0219727,0.0610352,0,0,0.999664,0.0234375,0.00442505,-0.000305176,-25883,-32018,-27452,-9167,-28641
13569,-0.090918,0.478516,9.79043,3.05969,0.0109863,-0.0219727,0.12207,0,0,0.999664,0.0234375,0.00442505,-0.000305176,-25627,-30738,-26684,-9167,-28641
13575,-0.0861328,0.45459,9.77129,3.05969,0.0109863,-0.0219727,0,0.0610352,0,0.999664,0.0234375,0.00442505,-0.000305176,-25371,-30482,-25404,-9167,-28641
13581,-0.100488,0.435449,9.78564,3.05969,0.0109863,-0.0219727,0,0.0610352,0,0.999664,0.0234375,0.00442505,-0.000305176,-25371,-30482,-24124,-9167,-28641
13587,-0.0813477,0.44502,9.79043,3.05969,0.0109863,-0.0219727,0.0610352,0,0,0.999664,0.0234375,0.00442505,-0.000305176,-25371,-30482,-22844,-9167,-28641
13593,-0.0957031,0.44502,9.77607,3.05969,0.0109863,-0.0219727,-0.0610352,0,0,0.999664,0.0234375,0.00442505,-0.000305176,-25371,-30738,-22076,-9167,-28641
13599,-0.0957031,0.440234,9.78086,3.05969,0.0109863,-0.0219727,0,0,0,0.999664,0.0234375,0.00442505,-0.000305176,-24859,-32018,-22588,-9167,-28641
13605,-0.090918,0.430664,9.78086,3.05969,0.0109863,-0.0219727,0,-0.183105,0,0.999664,0.0234375,0.00442505,-0.000305176,-24347,-32530,-23356,-9167,-28641
13611,-0.0861328,0.44502,9.7665,3.05969,0.0109863,-0.0219727,0.244141,0,0,0.999664,0.0234375,0.00442505,-0.000305176,-23323,32750,-23612,-9167,-28641
13617,-0.090918,0.449805,9.75693,3.05969,0.0109863,-0.0219727,0.0610352,0,0,0.999664,0.0234375,0.00442505,-0.000305176,-22811,32494,-24124,-9167,-28641
13623,-0.0717773,0.459375,9.77607,3.05969,0.0109863,-0.0219727,-0.0610352,0,0,0.999664,0.0234375,0.00442505,-0.000305176,-22811,32494,-24380,-9167,-28641
13629,-0.0813477,0.459375,9.78564,3.05969,0.0109863,-0.0219727,0,-0.0610352,0,0.999664,0.0234375,0.00442505,-0.000305176,-23579,31470,-23100,-9167,-28641
13635,-0.0669922,0.435449,9.7665,3.05969,0.0109863,-0.0219727,-0.0610352,-0.183105,0,0.999664,0.0234375,0.00442505,-0.000305176,-24347,31214,-22844,-9167,-28641
13641,-0.0574219,0.459375,9.75693,3.05969,0.0109863,-0.0219727,0.0610352,0,0,0.999664,0.0234375,0.00442505,-0.000305176,-24603,30702,-22844,-9167,-28641
13647,-0.0717773,0.478516,9.74258,3.05969,0.0109863,-0.0219727,0,-0.12207,0,0.999664,0.0234375,0.00442505,-0.000305176,-24603,30702,-22844,-9167,-28641
13653,-2.30645,-1.93799,6.37861,3.15308,-0.0769043,-0.0714111,6.46973,-13.0615,-0.610352,0.999664,0.0240173,0.00421143,-0.000671387,-24347,30958,-23356,-9167,-28641
13659,1.01924,1.98584,14.4464,2.82898,0.131836,0.0164795,-65.5518,42.4805,16.6626,0.999664,0.024292,0.00366211,-0.000732422,-23835,32494,-24892,-9167,-28641
13665,-0.287109,-1.17715,13.3123,2.83447,0.170288,0.0109863,0.610352,6.71387,-1.09863,0.999695,0.0214539,0.00549316,3.05176e-05,-23579,32494,-25660,-9167,-28641
13671,-0.660352,0.14834,5.98623,3.08167,0.0164795,0.00549316,49.4995,-30.2734,0.0610352,0.999695,0.0214539,0.00579834,0,-23067,32494,-26428,-9167,-28641
13677,0.698633,1.45469,8.97695,3.08167,0.00549316,0.00549316,0.732422,-2.56348,0.0610352,0.999664,0.0236206,0.00448608,-3.05176e-05,-22811,31982,-26940,-9167,-28641
13683,0.253613,0.224902,8.5415,3.11462,-0.0439453,0.00549316,7.38525,-3.23486,0.183105,0.999664,0.0235901,0.00405884,-3.05176e-05,-23067,31470,-27196,-9167,-28641
13689,-0.0239258,0.655566,8.61807,3.09265,-0.00549316,0,-4.39453,7.50732,-0.793457,0.999664,0.0239258,0.00393677,-3.05176e-05,-23067,31982,-26940,-9167,-28641
13695,-0.090918,0.693848,11.2068,2.99927,0.0494385,0,-18.4326,11.5967,-1.09863,0.999664,0.0237427,0.00427246,-6.10352e-05,-23579,31982,-26684,-9167,-28641
13701,-0.301465,0.0143555,10.5704,2.9718,0.098877,0,-5.61523,9.0332,-1.2207,0.999664,0.0229187,0.00476074,-9.15527e-05,-24603,31982,-26172,-9167,-28641
13707,-0.186621,0.239258,9.3167,2.98828,0.0714111,0,3.35693,-5.00488,0.671387,0.999695,0.0226746,0.00515747,-0.00012207,-25627,31726,-26172,-9167,-28641
13713,0.186621,0.483301,10.2642,3.03772,0.0109863,0,3.17383,-4.3335,0.671387,0.999664,0.0231323,0.00460815,-9.15527e-05,-27163,31726,-25916,-9167,-28641
13719,-0.248828,0.421094,9.60859,3.06519,-0.00549316,0,5.67627,-3.479,0.366211,0.999664,0.0232849,0.00442505,-6.10352e-05,-27419,32494,-26428,-9167,-28641
13725,0.0765625,0.507227,9.11094,3.08167,-0.0164795,0,3.11279,-1.95312,0.305176,0.999664,0.0235291,0.00427246,-6.10352e-05,-27163,-32530,-26940,-9167,-28641
13731,-0.0430664,0.593359,9.57988,3.05969,0.00549316,0,-4.76074,4.3335,-0.244141,0.999664,0.0236511,0.00418091,-3.05176e-05,-26907,-31506,-28220,-9167,-28641
13737,-0.110059,0.459375,10.0536,3.01575,0.0494385,0,-8.91113,8.66699,-0.854492,0.999664,0.0234375,0.00436401,-6.10352e-05,-26395,-30994,-28732,-9167,-28641
13743,-0.210547,0.344531,10.1062,2.99927,0.0549316,0,1.95312,-2.19727,0.244141,0.999695,0.0228271,0.00491333,-9.15527e-05,-25371,-30994,-28476,-9167,-28641
13749,-0.105273,0.435449,10.1062,3.04321,0.0219727,0,8.42285,-6.95801,0.732422,0.999664,0.0229187,0.00482178,-6.10352e-05,-24603,-31506,-28220,-9167,-28641
13755,-0.0287109,0.47373,9.50811,3.07068,0,0.00549316,6.04248,-4.5166,0.427246,0.999664,0.0232849,0.0045166,-6.10352e-05,-23835,-31762,-27964,-9167,-28641
13761,-0.00478516,0.492871,9.32627,3.07068,0,0.00549316,0.12207,-0.244141,0.12207,0.999664,0.0235596,0.0043335,-3.05176e-05,-23579,-31762,-28220,-9167,-28641
13767,0.00478516,0.492871,9.51768,3.0542,0.0164795,0,-3.96729,2.80762,-0.366211,0.999664,0.0235596,0.0043335,-3.05176e-05,-23579,-31762,-28476,-9167,-28641
13773,-0.177051,0.354102,10.0488,3.01025,0.0494385,0,-2.01416,1.83105,0,0.999664,0.0231018,0.00466919,-6.10352e-05,-23323,-30482,-27196,-9167,-28641
13779,-0.0957031,0.425879,9.91484,3.02673,0.032959,0.00549316,3.66211,-2.80762,0.549316,0.999664,0.0230103,0.00473022,-6.10352e-05,-23067,-30738,-26940,-9167,-28641
13785,-0.0669922,0.468945,9.8,3.04321,0.0219727,0.00549316,3.05176,-2.31934,0.183105,0.999664,0.0231934,0.00463867,-3.05176e-05,-22811,-30738,-26172,-9167,-28641
13791,-0.0287109,0.468945,9.68994,3.04871,0.0219727,0.00549316,1.0376,-0.427246,0.0610352,0.999664,0.0233154,0.0045166,-3.05176e-05,-22299,-31250,-25916,-9167,-28641
13797,-0.0717773,0.46416,9.52246,3.04871,0.0219727,0.00549316,-0.366211,0.12207,0.0610352,0.999664,0.0233459,0.0045166,-3.05176e-05,-22299,-31506,-25660,-9167,-28641
13803,-0.119629,0.425879,9.91963,3.03223,0.032959,0.00549316,-1.15967,0.793457,0,0.999664,0.0232544,0.00457764,-3.05176e-05,-23067,-32018,-23868,-9167,-28641
13809,-0.110059,0.411523,9.87656,3.03223,0.032959,0.00549316,0.854492,-0.427246,0.0610352,0.999664,0.0231934,0.00460815,-3.05176e-05,-23579,-32018,-23612,-9167,-28641
13815,-0.100488,0.459375,9.71387,3.04321,0.0219727,0.00549316,1.64795,-1.46484,0.0610352,0.999664,0.0232239,0.00460815,-3.05176e-05,-23835,-32530,-23100,-9167,-28641
13821,-0.0526367,0.47373,9.8,3.04321,0.0219727,0.00549316,-0.12207,0,0,0.999664,0.0232849,0.00454712,-3.05176e-05,-24091,32750,-22844,-9167,-28641
13827,-0.100488,0.44502,9.80957,3.03772,0.0274658,0.00549316,-0.671387,0.732422,0,0.999664,0.0232849,0.00454712,-3.05176e-05,-24347,32750,-22588,-9167,-28641
13833,-0.062207,0.449805,9.70908,3.03772,0.0274658,0.00549316,0,-0.244141,0,0.999664,0.0232544,0.00457764,-3.05176e-05,-24603,-32530,-22588,-9167,-28641
13839,-0.0957031,0.435449,9.84307,3.03772,0.0274658,0.00549316,0,0,0.0610352,0.999664,0.0232544,0.00457764,-3.05176e-05,-24859,-31762,-22588,-9167,-28641
13845,-0.0813477,0.449805,9.78564,3.03772,0.0274658,0.00549316,0.12207,0.0610352,0.0610352,0.999664,0.0232544,0.00457764,-3.05176e-05,-24859,-31250,-22844,-9167,-28641
13851,-0.0813477,0.478516,9.78564,3.03772,0.032959,0.00549316,-0.488281,0.488281,0.0610352,0.999664,0.0232544,0.00457764,-3.05176e-05,-24347,-30482,-23100,-9167,-28641
13857,-0.110059,0.416309,9.82393,3.03772,0.0274658,0.00549316,0.244141,-0.244141,0.0610352,0.999664,0.0232544,0.00457764,0,-23835,-29970,-22844,-9167,-28641
13863,-0.0813477,0.46416,9.70908,3.04321,0.0274658,0.00549316,0,-0.0610352,0,0.999664,0.0232849,0.00454712,0,-23067,-29458,-23612,-9167,-28641
13869,-0.090918,0.44502,9.78564,3.03772,0.0274658,0.00549316,-0.244141,0.0610352,-0.0610352,0.999664,0.0232849,0.00454712,0,-23067,-29970,-24124,-9167,-28641
13875,-0.0765625,0.44502,9.7665,3.03772,0.0274658,0.00549316,-0.366211,0.366211,0,0.999664,0.0232849,0.00454712,0,-23323,-30226,-25148,-9167,-28641
13881,-0.0957031,0.440234,9.82393,3.03772,0.0274658,0.00549316,-0.366211,0.12207,-0.12207,0.999664,0.0232544,0.00457764,0,-23835,-30738,-25404,-9167,-28641
13887,-0.0765625,0.440234,9.7665,3.03772,0.0274658,0.00549316,0.488281,-0.305176,0,0.999664,0.0232544,0.00457764,-3.05176e-05,-24091,-31250,-25148,-9167,-28641
13893,-0.090918,0.449805,9.75693,3.03772,0.0274658,0.00549316,-0.12207,0.0610352,-0.12207,0.999664,0.0232849,0.00454712,-3.05176e-05,-24091,-32530,-25148,-9167,-28641
13899,-0.062207,0.449805,9.76172,3.03772,0.0274658,0.00549316,-0.12207,0.12207,0,0.999664,0.0232849,0.00454712,-3.05176e-05,-23835,32750,-25148,-9167,-28641
13905,-0.062207,0.449805,9.77129,3.03772,0.0274658,0.00549316,-0.244141,0.183105,0,0.999664,0.0232849,0.00454712,-3.05176e-05,-23835,32750,-25148,-9167,-28641
13911,-0.0813477,0.435449,9.79043,3.03772,0.0274658,0.00549316,-0.0610352,0,-0.0610352,0.999664,0.0232544,0.00457764,-3.05176e-05,-23835,32750,-25916,-9167,-28641
13917,-0.0717773,0.45459,9.75693,3.03772,0.0274658,0.00549316,0.305176,-0.427246,0,0.999664,0.0232544,0.00454712,-3.05176e-05,-23835,32750,-25660,-9167,-28641
13923,-0.0957031,0.440234,9.78564,3.03772,0.0219727,0.00549316,-0.12207,0.0610352,-0.0610352,0.999664,0.0232849,0.00454712,-3.05176e-05,-24091,32750,-26684,-9167,-28641
13929,-0.0813477,0.483301,9.78564,3.03772,0.0274658,0.00549316,-0.183105,0.12207,0,0.999664,0.0232849,0.00454712,-3.05176e-05,-23579,32494,-25660,-9167,-28641
13935,-0.090918,0.440234,9.76172,3.03772,0.0274658,0.00549316,-0.0610352,0.183105,0,0.999664,0.0232544,0.00454712,-3.05176e-05,-23067,32494,-24380,-9167,-28641
13941,-0.110059,0.44502,9.77129,3.03772,0.0274658,0.00549316,-0.12207,0.12207,0.0610352,0.999664,0.0232544,0.00454712,-3.05176e-05,-22555,31982,-23356,-9167,-28641
13947,-0.105273,0.449805,9.76172,3.03772,0.0274658,0.00549316,-0.0610352,-0.12207,-0.0610352,0.999664,0.0232544,0.00454712,-3.05176e-05,-22043,31470,-23100,-9167,-28641
13953,-0.0813477,0.440234,9.81914,3.03772,0.0219727,0.00549316,0.0610352,-0.0610352,0.0610352,0.999664,0.0232544,0.00454712,-3.05176e-05,-23067,31726,-22588,-9167,-28641
13959,-0.090918,0.44502,9.77607,3.03772,0.0219727,0.00549316,0.244141,-0.244141,0,0.999664,0.0232544,0.00454712,-3.05176e-05,-23067,32238,-22588,-9167,-28641
13965,-0.0861328,0.440234,9.74258,3.03772,0.0219727,0.00549316,0,0,0,0.999664,0.0232849,0.0045166,-3.05176e-05,-23067,-32530,-23100,-9167,-28641
13971,-0.090918,0.468945,9.75693,3.03772,0.0219727,0.00549316,-0.0610352,0,-0.12207,0.999664,0.0232849,0.0045166,-3.05176e-05,-22555,-31762,-23612,-9167,-28641
13977,-0.0813477,0.46416,9.77607,3.03772,0.0274658,0.00549316,-0.183105,0.366211,0.0610352,0.999664,0.0232544,0.00454712,-3.05176e-05,-21787,-30994,-23356,-9167,-28641
13983,-0.0765625,0.449805,9.78086,3.03772,0.0219727,0.00549316,0.244141,-0.183105,0.0610352,0.999664,0.0232544,0.00454712,-3.05176e-05,-21787,-30226,-22332,-9167,-28641
13989,-0.0526367,0.44502,9.74258,3.03772,0.0219727,0.00549316,0,0,0.0610352,0.999664,0.0232849,0.0045166,-3.05176e-05,-21787,-29970,-21308,-9167,-28641
13995,-0.105273,0.449805,9.78564,3.03772,0.0219727,0.00549316,-0.0610352,0.12207,-0.0610352,0.999664,0.0232849,0.0045166,-3.05176e-05,-22043,-29970,-20540,-9167,-28641
14001,-0.100488,0.45459,9.80479,3.03772,0.0274658,0.00549316,-0.244141,0.183105,-0.0610352,0.999664,0.0232849,0.00454712,-3.05176e-05,-22811,-30226,-19772,-9167,-28641
14007,-0.0861328,0.449805,9.75693,3.03772,0.0274658,0.00549316,0.0610352,0,0,0.999664,0.0232544,0.00454712,-3.05176e-05,-22811,-30482,-19260,-9167,-28641
14013,-0.0669922,0.430664,9.77607,3.03772,0.0219727,0.00549316,0,0,0,0.999664,0.0232544,0.00454712,-3.05176e-05,-22555,-29714,-19260,-9167,-28641
14019,-0.062207,0.44502,9.75693,3.03772,0.0219727,0.00549316,0,0,0,0.999664,0.0232544,0.00454712,-3.05176e-05,-22043,-29458,-20028,-9167,-28641
14025,-0.0765625,0.440234,9.76172,3.03772,0.0274658,0.00549316,-0.0610352,0.0610352,-0.12207,0.999664,0.0232544,0.00454712,-3.05176e-05,-21531,-29458,-21052,-9167,-28641
14031,-0.0813477,0.440234,9.75693,3.03772,0.0274658,0.00549316,0.12207,0,-0.0610352,0.999664,0.0232544,0.00454712,-3.05176e-05,-21787,-29202,-22332,-9167,-28641
14037,-0.090918,0.468945,9.77607,3.03772,0.0274658,0.00549316,0.183105,0.0610352,0,0.999664,0.0232849,0.00454712,-3.05176e-05,-22043,-29202,-23868,-9167,-28641
14043,-0.0813477,0.45459,9.77607,3.03772,0.0274658,0.00549316,0,0,-0.0610352,0.999664,0.0232849,0.00454712,-3.05176e-05,-22555,-29458,-26428,-9167,-28641
14049,-0.0717773,0.45459,9.7665,3.03772,0.0274658,0.00549316,0,-0.0610352,0,0.999664,0.0232849,0.00454712,-3.05176e-05,-22555,-29970,-27708,-9167,-28641
14055,-0.062207,0.44502,9.7665,3.04321,0.0219727,0.00549316,0.183105,0,0.12207,0.999664,0.0232849,0.00454712,-3.05176e-05,-22555,-29714,-28988,-9167,-28641
14061,-0.100488,0.449805,9.78086,3.04321,0.0219727,0.00549316,0.0610352,0,-0.0610352,0.999664,0.0232849,0.00454712,-3.05176e-05,-22299,-29714,-30012,-9167,-28641
14067,-0.090918,0.435449,9.78564,3.03772,0.0274658,0.00549316,-0.0610352,0.0610352,-0.12207,0.999664,0.0232849,0.00454712,-3.05176e-05,-22555,-29458,-30524,-9167,-28641
14073,-0.110059,0.45459,9.74736,3.04321,0.0219727,0.00549316,0.0610352,-0.12207,0,0.999664,0.0232849,0.0045166,-3.05176e-05,-23067,-28434,-31548,-9167,-28641
14079,-0.100488,0.459375,9.78086,3.04321,0.0219727,0.00549316,0,0,0,0.999664,0.0232849,0.0045166,-3.05176e-05,-23579,-27922,-31548,-9167,-28641
14085,-0.105273,0.421094,9.77607,3.03772,0.0219727,0.00549316,-0.0610352,0.12207,-0.0610352,0.999664,0.0232849,0.0045166,-3.05176e-05,-23835,-27666,-30268,-9167,-28641
14091,-0.0669922,0.435449,9.73779,3.04321,0.0219727,0.00549316,0.12207,0,0,0.999664,0.0232849,0.0045166,-3.05176e-05,-24347,-27922,-28988,-9167,-28641
14097,-0.0861328,0.440234,9.78086,3.04321,0.0219727,0.00549316,0,0,0,0.999664,0.0232849,0.0045166,-3.05176e-05,-24603,-27666,-28220,-9167,-28641
14103,-0.105273,0.440234,9.75693,3.03772,0.0219727,0.00549316,0,-0.0610352,0,0.999664,0.0232849,0.00454712,-3.05176e-05,-24603,-27922,-26940,-9167,-28641
14109,-0.0669922,0.430664,9.81436,3.03772,0.0219727,0,-0.0610352,-0.0610352,-0.0610352,0.999664,0.0232849,0.0045166,-3.05176e-05,-24347,-27922,-26684,-9167,-28641
14115,-0.0813477,0.44502,9.77129,3.03772,0.0219727,0,0,0.183105,0,0.999664,0.0232849,0.0045166,-3.05176e-05,-24347,-27666,-25660,-9167,-28641
14121,-0.090918,0.440234,9.78564,3.03772,0.0219727,0,0.12207,-0.12207,0,0.999664,0.0232849,0.00454712,-3.05176e-05,-24091,-27154,-24380,-9167,-28641
14127,-0.0669922,0.468945,9.7665,3.03772,0.0219727,0,0,-0.12207,0,0.999664,0.0232849,0.0045166,-3.05176e-05,-23835,-26642,-24124,-9167,-28641
14133,-0.0861328,0.449805,9.80479,3.03772,0.0219727,0,-0.0610352,0,0,0.999664,0.0232544,0.0045166,-6.10352e-05,-23835,-26642,-23868,-9167,-28641
14139,-0.0717773,0.44502,9.75693,3.03772,0.0219727,0,0.12207,0,-0.12207,0.999664,0.0232544,0.0045166,-6.10352e-05,-23579,-27154,-24892,-9167,-28641
14145,-0.090918,0.468945,9.79043,3.03772,0.0219727,0,0,0,-0.12207,0.999664,0.0232544,0.0045166,-6.10352e-05,-23323,-27666,-25916,-9167,-28641
14151,-0.0669922,0.45459,9.78564,3.03772,0.0219727,0,0.0610352,0,0.12207,0.999664,0.0232544,0.0045166,-6.10352e-05,-23323,-27922,-26684,-9167,-28641
14157,-0.0813477,0.45459,9.77129,3.03772,0.0219727,0,0,0,0,0.999664,0.0232544,0.0045166,-6.10352e-05,-23067,-28178,-27196,-9167,-28641
14163,-0.0765625,0.430664,9.8,3.03772,0.0219727,0,0,0,-0.0610352,0.999664,0.0232544,0.0045166,-6.10352e-05,-23067,-28434,-27452,-9167,-28641
14169,-0.105273,0.45459,9.77607,3.03772,0.0219727,0,0.0610352,-0.12207,-0.0610352,0.999664,0.0232544,0.0045166,-6.10352e-05,-23067,-28434,-27452,-9167,-28641
14175,-0.100488,0.435449,9.78564,3.03772,0.0219727,0,0,0,0.12207,0.999664,0.0232544,0.0045166,-6.10352e-05,-23323,-28690,-28476,-9167,-28641
14181,-0.0861328,0.45459,9.78086,3.03772,0.0219727,0,0,0,-0.12207,0.999664,0.0232544,0.0045166,-6.10352e-05,-23323,-29458,-29244,-9167,-28641
14187,-0.0861328,0.440234,9.75215,3.03772,0.0219727,0,0,0,0.0610352,0.999664,0.0232544,0.0045166,-6.10352e-05,-23323,-30226,-30268,-9167,-28641
14193,-0.0717773,0.430664,9.78564,3.03772,0.0219727,0,0,0,-0.0610352,0.999664,0.0232544,0.0045166,-6.10352e-05,-23323,-31506,-31548,-9167,-28641
14199,-0.0957031,0.459375,9.76172,3.03772,0.0219727,0,-0.0610352,0,0,0.999664,0.0232544,0.0045166,-6.10352e-05,-23579,-31762,-31804,-9167,-28641
14205,-0.0669922,0.440234,9.77129,3.03772,0.0219727,0,-0.183105,0.12207,0,0.999664,0.0232544,0.0045166,-6.10352e-05,-23579,-31762,-30780,-9167,-28641
14211,-0.0813477,0.435449,9.7665,3.03772,0.0219727,0,0,0,-0.12207,0.999664,0.0232544,0.0045166,-6.10352e-05,-23835,-32018,-29756,-9167,-28641
14217,-0.0813477,0.45459,9.75215,3.03772,0.0219727,0,0.183105,0,0.183105,0.999664,0.0232544,0.0045166,-6.10352e-05,-24091,-32018,-28988,-9167,-28641
14223,-0.090918,0.435449,9.8,3.03772,0.0219727,0,0,0.12207,0,0.999664,0.0232544,0.0045166,-6.10352e-05,-24347,-31506,-27964,-9167,-28641
14229,-0.110059,0.440234,9.74258,3.03772,0.0219727,0,0.0610352,0,0.0610352,0.999664,0.0232544,0.0045166,-6.10352e-05,-24347,-30994,-27964,-9167,-28641
14235,-0.0813477,0.459375,9.78086,3.03772,0.0219727,0,0,0,0.0610352,0.999664,0.0232544,0.0045166,-6.10352e-05,-24347,-29970,-27196,-9167,-28641
14241,-0.0861328,0.435449,9.79521,3.03772,0.0219727,0,-0.0610352,0,-0.12207,0.999664,0.0232544,0.0045166,-6.10352e-05,-24347,-29458,-26428,-9167,-28641
14247,-0.090918,0.435449,9.75693,3.03772,0.0219727,0,0.0610352,-0.0610352,0,0.999664,0.0232544,0.0045166,-6.10352e-05,-24347,-29202,-25404,-9167,-28641
14253,-0.105273,0.468945,9.79043,3.03772,0.0219727,0,-0.0610352,-0.0610352,0,0.999664,0.0232544,0.0045166,-6.10352e-05,-24347,-28946,-24380,-9167,-28641
14259,-0.0717773,0.45459,9.75693,3.03772,0.0219727,0,0.0610352,0,0.12207,0.999664,0.0232544,0.0045166,-6.10352e-05,-24091,-29202,-23868,-9167,-28641
14265,-0.0813477,0.44502,9.76172,3.03772,0.0219727,0,0.0610352,0,0.0610352,0.999664,0.0232544,0.0045166,-6.10352e-05,-24091,-28946,-23612,-9167,-28641
14271,-0.0765625,0.459375,9.75693,3.03772,0.0219727,0.00549316,0,-0.0610352,0.305176,0.999664,0.0232544,0.0045166,-6.10352e-05,-23835,-28690,-23868,-9167,-28641
14277,-0.0813477,0.45459,9.79521,3.03772,0.0219727,0.00549316,0.0610352,-0.12207,0,0.999664,0.0232544,0.00448608,-3.05176e-05,-23835,-28434,-23868,-9167,-28641
14283,-0.0813477,0.440234,9.76172,3.03772,0.0219727,0.00549316,0,0,-0.12207,0.999664,0.0232544,0.00448608,-3.05176e-05,-23067,-28434,-24892,-9167,-28641
14289,-0.0717773,0.449805,9.77607,3.03772,0.0219727,0.00549316,0,0,0.0610352,0.999664,0.0232544,0.00448608,-3.05176e-05,-23067,-28434,-25148,-9167,-28641
14295,-0.062207,0.45459,9.7665,3.03772,0.0219727,0.00549316,-0.0610352,0,-0.12207,0.999664,0.0232544,0.00448608,-3.05176e-05,-23067,-28690,-25660,-9167,-28641
14301,-0.0861328,0.459375,9.79043,3.03772,0.0219727,0,0.0610352,0,-0.12207,0.999664,0.0232544,0.00448608,-3.05176e-05,-23067,-28946,-25660,-9167,-28641
14307,-0.0765625,0.46416,9.78564,3.03772,0.0219727,0.00549316,-0.0610352,-0.12207,0.183105,0.999664,0.0232239,0.00448608,-3.05176e-05,-22811,-28946,-25660,-9167,-28641
14313,-0.0861328,0.46416,9.78564,3.03772,0.0164795,0.00549316,-0.0610352,-0.0610352,0,0.999664,0.0232239,0.00448608,-3.05176e-05,-22555,-29458,-25916,-9167,-28641
14319,-0.090918,0.449805,9.77607,3.03772,0.0164795,0.00549316,0,0,0,0.999664,0.0232239,0.00448608,-3.05176e-05,-22555,-29458,-25660,-9167,-28641
14325,-0.0813477,0.449805,9.74736,3.03772,0.0164795,0,0,0.0610352,-0.183105,0.999664,0.0232239,0.00448608,-3.05176e-05,-23067,-29714,-25660,-9167,-28641
14331,-0.0669922,0.47373,9.79043,3.03223,0.0164795,0.00549316,-0.12207,0,0.0610352,0.999664,0.0232239,0.00448608,-3.05176e-05,-23835,-29458,-25916,-9167,-28641
14337,-0.0957031,0.45459,9.74258,3.03223,0.0164795,0,0,0,-0.0610352,0.999664,0.0232239,0.00448608,-3.05176e-05,-24091,-29202,-24892,-9167,-28641
14343,-0.0957031,0.459375,9.78564,3.03223,0.0164795,0,0,0,-0.12207,0.999664,0.0232239,0.00448608,-3.05176e-05,-24091,-29458,-24124,-9167,-28641
14349,-0.0717773,0.459375,9.75215,3.03223,0.0164795,0,0,-0.12207,0,0.999664,0.0232239,0.00448608,-3.05176e-05,-23323,-29714,-23356,-9167,-28641
14355,-0.0669922,0.478516,9.76172,3.03223,0.0164795,0,0,-0.0610352,-0.12207,0.999664,0.0232239,0.00448608,-3.05176e-05,-22811,-29970,-23868,-9167,-28641
14361,-0.0717773,0.449805,9.77607,3.03772,0.0164795,0,0.12207,0,0.12207,0.999664,0.0232239,0.00448608,-6.10352e-05,-22299,-30226,-24124,-9167,-28641
14367,-0.100488,0.45459,9.8,3.03772,0.0164795,0.00549316,0,0.12207,0.0610352,0.999664,0.0232239,0.00448608,-3.05176e-05,-22555,-29970,-25148,-9167,-28641
14373,-0.0765625,0.44502,9.75693,3.03772,0.0164795,0.00549316,0.0610352,0,0.305176,0.999664,0.0232239,0.00448608,-3.05176e-05,-23067,-30226,-28220,-9167,-28641
14379,-0.0957031,0.468945,9.77607,3.03772,0.0164795,0.00549316,0,0,-0.12207,0.999664,0.0232239,0.00448608,-3.05176e-05,-23067,-29970,-28732,-9167,-28641
14385,-0.0957031,0.440234,9.78086,3.03772,0.0164795,0.00549316,0.0610352,0.0610352,0,0.999664,0.0232239,0.00448608,-3.05176e-05,-22555,-30226,-28988,-9167,-28641
14391,-0.0957031,0.430664,9.75693,3.03772,0.0164795,0.00549316,-0.0610352,0,0,0.999664,0.0232544,0.00448608,-3.05176e-05,-22043,-30738,-27964,-9167,-28641
14397,-0.0813477,0.468945,9.75693,3.03772,0.0164795,0.00549316,-0.0610352,0,0,0.999664,0.0232544,0.00448608,-3.05176e-05,-21275,-31506,-27196,-9167,-28641
14403,-0.0813477,0.468945,9.75215,3.03772,0.0164795,0.00549316,0,0,0.0610352,0.999664,0.0232544,0.00448608,-3.05176e-05,-21275,32750,-25404,-9167,-28641
14409,-0.0765625,0.440234,9.77129,3.03772,0.0164795,0.00549316,0,0,-0.12207,0.999664,0.0232544,0.00448608,-3.05176e-05,-21787,32494,-25660,-9167,-28641
14415,-0.090918,0.435449,9.76172,3.03772,0.0164795,0.00549316,-0.0610352,0,-0.0610352,0.999664,0.0232544,0.00448608,-3.05176e-05,-22299,32238,-25404,-9167,-28641
14421,-0.090918,0.459375,9.79043,3.03772,0.0164795,0.00549316,0.0610352,-0.12207,0,0.999664,0.0232239,0.00448608,-3.05176e-05,-23067,32494,-24380,-9167,-28641
14427,-0.0765625,0.449805,9.77607,3.03772,0.0164795,0.00549316,0,0,0,0.999664,0.0232544,0.00445557,-3.05176e-05,-23579,32750,-24380,-9167,-28641
14433,-0.0861328,0.44502,9.76172,3.03772,0.0164795,0.00549316,0,0,0,0.999664,0.0232544,0.00445557,-3.05176e-05,-24603,-32018,-23100,-9167,-28641
14439,-0.090918,0.47373,9.75693,3.03772,0.0164795,0.00549316,0,0,-0.0610352,0.999664,0.0232544,0.00445557,-3.05176e-05,-25115,-31762,-23612,-9167,-28641
14445,-0.105273,0.44502,9.77129,3.03772,0.0164795,0.00549316,0,0,0.12207,0.999664,0.0232544,0.00445557,-3.05176e-05,-25371,-31506,-23612,-9167,-28641
14451,-0.090918,0.483301,9.78086,3.03772,0.0164795,0.00549316,0,0,0,0.999664,0.0232544,0.00445557,-3.05176e-05,-26139,-31250,-23868,-9167,-28641
14457,-0.0861328,0.46416,9.77129,3.03772,0.0164795,0.00549316,0,-0.0610352,-0.0610352,0.999664,0.0232544,0.00445557,-3.05176e-05,-26395,-30226,-23868,-9167,-28641
14463,-0.0717773,0.459375,9.77129,3.03772,0.0164795,0.00549316,0.183105,0,0,0.999664,0.0232544,0.00445557,-3.05176e-05,-26651,-29202,-23868,-9167,-28641
14469,-0.0813477,0.45459,9.77129,3.03772,0.0164795,0.00549316,0.12207,0,0.12207,0.999664,0.0232544,0.00445557,-3.05176e-05,-26651,-28946,-23868,-9167,-28641
14475,-0.090918,0.459375,9.8,3.03772,0.0164795,0.00549316,0,0,0,0.999664,0.0232544,0.00445557,-3.05176e-05,-26139,-28946,-24124,-9167,-28641
14481,-0.114844,0.449805,9.75215,3.03772,0.0164795,0.00549316,0.0610352,0,0,0.999664,0.0232544,0.00445557,-3.05176e-05,-25627,-28178,-25148,-9167,-28641
14487,-0.0861328,0.46416,9.78086,3.03772,0.0164795,0.00549316,0,-0.12207,-0.0610352,0.999664,0.0232544,0.00445557,-3.05176e-05,-25115,-27922,-25404,-9167,-28641
14493,-0.0957031,0.449805,9.77607,3.03772,0.0164795,0.00549316,0.0610352,0,0.0610352,0.999664,0.0232544,0.00445557,-3.05176e-05,-24347,-27666,-25660,-9167,-28641
14499,-0.0765625,0.425879,9.7665,3.03772,0.0164795,0.00549316,-0.0610352,0,-0.0610352,0.999664,0.0232544,0.00445557,-3.05176e-05,-24091,-27410,-25148,-9167,-28641
