Timestamp,AccX,AccY,AccZ,AngleX,AngleY,AngleZ,AngularVelX,AngularVelY,AngularVelZ,QW,QX,QY,QZ,MagX,MagY,MagZ,Height,AirPressure,Label
15798,716.532,716.532,716.532,716.532,716.532,716.532,716.532,716.532,716.532,716.532,716.532,716.532,0.750047,36.55,109.367,36.55,287454020,287454020,Default
15804,716.532,716.532,716.532,716.532,716.532,716.532,716.532,716.532,716.532,716.532,716.532,716.532,0.750047,36.55,109.367,36.55,287454020,287454020,Default
15810,716.532,716.532,716.532,716.532,716.532,716.532,716.532,716.532,716.532,716.532,716.532,716.532,0.750047,36.55,109.367,36.55,287454020,287454020,Default
15816,716.532,716.532,716.532,716.532,716.532,716.532,716.532,716.532,716.532,716.532,716.532,716.532,0.750047,36.55,109.367,36.55,287454020,287454020,Default
15822,716.532,716.532,716.532,716.532,716.532,716.532,716.532,716.532,716.532,716.532,716.532,716.532,0.750047,36.55,109.367,36.55,287454020,287454020,Default
15828,716.532,716.532,716.532,716.532,716.532,716.532,716.532,716.532,716.532,716.532,716.532,716.532,0.750047,36.55,109.367,36.55,287454020,287454020,Default
15834,716.532,716.532,716.532,716.532,716.532,716.532,716.532,716.532,716.532,716.532,716.532,716.532,0.750047,36.55,109.367,36.55,287454020,287454020,Default
15840,716.532,716.532,716.532,716.532,716.532,716.532,716.532,716.532,716.532,716.532,716.532,716.532,0.750047,36.55,109.367,36.55,287454020,287454020,Default
15846,716.532,716.532,716.532,716.532,716.532,716.532,716.532,716.532,716.532,716.532,716.532,716.532,0.750047,36.55,109.367,36.55,287454020,287454020,Default
15852,716.532,716.532,716.532,716.532,716.532,716.532,716.532,716.532,716.532,716.532,716.532,716.532,0.750047,36.55,109.367,36.55,287454020,287454020,Default
15858,716.532,716.532,716.532,716.532,716.532,716.532,716.532,716.532,716.532,716.532,716.532,716.532,0.750047,36.55,109.367,36.55,287454020,287454020,Default
15864,716.532,716.532,716.532,716.532,716.532,716.532,716.532,716.532,716.532,716.532,716.532,716.532,0.750047,36.55,109.367,36.55,287454020,287454020,Default
15870,716.532,716.532,716.532,716.532,716.532,716.532,716.532,716.532,716.532,716.532,716.532,716.532,0.750047,36.55,109.367,36.55,287454020,287454020,Default
15876,716.532,716.532,716.532,716.532,716.532,716.532,716.532,716.532,716.532,716.532,716.532,716.532,0.750047,36.55,109.367,36.55,287454020,287454020,Default
15882,716.532,716.532,716.532,716.532,716.532,716.532,716.532,716.532,716.532,716.532,716.532,716.532,0.750047,36.55,109.367,36.55,287454020,287454020,Default
15888,716.532,716.532,716.532,716.532,716.532,716.532,716.532,716.532,716.532,716.532,716.532,716.532,0.750047,36.55,109.367,36.55,287454020,287454020,Default
15894,716.532,716.532,716.532,716.532,716.532,716.532,716.532,716.532,716.532,716.532,716.532,716.532,0.750047,36.55,109.367,36.55,287454020,287454020,Default
15900,716.532,716.532,716.532,716.532,716.532,716.532,716.532,716.532,716.532,716.532,716.532,716.532,0.750047,36.55,109.367,36.55,287454020,287454020,Default
15906,716.532,716.532,716.532,716.532,716.532,716.532,716.532,716.532,716.532,716.532,716.532,716.532,0.750047,36.55,109.367,36.55,287454020,287454020,Default
15912,716.532,716.532,716.532,716.532,716.532,716.532,716.532,716.532,716.532,716.532,716.532,716.532,0.750047,36.55,109.367,36.55,287454020,287454020,Default
15918,716.532,716.532,716.532,716.532,716.532,716.532,716.532,716.532,716.532,716.532,716.532,716.532,0.750047,36.55,109.367,36.55,287454020,287454020,Default
15924,716.532,716.532,716.532,716.532,716.532,716.532,716.532,716.532,716.532,716.532,716.532,716.532,0.750047,36.55,109.367,36.55,287454020,287454020,Default
15930,716.532,716.532,716.532,716.532,716.532,716.532,716.532,716.532,716.532,716.532,716.532,716.532,0.750047,36.55,109.367,36.55,287454020,287454020,Default
15936,716.532,716.532,716.532,716.532,716.532,716.532,716.532,716.532,716.532,716.532,716.532,716.532,0.750047,36.55,109.367,36.55,287454020,287454020,Default
15942,716.532,716.532,716.532,716.532,716.532,716.532,716.532,716.532,716.532,716.532,716.532,716.532,0.750047,36.55,109.367,36.55,287454020,287454020,Default
15948,716.532,716.532,716.532,716.532,716.532,716.532,716.532,716.532,716.532,716.532,716.532,716.532,0.750047,36.55,109.367,36.55,287454020,287454020,Default
15954,716.532,716.532,716.532,716.532,716.532,716.532,716.532,716.532,716.532,716.532,716.532,716.532,0.750047,36.55,109.367,36.55,287454020,287454020,Default
15960,716.532,716.532,716.532,716.532,716.532,716.532,716.532,716.532,716.532,716.532,716.532,716.532,0.750047,36.55,109.367,36.55,287454020,287454020,Default
15966,716.532,716.532,716.532,716.532,716.532,716.532,716.532,716.532,716.532,716.532,716.532,716.532,0.750047,36.55,109.367,36.55,287454020,287454020,Default
15972,716.532,716.532,716.532,716.532,716.532,716.532,716.532,716.532,716.532,716.532,716.532,716.532,0.750047,36.55,109.367,36.55,287454020,287454020,Default
15978,716.532,716.532,716.532,716.532,716.532,716.532,716.532,716.532,716.532,716.532,716.532,716.532,0.750047,36.55,109.367,36.55,287454020,287454020,Default
15984,716.532,716.532,716.532,716.532,716.532,716.532,716.532,716.532,716.532,716.532,716.532,716.532,0.750047,36.55,109.367,36.55,287454020,287454020,Default
15990,716.532,716.532,716.532,716.532,716.532,716.532,716.532,716.532,716.532,716.532,716.532,716.532,0.750047,36.55,109.367,36.55,287454020,287454020,Default
15996,716.532,716.532,716.532,716.532,716.532,716.532,716.532,716.532,716.532,716.532,716.532,716.532,0.750047,36.55,109.367,36.55,287454020,287454020,Default
16002,716.532,716.532,716.532,716.532,716.532,716.532,716.532,716.532,716.532,716.532,716.532,716.532,0.750047,36.55,109.367,36.55,287454020,287454020,Default
16008,716.532,716.532,716.532,716.532,716.532,716.532,716.532,716.532,716.532,716.532,716.532,716.532,0.750047,36.55,109.367,36.55,287454020,287454020,Default
16014,716.532,716.532,716.532,716.532,716.532,716.532,716.532,716.532,716.532,716.532,716.532,716.532,0.750047,36.55,109.367,36.55,287454020,287454020,Default
16020,716.532,716.532,716.532,716.532,716.532,716.532,716.532,716.532,716.532,716.532,716.532,716.532,0.750047,36.55,109.367,36.55,287454020,287454020,Default
16026,716.532,716.532,716.532,716.532,716.532,716.532,716.532,716.532,716.532,716.532,716.532,716.532,0.750047,36.55,109.367,36.55,287454020,287454020,Default
16032,716.532,716.532,716.532,716.532,716.532,716.532,716.532,716.532,716.532,716.532,716.532,716.532,0.750047,36.55,109.367,36.55,287454020,287454020,Default
16038,716.532,716.532,716.532,716.532,716.532,716.532,716.532,716.532,716.532,716.532,716.532,716.532,0.750047,36.55,109.367,36.55,287454020,287454020,Default
16044,716.532,716.532,716.532,716.532,716.532,716.532,716.532,716.532,716.532,716.532,716.532,716.532,0.750047,36.55,109.367,36.55,287454020,287454020,Default
16050,716.532,716.532,716.532,716.532,716.532,716.532,716.532,716.532,716.532,716.532,716.532,716.532,0.750047,36.55,109.367,36.55,287454020,287454020,Default
16056,716.532,716.532,716.532,716.532,716.532,716.532,716.532,716.532,716.532,716.532,716.532,716.532,0.750047,36.55,109.367,36.55,287454020,287454020,Default
16062,716.532,716.532,716.532,716.532,716.532,716.532,716.532,716.532,716.532,716.532,716.532,716.532,0.750047,36.55,109.367,36.55,287454020,287454020,Default
16068,716.532,716.532,716.532,716.532,716.532,716.532,716.532,716.532,716.532,716.532,716.532,716.532,0.750047,36.55,109.367,36.55,287454020,287454020,Default
16074,716.532,716.532,716.532,716.532,716.532,716.532,716.532,716.532,716.532,716.532,716.532,716.532,0.750047,36.55,109.367,36.55,287454020,287454020,Default
16080,716.532,716.532,716.532,716.532,716.532,716.532,716.532,716.532,716.532,716.532,716.532,716.532,0.750047,36.55,109.367,36.55,287454020,287454020,Default
16086,716.532,716.532,716.532,716.532,716.532,716.532,716.532,716.532,716.532,716.532,716.532,716.532,0.750047,36.55,109.367,36.55,287454020,287454020,Default
16092,716.532,716.532,716.532,716.532,716.532,716.532,716.532,716.532,716.532,716.532,716.532,716.532,0.750047,36.55,109.367,36.55,287454020,287454020,Default
16098,716.532,716.532,716.532,716.532,716.532,716.532,716.532,716.532,716.532,716.532,716.532,716.532,0.750047,36.55,109.367,36.55,287454020,287454020,Default
16104,716.532,716.532,716.532,716.532,716.532,716.532,716.532,716.532,716.532,716.532,716.532,716.532,0.750047,36.55,109.367,36.55,287454020,287454020,Default
16110,716.532,716.532,716.532,716.532,716.532,716.532,716.532,716.532,716.532,716.532,716.532,716.532,0.750047,36.55,109.367,36.55,287454020,287454020,Default
16116,716.532,716.532,716.532,716.532,716.532,716.532,716.532,716.532,716.532,716.532,716.532,716.532,0.750047,36.55,109.367,36.55,287454020,287454020,Default
16122,716.532,716.532,716.532,716.532,716.532,716.532,716.532,716.532,716.532,716.532,716.532,716.532,0.750047,36.55,109.367,36.55,287454020,287454020,Default
16128,716.532,716.532,716.532,716.532,716.532,716.532,716.532,716.532,716.532,716.532,716.532,716.532,0.750047,36.55,109.367,36.55,287454020,287454020,Default
16134,716.532,716.532,716.532,716.532,716.532,716.532,716.532,716.532,716.532,716.532,716.532,716.532,0.750047,36.55,109.367,36.55,287454020,287454020,Default
16140,716.532,716.532,716.532,716.532,716.532,716.532,716.532,716.532,716.532,716.532,716.532,716.532,0.750047,36.55,109.367,36.55,287454020,287454020,Default
16146,716.532,716.532,716.532,716.532,716.532,716.532,716.532,716.532,716.532,716.532,716.532,716.532,0.750047,36.55,109.367,36.55,287454020,287454020,Default
16152,716.532,716.532,716.532,716.532,716.532,716.532,716.532,716.532,716.532,716.532,716.532,716.532,0.750047,36.55,109.367,36.55,287454020,287454020,Default
16158,716.532,716.532,716.532,716.532,716.532,716.532,716.532,716.532,716.532,716.532,716.532,716.532,0.750047,36.55,109.367,36.55,287454020,287454020,Default
16164,716.532,716.532,716.532,716.532,716.532,716.532,716.532,716.532,716.532,716.532,716.532,716.532,0.750047,36.55,109.367,36.55,287454020,287454020,Default
16170,716.532,716.532,716.532,716.532,716.532,716.532,716.532,716.532,716.532,716.532,716.532,716.532,0.750047,36.55,109.367,36.55,287454020,287454020,Default
16176,716.532,716.532,716.532,716.532,716.532,716.532,716.532,716.532,716.532,716.532,716.532,716.532,0.750047,36.55,109.367,36.55,287454020,287454020,Default
16182,716.532,716.532,716.532,716.532,716.532,716.532,716.532,716.532,716.532,716.532,716.532,716.532,0.750047,36.55,109.367,36.55,287454020,287454020,Default
16188,716.532,716.532,716.532,716.532,716.532,716.532,716.532,716.532,716.532,716.532,716.532,716.532,0.750047,36.55,109.367,36.55,287454020,287454020,Default
16194,716.532,716.532,716.532,716.532,716.532,716.532,716.532,716.532,716.532,716.532,716.532,716.532,0.750047,36.55,109.367,36.55,287454020,287454020,Default
16200,716.532,716.532,716.532,716.532,716.532,716.532,716.532,716.532,716.532,716.532,716.532,716.532,0.750047,36.55,109.367,36.55,287454020,287454020,Default
16206,716.532,716.532,716.532,716.532,716.532,716.532,716.532,716.532,716.532,716.532,716.532,716.532,0.750047,36.55,109.367,36.55,287454020,287454020,Default
16212,716.532,716.532,716.532,716.532,716.532,716.532,716.532,716.532,716.532,716.532,716.532,716.532,0.750047,36.55,109.367,36.55,287454020,287454020,Default
16218,716.532,716.532,716.532,716.532,716.532,716.532,716.532,716.532,716.532,716.532,716.532,716.532,0.750047,36.55,109.367,36.55,287454020,287454020,Default
16224,716.532,716.532,716.532,716.532,716.532,716.532,716.532,716.532,716.532,716.532,716.532,716.532,0.750047,36.55,109.367,36.55,287454020,287454020,Default
16230,716.532,716.532,716.532,716.532,716.532,716.532,716.532,716.532,716.532,716.532,716.532,716.532,0.750047,36.55,109.367,36.55,287454020,287454020,Default
16236,716.532,716.532,716.532,716.532,716.532,716.532,716.532,716.532,716.532,716.532,716.532,716.532,0.750047,36.55,109.367,36.55,287454020,287454020,Default
16242,716.532,716.532,716.532,716.532,716.532,716.532,716.532,716.532,716.532,716.532,716.532,716.532,0.750047,36.55,109.367,36.55,287454020,287454020,Default
16248,716.532,716.532,716.532,716.532,716.532,716.532,716.532,716.532,716.532,716.532,716.532,716.532,0.750047,36.55,109.367,36.55,287454020,287454020,Default
16254,716.532,716.532,716.532,716.532,716.532,716.532,716.532,716.532,716.532,716.532,716.532,716.532,0.750047,36.55,109.367,36.55,287454020,287454020,Default
16260,716.532,716.532,716.532,716.532,716.532,716.532,716.532,716.532,716.532,716.532,716.532,716.532,0.750047,36.55,109.367,36.55,287454020,287454020,Default
16266,716.532,716.532,716.532,716.532,716.532,716.532,716.532,716.532,716.532,716.532,716.532,716.532,0.750047,36.55,109.367,36.55,287454020,287454020,Default
16272,716.532,716.532,716.532,716.532,716.532,716.532,716.532,716.532,716.532,716.532,716.532,716.532,0.750047,36.55,109.367,36.55,287454020,287454020,Default
16278,716.532,716.532,716.532,716.532,716.532,716.532,716.532,716.532,716.532,716.532,716.532,716.532,0.750047,36.55,109.367,36.55,287454020,287454020,Default
16284,716.532,716.532,716.532,716.532,716.532,716.532,716.532,716.532,716.532,716.532,716.532,716.532,0.750047,36.55,109.367,36.55,287454020,287454020,Default
16290,716.532,716.532,716.532,716.532,716.532,716.532,716.532,716.532,716.532,716.532,716.532,716.532,0.750047,36.55,109.367,36.55,287454020,287454020,Default
16296,716.532,716.532,716.532,716.532,716.532,716.532,716.532,716.532,716.532,716.532,716.532,716.532,0.750047,36.55,109.367,36.55,287454020,287454020,Default
16302,716.532,716.532,716.532,716.532,716.532,716.532,716.532,716.532,716.532,716.532,716.532,716.532,0.750047,36.55,109.367,36.55,287454020,287454020,Default
16308,716.532,716.532,716.532,716.532,716.532,716.532,716.532,716.532,716.532,716.532,716.532,716.532,0.750047,36.55,109.367,36.55,287454020,287454020,Default
16314,716.532,716.532,716.532,716.532,716.532,716.532,716.532,716.532,716.532,716.532,716.532,716.532,0.750047,36.55,109.367,36.55,287454020,287454020,Default
16320,716.532,716.532,716.532,716.532,716.532,716.532,716.532,716.532,716.532,716.532,716.532,716.532,0.750047,36.55,109.367,36.55,287454020,287454020,Default
16326,716.532,716.532,716.532,716.532,716.532,716.532,716.532,716.532,716.532,716.532,716.532,716.532,0.750047,36.55,109.367,36.55,287454020,287454020,Default
16332,716.532,716.532,716.532,716.532,716.532,716.532,716.532,716.532,716.532,716.532,716.532,716.532,0.750047,36.55,109.367,36.55,287454020,287454020,Default
16338,716.532,716.532,716.532,716.532,716.532,716.532,716.532,716.532,716.532,716.532,716.532,716.532,0.750047,36.55,109.367,36.55,287454020,287454020,Default
16344,716.532,716.532,716.532,716.532,716.532,716.532,716.532,716.532,716.532,716.532,716.532,716.532,0.750047,36.55,109.367,36.55,287454020,287454020,Default
16350,716.532,716.532,716.532,716.532,716.532,716.532,716.532,716.532,716.532,716.532,716.532,716.532,0.750047,36.55,109.367,36.55,287454020,287454020,Default
16356,716.532,716.532,716.532,716.532,716.532,716.532,716.532,716.532,716.532,716.532,716.532,716.532,0.750047,36.55,109.367,36.55,287454020,287454020,Default
16362,716.532,716.532,716.532,716.532,716.532,716.532,716.532,716.532,716.532,716.532,716.532,716.532,0.750047,36.55,109.367,36.55,287454020,287454020,Default
16368,716.532,716.532,716.532,716.532,716.532,716.532,716.532,716.532,716.532,716.532,716.532,716.532,0.750047,36.55,109.367,36.55,287454020,287454020,Default
16374,716.532,716.532,716.532,716.532,716.532,716.532,716.532,716.532,716.532,716.532,716.532,716.532,0.750047,36.55,109.367,36.55,287454020,287454020,Default
16380,716.532,716.532,716.532,716.532,716.532,716.532,716.532,716.532,716.532,716.532,716.532,716.532,0.750047,36.55,109.367,36.55,287454020,287454020,Default
16386,716.532,716.532,716.532,716.532,716.532,716.532,716.532,716.532,716.532,716.532,716.532,716.532,0.750047,36.55,109.367,36.55,287454020,287454020,Default
16392,716.532,716.532,716.532,716.532,716.532,716.532,716.532,716.532,716.532,716.532,716.532,716.532,0.750047,36.55,109.367,36.55,287454020,287454020,Default
16398,716.532,716.532,716.532,716.532,716.532,716.532,716.532,716.532,716.532,716.532,716.532,716.532,0.750047,36.55,109.367,36.55,287454020,287454020,Default
16404,716.532,716.532,716.532,716.532,716.532,716.532,716.532,716.532,716.532,716.532,716.532,716.532,0.750047,36.55,109.367,36.55,287454020,287454020,Default
16410,716.532,716.532,716.532,716.532,716.532,716.532,716.532,716.532,716.532,716.532,716.532,716.532,0.750047,36.55,109.367,36.55,287454020,287454020,Default
16416,716.532,716.532,716.532,716.532,716.532,716.532,716.532,716.532,716.532,716.532,716.532,716.532,0.750047,36.55,109.367,36.55,287454020,287454020,Default
16422,716.532,716.532,716.532,716.532,716.532,716.532,716.532,716.532,716.532,716.532,716.532,716.532,0.750047,36.55,109.367,36.55,287454020,287454020,Default
16428,716.532,716.532,716.532,716.532,716.532,716.532,716.532,716.532,716.532,716.532,716.532,716.532,0.750047,36.55,109.367,36.55,287454020,287454020,Default
16434,716.532,716.532,716.532,716.532,716.532,716.532,716.532,716.532,716.532,716.532,716.532,716.532,0.750047,36.55,109.367,36.55,287454020,287454020,Default
16440,716.532,716.532,716.532,716.532,716.532,716.532,716.532,716.532,716.532,716.532,716.532,716.532,0.750047,36.55,109.367,36.55,287454020,287454020,Default
16446,716.532,716.532,716.532,716.532,716.532,716.532,716.532,716.532,716.532,716.532,716.532,716.532,0.750047,36.55,109.367,36.55,287454020,287454020,Default
16452,716.532,716.532,716.532,716.532,716.532,716.532,716.532,716.532,716.532,716.532,716.532,716.532,0.750047,36.55,109.367,36.55,287454020,287454020,Default
16458,716.532,716.532,716.532,716.532,716.532,716.532,716.532,716.532,716.532,716.532,716.532,716.532,0.750047,36.55,109.367,36.55,287454020,287454020,Default
16464,716.532,716.532,716.532,716.532,716.532,716.532,716.532,716.532,716.532,716.532,716.532,716.532,0.750047,36.55,109.367,36.55,287454020,287454020,Default
16470,716.532,716.532,716.532,716.532,716.532,716.532,716.532,716.532,716.532,716.532,716.532,716.532,0.750047,36.55,109.367,36.55,287454020,287454020,Default
16476,716.532,716.532,716.532,716.532,716.532,716.532,716.532,716.532,716.532,716.532,716.532,716.532,0.750047,36.55,109.367,36.55,287454020,287454020,Default
16482,716.532,716.532,716.532,716.532,716.532,716.532,716.532,716.532,716.532,716.532,716.532,716.532,0.750047,36.55,109.367,36.55,287454020,287454020,Default
16488,716.532,716.532,716.532,716.532,716.532,716.532,716.532,716.532,716.532,716.532,716.532,716.532,0.750047,36.55,109.367,36.55,287454020,287454020,Default
16494,716.532,716.532,716.532,716.532,716.532,716.532,716.532,716.532,716.532,716.532,716.532,716.532,0.750047,36.55,109.367,36.55,287454020,287454020,Default
16500,716.532,716.532,716.532,716.532,716.532,716.532,716.532,716.532,716.532,716.532,716.532,716.532,0.750047,36.55,109.367,36.55,287454020,287454020,Default
16506,716.532,716.532,716.532,716.532,716.532,716.532,716.532,716.532,716.532,716.532,716.532,716.532,0.750047,36.55,109.367,36.55,287454020,287454020,Default
16512,716.532,716.532,716.532,716.532,716.532,716.532,716.532,716.532,716.532,716.532,716.532,716.532,0.750047,36.55,109.367,36.55,287454020,287454020,Default
16518,716.532,716.532,716.532,716.532,716.532,716.532,716.532,716.532,716.532,716.532,716.532,716.532,0.750047,36.55,109.367,36.55,287454020,287454020,Default
16524,716.532,716.532,716.532,716.532,716.532,716.532,716.532,716.532,716.532,716.532,716.532,716.532,0.750047,36.55,109.367,36.55,287454020,287454020,Default
16530,716.532,716.532,716.532,716.532,716.532,716.532,716.532,716.532,716.532,716.532,716.532,716.532,0.750047,36.55,109.367,36.55,287454020,287454020,Default
16536,716.532,716.532,716.532,716.532,716.532,716.532,716.532,716.532,716.532,716.532,716.532,716.532,0.750047,36.55,109.367,36.55,287454020,287454020,Default
16542,716.532,716.532,716.532,716.532,716.532,716.532,716.532,716.532,716.532,716.532,716.532,716.532,0.750047,36.55,109.367,36.55,287454020,287454020,Default
16548,716.532,716.532,716.532,716.532,716.532,716.532,716.532,716.532,716.532,716.532,716.532,716.532,0.750047,36.55,109.367,36.55,287454020,287454020,Default
16554,716.532,716.532,716.532,716.532,716.532,716.532,716.532,716.532,716.532,716.532,716.532,716.532,0.750047,36.55,109.367,36.55,287454020,287454020,Default
16560,716.532,716.532,716.532,716.532,716.532,716.532,716.532,716.532,716.532,716.532,716.532,716.532,0.750047,36.55,109.367,36.55,287454020,287454020,Default
16566,716.532,716.532,716.532,716.532,716.532,716.532,716.532,716.532,716.532,716.532,716.532,716.532,0.750047,36.55,109.367,36.55,287454020,287454020,Default
16572,716.532,716.532,716.532,716.532,716.532,716.532,716.532,716.532,716.532,716.532,716.532,716.532,0.750047,36.55,109.367,36.55,287454020,287454020,Default
16578,716.532,716.532,716.532,716.532,716.532,716.532,716.532,716.532,716.532,716.532,716.532,716.532,0.750047,36.55,109.367,36.55,287454020,287454020,Default
16584,716.532,716.532,716.532,716.532,716.532,716.532,716.532,716.532,716.532,716.532,716.532,716.532,0.750047,36.55,109.367,36.55,287454020,287454020,Default
16590,716.532,716.532,716.532,716.532,716.532,716.532,716.532,716.532,716.532,716.532,716.532,716.532,0.750047,36.55,109.367,36.55,287454020,287454020,Default
16596,716.532,716.532,716.532,716.532,716.532,716.532,716.532,716.532,716.532,716.532,716.532,716.532,0.750047,36.55,109.367,36.55,287454020,287454020,Default
16602,716.532,716.532,716.532,716.532,716.532,716.532,716.532,716.532,716.532,716.532,716.532,716.532,0.750047,36.55,109.367,36.55,287454020,287454020,Default
16608,716.532,716.532,716.532,716.532,716.532,716.532,716.532,716.532,716.532,716.532,716.532,716.532,0.750047,36.55,109.367,36.55,287454020,287454020,Default
16614,716.532,716.532,716.532,716.532,716.532,716.532,716.532,716.532,716.532,716.532,716.532,716.532,0.750047,36.55,109.367,36.55,287454020,287454020,Default
16620,716.532,716.532,716.532,716.532,716.532,716.532,716.532,716.532,716.532,716.532,716.532,716.532,0.750047,36.55,109.367,36.55,287454020,287454020,Default
16626,716.532,716.532,716.532,716.532,716.532,716.532,716.532,716.532,716.532,716.532,716.532,716.532,0.750047,36.55,109.367,36.55,287454020,287454020,Default
16632,716.532,716.532,716.532,716.532,716.532,716.532,716.532,716.532,716.532,716.532,716.532,716.532,0.750047,36.55,109.367,36.55,287454020,287454020,Default
16638,716.532,716.532,716.532,716.532,716.532,716.532,716.532,716.532,716.532,716.532,716.532,716.532,0.750047,36.55,109.367,36.55,287454020,287454020,Default
16644,716.532,716.532,716.532,716.532,716.532,716.532,716.532,716.532,716.532,716.532,716.532,716.532,0.750047,36.55,109.367,36.55,287454020,287454020,Default
16650,716.532,716.532,716.532,716.532,716.532,716.532,716.532,716.532,716.532,716.532,716.532,716.532,0.750047,36.55,109.367,36.55,287454020,287454020,Default
16656,716.532,716.532,716.532,716.532,716.532,716.532,716.532,716.532,716.532,716.532,716.532,716.532,0.750047,36.55,109.367,36.55,287454020,287454020,Default
16662,716.532,716.532,716.532,716.532,716.532,716.532,716.532,716.532,716.532,716.532,716.532,716.532,0.750047,36.55,109.367,36.55,287454020,287454020,Default
16668,716.532,716.532,716.532,716.532,716.532,716.532,716.532,716.532,716.532,716.532,716.532,716.532,0.750047,36.55,109.367,36.55,287454020,287454020,Default
16674,716.532,716.532,716.532,716.532,716.532,716.532,716.532,716.532,716.532,716.532,716.532,716.532,0.750047,36.55,109.367,36.55,287454020,287454020,Default
16680,716.532,716.532,716.532,716.532,716.532,716.532,716.532,716.532,716.532,716.532,716.532,716.532,0.750047,36.55,109.367,36.55,287454020,287454020,Default
16686,716.532,716.532,716.532,716.532,716.532,716.532,716.532,716.532,716.532,716.532,716.532,716.532,0.750047,36.55,109.367,36.55,287454020,287454020,Default
16692,716.532,716.532,716.532,716.532,716.532,716.532,716.532,716.532,716.532,716.532,716.532,716.532,0.750047,36.55,109.367,36.55,287454020,287454020,Default
16698,716.532,716.532,716.532,716.532,716.532,716.532,716.532,716.532,716.532,716.532,716.532,716.532,0.750047,36.55,109.367,36.55,287454020,287454020,Default
16704,716.532,716.532,716.532,716.532,716.532,716.532,716.532,716.532,716.532,716.532,716.532,716.532,0.750047,36.55,109.367,36.55,287454020,287454020,Default
16710,716.532,716.532,716.532,716.532,716.532,716.532,716.532,716.532,716.532,716.532,716.532,716.532,0.750047,36.55,109.367,36.55,287454020,287454020,Default
16716,716.532,716.532,716.532,716.532,716.532,716.532,716.532,716.532,716.532,716.532,716.532,716.532,0.750047,36.55,109.367,36.55,287454020,287454020,Default
16722,716.532,716.532,716.532,716.532,716.532,716.532,716.532,716.532,716.532,716.532,716.532,716.532,0.750047,36.55,109.367,36.55,287454020,287454020,Default
16728,716.532,716.532,716.532,716.532,716.532,716.532,716.532,716.532,716.532,716.532,716.532,716.532,0.750047,36.55,109.367,36.55,287454020,287454020,Default
16734,716.532,716.532,716.532,716.532,716.532,716.532,716.532,716.532,716.532,716.532,716.532,716.532,0.750047,36.55,109.367,36.55,287454020,287454020,Default
16740,716.532,716.532,716.532,716.532,716.532,716.532,716.532,716.532,716.532,716.532,716.532,716.532,0.750047,36.55,109.367,36.55,287454020,287454020,Default
16746,716.532,716.532,716.532,716.532,716.532,716.532,716.532,716.532,716.532,716.532,716.532,716.532,0.750047,36.55,109.367,36.55,287454020,287454020,Default
16752,716.532,716.532,716.532,716.532,716.532,716.532,716.532,716.532,716.532,716.532,716.532,716.532,0.750047,36.55,109.367,36.55,287454020,287454020,Default
16758,716.532,716.532,716.532,716.532,716.532,716.532,716.532,716.532,716.532,716.532,716.532,716.532,0.750047,36.55,109.367,36.55,287454020,287454020,Default
16764,716.532,716.532,716.532,716.532,716.532,716.532,716.532,716.532,716.532,716.532,716.532,716.532,0.750047,36.55,109.367,36.55,287454020,287454020,Default
16770,716.532,716.532,716.532,716.532,716.532,716.532,716.532,716.532,716.532,716.532,716.532,716.532,0.750047,36.55,109.367,36.55,287454020,287454020,Default
16776,716.532,716.532,716.532,716.532,716.532,716.532,716.532,716.532,716.532,716.532,716.532,716.532,0.750047,36.55,109.367,36.55,287454020,287454020,Default
16782,716.532,716.532,716.532,716.532,716.532,716.532,716.532,716.532,716.532,716.532,716.532,716.532,0.750047,36.55,109.367,36.55,287454020,287454020,Default
16788,716.532,716.532,716.532,716.532,716.532,716.532,716.532,716.532,716.532,716.532,716.532,716.532,0.750047,36.55,109.367,36.55,287454020,287454020,Default
16794,716.532,716.532,716.532,716.532,716.532,716.532,716.532,716.532,716.532,716.532,716.532,716.532,0.750047,36.55,109.367,36.55,287454020,287454020,Default
16800,716.532,716.532,716.532,716.532,716.532,716.532,716.532,716.532,716.532,716.532,716.532,716.532,0.750047,36.55,109.367,36.55,287454020,287454020,Default
16806,716.532,716.532,716.532,716.532,716.532,716.532,716.532,716.532,716.532,716.532,716.532,716.532,0.750047,36.55,109.367,36.55,287454020,287454020,Default
16812,716.532,716.532,716.532,716.532,716.532,716.532,716.532,716.532,716.532,716.532,716.532,716.532,0.750047,36.55,109.367,36.55,287454020,287454020,Default
16818,716.532,716.532,716.532,716.532,716.532,716.532,716.532,716.532,716.532,716.532,716.532,716.532,0.750047,36.55,109.367,36.55,287454020,287454020,Default
16824,716.532,716.532,716.532,716.532,716.532,716.532,716.532,716.532,716.532,716.532,716.532,716.532,0.750047,36.55,109.367,36.55,287454020,287454020,Default
16830,716.532,716.532,716.532,716.532,716.532,716.532,716.532,716.532,716.532,716.532,716.532,716.532,0.750047,36.55,109.367,36.55,287454020,287454020,Default
16836,716.532,716.532,716.532,716.532,716.532,716.532,716.532,716.532,716.532,716.532,716.532,716.532,0.750047,36.55,109.367,36.55,287454020,287454020,Default
16842,716.532,716.532,716.532,716.532,716.532,716.532,716.532,716.532,716.532,716.532,716.532,716.532,0.750047,36.55,109.367,36.55,287454020,287454020,Default
16848,716.532,716.532,716.532,716.532,716.532,716.532,716.532,716.532,716.532,716.532,716.532,716.532,0.750047,36.55,109.367,36.55,287454020,287454020,Default
16854,716.532,716.532,716.532,716.532,716.532,716.532,716.532,716.532,716.532,716.532,716.532,716.532,0.750047,36.55,109.367,36.55,287454020,287454020,Default
16860,716.532,716.532,716.532,716.532,716.532,716.532,716.532,716.532,716.532,716.532,716.532,716.532,0.750047,36.55,109.367,36.55,287454020,287454020,Default
16866,716.532,716.532,716.532,716.532,716.532,716.532,716.532,716.532,716.532,716.532,716.532,716.532,0.750047,36.55,109.367,36.55,287454020,287454020,Default
16872,716.532,716.532,716.532,716.532,716.532,716.532,716.532,716.532,716.532,716.532,716.532,716.532,0.750047,36.55,109.367,36.55,287454020,287454020,Default
16878,716.532,716.532,716.532,716.532,716.532,716.532,716.532,716.532,716.532,716.532,716.532,716.532,0.750047,36.55,109.367,36.55,287454020,287454020,Default
16884,716.532,716.532,716.532,716.532,716.532,716.532,716.532,716.532,716.532,716.532,716.532,716.532,0.750047,36.55,109.367,36.55,287454020,287454020,Default
16890,716.532,716.532,716.532,716.532,716.532,716.532,716.532,716.532,716.532,716.532,716.532,716.532,0.750047,36.55,109.367,36.55,287454020,287454020,Default
16896,716.532,716.532,716.532,716.532,716.532,716.532,716.532,716.532,716.532,716.532,716.532,716.532,0.750047,36.55,109.367,36.55,287454020,287454020,Default
16902,716.532,716.532,716.532,716.532,716.532,716.532,716.532,716.532,716.532,716.532,716.532,716.532,0.750047,36.55,109.367,36.55,287454020,287454020,Default
16908,716.532,716.532,716.532,716.532,716.532,716.532,716.532,716.532,716.532,716.532,716.532,716.532,0.750047,36.55,109.367,36.55,287454020,287454020,Default
16914,716.532,716.532,716.532,716.532,716.532,716.532,716.532,716.532,716.532,716.532,716.532,716.532,0.750047,36.55,109.367,36.55,287454020,287454020,Default
16920,716.532,716.532,716.532,716.532,716.532,716.532,716.532,716.532,716.532,716.532,716.532,716.532,0.750047,36.55,109.367,36.55,287454020,287454020,Default
16926,716.532,716.532,716.532,716.532,716.532,716.532,716.532,716.532,716.532,716.532,716.532,716.532,0.750047,36.55,109.367,36.55,287454020,287454020,Default
16932,716.532,716.532,716.532,716.532,716.532,716.532,716.532,716.532,716.532,716.532,716.532,716.532,0.750047,36.55,109.367,36.55,287454020,287454020,Default
16938,716.532,716.532,716.532,716.532,716.532,716.532,716.532,716.532,716.532,716.532,716.532,716.532,0.750047,36.55,109.367,36.55,287454020,287454020,Default
16944,716.532,716.532,716.532,716.532,716.532,716.532,716.532,716.532,716.532,716.532,716.532,716.532,0.750047,36.55,109.367,36.55,287454020,287454020,Default
16950,716.532,716.532,716.532,716.532,716.532,716.532,716.532,716.532,716.532,716.532,716.532,716.532,0.750047,36.55,109.367,36.55,287454020,287454020,Default
16956,716.532,716.532,716.532,716.532,716.532,716.532,716.532,716.532,716.532,716.532,716.532,716.532,0.750047,36.55,109.367,36.55,287454020,287454020,Default
16962,716.532,716.532,716.532,716.532,716.532,716.532,716.532,716.532,716.532,716.532,716.532,716.532,0.750047,36.55,109.367,36.55,287454020,287454020,Default
16968,716.532,716.532,716.532,716.532,716.532,716.532,716.532,716.532,716.532,716.532,716.532,716.532,0.750047,36.55,109.367,36.55,287454020,287454020,Default
16974,716.532,716.532,716.532,716.532,716.532,716.532,716.532,716.532,716.532,716.532,716.532,716.532,0.750047,36.55,109.367,36.55,287454020,287454020,Default
16980,716.532,716.532,716.532,716.532,716.532,716.532,716.532,716.532,716.532,716.532,716.532,716.532,0.750047,36.55,109.367,36.55,287454020,287454020,Default
16986,716.532,716.532,716.532,716.532,716.532,716.532,716.532,716.532,716.532,716.532,716.532,716.532,0.750047,36.55,109.367,36.55,287454020,287454020,Default
16992,716.532,716.532,716.532,716.532,716.532,716.532,716.532,716.532,716.532,716.532,716.532,716.532,0.750047,36.55,109.367,36.55,287454020,287454020,Default
16998,716.532,716.532,716.532,716.532,716.532,716.532,716.532,716.532,716.532,716.532,716.532,716.532,0.750047,36.55,109.367,36.55,287454020,287454020,Default
17004,716.532,716.532,716.532,716.532,716.532,716.532,716.532,716.532,716.532,716.532,716.532,716.532,0.750047,36.55,109.367,36.55,287454020,287454020,Default
17010,716.532,716.532,716.532,716.532,716.532,716.532,716.532,716.532,716.532,716.532,716.532,716.532,0.750047,36.55,109.367,36.55,287454020,287454020,Default
17016,716.532,716.532,716.532,716.532,716.532,716.532,716.532,716.532,716.532,716.532,716.532,716.532,0.750047,36.55,109.367,36.55,287454020,287454020,Default
17022,716.532,716.532,716.532,716.532,716.532,716.532,716.532,716.532,716.532,716.532,716.532,716.532,0.750047,36.55,109.367,36.55,287454020,287454020,Default
17028,716.532,716.532,716.532,716.532,716.532,716.532,716.532,716.532,716.532,716.532,716.532,716.532,0.750047,36.55,109.367,36.55,287454020,287454020,Default
17034,716.532,716.532,716.532,716.532,716.532,716.532,716.532,716.532,716.532,716.532,716.532,716.532,0.750047,36.55,109.367,36.55,287454020,287454020,Default
17040,716.532,716.532,716.532,716.532,716.532,716.532,716.532,716.532,716.532,716.532,716.532,716.532,0.750047,36.55,109.367,36.55,287454020,287454020,Default
17046,716.532,716.532,716.532,716.532,716.532,716.532,716.532,716.532,716.532,716.532,716.532,716.532,0.750047,36.55,109.367,36.55,287454020,287454020,Default
17052,716.532,716.532,716.532,716.532,716.532,716.532,716.532,716.532,716.532,716.532,716.532,716.532,0.750047,36.55,109.367,36.55,287454020,287454020,Default
17058,716.532,716.532,716.532,716.532,716.532,716.532,716.532,716.532,716.532,716.532,716.532,716.532,0.750047,36.55,109.367,36.55,287454020,287454020,Default
17064,716.532,716.532,716.532,716.532,716.532,716.532,716.532,716.532,716.532,716.532,716.532,716.532,0.750047,36.55,109.367,36.55,287454020,287454020,Default
17070,716.532,716.532,716.532,716.532,716.532,716.532,716.532,716.532,716.532,716.532,716.532,716.532,0.750047,36.55,109.367,36.55,287454020,287454020,Default
17076,716.532,716.532,716.532,716.532,716.532,716.532,716.532,716.532,716.532,716.532,716.532,716.532,0.750047,36.55,109.367,36.55,287454020,287454020,Default
17082,716.532,716.532,716.532,716.532,716.532,716.532,716.532,716.532,716.532,716.532,716.532,716.532,0.750047,36.55,109.367,36.55,287454020,287454020,Default
17088,716.532,716.532,716.532,716.532,716.532,716.532,716.532,716.532,716.532,716.532,716.532,716.532,0.750047,36.55,109.367,36.55,287454020,287454020,Default
17094,716.532,716.532,716.532,716.532,716.532,716.532,716.532,716.532,716.532,716.532,716.532,716.532,0.750047,36.55,109.367,36.55,287454020,287454020,Default
17100,716.532,716.532,716.532,716.532,716.532,716.532,716.532,716.532,716.532,716.532,716.532,716.532,0.750047,36.55,109.367,36.55,287454020,287454020,Default
17106,716.532,716.532,716.532,716.532,716.532,716.532,716.532,716.532,716.532,716.532,716.532,716.532,0.750047,36.55,109.367,36.55,287454020,287454020,Default
17112,716.532,716.532,716.532,716.532,716.532,716.532,716.532,716.532,716.532,716.532,716.532,716.532,0.750047,36.55,109.367,36.55,287454020,287454020,Default
17118,716.532,716.532,716.532,716.532,716.532,716.532,716.532,716.532,716.532,716.532,716.532,716.532,0.750047,36.55,109.367,36.55,287454020,287454020,Default
17124,716.532,716.532,716.532,716.532,716.532,716.532,716.532,716.532,716.532,716.532,716.532,716.532,0.750047,36.55,109.367,36.55,287454020,287454020,Default
17130,716.532,716.532,716.532,716.532,716.532,716.532,716.532,716.532,716.532,716.532,716.532,716.532,0.750047,36.55,109.367,36.55,287454020,287454020,Default
17136,716.532,716.532,716.532,716.532,716.532,716.532,716.532,716.532,716.532,716.532,716.532,716.532,0.750047,36.55,109.367,36.55,287454020,287454020,Default
17142,716.532,716.532,716.532,716.532,716.532,716.532,716.532,716.532,716.532,716.532,716.532,716.532,0.750047,36.55,109.367,36.55,287454020,287454020,Default
17148,716.532,716.532,716.532,716.532,716.532,716.532,716.532,716.532,716.532,716.532,716.532,716.532,0.750047,36.55,109.367,36.55,287454020,287454020,Default
17154,716.532,716.532,716.532,716.532,716.532,716.532,716.532,716.532,716.532,716.532,716.532,716.532,0.750047,36.55,109.367,36.55,287454020,287454020,Default
17160,716.532,716.532,716.532,716.532,716.532,716.532,716.532,716.532,716.532,716.532,716.532,716.532,0.750047,36.55,109.367,36.55,287454020,287454020,Default
17166,716.532,716.532,716.532,716.532,716.532,716.532,716.532,716.532,716.532,716.532,716.532,716.532,0.750047,36.55,109.367,36.55,287454020,287454020,Default
17172,716.532,716.532,716.532,716.532,716.532,716.532,716.532,716.532,716.532,716.532,716.532,716.532,0.750047,36.55,109.367,36.55,287454020,287454020,Default
17178,716.532,716.532,716.532,716.532,716.532,716.532,716.532,716.532,716.532,716.532,716.532,716.532,0.750047,36.55,109.367,36.55,287454020,287454020,Default
17184,716.532,716.532,716.532,716.532,716.532,716.532,716.532,716.532,716.532,716.532,716.532,716.532,0.750047,36.55,109.367,36.55,287454020,287454020,Default
17190,716.532,716.532,716.532,716.532,716.532,716.532,716.532,716.532,716.532,716.532,716.532,716.532,0.750047,36.55,109.367,36.55,287454020,287454020,Default
17196,716.532,716.532,716.532,716.532,716.532,716.532,716.532,716.532,716.532,716.532,716.532,716.532,0.750047,36.55,109.367,36.55,287454020,287454020,Default
17202,716.532,716.532,716.532,716.532,716.532,716.532,716.532,716.532,716.532,716.532,716.532,716.532,0.750047,36.55,109.367,36.55,287454020,287454020,Default
17208,716.532,716.532,716.532,716.532,716.532,716.532,716.532,716.532,716.532,716.532,716.532,716.532,0.750047,36.55,109.367,36.55,287454020,287454020,Default
17214,716.532,716.532,716.532,716.532,716.532,716.532,716.532,716.532,716.532,716.532,716.532,716.532,0.750047,36.55,109.367,36.55,287454020,287454020,Default
17220,716.532,716.532,716.532,716.532,716.532,716.532,716.532,716.532,716.532,716.532,716.532,716.532,0.750047,36.55,109.367,36.55,287454020,287454020,Default
17226,716.532,716.532,716.532,716.532,716.532,716.532,716.532,716.532,716.532,716.532,716.532,716.532,0.750047,36.55,109.367,36.55,287454020,287454020,Default
17232,716.532,716.532,716.532,716.532,716.532,716.532,716.532,716.532,716.532,716.532,716.532,716.532,0.750047,36.55,109.367,36.55,287454020,287454020,Default
17238,716.532,716.532,716.532,716.532,716.532,716.532,716.532,716.532,716.532,716.532,716.532,716.532,0.750047,36.55,109.367,36.55,287454020,287454020,Default
17244,716.532,716.532,716.532,716.532,716.532,716.532,716.532,716.532,716.532,716.532,716.532,716.532,0.750047,36.55,109.367,36.55,287454020,287454020,Default
17250,716.532,716.532,716.532,716.532,716.532,716.532,716.532,716.532,716.532,716.532,716.532,716.532,0.750047,36.55,109.367,36.55,287454020,287454020,Default
17256,716.532,716.532,716.532,716.532,716.532,716.532,716.532,716.532,716.532,716.532,716.532,716.532,0.750047,36.55,109.367,36.55,287454020,287454020,Default
17262,716.532,716.532,716.532,716.532,716.532,716.532,716.532,716.532,716.532,716.532,716.532,716.532,0.750047,36.55,109.367,36.55,287454020,287454020,Default
17268,716.532,716.532,716.532,716.532,716.532,716.532,716.532,716.532,716.532,716.532,716.532,716.532,0.750047,36.55,109.367,36.55,287454020,287454020,Default
17274,716.532,716.532,716.532,716.532,716.532,716.532,716.532,716.532,716.532,716.532,716.532,716.532,0.750047,36.55,109.367,36.55,287454020,287454020,Default
17280,716.532,716.532,716.532,716.532,716.532,716.532,716.532,716.532,716.532,716.532,716.532,716.532,0.750047,36.55,109.367,36.55,287454020,287454020,Default
17286,716.532,716.532,716.532,716.532,716.532,716.532,716.532,716.532,716.532,716.532,716.532,716.532,0.750047,36.55,109.367,36.55,287454020,287454020,Default
17292,716.532,716.532,716.532,716.532,716.532,716.532,716.532,716.532,716.532,716.532,716.532,716.532,0.750047,36.55,109.367,36.55,287454020,287454020,Default
17298,716.532,716.532,716.532,716.532,716.532,716.532,716.532,716.532,716.532,716.532,716.532,716.532,0.750047,36.55,109.367,36.55,287454020,287454020,Default
17304,716.532,716.532,716.532,716.532,716.532,716.532,716.532,716.532,716.532,716.532,716.532,716.532,0.750047,36.55,109.367,36.55,287454020,287454020,Default
17310,716.532,716.532,716.532,716.532,716.532,716.532,716.532,716.532,716.532,716.532,716.532,716.532,0.750047,36.55,109.367,36.55,287454020,287454020,Default
17316,716.532,716.532,716.532,716.532,716.532,716.532,716.532,716.532,716.532,716.532,716.532,716.532,0.750047,36.55,109.367,36.55,287454020,287454020,Default
17322,716.532,716.532,716.532,716.532,716.532,716.532,716.532,716.532,716.532,716.532,716.532,716.532,0.750047,36.55,109.367,36.55,287454020,287454020,Default
17328,716.532,716.532,716.532,716.532,716.532,716.532,716.532,716.532,716.532,716.532,716.532,716.532,0.750047,36.55,109.367,36.55,287454020,287454020,Default
17334,716.532,716.532,716.532,716.532,716.532,716.532,716.532,716.532,716.532,716.532,716.532,716.532,0.750047,36.55,109.367,36.55,287454020,287454020,Default
17340,716.532,716.532,716.532,716.532,716.532,716.532,716.532,716.532,716.532,716.532,716.532,716.532,0.750047,36.55,109.367,36.55,287454020,287454020,Default
17346,716.532,716.532,716.532,716.532,716.532,716.532,716.532,716.532,716.532,716.532,716.532,716.532,0.750047,36.55,109.367,36.55,287454020,287454020,Default
17352,716.532,716.532,716.532,716.532,716.532,716.532,716.532,716.532,716.532,716.532,716.532,716.532,0.750047,36.55,109.367,36.55,287454020,287454020,Default
17358,716.532,716.532,716.532,716.532,716.532,716.532,716.532,716.532,716.532,716.532,716.532,716.532,0.750047,36.55,109.367,36.55,287454020,287454020,Default
17364,716.532,716.532,716.532,716.532,716.532,716.532,716.532,716.532,716.532,716.532,716.532,716.532,0.750047,36.55,109.367,36.55,287454020,287454020,Default
17370,716.532,716.532,716.532,716.532,716.532,716.532,716.532,716.532,716.532,716.532,716.532,716.532,0.750047,36.55,109.367,36.55,287454020,287454020,Default
17376,716.532,716.532,716.532,716.532,716.532,716.532,716.532,716.532,716.532,716.532,716.532,716.532,0.750047,36.55,109.367,36.55,287454020,287454020,Default
17382,716.532,716.532,716.532,716.532,716.532,716.532,716.532,716.532,716.532,716.532,716.532,716.532,0.750047,36.55,109.367,36.55,287454020,287454020,Default
17388,716.532,716.532,716.532,716.532,716.532,716.532,716.532,716.532,716.532,716.532,716.532,716.532,0.750047,36.55,109.367,36.55,287454020,287454020,Default
17394,716.532,716.532,716.532,716.532,716.532,716.532,716.532,716.532,716.532,716.532,716.532,716.532,0.750047,36.55,109.367,36.55,287454020,287454020,Default
17400,716.532,716.532,716.532,716.532,716.532,716.532,716.532,716.532,716.532,716.532,716.532,716.532,0.750047,36.55,109.367,36.55,287454020,287454020,Default
17406,716.532,716.532,716.532,716.532,716.532,716.532,716.532,716.532,716.532,716.532,716.532,716.532,0.750047,36.55,109.367,36.55,287454020,287454020,Default
17412,716.532,716.532,716.532,716.532,716.532,716.532,716.532,716.532,716.532,716.532,716.532,716.532,0.750047,36.55,109.367,36.55,287454020,287454020,Default
17418,716.532,716.532,716.532,716.532,716.532,716.532,716.532,716.532,716.532,716.532,716.532,716.532,0.750047,36.55,109.367,36.55,287454020,287454020,Default
17424,716.532,716.532,716.532,716.532,716.532,716.532,716.532,716.532,716.532,716.532,716.532,716.532,0.750047,36.55,109.367,36.55,287454020,287454020,Default
17430,716.532,716.532,716.532,716.532,716.532,716.532,716.532,716.532,716.532,716.532,716.532,716.532,0.750047,36.55,109.367,36.55,287454020,287454020,Default
17436,716.532,716.532,716.532,716.532,716.532,716.532,716.532,716.532,716.532,716.532,716.532,716.532,0.750047,36.55,109.367,36.55,287454020,287454020,Default
17442,716.532,716.532,716.532,716.532,716.532,716.532,716.532,716.532,716.532,716.532,716.532,716.532,0.750047,36.55,109.367,36.55,287454020,287454020,Default
17448,716.532,716.532,716.532,716.532,716.532,716.532,716.532,716.532,716.532,716.532,716.532,716.532,0.750047,36.55,109.367,36.55,287454020,287454020,Default
17454,716.532,716.532,716.532,716.532,716.532,716.532,716.532,716.532,716.532,716.532,716.532,716.532,0.750047,36.55,109.367,36.55,287454020,287454020,Default
17460,716.532,716.532,716.532,716.532,716.532,716.532,716.532,716.532,716.532,716.532,716.532,716.532,0.750047,36.55,109.367,36.55,287454020,287454020,Default
17466,716.532,716.532,716.532,716.532,716.532,716.532,716.532,716.532,716.532,716.532,716.532,716.532,0.750047,36.55,109.367,36.55,287454020,287454020,Default
17472,716.532,716.532,716.532,716.532,716.532,716.532,716.532,716.532,716.532,716.532,716.532,716.532,0.750047,36.55,109.367,36.55,287454020,287454020,Default
17478,716.532,716.532,716.532,716.532,716.532,716.532,716.532,716.532,716.532,716.532,716.532,716.532,0.750047,36.55,109.367,36.55,287454020,287454020,Default
17484,716.532,716.532,716.532,716.532,716.532,716.532,716.532,716.532,716.532,716.532,716.532,716.532,0.750047,36.55,109.367,36.55,287454020,287454020,Default
17490,716.532,716.532,716.532,716.532,716.532,716.532,716.532,716.532,716.532,716.532,716.532,716.532,0.750047,36.55,109.367,36.55,287454020,287454020,Default
17496,716.532,716.532,716.532,716.532,716.532,716.532,716.532,716.532,716.532,716.532,716.532,716.532,0.750047,36.55,109.367,36.55,287454020,287454020,Default
17502,716.532,716.532,716.532,716.532,716.532,716.532,716.532,716.532,716.532,716.532,716.532,716.532,0.750047,36.55,109.367,36.55,287454020,287454020,Default
17508,716.532,716.532,716.532,716.532,716.532,716.532,716.532,716.532,716.532,716.532,716.532,716.532,0.750047,36.55,109.367,36.55,287454020,287454020,Default
17514,716.532,716.532,716.532,716.532,716.532,716.532,716.532,716.532,716.532,716.532,716.532,716.532,0.750047,36.55,109.367,36.55,287454020,287454020,Default
17520,716.532,716.532,716.532,716.532,716.532,716.532,716.532,716.532,716.532,716.532,716.532,716.532,0.750047,36.55,109.367,36.55,287454020,287454020,Default
17526,716.532,716.532,716.532,716.532,716.532,716.532,716.532,716.532,716.532,716.532,716.532,716.532,0.750047,36.55,109.367,36.55,287454020,287454020,Default
17532,716.532,716.532,716.532,716.532,716.532,716.532,716.532,716.532,716.532,716.532,716.532,716.532,0.750047,36.55,109.367,36.55,287454020,287454020,Default
17538,716.532,716.532,716.532,716.532,716.532,716.532,716.532,716.532,716.532,716.532,716.532,716.532,0.750047,36.55,109.367,36.55,287454020,287454020,Default
17544,716.532,716.532,716.532,716.532,716.532,716.532,716.532,716.532,716.532,716.532,716.532,716.532,0.750047,36.55,109.367,36.55,287454020,287454020,Default
17550,716.532,716.532,716.532,716.532,716.532,716.532,716.532,716.532,716.532,716.532,716.532,716.532,0.750047,36.55,109.367,36.55,287454020,287454020,Default
17556,716.532,716.532,716.532,716.532,716.532,716.532,716.532,716.532,716.532,716.532,716.532,716.532,0.750047,36.55,109.367,36.55,287454020,287454020,Default
17562,716.532,716.532,716.532,716.532,716.532,716.532,716.532,716.532,716.532,716.532,716.532,716.532,0.750047,36.55,109.367,36.55,287454020,287454020,Default
17568,716.532,716.532,716.532,716.532,716.532,716.532,716.532,716.532,716.532,716.532,716.532,716.532,0.750047,36.55,109.367,36.55,287454020,287454020,Default
17574,716.532,716.532,716.532,716.532,716.532,716.532,716.532,716.532,716.532,716.532,716.532,716.532,0.750047,36.55,109.367,36.55,287454020,287454020,Default
17580,716.532,716.532,716.532,716.532,716.532,716.532,716.532,716.532,716.532,716.532,716.532,716.532,0.750047,36.55,109.367,36.55,287454020,287454020,Default
17586,716.532,716.532,716.532,716.532,716.532,716.532,716.532,716.532,716.532,716.532,716.532,716.532,0.750047,36.55,109.367,36.55,287454020,287454020,Default
17592,716.532,716.532,716.532,716.532,716.532,716.532,716.532,716.532,716.532,716.532,716.532,716.532,0.750047,36.55,109.367,36.55,287454020,287454020,Default
17598,716.532,716.532,716.532,716.532,716.532,716.532,716.532,716.532,716.532,716.532,716.532,716.532,0.750047,36.55,109.367,36.55,287454020,287454020,Default
17604,716.532,716.532,716.532,716.532,716.532,716.532,716.532,716.532,716.532,716.532,716.532,716.532,0.750047,36.55,109.367,36.55,287454020,287454020,Default
17610,716.532,716.532,716.532,716.532,716.532,716.532,716.532,716.532,716.532,716.532,716.532,716.532,0.750047,36.55,109.367,36.55,287454020,287454020,Default
17616,716.532,716.532,716.532,716.532,716.532,716.532,716.532,716.532,716.532,716.532,716.532,716.532,0.750047,36.55,109.367,36.55,287454020,287454020,Default
17622,716.532,716.532,716.532,716.532,716.532,716.532,716.532,716.532,716.532,716.532,716.532,716.532,0.750047,36.55,109.367,36.55,287454020,287454020,Default
17628,716.532,716.532,716.532,716.532,716.532,716.532,716.532,716.532,716.532,716.532,716.532,716.532,0.750047,36.55,109.367,36.55,287454020,287454020,Default
17634,716.532,716.532,716.532,716.532,716.532,716.532,716.532,716.532,716.532,716.532,716.532,716.532,0.750047,36.55,109.367,36.55,287454020,287454020,Default
17640,716.532,716.532,716.532,716.532,716.532,716.532,716.532,716.532,716.532,716.532,716.532,716.532,0.750047,36.55,109.367,36.55,287454020,287454020,Default
17646,716.532,716.532,716.532,716.532,716.532,716.532,716.532,716.532,716.532,716.532,716.532,716.532,0.750047,36.55,109.367,36.55,287454020,287454020,Default
17652,716.532,716.532,716.532,716.532,716.532,716.532,716.532,716.532,716.532,716.532,716.532,716.532,0.750047,36.55,109.367,36.55,287454020,287454020,Default
17658,716.532,716.532,716.532,716.532,716.532,716.532,716.532,716.532,716.532,716.532,716.532,716.532,0.750047,36.55,109.367,36.55,287454020,287454020,Default
17664,716.532,716.532,716.532,716.532,716.532,716.532,716.532,716.532,716.532,716.532,716.532,716.532,0.750047,36.55,109.367,36.55,287454020,287454020,Default
17670,716.532,716.532,716.532,716.532,716.532,716.532,716.532,716.532,716.532,716.532,716.532,716.532,0.750047,36.55,109.367,36.55,287454020,287454020,Default
17676,716.532,716.532,716.532,716.532,716.532,716.532,716.532,716.532,716.532,716.532,716.532,716.532,0.750047,36.55,109.367,36.55,287454020,287454020,Default
17682,716.532,716.532,716.532,716.532,716.532,716.532,716.532,716.532,716.532,716.532,716.532,716.532,0.750047,36.55,109.367,36.55,287454020,287454020,Default
17688,716.532,716.532,716.532,716.532,716.532,716.532,716.532,716.532,716.532,716.532,716.532,716.532,0.750047,36.55,109.367,36.55,287454020,287454020,Default
17694,716.532,716.532,716.532,716.532,716.532,716.532,716.532,716.532,716.532,716.532,716.532,716.532,0.750047,36.55,109.367,36.55,287454020,287454020,Default
17700,716.532,716.532,716.532,716.532,716.532,716.532,716.532,716.532,716.532,716.532,716.532,716.532,0.750047,36.55,109.367,36.55,287454020,287454020,Default
17706,716.532,716.532,716.532,716.532,716.532,716.532,716.532,716.532,716.532,716.532,716.532,716.532,0.750047,36.55,109.367,36.55,287454020,287454020,Default
17712,716.532,716.532,716.532,716.532,716.532,716.532,716.532,716.532,716.532,716.532,716.532,716.532,0.750047,36.55,109.367,36.55,287454020,287454020,Default
17718,716.532,716.532,716.532,716.532,716.532,716.532,716.532,716.532,716.532,716.532,716.532,716.532,0.750047,36.55,109.367,36.55,287454020,287454020,Default
17724,716.532,716.532,716.532,716.532,716.532,716.532,716.532,716.532,716.532,716.532,716.532,716.532,0.750047,36.55,109.367,36.55,287454020,287454020,Default
17730,716.532,716.532,716.532,716.532,716.532,716.532,716.532,716.532,716.532,716.532,716.532,716.532,0.750047,36.55,109.367,36.55,287454020,287454020,Default
17736,716.532,716.532,716.532,716.532,716.532,716.532,716.532,716.532,716.532,716.532,716.532,716.532,0.750047,36.55,109.367,36.55,287454020,287454020,Default
17742,716.532,716.532,716.532,716.532,716.532,716.532,716.532,716.532,716.532,716.532,716.532,716.532,0.750047,36.55,109.367,36.55,287454020,287454020,Default
17748,716.532,716.532,716.532,716.532,716.532,716.532,716.532,716.532,716.532,716.532,716.532,716.532,0.750047,36.55,109.367,36.55,287454020,287454020,Default
17754,716.532,716.532,716.532,716.532,716.532,716.532,716.532,716.532,716.532,716.532,716.532,716.532,0.750047,36.55,109.367,36.55,287454020,287454020,Default
17760,716.532,716.532,716.532,716.532,716.532,716.532,716.532,716.532,716.532,716.532,716.532,716.532,0.750047,36.55,109.367,36.55,287454020,287454020,Default
17766,716.532,716.532,716.532,716.532,716.532,716.532,716.532,716.532,716.532,716.532,716.532,716.532,0.750047,36.55,109.367,36.55,287454020,287454020,Default
17772,716.532,716.532,716.532,716.532,716.532,716.532,716.532,716.532,716.532,716.532,716.532,716.532,0.750047,36.55,109.367,36.55,287454020,287454020,Default
17778,716.532,716.532,716.532,716.532,716.532,716.532,716.532,716.532,716.532,716.532,716.532,716.532,0.750047,36.55,109.367,36.55,287454020,287454020,Default
17784,716.532,716.532,716.532,716.532,716.532,716.532,716.532,716.532,716.532,716.532,716.532,716.532,0.750047,36.55,109.367,36.55,287454020,287454020,Default
17790,716.532,716.532,716.532,716.532,716.532,716.532,716.532,716.532,716.532,716.532,716.532,716.532,0.750047,36.55,109.367,36.55,287454020,287454020,Default
17796,716.532,716.532,716.532,716.532,716.532,716.532,716.532,716.532,716.532,716.532,716.532,716.532,0.750047,36.55,109.367,36.55,287454020,287454020,Default
17802,716.532,716.532,716.532,716.532,716.532,716.532,716.532,716.532,716.532,716.532,716.532,716.532,0.750047,36.55,109.367,36.55,287454020,287454020,Default
17808,716.532,716.532,716.532,716.532,716.532,716.532,716.532,716.532,716.532,716.532,716.532,716.532,0.750047,36.55,109.367,36.55,287454020,287454020,Default
17814,716.532,716.532,716.532,716.532,716.532,716.532,716.532,716.532,716.532,716.532,716.532,716.532,0.750047,36.55,109.367,36.55,287454020,287454020,Default
17820,716.532,716.532,716.532,716.532,716.532,716.532,716.532,716.532,716.532,716.532,716.532,716.532,0.750047,36.55,109.367,36.55,287454020,287454020,Default
17826,716.532,716.532,716.532,716.532,716.532,716.532,716.532,716.532,716.532,716.532,716.532,716.532,0.750047,36.55,109.367,36.55,287454020,287454020,Default
17832,716.532,716.532,716.532,716.532,716.532,716.532,716.532,716.532,716.532,716.532,716.532,716.532,0.750047,36.55,109.367,36.55,287454020,287454020,Default
17838,716.532,716.532,716.532,716.532,716.532,716.532,716.532,716.532,716.532,716.532,716.532,716.532,0.750047,36.55,109.367,36.55,287454020,287454020,Default
17844,716.532,716.532,716.532,716.532,716.532,716.532,716.532,716.532,716.532,716.532,716.532,716.532,0.750047,36.55,109.367,36.55,287454020,287454020,Default
17850,716.532,716.532,716.532,716.532,716.532,716.532,716.532,716.532,716.532,716.532,716.532,716.532,0.750047,36.55,109.367,36.55,287454020,287454020,Default
17856,716.532,716.532,716.532,716.532,716.532,716.532,716.532,716.532,716.532,716.532,716.532,716.532,0.750047,36.55,109.367,36.55,287454020,287454020,Default
17862,716.532,716.532,716.532,716.532,716.532,716.532,716.532,716.532,716.532,716.532,716.532,716.532,0.750047,36.55,109.367,36.55,287454020,287454020,Default
17868,716.532,716.532,716.532,716.532,716.532,716.532,716.532,716.532,716.532,716.532,716.532,716.532,0.750047,36.55,109.367,36.55,287454020,287454020,Default
17874,716.532,716.532,716.532,716.532,716.532,716.532,716.532,716.532,716.532,716.532,716.532,716.532,0.750047,36.55,109.367,36.55,287454020,287454020,Default
17880,716.532,716.532,716.532,716.532,716.532,716.532,716.532,716.532,716.532,716.532,716.532,716.532,0.750047,36.55,109.367,36.55,287454020,287454020,Default
17886,716.532,716.532,716.532,716.532,716.532,716.532,716.532,716.532,716.532,716.532,716.532,716.532,0.750047,36.55,109.367,36.55,287454020,287454020,Default
17892,716.532,716.532,716.532,716.532,716.532,716.532,716.532,716.532,716.532,716.532,716.532,716.532,0.750047,36.55,109.367,36.55,287454020,287454020,Default
17898,716.532,716.532,716.532,716.532,716.532,716.532,716.532,716.532,716.532,716.532,716.532,716.532,0.750047,36.55,109.367,36.55,287454020,287454020,Default
17904,716.532,716.532,716.532,716.532,716.532,716.532,716.532,716.532,716.532,716.532,716.532,716.532,0.750047,36.55,109.367,36.55,287454020,287454020,Default
17910,716.532,716.532,716.532,716.532,716.532,716.532,716.532,716.532,716.532,716.532,716.532,716.532,0.750047,36.55,109.367,36.55,287454020,287454020,Default
17916,716.532,716.532,716.532,716.532,716.532,716.532,716.532,716.532,716.532,716.532,716.532,716.532,0.750047,36.55,109.367,36.55,287454020,287454020,Default
17922,716.532,716.532,716.532,716.532,716.532,716.532,716.532,716.532,716.532,716.532,716.532,716.532,0.750047,36.55,109.367,36.55,287454020,287454020,Default
17928,716.532,716.532,716.532,716.532,716.532,716.532,716.532,716.532,716.532,716.532,716.532,716.532,0.750047,36.55,109.367,36.55,287454020,287454020,Default
17934,716.532,716.532,716.532,716.532,716.532,716.532,716.532,716.532,716.532,716.532,716.532,716.532,0.750047,36.55,109.367,36.55,287454020,287454020,Default
17940,716.532,716.532,716.532,716.532,716.532,716.532,716.532,716.532,716.532,716.532,716.532,716.532,0.750047,36.55,109.367,36.55,287454020,287454020,Default
17946,716.532,716.532,716.532,716.532,716.532,716.532,716.532,716.532,716.532,716.532,716.532,716.532,0.750047,36.55,109.367,36.55,287454020,287454020,Default
17952,716.532,716.532,716.532,716.532,716.532,716.532,716.532,716.532,716.532,716.532,716.532,716.532,0.750047,36.55,109.367,36.55,287454020,287454020,Default
17958,716.532,716.532,716.532,716.532,716.532,716.532,716.532,716.532,716.532,716.532,716.532,716.532,0.750047,36.55,109.367,36.55,287454020,287454020,Default
17964,716.532,716.532,716.532,716.532,716.532,716.532,716.532,716.532,716.532,716.532,716.532,716.532,0.750047,36.55,109.367,36.55,287454020,287454020,Default
17970,716.532,716.532,716.532,716.532,716.532,716.532,716.532,716.532,716.532,716.532,716.532,716.532,0.750047,36.55,109.367,36.55,287454020,287454020,Default
17976,716.532,716.532,716.532,716.532,716.532,716.532,716.532,716.532,716.532,716.532,716.532,716.532,0.750047,36.55,109.367,36.55,287454020,287454020,Default
17982,716.532,716.532,716.532,716.532,716.532,716.532,716.532,716.532,716.532,716.532,716.532,716.532,0.750047,36.55,109.367,36.55,287454020,287454020,Default
17988,716.532,716.532,716.532,716.532,716.532,716.532,716.532,716.532,716.532,716.532,716.532,716.532,0.750047,36.55,109.367,36.55,287454020,287454020,Default
17994,716.532,716.532,716.532,716.532,716.532,716.532,716.532,716.532,716.532,716.532,716.532,716.532,0.750047,36.55,109.367,36.55,287454020,287454020,Default
18000,716.532,716.532,716.532,716.532,716.532,716.532,716.532,716.532,716.532,716.532,716.532,716.532,0.750047,36.55,109.367,36.55,287454020,287454020,Default
18006,716.532,716.532,716.532,716.532,716.532,716.532,716.532,716.532,716.532,716.532,716.532,716.532,0.750047,36.55,109.367,36.55,287454020,287454020,Default
18012,716.532,716.532,716.532,716.532,716.532,716.532,716.532,716.532,716.532,716.532,716.532,716.532,0.750047,36.55,109.367,36.55,287454020,287454020,Default
18018,716.532,716.532,716.532,716.532,716.532,716.532,716.532,716.532,716.532,716.532,716.532,716.532,0.750047,36.55,109.367,36.55,287454020,287454020,Default
18024,716.532,716.532,716.532,716.532,716.532,716.532,716.532,716.532,716.532,716.532,716.532,716.532,0.750047,36.55,109.367,36.55,287454020,287454020,Default
18030,716.532,716.532,716.532,716.532,716.532,716.532,716.532,716.532,716.532,716.532,716.532,716.532,0.750047,36.55,109.367,36.55,287454020,287454020,Default
18036,716.532,716.532,716.532,716.532,716.532,716.532,716.532,716.532,716.532,716.532,716.532,716.532,0.750047,36.55,109.367,36.55,287454020,287454020,Default
18042,716.532,716.532,716.532,716.532,716.532,716.532,716.532,716.532,716.532,716.532,716.532,716.532,0.750047,36.55,109.367,36.55,287454020,287454020,Default
18048,716.532,716.532,716.532,716.532,716.532,716.532,716.532,716.532,716.532,716.532,716.532,716.532,0.750047,36.55,109.367,36.55,287454020,287454020,Default
18054,716.532,716.532,716.532,716.532,716.532,716.532,716.532,716.532,716.532,716.532,716.532,716.532,0.750047,36.55,109.367,36.55,287454020,287454020,Default
18060,716.532,716.532,716.532,716.532,716.532,716.532,716.532,716.532,716.532,716.532,716.532,716.532,0.750047,36.55,109.367,36.55,287454020,287454020,Default
18066,716.532,716.532,716.532,716.532,716.532,716.532,716.532,716.532,716.532,716.532,716.532,716.532,0.750047,36.55,109.367,36.55,287454020,287454020,Default
18072,716.532,716.532,716.532,716.532,716.532,716.532,716.532,716.532,716.532,716.532,716.532,716.532,0.750047,36.55,109.367,36.55,287454020,287454020,Default
18078,716.532,716.532,716.532,716.532,716.532,716.532,716.532,716.532,716.532,716.532,716.532,716.532,0.750047,36.55,109.367,36.55,287454020,287454020,Default
18084,716.532,716.532,716.532,716.532,716.532,716.532,716.532,716.532,716.532,716.532,716.532,716.532,0.750047,36.55,109.367,36.55,287454020,287454020,Default
18090,716.532,716.532,716.532,716.532,716.532,716.532,716.532,716.532,716.532,716.532,716.532,716.532,0.750047,36.55,109.367,36.55,287454020,287454020,Default
18096,716.532,716.532,716.532,716.532,716.532,716.532,716.532,716.532,716.532,716.532,716.532,716.532,0.750047,36.55,109.367,36.55,287454020,287454020,Default
18102,716.532,716.532,716.532,716.532,716.532,716.532,716.532,716.532,716.532,716.532,716.532,716.532,0.750047,36.55,109.367,36.55,287454020,287454020,Default
18108,716.532,716.532,716.532,716.532,716.532,716.532,716.532,716.532,716.532,716.532,716.532,716.532,0.750047,36.55,109.367,36.55,287454020,287454020,Default
18114,716.532,716.532,716.532,716.532,716.532,716.532,716.532,716.532,716.532,716.532,716.532,716.532,0.750047,36.55,109.367,36.55,287454020,287454020,Default
18120,716.532,716.532,716.532,716.532,716.532,716.532,716.532,716.532,716.532,716.532,716.532,716.532,0.750047,36.55,109.367,36.55,287454020,287454020,Default
18126,716.532,716.532,716.532,716.532,716.532,716.532,716.532,716.532,716.532,716.532,716.532,716.532,0.750047,36.55,109.367,36.55,287454020,287454020,Default
18132,716.532,716.532,716.532,716.532,716.532,716.532,716.532,716.532,716.532,716.532,716.532,716.532,0.750047,36.55,109.367,36.55,287454020,287454020,Default
18138,716.532,716.532,716.532,716.532,716.532,716.532,716.532,716.532,716.532,716.532,716.532,716.532,0.750047,36.55,109.367,36.55,287454020,287454020,Default
18144,716.532,716.532,716.532,716.532,716.532,716.532,716.532,716.532,716.532,716.532,716.532,716.532,0.750047,36.55,109.367,36.55,287454020,287454020,Default
18150,716.532,716.532,716.532,716.532,716.532,716.532,716.532,716.532,716.532,716.532,716.532,716.532,0.750047,36.55,109.367,36.55,287454020,287454020,Default
18156,716.532,716.532,716.532,716.532,716.532,716.532,716.532,716.532,716.532,716.532,716.532,716.532,0.750047,36.55,109.367,36.55,287454020,287454020,Default
18162,716.532,716.532,716.532,716.532,716.532,716.532,716.532,716.532,716.532,716.532,716.532,716.532,0.750047,36.55,109.367,36.55,287454020,287454020,Default
18168,716.532,716.532,716.532,716.532,716.532,716.532,716.532,716.532,716.532,716.532,716.532,716.532,0.750047,36.55,109.367,36.55,287454020,287454020,Default
18174,716.532,716.532,716.532,716.532,716.532,716.532,716.532,716.532,716.532,716.532,716.532,716.532,0.750047,36.55,109.367,36.55,287454020,287454020,Default
18180,716.532,716.532,716.532,716.532,716.532,716.532,716.532,716.532,716.532,716.532,716.532,716.532,0.750047,36.55,109.367,36.55,287454020,287454020,Default
18186,716.532,716.532,716.532,716.532,716.532,716.532,716.532,716.532,716.532,716.532,716.532,716.532,0.750047,36.55,109.367,36.55,287454020,287454020,Default
18192,716.532,716.532,716.532,716.532,716.532,716.532,716.532,716.532,716.532,716.532,716.532,716.532,0.750047,36.55,109.367,36.55,287454020,287454020,Default
18198,716.532,716.532,716.532,716.532,716.532,716.532,716.532,716.532,716.532,716.532,716.532,716.532,0.750047,36.55,109.367,36.55,287454020,287454020,Default
18204,716.532,716.532,716.532,716.532,716.532,716.532,716.532,716.532,716.532,716.532,716.532,716.532,0.750047,36.55,109.367,36.55,287454020,287454020,Default
18210,716.532,716.532,716.532,716.532,716.532,716.532,716.532,716.532,716.532,716.532,716.532,716.532,0.750047,36.55,109.367,36.55,287454020,287454020,Default
18216,716.532,716.532,716.532,716.532,716.532,716.532,716.532,716.532,716.532,716.532,716.532,716.532,0.750047,36.55,109.367,36.55,287454020,287454020,Default
18222,716.532,716.532,716.532,716.532,716.532,716.532,716.532,716.532,716.532,716.532,716.532,716.532,0.750047,36.55,109.367,36.55,287454020,287454020,Default
18228,716.532,716.532,716.532,716.532,716.532,716.532,716.532,716.532,716.532,716.532,716.532,716.532,0.750047,36.55,109.367,36.55,287454020,287454020,Default
18234,716.532,716.532,716.532,716.532,716.532,716.532,716.532,716.532,716.532,716.532,716.532,716.532,0.750047,36.55,109.367,36.55,287454020,287454020,Default
18240,716.532,716.532,716.532,716.532,716.532,716.532,716.532,716.532,716.532,716.532,716.532,716.532,0.750047,36.55,109.367,36.55,287454020,287454020,Default
18246,716.532,716.532,716.532,716.532,716.532,716.532,716.532,716.532,716.532,716.532,716.532,716.532,0.750047,36.55,109.367,36.55,287454020,287454020,Default
18252,716.532,716.532,716.532,716.532,716.532,716.532,716.532,716.532,716.532,716.532,716.532,716.532,0.750047,36.55,109.367,36.55,287454020,287454020,Default
18258,716.532,716.532,716.532,716.532,716.532,716.532,716.532,716.532,716.532,716.532,716.532,716.532,0.750047,36.55,109.367,36.55,287454020,287454020,Default
18264,716.532,716.532,716.532,716.532,716.532,716.532,716.532,716.532,716.532,716.532,716.532,716.532,0.750047,36.55,109.367,36.55,287454020,287454020,Default
18270,716.532,716.532,716.532,716.532,716.532,716.532,716.532,716.532,716.532,716.532,716.532,716.532,0.750047,36.55,109.367,36.55,287454020,287454020,Default
18276,716.532,716.532,716.532,716.532,716.532,716.532,716.532,716.532,716.532,716.532,716.532,716.532,0.750047,36.55,109.367,36.55,287454020,287454020,Default
18282,716.532,716.532,716.532,716.532,716.532,716.532,716.532,716.532,716.532,716.532,716.532,716.532,0.750047,36.55,109.367,36.55,287454020,287454020,Default
18288,716.532,716.532,716.532,716.532,716.532,716.532,716.532,716.532,716.532,716.532,716.532,716.532,0.750047,36.55,109.367,36.55,287454020,287454020,Default
18294,716.532,716.532,716.532,716.532,716.532,716.532,716.532,716.532,716.532,716.532,716.532,716.532,0.750047,36.55,109.367,36.55,287454020,287454020,Default
18300,716.532,716.532,716.532,716.532,716.532,716.532,716.532,716.532,716.532,716.532,716.532,716.532,0.750047,36.55,109.367,36.55,287454020,287454020,Default
18306,716.532,716.532,716.532,716.532,716.532,716.532,716.532,716.532,716.532,716.532,716.532,716.532,0.750047,36.55,109.367,36.55,287454020,287454020,Default
18312,716.532,716.532,716.532,716.532,716.532,716.532,716.532,716.532,716.532,716.532,716.532,716.532,0.750047,36.55,109.367,36.55,287454020,287454020,Default
18318,716.532,716.532,716.532,716.532,716.532,716.532,716.532,716.532,716.532,716.532,716.532,716.532,0.750047,36.55,109.367,36.55,287454020,287454020,Default
18324,716.532,716.532,716.532,716.532,716.532,716.532,716.532,716.532,716.532,716.532,716.532,716.532,0.750047,36.55,109.367,36.55,287454020,287454020,Default
18330,716.532,716.532,716.532,716.532,716.532,716.532,716.532,716.532,716.532,716.532,716.532,716.532,0.750047,36.55,109.367,36.55,287454020,287454020,Default
18336,716.532,716.532,716.532,716.532,716.532,716.532,716.532,716.532,716.532,716.532,716.532,716.532,0.750047,36.55,109.367,36.55,287454020,287454020,Default
18342,716.532,716.532,716.532,716.532,716.532,716.532,716.532,716.532,716.532,716.532,716.532,716.532,0.750047,36.55,109.367,36.55,287454020,287454020,Default
18348,716.532,716.532,716.532,716.532,716.532,716.532,716.532,716.532,716.532,716.532,716.532,716.532,0.750047,36.55,109.367,36.55,287454020,287454020,Default
18354,716.532,716.532,716.532,716.532,716.532,716.532,716.532,716.532,716.532,716.532,716.532,716.532,0.750047,36.55,109.367,36.55,287454020,287454020,Default
18360,716.532,716.532,716.532,716.532,716.532,716.532,716.532,716.532,716.532,716.532,716.532,716.532,0.750047,36.55,109.367,36.55,287454020,287454020,Default
18366,716.532,716.532,716.532,716.532,716.532,716.532,716.532,716.532,716.532,716.532,716.532,716.532,0.750047,36.55,109.367,36.55,287454020,287454020,Default
18372,716.532,716.532,716.532,716.532,716.532,716.532,716.532,716.532,716.532,716.532,716.532,716.532,0.750047,36.55,109.367,36.55,287454020,287454020,Default
18378,716.532,716.532,716.532,716.532,716.532,716.532,716.532,716.532,716.532,716.532,716.532,716.532,0.750047,36.55,109.367,36.55,287454020,287454020,Default
18384,716.532,716.532,716.532,716.532,716.532,716.532,716.532,716.532,716.532,716.532,716.532,716.532,0.750047,36.55,109.367,36.55,287454020,287454020,Default
18390,716.532,716.532,716.532,716.532,716.532,716.532,716.532,716.532,716.532,716.532,716.532,716.532,0.750047,36.55,109.367,36.55,287454020,287454020,Default
18396,716.532,716.532,716.532,716.532,716.532,716.532,716.532,716.532,716.532,716.532,716.532,716.532,0.750047,36.55,109.367,36.55,287454020,287454020,Default
18402,716.532,716.532,716.532,716.532,716.532,716.532,716.532,716.532,716.532,716.532,716.532,716.532,0.750047,36.55,109.367,36.55,287454020,287454020,Default
18408,716.532,716.532,716.532,716.532,716.532,716.532,716.532,716.532,716.532,716.532,716.532,716.532,0.750047,36.55,109.367,36.55,287454020,287454020,Default
18414,716.532,716.532,716.532,716.532,716.532,716.532,716.532,716.532,716.532,716.532,716.532,716.532,0.750047,36.55,109.367,36.55,287454020,287454020,Default
18420,716.532,716.532,716.532,716.532,716.532,716.532,716.532,716.532,716.532,716.532,716.532,716.532,0.750047,36.55,109.367,36.55,287454020,287454020,Default
18426,716.532,716.532,716.532,716.532,716.532,716.532,716.532,716.532,716.532,716.532,716.532,716.532,0.750047,36.55,109.367,36.55,287454020,287454020,Default
18432,716.532,716.532,716.532,716.532,716.532,716.532,716.532,716.532,716.532,716.532,716.532,716.532,0.750047,36.55,109.367,36.55,287454020,287454020,Default
18438,716.532,716.532,716.532,716.532,716.532,716.532,716.532,716.532,716.532,716.532,716.532,716.532,0.750047,36.55,109.367,36.55,287454020,287454020,Default
18444,716.532,716.532,716.532,716.532,716.532,716.532,716.532,716.532,716.532,716.532,716.532,716.532,0.750047,36.55,109.367,36.55,287454020,287454020,Default
18450,716.532,716.532,716.532,716.532,716.532,716.532,716.532,716.532,716.532,716.532,716.532,716.532,0.750047,36.55,109.367,36.55,287454020,287454020,Default
18456,716.532,716.532,716.532,716.532,716.532,716.532,716.532,716.532,716.532,716.532,716.532,716.532,0.750047,36.55,109.367,36.55,287454020,287454020,Default
18462,716.532,716.532,716.532,716.532,716.532,716.532,716.532,716.532,716.532,716.532,716.532,716.532,0.750047,36.55,109.367,36.55,287454020,287454020,Default
18468,716.532,716.532,716.532,716.532,716.532,716.532,716.532,716.532,716.532,716.532,716.532,716.532,0.750047,36.55,109.367,36.55,287454020,287454020,Default
18474,716.532,716.532,716.532,716.532,716.532,716.532,716.532,716.532,716.532,716.532,716.532,716.532,0.750047,36.55,109.367,36.55,287454020,287454020,Default
18480,716.532,716.532,716.532,716.532,716.532,716.532,716.532,716.532,716.532,716.532,716.532,716.532,0.750047,36.55,109.367,36.55,287454020,287454020,Default
18486,716.532,716.532,716.532,716.532,716.532,716.532,716.532,716.532,716.532,716.532,716.532,716.532,0.750047,36.55,109.367,36.55,287454020,287454020,Default
18492,716.532,716.532,716.532,716.532,716.532,716.532,716.532,716.532,716.532,716.532,716.532,716.532,0.750047,36.55,109.367,36.55,287454020,287454020,Default
18498,716.532,716.532,716.532,716.532,716.532,716.532,716.532,716.532,716.532,716.532,716.532,716.532,0.750047,36.55,109.367,36.55,287454020,287454020,Default
18504,716.532,716.532,716.532,716.532,716.532,716.532,716.532,716.532,716.532,716.532,716.532,716.532,0.750047,36.55,109.367,36.55,287454020,287454020,Default
18510,716.532,716.532,716.532,716.532,716.532,716.532,716.532,716.532,716.532,716.532,716.532,716.532,0.750047,36.55,109.367,36.55,287454020,287454020,Default
18516,716.532,716.532,716.532,716.532,716.532,716.532,716.532,716.532,716.532,716.532,716.532,716.532,0.750047,36.55,109.367,36.55,287454020,287454020,Default
18522,716.532,716.532,716.532,716.532,716.532,716.532,716.532,716.532,716.532,716.532,716.532,716.532,0.750047,36.55,109.367,36.55,287454020,287454020,Default
18528,716.532,716.532,716.532,716.532,716.532,716.532,716.532,716.532,716.532,716.532,716.532,716.532,0.750047,36.55,109.367,36.55,287454020,287454020,Default
18534,716.532,716.532,716.532,716.532,716.532,716.532,716.532,716.532,716.532,716.532,716.532,716.532,0.750047,36.55,109.367,36.55,287454020,287454020,Default
18540,716.532,716.532,716.532,716.532,716.532,716.532,716.532,716.532,716.532,716.532,716.532,716.532,0.750047,36.55,109.367,36.55,287454020,287454020,Default
18546,716.532,716.532,716.532,716.532,716.532,716.532,716.532,716.532,716.532,716.532,716.532,716.532,0.750047,36.55,109.367,36.55,287454020,287454020,Default
18552,716.532,716.532,716.532,716.532,716.532,716.532,716.532,716.532,716.532,716.532,716.532,716.532,0.750047,36.55,109.367,36.55,287454020,287454020,Default
18558,716.532,716.532,716.532,716.532,716.532,716.532,716.532,716.532,716.532,716.532,716.532,716.532,0.750047,36.55,109.367,36.55,287454020,287454020,Default
18564,716.532,716.532,716.532,716.532,716.532,716.532,716.532,716.532,716.532,716.532,716.532,716.532,0.750047,36.55,109.367,36.55,287454020,287454020,Default
18570,716.532,716.532,716.532,716.532,716.532,716.532,716.532,716.532,716.532,716.532,716.532,716.532,0.750047,36.55,109.367,36.55,287454020,287454020,Default
18576,716.532,716.532,716.532,716.532,716.532,716.532,716.532,716.532,716.532,716.532,716.532,716.532,0.750047,36.55,109.367,36.55,287454020,287454020,Default
18582,716.532,716.532,716.532,716.532,716.532,716.532,716.532,716.532,716.532,716.532,716.532,716.532,0.750047,36.55,109.367,36.55,287454020,287454020,Default
18588,716.532,716.532,716.532,716.532,716.532,716.532,716.532,716.532,716.532,716.532,716.532,716.532,0.750047,36.55,109.367,36.55,287454020,287454020,Default
18594,716.532,716.532,716.532,716.532,716.532,716.532,716.532,716.532,716.532,716.532,716.532,716.532,0.750047,36.55,109.367,36.55,287454020,287454020,Default
18600,716.532,716.532,716.532,716.532,716.532,716.532,716.532,716.532,716.532,716.532,716.532,716.532,0.750047,36.55,109.367,36.55,287454020,287454020,Default
18606,716.532,716.532,716.532,716.532,716.532,716.532,716.532,716.532,716.532,716.532,716.532,716.532,0.750047,36.55,109.367,36.55,287454020,287454020,Default
18612,716.532,716.532,716.532,716.532,716.532,716.532,716.532,716.532,716.532,716.532,716.532,716.532,0.750047,36.55,109.367,36.55,287454020,287454020,Default
18618,716.532,716.532,716.532,716.532,716.532,716.532,716.532,716.532,716.532,716.532,716.532,716.532,0.750047,36.55,109.367,36.55,287454020,287454020,Default
18624,716.532,716.532,716.532,716.532,716.532,716.532,716.532,716.532,716.532,716.532,716.532,716.532,0.750047,36.55,109.367,36.55,287454020,287454020,Default
18630,716.532,716.532,716.532,716.532,716.532,716.532,716.532,716.532,716.532,716.532,716.532,716.532,0.750047,36.55,109.367,36.55,287454020,287454020,Default
18636,716.532,716.532,716.532,716.532,716.532,716.532,716.532,716.532,716.532,716.532,716.532,716.532,0.750047,36.55,109.367,36.55,287454020,287454020,Default
18642,716.532,716.532,716.532,716.532,716.532,716.532,716.532,716.532,716.532,716.532,716.532,716.532,0.750047,36.55,109.367,36.55,287454020,287454020,Default
18648,716.532,716.532,716.532,716.532,716.532,716.532,716.532,716.532,716.532,716.532,716.532,716.532,0.750047,36.55,109.367,36.55,287454020,287454020,Default
18654,716.532,716.532,716.532,716.532,716.532,716.532,716.532,716.532,716.532,716.532,716.532,716.532,0.750047,36.55,109.367,36.55,287454020,287454020,Default
18660,716.532,716.532,716.532,716.532,716.532,716.532,716.532,716.532,716.532,716.532,716.532,716.532,0.750047,36.55,109.367,36.55,287454020,287454020,Default
18666,716.532,716.532,716.532,716.532,716.532,716.532,716.532,716.532,716.532,716.532,716.532,716.532,0.750047,36.55,109.367,36.55,287454020,287454020,Default
18672,716.532,716.532,716.532,716.532,716.532,716.532,716.532,716.532,716.532,716.532,716.532,716.532,0.750047,36.55,109.367,36.55,287454020,287454020,Default
18678,716.532,716.532,716.532,716.532,716.532,716.532,716.532,716.532,716.532,716.532,716.532,716.532,0.750047,36.55,109.367,36.55,287454020,287454020,Default
18684,716.532,716.532,716.532,716.532,716.532,716.532,716.532,716.532,716.532,716.532,716.532,716.532,0.750047,36.55,109.367,36.55,287454020,287454020,Default
18690,716.532,716.532,716.532,716.532,716.532,716.532,716.532,716.532,716.532,716.532,716.532,716.532,0.750047,36.55,109.367,36.55,287454020,287454020,Default
18696,716.532,716.532,716.532,716.532,716.532,716.532,716.532,716.532,716.532,716.532,716.532,716.532,0.750047,36.55,109.367,36.55,287454020,287454020,Default
18702,716.532,716.532,716.532,716.532,716.532,716.532,716.532,716.532,716.532,716.532,716.532,716.532,0.750047,36.55,109.367,36.55,287454020,287454020,Default
18708,716.532,716.532,716.532,716.532,716.532,716.532,716.532,716.532,716.532,716.532,716.532,716.532,0.750047,36.55,109.367,36.55,287454020,287454020,Default
18714,716.532,716.532,716.532,716.532,716.532,716.532,716.532,716.532,716.532,716.532,716.532,716.532,0.750047,36.55,109.367,36.55,287454020,287454020,Default
18720,716.532,716.532,716.532,716.532,716.532,716.532,716.532,716.532,716.532,716.532,716.532,716.532,0.750047,36.55,109.367,36.55,287454020,287454020,Default
18726,716.532,716.532,716.532,716.532,716.532,716.532,716.532,716.532,716.532,716.532,716.532,716.532,0.750047,36.55,109.367,36.55,287454020,287454020,Default
18732,716.532,716.532,716.532,716.532,716.532,716.532,716.532,716.532,716.532,716.532,716.532,716.532,0.750047,36.55,109.367,36.55,287454020,287454020,Default
18738,716.532,716.532,716.532,716.532,716.532,716.532,716.532,716.532,716.532,716.532,716.532,716.532,0.750047,36.55,109.367,36.55,287454020,287454020,Default
18744,716.532,716.532,716.532,716.532,716.532,716.532,716.532,716.532,716.532,716.532,716.532,716.532,0.750047,36.55,109.367,36.55,287454020,287454020,Default
18750,716.532,716.532,716.532,716.532,716.532,716.532,716.532,716.532,716.532,716.532,716.532,716.532,0.750047,36.55,109.367,36.55,287454020,287454020,Default
18756,716.532,716.532,716.532,716.532,716.532,716.532,716.532,716.532,716.532,716.532,716.532,716.532,0.750047,36.55,109.367,36.55,287454020,287454020,Default
18762,716.532,716.532,716.532,716.532,716.532,716.532,716.532,716.532,716.532,716.532,716.532,716.532,0.750047,36.55,109.367,36.55,287454020,287454020,Default
18768,716.532,716.532,716.532,716.532,716.532,716.532,716.532,716.532,716.532,716.532,716.532,716.532,0.750047,36.55,109.367,36.55,287454020,287454020,Default
18774,716.532,716.532,716.532,716.532,716.532,716.532,716.532,716.532,716.532,716.532,716.532,716.532,0.750047,36.55,109.367,36.55,287454020,287454020,Default
18780,716.532,716.532,716.532,716.532,716.532,716.532,716.532,716.532,716.532,716.532,716.532,716.532,0.750047,36.55,109.367,36.55,287454020,287454020,Default
18786,716.532,716.532,716.532,716.532,716.532,716.532,716.532,716.532,716.532,716.532,716.532,716.532,0.750047,36.55,109.367,36.55,287454020,287454020,Default
18792,716.532,716.532,716.532,716.532,716.532,716.532,716.532,716.532,716.532,716.532,716.532,716.532,0.750047,36.55,109.367,36.55,287454020,287454020,Default
18798,716.532,716.532,716.532,716.532,716.532,716.532,716.532,716.532,716.532,716.532,716.532,716.532,0.750047,36.55,109.367,36.55,287454020,287454020,Default
18804,716.532,716.532,716.532,716.532,716.532,716.532,716.532,716.532,716.532,716.532,716.532,716.532,0.750047,36.55,109.367,36.55,287454020,287454020,Default
18810,716.532,716.532,716.532,716.532,716.532,716.532,716.532,716.532,716.532,716.532,716.532,716.532,0.750047,36.55,109.367,36.55,287454020,287454020,Default
18816,716.532,716.532,716.532,716.532,716.532,716.532,716.532,716.532,716.532,716.532,716.532,716.532,0.750047,36.55,109.367,36.55,287454020,287454020,Default
18822,716.532,716.532,716.532,716.532,716.532,716.532,716.532,716.532,716.532,716.532,716.532,716.532,0.750047,36.55,109.367,36.55,287454020,287454020,Default
18828,716.532,716.532,716.532,716.532,716.532,716.532,716.532,716.532,716.532,716.532,716.532,716.532,0.750047,36.55,109.367,36.55,287454020,287454020,Default
18834,716.532,716.532,716.532,716.532,716.532,716.532,716.532,716.532,716.532,716.532,716.532,716.532,0.750047,36.55,109.367,36.55,287454020,287454020,Default
18840,716.532,716.532,716.532,716.532,716.532,716.532,716.532,716.532,716.532,716.532,716.532,716.532,0.750047,36.55,109.367,36.55,287454020,287454020,Default
18846,716.532,716.532,716.532,716.532,716.532,716.532,716.532,716.532,716.532,716.532,716.532,716.532,0.750047,36.55,109.367,36.55,287454020,287454020,Default
18852,716.532,716.532,716.532,716.532,716.532,716.532,716.532,716.532,716.532,716.532,716.532,716.532,0.750047,36.55,109.367,36.55,287454020,287454020,Default
18858,716.532,716.532,716.532,716.532,716.532,716.532,716.532,716.532,716.532,716.532,716.532,716.532,0.750047,36.55,109.367,36.55,287454020,287454020,Default
18864,716.532,716.532,716.532,716.532,716.532,716.532,716.532,716.532,716.532,716.532,716.532,716.532,0.750047,36.55,109.367,36.55,287454020,287454020,Default
18870,716.532,716.532,716.532,716.532,716.532,716.532,716.532,716.532,716.532,716.532,716.532,716.532,0.750047,36.55,109.367,36.55,287454020,287454020,Default
18876,716.532,716.532,716.532,716.532,716.532,716.532,716.532,716.532,716.532,716.532,716.532,716.532,0.750047,36.55,109.367,36.55,287454020,287454020,Default
18882,716.532,716.532,716.532,716.532,716.532,716.532,716.532,716.532,716.532,716.532,716.532,716.532,0.750047,36.55,109.367,36.55,287454020,287454020,Default
18888,716.532,716.532,716.532,716.532,716.532,716.532,716.532,716.532,716.532,716.532,716.532,716.532,0.750047,36.55,109.367,36.55,287454020,287454020,Default
18894,716.532,716.532,716.532,716.532,716.532,716.532,716.532,716.532,716.532,716.532,716.532,716.532,0.750047,36.55,109.367,36.55,287454020,287454020,Default
18900,716.532,716.532,716.532,716.532,716.532,716.532,716.532,716.532,716.532,716.532,716.532,716.532,0.750047,36.55,109.367,36.55,287454020,287454020,Default
18906,716.532,716.532,716.532,716.532,716.532,716.532,716.532,716.532,716.532,716.532,716.532,716.532,0.750047,36.55,109.367,36.55,287454020,287454020,Default
18912,716.532,716.532,716.532,716.532,716.532,716.532,716.532,716.532,716.532,716.532,716.532,716.532,0.750047,36.55,109.367,36.55,287454020,287454020,Default
18918,716.532,716.532,716.532,716.532,716.532,716.532,716.532,716.532,716.532,716.532,716.532,716.532,0.750047,36.55,109.367,36.55,287454020,287454020,Default
18924,716.532,716.532,716.532,716.532,716.532,716.532,716.532,716.532,716.532,716.532,716.532,716.532,0.750047,36.55,109.367,36.55,287454020,287454020,Default
18930,716.532,716.532,716.532,716.532,716.532,716.532,716.532,716.532,716.532,716.532,716.532,716.532,0.750047,36.55,109.367,36.55,287454020,287454020,Default
18936,716.532,716.532,716.532,716.532,716.532,716.532,716.532,716.532,716.532,716.532,716.532,716.532,0.750047,36.55,109.367,36.55,287454020,287454020,Default
18942,716.532,716.532,716.532,716.532,716.532,716.532,716.532,716.532,716.532,716.532,716.532,716.532,0.750047,36.55,109.367,36.55,287454020,287454020,Default
18948,716.532,716.532,716.532,716.532,716.532,716.532,716.532,716.532,716.532,716.532,716.532,716.532,0.750047,36.55,109.367,36.55,287454020,287454020,Default
18954,716.532,716.532,716.532,716.532,716.532,716.532,716.532,716.532,716.532,716.532,716.532,716.532,0.750047,36.55,109.367,36.55,287454020,287454020,Default
18960,716.532,716.532,716.532,716.532,716.532,716.532,716.532,716.532,716.532,716.532,716.532,716.532,0.750047,36.55,109.367,36.55,287454020,287454020,Default
18966,716.532,716.532,716.532,716.532,716.532,716.532,716.532,716.532,716.532,716.532,716.532,716.532,0.750047,36.55,109.367,36.55,287454020,287454020,Default
18972,716.532,716.532,716.532,716.532,716.532,716.532,716.532,716.532,716.532,716.532,716.532,716.532,0.750047,36.55,109.367,36.55,287454020,287454020,Default
18978,716.532,716.532,716.532,716.532,716.532,716.532,716.532,716.532,716.532,716.532,716.532,716.532,0.750047,36.55,109.367,36.55,287454020,287454020,Default
18984,716.532,716.532,716.532,716.532,716.532,716.532,716.532,716.532,716.532,716.532,716.532,716.532,0.750047,36.55,109.367,36.55,287454020,287454020,Default
18990,716.532,716.532,716.532,716.532,716.532,716.532,716.532,716.532,716.532,716.532,716.532,716.532,0.750047,36.55,109.367,36.55,287454020,287454020,Default
18996,716.532,716.532,716.532,716.532,716.532,716.532,716.532,716.532,716.532,716.532,716.532,716.532,0.750047,36.55,109.367,36.55,287454020,287454020,Default
19002,716.532,716.532,716.532,716.532,716.532,716.532,716.532,716.532,716.532,716.532,716.532,716.532,0.750047,36.55,109.367,36.55,287454020,287454020,Default
19008,716.532,716.532,716.532,716.532,716.532,716.532,716.532,716.532,716.532,716.532,716.532,716.532,0.750047,36.55,109.367,36.55,287454020,287454020,Default
19014,716.532,716.532,716.532,716.532,716.532,716.532,716.532,716.532,716.532,716.532,716.532,716.532,0.750047,36.55,109.367,36.55,287454020,287454020,Default
19020,716.532,716.532,716.532,716.532,716.532,716.532,716.532,716.532,716.532,716.532,716.532,716.532,0.750047,36.55,109.367,36.55,287454020,287454020,Default
19026,716.532,716.532,716.532,716.532,716.532,716.532,716.532,716.532,716.532,716.532,716.532,716.532,0.750047,36.55,109.367,36.55,287454020,287454020,Default
19032,716.532,716.532,716.532,716.532,716.532,716.532,716.532,716.532,716.532,716.532,716.532,716.532,0.750047,36.55,109.367,36.55,287454020,287454020,Default
19038,716.532,716.532,716.532,716.532,716.532,716.532,716.532,716.532,716.532,716.532,716.532,716.532,0.750047,36.55,109.367,36.55,287454020,287454020,Default
19044,716.532,716.532,716.532,716.532,716.532,716.532,716.532,716.532,716.532,716.532,716.532,716.532,0.750047,36.55,109.367,36.55,287454020,287454020,Default
19050,716.532,716.532,716.532,716.532,716.532,716.532,716.532,716.532,716.532,716.532,716.532,716.532,0.750047,36.55,109.367,36.55,287454020,287454020,Default
19056,716.532,716.532,716.532,716.532,716.532,716.532,716.532,716.532,716.532,716.532,716.532,716.532,0.750047,36.55,109.367,36.55,287454020,287454020,Default
19062,716.532,716.532,716.532,716.532,716.532,716.532,716.532,716.532,716.532,716.532,716.532,716.532,0.750047,36.55,109.367,36.55,287454020,287454020,Default
19068,716.532,716.532,716.532,716.532,716.532,716.532,716.532,716.532,716.532,716.532,716.532,716.532,0.750047,36.55,109.367,36.55,287454020,287454020,Default
19074,716.532,716.532,716.532,716.532,716.532,716.532,716.532,716.532,716.532,716.532,716.532,716.532,0.750047,36.55,109.367,36.55,287454020,287454020,Default
19080,716.532,716.532,716.532,716.532,716.532,716.532,716.532,716.532,716.532,716.532,716.532,716.532,0.750047,36.55,109.367,36.55,287454020,287454020,Default
19086,716.532,716.532,716.532,716.532,716.532,716.532,716.532,716.532,716.532,716.532,716.532,716.532,0.750047,36.55,109.367,36.55,287454020,287454020,Default
19092,716.532,716.532,716.532,716.532,716.532,716.532,716.532,716.532,716.532,716.532,716.532,716.532,0.750047,36.55,109.367,36.55,287454020,287454020,Default
19098,716.532,716.532,716.532,716.532,716.532,716.532,716.532,716.532,716.532,716.532,716.532,716.532,0.750047,36.55,109.367,36.55,287454020,287454020,Default
19104,716.532,716.532,716.532,716.532,716.532,716.532,716.532,716.532,716.532,716.532,716.532,716.532,0.750047,36.55,109.367,36.55,287454020,287454020,Default
19110,716.532,716.532,716.532,716.532,716.532,716.532,716.532,716.532,716.532,716.532,716.532,716.532,0.750047,36.55,109.367,36.55,287454020,287454020,Default
19116,716.532,716.532,716.532,716.532,716.532,716.532,716.532,716.532,716.532,716.532,716.532,716.532,0.750047,36.55,109.367,36.55,287454020,287454020,Default
19122,716.532,716.532,716.532,716.532,716.532,716.532,716.532,716.532,716.532,716.532,716.532,716.532,0.750047,36.55,109.367,36.55,287454020,287454020,Default
19128,716.532,716.532,716.532,716.532,716.532,716.532,716.532,716.532,716.532,716.532,716.532,716.532,0.750047,36.55,109.367,36.55,287454020,287454020,Default
19134,716.532,716.532,716.532,716.532,716.532,716.532,716.532,716.532,716.532,716.532,716.532,716.532,0.750047,36.55,109.367,36.55,287454020,287454020,Default
19140,716.532,716.532,716.532,716.532,716.532,716.532,716.532,716.532,716.532,716.532,716.532,716.532,0.750047,36.55,109.367,36.55,287454020,287454020,Default
19146,716.532,716.532,716.532,716.532,716.532,716.532,716.532,716.532,716.532,716.532,716.532,716.532,0.750047,36.55,109.367,36.55,287454020,287454020,Default
19152,716.532,716.532,716.532,716.532,716.532,716.532,716.532,716.532,716.532,716.532,716.532,716.532,0.750047,36.55,109.367,36.55,287454020,287454020,Default
19158,716.532,716.532,716.532,716.532,716.532,716.532,716.532,716.532,716.532,716.532,716.532,716.532,0.750047,36.55,109.367,36.55,287454020,287454020,Default
19164,716.532,716.532,716.532,716.532,716.532,716.532,716.532,716.532,716.532,716.532,716.532,716.532,0.750047,36.55,109.367,36.55,287454020,287454020,Default
19170,716.532,716.532,716.532,716.532,716.532,716.532,716.532,716.532,716.532,716.532,716.532,716.532,0.750047,36.55,109.367,36.55,287454020,287454020,Default
19176,716.532,716.532,716.532,716.532,716.532,716.532,716.532,716.532,716.532,716.532,716.532,716.532,0.750047,36.55,109.367,36.55,287454020,287454020,Default
19182,716.532,716.532,716.532,716.532,716.532,716.532,716.532,716.532,716.532,716.532,716.532,716.532,0.750047,36.55,109.367,36.55,287454020,287454020,Default
19188,716.532,716.532,716.532,716.532,716.532,716.532,716.532,716.532,716.532,716.532,716.532,716.532,0.750047,36.55,109.367,36.55,287454020,287454020,Default
19194,716.532,716.532,716.532,716.532,716.532,716.532,716.532,716.532,716.532,716.532,716.532,716.532,0.750047,36.55,109.367,36.55,287454020,287454020,Default
19200,716.532,716.532,716.532,716.532,716.532,716.532,716.532,716.532,716.532,716.532,716.532,716.532,0.750047,36.55,109.367,36.55,287454020,287454020,Default
19206,716.532,716.532,716.532,716.532,716.532,716.532,716.532,716.532,716.532,716.532,716.532,716.532,0.750047,36.55,109.367,36.55,287454020,287454020,Default
19212,716.532,716.532,716.532,716.532,716.532,716.532,716.532,716.532,716.532,716.532,716.532,716.532,0.750047,36.55,109.367,36.55,287454020,287454020,Default
19218,716.532,716.532,716.532,716.532,716.532,716.532,716.532,716.532,716.532,716.532,716.532,716.532,0.750047,36.55,109.367,36.55,287454020,287454020,Default
19224,716.532,716.532,716.532,716.532,716.532,716.532,716.532,716.532,716.532,716.532,716.532,716.532,0.750047,36.55,109.367,36.55,287454020,287454020,Default
19230,716.532,716.532,716.532,716.532,716.532,716.532,716.532,716.532,716.532,716.532,716.532,716.532,0.750047,36.55,109.367,36.55,287454020,287454020,Default
19236,716.532,716.532,716.532,716.532,716.532,716.532,716.532,716.532,716.532,716.532,716.532,716.532,0.750047,36.55,109.367,36.55,287454020,287454020,Default
19242,716.532,716.532,716.532,716.532,716.532,716.532,716.532,716.532,716.532,716.532,716.532,716.532,0.750047,36.55,109.367,36.55,287454020,287454020,Default
19248,716.532,716.532,716.532,716.532,716.532,716.532,716.532,716.532,716.532,716.532,716.532,716.532,0.750047,36.55,109.367,36.55,287454020,287454020,Default
19254,716.532,716.532,716.532,716.532,716.532,716.532,716.532,716.532,716.532,716.532,716.532,716.532,0.750047,36.55,109.367,36.55,287454020,287454020,Default
19260,716.532,716.532,716.532,716.532,716.532,716.532,716.532,716.532,716.532,716.532,716.532,716.532,0.750047,36.55,109.367,36.55,287454020,287454020,Default
19266,716.532,716.532,716.532,716.532,716.532,716.532,716.532,716.532,716.532,716.532,716.532,716.532,0.750047,36.55,109.367,36.55,287454020,287454020,Default
19272,716.532,716.532,716.532,716.532,716.532,716.532,716.532,716.532,716.532,716.532,716.532,716.532,0.750047,36.55,109.367,36.55,287454020,287454020,Default
19278,716.532,716.532,716.532,716.532,716.532,716.532,716.532,716.532,716.532,716.532,716.532,716.532,0.750047,36.55,109.367,36.55,287454020,287454020,Default
19284,716.532,716.532,716.532,716.532,716.532,716.532,716.532,716.532,716.532,716.532,716.532,716.532,0.750047,36.55,109.367,36.55,287454020,287454020,Default
19290,716.532,716.532,716.532,716.532,716.532,716.532,716.532,716.532,716.532,716.532,716.532,716.532,0.750047,36.55,109.367,36.55,287454020,287454020,Default
19296,716.532,716.532,716.532,716.532,716.532,716.532,716.532,716.532,716.532,716.532,716.532,716.532,0.750047,36.55,109.367,36.55,287454020,287454020,Default
19302,716.532,716.532,716.532,716.532,716.532,716.532,716.532,716.532,716.532,716.532,716.532,716.532,0.750047,36.55,109.367,36.55,287454020,287454020,Default
19308,716.532,716.532,716.532,716.532,716.532,716.532,716.532,716.532,716.532,716.532,716.532,716.532,0.750047,36.55,109.367,36.55,287454020,287454020,Default
19314,716.532,716.532,716.532,716.532,716.532,716.532,716.532,716.532,716.532,716.532,716.532,716.532,0.750047,36.55,109.367,36.55,287454020,287454020,Default
19320,716.532,716.532,716.532,716.532,716.532,716.532,716.532,716.532,716.532,716.532,716.532,716.532,0.750047,36.55,109.367,36.55,287454020,287454020,Default
19326,716.532,716.532,716.532,716.532,716.532,716.532,716.532,716.532,716.532,716.532,716.532,716.532,0.750047,36.55,109.367,36.55,287454020,287454020,Default
19332,716.532,716.532,716.532,716.532,716.532,716.532,716.532,716.532,716.532,716.532,716.532,716.532,0.750047,36.55,109.367,36.55,287454020,287454020,Default
19338,716.532,716.532,716.532,716.532,716.532,716.532,716.532,716.532,716.532,716.532,716.532,716.532,0.750047,36.55,109.367,36.55,287454020,287454020,Default
19344,716.532,716.532,716.532,716.532,716.532,716.532,716.532,716.532,716.532,716.532,716.532,716.532,0.750047,36.55,109.367,36.55,287454020,287454020,Default
19350,716.532,716.532,716.532,716.532,716.532,716.532,716.532,716.532,716.532,716.532,716.532,716.532,0.750047,36.55,109.367,36.55,287454020,287454020,Default
19356,716.532,716.532,716.532,716.532,716.532,716.532,716.532,716.532,716.532,716.532,716.532,716.532,0.750047,36.55,109.367,36.55,287454020,287454020,Default
19362,716.532,716.532,716.532,716.532,716.532,716.532,716.532,716.532,716.532,716.532,716.532,716.532,0.750047,36.55,109.367,36.55,287454020,287454020,Default
19368,716.532,716.532,716.532,716.532,716.532,716.532,716.532,716.532,716.532,716.532,716.532,716.532,0.750047,36.55,109.367,36.55,287454020,287454020,Default
19374,716.532,716.532,716.532,716.532,716.532,716.532,716.532,716.532,716.532,716.532,716.532,716.532,0.750047,36.55,109.367,36.55,287454020,287454020,Default
19380,716.532,716.532,716.532,716.532,716.532,716.532,716.532,716.532,716.532,716.532,716.532,716.532,0.750047,36.55,109.367,36.55,287454020,287454020,Default
19386,716.532,716.532,716.532,716.532,716.532,716.532,716.532,716.532,716.532,716.532,716.532,716.532,0.750047,36.55,109.367,36.55,287454020,287454020,Default
19392,716.532,716.532,716.532,716.532,716.532,716.532,716.532,716.532,716.532,716.532,716.532,716.532,0.750047,36.55,109.367,36.55,287454020,287454020,Default
19398,716.532,716.532,716.532,716.532,716.532,716.532,716.532,716.532,716.532,716.532,716.532,716.532,0.750047,36.55,109.367,36.55,287454020,287454020,Default
19404,716.532,716.532,716.532,716.532,716.532,716.532,716.532,716.532,716.532,716.532,716.532,716.532,0.750047,36.55,109.367,36.55,287454020,287454020,Default
19410,716.532,716.532,716.532,716.532,716.532,716.532,716.532,716.532,716.532,716.532,716.532,716.532,0.750047,36.55,109.367,36.55,287454020,287454020,Default
19416,716.532,716.532,716.532,716.532,716.532,716.532,716.532,716.532,716.532,716.532,716.532,716.532,0.750047,36.55,109.367,36.55,287454020,287454020,Default
19422,716.532,716.532,716.532,716.532,716.532,716.532,716.532,716.532,716.532,716.532,716.532,716.532,0.750047,36.55,109.367,36.55,287454020,287454020,Default
19428,716.532,716.532,716.532,716.532,716.532,716.532,716.532,716.532,716.532,716.532,716.532,716.532,0.750047,36.55,109.367,36.55,287454020,287454020,Default
19434,716.532,716.532,716.532,716.532,716.532,716.532,716.532,716.532,716.532,716.532,716.532,716.532,0.750047,36.55,109.367,36.55,287454020,287454020,Default
19440,716.532,716.532,716.532,716.532,716.532,716.532,716.532,716.532,716.532,716.532,716.532,716.532,0.750047,36.55,109.367,36.55,287454020,287454020,Default
19446,716.532,716.532,716.532,716.532,716.532,716.532,716.532,716.532,716.532,716.532,716.532,716.532,0.750047,36.55,109.367,36.55,287454020,287454020,Default
19452,716.532,716.532,716.532,716.532,716.532,716.532,716.532,716.532,716.532,716.532,716.532,716.532,0.750047,36.55,109.367,36.55,287454020,287454020,Default
19458,716.532,716.532,716.532,716.532,716.532,716.532,716.532,716.532,716.532,716.532,716.532,716.532,0.750047,36.55,109.367,36.55,287454020,287454020,Default
19464,716.532,716.532,716.532,716.532,716.532,716.532,716.532,716.532,716.532,716.532,716.532,716.532,0.750047,36.55,109.367,36.55,287454020,287454020,Default
19470,716.532,716.532,716.532,716.532,716.532,716.532,716.532,716.532,716.532,716.532,716.532,716.532,0.750047,36.55,109.367,36.55,287454020,287454020,Default
19476,716.532,716.532,716.532,716.532,716.532,716.532,716.532,716.532,716.532,716.532,716.532,716.532,0.750047,36.55,109.367,36.55,287454020,287454020,Default
19482,716.532,716.532,716.532,716.532,716.532,716.532,716.532,716.532,716.532,716.532,716.532,716.532,0.750047,36.55,109.367,36.55,287454020,287454020,Default
19488,716.532,716.532,716.532,716.532,716.532,716.532,716.532,716.532,716.532,716.532,716.532,716.532,0.750047,36.55,109.367,36.55,287454020,287454020,Default
19494,716.532,716.532,716.532,716.532,716.532,716.532,716.532,716.532,716.532,716.532,716.532,716.532,0.750047,36.55,109.367,36.55,287454020,287454020,Default
19500,716.532,716.532,716.532,716.532,716.532,716.532,716.532,716.532,716.532,716.532,716.532,716.532,0.750047,36.55,109.367,36.55,287454020,287454020,Default
19506,716.532,716.532,716.532,716.532,716.532,716.532,716.532,716.532,716.532,716.532,716.532,716.532,0.750047,36.55,109.367,36.55,287454020,287454020,Default
19512,716.532,716.532,716.532,716.532,716.532,716.532,716.532,716.532,716.532,716.532,716.532,716.532,0.750047,36.55,109.367,36.55,287454020,287454020,Default
19518,716.532,716.532,716.532,716.532,716.532,716.532,716.532,716.532,716.532,716.532,716.532,716.532,0.750047,36.55,109.367,36.55,287454020,287454020,Default
19524,716.532,716.532,716.532,716.532,716.532,716.532,716.532,716.532,716.532,716.532,716.532,716.532,0.750047,36.55,109.367,36.55,287454020,287454020,Default
19530,716.532,716.532,716.532,716.532,716.532,716.532,716.532,716.532,716.532,716.532,716.532,716.532,0.750047,36.55,109.367,36.55,287454020,287454020,Default
19536,716.532,716.532,716.532,716.532,716.532,716.532,716.532,716.532,716.532,716.532,716.532,716.532,0.750047,36.55,109.367,36.55,287454020,287454020,Default
19542,716.532,716.532,716.532,716.532,716.532,716.532,716.532,716.532,716.532,716.532,716.532,716.532,0.750047,36.55,109.367,36.55,287454020,287454020,Default
19548,716.532,716.532,716.532,716.532,716.532,716.532,716.532,716.532,716.532,716.532,716.532,716.532,0.750047,36.55,109.367,36.55,287454020,287454020,Default
19554,716.532,716.532,716.532,716.532,716.532,716.532,716.532,716.532,716.532,716.532,716.532,716.532,0.750047,36.55,109.367,36.55,287454020,287454020,Default
19560,716.532,716.532,716.532,716.532,716.532,716.532,716.532,716.532,716.532,716.532,716.532,716.532,0.750047,36.55,109.367,36.55,287454020,287454020,Default
19566,716.532,716.532,716.532,716.532,716.532,716.532,716.532,716.532,716.532,716.532,716.532,716.532,0.750047,36.55,109.367,36.55,287454020,287454020,Default
19572,716.532,716.532,716.532,716.532,716.532,716.532,716.532,716.532,716.532,716.532,716.532,716.532,0.750047,36.55,109.367,36.55,287454020,287454020,Default
19578,716.532,716.532,716.532,716.532,716.532,716.532,716.532,716.532,716.532,716.532,716.532,716.532,0.750047,36.55,109.367,36.55,287454020,287454020,Default
19584,716.532,716.532,716.532,716.532,716.532,716.532,716.532,716.532,716.532,716.532,716.532,716.532,0.750047,36.55,109.367,36.55,287454020,287454020,Default
19590,716.532,716.532,716.532,716.532,716.532,716.532,716.532,716.532,716.532,716.532,716.532,716.532,0.750047,36.55,109.367,36.55,287454020,287454020,Default
19596,716.532,716.532,716.532,716.532,716.532,716.532,716.532,716.532,716.532,716.532,716.532,716.532,0.750047,36.55,109.367,36.55,287454020,287454020,Default
19602,716.532,716.532,716.532,716.532,716.532,716.532,716.532,716.532,716.532,716.532,716.532,716.532,0.750047,36.55,109.367,36.55,287454020,287454020,Default
19608,716.532,716.532,716.532,716.532,716.532,716.532,716.532,716.532,716.532,716.532,716.532,716.532,0.750047,36.55,109.367,36.55,287454020,287454020,Default
19614,716.532,716.532,716.532,716.532,716.532,716.532,716.532,716.532,716.532,716.532,716.532,716.532,0.750047,36.55,109.367,36.55,287454020,287454020,Default
19620,716.532,716.532,716.532,716.532,716.532,716.532,716.532,716.532,716.532,716.532,716.532,716.532,0.750047,36.55,109.367,36.55,287454020,287454020,Default
19626,716.532,716.532,716.532,716.532,716.532,716.532,716.532,716.532,716.532,716.532,716.532,716.532,0.750047,36.55,109.367,36.55,287454020,287454020,Default
19632,716.532,716.532,716.532,716.532,716.532,716.532,716.532,716.532,716.532,716.532,716.532,716.532,0.750047,36.55,109.367,36.55,287454020,287454020,Default
19638,716.532,716.532,716.532,716.532,716.532,716.532,716.532,716.532,716.532,716.532,716.532,716.532,0.750047,36.55,109.367,36.55,287454020,287454020,Default
19644,716.532,716.532,716.532,716.532,716.532,716.532,716.532,716.532,716.532,716.532,716.532,716.532,0.750047,36.55,109.367,36.55,287454020,287454020,Default
19650,716.532,716.532,716.532,716.532,716.532,716.532,716.532,716.532,716.532,716.532,716.532,716.532,0.750047,36.55,109.367,36.55,287454020,287454020,Default
19656,716.532,716.532,716.532,716.532,716.532,716.532,716.532,716.532,716.532,716.532,716.532,716.532,0.750047,36.55,109.367,36.55,287454020,287454020,Default
19662,716.532,716.532,716.532,716.532,716.532,716.532,716.532,716.532,716.532,716.532,716.532,716.532,0.750047,36.55,109.367,36.55,287454020,287454020,Default
19668,716.532,716.532,716.532,716.532,716.532,716.532,716.532,716.532,716.532,716.532,716.532,716.532,0.750047,36.55,109.367,36.55,287454020,287454020,Default
19674,716.532,716.532,716.532,716.532,716.532,716.532,716.532,716.532,716.532,716.532,716.532,716.532,0.750047,36.55,109.367,36.55,287454020,287454020,Default
19680,716.532,716.532,716.532,716.532,716.532,716.532,716.532,716.532,716.532,716.532,716.532,716.532,0.750047,36.55,109.367,36.55,287454020,287454020,Default
19686,716.532,716.532,716.532,716.532,716.532,716.532,716.532,716.532,716.532,716.532,716.532,716.532,0.750047,36.55,109.367,36.55,287454020,287454020,Default
19692,716.532,716.532,716.532,716.532,716.532,716.532,716.532,716.532,716.532,716.532,716.532,716.532,0.750047,36.55,109.367,36.55,287454020,287454020,Default
19698,716.532,716.532,716.532,716.532,716.532,716.532,716.532,716.532,716.532,716.532,716.532,716.532,0.750047,36.55,109.367,36.55,287454020,287454020,Default
19704,716.532,716.532,716.532,716.532,716.532,716.532,716.532,716.532,716.532,716.532,716.532,716.532,0.750047,36.55,109.367,36.55,287454020,287454020,Default
19710,716.532,716.532,716.532,716.532,716.532,716.532,716.532,716.532,716.532,716.532,716.532,716.532,0.750047,36.55,109.367,36.55,287454020,287454020,Default
19716,716.532,716.532,716.532,716.532,716.532,716.532,716.532,716.532,716.532,716.532,716.532,716.532,0.750047,36.55,109.367,36.55,287454020,287454020,Default
19722,716.532,716.532,716.532,716.532,716.532,716.532,716.532,716.532,716.532,716.532,716.532,716.532,0.750047,36.55,109.367,36.55,287454020,287454020,Default
19728,716.532,716.532,716.532,716.532,716.532,716.532,716.532,716.532,716.532,716.532,716.532,716.532,0.750047,36.55,109.367,36.55,287454020,287454020,Default
19734,716.532,716.532,716.532,716.532,716.532,716.532,716.532,716.532,716.532,716.532,716.532,716.532,0.750047,36.55,109.367,36.55,287454020,287454020,Default
19740,716.532,716.532,716.532,716.532,716.532,716.532,716.532,716.532,716.532,716.532,716.532,716.532,0.750047,36.55,109.367,36.55,287454020,287454020,Default
19746,716.532,716.532,716.532,716.532,716.532,716.532,716.532,716.532,716.532,716.532,716.532,716.532,0.750047,36.55,109.367,36.55,287454020,287454020,Default
19752,716.532,716.532,716.532,716.532,716.532,716.532,716.532,716.532,716.532,716.532,716.532,716.532,0.750047,36.55,109.367,36.55,287454020,287454020,Default
19758,716.532,716.532,716.532,716.532,716.532,716.532,716.532,716.532,716.532,716.532,716.532,716.532,0.750047,36.55,109.367,36.55,287454020,287454020,Default
19764,716.532,716.532,716.532,716.532,716.532,716.532,716.532,716.532,716.532,716.532,716.532,716.532,0.750047,36.55,109.367,36.55,287454020,287454020,Default
19770,716.532,716.532,716.532,716.532,716.532,716.532,716.532,716.532,716.532,716.532,716.532,716.532,0.750047,36.55,109.367,36.55,287454020,287454020,Default
19776,716.532,716.532,716.532,716.532,716.532,716.532,716.532,716.532,716.532,716.532,716.532,716.532,0.750047,36.55,109.367,36.55,287454020,287454020,Default
19782,716.532,716.532,716.532,716.532,716.532,716.532,716.532,716.532,716.532,716.532,716.532,716.532,0.750047,36.55,109.367,36.55,287454020,287454020,Default
19788,716.532,716.532,716.532,716.532,716.532,716.532,716.532,716.532,716.532,716.532,716.532,716.532,0.750047,36.55,109.367,36.55,287454020,287454020,Default
19794,716.532,716.532,716.532,716.532,716.532,716.532,716.532,716.532,716.532,716.532,716.532,716.532,0.750047,36.55,109.367,36.55,287454020,287454020,Default
19800,716.532,716.532,716.532,716.532,716.532,716.532,716.532,716.532,716.532,716.532,716.532,716.532,0.750047,36.55,109.367,36.55,287454020,287454020,Default
19806,716.532,716.532,716.532,716.532,716.532,716.532,716.532,716.532,716.532,716.532,716.532,716.532,0.750047,36.55,109.367,36.55,287454020,287454020,Default
19812,716.532,716.532,716.532,716.532,716.532,716.532,716.532,716.532,716.532,716.532,716.532,716.532,0.750047,36.55,109.367,36.55,287454020,287454020,Default
19818,716.532,716.532,716.532,716.532,716.532,716.532,716.532,716.532,716.532,716.532,716.532,716.532,0.750047,36.55,109.367,36.55,287454020,287454020,Default
19824,716.532,716.532,716.532,716.532,716.532,716.532,716.532,716.532,716.532,716.532,716.532,716.532,0.750047,36.55,109.367,36.55,287454020,287454020,Default
19830,716.532,716.532,716.532,716.532,716.532,716.532,716.532,716.532,716.532,716.532,716.532,716.532,0.750047,36.55,109.367,36.55,287454020,287454020,Default
19836,716.532,716.532,716.532,716.532,716.532,716.532,716.532,716.532,716.532,716.532,716.532,716.532,0.750047,36.55,109.367,36.55,287454020,287454020,Default
19842,716.532,716.532,716.532,716.532,716.532,716.532,716.532,716.532,716.532,716.532,716.532,716.532,0.750047,36.55,109.367,36.55,287454020,287454020,Default
19848,716.532,716.532,716.532,716.532,716.532,716.532,716.532,716.532,716.532,716.532,716.532,716.532,0.750047,36.55,109.367,36.55,287454020,287454020,Default
19854,716.532,716.532,716.532,716.532,716.532,716.532,716.532,716.532,716.532,716.532,716.532,716.532,0.750047,36.55,109.367,36.55,287454020,287454020,Default
19860,716.532,716.532,716.532,716.532,716.532,716.532,716.532,716.532,716.532,716.532,716.532,716.532,0.750047,36.55,109.367,36.55,287454020,287454020,Default
19866,716.532,716.532,716.532,716.532,716.532,716.532,716.532,716.532,716.532,716.532,716.532,716.532,0.750047,36.55,109.367,36.55,287454020,287454020,Default
19872,716.532,716.532,716.532,716.532,716.532,716.532,716.532,716.532,716.532,716.532,716.532,716.532,0.750047,36.55,109.367,36.55,287454020,287454020,Default
19878,716.532,716.532,716.532,716.532,716.532,716.532,716.532,716.532,716.532,716.532,716.532,716.532,0.750047,36.55,109.367,36.55,287454020,287454020,Default
19884,716.532,716.532,716.532,716.532,716.532,716.532,716.532,716.532,716.532,716.532,716.532,716.532,0.750047,36.55,109.367,36.55,287454020,287454020,Default
19890,716.532,716.532,716.532,716.532,716.532,716.532,716.532,716.532,716.532,716.532,716.532,716.532,0.750047,36.55,109.367,36.55,287454020,287454020,Default
19896,716.532,716.532,716.532,716.532,716.532,716.532,716.532,716.532,716.532,716.532,716.532,716.532,0.750047,36.55,109.367,36.55,287454020,287454020,Default
19902,716.532,716.532,716.532,716.532,716.532,716.532,716.532,716.532,716.532,716.532,716.532,716.532,0.750047,36.55,109.367,36.55,287454020,287454020,Default
19908,716.532,716.532,716.532,716.532,716.532,716.532,716.532,716.532,716.532,716.532,716.532,716.532,0.750047,36.55,109.367,36.55,287454020,287454020,Default
19914,716.532,716.532,716.532,716.532,716.532,716.532,716.532,716.532,716.532,716.532,716.532,716.532,0.750047,36.55,109.367,36.55,287454020,287454020,Default
19920,716.532,716.532,716.532,716.532,716.532,716.532,716.532,716.532,716.532,716.532,716.532,716.532,0.750047,36.55,109.367,36.55,287454020,287454020,Default
19926,716.532,716.532,716.532,716.532,716.532,716.532,716.532,716.532,716.532,716.532,716.532,716.532,0.750047,36.55,109.367,36.55,287454020,287454020,Default
19932,716.532,716.532,716.532,716.532,716.532,716.532,716.532,716.532,716.532,716.532,716.532,716.532,0.750047,36.55,109.367,36.55,287454020,287454020,Default
19938,716.532,716.532,716.532,716.532,716.532,716.532,716.532,716.532,716.532,716.532,716.532,716.532,0.750047,36.55,109.367,36.55,287454020,287454020,Default
19944,716.532,716.532,716.532,716.532,716.532,716.532,716.532,716.532,716.532,716.532,716.532,716.532,0.750047,36.55,109.367,36.55,287454020,287454020,Default
19950,716.532,716.532,716.532,716.532,716.532,716.532,716.532,716.532,716.532,716.532,716.532,716.532,0.750047,36.55,109.367,36.55,287454020,287454020,Default
19956,716.532,716.532,716.532,716.532,716.532,716.532,716.532,716.532,716.532,716.532,716.532,716.532,0.750047,36.55,109.367,36.55,287454020,287454020,Default
19962,716.532,716.532,716.532,716.532,716.532,716.532,716.532,716.532,716.532,716.532,716.532,716.532,0.750047,36.55,109.367,36.55,287454020,287454020,Default
19968,716.532,716.532,716.532,716.532,716.532,716.532,716.532,716.532,716.532,716.532,716.532,716.532,0.750047,36.55,109.367,36.55,287454020,287454020,Default
19974,716.532,716.532,716.532,716.532,716.532,716.532,716.532,716.532,716.532,716.532,716.532,716.532,0.750047,36.55,109.367,36.55,287454020,287454020,Default
19980,716.532,716.532,716.532,716.532,716.532,716.532,716.532,716.532,716.532,716.532,716.532,716.532,0.750047,36.55,109.367,36.55,287454020,287454020,Default
19986,716.532,716.532,716.532,716.532,716.532,716.532,716.532,716.532,716.532,716.532,716.532,716.532,0.750047,36.55,109.367,36.55,287454020,287454020,Default
19992,716.532,716.532,716.532,716.532,716.532,716.532,716.532,716.532,716.532,716.532,716.532,716.532,0.750047,36.55,109.367,36.55,287454020,287454020,Default
19998,716.532,716.532,716.532,716.532,716.532,716.532,716.532,716.532,716.532,716.532,716.532,716.532,0.750047,36.55,109.367,36.55,287454020,287454020,Default
20004,716.532,716.532,716.532,716.532,716.532,716.532,716.532,716.532,716.532,716.532,716.532,716.532,0.750047,36.55,109.367,36.55,287454020,287454020,Default
20010,716.532,716.532,716.532,716.532,716.532,716.532,716.532,716.532,716.532,716.532,716.532,716.532,0.750047,36.55,109.367,36.55,287454020,287454020,Default
20016,716.532,716.532,716.532,716.532,716.532,716.532,716.532,716.532,716.532,716.532,716.532,716.532,0.750047,36.55,109.367,36.55,287454020,287454020,Default
20022,716.532,716.532,716.532,716.532,716.532,716.532,716.532,716.532,716.532,716.532,716.532,716.532,0.750047,36.55,109.367,36.55,287454020,287454020,Default
20028,716.532,716.532,716.532,716.532,716.532,716.532,716.532,716.532,716.532,716.532,716.532,716.532,0.750047,36.55,109.367,36.55,287454020,287454020,Default
20034,716.532,716.532,716.532,716.532,716.532,716.532,716.532,716.532,716.532,716.532,716.532,716.532,0.750047,36.55,109.367,36.55,287454020,287454020,Default
20040,716.532,716.532,716.532,716.532,716.532,716.532,716.532,716.532,716.532,716.532,716.532,716.532,0.750047,36.55,109.367,36.55,287454020,287454020,Default
20046,716.532,716.532,716.532,716.532,716.532,716.532,716.532,716.532,716.532,716.532,716.532,716.532,0.750047,36.55,109.367,36.55,287454020,287454020,Default
20052,716.532,716.532,716.532,716.532,716.532,716.532,716.532,716.532,716.532,716.532,716.532,716.532,0.750047,36.55,109.367,36.55,287454020,287454020,Default
20058,716.532,716.532,716.532,716.532,716.532,716.532,716.532,716.532,716.532,716.532,716.532,716.532,0.750047,36.55,109.367,36.55,287454020,287454020,Default
20064,716.532,716.532,716.532,716.532,716.532,716.532,716.532,716.532,716.532,716.532,716.532,716.532,0.750047,36.55,109.367,36.55,287454020,287454020,Default
20070,716.532,716.532,716.532,716.532,716.532,716.532,716.532,716.532,716.532,716.532,716.532,716.532,0.750047,36.55,109.367,36.55,287454020,287454020,Default
20076,716.532,716.532,716.532,716.532,716.532,716.532,716.532,716.532,716.532,716.532,716.532,716.532,0.750047,36.55,109.367,36.55,287454020,287454020,Default
20082,716.532,716.532,716.532,716.532,716.532,716.532,716.532,716.532,716.532,716.532,716.532,716.532,0.750047,36.55,109.367,36.55,287454020,287454020,Default
20088,716.532,716.532,716.532,716.532,716.532,716.532,716.532,716.532,716.532,716.532,716.532,716.532,0.750047,36.55,109.367,36.55,287454020,287454020,Default
20094,716.532,716.532,716.532,716.532,716.532,716.532,716.532,716.532,716.532,716.532,716.532,716.532,0.750047,36.55,109.367,36.55,287454020,287454020,Default
20100,716.532,716.532,716.532,716.532,716.532,716.532,716.532,716.532,716.532,716.532,716.532,716.532,0.750047,36.55,109.367,36.55,287454020,287454020,Default
20106,716.532,716.532,716.532,716.532,716.532,716.532,716.532,716.532,716.532,716.532,716.532,716.532,0.750047,36.55,109.367,36.55,287454020,287454020,Default
20112,716.532,716.532,716.532,716.532,716.532,716.532,716.532,716.532,716.532,716.532,716.532,716.532,0.750047,36.55,109.367,36.55,287454020,287454020,Default
20118,716.532,716.532,716.532,716.532,716.532,716.532,716.532,716.532,716.532,716.532,716.532,716.532,0.750047,36.55,109.367,36.55,287454020,287454020,Default
20124,716.532,716.532,716.532,716.532,716.532,716.532,716.532,716.532,716.532,716.532,716.532,716.532,0.750047,36.55,109.367,36.55,287454020,287454020,Default
20130,716.532,716.532,716.532,716.532,716.532,716.532,716.532,716.532,716.532,716.532,716.532,716.532,0.750047,36.55,109.367,36.55,287454020,287454020,Default
20136,716.532,716.532,716.532,716.532,716.532,716.532,716.532,716.532,716.532,716.532,716.532,716.532,0.750047,36.55,109.367,36.55,287454020,287454020,Default
20142,716.532,716.532,716.532,716.532,716.532,716.532,716.532,716.532,716.532,716.532,716.532,716.532,0.750047,36.55,109.367,36.55,287454020,287454020,Default
20148,716.532,716.532,716.532,716.532,716.532,716.532,716.532,716.532,716.532,716.532,716.532,716.532,0.750047,36.55,109.367,36.55,287454020,287454020,Default
20154,716.532,716.532,716.532,716.532,716.532,716.532,716.532,716.532,716.532,716.532,716.532,716.532,0.750047,36.55,109.367,36.55,287454020,287454020,Default
20160,716.532,716.532,716.532,716.532,716.532,716.532,716.532,716.532,716.532,716.532,716.532,716.532,0.750047,36.55,109.367,36.55,287454020,287454020,Default
20166,716.532,716.532,716.532,716.532,716.532,716.532,716.532,716.532,716.532,716.532,716.532,716.532,0.750047,36.55,109.367,36.55,287454020,287454020,Default
20172,716.532,716.532,716.532,716.532,716.532,716.532,716.532,716.532,716.532,716.532,716.532,716.532,0.750047,36.55,109.367,36.55,287454020,287454020,Default
20178,716.532,716.532,716.532,716.532,716.532,716.532,716.532,716.532,716.532,716.532,716.532,716.532,0.750047,36.55,109.367,36.55,287454020,287454020,Default
20184,716.532,716.532,716.532,716.532,716.532,716.532,716.532,716.532,716.532,716.532,716.532,716.532,0.750047,36.55,109.367,36.55,287454020,287454020,Default
20190,716.532,716.532,716.532,716.532,716.532,716.532,716.532,716.532,716.532,716.532,716.532,716.532,0.750047,36.55,109.367,36.55,287454020,287454020,Default
20196,716.532,716.532,716.532,716.532,716.532,716.532,716.532,716.532,716.532,716.532,716.532,716.532,0.750047,36.55,109.367,36.55,287454020,287454020,Default
20202,716.532,716.532,716.532,716.532,716.532,716.532,716.532,716.532,716.532,716.532,716.532,716.532,0.750047,36.55,109.367,36.55,287454020,287454020,Default
20208,716.532,716.532,716.532,716.532,716.532,716.532,716.532,716.532,716.532,716.532,716.532,716.532,0.750047,36.55,109.367,36.55,287454020,287454020,Default
20214,716.532,716.532,716.532,716.532,716.532,716.532,716.532,716.532,716.532,716.532,716.532,716.532,0.750047,36.55,109.367,36.55,287454020,287454020,Default
20220,716.532,716.532,716.532,716.532,716.532,716.532,716.532,716.532,716.532,716.532,716.532,716.532,0.750047,36.55,109.367,36.55,287454020,287454020,Default
20226,716.532,716.532,716.532,716.532,716.532,716.532,716.532,716.532,716.532,716.532,716.532,716.532,0.750047,36.55,109.367,36.55,287454020,287454020,Default
20232,716.532,716.532,716.532,716.532,716.532,716.532,716.532,716.532,716.532,716.532,716.532,716.532,0.750047,36.55,109.367,36.55,287454020,287454020,Default
20238,716.532,716.532,716.532,716.532,716.532,716.532,716.532,716.532,716.532,716.532,716.532,716.532,0.750047,36.55,109.367,36.55,287454020,287454020,Default
20244,716.532,716.532,716.532,716.532,716.532,716.532,716.532,716.532,716.532,716.532,716.532,716.532,0.750047,36.55,109.367,36.55,287454020,287454020,Default
20250,716.532,716.532,716.532,716.532,716.532,716.532,716.532,716.532,716.532,716.532,716.532,716.532,0.750047,36.55,109.367,36.55,287454020,287454020,Default
20256,716.532,716.532,716.532,716.532,716.532,716.532,716.532,716.532,716.532,716.532,716.532,716.532,0.750047,36.55,109.367,36.55,287454020,287454020,Default
20262,716.532,716.532,716.532,716.532,716.532,716.532,716.532,716.532,716.532,716.532,716.532,716.532,0.750047,36.55,109.367,36.55,287454020,287454020,Default
20268,716.532,716.532,716.532,716.532,716.532,716.532,716.532,716.532,716.532,716.532,716.532,716.532,0.750047,36.55,109.367,36.55,287454020,287454020,Default
20274,716.532,716.532,716.532,716.532,716.532,716.532,716.532,716.532,716.532,716.532,716.532,716.532,0.750047,36.55,109.367,36.55,287454020,287454020,Default
20280,716.532,716.532,716.532,716.532,716.532,716.532,716.532,716.532,716.532,716.532,716.532,716.532,0.750047,36.55,109.367,36.55,287454020,287454020,Default
20286,716.532,716.532,716.532,716.532,716.532,716.532,716.532,716.532,716.532,716.532,716.532,716.532,0.750047,36.55,109.367,36.55,287454020,287454020,Default
20292,716.532,716.532,716.532,716.532,716.532,716.532,716.532,716.532,716.532,716.532,716.532,716.532,0.750047,36.55,109.367,36.55,287454020,287454020,Default
20298,716.532,716.532,716.532,716.532,716.532,716.532,716.532,716.532,716.532,716.532,716.532,716.532,0.750047,36.55,109.367,36.55,287454020,287454020,Default
20304,716.532,716.532,716.532,716.532,716.532,716.532,716.532,716.532,716.532,716.532,716.532,716.532,0.750047,36.55,109.367,36.55,287454020,287454020,Default
20310,716.532,716.532,716.532,716.532,716.532,716.532,716.532,716.532,716.532,716.532,716.532,716.532,0.750047,36.55,109.367,36.55,287454020,287454020,Default
