Timestamp,AccX,AccY,AccZ,AngularVelX,AngularVelY,AngularVelZ,MagX,MagY,MagZ,AirPressure
345182,1.24342,-9.67001,1.14778,0.2,-0.277,-0.165,-14.7556,27.2731,29.1479,1008.75
345188,1.25777,-9.68914,1.13343,-0.00999987,0.283,0.325,-14.6971,26.8785,29.0748,1008.75
345194,1.23864,-9.62697,1.14778,-0.00999987,-0.0670002,0.885,-15.0187,27.1854,29.1187,1008.74
345200,1.22908,-9.63654,1.14299,-0.78,-0.137,-0.795,-15.0187,27.9747,28.9287,1008.74
345206,1.23864,-9.65088,1.14778,-0.92,-0.137,1.935,-14.434,27.0246,30.4633,1008.77
345212,1.23864,-9.67001,1.12865,0.55,-0.837,0.395,-14.3756,28.2377,28.5779,1008.77
345218,1.25299,-9.65567,1.12386,-0.43,-1.047,0.185,-14.3756,27.8577,29.0748,1008.75
345224,1.23864,-9.63175,1.15734,-0.22,0.283,0.115,-14.434,28.0916,29.7764,1008.75
345230,1.22908,-9.67001,1.10473,-0.78,-0.837,0.255,-14.244,27.39,29.0895,1008.75
345236,1.22908,-9.68436,1.09517,-0.15,-0.277,1.445,-14.2733,27.887,29.4256,1008.76
345242,1.21951,-9.68914,1.12386,-1.27,-0.137,0.745,-15.2233,27.5654,28.841,1008.76
345248,1.1956,-9.69392,1.13343,0.27,-0.347,-0.375,-14.8725,27.1269,30.0249,1008.73
345254,1.23386,-9.67958,1.10952,-0.57,-0.347,0.115,-15.1063,27.6239,28.9725,1008.73
345260,1.21951,-9.66045,1.13821,-0.29,-0.417,0.535,-14.931,27.9162,29.3525,1008.75
345266,1.22908,-9.65088,1.17169,-0.92,0.353,0.955,-14.1709,27.5654,28.6218,1008.75
345272,1.20038,-9.63654,1.1143,-1.48,0.353,0.535,-15.0187,27.9747,28.7533,1008.74
345278,1.21473,-9.67958,1.10952,-0.57,0.283,0.115,-14.9602,27.4485,28.8848,1008.74
345284,1.22429,-9.67001,1.13821,-0.5,-0.0670002,1.095,-14.8433,27.9747,29.0895,1008.78
345290,1.24342,-9.67958,1.13343,-0.57,0.283,0.675,-15.2379,27.6239,28.1102,1008.78
345296,1.21473,-9.67001,1.12865,-0.78,0.283,0.885,-15.2233,27.0246,28.7241,1008.75
345302,1.23864,-9.67958,1.13343,-0.71,-0.277,-0.165,-14.4633,28.0916,29.8349,1008.75
345308,1.24342,-9.6748,1.12865,-0.57,-0.487,1.095,-13.9956,28.0916,28.9579,1008.75
345314,1.23864,-9.63654,1.13343,-0.57,-0.277,0.325,-14.6386,28.1208,28.6948,1008.79
345320,1.23864,-9.64132,1.12386,-0.99,-0.347,-0.235,-14.7848,28.4862,29.0748,1008.79
345326,1.21951,-9.68436,1.11908,-0.57,0.283,0.185,-15.2817,27.507,29.6449,1008.74
345332,1.21951,-9.67958,1.10952,0.0600001,-0.0670002,0.255,-14.2586,27.6823,30.2149,1008.74
345338,1.23386,-9.68436,1.09517,0.27,-0.347,0.605,-14.5802,27.7993,29.2064,1008.77
345344,1.22908,-9.67958,1.1143,0.34,0.143,-0.025,-14.6971,27.7993,29.7325,1008.77
345350,1.1956,-9.66523,1.13343,-1.48,0.143,0.745,-14.7848,27.1416,29.2502,1008.76
345356,1.21951,-9.6748,1.11908,-0.99,0.703,2.215,-15.311,26.7908,30.1564,1008.76
345362,1.22429,-9.67958,1.1143,-0.78,0.283,-0.375,-14.0102,27.7993,29.7472,1008.73
345368,1.23386,-9.6748,1.12865,-0.99,0.493,0.395,-14.4925,27.6239,28.7241,1008.73
345374,1.22908,-9.67001,1.1143,-1.13,-0.417,0.395,-14.5363,27.2439,29.6741,1008.75
345380,1.20995,-9.67958,1.10952,-0.99,-0.0670002,1.095,-14.2002,27.4193,29.7764,1008.75
345386,1.20995,-9.66523,1.12865,-0.22,-0.697,-0.375,-13.8348,27.9162,29.4402,1008.75
345392,1.20995,-9.6748,1.09517,-0.78,0.423,0.675,-14.434,27.7993,29.0164,1008.75
345398,1.20516,-9.6748,1.1143,-0.22,-0.0670002,0.535,-14.4194,26.9954,29.7618,1008.75
345404,1.22429,-9.68436,1.09995,-0.15,-0.417,-0.165,-14.9894,27.8577,29.6449,1008.76
345410,1.20995,-9.69392,1.11908,0.2,0.353,1.165,-14.6386,27.507,29.8495,1008.76
345416,1.20995,-9.69392,1.10952,0.34,-0.347,-0.865,-14.3463,27.2146,28.7241,1008.75
345422,1.21951,-9.69392,1.09995,-0.57,0.143,0.185,-15.0479,28.0623,29.6741,1008.75
345428,1.21473,-9.69871,1.09517,-0.00999987,-0.347,0.675,-14.6971,27.507,30.4487,1008.79
345434,1.20516,-9.70349,1.10952,-0.5,-0.487,-0.935,-15.0479,27.5362,30.1418,1008.79
345440,1.18604,-9.67001,1.07604,-0.78,-0.277,0.535,-14.6386,27.9454,30.0833,1008.76
345446,1.1956,-9.68436,1.10473,-0.5,-0.837,-0.305,-14.7263,27.77,28.5341,1008.76
345452,1.21951,-9.67958,1.10473,-0.78,-0.837,0.115,-14.9017,27.6239,29.221,1008.74
345494,1.20995,-9.68436,1.09995,-0.36,0.073,-0.725,-15.1063,27.887,29.5133,1008.74
345500,1.17647,-9.68914,1.09517,-0.43,0.703,0.745,-14.4925,27.7408,30.6387,1008.74
345506,1.1956,-9.67001,1.09039,0.76,0.143,-0.865,-14.1709,27.3316,29.3233,1008.79
345512,1.20038,-9.69392,1.08082,0.0600001,-0.0670002,-0.025,-13.8932,28.15,29.0456,1008.79
345518,1.24342,-9.68436,1.09995,0.2,-0.767,-0.025,-14.5802,27.7116,28.7825,1008.75
345524,1.20995,-9.64132,1.12386,-0.57,0.213,0.675,-14.0102,27.2731,29.8495,1008.75
345530,1.22908,-9.65088,1.10473,0.2,0.283,-0.935,-14.3025,27.0831,28.7679,1008.77
345536,1.22908,-9.66523,1.10952,-0.78,0.633,0.185,-13.8932,26.6739,29.0456,1008.77
345542,1.22908,-9.65088,1.10952,0.0600001,-0.417,0.465,-14.3756,26.6446,28.9725,1008.75
345548,1.20516,-9.66523,1.0856,-0.36,-0.837,-0.095,-13.7471,26.9369,29.4987,1008.75
345554,1.20995,-9.67958,1.09995,-0.22,-0.0670002,-0.025,-14.2294,26.9954,28.5195,1008.78
345560,1.20516,-9.66045,1.09995,-0.00999987,0.423,-0.795,-14.2586,27.3608,29.6302,1008.78
345566,1.1956,-9.6748,1.1143,0.0600001,0.843,1.095,-13.4256,26.9369,29.601,1008.78
345572,1.20038,-9.6748,1.10473,-0.00999987,0.633,-0.025,-14.0394,26.8492,28.4171,1008.74
345578,1.20516,-9.65567,1.09517,0.2,0.493,-1.565,-15.0479,27.5946,28.7095,1008.74
345584,1.21473,-9.67001,1.1143,-0.99,-0.137,-0.655,-14.814,27.3316,30.8872,1008.76
345590,1.22908,-9.64132,1.1143,-0.15,0.283,1.305,-14.9602,27.0539,29.411,1008.76
345596,1.21951,-9.66523,1.12386,-0.00999987,0.423,-0.095,-14.3756,27.507,29.981,1008.73
345602,1.20516,-9.67958,1.10473,-0.15,-0.0670002,0.815,-14.4925,27.507,29.8933,1008.73
345608,1.23386,-9.67958,1.10473,-0.78,0.073,-0.095,-15.4279,27.2439,29.5425,1008.78
345614,1.20995,-9.66523,1.09039,-0.78,0.143,-0.165,-14.4925,27.1562,28.5195,1008.78
345620,1.20038,-9.71784,1.09039,-0.92,-0.137,-1.705,-15.2817,27.0539,28.9141,1008.75
345626,1.20516,-9.69392,1.10473,-0.15,0.283,-0.235,-14.5802,27.0246,29.8495,1008.75
345632,1.20038,-9.66523,1.11908,-0.15,-0.907,-0.165,-14.4194,26.8785,30.4195,1008.77
345638,1.20038,-9.68436,1.11908,-0.78,-0.0670002,0.395,-14.3171,26.7908,29.7325,1008.77
345644,1.20516,-9.68914,1.09039,-0.36,-0.417,-0.375,-13.4256,27.4485,29.8787,1008.77
345650,1.21473,-9.71305,1.09039,-0.0799999,0.143,-0.095,-14.6094,27.3316,29.6887,1008.75
345656,1.22429,-9.6748,1.10952,-0.15,0.423,-0.235,-14.0686,27.39,28.461,1008.75
345758,1.22429,-9.6748,1.09517,0.2,0.633,-0.655,-14.434,27.6531,29.8202,1008.75
345764,1.21473,-9.66523,1.10952,0.97,-0.837,-0.585,-15.311,27.1854,29.2795,1008.76
345770,1.25299,-9.63175,1.10473,-0.29,-0.627,0.535,-14.5802,27.7116,28.081,1008.76
345776,1.20995,-9.65088,1.12386,-0.92,0.073,-0.165,-14.7263,26.44,29.2502,1008.76
345782,1.22908,-9.68914,1.12386,0.2,-0.487,-0.445,-14.3609,27.2731,29.6156,1008.76
345788,1.20516,-9.65567,1.11908,0.2,0.773,-0.445,-14.4048,26.82,29.8787,1008.76
345794,1.21473,-9.66523,1.14299,-0.36,0.633,0.115,-15.4571,27.2731,29.3818,1008.76
345800,1.20516,-9.66523,1.10473,-1.48,0.633,0.185,-14.2148,28.0916,30.7849,1008.77
345806,1.21951,-9.66045,1.10952,0.2,-0.487,-0.935,-15.1648,27.2439,29.0748,1008.77
345812,1.23386,-9.65567,1.09995,0.62,0.073,0.185,-14.931,27.5654,29.1772,1008.77
345818,1.22429,-9.6748,1.10473,-1.06,-0.277,1.375,-15.194,27.4777,28.7679,1008.76
345824,1.21951,-9.66523,1.12865,0.2,0.283,-0.935,-14.2733,27.2146,29.7618,1008.76
345830,1.20038,-9.6748,1.11908,-0.43,-0.277,0.885,-14.9602,26.9662,29.9226,1008.78
345836,1.23386,-9.68436,1.09039,-0.15,0.143,-0.725,-14.7263,26.8785,29.9372,1008.78
345842,1.21473,-9.66523,1.09995,-0.22,-0.207,-0.025,-14.6386,27.5362,29.6156,1008.76
345848,1.23386,-9.66045,1.09995,-0.00999987,-0.277,-0.095,-14.9894,26.9954,29.3233,1008.76
345854,1.20995,-9.67958,1.1143,0.2,-0.837,-0.165,-15.2671,27.8285,29.4841,1008.77
345860,1.24342,-9.68436,1.1143,-0.22,0.073,0.185,-14.6971,27.3608,29.9956,1008.77
345866,1.21473,-9.65567,1.10473,0.62,-0.977,0.675,-14.4925,27.2731,29.9372,1008.77
345872,1.24342,-9.68914,1.09517,-0.22,-0.0670002,0.955,-14.2586,27.5946,28.8264,1008.77
345878,1.21951,-9.67001,1.09995,-0.43,0.073,-0.375,-14.6679,27.5946,29.7618,1008.73
345884,1.22908,-9.66045,1.09517,-0.92,-0.137,0.535,-14.3171,27.7993,30.0103,1008.73
345890,1.20516,-9.65088,1.10473,-0.00999987,-0.347,1.235,-15.574,28.0331,28.2564,1008.73
345896,1.22908,-9.66523,1.09517,-0.57,-0.347,0.115,-13.9956,26.3231,29.0164,1008.73
345902,1.23386,-9.66045,1.1143,-0.99,0.073,0.675,-14.4925,27.2146,29.3379,1008.73
345908,1.20995,-9.68914,1.1143,-0.00999987,0.143,-0.025,-14.5802,27.2146,29.1333,1008.76
345914,1.23864,-9.66045,1.09517,-0.00999987,-0.837,0.185,-14.9602,27.4777,29.411,1008.76
345920,1.20038,-9.64132,1.10473,-0.92,0.213,1.445,-14.3609,27.2731,29.2064,1008.74
345926,1.22908,-9.66045,1.09517,0.0600001,-0.0670002,-0.235,-14.0686,26.9662,29.3233,1008.74
345932,1.22429,-9.68436,1.10473,-0.57,-0.907,0.535,-14.9894,27.3316,29.8056,1008.76
345938,1.22908,-9.69392,1.12386,-0.78,0.633,0.885,-14.7263,27.9162,28.4902,1008.76
345944,1.20995,-9.6748,1.09517,-0.00999987,-0.347,-0.445,-14.4633,27.3608,29.4402,1008.75
345950,1.20038,-9.68914,1.1143,-0.15,0.493,-0.585,-14.931,27.5946,29.2649,1008.75
345956,1.22908,-9.66523,1.11908,0.62,-0.487,-0.025,-14.1856,26.8785,29.411,1008.78
345962,1.22908,-9.65567,1.09039,0.34,-0.347,-0.375,-14.3171,27.7116,29.3672,1008.78
345968,1.20038,-9.66523,1.10473,-0.36,-0.277,0.535,-13.864,27.3023,29.7325,1008.78
345974,1.22908,-9.67958,1.14299,0.0600001,-0.277,-0.935,-14.4633,27.5362,29.5279,1008.78
345980,1.24342,-9.67958,1.09517,-0.15,-0.697,-0.375,-13.9371,27.507,29.8641,1008.72
345986,1.22908,-9.68436,1.09517,-0.00999987,0.073,0.605,-14.3171,27.4193,29.1479,1008.72
345992,1.20516,-9.68436,1.10473,-1.76,0.073,-0.165,-13.7763,27.0539,29.4256,1008.72
345998,1.21951,-9.6748,1.10952,-0.36,0.423,0.185,-14.6094,27.1269,28.6218,1008.73
346004,1.20995,-9.66523,1.07604,0.27,-0.207,-1.075,-14.6094,27.8285,28.5925,1008.73
346010,1.22429,-9.68436,1.08082,0.76,-0.627,-0.935,-14.7263,28.0623,28.8702,1008.74
346016,1.22908,-9.69392,1.09517,0.2,-0.277,0.325,-14.6386,28.0039,28.9579,1008.74
346022,1.21951,-9.65567,1.12865,-0.15,-0.0670002,0.325,-14.434,27.77,28.6802,1008.76
346028,1.22429,-9.67958,1.14299,0.69,0.283,-1.145,-13.9517,27.5654,28.9141,1008.76
346034,1.21473,-9.67001,1.14299,0.62,-0.487,1.025,-14.7556,27.507,29.1625,1008.75
346040,1.21473,-9.66045,1.1143,0.27,-0.277,-1.005,-14.4633,27.7116,29.9226,1008.75
346046,1.22429,-9.66523,1.10952,-0.36,-0.417,0.185,-13.5132,27.7408,29.9372,1008.75
346052,1.21473,-9.66523,1.1143,-0.15,-0.277,0.675,-15.0479,26.8785,29.1625,1008.75
346058,1.20038,-9.70349,1.11908,-0.00999987,-0.627,-0.515,-14.2294,26.9954,29.601,1008.74
346064,1.1956,-9.68914,1.09517,0.55,-0.207,-0.025,-14.1271,27.5946,29.5279,1008.74
346070,1.19082,-9.74175,1.09995,0.83,-0.697,-0.235,-15.0187,27.7408,29.1479,1008.74
346076,1.21473,-9.70349,1.0856,1.18,-0.0670002,0.185,-14.2879,27.39,29.6887,1008.75
346082,1.22908,-9.63654,1.12865,0.41,-0.837,-1.075,-14.931,27.3023,29.3672,1008.75
346088,1.21951,-9.62697,1.15256,-0.15,0.493,0.675,-14.0394,27.8285,28.5779,1008.78
346094,1.20995,-9.67001,1.10473,0.0600001,0.283,0.745,-15.0479,27.3608,29.1041,1008.78
346100,1.20995,-9.6461,1.11908,0.13,-0.0670002,-0.445,-14.6971,27.7408,29.0018,1008.77
346106,1.22429,-9.66045,1.11908,-0.36,0.353,0.465,-14.4925,27.2731,30.0687,1008.77
346112,1.21951,-9.65088,1.11908,0.2,0.283,-0.655,-14.9017,27.5362,31.0333,1008.76
346118,1.22429,-9.6748,1.0856,-0.71,0.493,0.395,-14.6679,27.3608,29.3379,1008.76
346124,1.23864,-9.69392,1.09995,0.2,-0.347,-0.025,-14.6386,27.7116,29.3672,1008.76
346130,1.21951,-9.67958,1.09517,0.0600001,-0.0670002,-0.095,-14.8433,26.5862,30.6826,1008.76
346136,1.20995,-9.66045,1.1143,0.83,-0.627,-0.515,-14.0979,27.3316,29.4841,1008.75
346142,1.20516,-9.6461,1.10952,0.76,-1.117,0.185,-15.2817,27.4777,29.8787,1008.75
346148,1.21473,-9.69871,1.09517,0.76,-0.977,-0.655,-15.1356,27.5362,29.2064,1008.75
346154,1.1956,-9.67001,1.09517,0.27,-0.277,0.535,-15.2671,27.1269,30.0395,1008.75
346160,1.20038,-9.67001,1.13821,-0.36,1.053,0.815,-14.7848,27.3608,30.4487,1008.75
346166,1.21473,-9.66045,1.09995,0.27,0.283,-0.795,-14.7848,27.3316,29.5718,1008.76
346172,1.21473,-9.69871,1.10473,-0.22,-0.0670002,-0.165,-14.1271,27.2439,30.0979,1008.76
346178,1.21473,-9.68436,1.09995,0.69,0.073,0.045,-14.7263,27.1854,30.2295,1008.79
346184,1.20516,-9.6748,1.1143,1.11,-0.347,0.185,-13.9517,27.9454,29.8933,1008.79
346190,1.22908,-9.67001,1.0856,0.55,-0.277,0.325,-13.9956,28.0916,29.8056,1008.78
346196,1.22429,-9.6748,1.11908,-0.22,-0.0670002,-1.145,-14.3025,27.5362,30.2295,1008.78
346202,1.22429,-9.64132,1.12865,-0.00999987,0.283,0.185,-14.2294,28.0039,29.601,1008.72
346208,1.21473,-9.67001,1.10952,0.27,-0.277,-0.725,-14.5802,28.0623,29.981,1008.72
346214,1.22908,-9.66045,1.0856,-0.29,-0.487,1.095,-14.6533,26.9954,28.2418,1008.74
346220,1.20995,-9.68914,1.10473,0.0600001,-0.0670002,-0.725,-15.0771,27.6531,29.0602,1008.74
346226,1.21951,-9.68914,1.12386,0.34,-0.137,-0.725,-14.0686,26.6739,29.2649,1008.74
346232,1.20038,-9.65567,1.12386,0.97,0.073,0.325,-14.1271,27.9454,29.5718,1008.74
346238,1.22429,-9.65088,1.10473,0.34,0.493,-0.935,-15.1063,28.0039,29.9372,1008.74
346244,1.1956,-9.68436,1.10473,-0.15,0.073,-0.935,-14.3609,27.507,30.2149,1008.74
346250,1.18604,-9.66523,1.10952,0.2,0.283,1.445,-14.7556,27.2439,29.9372,1008.74
346256,1.23386,-9.67001,1.09039,-0.00999987,0.073,-1.145,-13.9809,27.9454,30.2002,1008.72
346262,1.20038,-9.66045,1.1143,0.2,-0.0670002,-0.095,-14.3463,27.4777,29.791,1008.72
346268,1.23386,-9.65567,1.10952,-0.00999987,0.073,0.185,-14.6386,26.9369,29.5718,1008.75
346274,1.20516,-9.65567,1.11908,0.41,0.143,1.025,-13.7179,27.4485,28.9141,1008.75
346280,1.21473,-9.67958,1.11908,-0.5,0.633,-0.445,-14.0833,28.15,29.7179,1008.78
346286,1.20038,-9.68914,1.09517,-0.15,-0.277,-0.025,-14.6971,27.9747,29.5718,1008.78
346292,1.23386,-9.69392,1.08082,0.2,-0.277,0.535,-14.9017,27.0539,29.0456,1008.75
346298,1.20995,-9.6748,1.12865,0.2,0.143,-0.865,-14.434,27.9162,29.981,1008.75
346304,1.21473,-9.6461,1.14778,-0.57,0.423,0.185,-14.2586,27.5362,29.6449,1008.76
346310,1.23864,-9.66523,1.11908,-0.57,0.423,0.535,-14.3756,27.7408,29.7764,1008.76
346316,1.21951,-9.68914,1.10473,-0.22,0.073,-0.375,-14.5802,27.5946,29.5864,1008.75
346322,1.21473,-9.68914,1.10952,0.55,0.283,0.255,-14.0833,27.887,30.7849,1008.75
346328,1.20995,-9.69871,1.1143,0.62,-0.137,-0.165,-14.1709,28.0039,29.9079,1008.75
346334,1.23386,-9.69392,1.09995,0.0600001,-0.277,0.115,-15.3402,27.3608,30.2295,1008.78
346340,1.23386,-9.67001,1.11908,-0.57,0.283,0.185,-14.0102,27.6531,29.6302,1008.78
346346,1.23386,-9.66045,1.09995,-0.15,-0.137,-0.025,-15.1502,27.4485,28.7095,1008.74
346352,1.20995,-9.64132,1.09517,-0.22,-0.277,0.185,-14.931,27.7116,29.6887,1008.74
346358,1.22908,-9.67001,1.09995,0.0600001,-0.627,0.115,-14.6386,27.1562,28.4756,1008.73
346364,1.21951,-9.66523,1.12386,-0.15,-0.347,-0.025,-14.814,27.5946,28.7387,1008.73
346370,1.21951,-9.65088,1.1143,-0.36,-0.0670002,0.325,-14.6386,27.39,28.5779,1008.74
346376,1.22908,-9.67001,1.10952,-0.57,0.283,0.185,-14.7556,27.6531,28.9579,1008.74
346382,1.21951,-9.66523,1.14299,-0.36,0.143,0.325,-14.9017,27.7408,29.0748,1008.77
346388,1.1956,-9.67001,1.10952,-0.15,0.283,0.605,-14.6386,27.1123,28.841,1008.77
346394,1.21951,-9.66045,1.12865,-0.57,0.493,-1.145,-15.1356,27.0539,29.5718,1008.72
346400,1.23386,-9.66045,1.1143,-0.57,0.703,0.605,-14.1709,27.6239,28.8702,1008.72
346406,1.21473,-9.6748,1.09995,-0.71,0.143,0.675,-14.244,27.2146,28.841,1008.72
346412,1.21473,-9.66045,1.11908,0.34,-0.487,-0.025,-14.9017,27.3608,29.1918,1008.76
346418,1.20038,-9.6461,1.12386,-0.43,-0.0670002,0.535,-13.9517,27.2439,28.8995,1008.76
346424,1.21473,-9.65567,1.1143,0.27,0.843,0.535,-14.8433,27.0539,29.2649,1008.76
346430,1.20516,-9.66523,1.12865,-0.92,0.843,0.115,-14.6094,26.3231,29.4695,1008.76
346436,1.20516,-9.69392,1.11908,-0.15,0.423,0.325,-14.0833,26.9662,29.9079,1008.76
346442,1.19082,-9.68914,1.13343,0.0600001,-0.627,0.465,-14.4925,27.0539,29.3087,1008.76
346448,1.22908,-9.6748,1.10473,-0.22,0.283,-0.025,-15.0187,27.4193,29.7325,1008.75
346454,1.21951,-9.65567,1.1143,0.2,-1.187,-0.165,-14.9017,27.6531,29.0895,1008.75
346460,1.24821,-9.66045,1.1143,0.2,-0.137,0.185,-15.121,27.887,29.1918,1008.75
346466,1.20038,-9.66045,1.09517,0.0600001,0.983,-0.095,-15.2525,27.9747,29.791,1008.75
346472,1.20038,-9.66045,1.10473,-0.78,0.073,-0.795,-14.7263,27.4193,28.5779,1008.74
346478,1.20995,-9.68914,1.13343,0.34,-0.347,-0.515,-14.7848,27.3316,29.4549,1008.74
346484,1.21951,-9.65567,1.10952,-0.00999987,-0.627,0.185,-15.0187,27.4485,29.5718,1008.75
346490,1.20516,-9.65088,1.12865,0.2,-0.0670002,-0.165,-14.8433,26.8492,30.1856,1008.75
346496,1.21951,-9.67958,1.10952,0.48,-0.137,0.115,-14.9894,27.7116,29.4402,1008.75
346502,1.21951,-9.67001,1.10952,-0.78,0.353,1.095,-15.1356,27.8577,29.3087,1008.76
346508,1.20995,-9.68436,1.09517,-0.64,-0.0670002,0.185,-14.9894,27.6239,29.7472,1008.76
346514,1.22429,-9.69392,1.10473,-0.57,1.053,0.675,-15.6179,27.7116,29.7472,1008.73
346520,1.24342,-9.65567,1.1143,-0.22,0.073,0.465,-14.7556,27.2146,29.9518,1008.73
346526,1.20995,-9.67958,1.11908,0.27,1.053,1.235,-14.9017,28.72,29.3379,1008.76
346532,1.23386,-9.66045,1.09995,0.0600001,-0.977,-0.725,-14.7263,28.1793,28.8118,1008.76
346538,1.20038,-9.68914,1.12386,-0.36,0.773,-0.235,-14.4633,27.4193,29.2649,1008.73
346544,1.22908,-9.66045,1.09039,-0.5,0.073,-0.025,-13.8494,27.7993,28.9871,1008.73
346550,1.21951,-9.68436,1.10473,-0.29,0.493,-0.725,-14.5217,27.1854,29.8933,1008.73
346556,1.24342,-9.66045,1.09517,-0.43,-0.627,-0.235,-14.3317,27.6531,29.0456,1008.73
346562,1.25299,-9.67958,1.09995,0.2,0.703,-0.095,-14.2733,26.8785,29.5718,1008.76
346568,1.23864,-9.67001,1.08082,0.27,0.283,0.185,-14.7263,27.3608,29.1479,1008.76
346574,1.20995,-9.66045,1.09517,-0.15,-0.137,0.185,-14.624,27.3023,28.6071,1008.76
346580,1.21951,-9.69871,1.1143,0.0600001,0.073,0.535,-14.434,27.4777,28.8264,1008.76
346586,1.20995,-9.6748,1.08082,-0.36,0.073,-0.585,-14.1125,27.7408,28.7387,1008.76
346592,1.20995,-9.67001,1.10473,-0.99,0.283,0.535,-14.4925,27.3023,29.9518,1008.75
346598,1.20995,-9.66523,1.10473,1.39,-0.697,-0.235,-15.2233,26.6446,29.981,1008.75
346604,1.23864,-9.66523,1.12386,-0.78,0.493,0.535,-15.3402,27.4485,30.5364,1008.76
346610,1.21473,-9.6461,1.11908,-0.78,-0.277,-0.795,-15.1356,27.6823,29.5425,1008.76
346616,1.22908,-9.66045,1.1143,0.55,-0.977,-0.725,-14.8725,27.6239,29.8202,1008.77
346622,1.20995,-9.67001,1.10473,0.27,0.283,1.515,-14.1125,27.7993,29.6302,1008.77
346628,1.21951,-9.67001,1.10952,0.48,0.633,0.465,-14.6971,27.39,30.0541,1008.76
346634,1.21951,-9.68436,1.1143,-0.71,0.073,0.115,-15.5448,27.7408,29.0748,1008.76
346640,1.22429,-9.67001,1.10473,-0.15,-1.257,0.885,-14.9894,27.9162,29.1333,1008.76
346646,1.1956,-9.64132,1.12386,0.0600001,-0.557,-0.725,-14.8433,27.7116,29.221,1008.76
346652,1.20995,-9.66045,1.12865,-0.15,-0.137,1.235,-15.3694,27.4193,29.5133,1008.75
346658,1.21473,-9.6748,1.1143,-0.57,0.633,-0.235,-15.5887,27.5946,30.0249,1008.75
346664,1.20995,-9.66523,1.12865,-0.00999987,-0.487,0.185,-14.4633,27.5362,30.2733,1008.75
346670,1.21951,-9.67958,1.10952,-0.57,0.563,1.095,-15.4717,27.5946,29.601,1008.71
346676,1.21951,-9.67958,1.11908,-0.92,-0.417,0.535,-15.0479,27.2439,28.9287,1008.71
346682,1.1956,-9.67958,1.10952,-0.15,-1.607,-0.585,-15.1648,28.0331,29.3672,1008.76
346688,1.21473,-9.67001,1.11908,0.0600001,-0.627,0.885,-14.7556,27.507,29.7472,1008.76
346694,1.21473,-9.65567,1.10952,0.0600001,-0.347,-0.725,-15.8517,27.9162,29.3379,1008.77
346700,1.23386,-9.67001,1.10952,-0.71,0.843,1.025,-15.3402,26.7908,29.5572,1008.77
346706,1.21951,-9.67001,1.1143,-0.71,-0.0670002,0.185,-14.9017,27.77,29.9372,1008.76
346712,1.20038,-9.69871,1.09517,-0.71,1.053,0.395,-15.4571,27.77,30.2149,1008.76
346718,1.20038,-9.68436,1.06648,0.41,0.493,0.955,-15.0479,27.6823,29.1187,1008.73
346724,1.20995,-9.70349,1.11908,-1.13,0.493,0.605,-14.9017,27.7116,29.5133,1008.73
346730,1.22429,-9.6748,1.07604,-0.00999987,-0.277,0.185,-15.7056,27.6239,28.9725,1008.74
346736,1.20038,-9.66523,1.09517,-1.55,-0.137,0.465,-15.1648,27.8285,30.0541,1008.74
346742,1.20995,-9.69392,1.09517,-0.78,0.493,1.515,-15.1356,28.3547,29.8056,1008.78
346748,1.21473,-9.67958,1.07604,-0.00999987,-0.0670002,0.115,-15.1648,28.15,29.7033,1008.78
346754,1.20516,-9.67958,1.09039,-0.92,-0.137,1.095,-14.8725,28.2962,29.9956,1008.78
346760,1.21473,-9.70349,1.10952,-0.36,0.353,-0.935,-14.6971,27.9747,29.7618,1008.76
346766,1.21473,-9.68436,1.09039,-0.36,0.353,-0.375,-14.3756,27.1123,29.3672,1008.76
346772,1.1956,-9.67001,1.08082,-0.15,-0.207,0.115,-14.3756,27.9454,29.8933,1008.73
346778,1.21473,-9.67958,1.08082,-0.36,-0.0670002,0.395,-14.5802,28.5154,30.1126,1008.73
346784,1.22908,-9.67958,1.11908,-0.57,0.213,0.255,-14.7556,27.7116,29.9518,1008.75
346790,1.21951,-9.66523,1.07604,-0.00999987,-0.627,-0.235,-14.9017,27.9747,29.4841,1008.75
346796,1.21473,-9.67958,1.09517,0.0600001,-0.347,-0.025,-15.2233,27.887,29.5279,1008.77
346802,1.20038,-9.6748,1.1143,-0.22,0.703,0.115,-14.6094,28.0039,28.2271,1008.77
346808,1.21473,-9.6748,1.09039,-0.29,-0.277,-0.375,-15.4864,28.2377,30.1418,1008.76
346814,1.22429,-9.6748,1.0856,0.9,-0.487,-0.095,-14.9894,28.5885,29.1772,1008.76
346820,1.22429,-9.6748,1.09039,0.2,0.143,-0.025,-14.7263,28.0331,28.7241,1008.78
346826,1.20995,-9.66045,1.09039,-0.00999987,1.053,0.535,-14.4925,28.0623,29.791,1008.78
346832,1.20995,-9.67958,1.06648,-0.78,0.703,0.185,-14.6386,28.1793,28.8556,1008.78
346838,1.22429,-9.67001,1.10473,0.0600001,-0.137,0.325,-14.551,27.8285,29.8787,1008.76
346844,1.20038,-9.68436,1.1143,-0.22,-0.277,-0.445,-15.2233,28.15,29.1918,1008.76
346850,1.19082,-9.69871,1.09039,0.41,0.143,-0.025,-15.574,28.15,30.3172,1008.77
346856,1.22908,-9.69392,1.1143,-0.36,0.423,0.395,-14.6386,28.3254,29.9372,1008.77
346862,1.22429,-9.6461,1.10952,-0.36,0.633,0.115,-14.7263,27.2731,29.8787,1008.72
346868,1.1956,-9.67001,1.10952,0.41,-0.767,-0.445,-14.6971,27.4193,28.841,1008.72
346874,1.20516,-9.67958,1.09995,-0.43,0.493,0.325,-14.9894,27.77,29.3525,1008.73
346880,1.20038,-9.6748,1.13343,-0.15,-0.0670002,-0.165,-13.8932,27.2439,29.6156,1008.73
346886,1.20995,-9.66045,1.10473,0.0600001,-0.487,-1.145,-15.0625,28.2085,29.4402,1008.79
346892,1.20516,-9.6748,1.10952,-0.15,0.143,1.095,-15.0187,28.0623,30.1564,1008.79
346898,1.20516,-9.67001,1.11908,-0.36,-0.627,-1.145,-15.0771,28.3547,29.0748,1008.76
346904,1.22908,-9.66523,1.12386,0.41,0.073,0.465,-14.814,28.4424,28.8702,1008.76
346910,1.24342,-9.67958,1.11908,0.34,-0.137,-0.025,-15.0771,27.887,29.1479,1008.76
346916,1.20038,-9.66523,1.09039,-0.15,0.633,-0.445,-15.1502,27.9454,29.3379,1008.76
346922,1.20516,-9.66523,1.09517,0.62,-0.137,0.465,-15.0187,28.3547,30.0395,1008.76
346928,1.21473,-9.66045,1.09995,-0.15,-0.0670002,0.045,-15.2817,28.0916,29.8202,1008.77
346934,1.20995,-9.69392,1.10952,-0.36,0.773,0.325,-14.4633,28.0916,29.4402,1008.77
346940,1.20995,-9.67958,1.0856,0.13,-0.0670002,0.675,-14.8433,27.77,28.651,1008.71
346946,1.20995,-9.68914,1.07126,-0.00999987,0.213,-0.305,-15.0479,27.6531,29.0895,1008.71
346952,1.20038,-9.68914,1.09995,0.13,-0.277,-0.025,-14.931,28.0039,29.7472,1008.79
346958,1.1956,-9.67958,1.09995,0.27,-0.277,0.325,-15.3402,27.5654,29.3525,1008.79
346964,1.22429,-9.68436,1.10473,0.97,-1.607,-0.935,-14.434,28.2377,30.2879,1008.75
346970,1.20516,-9.6748,1.09517,0.27,0.073,-0.935,-14.9602,28.0039,30.0249,1008.75
346976,1.20995,-9.6748,1.11908,0.2,0.143,0.465,-15.3694,28.1208,30.6533,1008.77
346982,1.1956,-9.6748,1.09517,-0.00999987,0.283,-0.725,-14.2586,28.4131,29.4549,1008.77
346988,1.1956,-9.6748,1.0856,0.0600001,-0.0670002,-0.235,-14.7556,27.77,29.4549,1008.78
346994,1.20995,-9.68914,1.09995,0.48,0.493,1.025,-14.2294,28.0916,28.3441,1008.78
347000,1.19082,-9.65567,1.12865,-0.99,0.703,0.325,-13.7763,27.9454,29.3379,1008.78
347006,1.20038,-9.66045,1.09995,-0.5,-0.277,-0.585,-14.6386,27.5946,28.9141,1008.78
347012,1.21473,-9.67001,1.13343,-0.43,0.283,-0.585,-14.3609,27.0246,29.6887,1008.78
347018,1.21473,-9.66045,1.12865,-0.29,0.633,-0.585,-14.0102,27.6531,28.7679,1008.77
347024,1.20516,-9.66045,1.11908,0.2,-0.347,0.045,-14.931,28.15,29.1479,1008.77
347030,1.20516,-9.66523,1.10473,-0.78,-0.0670002,-0.235,-14.7848,27.507,29.7618,1008.75
347036,1.22429,-9.6748,1.09995,-0.43,0.073,-0.585,-14.4633,27.7116,28.5341,1008.75
347042,1.20995,-9.6748,1.09517,0.0600001,-1.047,-0.375,-14.5217,28.0623,28.5779,1008.77
347048,1.20995,-9.68436,1.09995,0.2,0.423,0.535,-15.0479,27.3316,28.5779,1008.77
347054,1.20995,-9.68436,1.10473,0.41,0.283,0.115,-15.7933,27.6823,28.8556,1008.73
347060,1.20995,-9.67001,1.0856,-0.71,0.423,0.115,-14.7848,27.9454,28.7387,1008.73
347066,1.21473,-9.66045,1.09995,0.34,-0.627,-0.375,-14.7848,27.9747,29.2649,1008.78
347072,1.21951,-9.6461,1.0856,-0.5,0.283,0.325,-14.551,27.6239,28.461,1008.78
347078,1.21951,-9.67001,1.09039,-0.00999987,0.493,-0.935,-14.2733,28.3547,28.6071,1008.75
347084,1.22429,-9.66523,1.10473,0.34,-0.137,1.095,-15.2671,28.1208,29.8056,1008.75
347090,1.20995,-9.6748,1.09517,0.27,0.143,0.465,-15.1648,27.7116,28.9141,1008.75
347096,1.21473,-9.67001,1.09039,-0.00999987,0.143,-0.935,-14.3756,27.9162,29.1041,1008.75
347102,1.20516,-9.6748,1.0856,-0.5,-0.627,0.115,-14.2294,27.7408,28.8995,1008.75
347108,1.1956,-9.68436,1.09039,0.76,-0.347,-1.215,-15.311,27.8577,28.7387,1008.78
347114,1.21951,-9.67001,1.09039,0.2,-0.277,-0.235,-14.6971,27.507,29.1918,1008.78
347120,1.20995,-9.6748,1.09517,-0.00999987,-0.627,0.745,-14.3171,27.7408,30.0395,1008.73
347126,1.20038,-9.67001,1.09995,-1.13,1.123,0.955,-14.3171,28.0916,29.5425,1008.73
347132,1.21473,-9.6748,1.08082,-0.43,0.773,1.585,-14.2586,27.7408,27.6133,1008.72
347138,1.21473,-9.67958,1.07604,-0.00999987,0.703,-0.305,-14.8725,28.0916,29.3818,1008.72
347144,1.20038,-9.67958,1.09995,0.0600001,0.843,-0.095,-14.624,28.0623,28.271,1008.75
347150,1.21473,-9.67001,1.09995,-0.00999987,0.423,-0.235,-14.7556,27.1854,29.3964,1008.75
347156,1.19082,-9.67958,1.10473,0.41,0.283,-0.025,-15.8517,27.77,29.3964,1008.78
347162,1.22908,-9.68436,1.09039,0.48,-1.047,0.535,-15.3987,27.5654,30.0249,1008.78
347168,1.23386,-9.6748,1.10473,-0.5,0.703,-0.095,-15.3402,28.2085,29.4695,1008.78
347174,1.20995,-9.6748,1.1143,0.0600001,-0.0670002,-0.375,-14.6971,27.5946,30.3318,1008.78
347180,1.21473,-9.68914,1.10473,0.83,-0.137,-1.145,-14.5802,27.1562,28.841,1008.78
347186,1.21473,-9.66523,1.10952,0.27,0.073,0.535,-14.4048,27.39,28.841,1008.75
347192,1.20995,-9.67958,1.1143,-0.71,1.193,-0.235,-15.4279,27.5946,29.4695,1008.75
347198,1.20995,-9.68914,1.10473,0.41,-0.627,-0.025,-14.9894,28.1208,28.841,1008.76
347204,1.21951,-9.65567,1.09995,-0.15,-0.137,-0.235,-14.814,27.887,28.5779,1008.76
347210,1.21473,-9.6748,1.11908,-0.57,0.843,0.395,-15.5156,27.9162,30.1126,1008.76
347216,1.22429,-9.67958,1.10952,-0.29,-0.277,-0.025,-14.6386,27.7408,28.9141,1008.76
347222,1.20038,-9.69392,1.09039,0.48,-0.627,0.115,-14.6094,27.6823,29.8495,1008.76
347228,1.1956,-9.67958,1.0856,-0.36,-0.0670002,0.185,-15.0187,27.9162,29.3087,1008.76
347234,1.21473,-9.66045,1.10952,0.62,0.143,-0.235,-14.8725,27.4485,29.7179,1008.74
347240,1.20995,-9.6748,1.07126,-0.43,-0.487,-0.585,-14.8725,27.0539,29.1041,1008.74
347246,1.20038,-9.6748,1.09039,-0.00999987,-0.767,0.675,-15.2525,28.15,28.8848,1008.77
347252,1.1956,-9.69871,1.0856,-0.5,-0.137,-0.025,-15.1063,27.7993,29.0456,1008.77
347258,1.20995,-9.66523,1.1143,-0.57,0.073,0.325,-14.9602,27.507,29.2064,1008.77
347264,1.24342,-9.65567,1.0856,0.62,0.773,-0.445,-14.3463,27.5946,28.271,1008.74
347270,1.20038,-9.62697,1.11908,0.62,-0.137,-0.935,-14.931,27.6823,28.1979,1008.74
347276,1.23386,-9.68914,1.0856,-1.27,0.493,-0.095,-14.7848,28.0039,28.4902,1008.78
347282,1.19082,-9.67958,1.11908,-0.92,0.073,0.115,-14.5802,28.0039,29.2064,1008.78
347288,1.20038,-9.66523,1.09039,0.2,0.843,0.395,-14.551,28.0039,28.3879,1008.77
347294,1.20038,-9.68914,1.10952,0.34,-0.0670002,-0.725,-14.7263,27.7116,28.7095,1008.77
347300,1.20516,-9.68436,1.1143,-0.29,-0.137,0.465,-14.4633,27.3316,29.3379,1008.77
347306,1.20995,-9.68914,1.09995,0.13,-0.627,-0.585,-14.434,27.4777,28.0079,1008.77
347312,1.18604,-9.68914,1.09517,0.76,-0.277,-1.145,-15.5448,27.4485,29.8495,1008.77
347318,1.20516,-9.6461,1.09517,0.2,0.843,0.675,-14.3025,27.77,28.6802,1008.77
347324,1.20516,-9.66523,1.1143,-0.5,-0.627,-0.795,-14.1709,27.8577,28.3002,1008.73
347330,1.22429,-9.67958,1.09517,0.41,0.633,1.515,-14.6679,28.1208,29.2502,1008.73
347336,1.20038,-9.6748,1.06648,0.41,-0.487,0.115,-14.551,27.887,28.5633,1008.75
347342,1.23864,-9.67958,1.10952,1.39,0.213,-0.935,-15.2233,28.2377,28.9287,1008.75
347348,1.20038,-9.70349,1.07604,0.97,-0.0670002,-0.025,-14.4925,28.2377,28.6218,1008.75
347354,1.23864,-9.68914,1.09039,-0.00999987,0.703,0.395,-15.1356,27.3023,29.031,1008.77
347360,1.23386,-9.68914,1.09995,0.41,-0.0670002,-0.585,-14.6386,27.887,28.5341,1008.77
347366,1.20516,-9.67958,1.09995,0.34,0.143,-0.515,-14.814,27.8285,29.5864,1008.78
347372,1.21951,-9.69392,1.1143,0.0600001,0.073,-0.795,-14.814,28.15,29.1625,1008.78
347378,1.22429,-9.70349,1.0856,-0.15,-0.207,-0.935,-15.0187,27.7116,30.0395,1008.74
347384,1.20516,-9.6748,1.10473,0.48,-0.627,-1.145,-13.7471,27.9747,29.1918,1008.74
347390,1.21951,-9.65088,1.09039,0.76,0.073,0.395,-14.2002,27.7408,27.9202,1008.79
347396,1.22429,-9.65088,1.10473,0.2,0.493,-0.935,-14.9894,27.9162,28.4464,1008.79
347402,1.22429,-9.66045,1.11908,0.27,0.773,0.535,-15.2963,27.39,28.7533,1008.75
347408,1.22908,-9.67001,1.10952,0.41,-0.0670002,-0.445,-14.0394,27.6239,29.3818,1008.75
347414,1.20995,-9.6461,1.1143,0.0600001,0.633,0.115,-15.1063,27.5654,29.8056,1008.76
347420,1.22429,-9.6461,1.09995,-0.00999987,0.423,0.045,-14.5802,27.887,29.5133,1008.76
347426,1.22429,-9.68914,1.09995,-0.15,-0.277,-0.375,-14.2586,27.5946,29.6156,1008.76
347432,1.20995,-9.66523,1.09039,0.41,0.073,0.325,-14.7263,27.1269,29.6156,1008.77
347438,1.22429,-9.6461,1.10952,0.2,-0.627,-0.655,-14.7263,27.507,29.2941,1008.77
347444,1.24342,-9.65088,1.09995,0.48,-0.0670002,0.325,-15.3987,27.39,29.9372,1008.76
347450,1.24342,-9.65567,1.10473,0.55,0.493,0.325,-14.9894,27.507,29.7325,1008.76
347456,1.21951,-9.66523,1.11908,-0.00999987,0.283,0.745,-15.3402,27.8285,29.1625,1008.76
347462,1.22908,-9.66523,1.12386,-0.15,0.493,-1.355,-15.881,27.6239,29.5279,1008.76
347468,1.25299,-9.66523,1.10952,-0.57,-0.0670002,-0.165,-14.551,27.4777,28.5341,1008.76
347474,1.23864,-9.64132,1.09995,-0.22,-0.627,-1.565,-15.4571,26.8785,29.031,1008.76
347480,1.23864,-9.6748,1.1143,0.34,-0.277,-0.935,-14.8433,27.2439,28.0956,1008.75
347486,1.23864,-9.67001,1.09517,-0.15,0.213,-0.025,-14.551,27.6239,27.8179,1008.75
347492,1.20995,-9.67001,1.10473,-0.71,0.073,0.955,-15.0771,27.1269,28.5048,1008.75
347498,1.22429,-9.67001,1.14299,-0.15,-0.487,0.325,-14.9602,27.2731,29.7325,1008.75
347504,1.21951,-9.66523,1.1143,-0.57,-0.487,-0.025,-14.7556,27.9747,28.8556,1008.73
347510,1.21951,-9.67001,1.1143,0.2,0.703,0.675,-15.6179,27.7116,29.5572,1008.73
347516,1.20995,-9.62219,1.14299,-0.78,0.073,-1.075,-15.0479,27.3608,28.6218,1008.73
347522,1.21473,-9.67001,1.10473,-1.13,0.493,-0.095,-15.194,27.0246,28.3294,1008.76
347528,1.21473,-9.62697,1.12386,0.34,-0.907,-0.795,-15.384,27.3316,29.4402,1008.76
347534,1.25299,-9.64132,1.13343,-0.29,0.143,-0.375,-15.0479,27.2439,29.3672,1008.75
347540,1.24342,-9.70827,1.09995,-1.2,0.703,0.325,-14.814,27.507,29.4841,1008.75
347546,1.23386,-9.65088,1.10952,-0.71,1.123,0.185,-14.9894,28.1793,29.8349,1008.75
347552,1.18604,-9.6461,1.12386,-0.71,0.633,0.045,-15.1648,27.5946,29.6741,1008.75
347558,1.21951,-9.6748,1.10473,-0.78,-0.0670002,0.465,-15.2525,27.6531,30.0979,1008.77
347564,1.21473,-9.6748,1.1143,-0.36,0.283,0.255,-14.551,27.77,29.5718,1008.77
347570,1.25299,-9.68914,1.09039,-0.15,0.423,0.325,-15.2817,27.7116,29.221,1008.75
347576,1.21951,-9.6748,1.09995,-0.15,0.143,0.115,-14.9894,26.9954,28.6802,1008.75
347582,1.21473,-9.68436,1.10952,-0.36,-0.0670002,-1.005,-14.4925,28.0039,28.8264,1008.77
347588,1.21951,-9.67958,1.09995,-0.00999987,-0.0670002,-0.585,-14.9017,27.4777,29.7325,1008.77
347594,1.23386,-9.67958,1.10473,-0.99,-0.487,0.885,-15.3694,27.6531,28.9579,1008.77
347600,1.24342,-9.63175,1.12386,-0.43,0.983,0.535,-14.7848,27.4777,28.8702,1008.75
347606,1.24342,-9.67001,1.1143,-0.99,0.283,-0.445,-15.0187,27.507,29.5425,1008.75
347612,1.24342,-9.68914,1.09517,-0.15,0.073,0.605,-15.1648,27.5946,29.9372,1008.75
347618,1.20995,-9.67001,1.11908,-0.92,0.493,0.325,-15.4133,27.5946,29.8056,1008.75
347624,1.23864,-9.68436,1.09517,0.41,-0.0670002,0.535,-14.9017,27.9162,29.1918,1008.76
347630,1.20995,-9.69871,1.0856,0.62,-0.697,-0.165,-14.931,27.507,29.5425,1008.76
347636,1.22429,-9.70827,1.0856,-0.15,-0.277,-0.025,-15.7494,27.6531,30.2295,1008.76
347642,1.24342,-9.66523,1.10473,-0.57,-0.487,-0.655,-14.4925,27.5654,29.0164,1008.76
347648,1.23386,-9.6461,1.10952,-0.71,0.423,1.235,-14.9017,27.5946,30.2002,1008.76
347654,1.23864,-9.66523,1.09039,-0.36,-0.277,-0.165,-14.8725,27.2731,28.6218,1008.76
347660,1.24342,-9.66523,1.0856,-0.15,0.493,-1.565,-14.8433,27.5946,29.3818,1008.76
347666,1.22429,-9.66523,1.09039,-0.71,-0.0670002,-0.585,-14.6094,27.3608,29.3233,1008.76
347672,1.23864,-9.67958,1.09517,0.27,0.213,0.115,-14.5802,27.9162,29.9226,1008.74
347678,1.22429,-9.6748,1.08082,-0.15,-0.0670002,-0.235,-15.2671,27.3608,29.411,1008.74
347684,1.23864,-9.65088,1.07126,-0.22,0.283,-0.025,-14.9894,27.39,30.2587,1008.74
347690,1.24821,-9.6748,1.10952,-0.29,0.633,0.115,-15.3402,27.6239,29.3964,1008.74
347696,1.22908,-9.67001,1.10952,-0.00999987,-0.0670002,-1.005,-15.6764,26.9369,28.9287,1008.74
347702,1.22908,-9.6748,1.09995,-0.22,0.073,0.325,-14.8725,27.2731,29.1187,1008.79
347708,1.22908,-9.68436,1.09517,-0.22,-0.0670002,-0.095,-15.0187,27.2146,28.9141,1008.79
347714,1.23386,-9.6748,1.09995,0.76,-0.137,-0.305,-15.4864,27.9162,29.1479,1008.74
347720,1.24342,-9.6748,1.10473,-1.06,0.283,0.395,-15.4279,27.8577,29.4841,1008.74
347726,1.21951,-9.65567,1.09039,-0.92,-0.277,-0.025,-15.2233,28.0331,29.5572,1008.77
347732,1.22908,-9.66045,1.08082,0.76,0.283,-0.725,-14.6679,27.4485,29.6302,1008.77
347738,1.1956,-9.65088,1.10952,-0.71,-0.137,0.115,-15.5156,27.5946,28.7679,1008.77
347744,1.21473,-9.66045,1.10952,-0.00999987,-0.347,0.185,-14.4925,27.2439,29.6887,1008.77
347750,1.22908,-9.67001,1.10952,-0.36,0.633,-0.585,-14.8725,27.887,28.9871,1008.75
347756,1.22429,-9.65088,1.09995,0.83,-0.277,-0.375,-15.5594,27.2731,29.0456,1008.75
347762,1.21951,-9.65567,1.13343,0.27,-1.257,0.115,-15.0187,27.77,29.1187,1008.75
347768,1.21951,-9.65088,1.10952,-0.36,-0.417,1.235,-15.0479,27.507,29.0602,1008.79
347774,1.23864,-9.65088,1.09995,-0.22,0.423,-1.355,-14.5802,27.4485,29.0895,1008.79
347780,1.21473,-9.66045,1.10473,-0.36,-0.277,1.165,-14.931,27.8285,29.1333,1008.76
347786,1.21951,-9.6748,1.0856,-0.64,0.493,-0.235,-15.3402,27.8577,28.7387,1008.76
347792,1.24821,-9.65567,1.10473,-1.06,-0.277,-0.025,-15.311,27.9454,29.3087,1008.77
347798,1.22429,-9.69871,1.09039,-0.00999987,0.073,1.095,-14.931,27.3608,28.9725,1008.77
347804,1.23386,-9.65567,1.08082,-0.71,-0.417,-0.025,-14.3025,27.1562,29.2502,1008.74
347810,1.22429,-9.67958,1.09039,-1.76,0.633,-0.585,-15.3402,26.82,28.7241,1008.74
347816,1.21951,-9.70349,1.07126,1.32,-0.277,1.025,-15.3694,28.2377,28.4025,1008.76
347822,1.25299,-9.66523,1.09517,0.0600001,-0.417,-0.515,-14.7263,28.4424,28.7533,1008.76
347828,1.22429,-9.68914,1.10473,-0.57,0.493,-0.165,-15.0479,28.2377,28.9871,1008.79
347834,1.22429,-9.69392,1.0856,0.48,0.143,0.395,-15.0771,27.4485,29.0456,1008.79
347840,1.20995,-9.6748,1.06648,-0.36,-0.277,1.095,-15.0479,28.0039,29.4695,1008.77
347846,1.20516,-9.68914,1.09995,-0.22,-0.0670002,-0.655,-14.9602,28.1208,29.1041,1008.77
347852,1.21951,-9.67001,1.12386,-0.00999987,0.493,1.375,-15.3402,27.887,29.1479,1008.77
347858,1.21473,-9.66523,1.09039,0.41,-0.137,-0.235,-14.814,27.9162,29.5718,1008.74
347864,1.21951,-9.68436,1.1143,0.2,-0.277,-0.935,-15.3987,27.6239,29.7179,1008.74
347870,1.22908,-9.68436,1.09517,1.11,0.073,0.535,-14.7848,27.3608,29.3087,1008.73
347876,1.21473,-9.65567,1.09039,-0.71,1.613,1.445,-14.931,27.3023,29.4987,1008.73
347882,1.21951,-9.66045,1.09039,0.55,-0.207,-2.125,-14.8433,27.6531,29.1041,1008.73
347888,1.20516,-9.6461,1.10952,-0.5,1.263,1.655,-15.1648,28.2962,28.9871,1008.73
347894,1.22429,-9.66045,1.09995,-0.71,0.633,-0.795,-14.9017,27.8285,29.8056,1008.77
347900,1.20995,-9.68436,1.09039,-0.22,0.283,0.675,-15.194,27.8577,28.4171,1008.77
347906,1.22429,-9.6748,1.10952,-0.92,-0.627,1.235,-14.6679,27.887,29.0164,1008.74
347912,1.21951,-9.68914,1.07126,-0.00999987,0.493,-0.025,-15.1063,28.15,29.8202,1008.74
347918,1.1956,-9.69392,1.08082,-0.22,-0.487,0.745,-15.1356,27.9162,29.2356,1008.76
347924,1.22429,-9.66045,1.08082,0.55,0.353,0.185,-14.6971,27.3608,29.0164,1008.76
347930,1.20038,-9.68436,1.09995,-0.71,-0.627,-0.375,-15.0479,28.0623,29.8495,1008.76
347936,1.20995,-9.66523,1.09517,-0.00999987,0.633,-0.025,-15.0479,26.7616,29.7618,1008.78
347942,1.20038,-9.6748,1.0856,-0.57,0.703,1.235,-14.6386,27.5654,28.7825,1008.78
347948,1.20995,-9.66045,1.09039,0.41,-0.697,-1.075,-15.0187,27.7408,29.7764,1008.76
347954,1.22908,-9.66523,1.08082,-0.36,-0.347,-0.165,-14.814,27.9454,28.8995,1008.76
347960,1.22429,-9.68914,1.08082,-0.00999987,0.703,-0.515,-15.1063,27.3316,28.9725,1008.78
347966,1.22908,-9.69392,1.06648,-0.15,-0.0670002,1.095,-15.2379,27.3608,28.9871,1008.78
347972,1.21473,-9.66523,1.09039,-0.29,0.073,-0.235,-15.4425,27.507,29.1918,1008.77
347978,1.21473,-9.67001,1.0856,0.0600001,-0.137,0.395,-14.9017,27.3023,29.0602,1008.77
347984,1.21473,-9.67001,1.10952,0.2,-0.627,-0.235,-14.6971,27.3023,30.0395,1008.72
347990,1.23386,-9.69871,1.10473,0.13,-0.977,0.185,-14.6679,27.1854,30.4341,1008.72
347996,1.23386,-9.6748,1.07604,0.55,0.143,0.325,-15.2817,28.0623,29.9226,1008.73
348002,1.21951,-9.66045,1.09995,0.62,-0.277,-0.235,-14.9017,27.5654,28.651,1008.73
348008,1.22429,-9.67001,1.08082,-0.15,0.283,0.675,-15.8225,27.9454,28.4171,1008.78
348014,1.20995,-9.68914,1.09517,-0.22,0.703,0.185,-14.7848,26.9369,29.5133,1008.78
348020,1.1956,-9.66523,1.09995,0.41,-0.487,0.535,-14.8433,27.4485,28.7241,1008.78
348026,1.21951,-9.65567,1.09995,0.34,-0.837,0.185,-15.0333,28.0623,28.9725,1008.77
348032,1.21951,-9.66045,1.10473,0.27,-0.907,-1.495,-15.3987,27.6239,29.5425,1008.77
348038,1.20995,-9.67001,1.09039,-0.57,0.983,-0.025,-14.6971,27.5946,28.9871,1008.72
348044,1.19082,-9.6461,1.1143,-0.15,-0.0670002,-0.235,-14.6094,27.5362,29.4256,1008.72
348050,1.22429,-9.65567,1.09995,0.48,-0.627,0.325,-15.0187,27.8577,29.601,1008.75
348056,1.21951,-9.68436,1.10473,-1.13,0.213,1.375,-15.0479,27.4777,29.3379,1008.75
348062,1.22429,-9.68436,1.10473,-0.36,0.143,-0.655,-14.4925,27.1269,29.1625,1008.77
348068,1.21951,-9.6748,1.08082,0.69,-0.417,1.165,-14.9894,27.3608,29.3233,1008.77
348074,1.22429,-9.68436,1.07604,-0.5,0.983,0.045,-14.7848,27.507,28.2271,1008.73
348080,1.21473,-9.70349,1.07604,-0.29,-0.0670002,-0.025,-14.1125,27.8577,29.0895,1008.73
348086,1.20516,-9.67001,1.0856,-0.15,0.143,0.465,-14.8871,28.0623,30.0249,1008.77
348092,1.21951,-9.66045,1.10952,0.0600001,0.143,-0.935,-14.4048,27.4485,28.8118,1008.77
348098,1.22908,-9.66045,1.11908,0.0600001,-0.977,0.115,-14.5217,26.7616,29.6887,1008.77
348104,1.21473,-9.66523,1.09517,-0.71,0.633,-0.095,-15.0187,27.2146,29.3672,1008.71
348110,1.22429,-9.66523,1.10952,-0.36,-0.277,-0.235,-14.2879,27.39,29.3818,1008.71
348116,1.20995,-9.67001,1.1143,-0.00999987,-0.207,0.675,-14.2586,27.2439,29.8349,1008.71
348122,1.22429,-9.66045,1.1143,-0.5,-0.627,-0.235,-14.9894,26.9369,29.5864,1008.71
348128,1.21951,-9.66523,1.09517,0.27,0.283,-0.235,-15.1356,26.5862,29.6595,1008.75
348134,1.20995,-9.6748,1.09517,1.04,-0.277,-0.305,-14.6094,26.6446,28.5341,1008.75
348140,1.21473,-9.67958,1.07604,0.27,0.423,0.885,-13.9225,27.5654,29.3379,1008.74
348146,1.20038,-9.68914,1.1143,1.11,-0.277,-1.145,-14.6094,27.4485,29.9226,1008.74
348152,1.20516,-9.6748,1.08082,1.39,-0.487,0.395,-14.6386,26.7031,29.8933,1008.77
348158,1.18125,-9.70349,1.10473,0.2,-0.137,0.185,-14.2733,27.0246,29.2649,1008.77
348164,1.24342,-9.68436,1.10952,0.2,-0.137,-0.445,-15.3987,27.0246,28.7241,1008.77
348170,1.20516,-9.67001,1.10473,-0.36,0.493,1.585,-14.4925,27.5946,28.6656,1008.77
348176,1.20516,-9.67958,1.09995,0.97,-0.277,-0.235,-14.7848,26.5277,28.6218,1008.78
348182,1.19082,-9.67958,1.09039,0.69,-0.277,-0.445,-14.9894,27.1269,29.9372,1008.78
348188,1.1956,-9.67958,1.10952,0.0600001,-0.137,-0.025,-14.5802,27.8577,28.651,1008.78
348194,1.20995,-9.66045,1.11908,0.55,-0.137,0.535,-14.434,27.4485,28.3879,1008.76
348200,1.23386,-9.65088,1.09995,-0.43,-0.277,-1.145,-14.2879,27.4777,29.791,1008.76
348206,1.23386,-9.68914,1.10473,0.83,-0.0670002,0.465,-14.8725,27.7116,29.3672,1008.78
348212,1.23864,-9.67958,1.0856,-0.5,1.893,1.375,-14.624,27.8577,28.7825,1008.78
348218,1.21951,-9.68436,1.10473,-0.15,0.633,-1.705,-14.434,27.4193,30.0103,1008.77
348224,1.23864,-9.69392,1.09039,-0.36,0.073,-0.655,-14.551,27.7993,29.0895,1008.77
348230,1.21473,-9.68436,1.1143,1.67,-0.277,0.325,-14.9894,27.6239,30.0249,1008.74
348236,1.20038,-9.65567,1.1143,-0.36,-0.137,-0.515,-14.3756,28.4716,30.0687,1008.74
348242,1.22908,-9.66045,1.09039,0.62,-0.417,0.815,-14.9017,27.9162,30.0103,1008.76
348248,1.22908,-9.6748,1.09995,0.0600001,0.143,0.325,-14.0833,27.5946,28.7825,1008.76
348254,1.1956,-9.66523,1.10952,-0.64,0.493,-0.025,-14.7848,27.1854,30.1564,1008.74
348260,1.23386,-9.67001,1.10952,0.55,0.283,-1.705,-14.6094,27.4193,29.7472,1008.74
348266,1.21473,-9.66523,1.11908,0.41,0.423,1.375,-14.4048,27.7408,29.6302,1008.76
348272,1.22429,-9.67958,1.09039,-0.00999987,-0.417,-0.795,-14.4925,27.7116,29.2795,1008.76
348278,1.22429,-9.65088,1.07604,0.41,0.493,-0.165,-13.8348,27.39,29.5718,1008.76
348284,1.21951,-9.67958,1.09995,0.55,-0.697,0.185,-14.1271,28.0331,29.601,1008.76
348290,1.22908,-9.6748,1.10952,0.76,-0.207,-1.285,-14.6971,27.7408,29.1479,1008.76
348296,1.22429,-9.65567,1.09995,-0.15,0.073,-0.935,-15.0333,27.5946,29.0895,1008.76
348302,1.23386,-9.6748,1.1143,-0.57,0.493,0.115,-14.4048,28.0623,28.8702,1008.76
348308,1.22429,-9.66523,1.09517,0.69,-0.487,-1.565,-14.6679,27.7408,29.5572,1008.78
348314,1.22908,-9.66523,1.10952,-0.71,0.00299978,1.165,-15.1063,27.2146,29.5279,1008.78
348320,1.22908,-9.67001,1.12386,0.55,-0.277,-0.095,-14.0394,27.6823,29.601,1008.77
348326,1.23386,-9.65567,1.09517,-0.0799999,-0.347,-0.515,-14.3756,27.4777,29.2502,1008.77
348332,1.23386,-9.67001,1.09517,1.32,-0.627,-0.445,-15.3694,27.0831,28.8118,1008.76
348338,1.20995,-9.66523,1.09039,-0.36,-0.277,-0.655,-14.7556,28.2962,29.3525,1008.76
348344,1.20995,-9.68914,1.10952,0.0600001,-0.277,-0.585,-14.2733,28.15,29.4256,1008.74
348350,1.21951,-9.69392,1.09517,-0.57,0.493,0.395,-15.311,28.0623,28.7679,1008.74
348356,1.21951,-9.68436,1.10473,-0.29,1.263,0.325,-15.4133,27.2146,29.2064,1008.74
348362,1.22908,-9.6461,1.12386,-0.0799999,0.283,-0.865,-14.4633,26.7908,28.8118,1008.73
348368,1.20995,-9.65088,1.12386,-0.57,-0.277,0.325,-14.7556,27.4777,29.7325,1008.73
348374,1.21951,-9.66523,1.12386,-0.99,0.283,-1.145,-14.4048,27.9747,28.7095,1008.76
348380,1.22429,-9.66045,1.13343,0.2,-0.277,0.675,-14.6386,27.4485,28.7095,1008.76
348386,1.22908,-9.65088,1.10952,-0.22,-0.417,0.325,-14.7263,27.5946,28.7825,1008.81
348392,1.20516,-9.67958,1.09517,0.41,0.913,-0.725,-14.814,27.6531,29.4841,1008.81
348398,1.20995,-9.67958,1.09517,-0.0799999,0.423,0.395,-14.5217,28.0331,29.7325,1008.76
348404,1.20516,-9.67001,1.09517,-0.00999987,-0.417,0.185,-13.8494,27.4193,29.5279,1008.76
348410,1.21473,-9.66523,1.10473,-0.5,0.843,-0.375,-14.3171,26.8785,28.1541,1008.75
348416,1.21951,-9.63654,1.09517,-1.06,0.703,0.745,-14.6386,27.6239,29.1625,1008.75
348422,1.21951,-9.65088,1.10473,-0.00999987,-0.137,-0.935,-14.2294,27.4777,29.0164,1008.75
348428,1.22429,-9.65567,1.12865,-1.27,-0.0670002,0.325,-14.6386,27.6239,30.171,1008.75
348434,1.23386,-9.67001,1.10473,-1.13,0.913,1.585,-13.7763,27.4193,29.601,1008.72
348440,1.17647,-9.71784,1.10952,0.2,0.423,0.185,-14.4048,27.8577,29.7618,1008.72
348446,1.26734,-9.68914,1.08082,0.2,-0.347,0.045,-13.9517,28.2085,29.1625,1008.72
348452,1.19082,-9.63654,1.11908,-0.5,0.423,1.795,-14.7848,27.5362,29.0602,1008.78
348458,1.22908,-9.65567,1.10473,-1.06,0.913,-0.795,-13.9663,27.9162,29.2064,1008.78
348464,1.20516,-9.67001,1.10473,-0.92,-0.0670002,-0.725,-14.5802,27.9162,29.2941,1008.74
348470,1.22429,-9.66045,1.10473,0.27,-0.627,0.185,-14.4633,27.887,28.7241,1008.74
348476,1.17647,-9.67001,1.10952,-1.48,-0.697,-1.495,-14.4633,27.7993,30.3464,1008.77
348482,1.23386,-9.68914,1.09995,-0.15,0.283,0.535,-14.6679,28.2377,29.1479,1008.77
348488,1.21951,-9.65567,1.13343,-0.78,0.073,1.585,-14.6094,27.6823,28.7533,1008.75
348494,1.22908,-9.65088,1.1143,-0.78,0.843,-0.935,-15.4133,28.0623,29.6449,1008.75
348500,1.22908,-9.66523,1.09517,-1.06,-0.137,-1.565,-15.0479,27.7408,29.4402,1008.75
348506,1.20995,-9.68914,1.07604,-0.00999987,0.143,0.745,-15.9394,27.8285,29.7179,1008.75
348512,1.23864,-9.68436,1.09995,-1.13,-0.137,-1.915,-15.1356,27.0246,29.411,1008.77
348518,1.20995,-9.66523,1.12386,0.62,-0.277,-0.235,-14.6971,27.0246,29.2356,1008.77
348524,1.21951,-9.6748,1.0856,-0.36,-0.137,2.355,-14.7263,27.1562,28.9871,1008.77
348530,1.22429,-9.6748,1.08082,-0.15,-0.417,-0.655,-14.3756,27.0539,29.6741,1008.77
348536,1.22429,-9.69392,1.09039,-0.36,0.983,-1.285,-14.6679,27.0539,28.7825,1008.77
348542,1.1956,-9.68436,1.10473,0.48,-0.277,-0.655,-14.2586,27.5654,29.2649,1008.75
348548,1.22908,-9.69871,1.11908,-0.0799999,0.283,1.235,-14.6094,27.5362,28.7679,1008.75
348554,1.20995,-9.68914,1.09039,-0.15,0.213,0.325,-14.3463,27.4193,28.1979,1008.75
348560,1.21473,-9.66523,1.10952,-0.15,0.00299978,0.115,-14.551,27.3023,29.411,1008.75
348566,1.24342,-9.6748,1.1143,-0.00999987,-0.697,0.535,-14.8433,26.9077,29.8056,1008.76
348572,1.22429,-9.66523,1.09995,-0.71,0.703,0.325,-14.6679,27.2439,29.8641,1008.76
348578,1.20038,-9.65567,1.09995,0.2,-0.627,-0.935,-14.5802,28.0039,29.9664,1008.76
348584,1.22908,-9.67001,1.10952,0.0600001,0.283,0.325,-14.6094,27.9162,29.7325,1008.76
348590,1.21473,-9.66523,1.09517,-0.71,-0.837,-0.375,-14.2586,27.2731,29.7325,1008.78
348596,1.21473,-9.66045,1.09517,-0.00999987,-0.557,0.115,-14.7556,27.9162,29.7472,1008.78
348602,1.21951,-9.67958,1.09517,-0.57,0.283,1.655,-15.0479,28.3839,29.1918,1008.79
348608,1.23386,-9.68914,1.09517,0.76,-0.137,-0.725,-15.0187,27.2731,28.9433,1008.79
348614,1.21951,-9.68436,1.0856,-1.13,0.143,0.535,-15.4425,27.6239,29.3672,1008.79
348620,1.20038,-9.6748,1.0856,-0.22,-0.837,0.465,-14.7117,27.1562,29.1918,1008.76
348626,1.21951,-9.68914,1.08082,0.2,-0.487,-2.125,-15.1648,27.6531,29.4256,1008.76
348632,1.22429,-9.67958,1.1143,1.04,-0.627,-0.795,-14.5217,27.5362,29.4549,1008.73
348638,1.23386,-9.68436,1.07604,-0.15,-0.627,0.325,-14.7556,27.3023,29.3818,1008.73
348644,1.22429,-9.6748,1.09995,0.2,-0.137,0.535,-14.8725,28.6616,30.1272,1008.75
348650,1.22908,-9.67958,1.07604,-0.00999987,-0.557,1.795,-15.1063,27.2731,30.0395,1008.75
348656,1.21951,-9.68436,1.1143,-0.57,0.493,0.325,-15.9394,27.6239,30.4049,1008.74
348662,1.20038,-9.67958,1.0856,0.13,-0.627,-1.005,-15.1648,27.5654,29.9518,1008.74
348668,1.20516,-9.66523,1.09039,0.41,0.353,1.095,-14.7263,27.2439,29.8787,1008.76
348674,1.21951,-9.65567,1.09995,-0.00999987,0.073,0.115,-15.0479,26.6154,30.1272,1008.76
348680,1.20038,-9.66523,1.08082,0.2,-0.137,-0.235,-15.0187,26.7616,29.0164,1008.76
348686,1.20995,-9.68436,1.0856,-0.00999987,-0.137,0.675,-15.2817,27.2731,28.8556,1008.76
348692,1.20995,-9.67958,1.09995,0.13,0.493,0.045,-15.194,27.2731,29.5864,1008.76
348698,1.21951,-9.68914,1.10473,0.55,-0.277,-0.235,-14.9894,27.2146,30.4633,1008.77
348704,1.20995,-9.67001,1.08082,-0.29,0.423,-0.025,-14.931,27.1562,29.6595,1008.77
348710,1.21473,-9.66045,1.08082,-0.64,0.423,2.005,-15.764,27.6531,29.0164,1008.78
348716,1.20995,-9.68436,1.10473,1.04,0.633,-0.095,-14.4048,28.2085,29.1625,1008.78
348722,1.22908,-9.68436,1.09039,-0.22,-0.837,-1.145,-14.2002,27.4193,28.5341,1008.75
348728,1.22908,-9.69392,1.0856,0.34,0.283,-0.375,-14.1417,28.4424,29.221,1008.75
348734,1.21951,-9.67001,1.07126,-0.0799999,-0.837,-0.375,-14.3756,27.7408,29.9664,1008.73
348740,1.23864,-9.67958,1.08082,-0.36,-0.277,-0.235,-13.8932,27.6823,29.4256,1008.73
348746,1.22429,-9.66523,1.10473,-0.15,0.283,-0.935,-14.8725,27.6823,29.7472,1008.77
348752,1.22908,-9.67958,1.10473,0.62,0.633,0.395,-15.1794,26.7031,28.7679,1008.77
348758,1.21951,-9.66523,1.09039,-0.71,-0.347,-0.795,-14.5802,27.3316,30.0687,1008.76
348764,1.21473,-9.67958,1.09995,-0.0799999,0.213,-0.235,-15.1063,27.4777,30.0249,1008.76
348770,1.21951,-9.68914,1.0856,-0.5,0.423,-0.445,-14.9894,27.9162,29.8933,1008.76
348776,1.20516,-9.68436,1.10952,0.48,-0.907,0.115,-14.7263,28.1208,28.9141,1008.76
348782,1.19082,-9.65088,1.13343,0.34,-0.837,0.535,-14.6679,27.7408,29.6449,1008.76
348788,1.21951,-9.68436,1.09517,1.18,-0.557,-0.305,-15.6471,27.9162,30.6387,1008.73
348794,1.19082,-9.69871,1.09995,0.62,-0.0670002,-0.375,-15.2817,27.6239,30.551,1008.73
348800,1.17647,-9.66045,1.09517,0.62,-0.277,0.115,-14.9602,27.6531,30.1418,1008.78
348806,1.21473,-9.65567,1.11908,0.0600001,0.213,0.885,-14.7556,27.39,29.981,1008.78
348812,1.1956,-9.66045,1.12386,0.27,-0.627,-0.095,-15.5156,27.2731,30.0103,1008.74
348818,1.23864,-9.66045,1.1143,0.27,0.073,0.395,-14.7848,27.4193,29.1333,1008.74
348824,1.20995,-9.68914,1.09039,0.41,-0.137,-1.635,-15.4864,27.2731,30.8287,1008.74
348830,1.20995,-9.69392,1.0856,0.0600001,-0.627,0.115,-14.7263,28.0039,30.0541,1008.74
348836,1.21473,-9.66523,1.10473,0.48,-0.907,-0.025,-14.1417,27.507,29.2356,1008.76
348842,1.22429,-9.65567,1.10952,0.97,0.213,-0.585,-14.6094,27.1854,29.4256,1008.76
348848,1.21951,-9.67958,1.09517,-0.29,0.983,1.305,-15.3694,27.5654,29.8933,1008.77
348854,1.21951,-9.67958,1.09995,-0.15,-1.257,0.395,-14.814,27.9162,29.5864,1008.77
348860,1.21951,-9.67958,1.08082,-0.36,-0.487,-0.725,-14.0979,28.4131,29.601,1008.77
348866,1.20995,-9.69871,1.09995,-0.36,1.193,0.255,-14.3171,28.1793,29.1918,1008.78
348872,1.23386,-9.6748,1.12386,0.55,0.493,-0.235,-15.4717,27.9454,29.7179,1008.78
348878,1.21473,-9.66045,1.10473,-0.92,0.073,-0.515,-14.6679,27.0539,30.1418,1008.73
348884,1.22429,-9.6748,1.09995,-0.78,0.073,-0.025,-15.2963,27.1562,29.6302,1008.73
348890,1.20516,-9.67001,1.1143,-0.5,0.073,0.605,-14.2879,27.7408,29.5718,1008.75
348896,1.21473,-9.6461,1.09517,-0.15,-0.417,-0.585,-14.434,27.2146,28.8702,1008.75
348902,1.22429,-9.6748,1.10952,-0.43,-0.277,-0.095,-15.2671,27.39,28.1541,1008.76
348908,1.21473,-9.64132,1.09995,0.97,-0.837,0.185,-14.8725,27.5362,29.7179,1008.76
348914,1.22429,-9.6748,1.10952,-0.15,0.633,0.675,-14.9602,27.5946,29.031,1008.76
348920,1.21951,-9.6748,1.09039,-0.71,-0.487,-0.725,-14.931,27.0539,29.0748,1008.76
348926,1.21473,-9.67958,1.11908,0.41,-0.137,1.095,-14.2586,26.8785,29.1479,1008.75
348932,1.20038,-9.68436,1.0856,-0.36,-0.697,-0.095,-15.194,27.507,28.6656,1008.75
348938,1.20995,-9.6748,1.0856,0.2,-0.277,0.185,-14.814,27.1269,28.8995,1008.76
348944,1.21473,-9.66045,1.06648,-0.22,-0.137,0.535,-15.2087,27.6531,28.8264,1008.76
348950,1.21473,-9.66045,1.09517,-0.22,0.073,-0.095,-14.7263,27.2439,28.8848,1008.76
348956,1.19082,-9.6748,1.09039,-0.22,0.493,-0.375,-14.434,27.7993,29.8056,1008.76
348962,1.21473,-9.69392,1.0856,0.83,-1.257,-0.095,-14.814,27.9454,29.8495,1008.76
348968,1.21951,-9.68914,1.08082,-0.00999987,-0.137,-0.585,-15.1356,28.1208,28.9287,1008.77
348974,1.21951,-9.68436,1.09517,-0.43,-0.487,0.885,-14.7556,28.1208,30.2295,1008.77
348980,1.21473,-9.6748,1.11908,0.41,0.423,1.235,-15.2379,27.6239,29.7764,1008.73
348986,1.21951,-9.67958,1.0856,0.69,-0.697,-0.445,-15.6471,27.3608,29.3379,1008.73
348992,1.22429,-9.68436,1.09039,0.0600001,-0.277,0.675,-14.9017,27.6531,29.0895,1008.77
348998,1.21473,-9.6748,1.09039,-0.00999987,-0.697,-0.235,-14.551,28.5739,30.4779,1008.77
349004,1.21951,-9.69392,1.09995,-0.15,-0.837,0.115,-15.2233,27.3316,29.2941,1008.78
349010,1.21473,-9.68914,1.09039,-0.64,0.073,-0.795,-14.9017,27.8285,29.3233,1008.78
349016,1.21951,-9.68914,1.09995,-0.36,0.983,-1.145,-14.8433,27.5654,29.9372,1008.76
349022,1.22908,-9.6748,1.10473,0.55,0.353,1.095,-14.7263,27.9747,30.4633,1008.76
349028,1.20038,-9.6461,1.10952,0.2,-0.277,0.535,-15.0479,28.0916,28.2856,1008.78
349034,1.23386,-9.67958,1.10473,-0.5,0.283,-0.935,-14.5802,28.0039,29.6887,1008.78
349040,1.23386,-9.69392,1.10952,-0.71,-0.487,0.185,-15.3548,27.0977,29.8495,1008.78
349046,1.22429,-9.67001,1.09995,1.18,-0.977,-1.285,-15.2233,27.4485,29.9518,1008.77
349052,1.20516,-9.66523,1.10473,0.2,0.913,0.535,-15.764,27.1562,29.8495,1008.77
349058,1.20516,-9.6748,1.0856,0.41,0.283,0.535,-14.6971,27.3023,29.6595,1008.75
349064,1.22908,-9.6748,1.0856,0.97,0.283,0.185,-15.194,27.1269,30.0395,1008.75
349070,1.21473,-9.67958,1.0856,-0.36,0.843,0.185,-15.4425,27.0685,29.5279,1008.77
349076,1.1956,-9.65567,1.09039,-0.57,0.633,0.815,-15.4279,27.2439,29.0018,1008.77
349082,1.20995,-9.6461,1.09517,-0.57,0.073,-0.095,-15.311,27.4193,28.9579,1008.76
349088,1.20995,-9.66045,1.09517,-0.22,0.283,-0.025,-15.3402,27.5362,29.6156,1008.76
349094,1.21473,-9.65567,1.10473,-0.36,0.353,0.535,-14.6679,28.1208,29.8787,1008.79
349100,1.20038,-9.65567,1.09995,-0.36,0.283,0.395,-14.3756,27.7116,29.7179,1008.79
349106,1.20995,-9.64132,1.10473,-0.00999987,0.493,-0.515,-14.3463,28.0039,29.3672,1008.73
349112,1.21951,-9.67958,1.09039,0.41,0.353,-0.375,-14.7848,27.4193,28.9141,1008.73
349118,1.20516,-9.66523,1.1143,-0.22,0.143,0.675,-14.6094,27.887,29.9956,1008.73
349124,1.20038,-9.66523,1.09039,-0.5,-0.0670002,0.185,-15.0771,27.2731,30.1272,1008.71
349130,1.20995,-9.6748,1.09039,-0.36,-0.487,0.115,-14.5802,27.5362,29.1625,1008.71
349136,1.22429,-9.66523,1.09039,-0.00999987,0.493,1.865,-15.5156,26.82,30.6533,1008.78
349142,1.22908,-9.67958,1.09517,-0.15,0.633,-0.655,-14.6971,27.6531,29.8641,1008.78
349148,1.21473,-9.6748,1.09995,1.04,0.283,0.465,-14.931,27.507,29.9956,1008.78
349154,1.20995,-9.6461,1.10952,-0.36,-0.277,0.325,-15.1356,27.2146,28.9287,1008.78
349160,1.21951,-9.66523,1.13821,0.48,-0.977,-1.075,-14.9894,26.9369,29.6741,1008.78
349166,1.20995,-9.68914,1.10473,-0.64,0.073,0.675,-15.7933,27.2731,29.1041,1008.78
349172,1.23864,-9.68914,1.08082,0.0600001,0.283,-0.025,-15.5302,27.7408,30.1272,1008.77
349178,1.21473,-9.67001,1.1143,-0.71,-0.277,0.535,-15.311,27.1562,29.7179,1008.77
349184,1.22429,-9.67001,1.12386,-0.71,0.073,0.535,-15.6764,27.5654,30.361,1008.75
349190,1.18604,-9.6748,1.09517,0.34,-0.417,0.325,-16.2317,27.1854,30.5218,1008.75
349196,1.22908,-9.67958,1.09039,-0.36,0.143,-0.025,-14.8725,27.3608,30.4926,1008.76
349202,1.21951,-9.6748,1.10952,0.62,-0.137,-0.235,-15.2087,28.0331,29.791,1008.76
349208,1.21473,-9.6748,1.10952,0.2,-0.0670002,0.675,-15.2233,27.5362,29.031,1008.76
349214,1.21473,-9.66523,1.0856,0.2,-0.347,-0.585,-15.2817,27.8285,29.1187,1008.76
349220,1.20516,-9.66523,1.07604,0.55,-0.627,0.395,-14.9017,28.2377,29.1333,1008.76
349226,1.20995,-9.67958,1.07126,-0.78,0.143,0.115,-15.5156,28.0039,29.8495,1008.79
349232,1.21473,-9.65567,1.06169,-0.00999987,-0.627,0.115,-15.2525,27.7993,29.5133,1008.79
349238,1.20038,-9.66523,1.10952,-0.57,-0.557,0.185,-14.7263,27.6239,28.8702,1008.77
349244,1.20038,-9.66523,1.08082,0.2,0.213,0.465,-14.7556,27.8577,28.9433,1008.77
349250,1.20995,-9.65088,1.09517,-0.57,-0.0670002,-0.235,-15.2525,27.3316,29.1187,1008.77
349256,1.19082,-9.65567,1.07604,0.41,0.00299978,0.185,-15.0771,27.8577,29.0602,1008.77
349262,1.17647,-9.6748,1.07604,-0.92,-0.0670002,0.885,-15.6179,26.7031,28.7095,1008.76
349268,1.21473,-9.68436,1.07604,-0.57,0.423,0.325,-15.8225,27.507,28.1833,1008.76
349274,1.20516,-9.67958,1.08082,-0.43,0.283,0.185,-14.931,28.2085,29.7033,1008.73
349280,1.20995,-9.66523,1.08082,-0.36,0.423,-0.725,-14.3171,27.507,29.1333,1008.73
349286,1.20516,-9.68914,1.09995,0.76,-0.487,-1.355,-15.4425,27.0246,29.8787,1008.73
349292,1.23386,-9.6748,1.1143,0.2,-0.0670002,0.395,-14.6386,27.2731,30.1272,1008.74
349298,1.20516,-9.65088,1.09039,-1.69,-0.0670002,0.535,-14.0394,28.0331,29.3525,1008.74
349304,1.20038,-9.66045,1.0856,0.0600001,0.143,-0.795,-15.0771,27.8577,29.0895,1008.74
349310,1.20516,-9.65088,1.09517,0.48,-0.207,0.395,-15.2233,27.6531,29.1479,1008.74
349316,1.21951,-9.67958,1.10473,-0.15,1.193,-0.235,-14.931,27.8577,29.7033,1008.75
349322,1.20995,-9.66045,1.09517,-0.71,-0.347,-0.025,-14.6386,27.5946,29.8349,1008.75
349328,1.1956,-9.66045,1.09995,0.41,-0.627,-0.025,-14.9894,28.4131,29.601,1008.73
349334,1.1956,-9.66523,1.08082,-0.15,-0.347,-0.445,-15.0187,28.267,29.411,1008.73
349340,1.21473,-9.68436,1.09517,-1.2,0.493,0.745,-15.3987,27.2731,29.8202,1008.71
349346,1.1956,-9.6748,1.09039,0.2,0.073,0.745,-14.931,27.887,28.6364,1008.71
349352,1.18604,-9.68436,1.09039,-0.22,0.983,-0.235,-14.5217,27.7408,29.3525,1008.75
349358,1.18125,-9.67958,1.10473,-0.36,-0.207,0.605,-15.4133,27.3608,29.7179,1008.75
349364,1.20038,-9.68914,1.09995,-0.15,0.633,0.885,-15.5302,27.39,29.7618,1008.78
349370,1.20995,-9.69871,1.09517,0.13,-0.347,-1.005,-15.0771,28.0039,29.8056,1008.78
349376,1.22908,-9.6748,1.10473,-0.00999987,-0.277,0.115,-14.931,27.5362,30.0979,1008.78
349382,1.21473,-9.65567,1.09039,-0.5,0.353,0.255,-15.574,27.6531,31.4133,1008.74
349388,1.21951,-9.6748,1.09995,0.62,-0.137,-2.055,-15.311,27.1854,29.9664,1008.74
349394,1.21951,-9.67958,1.05691,0.2,-0.137,1.235,-15.764,27.7116,29.6302,1008.73
349400,1.20995,-9.67958,1.07604,-0.22,-0.0670002,-0.235,-14.9894,27.8285,30.3902,1008.73
349406,1.20995,-9.68436,1.07126,-0.78,-0.487,-0.795,-16.0564,27.8577,30.0249,1008.75
349412,1.20038,-9.68914,1.07604,0.97,0.00299978,-0.025,-15.3256,27.4777,29.601,1008.75
349418,1.20995,-9.68436,1.06169,0.62,-0.0670002,0.675,-15.6179,28.0623,29.6887,1008.77
349424,1.20038,-9.69871,1.08082,-0.36,0.493,-0.865,-14.814,27.507,29.2941,1008.77
349430,1.20038,-9.6748,1.06169,0.55,-0.137,0.115,-15.4571,27.39,30.0833,1008.78
349436,1.20038,-9.69392,1.08082,-0.64,-0.277,-0.095,-15.1648,26.9662,30.4049,1008.78
349442,1.21951,-9.68914,1.09039,-0.5,0.283,0.185,-15.1356,27.77,31.428,1008.73
349448,1.20995,-9.68436,1.10952,0.2,0.283,0.325,-14.8725,27.6823,30.4341,1008.73
349454,1.20995,-9.68914,1.07604,0.69,0.283,0.255,-14.4048,26.9077,30.6387,1008.73
349460,1.18604,-9.69392,1.09039,-0.71,0.703,0.535,-14.8579,26.9077,29.5133,1008.75
349466,1.20038,-9.68914,1.09995,0.27,-0.277,-0.795,-15.2963,27.887,30.4341,1008.75
349472,1.21951,-9.66045,1.07126,0.41,0.493,-0.375,-14.3756,27.8285,29.4841,1008.75
349478,1.20516,-9.6748,1.0856,0.2,-0.277,-0.375,-13.9371,27.9747,29.3818,1008.75
349484,1.20038,-9.6748,1.0856,-0.36,-0.137,0.115,-14.3756,28.6031,28.8264,1008.74
349490,1.21951,-9.70349,1.10473,0.13,-0.487,0.955,-14.814,27.1562,28.6802,1008.74
349496,1.20038,-9.68436,1.09039,-0.43,0.423,-0.025,-14.434,27.3316,29.7033,1008.79
349502,1.20995,-9.66523,1.0856,-0.29,0.00299978,-0.025,-14.3171,27.887,29.1041,1008.79
349508,1.21473,-9.65567,1.07126,1.04,-0.837,-0.725,-14.9017,27.5362,29.9956,1008.75
349514,1.20995,-9.66045,1.0856,-0.36,0.423,-0.025,-14.3756,27.1562,29.5572,1008.75
349520,1.21951,-9.65088,1.09039,-0.43,-0.977,-0.515,-14.4633,27.2146,28.841,1008.72
349526,1.21473,-9.6748,1.09039,-0.57,0.423,0.535,-15.0187,26.7908,29.4549,1008.72
349532,1.20516,-9.67958,1.09039,-0.36,0.633,0.885,-14.551,27.507,29.9956,1008.76
349538,1.22429,-9.66045,1.06648,-0.00999987,-0.907,-0.725,-14.6386,27.507,29.8933,1008.76
349544,1.23386,-9.6748,1.09039,-0.43,-0.0670002,-0.095,-14.6971,27.0831,29.0456,1008.76
349550,1.20038,-9.66523,1.09995,0.62,0.073,-0.865,-15.2233,27.1854,28.9433,1008.76
349556,1.21951,-9.66045,1.09517,0.48,-0.0670002,-0.375,-14.6679,27.0246,29.7179,1008.76
349562,1.21473,-9.65088,1.09995,0.13,-0.557,-0.585,-14.9894,26.6154,28.7241,1008.73
349568,1.20038,-9.6748,1.09039,-0.5,-0.977,0.675,-15.3548,27.7408,29.9664,1008.73
349574,1.21951,-9.67001,1.10952,0.34,-0.557,-0.655,-14.6679,27.5654,30.4049,1008.75
349580,1.1956,-9.67001,1.06648,0.41,-0.487,-0.375,-14.814,27.2439,30.3026,1008.75
349586,1.20995,-9.6748,1.10473,-0.57,0.703,-0.025,-14.4633,28.2377,30.3464,1008.77
349592,1.22429,-9.66045,1.07604,-0.15,-0.347,-0.935,-14.4925,27.8285,30.1856,1008.77
349598,1.22429,-9.66523,1.07126,0.2,-1.397,-1.005,-14.5217,27.5946,29.6302,1008.79
349604,1.21951,-9.65088,1.0856,0.0600001,-0.417,0.325,-14.8433,27.5946,30.4195,1008.79
349610,1.1956,-9.65567,1.0856,-0.64,-0.767,-0.095,-14.9017,27.39,29.1041,1008.75
349616,1.19082,-9.66523,1.10952,-0.43,-0.277,0.325,-14.5802,27.6239,30.4487,1008.75
349622,1.1956,-9.66045,1.1143,-0.36,0.423,1.095,-15.0771,27.3316,29.8202,1008.75
349628,1.20038,-9.66523,1.11908,-0.5,-0.487,0.465,-14.434,27.4485,30.0979,1008.75
349634,1.22429,-9.67958,1.09039,-1.13,0.493,-0.725,-14.9602,27.4193,28.9725,1008.75
349640,1.23864,-9.68436,1.08082,0.83,-0.837,-0.655,-14.2002,27.3316,29.8056,1008.78
349646,1.22429,-9.67001,1.0856,-0.92,-0.0670002,1.235,-15.311,27.4485,29.7618,1008.78
349652,1.21951,-9.68914,1.07604,0.0600001,-0.137,-0.375,-13.9225,27.5654,28.9287,1008.78
349658,1.20995,-9.67958,1.07126,-0.15,0.073,-0.585,-14.551,27.3608,30.3026,1008.78
349664,1.21951,-9.67001,1.0856,-0.78,0.073,0.185,-14.0394,27.8285,29.9664,1008.76
349670,1.21473,-9.67001,1.0856,0.41,-0.0670002,-0.655,-14.6971,27.1854,30.1856,1008.76
349676,1.20516,-9.6748,1.0856,-0.22,-0.347,0.535,-15.2233,27.6531,30.0979,1008.73
349682,1.21473,-9.6461,1.07604,0.2,-0.697,-1.145,-14.9602,28.15,29.6156,1008.73
349688,1.1956,-9.67001,1.0856,0.62,-1.397,0.325,-14.7263,27.9162,29.3672,1008.77
349694,1.20995,-9.67958,1.09039,-0.36,0.213,0.465,-14.4925,27.2146,29.981,1008.77
349700,1.18604,-9.68914,1.07604,-0.36,0.213,0.395,-14.931,27.7408,29.9226,1008.72
349706,1.23864,-9.67001,1.09517,0.2,0.493,0.605,-14.1709,26.9077,29.9518,1008.72
349712,1.13343,-9.69392,1.09039,-0.22,-0.277,0.325,-14.7556,27.5654,29.4402,1008.72
349718,1.23386,-9.70349,1.06648,-0.36,0.073,0.045,-14.2586,27.77,28.6364,1008.77
349724,1.17647,-9.63654,1.09517,-0.00999987,-0.347,0.115,-14.931,27.8577,29.4841,1008.77
349730,1.20038,-9.68436,1.09039,-0.5,0.703,-0.445,-14.7556,27.4777,29.601,1008.75
349736,1.19082,-9.68914,1.06169,0.2,0.283,0.745,-13.8932,27.3023,29.1918,1008.75
349742,1.20995,-9.6461,1.09039,0.0600001,-0.277,-0.025,-15.0187,27.7993,29.6595,1008.73
349748,1.19082,-9.69871,1.09039,-0.29,-0.137,0.185,-14.6971,27.5362,28.8556,1008.73
349754,1.23386,-9.6461,1.09039,-0.00999987,-0.697,-0.235,-14.814,27.6239,28.0956,1008.77
349760,1.18604,-9.65088,1.1143,-0.43,0.073,-0.305,-13.9225,27.6239,30.2295,1008.77
349766,1.20516,-9.70827,1.09517,0.62,-0.207,0.255,-14.2586,26.7323,29.4256,1008.78
349772,1.20038,-9.69871,1.07126,-0.36,-0.347,-0.375,-15.311,27.9747,28.651,1008.78
349778,1.20516,-9.66523,1.09517,0.27,-0.627,0.115,-14.551,27.6531,30.0979,1008.76
349784,1.20995,-9.68436,1.0856,-0.43,0.283,0.745,-14.8433,26.6154,29.2064,1008.76
349790,1.20516,-9.67001,1.0856,-0.00999987,0.073,-0.095,-14.4633,27.5654,29.2502,1008.76
349796,1.20516,-9.6748,1.09995,-0.36,-0.907,0.465,-14.4633,27.4193,30.171,1008.76
349802,1.20038,-9.67001,1.06169,-0.36,0.493,-0.375,-15.2817,27.0831,29.221,1008.76
349808,1.20038,-9.68914,1.06169,-0.71,0.283,-0.165,-15.4425,27.6239,29.1918,1008.76
349814,1.21473,-9.66045,1.09039,-0.22,0.283,0.465,-14.3756,28.267,30.0103,1008.76
349820,1.22429,-9.67958,1.10952,-0.36,0.423,1.095,-14.0979,27.6239,29.6302,1008.77
349826,1.1956,-9.70349,1.09039,-0.64,0.073,-0.025,-14.6679,27.6239,29.5279,1008.77
349832,1.20038,-9.6748,1.09517,-0.15,0.073,-0.095,-15.1063,27.4193,30.2441,1008.75
349838,1.1956,-9.65088,1.09039,0.69,0.143,-0.095,-14.9894,26.7323,29.7472,1008.75
349844,1.20516,-9.68914,1.0856,-0.71,0.073,-0.725,-14.9894,27.7408,29.4256,1008.8
349850,1.22908,-9.68914,1.09039,0.41,0.213,0.395,-15.4425,27.6239,30.4779,1008.8
349856,1.21473,-9.67958,1.09039,-0.15,-0.137,0.185,-15.0479,27.4193,29.6741,1008.76
349862,1.20038,-9.65088,1.09517,-0.15,0.073,-0.375,-14.434,27.8577,30.4341,1008.76
349868,1.18604,-9.68436,1.06648,-0.36,0.143,-0.445,-14.7263,27.9454,29.9079,1008.79
349874,1.1956,-9.69871,1.09039,-0.57,0.493,1.025,-14.551,28.2085,29.0018,1008.79
349880,1.20516,-9.69392,1.0856,0.0600001,-0.417,0.465,-14.551,27.5362,30.0687,1008.79
349886,1.19082,-9.6748,1.10952,-0.29,0.143,-0.165,-14.4048,27.1854,29.2064,1008.74
349892,1.20516,-9.6748,1.07126,0.55,-0.487,-0.935,-15.2233,27.7993,28.7679,1008.74
349898,1.20516,-9.66045,1.0856,0.41,-0.207,-0.935,-15.194,26.9369,30.0103,1008.74
349904,1.20995,-9.66523,1.08082,-0.22,-0.137,0.885,-15.194,27.2146,29.0456,1008.74
349910,1.20995,-9.64132,1.07604,-0.71,0.423,0.465,-15.1356,27.4777,29.6741,1008.76
349916,1.19082,-9.66045,1.06169,-0.71,0.493,0.185,-13.7471,27.887,29.3379,1008.76
349922,1.23864,-9.68436,1.06648,-0.15,0.073,-0.165,-14.4048,27.7993,29.9518,1008.75
349928,1.21951,-9.65567,1.10473,0.2,-0.277,0.325,-15.4133,27.0977,28.2564,1008.75
349934,1.20995,-9.67958,1.09995,-0.92,-0.0670002,0.535,-14.6679,27.7993,30.4487,1008.77
349940,1.23386,-9.73218,1.06648,-0.36,0.493,-0.515,-15.1063,27.5654,29.3818,1008.77
349946,1.20516,-9.69392,1.06169,0.2,-0.837,-0.865,-14.9748,27.5654,29.3964,1008.77
349952,1.20995,-9.6748,1.09517,-0.36,-0.137,0.325,-15.2525,27.8285,29.3087,1008.77
349958,1.20038,-9.68914,1.08082,-0.57,0.283,1.095,-14.6386,27.7116,28.7679,1008.77
349964,1.20995,-9.67958,1.04735,-0.99,0.423,0.115,-14.054,27.5654,29.6741,1008.77
349970,1.1956,-9.66523,1.09039,-0.5,0.073,-0.165,-15.194,27.1269,29.4549,1008.77
349976,1.22908,-9.6748,1.07126,-0.36,0.283,-0.235,-14.5217,27.9747,29.3379,1008.77
349982,1.18604,-9.67958,1.09517,-0.78,0.633,0.325,-14.8433,27.2146,29.8933,1008.77
349988,1.20516,-9.6748,1.07604,0.83,0.633,0.325,-14.1125,27.5654,29.5133,1008.76
349994,1.20516,-9.65567,1.09039,-0.36,-0.137,-0.165,-14.5217,26.9954,30.3464,1008.76
350000,1.21473,-9.68914,1.09039,0.76,-0.487,-1.005,-14.6094,27.0831,30.5949,1008.79
350006,1.21473,-9.69871,1.07604,-0.92,0.283,0.465,-15.9979,26.82,29.5864,1008.79
350012,1.1956,-9.66045,1.09995,0.27,0.283,-0.445,-14.7556,27.3023,29.031,1008.75
350018,1.1956,-9.68914,1.07604,-0.71,-0.277,-0.585,-14.6094,27.3608,28.9141,1008.75
350024,1.20038,-9.66523,1.09995,-0.15,0.283,0.325,-15.3402,26.7616,29.2941,1008.76
350030,1.20995,-9.6748,1.07604,0.41,0.00299978,-0.165,-14.434,27.1269,29.1187,1008.76
350036,1.22429,-9.67958,1.0856,-0.36,0.283,-0.795,-14.551,27.1854,30.0249,1008.76
350042,1.20038,-9.66523,1.0856,0.83,-0.347,-0.655,-14.5802,26.9077,30.6241,1008.76
350048,1.20516,-9.67001,1.07604,-0.0799999,-0.0670002,-0.165,-14.4633,27.1854,28.7825,1008.76
350054,1.20038,-9.69871,1.09995,0.0600001,0.423,0.045,-14.2586,27.1562,28.9141,1008.74
350060,1.1956,-9.69392,1.09517,-0.00999987,-0.0670002,0.675,-14.6971,28.4424,29.8641,1008.74
350066,1.22908,-9.6748,1.10952,-0.00999987,-1.187,-0.585,-14.2586,27.4777,28.7533,1008.77
350072,1.22429,-9.68436,1.11908,-0.29,-0.487,-0.935,-14.0833,27.2731,30.0249,1008.77
350078,1.1956,-9.65088,1.06169,-1.13,0.773,0.675,-14.7848,26.5277,29.7618,1008.78
350084,1.20516,-9.6748,1.07126,0.2,0.00299978,-0.865,-14.7556,26.6446,29.9372,1008.78
350090,1.20516,-9.67958,1.09995,-0.00999987,0.633,0.535,-14.6679,26.7323,29.5279,1008.76
350096,1.20995,-9.67958,1.07604,0.34,-0.137,-0.025,-14.9456,27.0393,29.5718,1008.76
350102,1.20995,-9.68436,1.09517,-0.36,-0.907,-0.445,-14.6386,27.0539,30.0541,1008.76
350108,1.21951,-9.66045,1.0856,0.41,0.073,-0.585,-14.9894,26.9077,30.2879,1008.76
350114,1.20038,-9.67001,1.09039,-0.15,-0.487,0.535,-14.3463,27.2439,30.0979,1008.77
350120,1.19082,-9.69392,1.09039,-0.5,-0.207,0.675,-14.6679,27.2731,29.3964,1008.77
350126,1.20038,-9.68436,1.07126,-0.57,0.283,0.395,-14.6386,27.1854,29.7033,1008.77
350132,1.19082,-9.67958,1.09517,0.2,-0.0670002,0.675,-13.864,28.0623,30.2879,1008.77
350138,1.18604,-9.70349,1.06169,-0.15,0.983,0.535,-14.3756,27.6823,30.0395,1008.77
350144,1.17647,-9.68436,1.07126,-0.57,-0.277,-0.095,-14.4925,28.2962,29.2356,1008.74
350150,1.20038,-9.66523,1.08082,1.32,-1.047,-0.025,-14.7556,27.507,29.7033,1008.74
350156,1.20995,-9.68436,1.07604,-0.22,0.143,0.185,-14.1709,27.9747,30.0395,1008.74
350162,1.18604,-9.6748,1.09039,1.18,0.143,-0.725,-13.8056,27.7116,29.0164,1008.74
350168,1.1956,-9.66045,1.08082,-0.36,0.493,-0.585,-14.4925,27.6239,29.411,1008.76
350174,1.20516,-9.65567,1.07604,0.62,-0.137,-0.235,-14.7556,28.0331,31.048,1008.76
350180,1.19082,-9.66523,1.1143,0.76,0.00299978,-0.515,-14.814,27.6239,29.5425,1008.76
350186,1.20516,-9.69392,1.08082,0.27,0.493,0.045,-14.6679,27.3608,29.0602,1008.76
350192,1.22908,-9.69392,1.06169,0.2,-0.207,0.675,-14.3463,27.0539,29.5572,1008.76
350198,1.1956,-9.66523,1.08082,0.41,0.283,-0.585,-15.1063,27.3316,29.4695,1008.76
350204,1.20516,-9.6748,1.09517,-0.36,-0.0670002,-0.025,-14.4925,27.7116,29.3672,1008.75
350210,1.21473,-9.69871,1.08082,0.0600001,-0.0670002,-0.235,-14.8433,27.7116,29.0895,1008.75
350216,1.19082,-9.65088,1.08082,0.55,-0.347,-0.025,-13.9809,28.3547,29.9956,1008.75
350222,1.21473,-9.67958,1.07604,-0.71,-0.487,0.325,-14.0102,27.39,29.2795,1008.77
350228,1.1956,-9.67958,1.08082,0.27,0.423,-0.305,-14.7848,27.4485,29.5133,1008.77
350234,1.21473,-9.67001,1.07604,-0.78,0.983,1.025,-15.2525,27.6531,29.1625,1008.75
350240,1.21473,-9.68914,1.07126,0.41,-0.0670002,0.045,-14.9894,27.7993,29.2064,1008.75
350246,1.21951,-9.67958,1.09039,0.0600001,-0.347,-0.235,-14.4048,27.3316,28.8556,1008.78
350252,1.20038,-9.6748,1.09995,0.48,-0.417,-0.655,-14.3171,27.2439,29.5279,1008.78
350258,1.21951,-9.67001,1.06648,-0.00999987,-0.417,0.675,-14.6386,27.1854,30.0395,1008.75
350264,1.1956,-9.6748,1.07604,0.34,0.283,0.465,-14.054,27.887,28.6656,1008.75
350270,1.1956,-9.6748,1.09039,-0.36,0.423,0.115,-14.5217,28.0331,29.0018,1008.78
350276,1.20516,-9.67958,1.08082,0.0600001,0.493,-0.095,-14.551,27.7408,29.5133,1008.78
350282,1.18125,-9.67958,1.08082,0.0600001,-0.137,-0.795,-13.8348,27.3023,28.7533,1008.77
350288,1.21473,-9.67958,1.07126,0.27,0.073,-1.355,-14.0686,27.4777,28.1833,1008.77
350294,1.21473,-9.67958,1.07604,0.2,0.213,-0.025,-14.814,27.1269,28.5195,1008.73
350300,1.23864,-9.68436,1.09995,0.97,0.423,-0.235,-14.0248,27.887,29.3379,1008.73
350306,1.21473,-9.67001,1.09995,0.0600001,-0.137,-1.005,-14.3171,27.6823,29.4987,1008.73
350312,1.18604,-9.69871,1.09517,0.83,-0.697,-0.515,-14.3463,27.1269,29.3087,1008.74
350318,1.21473,-9.66523,1.09039,-0.00999987,0.493,0.325,-14.054,27.2731,29.3233,1008.74
350324,1.21951,-9.65567,1.09039,0.41,-0.347,1.095,-13.3086,27.5654,29.2649,1008.78
350330,1.19082,-9.7274,1.07604,-0.15,0.283,0.745,-14.8433,27.887,29.0895,1008.78
350336,1.18604,-9.69871,1.0856,-1.2,0.493,0.185,-14.054,27.2146,29.031,1008.76
350342,1.22429,-9.68436,1.0856,0.27,0.353,-0.165,-14.6386,27.7116,29.3672,1008.76
350348,1.1956,-9.6748,1.07604,0.27,0.493,0.885,-14.2879,27.6823,29.7472,1008.72
350354,1.20516,-9.65088,1.08082,0.76,0.353,0.885,-14.2002,27.6823,30.5218,1008.72
350360,1.20516,-9.67001,1.09517,-0.29,0.213,0.325,-13.5425,27.8285,29.4256,1008.72
350366,1.1956,-9.6748,1.09995,0.41,-0.697,1.095,-14.434,28.0916,29.6595,1008.72
350372,1.21473,-9.67958,1.07604,-0.15,0.493,-0.935,-14.551,28.2962,29.4987,1008.77
350378,1.20995,-9.69392,1.0856,0.0600001,-1.047,-0.445,-14.8433,27.6531,29.5718,1008.77
350384,1.21951,-9.67001,1.07604,0.27,-0.277,-0.025,-14.5217,28.0331,28.7387,1008.77
350390,1.20038,-9.67001,1.0856,-0.43,0.633,-0.025,-14.3171,27.8285,29.4695,1008.73
350396,1.20038,-9.67958,1.10952,0.55,-0.487,-0.935,-14.4633,27.8577,29.3818,1008.73
350402,1.23386,-9.70349,1.06648,0.97,-0.137,-0.305,-14.0833,28.15,29.981,1008.75
350408,1.20516,-9.6748,1.08082,-0.5,0.843,0.885,-14.814,27.3023,30.0395,1008.75
350414,1.20516,-9.67001,1.0856,-0.71,0.00299978,0.115,-14.6094,27.2439,29.5864,1008.75
350420,1.20516,-9.70349,1.06648,0.2,-0.487,0.325,-14.5217,27.77,29.5718,1008.75
350426,1.20995,-9.66523,1.07126,0.27,0.073,0.325,-14.6094,28.5739,28.1979,1008.73
350432,1.1956,-9.67001,1.09995,-0.78,0.703,0.535,-14.5802,27.5362,29.8349,1008.73
350438,1.18604,-9.65567,1.06648,0.62,-0.907,-1.355,-14.7263,27.3608,28.7971,1008.76
350444,1.20038,-9.66523,1.10473,-0.57,-0.347,0.115,-14.6094,27.6531,29.7033,1008.76
350450,1.20995,-9.70349,1.07604,0.97,0.213,-0.095,-14.7556,27.6239,30.0103,1008.75
350456,1.20995,-9.6461,1.0856,-0.29,0.283,0.675,-14.551,27.2439,29.9956,1008.75
350462,1.20995,-9.6748,1.07604,-1.13,-0.277,-0.025,-13.7763,28.267,29.791,1008.75
350468,1.20995,-9.69871,1.10952,-0.57,0.913,1.165,-14.3756,27.5654,30.5072,1008.75
350474,1.20516,-9.68436,1.0856,0.76,0.913,-0.165,-14.3463,27.8577,29.7764,1008.75
350480,1.21473,-9.64132,1.1143,0.2,0.423,-0.445,-14.7556,27.6823,30.2149,1008.76
350486,1.20516,-9.64132,1.10473,0.55,-0.137,-0.235,-14.5217,27.3023,29.9226,1008.76
350492,1.21951,-9.70827,1.0856,0.27,0.843,-0.375,-15.3256,27.1854,29.1187,1008.77
350498,1.20516,-9.67958,1.08082,0.0600001,-0.487,0.465,-14.4925,27.0246,29.1918,1008.77
350504,1.20038,-9.68436,1.09517,-0.00999987,-0.487,-1.005,-14.0394,28.1208,30.2002,1008.77
350642,1.21473,-9.67001,1.10473,-0.15,-0.0670002,0.535,-14.3463,27.507,29.0602,1008.77
350648,1.19082,-9.6748,1.09039,0.0600001,0.493,-0.795,-14.7263,27.6239,29.4549,1008.75
350654,1.21473,-9.6748,1.08082,-0.15,0.773,0.185,-14.5802,27.7993,29.6449,1008.75
350660,1.1956,-9.67001,1.09039,0.0600001,0.283,0.675,-14.6679,27.4777,28.7971,1008.73
350666,1.20995,-9.69392,1.07126,0.41,-0.347,0.045,-14.7556,27.7116,28.7971,1008.73
350672,1.18125,-9.68436,1.09517,0.2,0.773,-0.935,-14.5217,27.3608,29.2649,1008.71
350678,1.21951,-9.68914,1.09995,0.62,-0.137,-0.235,-14.4633,27.2731,29.4695,1008.71
350684,1.20516,-9.67001,1.07604,0.2,0.213,-0.305,-15.194,27.7116,30.1856,1008.73
350690,1.18604,-9.67958,1.09517,0.97,0.283,-0.935,-14.0833,27.0539,29.8495,1008.73
350696,1.1956,-9.67958,1.07604,-0.36,0.00299978,0.325,-14.6386,28.0039,29.9226,1008.74
350702,1.20995,-9.66045,1.0856,0.62,-0.277,-0.655,-15.3402,27.39,29.6302,1008.74
350708,1.20038,-9.65567,1.09039,0.2,-0.697,0.815,-15.2233,27.9454,29.6887,1008.78
350714,1.20516,-9.67001,1.08082,-0.36,0.213,0.185,-15.1063,27.1854,29.7472,1008.78
350720,1.1956,-9.65567,1.09995,-0.36,0.073,-0.095,-15.1356,27.2146,28.9141,1008.76
350726,1.21951,-9.60784,1.10473,-0.00999987,-0.697,-0.025,-13.864,27.3316,29.2795,1008.76
350732,1.20995,-9.62697,1.1143,-0.00999987,-1.047,-1.285,-15.2817,27.2146,29.4256,1008.76
350738,1.23386,-9.66523,1.0856,0.41,-0.277,-1.145,-14.2586,27.507,29.6449,1008.77
350744,1.18604,-9.67001,1.09039,-0.00999987,-0.0670002,-0.095,-14.2879,27.9454,29.1187,1008.77
350750,1.21473,-9.6748,1.07604,1.6,-0.697,-0.795,-14.551,28.1793,29.5133,1008.75
350756,1.19082,-9.65567,1.09995,0.41,0.00299978,-0.095,-14.4925,27.7408,29.9226,1008.75
350762,1.22908,-9.63654,1.09517,-0.99,0.703,0.115,-14.8725,27.4485,30.2733,1008.73
350768,1.18604,-9.63175,1.10473,-1.2,0.843,0.185,-14.3756,27.0685,29.7033,1008.73
350774,1.21951,-9.65088,1.09995,-0.78,0.633,-0.025,-14.9017,27.6239,30.1272,1008.74
350780,1.18125,-9.71305,1.06648,-0.71,0.913,0.325,-14.3025,27.3608,29.7179,1008.74
350786,1.20995,-9.69392,1.08082,-0.5,0.073,0.325,-15.0479,27.2439,30.361,1008.74
350792,1.21473,-9.64132,1.1143,-0.15,0.283,0.325,-14.434,26.8492,28.9433,1008.74
350798,1.21951,-9.66523,1.1143,0.41,-0.837,0.675,-14.0833,27.0246,29.601,1008.82
350804,1.23386,-9.61262,1.13343,-0.92,0.843,0.395,-14.2002,27.1854,28.8118,1008.82
350810,1.23386,-9.60306,1.12386,-0.36,0.843,-0.235,-14.551,27.4777,29.3087,1008.82
350816,1.21951,-9.65567,1.09517,-1.13,0.283,-0.095,-14.2294,27.9162,29.4549,1008.74
350822,1.17647,-9.66523,1.10473,-0.36,0.633,-0.795,-14.0248,28.0916,29.4549,1008.74
350828,1.18604,-9.65088,1.08082,-0.92,1.613,-0.235,-14.4048,27.7116,28.8995,1008.74
350834,1.21951,-9.61741,1.09995,-1.69,1.543,-0.375,-15.0479,27.0246,29.7179,1008.74
350840,1.20038,-9.52176,1.17647,-1.27,0.493,0.395,-14.814,26.9077,30.4195,1008.76
350846,1.20516,-9.53132,1.17169,-3.02,1.963,-0.375,-15.0771,27.507,28.5048,1008.76
350852,1.22429,-9.61741,1.12386,-2.11,1.963,-0.585,-14.814,27.7993,31.0041,1008.76
350858,1.23386,-9.62697,1.1143,-2.88,1.543,-2.335,-14.814,27.5946,30.4341,1008.76
350864,1.22429,-9.63654,1.033,-3.3,2.173,-1.355,-14.7556,27.3316,28.9725,1008.77
350870,1.23386,-9.73218,1.04735,-2.46,2.733,-1.565,-15.0479,27.2731,29.8056,1008.77
350876,1.20995,-9.62219,1.05213,-2.11,2.173,-1.845,-14.2002,26.8492,30.4195,1008.76
350882,1.21473,-9.60306,1.00909,-3.86,2.033,-0.235,-14.2002,27.3316,29.8495,1008.76
350888,1.23386,-9.68914,1.01387,-2.04,0.843,-0.725,-14.814,27.1562,29.7764,1008.77
350894,1.20516,-9.57436,1.07604,-2.53,1.893,-1.915,-14.2002,27.5946,29.6449,1008.77
350900,1.20995,-9.63654,1.07126,-2.46,0.983,0.535,-15.2525,28.1793,30.0833,1008.77
350906,1.20038,-9.73697,1.01387,-2.53,1.613,0.115,-15.2233,27.9454,30.0249,1008.74
350912,1.05691,-9.86131,1.00909,-1.13,-0.487,-1.495,-14.9894,27.4777,29.8202,1008.74
350918,1.51124,-9.42611,1.00909,-3.02,2.943,-1.005,-13.6009,27.8577,30.171,1008.74
350924,0.927786,-9.95218,1.0856,-1.76,-1.047,-0.095,-14.7848,27.6239,30.0687,1008.74
350930,1.41081,-9.75131,0.884744,-1.06,1.613,-0.445,-14.434,27.4193,30.1856,1008.76
350936,1.08082,-9.62219,1.06169,-1.69,-1.747,-0.095,-14.7848,27.6239,30.2149,1008.76
350942,1.32951,-9.68914,0.999522,-2.11,0.353,0.325,-15.501,27.3023,29.8933,1008.74
350948,1.15734,-9.65088,1.07126,-1.9,0.00299978,0.465,-14.4486,27.7993,29.3964,1008.74
350954,1.2769,-9.73218,1.0043,-2.32,0.283,0.115,-15.0479,28.0039,30.7556,1008.76
350960,1.1956,-9.76088,1.04735,-1.69,0.773,0.885,-14.9602,27.2439,29.8933,1008.76
350966,1.20038,-9.6748,1.06169,-1.48,1.123,-0.445,-15.0771,27.1269,29.6887,1008.76
350972,1.21951,-9.75131,1.02343,-1.13,1.613,0.395,-15.2671,27.39,30.2002,1008.76
350978,1.19082,-9.79436,1.04256,-1.55,-0.487,-0.095,-14.8433,27.6239,30.361,1008.76
350984,1.17169,-9.85174,0.95648,-0.57,0.703,0.115,-15.1063,27.5946,30.2587,1008.79
350990,1.17169,-9.90913,0.942133,-0.71,0.423,-0.585,-15.2379,26.9954,30.2441,1008.79
350996,1.16212,-9.88522,0.961262,0.41,0.423,-0.445,-15.311,27.3608,29.5718,1008.76
351002,1.19082,-9.75131,1.02822,0.83,0.493,0.325,-14.7556,27.1562,29.7472,1008.76
351008,1.18125,-9.74653,1.03778,-0.78,-0.0670002,0.255,-15.0187,28.0039,29.4256,1008.74
351014,1.24821,-9.7561,1.01865,0.41,0.283,1.025,-15.0771,27.887,29.5718,1008.74
351020,1.18604,-9.8087,1.00909,1.18,-1.397,-0.585,-15.0187,27.5362,29.9226,1008.77
351026,1.20516,-9.73697,1.03778,0.83,-0.837,-1.145,-14.4048,27.6239,30.1126,1008.77
351032,1.21951,-9.6461,1.10473,1.53,0.283,0.325,-14.5948,27.2439,30.2879,1008.74
351038,1.26255,-9.71784,1.05691,1.04,0.423,-0.445,-14.3756,27.8577,31.1941,1008.74
351044,1.17169,-9.66523,1.09517,1.18,0.493,-1.005,-14.3756,28.1793,29.8787,1008.77
351050,1.21473,-9.61262,1.04256,1.32,-0.137,-1.495,-14.7556,27.4485,31.2672,1008.77
351056,1.22908,-9.7274,1.02343,1.74,-0.137,-1.145,-14.3756,26.8492,29.8933,1008.75
351062,1.19082,-9.65088,1.02822,0.97,0.633,-0.445,-14.3171,28.1208,30.0541,1008.75
351068,1.23386,-9.76566,0.951698,1.32,0.983,-0.935,-14.6386,27.507,29.9956,1008.75
351074,1.18604,-9.78001,0.970827,2.86,-0.487,-1.565,-14.7556,27.5362,30.2879,1008.77
351080,1.23864,-9.70827,1.01387,1.95,-0.277,-0.095,-14.2294,27.77,29.7618,1008.77
351086,1.20995,-9.73697,0.994739,1.88,0.493,-0.935,-14.1709,27.3608,29.9518,1008.73
351092,1.22908,-9.78479,0.985174,2.02,0.843,-0.025,-14.4048,27.2146,29.2502,1008.73
351098,1.14299,-9.76566,1.02822,2.93,-0.837,-1.355,-13.864,27.6239,30.4195,1008.79
351104,1.13343,-9.89479,0.961262,4.4,-1.187,-2.265,-14.7556,28.0916,29.9956,1008.79
351110,1.27212,-9.8087,0.97561,4.68,0.073,-1.145,-15.0187,27.3023,29.6741,1008.79
351116,1.21473,-9.60306,1.12386,4.12,-0.487,0.395,-15.1063,27.2731,29.8495,1008.79
351122,1.22908,-9.62219,1.05691,3.28,-0.277,-1.705,-14.4633,27.4485,29.981,1008.76
351128,1.16691,-9.70827,1.07126,4.26,-0.137,-1.145,-14.5802,28.3547,30.9603,1008.76
351134,1.24342,-9.59828,1.16212,4.47,-0.907,-2.825,-14.3756,27.77,30.171,1008.77
351140,1.23864,-9.61262,1.18125,3.07,-0.207,-1.705,-14.2879,28.0623,30.4049,1008.77
351146,1.3056,-9.6461,1.08082,2.58,-0.837,-0.235,-14.9017,28.4424,29.6302,1008.77
351152,1.09039,-9.89957,1.0043,3.7,-0.697,-2.125,-14.6971,27.6531,28.7825,1008.76
351158,1.37733,-9.58871,1.14299,5.38,-1.117,-1.005,-14.4925,27.5362,29.1625,1008.76
351164,0.95648,-9.72262,1.21473,2.72,-1.747,-1.355,-14.7848,27.4777,29.7033,1008.73
351170,1.57341,-9.79436,0.769966,2.09,0.633,-3.175,-14.5802,27.1269,29.981,1008.73
351176,1.09517,-9.6748,1.17647,5.45,-2.587,-1.215,-14.7263,27.5946,29.4549,1008.77
351182,1.24342,-9.75131,1.08082,4.82,-1.257,-2.125,-14.931,27.5654,29.2795,1008.77
351188,1.25299,-9.67958,1.12386,6.36,0.843,-1.775,-14.2879,27.4193,29.0164,1008.74
351194,1.42037,-9.50741,1.21951,2.93,0.073,1.025,-14.4925,27.39,28.8848,1008.74
351200,1.01387,-9.83261,1.14778,5.24,-1.957,-2.545,-14.931,27.7408,29.221,1008.75
351206,1.15256,-9.95696,1.11908,5.03,-1.467,-2.475,-14.9894,27.507,29.3672,1008.75
351212,1.00909,-9.89957,1.34864,6.78,-1.467,-1.285,-14.5217,28.3254,29.3672,1008.74
351218,1.16691,-9.87087,1.36298,4.47,-0.697,-2.055,-15.2525,27.6239,29.6595,1008.74
351224,1.30081,-9.82305,1.03778,4.89,1.263,-5.415,-14.7263,28.0331,29.4549,1008.78
351230,1.43472,-9.6748,0.951698,9.23,1.613,-2.825,-15.0771,27.2146,29.2941,1008.78
351236,1.3582,-9.52654,0.722142,4.33,-0.767,-0.795,-14.6094,27.6823,29.3818,1008.78
351242,1.38211,-9.57436,0.765184,11.96,1.753,-5.205,-15.2233,27.8285,29.2356,1008.75
351248,1.53993,-9.61741,0.693448,8.74,3.293,-3.035,-14.9017,27.8577,29.1918,1008.75
351254,1.32472,-9.67958,0.865614,10.42,2.523,-2.125,-14.6094,27.5946,29.3818,1008.77
351260,1.3869,-9.78479,0.5978,4.61,3.293,-6.325,-14.9894,28.1793,29.5864,1008.77
351266,1.25299,-10.0717,0.793878,7.76,2.033,-4.715,-14.9017,27.9454,29.4987,1008.76
351272,1.51602,-9.84696,0.61693,6.78,3.223,-5.625,-15.881,27.7408,29.2795,1008.76
351278,1.22429,-9.53132,1.18604,8.53,2.173,-7.235,-14.8286,28.5154,28.841,1008.75
351284,1.31038,-10.0383,1.14778,10.07,2.733,-5.485,-14.9602,27.6823,28.3294,1008.75
351290,1.34385,-9.85653,1.14778,9.44,4.063,-4.855,-15.4133,28.2085,28.3148,1008.77
351296,1.05691,-9.9187,1.29603,8.88,1.963,-8.705,-14.9894,28.53,29.3964,1008.77
351302,1.51124,-10.0813,1.09039,11.82,5.183,-9.475,-15.9833,28.53,28.8995,1008.75
351308,1.33429,-10.1196,1.01865,12.8,5.743,-8.565,-15.7348,27.77,29.1918,1008.75
351314,1.20995,-10.2296,0.879962,11.19,4.413,-14.165,-14.9894,28.3547,29.0895,1008.78
351320,1.04256,-10.1243,1.29603,13.43,2.733,-15.285,-15.6179,28.2377,27.6864,1008.78
351326,1.83166,-9.92826,1.1956,8.04,8.263,-14.025,-15.2817,28.2962,27.5548,1008.78
351332,0.549976,-10.7652,1.58297,5.59,4.203,-19.135,-15.6179,27.4193,28.5633,1008.77
351338,0.789096,-10.66,1.94165,1.6,2.383,-24.945,-14.9017,28.2377,28.5195,1008.77
351344,0.659971,-11.0952,1.82688,-6.38,1.753,-32.435,-15.8225,27.9747,28.5633,1008.81
351350,0.985174,-11.5495,1.53993,-5.26,0.423,-36.495,-15.3256,28.0039,27.5256,1008.81
351356,0.774749,-12.0564,1.58776,-5.19,0.423,-41.675,-15.4279,28.2085,29.2649,1008.72
351362,0.392157,-12.7021,1.7121,-6.59,-2.517,-47.275,-15.9979,28.5739,27.6425,1008.72
351368,0.363462,-13.319,1.80775,-4.21,-2.587,-56.515,-16.6556,27.7408,28.9141,1008.74
351374,0.114778,-13.7877,1.91774,-2.11,-5.527,-65.125,-17.021,27.5654,28.3879,1008.74
351380,-0.0334768,-14.4572,1.62602,-3.86,-6.017,-77.095,-16.8895,28.0331,27.9348,1008.79
351386,0.105213,-15.5954,1.16691,7.55,-10.147,-86.405,-17.7372,28.8662,28.4902,1008.79
351392,0.45911,-14.022,0.755619,13.5,-9.517,-97.255,-16.7871,28.8662,29.0602,1008.72
351398,0.750837,-11.9177,1.34385,20.29,-15.817,-102.785,-16.8895,27.7408,28.6948,1008.72
351404,0.798661,-10.9517,1.59732,9.86,-17.357,-105.935,-18.0879,27.9454,29.0018,1008.72
351410,0.985174,-11.5878,1.56863,15.88,-19.317,-107.405,-18.2925,28.1793,27.4817,1008.73
351416,0.530846,-11.3486,1.64515,14.34,-23.097,-111.535,-19.2718,28.4716,28.9287,1008.73
351422,0.607365,-12.7212,2.68293,19.45,-24.077,-122.525,-19.2426,28.0039,29.1479,1008.8
351428,-0.10043,-14.4572,2.18556,10.49,-25.897,-127.075,-18.7456,28.0916,28.3002,1008.8
351434,-0.215208,-14.8924,1.23864,10.21,-31.637,-144.785,-19.871,28.3547,28.2856,1008.78
351440,1.13821,-15.4185,1.30081,18.96,-24.707,-155.705,-19.9149,28.2085,28.3587,1008.78
351446,0.196078,-16.021,1.91774,16.37,-29.537,-176.425,-20.4849,27.2439,28.8264,1008.75
351452,-0.703013,-16.0067,1.47298,10.49,-30.307,-195.745,-22.1365,28.6031,29.4402,1008.75
351458,-0.411286,-14.9785,1.53993,12.87,-24.567,-202.465,-22.5311,27.39,28.5487,1008.75
351464,0.191296,-15.6863,1.22429,14.48,-24.987,-217.655,-22.2534,27.5654,29.3087,1008.75
351470,-0.023912,-16.3654,0.884744,15.04,-25.127,-238.025,-22.6918,27.3023,28.2271,1008.75
351476,0.435198,-18.5748,0.33955,21.62,-24.917,-258.815,-23.3496,27.1269,28.6364,1008.75
351482,0.0334768,-19.7561,0.172166,25.33,-14.907,-278.065,-24.9719,27.0246,28.6948,1008.76
351488,0.526064,-21.8603,0.95648,41.92,-12.807,-310.125,-25.6004,26.7323,27.8033,1008.76
351494,1.97513,-24.8398,0.291726,34.43,-3.497,-327.065,-27.0035,26.1185,27.8179,1008.76
351500,2.68771,-26.5949,-0.301291,50.46,-0.487,-342.815,-27.7196,24.9054,26.9263,1008.75
351506,4.49546,-25.7676,0.35868,58.02,-7.487,-358.425,-29.3127,24.9346,27.0871,1008.75
351512,3.72071,-26.021,0.143472,73.42,-2.797,-363.255,-30.2627,24.4961,26.2394,1008.75
351518,5.63845,-22.8933,-0.879962,92.53,6.513,-364.725,-31.1251,23.8969,26.6048,1008.75
351524,5.75323,-21.8556,0.71736,101.84,4.833,-362.765,-32.6743,23.3123,25.8302,1008.75
351530,4.87805,-21.3008,1.1956,104.22,11.903,-364.095,-33.0251,22.6253,24.4417,1008.75
351536,4.81588,-21.7599,1.08082,106.6,2.943,-361.015,-34.4428,22.3038,24.2078,1008.73
351542,4.76805,-19.78,1.20995,103.17,4.693,-357.165,-35.7582,20.5645,23.6086,1008.73
351548,6.18364,-17.5131,1.07604,82.52,3.853,-350.655,-37.0151,20.1845,22.9655,1008.74
351554,4.09852,-18.0679,0.114778,69.85,12.393,-342.465,-37.3367,19.0299,22.4686,1008.74
351560,1.51124,-19.2587,-0.71736,66,12.113,-333.155,-37.8775,18.5476,22.454,1008.75
351566,-0.999522,-19.67,-0.439981,63.83,18.903,-331.545,-38.9736,17.3783,22.1324,1008.75
351572,-2.75944,-19.5361,-0.607365,57.04,19.533,-335.605,-39.0613,16.0191,19.6478,1008.75
351578,-3.83548,-18.3118,-1.63558,46.47,23.803,-340.995,-39.719,15.3321,21.197,1008.74
351584,-3.54854,-16.0402,-2.91248,27.43,28.213,-348.275,-40.5375,13.5637,19.8524,1008.74
351590,-0.0047824,-18.0775,-2.77379,8.25,48.023,-385.165,-41.2829,13.3298,19.9255,1008.72
351596,-12.3673,-17.8527,0.71736,11.47,33.113,-398.605,-42.1014,11.2544,19.6332,1008.72
351602,-9.27786,-8.28312,0.889526,-56.57,16.033,-420.445,-42.4375,9.31052,19.0485,1008.74
351608,-3.54854,-12.2238,-3.03682,-95.35,66.153,-445.085,-43.8553,6.79663,19.3116,1008.74
351614,-5.96365,-18.9096,-7.74749,-93.46,92.613,-491.845,-43.4168,5.62738,18.4347,1008.72
351620,-5.37542,-16.7958,-7.07317,-72.67,104.793,-516.135,-44.0891,3.1135,15.7162,1008.72
351626,3.76375,0.712578,-4.25155,-68.54,123.903,-442.075,-44.1622,0.877312,15.5116,1008.69
351632,0.832138,10.6169,-8.03921,-59.79,137.553,-348.625,-44.4399,-0.61348,14.7077,1008.69
351638,2.46294,23.9837,-7.11143,-8.83,160.793,-211.775,-43.9722,-1.73888,14.9562,1008.74
351644,-7.29794,27.9197,2.31468,-62.8,178.363,-81.015,-43.8114,-2.29428,13.5969,1008.74
351650,-14.395,19.297,8.03443,-125.45,132.303,15.165,-43.6214,-3.52199,11.8869,1008.7
351656,-12.1425,10.043,5.74366,-155.83,111.443,93.425,-43.7529,-2.26505,12.6177,1008.7
351662,-11.9321,1.85557,3.02248,-145.61,85.473,159.995,-43.9868,-1.89966,12.0477,1008.7
351668,-10.0383,-2.17599,2.12817,-128.46,69.723,211.655,-43.5922,-1.31503,11.5361,1008.71
351674,-9.49785,-2.85031,2.44381,-123,54.673,252.115,-42.5106,-0.628098,10.4984,1008.71
351680,-8.79962,-4.83501,1.4395,-116.42,43.893,278.505,-42.9491,0.0442219,10.5861,1008.7
351686,-8.78527,-7.63749,-0.0669536,-96.4,33.603,298.035,-42.4814,0.745771,10.4253,1008.7
351692,-8.36442,-9.76566,-1.23386,-70.29,27.373,310.075,-41.5314,2.01733,10.7323,1008.73
351698,-7.56576,-10.9613,-1.45863,-42.78,23.593,318.125,-41.356,3.23042,10.6592,1008.73
351704,-6.35581,-9.8374,-0.679101,-21.5,20.723,322.535,-40.8883,4.73583,9.34377,1008.72
351710,-5.52845,-8.33572,0.449546,-9.81,18.483,326.945,-40.1575,5.46661,10.4692,1008.72
351716,-4.98804,-7.8527,1.15734,-3.02,14.353,329.255,-39.2367,6.18278,9.47532,1008.7
351722,-4.82544,-7.75227,1.55906,0.76,10.853,328.415,-38.959,7.86357,9.81147,1008.7
351728,-4.97848,-7.72836,2.01817,4.75,4.343,327.715,-38.4182,8.41897,8.83223,1008.71
351734,-4.13678,-7.36011,2.10426,0.97,1.753,324.985,-37.9944,10.0121,9.44608,1008.71
351740,-3.85461,-6.81492,2.17599,-7.08,-3.007,323.865,-37.4682,11.0205,8.83223,1008.71
351746,-2.76423,-6.53754,1.59732,-17.16,-3.847,324.005,-36.7082,12.2629,8.87607,1008.72
351752,-2.19512,-6.33668,1.06169,-26.4,-5.247,323.865,-36.5767,12.8183,8.46684,1008.72
351758,-1.32472,-6.13104,0.411286,-36.41,-2.797,323.095,-35.2174,14.0752,8.59838,1008.73
351764,-0.961262,-6.10713,0.023912,-46.63,-1.957,320.225,-34.1943,14.3383,8.56915,1008.73
351770,-0.889526,-6.03061,0.0191296,-59.65,2.383,320.295,-34.092,14.6598,9.31454,1008.71
351776,-1.14299,-5.88713,0.49737,-77.43,3.293,315.605,-33.9605,16.3114,8.40837,1008.71
351782,-1.31038,-6.03061,1.04735,-96.75,2.733,309.865,-32.2358,16.9545,8.32068,1008.72
351788,-1.56384,-6.37494,1.42516,-120.62,1.823,302.445,-32.5866,18.226,8.29145,1008.72
351794,-1.09995,-7.17838,1.39646,-140.43,-0.837,299.715,-31.8705,18.0507,9.43147,1008.67
351800,-0.932568,-7.95791,1.21473,-156.04,-5.247,296.425,-30.9935,19.293,8.74453,1008.67
351806,-0.865614,-9.24438,0.999522,-165.56,-6.577,297.055,-30.2189,19.8045,8.74453,1008.68
351812,-1.23386,-10.4352,1.10952,-168.78,-10.357,299.855,-30.1604,21.3538,9.13916,1008.68
351818,-1.73601,-11.6021,1.46341,-169.97,-15.817,300.275,-29.5466,21.8361,10.6153,1008.71
351824,-1.94165,-13.0464,1.85079,-166.47,-23.027,299.645,-29.2835,23.283,9.97224,1008.71
351830,-2.02296,-14.6341,1.93687,-157.44,-28.627,298.525,-28.2604,24.2184,10.0746,1008.71
351836,-1.51124,-16.0545,1.73601,-147.43,-33.107,293.905,-27.135,26.3231,9.86993,1008.71
351842,-0.846485,-17.5275,1.4395,-135.32,-36.957,287.185,-26.6234,26.7031,11.2877,1008.71
351848,-0.0143472,-18.3835,1.25777,-121.46,-39.337,279.275,-26.185,28.3254,10.5276,1008.73
351854,0.980392,-18.9431,0.961262,-109.49,-40.667,267.445,-25.2934,29.5678,11.8138,1008.73
351860,2.03252,-19.3831,0.569106,-99.41,-39.617,255.265,-23.5834,30.6639,11.8284,1008.74
351866,3.01769,-19.6509,0.176949,-89.82,-36.397,242.105,-22.838,31.5701,12.5007,1008.74
351872,3.88809,-19.8661,-0.229555,-83.45,-34.787,229.435,-20.3387,31.9939,13.0561,1008.73
351878,4.74414,-19.7513,-0.621712,-78.06,-30.727,216.275,-19.0379,33.6163,12.0915,1008.73
351884,5.40411,-19.7131,-0.908656,-72.6,-26.457,204.165,-18.0295,33.8501,12.9392,1008.72
351890,5.94452,-19.4165,-0.760402,-70.71,-22.467,190.935,-16.4071,33.8501,12.8223,1008.72
351896,6.53754,-19.34,-0.454328,-68.96,-19.667,178.895,-15.0479,35.3848,13.3777,1008.71
351902,7.23099,-19.3209,-0.143472,-67.84,-17.637,168.605,-13.4256,35.1509,14.0208,1008.71
351908,8.16834,-19.5074,0.071736,-64.76,-16.237,160.135,-11.4817,34.2886,14.6785,1008.71
351914,9.10091,-19.6844,0.37781,-61.82,-16.027,153.485,-10.6778,34.274,15.0585,1008.75
351920,10.1961,-19.4978,1.07126,-59.3,-17.917,148.235,-9.46472,33.6747,15.3216,1008.75
351926,11.7743,-19.5218,2.06121,-62.66,-17.357,149.285,-8.04701,33.2363,14.1815,1008.74
351932,13.2664,-19.9522,3.03204,-59.37,-17.567,154.955,-7.25776,31.877,15.7016,1008.74
351938,14.3615,-19.6557,3.49593,-54.54,-16.237,166.645,-6.5416,31.5262,16.447,1008.72
351944,14.8159,-17.9483,3.71114,-47.89,-15.117,183.375,-6.90699,30.3424,16.7831,1008.72
351950,14.6772,-14.7681,4.35198,-44.67,-16.657,204.935,-5.84005,30.1085,17.5285,1008.73
351956,14.3472,-10.7652,5.36585,-46.98,-16.797,225.235,-4.8608,29.4508,16.0085,1008.73
351962,14.1368,-7.42229,6.43233,-60.91,-20.927,246.235,-4.21772,29.2462,16.9147,1008.76
351968,14.2659,-5.83931,7.15447,-80.37,-24.777,258.835,-4.89003,28.5008,17.4701,1008.76
351974,14.6102,-5.96365,7.47489,-99.62,-29.187,266.955,-3.20924,28.837,17.3531,1008.72
351980,15.1411,-7.56576,7.10665,-116.63,-33.527,270.525,-2.05461,28.0623,18.347,1008.72
351986,16.4706,-9.92826,6.09756,-119.57,-36.117,266.815,-2.40538,28.5008,17.3385,1008.77
351992,18.1683,-11.9895,5.12195,-115.58,-35.767,261.425,-0.783049,27.9747,16.9,1008.77
351998,20.0526,-13.6777,4.38546,-101.58,-32.127,251.555,0.283891,28.0623,17.7477,1008.77
352004,23.2951,-46.3415,6.70493,-244.8,36.753,91.745,0.210813,27.9162,17.4408,1008.74
352010,32.769,-27.3219,-13.1133,28.2,-13.367,126.745,1.39468,26.8492,18.1862,1008.74
352016,19.0626,-5.25586,3.1516,29.74,-24.777,89.365,1.99392,27.3608,18.727,1008.76
352022,26.2649,-9.12482,8.2592,-27.31,15.963,47.505,2.22777,27.4485,18.4493,1008.76
352028,24.0172,-21.7456,5.59063,33.1,-0.487,11.315,1.54083,27.0246,16.7247,1008.76
352034,25.4232,-18.8714,4.34242,85.95,7.633,-32.015,1.96469,27.5946,17.09,1008.76
352040,21.999,-10.1387,8.50789,70.34,11.623,-65.405,1.73084,26.7323,16.4177,1008.73
352046,19.9044,-8.71353,8.82353,49.2,9.383,-89.275,1.24852,26.4108,16.71,1008.73
352052,18.9,-11.1765,9.09134,57.67,7.283,-114.685,1.07313,27.5362,16.14,1008.69
352058,18.0105,-9.2396,10.153,63.41,8.753,-148.075,0.75159,27.1123,16.067,1008.69
352064,15.3802,-6.08321,14.3329,39.47,-0.137,-191.265,-0.57843,27.9454,16.4616,1008.75
352070,13.692,-3.10378,6.901,11.61,16.803,-202.325,-1.10459,27.9747,15.0146,1008.75
352076,-9.67001,-6.96317,-2.07556,25.05,29.823,-220.595,-1.52844,27.9454,16.5931,1008.75
352082,-10.7269,-9.10569,1.22429,44.72,-56.837,-224.515,-3.79386,27.3316,15.4385,1008.72
352088,7.83835,-6.36059,1.4682,16.65,8.613,-221.085,-3.91079,27.7993,14.3715,1008.72
352094,-2.42946,-7.56576,2.81683,-30.11,23.033,-225.425,-4.89003,27.4485,15.6869,1008.72
352100,-0.023912,-15.012,1.48733,-31.16,-5.737,-222.135,-6.10313,27.6531,16.6077,1008.72
352106,4.63893,-18.2927,1.86992,16.44,4.273,-212.265,-6.99468,27.3608,15.5116,1008.73
352112,-1.75036,-15.7102,4.83501,11.82,-66.427,-189.095,-7.55008,27.5362,15.19,1008.73
352118,9.74653,-19.9857,-0.985174,68.1,-53.897,-158.505,-8.45624,27.39,15.95,1008.74
352124,6.12147,-14.4763,2.33859,99.32,-71.747,-120.985,-8.85087,27.5362,14.6931,1008.74
352130,10.2248,-9.0483,4.98804,83.71,-63.627,-89.415,-10.2101,27.5946,14.2254,1008.69
352136,9.58871,-6.89622,1.62602,52.07,-22.117,-64.985,-10.327,27.2731,14.7077,1008.69
352142,3.44333,-8.24008,1.97991,38.91,-30.307,-51.475,-10.1517,27.3608,13.9477,1008.73
352148,2.66858,-10.22,0.746054,41.85,-19.247,-44.825,-10.2978,27.2146,14.2108,1008.73
352154,-0.0047824,-11.2721,0.272597,48.64,-32.337,-40.345,-9.75703,27.3316,13.67,1008.7
352160,1.4682,-11.1191,-0.401722,63.69,-40.107,-34.465,-10.6194,27.9454,13.3777,1008.7
352166,1.91296,-9.18699,0.535629,63.41,-39.897,-29.355,-10.824,27.0539,13.2608,1008.7
352172,3.87853,-7.36011,1.07126,46.05,-30.727,-24.175,-10.0347,27.5362,12.7492,1008.73
352178,4.15591,-7.53228,1.16691,27.71,-14.137,-17.805,-10.4147,27.6823,13.2023,1008.73
352184,2.99856,-8.0153,1.45863,16.79,-11.827,-11.155,-10.3563,27.2731,12.5446,1008.75
352190,1.956,-8.66093,0.674318,5.45,-5.387,-8.355,-10.1224,27.507,12.1207,1008.75
352196,0.985174,-10.4352,0.473458,12.73,-10.147,-6.185,-10.5901,27.5654,12.6761,1008.78
352202,1.27212,-10.4782,0.559541,18.4,-9.237,-6.535,-11.1747,27.6239,12.5154,1008.78
352208,1.61645,-9.12004,1.10952,16.44,-10.707,-5.835,-11.5986,27.7993,12.3546,1008.71
352214,2.90292,-7.99139,1.42516,3.28,0.493,-3.595,-10.5901,26.9077,13.0561,1008.71
352220,0.860832,-9.36394,1.4395,-1.48,-0.907,-3.595,-11.1017,27.4485,13.3192,1008.74
352226,1.23864,-11.0139,0.325203,7.9,-2.797,-3.105,-11.3209,28.0623,13.1292,1008.74
352232,1.06169,-10.043,0.85605,11.26,-1.817,-2.615,-10.064,27.3316,12.5884,1008.7
352238,1.07604,-9.04352,1.4682,4.19,-2.727,-2.825,-10.8532,28.0623,13.6846,1008.7
352244,1.22908,-9.89479,0.97561,4.12,-1.607,-1.145,-11.0871,26.6739,13.2754,1008.73
352250,1.33907,-9.93304,0.899091,7.76,-1.397,-2.825,-11.5694,27.7993,12.9684,1008.73
352256,0.980392,-9.52176,1.16691,4.12,-0.417,-2.405,-10.7947,27.1854,13.3338,1008.73
352262,1.05691,-9.98087,0.942133,6.01,-1.677,-3.105,-11.5109,27.7993,13.0269,1008.78
352268,1.25299,-9.81827,0.903874,7.34,-1.257,-4.645,-10.9117,27.7116,12.0184,1008.78
352274,1.12386,-9.52176,1.13821,5.87,-1.607,-5.135,-11.014,26.8492,12.9831,1008.76
352280,1.28168,-9.65567,0.999522,5.94,-0.627,-2.825,-11.1747,27.77,12.3838,1008.76
352286,1.28168,-9.5648,0.989957,5.87,1.263,-3.875,-11.0578,27.6239,12.15,1008.73
352292,0.985174,-9.71305,0.93735,5.24,0.353,-3.735,-11.2478,27.39,12.9246,1008.73
352298,1.26734,-9.84696,0.803443,8.11,0.423,-3.385,-10.6486,26.9662,13.3777,1008.73
352304,1.25299,-9.55523,1.0043,7.06,1.963,-4.155,-11.6863,27.4193,13.2023,1008.73
352310,1.08082,-9.3735,1.14778,4.26,2.383,-3.945,-11.6863,27.1562,12.3838,1008.74
352316,1.17647,-9.53611,1.033,4.4,2.733,-3.455,-11.5986,27.8577,12.3546,1008.74
352322,1.06169,-9.59828,1.01865,5.24,2.033,-3.875,-11.8617,27.4485,12.6031,1008.71
352328,1.51124,-9.60306,0.946915,3.49,2.173,-2.055,-11.6863,27.0246,13.1584,1008.71
352334,1.41559,-9.76088,0.664754,3.07,3.713,-1.845,-10.7947,27.3316,12.6615,1008.71
352340,1.00909,-10.2104,0.573888,6.5,1.053,-1.285,-11.5986,26.9954,13.5531,1008.71
352346,1.43472,-9.76566,0.73649,6.99,1.053,-0.445,-12.2709,27.2146,13.1,1008.71
352352,1.16212,-9.37829,1.09039,3.7,3.153,-0.655,-11.774,27.4485,12.7638,1008.74
352358,1.13343,-9.82305,0.923003,3.63,1.193,-0.445,-11.3501,27.5654,13.3192,1008.74
352364,1.13343,-9.98087,0.822573,5.66,0.633,-0.445,-11.3647,26.7323,12.15,1008.74
352370,1.07604,-9.74653,0.923003,5.59,0.283,-1.565,-11.6278,26.7031,12.4569,1008.74
352376,1.07126,-9.76088,0.942133,5.52,-0.277,-2.825,-10.1517,28.0331,13.3192,1008.75
352382,1.01387,-9.96652,0.894309,6.99,-0.277,-1.495,-11.4963,27.77,12.34,1008.75
352388,1.00909,-9.90913,0.961262,8.88,-1.747,-2.895,-11.4817,26.7908,11.9161,1008.76
352394,1.29125,-9.58871,1.05691,8.32,-0.697,-3.315,-11.5986,27.7116,12.8515,1008.76
352400,1.07604,-9.53611,1.25777,7.13,-0.277,-3.035,-11.3355,27.0831,12.5592,1008.75
352406,1.20995,-9.39742,1.31038,8.88,-0.137,-4.855,-11.5109,27.39,13.0854,1008.75
352412,1.16212,-9.18699,1.29125,1.53,0.633,-3.385,-11.3501,27.3608,11.4046,1008.76
352418,1.14778,-9.55523,1.19082,1.74,1.263,-4.085,-11.2478,27.6531,11.6384,1008.76
352424,0.95648,-9.96652,0.903874,1.32,-0.487,-3.525,-11.4232,27.7993,11.1853,1008.76
352430,1.35342,-10.1722,0.923003,6.99,1.823,-4.155,-10.5901,28.0039,12.3254,1008.77
352436,0.918221,-9.60306,1.37255,5.24,0.703,-4.225,-11.0578,27.7116,12.3254,1008.77
352442,0.994739,-10.3348,0.750837,6.43,-1.677,-4.855,-11.2478,27.4193,11.653,1008.78
352448,1.48254,-10.6648,0.373027,15.46,-1.817,-5.555,-12.2125,27.77,13.8162,1008.78
352454,1.2769,-9.49785,1.13343,13.29,-0.417,-5.835,-11.5986,27.2731,12.6761,1008.74
352460,1.033,-9.71305,1.23386,12.03,-2.517,-6.535,-11.774,27.507,13.4508,1008.74
352466,1.42516,-10.1578,0.784314,14.69,-0.347,-5.205,-11.3063,26.7323,12.53,1008.75
352472,1.28168,-9.41655,1.28168,15.6,0.283,-6.325,-11.4524,28.0039,12.1938,1008.75
352478,1.32472,-9.07699,1.33907,10.28,0.843,-7.165,-10.9701,27.4777,12.7931,1008.76
352484,1.27212,-9.66045,0.784314,4.68,1.753,-7.305,-12.0078,28.2962,12.7054,1008.76
352490,1.31994,-9.86609,0.827355,14.69,0.913,-8.145,-11.6863,27.3316,12.223,1008.76
352496,1.07126,-9.45002,1.53515,11.75,2.103,-8.285,-12.1832,27.7993,12.1354,1008.76
352502,1.04256,-9.81827,1.09995,8.67,0.843,-8.005,-11.0286,27.2439,11.58,1008.76
352508,1.18125,-10.6982,0.530846,12.59,2.873,-8.005,-11.4963,27.4193,11.8138,1008.75
352514,1.23386,-10.4161,0.583453,17.91,0.073,-10.105,-12.3001,27.4485,12.0915,1008.75
352520,1.64515,-9.70349,0.808226,16.93,3.293,-10.455,-12.2709,26.7323,11.8869,1008.77
352526,1.28168,-10.067,0.918221,15.81,4.273,-11.155,-11.2332,27.1416,12.1061,1008.77
352532,1.59732,-10.2343,0.693448,18.54,5.813,-13.465,-11.8617,26.9369,10.9661,1008.76
352538,1.44907,-9.91392,1.08082,17.91,6.863,-12.345,-12.0955,26.9369,11.3461,1008.76
352544,1.27212,-9.77523,1.33907,15.46,5.813,-14.165,-12.7678,26.7031,11.3753,1008.71
352550,1.80775,-9.78001,1.13343,13.29,8.403,-14.235,-11.8909,27.3608,10.4984,1008.71
352556,1.12865,-10.1004,1.3582,12.94,7.703,-16.195,-11.9201,27.2146,10.5715,1008.75
352562,1.1143,-9.98565,1.88427,10.77,6.373,-19.695,-11.4963,27.2439,10.8346,1008.75
352568,-0.540411,-9.76566,3.81636,-4.63,-0.627,-26.275,-11.8617,27.4485,11.1123,1008.72
352574,-0.0573888,-10.3348,3.64897,-14.78,-6.367,-30.895,-12.5925,27.2731,11.1561,1008.72
352580,0.994739,-11.1286,2.30033,-14.99,-7.137,-35.725,-12.3878,26.9954,10.7615,1008.76
352586,0.69823,-12.0995,1.53037,-16.81,-6.857,-39.225,-12.8702,26.2646,11.01,1008.76
352592,1.05213,-12.9507,1.14778,-13.03,-6.507,-46.855,-12.9579,26.7616,10.6446,1008.76
352598,0.813008,-13.5438,1.68819,-8.69,-5.247,-54.905,-12.9432,27.39,11.4046,1008.73
352604,-0.124342,-12.9507,1.93209,-5.47,-10.357,-61.555,-12.8848,27.1416,11.0246,1008.73
352610,-0.0143472,-13.7829,1.29125,-7.5,-18.687,-69.885,-13.104,26.9662,11.7846,1008.78
352616,0.846485,-16.0545,0.114778,0.62,-17.987,-85.285,-13.6009,26.82,11.1415,1008.78
352622,1.1143,-16.9919,-0.11956,12.38,-10.707,-102.575,-14.0686,27.2146,11.6092,1008.71
352628,0.387374,-14.5385,1.73123,22.32,-10.147,-110.625,-14.6679,26.9369,10.8784,1008.71
352634,0.0573888,-11.8269,2.86944,18.12,-13.717,-120.285,-14.8286,26.6446,11.5069,1008.76
352640,1.13821,-10.6361,1.61167,4.68,-13.227,-119.515,-15.3987,26.7323,10.9223,1008.76
352646,1.1143,-11.5208,0.61693,2.3,-10.707,-116.855,-15.4864,26.3231,12.0915,1008.77
352652,1.13343,-11.9082,0.731707,16.44,-12.247,-124.765,-16.6848,26.3815,11.1269,1008.77
352658,1.29125,-10.9517,1.59254,24.7,-13.017,-135.055,-16.6702,26.3231,11.5215,1008.74
352664,1.43472,-11.3056,2.15208,24.28,-12.317,-138.065,-17.4595,25.7969,11.58,1008.74
352670,1.6308,-11.7073,1.47776,18.33,-13.017,-145.345,-18.3218,26.0015,10.9369,1008.74
352676,0.655189,-12.7403,0.889526,16.93,-12.947,-155.705,-18.0295,25.5192,11.5069,1008.71
352682,0.153037,-12.9842,1.4682,19.94,-10.217,-162.005,-19.0379,25.5777,11.01,1008.71
352688,-1.67384,-14.352,3.099,6.92,-20.787,-173.765,-19.7395,25.2561,11.273,1008.77
352694,-1.53037,-17.4462,4.1033,-0.57,-19.597,-207.365,-20.4264,25.49,11.58,1008.77
352700,-2.89335,-20.1148,4.36633,-6.66,-27.577,-231.305,-21.6249,23.8969,11.1123,1008.73
352706,-0.994739,-20.0239,3.00813,-1.13,-26.527,-256.995,-22.5311,23.4292,11.3315,1008.73
352712,-0.420851,-17.5801,1.75036,-4.42,-30.097,-280.585,-23.1742,23.2246,11.2292,1008.75
352718,0.621712,-17.4175,1.37733,-5.89,-32.687,-293.745,-23.788,22.45,11.0392,1008.75
352724,2.13295,-19.0435,1.20516,-5.12,-33.317,-302.145,-24.7088,22.0992,10.7469,1008.73
352730,4.31851,-21.6404,1.07604,10.63,-28.207,-316.635,-25.7465,21.4853,11.653,1008.73
352736,4.60067,-24.0555,1.14778,22.53,-27.787,-322.445,-26.6819,20.6815,11.8284,1008.75
352742,4.85414,-24.7154,0.502152,41.99,-34.437,-328.955,-27.6465,20.2138,12.8369,1008.75
352748,7.03969,-22.0182,-1.42037,66.35,-19.247,-327.975,-28.7866,18.0799,11.4776,1008.74
352754,7.9627,-20.6791,-1.06648,84.48,-21.207,-316.005,-29.4589,18.4014,11.6238,1008.74
352760,9.95696,-20.33,-0.918221,90.36,-5.457,-311.105,-30.7597,16.7206,12.2084,1008.74
352766,6.60928,-21.2482,-1.40603,100.86,1.963,-307.535,-31.5051,16.1068,10.5715,1008.72
352772,6.60928,-17.7284,-0.707795,96.94,-12.247,-298.295,-31.6951,14.8644,11.4046,1008.72
352778,9.89479,-15.7102,-0.655189,60.54,7.983,-294.165,-32.2651,14.0314,11.2584,1008.72
352784,5.6528,-17.5944,-1.51602,47.59,-1.537,-280.585,-33.4928,12.4821,10.7323,1008.72
352790,6.66188,-18.1396,-3.10378,41.64,15.403,-266.095,-33.6682,12.2044,10.8638,1008.72
352796,4.62458,-18.5988,-2.15208,32.61,21.913,-256.925,-34.3551,11.0644,11.3315,1008.72
352802,2.1999,-19.0818,-0.301291,22.46,27.093,-256.855,-35.7436,10.699,10.5861,1008.68
352808,3.36203,-19.1105,1.42994,1.74,27.163,-268.405,-35.2759,9.22282,10.2938,1008.68
352814,3.31899,-20.3204,2.34338,-20.59,39.833,-291.715,-34.9982,8.46281,10.2646,1008.74
352820,1.65471,-21.7982,1.67862,-44.53,56.003,-335.045,-35.7728,7.4251,10.9515,1008.74
352826,0.157819,-20.6743,1.65471,-80.09,24.433,-356.115,-36.5328,6.47509,10.513,1008.71
352832,5.36107,-23.2233,-4.38546,-68.4,77.423,-410.785,-37.1321,4.2389,10.5276,1008.71
352838,14.9641,-17.7284,-1.54472,15.25,65.523,-354.015,-37.0736,3.36197,11.463,1008.71
352844,18.7661,2.50598,0.353898,22.6,97.723,-238.935,-37.819,2.01733,10.8346,1008.67
352850,11.2912,6.78144,3.3955,16.23,87.853,-136.595,-37.6728,1.09655,11.843,1008.67
352856,6.92492,4.25634,0.483022,48.29,103.463,-46.085,-36.7374,0.672693,11.3315,1008.66
352862,-0.310856,4.34242,0.726925,55.36,90.863,27.275,-37.5267,0.570385,10.6592,1008.66
352868,0.272597,2.1999,1.76949,49.62,90.723,87.405,-37.2782,1.08193,11.273,1008.7
352874,2.60641,-1.83644,2.15208,46.89,91.913,127.235,-36.3574,1.68117,10.4838,1008.7
352880,3.50072,-3.92157,2.7451,39.96,94.433,157.125,-37.3075,1.84194,10.3961,1008.69
352886,2.94118,-5.50933,3.69201,17.21,86.383,175.885,-37.3367,1.94425,10.6007,1008.69
352892,1.65949,-6.08321,3.44333,-5.61,87.223,180.715,-37.0444,2.90888,11.7553,1008.69
352898,2.07556,-8.46963,2.13773,-17.09,83.933,184.635,-36.8251,3.50812,10.3669,1008.69
352904,1.1956,-8.24486,1.74079,-20.38,82.813,187.855,-36.5913,3.1135,9.78224,1008.7
352910,0.994739,-8.11095,1.54472,-17.51,83.023,192.825,-35.729,4.75045,9.89917,1008.7
352916,-0.45911,-8.24008,1.56384,-6.24,81.063,200.595,-35.6559,5.3643,10.0746,1008.72
352922,-1.20995,-8.28312,1.75514,10.21,77.633,207.875,-34.9251,5.832,10.3669,1008.72
352928,-1.69775,-7.88618,2.34816,29.18,73.153,216.275,-35.6267,6.72355,11.5946,1008.72
352934,-2.18556,-6.48493,3.19464,42.48,66.433,226.285,-34.6913,6.73817,10.1622,1008.74
352940,-2.49163,-5.07413,3.69201,47.73,58.313,237.415,-34.7643,7.52741,11.6969,1008.74
352946,-2.12817,-4.16069,2.76423,56.13,53.343,247.215,-34.3113,8.24358,10.703,1008.72
352952,-1.77427,-2.76901,1.73123,59.42,49.073,255.615,-34.0774,9.86591,10.0015,1008.72
352958,-1.4682,-1.21951,0.951698,57.95,48.863,262.265,-32.9666,10.1144,10.9661,1008.7
352964,-1.54472,-0.0286944,0.664754,51.23,45.783,264.155,-32.8789,10.9328,10.0746,1008.7
352970,-1.53515,0.679101,0.47824,38.42,43.263,261.425,-32.7474,11.3129,10.82,1008.69
352976,-1.72645,1.0856,0.707795,20.85,38.713,253.445,-31.9143,11.7952,11.1561,1008.69
352982,-1.71688,0.860832,0.822573,-1.13,32.343,242.875,-31.5928,13.096,12.2377,1008.69
352988,-1.69297,0.301291,0.750837,-22.76,25.693,228.665,-31.3151,14.3968,10.8053,1008.69
352994,-1.93209,0.157819,0.659971,-43.13,18.343,219.355,-30.4089,14.0314,11.5507,1008.7
353000,-2.34338,0.157819,0.674318,-56.64,9.943,210.465,-29.9558,15.0398,12.9392,1008.7
353006,-2.69249,0.0143472,0.793878,-66.09,-0.837,205.985,-29.8827,15.2006,12.3107,1008.7
353012,-2.34816,-0.296509,1.0043,-71.41,-11.477,205.845,-29.4004,16.1652,13.0415,1008.7
353018,-2.20469,-0.779531,1.46341,-74.42,-22.467,208.785,-28.7135,15.9899,13.2315,1008.7
353024,-2.10426,-1.0043,1.86514,-76.66,-31.987,216.065,-28.3042,16.9106,13.6846,1008.68
353030,-2.29555,-1.1956,1.89383,-79.67,-43.957,221.875,-27.9535,17.4953,14.5469,1008.68
353036,-2.16643,-1.31516,1.33907,-83.24,-51.727,229.225,-27.0035,17.7583,14.9708,1008.68
353042,-1.83166,-1.69297,0.521282,-83.66,-59.147,234.125,-27.0327,17.963,15.8039,1008.68
353048,-1.20038,-1.93687,-0.0191296,-84.01,-64.327,237.625,-26.185,18.8837,16.5785,1008.71
353054,-0.310856,-2.48685,-0.463893,-84.78,-66.427,235.735,-24.9427,18.7084,16.6223,1008.71
353060,0.272597,-2.98422,-0.664754,-87.51,-68.247,231.465,-25.0303,20.0091,17.6454,1008.72
353066,1.42037,-3.15638,-1.09995,-95.42,-67.827,224.815,-24.358,20.1261,18.9755,1008.72
353072,2.51076,-3.3955,-1.75992,-102.98,-63.417,218.305,-23.7003,20.4768,18.8585,1008.66
353078,3.71114,-3.11812,-2.33859,-107.88,-56.207,211.935,-22.7649,21.3538,19.8085,1008.66
353084,4.16547,-2.78814,-2.50598,-112.92,-49.907,208.295,-22.0195,21.6315,21.5624,1008.68
353090,4.56719,-3.18986,-2.63032,-118.52,-41.087,205.145,-21.8441,21.2076,22.3955,1008.68
353096,4.86848,-4.37111,-2.60641,-118.17,-34.297,202.205,-20.9234,21.3976,23.1409,1008.68
353102,5.17456,-5.34672,-2.20947,-115.79,-27.367,199.685,-20.4995,21.573,23.0971,1008.7
353108,5.47585,-5.70062,-1.51124,-112.36,-21.907,195.555,-20.5434,21.3684,23.7694,1008.7
353114,5.76279,-5.99235,-0.774749,-109.84,-20.507,192.195,-19.5641,22.5669,24.2663,1008.73
353120,6.23147,-6.15495,-0.0334768,-110.05,-18.477,187.645,-18.9503,22.45,25.4063,1008.73
353126,6.99665,-6.39885,0.439981,-110.82,-17.357,182.815,-19.3887,22.6253,26.1663,1008.73
353132,7.89574,-6.87231,0.21999,-110.82,-15.117,179.245,-17.971,22.0992,27.4233,1008.73
353138,9.01961,-7.71401,-0.349115,-106.97,-9.797,176.795,-18.0295,22.6253,27.9348,1008.72
353144,10.0191,-8.31659,-0.540411,-99.76,-3.497,172.245,-16.6702,22.333,28.461,1008.72
353150,10.9087,-7.84792,0.0430416,-95.77,5.603,167.205,-16.2902,22.45,30.0687,1008.68
353156,12.1712,-7.36968,0.932568,-98.08,10.923,160.835,-16.4364,23.4,30.2879,1008.68
353162,14.0459,-8.39311,1.50646,-96.4,17.293,149.565,-15.9102,22.2746,30.7556,1008.73
353168,15.275,-9.97609,2.24295,-95.91,25.973,136.545,-16.0271,22.903,32.4949,1008.73
353174,15.7532,-11.4012,3.37637,-92.62,28.983,118.625,-15.0771,21.6607,31.4426,1008.72
353180,16.0402,-12.4486,4.48589,-92.27,32.483,99.375,-15.0479,21.2076,32.0564,1008.72
353186,16.241,-13.3046,5.26064,-87.86,32.343,79.005,-15.4279,21.8946,33.7957,1008.72
353192,16.0593,-13.5485,5.868,-79.95,30.663,65.705,-15.1063,21.2661,34.5557,1008.7
353198,15.2415,-13.1803,6.68101,-70.92,23.313,52.195,-14.1856,22.0115,34.0003,1008.7
353204,14.4763,-12.6686,7.47967,-61.82,12.253,43.795,-14.551,21.8653,34.8334,1008.71
353210,13.8546,-12.5251,7.78575,-53.7,-0.347,34.835,-14.2586,22.3915,35.1988,1008.71
353216,13.9742,-12.4247,7.38881,-46,-10.917,25.035,-13.8348,21.7484,35.0526,1008.73
353222,13.6107,-12.329,6.65232,-37.53,-22.257,16.705,-14.5217,21.1199,36.2511,1008.73
353228,12.6877,-11.9703,5.71019,-28.15,-32.127,9.425,-14.0394,20.6815,35.5496,1008.67
353234,12.7547,-10.7078,4.73936,-22.34,-36.537,2.565,-14.0979,21.5146,37.2011,1008.67
353240,12.6255,-10.067,3.46246,-15.55,-40.247,-3.875,-13.6594,21.2953,37.3034,1008.69
353246,12.659,-9.90913,2.08513,-8.2,-37.447,-7.025,-14.2733,20.9738,37.055,1008.69
353252,40.3922,-76.418,-11.9225,-33.54,74.063,-93.265,-13.2502,20.8276,37.9611,1008.71
353258,7.71401,-46.5232,2.75944,377.57,31.363,-159.625,-15.194,21.2515,36.3826,1008.71
353264,8.34051,37.1592,10.4065,92.11,-36.117,-127.635,-15.3694,22.2161,35.8565,1008.71
353270,26.791,-5.89192,-5.42802,-33.33,65.173,-107.825,-15.4864,21.4561,36.485,1008.73
353276,14.4572,-48.8283,-7.18317,271.17,151.203,-88.295,-16.1587,21.6607,34.7749,1008.73
353282,-32.3769,26.8101,20.7891,109.75,-122.637,-74.925,-16.6994,22.1284,33.4011,1008.71
353288,26.0402,12.4008,10.7078,-91.92,-15.607,-5.765,-16.4948,22.9907,34.7019,1008.71
353294,3.6681,-17.9723,-4.06982,19.52,6.933,18.105,-16.6118,22.45,34.088,1008.69
353300,2.37207,-16.8914,-2.63988,68.45,3.013,-2.055,-16.3194,22.3038,33.9565,1008.69
353306,-1.07126,-1.57819,5.99235,7.97,17.293,-0.795,-15.881,22.5961,33.4157,1008.71
353312,-3.87853,-7.71401,4.58154,-22.48,-17.357,-7.515,-16.6994,22.7569,35.2719,1008.71
353318,4.71066,-12.1377,-1.956,8.95,6.513,-7.585,-16.3779,22.2161,34.7019,1008.72
353324,-0.827355,-9.99522,0.989957,18.33,-2.587,-2.405,-16.7287,22.2453,34.1757,1008.72
353330,0.267814,-8.54615,1.36298,8.88,-8.607,-6.745,-16.8164,22.3915,35.0672,1008.7
353336,1.21951,-10.8991,-0.0382592,16.37,-1.607,-9.335,-16.7287,23.0492,34.3657,1008.7
353342,1.01387,-10.0287,1.10473,26.59,-6.577,-6.535,-15.9979,22.4792,33.7518,1008.72
353348,3.11334,-6.04495,2.38164,7.13,2.313,2.915,-16.2025,22.7569,32.3926,1008.72
353354,0.769966,-7.07795,2.56337,-10.16,-1.257,6.485,-16.4071,22.2161,33.0503,1008.72
353360,1.77427,-10.3013,0.229555,-1.13,-0.277,10.335,-16.2902,22.713,33.2695,1008.68
353366,2.32903,-9.78479,0.272597,13.08,-0.277,13.975,-16.4071,22.3915,33.6203,1008.68
353372,2.04208,-7.59445,1.50167,2.44,6.933,19.085,-16.3194,22.7276,33.8249,1008.71
353378,-0.105213,-9.57915,1.52559,-2.81,-4.057,19.505,-16.4071,22.3623,34.4972,1008.71
353384,1.03778,-11.5495,0.143472,8.81,-0.487,18.945,-16.6702,22.903,34.7165,1008.7
353390,0.392157,-10.3156,1.09517,11.61,-1.047,17.195,-16.4364,22.1284,33.0795,1008.7
353396,0.267814,-9.38307,1.67384,2.3,-3.147,14.605,-16.1441,22.8446,34.8626,1008.69
353402,0.506934,-10.1865,1.10473,1.95,-2.797,13.555,-16.3779,23.2246,34.3657,1008.69
353408,0.851267,-10.4878,0.813008,5.17,-2.377,12.225,-16.3487,23.8969,33.6349,1008.69
353414,0.703013,-9.94261,1.20995,3.91,-2.097,10.055,-15.9979,23.0784,33.9565,1008.69
353420,0.631277,-9.68436,1.38211,1.39,-2.797,8.515,-16.5241,22.5669,34.1465,1008.72
353426,0.5978,-10.0335,1.20516,-1.34,-1.187,7.185,-16.1733,22.7861,33.8249,1008.72
353432,0.569106,-10.2869,1.04256,-0.57,-1.047,6.135,-16.4656,22.5084,33.9857,1008.72
353438,0.449546,-10.0478,1.17169,-1.06,-0.207,2.425,-15.881,22.6253,34.5995,1008.67
353444,0.286944,-10.0956,1.19082,-1.9,-0.627,0.185,-15.6471,22.4792,34.3072,1008.67
353450,0.506934,-10.3682,0.961262,-1.97,-0.907,-2.965,-16.1441,22.713,34.2926,1008.69
353456,0.760402,-10.0143,0.994739,-0.78,-0.277,-2.195,-15.6764,22.3915,34.2488,1008.69
353462,0.927786,-9.43089,1.24821,-3.37,-0.0670002,-3.035,-16.0564,23.4877,34.3218,1008.67
353468,1.00909,-9.45002,1.40124,-4.35,-0.0670002,-3.175,-16.4948,23.1661,33.5326,1008.67
353474,0.942133,-9.34003,1.42037,-9.04,1.403,-1.705,-15.764,21.953,33.0795,1008.69
353480,0.559541,-9.73218,1.25777,-9.67,0.353,-2.825,-16.1441,22.2746,34.6142,1008.69
353486,0.889526,-10.1865,0.841702,-7.85,1.823,-2.825,-16.1148,22.7861,33.5472,1008.72
353492,0.726925,-9.92348,1.08082,-7.64,1.963,-3.385,-15.3402,22.0699,34.468,1008.72
353498,0.73649,-9.6461,1.20038,-9.88,1.403,-4.995,-16.641,22.6838,34.2634,1008.72
353504,0.765184,-9.94261,1.04735,-9.25,1.963,-5.975,-16.641,22.9323,33.5911,1008.72
353510,0.860832,-10.0478,0.865614,-8.62,1.543,-7.235,-16.1441,22.2161,33.7372,1008.77
353516,0.688666,-10.1769,0.918221,-8.06,2.383,-7.865,-15.5302,22.0992,34.3657,1008.77
353522,0.425634,-10.0574,1.033,-7.85,2.033,-10.105,-15.9102,21.953,34.5265,1008.77
353528,0.85605,-9.89,1.05213,-6.94,2.873,-10.455,-16.5533,22.4792,34.9942,1008.69
353534,0.875179,-9.61262,1.1143,-9.39,3.713,-10.245,-15.1356,22.6546,34.4242,1008.69
353540,0.722142,-9.70827,1.09039,-8.9,2.873,-10.945,-16.0856,22.6546,34.6872,1008.69
353546,0.93735,-9.93304,0.755619,-7.92,2.523,-11.575,-16.5241,23.1661,33.518,1008.69
353552,1.02343,-10.0526,0.573888,-4.98,3.713,-9.755,-16.0271,22.5961,34.0442,1008.71
353558,0.946915,-10.067,0.650406,-4.21,3.923,-10.105,-15.7787,22.45,34.6288,1008.71
353564,0.927786,-9.76088,0.85605,-2.67,2.313,-9.265,-16.1148,23.3707,34.2195,1008.71
353570,1.19082,-9.37829,1.13343,-2.67,3.853,-8.705,-16.5533,22.7569,34.0734,1008.71
353576,1.0043,-9.12004,1.32951,-6.31,3.713,-7.865,-15.8225,22.7569,33.9857,1008.72
353582,1.02343,-9.45481,1.06648,-7.5,4.343,-7.235,-16.4948,22.6253,33.6642,1008.72
353588,1.09995,-9.62219,0.879962,-5.05,3.713,-5.555,-16.071,21.9823,33.6203,1008.72
353594,1.06169,-9.55523,0.942133,-5.4,4.273,-5.485,-15.9394,22.5669,33.5472,1008.72
353600,1.12865,-9.47872,0.932568,-6.8,4.623,-4.155,-16.3194,21.953,34.1611,1008.72
353606,1.01865,-9.5935,0.932568,-5.96,4.343,-2.615,-16.6994,22.4792,32.8018,1008.72
353612,1.07604,-9.61262,0.961262,-6.1,4.623,-2.965,-15.3402,22.6253,34.2488,1008.72
353618,1.04735,-9.51698,0.994739,-6.38,4.273,-1.565,-16.6994,22.9615,33.7957,1008.71
353624,0.966045,-9.71784,0.884744,-8.06,4.763,-3.035,-16.641,22.8738,34.4242,1008.71
353630,0.85605,-10.0143,0.726925,-5.54,3.643,-1.355,-16.7287,23.0492,34.6872,1008.74
353636,0.612147,-10.2774,0.521282,-2.81,3.013,-2.685,-16.2317,23.1077,33.708,1008.74
353642,0.655189,-10.6169,0.37781,2.16,0.283,-4.015,-16.8164,21.9823,33.6642,1008.74
353648,1.20038,-9.82783,0.832138,6.36,-0.0670002,-1.355,-16.7141,22.0407,34.7603,1008.74
353654,1.53993,-8.31181,1.45385,-0.15,2.523,0.115,-16.641,21.953,34.1611,1008.73
353660,1.13343,-8.71832,1.39646,-4.42,1.473,1.515,-16.3779,22.4792,35.1842,1008.73
353666,0.927786,-10.0526,0.669536,-3.23,1.473,2.705,-16.4656,22.2746,34.3072,1008.75
353672,0.865614,-10.1578,0.593018,2.16,-0.277,0.885,-15.6325,22.45,34.0588,1008.75
353678,0.966045,-9.44524,0.966045,2.65,-0.0670002,2.775,-15.7348,22.2161,34.1903,1008.72
353684,1.07126,-9.51219,1.01387,1.32,-0.207,4.035,-16.6702,22.9323,33.6788,1008.72
353690,0.966045,-9.76088,0.860832,1.32,-0.277,3.265,-16.9333,22.1869,33.7811,1008.72
353696,0.889526,-9.95696,0.846485,4.26,-0.837,2.565,-16.5241,22.5084,33.4741,1008.73
353702,0.875179,-9.76566,0.903874,4.12,-2.237,4.245,-16.6702,22.5376,34.0295,1008.73
353708,0.966045,-9.66045,0.889526,4.68,-2.727,3.475,-16.0564,22.3623,34.5849,1008.72
353714,1.06169,-9.79914,0.822573,6.22,-1.187,4.455,-16.0856,22.3915,34.4388,1008.72
353720,0.903874,-9.80392,0.994739,5.59,-1.817,4.455,-15.7494,22.2453,34.278,1008.69
353726,0.875179,-9.78479,1.04735,5.03,-0.907,2.985,-16.2025,22.5669,33.5472,1008.69
353732,0.85605,-9.90913,0.951698,5.8,-1.397,3.825,-16.5533,22.3915,33.6057,1008.72
353738,0.884744,-9.89479,0.908656,7.34,-2.377,4.455,-16.0125,21.8361,35.0526,1008.72
353744,0.899091,-9.83261,0.85605,8.11,-2.937,2.075,-16.7287,22.6838,33.8395,1008.73
353750,0.889526,-9.79914,0.93735,7.76,-1.187,4.595,-17.211,22.9323,33.9126,1008.73
353756,0.918221,-9.55045,1.06169,9.44,-2.517,3.545,-15.691,22.5376,34.4095,1008.71
353762,1.02822,-9.61262,0.970827,8.18,-2.377,3.335,-16.261,22.9907,34.088,1008.71
353768,0.693448,-10.0813,0.73649,8.46,-2.727,2.915,-15.3694,23.3415,34.658,1008.71
353774,0.105213,-11.2195,0.487805,13.29,-3.917,0.535,-16.4071,22.8153,33.7372,1008.71
353780,0.10043,-11.3486,0.492587,21.41,-8.677,-4.435,-16.3194,22.903,33.3134,1008.71
353786,1.39646,-9.84218,0.784314,19.87,-4.827,-3.945,-16.4948,23.1077,34.3803,1008.68
353792,0.0813008,-9.52176,1.64515,13.5,-5.037,-4.855,-16.4948,22.1869,33.4595,1008.68
353798,0.286944,-10.55,1.02343,15.6,-9.657,-8.705,-16.5825,22.5961,33.1234,1008.73
353804,0.559541,-10.5643,1.04735,20.57,-6.367,-11.785,-16.3487,22.9907,33.6642,1008.73
353810,0.37781,-9.50741,1.70732,15.18,-10.357,-13.465,-16.1733,23.3123,32.9334,1008.71
353816,1.10952,-9.15351,1.60689,10.56,-7.207,-13.745,-16.0417,23.3415,34.1757,1008.71
353822,0.985174,-9.54089,1.40124,8.39,-7.137,-12.345,-16.5533,22.6838,33.8542,1008.72
353828,1.01387,-9.8087,1.18604,8.88,-6.857,-13.465,-16.4948,23.1369,33.1672,1008.72
353834,1.25299,-9.68436,1.08082,9.09,-6.297,-12.975,-15.9394,23.5169,33.6349,1008.72
353840,1.25777,-9.92826,1.08082,7.76,-4.687,-12.485,-16.0564,22.3915,32.8018,1008.72
353846,0.946915,-9.9713,1.14778,8.53,-6.787,-12.975,-16.8895,22.83,34.3511,1008.69
353852,1.0043,-9.87566,1.28647,8.53,-5.247,-12.065,-16.4364,22.9907,33.0211,1008.69
353858,1.04735,-9.59828,1.45385,8.32,-4.897,-13.185,-16.641,22.2161,33.1234,1008.69
353864,1.01387,-9.68914,1.29125,6.15,-5.177,-11.925,-16.6848,22.3915,32.8749,1008.69
353870,1.08082,-10.0956,1.09039,7.76,-4.897,-12.135,-17.0941,23.4,33.4303,1008.69
353876,1.17169,-9.78001,1.19082,8.67,-3.287,-11.925,-16.8602,22.6546,33.4595,1008.7
353882,1.01387,-9.80392,1.15734,7.13,-4.617,-13.745,-16.7579,22.2746,32.9334,1008.7
353888,1.4682,-10.0765,0.793878,6.99,-2.167,-13.955,-16.5533,22.8738,33.5911,1008.72
353894,1.09995,-10.5165,0.85605,9.09,-1.957,-15.565,-16.3487,23.5754,33.5326,1008.72
353900,1.48733,-9.95696,0.325203,9.44,-0.627,-16.125,-16.4218,22.6253,34.2488,1008.7
353906,2.1473,-10.6456,0.430416,11.75,7.983,-17.315,-17.401,23.1369,32.9041,1008.7
353912,0.636059,-11.3678,0.602582,12.31,9.383,-23.615,-16.9625,22.5669,33.1964,1008.72
353918,-0.439981,-11.8843,2.91726,2.93,6.863,-34.115,-17.2548,23.1953,32.9772,1008.72
353924,-2.41511,-11.2339,6.02582,-21.15,-6.297,-49.865,-17.7956,23.4292,33.4741,1008.71
353930,-0.970827,-12.5442,4.97848,-53.14,-9.797,-61.625,-16.9041,23.283,33.518,1008.71
353936,-0.640842,-17.1306,2.55858,-36.41,-10.497,-74.715,-16.641,22.6838,33.1672,1008.71
353942,0.248685,-19.034,0.291726,-23.88,-5.877,-91.865,-17.2548,22.0407,32.9334,1008.71
