Timestamp,AccX,AccY,AccZ,AngularVelX,AngularVelY,AngularVelZ,MagX,MagY,MagZ,AirPressure
288362,1.12865,-9.68436,1.0043,0.27,0.633,-1.005,-36.9713,48.2757,55.9676,1007.86
288368,1.14778,-9.78479,0.946915,0.69,0.563,-1.215,-36.6205,48.305,57.3414,1007.81
288374,1.10952,-9.77523,0.95648,1.18,0.00299978,-1.145,-37.4682,48.2757,57.6045,1007.81
288380,1.09517,-9.79914,0.946915,1.25,0.423,-1.355,-36.6644,48.2465,58.1014,1007.84
288386,1.07126,-9.81349,0.927786,1.04,-0.487,-1.005,-37.3221,48.1588,56.1868,1007.84
288392,1.10473,-9.78957,0.908656,1.74,-0.277,-1.495,-37.8775,48.0273,57.4876,1007.8
288398,1.21951,-9.70827,0.980392,3.28,-1.047,-1.635,-37.8336,47.8519,58.2768,1007.8
288404,1.28168,-9.48828,1.12386,0.76,-0.207,-0.025,-36.7813,48.4804,56.4791,1007.8
288410,1.22429,-9.56958,1.06648,0.48,-0.697,-0.305,-37.6728,48.0126,58.0576,1007.84
288416,1.14778,-9.77523,0.942133,1.32,-0.907,-1.285,-37.5852,47.3696,57.7799,1007.84
288422,1.16691,-9.73218,0.97561,1.67,-0.697,-0.795,-37.1613,48.1003,57.7945,1007.82
288428,1.17647,-9.68436,1.01865,1.46,-0.907,-1.775,-37.6144,47.5742,57.6922,1007.82
288434,1.16212,-9.71784,1.0043,1.39,-0.277,-1.005,-37.4536,47.5303,57.1076,1007.82
288440,1.13821,-9.73218,0.980392,2.02,-1.257,-1.775,-37.2051,47.9103,57.4145,1007.82
288446,1.14299,-9.78957,0.951698,2.44,-0.347,-1.355,-38.4621,47.6911,56.1868,1007.86
288452,1.09039,-9.84218,0.932568,3,-0.487,-1.215,-37.7605,47.6326,57.9114,1007.86
288458,1.15734,-9.74175,0.95648,3.91,-1.607,-1.215,-37.2928,49.0942,57.7945,1007.81
288464,1.31516,-9.55045,1.04735,2.93,-1.467,-1.775,-37.439,48.378,58.0868,1007.81
288470,1.26255,-9.43089,1.17647,1.25,-1.677,-0.585,-37.5413,47.8957,56.6253,1007.81
288476,1.1956,-9.66045,1.06169,0.83,-1.047,-0.655,-37.2051,47.8957,57.3853,1007.81
288482,1.23386,-9.70349,0.989957,0.62,0.423,-0.235,-37.439,48.9919,56.333,1007.82
288488,1.14299,-9.64132,1.05691,1.04,-0.907,-1.005,-37.3367,48.0419,57.7068,1007.82
288494,1.15734,-9.76566,0.985174,0.76,0.423,-0.025,-36.9859,48.4073,58.1307,1007.82
288500,1.14778,-9.72262,1.02343,1.88,-0.837,-0.375,-37.3805,48.0273,57.8237,1007.87
288506,1.19082,-9.6461,1.04256,1.18,0.423,0.325,-37.3805,47.8957,56.6107,1007.87
288512,1.18125,-9.6748,1.02822,1.39,-0.557,-0.165,-37.1028,47.9834,57.1953,1007.83
288518,1.19082,-9.64132,1.01387,0.41,-0.697,-0.655,-37.7605,48.188,57.1222,1007.83
288524,1.20516,-9.67001,1.01865,0.62,0.143,1.445,-36.7082,47.7934,57.4291,1007.81
288530,1.18604,-9.67001,1.02343,0.27,0.213,-0.375,-37.7313,47.808,56.8299,1007.81
288536,1.20516,-9.62219,1.04735,0.2,-0.487,-1.215,-37.2928,48.378,58.1745,1007.82
288542,1.20995,-9.65088,1.02822,0.27,0.073,0.535,-37.249,48.0711,57.663,1007.82
288548,1.20516,-9.70827,0.989957,0.48,-0.697,-0.235,-37.6875,48.0565,56.9614,1007.83
288554,1.21473,-9.6461,1.03778,1.39,-0.557,0.115,-37.4682,47.9542,57.7068,1007.83
288560,1.16212,-9.63654,1.02822,-0.36,-0.487,0.395,-36.6059,48.1296,58.3499,1007.84
288566,1.20038,-9.74175,0.980392,1.18,0.213,-0.375,-36.9713,48.7288,59.0953,1007.84
288572,1.19082,-9.63654,1.02822,-0.5,0.283,0.115,-37.3805,47.4865,57.2976,1007.84
288578,1.18604,-9.63654,1.06648,-0.22,-0.347,0.325,-36.9859,47.8957,57.5314,1007.85
288584,1.17169,-9.71784,0.999522,0.2,-0.277,-0.865,-37.1028,49.3134,57.9407,1007.85
288590,1.14299,-9.70827,0.999522,-0.15,-0.277,0.115,-37.2928,47.7934,57.8822,1007.85
288596,1.18604,-9.73218,0.985174,0.62,-0.137,-0.235,-37.1905,48.305,57.2099,1007.85
288602,1.17647,-9.71305,0.994739,0.83,0.213,0.115,-37.4975,48.5827,56.903,1007.85
288608,1.17169,-9.68436,1.033,0.97,-0.137,-0.025,-37.4098,48.4365,57.5753,1007.85
288614,1.1956,-9.71784,1.00909,0.55,0.00299978,0.045,-37.4682,48.2611,57.3268,1007.85
288620,1.1956,-9.64132,1.05691,0.0600001,0.563,0.465,-36.9128,48.2173,57.7945,1007.85
288626,1.18604,-9.66523,1.04256,-0.43,-0.907,0.325,-37.8336,47.3403,58.4522,1007.85
288632,1.19082,-9.71305,1.01387,0.41,1.053,-1.005,-36.8982,47.7203,57.9991,1007.85
288638,1.15734,-9.65088,1.04256,-0.36,-0.207,-0.305,-36.9567,47.8665,58.0868,1007.81
288644,1.18604,-9.73218,1.0043,1.39,-0.907,-0.235,-37.5559,47.7642,58.2476,1007.81
288650,1.18604,-9.68436,1.00909,-0.71,0.283,0.045,-36.7521,48.6996,57.356,1007.8
288656,1.17169,-9.69392,1.01865,0.69,0.073,-0.375,-37.6436,48.6119,57.1514,1007.8
288662,1.17169,-9.74653,0.980392,-0.5,0.073,0.465,-36.7228,48.4365,57.6922,1007.8
288668,1.17169,-9.7274,0.985174,1.53,-0.697,-1.005,-37.0298,48.5242,58.1307,1007.84
288674,1.17169,-9.7274,0.980392,0.2,0.073,-0.305,-37.4682,48.378,57.7945,1007.84
288680,1.17647,-9.74175,0.980392,1.95,-0.767,-0.095,-36.8836,47.3988,58.1891,1007.84
288686,1.18604,-9.67958,1.02343,1.04,-0.697,-1.705,-36.869,48.4657,57.5899,1007.84
288692,1.20038,-9.66523,1.04256,0.69,-1.887,-0.235,-37.4975,47.998,57.9845,1007.84
288698,1.19082,-9.70827,1.02343,1.18,-0.487,0.325,-36.1236,47.8226,58.613,1007.84
288704,1.19082,-9.67958,1.01865,1.04,-0.487,-1.215,-36.6059,47.6619,57.6776,1007.8
288710,1.16212,-9.68914,1.02343,0.76,-0.697,0.255,-36.5328,47.6326,59.0076,1007.8
288716,1.17647,-9.7274,1.02822,1.6,-1.257,-0.585,-36.8836,48.4073,57.2391,1007.86
288722,1.18125,-9.68914,1.05213,0.83,-0.0670002,-0.865,-36.3721,47.6034,57.0491,1007.86
288728,1.16691,-9.73218,1.01387,1.39,-0.347,-0.655,-37.2198,47.6326,57.3999,1007.85
288734,1.16212,-9.76566,0.999522,1.6,0.213,-0.095,-37.0298,47.3988,57.6045,1007.85
288740,1.15734,-9.7274,1.00909,1.88,-0.137,-1.145,-36.4451,47.7788,58.0284,1007.85
288746,1.15256,-9.7274,1.033,1.39,-0.487,0.045,-36.9713,47.5157,58.1453,1007.85
288752,1.20516,-9.67958,1.00909,2.58,-0.907,-1.355,-37.0005,48.0273,57.8384,1007.85
288758,1.16691,-9.69392,1.02822,1.6,-0.557,-0.865,-36.4013,48.1734,57.6045,1007.82
288764,1.21473,-9.69871,1.04256,3.35,-2.237,-1.565,-37.0736,48.5973,57.3122,1007.82
288770,1.12386,-9.69392,1.05691,1.6,-0.837,-1.565,-36.2551,47.4865,57.1368,1007.8
288776,1.14299,-9.79436,1.02343,2.72,-1.047,-1.775,-37.3952,47.3842,56.5522,1007.8
288782,1.15734,-9.76088,1.02822,3.14,-0.697,-1.355,-36.6351,47.8957,57.2684,1007.82
288788,1.17169,-9.7274,1.05691,3.49,-1.047,-2.265,-37.5852,48.1003,56.903,1007.82
288794,1.20516,-9.6461,1.07604,3.91,-1.047,-1.915,-36.7813,47.925,58.0868,1007.8
288800,1.21473,-9.5935,1.09517,3.35,-1.817,-1.915,-37.059,48.0857,57.2684,1007.8
288806,1.25777,-9.58393,1.13821,2.37,-1.467,-2.335,-37.439,47.8957,57.1807,1007.82
288812,1.18125,-9.61741,1.10952,2.09,-0.207,-1.145,-37.7752,48.2173,56.8007,1007.82
288818,1.22429,-9.62697,1.08082,1.74,-0.277,-0.585,-36.6644,47.4865,57.9114,1007.83
288824,1.1956,-9.62697,1.13343,2.16,0.073,-1.355,-37.8775,48.0565,57.1514,1007.83
288830,1.20995,-9.67958,1.09995,2.16,-0.347,-1.355,-37.0736,48.1296,57.7799,1007.83
288836,1.15734,-9.76566,1.03778,1.81,-0.907,-1.915,-37.439,47.8811,58.0284,1007.79
288842,1.17647,-9.76088,1.01865,2.79,-0.347,-1.005,-37.1028,47.8373,57.9261,1007.79
288848,1.20038,-9.71784,1.05691,2.58,-0.137,-2.265,-38.2429,47.7934,56.7568,1007.83
288854,1.20516,-9.67001,1.11908,2.23,-0.347,-1.705,-36.9859,48.0419,56.5083,1007.83
288860,1.24821,-9.60784,1.09517,2.86,-0.347,-2.125,-36.6936,47.2819,57.0637,1007.84
288866,1.23864,-9.60306,1.12386,1.81,-0.347,-1.915,-37.5267,48.4073,57.1368,1007.84
288872,1.24342,-9.5935,1.13343,2.37,-1.117,-1.355,-37.7167,48.0273,56.2745,1007.86
288878,1.25777,-9.59828,1.15256,1.18,-0.0670002,-1.565,-37.2051,48.8165,57.3414,1007.86
288884,1.23386,-9.5935,1.11908,0.69,1.123,-0.445,-37.1028,48.188,57.7653,1007.83
288890,1.23386,-9.6748,1.10473,1.74,0.073,-2.055,-37.0882,49.0065,57.0637,1007.83
288896,1.1956,-9.7561,1.06648,1.81,-0.767,-1.355,-36.6205,48.4804,57.2684,1007.85
288902,1.19082,-9.79436,1.02822,1.18,-0.347,-1.355,-37.0005,47.8226,55.836,1007.85
288908,1.22908,-9.72262,1.05213,1.6,0.213,-0.655,-36.4013,47.4865,56.2599,1007.85
288914,1.23386,-9.60784,1.15256,1.95,-0.347,-2.055,-37.0151,48.0711,57.4291,1007.84
288920,1.24342,-9.5935,1.14778,1.81,-0.487,-0.865,-37.059,47.7934,56.333,1007.84
288926,1.25777,-9.61741,1.13821,1.95,-0.697,-2.055,-37.0736,47.0919,57.0199,1007.81
288932,1.26734,-9.56958,1.15256,0.41,-0.347,-0.865,-37.8775,47.9542,57.166,1007.81
288938,1.25299,-9.5648,1.15256,0.62,0.983,-0.025,-37.5559,47.7788,57.2391,1007.86
288944,1.24821,-9.62697,1.12386,-0.15,0.843,-0.025,-37.2344,48.1442,56.0699,1007.86
288950,1.22908,-9.62697,1.14778,1.32,-0.207,-0.235,-37.4682,47.8957,56.7422,1007.86
288956,1.24821,-9.62219,1.1143,0.2,0.983,-0.865,-37.3513,48.0565,57.1222,1007.86
288962,1.22429,-9.67958,1.10952,0.62,0.563,-0.445,-37.5852,47.8665,57.1953,1007.77
288968,1.24342,-9.6748,1.10473,-0.36,-0.207,-1.495,-37.0005,48.4657,56.786,1007.77
288974,1.24342,-9.62697,1.1143,0.76,-0.697,-2.475,-36.9567,47.8665,55.9237,1007.82
288980,1.23864,-9.64132,1.13343,0.2,0.353,0.815,-37.2928,48.5534,57.5022,1007.82
288986,1.25299,-9.66045,1.13821,-0.22,0.073,-0.165,-37.3367,48.3634,56.596,1007.82
288992,1.24342,-9.63654,1.12386,0.0600001,-1.117,-1.215,-38.0236,48.5827,56.0553,1007.82
288998,1.25777,-9.63654,1.11908,0.2,-1.117,-0.655,-37.6144,47.5157,57.166,1007.82
289004,1.22429,-9.65567,1.09995,-0.29,-0.837,-0.305,-36.8544,47.6765,56.8007,1007.83
289010,1.25777,-9.6461,1.0856,-0.5,-0.487,-1.145,-37.3513,48.1003,56.2453,1007.83
289016,1.22908,-9.65567,1.10473,0.27,0.353,0.325,-37.3367,47.8373,57.7214,1007.82
289022,1.25299,-9.66045,1.09517,0.0600001,-0.207,-0.585,-37.0298,47.8226,57.0491,1007.82
289028,1.25777,-9.6748,1.10952,0.41,-0.697,-0.445,-36.7813,48.4365,57.3122,1007.84
289034,1.23386,-9.65088,1.13343,-0.29,0.423,1.025,-36.6498,48.2611,56.7422,1007.84
289040,1.23386,-9.68436,1.1143,-0.71,-0.347,-1.425,-37.1905,48.5534,56.523,1007.82
289046,1.23386,-9.67001,1.12386,0.69,-0.0670002,0.115,-37.0005,47.8811,56.9176,1007.82
289052,1.23386,-9.65088,1.10473,-0.71,0.423,0.885,-37.4682,47.7642,56.4791,1007.82
289058,1.23386,-9.67001,1.12386,0.0600001,0.283,0.535,-37.1905,48.8311,57.2099,1007.82
289064,1.20038,-9.66523,1.09517,-0.92,-0.137,1.165,-38.2429,48.0565,57.8384,1007.84
289070,1.24342,-9.71305,1.08082,0.41,0.073,0.395,-37.5413,48.0126,56.2891,1007.84
289076,1.20516,-9.70349,1.07604,0.41,0.283,0.325,-37.6144,47.925,56.8591,1007.83
289082,1.24342,-9.65088,1.0856,0.62,-0.137,-1.145,-38.1552,47.7788,57.2245,1007.83
289088,1.22908,-9.62697,1.12386,-0.36,-0.557,-0.515,-37.6728,46.8726,56.6253,1007.83
289094,1.24342,-9.68436,1.0856,-0.00999987,0.00299978,0.325,-36.8251,47.7496,55.8214,1007.83
289100,1.20516,-9.71784,1.09039,-0.00999987,0.00299978,0.745,-37.7167,47.9834,56.8445,1007.83
289106,1.25777,-9.67001,1.09039,-0.71,0.283,0.185,-37.629,48.0126,55.6606,1007.82
289112,1.21951,-9.6461,1.10952,-0.5,1.053,0.675,-37.819,48.6704,56.6983,1007.82
289118,1.25777,-9.64132,1.13343,-0.36,0.563,1.165,-37.3367,48.4511,57.0345,1007.79
289124,1.24342,-9.65567,1.10473,-0.00999987,-0.137,0.465,-36.9275,48.3927,56.3768,1007.79
289130,1.26255,-9.65088,1.10473,-0.22,-0.907,-0.865,-37.7459,48.2757,57.2976,1007.85
289136,1.22908,-9.65088,1.1143,-0.00999987,-0.137,-0.025,-37.5267,48.6704,57.093,1007.85
289142,1.21951,-9.67001,1.10952,-0.15,0.00299978,0.185,-37.819,47.6326,56.6983,1007.83
289148,1.20995,-9.70349,1.0856,-0.15,0.00299978,-1.845,-37.3952,48.0419,57.2245,1007.83
289154,1.22908,-9.71784,1.0856,-0.5,0.773,1.095,-38.0675,47.3842,57.0345,1007.86
289160,1.23864,-9.69871,1.09517,-0.22,1.053,0.815,-37.9944,47.8373,56.4937,1007.86
289166,1.25299,-9.65567,1.12865,-0.00999987,-0.557,-0.585,-37.6582,47.9834,57.4291,1007.86
289172,1.23386,-9.6748,1.1143,-0.22,-0.137,0.325,-37.249,47.6619,56.406,1007.85
289178,1.24342,-9.67001,1.0856,0.27,-0.0670002,0.395,-37.0151,48.2465,56.7422,1007.85
289184,1.21951,-9.66045,1.09995,0.97,-0.557,-0.095,-37.3952,48.2319,56.5814,1007.81
289190,1.24342,-9.66045,1.09517,-0.71,0.843,0.255,-37.629,47.6765,56.216,1007.81
289196,1.21951,-9.68436,1.09995,-0.15,-0.557,-0.095,-37.249,48.5388,56.7276,1007.85
289202,1.20995,-9.70349,1.06648,-0.71,0.353,-0.865,-38.1259,48.1442,56.6399,1007.85
289208,1.23864,-9.6748,1.09995,0.27,0.423,0.535,-38.0236,48.7873,56.2014,1007.82
289214,1.23864,-9.66045,1.13343,-0.71,0.283,-0.795,-37.4536,47.8957,57.2391,1007.82
289220,1.23864,-9.70827,1.1143,0.62,0.423,-1.705,-37.4098,48.2319,56.6107,1007.89
289226,1.23386,-9.65567,1.08082,0.2,1.333,1.235,-37.1613,48.9042,56.976,1007.89
289232,1.23386,-9.67001,1.10952,-0.22,-0.137,-0.585,-38.0236,48.8457,57.2684,1007.84
289238,1.22429,-9.68436,1.08082,0.41,1.053,-0.795,-37.4098,48.1442,56.7276,1007.84
289244,1.22908,-9.69392,1.09995,-0.00999987,0.00299978,-0.375,-36.3428,48.5534,56.8153,1007.83
289250,1.22429,-9.70349,1.1143,0.0600001,-0.347,-1.425,-37.1028,48.0711,56.8884,1007.83
289256,1.22908,-9.68914,1.07126,0.0600001,-0.627,-0.445,-37.0882,48.115,57.093,1007.83
289262,1.23864,-9.65088,1.09995,-0.57,0.423,0.045,-37.3367,47.7057,57.4145,1007.83
289268,1.25777,-9.6461,1.10952,0.0600001,0.423,-0.585,-36.8398,48.5242,56.7714,1007.83
289274,1.23386,-9.65088,1.09995,-0.43,0.563,-0.095,-37.3805,48.305,56.3037,1007.85
289280,1.21951,-9.6748,1.09995,-0.0799999,0.563,0.535,-37.1175,47.925,56.2599,1007.85
289286,1.20995,-9.67958,1.09995,-1.48,0.283,0.465,-36.9421,48.6704,56.5814,1007.85
289292,1.25299,-9.63654,1.10473,0.0600001,0.283,0.465,-37.2928,47.9834,56.3037,1007.85
289298,1.24342,-9.64132,1.10473,-0.92,0.283,1.375,-36.6644,48.0565,57.1953,1007.87
289304,1.22429,-9.67001,1.09517,0.41,0.843,0.325,-37.1759,47.6326,57.6045,1007.87
289310,1.20995,-9.69871,1.09517,0.2,-0.347,0.325,-36.5767,48.5534,56.7422,1007.83
289316,1.21473,-9.71305,1.05691,0.27,-0.0670002,-1.145,-36.9567,48.8165,56.5522,1007.83
289322,1.22429,-9.67958,1.09517,0.27,-0.627,-0.445,-37.1467,48.1442,57.9261,1007.82
289328,1.23864,-9.66523,1.09039,0.62,-0.837,0.255,-37.0882,47.8957,56.976,1007.82
289334,1.21473,-9.71784,1.10473,0.2,-0.347,0.465,-37.5852,48.4365,56.5668,1007.82
289340,1.21473,-9.70349,1.06648,0.0600001,-0.277,-0.935,-37.9798,47.9834,56.4499,1007.85
289346,1.22908,-9.66045,1.10952,0.2,0.283,0.115,-37.3367,47.6911,57.2537,1007.85
289352,1.24342,-9.62219,1.12865,-0.00999987,0.073,-1.145,-37.819,48.1588,56.786,1007.81
289358,1.21951,-9.66045,1.11908,-0.29,0.633,-0.235,-37.0736,48.188,57.2537,1007.81
289364,1.22908,-9.68436,1.09517,0.62,-0.767,0.465,-37.4098,47.925,56.9322,1007.8
289370,1.24342,-9.65088,1.1143,0.83,-0.137,-0.235,-37.5705,48.5973,56.786,1007.8
289376,1.24821,-9.62697,1.12865,-0.57,0.073,-1.005,-36.6498,48.4219,56.2453,1007.85
289382,1.23864,-9.62219,1.15734,-0.36,-0.137,0.045,-37.5267,48.0419,57.2391,1007.85
289388,1.24821,-9.62697,1.12865,-0.57,-0.347,0.395,-37.1905,47.6911,57.2976,1007.85
289394,1.22908,-9.65567,1.11908,0.0600001,-0.347,-2.125,-37.439,48.305,56.9468,1007.85
289400,1.22908,-9.66045,1.1143,1.18,-0.137,0.675,-37.2782,47.925,57.0199,1007.84
289406,1.25777,-9.68436,1.10473,-0.0799999,0.073,0.815,-36.8251,48.8896,56.4645,1007.84
289412,1.19082,-9.70349,1.09517,-0.00999987,0.00299978,-1.775,-36.8251,48.8165,55.5876,1007.85
289418,1.20995,-9.78001,1.06648,0.55,-0.277,-1.355,-37.4828,47.8373,56.3622,1007.85
289424,1.21473,-9.71784,1.09517,0.76,-0.137,0.465,-37.2928,47.8665,57.6045,1007.85
289430,1.24342,-9.63175,1.12865,0.0600001,0.00299978,-1.775,-36.6644,48.2757,55.6606,1007.83
289436,1.24821,-9.61741,1.13821,-0.22,0.843,0.465,-37.5559,48.875,56.5668,1007.83
289442,1.23864,-9.68436,1.10952,-0.36,0.00299978,1.095,-37.5267,48.8457,56.5376,1007.85
289448,1.24821,-9.62697,1.13821,0.76,-0.347,0.045,-37.3367,48.5388,56.976,1007.85
289454,1.23386,-9.65088,1.12865,0.62,-0.907,1.725,-37.6582,48.6704,56.7568,1007.84
289460,1.25299,-9.70349,1.09039,0.0600001,-0.277,0.185,-37.4828,47.8957,56.6399,1007.84
289466,1.23864,-9.68914,1.11908,-0.29,0.423,0.115,-37.4098,48.305,56.8153,1007.81
289472,1.21951,-9.67001,1.11908,0.13,0.283,-0.655,-38.3744,48.2465,56.3622,1007.81
289478,1.25777,-9.65567,1.09039,0.97,-0.0670002,0.885,-37.5559,48.6411,56.3476,1007.84
289484,1.22429,-9.6748,1.0856,0.0600001,0.143,1.375,-37.2198,48.0711,56.6253,1007.84
289490,1.24821,-9.67958,1.10473,0.0600001,-0.487,0.255,-37.5413,48.0419,56.2599,1007.79
289496,1.23864,-9.64132,1.13343,0.69,0.283,0.255,-37.3659,47.8665,56.4645,1007.79
289502,1.23864,-9.65088,1.12865,-0.43,-0.137,0.115,-37.7021,48.1296,57.3268,1007.83
289508,1.25299,-9.65567,1.09517,-0.0799999,0.143,-1.565,-37.8482,48.1296,56.523,1007.83
289514,1.23386,-9.64132,1.11908,-0.36,0.213,-0.655,-37.4682,48.188,57.0199,1007.83
289520,1.20516,-9.69392,1.12865,-0.5,0.773,1.445,-37.1759,49.0942,56.8153,1007.82
289526,1.24342,-9.72262,1.09039,-0.78,-0.487,-1.215,-37.3075,48.1588,56.5522,1007.82
289532,1.20038,-9.68914,1.09517,-0.15,0.353,0.115,-37.6582,48.9773,56.9322,1007.81
289538,1.21951,-9.69871,1.1143,0.83,-0.277,1.375,-36.869,48.4511,56.9176,1007.81
289544,1.23386,-9.67001,1.11908,-0.36,0.633,-0.795,-36.6059,47.6326,56.9468,1007.81
289550,1.23386,-9.65088,1.12865,0.0600001,-0.277,-0.935,-36.8105,48.378,56.4645,1007.81
289556,1.22429,-9.66523,1.10952,-0.36,0.213,0.325,-37.6875,47.428,56.976,1007.82
289562,1.25299,-9.6748,1.0856,-0.0799999,-0.137,-1.145,-37.0444,47.7496,56.6253,1007.82
289568,1.24342,-9.63175,1.1143,-0.29,0.423,0.325,-37.6875,47.9688,57.3707,1007.83
289574,1.25299,-9.64132,1.1143,0.48,-0.137,0.675,-37.5559,47.7203,57.0491,1007.83
289580,1.23386,-9.6748,1.12865,-0.29,0.423,-0.515,-37.3075,48.3634,57.5314,1007.84
289586,1.1956,-9.70827,1.10952,-0.15,-0.277,-0.025,-37.0151,48.0711,56.4791,1007.84
289592,1.23386,-9.67001,1.09517,-0.15,0.213,1.375,-37.2344,47.735,56.596,1007.84
289598,1.24342,-9.66045,1.12386,0.62,-0.347,-1.425,-36.3574,47.545,56.713,1007.84
289604,1.25777,-9.63654,1.12865,0.2,0.983,1.585,-37.5559,49.2257,56.7714,1007.84
289610,1.24821,-9.66523,1.11908,-0.00999987,0.563,0.465,-37.5559,48.5242,56.216,1007.86
289616,1.24821,-9.6748,1.09517,-0.5,0.633,-0.725,-36.8982,48.0565,57.2391,1007.86
289622,1.22429,-9.68914,1.11908,0.69,-0.137,-0.235,-37.0882,48.1442,57.9845,1007.84
289628,1.23864,-9.67958,1.09039,-0.71,0.073,1.375,-37.0736,47.4134,56.903,1007.84
289634,1.21951,-9.70349,1.0856,-0.15,-0.487,-0.655,-37.059,48.1442,57.1076,1007.84
289640,1.25777,-9.65567,1.1143,0.41,-0.0670002,-0.725,-37.1028,47.6473,56.1283,1007.84
289646,1.22908,-9.65088,1.12386,-0.29,1.193,0.535,-37.1613,48.6119,56.7714,1007.84
289652,1.23864,-9.66523,1.1143,0.62,-0.697,0.045,-37.7313,48.495,57.7653,1007.84
289658,1.21473,-9.67001,1.1143,0.55,0.073,-0.305,-36.679,48.4073,56.8591,1007.84
289664,1.24821,-9.62697,1.13343,0.48,0.423,-0.445,-36.6936,48.378,56.786,1007.84
289670,1.23864,-9.66045,1.13343,-0.78,0.073,0.885,-37.7313,48.4365,57.5753,1007.82
289676,1.22908,-9.65567,1.09995,-1.27,0.073,0.465,-36.6205,48.3488,57.6922,1007.82
289682,1.24821,-9.67001,1.12865,-0.92,0.493,-0.585,-37.0005,48.495,57.663,1007.82
289688,1.23386,-9.66045,1.14299,-0.15,-0.137,-0.095,-37.7313,47.9834,57.2391,1007.83
289694,1.24342,-9.65088,1.1143,-0.99,0.423,1.025,-37.5559,48.0857,56.1722,1007.83
289700,1.22429,-9.67958,1.12865,-0.36,0.213,-0.655,-37.1028,48.9334,56.8153,1007.81
289706,1.21951,-9.6748,1.13343,-0.29,-0.557,0.185,-36.7228,48.6996,57.6191,1007.81
289712,1.23386,-9.67001,1.12865,-0.57,0.423,-0.655,-37.5413,48.3342,56.523,1007.85
289718,1.25299,-9.6461,1.13343,-0.64,1.123,-0.375,-37.4536,49.0504,57.3268,1007.85
289724,1.23864,-9.63175,1.13343,-1.13,-0.347,-0.095,-37.4536,48.6557,56.6983,1007.83
289730,1.26255,-9.70349,1.12865,-0.57,-0.137,-0.095,-37.4536,49.1965,56.7422,1007.83
289736,1.24821,-9.6748,1.12865,-0.5,-0.0670002,-0.445,-37.6436,49.1088,57.4437,1007.83
289742,1.25777,-9.70349,1.1143,-0.5,-0.557,1.025,-36.9567,48.9334,57.853,1007.83
289748,1.21473,-9.6748,1.12386,-0.71,0.423,-0.865,-37.3221,48.2319,57.8237,1007.84
289754,1.22429,-9.66523,1.11908,-0.78,0.423,0.115,-37.819,48.5827,57.093,1007.84
289760,1.24342,-9.70827,1.09517,-0.43,-0.347,0.675,-36.6644,49.0796,56.6253,1007.84
289766,1.23864,-9.67958,1.12865,-0.15,0.073,-0.305,-37.3952,49.5181,57.1514,1007.83
289772,1.23864,-9.67001,1.15734,-0.36,0.633,-0.095,-37.4098,48.5534,57.5168,1007.83
289778,1.25777,-9.66523,1.12865,-0.92,0.773,-0.795,-37.8775,48.6996,57.3414,1007.8
289784,1.23864,-9.65088,1.10473,0.2,-0.487,0.115,-37.6436,48.9334,57.4291,1007.8
289790,1.24821,-9.66523,1.13821,-0.71,0.283,0.885,-38.3013,48.7434,56.0991,1007.83
289796,1.24342,-9.66523,1.15256,0.48,-0.137,0.675,-37.1759,48.6119,55.266,1007.83
289802,1.24821,-9.6748,1.11908,0.0600001,-0.137,-1.005,-37.1467,48.3488,57.283,1007.81
289808,1.23864,-9.69871,1.09517,-0.15,0.633,-0.095,-37.7605,48.6119,57.7214,1007.81
289814,1.20995,-9.69392,1.10952,-1.34,0.423,-0.655,-37.7605,48.8165,56.7276,1007.85
289820,1.23864,-9.67958,1.11908,-0.0799999,-0.207,0.535,-36.6936,48.8457,57.0345,1007.85
289826,1.25299,-9.65088,1.13821,-0.29,0.073,0.325,-37.0882,48.8457,56.9176,1007.83
289832,1.23386,-9.66045,1.10952,0.13,1.403,-0.445,-37.8482,48.8165,56.6107,1007.83
289838,1.23386,-9.69392,1.10473,0.62,-0.907,0.115,-37.5998,48.8457,57.0199,1007.85
289844,1.23864,-9.71784,1.09517,-0.15,-0.487,-0.305,-37.249,48.4219,56.5668,1007.85
289850,1.24821,-9.68436,1.10952,0.48,-0.347,0.045,-37.3075,48.5242,57.093,1007.85
289856,1.23864,-9.6748,1.10952,0.27,1.123,0.885,-37.5998,48.758,56.6253,1007.82
289862,1.23864,-9.68914,1.13343,0.41,0.073,-0.795,-37.0298,48.2903,57.1953,1007.82
289868,1.24342,-9.67958,1.12386,0.34,0.633,0.115,-37.5998,48.7142,56.9176,1007.83
289874,1.23386,-9.66523,1.12865,-0.57,0.563,0.395,-37.5413,48.0857,57.7799,1007.83
289880,1.25777,-9.69871,1.10473,-0.29,0.423,-0.585,-36.7228,48.115,57.4876,1007.85
289886,1.24342,-9.70827,1.13343,-0.22,-0.487,-0.235,-36.8836,48.9481,58.1891,1007.85
289892,1.24821,-9.7274,1.12386,0.34,0.423,-0.585,-36.3721,48.2173,57.5899,1007.86
289898,1.25299,-9.6461,1.10473,0.62,-0.0670002,-0.795,-37.0151,48.9919,55.9383,1007.86
289904,1.26255,-9.62219,1.13343,1.11,-0.907,-1.005,-37.7752,48.378,58.2476,1007.86
289910,1.22908,-9.67958,1.15256,0.76,0.563,-0.235,-37.9652,48.4657,56.0991,1007.86
289916,1.22908,-9.69392,1.10473,0.0600001,0.073,0.815,-37.3513,48.2757,57.166,1007.82
289922,1.24821,-9.63654,1.13343,-0.15,-0.137,0.325,-37.5852,47.8373,57.473,1007.82
289928,1.24342,-9.62697,1.15734,0.76,-0.207,-0.305,-37.6144,47.8665,56.8153,1007.82
289934,1.24342,-9.66045,1.11908,0.69,-1.117,0.045,-37.249,47.7788,57.5607,1007.81
289940,1.23386,-9.70827,1.14778,-1.13,0.00299978,0.045,-37.1905,48.5534,57.0345,1007.81
289946,1.22429,-9.69871,1.12386,0.0600001,-0.557,-0.305,-37.3221,47.7057,57.6045,1007.83
289952,1.23864,-9.68436,1.12865,0.0600001,-0.347,0.885,-37.2928,47.9688,56.903,1007.83
289958,1.23864,-9.70827,1.12865,-0.15,0.213,-0.235,-36.9128,48.7288,57.8384,1007.85
289964,1.23386,-9.67001,1.12865,0.0600001,0.563,-1.075,-37.7605,48.1003,56.5814,1007.85
289970,1.21473,-9.66045,1.13821,0.13,-0.697,0.815,-37.0151,48.0711,56.3622,1007.83
289976,1.22429,-9.64132,1.13343,-0.29,-0.487,-0.305,-36.8398,48.875,57.3122,1007.83
289982,1.24342,-9.66523,1.14778,-0.0799999,-0.277,0.815,-36.9128,48.8457,57.2537,1007.84
289988,1.22908,-9.6748,1.14299,-0.78,0.073,0.115,-37.5121,49.1673,56.6545,1007.84
289994,1.23864,-9.66045,1.15256,-0.0799999,0.073,0.115,-37.5998,48.115,55.7191,1007.84
290000,1.23386,-9.64132,1.13343,0.27,0.283,0.535,-36.9421,48.1442,56.4207,1007.84
290006,1.26734,-9.67001,1.1143,-0.00999987,-0.207,0.745,-37.4682,47.6326,56.0845,1007.82
290012,1.22429,-9.67958,1.13343,-0.36,0.423,-1.565,-37.6582,48.3196,56.1868,1007.82
290018,1.22429,-9.65567,1.12865,0.27,0.213,0.045,-37.2344,48.6411,57.0784,1007.82
290024,1.25777,-9.68914,1.11908,-0.00999987,0.213,-0.235,-37.7605,48.8165,55.8506,1007.8
290030,1.23864,-9.70827,1.11908,0.41,0.423,-1.705,-37.2051,49.0942,56.8737,1007.8
290036,1.21951,-9.67958,1.10952,0.2,-0.837,1.025,-37.1759,49.065,56.6983,1007.86
290042,1.25777,-9.69392,1.12386,0.48,-0.697,0.465,-37.5267,49.0796,56.4499,1007.86
290048,1.24342,-9.68914,1.10952,0.83,0.213,-1.355,-36.9275,48.495,57.2976,1007.83
290054,1.22429,-9.6461,1.14778,1.04,-0.697,0.325,-37.3513,49.5181,56.1283,1007.83
290060,1.26255,-9.62697,1.16691,-0.22,-0.277,1.025,-37.7313,48.1588,56.3768,1007.84
290066,1.25299,-9.6748,1.14778,0.41,-1.117,-0.585,-37.2198,48.1588,56.4791,1007.84
290072,1.26255,-9.69871,1.14299,0.2,-0.697,0.465,-37.0736,47.8665,55.7191,1007.87
290078,1.24821,-9.6461,1.14778,-0.15,1.193,1.375,-36.7521,48.2465,55.4706,1007.87
290084,1.24342,-9.6461,1.17647,0.0600001,0.213,-0.725,-37.0444,48.2173,56.1283,1007.84
290090,1.26255,-9.67958,1.12386,-0.5,0.00299978,0.675,-37.1028,47.7788,57.4584,1007.84
290096,1.23386,-9.6461,1.12386,0.34,0.493,0.885,-36.6936,48.8165,56.7714,1007.83
290102,1.24821,-9.65567,1.13343,-0.36,0.843,-1.005,-37.3513,49.1088,56.6691,1007.83
290108,1.26255,-9.65088,1.15256,0.69,-0.557,-0.655,-37.8044,48.5534,56.2599,1007.83
290114,1.26734,-9.64132,1.17169,0.27,-0.0670002,0.325,-37.439,48.378,56.2453,1007.84
290120,1.23864,-9.68436,1.12386,-0.15,-0.767,-0.585,-37.4098,48.6704,56.3622,1007.84
290126,1.23864,-9.68436,1.11908,0.83,-0.697,-0.305,-37.3805,48.495,56.8591,1007.78
290132,1.22908,-9.68914,1.12865,0.27,0.00299978,1.235,-37.2782,48.9042,55.7776,1007.78
290138,1.26734,-9.68914,1.14299,0.48,-0.487,-0.305,-37.2928,48.0273,56.0114,1007.82
290144,1.23864,-9.66523,1.14778,0.62,-0.837,-1.285,-37.3805,48.4365,56.143,1007.82
290150,1.24821,-9.66045,1.14299,0.48,0.563,-0.375,-37.8775,48.3488,56.406,1007.85
290156,1.26734,-9.6461,1.14778,0.41,0.423,-0.445,-37.5852,47.8665,56.6253,1007.85
290162,1.24342,-9.63654,1.15256,0.2,0.00299978,0.395,-37.5267,48.5534,56.786,1007.85
290168,1.26734,-9.64132,1.13343,0.2,-0.907,0.325,-36.8251,47.9834,58.4084,1007.85
290174,1.24821,-9.65567,1.14778,0.0600001,0.843,0.395,-37.1759,48.5534,57.3707,1007.86
290180,1.23864,-9.65567,1.14778,-0.15,0.283,-0.095,-37.2636,48.5534,56.6983,1007.86
290186,1.26255,-9.65088,1.15256,0.41,-0.137,-0.445,-37.5121,48.4219,55.836,1007.86
290192,1.25299,-9.66045,1.13821,0.2,-0.907,-0.795,-37.3952,47.925,56.1576,1007.88
290198,1.25299,-9.67001,1.1143,-0.29,0.00299978,-0.585,-37.6728,48.5827,57.1368,1007.88
290204,1.21951,-9.68436,1.14778,0.41,-0.487,0.255,-37.5413,48.3342,56.903,1007.85
290210,1.24342,-9.67958,1.14299,0.62,-0.557,-0.025,-36.9567,48.6557,56.6837,1007.85
290216,1.26255,-9.6461,1.16691,0.2,0.283,0.115,-38.3306,48.6411,57.0053,1007.86
290222,1.24342,-9.66045,1.14778,0.0600001,-1.047,-0.515,-37.2051,48.6704,56.3622,1007.86
290228,1.24821,-9.67958,1.13343,0.13,-0.627,0.815,-37.4682,48.6704,57.5022,1007.85
290234,1.26734,-9.67001,1.11908,-0.0799999,0.213,-0.235,-37.7167,48.5242,56.8007,1007.85
290240,1.24821,-9.67001,1.13343,-0.15,-0.137,-0.445,-37.1467,48.0565,56.406,1007.81
290246,1.25777,-9.68914,1.13343,0.41,0.423,0.675,-36.7521,48.3342,55.9822,1007.81
290252,1.26255,-9.65088,1.13821,-0.29,0.633,0.745,-37.8044,48.7873,56.4353,1007.85
290258,1.26255,-9.62697,1.13343,0.62,-0.347,0.885,-36.5767,48.8457,57.4584,1007.85
290264,1.22429,-9.67958,1.14778,-0.15,0.073,0.465,-36.9128,49.2988,56.713,1007.86
290270,1.24342,-9.67958,1.14299,0.48,-0.487,-0.445,-37.4536,48.9773,56.903,1007.86
290276,1.24821,-9.66045,1.10473,0.41,0.00299978,-0.305,-37.249,49.1381,56.6837,1007.86
290282,1.24821,-9.65567,1.12386,0.48,0.423,-0.795,-37.8482,48.4365,56.026,1007.87
290288,1.25299,-9.6461,1.13343,-0.0799999,-0.137,1.165,-37.4536,48.7142,56.9322,1007.87
290294,1.24821,-9.67001,1.13821,-0.99,-0.697,0.115,-37.7752,49.0796,56.5814,1007.82
290300,1.23864,-9.6748,1.14299,0.27,-0.907,-0.025,-37.1175,48.4365,56.6399,1007.82
290306,1.26734,-9.6461,1.12386,-0.57,0.633,0.885,-37.4536,48.7288,56.9176,1007.82
290312,1.24821,-9.6461,1.13821,0.41,0.073,-0.235,-37.5267,49.2257,56.2599,1007.82
290318,1.24821,-9.6748,1.12865,-0.71,0.073,-0.025,-37.629,48.4365,56.3914,1007.84
290324,1.26255,-9.65088,1.11908,-0.36,-0.137,-1.005,-36.5328,48.9188,56.2599,1007.84
290330,1.23864,-9.6461,1.14299,0.55,-0.347,-0.025,-36.9567,48.758,56.6399,1007.83
290336,1.25299,-9.6461,1.14299,-0.78,0.213,0.605,-36.5621,48.0565,56.6253,1007.83
290342,1.26255,-9.65567,1.14299,0.27,0.493,-0.025,-37.1467,47.7788,55.836,1007.85
290348,1.25777,-9.67001,1.14299,-0.78,-0.277,0.535,-37.3805,48.2903,55.7191,1007.85
290354,1.25299,-9.68914,1.12865,-0.15,-0.137,-0.235,-37.3805,48.2027,57.3414,1007.85
290360,1.24342,-9.6748,1.12865,-1.76,1.193,1.095,-36.9859,48.3342,55.6899,1007.82
290366,1.23386,-9.67958,1.11908,-1.06,0.773,0.325,-37.3513,47.9834,56.8153,1007.82
290372,1.26734,-9.66045,1.14778,-0.99,-0.0670002,1.165,-37.6728,48.4365,56.7422,1007.83
290378,1.22908,-9.6748,1.11908,-1.27,0.423,0.325,-37.2928,48.2611,56.8445,1007.83
290384,1.22908,-9.70349,1.10473,-0.64,-1.047,-0.585,-38.0529,48.5096,56.5668,1007.86
290390,1.23864,-9.68914,1.12386,0.48,-0.137,0.325,-37.7605,49.1381,56.4499,1007.86
290396,1.27212,-9.65567,1.13821,-0.15,-0.137,-0.725,-37.629,48.4657,56.5814,1007.82
290402,1.23386,-9.66523,1.14299,-0.36,-0.137,-0.445,-37.9067,48.305,57.1514,1007.82
290408,1.23386,-9.6748,1.13821,-1.13,0.983,1.095,-37.8482,49.3134,56.8299,1007.81
290414,1.23386,-9.71784,1.11908,-0.36,-0.137,-1.145,-37.629,49.5327,57.4291,1007.81
290420,1.23864,-9.67958,1.09995,-0.00999987,-1.117,0.675,-37.439,49.445,57.2684,1007.85
290426,1.25299,-9.68436,1.09995,-0.5,0.983,1.795,-37.3513,48.2903,57.7799,1007.85
290432,1.22908,-9.67001,1.12386,-0.99,1.683,-0.235,-37.4828,48.5096,57.6776,1007.83
290438,1.24821,-9.67958,1.13343,0.2,0.283,0.815,-37.2636,48.4657,57.2245,1007.83
290444,1.25299,-9.70827,1.09039,0.2,-0.697,0.255,-36.8251,48.8311,55.8506,1007.83
290450,1.24342,-9.67958,1.09517,-0.00999987,0.00299978,-0.655,-37.4975,48.6996,56.026,1007.83
290456,1.21473,-9.67001,1.14299,-0.99,0.563,0.815,-37.1613,48.9919,56.6545,1007.83
290462,1.23864,-9.69392,1.12865,-0.22,-0.697,0.885,-37.1759,48.4365,56.6107,1007.81
290468,1.22429,-9.6748,1.1143,-0.71,0.283,-1.075,-36.4451,48.5388,57.2684,1007.81
290474,1.21951,-9.67001,1.1143,-0.36,-0.347,0.675,-37.4975,48.9334,57.2245,1007.82
290480,1.25299,-9.67958,1.12865,-0.92,1.053,1.445,-36.6059,48.5242,56.0699,1007.82
290486,1.21951,-9.66523,1.1143,0.41,-0.137,-1.355,-37.2198,48.5827,56.976,1007.88
290492,1.22908,-9.69392,1.09039,0.83,0.703,-0.795,-36.7813,48.2757,56.0406,1007.88
290498,1.23864,-9.69871,1.11908,0.69,-0.767,0.115,-36.869,48.1296,57.4584,1007.85
290504,1.24342,-9.64132,1.12865,0.27,-0.417,-1.495,-37.4098,48.6119,58.0576,1007.85
290510,1.25299,-9.62219,1.14778,0.0600001,-0.277,1.165,-37.7752,48.8604,57.6484,1007.83
290516,1.22908,-9.6748,1.11908,-0.85,0.773,-0.165,-36.6351,48.8457,57.9553,1007.83
290522,1.24821,-9.66523,1.09517,0.2,-0.277,-1.355,-36.1382,48.6119,57.8237,1007.83
290528,1.22908,-9.6461,1.1143,0.27,0.073,-0.305,-36.9421,48.5827,57.1807,1007.82
290534,1.24821,-9.68914,1.09517,-0.15,0.423,0.185,-37.3221,48.4657,56.3476,1007.82
290540,1.27212,-9.66523,1.10952,-0.29,0.00299978,0.115,-36.2259,48.9627,57.0199,1007.85
290546,1.2769,-9.60784,1.13343,-0.5,0.073,0.045,-36.6644,48.4365,57.093,1007.85
290552,1.23386,-9.6461,1.12865,0.55,-1.257,-0.445,-36.7959,48.495,57.2537,1007.88
290558,1.24821,-9.71784,1.10952,0.48,-0.697,-0.865,-37.439,48.378,56.8884,1007.88
290564,1.23864,-9.6748,1.11908,0.2,-0.277,0.325,-37.1905,48.2757,56.0991,1007.84
290570,1.2769,-9.63175,1.13821,0.2,0.213,-0.025,-36.6644,48.5534,56.333,1007.84
290576,1.2769,-9.6461,1.13821,-0.78,-0.487,-0.445,-36.6936,48.0419,56.4937,1007.85
290780,1.23864,-9.64132,1.1143,0.0600001,-0.0670002,-0.025,-37.6436,48.9042,56.0406,1007.85
290786,1.25299,-9.6748,1.1143,-1.06,1.193,0.325,-37.439,48.6704,57.5314,1007.87
290792,1.23386,-9.6748,1.09995,-1.48,0.493,0.885,-37.249,48.7288,56.4353,1007.87
290798,1.21473,-9.67001,1.10952,-0.57,-0.697,-0.025,-37.059,48.3488,56.7714,1007.85
290804,1.24342,-9.66523,1.10473,-0.15,-0.277,-0.235,-37.0736,48.305,57.166,1007.85
290810,1.24821,-9.68436,1.0856,-0.92,0.073,0.815,-37.0882,48.1734,57.1222,1007.81
290816,1.24821,-9.68436,1.09039,-0.15,0.283,-0.445,-37.249,48.4657,56.6253,1007.81
290822,1.22429,-9.68436,1.10952,-0.29,0.073,0.535,-37.6144,48.7288,57.166,1007.83
290828,1.22429,-9.67958,1.09517,-0.36,0.073,0.395,-37.6728,48.305,56.786,1007.83
290834,1.23386,-9.68914,1.09995,-0.15,-0.0670002,0.815,-37.2198,48.2173,56.406,1007.83
290840,1.23386,-9.67001,1.1143,-0.71,0.073,0.115,-37.3513,48.9627,57.3999,1007.83
290846,1.24821,-9.68436,1.09995,-0.5,-0.277,-0.305,-37.439,48.2465,55.9968,1007.84
290852,1.24821,-9.70349,1.09517,-0.78,0.633,-1.215,-37.4682,48.6704,57.2391,1007.84
290858,1.21951,-9.69871,1.07604,-1.13,-0.277,-0.445,-37.6436,48.9919,57.1368,1007.83
290864,1.21951,-9.67001,1.10952,-0.57,0.563,1.235,-37.3513,49.3573,56.8884,1007.83
290870,1.25299,-9.6748,1.10473,-1.13,0.773,0.045,-37.629,48.5973,56.4207,1007.83
290876,1.23386,-9.70349,1.06648,-0.78,0.213,0.185,-37.7459,48.6996,56.9322,1007.82
290882,1.22908,-9.68436,1.06169,0.41,0.213,0.885,-38.3744,49.4011,57.2976,1007.82
290888,1.23386,-9.6748,1.10952,-0.36,0.563,0.115,-38.1552,49.0796,56.5814,1007.84
290894,1.23864,-9.65567,1.09039,-0.36,0.283,1.235,-37.6582,48.5827,56.8153,1007.84
290900,1.25777,-9.66045,1.12865,-0.22,0.633,-0.095,-38.0529,49.445,55.9237,1007.84
290906,1.24342,-9.67001,1.10473,-0.57,-0.697,-0.865,-37.6875,49.1234,56.1576,1007.84
290912,1.23386,-9.65088,1.11908,-0.71,0.073,1.095,-37.4975,48.9334,57.2099,1007.81
290918,1.22908,-9.69392,1.07604,1.25,-0.557,-0.865,-37.4682,48.5827,57.5022,1007.81
290924,1.22908,-9.65567,1.0856,-0.00999987,-0.347,-0.655,-38.3013,48.875,56.8591,1007.82
290930,1.25777,-9.64132,1.10952,-0.29,0.283,0.465,-37.8482,49.4742,55.646,1007.82
290936,1.22908,-9.66045,1.10473,0.2,0.213,-0.235,-36.8836,48.6119,57.0345,1007.85
290942,1.22908,-9.68914,1.09995,-0.00999987,0.073,-0.445,-37.8482,48.8165,55.7922,1007.85
290948,1.22908,-9.69392,1.09517,-0.29,0.843,1.655,-37.7752,48.758,56.7568,1007.85
290954,1.20995,-9.6748,1.07604,0.27,-0.137,0.115,-37.6436,48.6411,57.9114,1007.83
290960,1.23386,-9.66523,1.09517,0.41,0.213,-0.445,-37.4098,49.0065,56.786,1007.83
290966,1.24821,-9.63654,1.10473,-0.71,0.773,1.235,-37.3513,49.2842,56.026,1007.81
290972,1.22429,-9.67001,1.09039,0.2,0.213,0.255,-37.3513,49.2842,55.953,1007.81
290978,1.22908,-9.66045,1.0856,0.27,-0.697,-0.235,-37.4682,49.0942,57.1953,1007.84
290984,1.24342,-9.65567,1.07604,-0.5,-0.0670002,0.885,-37.1028,48.7288,56.903,1007.84
290990,1.25777,-9.63175,1.0856,-0.5,-0.347,-0.445,-37.8629,49.2404,57.093,1007.84
290996,1.23864,-9.66045,1.09039,-0.71,0.213,0.535,-37.0882,48.5827,57.356,1007.84
291002,1.22908,-9.68436,1.0856,0.27,0.073,-0.655,-37.5559,48.3342,56.8445,1007.84
291008,1.24821,-9.67958,1.0856,-0.0799999,0.00299978,-0.095,-37.6436,48.305,56.523,1007.84
291014,1.23386,-9.69392,1.10473,-0.0799999,0.00299978,0.325,-37.8775,49.255,56.523,1007.85
291020,1.20995,-9.69392,1.10952,0.2,-0.837,-0.095,-37.3221,48.495,56.3768,1007.85
291026,1.24342,-9.6748,1.09995,-0.5,0.00299978,0.115,-37.9944,49.5327,56.6691,1007.82
291032,1.23864,-9.63654,1.12386,-0.57,0.423,0.325,-37.6875,48.9627,56.6107,1007.82
291038,1.23386,-9.67001,1.11908,0.0600001,0.423,0.325,-37.4536,48.3927,55.8068,1007.82
291044,1.24342,-9.66523,1.10473,-0.71,0.773,0.535,-37.9944,48.568,56.8299,1007.81
291050,1.21473,-9.6461,1.09517,-0.78,-0.697,1.445,-37.6875,48.8165,56.3914,1007.81
291056,1.24821,-9.71305,1.0856,-0.15,0.563,2.565,-37.2928,48.6704,56.523,1007.84
291062,1.20995,-9.67001,1.08082,0.41,-0.347,0.045,-36.6644,49.2257,57.1076,1007.84
291068,1.21951,-9.6461,1.12386,-0.29,0.00299978,2.005,-36.8398,47.9834,56.9614,1007.79
291074,1.24821,-9.6461,1.09039,-0.57,-0.907,0.675,-37.8921,48.0565,56.9322,1007.79
291080,1.22908,-9.65567,1.09995,0.34,-0.347,-1.145,-37.5559,48.8457,57.2976,1007.84
291086,1.20995,-9.67958,1.09517,-0.92,0.213,0.465,-37.6144,48.3342,57.1076,1007.84
291092,1.22908,-9.70349,1.07126,-0.15,0.563,1.515,-37.249,48.6119,56.1283,1007.84
291098,1.23864,-9.66523,1.09995,-0.36,-0.697,-0.025,-37.5267,48.9627,56.5668,1007.84
291104,1.24342,-9.62697,1.12865,-0.71,0.843,0.535,-37.6144,48.7873,57.2537,1007.83
291110,1.20995,-9.64132,1.11908,0.27,0.843,0.115,-36.869,48.5534,57.3853,1007.83
291116,1.21951,-9.68914,1.10473,-1.06,0.423,0.465,-37.1175,48.2611,57.166,1007.83
291122,1.24821,-9.65088,1.09517,-0.36,0.073,0.185,-36.7813,48.305,57.2537,1007.86
291128,1.20038,-9.66523,1.10952,0.0600001,-0.767,-0.305,-37.1321,48.378,56.5522,1007.86
291134,1.26255,-9.68436,1.07604,-0.29,0.493,-0.095,-37.7167,48.6265,56.216,1007.87
291140,1.21473,-9.6461,1.10473,0.2,0.843,0.115,-37.249,49.0357,55.8653,1007.87
291146,1.26255,-9.6748,1.0856,-0.00999987,-0.347,0.815,-36.5182,48.4365,56.4353,1007.83
291152,1.21951,-9.69392,1.0856,-0.92,-0.137,0.605,-37.9067,47.925,56.3183,1007.83
291158,1.22429,-9.65088,1.06648,-0.36,-0.137,1.235,-37.249,48.2757,56.903,1007.83
291164,1.24342,-9.6748,1.07126,0.0600001,-0.0670002,0.115,-36.5036,48.9334,56.9322,1007.83
291170,1.25777,-9.68914,1.05691,-0.92,0.493,-0.585,-37.1613,49.1673,56.3768,1007.84
291176,1.23864,-9.66523,1.07126,-0.36,0.00299978,0.815,-37.7898,48.4365,55.953,1007.84
291182,1.24821,-9.68914,1.0856,-0.0799999,-0.557,0.465,-37.249,48.5388,55.9383,1007.84
291188,1.21473,-9.66045,1.09039,0.0600001,0.00299978,-0.095,-37.4244,48.6265,57.2245,1007.84
291194,1.21951,-9.66523,1.09039,0.27,-0.347,0.325,-37.4682,48.495,57.4584,1007.87
291200,1.23864,-9.69392,1.09039,-0.57,-0.557,1.095,-37.1028,48.0711,56.4791,1007.87
291206,1.21951,-9.6748,1.07126,-0.00999987,-0.557,0.325,-37.2928,49.065,57.3999,1007.87
291212,1.22429,-9.67958,1.08082,-0.22,0.843,0.675,-37.0151,49.0796,56.4937,1007.85
291218,1.20995,-9.68914,1.09995,-0.22,-0.347,0.115,-37.3805,48.2027,56.7568,1007.85
291224,1.20995,-9.68914,1.06169,0.97,-0.907,-0.445,-36.4598,48.495,56.8153,1007.84
291230,1.18125,-9.72262,1.08082,-0.71,0.213,0.185,-37.4098,48.0711,57.0491,1007.84
291236,1.20038,-9.69871,1.09039,0.13,-0.697,1.095,-37.0736,48.2173,56.8737,1007.82
291242,1.21951,-9.69871,1.09039,-0.5,-0.277,0.115,-37.5559,48.7873,56.3622,1007.82
291248,1.20995,-9.63654,1.1143,0.62,-0.697,-1.005,-37.5267,49.6642,56.3622,1007.83
291254,1.20995,-9.65088,1.10473,0.2,0.073,0.465,-37.9359,49.5181,56.903,1007.83
291260,1.23386,-9.68436,1.0856,0.0600001,0.633,1.025,-36.8982,48.2757,57.1953,1007.83
291266,1.21473,-9.6461,1.0856,0.27,-0.137,-1.075,-36.9275,48.7873,57.0491,1007.83
291272,1.23864,-9.66045,1.09995,-0.29,0.00299978,1.585,-37.1321,48.495,56.6691,1007.85
291278,1.24821,-9.67958,1.08082,-0.15,-0.487,-0.025,-37.5267,48.5827,56.523,1007.85
291284,1.22429,-9.6461,1.07126,0.76,-1.047,-0.935,-37.4098,48.0857,57.3122,1007.82
291290,1.24342,-9.64132,1.06648,-0.36,0.00299978,0.325,-37.8482,48.6119,56.6399,1007.82
291296,1.22429,-9.66523,1.07604,-0.15,0.213,-0.095,-37.249,49.4888,57.4437,1007.82
291302,1.22429,-9.65567,1.09039,-0.36,0.353,-0.515,-36.8398,48.5534,57.5607,1007.83
291308,1.22908,-9.66523,1.0856,-0.43,0.283,-0.025,-37.0736,48.5827,56.8445,1007.83
291314,1.20038,-9.67958,1.08082,-0.78,-0.207,0.115,-37.0151,48.875,56.8737,1007.83
291320,1.21951,-9.68436,1.0856,-0.36,0.283,0.325,-36.7082,48.5242,56.9468,1007.83
291326,1.23386,-9.66045,1.07604,-0.15,-0.487,-0.375,-37.0736,48.5096,57.0199,1007.86
291332,1.20038,-9.66045,1.07126,0.0600001,-1.257,0.675,-36.2113,49.1088,56.5083,1007.86
291338,1.21951,-9.66045,1.08082,-0.15,-0.277,0.535,-36.6059,49.5619,56.6107,1007.81
291344,1.23864,-9.65567,1.09995,-1.83,0.773,0.815,-36.8251,48.8165,56.9322,1007.81
291350,1.20516,-9.67001,1.10952,-0.00999987,0.633,1.935,-37.1467,48.6996,56.2014,1007.8
291356,1.21951,-9.66523,1.09995,0.2,-0.137,-0.865,-36.109,48.8165,56.0553,1007.8
291362,1.22429,-9.65088,1.10473,-0.5,-0.557,0.325,-37.059,48.875,55.9822,1007.83
291368,1.20995,-9.6748,1.09517,-0.15,0.073,0.675,-37.0005,48.5242,56.9176,1007.83
291374,1.20516,-9.6748,1.09039,-0.36,0.00299978,0.255,-36.5474,48.6557,56.8591,1007.83
291380,1.20516,-9.66523,1.0856,0.0600001,-0.0670002,0.605,-36.4013,49.0796,56.6399,1007.83
291386,1.22429,-9.6461,1.10473,-0.78,-0.137,1.445,-36.8105,48.685,55.8653,1007.83
291392,1.23386,-9.68914,1.09039,-1.27,-0.347,0.325,-37.1613,48.2173,57.166,1007.81
291398,1.22429,-9.66045,1.09039,0.76,0.423,0.115,-36.5767,48.9919,56.7276,1007.81
291404,1.23864,-9.66045,1.0856,-0.00999987,-0.347,-0.375,-37.0736,48.8457,56.8591,1007.79
291410,1.21473,-9.68914,1.07604,-0.15,0.213,-0.235,-36.9421,48.8457,56.1576,1007.79
291416,1.21951,-9.66045,1.0856,-0.36,0.423,-0.095,-37.0005,47.8519,56.5522,1007.81
291422,1.24342,-9.66523,1.07604,-0.5,0.703,1.585,-37.3659,48.115,56.8737,1007.81
291428,1.1956,-9.6748,1.09039,-0.15,-0.837,-0.095,-37.4098,48.2319,56.1722,1007.84
291434,1.19082,-9.70827,1.08082,0.0600001,-1.467,-1.075,-37.0736,49.1088,56.8153,1007.84
291440,1.21951,-9.68436,1.07126,-0.5,-0.137,0.185,-36.3721,47.6034,56.8737,1007.84
291446,1.20995,-9.68436,1.08082,0.41,-0.277,-0.585,-36.5767,48.1003,57.1222,1007.84
291452,1.22429,-9.68436,1.08082,-0.29,0.00299978,-0.235,-37.0005,48.5534,55.8799,1007.83
291458,1.21951,-9.70349,1.06648,0.41,0.493,-0.445,-36.3136,48.758,56.333,1007.83
291464,1.20038,-9.70827,1.0856,-0.36,0.983,0.745,-37.0444,48.875,56.8737,1007.83
291470,1.20516,-9.69392,1.07604,0.41,0.773,0.115,-37.0882,48.8165,56.4207,1007.8
291476,1.22429,-9.66045,1.09517,0.0600001,-0.487,0.605,-37.059,47.7203,57.2245,1007.8
291482,1.22908,-9.66523,1.0856,0.0600001,-0.837,0.535,-36.869,48.2757,57.3122,1007.83
291488,1.22429,-9.66523,1.06648,-0.15,-0.137,0.325,-37.5852,48.378,56.1283,1007.83
291494,1.20516,-9.69392,1.07604,-0.15,-0.277,-0.515,-36.8544,48.378,57.0345,1007.81
291500,1.1956,-9.68436,1.07604,0.83,-0.697,-0.235,-36.9128,48.2027,56.5814,1007.81
291506,1.19082,-9.65567,1.09517,0.0600001,0.073,0.325,-37.1175,48.9627,57.1222,1007.82
291512,1.21951,-9.68436,1.08082,0.27,-0.557,-0.095,-36.9713,49.1673,57.0637,1007.82
291518,1.20516,-9.65567,1.0856,0.2,-0.347,1.165,-36.7521,48.8457,56.5668,1007.85
291524,1.1956,-9.67958,1.0856,0.27,0.493,0.325,-37.0005,48.8457,56.4791,1007.85
291530,1.20516,-9.67001,1.07604,0.62,0.983,-0.445,-37.1028,48.4219,56.8007,1007.84
291536,1.19082,-9.65088,1.0856,0.62,0.073,1.235,-36.7228,48.5534,57.6191,1007.84
291542,1.21951,-9.68436,1.08082,1.25,-0.277,-0.025,-35.8751,47.7203,56.3622,1007.84
291548,1.22429,-9.67001,1.08082,-0.29,0.563,-0.655,-37.2051,48.378,56.4353,1007.82
291554,1.20516,-9.66523,1.07604,-0.00999987,0.633,0.815,-36.5182,48.5096,57.1514,1007.82
291560,1.23386,-9.66523,1.06169,-0.5,-0.487,-0.235,-36.7228,48.2611,56.8007,1007.82
291566,1.1956,-9.69392,1.05213,0.41,-1.117,-0.585,-37.059,48.3196,56.9176,1007.82
291572,1.1956,-9.69871,1.07126,-0.5,-0.487,-0.585,-36.5621,49.5181,55.7776,1007.86
291578,1.18604,-9.70349,1.04735,0.76,0.00299978,0.465,-36.7228,48.9042,57.4291,1007.86
291584,1.21951,-9.66045,1.05213,-0.36,0.633,-0.795,-36.7959,49.2842,56.8884,1007.85
291590,1.25299,-9.66045,1.09039,-0.5,0.423,1.235,-37.439,48.875,56.8299,1007.85
291596,1.20995,-9.67001,1.09039,0.0600001,0.423,-0.655,-36.9275,48.2757,57.4145,1007.8
291602,1.22429,-9.68914,1.07604,-0.36,-0.347,-1.355,-36.9421,48.8457,57.473,1007.8
291608,1.21951,-9.65567,1.08082,-0.15,-0.277,0.675,-37.4536,48.2465,56.9176,1007.85
291614,1.20995,-9.65567,1.09995,-0.64,0.563,0.745,-36.9421,48.6704,56.8445,1007.85
291620,1.22908,-9.67001,1.08082,0.27,-0.347,0.115,-37.0005,48.8457,57.7214,1007.83
291626,1.21473,-9.72262,1.07126,-0.00999987,0.213,1.165,-37.249,48.7434,56.8591,1007.83
291632,1.21951,-9.69871,1.05213,0.41,-0.207,-0.305,-37.0736,48.8604,58.0284,1007.83
291638,1.21473,-9.66523,1.07126,0.0600001,0.423,-0.655,-37.9067,48.8457,56.8445,1007.85
291644,1.22429,-9.69871,1.05213,-0.15,0.493,0.885,-37.4244,48.5388,57.2976,1007.85
291650,1.20038,-9.68436,1.06169,0.0600001,0.843,0.185,-38.0821,47.7788,57.4291,1007.83
291656,1.21473,-9.70827,1.05213,-0.15,0.563,-1.145,-37.6582,48.6265,57.3999,1007.83
291662,1.21951,-9.67958,1.05691,0.83,0.213,-0.235,-37.4098,48.9919,57.2099,1007.83
291668,1.23386,-9.63654,1.09517,0.0600001,0.213,-0.445,-37.5998,48.685,57.2976,1007.83
291674,1.22908,-9.66045,1.0856,0.76,0.283,-1.355,-37.7459,48.1588,57.1807,1007.79
291680,1.21473,-9.6748,1.09995,0.0600001,0.213,-0.235,-38.0529,49.1673,56.5083,1007.79
291686,1.21473,-9.71305,1.07126,-0.15,-0.0670002,-0.025,-37.3221,48.6411,57.6484,1007.83
291692,1.21951,-9.71305,1.07126,-0.36,-0.557,-1.005,-37.1028,49.2257,57.1368,1007.83
291698,1.21473,-9.70827,1.07604,0.41,-0.277,-1.145,-37.3075,48.0419,58.1745,1007.81
291704,1.20516,-9.66045,1.09039,0.2,-0.837,-0.445,-37.1905,47.9688,57.093,1007.81
291710,1.22908,-9.6461,1.09517,0.2,0.563,0.255,-37.5267,49.0504,57.5314,1007.81
291716,1.24342,-9.6461,1.0856,-0.15,-0.697,-0.655,-36.6644,49.2257,57.9407,1007.85
291722,1.24821,-9.65088,1.0856,-0.92,0.843,-0.235,-37.2344,48.9627,56.4499,1007.85
291728,1.24821,-9.66045,1.10952,0.48,-0.277,-0.585,-37.3221,49.4888,56.786,1007.86
291734,1.22908,-9.63175,1.1143,0.62,0.493,-0.725,-37.0298,48.9334,57.7799,1007.86
291740,1.22429,-9.6461,1.09517,-0.78,0.283,1.025,-37.0151,48.9042,57.1953,1007.84
291746,1.25777,-9.65567,1.09039,0.2,-0.137,0.465,-37.3221,48.4657,56.4937,1007.84
291752,1.20995,-9.65567,1.09995,0.0600001,-0.347,0.255,-37.3659,48.568,56.0845,1007.83
291758,1.20516,-9.70827,1.06648,0.41,-0.137,-1.215,-37.819,49.5765,57.4291,1007.83
291764,1.20995,-9.69871,1.05213,-0.36,-0.697,-0.445,-36.7959,48.7288,56.1868,1007.82
291770,1.23864,-9.69392,1.11908,0.83,-0.347,-0.305,-36.8982,48.875,56.2453,1007.82
291776,1.24821,-9.6748,1.10473,0.27,0.633,-0.095,-36.4013,48.7873,56.596,1007.82
291782,1.22429,-9.66045,1.09039,0.41,0.493,-0.095,-37.0298,48.495,57.2099,1007.82
291788,1.22908,-9.63654,1.11908,0.48,-0.837,-0.445,-38.3452,47.7788,56.3914,1007.83
291794,1.21473,-9.68436,1.0856,0.83,-0.277,-0.165,-37.2782,48.4073,56.9907,1007.83
291800,1.22908,-9.67958,1.07604,-0.36,-0.137,0.465,-37.1905,47.6326,57.3853,1007.83
291806,1.23386,-9.67001,1.09517,-0.15,0.073,-0.445,-37.0882,49.2404,57.093,1007.88
291812,1.23864,-9.67958,1.07126,-0.15,0.423,0.115,-36.869,48.7873,56.4353,1007.88
291818,1.20038,-9.69392,1.07126,0.41,0.213,-0.585,-36.7667,48.6996,57.9553,1007.82
291824,1.20516,-9.67958,1.09039,0.55,-0.837,-0.095,-37.1759,48.2319,57.9699,1007.82
291830,1.20995,-9.72262,1.06648,1.6,-0.277,-1.145,-37.3221,48.378,58.1307,1007.83
291836,1.23864,-9.69392,1.07126,0.69,-0.0670002,-1.355,-37.0151,48.9481,57.5899,1007.83
291842,1.23864,-9.62697,1.10473,-0.00999987,0.213,-0.165,-37.5267,48.8457,57.2684,1007.83
291848,1.22908,-9.61262,1.11908,0.48,-1.117,-0.865,-36.9713,48.5827,56.903,1007.83
291854,1.25299,-9.65567,1.08082,1.11,0.213,0.325,-37.3805,48.9334,57.0053,1007.86
291860,1.23386,-9.69392,1.07126,0.13,0.283,-0.795,-37.1759,48.6411,56.6107,1007.86
291866,1.24821,-9.66045,1.09517,0.55,0.283,0.325,-38.2721,49.3865,57.5314,1007.83
291872,1.23864,-9.67001,1.09995,-0.5,0.143,-0.235,-37.1759,48.5534,56.2453,1007.83
291878,1.24821,-9.67001,1.09517,-0.85,0.073,0.885,-36.9275,48.8457,56.5376,1007.78
291884,1.22429,-9.67958,1.07604,0.27,-0.137,-0.305,-37.2051,48.2611,56.8299,1007.78
291890,1.22908,-9.71784,1.07604,0.2,0.073,-0.095,-37.6582,48.5388,56.2453,1007.78
291896,1.24342,-9.68914,1.10473,0.62,0.073,0.255,-37.4536,48.3196,57.0345,1007.85
291902,1.20995,-9.64132,1.10952,-0.15,-0.207,-0.585,-36.8836,48.6411,57.4145,1007.85
291908,1.22908,-9.67001,1.10952,-0.22,-0.347,-0.305,-37.1905,49.1381,55.9968,1007.83
291914,1.22429,-9.68436,1.09039,-0.0799999,0.00299978,-1.285,-36.8544,48.4365,57.5607,1007.83
291920,1.24342,-9.63654,1.08082,-0.00999987,0.00299978,0.045,-37.1905,48.7873,56.4499,1007.78
291926,1.23864,-9.63654,1.09517,-0.0799999,-0.767,0.325,-37.3513,48.2611,56.1576,1007.78
291932,1.22908,-9.66045,1.11908,-0.29,0.423,0.115,-37.7605,48.9627,55.9968,1007.82
291938,1.25299,-9.66045,1.09995,1.11,-0.907,-0.725,-36.679,49.445,56.9322,1007.82
291944,1.21951,-9.68914,1.09039,-0.15,-0.0670002,0.815,-37.2198,48.6265,56.7714,1007.83
291950,1.22429,-9.71784,1.0856,0.76,-0.907,-0.025,-37.4975,48.6119,55.3391,1007.83
291956,1.20038,-9.67958,1.1143,0.55,-0.0670002,-0.235,-37.4536,49.0796,56.5668,1007.82
291962,1.23386,-9.66523,1.10473,0.0600001,0.073,-1.425,-37.2198,49.1673,56.4207,1007.82
291968,1.23864,-9.66045,1.09995,-0.57,0.983,0.185,-38.2575,49.4596,57.0199,1007.82
291974,1.23864,-9.65567,1.09517,0.97,0.073,0.115,-37.0882,49.6788,56.7422,1007.79
291980,1.21951,-9.65567,1.1143,-0.57,0.283,-0.095,-37.4098,49.0796,57.356,1007.79
291986,1.24821,-9.66045,1.10473,0.83,-0.347,0.115,-37.3805,48.9042,56.8737,1007.83
291992,1.23386,-9.66045,1.08082,0.27,-0.277,-0.095,-37.4975,49.1965,56.8445,1007.83
291998,1.24342,-9.67958,1.08082,0.76,-0.487,-0.655,-37.5559,48.875,57.2537,1007.83
292004,1.21473,-9.69871,1.0856,0.27,0.283,0.465,-37.8482,48.5242,56.8007,1007.83
292010,1.21473,-9.6748,1.10952,0.41,-0.487,-0.095,-37.4975,49.2842,57.1222,1007.83
292016,1.23864,-9.67001,1.07604,0.62,0.633,0.115,-37.0444,48.875,57.7068,1007.83
292022,1.21951,-9.69392,1.09517,0.41,-1.117,-0.515,-37.629,49.0065,56.8591,1007.82
292028,1.22429,-9.68436,1.09039,0.0600001,0.423,-0.445,-37.2198,48.758,56.8153,1007.82
292034,1.21951,-9.65088,1.08082,0.62,-0.697,-0.235,-36.6498,48.9481,56.5376,1007.86
292040,1.24342,-9.70349,1.10952,0.0600001,-0.207,-0.445,-37.2198,49.0504,57.3268,1007.86
292046,1.26255,-9.67001,1.10952,-0.36,-0.557,-0.235,-36.8836,48.6996,56.3622,1007.85
292052,1.23386,-9.66523,1.09517,-0.5,-0.487,1.795,-37.6582,49.0357,57.2684,1007.85
292058,1.24821,-9.70827,1.07126,0.0600001,-0.137,-0.235,-36.4744,49.0357,57.3122,1007.85
292064,1.24342,-9.65567,1.12386,0.48,-0.207,-0.655,-36.8836,48.188,57.1076,1007.82
292070,1.23386,-9.65567,1.1143,-0.00999987,0.773,0.675,-36.9713,49.1234,56.333,1007.82
292076,1.23386,-9.68436,1.09995,0.0600001,0.773,0.255,-36.7959,48.7288,57.356,1007.83
292082,1.22429,-9.6748,1.08082,-0.15,0.073,-0.865,-36.7521,48.9627,57.1222,1007.83
292088,1.23386,-9.67958,1.0856,0.41,-0.487,0.675,-37.9067,49.5181,55.6168,1007.82
292094,1.23864,-9.70827,1.09517,-0.92,-0.557,0.115,-36.9128,49.3281,57.2245,1007.82
292100,1.22908,-9.67001,1.10952,1.18,-0.557,-0.795,-37.1467,48.6411,56.0991,1007.85
292106,1.22908,-9.67001,1.10473,0.0600001,0.423,1.235,-37.059,48.8457,56.5376,1007.85
292112,1.22429,-9.67001,1.09995,0.48,-0.347,-0.445,-37.0882,49.1819,56.1868,1007.82
292118,1.22908,-9.67001,1.08082,0.2,0.00299978,-0.025,-37.1321,48.9627,56.6253,1007.82
292124,1.23386,-9.67958,1.08082,-0.15,0.633,0.255,-36.8398,48.378,57.4291,1007.86
292130,1.22908,-9.69392,1.0856,0.27,-0.557,0.535,-37.7167,49.3134,57.3268,1007.86
292136,1.21951,-9.6748,1.06169,-0.36,0.283,0.605,-37.2344,48.2611,56.596,1007.86
292142,1.24821,-9.6748,1.06648,1.25,-1.047,-1.285,-37.3367,47.925,57.663,1007.83
292148,1.20516,-9.70349,1.0856,0.2,-0.137,0.465,-37.2636,48.7288,56.2745,1007.83
292154,1.21473,-9.68436,1.08082,0.27,0.00299978,-0.305,-37.2198,48.8165,56.8591,1007.83
292160,1.21473,-9.71305,1.07604,0.83,-0.277,-1.215,-37.0444,49.1381,56.7568,1007.83
292166,1.22908,-9.65567,1.07604,0.2,0.773,-0.585,-37.1175,49.1819,56.3622,1007.82
292172,1.22908,-9.68436,1.10473,0.97,-0.487,-0.305,-36.6351,48.5534,55.4414,1007.82
292178,1.25299,-9.69871,1.09517,0.41,-0.277,-0.095,-37.2782,49.4304,56.2745,1007.82
292184,1.21473,-9.68914,1.1143,0.62,-0.557,-0.865,-37.6144,49.4596,56.8299,1007.82
292190,1.26255,-9.67958,1.08082,0.97,-0.137,0.465,-36.8398,49.0211,56.6107,1007.82
292196,1.22908,-9.66523,1.09995,0.62,0.563,-0.375,-37.4975,49.2111,57.0491,1007.82
292202,1.21951,-9.67958,1.08082,1.18,0.493,-0.305,-37.249,49.0504,57.6484,1007.82
292208,1.25777,-9.64132,1.06169,-0.57,0.423,0.115,-37.7898,48.6704,57.1222,1007.82
292214,1.20516,-9.67001,1.09517,0.69,-0.487,-0.375,-37.9213,48.9773,56.3183,1007.81
292220,1.24821,-9.69392,1.033,-0.0799999,0.073,-1.215,-37.9652,49.255,56.0553,1007.81
292226,1.21951,-9.67958,1.07604,0.97,0.073,-0.305,-37.7459,48.5096,56.8299,1007.81
292232,1.24342,-9.65088,1.09517,1.04,-0.277,-0.305,-38.1552,48.5827,57.0199,1007.84
292238,1.23386,-9.69871,1.1143,1.18,0.493,-1.145,-37.9652,48.2757,57.3268,1007.84
292244,1.23864,-9.65088,1.10952,0.41,0.423,-1.145,-38.0529,48.5973,57.2245,1007.83
292250,1.23386,-9.66045,1.10473,1.81,-0.487,-0.095,-38.0821,48.3342,57.1807,1007.83
292256,1.2769,-9.65567,1.08082,-0.0799999,0.073,-0.655,-37.3805,48.6411,57.2245,1007.82
292262,1.24342,-9.65088,1.10952,0.41,-0.487,-0.445,-38.2136,49.0796,56.026,1007.82
292268,1.22429,-9.62697,1.10473,0.48,0.423,0.115,-37.9067,49.2257,56.143,1007.82
292274,1.25299,-9.6461,1.1143,1.18,0.073,-0.585,-37.7459,47.9542,56.6983,1007.82
292280,1.24821,-9.6748,1.08082,0.2,0.633,0.115,-37.3221,48.6119,57.3853,1007.82
292286,1.26255,-9.65088,1.09995,-0.0799999,0.283,-0.515,-37.4244,47.8665,56.6983,1007.82
292292,1.25777,-9.66045,1.10473,1.04,-0.487,-0.095,-37.6144,48.3196,56.1722,1007.86
292298,1.24342,-9.64132,1.10952,0.41,-0.697,-0.445,-37.5705,48.4511,56.7568,1007.86
292304,1.25299,-9.65088,1.10473,1.18,-0.697,-1.355,-37.6728,48.6411,56.6399,1007.86
292310,1.24342,-9.64132,1.10473,0.27,0.073,1.375,-37.3367,48.2173,56.8153,1007.82
292316,1.25299,-9.64132,1.11908,-0.0799999,0.703,-0.025,-37.5121,48.5827,56.1283,1007.82
292322,1.23864,-9.66045,1.11908,-0.71,-0.137,-0.515,-37.439,48.5827,56.3768,1007.84
292328,1.24821,-9.6461,1.10473,0.55,-0.347,-0.795,-37.059,48.875,55.5876,1007.84
292334,1.27212,-9.65088,1.10952,0.2,-0.697,0.255,-37.9652,48.3634,56.713,1007.82
292340,1.23864,-9.66045,1.09039,0.97,-0.557,-1.565,-37.4828,48.5388,56.523,1007.82
292346,1.24342,-9.67958,1.08082,0.76,-0.697,-0.095,-37.5998,48.2465,55.953,1007.86
292352,1.22908,-9.69871,1.1143,-0.22,0.00299978,1.025,-37.3952,48.8019,56.8445,1007.86
292358,1.23386,-9.65088,1.10473,0.83,-0.137,-0.585,-37.2782,48.6996,57.5168,1007.82
292364,1.23386,-9.64132,1.10473,-0.57,0.073,0.605,-38.4036,48.875,56.3768,1007.82
292370,1.24342,-9.67001,1.09517,-1.13,0.423,-0.795,-37.8775,48.6704,56.2306,1007.8
292376,1.26734,-9.6461,1.10952,-0.15,-0.697,-0.655,-38.3744,49.0211,55.7922,1007.8
292382,1.23386,-9.69392,1.12386,-0.00999987,-0.137,0.045,-37.4828,48.495,57.1953,1007.82
292388,1.24342,-9.67001,1.10473,0.0600001,-0.137,-0.795,-37.8482,48.8165,56.3914,1007.82
292394,1.23864,-9.65088,1.10473,0.27,-0.347,-0.445,-37.0736,48.685,56.4791,1007.82
292400,1.23864,-9.67001,1.11908,0.0600001,-0.347,-1.145,-36.8105,49.4304,57.1076,1007.81
292406,1.25777,-9.6748,1.1143,0.69,-0.487,0.395,-36.869,49.1088,56.1722,1007.81
292412,1.24821,-9.65567,1.14778,-0.15,-0.347,0.255,-37.4244,48.3342,56.4791,1007.85
292418,1.25299,-9.67001,1.10473,-0.00999987,-0.557,-0.025,-36.8544,48.378,56.8153,1007.85
292424,1.27212,-9.66523,1.11908,-0.36,0.283,1.025,-37.4975,48.378,56.6545,1007.81
292430,1.25777,-9.67001,1.11908,0.69,-0.0670002,-0.585,-37.4828,47.998,55.9237,1007.81
292436,1.24821,-9.6748,1.1143,0.27,-1.047,-1.915,-37.059,48.6119,56.6253,1007.82
292442,1.25299,-9.68436,1.12865,-0.00999987,-0.347,0.395,-37.5413,48.115,57.7507,1007.82
292448,1.25777,-9.66045,1.13821,-0.78,0.633,0.255,-37.5852,47.7203,56.6545,1007.81
292454,1.25777,-9.64132,1.10473,0.2,0.213,-0.795,-36.4451,48.9627,57.1514,1007.81
292460,1.23864,-9.67958,1.13343,-1.13,-0.627,1.235,-36.3282,48.2465,56.9614,1007.79
292466,1.22908,-9.69392,1.11908,-0.22,-0.347,-0.025,-37.8775,47.925,56.6837,1007.79
292472,1.23864,-9.67958,1.10952,-0.15,-0.697,0.115,-37.4098,48.6411,57.4291,1007.84
292478,1.22908,-9.66523,1.12865,-0.15,0.213,0.955,-37.3805,49.2257,57.6191,1007.84
292484,1.27212,-9.6461,1.13343,-0.29,-0.347,0.465,-37.6144,48.2903,56.7568,1007.84
292490,1.25777,-9.66523,1.14299,0.83,-0.837,-1.635,-37.5705,48.9481,56.9907,1007.83
292496,1.25777,-9.66045,1.10952,-0.92,0.563,0.955,-37.3659,48.5534,56.9468,1007.83
292502,1.25299,-9.68914,1.10952,0.0600001,0.283,-0.795,-36.7521,47.9542,56.0699,1007.84
292508,1.24342,-9.67001,1.10952,0.2,0.423,-0.445,-36.8544,49.1381,56.5376,1007.84
292514,1.25299,-9.65088,1.13343,-0.0799999,-0.487,-1.145,-36.7228,48.875,55.8506,1007.82
292520,1.24342,-9.66523,1.13821,-0.78,0.423,0.535,-37.4244,48.5388,57.1953,1007.82
292526,1.24342,-9.6748,1.09517,0.0600001,0.423,0.465,-37.4098,48.6411,56.8299,1007.81
292532,1.26255,-9.68436,1.1143,0.41,-0.487,-0.515,-37.3805,48.6704,57.1807,1007.81
292538,1.24342,-9.6748,1.10952,-0.36,-0.557,0.325,-37.1467,48.6119,57.5168,1007.81
292544,1.23864,-9.67001,1.10952,-0.36,0.00299978,1.585,-36.869,49.4011,56.5083,1007.81
292550,1.22908,-9.65567,1.12386,0.2,-0.277,-0.305,-36.8836,48.7142,58.233,1007.82
292556,1.25299,-9.6748,1.10473,-0.36,0.073,-0.655,-37.8482,48.568,58.5399,1007.82
292562,1.23864,-9.65567,1.10952,0.41,-0.277,0.815,-37.3513,48.4073,56.7714,1007.82
292568,1.25299,-9.65567,1.13343,0.62,-0.137,-0.865,-37.3952,48.5388,56.523,1007.84
292574,1.25299,-9.6461,1.16691,0.0600001,0.073,0.255,-36.6351,48.7288,57.0053,1007.84
292580,1.25777,-9.66045,1.11908,-0.5,0.773,0.885,-37.9359,47.7788,58.043,1007.84
292586,1.23864,-9.66523,1.11908,-0.00999987,0.073,0.325,-37.8482,48.2903,57.356,1007.84
292592,1.23386,-9.66523,1.11908,-0.5,-0.487,-1.215,-37.4244,47.9542,57.7799,1007.84
292598,1.25299,-9.68914,1.1143,-0.00999987,0.633,0.535,-37.6582,48.0857,57.2537,1007.84
292604,1.23864,-9.65567,1.1143,-0.15,0.283,0.325,-37.5852,48.0419,56.903,1007.81
292610,1.25299,-9.66045,1.09995,0.62,-0.627,-0.515,-38.1405,47.808,56.0114,1007.81
292616,1.24821,-9.65088,1.14778,0.76,-0.347,0.465,-37.9944,48.6119,56.5083,1007.82
292622,1.24342,-9.65088,1.11908,-0.0799999,-0.277,-0.305,-37.8044,48.1734,55.646,1007.82
292628,1.24821,-9.65567,1.13343,0.27,0.213,0.325,-37.439,48.0857,55.7629,1007.86
292634,1.26255,-9.65088,1.11908,-0.5,-0.907,0.605,-37.2198,48.6119,56.9907,1007.86
292640,1.24342,-9.63175,1.12386,-0.85,1.053,0.745,-37.819,48.6119,56.5522,1007.86
292646,1.26255,-9.65567,1.10473,-0.99,-0.137,1.235,-37.6875,48.5242,56.6399,1007.86
292652,1.24342,-9.6748,1.13821,-0.43,0.703,0.185,-37.7021,48.875,57.3999,1007.86
292658,1.24821,-9.66523,1.12865,0.27,-0.837,-1.775,-38.0967,48.3488,56.3622,1007.83
292664,1.21951,-9.67958,1.12865,0.27,-0.487,0.885,-37.9798,48.6119,56.2599,1007.83
292670,1.25777,-9.69392,1.10473,0.76,0.703,-0.095,-37.9944,48.3927,56.143,1007.86
292676,1.25777,-9.66523,1.11908,-0.29,0.283,0.325,-37.9944,48.6119,56.6107,1007.86
292682,1.23864,-9.6461,1.10473,-0.99,0.493,1.025,-37.6875,48.7288,56.406,1007.82
292688,1.22908,-9.67001,1.09039,-0.99,0.633,-0.445,-37.3805,48.5388,56.786,1007.82
292694,1.22429,-9.70827,1.11908,-0.22,0.423,-0.445,-37.3805,48.1588,56.1283,1007.83
292700,1.24821,-9.69871,1.11908,-0.78,-0.207,0.255,-38.0382,48.378,56.9468,1007.83
292706,1.26255,-9.6461,1.12865,0.0600001,-0.0670002,-0.095,-37.9652,48.1588,56.9468,1007.84
292712,1.26255,-9.64132,1.15734,-0.0799999,0.213,-0.305,-37.3367,48.5827,57.6191,1007.84
292718,1.24342,-9.67001,1.11908,-1.34,0.563,0.535,-37.0736,49.1381,56.6399,1007.85
292724,1.23864,-9.67958,1.10952,0.0600001,0.073,0.465,-37.6728,48.2757,56.2745,1007.85
292730,1.24342,-9.6748,1.1143,-0.0799999,0.073,0.185,-37.4682,48.5242,55.646,1007.85
292736,1.24821,-9.66523,1.10952,-0.00999987,-0.347,1.025,-37.9067,49.1381,56.7714,1007.8
292742,1.24342,-9.67958,1.11908,-0.0799999,-0.487,-0.235,-37.4975,48.9627,56.1868,1007.8
292748,1.27212,-9.65088,1.12865,0.97,0.073,-0.445,-37.6728,48.2465,55.4268,1007.84
292754,1.25299,-9.70827,1.13343,0.97,-0.697,-0.235,-36.6936,48.0711,56.596,1007.84
292760,1.23386,-9.65567,1.11908,-0.5,-0.137,0.325,-37.7313,48.7873,56.6837,1007.84
292766,1.23386,-9.65567,1.13343,-0.29,0.073,0.815,-37.2051,48.2319,57.0491,1007.84
292772,1.24342,-9.69871,1.12386,0.97,-0.347,0.185,-36.9421,48.4073,56.8884,1007.84
292778,1.25777,-9.68436,1.1143,-0.5,0.073,0.465,-37.9359,48.305,55.953,1007.84
292784,1.25299,-9.67001,1.11908,-0.5,0.283,1.445,-37.2051,47.545,57.2245,1007.8
292790,1.24821,-9.66045,1.12865,-0.71,0.633,0.115,-37.0736,48.7288,56.6399,1007.8
292796,1.23386,-9.65567,1.13821,0.2,0.073,-1.355,-36.9567,48.2757,55.7483,1007.83
292802,1.24821,-9.6748,1.13343,0.48,-0.487,1.375,-37.6144,49.3427,57.2391,1007.83
292808,1.25299,-9.6748,1.1143,-0.15,-0.277,-1.005,-37.3513,47.8226,56.3476,1007.81
292814,1.25299,-9.67958,1.11908,0.41,-0.487,-0.235,-37.1759,48.3196,56.3914,1007.81
292820,1.24342,-9.64132,1.12865,0.83,0.283,0.045,-37.7752,48.9773,56.5083,1007.81
292826,1.23864,-9.66045,1.12386,0.41,-0.347,-1.285,-37.1028,48.6265,57.1368,1007.82
292832,1.24342,-9.66045,1.10473,-0.15,-0.487,0.675,-37.6728,48.305,57.0637,1007.82
292838,1.25299,-9.66045,1.1143,-1.27,-0.207,1.235,-36.869,47.8957,57.7507,1007.84
292844,1.24821,-9.6461,1.12865,0.83,-0.487,0.535,-37.2198,48.2903,57.1953,1007.84
292850,1.24821,-9.68914,1.11908,0.2,0.423,0.255,-37.8921,48.685,56.7568,1007.81
292856,1.25777,-9.67958,1.12865,-0.36,0.073,0.325,-37.249,48.115,57.3268,1007.81
292862,1.22429,-9.68436,1.1143,-0.36,0.213,0.535,-37.249,48.4073,56.8591,1007.86
292868,1.23864,-9.64132,1.12386,0.27,-0.277,0.465,-36.8105,48.5096,56.3476,1007.86
292874,1.24821,-9.65088,1.12865,-0.0799999,-0.277,-0.095,-36.7228,48.3196,57.7068,1007.81
292880,1.24821,-9.67958,1.14299,-0.0799999,0.073,0.185,-37.2782,48.1003,57.6045,1007.81
292886,1.25299,-9.65567,1.12386,-0.15,-0.557,0.465,-38.0529,48.9188,57.7507,1007.83
292892,1.24821,-9.68436,1.1143,0.76,-0.277,-0.235,-37.4828,48.6557,57.8091,1007.83
292898,1.26734,-9.67958,1.10952,-0.5,0.00299978,-0.585,-37.3952,48.685,57.6191,1007.83
292904,1.26255,-9.6748,1.1143,0.0600001,0.423,-0.235,-37.4098,47.925,57.6337,1007.83
292910,1.24821,-9.6748,1.12865,-0.36,0.773,1.025,-37.8482,48.2757,57.9114,1007.83
292916,1.24342,-9.67001,1.13821,0.13,0.073,-0.025,-37.4975,48.0857,57.6776,1007.83
292922,1.25777,-9.6461,1.14299,-0.0799999,0.353,0.885,-37.6436,47.8957,57.2537,1007.83
292928,1.25777,-9.66045,1.12865,-0.71,0.00299978,1.025,-38.0236,48.1734,57.5461,1007.84
292934,1.23386,-9.67958,1.12865,0.41,-0.277,-0.655,-37.6582,48.4219,58.0284,1007.84
292940,1.23864,-9.68436,1.12386,0.0600001,0.213,-0.235,-37.3805,48.5827,55.9676,1007.84
292946,1.24342,-9.65567,1.12386,-1.48,-0.347,0.885,-37.6875,48.5096,57.4437,1007.84
292952,1.24342,-9.66523,1.13343,-0.00999987,-1.047,0.185,-37.3952,48.6265,56.9614,1007.85
292958,1.24821,-9.65088,1.12865,-0.15,-0.697,0.815,-37.059,48.7142,57.853,1007.85
292964,1.24821,-9.66523,1.1143,0.41,-0.557,-0.795,-37.5413,48.2757,57.166,1007.82
292970,1.24821,-9.64132,1.12865,-0.00999987,0.703,-0.445,-37.0882,48.6704,57.2684,1007.82
292976,1.26734,-9.62219,1.1143,-0.36,-0.907,0.325,-38.2429,48.5827,57.6045,1007.8
292982,1.14778,-9.73697,1.14778,-0.29,-1.117,-0.235,-37.6728,49.4304,58.1453,1007.8
292988,1.30081,-9.72262,1.04735,0.13,-0.277,1.025,-37.1759,48.9919,56.2891,1007.8
292994,1.17647,-9.65567,1.15256,0.41,0.213,-0.375,-37.5559,48.4657,58.5984,1007.78
293000,1.29603,-9.66045,1.10473,-0.71,0.00299978,0.675,-37.1028,48.8457,56.3622,1007.78
293006,1.21473,-9.67001,1.13343,0.27,0.843,0.255,-37.5559,48.495,56.3914,1007.8
293012,1.23386,-9.65567,1.14299,-0.71,-0.0670002,0.325,-37.5852,48.2757,57.166,1007.8
293018,1.22908,-9.69392,1.12386,-0.00999987,0.283,-0.445,-37.5267,48.6119,57.1514,1007.79
293024,1.23864,-9.68914,1.09517,-0.5,-0.487,0.465,-37.7167,47.998,57.5168,1007.79
293030,1.23864,-9.66523,1.09039,-0.57,0.073,1.235,-37.9067,49.255,57.2391,1007.84
293036,1.22908,-9.69392,1.09995,0.48,-0.347,-1.005,-37.7605,48.378,58.0576,1007.84
293042,1.24821,-9.69871,1.09995,-0.5,0.423,0.325,-37.4975,48.2757,57.3414,1007.81
293048,1.22908,-9.65567,1.10473,0.55,0.073,1.165,-38.0236,48.5534,57.2684,1007.81
293054,1.23864,-9.6748,1.10952,-0.15,0.073,-0.585,-37.5559,48.9042,57.2391,1007.85
293060,1.23386,-9.68914,1.12386,0.2,0.00299978,-0.235,-37.439,48.4657,57.7068,1007.85
293066,1.24342,-9.66045,1.1143,0.41,-0.137,0.045,-37.8044,48.6557,57.1368,1007.85
293072,1.22908,-9.66523,1.11908,0.41,0.423,-0.025,-37.9067,48.9042,57.3707,1007.83
293078,1.25777,-9.67958,1.10952,0.0600001,0.283,0.605,-37.1467,48.6996,58.0284,1007.83
293084,1.24821,-9.6748,1.09039,0.0600001,0.633,0.115,-37.249,49.0211,56.9907,1007.86
293090,1.23386,-9.66045,1.1143,0.41,-0.487,-0.585,-37.5267,48.5827,56.713,1007.86
293096,1.24342,-9.66523,1.10952,-0.57,0.00299978,1.025,-37.1028,48.5973,57.7361,1007.84
293102,1.24821,-9.67958,1.09995,0.27,-1.117,-0.305,-37.0298,48.7434,57.2245,1007.84
293108,1.23386,-9.66045,1.09995,-0.29,0.073,0.675,-37.3513,48.3488,56.9322,1007.84
293114,1.21473,-9.66523,1.11908,0.2,-0.557,-0.095,-37.439,48.6996,56.8884,1007.84
293120,1.22429,-9.68436,1.1143,-0.64,0.563,-0.025,-38.2136,47.9542,57.2099,1007.85
293126,1.22908,-9.68914,1.09517,-0.00999987,-0.557,-0.725,-37.7605,48.3488,57.283,1007.85
293132,1.21473,-9.65567,1.10952,0.62,-0.557,-1.215,-37.9359,49.0211,56.6837,1007.86
293138,1.23864,-9.65567,1.12386,0.41,-0.347,-0.795,-37.2344,47.925,56.2014,1007.86
293144,1.24342,-9.68914,1.1143,0.2,0.283,0.885,-37.8775,48.2611,56.6983,1007.84
293150,1.23864,-9.67001,1.12865,0.41,-0.0670002,-0.095,-37.3513,48.5827,56.9614,1007.84
293156,1.24821,-9.66045,1.1143,-0.78,0.423,-0.095,-37.3952,48.2465,56.143,1007.84
293162,1.24821,-9.65088,1.11908,-0.29,0.073,0.115,-37.0298,48.6704,57.4876,1007.83
293168,1.24821,-9.65567,1.09995,-0.15,-0.347,-0.655,-38.1405,49.255,56.5668,1007.83
293174,1.22429,-9.66523,1.12386,0.83,-0.697,0.605,-37.1028,49.3427,56.8445,1007.83
293180,1.24342,-9.65088,1.1143,-0.5,-0.137,-0.095,-36.6644,48.305,56.7422,1007.83
293186,1.24821,-9.67001,1.09995,-0.29,0.633,0.605,-37.3659,48.7434,57.1222,1007.85
293192,1.24821,-9.68436,1.10952,-0.71,0.00299978,-0.445,-37.0151,48.4365,56.8591,1007.85
293198,1.23864,-9.66523,1.12865,0.41,-1.047,-0.585,-38.0236,48.875,57.7945,1007.85
293204,1.23864,-9.67001,1.11908,0.55,-0.137,-0.655,-37.439,48.495,56.4791,1007.85
293210,1.23386,-9.65567,1.1143,1.18,-0.277,-1.005,-37.4682,48.0711,56.7422,1007.83
293216,1.26255,-9.65567,1.09517,0.27,-1.327,-0.235,-37.439,48.9042,57.7653,1007.83
293222,1.24342,-9.66523,1.1143,0.41,-0.977,-0.095,-37.1905,48.4365,56.8445,1007.86
293228,1.23386,-9.67001,1.10952,-0.15,-0.0670002,1.025,-37.6728,49.3134,57.8237,1007.86
293234,1.24821,-9.67001,1.09995,0.27,-0.347,0.115,-36.9567,48.495,56.6545,1007.82
293240,1.26255,-9.6748,1.12386,-0.99,0.843,0.535,-37.3805,48.2757,56.5522,1007.82
293246,1.22429,-9.64132,1.10952,0.69,-0.0670002,0.675,-37.7021,48.6411,56.6253,1007.82
293252,1.22908,-9.6748,1.10473,0.27,0.143,0.045,-37.5705,49.1673,56.976,1007.82
293258,1.24821,-9.65567,1.09995,-0.15,0.843,-0.235,-37.4244,49.065,57.0199,1007.82
293264,1.22908,-9.66523,1.11908,0.2,0.423,0.675,-37.5267,48.4073,57.0491,1007.85
293270,1.23386,-9.67001,1.09039,-0.22,0.213,0.675,-37.6436,49.255,56.406,1007.85
293276,1.21951,-9.67001,1.10473,0.27,-0.347,-1.145,-37.439,48.5827,57.3707,1007.82
293282,1.21951,-9.68914,1.14778,0.0600001,0.493,-0.235,-37.9067,48.5534,57.6045,1007.82
293288,1.23864,-9.67958,1.12865,0.27,-0.487,1.795,-37.4975,48.1588,56.8445,1007.83
293294,1.25299,-9.66523,1.10473,0.62,0.773,-0.165,-37.8336,48.5827,57.3999,1007.83
293300,1.23864,-9.66523,1.10473,0.62,-0.557,-0.375,-37.3805,49.1381,56.0699,1007.82
293306,1.23864,-9.68436,1.11908,0.13,-0.347,0.885,-37.5413,49.2696,56.4207,1007.82
293312,1.24342,-9.67001,1.12386,-0.15,-0.277,-0.445,-36.8251,48.6119,56.4937,1007.85
293318,1.23864,-9.65567,1.11908,-0.36,0.283,-0.235,-37.4682,48.9773,57.6045,1007.85
293324,1.25299,-9.65088,1.11908,-0.78,-0.137,1.235,-37.9652,48.8457,57.3707,1007.85
293330,1.23386,-9.65567,1.10952,-0.0799999,0.423,0.255,-38.0967,49.0357,57.3707,1007.8
293336,1.25777,-9.6461,1.11908,-0.36,0.073,-0.235,-37.7313,48.7873,56.3914,1007.8
293342,1.22908,-9.65088,1.10473,0.76,-0.767,0.675,-37.7459,48.6119,57.2245,1007.85
293348,1.23864,-9.67958,1.11908,-0.22,0.073,1.165,-37.9798,48.6119,56.9468,1007.85
293354,1.24821,-9.67958,1.1143,-0.5,0.283,-0.725,-37.0298,49.255,57.1807,1007.82
293360,1.23864,-9.63654,1.11908,-0.57,-0.0670002,0.255,-37.3659,48.9627,57.6045,1007.82
293366,1.25299,-9.62697,1.13343,0.0600001,0.073,0.045,-37.3513,49.0211,57.1076,1007.87
293372,1.23864,-9.65567,1.13821,-0.5,0.073,0.115,-37.4682,49.4742,57.356,1007.87
293378,1.24821,-9.65567,1.13821,0.27,-0.697,0.815,-37.9944,48.3342,57.0491,1007.82
293384,1.24342,-9.65567,1.14778,-0.22,0.423,0.115,-37.7459,48.6119,57.5607,1007.82
293390,1.23386,-9.65088,1.11908,-0.78,-0.347,-0.585,-37.4828,48.3196,58.4084,1007.83
293396,1.23386,-9.66523,1.11908,-0.78,-0.697,-0.025,-37.3221,48.6411,57.0345,1007.83
293402,1.23386,-9.68436,1.1143,0.2,0.073,-0.095,-37.1467,48.6704,57.1807,1007.84
293408,1.22908,-9.68436,1.10952,0.62,-0.557,-1.355,-37.7313,48.115,57.7799,1007.84
293414,1.24342,-9.67001,1.11908,1.46,-0.697,0.045,-37.439,48.5827,57.5607,1007.84
293420,1.23864,-9.66523,1.09995,-0.29,-0.207,0.535,-37.439,48.378,58.0138,1007.82
293426,1.26734,-9.66523,1.13343,0.2,0.283,-1.005,-37.8044,48.2903,57.093,1007.82
293432,1.24342,-9.67958,1.10473,-0.71,0.213,-0.655,-37.0005,48.7873,58.043,1007.8
293438,1.23386,-9.70349,1.10473,0.13,0.633,0.255,-37.2198,48.3634,58.0284,1007.8
293444,1.23386,-9.67001,1.12865,-0.36,0.283,-1.075,-36.7521,49.0796,56.9468,1007.82
293450,1.23864,-9.66523,1.12865,0.0600001,-0.557,0.885,-37.0444,48.5973,56.8884,1007.82
293456,1.24821,-9.67958,1.12386,-0.0799999,0.073,1.305,-37.0151,48.568,57.7507,1007.81
293462,1.25299,-9.66523,1.14299,0.48,-0.277,-0.865,-36.9713,49.0942,56.8153,1007.81
293468,1.22908,-9.67001,1.1143,0.0600001,-0.277,0.325,-37.6728,48.1442,56.0553,1007.82
293474,1.22908,-9.69392,1.10952,0.97,-0.277,-0.655,-37.4975,48.4657,58.2184,1007.82
293480,1.21951,-9.69871,1.11908,0.69,-1.117,-0.515,-37.5705,49.0942,56.8591,1007.84
293486,1.22429,-9.67001,1.10473,1.18,-1.117,0.675,-38.4767,48.6996,57.093,1007.84
293492,1.24342,-9.65088,1.15256,0.2,-1.257,-0.235,-37.7313,48.758,56.8737,1007.84
293498,1.26734,-9.65088,1.12865,-0.22,0.00299978,-1.355,-37.2344,48.9042,57.663,1007.83
293504,1.24821,-9.66045,1.1143,-0.0799999,-0.137,0.745,-38.0236,49.2257,56.8445,1007.83
293510,1.23864,-9.66523,1.11908,0.0600001,-0.277,-1.145,-37.5559,48.758,56.5522,1007.86
293516,1.25777,-9.66045,1.13343,-0.15,-0.347,-1.005,-37.5852,48.9042,57.5314,1007.86
293522,1.26255,-9.6748,1.14299,0.0600001,-0.347,0.815,-37.0444,48.3927,56.5376,1007.85
293528,1.23386,-9.66523,1.12386,-0.15,0.213,0.885,-37.3513,49.1673,56.9176,1007.85
293534,1.24342,-9.66523,1.09995,-0.78,-0.487,-1.005,-37.2344,48.4657,55.8799,1007.84
293540,1.20038,-9.65567,1.11908,0.27,-0.277,0.605,-37.9359,48.3634,56.4499,1007.84
293546,1.24342,-9.65567,1.10473,-0.22,-0.837,-0.095,-37.6582,48.9188,56.6983,1007.83
293552,1.25299,-9.68436,1.14778,-1.06,0.423,0.675,-38.1405,49.0211,57.3999,1007.83
293558,1.23864,-9.67001,1.13821,-0.78,-0.137,-0.235,-37.6728,48.6704,56.8737,1007.85
293564,1.23386,-9.67001,1.13821,-0.36,0.073,1.235,-37.9652,48.0565,56.976,1007.85
293570,1.24821,-9.66045,1.11908,-0.36,0.843,0.815,-37.9944,48.9627,57.3999,1007.82
293576,1.25777,-9.67001,1.12386,0.0600001,-0.347,-1.005,-37.2051,49.0504,57.1807,1007.82
293582,1.23864,-9.6748,1.12865,-0.78,0.073,0.675,-38.0529,47.8226,57.1514,1007.82
293588,1.26734,-9.67001,1.11908,-1.27,0.493,1.795,-37.2782,49.0211,57.166,1007.82
293594,1.25299,-9.69871,1.1143,0.2,0.073,0.815,-37.3513,48.0126,57.1514,1007.82
293600,1.23386,-9.70349,1.1143,-0.15,-0.0670002,-0.655,-37.1321,48.0126,56.0845,1007.82
293606,1.23386,-9.68914,1.13343,-0.57,0.00299978,0.115,-37.6144,48.3342,57.3122,1007.82
293612,1.26255,-9.65567,1.14299,0.76,1.053,-0.025,-37.0151,48.7142,57.7068,1007.82
293618,1.22908,-9.6461,1.12386,-0.57,-0.137,0.885,-37.8775,48.8019,56.7568,1007.82
293624,1.26255,-9.67001,1.14299,0.69,-0.697,-1.705,-37.8044,48.115,57.9699,1007.82
293630,1.24342,-9.67001,1.13343,-0.43,0.423,0.675,-37.2782,48.568,57.5314,1007.82
293636,1.24342,-9.65567,1.10952,0.0600001,-0.767,-0.095,-36.8836,48.495,56.7714,1007.86
293642,1.22908,-9.68436,1.1143,-0.15,-0.137,-1.145,-37.6436,48.9627,56.6107,1007.86
293648,1.24821,-9.68436,1.10952,0.76,0.563,0.115,-37.5413,47.8373,57.0784,1007.85
293654,1.25777,-9.67001,1.12386,0.2,0.563,-1.145,-37.3805,48.5242,57.1953,1007.85
293660,1.24342,-9.6748,1.09995,-1.27,0.423,-0.445,-37.3513,48.875,57.7068,1007.84
293666,1.24821,-9.66045,1.10473,0.97,-0.907,0.675,-37.2928,48.0857,56.6691,1007.84
293672,1.21951,-9.67958,1.1143,-0.85,0.00299978,0.465,-37.8775,48.7288,57.7361,1007.84
293678,1.22908,-9.70349,1.09995,-0.0799999,0.773,-0.375,-36.9275,48.2465,57.8091,1007.83
293684,1.22908,-9.68436,1.09995,-0.36,-0.137,-0.235,-37.4682,48.1734,57.3122,1007.83
293690,1.22429,-9.6748,1.12386,0.0600001,1.333,1.935,-37.9359,48.9042,56.7422,1007.82
293696,1.24342,-9.63175,1.13821,-0.85,0.073,-0.795,-37.0736,49.255,57.2976,1007.82
293702,1.24342,-9.63175,1.1143,0.48,0.073,0.465,-37.3221,48.7288,56.6837,1007.83
293708,1.24821,-9.69392,1.09517,-1.13,0.423,1.305,-37.1467,48.5242,57.3268,1007.83
293714,1.22908,-9.67001,1.12386,0.27,0.423,-0.795,-36.7959,48.8165,57.5607,1007.83
293720,1.22429,-9.69392,1.12865,0.2,0.283,-0.305,-36.9128,48.8457,57.0199,1007.83
293726,1.24821,-9.71305,1.06648,-0.36,0.633,0.815,-36.4744,48.6996,56.8153,1007.82
293732,1.23864,-9.68914,1.09039,0.2,0.283,-0.025,-37.2782,47.6034,56.4791,1007.82
293738,1.24342,-9.65088,1.11908,-0.36,0.213,0.815,-36.9567,48.5242,57.1807,1007.82
293744,1.24821,-9.65567,1.12865,0.55,-0.137,-0.655,-36.9567,47.9542,56.9614,1007.82
293750,1.23864,-9.67001,1.10952,-0.78,0.423,-0.375,-37.1175,49.0065,57.356,1007.82
293756,1.24821,-9.67001,1.10952,0.48,1.193,0.605,-37.1613,48.5534,56.6983,1007.83
293762,1.22908,-9.67958,1.09995,0.83,-0.487,-0.235,-38.199,48.6704,58.1453,1007.83
293768,1.22429,-9.71305,1.10952,0.0600001,-0.487,-0.795,-37.3513,48.495,57.3122,1007.83
293774,1.22908,-9.66523,1.1143,0.0600001,0.00299978,-0.795,-38.0529,48.5827,56.6837,1007.83
293780,1.25777,-9.61262,1.13343,-0.15,0.213,0.045,-37.7313,49.5473,56.3914,1007.82
293786,1.24821,-9.62219,1.15256,-0.15,0.213,-0.655,-37.3221,48.5534,56.333,1007.82
293792,1.23386,-9.67958,1.10952,0.27,0.00299978,-0.585,-36.5328,48.9042,56.786,1007.82
293798,1.24342,-9.69871,1.09039,0.27,-0.487,-0.095,-37.7313,48.2757,57.2976,1007.82
293804,1.23386,-9.67001,1.10473,0.48,0.423,-0.375,-37.7313,49.2257,56.9907,1007.82
293810,1.22908,-9.66045,1.0856,-0.15,-0.137,-1.145,-37.9944,48.1588,56.903,1007.82
293816,1.23386,-9.72262,1.09039,0.76,0.633,0.605,-37.6144,49.0504,57.0053,1007.86
293822,1.24821,-9.71305,1.08082,0.27,0.983,-1.285,-37.6436,49.5327,56.6545,1007.86
293828,1.21951,-9.68436,1.11908,0.48,-0.137,1.235,-37.9067,48.7873,56.7422,1007.83
293834,1.26255,-9.64132,1.1143,0.27,0.633,0.885,-38.1552,49.2842,57.5022,1007.83
293840,1.24821,-9.63175,1.09995,-0.22,0.913,-1.145,-37.5413,48.9481,56.8884,1007.83
293846,1.25299,-9.68436,1.0856,-0.5,0.563,-0.445,-37.819,49.0796,56.6545,1007.85
293852,1.24342,-9.68914,1.09995,0.83,-0.0670002,1.095,-37.3952,48.6265,57.6191,1007.85
293858,1.28168,-9.66045,1.11908,0.62,0.563,-1.005,-38.2721,48.495,57.9553,1007.84
293864,1.24342,-9.62697,1.12865,0.2,0.633,0.255,-37.2782,48.8019,57.8968,1007.84
293870,1.21473,-9.63175,1.12386,-0.0799999,-0.207,0.535,-38.0236,48.8165,57.283,1007.82
293876,1.24821,-9.66045,1.1143,0.2,-0.347,-0.235,-37.439,48.7288,57.4584,1007.82
293882,1.25299,-9.65088,1.10952,0.41,0.073,-0.655,-37.5267,48.8165,57.9261,1007.84
293888,1.25299,-9.65567,1.1143,-0.29,0.283,-0.025,-37.819,48.5534,56.786,1007.84
293894,1.25777,-9.65567,1.12386,-0.92,-0.207,-1.005,-37.439,48.758,56.7714,1007.82
293900,1.26734,-9.65567,1.14778,0.69,-0.137,0.115,-37.1175,48.0273,57.0345,1007.82
293906,1.25299,-9.65088,1.1143,0.83,-0.487,-0.445,-37.1467,48.2319,56.523,1007.83
293912,1.23864,-9.67001,1.14778,-0.36,0.563,-1.285,-37.3805,48.2319,56.2014,1007.83
293918,1.25299,-9.65088,1.11908,0.27,-0.0670002,-0.445,-36.8544,48.0273,57.6922,1007.83
293924,1.23864,-9.65088,1.12865,0.62,0.073,0.675,-37.1905,48.2027,56.6837,1007.84
293930,1.27212,-9.65088,1.12865,0.9,-1.117,-1.005,-37.8482,48.4365,56.2599,1007.84
293936,1.23864,-9.66045,1.15256,0.48,-0.277,1.025,-37.3221,49.065,56.976,1007.85
293942,1.24342,-9.64132,1.10952,-0.92,0.423,0.465,-37.8482,49.4011,56.406,1007.85
293948,1.25777,-9.67958,1.12386,-0.5,0.283,-0.585,-37.9944,48.1734,57.1368,1007.83
293954,1.2769,-9.6461,1.12865,-0.22,-0.697,0.465,-38.4621,48.6704,56.6253,1007.83
293960,1.24342,-9.65088,1.10952,-0.71,-0.277,-0.585,-37.4098,48.7288,55.6168,1007.81
293966,1.26734,-9.67001,1.11908,-0.43,-0.0670002,0.325,-37.1028,48.3342,57.1368,1007.81
293972,1.24821,-9.65567,1.12865,-0.0799999,1.053,-0.235,-37.439,48.4657,55.6314,1007.85
293978,1.28647,-9.63654,1.12865,-0.78,0.283,-0.935,-38.1844,48.9919,56.7422,1007.85
293984,1.26734,-9.6461,1.12386,-1.27,-0.627,-0.095,-38.0529,48.4073,56.3622,1007.79
293990,1.23864,-9.65567,1.10473,0.0600001,-0.347,1.305,-38.0236,48.6119,57.3707,1007.79
293996,1.24821,-9.63654,1.10473,-0.36,0.423,-0.165,-37.5852,49.3427,57.3853,1007.84
294002,1.22429,-9.66523,1.09995,-0.5,0.213,1.655,-37.9067,48.6411,56.6107,1007.84
294008,1.24821,-9.66045,1.10473,0.0600001,-0.0670002,1.025,-37.8775,47.925,56.8299,1007.84
294014,1.2769,-9.65088,1.1143,-0.92,-0.347,0.535,-37.4682,48.758,57.5899,1007.82
294020,1.25299,-9.6461,1.09517,-0.78,0.073,0.115,-37.7313,48.6704,56.333,1007.82
294026,1.25299,-9.65567,1.1143,-1.69,0.213,1.445,-37.6582,49.0942,57.6776,1007.84
294032,1.24342,-9.67001,1.09995,-0.00999987,0.00299978,0.115,-38.1113,49.5765,57.0491,1007.84
294038,1.22908,-9.65088,1.10952,-1.13,0.073,0.325,-37.3221,49.0211,57.1807,1007.82
294044,1.23386,-9.67001,1.10473,-0.71,-0.137,2.075,-37.7898,48.6119,56.713,1007.82
294050,1.23386,-9.68914,1.07126,-1.48,0.283,0.535,-37.5559,48.9042,57.9261,1007.87
294056,1.24821,-9.68436,1.05691,-0.29,0.073,-0.095,-36.8544,48.4657,57.1514,1007.87
294062,1.21951,-9.66045,1.09995,-1.13,-0.207,2.215,-37.4682,48.7873,56.9468,1007.85
294068,1.22429,-9.68436,1.07604,-0.36,-0.347,-0.445,-37.7313,48.9042,57.8237,1007.85
294074,1.22429,-9.74175,1.04735,-0.36,-0.907,0.185,-37.5998,48.2319,57.5461,1007.83
294080,1.23864,-9.71784,1.033,-0.92,0.773,2.845,-37.9067,49.3573,56.6691,1007.83
294086,1.21951,-9.66045,1.0856,0.41,-0.347,-0.795,-37.629,48.4073,56.9322,1007.83
294092,1.24342,-9.65567,1.09517,0.27,-0.277,-0.795,-37.9798,48.2319,57.6045,1007.84
294098,1.22429,-9.69871,1.09039,-0.71,-0.697,1.725,-37.8482,48.6411,56.5814,1007.84
294104,1.22429,-9.68914,1.06169,-1.06,-0.137,0.045,-38.1405,48.5242,56.6399,1007.83
294110,1.20516,-9.68436,1.04735,-0.22,-0.347,0.115,-37.6436,48.6704,57.093,1007.83
294116,1.23386,-9.69392,1.06169,-0.15,-0.347,1.585,-37.0151,48.6119,57.0637,1007.83
294122,1.22429,-9.68436,1.06648,-0.85,-0.137,1.445,-37.5413,48.3488,58.2768,1007.83
294128,1.25299,-9.66523,1.07604,0.41,-0.487,-2.335,-38.2429,48.378,57.0345,1007.83
294134,1.20038,-9.67958,1.08082,-1.41,-0.557,0.885,-37.5705,48.2757,56.5668,1007.83
294140,1.23386,-9.67958,1.06648,0.27,-0.487,0.115,-37.3952,48.8165,56.6983,1007.83
294146,1.23864,-9.67001,1.08082,-0.43,0.633,0.185,-37.5705,49.255,57.9845,1007.83
294152,1.22429,-9.6748,1.04735,-0.22,-0.207,1.725,-37.6728,48.7873,56.5083,1007.85
294158,1.21951,-9.67958,1.04256,-0.29,-0.277,0.675,-37.0882,49.0211,57.9845,1007.85
294164,1.23386,-9.6748,1.07126,-0.29,-0.487,-1.005,-37.2344,49.5619,57.3122,1007.85
294170,1.24821,-9.67958,1.08082,0.48,0.633,0.745,-37.7021,48.5827,58.4815,1007.85
294176,1.22429,-9.67001,1.06169,0.13,-0.697,-1.145,-37.5267,48.6996,56.9176,1007.85
294182,1.23386,-9.67001,1.06169,-0.29,0.913,0.675,-37.4975,49.1965,56.8737,1007.85
294188,1.22908,-9.66045,1.05213,-0.57,-0.697,0.325,-37.9944,48.378,57.5168,1007.85
294194,1.22429,-9.69392,1.02343,0.0600001,0.213,1.095,-37.4828,49.1088,58.1161,1007.82
294200,1.21473,-9.68436,1.04735,-0.15,0.423,0.185,-37.7167,49.0357,57.0784,1007.82
294206,1.21951,-9.68436,1.04735,0.2,0.073,0.885,-37.4828,48.188,56.596,1007.81
294212,1.21473,-9.69392,1.06648,-0.71,0.283,-0.585,-38.0821,49.255,57.4291,1007.81
294218,1.24342,-9.66523,1.07604,0.0600001,-1.047,0.115,-36.9713,48.7873,57.1076,1007.86
294224,1.23386,-9.67001,1.10473,0.62,-0.767,0.745,-37.9359,48.5242,56.8007,1007.86
294230,1.21473,-9.67958,1.07126,0.27,-0.0670002,0.465,-37.7167,49.0357,56.1576,1007.87
294236,1.20038,-9.70827,1.07126,-0.5,0.073,-0.585,-37.2782,48.5534,57.0637,1007.87
294242,1.20516,-9.73218,1.04735,0.55,-0.487,0.395,-36.9859,48.875,56.1722,1007.87
294248,1.21951,-9.71305,1.03778,0.0600001,-0.0670002,-0.025,-37.9944,48.1588,57.2684,1007.87
294254,1.22908,-9.6748,1.07604,0.27,0.773,-0.095,-37.5852,49.3427,57.3122,1007.81
294260,1.26255,-9.67001,1.0856,1.18,-0.767,-0.585,-37.5559,48.495,57.1807,1007.81
294266,1.21473,-9.66045,1.07126,-0.15,-0.487,-1.005,-37.1613,49.0504,57.3707,1007.81
294272,1.23864,-9.66523,1.07604,-0.15,1.123,0.535,-37.249,49.2257,56.3768,1007.82
294278,1.22908,-9.70349,1.08082,0.62,-0.347,-1.145,-36.5328,48.6411,57.166,1007.82
294284,1.23386,-9.67958,1.08082,-0.15,-0.137,-0.095,-37.1175,49.5034,55.953,1007.83
294290,1.1956,-9.66045,1.0856,0.0600001,0.633,0.465,-37.1321,49.3134,56.3768,1007.83
294296,1.21473,-9.68914,1.0856,0.2,0.283,0.675,-37.5267,49.8834,57.663,1007.83
294302,1.21951,-9.67001,1.09517,-0.15,0.283,-0.655,-36.9713,48.9042,57.093,1007.83
294308,1.23386,-9.66523,1.09995,0.0600001,0.213,0.465,-37.439,48.2757,57.4437,1007.8
294314,1.23864,-9.67001,1.08082,0.41,-0.137,-1.355,-37.8336,49.065,57.0345,1007.8
294320,1.23864,-9.66045,1.08082,0.2,0.563,-0.235,-37.6144,49.1965,57.8384,1007.81
294326,1.24342,-9.6461,1.09039,-0.43,-0.347,0.955,-37.1321,49.4596,56.8007,1007.81
294332,1.20995,-9.70349,1.09517,-0.71,-0.557,-0.585,-37.1613,48.758,57.2391,1007.84
294338,1.21951,-9.70349,1.07126,0.83,-0.0670002,-0.865,-36.8982,48.9627,56.8299,1007.84
294344,1.21951,-9.65567,1.09039,0.27,-0.277,0.255,-37.6144,49.3427,56.7568,1007.84
294350,1.22429,-9.68436,1.07126,-0.00999987,0.143,-0.865,-37.249,49.0211,58.1745,1007.84
294356,1.23864,-9.66523,1.09995,-0.00999987,0.073,1.025,-36.6936,48.5242,57.356,1007.84
294362,1.22908,-9.6461,1.10952,-1.27,0.213,0.675,-37.629,49.1819,57.2099,1007.83
294368,1.23386,-9.67001,1.09995,0.2,-0.907,-1.005,-37.1613,48.9042,56.7714,1007.83
294374,1.20995,-9.67001,1.09517,0.0600001,0.073,-0.025,-37.439,49.3719,58.5399,1007.83
294380,1.21473,-9.6461,1.09039,-0.36,0.773,0.185,-37.7021,48.6704,57.0784,1007.83
294386,1.21473,-9.65567,1.09039,-0.92,0.633,1.725,-37.4098,49.5473,57.2684,1007.85
294392,1.21473,-9.6748,1.07604,-0.29,-0.347,-0.235,-36.9567,48.6265,57.1076,1007.85
294398,1.23386,-9.6748,1.09039,0.0600001,-0.487,-0.585,-37.7167,48.758,55.836,1007.83
294404,1.22429,-9.65567,1.08082,0.13,-0.487,0.255,-37.4244,48.9042,56.786,1007.83
294410,1.22908,-9.66045,1.09039,-0.99,-0.137,1.095,-37.1613,48.7142,57.2391,1007.82
294416,1.21951,-9.72262,1.08082,-0.57,-0.347,-0.585,-37.1175,48.5827,57.3999,1007.82
294422,1.22908,-9.71784,1.05691,-0.15,-0.277,1.235,-37.6436,48.3488,56.5522,1007.83
294428,1.21951,-9.68914,1.10473,0.62,0.353,0.325,-37.1759,48.2611,56.9614,1007.83
294434,1.22908,-9.6748,1.09995,0.55,-0.697,-1.215,-37.1467,48.9042,56.3768,1007.83
294440,1.20516,-9.67001,1.08082,0.69,-0.487,2.145,-37.6728,48.5827,57.853,1007.83
294446,1.21473,-9.67958,1.09517,0.55,-1.047,1.585,-37.4536,48.8019,56.333,1007.83
294452,1.21951,-9.60784,1.12865,0.2,-0.487,0.745,-37.9944,48.378,57.473,1007.82
294458,1.20038,-9.66045,1.1143,-0.00999987,-0.487,2.215,-36.7521,48.7873,57.356,1007.82
294464,1.22908,-9.68436,1.0856,-0.71,0.00299978,1.165,-37.1759,49.0942,57.283,1007.8
294470,1.23864,-9.63654,1.0856,0.2,-0.837,-0.095,-37.5559,49.5765,57.5168,1007.8
294476,1.22908,-9.69871,1.04256,0.13,-1.607,0.605,-37.9067,49.1381,57.0345,1007.79
294482,1.20995,-9.76088,1.01387,1.04,-1.187,1.235,-37.4975,48.8165,56.9614,1007.79
294488,1.1956,-9.67001,1.10952,-0.22,0.00299978,0.745,-37.0151,48.9627,56.3914,1007.85
294494,1.20038,-9.72262,1.06169,0.62,-0.697,0.885,-37.3221,48.2027,57.7507,1007.85
294500,1.18125,-9.79914,1.01387,0.2,0.143,0.115,-37.3513,48.4365,57.5607,1007.84
294506,1.11908,-9.82783,1.01865,0.41,0.283,-0.935,-37.7021,48.4365,57.4145,1007.84
294512,1.13343,-9.82783,1.033,1.95,-1.677,-1.005,-37.2928,48.0857,56.6253,1007.84
294518,1.24342,-9.65088,1.05691,2.23,-1.397,0.045,-37.2198,48.7288,55.9237,1007.85
294524,1.17647,-9.59828,1.15734,1.39,-1.117,-1.285,-37.3513,48.5534,57.8384,1007.85
294530,1.21473,-9.59828,1.12386,1.25,-0.697,-0.235,-37.1028,48.7873,58.1307,1007.85
294536,1.18125,-9.68914,1.08082,1.6,0.143,0.675,-37.5852,48.3488,57.0053,1007.85
294542,1.19082,-9.74653,1.05691,1.53,-0.907,-0.935,-36.8398,48.4219,56.8299,1007.81
294548,1.20995,-9.75131,1.03778,1.04,-0.767,0.465,-37.3952,48.758,57.8384,1007.81
294554,1.21951,-9.64132,1.09517,0.83,-1.397,-0.655,-36.9713,48.5534,57.5314,1007.84
294560,1.24821,-9.55523,1.14778,1.6,-1.117,0.675,-37.5413,48.8019,56.2306,1007.84
294566,1.25299,-9.54567,1.17647,0.83,0.213,0.325,-37.6875,48.9042,56.2891,1007.84
294572,1.28168,-9.55045,1.16691,1.04,-0.977,0.045,-37.4682,49.2404,57.356,1007.84
294578,1.29125,-9.60306,1.13343,1.39,-0.907,-1.005,-37.629,48.6704,56.7422,1007.84
294584,1.26734,-9.63654,1.10473,0.2,-0.347,0.115,-37.8044,49.8396,56.786,1007.84
294590,1.26734,-9.57436,1.12865,-0.29,-0.487,-0.445,-36.8398,48.9334,57.1953,1007.82
294596,1.25777,-9.61741,1.14778,-1.34,-0.697,0.325,-36.8544,49.1965,57.8676,1007.82
294602,1.21951,-9.65088,1.10952,0.0600001,0.563,-0.725,-37.3659,48.188,57.0784,1007.82
294608,1.21473,-9.62697,1.09995,-1.06,1.403,0.675,-37.7605,49.0504,56.7568,1007.83
294614,1.20995,-9.67001,1.13821,-0.5,0.143,1.025,-37.1321,49.255,57.356,1007.83
294620,1.24821,-9.6461,1.14778,-0.5,0.703,-0.095,-37.2198,48.495,56.8007,1007.84
294626,1.20995,-9.60306,1.16212,-1.55,-0.207,0.815,-37.8336,48.3196,56.2745,1007.84
294632,1.26255,-9.60306,1.12386,-2.04,0.843,0.115,-37.0736,48.5242,57.1222,1007.83
294638,1.21951,-9.65088,1.10952,-0.85,0.493,0.535,-37.0444,49.0211,57.2099,1007.83
294644,1.22429,-9.65088,1.10952,-2.11,0.773,-0.095,-36.5474,49.1381,57.6484,1007.82
294650,1.18604,-9.66045,1.10473,-1.13,0.283,0.115,-36.6351,48.9042,56.713,1007.82
294656,1.19082,-9.61741,1.17169,-2.11,1.543,0.745,-37.2636,49.3134,57.7507,1007.85
294662,1.22429,-9.61262,1.11908,-1.55,0.983,-0.375,-37.3659,48.3634,56.5668,1007.85
294668,1.18125,-9.67001,1.1143,-2.46,0.633,0.885,-37.4098,48.6411,57.663,1007.86
294674,1.20995,-9.69392,1.0856,-1.69,0.983,0.535,-37.5559,47.925,57.7945,1007.86
294680,1.1956,-9.66045,1.0856,-2.18,1.263,-0.865,-37.2782,48.9919,56.786,1007.86
294686,1.22908,-9.68436,1.07604,-1.27,0.843,-0.865,-37.7459,48.8019,58.4522,1007.83
294692,1.20516,-9.66045,1.06648,-1.55,0.00299978,0.675,-36.9713,48.8165,58.3353,1007.83
294698,1.20516,-9.65567,1.06648,-1.48,1.053,-0.725,-37.7313,48.875,57.0784,1007.82
294704,1.21473,-9.65567,1.06169,-1.55,0.983,1.235,-37.0298,48.2903,56.7714,1007.82
294710,1.20038,-9.68914,1.03778,-1.62,0.983,0.115,-37.7459,49.2988,56.8299,1007.87
294716,1.13821,-9.72262,1.04735,-1.48,0.983,-1.285,-37.7313,48.8457,56.6107,1007.87
294722,1.15734,-9.73697,0.999522,-0.85,0.213,-0.235,-37.1905,48.4657,56.0991,1007.82
294728,1.4682,-9.52176,1.09995,-0.99,1.193,-0.445,-37.2198,48.3342,56.9176,1007.82
294734,0.95648,-9.48828,1.28647,-2.32,0.983,-0.445,-36.8398,48.6411,57.4584,1007.83
294740,1.53993,-9.62219,0.946915,-1.34,1.753,-0.305,-37.1905,48.9042,57.6776,1007.83
294746,1.02822,-9.56958,1.20995,-2.25,0.633,-0.025,-37.8482,48.1296,56.9468,1007.8
294752,1.41559,-9.56958,1.03778,-3.23,0.283,-0.235,-37.4098,47.808,57.5899,1007.8
294758,1.1143,-9.66045,1.08082,-3.44,0.633,0.465,-37.1175,48.9334,57.8968,1007.85
294764,1.31516,-9.58871,1.05691,-1.9,1.263,-0.585,-37.5998,48.495,57.3122,1007.85
294770,1.20038,-9.66045,1.07126,-2.25,1.193,0.465,-36.8544,48.3196,56.523,1007.85
294776,1.20038,-9.66045,1.05691,-3.37,1.543,-0.025,-37.1905,48.6996,57.8676,1007.81
294782,1.19082,-9.7274,1.02822,-1.55,0.633,-1.145,-36.9859,48.9334,57.3122,1007.81
294788,1.16212,-9.81349,1.01387,-2.46,0.843,-0.165,-37.3513,48.9334,58.0722,1007.82
294794,1.16691,-9.87087,0.970827,-1.97,0.633,0.325,-37.5559,49.4742,57.5607,1007.82
294800,1.19082,-9.82305,1.00909,-0.36,0.423,-0.375,-37.2782,48.9042,57.4876,1007.82
294806,1.21473,-9.78479,1.033,-0.00999987,-0.277,-0.235,-36.8544,47.7934,56.0991,1007.82
294812,1.22429,-9.8374,0.985174,-0.85,-0.277,-0.795,-37.5267,49.1088,57.853,1007.84
294818,1.17169,-9.88044,0.999522,0.41,0.073,-1.355,-37.1905,48.9773,57.4291,1007.84
294824,1.21473,-9.79436,0.994739,1.39,-0.767,-3.805,-37.4975,48.5534,58.0138,1007.84
294830,1.19082,-9.69871,1.03778,0.83,0.00299978,-0.795,-37.3659,48.378,56.9614,1007.84
294836,1.19082,-9.65088,1.06648,1.18,0.983,-2.825,-36.6351,48.7873,58.1161,1007.84
294842,1.23864,-9.6748,1.05691,0.97,0.283,-2.335,-37.5852,49.1088,57.6191,1007.84
294848,1.2769,-9.61262,1.07126,0.48,1.193,-0.235,-37.5998,49.2696,57.5022,1007.79
294854,1.23386,-9.65567,1.06169,0.48,-0.277,-1.565,-37.439,48.188,56.9176,1007.79
294860,1.22908,-9.7561,1.033,-0.15,-0.207,-1.775,-37.0151,48.188,57.3707,1007.79
294866,1.26255,-9.81349,0.980392,1.95,-0.277,-1.005,-37.2344,48.6996,57.093,1007.86
294872,1.22908,-9.77044,0.989957,0.41,-0.137,-1.005,-37.2198,48.8457,58.1891,1007.86
294878,1.22429,-9.77044,1.04256,1.32,-0.0670002,-0.655,-37.1613,48.495,58.1014,1007.8
294884,1.24821,-9.73218,1.08082,1.25,-0.907,-0.095,-37.2928,49.2696,58.0722,1007.8
294890,1.20995,-9.74175,1.02822,1.39,-0.697,-1.705,-38.3159,48.2757,57.356,1007.83
294896,1.19082,-9.90435,0.97561,1.25,-0.347,-1.915,-37.7459,48.5242,58.233,1007.83
294902,1.17647,-9.88044,0.989957,3.28,-1.257,-0.095,-37.2928,48.378,57.9407,1007.82
294908,1.23864,-9.7561,1.04735,1.81,-0.347,-0.025,-37.6436,48.2903,57.1953,1007.82
294914,1.22908,-9.66045,1.06648,1.95,-0.767,-0.865,-37.0005,48.7873,57.8384,1007.8
294920,1.27212,-9.72262,1.00909,1.74,0.213,-0.375,-37.3805,48.5534,56.5668,1007.8
294926,1.21951,-9.78957,0.999522,2.23,-0.907,-0.305,-37.7459,48.5242,57.473,1007.82
294932,1.21951,-9.73697,0.994739,2.37,-0.627,-0.235,-36.9713,48.4657,57.3268,1007.82
294938,1.2769,-9.69392,1.08082,3.28,-0.137,-1.425,-37.1028,48.6265,56.333,1007.82
294944,1.26255,-9.57915,1.12386,2.58,-0.277,-0.935,-37.9067,48.6265,56.4499,1007.81
294950,1.28647,-9.77044,1.01387,3.14,0.423,-1.005,-37.8482,48.5827,56.8153,1007.81
294956,1.27212,-9.71305,1.04735,3.77,-0.277,-0.865,-37.4682,48.4657,57.3268,1007.81
294962,1.25299,-9.58393,1.14778,2.51,-0.137,-0.095,-36.9713,48.3196,56.216,1007.81
294968,1.16212,-9.84696,1.0856,3.49,-0.347,-1.705,-37.4682,48.7288,57.0491,1007.83
294974,1.33907,-9.71305,1.04256,3.49,0.773,-0.655,-37.2782,48.5242,56.8884,1007.83
294980,1.22908,-9.45002,1.13343,-3.09,0.983,-0.865,-37.5267,48.4657,56.6107,1007.82
294986,1.3582,-9.92826,0.803443,3.77,-0.347,-2.335,-38.2721,49.1527,56.3914,1007.82
294992,1.25299,-9.46915,1.06648,3.14,2.103,-3.105,-37.4098,48.2027,57.1076,1007.83
294998,1.31516,-9.60784,1.10473,3.28,-1.887,-1.705,-37.6875,48.305,56.2745,1007.83
295004,1.01865,-9.79914,1.10952,0.9,-0.487,-0.025,-38.3744,48.685,57.356,1007.83
295010,1.49689,-9.71305,1.28647,5.17,-0.697,-1.355,-36.7959,48.6119,56.8884,1007.83
295016,0.813008,-9.86131,1.34864,3.49,-1.327,-1.775,-37.7313,49.0211,57.9407,1007.83
295022,1.57341,-9.78001,0.798661,-3.37,1.053,-1.005,-37.5705,49.2257,57.5607,1007.83
295028,1.07604,-9.74175,1.13821,6.36,-1.117,-1.985,-37.9652,48.5973,56.3914,1007.83
295034,1.02343,-9.61262,1.2769,1.81,-0.697,-1.565,-37.6436,48.8165,57.2391,1007.84
295040,1.48254,-9.72262,0.994739,1.25,0.983,-2.475,-38.1552,49.2257,57.5461,1007.84
295046,1.21951,-9.69871,0.970827,1.6,-0.137,-1.985,-36.9421,49.1088,56.3183,1007.82
295052,1.53037,-9.34003,0.851267,10,1.403,-0.095,-37.2636,48.115,57.0637,1007.82
295058,1.32472,-9.41176,1.01387,8.67,0.283,-2.265,-37.0298,49.3134,56.6545,1007.86
295064,1.50167,-9.42133,0.832138,-0.36,0.073,-2.825,-37.8336,49.2404,57.1368,1007.86
295070,1.29603,-9.47394,1.10473,4.47,1.123,1.375,-38.0529,49.3719,57.5168,1007.8
295076,1.25777,-9.54567,0.961262,-5.61,-0.487,-1.565,-37.7898,47.9834,57.4876,1007.8
295082,1.43472,-9.73697,0.980392,9.3,0.983,-3.805,-37.629,48.4657,56.9468,1007.83
295088,1.29125,-9.74653,0.841702,4.05,-0.697,-3.385,-37.439,48.495,56.2453,1007.83
295094,1.17647,-9.76566,1.12386,4.4,-2.587,-4.715,-37.5852,48.9334,57.4437,1007.82
295100,1.22908,-9.68436,1.50167,7.2,0.843,-1.565,-37.2782,49.1381,56.903,1007.82
295106,1.29603,-9.54567,1.20995,3.28,-1.467,-1.775,-37.5559,48.8165,56.9468,1007.82
295112,1.24342,-9.82783,1.27212,8.74,1.333,-4.715,-37.7605,48.7288,55.9822,1007.8
295118,1.28168,-10.0383,1.11908,8.11,-0.907,-5.625,-37.2344,49.0504,57.1514,1007.8
295124,1.34864,-9.66045,1.17169,10.28,-0.697,-1.215,-37.9359,48.7288,56.2745,1007.85
295130,1.11908,-9.98087,1.22429,8.18,-1.957,-6.115,-37.5559,48.9334,56.9176,1007.85
295136,1.44907,-9.83261,1.03778,8.53,0.563,-4.015,-38.6521,48.4365,56.2745,1007.82
295142,1.1956,-9.6748,1.3582,8.04,-0.347,-6.045,-38.5644,49.1965,57.2245,1007.82
295148,1.40603,-9.69871,1.28168,6.57,-0.0670002,-5.485,-38.2721,48.7873,56.6399,1007.82
295154,1.42516,-9.78479,1.02343,4.26,-0.277,-6.675,-38.2867,48.5096,56.0991,1007.82
295160,1.18125,-9.96652,1.10473,6.29,-0.347,-6.185,-38.1113,48.1003,56.4645,1007.85
295166,1.34864,-9.87566,1.13821,8.39,0.073,-6.465,-38.7106,48.4657,56.8737,1007.85
295172,1.29603,-9.75131,1.24342,8.53,0.353,-7.165,-37.4536,48.5388,55.5583,1007.84
295178,1.22429,-9.76566,1.16212,5.31,-0.417,-8.215,-38.3013,48.6119,56.5376,1007.84
295184,1.31516,-10.2296,1.09517,6.99,1.053,-8.215,-39.149,49.0211,55.6606,1007.84
295190,1.20516,-9.86609,1.22908,9.86,-1.397,-10.105,-38.0967,48.378,56.1137,1007.84
295196,1.45385,-9.59828,1.45863,6.43,1.753,-10.805,-38.8421,48.7142,55.6899,1007.84
295202,1.06648,-9.99043,1.39168,2.93,-1.467,-10.455,-38.4767,48.3488,56.0991,1007.82
295208,1.46341,-10.3252,1.09995,3.49,2.663,-12.695,-39.2659,47.9542,55.2222,1007.82
295214,0.95648,-10.0526,1.52559,4.54,-0.977,-17.035,-38.8567,48.758,55.6022,1007.8
295220,1.33907,-10.1196,1.56384,2.16,0.633,-17.595,-38.5644,48.2027,55.7629,1007.8
295226,0.664754,-10.3204,1.99904,-4.21,-1.047,-23.265,-39.4121,48.9042,56.1576,1007.81
295232,0.679101,-10.6982,2.01339,-7.71,-3.147,-26.415,-38.769,47.8811,56.8153,1007.81
295238,1.05213,-11.4682,1.60689,-9.39,-4.547,-30.895,-39.2367,47.6911,56.3183,1007.85
295244,1.15256,-11.7982,1.18604,-8.55,-3.777,-34.185,-38.9152,47.5157,56.6253,1007.85
295250,1.24821,-12.1473,1.21473,-4.42,-2.167,-40.205,-39.2221,47.4573,55.8653,1007.83
295256,1.01387,-12.0899,1.4682,-4.63,-2.097,-46.575,-39.1783,48.0711,56.6983,1007.83
295262,0.607365,-12.4773,1.51602,-6.1,-6.647,-51.755,-40.1283,46.8142,56.2453,1007.85
295268,1.02343,-12.9747,1.28168,-3.16,-1.677,-60.435,-40.5083,46.4195,56.0406,1007.85
295274,0.741272,-13.4481,1.06648,1.67,-6.577,-67.015,-39.9821,46.6242,56.0406,1007.85
295280,1.24342,-13.3907,0.755619,6.99,-5.037,-73.105,-41.4875,46.1565,56.8591,1007.84
295286,0.425634,-12.3003,1.13343,5.87,-9.657,-78.495,-40.6398,46.5219,56.596,1007.84
295292,1.4395,-11.3247,1.37733,7.2,-9.587,-84.025,-41.736,45.2941,56.0699,1007.8
295298,0.860832,-12.3721,1.57341,17.35,-13.227,-91.095,-42.0283,44.7972,56.406,1007.8
295304,1.23386,-13.3764,0.841702,13.92,-8.887,-98.935,-42.3498,44.6218,57.2245,1007.78
295310,0.095648,-12.769,1.01865,14.34,-14.907,-102.715,-42.5691,43.6133,55.8945,1007.78
295316,1.09995,-13.3812,1.52559,20.85,-10.217,-103.765,-43.5191,43.0726,56.3183,1007.82
295322,0.688666,-14.9163,1.96078,25.26,-16.097,-124.555,-44.586,42.6341,55.5729,1007.82
295328,-0.444763,-15.4615,1.49689,18.75,-19.457,-135.685,-44.6153,42.2541,56.523,1007.83
295334,0.095648,-16.1358,0.741272,21.06,-20.857,-146.885,-44.1622,40.3248,55.4853,1007.83
295340,0.387374,-16.1454,0.148254,14.34,-17.917,-158.925,-45.4483,40.3248,54.1552,1007.83
295346,0.760402,-17.3936,0.267814,32.61,-11.827,-178.455,-46.2084,38.9656,54.3745,1007.83
295352,1.64993,-19.1344,-0.640842,40.73,-2.237,-199.805,-46.3253,38.4979,55.1199,1007.79
295358,0.607365,-22.176,-1.033,42.27,-10.497,-225.635,-47.4215,38.3225,54.7983,1007.79
295364,-0.172166,-23.9742,-1.49689,67.68,-2.937,-247.965,-48.3715,36.2179,55.3099,1007.79
295370,-0.0908656,-25.012,-1.53993,70.55,4.343,-272.885,-49.4238,35.224,54.0822,1007.81
295376,0.0143472,-25.1219,-1.18604,76.01,9.523,-299.765,-50.6077,33.8063,54.0968,1007.81
295382,-0.726925,-23.0081,-1.23386,89.87,11.973,-320.065,-52.1715,31.2632,52.796,1007.81
295388,0.980392,-22.7355,0.243902,85.6,9.523,-335.675,-52.8877,29.787,52.9275,1007.81
295394,2.32425,-23.8594,1.58297,89.66,19.953,-351.915,-54.1008,28.457,52.3721,1007.84
295400,1.06648,-23.7111,1.75992,88.47,0.633,-361.855,-54.9777,26.8785,52.416,1007.84
295406,3.23768,-23.3525,1.11908,108.56,11.623,-366.475,-56.0885,24.4377,52.0652,1007.82
295412,4.38068,-20.1052,2.24773,108.42,10.573,-359.755,-56.3808,22.0992,51.276,1007.82
295418,4.32807,-19.3974,2.8264,105.62,11.553,-356.465,-56.5124,20.4038,50.4721,1007.8
295424,4.77284,-18.4648,2.13773,105.97,9.943,-344.705,-57.7693,18.5476,50.7644,1007.8
295430,5.32759,-17.6758,1.76949,94.49,11.623,-340.995,-58.7193,17.1883,50.019,1007.83
295436,4.12243,-16.6141,1.1143,79.3,11.483,-327.415,-58.0178,15.4783,51.3052,1007.83
295442,3.96939,-17.8814,0.554758,73.7,16.173,-316.075,-59.4647,13.3737,50.4429,1007.8
295448,1.77427,-18.5222,-0.133907,68.73,21.493,-314.745,-59.3186,11.9559,48.7475,1007.8
295454,-0.612147,-18.1492,-1.32951,65.58,22.403,-312.435,-59.3186,9.12051,49.5952,1007.8
295460,-1.86035,-16.6428,-2.60163,53.82,26.043,-312.155,-59.4793,7.46895,49.1567,1007.79
295466,-3.06074,-15.4185,-3.71114,38.14,36.823,-317.265,-59.8593,6.40201,49.1421,1007.79
295472,-5.13152,-15.2032,-4.58154,29.32,49.493,-329.655,-59.4209,4.80891,48.8936,1007.84
295478,-7.78096,-15.2463,-0.549976,11.26,28.703,-359.545,-60.5755,2.35349,48.7621,1007.84
295484,-4.51459,-19.5935,-0.827355,15.04,61.463,-378.515,-59.9178,0.24884,48.9375,1007.82
295490,-13.5103,-13.5246,-0.750837,6.57,31.853,-396.365,-60.254,-1.81196,48.9813,1007.82
295496,-4.12721,-15.9302,-5.49498,-15.55,78.823,-421.075,-59.9178,-4.85201,48.1044,1007.78
295502,-8.34529,-11.296,-9.82305,18.82,78.683,-406.865,-59.2747,-7.01512,47.8705,1007.78
295508,4.91152,1.63558,-16.2697,99.32,104.863,-308.515,-59.8886,-9.30977,47.6221,1007.78
295514,0.023912,25.2606,-10.2917,200.26,127.963,-153.395,-59.7716,-9.44131,46.5405,1007.78
295520,-8.24008,35.7771,4.28025,115.35,122.643,-19.205,-60.707,-9.42669,47.1251,1007.78
295526,-13.2616,23.692,13.3094,9.3,99.403,62.905,-60.5317,-9.20746,46.8913,1007.78
295784,14.3711,-18.7422,5.06456,-41.94,-97.507,204.165,-45.5945,22.6546,77.6425,1007.83
295790,15.715,-16.9153,5.42324,-47.96,-103.597,202.835,-46.0037,22.8884,78.3879,1007.83
295796,17.6662,-15.2606,5.40411,-55.45,-104.367,198.775,-45.4922,23.0492,80.4049,1007.85
295802,19.1344,-13.7064,5.2989,-62.03,-104.297,197.235,-45.6091,22.8007,81.1795,1007.85
295808,20.6934,-12.0469,4.97848,-71.13,-100.097,191.355,-45.1853,22.7423,81.5887,1007.84
295814,21.8556,-11.0091,4.91631,-76.87,-95.197,180.435,-45.5507,23.6046,82.6703,1007.84
295820,31.2865,-32.6638,-2.82162,-399.92,48.863,-94.455,-45.3753,23.3123,84.3072,1007.79
295826,43.2712,-28.4505,-21.999,-13.45,-23.027,44.145,-46.4422,23.3415,84.2488,1007.79
295832,19.9187,-4.2946,-1.33429,29.18,-30.447,-20.465,-46.8368,24.1307,84.3365,1007.84
295838,32.6255,-3.72549,7.27403,-82.05,-45.217,-16.965,-46.4568,25.3146,84.1172,1007.84
295844,31.3534,-16.3271,6.02104,3.77,-27.647,11.525,-47.1438,25.5192,85.2134,1007.84
295850,27.824,-14.5002,5.05021,51.16,-30.027,-57.215,-47.4215,26.5569,85.5934,1007.84
295856,25.3993,-7.68053,7.76184,40.73,-8.957,-43.705,-48.8246,27.6531,84.8919,1007.86
295862,24.6485,-8.92396,7.75705,37.93,-7.907,-43.005,-48.1669,27.9747,85.0819,1007.86
295868,23.3429,-9.03395,7.01578,39.89,7.843,-73.035,-49.3653,28.3108,83.9711,1007.86
295874,21.3152,-8.2592,7.64228,41.5,11.413,-81.855,-49.643,28.6031,83.7957,1007.85
295880,20.1291,-7.32664,9.06743,34.78,21.563,-86.825,-49.8623,29.3631,83.8688,1007.85
295886,18.4888,-8.1779,11.5304,40.38,15.613,-126.375,-50.2569,29.2754,84.468,1007.83
295892,16.2362,-6.90579,14.3281,33.38,0.213,-134.565,-50.8123,29.0416,84.2195,1007.83
295898,-0.153037,-12.4534,-3.59158,11.33,70.493,-139.255,-51.5869,28.3254,84.2634,1007.79
295904,-10.2009,-23.9024,0.167384,90.57,-79.937,-144.155,-52.3908,28.0623,84.5849,1007.79
295910,17.164,-13.3381,2.0373,131.31,7.213,-110.835,-52.6538,28.7785,84.278,1007.82
295916,-3.43855,-0.425634,9.27307,42.97,-35.417,-80.875,-52.8,28.5154,83.1234,1007.82
295922,11.1956,-4.95457,2.91726,7.41,-17.217,-55.605,-53.4577,28.6031,82.8457,1007.82
295928,2.64945,-11.4634,1.77905,25.33,-4.897,-30.965,-53.4577,29.5385,82.4072,1007.82
295934,2.66858,-10.0287,2.45815,37.79,-29.677,-16.825,-53.3408,29.3339,83.2988,1007.8
295940,7.21186,-4.01243,2.05165,-1.27,14.073,-10.245,-52.6977,29.1001,83.2549,1007.8
295946,-1.77427,-8.6418,1.91296,-20.94,-12.317,-8.425,-53.1508,28.7493,82.9918,1007.79
295952,1.24342,-14.8685,-2.34338,21.83,-8.817,-6.255,-52.6392,28.9539,83.7811,1007.79
295958,-0.167384,-10.8369,0.315638,41.15,-14.557,-17.175,-52.6392,29.1001,83.5326,1007.79
295964,3.25203,-5.08847,3.10378,11.82,-15.677,-7.095,-52.6977,29.4216,82.8457,1007.82
295970,3.01291,-5.89192,2.51076,-21.36,9.033,-1.565,-52.8877,29.4508,83.3865,1007.82
295976,-0.0143472,-11.6117,0.373027,-8.55,-7.697,-4.855,-53.0046,28.7493,82.6557,1007.81
295982,2.61597,-11.4395,-0.61693,11.05,2.943,-6.185,-52.5808,29.3631,82.6557,1007.81
295988,0.320421,-8.51267,1.59254,-1.34,-3.357,-2.615,-52.8,29.3339,83.518,1007.8
295994,1.47298,-10.1626,0.483022,-2.46,-2.797,-4.365,-53.18,28.72,83.2841,1007.8
296000,1.29603,-10.6887,0.526064,6.78,-0.137,-4.505,-53.0339,29.5093,84.1757,1007.81
296006,1.06648,-9.0483,1.45385,1.04,-2.377,-3.175,-52.7415,28.72,83.6203,1007.81
296012,1.35342,-9.94261,0.85605,-1.34,-1.887,-4.365,-53.3408,29.2754,82.5972,1007.8
296018,1.16212,-10.55,0.554758,5.66,-2.587,-3.245,-52.6977,29.1293,82.2757,1007.8
296024,1.37733,-9.56002,0.899091,5.45,-2.237,-1.565,-53.0046,29.3924,82.188,1007.79
296030,1.25299,-9.54567,1.20995,4.54,-3.987,-3.245,-52.7854,30.1378,82.5826,1007.79
296036,1.78862,-9.48828,0.927786,2.3,0.633,-0.445,-52.4492,29.7285,83.1526,1007.82
296042,0.927786,-9.8374,1.16691,2.58,-2.447,-0.025,-53.1362,29.0708,84.1611,1007.82
296048,1.45385,-9.95218,0.865614,3.91,0.703,-0.865,-52.5808,28.7493,82.2903,1007.82
296054,1.04256,-9.71305,1.0856,3.77,-1.467,-1.355,-53.3408,28.7785,83.6349,1007.84
296060,1.40124,-9.57436,1.09517,4.05,0.423,-0.445,-52.9023,28.6031,84.1611,1007.84
296066,1.08082,-9.61741,1.14778,1.95,-0.487,0.115,-52.9315,28.7785,83.4157,1007.82
296072,1.40603,-9.64132,0.989957,2.93,1.613,-1.705,-52.6392,29.4508,83.3718,1007.82
296078,1.11908,-9.64132,1.06648,1.6,0.773,-0.445,-53.18,28.9831,82.5387,1007.85
296084,1.25777,-9.65088,1.00909,1.25,0.633,-0.795,-53.0485,29.1293,82.6118,1007.85
296090,1.24342,-9.62219,0.989957,1.95,1.403,-1.075,-52.5808,29.5385,82.4218,1007.85
296096,1.1956,-9.65567,1.04256,1.32,1.753,0.395,-52.5808,29.3339,81.8518,1007.85
296102,1.28168,-9.65088,0.970827,0.83,1.963,-0.305,-52.8,29.7139,82.2464,1007.82
296108,1.09517,-9.78957,0.999522,2.16,1.683,-0.655,-53.4285,29.1293,82.4364,1007.82
296114,1.25299,-9.69392,0.989957,1.88,2.103,-1.355,-52.6538,28.9247,82.451,1007.83
296120,1.08082,-9.62697,1.06169,1.39,1.753,-1.635,-52.5515,28.9539,81.7495,1007.83
296126,1.25299,-9.67001,1.02822,2.16,1.963,-0.445,-53.4285,29.6262,82.8603,1007.83
296132,1.09517,-9.62697,1.1143,1.6,1.543,0.325,-52.5223,29.6554,83.2257,1007.82
296138,1.39168,-9.56002,0.980392,0.41,3.293,0.675,-53.4431,29.217,82.9918,1007.82
296144,1.0856,-9.7561,1.00909,1.18,1.753,-0.445,-52.7269,29.1585,82.0126,1007.84
296150,1.25777,-9.7274,0.903874,0.97,2.873,-0.025,-52.3323,29.1585,83.4157,1007.84
296156,1.10952,-9.7274,0.970827,1.18,1.823,-1.075,-52.6977,29.6262,81.6472,1007.82
296162,1.16691,-9.60784,1.02343,1.95,1.963,0.465,-53.4869,29.4508,82.4072,1007.82
296168,1.12865,-9.6461,0.966045,0.83,2.313,-0.095,-53.7354,29.7139,81.8518,1007.82
296174,1.14299,-9.80392,0.889526,0.76,2.873,0.045,-53.4139,29.9916,83.0064,1007.82
296180,1.21473,-9.68914,0.942133,1.32,1.403,-0.445,-52.3908,29.217,82.2172,1007.79
296186,1.09995,-9.76566,0.985174,1.18,2.383,-1.145,-52.9462,28.9539,82.1587,1007.79
296192,1.3056,-9.63654,0.946915,3.56,1.333,-0.305,-53.0631,28.6616,82.568,1007.81
296198,1.033,-9.85174,0.994739,1.81,0.073,-0.445,-53.1508,28.8954,81.8518,1007.81
296204,1.18125,-9.67001,1.06648,3.07,2.873,-1.005,-53.2092,29.7578,81.6764,1007.81
296210,1.21473,-9.81349,0.989957,2.3,1.893,-2.055,-52.3469,29.4216,82.8895,1007.81
296216,0.966045,-9.91392,0.994739,2.16,0.283,-2.895,-52.6977,29.2462,81.6472,1007.81
296222,0.999522,-9.87566,0.932568,3.77,0.423,-1.005,-53.0923,29.9624,81.4426,1007.81
296228,1.05213,-9.87087,1.07126,6.64,0.843,-2.265,-52.61,29.6847,82.1587,1007.81
296234,1.09517,-9.78957,1.01387,1.18,-1.257,-3.945,-52.7415,28.9831,82.568,1007.84
296240,1.3869,-9.62697,1.06169,11.19,0.843,-3.805,-52.9754,28.7785,82.0272,1007.84
296246,1.09995,-9.60306,0.97561,0.55,-0.207,-3.175,-53.1508,29.4801,82.0857,1007.84
296252,1.18604,-9.67001,1.10473,5.45,0.983,-3.385,-52.7269,28.9539,82.0126,1007.84
296258,1.10473,-9.66045,1.12865,3.91,-0.907,-4.785,-52.4346,28.9831,81.881,1007.81
296264,1.27212,-9.61741,1.11908,3.42,0.493,-2.335,-53.4577,28.72,81.4133,1007.81
296270,1.3056,-9.55045,1.24342,3.14,2.593,-4.715,-53.1069,29.1877,81.8957,1007.83
296276,1.28647,-9.62697,1.06169,2.37,2.103,-4.505,-53.56,29.9624,81.5595,1007.83
296282,1.29125,-9.62697,0.908656,-4.98,3.223,-1.915,-53.5308,29.3631,82.4364,1007.83
296288,1.29603,-9.84696,0.970827,2.51,2.593,-3.735,-53.7208,29.6701,82.4657,1007.83
296294,1.26734,-9.73697,1.04735,1.18,3.643,-5.135,-52.6246,29.1585,81.7057,1007.83
296300,1.09039,-9.95218,1.0043,1.95,3.643,-4.645,-53.9108,29.0416,81.8518,1007.83
296306,0.932568,-10.3778,0.640842,4.68,4.063,-7.515,-53.5162,29.1877,81.5741,1007.83
296312,1.10952,-10.2774,0.511717,4.12,2.523,-7.165,-53.0777,29.4216,82.7872,1007.82
296318,1.09517,-9.73697,0.918221,3.56,0.073,-7.725,-53.18,29.4508,82.3195,1007.82
296324,1.24821,-9.66045,1.02343,7.2,1.263,-6.535,-54.2177,29.1001,81.8664,1007.81
296330,1.15734,-9.98565,0.942133,10.56,-0.557,-7.305,-53.2823,30.0208,81.7203,1007.81
296336,1.37255,-9.84218,1.04735,13.71,0.073,-6.955,-53.6623,29.4801,81.5741,1007.8
296342,1.36298,-9.3735,1.3582,11.33,1.333,-6.885,-54.3931,29.7139,81.3841,1007.8
296348,1.43472,-9.53611,1.20995,7.76,1.263,-7.445,-53.3115,29.5385,82.5095,1007.8
296354,1.30081,-9.74175,1.15256,10.07,1.193,-6.815,-53.6623,28.8954,81.6764,1007.8
296360,1.24342,-9.64132,1.17169,6.43,2.103,-5.975,-52.9754,29.217,80.0541,1007.84
296366,1.49211,-9.64132,1.12865,9.72,1.403,-7.095,-53.2385,29.787,81.3403,1007.84
296372,1.3869,-9.73218,1.20995,8.32,2.523,-6.605,-53.3846,29.4508,80.7702,1007.81
296378,1.42037,-9.79914,1.1143,11.54,2.383,-6.395,-53.37,29.2754,79.9956,1007.81
296384,1.27212,-10.1435,0.97561,10.14,1.543,-10.525,-53.2092,29.3631,80.7556,1007.81
296390,1.45863,-10.3922,0.789096,15.88,3.083,-8.845,-52.5808,30.0501,80.9018,1007.81
296396,1.43472,-9.98565,0.827355,12.17,6.093,-8.915,-53.1508,30.2255,81.9541,1007.81
296402,1.07604,-10.5643,0.703013,13.71,3.993,-12.765,-53.18,30.0501,81.3549,1007.8
296408,1.20995,-10.7843,0.382592,18.54,6.373,-13.605,-53.9693,29.6701,81.0918,1007.8
296414,1.16691,-10.4782,0.473458,20.15,6.093,-16.545,-53.4139,30.0793,80.668,1007.83
296420,1.4395,-10.3539,0.640842,23.37,5.953,-19.345,-53.5892,29.9624,80.1418,1007.83
296426,1.16691,-10.5022,1.18604,24.07,6.513,-20.675,-54.3346,29.6262,80.5218,1007.85
296432,1.42994,-9.47394,1.24821,22.25,3.713,-20.675,-54.0423,30.4593,79.5718,1007.85
296438,1.73601,-9.29699,1.57341,20.22,7.773,-21.445,-54.817,29.6262,81.4133,1007.8
296444,1.06169,-9.44524,1.97991,17.35,4.343,-21.585,-54.13,29.7285,79.0018,1007.8
296450,1.59254,-9.33525,1.7934,16.23,4.553,-20.675,-54.2031,30.4008,79.1479,1007.84
296456,1.47298,-9.23003,1.88905,13.85,4.273,-20.465,-54.1008,30.0208,79.8056,1007.84
296462,1.25777,-9.86131,1.96078,15.6,1.823,-21.655,-54.9193,30.2839,80.1856,1007.78
296468,1.42994,-9.89479,1.86035,13.57,2.103,-22.355,-55.0508,29.4216,80.0249,1007.78
296474,1.23864,-10.4065,1.90818,11.12,0.493,-25.085,-54.0862,29.5385,79.4987,1007.78
296480,0.980392,-10.703,1.7934,12.52,0.073,-28.165,-54.1885,29.787,80.1272,1007.83
296486,1.10473,-10.4017,1.66428,11.26,-2.727,-29.495,-54.7293,29.9039,79.3233,1007.83
296492,1.33907,-11.2626,1.24821,10.77,-3.357,-32.505,-54.817,30.4301,80.5949,1007.82
296498,1.44907,-12.0995,1.13821,18.61,-3.007,-37.055,-53.8523,29.3631,79.8933,1007.82
296504,1.47298,-12.5586,1.55906,16.79,-1.677,-42.445,-54.8462,29.5385,79.0018,1007.81
296510,1.05691,-14.0459,2.12817,13.92,-0.907,-53.715,-54.13,29.6262,79.6887,1007.81
296516,-0.25825,-15.9493,2.45815,8.67,-2.657,-67.785,-54.3931,29.6554,79.7764,1007.82
296522,-0.540411,-17.4366,2.31468,11.26,-6.787,-84.865,-55.1677,29.7285,80.0833,1007.82
296528,-0.526064,-19.3018,1.69775,14.9,-8.327,-104.115,-54.9777,29.3047,78.8702,1007.83
296534,-0.47824,-20.9421,1.55428,20.01,-12.597,-125.745,-55.577,28.6616,78.651,1007.83
296540,-1.17647,-22.9651,2.88379,29.53,-7.837,-150.385,-55.6062,28.1793,77.321,1007.84
296546,-3.3955,-23.2951,4.62936,25.33,-17.357,-166.765,-55.5624,27.6239,78.0079,1007.84
296552,-3.19943,-22.9555,3.13247,31.07,-20.367,-204.565,-56.0885,26.7323,76.3271,1007.84
296558,-1.64515,-20.8082,0.95648,25.33,-24.707,-229.975,-55.8547,26.4692,77.4964,1007.83
296564,-0.545194,-21.2912,-0.148254,36.46,-19.667,-244.325,-56.1762,25.4315,76.6925,1007.83
296570,-2.20469,-24.4333,0.349115,61.45,-22.677,-255.245,-56.8485,24.0138,76.3125,1007.82
296576,-5.09326,-25.0454,2.33381,73.7,-32.477,-275.195,-57.1701,24.4084,74.544,1007.82
296582,-5.54758,-27.1688,3.62506,64.6,-33.947,-304.175,-57.097,23.2246,74.4125,1007.84
296588,-8.29746,-29.3735,4.19895,66.28,-43.747,-327.205,-56.6878,22.1284,74.6756,1007.84
296594,-7.57532,-30.6934,2.78336,93.72,-49.277,-349.745,-57.7255,20.9445,73.6086,1007.83
296600,-8.11573,-28.3453,-1.18604,113.32,-51.237,-369.695,-57.8716,20.1407,73.2578,1007.83
296606,-7.50837,-23.4959,-4.75371,140.55,-51.727,-387.685,-58.1639,17.9337,71.7378,1007.79
296612,-6.43233,-18.3692,-6.04495,145.87,-45.427,-407.705,-57.8132,17.8168,71.1532,1007.79
296618,-6.4132,-15.7054,-6.01148,135.37,-33.877,-433.395,-57.4185,16.5745,70.6855,1007.78
296624,-7.58489,-11.0713,-4.80631,118.22,-23.587,-451.735,-59.2309,15.3614,69.9839,1007.78
296630,-8.32616,-3.80679,-5.01674,98.48,-21.557,-452.155,-58.6609,13.286,68.5808,1007.8
296636,-8.03443,1.4395,-12.4008,130.33,10.993,-427.305,-59.0993,11.6052,68.7416,1007.8
296642,-10.6169,10.8226,-17.054,222.66,49.353,-364.375,-59.0263,9.89514,67.5139,1007.8
296648,-17.8384,25.012,-9.45481,203.83,62.583,-304.735,-60.1224,10.1582,67.1631,1007.8
296654,-27.9531,29.1679,1.94165,70.97,44.173,-289.475,-60.8678,9.2959,65.3946,1007.8
296660,-13.3094,14.4333,1.22908,-20.31,43.753,-269.595,-61.1163,8.02435,64.8685,1007.82
296666,-6.95361,4.90196,-2.51076,-10.02,51.383,-209.465,-61.8617,6.69432,64.6638,1007.82
296672,-1.78384,5.30846,-3.33333,5.03,50.263,-126.025,-62.6655,6.1097,63.5969,1007.83
296678,-1.6308,9.22047,-0.554758,5.59,57.333,-32.435,-62.8117,5.33507,63.8746,1007.83
296684,-7.12578,8.38355,2.65901,0.2,38.153,55.485,-63.6594,6.1097,63.5823,1007.79
296690,-10.5643,4.73458,2.92205,-12.12,23.733,119.045,-63.8494,7.62972,62.9538,1007.79
296696,-12.0277,-0.129125,0.870397,-13.24,15.053,163.985,-63.9079,8.3605,63.48,1007.79
296702,-9.55523,-2.17121,-0.970827,-7.29,10.433,201.365,-63.9663,9.41283,63.3777,1007.79
296708,-6.41798,-1.99426,-1.4395,-1.9,13.863,228.805,-64.4048,10.4359,63.9477,1007.78
296714,-4.47633,-1.86992,-1.4682,-2.25,14.633,245.185,-63.4109,13.169,63.8162,1007.78
296720,-2.99856,-2.63032,-1.96557,-8.27,20.373,255.195,-62.8555,15.1568,63.9769,1007.78
296726,-1.3582,-4.16069,-2.94596,-15.97,29.123,252.255,-62.914,17.4806,64.1085,1007.77
296732,0.396939,-5.55237,-3.57245,-22.76,37.733,241.475,-62.0809,19.2637,63.9915,1007.77
296738,1.84122,-5.94452,-3.34768,-33.33,45.573,228.105,-62.5194,20.8276,63.1292,1007.8
296744,2.38642,-5.27021,-2.33859,-51.25,52.503,212.215,-62.7386,22.2453,64.05,1007.8
296750,2.15686,-5.21282,-1.31994,-70.57,54.603,193.735,-61.8324,24.3792,63.0708,1007.78
296756,2.04687,-5.23673,-0.932568,-90.8,55.583,176.095,-61.584,25.5192,63.7285,1007.78
296762,1.2769,-6.17886,-0.961262,-104.66,53.343,162.515,-61.3209,26.3815,63.7869,1007.78
296768,1.67862,-7.62315,-1.12386,-110.75,54.253,149.915,-60.8678,27.77,64.1377,1007.78
296774,1.67862,-8.92874,-0.923003,-107.88,52.013,141.305,-60.517,28.4277,64.3862,1007.76
296780,2.21903,-10.2822,-0.631277,-96.54,50.263,134.095,-59.9909,29.3047,64.1669,1007.76
296786,2.49641,-12.0756,-0.373027,-79.39,49.493,125.555,-59.9178,30.0793,64.8539,1007.78
296792,2.86466,-13.4768,-0.0430416,-59.02,49.143,115.965,-58.5147,30.2547,64.6931,1007.78
296798,3.43855,-14.2276,0.416069,-41.45,49.703,105.255,-58.3539,30.8685,64.6785,1007.77
296804,4.13199,-14.3855,0.903874,-24.72,50.053,90.835,-58.4416,31.4093,65.2046,1007.77
296810,4.70588,-13.1755,1.73601,-14.64,48.373,77.745,-57.667,32.0524,64.4739,1007.77
296816,5.47585,-11.1143,2.52032,-14.71,47.043,61.575,-56.8485,33.1778,64.6054,1007.77
296822,6.15017,-9.0483,3.02726,-20.73,44.383,47.505,-57.0678,32.9732,63.6846,1007.77
296828,6.28407,-6.42276,3.65854,-34.03,37.943,35.745,-56.147,33.8355,64.9415,1007.79
296834,6.58058,-4.2946,4.20851,-53,32.133,25.595,-56.147,33.3532,63.6846,1007.79
296840,6.88666,-2.20947,4.98804,-74.14,22.613,14.675,-56.0301,32.9147,65.19,1007.81
296846,7.46054,-0.492587,5.88235,-107.25,12.393,7.185,-55.2408,33.8209,64.8977,1007.81
296852,8.14443,-0.793878,6.19799,-137,1.053,3.265,-54.6708,32.827,65.0585,1007.78
296858,9.09134,-1.91296,5.93496,-161.08,-8.117,0.115,-54.4954,32.3009,65.1754,1007.78
296864,10,-3.22812,5.51889,-177.67,-17.777,1.445,-54.2908,31.2924,66.6077,1007.83
296870,10.99,-4.52893,5.03587,-185.09,-24.567,6.835,-53.8377,30.8978,67.017,1007.83
296876,11.9082,-5.28455,4.89718,-185.79,-30.797,12.295,-53.1946,30.2839,67.8501,1007.81
296882,12.549,-6.11191,4.97848,-181.59,-36.677,20.555,-52.2738,29.1293,69.6916,1007.81
296888,13.2042,-6.88666,5.28933,-173.96,-42.907,27.625,-52.2592,27.5654,69.867,1007.81
296894,13.6729,-8.03443,5.58106,-165.49,-47.107,36.025,-51.4115,27.0977,70.9339,1007.8
296900,14.1463,-9.55523,5.50933,-149.32,-49.907,41.765,-50.1984,26.1477,72.4832,1007.8
296906,14.1368,-10.6552,5.55715,-132.45,-52.777,47.715,-50.14,26.5277,72.6001,1007.83
296912,14.3615,-11.626,5.57628,-112.01,-55.227,52.475,-49.1607,26.2062,72.9655,1007.83
296918,14.7107,-11.5017,5.62888,-89.33,-56.977,57.655,-48.7222,26.4108,73.4186,1007.84
296924,15.0406,-10.0909,6.05452,-68.4,-57.607,64.445,-47.0415,25.3146,74.3686,1007.84
296930,15.1028,-8.20182,6.55667,-53.21,-58.727,74.595,-45.653,25.8846,74.8071,1007.84
296936,14.9546,-6.62362,6.88666,-43.13,-62.227,80.265,-45.8722,25.4315,75.0848,1007.84
296942,14.6198,-5.55715,7.02535,-37.6,-62.717,86.005,-45.6676,26.8492,76.4879,1007.82
296948,14.3759,-5.07891,6.95839,-34.87,-62.647,89.645,-43.3145,26.4985,77.2771,1007.82
296954,14.2611,-5.32281,6.59493,-35.29,-61.037,88.945,-42.4668,27.2146,76.2833,1007.88
296960,14.2037,-6.26494,5.98278,-32.35,-58.867,84.675,-41.5021,27.507,76.2394,1007.88
296966,14.1798,-7.54663,5.20803,-27.31,-52.637,77.955,-40.7421,28.0623,77.5987,1007.87
296972,14.1989,-8.58919,4.49546,-17.51,-45.287,68.645,-39.6898,27.9162,77.9933,1007.87
296978,14.3568,-9.41176,3.8307,-6.45,-36.467,60.875,-38.8275,28.2962,78.3733,1007.87
296984,14.3376,-10.2439,3.08465,7.55,-26.527,48.835,-39.0175,28.7493,78.0956,1007.87
296990,14.2659,-10.7987,2.47728,23.23,-13.717,37.635,-37.4244,29.4508,77.6425,1007.87
296996,14.0794,-11.1191,2.07078,39.96,0.843,28.955,-38.0821,29.787,77.8179,1007.84
297002,13.5964,-10.6743,1.96078,59.42,14.633,22.935,-38.1405,30.6639,78.0956,1007.84
297008,12.8647,-9.59828,2.07556,72.09,26.183,18.735,-37.629,31.9062,77.9202,1007.89
297014,11.8364,-8.46963,2.20469,80.98,37.593,16.285,-36.8105,32.1693,77.4525,1007.89
297020,11.076,-6.35581,2.49163,81.54,43.263,16.075,-38.0236,33.2655,76.7071,1007.83
297026,11.2434,-3.96939,2.48685,72.65,51.943,17.825,-38.2282,33.9817,75.2163,1007.83
297032,10.9995,-2.04687,2.16164,58.58,57.053,23.355,-38.8713,35.1217,77.1894,1007.89
297038,10.5548,-0.683883,1.87948,38.56,64.263,26.365,-39.0029,35.2532,75.2017,1007.89
297044,9.73218,-0.626494,1.67862,18.54,66.153,23.005,-39.6752,35.6332,74.6902,1007.82
297050,9.55523,-2.06121,1.40124,-0.29,71.053,18.735,-40.0552,37.1386,75.114,1007.82
297056,9.50263,-3.59158,1.59254,-17.16,72.593,4.805,-40.3329,37.5917,74.5002,1007.82
297062,9.5648,-5.53802,2.06121,-34.1,75.253,-13.955,-41.1221,37.0217,74.164,1007.88
297068,9.67958,-7.85748,2.37207,-44.11,74.693,-35.725,-41.4144,37.9717,73.4478,1007.88
297074,9.46437,-9.9713,2.44381,-49.85,73.923,-57.075,-42.2183,37.5479,73.404,1007.84
297080,5.93974,-9.84218,14.0459,-173.47,-61.107,111.205,-43.2122,37.1094,74.734,1007.84
297086,13.1564,-84.4428,-18.7805,376.66,202.723,179.245,-42.3645,37.5771,75.2456,1007.87
297092,12.1186,5.60019,16.6188,624.88,-96.877,340.385,-40.976,43.6426,71.2555,1007.87
297098,-11.0426,80.4734,33.2664,-108.93,153.793,237.485,-39.8506,46.6534,70.0278,1007.87
297104,-34.902,19.737,20.8082,-410.7,-306.107,177.355,-38.9298,45.8203,71.8694,1007.87
297110,49.8996,-26.4371,-17.7379,-219.46,22.753,214.945,-35.9044,44.7826,74.0909,1007.89
297116,8.10139,-29.627,-30.966,-66.23,163.593,246.305,-34.9105,44.6949,74.4125,1007.89
297122,-7.67097,-13.4242,-17.0588,206.63,-43.887,291.665,-33.4051,47.0042,73.0971,1007.87
297128,17.8001,9.83261,4.57676,69.78,83.583,312.595,-31.6951,48.9334,72.6732,1007.87
297134,-1.87948,-36.8436,27.2788,-176.27,17.853,361.035,-30.3943,50.7896,72.0886,1007.88
297140,-110.344,-88.7087,27.6758,-220.09,13.023,-389.015,-31.4466,49.2404,73.8717,1007.88
297146,30.3826,-67.0827,-16.7958,424.19,-450.657,140.395,-29.532,47.8957,76.371,1007.88
297152,30.703,16.968,-19.4596,126.83,357.563,-48.115,-29.4443,50.9942,73.3894,1007.84
297158,-56.3845,-0.593018,51.4969,45.98,-274.467,-14.935,-30.6281,51.1404,72.834,1007.84
297164,50.1865,-7.4988,-13.2472,-113.06,58.803,-56.445,-29.1666,49.8834,74.4125,1007.85
297170,-18.6035,-24.1081,0.243902,33.94,79.523,30.985,-30.1897,50.1173,74.1932,1007.85
297176,-3.13247,-10.7508,2.20469,55.99,-80.847,-55.815,-29.6635,50.0296,73.8425,1007.87
297182,10.6982,-5.25586,-0.0191296,1.6,66.503,-28.655,-29.0935,51.2427,73.4771,1007.87
297188,-6.58536,-11.2817,3.82592,20.29,-47.737,17.265,-29.5612,50.5558,73.1848,1007.87
297194,6.4132,-11.8269,-2.18556,30.86,5.253,-34.325,-29.6781,50.5119,72.2932,1007.87
297200,-1.36777,-9.68436,2.07556,38.77,-21.417,-37.755,-30.2335,50.8919,72.5124,1007.86
297206,3.0703,-6.01626,2.42946,24.7,-18.127,-0.655,-30.2627,50.3512,72.5855,1007.86
297212,4.49546,-5.61454,2.19034,10.84,-7.837,-22.145,-30.2773,50.965,73.0824,1007.88
297218,2.88379,-8.00574,1.38211,2.93,-8.817,-4.225,-29.6196,51.2865,72.454,1007.88
297224,2.02774,-10.9469,0.411286,11.82,-4.547,12.855,-29.7804,50.7165,71.5624,1007.86
297230,1.4682,-10.2535,1.09039,19.17,-8.677,-1.285,-29.8681,50.6435,72.644,1007.86
297236,1.98948,-7.53706,2.65423,10.07,-8.117,-7.235,-29.985,50.965,72.5563,1007.86
297242,1.83166,-7.15925,3.14682,-4.84,-7.697,12.575,-30.3212,51.6519,71.8694,1007.87
297248,2.24773,-9.07699,1.80775,-7.85,-4.547,2.005,-29.342,50.8627,71.6209,1007.87
297254,1.94644,-10.5835,0.961262,-2.04,-2.867,6.205,-29.4443,50.6435,72.644,1007.84
297260,1.86992,-9.22047,1.60689,-1.69,-2.027,15.025,-29.2981,51.4181,72.5271,1007.84
297266,1.85557,-8.60354,2.15208,-9.18,-0.487,9.285,-29.2835,51.8566,71.7086,1007.88
297272,1.76471,-9.27307,1.98948,-12.54,2.733,6.905,-29.035,50.9065,72.2932,1007.88
297278,1.42994,-10.0096,1.62602,-13.59,5.043,10.125,-29.8097,51.1842,72.6001,1007.89
297284,1.20516,-10.3109,1.26734,-11.63,4.413,5.505,-28.7135,50.8919,72.5855,1007.89
297290,1.28168,-10.2965,1.12386,-7.71,5.533,4.525,-29.2689,50.9942,72.7901,1007.91
297296,1.49689,-9.87087,1.1956,-7.29,4.063,6.065,-29.3858,51.1112,73.0386,1007.91
297302,1.58776,-9.6461,1.2769,-6.87,4.063,5.225,-29.0935,50.4973,73.3163,1007.87
297308,1.69297,-9.57915,1.2769,-7.15,4.553,4.595,-28.7135,50.8188,72.6732,1007.87
297314,1.58297,-9.56958,1.25299,-7.15,5.603,7.185,-29.2981,50.9358,72.7317,1007.87
297320,1.63558,-9.62697,1.28168,-7.43,5.323,5.295,-29.5904,51.0819,73.0386,1007.84
297326,1.5495,-9.59828,1.34385,-7.92,5.743,6.205,-29.1958,50.3804,72.454,1007.84
297332,1.40603,-9.50741,1.43472,-8.27,5.323,6.555,-28.9327,50.5996,73.0971,1007.85
297338,1.33429,-9.7274,1.29603,-8.48,4.553,6.695,-28.9181,51.0235,73.5501,1007.85
297344,1.28647,-9.8087,1.26255,-7.43,5.183,3.685,-29.0935,51.1696,73.4917,1007.87
