TimeSinceCollection,Timestamp,AccX,AccY,AccZ,AngleRoll,AnglePitch,AngleYaw,AngularVelX,AngularVelY,AngularVelZ,Q1,Q2,Q3,Q4,MagX,MagY,MagZ,Height,Airpressure
0,245448,4.58896,-8.75205,0.684277,-85.7483,-27.301,-48.0542,-0.183105,0.12207,0.0610352,-0.584991,0.674286,-0.111267,0.436615,-14138,8264,-5189,874,-29852
6,245454,4.47891,-8.70898,0.746484,-85.7483,-27.301,-48.0487,0.12207,0.183105,-0.183105,-0.585022,0.674286,-0.111206,0.436615,-14137,8264,-5184,874,-29852
12,245460,4.49805,-8.65635,0.75127,-85.7483,-27.301,-48.0487,-0.183105,0,-0.488281,-0.585022,0.674286,-0.111176,0.436584,-14136,8264,-5180,874,-29852
18,245466,4.53633,-8.69463,0.736914,-85.7428,-27.3065,-48.0432,-0.427246,-0.183105,-0.244141,-0.585052,0.674286,-0.111115,0.436584,-14137,8266,-5181,874,-29852
24,245472,4.56982,-8.71377,0.698633,-85.7483,-27.3065,-48.0377,-0.305176,-0.305176,-0.244141,-0.585052,0.674286,-0.111084,0.436554,-14137,8268,-5180,874,-29852
30,245478,4.57939,-8.74727,0.669922,-85.7483,-27.312,-48.0212,-0.183105,-0.244141,-0.427246,-0.585083,0.674316,-0.110962,0.436523,-14135,8270,-5180,874,-29852
36,245484,4.61289,-8.76162,0.641211,-85.7483,-27.312,-48.0157,0,-0.183105,0,-0.585083,0.674347,-0.110931,0.436493,-14133,8268,-5179,874,-29852
42,245490,4.59854,-8.72813,0.679492,-85.7483,-27.3175,-48.0103,0.305176,0,-0.0610352,-0.585114,0.674347,-0.11087,0.436462,-14130,8268,-5176,874,-29852
48,245496,4.62246,-8.7042,0.703418,-85.7428,-27.3175,-48.0048,0.305176,-0.0610352,0.0610352,-0.585144,0.674316,-0.11084,0.436432,-14128,8266,-5177,874,-29852
54,245502,4.58896,-8.7042,0.698633,-85.7428,-27.3175,-47.9993,0.183105,0.0610352,0.366211,-0.585175,0.674316,-0.110779,0.436432,-14128,8266,-5181,874,-29852
60,245508,4.63203,-8.69463,0.684277,-85.7373,-27.3175,-47.9883,0,0,0.183105,-0.585236,0.674316,-0.110718,0.436371,-14132,8258,-5192,874,-29852
66,245514,4.55068,-8.67549,0.717773,-85.7373,-27.3175,-47.9883,0,0.183105,0.610352,-0.585266,0.674316,-0.110687,0.43634,-14136,8255,-5192,874,-29852
72,245520,4.50283,-8.68027,0.727344,-85.7373,-27.312,-47.9828,-0.12207,0.12207,0.488281,-0.585297,0.674316,-0.110687,0.43631,-14141,8249,-5186,874,-29852
78,245526,4.49805,-8.6707,0.775195,-85.7373,-27.312,-47.9773,0,0.0610352,0.0610352,-0.585327,0.674316,-0.110657,0.436279,-14141,8245,-5180,874,-29852
84,245532,4.49326,-8.67549,0.784766,-85.7318,-27.312,-47.9718,-0.305176,0.0610352,0.183105,-0.585358,0.674286,-0.110626,0.436249,-14143,8244,-5170,874,-29852
90,245538,4.52676,-8.68506,0.727344,-85.7373,-27.312,-47.9608,-0.488281,-0.244141,-0.12207,-0.585388,0.674316,-0.110565,0.436218,-14146,8244,-5155,874,-29852
96,245544,4.56504,-8.77119,0.641211,-85.7373,-27.3175,-47.9553,-0.12207,0,0,-0.585388,0.674347,-0.110504,0.436188,-14147,8244,-5152,874,-29852
102,245550,4.5459,-8.71855,0.679492,-85.7373,-27.3175,-47.9498,0.183105,0.183105,-0.0610352,-0.585419,0.674347,-0.110474,0.436157,-14147,8246,-5152,874,-29852
108,245556,4.56025,-8.69463,0.717773,-85.7318,-27.3175,-47.9443,0.12207,0.12207,0.0610352,-0.585449,0.674316,-0.110443,0.436157,-14145,8251,-5152,874,-29852
114,245562,4.55547,-8.68027,0.693848,-85.7318,-27.3175,-47.9388,0,0.0610352,0.244141,-0.58548,0.674316,-0.110413,0.436127,-14143,8255,-5152,874,-29852
120,245568,4.55547,-8.70898,0.665137,-85.7263,-27.3175,-47.9333,0,-0.0610352,0,-0.58551,0.674316,-0.110321,0.436096,-14141,8259,-5146,874,-29852
126,245574,4.59854,-8.69941,0.645996,-85.7263,-27.3175,-47.9279,0,0.183105,0,-0.585541,0.674316,-0.110291,0.436066,-14142,8261,-5140,874,-29852
132,245580,4.57939,-8.71855,0.679492,-85.7263,-27.3175,-47.9224,0.305176,0.0610352,-0.366211,-0.585571,0.674316,-0.11026,0.436035,-14142,8263,-5140,874,-29852
138,245586,4.57461,-8.71855,0.698633,-85.7263,-27.323,-47.9169,0.366211,0.12207,0,-0.585571,0.674316,-0.110199,0.436035,-14141,8264,-5141,874,-29852
144,245592,4.55547,-8.69941,0.712988,-85.7208,-27.323,-47.9114,0.244141,0.0610352,0.183105,-0.585602,0.674316,-0.110168,0.436035,-14141,8266,-5148,874,-29852
150,245598,4.55068,-8.7042,0.732129,-85.7153,-27.323,-47.9059,0.305176,0.183105,0.0610352,-0.585663,0.674286,-0.110107,0.435974,-14136,8267,-5165,874,-29852
156,245604,4.52676,-8.68984,0.669922,-85.7098,-27.323,-47.9004,0,-0.183105,0.12207,-0.585693,0.674286,-0.110077,0.435974,-14132,8268,-5169,874,-29852
162,245610,4.57461,-8.73291,0.722559,-85.7098,-27.323,-47.8949,0,0,-0.0610352,-0.585724,0.674286,-0.110016,0.435944,-14128,8266,-5170,874,-29852
168,245616,4.56025,-8.69941,0.746484,-85.7098,-27.323,-47.8894,0.183105,0,-0.0610352,-0.585754,0.674286,-0.109985,0.435944,-14125,8264,-5168,874,-29852
174,245622,4.55068,-8.66592,0.717773,-85.7098,-27.323,-47.8894,0,0,-0.0610352,-0.585785,0.674286,-0.109955,0.435913,-14124,8264,-5162,874,-29852
180,245628,4.5459,-8.70898,0.698633,-85.7043,-27.3285,-47.8784,0,0.12207,0,-0.585815,0.674255,-0.109863,0.435883,-14121,8265,-5155,874,-29852
186,245634,4.5459,-8.69941,0.727344,-85.7043,-27.3285,-47.8729,0.12207,0.0610352,0.0610352,-0.585846,0.674286,-0.109833,0.435852,-14120,8266,-5152,874,-29852
192,245640,4.53633,-8.67549,0.679492,-85.7043,-27.3285,-47.8674,0.427246,0.244141,0,-0.585846,0.674255,-0.109802,0.435852,-14119,8268,-5152,874,-29852
198,245646,4.53633,-8.66113,0.717773,-85.6989,-27.3285,-47.8674,-0.0610352,0,-0.0610352,-0.585907,0.674255,-0.109772,0.435822,-14120,8267,-5151,874,-29852
204,245652,4.56504,-8.69941,0.717773,-85.6989,-27.3285,-47.8619,-0.183105,0,-0.305176,-0.585907,0.674255,-0.109741,0.435822,-14121,8265,-5150,874,-29852
210,245658,4.57461,-8.72813,0.655566,-85.6989,-27.334,-47.851,-0.244141,0.12207,-0.244141,-0.585938,0.674255,-0.10965,0.435791,-14121,8259,-5154,874,-29852
216,245664,4.58896,-8.71855,0.669922,-85.6989,-27.334,-47.8455,-0.0610352,0,-0.183105,-0.585938,0.674255,-0.109619,0.43576,-14122,8257,-5157,874,-29852
222,245670,4.57461,-8.69463,0.712988,-85.6989,-27.334,-47.8455,0,0.305176,0,-0.585968,0.674255,-0.109589,0.43576,-14124,8255,-5164,874,-29852
228,245676,4.57461,-8.67549,0.674707,-85.6934,-27.3395,-47.84,-0.12207,-0.0610352,-0.12207,-0.585999,0.674255,-0.109558,0.43573,-14125,8254,-5171,874,-29852
234,245682,4.63682,-8.73291,0.645996,-85.6934,-27.3395,-47.8345,0,0.0610352,0,-0.585999,0.674255,-0.109497,0.43573,-14127,8256,-5177,874,-29852
240,245688,4.57939,-8.72813,0.669922,-85.6934,-27.3395,-47.829,-0.0610352,0.366211,0.183105,-0.586029,0.674255,-0.109467,0.435699,-14127,8257,-5178,874,-29852
246,245694,4.56982,-8.71855,0.708203,-85.6879,-27.3395,-47.8235,0,0.244141,0.305176,-0.58606,0.674255,-0.109436,0.435669,-14126,8256,-5177,874,-29852
252,245700,4.54111,-8.69463,0.727344,-85.6879,-27.3395,-47.8235,0,0.0610352,0,-0.58609,0.674255,-0.109406,0.435669,-14124,8255,-5178,874,-29852
258,245706,4.52197,-8.71855,0.717773,-85.6879,-27.3395,-47.818,0,0.183105,0.183105,-0.586121,0.674255,-0.109375,0.435638,-14123,8252,-5178,874,-29852
264,245712,4.55547,-8.69941,0.698633,-85.6879,-27.3395,-47.8125,-0.12207,-0.12207,0.366211,-0.586121,0.674255,-0.109344,0.435638,-14121,8249,-5176,874,-29852
270,245718,4.52676,-8.70898,0.712988,-85.6879,-27.3395,-47.807,0.12207,0.244141,0.0610352,-0.586182,0.674255,-0.109283,0.435577,-14120,8251,-5164,874,-29852
276,245724,4.53154,-8.66592,0.727344,-85.6824,-27.3395,-47.8015,0.0610352,-0.0610352,0,-0.586212,0.674255,-0.109253,0.435547,-14120,8254,-5164,874,-29852
282,245730,4.5459,-8.67549,0.732129,-85.6824,-27.3395,-47.796,-0.0610352,-0.12207,0.244141,-0.586212,0.674255,-0.109222,0.435547,-14121,8256,-5162,874,-29852
288,245736,4.55068,-8.68984,0.722559,-85.6824,-27.3395,-47.7905,0,0,0.12207,-0.586243,0.674255,-0.109192,0.435516,-14123,8257,-5162,874,-29852
294,245742,4.5459,-8.69463,0.732129,-85.6824,-27.3395,-47.7795,-0.0610352,-0.0610352,-0.183105,-0.586273,0.674255,-0.109161,0.435486,-14126,8258,-5161,874,-29852
300,245748,4.57461,-8.73291,0.669922,-85.6824,-27.3395,-47.7795,-0.0610352,0.0610352,0.0610352,-0.586304,0.674255,-0.1091,0.435455,-14134,8256,-5160,874,-29852
306,245754,4.5459,-8.69941,0.722559,-85.6769,-27.3395,-47.774,0.0610352,0.12207,0.183105,-0.586334,0.674255,-0.10907,0.435425,-14135,8256,-5159,874,-29852
312,245760,4.53154,-8.69463,0.727344,-85.6769,-27.3395,-47.7686,-0.12207,0,0,-0.586334,0.674255,-0.109039,0.435425,-14133,8257,-5160,874,-29852
318,245766,4.56504,-8.69941,0.712988,-85.6769,-27.3395,-47.7631,-0.244141,0,0,-0.586365,0.674255,-0.109009,0.435394,-14129,8259,-5163,874,-29852
324,245772,4.5459,-8.7042,0.703418,-85.6769,-27.345,-47.7576,-0.12207,0.12207,-0.305176,-0.586365,0.674255,-0.108978,0.435364,-14126,8261,-5163,874,-29852
330,245778,4.59375,-8.74248,0.679492,-85.6769,-27.345,-47.7521,0,0.12207,0.0610352,-0.586395,0.674255,-0.108917,0.435364,-14126,8264,-5164,874,-29852
336,245784,4.55547,-8.70898,0.722559,-85.6769,-27.345,-47.7521,0.183105,0.12207,0.0610352,-0.586426,0.674255,-0.108887,0.435333,-14127,8267,-5162,874,-29852
342,245790,4.58896,-8.71855,0.703418,-85.6714,-27.345,-47.7466,0.0610352,0,0,-0.586456,0.674255,-0.108856,0.435333,-14127,8270,-5162,874,-29852
348,245796,4.61289,-8.73291,0.655566,-85.6714,-27.345,-47.7411,-0.12207,-0.12207,0.183105,-0.586456,0.674255,-0.108826,0.435303,-14123,8271,-5156,874,-29852
354,245802,4.59375,-8.76641,0.645996,-85.6714,-27.345,-47.7301,0.12207,0,0,-0.586487,0.674255,-0.108795,0.435272,-14120,8270,-5153,874,-29852
360,245808,4.61289,-8.71855,0.660352,-85.6659,-27.345,-47.7301,0.488281,0.183105,0.305176,-0.586548,0.674225,-0.108734,0.435242,-14115,8269,-5149,882,-29853
366,245814,4.56982,-8.71855,0.756055,-85.6659,-27.345,-47.7246,0.305176,0.366211,0.854492,-0.586578,0.674225,-0.108704,0.435211,-14117,8268,-5145,882,-29853
372,245820,4.53154,-8.7042,0.736914,-85.6604,-27.3395,-47.7246,0.427246,0.244141,0.671387,-0.586609,0.674194,-0.108704,0.435181,-14117,8267,-5139,882,-29853
378,245826,4.54111,-8.68506,0.746484,-85.6604,-27.3395,-47.7191,0.366211,0,0.854492,-0.58667,0.674194,-0.108673,0.43515,-14119,8267,-5135,882,-29853
384,245832,4.57461,-8.69463,0.722559,-85.6549,-27.334,-47.7081,0.244141,0.12207,0.183105,-0.5867,0.674164,-0.108673,0.43512,-14121,8266,-5132,882,-29853
390,245838,4.54111,-8.75684,0.712988,-85.6494,-27.334,-47.7081,0.244141,0.0610352,0.610352,-0.586761,0.674164,-0.108612,0.435089,-14122,8266,-5144,882,-29853
396,245844,4.56025,-8.7042,0.736914,-85.6494,-27.3285,-47.7026,0.427246,0,0.305176,-0.586823,0.674164,-0.108612,0.435059,-14124,8268,-5152,882,-29853
402,245850,4.55068,-8.65635,0.765625,-85.6439,-27.3285,-47.6971,0.0610352,0,0.305176,-0.586853,0.674133,-0.108551,0.435028,-14122,8268,-5156,882,-29853
408,245856,4.55068,-8.69941,0.674707,-85.6439,-27.3285,-47.6917,0,0,0.488281,-0.586884,0.674133,-0.108551,0.434998,-14122,8269,-5160,882,-29853
414,245862,4.57939,-8.74727,0.669922,-85.6439,-27.323,-47.6862,0.0610352,0.0610352,0.488281,-0.586884,0.674133,-0.108521,0.434967,-14121,8269,-5162,882,-29853
420,245868,4.48848,-8.62764,0.756055,-85.6384,-27.323,-47.6807,-0.0610352,-0.0610352,0.305176,-0.586945,0.674133,-0.10849,0.434937,-14121,8268,-5166,882,-29853
426,245874,4.53633,-8.71377,0.708203,-85.6384,-27.323,-47.6752,-0.244141,-0.0610352,0.366211,-0.586975,0.674133,-0.108459,0.434906,-14120,8267,-5169,882,-29853
432,245880,4.52197,-8.72813,0.708203,-85.6384,-27.323,-47.6697,-0.12207,0,0.0610352,-0.587006,0.674133,-0.108459,0.434875,-14119,8264,-5175,882,-29853
438,245886,2.26816,-4.37842,0.172266,-85.6384,-27.323,-47.6697,0.0610352,-0.0610352,0.0610352,-0.587006,0.674133,-0.108429,0.434845,-14120,8263,-5178,882,-29853
444,245892,4.53154,-8.7042,0.76084,-85.6384,-27.323,-47.6587,-0.183105,0,0.183105,-0.587036,0.674133,-0.108398,0.434814,-14121,8263,-5182,882,-29853
450,245898,4.57461,-8.72334,0.693848,-85.6384,-27.323,-47.6532,-0.183105,-0.0610352,0.12207,-0.587067,0.674133,-0.108337,0.434784,-14120,8262,-5182,882,-29853
456,245904,4.56504,-8.71855,0.703418,-85.6384,-27.323,-47.6532,-0.183105,0,0.305176,-0.587067,0.674133,-0.108307,0.434753,-14121,8261,-5180,882,-29853
462,245910,4.58896,-8.70898,0.655566,-85.6384,-27.323,-47.6477,-0.366211,0,0.305176,-0.587097,0.674133,-0.108307,0.434753,-14120,8260,-5177,882,-29853
468,245916,4.54111,-8.77598,0.655566,-85.6439,-27.323,-47.6422,-0.244141,0.12207,0.610352,-0.587097,0.674164,-0.108276,0.434723,-14121,8259,-5174,882,-29853
474,245922,4.5459,-8.79512,0.712988,-85.6384,-27.3175,-47.6367,0.244141,0.0610352,0.305176,-0.587128,0.674164,-0.108276,0.434692,-14120,8260,-5174,882,-29853
480,245928,4.56982,-8.66113,0.746484,-85.6384,-27.3175,-47.6312,-0.12207,0.0610352,0.488281,-0.587189,0.674133,-0.108215,0.434631,-14120,8260,-5180,882,-29853
486,245934,4.56982,-8.69941,0.712988,-85.6384,-27.3175,-47.6257,-0.0610352,0.244141,0.793457,-0.587219,0.674133,-0.108215,0.434601,-14119,8257,-5184,882,-29853
492,245940,4.60332,-8.7377,0.655566,-85.6384,-27.312,-47.6257,0.0610352,0,0.366211,-0.58725,0.674133,-0.108215,0.43457,-14121,8256,-5186,874,-29852
498,245946,4.57939,-8.74727,0.693848,-85.6384,-27.312,-47.6202,0.244141,0.244141,0.244141,-0.58725,0.674133,-0.108185,0.43457,-14123,8252,-5178,874,-29852
504,245952,4.55068,-8.68984,0.775195,-85.6329,-27.3065,-47.6147,0.244141,0,0.610352,-0.58728,0.674133,-0.108154,0.43454,-14129,8244,-5159,874,-29852
510,245958,4.52676,-8.74248,0.722559,-85.6274,-27.3065,-47.6093,0,0.305176,0.610352,-0.587372,0.674103,-0.108124,0.434479,-14128,8239,-5150,874,-29852
516,245964,4.52676,-8.72813,0.775195,-85.6274,-27.3065,-47.6093,0.244141,0.244141,0.671387,-0.587372,0.674103,-0.108124,0.434448,-14127,8240,-5154,874,-29852
522,245970,4.5124,-8.66113,0.736914,-85.6274,-27.301,-47.6038,0.0610352,0,0.244141,-0.587433,0.674103,-0.108124,0.434448,-14124,8240,-5157,874,-29852
528,245976,4.56982,-8.72813,0.693848,-85.6274,-27.301,-47.5983,-0.183105,0,0.549316,-0.587433,0.674072,-0.108093,0.434418,-14123,8240,-5158,874,-29852
534,245982,4.53154,-8.79512,0.741699,-85.6219,-27.301,-47.5928,0.244141,0.244141,0.12207,-0.587463,0.674072,-0.108093,0.434387,-14122,8245,-5157,874,-29852
540,245988,4.5124,-8.66592,0.746484,-85.6219,-27.301,-47.5873,-0.12207,0,0.488281,-0.587524,0.674072,-0.108032,0.434357,-14122,8249,-5156,874,-29852
546,245994,4.49805,-8.72813,0.799121,-85.6219,-27.2955,-47.5873,0,0.0610352,0.244141,-0.587555,0.674072,-0.108002,0.434326,-14121,8252,-5153,874,-29852
552,246000,4.55547,-8.73291,0.636426,-85.6165,-27.2955,-47.5818,-0.0610352,-0.244141,0.244141,-0.587585,0.674072,-0.108002,0.434296,-14120,8254,-5153,874,-29852
558,246006,4.60332,-8.78076,0.588574,-85.6165,-27.2955,-47.5763,0.0610352,-0.12207,0.427246,-0.587585,0.674072,-0.107971,0.434265,-14118,8254,-5150,874,-29852
564,246012,4.5124,-8.78076,0.698633,-85.6165,-27.29,-47.5708,0.305176,0.366211,0.488281,-0.587616,0.674072,-0.107941,0.434235,-14121,8254,-5143,874,-29852
570,246018,4.51719,-8.6707,0.775195,-85.611,-27.29,-47.5653,0.12207,0,0.427246,-0.587708,0.674042,-0.10791,0.434204,-14122,8257,-5138,874,-29852
576,246024,4.54111,-8.74727,0.722559,-85.611,-27.29,-47.5598,0.12207,0,0.488281,-0.587738,0.674011,-0.10788,0.434174,-14124,8259,-5138,874,-29852
582,246030,4.56025,-8.73291,0.617285,-85.6055,-27.2845,-47.5598,0.427246,0,0.366211,-0.587769,0.674011,-0.10788,0.434143,-14125,8260,-5136,874,-29852
588,246036,4.58418,-8.7377,0.655566,-85.6055,-27.2845,-47.5543,0.549316,0.12207,0.427246,-0.587799,0.674011,-0.107849,0.434113,-14127,8260,-5135,874,-29852
594,246042,4.57461,-8.68984,0.703418,-85.6,-27.2791,-47.5488,0.427246,0.183105,0.549316,-0.58783,0.673981,-0.107819,0.434113,-14129,8258,-5137,874,-29852
600,246048,4.45498,-8.69941,0.832617,-85.5945,-27.2791,-47.5433,0.244141,0.488281,0.549316,-0.587921,0.67395,-0.107788,0.434082,-14128,8259,-5140,874,-29852
606,246054,4.44063,-8.65156,0.837402,-85.589,-27.2791,-47.5433,0.244141,0.12207,0.366211,-0.587952,0.67395,-0.107788,0.434052,-14123,8260,-5144,874,-29852
612,246060,4.55068,-8.68506,0.717773,-85.589,-27.2736,-47.5433,-0.183105,-0.244141,0.12207,-0.587982,0.67392,-0.107758,0.434021,-14117,8261,-5148,874,-29852
618,246066,4.5459,-8.76162,0.736914,-85.589,-27.2736,-47.5378,-0.12207,0,0,-0.587982,0.67392,-0.107727,0.43399,-14112,8259,-5149,874,-29852
624,246072,4.52676,-8.70898,0.698633,-85.589,-27.2736,-47.5269,0.0610352,0,0.305176,-0.588013,0.67392,-0.107697,0.43399,-14108,8249,-5148,874,-29852
630,246078,4.55068,-8.72334,0.741699,-85.589,-27.2736,-47.5269,-0.244141,0.12207,0.427246,-0.588043,0.67392,-0.107666,0.43396,-14110,8242,-5147,874,-29852
636,246084,4.5459,-8.72813,0.689063,-85.589,-27.2736,-47.5214,-0.244141,-0.0610352,0.549316,-0.588074,0.67392,-0.107666,0.433929,-14113,8237,-5145,874,-29852
642,246090,4.58418,-8.69941,0.698633,-85.589,-27.2681,-47.5214,-0.366211,0.0610352,0.244141,-0.588074,0.67395,-0.107666,0.433899,-14115,8237,-5143,874,-29852
648,246096,4.56504,-8.76162,0.6125,-85.589,-27.2681,-47.5159,-0.610352,-0.0610352,0.610352,-0.588104,0.67395,-0.107666,0.433868,-14113,8239,-5143,874,-29852
654,246102,4.56504,-8.81426,0.660352,-85.589,-27.2681,-47.5104,-0.0610352,0.12207,0.244141,-0.588104,0.67395,-0.107666,0.433838,-14110,8244,-5152,874,-29852
660,246108,4.53633,-8.68027,0.717773,-85.589,-27.2681,-47.5049,0.183105,0.244141,0.183105,-0.588165,0.67395,-0.107605,0.433807,-14113,8246,-5156,874,-29852
666,246114,4.50283,-8.73291,0.717773,-85.589,-27.2626,-47.5049,-0.0610352,0.183105,0.366211,-0.588165,0.67395,-0.107605,0.433777,-14115,8247,-5157,874,-29852
672,246120,4.51719,-8.77598,0.698633,-85.5835,-27.2626,-47.4994,0.183105,0,0.0610352,-0.588196,0.67392,-0.107574,0.433777,-14118,8247,-5153,874,-29852
678,246126,4.54111,-8.75205,0.732129,-85.5835,-27.2626,-47.4939,0.305176,0,0.12207,-0.588226,0.67392,-0.107574,0.433746,-14121,8248,-5148,874,-29852
684,246132,4.49805,-8.68984,0.684277,-85.578,-27.2626,-47.4884,0.244141,0,0,-0.588257,0.67392,-0.107544,0.433716,-14119,8246,-5135,874,-29852
690,246138,4.48369,-8.73291,0.789551,-85.578,-27.2626,-47.4884,0.549316,0.244141,0,-0.588287,0.67392,-0.107483,0.433716,-14115,8245,-5134,874,-29852
696,246144,4.49326,-8.64678,0.741699,-85.5725,-27.2626,-47.4829,0.427246,-0.244141,-0.244141,-0.588318,0.673889,-0.107452,0.433685,-14109,8246,-5138,874,-29852
702,246150,4.53154,-8.66113,0.756055,-85.5725,-27.2681,-47.4774,0,0,-0.12207,-0.588348,0.673889,-0.107391,0.433685,-14107,8248,-5145,874,-29852
708,246156,4.50283,-8.72813,0.746484,-85.5725,-27.2681,-47.4774,0,0.305176,-0.12207,-0.588348,0.673889,-0.107361,0.433655,-14105,8252,-5150,874,-29852
714,246162,4.49805,-8.69463,0.703418,-85.567,-27.2681,-47.4719,0.12207,0.12207,-0.366211,-0.588379,0.673889,-0.1073,0.433655,-14106,8259,-5165,874,-29852
720,246168,4.52676,-8.69463,0.765625,-85.567,-27.2736,-47.4664,-0.183105,0.183105,-0.244141,-0.588409,0.673889,-0.107269,0.433655,-14105,8261,-5169,874,-29852
726,246174,4.5124,-8.72813,0.736914,-85.567,-27.2736,-47.4664,-0.366211,0,-0.183105,-0.588409,0.673889,-0.107269,0.433655,-14104,8263,-5177,882,-29853
732,246180,4.5459,-8.72813,0.712988,-85.567,-27.2736,-47.4609,-0.244141,-0.183105,-0.305176,-0.588409,0.673889,-0.107239,0.433624,-14105,8263,-5177,882,-29853
738,246186,4.56025,-8.74248,0.684277,-85.567,-27.2736,-47.4554,-0.183105,0.0610352,-0.427246,-0.588409,0.673889,-0.107208,0.433624,-14106,8263,-5177,882,-29853
744,246192,4.57939,-8.73291,0.655566,-85.567,-27.2791,-47.45,0,0,-0.183105,-0.58844,0.673889,-0.107117,0.433594,-14114,8266,-5180,882,-29853
750,246198,4.52197,-8.71377,0.712988,-85.567,-27.2791,-47.45,0.244141,0.183105,-0.183105,-0.58844,0.673889,-0.107086,0.433594,-14116,8264,-5184,882,-29853
756,246204,4.48369,-8.69941,0.799121,-85.5615,-27.2845,-47.4445,0.183105,0.0610352,-0.488281,-0.58847,0.673889,-0.107056,0.433594,-14117,8263,-5187,882,-29853
762,246210,4.53154,-8.66592,0.756055,-85.5615,-27.2845,-47.4445,0,0,-0.0610352,-0.58847,0.673889,-0.107025,0.433594,-14119,8262,-5190,882,-29853
768,246216,4.55547,-8.7377,0.712988,-85.5615,-27.2845,-47.439,-0.183105,0,0,-0.588501,0.673889,-0.106995,0.433563,-14119,8261,-5190,882,-29853
774,246222,4.53633,-8.73291,0.732129,-85.5615,-27.29,-47.4335,-0.244141,0,-0.305176,-0.588501,0.673889,-0.106934,0.433563,-14119,8263,-5188,882,-29853
780,246228,4.56025,-8.73291,0.665137,-85.5615,-27.29,-47.428,-0.183105,0.0610352,-0.427246,-0.588531,0.673889,-0.106903,0.433533,-14117,8264,-5186,882,-29853
786,246234,4.55547,-8.72334,0.684277,-85.5615,-27.29,-47.428,-0.12207,0.12207,0,-0.588531,0.673889,-0.106873,0.433533,-14116,8265,-5186,882,-29853
792,246240,4.55068,-8.72334,0.77041,-85.556,-27.29,-47.4225,-0.12207,0.183105,0,-0.588531,0.673889,-0.106873,0.433533,-14114,8267,-5187,882,-29853
798,246246,4.56504,-8.68027,0.77998,-85.556,-27.29,-47.4225,-0.0610352,0,0,-0.588531,0.673889,-0.106842,0.433533,-14116,8267,-5188,882,-29853
804,246252,4.58896,-8.68984,0.722559,-85.5615,-27.2955,-47.417,-0.488281,0,-0.244141,-0.588562,0.67392,-0.106812,0.433502,-14117,8270,-5195,882,-29853
810,246258,4.6416,-8.79033,0.617285,-85.5615,-27.2955,-47.4115,-0.366211,0,0.244141,-0.588562,0.67392,-0.106781,0.433472,-14120,8269,-5192,882,-29853
816,246264,4.59854,-8.77598,0.722559,-85.5615,-27.2955,-47.406,0,0.488281,0.427246,-0.588562,0.67395,-0.106781,0.433441,-14121,8267,-5184,882,-29853
822,246270,4.60332,-8.75205,0.636426,-85.5615,-27.29,-47.406,0,0.183105,0.793457,-0.588593,0.67392,-0.106781,0.433441,-14122,8264,-5177,882,-29853
828,246276,4.6416,-8.75684,0.674707,-85.5615,-27.29,-47.406,0,0.305176,0.976563,-0.588623,0.67392,-0.106781,0.433411,-14121,8262,-5169,882,-29853
834,246282,4.61289,-8.71377,0.645996,-85.556,-27.2791,-47.4005,-0.0610352,0.488281,0.854492,-0.588684,0.673889,-0.106812,0.43335,-14115,8261,-5156,874,-29852
840,246288,4.57461,-8.76641,0.712988,-85.556,-27.2736,-47.4005,-0.305176,0.549316,1.15967,-0.588715,0.673889,-0.106812,0.433319,-14112,8262,-5152,874,-29852
846,246294,4.53154,-8.77119,0.617285,-85.556,-27.2681,-47.4005,-0.0610352,0.488281,1.46484,-0.588715,0.673889,-0.106842,0.433289,-14110,8261,-5148,874,-29852
852,246300,4.55547,-8.7999,0.665137,-85.556,-27.2626,-47.4005,0.12207,0.366211,1.40381,-0.588745,0.673859,-0.106873,0.433258,-14108,8259,-5147,874,-29852
858,246306,4.52676,-8.71855,0.765625,-85.556,-27.2571,-47.395,0.244141,0.488281,1.46484,-0.588806,0.673859,-0.106903,0.433228,-14105,8257,-5148,874,-29852
864,246312,4.48369,-8.67549,0.803906,-85.5505,-27.2461,-47.395,0.12207,0.732422,1.15967,-0.588867,0.673828,-0.106964,0.433167,-14101,8256,-5152,874,-29852
870,246318,4.63203,-8.76162,0.645996,-85.5505,-27.2406,-47.395,-0.305176,0.244141,1.46484,-0.588898,0.673828,-0.106964,0.433136,-14100,8257,-5156,874,-29852
876,246324,4.58418,-8.81426,0.669922,-85.5505,-27.2351,-47.3895,0.183105,0.915527,1.28174,-0.588928,0.673828,-0.106995,0.433105,-14100,8258,-5163,874,-29852
882,246330,4.53633,-8.74248,0.703418,-85.545,-27.2296,-47.3895,0.610352,0.488281,1.52588,-0.588959,0.673798,-0.107025,0.433075,-14099,8259,-5169,874,-29852
888,246336,4.62246,-8.63242,0.808691,-85.5396,-27.2186,-47.3895,0.549316,0.793457,1.64795,-0.58902,0.673767,-0.107056,0.433044,-14097,8259,-5173,874,-29852
894,246342,4.55068,-8.6707,0.665137,-85.5341,-27.2021,-47.395,0,1.2207,1.95313,-0.589111,0.673676,-0.107147,0.432983,-14097,8263,-5173,874,-29852
900,246348,4.69902,-8.82383,0.488086,-85.5341,-27.1912,-47.3895,-0.854492,0.244141,2.38037,-0.589172,0.673676,-0.107208,0.432922,-14099,8265,-5173,874,-29852
906,246354,4.69424,-8.97217,0.382813,-85.5396,-27.1802,-47.3895,0,0.854492,2.62451,-0.589203,0.673706,-0.107269,0.432861,-14100,8265,-5175,874,-29852
912,246360,4.5459,-8.97217,0.468945,-85.5341,-27.1692,-47.3895,1.28174,1.15967,2.80762,-0.589233,0.673676,-0.10733,0.4328,-14099,8264,-5179,874,-29852
918,246366,4.5124,-8.78076,0.75127,-85.5286,-27.1582,-47.3895,2.13623,1.40381,2.50244,-0.589325,0.673615,-0.107391,0.43277,-14097,8264,-5185,874,-29852
924,246372,4.44063,-8.6085,0.899609,-85.5011,-27.1307,-47.4005,1.52588,1.2207,2.92969,-0.589539,0.673431,-0.107513,0.432709,-14093,8260,-5196,874,-29852
930,246378,4.53633,-8.71377,0.765625,-85.5011,-27.1198,-47.4005,0.0610352,0.12207,3.17383,-0.58963,0.673401,-0.107574,0.432648,-14093,8261,-5198,874,-29852
936,246384,4.5459,-8.80947,0.631641,-85.5011,-27.1033,-47.395,0.305176,0.610352,2.68555,-0.589691,0.673401,-0.107635,0.432556,-14093,8263,-5203,874,-29852
942,246390,4.48848,-8.79512,0.607715,-85.4956,-27.0923,-47.395,0.610352,1.0376,2.80762,-0.589752,0.67337,-0.107697,0.432495,-14092,8263,-5203,874,-29852
948,246396,4.41191,-8.78555,0.794336,-85.4901,-27.0758,-47.395,1.09863,0.427246,2.62451,-0.589844,0.673309,-0.107788,0.432434,-14090,8263,-5201,874,-29852
954,246402,4.33535,-8.6085,0.904395,-85.4791,-27.0538,-47.395,0.915527,0.976563,2.38037,-0.589996,0.673218,-0.10788,0.432343,-14088,8260,-5201,874,-29852
960,246408,4.33057,-8.68984,0.904395,-85.4736,-27.0428,-47.395,-0.305176,0.244141,1.64795,-0.590057,0.673187,-0.10791,0.432281,-14088,8261,-5196,874,-29852
966,246414,4.40713,-8.68506,0.736914,-85.4791,-27.0374,-47.3895,-0.610352,-0.12207,1.34277,-0.590088,0.673187,-0.107941,0.432251,-14088,8263,-5190,874,-29852
972,246420,4.49326,-8.80469,0.693848,-85.4791,-27.0319,-47.384,-0.488281,0.183105,1.52588,-0.590118,0.673218,-0.107971,0.43219,-14086,8264,-5182,874,-29852
978,246426,4.44541,-8.81426,0.669922,-85.4791,-27.0264,-47.384,0,0.671387,1.2207,-0.590118,0.673218,-0.108002,0.432159,-14086,8266,-5176,874,-29852
984,246432,4.52197,-8.74248,0.669922,-85.4791,-27.0154,-47.3785,0.12207,0.0610352,1.15967,-0.59021,0.673187,-0.108063,0.432098,-14088,8272,-5175,874,-29852
990,246438,4.54111,-8.79512,0.641211,-85.4736,-27.0099,-47.3785,0.12207,0.610352,1.28174,-0.59024,0.673157,-0.108063,0.432068,-14090,8275,-5168,874,-29852
996,246444,4.56504,-8.82383,0.636426,-85.4736,-27.0044,-47.3785,0.549316,0.488281,1.28174,-0.590271,0.673157,-0.108093,0.432037,-14092,8277,-5161,874,-29852
1002,246450,4.53633,-8.81904,0.650781,-85.4681,-26.9989,-47.3785,0.793457,0.183105,1.64795,-0.590332,0.673126,-0.108124,0.432007,-14091,8279,-5158,874,-29852
1008,246456,4.55068,-8.80947,0.593359,-85.4572,-26.9824,-47.373,0.976563,0.366211,1.83105,-0.590393,0.673096,-0.108124,0.431946,-14090,8278,-5151,874,-29852
1014,246462,4.47412,-8.77598,0.6125,-85.4517,-26.9714,-47.373,1.28174,0.305176,2.01416,-0.590515,0.673004,-0.108185,0.431885,-14087,8280,-5148,874,-29852
1020,246468,4.48848,-8.7999,0.799121,-85.4462,-26.9604,-47.373,1.70898,0.12207,1.89209,-0.590607,0.672974,-0.108185,0.431824,-14087,8282,-5150,874,-29852
1026,246474,4.44063,-8.73291,0.827832,-85.4352,-26.955,-47.3676,1.77002,0.0610352,2.13623,-0.590698,0.672913,-0.108185,0.431793,-14086,8283,-5152,874,-29852
1032,246480,4.40234,-8.69941,0.808691,-85.4297,-26.944,-47.3676,1.58691,-0.12207,1.89209,-0.59079,0.672852,-0.108215,0.431732,-14089,8283,-5155,874,-29852
1038,246486,4.43584,-8.71855,0.823047,-85.4132,-26.9275,-47.3566,1.28174,-0.0610352,1.64795,-0.590912,0.672821,-0.108215,0.431671,-14092,8284,-5163,874,-29852
1044,246492,4.40713,-8.82861,0.76084,-85.4077,-26.922,-47.3511,1.15967,-0.427246,1.83105,-0.591034,0.672729,-0.108185,0.43158,-14098,8287,-5177,874,-29852
1050,246498,4.3832,-8.77598,0.712988,-85.4077,-26.911,-47.3456,1.58691,-0.12207,1.15967,-0.591125,0.672729,-0.108185,0.431519,-14100,8288,-5183,874,-29852
1056,246504,4.46455,-8.71377,0.732129,-85.3967,-26.9055,-47.3456,1.58691,-0.488281,1.2207,-0.591217,0.672668,-0.108185,0.431458,-14099,8291,-5190,874,-29852
1062,246510,4.46455,-8.73291,0.765625,-85.3912,-26.9,-47.3346,1.46484,-0.366211,1.52588,-0.591278,0.672638,-0.108154,0.431427,-14098,8292,-5194,874,-29852
1068,246516,4.43105,-8.76162,0.75127,-85.3802,-26.889,-47.3291,1.28174,-0.183105,1.15967,-0.59137,0.672607,-0.108154,0.431366,-14095,8293,-5195,874,-29852
1074,246522,4.39277,-8.74727,0.76084,-85.3748,-26.8835,-47.3236,1.34277,-0.12207,0.488281,-0.591522,0.672546,-0.108093,0.431274,-14089,8293,-5203,874,-29852
1080,246528,4.39756,-8.69463,0.823047,-85.3638,-26.8835,-47.3181,1.40381,-0.427246,0.610352,-0.591583,0.672485,-0.108063,0.431274,-14088,8295,-5206,874,-29852
1086,246534,4.40234,-8.69941,0.813477,-85.3583,-26.8781,-47.3126,1.0376,-0.488281,0.488281,-0.591644,0.672455,-0.108032,0.431213,-14087,8297,-5210,874,-29852
1092,246540,4.40713,-8.70898,0.842188,-85.3528,-26.8781,-47.3071,0.732422,-0.488281,0.366211,-0.591705,0.672455,-0.108002,0.431183,-14087,8298,-5208,874,-29852
1098,246546,4.37842,-8.72813,0.813477,-85.3473,-26.8781,-47.2961,0.915527,-0.244141,0.305176,-0.591736,0.672424,-0.107971,0.431152,-14086,8299,-5208,874,-29852
1104,246552,4.33057,-8.66113,0.813477,-85.3418,-26.8726,-47.2906,0.427246,-0.488281,-0.305176,-0.591827,0.672394,-0.10788,0.431091,-14086,8297,-5200,874,-29852
1110,246558,4.33535,-8.68506,0.808691,-85.3418,-26.8781,-47.2852,0,-0.549316,-0.366211,-0.591858,0.672394,-0.107849,0.431091,-14084,8297,-5205,874,-29852
1116,246564,4.34971,-8.72334,0.77998,-85.3418,-26.8781,-47.2797,0.12207,-0.732422,-0.12207,-0.591888,0.672394,-0.107788,0.431061,-14083,8299,-5210,874,-29852
1122,246570,4.3832,-8.73291,0.789551,-85.3418,-26.8781,-47.2742,0.183105,-0.732422,-0.732422,-0.591888,0.672424,-0.107758,0.43103,-14082,8299,-5214,874,-29852
1128,246576,4.3832,-8.7042,0.77041,-85.3418,-26.889,-47.2632,0.244141,-0.549316,-1.0376,-0.591919,0.672424,-0.107697,0.43103,-14082,8299,-5217,874,-29852
1134,246582,4.35928,-8.71855,0.789551,-85.3418,-26.8945,-47.2577,0,-0.366211,-1.28174,-0.591919,0.672424,-0.107574,0.431,-14083,8298,-5218,874,-29852
1140,246588,4.45498,-8.76641,0.76084,-85.3418,-26.9,-47.2522,0,-0.610352,-1.58691,-0.591919,0.672455,-0.107513,0.43103,-14085,8298,-5217,874,-29852
1146,246594,4.48848,-8.75684,0.708203,-85.3418,-26.9055,-47.2467,0,-0.793457,-1.46484,-0.591888,0.672455,-0.107422,0.43103,-14084,8298,-5215,874,-29852
1152,246600,4.46934,-8.7999,0.698633,-85.3418,-26.911,-47.2412,0.244141,-0.366211,-1.15967,-0.591888,0.672485,-0.107361,0.43103,-14084,8300,-5214,874,-29852
1158,246606,4.45977,-8.78076,0.722559,-85.3363,-26.922,-47.2302,0.427246,-0.610352,-1.15967,-0.591888,0.672485,-0.107269,0.43103,-14082,8299,-5199,874,-29852
1164,246612,4.49326,-8.73291,0.789551,-85.3363,-26.933,-47.2302,0.305176,-0.610352,-1.52588,-0.591919,0.672485,-0.107147,0.43103,-14080,8300,-5193,874,-29852
1170,246618,4.45498,-8.74248,0.794336,-85.3363,-26.9385,-47.2247,0.183105,-0.488281,-1.28174,-0.591919,0.672516,-0.107056,0.431061,-14076,8299,-5189,874,-29852
1176,246624,4.4167,-8.81426,0.794336,-85.3363,-26.944,-47.2192,0.244141,-0.793457,-1.28174,-0.591919,0.672516,-0.106995,0.431061,-14070,8299,-5187,874,-29852
1182,246630,4.43584,-8.77119,0.803906,-85.3363,-26.9495,-47.2137,0.305176,-1.0376,-1.28174,-0.591919,0.672516,-0.106903,0.431061,-14065,8298,-5187,874,-29852
1188,246636,4.42148,-8.71377,0.851758,-85.3363,-26.9659,-47.1973,0.366211,-1.09863,-1.40381,-0.591919,0.672546,-0.106812,0.43103,-14062,8300,-5194,874,-29852
1194,246642,4.34971,-8.74727,0.827832,-85.3363,-26.9714,-47.1863,-0.12207,-2.0752,-1.64795,-0.591949,0.672577,-0.106628,0.431,-14065,8301,-5202,874,-29852
1200,246648,4.40234,-8.77598,0.823047,-85.3418,-26.9769,-47.1698,0,-1.89209,-1.89209,-0.591919,0.672638,-0.106537,0.430969,-14067,8301,-5210,874,-29852
1206,246654,4.40234,-8.71855,0.77998,-85.3418,-26.9879,-47.1588,-0.244141,-2.19727,-1.64795,-0.591919,0.672668,-0.106415,0.430939,-14068,8301,-5215,874,-29852
1212,246660,4.46934,-8.74248,0.808691,-85.3473,-26.9934,-47.1478,0.0610352,-2.50244,-2.0752,-0.591919,0.672699,-0.106293,0.430908,-14071,8300,-5219,874,-29852
1218,246666,4.47891,-8.90518,0.708203,-85.3528,-27.0209,-47.1094,0.793457,-3.17383,-2.62451,-0.591919,0.67276,-0.10614,0.430878,-14074,8297,-5220,874,-29852
1224,246672,4.6751,-8.65156,0.669922,-85.3528,-27.0264,-47.0929,0.671387,-1.52588,-1.28174,-0.59198,0.672821,-0.105774,0.430756,-14075,8296,-5220,874,-29852
1230,246678,4.45498,-8.74727,0.722559,-85.3528,-27.0319,-47.0819,0.305176,-2.13623,-0.732422,-0.59198,0.672852,-0.105682,0.430756,-14076,8294,-5220,874,-29852
1236,246684,4.46934,-8.81904,0.746484,-85.3583,-27.0374,-47.0654,0.610352,-2.68555,-1.09863,-0.59201,0.672882,-0.105591,0.430695,-14077,8292,-5220,874,-29852
1242,246690,4.48369,-8.77119,0.727344,-85.3583,-27.0428,-47.049,1.0376,-1.83105,-1.15967,-0.592041,0.672913,-0.105438,0.430634,-14079,8292,-5224,874,-29852
1248,246696,4.37363,-8.65635,0.794336,-85.3583,-27.0593,-47.0215,0.976563,-2.13623,-1.28174,-0.592072,0.672913,-0.105347,0.430603,-14081,8292,-5234,874,-29852
1254,246702,4.47412,-8.65156,0.885254,-85.3583,-27.0648,-47.005,-0.0610352,-3.11279,-1.46484,-0.592102,0.673004,-0.105072,0.430511,-14082,8294,-5237,874,-29852
1260,246708,4.44541,-8.69463,0.832617,-85.3693,-27.0758,-46.983,-0.488281,-2.56348,-1.83105,-0.592133,0.673065,-0.104919,0.43042,-14082,8296,-5236,874,-29852
1266,246714,4.43584,-8.76162,0.813477,-85.3748,-27.0813,-46.972,-0.610352,-2.86865,-1.89209,-0.592102,0.673126,-0.104797,0.430389,-14081,8296,-5231,874,-29852
1272,246720,4.50762,-8.73291,0.784766,-85.3802,-27.0923,-46.9501,-0.610352,-3.17383,-2.13623,-0.592072,0.673187,-0.104675,0.430328,-14083,8297,-5228,874,-29852
1278,246726,4.55547,-8.68984,0.698633,-85.4022,-27.1143,-46.9116,-0.793457,-2.99072,-2.19727,-0.592072,0.673279,-0.104523,0.430267,-14084,8293,-5225,874,-29852
1284,246732,4.91436,-8.82861,0.531152,-85.4132,-27.1252,-46.8951,-0.610352,-3.17383,-0.793457,-0.59201,0.673431,-0.104248,0.430145,-14086,8290,-5227,866,-29851
1290,246738,4.9335,-8.8334,0.449805,-85.4242,-27.1307,-46.8732,-0.305176,-2.01416,0,-0.59201,0.673523,-0.104126,0.430054,-14089,8288,-5230,866,-29851
1296,246744,4.83301,-8.81904,0.45459,-85.4297,-27.1307,-46.8567,-0.183105,-0.549316,0.549316,-0.59201,0.673553,-0.104065,0.429993,-14090,8287,-5231,866,-29851
1302,246750,4.56982,-8.7999,0.655566,-85.4297,-27.1307,-46.8512,0.244141,0.183105,0.793457,-0.592041,0.673584,-0.104034,0.429962,-14090,8286,-5234,874,-29852
1308,246756,4.42148,-8.72813,0.823047,-85.4242,-27.1252,-46.8512,0.366211,-0.12207,0.305176,-0.592072,0.673553,-0.104034,0.429932,-14086,8285,-5232,874,-29852
1314,246762,4.36406,-8.68506,0.77998,-85.4297,-27.1252,-46.8402,-0.488281,-0.854492,0.12207,-0.592102,0.673553,-0.104004,0.429871,-14083,8285,-5226,874,-29852
1320,246768,4.52197,-8.72813,0.698633,-85.4297,-27.1252,-46.8347,-0.183105,-1.34277,0.549316,-0.592133,0.673584,-0.103973,0.42984,-14080,8284,-5220,874,-29852
1326,246774,4.74688,-8.8334,0.521582,-85.4352,-27.1198,-46.8237,-0.183105,-1.0376,0.305176,-0.592133,0.673615,-0.103943,0.429749,-14076,8284,-5214,874,-29852
1332,246780,4.68945,-8.89082,0.47373,-85.4407,-27.1198,-46.8182,0.549316,0,0.549316,-0.592163,0.673645,-0.103912,0.429718,-14074,8284,-5201,874,-29852
1338,246786,4.56025,-8.85254,0.564648,-85.4297,-27.1143,-46.8127,1.0376,0.366211,1.09863,-0.592194,0.673615,-0.103912,0.429688,-14076,8288,-5191,874,-29852
1344,246792,4.66553,-8.81904,0.555078,-85.4242,-27.1088,-46.8127,2.13623,-0.427246,1.58691,-0.592316,0.673553,-0.103882,0.429626,-14077,8289,-5188,874,-29852
1350,246798,4.8043,-8.85732,0.507227,-85.4132,-27.1033,-46.8073,2.2583,-0.427246,2.13623,-0.592438,0.673492,-0.103882,0.429596,-14079,8289,-5186,874,-29852
1356,246804,4.88086,-8.88603,0.435449,-85.4022,-27.0923,-46.8018,2.31934,0.0610352,2.74658,-0.592529,0.673431,-0.103851,0.429504,-14078,8291,-5188,874,-29852
1362,246810,4.90479,-9.00566,0.373242,-85.3912,-27.0813,-46.7963,3.35693,0.732422,3.41797,-0.592651,0.67337,-0.103882,0.429443,-14080,8292,-5190,874,-29852
1368,246816,4.65596,-8.93867,0.631641,-85.3528,-27.0483,-46.8073,3.78418,2.50244,3.2959,-0.592804,0.673248,-0.103912,0.429382,-14084,8298,-5197,874,-29852
1374,246822,4.45498,-8.68506,0.894824,-85.3253,-27.0319,-46.8127,3.2959,1.46484,3.60107,-0.59317,0.672943,-0.104065,0.429382,-14087,8299,-5195,874,-29852
1380,246828,4.4502,-8.72334,0.91875,-85.3088,-27.0099,-46.8182,2.56348,1.64795,3.66211,-0.593323,0.672821,-0.104126,0.429321,-14088,8299,-5191,874,-29852
1386,246834,4.45977,-8.7042,0.866113,-85.2924,-26.9934,-46.8237,2.50244,0.854492,3.78418,-0.593445,0.672729,-0.104187,0.429291,-14088,8298,-5191,874,-29852
1392,246840,4.56982,-8.69463,0.851758,-85.2814,-26.9769,-46.8237,2.0752,1.09863,3.72314,-0.593597,0.672638,-0.104279,0.42923,-14084,8297,-5184,874,-29852
1398,246846,4.49805,-8.75684,0.827832,-85.2594,-26.944,-46.8292,1.52588,1.34277,3.60107,-0.593719,0.672546,-0.10434,0.429169,-14082,8302,-5189,874,-29852
1404,246852,4.47412,-8.75684,0.846973,-85.2484,-26.922,-46.8347,1.46484,1.46484,3.60107,-0.593933,0.672394,-0.104523,0.429047,-14081,8303,-5193,874,-29852
1410,246858,4.50762,-8.78555,0.789551,-85.2374,-26.9055,-46.8347,1.34277,0.793457,3.66211,-0.594055,0.672333,-0.104614,0.429016,-14080,8303,-5195,874,-29852
1416,246864,4.56982,-8.84297,0.727344,-85.2319,-26.889,-46.8402,1.70898,0.427246,3.84521,-0.594147,0.672272,-0.104706,0.428925,-14078,8302,-5196,874,-29852
1422,246870,4.59375,-8.92432,0.579004,-85.2209,-26.8726,-46.8347,2.2583,0.366211,4.08936,-0.594269,0.67218,-0.104767,0.428833,-14075,8300,-5194,874,-29852
1428,246876,4.84736,-9.04395,0.540723,-85.199,-26.8286,-46.8292,2.80762,0.183105,4.82178,-0.594574,0.672028,-0.104919,0.42865,-14071,8292,-5194,874,-29852
1434,246882,4.72773,-9.08223,0.459375,-85.177,-26.8066,-46.8292,5.61523,1.58691,5.49316,-0.594788,0.671875,-0.10498,0.428558,-14071,8293,-5199,874,-29852
1440,246888,4.61289,-9.06309,0.550293,-85.1495,-26.7792,-46.8347,6.28662,1.95313,6.40869,-0.595062,0.671692,-0.105072,0.428467,-14072,8293,-5205,874,-29852
1446,246894,4.50762,-9.04395,0.756055,-85.1166,-26.7462,-46.8402,7.8125,2.01416,6.5918,-0.595337,0.671478,-0.105164,0.428375,-14073,8296,-5209,874,-29852
1452,246900,4.53633,-8.89561,0.564648,-85.0726,-26.7188,-46.8457,8.23975,1.83105,6.71387,-0.595673,0.671204,-0.105255,0.428314,-14075,8299,-5214,874,-29852
1458,246906,4.57461,-8.7999,0.712988,-84.9902,-26.6528,-46.8512,7.99561,1.40381,7.08008,-0.596375,0.670685,-0.105408,0.428101,-14076,8306,-5210,874,-29852
1464,246912,4.321,-8.68027,0.832617,-84.9463,-26.6199,-46.8567,8.36182,2.2583,6.40869,-0.59671,0.670441,-0.105469,0.42804,-14074,8310,-5209,874,-29852
1470,246918,4.34971,-8.69941,0.736914,-84.9023,-26.5869,-46.8677,7.75146,1.89209,6.46973,-0.597046,0.670166,-0.10553,0.427948,-14073,8313,-5204,874,-29852
1476,246924,4.56504,-8.98174,0.77041,-84.8639,-26.5594,-46.8677,7.20215,0.671387,6.71387,-0.597382,0.669891,-0.105621,0.427887,-14072,8315,-5203,874,-29852
1482,246930,4.66553,-9.10137,0.736914,-84.8309,-26.5265,-46.8677,8.66699,0.305176,6.95801,-0.597717,0.669678,-0.105682,0.427765,-14071,8315,-5201,874,-29852
1488,246936,4.66074,-8.98652,0.660352,-84.743,-26.4606,-46.8622,9.58252,0.549316,7.01904,-0.59848,0.669159,-0.105713,0.42749,-14069,8313,-5203,874,-29852
1494,246942,4.53154,-8.89561,1.01924,-84.6936,-26.4221,-46.8622,10.1929,0.854492,7.69043,-0.598877,0.668884,-0.105743,0.427368,-14068,8312,-5208,874,-29852
1500,246948,4.36406,-8.88603,0.933105,-84.6442,-26.3892,-46.8567,10.6201,0.183105,7.8125,-0.599304,0.668579,-0.105804,0.427216,-14067,8313,-5214,874,-29852
1506,246954,4.39277,-8.90518,0.870898,-84.5947,-26.3507,-46.8512,10.498,-0.366211,7.99561,-0.599762,0.668274,-0.105804,0.427094,-14065,8315,-5220,874,-29852
1512,246960,4.5459,-9.01045,0.985742,-84.5508,-26.3123,-46.8457,10.7422,-0.732422,8.42285,-0.600189,0.667969,-0.105804,0.42691,-14062,8317,-5225,874,-29852
1518,246966,4.56025,-8.94346,0.933105,-84.4519,-26.2354,-46.8292,10.9253,-0.12207,8.60596,-0.601135,0.667389,-0.105835,0.426544,-14057,8318,-5233,866,-29851
1524,246972,4.41191,-8.83818,1.0623,-84.4025,-26.1914,-46.8182,9.46045,-0.244141,9.94873,-0.601593,0.667084,-0.105927,0.426331,-14054,8320,-5236,866,-29851
1530,246978,4.33535,-8.7377,0.985742,-84.364,-26.142,-46.8127,9.27734,0.549316,10.0708,-0.602051,0.666809,-0.106018,0.426086,-14051,8320,-5244,866,-29851
1536,246984,4.35928,-8.76162,0.899609,-84.3201,-26.0925,-46.8073,8.8501,0.0610352,10.2539,-0.602478,0.666534,-0.10611,0.425903,-14046,8319,-5252,866,-29851
1542,246990,4.45977,-8.77119,1.06709,-84.2761,-26.0486,-46.7963,8.05664,0,10.9863,-0.602905,0.66626,-0.106232,0.425659,-14041,8317,-5260,866,-29851
1548,246996,4.49805,-8.78076,0.957031,-84.2047,-25.9387,-46.7853,7.87354,0.732422,11.3525,-0.60376,0.665741,-0.106537,0.425171,-14036,8313,-5278,866,-29851
1554,247002,4.46934,-8.89082,0.966602,-84.1718,-25.8838,-46.7853,7.75146,0.854492,12.3291,-0.604187,0.665497,-0.10675,0.424927,-14034,8314,-5283,866,-29851
1560,247008,4.53633,-8.81426,1.07187,-84.1333,-25.8289,-46.7798,7.44629,2.01416,12.5122,-0.604614,0.665222,-0.106964,0.424683,-14032,8316,-5290,866,-29851
1566,247014,4.31621,-8.65156,1.20107,-84.0948,-25.7684,-46.7798,7.32422,2.50244,13.2446,-0.605042,0.664948,-0.107208,0.424438,-14030,8324,-5292,866,-29851
1572,247020,4.20137,-8.53193,1.09102,-84.0564,-25.7025,-46.7853,5.31006,2.0752,12.8174,-0.605469,0.664642,-0.107513,0.424194,-14027,8330,-5292,866,-29851
1578,247026,4.19658,-8.77598,1.18672,-84.007,-25.5762,-46.7853,3.96729,1.64795,13.3057,-0.606201,0.664246,-0.108124,0.423676,-14021,8341,-5291,866,-29851
1584,247032,4.25879,-8.88603,1.13408,-83.9905,-25.5157,-46.7908,2.50244,1.40381,13.0005,-0.606506,0.664063,-0.108459,0.423431,-14017,8345,-5293,866,-29851
1590,247038,4.32578,-8.9291,1.26807,-83.9795,-25.4553,-46.7853,2.62451,1.77002,12.8784,-0.606812,0.66391,-0.108795,0.423126,-14012,8348,-5295,866,-29851
1596,247044,4.20137,-8.77598,1.30635,-83.9685,-25.3949,-46.7853,2.80762,2.56348,12.8784,-0.607117,0.663757,-0.109131,0.422852,-14008,8351,-5295,866,-29851
1602,247050,4.03389,-8.71377,1.34941,-83.9465,-25.3345,-46.7908,1.77002,2.2583,12.7563,-0.607422,0.663574,-0.109467,0.422607,-14003,8355,-5294,866,-29851
1608,247056,4.01475,-8.75205,1.11973,-83.9301,-25.2136,-46.7963,0.671387,1.70898,12.5122,-0.607941,0.66333,-0.110199,0.422089,-14000,8364,-5293,866,-29851
1614,247062,4.08174,-8.89561,1.08145,-83.9301,-25.1532,-46.7908,-0.366211,0.610352,12.2681,-0.608154,0.663269,-0.110535,0.421783,-13998,8368,-5297,866,-29851
1620,247068,4.08652,-8.92432,0.980957,-83.9355,-25.0983,-46.7853,0.12207,0.976563,11.7188,-0.608368,0.663208,-0.110901,0.421478,-13994,8372,-5306,866,-29851
1626,247074,4.06738,-8.91475,0.933105,-83.9355,-25.0433,-46.7798,0.0610352,1.09863,11.6577,-0.608582,0.663116,-0.111206,0.421204,-13987,8376,-5314,866,-29851
1632,247080,4.0291,-8.90039,1.03359,-83.9301,-24.9829,-46.7798,0.915527,1.09863,11.2915,-0.608795,0.663025,-0.111542,0.420929,-13980,8378,-5325,866,-29851
1638,247086,3.90947,-8.71855,0.980957,-83.9191,-24.8785,-46.7743,1.15967,1.09863,10.9253,-0.609253,0.662842,-0.112152,0.420441,-13968,8382,-5331,866,-29851
1644,247092,3.95254,-8.77598,0.851758,-83.9191,-24.8291,-46.7688,0,0.305176,10.498,-0.609467,0.66275,-0.112427,0.420166,-13962,8381,-5333,866,-29851
1650,247098,3.99082,-8.90518,0.856543,-83.9191,-24.7797,-46.7633,0.244141,0.244141,10.7422,-0.60968,0.662689,-0.112701,0.419891,-13957,8380,-5326,866,-29851
1656,247104,3.90469,-8.89561,0.698633,-83.9191,-24.7247,-46.7578,0.854492,0.854492,10.2539,-0.609863,0.662628,-0.112976,0.419617,-13954,8377,-5321,866,-29851
1662,247110,3.89512,-8.9291,0.851758,-83.9136,-24.6753,-46.7523,1.46484,0.732422,9.8877,-0.610077,0.662537,-0.113251,0.419373,-13951,8374,-5317,866,-29851
1668,247116,3.66543,-8.57022,0.942676,-83.8916,-24.5874,-46.7523,2.44141,1.58691,9.09424,-0.610535,0.662323,-0.113739,0.418976,-13946,8377,-5319,866,-29851
1674,247122,3.69414,-8.56065,0.942676,-83.8751,-24.5435,-46.7523,1.34277,0.671387,7.99561,-0.610779,0.66217,-0.113953,0.418793,-13941,8382,-5321,866,-29851
1680,247128,3.7707,-8.71855,0.942676,-83.8696,-24.505,-46.7468,0.915527,0.244141,7.44629,-0.610962,0.662079,-0.114136,0.41861,-13937,8386,-5325,866,-29851
1686,247134,3.71328,-8.84775,0.985742,-83.8641,-24.472,-46.7413,1.70898,0.549316,6.95801,-0.611145,0.662018,-0.114319,0.418396,-13931,8390,-5330,866,-29851
1692,247140,3.75156,-8.74727,0.913965,-83.8586,-24.4391,-46.7413,1.95313,0.488281,6.22559,-0.611298,0.661926,-0.114502,0.418243,-13928,8393,-5338,866,-29851
1698,247146,3.70371,-8.75205,1.04795,-83.8367,-24.3787,-46.7358,2.0752,0.427246,5.85938,-0.611664,0.661743,-0.114746,0.417969,-13919,8399,-5358,866,-29851
1704,247152,3.69414,-8.72813,0.980957,-83.8202,-24.3567,-46.7358,2.13623,0,4.3335,-0.611816,0.661621,-0.114838,0.417877,-13914,8404,-5368,866,-29851
1710,247158,3.77549,-8.81904,0.966602,-83.8092,-24.3347,-46.7303,2.0752,0,3.84521,-0.611969,0.66156,-0.114929,0.417755,-13908,8409,-5371,866,-29851
1716,247164,3.7085,-8.82861,0.90918,-83.8037,-24.3182,-46.7249,2.62451,0.183105,3.41797,-0.612091,0.661469,-0.11499,0.417664,-13905,8415,-5373,866,-29851
1722,247170,3.71328,-8.82383,0.784766,-83.7762,-24.2853,-46.7194,2.56348,-0.488281,2.80762,-0.612244,0.661407,-0.115021,0.417572,-13902,8418,-5369,866,-29851
1728,247176,3.68936,-8.82861,0.775195,-83.7653,-24.2743,-46.7139,2.99072,-0.12207,1.46484,-0.612518,0.661224,-0.115021,0.41745,-13900,8421,-5356,866,-29851
1734,247182,3.74678,-8.86211,0.842188,-83.7488,-24.2688,-46.7084,3.17383,-0.488281,0.915527,-0.61264,0.661163,-0.115021,0.417389,-13896,8419,-5352,866,-29851
1740,247188,3.74199,-8.81426,0.885254,-83.7378,-24.2633,-46.7084,3.96729,0,-0.0610352,-0.612732,0.661072,-0.11496,0.417358,-13892,8420,-5355,866,-29851
1746,247194,3.75156,-8.7999,0.966602,-83.7158,-24.2633,-46.7029,4.45557,0.427246,-0.366211,-0.612854,0.66098,-0.114899,0.417358,-13888,8421,-5361,866,-29851
1752,247200,3.77549,-8.80947,1.11016,-83.6664,-24.2688,-46.7084,4.88281,0.549316,-1.0376,-0.612976,0.660858,-0.114807,0.417389,-13881,8422,-5367,866,-29851
1758,247206,3.78027,-8.80947,0.794336,-83.6444,-24.2743,-46.7084,5.12695,1.09863,-2.01416,-0.61322,0.660583,-0.114563,0.417542,-13877,8424,-5384,866,-29851
1764,247212,3.73242,-8.9291,0.679492,-83.6169,-24.2798,-46.7139,5.5542,1.2207,-2.68555,-0.613342,0.660461,-0.114441,0.417633,-13875,8425,-5385,866,-29851
1770,247218,3.71328,-8.92432,0.76084,-83.584,-24.2908,-46.7194,6.16455,0.549316,-3.05176,-0.613464,0.660309,-0.114319,0.417725,-13876,8425,-5385,866,-29851
1776,247224,3.76113,-8.82383,0.923535,-83.5565,-24.3073,-46.7249,6.95801,0.732422,-3.78418,-0.613586,0.660156,-0.114136,0.417847,-13874,8425,-5383,866,-29851
1782,247230,3.67979,-8.69941,1.04795,-83.4796,-24.3402,-46.7358,7.26318,1.2207,-4.3335,-0.613708,0.659973,-0.113922,0.417969,-13871,8424,-5386,866,-29851
1788,247236,3.72285,-8.6707,1.32549,-83.4412,-24.3622,-46.7413,5.92041,0.976563,-5.79834,-0.613953,0.659607,-0.113464,0.418335,-13868,8426,-5396,866,-29851
1794,247242,3.85205,-8.77598,1.38291,-83.4082,-24.3896,-46.7523,4.94385,0.366211,-6.04248,-0.614014,0.659454,-0.11322,0.418518,-13868,8426,-5400,866,-29851
1800,247248,4.07695,-8.89082,1.41641,-83.3862,-24.4171,-46.7578,4.21143,-0.732422,-5.98145,-0.614044,0.659363,-0.112976,0.418701,-13869,8427,-5401,866,-29851
1806,247254,4.25879,-8.95781,1.53125,-83.3643,-24.4446,-46.7523,3.60107,-0.183105,-5.92041,-0.614075,0.659302,-0.112732,0.418854,-13867,8425,-5401,866,-29851
1812,247260,4.22051,-8.91953,1.50732,-83.3258,-24.4995,-46.7578,3.2959,0,-5.7373,-0.614075,0.65921,-0.112488,0.418976,-13868,8421,-5402,866,-29851
1818,247266,4.00996,-8.77598,1.49775,-83.3148,-24.5215,-46.7578,2.01416,0.244141,-5.85938,-0.614075,0.659119,-0.112091,0.419281,-13871,8415,-5410,866,-29851
1824,247272,4.0626,-8.61807,1.34941,-83.2983,-24.549,-46.7633,1.15967,-0.610352,-5.85938,-0.614044,0.659088,-0.111877,0.419434,-13875,8412,-5413,866,-29851
1830,247278,4.254,-8.72813,1.27285,-83.2928,-24.5764,-46.7578,-0.854492,-1.34277,-5.43213,-0.614014,0.659088,-0.111664,0.419556,-13878,8411,-5418,866,-29851
1836,247284,4.32578,-8.9626,1.10537,-83.2983,-24.6039,-46.7523,-1.46484,-1.15967,-4.76074,-0.613892,0.659149,-0.111481,0.419647,-13879,8409,-5419,866,-29851
1842,247290,4.321,-9.15879,0.866113,-83.3093,-24.6478,-46.7413,-0.976563,-1.46484,-4.5166,-0.6138,0.659241,-0.111359,0.419708,-13880,8407,-5415,866,-29851
1848,247296,4.30186,-9.07744,0.937891,-83.3093,-24.6643,-46.7358,1.40381,-0.732422,-3.66211,-0.613678,0.659332,-0.111023,0.41983,-13882,8402,-5405,866,-29851
1854,247302,4.24922,-8.96738,1.03359,-83.3038,-24.6808,-46.7303,1.34277,-1.15967,-2.62451,-0.613678,0.659302,-0.11087,0.419891,-13884,8398,-5400,866,-29851
1860,247308,4.1583,-8.97217,1.01445,-83.2983,-24.6973,-46.7249,1.2207,-0.915527,-2.44141,-0.613678,0.659302,-0.110748,0.419922,-13888,8398,-5397,866,-29851
1866,247314,4.06738,-9.01045,0.971387,-83.2928,-24.7083,-46.7194,0.976563,-1.28174,-1.95313,-0.613678,0.659302,-0.110626,0.419952,-13891,8396,-5398,866,-29851
1872,247320,3.91426,-8.94346,0.885254,-83.2819,-24.7247,-46.7084,1.34277,-1.15967,-2.38037,-0.613708,0.659302,-0.110504,0.419952,-13896,8389,-5398,866,-29851
1878,247326,3.88555,-8.82383,1.16279,-83.2764,-24.7357,-46.6974,2.2583,-2.50244,-2.31934,-0.613739,0.659302,-0.110229,0.420013,-13899,8386,-5401,857,-29850
1884,247332,4.10566,-8.90039,1.23457,-83.2709,-24.7467,-46.6864,1.58691,-3.78418,-1.58691,-0.61377,0.659271,-0.110077,0.419983,-13901,8382,-5401,857,-29850
1890,247338,4.29229,-8.87646,0.885254,-83.2709,-24.7577,-46.6644,1.64795,-3.17383,-0.549316,-0.613831,0.659302,-0.109894,0.419922,-13900,8381,-5402,857,-29850
1896,247344,3.93818,-9.43154,0.626855,-83.2709,-24.7632,-46.6479,1.34277,-1.64795,-0.915527,-0.613892,0.659332,-0.109772,0.41983,-13899,8380,-5402,857,-29850
1902,247350,3.47881,-9.30234,0.559863,-83.2544,-24.7742,-46.615,4.63867,-4.21143,-2.31934,-0.613953,0.659332,-0.10968,0.4198,-13893,8381,-5411,857,-29850
1908,247356,5.34023,-8.23047,1.49297,-83.2269,-24.7852,-46.5765,4.76074,-1.70898,-1.64795,-0.614319,0.65921,-0.109039,0.419617,-13891,8379,-5417,857,-29850
1914,247362,4.04824,-9.22578,1.89492,-83.205,-24.7961,-46.5656,5.61523,0.183105,-0.854492,-0.614441,0.659119,-0.108856,0.419617,-13890,8378,-5421,857,-29850
1920,247368,3.48838,-8.67549,1.21543,-83.1775,-24.7961,-46.5656,5.31006,-5.12695,-1.15967,-0.614594,0.658966,-0.108734,0.419647,-13890,8375,-5420,857,-29850
1926,247374,4.58896,-8.49365,0.980957,-83.161,-24.8071,-46.5381,4.88281,-4.63867,-0.427246,-0.614777,0.658905,-0.108459,0.419556,-13893,8372,-5416,857,-29850
1932,247380,4.2875,-8.61807,1.50732,-83.1445,-24.8126,-46.5106,1.09863,0,-0.671387,-0.614929,0.658875,-0.108215,0.419434,-13898,8371,-5405,857,-29850
1938,247386,3.675,-8.45059,1.72266,-83.1335,-24.8126,-46.5051,1.40381,-1.0376,-1.77002,-0.61499,0.658813,-0.108124,0.419434,-13900,8373,-5401,857,-29850
1944,247392,3.7707,-8.34531,1.12451,-83.1281,-24.8236,-46.4996,0.976563,-1.83105,-2.44141,-0.615051,0.658783,-0.108002,0.419464,-13901,8374,-5398,857,-29850
1950,247398,3.89033,-8.32617,1.50254,-83.1226,-24.8346,-46.4886,-1.83105,0.305176,-3.11279,-0.615051,0.658783,-0.10788,0.419464,-13902,8375,-5390,857,-29850
1956,247404,3.61758,-8.48408,1.68916,-83.1281,-24.8456,-46.4941,-2.56348,-0.671387,-3.78418,-0.61496,0.658844,-0.107819,0.419525,-13904,8375,-5385,857,-29850
1962,247410,3.78506,-8.29268,1.5791,-83.1555,-24.8895,-46.4886,-3.84521,-0.549316,-5.06592,-0.614838,0.658936,-0.107727,0.419586,-13904,8375,-5380,857,-29850
1968,247416,3.48838,-8.32617,1.59346,-83.172,-24.917,-46.4941,-5.12695,-0.549316,-7.50732,-0.614471,0.659149,-0.107544,0.41983,-13908,8375,-5379,857,-29850
1974,247422,3.67021,-8.25439,1.58389,-83.1885,-24.95,-46.4941,-6.5918,-0.305176,-8.48389,-0.614227,0.659302,-0.107391,0.419983,-13911,8376,-5385,857,-29850
1980,247428,3.64629,-8.34531,1.51211,-83.2159,-24.9939,-46.4996,-8.60596,0.183105,-9.70459,-0.613922,0.659515,-0.107239,0.420166,-13914,8377,-5389,857,-29850
1986,247434,3.6415,-8.59414,1.50732,-83.2544,-25.0378,-46.5051,-9.76563,-0.183105,-10.8032,-0.613556,0.65976,-0.107117,0.420349,-13920,8380,-5391,857,-29850
1992,247440,3.69893,-8.69463,1.08623,-83.3313,-25.1422,-46.5106,-9.58252,-0.671387,-12.0239,-0.613129,0.660034,-0.106995,0.420593,-13922,8379,-5394,857,-29850
1998,247446,3.88076,-8.90518,0.712988,-83.3807,-25.2026,-46.5106,-9.46045,-0.976563,-13.3667,-0.612183,0.660645,-0.106567,0.421051,-13926,8376,-5389,857,-29850
2004,247452,3.95254,-9.05352,0.698633,-83.4192,-25.2686,-46.5106,-8.78906,-1.58691,-14.0381,-0.611725,0.66095,-0.106354,0.421295,-13929,8372,-5384,857,-29850
2010,247458,4.2875,-9.13965,0.818262,-83.4631,-25.3345,-46.5106,-7.14111,-2.74658,-13.7939,-0.611267,0.661255,-0.106049,0.42157,-13933,8367,-5376,857,-29850
2016,247464,4.61289,-9.13486,0.564648,-83.4961,-25.4004,-46.5051,-7.01904,-1.95313,-13.4888,-0.61087,0.66153,-0.105713,0.421814,-13938,8364,-5368,857,-29850
2022,247470,4.78037,-9.44111,0.631641,-83.5565,-25.5157,-46.4941,-6.16455,-1.89209,-11.8408,-0.610474,0.661804,-0.105408,0.422058,-13946,8363,-5359,857,-29850
2028,247476,5.12012,-9.46504,0.267969,-83.5785,-25.5707,-46.4941,-2.31934,-1.64795,-9.52148,-0.609833,0.662201,-0.104889,0.422485,-13949,8362,-5361,857,-29850
2034,247482,5.1249,-9.82393,0.320605,-83.5895,-25.6146,-46.4886,-1.28174,-1.28174,-8.17871,-0.609619,0.662323,-0.104614,0.422638,-13953,8360,-5364,857,-29850
2040,247488,5.33545,-9.63252,0.272754,-83.595,-25.6531,-46.4832,1.77002,0.305176,-5.7373,-0.609436,0.662415,-0.10437,0.422791,-13956,8358,-5369,857,-29850
2046,247494,5.24932,-9.77607,0.502441,-83.584,-25.6805,-46.4886,3.11279,-0.244141,-3.66211,-0.609406,0.662384,-0.104187,0.422943,-13960,8356,-5372,857,-29850
2052,247500,5.21104,-9.70908,0.569434,-83.551,-25.708,-46.4941,3.78418,0.854492,-2.19727,-0.609436,0.662354,-0.104034,0.423035,-13970,8353,-5363,857,-29850
2058,247506,5.76611,-9.59424,0.775195,-83.5291,-25.7025,-46.4886,5.92041,0.244141,3.78418,-0.60965,0.662109,-0.103851,0.423096,-13974,8349,-5355,857,-29850
2064,247512,5.67041,-9.73779,0.626855,-83.5016,-25.6805,-46.4886,5.5542,0.244141,6.53076,-0.609894,0.661957,-0.103851,0.423035,-13976,8345,-5345,857,-29850
2070,247518,6.16807,-9.82393,0.330176,-83.4741,-25.6531,-46.4832,6.22559,2.01416,9.64355,-0.610168,0.661774,-0.103912,0.422882,-13977,8342,-5341,857,-29850
2076,247524,6.59873,-10.1397,-0.062207,-83.4467,-25.6036,-46.4832,5.67627,7.38525,12.5732,-0.610474,0.66156,-0.104126,0.422729,-13977,8338,-5339,857,-29850
2082,247530,6.69443,-10.7762,0.334961,-83.3478,-25.4498,-46.5656,7.99561,11.7188,18.4937,-0.610809,0.661255,-0.104553,0.422638,-13980,8335,-5346,857,-29850
2088,247536,4.97656,-10.8527,0.45459,-83.2654,-25.329,-46.626,15.4419,14.2212,26.7944,-0.612,0.660095,-0.106049,0.422363,-13979,8333,-5346,857,-29850
2094,247542,4.62246,-10.1254,0.358887,-83.1665,-25.1917,-46.6864,14.8315,6.28662,31.189,-0.612823,0.659332,-0.106873,0.422119,-13978,8332,-5347,857,-29850
2100,247548,4.9,-10.0153,0.712988,-83.0951,-25.0378,-46.6974,12.5122,1.70898,33.7524,-0.613739,0.658722,-0.107666,0.42157,-13975,8333,-5347,857,-29850
2106,247554,4.77559,-9.91484,0.588574,-83.0457,-24.8785,-46.6864,9.82666,-2.50244,37.4146,-0.614655,0.658234,-0.108429,0.420776,-13971,8331,-5345,857,-29850
2112,247560,5.23975,-10.2594,0.626855,-83.0347,-24.505,-46.5546,6.22559,-10.9253,42.2974,-0.61557,0.657898,-0.109222,0.419769,-13967,8332,-5341,857,-29850
2118,247566,5.87139,-10.824,0.47373,-83.0511,-24.2853,-46.4557,4.69971,-13.7939,52.124,-0.617493,0.657684,-0.110901,0.416809,-13964,8337,-5342,857,-29850
2124,247572,5.95752,-10.6996,0.564648,-83.0841,-24.0436,-46.3458,5.5542,-17.9443,55.8472,-0.618561,0.657623,-0.111908,0.415039,-13960,8342,-5341,857,-29850
2130,247578,6.18721,-10.647,0.387598,-83.1171,-23.7854,-46.2085,5.67627,-18.1274,59.6313,-0.619751,0.657562,-0.112885,0.413086,-13953,8347,-5342,857,-29850
2136,247584,6.33076,-10.8814,0.406738,-83.15,-23.5162,-46.0712,5.37109,-17.8833,62.9272,-0.621002,0.657501,-0.113953,0.411041,-13947,8352,-5344,857,-29850
2142,247590,6.00537,-11.1255,0.200977,-83.2269,-22.923,-45.7965,4.88281,-17.2729,65.1245,-0.622284,0.65744,-0.115112,0.408875,-13936,8362,-5344,857,-29850
2148,247596,6.32598,-11.4892,0.00478516,-83.2599,-22.6099,-45.6537,8.66699,-16.2964,71.106,-0.624969,0.657227,-0.117645,0.404358,-13929,8372,-5348,857,-29850
2154,247602,6.19199,-11.4987,-0.210547,-83.2764,-22.2803,-45.5219,12.6953,-15.8691,73.1201,-0.626434,0.656982,-0.119019,0.402069,-13919,8382,-5353,857,-29850
2160,247608,6.23506,-11.5466,-0.00478516,-83.2709,-21.9452,-45.39,15.625,-13.6108,74.707,-0.628052,0.656616,-0.120392,0.39975,-13909,8395,-5358,857,-29850
2166,247614,6.22549,-11.537,-0.114844,-83.2489,-21.5991,-45.2692,19.8364,-11.2305,75.4395,-0.629761,0.656128,-0.121796,0.397461,-13896,8412,-5364,857,-29850
2172,247620,6.2207,-11.4796,-0.133984,-83.1335,-20.9015,-45.0604,23.1934,-9.70459,75.6226,-0.631531,0.655457,-0.12323,0.395264,-13865,8446,-5363,857,-29850
2178,247626,6.62744,-10.7235,-0.378027,-83.0402,-20.5609,-44.978,33.2031,-5.67627,72.998,-0.635376,0.653717,-0.126007,0.391083,-13851,8463,-5362,857,-29850
2184,247632,7.84287,-8.70898,-0.47373,-82.9138,-20.2258,-44.9011,41.3208,-5.24902,67.749,-0.637451,0.652618,-0.127258,0.389191,-13835,8478,-5365,857,-29850
2190,247638,7.98643,-6.8332,-0.985742,-82.749,-19.9182,-44.8297,40.2222,-0.793457,59.4482,-0.639618,0.651276,-0.128235,0.387482,-13821,8491,-5367,857,-29850
2196,247644,8.63242,-6.47432,-0.535937,-82.5787,-19.6545,-44.7858,36.438,0.793457,49.6826,-0.641571,0.649994,-0.129089,0.386169,-13806,8507,-5371,857,-29850
2202,247650,9.79521,-6.01016,-0.952246,-82.2656,-19.2755,-44.7418,36.377,2.44141,41.3208,-0.643219,0.648834,-0.129761,0.385162,-13772,8538,-5377,857,-29850
2208,247656,11.6901,-3.72764,-1.36377,-82.1118,-19.1327,-44.7473,32.1045,13.2446,33.5083,-0.645996,0.646606,-0.130615,0.383972,-13755,8554,-5381,857,-29850
2214,247662,10.6661,-2.41172,-0.550293,-81.958,-19.0118,-44.7968,24.4751,23.1323,32.7148,-0.647095,0.645477,-0.131165,0.38382,-13736,8566,-5389,857,-29850
2220,247668,8.49844,-1.39727,0.411523,-81.8262,-18.8855,-44.8956,8.60596,25.8789,25.6348,-0.647858,0.644409,-0.13208,0.383972,-13717,8576,-5402,857,-29850
2226,247674,8.2209,-0.631641,-0.507227,-81.7712,-18.8031,-45.0165,-10.376,14.8315,19.104,-0.648041,0.643829,-0.133118,0.384308,-13697,8587,-5416,857,-29850
2232,247680,9.40762,-0.598145,-1.65088,-81.947,-18.7701,-45.1538,-23.1323,13.0615,10.8643,-0.646729,0.644592,-0.134644,0.384705,-13657,8609,-5449,857,-29850
2238,247686,10.623,-2.60313,-1.68916,-82.1118,-18.8196,-45.2197,-32.8369,7.38525,-2.44141,-0.645416,0.645538,-0.135254,0.385132,-13638,8624,-5463,857,-29850
2244,247692,11.1829,-2.91416,-1.90928,-82.2876,-18.9075,-45.2637,-31.7383,7.50732,-5.92041,-0.643982,0.646606,-0.135559,0.38562,-13622,8635,-5474,857,-29850
2250,247698,10.9867,-3.25391,-1.81836,-82.4579,-19.0173,-45.3186,-28.4424,6.40869,-9.64355,-0.642487,0.647705,-0.135742,0.38623,-13610,8648,-5480,857,-29850
2256,247704,10.6613,-3.04336,-1.68438,-82.6172,-19.1492,-45.368,-22.8271,4.5166,-13.7939,-0.640991,0.648743,-0.135742,0.386932,-13599,8660,-5482,857,-29850
2262,247710,10.178,-2.58877,-1.52168,-82.8644,-19.4897,-45.4395,-17.9443,1.34277,-18.6157,-0.638245,0.650574,-0.134827,0.388702,-13579,8682,-5475,857,-29850
2268,247716,9.49375,-2.10068,-0.808691,-82.9742,-19.7095,-45.4504,-14.1602,-9.21631,-29.2358,-0.636902,0.65152,-0.13385,0.389709,-13569,8692,-5472,857,-29850
2274,247722,9.29277,-1.97627,-0.665137,-83.0841,-19.9622,-45.434,-13.7939,-14.9536,-34.3628,-0.635498,0.652557,-0.132568,0.390656,-13562,8703,-5468,857,-29850
2280,247728,9.29277,-2.04805,-0.46416,-83.205,-20.2423,-45.3845,-15.0146,-20.752,-40.6494,-0.634064,0.653717,-0.13092,0.391632,-13556,8711,-5468,857,-29850
2286,247734,9.56074,-2.25859,-0.488086,-83.3423,-20.5609,-45.3131,-17.1509,-26.3062,-46.5698,-0.632477,0.655029,-0.128967,0.392609,-13553,8718,-5467,857,-29850
2292,247740,9.90527,-2.73232,-0.0478516,-83.6609,-21.3025,-45.0989,-17.2119,-29.6631,-53.3447,-0.628967,0.658112,-0.124146,0.394653,-13559,8732,-5464,857,-29850
2298,247746,10.111,-3.5793,0.16748,-83.8257,-21.7255,-44.9725,-19.104,-33.8135,-68.4204,-0.627045,0.65979,-0.121307,0.395844,-13563,8740,-5461,857,-29850
2304,247752,10.2546,-4.08652,0.301465,-84.0015,-22.1924,-44.8407,-19.6533,-34.4849,-76.2329,-0.624939,0.66153,-0.118195,0.397186,-13569,8748,-5456,857,-29850
2310,247758,10.4556,-4.45498,0.258398,-84.1827,-22.7032,-44.7034,-19.165,-34.4238,-83.4961,-0.622681,0.66333,-0.114838,0.398712,-13576,8757,-5450,857,-29850
2316,247764,10.5943,-4.86172,0.196191,-84.353,-23.2416,-44.5715,-19.6533,-33.02,-90.8203,-0.6203,0.665131,-0.111267,0.400421,-13587,8761,-5445,857,-29850
2322,247770,10.4412,-5.23496,0.425879,-84.6936,-24.4226,-44.3243,-19.4092,-31.3721,-96.4355,-0.615173,0.668671,-0.103607,0.404449,-13625,8760,-5420,857,-29850
2328,247776,10.1637,-5.71826,0.363672,-84.8639,-25.0433,-44.2145,-22.0947,-29.2358,-105.713,-0.612427,0.670441,-0.0996094,0.406708,-13647,8755,-5399,857,-29850
2334,247782,9.76172,-6.08193,0.488086,-85.0342,-25.686,-44.1046,-23.4375,-27.832,-110.596,-0.609558,0.672211,-0.09552,0.409058,-13669,8749,-5377,857,-29850
2340,247788,9.49854,-6.28291,0.440234,-85.21,-26.3507,-44.0057,-25.5737,-27.9541,-115.173,-0.606567,0.67395,-0.0913696,0.41156,-13692,8742,-5355,857,-29850
2346,247794,9.41719,-6.75664,0.45459,-85.4022,-27.0374,-43.9014,-27.9541,-27.4658,-119.385,-0.603424,0.675781,-0.0871277,0.414124,-13717,8734,-5336,866,-29851
2352,247800,9.00566,-7.47441,0.430664,-85.7977,-28.4601,-43.6926,-28.8696,-26.9775,-123.779,-0.596741,0.679443,-0.0783997,0.419525,-13778,8709,-5289,866,-29851
2358,247806,8.96738,-7.74238,0.607715,-86.012,-29.1907,-43.5828,-31.25,-27.2217,-129.211,-0.593262,0.681274,-0.0739136,0.422302,-13816,8694,-5268,866,-29851
2364,247812,9.00566,-8.09648,0.598145,-86.2262,-29.9268,-43.4729,-32.8369,-26.8555,-130.676,-0.589691,0.683105,-0.069397,0.42511,-13857,8677,-5244,866,-29851
2370,247818,9.02481,-8.50801,0.703418,-86.4514,-30.6738,-43.3575,-32.959,-25.9399,-130.371,-0.586029,0.684937,-0.0648804,0.427917,-13899,8659,-5223,866,-29851
2376,247824,8.98652,-8.7377,0.617285,-86.6766,-31.4099,-43.2422,-32.4097,-24.9634,-129.211,-0.582397,0.686707,-0.0604248,0.430695,-13941,8639,-5204,866,-29851
2382,247830,9.07744,-9.03916,0.933105,-87.1106,-32.8436,-43.0225,-32.0435,-23.7427,-127.197,-0.575226,0.690033,-0.0517273,0.436127,-14030,8592,-5165,866,-29851
2388,247836,8.98652,-9.12529,1.04795,-87.3248,-33.5303,-42.9126,-33.02,-20.5078,-119.873,-0.571747,0.691559,-0.0475769,0.438721,-14077,8564,-5144,866,-29851
2394,247842,8.70898,-9.26406,1.30635,-87.5391,-34.1949,-42.8082,-33.6304,-18.0054,-117.981,-0.568298,0.693054,-0.0436401,0.441254,-14127,8536,-5122,866,-29851
2400,247848,8.37402,-9.33584,1.36855,-87.7533,-34.8486,-42.7203,-34.9121,-16.1743,-117.554,-0.56485,0.694458,-0.0398254,0.443787,-14177,8510,-5094,866,-29851
2406,247854,8.03428,-9.50332,1.64609,-87.962,-35.4913,-42.6324,-36.0718,-14.9536,-119.202,-0.561401,0.695862,-0.0361328,0.44632,-14231,8482,-5066,866,-29851
2412,247860,8.03428,-9.62773,1.55039,-88.3905,-36.8042,-42.4786,-36.7432,-13.3667,-123.291,-0.554291,0.698517,-0.0286865,0.451569,-14330,8428,-5010,866,-29851
2418,247866,8.10127,-9.73301,1.53604,-88.6047,-37.4854,-42.4182,-37.1704,-9.27734,-131.653,-0.550568,0.699768,-0.0249023,0.454376,-14381,8399,-4980,866,-29851
2424,247872,8.22568,-9.60859,1.43076,-88.8025,-38.1775,-42.3633,-36.6821,-6.71387,-134.399,-0.546783,0.700958,-0.0210266,0.457306,-14431,8366,-4944,866,-29851
2430,247878,8.33574,-9.53203,1.37813,-88.9948,-38.8861,-42.3248,-35.5835,-4.27246,-135.986,-0.542969,0.702026,-0.0171509,0.460358,-14482,8329,-4907,866,-29851
2436,247884,8.52715,-9.21143,1.3207,-89.1705,-39.5947,-42.2974,-34.1797,-1.64795,-135.925,-0.539154,0.703003,-0.0133057,0.463501,-14531,8288,-4874,866,-29851
2442,247890,8.39316,-8.94824,1.02881,-89.4727,-40.99,-42.2919,-34.0576,1.46484,-133.484,-0.531647,0.70459,-0.00582886,0.469879,-14628,8205,-4818,866,-29851
2448,247896,7.84287,-9.1875,1.03838,-89.6045,-41.6656,-42.3083,-33.8745,6.04248,-128.479,-0.527924,0.705261,-0.00234985,0.473053,-14680,8161,-4794,866,-29851
2454,247902,7.34043,-9.12051,0.722559,-89.7308,-42.3248,-42.3413,-33.3862,7.08008,-127.686,-0.524292,0.705841,0.000976563,0.476196,-14734,8116,-4770,866,-29851
2460,247908,6.73272,-9.24014,0.650781,-89.8462,-42.9785,-42.3798,-34.9121,6.28662,-127.319,-0.520691,0.70639,0.00430298,0.47934,-14789,8070,-4746,874,-29852
2466,247914,6.69443,-9.53682,0.655566,-89.978,-43.6267,-42.4127,-33.3252,5.49316,-128.418,-0.517059,0.70694,0.00753784,0.482422,-14841,8025,-4727,874,-29852
2472,247920,6.32119,-9.41719,0.851758,-90.2362,-44.9286,-42.4677,-33.9966,4.3335,-132.202,-0.509705,0.707977,0.0141602,0.488525,-14942,7930,-4697,874,-29852
2478,247926,6.17285,-9.20186,0.799121,-90.3735,-45.5878,-42.4786,-32.8979,3.90625,-133.728,-0.505981,0.708466,0.0175476,0.491547,-14992,7880,-4685,874,-29852
2484,247932,6.66572,-9.20186,1.11494,-90.5054,-46.2524,-42.4896,-34.0576,4.21143,-131.958,-0.502258,0.708923,0.0209961,0.494568,-15043,7827,-4670,874,-29852
2490,247938,6.66094,-9.21621,1.04795,-90.6427,-46.9061,-42.5006,-31.6772,5.24902,-132.446,-0.498535,0.709381,0.024353,0.497528,-15095,7770,-4658,874,-29852
2496,247944,6.31162,-9.154,1.33984,-90.8844,-48.1915,-42.5336,-30.6396,4.69971,-130.371,-0.494873,0.709717,0.02771,0.500519,-15147,7711,-4642,874,-29852
2502,247950,6.66572,-9.07266,1.32549,-90.9778,-48.8123,-42.561,-27.5879,7.93457,-123.779,-0.487854,0.710236,0.0341797,0.506256,-15246,7585,-4618,874,-29852
2508,247956,6.82363,-9.32627,0.937891,-91.0657,-49.411,-42.5995,-24.9634,8.42285,-120.117,-0.484497,0.710358,0.037262,0.509033,-15291,7524,-4610,874,-29852
2514,247962,6.63223,-8.46494,0.90918,-91.1316,-49.9878,-42.6379,-22.4609,10.1929,-120.544,-0.481354,0.710419,0.0402527,0.511749,-15334,7458,-4602,874,-29852
2520,247968,4.45977,-9.27363,1.05752,-91.1755,-50.5646,-42.6929,-20.5688,9.64355,-125.916,-0.478241,0.710358,0.0432434,0.514465,-15377,7390,-4600,874,-29852
2526,247974,4.25879,-9.45547,0.679492,-91.2799,-51.7786,-42.7643,-21.1182,6.04248,-129.15,-0.475067,0.710236,0.0464172,0.517273,-15419,7322,-4596,874,-29852
2532,247980,4.30186,-9.66123,-0.0526367,-91.3458,-52.4213,-42.7698,-18.4937,5.00488,-136.658,-0.468475,0.710144,0.0533142,0.522766,-15502,7177,-4583,874,-29852
2538,247986,4.0626,-9.38369,0.172266,-91.4063,-53.064,-42.7753,-16.3574,3.66211,-136.475,-0.465118,0.709991,0.0568848,0.525543,-15541,7107,-4576,874,-29852
2544,247992,4.31143,-9.3167,-0.440234,-91.4667,-53.6957,-42.7753,-14.4043,2.38037,-132.08,-0.461853,0.709839,0.0605164,0.528259,-15577,7035,-4571,874,-29852
2550,247998,3.41182,-9.48418,0.258398,-91.5271,-54.3109,-42.7643,-12.6343,2.74658,-124.878,-0.45874,0.709656,0.0640259,0.530792,-15612,6963,-4564,874,-29852
2556,248004,3.93818,-8.66592,-0.234473,-91.637,-55.3931,-42.7258,-12.146,0.12207,-114.258,-0.455841,0.709442,0.0673218,0.533142,-15646,6889,-4559,874,-29852
2562,248010,2.45957,-9.30713,0.435449,-91.7084,-55.882,-42.6984,-13.3057,-3.96729,-98.6328,-0.450623,0.709198,0.0731506,0.53714,-15700,6738,-4554,874,-29852
2568,248016,2.18682,-9.76172,0.947461,-91.8073,-56.3104,-42.6324,-16.3574,-3.23486,-93.3838,-0.448334,0.709198,0.0756836,0.538696,-15724,6662,-4557,874,-29852
2574,248022,1.51211,-10.0488,0.784766,-91.9116,-56.7059,-42.5775,-16.4795,-4.15039,-87.6465,-0.446075,0.709259,0.0779419,0.540192,-15744,6591,-4559,866,-29851
2580,248028,1.81836,-9.90527,0.890039,-92.027,-57.0685,-42.5116,-18.9819,-1.89209,-79.5898,-0.443939,0.709351,0.0799866,0.541504,-15765,6520,-4560,866,-29851
2586,248034,1.3877,-11.2499,1.64609,-92.2083,-57.6837,-42.4731,-19.2871,3.05176,-75.3784,-0.441956,0.709473,0.081665,0.542725,-15786,6451,-4566,866,-29851
2592,248040,0.803906,-11.0681,1.21064,-92.2577,-57.9584,-42.4786,-15.1978,7.01904,-65.5518,-0.438477,0.709412,0.0844421,0.545166,-15819,6317,-4569,866,-29851
2598,248046,0.239258,-11.269,1.54561,-92.2742,-58.1946,-42.5281,-16.5405,14.1602,-58.5938,-0.437073,0.70929,0.0855408,0.546326,-15833,6251,-4568,866,-29851
2604,248052,-0.244043,-11.5179,1.3207,-92.2302,-58.3923,-42.6434,-14.9536,16.9678,-50.8423,-0.435791,0.709045,0.0862122,0.547546,-15845,6190,-4565,866,-29851
2610,248058,-0.933105,-11.9581,1.20586,-92.1533,-58.5516,-42.7917,-13.0005,21.5454,-42.9688,-0.434814,0.70871,0.0866089,0.548676,-15858,6130,-4558,866,-29851
2616,248064,-1.51689,-11.7858,1.24893,-91.8677,-58.7274,-43.2202,-11.4746,24.4751,-33.8135,-0.434113,0.708282,0.0866699,0.549805,-15880,6025,-4551,866,-29851
2622,248070,-2.69404,-11.9581,1.04795,-91.6809,-58.7384,-43.4784,-11.4746,30.0293,-14.7095,-0.433563,0.707245,0.0857849,0.551666,-15886,5975,-4550,866,-29851
2628,248076,-3.49795,-12.0873,0.837402,-91.4667,-58.7,-43.7695,-10.2539,30.8228,-6.65283,-0.433685,0.706696,0.0847778,0.55246,-15890,5931,-4549,866,-29851
2634,248082,-3.96689,-11.982,0.966602,-91.2415,-58.6066,-44.0662,-11.0474,32.4707,1.58691,-0.434052,0.706146,0.0834656,0.55307,-15891,5888,-4551,866,-29851
2640,248088,-4.21572,-11.9533,1.24414,-91.0052,-58.4747,-44.3848,-13.0615,32.5928,9.76563,-0.434631,0.705597,0.0818481,0.553558,-15893,5850,-4551,866,-29851
2646,248094,-4.11045,-12.1495,1.41641,-90.5713,-58.0627,-45.0165,-15.7471,33.2031,18.5547,-0.435364,0.705109,0.0798645,0.553894,-15904,5797,-4560,866,-29851
2652,248100,16.4992,-27.8544,13.6138,-90.4779,-57.7716,-45.2197,-102.844,-55.2368,168.823,-0.437195,0.704681,0.0749512,0.55368,-15909,5779,-4569,866,-29851
2658,248106,-3.56973,-41.7553,5.64648,-91.3678,-56.7938,-44.7418,-27.5269,73.6084,187.561,-0.438721,0.708466,0.0676575,0.548553,-15914,5766,-4581,866,-29851
2664,248112,-15.4082,-2.29209,-19.0162,-90.8899,-55.7336,-45.4449,54.8706,101.257,155.518,-0.44339,0.707703,0.0591125,0.546783,-15915,5760,-4589,866,-29851
2670,248118,0.995313,-3.45488,-8.57979,-89.8682,-54.8163,-46.3348,9.0332,-81.543,189.209,-0.449799,0.70462,0.052887,0.546143,-15915,5761,-4593,866,-29851
2676,248124,12.2979,-13.1065,8.4123,-90.6976,-52.641,-45.1868,5.7373,-54.2603,191.772,-0.455078,0.706848,0.0480957,0.539307,-15910,5781,-4594,866,-29851
2682,248130,7.21123,-8.14912,-2.13418,-90.2472,-51.6962,-45.5219,56.2134,-19.6533,173.096,-0.465942,0.707062,0.0369263,0.530548,-15905,5806,-4593,866,-29851
2688,248136,10.4125,-4.04824,-0.421094,-90.0769,-50.7184,-45.3571,62.6221,-53.4058,177.612,-0.47226,0.706635,0.0326843,0.525818,-15894,5837,-4594,866,-29851
2694,248142,13.8291,-2.89023,2.03369,-90.0769,-49.7241,-44.9341,42.9077,-50.9033,185.608,-0.478729,0.706787,0.0291748,0.519928,-15883,5878,-4597,849,-29849
2700,248148,13.9918,-1.46426,0.516797,-90.1428,-48.7024,-44.5441,19.7144,-24.9634,194.153,-0.484711,0.707214,0.0249939,0.513977,-15869,5929,-4594,849,-29849
2706,248154,11.1781,-2.38779,-0.846973,-90.1483,-46.5491,-44.3463,1.58691,-0.244141,206.482,-0.490082,0.70752,0.0195618,0.508667,-15840,6040,-4585,849,-29849
2712,248160,7.31172,-6.6418,2.04805,-90.1648,-45.4065,-44.4012,-29.8462,8.48389,224.976,-0.499756,0.707764,0.00549316,0.499176,-15823,6107,-4580,849,-29849
2718,248166,4.81387,-9.97705,2.47393,-90.2582,-44.231,-44.4562,-31.6162,10.3149,219.299,-0.504059,0.708221,-0.00250244,0.494232,-15801,6179,-4576,849,-29849
2724,248172,5.16318,-11.5179,1.57432,-90.3461,-43.0774,-44.5276,-35.8276,17.2729,214.355,-0.508118,0.708557,-0.0104065,0.48941,-15778,6255,-4573,849,-29849
2730,248178,4.72773,-13.9057,0.631641,-90.423,-41.9623,-44.6429,-31.9824,25.5737,204.834,-0.511902,0.708771,-0.0183716,0.484894,-15750,6339,-4563,849,-29849
2736,248184,2.95244,-15.9059,1.01445,-90.39,-39.8969,-45.0385,-21.4233,34.1187,189.453,-0.515533,0.708679,-0.026123,0.480804,-15687,6514,-4545,849,-29849
2742,248190,2.42607,-13.9774,0.818262,-90.2362,-38.952,-45.2747,8.54492,33.7524,170.776,-0.523041,0.707062,-0.039978,0.474091,-15650,6608,-4540,849,-29849
2748,248196,3.33047,-13.4032,1.89014,-90.0439,-38.0511,-45.4834,18.9819,27.5879,161.255,-0.527069,0.70578,-0.04599,0.470978,-15610,6704,-4536,849,-29849
2754,248202,2.67969,-12.652,2.99072,-89.8297,-37.1997,-45.6482,15.1978,32.7148,146.545,-0.531219,0.704376,-0.0513916,0.467896,-15568,6801,-4533,849,-29849
2760,248208,1.62695,-13.9918,2.19639,-89.621,-36.4197,-45.835,4.15039,22.522,131.958,-0.534882,0.702942,-0.056488,0.465271,-15524,6901,-4529,849,-29849
2766,248214,1.95234,-14.7048,1.78965,-89.4067,-35.0903,-46.0272,8.11768,14.1602,114.99,-0.537964,0.701965,-0.0611267,0.462616,-15434,7100,-4529,849,-29849
2772,248220,4.321,-11.4892,-0.971387,-89.3134,-34.5355,-46.0492,9.82666,11.4746,89.4775,-0.543488,0.700256,-0.0681458,0.457672,-15390,7197,-4531,849,-29849
2778,248226,4.9335,-11.0011,-0.0382813,-89.22,-34.0466,-46.0986,2.56348,24.4751,78.125,-0.545837,0.699463,-0.0711365,0.455688,-15345,7290,-4536,849,-29849
2784,248232,3.7707,-10.6757,-0.114844,-89.1156,-33.6072,-46.225,-4.21143,31.6162,65.7959,-0.547638,0.698608,-0.0741882,0.454315,-15298,7379,-4546,849,-29849
2790,248238,3.63672,-10.044,0.00957031,-89.0332,-33.2391,-46.3953,-9.46045,31.189,55.9082,-0.548981,0.697815,-0.077179,0.453461,-15252,7464,-4556,849,-29849
2796,248244,3.73721,-9.58945,0.449805,-88.9453,-32.6184,-46.6974,-11.9629,25.6958,51.2695,-0.549957,0.697174,-0.0799561,0.452789,-15163,7621,-4568,849,-29849
2802,248250,4.59854,-9.60859,0.181836,-88.9288,-32.3383,-46.8073,-7.75146,21.3623,43.5791,-0.551514,0.69632,-0.0848083,0.451294,-15126,7693,-4571,849,-29849
2808,248256,4.20615,-8.97217,0.00957031,-88.8959,-32.0856,-46.9171,-3.41797,18.7988,42.2363,-0.552277,0.695892,-0.0869141,0.450623,-15093,7762,-4575,849,-29849
2814,248262,4.05781,-8.74727,0.263184,-88.8519,-31.8384,-47.0105,-3.66211,14.4043,39.978,-0.553162,0.695374,-0.0888367,0.449951,-15061,7829,-4582,849,-29849
2820,248268,4.18701,-9.02002,0.60293,-88.8245,-31.6022,-47.0764,-3.54004,10.0098,37.8418,-0.553986,0.694977,-0.0905762,0.449188,-15030,7890,-4592,849,-29849
2826,248274,4.14873,-9.16836,0.105273,-88.8025,-31.1737,-47.1423,-3.72314,7.14111,35.0952,-0.554779,0.694672,-0.0921326,0.448334,-14965,7996,-4610,849,-29849
2832,248280,4.85215,-9.91963,-1.17715,-88.8025,-30.9924,-47.1698,-8.91113,10.8643,24.6582,-0.556122,0.694275,-0.0948486,0.446777,-14933,8039,-4618,849,-29849
2838,248286,5.31631,-9.91963,-1.05752,-88.8135,-30.8386,-47.2137,-4.88281,15.0757,21.6675,-0.556458,0.694153,-0.0960999,0.446259,-14904,8081,-4625,849,-29849
2844,248292,5.479,-9.62295,-0.976172,-88.797,-30.7013,-47.2852,1.46484,17.9443,21.1182,-0.556854,0.693878,-0.09729,0.445984,-14876,8120,-4633,849,-29849
2850,248298,5.27324,-9.27363,-0.669922,-88.7366,-30.564,-47.373,2.56348,23.2544,18.6157,-0.557373,0.69339,-0.0984192,0.445831,-14848,8161,-4641,849,-29849
2856,248304,4.83779,-9.04873,-0.0239258,-88.5663,-30.3278,-47.6257,3.479,25.4517,18.1885,-0.55835,0.692108,-0.100739,0.446075,-14801,8238,-4654,849,-29849
2862,248310,3.73242,-9.29277,1.06709,-88.4784,-30.2234,-47.7576,3.23486,20.752,14.0381,-0.558777,0.691467,-0.101837,0.446289,-14779,8274,-4658,849,-29849
2868,248316,3.81377,-8.95781,0.894824,-88.4015,-30.1245,-47.8619,3.17383,16.7236,10.9253,-0.559204,0.690918,-0.102783,0.446411,-14758,8305,-4661,849,-29849
2874,248322,4.32578,-8.65156,0.933105,-88.3411,-30.0476,-47.9388,1.77002,13.1226,8.8501,-0.55957,0.69043,-0.103516,0.446472,-14739,8333,-4667,849,-29849
2880,248328,4.49805,-8.7377,0.861328,-88.2916,-29.9817,-48.0048,0.183105,11.3525,7.20215,-0.559875,0.690094,-0.104095,0.446503,-14722,8358,-4672,849,-29849
2886,248334,4.43105,-8.93867,0.617285,-88.2312,-29.8773,-48.1036,-1.09863,11.1694,4.57764,-0.560242,0.689606,-0.105103,0.446564,-14688,8405,-4687,849,-29849
2892,248340,4.55547,-8.63721,0.598145,-88.2092,-29.8389,-48.1366,0,5.43213,3.2959,-0.560394,0.689392,-0.105469,0.446594,-14674,8427,-4696,849,-29849
2898,248346,4.87607,-8.53193,0.593359,-88.1927,-29.8004,-48.1531,-1.28174,4.3335,3.11279,-0.560577,0.68927,-0.105713,0.446503,-14661,8446,-4704,849,-29849
2904,248352,4.9,-8.60371,0.516797,-88.1818,-29.7675,-48.1641,-1.28174,1.89209,3.35693,-0.560699,0.689178,-0.105957,0.446411,-14651,8463,-4710,849,-29849
2910,248358,5.26846,-8.45059,0.210547,-88.1818,-29.7345,-48.1641,0.12207,1.46484,4.3335,-0.560852,0.689148,-0.106171,0.446228,-14642,8478,-4713,849,-29849
2916,248364,5.21104,-8.52715,0.31582,-88.1653,-29.6576,-48.1586,0.244141,2.56348,4.45557,-0.561249,0.688995,-0.106537,0.445892,-14626,8503,-4705,849,-29849
2922,248370,5.1584,-8.28311,0.354102,-88.1543,-29.6136,-48.1586,1.2207,0.549316,6.5918,-0.561523,0.688873,-0.10675,0.445679,-14617,8514,-4703,849,-29849
2928,248376,5.39766,-8.24004,0.263184,-88.1433,-29.5697,-48.1476,0.732422,0.671387,7.87354,-0.561798,0.688812,-0.106934,0.445404,-14607,8526,-4704,849,-29849
2934,248382,5.32109,-8.51279,-0.0143555,-88.1378,-29.5203,-48.1366,0.976563,2.50244,9.21631,-0.562073,0.688721,-0.107147,0.445129,-14596,8539,-4710,849,-29849
2940,248388,5.0292,-8.77598,-0.090918,-88.1268,-29.4598,-48.1366,1.46484,1.89209,9.09424,-0.562347,0.688599,-0.107452,0.444885,-14587,8550,-4715,849,-29849
2946,248394,5.34502,-8.63721,0.0669922,-88.0994,-29.35,-48.1256,2.2583,1.89209,9.46045,-0.562988,0.688354,-0.107971,0.444336,-14573,8566,-4733,849,-29849
2952,248400,5.12969,-8.66113,-0.320605,-88.0664,-29.2896,-48.1366,3.96729,5.5542,11.5356,-0.563354,0.688141,-0.108307,0.444122,-14568,8573,-4742,849,-29849
2958,248406,5.13447,-8.79512,-0.234473,-88.0334,-29.2236,-48.1531,5.43213,5.98145,11.5967,-0.563751,0.687897,-0.108673,0.443939,-14563,8581,-4754,849,-29849
2964,248412,5.0292,-8.77119,-0.100488,-87.995,-29.1577,-48.175,6.40869,8.91113,10.7422,-0.564148,0.687592,-0.109039,0.443756,-14559,8589,-4759,849,-29849
2970,248418,4.68467,-8.7999,0.143555,-87.9401,-29.0973,-48.2135,6.71387,9.64355,10.0708,-0.564575,0.687225,-0.109406,0.443726,-14556,8599,-4762,849,-29849
2976,248424,4.50283,-8.82383,0.301465,-87.8247,-28.9874,-48.2904,7.26318,8.91113,9.33838,-0.565399,0.686462,-0.110107,0.443695,-14549,8612,-4769,849,-29849
2982,248430,4.74688,-8.51758,0.507227,-87.7588,-28.938,-48.3179,8.54492,8.97217,8.42285,-0.565857,0.686066,-0.110352,0.443665,-14545,8619,-4780,849,-29849
2988,248436,4.48848,-8.58457,0.669922,-87.6929,-28.8885,-48.3563,8.54492,7.8125,7.75146,-0.566284,0.685669,-0.110626,0.443665,-14541,8626,-4795,849,-29849
2994,248442,4.42627,-8.45537,0.512012,-87.6324,-28.8446,-48.3838,8.48389,5.7373,7.38525,-0.566711,0.685272,-0.11084,0.443665,-14535,8634,-4810,849,-29849
3000,248448,4.51719,-8.62764,0.784766,-87.5775,-28.8007,-48.4058,7.75146,4.08936,6.65283,-0.567139,0.684937,-0.110992,0.443634,-14530,8642,-4825,849,-29849
3006,248454,4.78994,-8.18262,0.799121,-87.4841,-28.7292,-48.4167,8.48389,2.56348,6.71387,-0.567932,0.684357,-0.111176,0.44342,-14520,8656,-4846,849,-29849
3012,248460,4.61768,-8.27832,0.875684,-87.4402,-28.6908,-48.4113,5.49316,0.366211,6.53076,-0.568329,0.684113,-0.111206,0.443268,-14516,8659,-4853,849,-29849
3018,248466,4.70381,-8.38838,0.693848,-87.4127,-28.6578,-48.4003,4.02832,-1.46484,6.22559,-0.568695,0.68396,-0.111267,0.443085,-14510,8660,-4858,849,-29849
3024,248472,4.84258,-8.40752,0.62207,-87.3962,-28.6249,-48.3783,3.90625,-1.83105,6.46973,-0.569,0.683868,-0.111267,0.442841,-14506,8662,-4857,849,-29849
3030,248478,4.89043,-8.46016,0.550293,-87.3853,-28.5864,-48.3563,3.84521,-1.52588,6.34766,-0.569305,0.683777,-0.111298,0.442566,-14502,8664,-4857,849,-29849
3036,248484,5.12969,-8.3501,0.291895,-87.3578,-28.5205,-48.3069,4.08936,-2.2583,7.26318,-0.569916,0.683594,-0.111328,0.442017,-14492,8669,-4855,849,-29849
3042,248490,5.34502,-8.39795,0.0717773,-87.3468,-28.4766,-48.2849,3.17383,-1.46484,9.21631,-0.570221,0.683533,-0.111389,0.441711,-14487,8672,-4858,849,-29849
3048,248496,5.34023,-8.4793,-0.0382813,-87.3358,-28.4326,-48.2574,2.80762,0.915527,10.1929,-0.570526,0.683441,-0.111481,0.441406,-14480,8675,-4857,849,-29849
3054,248502,5.20625,-8.69941,0.00957031,-87.3193,-28.3832,-48.252,3.35693,2.50244,11.0474,-0.570862,0.683319,-0.111694,0.441132,-14474,8678,-4858,849,-29849
3060,248508,5.07705,-8.6085,0.191406,-87.2974,-28.3282,-48.252,4.69971,3.35693,11.7188,-0.571198,0.683167,-0.111938,0.440918,-14469,8682,-4859,849,-29849
3066,248514,5.0627,-8.49844,0.253613,-87.2369,-28.2129,-48.2574,5.00488,3.72314,12.6953,-0.57196,0.682709,-0.112488,0.44046,-14461,8693,-4857,849,-29849
3072,248520,5.18711,-8.47451,0.200977,-87.204,-28.147,-48.2629,4.63867,4.27246,14.2212,-0.572388,0.682465,-0.112793,0.440216,-14458,8698,-4856,849,-29849
3078,248526,5.18232,-8.63242,0.267969,-87.1765,-28.0756,-48.2739,4.27246,5.06592,15.1978,-0.572784,0.68222,-0.113159,0.439972,-14455,8703,-4859,849,-29849
3084,248532,5.09619,-8.74248,0.16748,-87.1436,-28.0042,-48.2849,5.00488,5.31006,16.1743,-0.573212,0.681946,-0.113556,0.439728,-14454,8708,-4858,849,-29849
3090,248538,4.9957,-8.7377,0.119629,-87.1051,-27.9272,-48.3014,5.61523,6.7749,16.7236,-0.573669,0.681671,-0.114014,0.439453,-14452,8711,-4861,849,-29849
3096,248544,4.03867,-8.97695,0.794336,-87.0227,-27.7734,-48.3563,5.12695,8.42285,15.4419,-0.574554,0.681,-0.11496,0.439087,-14445,8715,-4873,849,-29849
3102,248550,3.85205,-8.77119,0.990527,-86.9788,-27.6965,-48.3838,6.16455,5.7373,12.9395,-0.574982,0.680664,-0.115417,0.438934,-14442,8718,-4879,849,-29849
3108,248556,3.74678,-8.74727,1.13408,-86.9348,-27.6361,-48.4003,5.24902,3.96729,10.8643,-0.575409,0.680359,-0.115753,0.438751,-14437,8720,-4886,849,-29849
3114,248562,3.9334,-8.63242,1.24893,-86.9019,-27.5812,-48.4113,4.45557,1.40381,8.54492,-0.575775,0.680115,-0.115967,0.438599,-14432,8723,-4888,849,-29849
3120,248568,4.42627,-8.49365,0.904395,-86.8744,-27.5427,-48.4058,3.23486,-0.610352,8.17871,-0.576111,0.679962,-0.116089,0.438385,-14428,8729,-4891,849,-29849
3126,248574,4.84258,-8.95303,0.330176,-86.8579,-27.4713,-48.3728,0.976563,0,7.26318,-0.576599,0.67981,-0.116302,0.437927,-14419,8742,-4897,849,-29849
3132,248580,4.78037,-8.83818,0.258398,-86.8469,-27.4329,-48.3673,3.90625,1.64795,7.62939,-0.576813,0.679718,-0.116425,0.437744,-14414,8749,-4900,849,-29849
3138,248586,4.69424,-8.7042,0.507227,-86.825,-27.3999,-48.3618,3.96729,2.13623,7.99561,-0.577087,0.679565,-0.116547,0.437561,-14408,8754,-4909,849,-29849
3144,248592,4.68467,-8.74248,0.626855,-86.803,-27.3615,-48.3618,4.5166,2.19727,7.8125,-0.577393,0.679382,-0.116669,0.437408,-14404,8758,-4916,849,-29849
3150,248598,4.68945,-8.6707,0.550293,-86.7755,-27.323,-48.3563,3.90625,1.64795,7.87354,-0.577698,0.67923,-0.116791,0.437256,-14399,8761,-4925,849,-29849
3156,248604,4.76602,-8.69463,0.521582,-86.7316,-27.2516,-48.3453,3.11279,1.89209,8.36182,-0.578247,0.678925,-0.117035,0.43689,-14390,8762,-4945,849,-29849
3162,248610,4.53633,-8.74727,0.574219,-86.7151,-27.2131,-48.3453,2.92969,1.70898,9.09424,-0.578522,0.678772,-0.117188,0.436707,-14383,8765,-4952,849,-29849
3168,248616,4.56504,-8.76162,0.6125,-86.6986,-27.1692,-48.3398,3.41797,0.793457,8.23975,-0.578796,0.67865,-0.11734,0.436493,-14377,8768,-4957,849,-29849
3174,248622,4.65117,-8.81904,0.732129,-86.6766,-27.1307,-48.3289,4.21143,-0.427246,8.30078,-0.579102,0.678528,-0.117462,0.436279,-14371,8771,-4963,849,-29849
3180,248628,4.74209,-8.53672,0.47373,-86.6437,-27.0483,-48.3014,3.72314,0.366211,9.27734,-0.579407,0.678406,-0.117554,0.436035,-14367,8774,-4967,849,-29849
3186,248634,4.88086,-8.84775,0.387598,-86.6327,-27.0099,-48.2904,2.80762,-0.732422,10.0098,-0.579956,0.678192,-0.117798,0.435547,-14357,8777,-4965,849,-29849
3192,248640,4.96699,-8.85732,0.062207,-86.6217,-26.9659,-48.2684,3.72314,0.671387,10.376,-0.580261,0.678101,-0.11792,0.435272,-14356,8778,-4964,849,-29849
3198,248646,4.82344,-8.77119,0.234473,-86.6052,-26.9165,-48.2574,4.57764,2.19727,11.0474,-0.580597,0.677948,-0.118103,0.434998,-14353,8782,-4962,849,-29849
3204,248652,4.50762,-8.79512,0.645996,-86.5778,-26.8671,-48.2574,4.88281,2.68555,11.4746,-0.580933,0.677765,-0.118317,0.434784,-14351,8786,-4963,849,-29849
3210,248658,4.44063,-8.72813,0.669922,-86.5228,-26.7572,-48.252,5.00488,1.28174,11.2915,-0.581299,0.677551,-0.11853,0.43457,-14351,8792,-4961,849,-29849
3216,248664,4.75645,-8.69463,0.44502,-86.5009,-26.7078,-48.241,4.82178,0.915527,12.4512,-0.582031,0.677185,-0.118896,0.434052,-14346,8803,-4954,849,-29849
3222,248670,4.59375,-8.79512,0.564648,-86.4789,-26.6473,-48.23,4.39453,1.70898,12.2681,-0.582428,0.677002,-0.11911,0.433746,-14342,8809,-4953,849,-29849
3228,248676,4.3832,-8.91475,0.679492,-86.4569,-26.5924,-48.2245,4.94385,0,11.9019,-0.582794,0.676819,-0.119354,0.433472,-14336,8811,-4955,849,-29849
3234,248682,4.67988,-8.68984,0.349316,-86.4349,-26.5375,-48.2135,4.76074,0.244141,12.8784,-0.583191,0.676636,-0.119507,0.433167,-14330,8812,-4958,849,-29849
3240,248688,4.76602,-8.88125,0.29668,-86.391,-26.4166,-48.1915,4.15039,1.0376,13.5498,-0.583588,0.676483,-0.11972,0.432831,-14322,8811,-4966,849,-29849
3246,248694,5.04834,-9.00088,0.143555,-86.3635,-26.3562,-48.1805,7.62939,-0.183105,14.4653,-0.584412,0.676086,-0.120209,0.43219,-14308,8817,-4973,849,-29849
3252,248700,5.23975,-8.94346,0.124414,-86.3306,-26.2903,-48.1641,8.78906,1.64795,15.625,-0.58493,0.675842,-0.120392,0.431854,-14302,8825,-4973,849,-29849
3258,248706,4.75645,-9.02959,0.0526367,-86.2866,-26.2134,-48.1586,8.97217,3.66211,16.7236,-0.585449,0.675537,-0.120636,0.431519,-14295,8834,-4971,849,-29849
3264,248712,4.59854,-9.1875,0.521582,-86.2372,-26.1365,-48.1586,10.8032,2.01416,17.395,-0.586029,0.675201,-0.120972,0.431213,-14290,8843,-4971,849,-29849
3270,248718,4.7708,-8.90518,0.732129,-86.1273,-25.9717,-48.1476,12.3291,1.34277,18.4937,-0.586639,0.674835,-0.121246,0.430847,-14286,8851,-4973,849,-29849
3276,248724,5.04355,-9.24971,0.162695,-86.0724,-25.8783,-48.1366,11.3525,0.915527,20.874,-0.588013,0.674042,-0.121796,0.430054,-14275,8862,-4982,849,-29849
3282,248730,4.89043,-9.35977,0.234473,-86.0229,-25.7849,-48.1256,13.9771,1.89209,21.7285,-0.588715,0.673645,-0.122131,0.429596,-14268,8865,-4982,849,-29849
3288,248736,4.94785,-8.94824,0.244043,-85.9515,-25.6805,-48.1201,15.1978,2.80762,22.583,-0.589539,0.673187,-0.122467,0.429138,-14260,8868,-4983,849,-29849
3294,248742,4.8043,-9.05352,0.641211,-85.8801,-25.5762,-48.1146,15.0757,1.83105,23.9258,-0.590363,0.672668,-0.122833,0.428711,-14254,8873,-4987,849,-29849
3300,248748,4.77559,-9.05352,1.22979,-85.7318,-25.3455,-48.0872,16.4185,0.732422,25.6348,-0.591217,0.67215,-0.123199,0.428223,-14237,8883,-5002,849,-29849
3306,248754,4.9957,-8.74727,0.846973,-85.6659,-25.2246,-48.0762,11.3525,0,26.8555,-0.593048,0.671112,-0.123993,0.427063,-14229,8887,-5012,849,-29849
3312,248760,5.0627,-9.3167,0.574219,-85.6165,-25.0983,-48.0542,10.1318,0.366211,28.9917,-0.593872,0.670715,-0.124451,0.426422,-14219,8891,-5020,849,-29849
3318,248766,5.08662,-9.5416,0.631641,-85.5725,-24.9664,-48.0322,13.1836,1.28174,31.6162,-0.594696,0.670349,-0.125031,0.42572,-14213,8897,-5025,849,-29849
3324,248772,4.46455,-9.20664,0.382813,-85.5121,-24.8181,-48.0157,14.5874,1.89209,31.3721,-0.595642,0.66983,-0.125641,0.425018,-14208,8903,-5025,849,-29849
3330,248778,3.67979,-9.41719,0.330176,-85.3802,-24.5215,-47.9773,15.1367,-0.976563,32.1045,-0.596588,0.669312,-0.126221,0.424347,-14203,8911,-5023,849,-29849
3336,248784,5.17754,-10.1924,0.47373,-85.3363,-24.3677,-47.9114,21.5454,-7.08008,34.6069,-0.598694,0.668396,-0.127136,0.422546,-14191,8929,-5018,849,-29849
3342,248790,4.83779,-9.78564,-0.129199,-85.2539,-24.2084,-47.8455,23.0103,-6.28662,35.8276,-0.599945,0.667816,-0.127472,0.421539,-14183,8939,-5021,849,-29849
3348,248796,6.65137,-12.1878,1.13408,-85.166,-24.0436,-47.785,14.8315,-8.42285,43.5791,-0.601288,0.667206,-0.127808,0.420563,-14174,8947,-5028,849,-29849
3354,248802,9.34541,-11.5992,2.70361,-85.1221,-23.8458,-47.7136,29.7241,-16.7847,55.0537,-0.602509,0.666779,-0.128479,0.41925,-14163,8954,-5036,849,-29849
3360,248808,7.46963,-10.0297,-0.430664,-84.8694,-23.3075,-47.6202,28.9917,13.1836,59.6313,-0.604462,0.666016,-0.128967,0.41748,-14137,8967,-5051,849,-29849
3366,248814,7.20645,-11.939,2.07197,-84.7705,-22.9889,-47.5763,26.9775,-2.80762,73.0591,-0.608063,0.663818,-0.131775,0.414856,-14125,8975,-5056,849,-29849
3372,248820,7.67061,-10.958,2.21074,-84.6606,-22.6428,-47.5159,32.5928,5.7373,78.7354,-0.610138,0.662811,-0.133179,0.413025,-14112,8986,-5056,849,-29849
3378,248826,6.63223,-10.1924,1.49297,-84.5068,-22.2693,-47.4994,26.4282,8.72803,84.7778,-0.612396,0.661438,-0.134857,0.411316,-14097,8996,-5056,849,-29849
3384,248832,6.41211,-10.1302,2.07676,-84.375,-21.8683,-47.4884,21.6064,6.22559,91.0034,-0.614563,0.660126,-0.136871,0.409515,-14080,9009,-5062,849,-29849
3390,248838,6.5126,-10.2259,2.3543,-84.1827,-20.9839,-47.4609,18.7988,9.8877,94.4824,-0.616699,0.658936,-0.139069,0.407471,-14038,9040,-5081,849,-29849
3396,248844,6.07715,-10.2833,1.28242,-84.1223,-20.5115,-47.45,7.62939,6.65283,103.699,-0.620789,0.656677,-0.144196,0.403137,-14016,9057,-5096,841,-29952
3402,248850,7.13945,-10.4699,2.12939,-84.0894,-20.0226,-47.417,5.24902,5.85938,108.154,-0.622711,0.655731,-0.146973,0.400635,-13994,9076,-5105,841,-29952
3408,248856,7.1873,-10.4077,2.34951,-84.0729,-19.5117,-47.3785,3.72314,12.7563,114.258,-0.624634,0.654846,-0.149872,0.39801,-13967,9095,-5110,841,-29952
3414,248862,6.4791,-10.5561,1.63652,-84.0509,-18.9734,-47.3785,-1.0376,15.3198,119.629,-0.626556,0.653839,-0.153168,0.395386,-13937,9114,-5117,841,-29952
3420,248868,6.39775,-11.2116,1.18193,-84.0839,-17.8088,-47.3621,-6.46973,10.6812,126.038,-0.628418,0.652863,-0.156738,0.39267,-13866,9163,-5133,841,-29952
3426,248874,6.09629,-11.6136,-0.44502,-84.1223,-17.1881,-47.3126,-5.00488,3.54004,139.282,-0.632172,0.651245,-0.164185,0.38623,-13826,9190,-5146,841,-29952
3432,248880,6.75664,-11.5801,0.406738,-84.1663,-16.5344,-47.2467,-5.85938,-1.89209,146.851,-0.634247,0.650391,-0.167999,0.382599,-13785,9216,-5156,841,-29952
3438,248886,7.42656,-12.2021,0.961816,-84.2212,-15.8478,-47.1533,-5.79834,1.58691,152.771,-0.636414,0.649597,-0.171906,0.378601,-13743,9245,-5168,841,-29952
3444,248892,7.17295,-12.1734,1.36377,-84.2651,-15.1282,-47.0709,-4.02832,2.13623,160.4,-0.638641,0.648651,-0.176025,0.374512,-13699,9274,-5184,841,-29952
3450,248898,7.10117,-11.7332,0.631641,-84.342,-13.5901,-46.8842,-2.80762,-2.2583,168.823,-0.640991,0.647583,-0.180359,0.37027,-13606,9337,-5206,841,-29952
3456,248904,6.6083,-12.5515,0.325391,-84.397,-12.7661,-46.7853,-5.31006,-2.92969,183.838,-0.645996,0.645355,-0.189423,0.36087,-13556,9372,-5216,841,-29952
3462,248910,7.17295,-12.6998,0.114844,-84.4464,-11.9092,-46.6699,-2.86865,-4.82178,192.017,-0.648621,0.644135,-0.194214,0.355774,-13501,9409,-5224,841,-29952
3468,248916,7.57969,-12.896,-0.0382813,-84.4849,-11.0138,-46.5436,-1.95313,-6.10352,200.989,-0.651367,0.642761,-0.199127,0.350403,-13446,9446,-5230,841,-29952
3474,248922,8.17305,-13.4989,-0.712988,-84.5178,-10.0745,-46.4063,3.66211,-5.12695,211.853,-0.654266,0.641296,-0.204193,0.344757,-13386,9487,-5240,841,-29952
3480,248928,7.93857,-13.9104,-1.40205,-84.5233,-8.05298,-46.1316,5.31006,-5.06592,221.191,-0.65741,0.639526,-0.209503,0.338867,-13249,9572,-5263,841,-29952
3486,248934,8.24004,-14.3555,-1.91406,-84.4849,-6.97083,-45.9943,15.2588,-5.06592,244.202,-0.664185,0.635254,-0.220703,0.326294,-13176,9616,-5268,841,-29952
3492,248940,8.1252,-14.3268,-1.59346,-84.4354,-5.82825,-45.8459,19.104,-8.23975,255.554,-0.667877,0.632721,-0.226654,0.31955,-13095,9659,-5268,841,-29952
3498,248946,7.83809,-14.2215,-1.35898,-84.364,-4.64172,-45.6702,22.2778,-10.2539,266.663,-0.671753,0.629974,-0.232727,0.312408,-13015,9701,-5267,841,-29952
3504,248952,8.02471,-14.0396,-1.19629,-84.2761,-3.39478,-45.4834,23.1934,-9.94873,278.87,-0.675812,0.626953,-0.238953,0.304871,-12930,9743,-5266,849,-29849
3510,248958,7.19209,-14.5134,0.210547,-84.1003,-0.758057,-45.0824,19.5313,-11.7188,288.269,-0.679962,0.623749,-0.245483,0.296997,-12744,9829,-5273,849,-29849
3516,248964,7.62275,-13.6377,1.03359,-84.0015,0.620728,-44.8462,19.2871,-16.6016,305.603,-0.688263,0.616974,-0.258942,0.28006,-12644,9877,-5280,849,-29849
3522,248970,7.78066,-14.0253,0.794336,-83.9136,2.03796,-44.599,14.2822,-17.8223,314.209,-0.692383,0.613434,-0.265869,0.271118,-12540,9928,-5286,849,-29849
3528,248976,7.58447,-15.2551,0.866113,-83.8422,3.48816,-44.3408,9.94873,-20.6909,321.533,-0.696381,0.609833,-0.27298,0.26178,-12429,9979,-5291,849,-29849
3534,248982,7.54619,-16.504,0.579004,-83.7817,4.97681,-44.0607,10.376,-23.1323,327.332,-0.700226,0.606232,-0.280212,0.252075,-12320,10030,-5297,849,-29849
3540,248988,7.39785,-17.0974,0.325391,-83.6389,8.02002,-43.4564,10.2539,-24.4751,333.862,-0.704041,0.602478,-0.287415,0.242096,-12085,10130,-5299,849,-29849
3546,248994,6.68965,-16.7815,0.46416,-83.5345,9.56909,-43.1378,19.7754,-23.0713,338.623,-0.711578,0.594391,-0.30188,0.221558,-11956,10180,-5302,849,-29849
3552,249000,6.32119,-16.2217,1.12451,-83.3917,11.1182,-42.8247,22.3999,-25.7568,340.637,-0.715332,0.589905,-0.309082,0.211304,-11818,10226,-5303,849,-29849
3558,249006,5.60342,-15.078,2.22988,-83.2269,12.6782,-42.4951,20.3247,-32.2266,338.013,-0.719086,0.585236,-0.316162,0.200928,-11669,10269,-5306,849,-29849
3564,249012,5.6417,-15.3986,1.58867,-83.0566,14.2163,-42.1271,17.8833,-39.4897,336.06,-0.722687,0.580597,-0.322876,0.190399,-11525,10308,-5313,849,-29849
3570,249018,6.20635,-16.193,0.756055,-82.6941,17.2156,-41.2756,14.4653,-42.8467,329.895,-0.726166,0.57605,-0.329285,0.179718,-11224,10382,-5326,849,-29849
3576,249024,7.16338,-18.1214,-1.49775,-82.5238,18.6603,-40.8417,15.8691,-49.6826,317.2,-0.732391,0.567352,-0.341278,0.158569,-11068,10418,-5334,849,-29849
3582,249030,8.44102,-18.2362,-2.2251,-82.3041,20.0665,-40.3638,23.6206,-58.3496,315.308,-0.735413,0.562927,-0.34668,0.148193,-10909,10453,-5340,849,-29849
3588,249036,10.6183,-15.2072,-1.55518,-82.0184,21.4453,-39.8309,40.8936,-66.9556,309.692,-0.738617,0.558289,-0.351654,0.137756,-10747,10485,-5345,849,-29849
3594,249042,10.5848,-12.0777,-2.16289,-81.6119,22.7911,-39.2487,39.3066,-64.0869,307.312,-0.742218,0.553162,-0.356018,0.127563,-10581,10512,-5353,849,-29849
3600,249048,10.5178,-8.68984,-1.20586,-80.8044,25.3784,-38.0841,37.2925,-62.3169,297.18,-0.745575,0.548065,-0.360352,0.117493,-10261,10559,-5372,849,-29849
3606,249054,12.8816,4.44541,-10.0297,-80.2551,26.5155,-37.4304,75.6226,-66.6504,256.836,-0.752258,0.537842,-0.367371,0.0987549,-10098,10579,-5381,849,-29849
3612,249060,11.9438,11.5227,-10.2067,-79.6454,27.5537,-36.8372,104.675,-31.5552,234.192,-0.755859,0.532288,-0.370056,0.0909424,-9936,10594,-5392,849,-29849
3618,249066,-3.5458,8.72813,-6.3499,-78.9807,28.493,-36.4471,106.812,37.9028,160.278,-0.759369,0.526062,-0.373169,0.0852356,-9774,10603,-5403,857,-29850
3624,249072,-8.74727,0.267969,6.6418,-78.5358,29.1357,-36.524,78.6133,-6.71387,69.519,-0.761414,0.520691,-0.376892,0.0835876,-9612,10606,-5419,857,-29850
3630,249078,-1.21064,-2.65098,10.9006,-77.6459,29.1302,-36.0297,68.0542,-75.5615,19.6533,-0.763214,0.517853,-0.377136,0.0834656,-9304,10599,-5466,857,-29850
3636,249084,1.39248,-3.86162,0.497656,-77.3822,28.7402,-35.7605,4.69971,-57.9834,-74.0967,-0.767181,0.516785,-0.3703,0.0845032,-9164,10594,-5489,857,-29850
3642,249090,3.71807,-4.31621,-1.36377,-77.2943,28.136,-35.5627,7.44629,-76.2329,-111.084,-0.7677,0.51886,-0.365784,0.0867615,-9035,10592,-5516,857,-29850
3648,249096,7.61318,-1.80879,-3.65586,-77.179,27.3395,-35.3101,14.2212,-72.5098,-140.259,-0.768372,0.521484,-0.359833,0.0898438,-8922,10594,-5545,857,-29850
3654,249102,10.0536,-0.76084,-3.78506,-77.0581,26.4001,-35.1178,11.5967,-60.6079,-155.945,-0.768982,0.524292,-0.353271,0.0941467,-8825,10597,-5569,857,-29850
3660,249108,11.1255,-1.35898,-2.12461,-76.9757,24.3677,-34.9915,12.5122,-47.7295,-162.231,-0.769165,0.530487,-0.340424,0.104736,-8673,10608,-5610,857,-29850
3666,249114,9.48418,-1.55996,-1.00488,-76.9592,23.3459,-35.0189,10.7422,-32.7759,-159.729,-0.768951,0.533447,-0.334412,0.110565,-8621,10615,-5627,857,-29850
3672,249120,8.16348,-1.51211,-0.966602,-76.9757,22.3462,-35.0739,6.28662,-28.4424,-159.241,-0.768524,0.536438,-0.328613,0.116364,-8586,10624,-5642,857,-29850
3678,249126,6.88584,-1.20107,-1.43555,-77.0142,21.3519,-35.1453,4.02832,-24.1089,-162.476,-0.767853,0.53949,-0.322937,0.122192,-8566,10633,-5652,857,-29850
3684,249132,5.90488,-0.358887,-1.72744,-77.0801,20.3467,-35.2441,1.2207,-24.0479,-168.396,-0.767029,0.542633,-0.317352,0.128204,-8559,10644,-5661,857,-29850
3690,249138,5.83789,0.090918,-1.33506,-77.2614,18.2373,-35.4639,-4.15039,-23.4375,-176.453,-0.76474,0.549408,-0.305664,0.140686,-8571,10665,-5673,857,-29850
3696,249144,5.50771,0.0574219,-0.885254,-77.3987,17.1277,-35.6012,-17.4561,-19.6533,-193.054,-0.763184,0.553131,-0.299652,0.147278,-8585,10677,-5680,857,-29850
3702,249150,5.36416,-0.378027,-0.736914,-77.58,15.9741,-35.7495,-24.7803,-20.2637,-202.576,-0.761292,0.55719,-0.293488,0.154053,-8608,10690,-5687,857,-29850
3708,249156,4.92393,-0.679492,-0.995313,-77.7942,14.7711,-35.8978,-31.4331,-20.6299,-213.867,-0.759094,0.561554,-0.287079,0.161011,-8643,10705,-5690,857,-29850
3714,249162,4.5124,-1.20107,-1.08145,-78.0359,13.5187,-36.0461,-39.2456,-21.8506,-226.685,-0.756561,0.566193,-0.280396,0.168243,-8686,10722,-5690,857,-29850
3720,249168,4.13916,-1.86143,-1.23936,-78.6127,10.816,-36.3373,-44.1284,-25.2686,-239.014,-0.750488,0.576447,-0.26593,0.183441,-8798,10764,-5675,857,-29850
3726,249174,4.63682,-3.11992,-1.59346,-78.9258,9.37683,-36.4471,-51.6357,-35.1563,-260.681,-0.74707,0.581909,-0.258026,0.191284,-8865,10787,-5664,857,-29850
3732,249180,4.83301,-3.85684,-1.72266,-79.2444,7.88269,-36.535,-51.2695,-38.5742,-267.761,-0.743408,0.587524,-0.249725,0.199219,-8930,10808,-5654,857,-29850
3738,249186,4.71338,-4.46934,-1.78008,-79.5575,6.36108,-36.6064,-52.124,-43.6401,-273.438,-0.739594,0.593109,-0.241119,0.207275,-9003,10830,-5643,874,-29852
3744,249192,4.6416,-4.96699,-1.66523,-79.8706,4.80652,-36.6449,-52.5513,-49.3774,-276.855,-0.735657,0.598724,-0.232147,0.215271,-9085,10849,-5630,874,-29852
3750,249198,4.55068,-5.55078,-1.39727,-80.4858,1.65344,-36.6119,-50.8423,-54.5654,-279.541,-0.727478,0.609772,-0.213379,0.230865,-9283,10884,-5590,874,-29852
3756,249204,4.78516,-6.56045,-0.77998,-80.7825,0.0604248,-36.5405,-50.7202,-65.5518,-281.189,-0.723297,0.615173,-0.203552,0.238403,-9397,10900,-5558,874,-29852
3762,249210,5.10576,-7.01504,-0.435449,-81.0791,-1.52161,-36.4307,-49.7437,-71.0449,-280.029,-0.719055,0.620483,-0.193573,0.245728,-9510,10915,-5527,874,-29852
3768,249216,5.26367,-7.4792,-0.0478516,-81.3702,-3.09814,-36.2823,-50.2319,-74.8901,-277.588,-0.714783,0.625641,-0.183411,0.252747,-9630,10931,-5490,874,-29852
3774,249222,5.21104,-8.0582,0.334961,-81.6724,-4.6582,-36.1011,-50.7202,-78.186,-275.513,-0.71048,0.630707,-0.173187,0.259491,-9759,10946,-5448,874,-29852
3780,249228,5.45029,-8.8334,1.00967,-82.2821,-7.73987,-35.6396,-50.7813,-81.9092,-274.475,-0.70166,0.640472,-0.152466,0.272217,-10033,10967,-5362,874,-29852
3786,249234,5.21582,-9.6708,1.43076,-82.6062,-9.26147,-35.3705,-54.4434,-85.3271,-272.583,-0.697144,0.645203,-0.142059,0.278259,-10179,10975,-5315,874,-29852
3792,249240,5.12969,-10.4843,1.79922,-82.9413,-10.7721,-35.0848,-54.6875,-86.0596,-274.231,-0.692505,0.649841,-0.131622,0.284119,-10333,10981,-5262,874,-29852
3798,249246,5.19668,-10.9293,1.77529,-83.2874,-12.2827,-34.7772,-54.2603,-87.0361,-275.513,-0.687744,0.654358,-0.121124,0.289886,-10482,10987,-5210,874,-29852
3804,249252,5.59863,-11.4557,1.96191,-83.6334,-13.7878,-34.4531,-56.8237,-85.4492,-276.855,-0.682922,0.658722,-0.110565,0.295563,-10639,10989,-5154,874,-29852
3810,249258,6.3499,-12.0873,1.87578,-84.3695,-16.7816,-33.783,-56.9458,-84.4727,-276.978,-0.672882,0.667084,-0.0895691,0.306763,-10961,10978,-5030,874,-29852
3816,249264,6.63223,-12.652,1.79922,-84.754,-18.2593,-33.4479,-59.5093,-77.0874,-273.987,-0.667694,0.671021,-0.0792236,0.312317,-11125,10964,-4964,874,-29852
3822,249270,6.61787,-13.2214,1.63174,-85.144,-19.715,-33.1183,-58.1665,-73.6084,-270.813,-0.662384,0.674805,-0.0690918,0.31781,-11295,10946,-4900,874,-29852
3828,249276,6.76621,-13.4032,1.37813,-85.5286,-21.1432,-32.7942,-57.0068,-71.7163,-266.113,-0.657104,0.678345,-0.0591736,0.323212,-11458,10926,-4837,874,-29852
3834,249282,6.9624,-13.5468,1.27285,-85.9186,-22.5385,-32.4591,-57.9834,-68.9087,-260.193,-0.651825,0.681671,-0.049469,0.328491,-11628,10901,-4771,874,-29852
3840,249288,6.66572,-14.1114,1.11973,-86.7261,-25.2136,-31.7944,-58.96,-66.04,-254.15,-0.641235,0.687897,-0.0309143,0.33847,-11981,10833,-4627,874,-29852
3846,249294,6.27813,-14.2693,1.17236,-87.149,-26.499,-31.4594,-62.9883,-63.7207,-247.498,-0.635895,0.690826,-0.0220337,0.343262,-12159,10793,-4555,874,-29852
3852,249300,6.06279,-14.3459,1.28242,-87.594,-27.7679,-31.1078,-67.0776,-64.6362,-247.437,-0.630432,0.693695,-0.0133057,0.3479,-12339,10748,-4481,882,-29853
3858,249306,5.97666,-14.7383,1.49775,-88.0774,-29.0314,-30.7343,-71.167,-65.1855,-249.207,-0.624817,0.696625,-0.00460815,0.352417,-12520,10697,-4412,882,-29853
3864,249312,6.05801,-15.3891,1.63174,-88.5938,-30.2893,-30.3442,-74.4629,-65.1245,-251.709,-0.618988,0.699524,0.0039978,0.356903,-12691,10642,-4342,882,-29853
3870,249318,6.2542,-16.9299,1.98105,-89.7144,-32.8217,-29.5148,-77.5757,-64.8193,-254.883,-0.60675,0.705261,0.0213013,0.365906,-13039,10508,-4201,882,-29853
3876,249324,6.62266,-17.5663,2.16768,-90.3076,-34.0961,-29.0698,-79.7729,-59.9976,-261.841,-0.600372,0.708038,0.0299683,0.370453,-13213,10429,-4129,882,-29853
3882,249330,6.9002,-18.0209,2.12461,-90.9174,-35.3815,-28.6304,-79.834,-56.1523,-263.55,-0.593872,0.710632,0.0386047,0.375122,-13387,10342,-4056,882,-29853
3888,249336,7.3835,-18.4372,2.27295,-91.5271,-36.6669,-28.1964,-77.4536,-49.6216,-263.733,-0.587311,0.713043,0.0471497,0.379883,-13560,10246,-3985,882,-29853
3894,249342,7.4457,-18.6765,2.49785,-92.1204,-37.9468,-27.7734,-74.4019,-41.5649,-262.634,-0.58078,0.715179,0.055542,0.384766,-13731,10140,-3915,882,-29853
3900,249348,7.54141,-18.3702,3.21563,-93.2245,-40.4572,-27.0209,-71.9604,-33.8135,-260.071,-0.567963,0.718506,0.0716248,0.394928,-14049,9918,-3787,882,-29853
3906,249354,7.34043,-18.0879,3.50273,-93.7354,-41.6766,-26.6968,-71.5332,-16.6016,-251.526,-0.561676,0.719757,0.0791626,0.400116,-14204,9792,-3734,882,-29853
3912,249360,7.04854,-17.8438,3.8042,-94.2297,-42.8741,-26.4166,-73.7915,-6.83594,-247.192,-0.55545,0.720764,0.0863037,0.405457,-14356,9654,-3681,882,-29853
3918,249366,5.97666,-18.0783,3.74678,-94.6967,-44.0497,-26.1859,-75.8667,-0.549316,-243.53,-0.549225,0.721619,0.0929871,0.410919,-14504,9505,-3629,882,-29853
3924,249372,5.83311,-18.0353,3.61758,-95.1526,-45.1978,-25.9882,-75.7446,7.38525,-241.638,-0.54303,0.72229,0.0993347,0.416443,-14645,9344,-3574,882,-29853
3930,249378,4.74688,-17.8056,3.72285,-95.9821,-47.4664,-25.7245,-80.9326,22.0337,-239.38,-0.530609,0.723083,0.111145,0.427948,-14905,9022,-3471,882,-29853
3936,249384,4.52676,-17.6716,3.22041,-96.3721,-48.5925,-25.6531,-81.7871,29.6631,-237.976,-0.524323,0.723236,0.116638,0.433929,-15026,8851,-3427,882,-29853
3942,249390,4.16309,-17.7051,2.83281,-96.7346,-49.7131,-25.6311,-80.4443,37.1704,-233.582,-0.518066,0.723206,0.121826,0.440033,-15139,8673,-3389,882,-29853
3948,249396,3.4166,-17.729,2.52656,-97.0422,-50.8063,-25.6641,-79.0405,43.2129,-229.004,-0.511932,0.722931,0.126709,0.446228,-15244,8493,-3354,882,-29853
3954,249402,1.92842,-18.0496,2.25381,-97.5201,-52.9102,-25.8728,-76.9653,49.3774,-221.863,-0.50592,0.722473,0.131287,0.452454,-15339,8311,-3328,882,-29853
3960,249408,-0.660352,-17.3366,2.57441,-97.6904,-53.8934,-26.0376,-70.6787,53.833,-203.918,-0.494629,0.7211,0.139313,0.464569,-15502,7950,-3289,882,-29853
3966,249414,-1.81357,-16.437,3.64629,-97.8223,-54.8273,-26.2299,-67.0776,51.2695,-192.017,-0.48941,0.720215,0.142883,0.470337,-15569,7775,-3275,882,-29853
3972,249420,-3.78506,-16.638,4.17266,-97.9376,-55.7007,-26.4166,-69.2749,46.6309,-172.974,-0.484497,0.71936,0.146149,0.475708,-15629,7602,-3265,857,-29850
3978,249426,-4.76602,-17.7338,3.32568,-98.0695,-56.4697,-26.5869,-72.5708,41.5649,-155.884,-0.479919,0.718719,0.148834,0.480469,-15681,7431,-3257,857,-29850
3984,249432,-5.43594,-19.4086,1.79443,-98.399,-57.7277,-26.8506,-64.5142,35.2783,-141.418,-0.475555,0.718353,0.15094,0.48468,-15725,7266,-3256,857,-29850
3990,249438,-7.71367,-19.5187,0.15791,-98.5034,-58.222,-26.9604,-43.0908,30.5786,-107.483,-0.468597,0.717651,0.15451,0.491364,-15797,6955,-3263,857,-29850
3996,249444,-9.05352,-18.4181,1.03838,-98.5529,-58.6285,-27.0758,-37.4756,29.7241,-90.4541,-0.466125,0.717194,0.155823,0.493927,-15827,6814,-3269,857,-29850
4002,249450,-11.1255,-17.8056,1.77529,-98.5638,-58.9417,-27.2131,-33.1421,26.6113,-75.2563,-0.464203,0.716797,0.156677,0.496033,-15854,6679,-3277,857,-29850
4008,249456,-12.317,-16.7815,2.56484,-98.5583,-59.1779,-27.3395,-32.4097,21.4233,-60.1196,-0.462738,0.716492,0.157196,0.497681,-15878,6551,-3283,857,-29850
4014,249462,-12.8529,-16.1021,3.49795,-98.6133,-59.3811,-27.5372,-35.8276,17.7612,-44.1284,-0.461609,0.7164,0.157318,0.49884,-15920,6322,-3291,857,-29850
4020,249468,-12.5132,-16.3987,4.56504,-98.7012,-59.3536,-27.6086,-45.5933,8.30078,-14.5874,-0.459961,0.717072,0.155914,0.499817,-15940,6224,-3292,857,-29850
4026,249474,-11.2164,-16.8294,4.22529,-98.8275,-59.2493,-27.6581,-46.2646,9.21631,-1.15967,-0.459381,0.717865,0.15448,0.499664,-15959,6135,-3295,857,-29850
4032,249480,-9.9292,-17.3223,3.68936,-98.9264,-59.0735,-27.735,-43.8843,14.5874,11.7798,-0.459106,0.718719,0.152527,0.499268,-15976,6049,-3297,857,-29850
4038,249486,-8.7377,-17.1404,3.26826,-98.9594,-58.8318,-27.8833,-37.9028,20.874,24.4141,-0.459229,0.719513,0.150146,0.498718,-15992,5969,-3298,857,-29850
4044,249492,-7.73281,-16.772,2.98594,-98.7286,-58.1836,-28.4271,-33.0811,28.8696,35.9497,-0.459869,0.720123,0.147308,0.498077,-16014,5830,-3307,857,-29850
4050,249498,15.346,-39.1809,16.0351,-99.7174,-57.1619,-27.702,-22.7051,28.8086,210.754,-0.462036,0.725586,0.138702,0.490601,-16025,5774,-3311,857,-29850
4056,249504,-6.66094,-16.9155,-9.01523,-99.2834,-55.9698,-28.2678,123.291,231.323,185.303,-0.467133,0.726715,0.13031,0.486389,-16034,5731,-3319,857,-29850
4062,249510,-15.0445,-1.50732,-15.925,-96.7676,-55.0415,-30.498,99.0601,168.213,199.585,-0.477295,0.720367,0.121674,0.48822,-16042,5696,-3325,857,-29850
4068,249516,-0.789551,-1.86621,1.55039,-94.9384,-53.9594,-32.0801,55.9692,32.7148,210.815,-0.486542,0.715851,0.113281,0.487762,-16047,5672,-3332,857,-29850
4074,249522,8.89561,-3.31611,10.3072,-93.4167,-51.5533,-33.1512,57.6172,76.7822,212.158,-0.493896,0.715088,0.106506,0.482971,-16044,5664,-3367,857,-29850
4080,249528,4.82344,-4.83301,9.42676,-92.417,-50.3943,-34.2279,8.66699,92.5293,206.97,-0.507965,0.710938,0.0893555,0.477966,-16040,5678,-3392,857,-29850
4086,249534,5.6082,-2.42607,8.39795,-91.7578,-49.2242,-34.9585,0.610352,35.5835,211.792,-0.513855,0.709564,0.0805054,0.475281,-16032,5705,-3421,841,-29952
4092,249540,7.78066,-2.16289,6.37383,-91.4886,-48.0267,-35.2277,-32.0435,2.01416,218.689,-0.519318,0.709473,0.0726624,0.470703,-16024,5736,-3449,841,-29952
4098,249546,8.99131,-5.94795,4.2875,-91.571,-46.7908,-35.2441,-62.9272,-10.8032,233.765,-0.523743,0.710724,0.0647278,0.464996,-16012,5776,-3483,841,-29952
4104,249552,8.15391,-10.6087,3.75156,-92.0874,-44.1376,-35.1782,-58.8989,-2.0752,245.605,-0.527435,0.712891,0.0560608,0.458618,-15974,5883,-3558,841,-29952
4110,249558,4.46455,-14.9201,1.9332,-92.1478,-42.7698,-35.3375,-39.978,48.4619,243.103,-0.535736,0.715759,0.0374451,0.446289,-15950,5948,-3587,841,-29952
4116,249564,0.0717773,-17.3031,1.74658,-92.049,-41.4514,-35.6781,-22.1558,64.1479,231.506,-0.5401,0.715942,0.02771,0.441376,-15923,6021,-3610,841,-29952
4122,249570,-1.93799,-17.997,2.81367,-91.8127,-40.199,-36.1011,3.96729,43.8843,217.712,-0.544739,0.715332,0.0183411,0.437134,-15893,6104,-3624,841,-29952
4128,249576,-2.35908,-19.0019,2.13896,-91.5546,-39.0125,-36.3757,22.2168,20.752,204.041,-0.549835,0.714417,0.0104065,0.432526,-15864,6185,-3636,841,-29952
4134,249582,0.631641,-21.0738,0.559863,-91.1591,-36.9031,-36.4417,23.0103,-1.2207,177.185,-0.555145,0.71344,0.00375366,0.42746,-15794,6365,-3668,841,-29952
4140,249588,6.29248,-12.3936,-3.58408,-90.9338,-36.0297,-36.3263,51.9409,-2.80762,140.625,-0.564941,0.7117,-0.00521851,0.417358,-15754,6461,-3687,841,-29952
4146,249594,7.78545,-10.6518,-2.97158,-90.6592,-35.2332,-36.2604,26.6113,32.7148,129.456,-0.569763,0.710327,-0.00869751,0.413055,-15714,6557,-3703,841,-29952
4152,249600,6.36426,-12.2165,-3.78027,-90.3955,-34.5026,-36.4032,-10.9253,83.1909,107.666,-0.573517,0.708954,-0.0131531,0.410095,-15671,6653,-3723,841,-29952
4158,249606,2.01455,-15.6857,-3.50273,-90.1538,-33.8818,-36.8481,-24.7803,114.685,85.5103,-0.575623,0.707611,-0.0188293,0.409241,-15627,6743,-3742,841,-29952
4164,249612,-1.05273,-16.7098,-2.0002,-89.5715,-33.0139,-38.15,-17.8223,124.512,56.0913,-0.576813,0.706085,-0.0248413,0.409882,-15545,6910,-3775,841,-29952
4170,249618,0.229688,-9.94834,3.27783,-89.1815,-32.7118,-38.6609,37.9028,62.561,38.3301,-0.579315,0.701996,-0.0337219,0.41272,-15505,6988,-3793,841,-29952
4176,249624,2.44043,-6.05801,4.56025,-88.7915,-32.4316,-38.963,28.0762,43.0908,34.3628,-0.581604,0.699829,-0.0358887,0.412994,-15468,7064,-3812,841,-29952
4182,249630,2.23467,-5.73262,4.34014,-88.5168,-32.179,-39.1443,5.61523,30.0903,32.1655,-0.583527,0.698273,-0.0375977,0.412781,-15432,7135,-3837,841,-29952
4188,249636,1.97148,-7.27822,2.73232,-88.3905,-31.9373,-39.2542,-10.376,15.1367,29.3579,-0.584778,0.697479,-0.0393066,0.41217,-15400,7202,-3870,841,-29952
4194,249642,2.68926,-8.7999,1.05752,-88.4564,-31.5198,-39.2487,-19.043,7.75146,23.5596,-0.58551,0.697388,-0.0408325,0.411163,-15339,7321,-3928,841,-29952
4200,249648,3.40703,-10.6853,-0.191406,-88.5114,-31.3495,-39.2212,-6.16455,5.06592,15.564,-0.586243,0.697876,-0.0432129,0.409058,-15310,7372,-3953,841,-29952
4206,249654,3.55059,-9.8335,0.689063,-88.5223,-31.2012,-39.1827,3.72314,2.44141,13.1226,-0.586823,0.697876,-0.0439453,0.408112,-15281,7417,-3976,849,-29849
4212,249660,3.50273,-8.65635,1.16279,-88.4949,-31.0693,-39.1333,5.06592,0.12207,10.7422,-0.587677,0.697662,-0.044342,0.407196,-15256,7461,-3996,849,-29849
4218,249666,3.69414,-8.28311,1.21064,-88.4619,-30.9485,-39.0674,0.0610352,-0.854492,8.17871,-0.588501,0.697479,-0.0445862,0.406281,-15234,7502,-4017,849,-29849
4224,249672,3.67979,-8.84297,1.09102,-88.4784,-30.7507,-38.9191,-3.66211,-2.38037,6.10352,-0.589142,0.697449,-0.0448303,0.405396,-15196,7576,-4057,849,-29849
4230,249678,4.46934,-8.68027,0.756055,-88.5004,-30.6683,-38.8202,-1.28174,-5.61523,3.05176,-0.590149,0.697632,-0.0449829,0.403625,-15182,7609,-4073,849,-29849
4236,249684,4.63682,-8.75205,0.512012,-88.5114,-30.5914,-38.7268,-2.38037,-4.57764,3.54004,-0.590668,0.697693,-0.0449219,0.40274,-15165,7638,-4085,849,-29849
4242,249690,4.76602,-8.90518,0.708203,-88.5333,-30.52,-38.6389,-3.17383,-3.05176,3.84521,-0.591125,0.697784,-0.0448914,0.401917,-15150,7663,-4093,849,-29849
4248,249696,4.77559,-8.79033,0.636426,-88.5498,-30.4486,-38.5565,-2.86865,-3.96729,3.84521,-0.591553,0.697876,-0.0449219,0.401123,-15136,7690,-4103,849,-29849
4254,249702,4.99092,-8.75684,0.545508,-88.5883,-30.3003,-38.3807,-2.38037,-4.21143,5.12695,-0.59198,0.697998,-0.0448914,0.400299,-15109,7735,-4132,849,-29849
4260,249708,4.80908,-8.8334,0.46416,-88.5992,-30.2234,-38.3093,-2.68555,-1.46484,6.46973,-0.592896,0.69812,-0.0449524,0.398712,-15097,7754,-4146,849,-29849
4266,249714,4.4502,-8.83818,0.660352,-88.6102,-30.1465,-38.2379,-2.50244,-1.89209,6.04248,-0.593353,0.698181,-0.0450439,0.397949,-15088,7768,-4156,849,-29849
4272,249720,4.42627,-8.67549,0.684277,-88.6212,-30.0751,-38.161,-3.05176,-2.50244,5.12695,-0.593781,0.698212,-0.0450745,0.397186,-15079,7782,-4165,849,-29849
4278,249726,4.40234,-8.76162,0.861328,-88.6322,-30.0037,-38.0841,-4.08936,-2.44141,5.37109,-0.594177,0.698303,-0.045105,0.396454,-15070,7795,-4173,849,-29849
4284,249732,4.28271,-8.69941,0.559863,-88.6816,-29.8773,-37.9248,-4.69971,-3.84521,4.63867,-0.594574,0.698395,-0.045105,0.395721,-15054,7819,-4186,849,-29849
4290,249738,4.68467,-9.16357,0.200977,-88.7146,-29.8224,-37.8369,-3.84521,-4.02832,3.78418,-0.595184,0.69873,-0.0450134,0.394196,-15045,7830,-4192,849,-29849
4296,249744,4.45977,-8.95303,0.287109,-88.7366,-29.7675,-37.7545,-1.52588,-4.15039,2.86865,-0.59552,0.698853,-0.0449219,0.393463,-15038,7841,-4193,849,-29849
4302,249750,4.70381,-8.72813,0.507227,-88.7531,-29.718,-37.6721,-1.34277,-3.78418,3.60107,-0.595917,0.698944,-0.0447693,0.392792,-15032,7851,-4192,849,-29849
4308,249756,4.62725,-8.7042,0.330176,-88.764,-29.6631,-37.5897,-1.83105,-3.11279,2.68555,-0.596283,0.699005,-0.0446167,0.39209,-15029,7861,-4187,849,-29849
4314,249762,4.42627,-8.88603,0.363672,-88.7805,-29.5752,-37.4304,-1.28174,-3.17383,2.80762,-0.597015,0.699127,-0.044281,0.390808,-15027,7879,-4177,849,-29849
4320,249768,4.52197,-8.72813,0.334961,-88.786,-29.5367,-37.3535,-0.671387,-3.23486,2.13623,-0.597382,0.699158,-0.0440674,0.390167,-15027,7887,-4170,841,-29952
4326,249774,4.68945,-8.88125,0.244043,-88.797,-29.4928,-37.2711,-0.305176,-3.35693,1.95313,-0.597748,0.699219,-0.0438538,0.389587,-15027,7893,-4166,841,-29952
4332,249780,4.74209,-8.79033,-0.00957031,-88.797,-29.4598,-37.1942,0.549316,-1.58691,1.58691,-0.598114,0.699249,-0.0436096,0.388977,-15026,7900,-4162,841,-29952
4338,249786,4.58896,-8.88125,0.0717773,-88.797,-29.4269,-37.1283,1.2207,-1.2207,1.83105,-0.59848,0.699249,-0.043396,0.388458,-15023,7906,-4159,849,-29849
4344,249792,4.55068,-8.9291,0.13877,-88.775,-29.361,-36.9965,2.31934,-1.15967,1.34277,-0.599274,0.699158,-0.0429382,0.387451,-15013,7919,-4155,849,-29849
4350,249798,4.53154,-8.81426,0.210547,-88.7476,-29.3335,-36.936,5.24902,0,1.2207,-0.599731,0.699036,-0.0426636,0.386993,-15010,7923,-4154,849,-29849
4356,249804,4.50762,-8.64678,0.492871,-88.7201,-29.3005,-36.8756,5.7373,0.793457,1.2207,-0.600189,0.698883,-0.0423889,0.386536,-15006,7926,-4155,849,-29849
4362,249810,4.45498,-8.575,0.62207,-88.6816,-29.2731,-36.8262,5.06592,1.0376,1.09863,-0.600677,0.6987,-0.0421143,0.386139,-15003,7928,-4152,849,-29849
4368,249816,4.46455,-8.63242,0.6125,-88.6542,-29.2511,-36.7712,4.39453,0.915527,0.610352,-0.601166,0.698547,-0.0418396,0.385742,-15001,7931,-4148,849,-29849
4374,249822,4.47891,-8.72813,0.60293,-88.5938,-29.2017,-36.6669,4.63867,0.976563,0.610352,-0.60202,0.698242,-0.0412903,0.384979,-14991,7937,-4144,849,-29849
4380,249828,4.40713,-8.55586,0.808691,-88.5663,-29.1852,-36.6119,4.08936,0.12207,0.366211,-0.602448,0.69809,-0.0409851,0.384613,-14986,7940,-4145,849,-29849
4386,249834,4.40713,-8.50801,0.703418,-88.5388,-29.1632,-36.557,3.11279,-0.305176,-0.12207,-0.602844,0.697968,-0.0406799,0.384216,-14984,7942,-4147,849,-29849
4392,249840,4.59375,-8.54629,0.660352,-88.5168,-29.1467,-36.5021,2.2583,-0.976563,0.0610352,-0.60321,0.697876,-0.0403748,0.38385,-14982,7946,-4148,849,-29849
4398,249846,4.74688,-8.65635,0.47373,-88.5059,-29.1302,-36.4362,2.0752,-0.976563,0.427246,-0.603577,0.697845,-0.0400696,0.383423,-14982,7947,-4148,849,-29849
4404,249852,4.71816,-8.65635,0.210547,-88.4839,-29.0918,-36.3153,1.70898,-0.610352,1.0376,-0.604248,0.697723,-0.0394592,0.382599,-14981,7953,-4157,849,-29849
4410,249858,4.54111,-8.85732,0.406738,-88.4674,-29.0698,-36.2604,3.72314,-0.12207,1.46484,-0.604614,0.697662,-0.0392151,0.382202,-14981,7956,-4160,849,-29849
4416,249864,4.54111,-8.70898,0.368457,-88.4454,-29.0479,-36.2,4.5166,-0.793457,1.64795,-0.605011,0.69754,-0.0389099,0.381805,-14981,7961,-4161,849,-29849
4422,249870,4.66553,-8.68506,0.325391,-88.418,-29.0259,-36.1395,4.27246,-0.488281,1.95313,-0.605408,0.697449,-0.0386047,0.381378,-14983,7966,-4160,849,-29849
4428,249876,4.69424,-8.77119,0.330176,-88.396,-29.0039,-36.0846,4.76074,-0.305176,2.44141,-0.605835,0.697327,-0.0382996,0.380951,-14984,7969,-4161,849,-29849
4434,249882,4.66074,-8.84775,0.263184,-88.3356,-28.9545,-35.9692,5.61523,-0.183105,2.74658,-0.60672,0.697021,-0.0377502,0.380127,-14985,7972,-4175,849,-29849
4440,249888,4.6416,-8.81426,0.339746,-88.3026,-28.927,-35.9143,7.32422,0.549316,3.72314,-0.607208,0.696838,-0.0374451,0.3797,-14983,7972,-4182,841,-29952
4446,249894,4.53154,-8.75684,0.430664,-88.2587,-28.8995,-35.8594,7.93457,0.610352,3.479,-0.607727,0.696625,-0.0371704,0.379303,-14982,7970,-4187,841,-29952
4452,249900,4.53633,-8.6707,0.492871,-88.2202,-28.8721,-35.8099,7.87354,0.305176,3.78418,-0.608246,0.696411,-0.0368958,0.378876,-14980,7969,-4184,841,-29952
4458,249906,4.57461,-8.69463,0.655566,-88.1763,-28.8446,-35.755,7.99561,-0.12207,4.02832,-0.608795,0.696198,-0.0366211,0.378479,-14977,7967,-4179,841,-29952
4464,249912,4.57461,-8.58936,0.631641,-88.0939,-28.7842,-35.6451,7.69043,-0.12207,4.15039,-0.609863,0.69577,-0.0360413,0.377594,-14976,7967,-4169,841,-29952
4470,249918,4.65596,-8.6707,0.708203,-88.0609,-28.7512,-35.5902,5.98145,-1.2207,5.06592,-0.610352,0.695587,-0.0357666,0.377136,-14974,7967,-4167,841,-29952
4476,249924,4.55547,-8.74248,0.540723,-88.028,-28.7183,-35.5298,6.04248,-0.732422,5.43213,-0.61084,0.695435,-0.0355225,0.376648,-14976,7966,-4168,841,-29952
4482,249930,4.45498,-8.71855,0.583789,-88.0005,-28.6853,-35.4694,6.65283,-1.28174,5.67627,-0.611328,0.695282,-0.0352783,0.37619,-14977,7965,-4168,841,-29952
4488,249936,4.4167,-8.68027,0.679492,-87.9675,-28.6469,-35.4089,6.22559,-0.915527,5.31006,-0.611847,0.695099,-0.0350342,0.375671,-14980,7965,-4169,841,-29952
4494,249942,4.50762,-8.63721,0.75127,-87.9071,-28.5809,-35.2881,5.43213,-1.40381,5.18799,-0.612793,0.694824,-0.0345154,0.374695,-14988,7970,-4170,841,-29952
4500,249948,4.74688,-8.61328,0.593359,-87.8906,-28.548,-35.2167,4.15039,-2.74658,5.7373,-0.613251,0.694702,-0.0342407,0.374176,-14988,7974,-4171,841,-29952
4506,249954,4.92871,-8.76162,0.320605,-87.8741,-28.5095,-35.1508,3.35693,-2.2583,6.53076,-0.613708,0.694641,-0.0339966,0.373627,-14988,7976,-4169,841,-29952
4512,249960,4.94307,-8.92432,0.234473,-87.8632,-28.4711,-35.0848,3.60107,-1.09863,7.26318,-0.614105,0.69455,-0.033783,0.373077,-14987,7977,-4169,841,-29952
4518,249966,5.00049,-8.86689,0.16748,-87.8412,-28.4326,-35.0244,4.15039,-0.854492,8.66699,-0.614563,0.694458,-0.0336304,0.372559,-14986,7975,-4173,841,-29952
4524,249972,4.9957,-8.78555,0.272754,-87.7972,-28.3282,-34.9091,4.63867,-0.549316,9.58252,-0.615509,0.694214,-0.0334167,0.371429,-14986,7976,-4186,841,-29952
4530,249978,5.12012,-8.80469,0.282324,-87.7753,-28.2733,-34.8486,4.21143,0,13.1226,-0.616028,0.694092,-0.0333862,0.370819,-14984,7976,-4191,841,-29952
4536,249984,4.72295,-8.94346,0.263184,-87.7533,-28.2019,-34.7937,4.3335,1.89209,13.3057,-0.616547,0.69397,-0.0334167,0.370178,-14981,7977,-4190,841,-29952
4542,249990,4.18701,-9.05352,0.459375,-87.7258,-28.136,-34.7498,4.88281,1.2207,12.9395,-0.617096,0.693817,-0.0334778,0.369598,-14978,7979,-4191,841,-29952
4548,249996,4.37842,-8.88603,0.846973,-87.6984,-28.0646,-34.7058,6.83594,-0.976563,13.0005,-0.617615,0.693634,-0.0335388,0.369019,-14972,7981,-4193,841,-29952
4554,250002,4.55547,-8.77598,0.607715,-87.6324,-27.9327,-34.5905,6.16455,0.0610352,12.9395,-0.618805,0.693268,-0.0335083,0.367737,-14960,7990,-4195,841,-29952
4560,250008,4.59375,-8.91475,0.411523,-87.6105,-27.8613,-34.5355,4.5166,0.12207,13.7329,-0.619354,0.693115,-0.0335083,0.367065,-14955,7999,-4203,841,-29952
4566,250014,4.67031,-9.06309,0.354102,-87.583,-27.7899,-34.4861,5.61523,0.732422,14.1602,-0.619904,0.692963,-0.0335693,0.366425,-14952,8010,-4210,841,-29952
4572,250020,4.86172,-9.02959,0.31582,-87.5555,-27.7185,-34.4366,7.20215,0.427246,15.1367,-0.620483,0.69278,-0.0336304,0.365814,-14950,8019,-4215,841,-29952
4578,250026,4.69902,-9.24014,0.234473,-87.5171,-27.6416,-34.3817,7.93457,0.488281,15.625,-0.621124,0.692566,-0.0336609,0.365143,-14947,8027,-4219,841,-29952
4584,250032,5.06748,-8.99609,0.200977,-87.4292,-27.4768,-34.2828,9.33838,0.366211,17.334,-0.622498,0.692047,-0.0338135,0.363739,-14944,8042,-4226,841,-29952
4590,250038,4.74688,-9.54639,0.0287109,-87.3798,-27.3779,-34.2499,9.82666,1.46484,19.7754,-0.623199,0.691742,-0.0340271,0.363098,-14943,8046,-4225,841,-29952
4596,250044,5.59385,-9.30234,0.172266,-87.3248,-27.2845,-34.2004,14.3433,-0.732422,23.3765,-0.623993,0.691437,-0.0342102,0.362335,-14939,8053,-4231,841,-29952
4602,250050,5.52207,-9.08223,0.220117,-87.2589,-27.1692,-34.14,12.8784,4.69971,23.6816,-0.624939,0.69104,-0.0343628,0.36145,-14936,8060,-4237,841,-29952
4608,250056,5.16797,-9.13008,0.30625,-87.1875,-27.0483,-34.1125,13.0005,4.94385,26.9165,-0.625824,0.690582,-0.0346985,0.360718,-14930,8066,-4238,841,-29952
4614,250062,5.37373,-9.58945,0.191406,-87.0392,-26.7792,-34.0521,13.7939,4.27246,27.9541,-0.627777,0.689667,-0.035553,0.359039,-14920,8083,-4250,841,-29952
