Timestamp,AccX,AccY,AccZ,AngularVelX,AngularVelY,AngularVelZ,MagX,MagY,MagZ,AirPressure
943772,-0.685588,9.73749,-0.379964,0.07,-0.28,-0.42,-23.3846,-66.5978,40.6731,1022.64
943778,-0.605013,9.84703,-0.384716,0.14,-0.28,-0.49,-23.3846,-66.5978,40.6731,1022.64
943784,-0.65715,9.77559,-0.389468,0.28,-0.07,-0.56,-23.3846,-66.5978,40.6731,1022.64
943790,-0.623972,9.86132,-0.408476,0.49,0.07,-0.56,-23.3846,-66.5978,40.6731,1022.64
943796,-0.695067,9.85656,-0.39422,0.49,0.21,-0.49,-23.3846,-66.5978,40.6731,1022.65
943802,-0.571835,9.87084,-0.432235,0.49,-0.14,-0.63,-23.3846,-66.5978,40.6731,1022.65
943808,-0.671369,9.84227,-0.427483,0.42,0.14,-0.63,-23.3846,-66.5978,40.6731,1022.62
943814,-0.638191,9.87084,-0.417979,0.49,0,-0.7,-23.3846,-66.5978,40.6731,1022.62
943820,-0.586054,9.80893,-0.384716,0.35,0.07,-0.7,-23.3846,-66.5978,40.6731,1022.62
943826,-0.64767,9.93752,-0.417979,0.7,0.21,-0.56,-23.3846,-66.5978,40.6731,1022.64
943832,-0.680848,9.78988,-0.389468,0.35,0.14,-0.63,-23.3846,-66.5978,40.6731,1022.64
943838,-0.595534,9.86132,-0.422731,0.42,0,-0.56,-23.3846,-66.5978,40.6731,1022.63
943844,-0.680848,9.80417,-0.375212,0.42,-0.14,-0.56,-23.3846,-66.5978,40.6731,1022.63
943850,-0.633451,9.84227,-0.427483,0.56,-0.07,-0.49,-23.3846,-66.5978,40.6731,1022.65
943856,-0.623972,9.84703,-0.417979,0.56,-0.07,-0.49,-23.3846,-66.5978,40.6731,1022.65
943862,-0.642931,9.84703,-0.365709,0.42,0.07,-0.63,-23.3846,-66.5978,40.6731,1022.66
943868,-0.600273,9.82798,-0.389468,0.49,0,-0.56,-23.3846,-66.5978,40.6731,1022.66
943874,-0.590794,9.81369,-0.422731,0.42,0,-0.63,-23.3846,-66.5978,40.6731,1022.66
943880,-0.685588,9.78988,-0.375212,0.56,0,-0.63,-23.3846,-66.5978,40.6731,1022.66
943886,-0.666629,9.79464,-0.455994,0.49,-0.07,-0.63,-23.3846,-66.5978,40.6731,1022.66
943892,-0.666629,9.82798,-0.351453,0.49,0.07,-0.63,-23.3846,-66.5978,40.6731,1022.65
943898,-0.619232,9.80417,-0.398972,0.49,0,-0.56,-23.3846,-66.5978,40.6731,1022.65
943904,-0.642931,9.82322,-0.532024,0.49,17.85,-0.63,-23.3846,-66.5978,40.6731,1022.65
943910,-0.633451,9.83751,-0.379964,0.56,0.28,-0.7,-23.3846,-66.5978,40.6731,1022.65
943916,-0.65241,9.79464,-0.360957,0.7,0.28,-0.77,-23.3846,-66.5978,40.6731,1022.65
943922,-0.605013,9.83274,-0.370461,0.77,0.21,-0.7,-23.3846,-66.5978,40.6731,1022.62
943928,-0.680848,9.84227,-0.39422,0.56,0.21,-0.63,-23.3846,-66.5978,40.6731,1022.62
943934,-0.595534,9.83274,-0.39422,0.63,0.14,-0.7,-23.3846,-66.5978,40.6731,1022.64
943940,-0.666629,9.84703,-0.417979,0.77,0.21,-0.7,-23.3846,-66.5978,40.6731,1022.64
943946,-0.65241,9.79464,-0.360957,0.56,0,-0.63,-23.3846,-66.5978,40.6731,1022.67
943952,-0.605013,9.78988,-0.44649,0.49,0,-0.63,-23.3846,-66.5978,40.6731,1022.67
943958,-0.695067,9.82322,-0.375212,0.63,0.21,-0.56,-23.3846,-66.5978,40.6731,1022.62
943964,-0.65241,9.88037,-0.408476,0.56,0.07,-0.63,-23.3846,-66.5978,40.6731,1022.62
943970,-0.581314,9.78988,-0.379964,0.56,0.14,-0.7,-23.3846,-66.5978,40.6731,1022.62
943976,-0.633451,9.82322,-0.427483,0.7,0.21,-0.7,-23.3846,-66.5978,40.6731,1022.65
943982,-0.619232,9.84227,-0.322942,0.7,0.21,-0.77,-23.3846,-66.5978,40.6731,1022.65
943988,-0.65241,9.87561,-0.413227,0.56,0.35,-0.77,-23.3846,-66.5978,40.6731,1022.64
943994,-0.685588,9.86132,-0.370461,0.7,0.42,-0.77,-23.3846,-66.5978,40.6731,1022.64
944000,-0.671369,9.83751,-0.408476,0.63,0.21,-0.77,-23.3846,-66.5978,40.6731,1022.63
944006,-0.529178,9.80893,-0.427483,0.49,0.21,-0.7,-23.3846,-66.5978,40.6731,1022.63
944012,-0.680848,9.79464,-0.432235,0.56,0.28,-0.77,-23.3846,-66.5978,40.6731,1022.63
944018,-0.595534,9.79464,-0.389468,0.56,0.28,-0.77,-23.3846,-66.5978,40.6731,1022.63
944024,-0.638191,9.85179,-0.427483,0.7,0.28,-0.77,-23.3846,-66.5978,40.6731,1022.63
944030,-0.695067,9.82322,-0.427483,0.63,0.28,-0.77,-23.3846,-66.5978,40.6731,1022.66
944036,-0.65715,9.82798,-0.398972,0.56,0.14,-0.77,-23.3846,-66.5978,40.6731,1022.66
944042,-0.661889,9.79941,-0.403724,0.7,0.35,-0.77,-23.3846,-66.5978,40.6731,1022.64
944048,-0.65715,9.85179,-0.365709,0.77,0.49,-0.77,-23.3846,-66.5978,40.6731,1022.64
944054,-0.65715,9.82322,-0.398972,0.56,0.28,-0.63,-23.3846,-66.5978,40.6731,1022.64
944060,-0.65715,9.83274,-0.365709,0.42,0.07,-0.63,-23.3846,-66.5978,40.6731,1022.64
944066,-0.709286,9.85179,-0.346701,0.7,0.35,-0.84,-23.3846,-66.5978,40.6731,1022.64
944072,-0.661889,9.86132,-0.398972,0.63,0.42,-0.84,-23.3846,-66.5978,40.6731,1022.6
944078,-0.605013,9.81369,-0.427483,0.63,0.35,-0.84,-23.3846,-66.5978,40.6731,1022.6
944084,-0.633451,9.87084,-0.436987,0.63,0.28,-0.84,-23.3846,-66.5978,40.6731,1022.65
944090,-0.718766,9.81846,-0.403724,0.56,0.49,-0.77,-23.3846,-66.5978,40.6731,1022.65
944096,-0.605013,9.86608,-0.432235,0.63,0.35,-0.77,-23.3846,-66.5978,40.6731,1022.63
944102,-0.642931,9.83274,-0.413227,0.42,0.35,-0.84,-23.3846,-66.5978,40.6731,1022.63
944108,-0.680848,9.84227,-0.384716,0.42,0.42,-0.84,-23.3846,-66.5978,40.6731,1022.64
944114,-0.614492,9.83751,-0.39422,0.63,0.42,-0.84,-23.3846,-66.5978,40.6731,1022.64
944120,-0.65241,9.82322,-0.422731,0.49,0.42,-0.84,-23.3846,-66.5978,40.6731,1022.64
944126,-0.685588,9.81846,-0.408476,0.42,0.28,-0.77,-23.3846,-66.5978,40.6731,1022.66
944132,-0.65241,9.85656,-0.39422,0.56,0.28,-0.84,-23.3846,-66.5978,40.6731,1022.66
944138,-0.676108,9.81369,-0.379964,0.63,0.42,-0.84,-23.3846,-66.5978,40.6731,1022.66
944144,-0.680848,9.85179,-0.432235,0.63,0.42,-0.77,-23.3846,-66.5978,40.6731,1022.66
944150,-0.676108,9.86608,-0.436987,0.49,0.28,-0.77,-23.3846,-66.5978,40.6731,1022.63
944156,-0.680848,9.84703,-0.365709,0.49,0.21,-0.7,-23.3846,-66.5978,40.6731,1022.63
944162,-0.65241,9.84227,-0.398972,0.56,0.28,-0.56,-23.3846,-66.5978,40.6731,1022.63
944168,-0.685588,9.85656,-0.436987,0.7,0.21,-0.49,-23.3846,-66.5978,40.6731,1022.62
944174,-0.690327,9.83751,-0.379964,0.21,-0.07,-0.35,-23.3846,-66.5978,40.6731,1022.62
944180,-0.661889,9.82322,-0.460746,0.28,-0.28,-0.35,-23.3846,-66.5978,40.6731,1022.61
944186,-0.661889,9.81369,-0.436987,0.35,-0.14,-0.28,-23.3846,-66.5978,40.6731,1022.61
944192,-0.680848,9.83751,-0.403724,0.42,-0.21,-0.35,-23.3846,-66.5978,40.6731,1022.63
944198,-0.64767,9.80417,-0.441739,0.28,-0.28,-0.42,-23.3846,-66.5978,40.6731,1022.63
944204,-0.628711,9.87561,-0.408476,0.14,-0.14,-0.28,-23.3846,-66.5978,40.6731,1022.65
944210,-0.671369,9.82322,-0.432235,0.14,-0.14,-0.35,-23.3846,-66.5978,40.6731,1022.65
944216,-0.661889,9.86132,-0.417979,0.21,-0.14,-0.35,-23.3846,-66.5978,40.6731,1022.65
944222,-0.64767,9.82798,-0.489257,0.35,-0.21,-0.49,-23.3846,-66.5978,40.6731,1022.65
944228,-0.595534,9.84227,-0.403724,0.21,-0.21,-0.42,-23.3846,-66.5978,40.6731,1022.65
944234,-0.661889,9.86132,-0.375212,0.14,-0.07,-0.42,-23.3846,-66.5978,40.6731,1022.65
944240,-0.642931,9.82322,-0.403724,0.35,-0.21,-0.56,-23.3846,-66.5978,40.6731,1022.65
944246,-0.680848,9.78988,-0.408476,0.42,-0.14,-0.56,-23.3846,-66.5978,40.6731,1022.61
944252,-0.605013,9.88513,-0.403724,0.49,0.07,-0.56,-23.3846,-66.5978,40.6731,1022.61
944258,-0.709286,9.83274,-0.455994,0.56,0,-0.56,-23.3846,-66.5978,40.6731,1022.61
944264,-0.690327,9.82798,-0.39422,0.49,-0.21,-0.49,-23.3846,-66.5978,40.6731,1022.67
944270,-0.642931,9.80893,-0.417979,0.35,-0.35,-0.49,-23.3846,-66.5978,40.6731,1022.67
944276,-0.64767,9.82798,-0.422731,0.28,-0.21,-0.42,-23.3846,-66.5978,40.6731,1022.62
944282,-0.685588,9.81369,-0.413227,0.49,-0.14,-0.49,-23.3846,-66.5978,40.6731,1022.62
944288,-0.742464,9.85179,-0.44649,0.28,-0.07,-0.49,-23.3846,-66.5978,40.6731,1022.66
944294,-0.676108,9.82322,-0.408476,0.21,-0.14,-0.42,-23.3846,-66.5978,40.6731,1022.66
944300,-0.65715,9.85656,-0.408476,0.21,-0.28,-0.42,-23.3846,-66.5978,40.6731,1022.66
944306,-0.671369,9.82322,-0.413227,0.21,-0.28,-0.49,-23.3846,-66.5978,40.6731,1022.66
944312,-0.671369,9.84703,-0.370461,0.21,-0.28,-0.49,-23.3846,-66.5978,40.6731,1022.66
944318,-0.614492,9.76607,-0.451242,0.14,-0.28,-0.56,-23.3846,-66.5978,40.6731,1022.65
944324,-0.695067,9.85179,-0.379964,0.42,-0.14,-0.56,-23.3846,-66.5978,40.6731,1022.65
944330,-0.65241,9.85656,-0.427483,0.35,-0.21,-0.42,-23.3846,-66.5978,40.6731,1022.65
944336,-0.628711,9.76607,-0.365709,0.07,-0.21,-0.42,-23.3846,-66.5978,40.6731,1022.65
944342,-0.628711,9.84227,-0.432235,0.21,0,-0.56,-23.3846,-66.5978,40.6731,1022.66
944348,-0.64767,9.85656,-0.375212,0.21,0,-0.63,-23.3846,-66.5978,40.6731,1022.66
944354,-0.642931,9.80893,-0.384716,0.28,-0.07,-0.49,-23.3846,-66.5978,40.6731,1022.67
944360,-0.65715,9.82798,-0.455994,0.56,-0.07,-0.63,-23.3846,-66.5978,40.6731,1022.67
944366,-0.680848,9.84703,-0.39422,0.35,0.07,-0.56,-23.3846,-66.5978,40.6731,1022.67
944372,-0.633451,9.83274,-0.432235,0.35,-0.07,-0.56,-23.3846,-66.5978,40.6731,1022.63
944378,-0.638191,9.83751,-0.427483,0.35,-0.07,-0.63,-23.3846,-66.5978,40.6731,1022.63
944384,-0.638191,9.85179,-0.398972,0.35,0,-0.56,-23.3846,-66.5978,40.6731,1022.65
944390,-0.690327,9.79941,-0.360957,0.28,-0.07,-0.56,-23.3846,-66.5978,40.6731,1022.65
944396,-0.661889,9.84703,-0.39422,0.35,-0.14,-0.63,-23.3846,-66.5978,40.6731,1022.64
944402,-0.614492,9.86608,-0.408476,0.21,-0.21,-0.56,-23.3846,-66.5978,40.6731,1022.64
944408,-0.628711,9.82798,-0.398972,0.14,-0.21,-0.49,-23.3846,-66.5978,40.6731,1022.64
944414,-0.64767,9.83751,-0.460746,0.42,-0.07,-0.63,-23.3846,-66.5978,40.6731,1022.67
944420,-0.642931,9.85656,-0.441739,0.35,-0.14,-0.56,-23.3846,-66.5978,40.6731,1022.67
944426,-0.676108,9.79941,-0.375212,0.07,-0.28,-0.49,-23.3846,-66.5978,40.6731,1022.64
944432,-0.623972,9.81846,-0.451242,0.28,-0.21,-0.56,-23.3846,-66.5978,40.6731,1022.64
944438,-0.567095,9.87561,-0.436987,0.35,-0.07,-0.63,-23.3846,-66.5978,40.6731,1022.64
944444,-0.642931,9.82322,-0.427483,0.35,-0.07,-0.56,-23.3846,-66.5978,40.6731,1022.64
944450,-0.671369,9.80417,-0.417979,0.42,0,-0.63,-23.3846,-66.5978,40.6731,1022.65
944456,-0.661889,9.85656,-0.413227,0.63,0,-0.63,-23.3846,-66.5978,40.6731,1022.65
944462,-0.676108,9.85179,-0.455994,0.42,0.07,-0.7,-23.3846,-66.5978,40.6731,1022.65
944468,-0.685588,9.79941,-0.365709,0.35,0.07,-0.7,-23.3846,-66.5978,40.6731,1022.68
944474,-0.65715,9.85656,-0.432235,0.56,0,-0.7,-23.3846,-66.5978,40.6731,1022.68
944480,-0.638191,9.85656,-0.408476,0.56,0.07,-0.7,-23.3846,-66.5978,40.6731,1022.64
944486,-0.680848,9.90895,-0.436987,0.42,0.28,-0.49,-23.3846,-66.5978,40.6731,1022.64
944492,-0.714026,9.83274,-0.451242,0.28,-0.07,-0.42,-23.3846,-66.5978,40.6731,1022.65
944498,-0.595534,9.84227,-0.39422,0.28,0,-0.49,-23.3846,-66.5978,40.6731,1022.65
944504,-0.638191,9.81369,-0.432235,0.42,0.07,-0.49,-23.3846,-66.5978,40.6731,1022.65
944510,-0.723505,9.80417,-0.398972,0.35,-0.07,-0.42,-23.3846,-66.5978,40.6731,1022.66
944516,-0.638191,9.82798,-0.460746,0.35,-0.21,-0.42,-23.3846,-66.5978,40.6731,1022.66
944522,-0.642931,9.78988,-0.417979,0.28,-0.14,-0.42,-23.3846,-66.5978,40.6731,1022.63
944528,-0.642931,9.84227,-0.417979,0.28,-0.07,-0.49,-23.3846,-66.5978,40.6731,1022.63
944534,-0.695067,9.83274,-0.39422,0.21,0,-0.42,-23.3846,-66.5978,40.6731,1022.64
944540,-0.633451,9.81846,-0.432235,0.21,-0.21,-0.42,-23.3846,-66.5978,40.6731,1022.64
944546,-0.671369,9.81369,-0.413227,-0.07,-0.21,-0.49,-23.3846,-66.5978,40.6731,1022.63
944552,-0.633451,9.81369,-0.370461,0.14,-0.28,-0.49,-23.3846,-66.5978,40.6731,1022.63
944558,-0.65715,9.83751,-0.370461,0.35,-0.28,-0.42,-23.3846,-66.5978,40.6731,1022.63
944564,-0.642931,9.85179,-0.432235,0.28,-0.14,-0.35,-23.3846,-66.5978,40.6731,1022.66
944570,-0.65715,9.81369,-0.403724,0.35,-0.28,-0.35,-23.3846,-66.5978,40.6731,1022.66
944576,-0.638191,9.83274,-0.417979,0.21,-0.28,-0.49,-23.3846,-66.5978,40.6731,1022.64
944582,-0.65241,9.81369,-0.427483,0.42,-0.21,-0.49,-23.3846,-66.5978,40.6731,1022.64
944588,-0.685588,9.83274,-0.422731,0.35,-0.28,-0.49,-23.3846,-66.5978,40.6731,1022.69
944594,-0.642931,9.84227,-0.44649,0.21,-0.21,-0.49,-23.3846,-66.5978,40.6731,1022.69
944600,-0.676108,9.82798,-0.422731,0.28,-0.35,-0.42,-23.3846,-66.5978,40.6731,1022.69
944606,-0.642931,9.85179,-0.413227,0.21,-0.35,-0.49,-23.3846,-66.5978,40.6731,1022.65
944612,-0.690327,9.80893,-0.417979,0.21,-0.21,-0.42,-23.3846,-66.5978,40.6731,1022.65
944618,-0.638191,9.82322,-0.451242,0.14,-0.28,-0.42,-23.3846,-66.5978,40.6731,1022.6
944624,-0.64767,9.82322,-0.413227,0.21,-0.35,-0.35,-23.3846,-66.5978,40.6731,1022.6
944630,-0.676108,9.81369,-0.422731,0.07,-0.49,-0.35,-23.3846,-66.5978,40.6731,1022.67
944636,-0.567095,9.76607,-0.375212,-0.07,-0.63,-0.35,-23.3846,-66.5978,40.6731,1022.67
944642,-0.623972,9.79941,-0.351453,0.07,-0.49,-0.28,-23.3846,-66.5978,40.6731,1022.65
944648,-0.642931,9.82798,-0.422731,0.14,-0.42,-0.28,-23.3846,-66.5978,40.6731,1022.65
944654,-0.64767,9.85656,-0.39422,0.28,-0.14,-0.42,-23.3846,-66.5978,40.6731,1022.65
944660,-0.65241,9.83751,-0.417979,0.49,-0.14,-0.42,-23.3846,-66.5978,40.6731,1022.65
944666,-0.65715,9.81846,-0.427483,0.35,-0.21,-0.42,-23.3846,-66.5978,40.6731,1022.65
944672,-0.576575,9.86608,-0.413227,0.42,-0.14,-0.56,-23.3846,-66.5978,40.6731,1022.62
944678,-0.638191,9.82798,-0.403724,0.49,-0.14,-0.56,-23.3846,-66.5978,40.6731,1022.62
944684,-0.685588,9.84703,-0.417979,0.28,-0.14,-0.49,-23.3846,-66.5978,40.6731,1022.64
944690,-0.633451,9.86608,-0.389468,0.21,-0.21,-0.42,-23.3846,-66.5978,40.6731,1022.64
944696,-0.638191,9.75178,-0.408476,0.21,-0.21,-0.42,-23.3846,-66.5978,40.6731,1022.65
944702,-0.65715,9.84703,-0.413227,0.21,-0.14,-0.42,-23.3846,-66.5978,40.6731,1022.65
944708,-0.628711,9.84227,-0.432235,0.14,-0.07,-0.49,-23.3846,-66.5978,40.6731,1022.65
944714,-0.695067,9.80417,-0.403724,0.28,-0.14,-0.42,-23.3846,-66.5978,40.6731,1022.66
944720,-0.628711,9.83751,-0.417979,0.28,-0.21,-0.49,-23.3846,-66.5978,40.6731,1022.66
944726,-0.65241,9.79941,-0.39422,0.28,-0.14,-0.49,-23.3846,-66.5978,40.6731,1022.63
944732,-0.633451,9.84227,-0.441739,0.21,-0.14,-0.49,-23.3846,-66.5978,40.6731,1022.63
944738,-0.65241,9.81846,-0.398972,0.28,-0.14,-0.49,-23.3846,-66.5978,40.6731,1022.64
944744,-0.680848,9.79464,-0.408476,0.35,-0.21,-0.49,-23.3846,-66.5978,40.6731,1022.64
944750,-0.64767,9.87561,-0.441739,0.35,-0.14,-0.49,-23.3846,-66.5978,40.6731,1022.64
944756,-0.685588,9.84227,-0.384716,0.35,-0.14,-0.49,-23.3846,-66.5978,40.6731,1022.66
944762,-0.671369,9.82322,-0.455994,0.35,-0.07,-0.56,-23.3846,-66.5978,40.6731,1022.66
944768,-0.704547,9.86132,-0.432235,0.35,0,-0.56,-23.3846,-66.5978,40.6731,1022.61
944774,-0.685588,9.80893,-0.441739,0.35,-0.21,-0.56,-23.3846,-66.5978,40.6731,1022.61
944780,-0.633451,9.79941,-0.379964,0.35,-0.14,-0.56,-23.3846,-66.5978,40.6731,1022.66
944786,-0.633451,9.86608,-0.384716,0.28,-0.14,-0.63,-23.3846,-66.5978,40.6731,1022.66
944792,-0.661889,9.82322,-0.398972,0.42,-0.07,-0.63,-23.3846,-66.5978,40.6731,1022.65
944798,-0.699807,9.82798,-0.422731,0.49,-0.14,-0.49,-23.3846,-66.5978,40.6731,1022.65
944804,-0.732985,9.87084,-0.403724,0.28,-0.14,-0.49,-23.3846,-66.5978,40.6731,1022.65
944810,-0.676108,9.83274,-0.432235,0.21,-0.35,-0.49,-23.3846,-66.5978,40.6731,1022.65
944816,-0.638191,9.78988,-0.417979,0.07,-0.35,-0.42,-23.3846,-66.5978,40.6731,1022.65
944822,-0.676108,9.82322,-0.384716,0,-0.21,-0.35,-23.3846,-66.5978,40.6731,1022.66
944828,-0.680848,9.83274,-0.389468,0,-0.14,-0.35,-23.3846,-66.5978,40.6731,1022.66
944834,-0.623972,9.81369,-0.432235,0.14,-0.14,-0.28,-23.3846,-66.5978,40.6731,1022.63
944840,-0.676108,9.88037,-0.356205,0.07,-0.42,-0.35,-23.3846,-66.5978,40.6731,1022.63
944846,-0.619232,9.81846,-0.327694,0.21,-0.21,-0.42,-23.3846,-66.5978,40.6731,1022.63
944852,-0.685588,9.81846,-0.365709,0.35,-0.14,-0.35,-23.3846,-66.5978,40.6731,1022.62
944858,-0.642931,9.88037,-0.422731,0.28,-0.21,-0.42,-23.3846,-66.5978,40.6731,1022.62
944864,-0.676108,9.81369,-0.436987,0.14,-0.35,-0.56,-23.3846,-66.5978,40.6731,1022.65
944870,-0.690327,9.83751,-0.432235,0.14,-0.21,-0.42,-23.3846,-66.5978,40.6731,1022.65
944876,-0.680848,9.82798,-0.441739,0.14,-0.35,-0.49,-23.3846,-66.5978,40.6731,1022.65
944882,-0.709286,9.79464,-0.417979,0.21,-0.42,-0.35,-23.3846,-66.5978,40.6731,1022.65
944888,-0.699807,9.85179,-0.441739,0.21,-0.28,-0.42,-23.3846,-66.5978,40.6731,1022.66
944894,-0.704547,9.85656,-0.375212,0.14,-0.49,-0.35,-23.3846,-66.5978,40.6731,1022.66
944900,-0.633451,9.85179,-0.403724,0.14,-0.42,-0.35,-23.3846,-66.5978,40.6731,1022.66
944906,-0.638191,9.85179,-0.441739,0.21,-0.42,-0.42,-23.3846,-66.5978,40.6731,1022.61
944912,-0.623972,9.88513,-0.47025,0.35,-0.49,-0.42,-23.3846,-66.5978,40.6731,1022.61
944918,-0.633451,9.86132,-0.39422,0.35,-0.35,-0.42,-23.3846,-66.5978,40.6731,1022.64
944924,-0.633451,9.78988,-0.441739,0.21,-0.21,-0.28,-23.3846,-66.5978,40.6731,1022.64
944930,-0.685588,9.82322,-0.436987,0.21,-0.28,-0.42,-23.3846,-66.5978,40.6731,1022.63
944936,-0.65241,9.79941,-0.44649,0.35,-0.21,-0.42,-23.3846,-66.5978,40.6731,1022.63
944942,-0.666629,9.84227,-0.451242,0.42,-0.21,-0.28,-23.3846,-66.5978,40.6731,1022.63
944948,-0.671369,9.77559,-0.365709,0.14,-0.28,-0.49,-23.3846,-66.5978,40.6731,1022.63
944954,-0.709286,9.79464,-0.422731,0.21,-0.28,-0.49,-23.3846,-66.5978,40.6731,1022.63
944960,-0.666629,9.82798,-0.460746,0.35,-0.07,-0.42,-23.3846,-66.5978,40.6731,1022.65
944966,-0.690327,9.86608,-0.422731,0.35,-0.21,-0.28,-23.3846,-66.5978,40.6731,1022.65
944972,-0.690327,9.84703,-0.422731,0.21,-0.35,-0.35,-23.3846,-66.5978,40.6731,1022.66
944978,-0.628711,9.83751,-0.47025,0.21,-0.28,-0.28,-23.3846,-66.5978,40.6731,1022.66
944984,-0.671369,9.84703,-0.413227,0.14,-0.28,-0.35,-23.3846,-66.5978,40.6731,1022.65
944990,-0.718766,9.80417,-0.408476,0.21,-0.28,-0.35,-23.3846,-66.5978,40.6731,1022.65
944996,-0.65715,9.84227,-0.360957,0.14,-0.21,-0.42,-23.3846,-66.5978,40.6731,1022.65
945002,-0.65241,9.78036,-0.39422,0.14,-0.35,-0.28,-23.3846,-66.5978,40.6731,1022.66
945008,-0.590794,9.83274,-0.375212,0.21,-0.21,-0.35,-23.3846,-66.5978,40.6731,1022.66
945014,-0.661889,9.83751,-0.427483,0.28,-0.07,-0.35,-23.3846,-66.5978,40.6731,1022.64
945020,-0.623972,9.83751,-0.460746,0.28,-0.14,-0.35,-23.3846,-66.5978,40.6731,1022.64
945026,-0.614492,9.83751,-0.44649,0.14,-0.14,-0.42,-23.3846,-66.5978,40.6731,1022.64
945032,-0.595534,9.79464,-0.398972,0.21,-0.07,-0.42,-23.3846,-66.5978,40.6731,1022.64
945038,-0.65241,9.80893,-0.417979,0.35,-0.07,-0.42,-23.3846,-66.5978,40.6731,1022.61
945044,-0.680848,9.78988,-0.389468,0.28,-0.07,-0.42,-23.3846,-66.5978,40.6731,1022.61
945050,-0.609753,9.82322,-0.436987,0.21,-0.21,-0.35,-23.3846,-66.5978,40.6731,1022.61
945056,-0.671369,9.80893,-0.432235,0.21,-0.21,-0.35,-23.3846,-66.5978,40.6731,1022.68
945062,-0.642931,9.79464,-0.384716,0.28,-0.14,-0.35,-23.3846,-66.5978,40.6731,1022.68
945068,-0.600273,9.83751,-0.417979,0.21,-0.28,-0.35,-23.3846,-66.5978,40.6731,1022.68
945074,-0.638191,9.80893,-0.427483,0.21,-0.35,-0.28,-23.3846,-66.5978,40.6731,1022.68
945080,-0.64767,9.78512,-0.389468,0.21,-0.21,-0.35,-23.3846,-66.5978,40.6731,1022.63
945086,-0.680848,9.82798,-0.389468,0.14,-0.21,-0.42,-23.3846,-66.5978,40.6731,1022.63
945092,-0.685588,9.86608,-0.408476,0.14,-0.21,-0.42,-23.3846,-66.5978,40.6731,1022.63
945098,-0.661889,9.82322,-0.436987,0.21,-0.35,-0.35,-23.3846,-66.5978,40.6731,1022.63
945104,-0.661889,9.86608,-0.403724,0.14,-0.28,-0.35,-23.3846,-66.5978,40.6731,1022.63
945110,-0.633451,9.86132,-0.427483,0.14,-0.28,-0.21,-23.3846,-66.5978,40.6731,1022.67
945116,-0.680848,9.84703,-0.427483,0.14,-0.35,-0.28,-23.3846,-66.5978,40.6731,1022.67
945122,-0.614492,9.82322,-0.39422,-0.07,-0.42,-0.21,-23.3846,-66.5978,40.6731,1022.65
945128,-0.638191,9.82322,-0.398972,0,-0.56,-0.21,-23.3846,-66.5978,40.6731,1022.65
945134,-0.605013,9.81369,-0.365709,0.21,-0.28,-0.28,-23.3846,-66.5978,40.6731,1022.67
945140,-0.690327,9.83274,-0.441739,0.21,-0.35,-0.21,-23.3846,-66.5978,40.6731,1022.67
945146,-0.609753,9.83274,-0.365709,0.21,-0.35,-0.28,-23.3846,-66.5978,40.6731,1022.67
945152,-0.64767,9.82798,-0.375212,0.28,-0.28,-0.28,-23.3846,-66.5978,40.6731,1022.65
945158,-0.633451,9.79941,-0.408476,0.35,-0.35,-0.28,-23.3846,-66.5978,40.6731,1022.65
945164,-0.704547,9.82798,-0.436987,0.21,-0.28,-0.42,-23.3846,-66.5978,40.6731,1022.66
945170,-0.614492,9.82798,-0.379964,0.14,-0.21,-0.49,-23.3846,-66.5978,40.6731,1022.66
945176,-0.685588,9.83751,-0.432235,0.28,-0.28,-0.42,-23.3846,-66.5978,40.6731,1022.65
945182,-0.623972,9.85656,-0.39422,0.21,-0.35,-0.35,-23.3846,-66.5978,40.6731,1022.65
945188,-0.623972,9.86608,-0.417979,0.21,-0.14,-0.42,-23.3846,-66.5978,40.6731,1022.65
945194,-0.619232,9.82322,-0.417979,0.28,-0.21,-0.35,-23.3846,-66.5978,40.6731,1022.64
945200,-0.685588,9.80893,-0.413227,0.21,-0.21,-0.42,-23.3846,-66.5978,40.6731,1022.64
945206,-0.638191,9.83751,-0.408476,0.28,-0.21,-0.35,-23.3846,-66.5978,40.6731,1022.65
945212,-0.614492,9.81846,-0.436987,0.35,-0.21,-0.35,-23.3846,-66.5978,40.6731,1022.65
945218,-0.609753,9.79941,-0.379964,0.07,-0.21,-0.49,-23.3846,-66.5978,40.6731,1022.68
945224,-0.671369,9.83274,-0.39422,0.21,-0.14,-0.49,-23.3846,-66.5978,40.6731,1022.68
945230,-0.709286,9.83751,-0.379964,0.35,0.07,-0.49,-23.3846,-66.5978,40.6731,1022.65
945236,-0.732985,9.86132,-0.398972,0.35,-0.07,-0.49,-23.3846,-66.5978,40.6731,1022.65
945242,-0.638191,9.81369,-0.417979,0.21,-0.35,-0.56,-23.3846,-66.5978,40.6731,1022.65
945248,-0.619232,9.80417,-0.370461,0.28,-0.28,-0.42,-23.3846,-66.5978,40.6731,1022.66
945254,-0.633451,9.84703,-0.436987,0.42,-0.14,-0.49,-23.3846,-66.5978,40.6731,1022.66
945260,-0.695067,9.84703,-0.436987,0.56,0.07,-0.49,-23.3846,-66.5978,40.6731,1022.65
945266,-0.638191,9.85179,-0.422731,0.49,-0.14,-0.49,-23.3846,-66.5978,40.6731,1022.65
945272,-0.65241,9.79941,-0.39422,0.14,-0.21,-0.56,-23.3846,-66.5978,40.6731,1022.65
945278,-0.64767,9.82322,-0.341949,0.42,-0.14,-0.56,-23.3846,-66.5978,40.6731,1022.65
945284,-0.65241,9.87561,-0.441739,0.42,-0.21,-0.35,-23.3846,-66.5978,40.6731,1022.65
945290,-0.65241,9.82322,-0.432235,0.21,-0.21,-0.35,-23.3846,-66.5978,40.6731,1022.64
945296,-0.633451,9.80893,-0.39422,0.28,-0.21,-0.49,-23.3846,-66.5978,40.6731,1022.64
945302,-0.65715,9.81369,-0.398972,0.42,-0.21,-0.42,-23.3846,-66.5978,40.6731,1022.67
945308,-0.690327,9.82322,-0.375212,0.35,-0.28,-0.35,-23.3846,-66.5978,40.6731,1022.67
945314,-0.567095,9.82322,-0.413227,0.21,-0.35,-0.49,-23.3846,-66.5978,40.6731,1022.63
945320,-0.690327,9.78988,-0.375212,0.28,-0.14,-0.42,-23.3846,-66.5978,40.6731,1022.63
945326,-0.605013,9.82322,-0.432235,0.35,-0.21,-0.42,-23.3846,-66.5978,40.6731,1022.66
945332,-0.65241,9.78988,-0.441739,0.28,-0.28,-0.42,-23.3846,-66.5978,40.6731,1022.66
945338,-0.642931,9.81369,-0.360957,0.28,-0.28,-0.28,-23.3846,-66.5978,40.6731,1022.66
945344,-0.628711,9.80893,-0.451242,0.21,-0.35,-0.21,-23.3846,-66.5978,40.6731,1022.63
945350,-0.638191,9.81369,-0.408476,0.35,-0.21,-0.35,-23.3846,-66.5978,40.6731,1022.63
945356,-0.633451,9.84227,-0.403724,0.35,-0.21,-0.42,-23.3846,-66.5978,40.6731,1022.63
945362,-0.718766,9.78036,-0.403724,0.28,-0.21,-0.42,-23.3846,-66.5978,40.6731,1022.63
945368,-0.609753,9.78512,-0.375212,0.35,-0.07,-0.42,-23.3846,-66.5978,40.6731,1022.64
945374,-0.628711,9.85179,-0.432235,0.49,0.21,-0.42,-23.3846,-66.5978,40.6731,1022.64
945380,-0.661889,9.84703,-0.432235,0.56,0.21,-0.35,-23.3846,-66.5978,40.6731,1022.64
945386,-0.64767,9.87561,-0.451242,0.49,0.21,-0.42,-23.3846,-66.5978,40.6731,1022.64
945392,-0.714026,9.79941,-0.379964,0.35,0.21,-0.42,-23.3846,-66.5978,40.6731,1022.64
945398,-0.704547,9.85656,-0.39422,0.49,0.28,-0.35,-23.3846,-66.5978,40.6731,1022.65
945404,-0.628711,9.85656,-0.403724,0.49,0.14,-0.28,-23.3846,-66.5978,40.6731,1022.65
945410,-0.671369,9.82798,-0.398972,0.42,0.07,-0.28,-23.3846,-66.5978,40.6731,1022.65
945416,-0.65241,9.8899,-0.408476,0.35,0,-0.28,-23.3846,-66.5978,40.6731,1022.65
945422,-0.581314,9.81369,-0.417979,0.21,-0.07,-0.35,-23.3846,-66.5978,40.6731,1022.63
945428,-0.65241,9.81369,-0.44649,0.49,-0.07,-0.35,-23.3846,-66.5978,40.6731,1022.63
945434,-0.685588,9.83751,-0.47025,0.49,-0.14,-0.42,-23.3846,-66.5978,40.6731,1022.63
945440,-0.64767,9.81369,-0.427483,0.28,-0.21,-0.35,-23.3846,-66.5978,40.6731,1022.63
945446,-0.666629,9.81369,-0.365709,0.14,-0.28,-0.28,-23.3846,-66.5978,40.6731,1022.63
945452,-0.690327,9.84227,-0.451242,0.28,-0.14,-0.28,-23.3846,-66.5978,40.6731,1022.62
945458,-0.586054,9.74702,-0.356205,0.14,-0.35,-0.35,-23.3846,-66.5978,40.6731,1022.62
945464,-0.595534,9.78512,-0.39422,0.35,-0.28,-0.28,-23.3846,-66.5978,40.6731,1022.65
945470,-0.619232,9.84703,-0.417979,0.49,-0.07,-0.42,-23.3846,-66.5978,40.6731,1022.65
945476,-0.642931,9.87084,-0.417979,0.28,-0.07,-0.42,-23.3846,-66.5978,40.6731,1022.64
945482,-0.64767,9.82322,-0.484505,0.42,0,-0.42,-23.3846,-66.5978,40.6731,1022.64
945488,-0.685588,9.84227,-0.408476,0.49,0,-0.42,-23.3846,-66.5978,40.6731,1022.64
945494,-0.64767,9.86608,-0.432235,0.35,-0.07,-0.42,-23.3846,-66.5978,40.6731,1022.63
945500,-0.638191,9.86608,-0.413227,0.28,-0.07,-0.42,-23.3846,-66.5978,40.6731,1022.63
945506,-0.671369,9.82322,-0.44649,0.35,-0.07,-0.42,-23.3846,-66.5978,40.6731,1022.64
945512,-0.638191,9.82322,-0.365709,0.21,-0.21,-0.28,-23.3846,-66.5978,40.6731,1022.64
945518,-0.680848,9.81846,-0.417979,0.07,-0.21,-0.28,-23.3846,-66.5978,40.6731,1022.64
945524,-0.642931,9.81846,-0.436987,0.14,-0.35,-0.35,-23.3846,-66.5978,40.6731,1022.64
945530,-0.671369,9.79464,-0.39422,0.14,-0.21,-0.35,-23.3846,-66.5978,40.6731,1022.64
945536,-0.571835,9.82322,-0.360957,0.35,-0.07,-0.28,-23.3846,-66.5978,40.6731,1022.64
945542,-0.699807,9.84227,-0.436987,0.35,-0.14,-0.35,-23.3846,-66.5978,40.6731,1022.64
945548,-0.614492,9.86608,-0.432235,0.35,-0.14,-0.35,-23.3846,-66.5978,40.6731,1022.66
945554,-0.723505,9.81846,-0.422731,0.14,-0.14,-0.35,-23.3846,-66.5978,40.6731,1022.66
945560,-0.699807,9.81846,-0.379964,0.07,-0.21,-0.28,-23.3846,-66.5978,40.6731,1022.64
945566,-0.65241,9.87561,-0.389468,0.07,-0.28,-0.28,-23.3846,-66.5978,40.6731,1022.64
945572,-0.676108,9.84703,-0.408476,0.07,-0.35,-0.28,-23.3846,-66.5978,40.6731,1022.64
945578,-0.609753,9.83274,-0.398972,0.14,-0.42,-0.28,-23.3846,-66.5978,40.6731,1022.64
945584,-0.661889,9.80417,-0.422731,0.28,-0.49,-0.28,-23.3846,-66.5978,40.6731,1022.64
945590,-0.666629,9.85179,-0.432235,0.07,-0.35,-0.14,-23.3846,-66.5978,40.6731,1022.62
945596,-0.623972,9.84703,-0.408476,0.07,-0.49,-0.21,-23.3846,-66.5978,40.6731,1022.62
945602,-0.64767,9.84703,-0.408476,0.14,-0.49,-0.21,-23.3846,-66.5978,40.6731,1022.63
945608,-0.642931,9.86132,-0.403724,0.21,-0.42,0,-23.3846,-66.5978,40.6731,1022.63
945614,-0.690327,9.83274,-0.460746,0,-0.49,0,-23.3846,-66.5978,40.6731,1022.65
945620,-0.638191,9.82322,-0.427483,-0.14,-0.56,-0.07,-23.3846,-66.5978,40.6731,1022.65
945626,-0.638191,9.82798,-0.403724,-0.28,-0.7,-0.07,-23.3846,-66.5978,40.6731,1022.65
945632,-0.586054,9.83274,-0.356205,-0.07,-0.7,-0.07,-23.3846,-66.5978,40.6731,1022.66
945638,-0.557616,9.83274,-0.432235,0.14,-0.42,-0.07,-23.3846,-66.5978,40.6731,1022.66
945644,-0.666629,9.86132,-0.427483,0.07,-0.35,-0.14,-23.3846,-66.5978,40.6731,1022.66
945650,-0.661889,9.88513,-0.408476,0.07,-0.63,0,-23.3846,-66.5978,40.6731,1022.66
945656,-0.676108,9.78512,-0.379964,-0.14,-0.49,-0.07,-23.3846,-66.5978,40.6731,1022.62
945662,-0.671369,9.82798,-0.403724,0.14,-0.42,0.07,-23.3846,-66.5978,40.6731,1022.62
945668,-0.680848,9.91847,-0.475002,0.07,-0.63,0.28,-23.3846,-66.5978,40.6731,1022.66
945674,-0.718766,9.82322,-0.460746,-0.28,-1.05,0.42,-23.3846,-66.5978,40.6731,1022.66
945680,-0.642931,9.81846,-0.403724,-0.49,-1.12,0.42,-23.3846,-66.5978,40.6731,1022.66
945686,-0.623972,9.81369,-0.360957,-0.21,-1.19,0.49,-23.3846,-66.5978,40.6731,1022.62
945692,-0.590794,9.83751,-0.370461,-0.28,-1.12,0.49,-23.3846,-66.5978,40.6731,1022.62
945698,-0.64767,9.82322,-0.44649,0,-0.84,0.42,-23.3846,-66.5978,40.6731,1022.66
945704,-0.605013,9.85179,-0.370461,-0.14,-0.84,0.49,-23.3846,-66.5978,40.6731,1022.66
945710,-0.666629,9.85656,-0.360957,-0.21,-0.91,0.42,-23.3846,-66.5978,40.6731,1022.62
945716,-0.614492,9.83274,-0.370461,-0.07,-1.05,0.35,-23.3846,-66.5978,40.6731,1022.62
945722,-0.638191,9.78988,-0.384716,-0.07,-1.05,0.28,-23.3846,-66.5978,40.6731,1022.64
945728,-0.633451,9.83751,-0.389468,-0.14,-0.91,0.42,-23.3846,-66.5978,40.6731,1022.64
945734,-0.671369,9.87084,-0.408476,-0.28,-0.98,0.42,-23.3846,-66.5978,40.6731,1022.64
945740,-0.623972,9.8899,-0.427483,-0.28,-1.12,0.42,-23.3846,-66.5978,40.6731,1022.65
945746,-0.609753,9.79464,-0.422731,-0.28,-1.05,0.28,-23.3846,-66.5978,40.6731,1022.65
945752,-0.671369,9.86132,-0.398972,-0.14,-0.77,0.14,-23.3846,-66.5978,40.6731,1022.63
945758,-0.699807,9.84703,-0.408476,-0.14,-0.84,0.21,-23.3846,-66.5978,40.6731,1022.63
945764,-0.609753,9.81846,-0.403724,-0.28,-1.05,0.21,-23.3846,-66.5978,40.6731,1022.64
945770,-0.633451,9.80893,-0.360957,-0.35,-1.05,0.14,-23.3846,-66.5978,40.6731,1022.64
945776,-0.600273,9.84227,-0.403724,-0.14,-0.84,0.14,-23.3846,-66.5978,40.6731,1022.64
945782,-0.623972,9.83751,-0.422731,-0.21,-0.84,0.21,-23.3846,-66.5978,40.6731,1022.66
945788,-0.590794,9.79941,-0.413227,-0.14,-0.84,0.21,-23.3846,-66.5978,40.6731,1022.66
945794,-0.614492,9.82322,-0.375212,-0.07,-0.7,0,-23.3846,-66.5978,40.6731,1022.63
945800,-0.642931,9.80417,-0.346701,-0.07,-0.56,0,-23.3846,-66.5978,40.6731,1022.63
945806,-0.600273,9.82798,-0.39422,0.14,-0.49,-0.14,-23.3846,-66.5978,40.6731,1022.64
945812,-0.590794,9.81369,-0.389468,0.21,-0.28,-0.21,-23.3846,-66.5978,40.6731,1022.64
945818,-0.619232,9.78988,-0.422731,0.21,-0.28,-0.21,-23.3846,-66.5978,40.6731,1022.65
945824,-0.64767,9.85179,-0.436987,0.28,-0.28,-0.14,-23.3846,-66.5978,40.6731,1022.65
945830,-0.709286,9.82798,-0.351453,0.07,-0.35,-0.07,-23.3846,-66.5978,40.6731,1022.65
945836,-0.685588,9.83751,-0.389468,0.07,-0.42,0.07,-23.3846,-66.5978,40.6731,1022.67
945842,-0.65715,9.90895,-0.432235,0.07,-0.42,0.14,-23.3846,-66.5978,40.6731,1022.67
945848,-0.595534,9.83751,-0.403724,-0.14,-0.63,0.21,-23.3846,-66.5978,40.6731,1022.67
945854,-0.65241,9.83751,-0.341949,-0.28,-0.84,0.35,-23.3846,-66.5978,40.6731,1022.67
945860,-0.609753,9.84227,-0.360957,-0.14,-0.98,0.35,-23.3846,-66.5978,40.6731,1022.66
945866,-0.576575,9.79464,-0.375212,-0.21,-0.91,0.28,-23.3846,-66.5978,40.6731,1022.66
945872,-0.628711,9.80417,-0.356205,-0.42,-0.77,0.21,-23.3846,-66.5978,40.6731,1022.66
945878,-0.609753,9.80893,-0.384716,-0.21,-0.63,0.07,-23.3846,-66.5978,40.6731,1022.67
945884,-0.581314,9.81369,-0.337197,-0.28,-0.63,0.14,-23.3846,-66.5978,40.6731,1022.67
945890,-0.623972,9.78512,-0.370461,-0.28,-0.49,0,-23.3846,-66.5978,40.6731,1022.65
945896,-0.562356,9.81846,-0.289679,0.07,-0.42,-0.07,-23.3846,-66.5978,40.6731,1022.65
945902,-0.628711,9.81846,-0.379964,0.35,-0.35,-0.14,-23.3846,-66.5978,40.6731,1022.63
945908,-0.64767,9.76607,-0.384716,0.14,-0.35,-0.14,-23.3846,-66.5978,40.6731,1022.63
945914,-0.633451,9.81369,-0.408476,0.21,-0.35,-0.14,-23.3846,-66.5978,40.6731,1022.65
945920,-0.609753,9.83274,-0.451242,0.21,-0.35,-0.14,-23.3846,-66.5978,40.6731,1022.65
945926,-0.623972,9.83751,-0.403724,0.14,-0.35,-0.21,-23.3846,-66.5978,40.6731,1022.65
945932,-0.623972,9.81369,-0.39422,0.07,-0.35,-0.21,-23.3846,-66.5978,40.6731,1022.64
945938,-0.571835,9.81369,-0.39422,0,-0.42,-0.21,-23.3846,-66.5978,40.6731,1022.64
945944,-0.623972,9.85656,-0.356205,0.07,-0.49,-0.14,-23.3846,-66.5978,40.6731,1022.65
945950,-0.595534,9.80417,-0.351453,0,-0.42,-0.21,-23.3846,-66.5978,40.6731,1022.65
945956,-0.576575,9.80893,-0.322942,0.14,-0.28,-0.28,-23.3846,-66.5978,40.6731,1022.63
945962,-0.605013,9.85179,-0.408476,0.28,-0.14,-0.21,-23.3846,-66.5978,40.6731,1022.63
945968,-0.666629,9.85656,-0.384716,0.14,-0.21,-0.14,-23.3846,-66.5978,40.6731,1022.63
945974,-0.586054,9.78036,-0.417979,0.07,-0.35,-0.14,-23.3846,-66.5978,40.6731,1022.66
945980,-0.671369,9.80417,-0.346701,0.07,-0.35,-0.14,-23.3846,-66.5978,40.6731,1022.66
945986,-0.642931,9.81369,-0.413227,0.21,-0.35,-0.21,-23.3846,-66.5978,40.6731,1022.64
945992,-0.609753,9.83751,-0.441739,0.14,-0.35,-0.21,-23.3846,-66.5978,40.6731,1022.64
945998,-0.576575,9.84703,-0.408476,0.07,-0.49,-0.14,-23.3846,-66.5978,40.6731,1022.63
946004,-0.638191,9.76131,-0.370461,0.21,-0.35,-0.21,-23.3846,-66.5978,40.6731,1022.63
946010,-0.581314,9.81369,-0.375212,0.28,-0.28,-0.28,-23.3846,-66.5978,40.6731,1022.64
946016,-0.609753,9.81369,-0.370461,0.14,-0.21,-0.42,-23.3846,-66.5978,40.6731,1022.64
946022,-0.642931,9.88037,-0.375212,0.14,-0.28,-0.42,-23.3846,-66.5978,40.6731,1022.64
946028,-0.633451,9.86132,-0.360957,0.21,-0.35,-0.35,-23.3846,-66.5978,40.6731,1022.62
946034,-0.638191,9.85179,-0.365709,0.07,-0.42,-0.35,-23.3846,-66.5978,40.6731,1022.62
946040,-0.623972,9.81369,-0.432235,-0.07,-0.35,-0.28,-23.3846,-66.5978,40.6731,1022.67
946046,-0.680848,9.87084,-0.365709,0,-0.42,-0.21,-23.3846,-66.5978,40.6731,1022.67
946052,-0.680848,9.86132,-0.422731,0,-0.63,-0.14,-23.3846,-66.5978,40.6731,1022.63
946058,-0.638191,9.84227,-0.384716,-0.07,-0.7,-0.14,-23.3846,-66.5978,40.6731,1022.63
946064,-0.614492,9.81369,-0.332446,0,-0.7,-0.14,-23.3846,-66.5978,40.6731,1022.61
946070,-0.642931,9.84227,-0.370461,-0.07,-0.49,-0.14,-23.3846,-66.5978,40.6731,1022.61
946076,-0.638191,9.76131,-0.356205,0.14,-0.42,-0.07,-23.3846,-66.5978,40.6731,1022.61
946082,-0.605013,9.88513,-0.413227,0.21,-0.56,-0.21,-23.3846,-66.5978,40.6731,1022.62
946088,-0.614492,9.82798,-0.356205,0.14,-0.56,-0.21,-23.3846,-66.5978,40.6731,1022.62
946094,-0.614492,9.78988,-0.379964,0,-0.49,-0.28,-23.3846,-66.5978,40.6731,1022.64
946100,-0.709286,9.93752,-0.417979,-0.14,-0.7,-0.21,-23.3846,-66.5978,40.6731,1022.64
946106,-0.581314,9.78988,-0.403724,-0.63,-1.12,-0.21,-23.3846,-66.5978,40.6731,1022.66
946112,-0.533917,9.72797,-0.403724,-0.28,-0.77,-0.21,-23.3846,-66.5978,40.6731,1022.66
946118,-0.65241,9.87561,-0.39422,0.21,-0.21,-0.14,-23.3846,-66.5978,40.6731,1022.66
946124,-0.533917,9.81369,-0.398972,-0.28,-0.77,-0.28,-23.3846,-66.5978,40.6731,1022.67
946130,-0.590794,9.82322,-0.360957,-0.07,-0.7,-0.21,-23.3846,-66.5978,40.6731,1022.67
946136,-0.628711,9.82322,-0.384716,0.14,-0.49,-0.21,-23.3846,-66.5978,40.6731,1022.65
946142,-0.64767,9.85179,-0.451242,0.14,-0.35,-0.28,-23.3846,-66.5978,40.6731,1022.65
946148,-0.65715,9.85179,-0.384716,-0.14,-0.63,-0.28,-23.3846,-66.5978,40.6731,1022.64
946154,-0.562356,9.85656,-0.351453,0.07,-0.7,-0.14,-23.3846,-66.5978,40.6731,1022.64
946160,-0.590794,9.84227,-0.408476,0,-0.63,-0.14,-23.3846,-66.5978,40.6731,1022.66
946166,-0.65241,9.86608,-0.375212,0.14,-0.49,-0.07,-23.3846,-66.5978,40.6731,1022.66
946172,-0.609753,9.85656,-0.389468,0.21,-0.63,0,-23.3846,-66.5978,40.6731,1022.66
946178,-0.638191,9.82798,-0.403724,-0.07,-0.77,-0.07,-23.3846,-66.5978,40.6731,1022.65
946184,-0.628711,9.79941,-0.375212,0,-0.7,-0.07,-23.3846,-66.5978,40.6731,1022.65
946190,-0.628711,9.84227,-0.39422,0.07,-0.49,0,-23.3846,-66.5978,40.6731,1022.66
946196,-0.623972,9.78512,-0.346701,-0.07,-0.7,0,-23.3846,-66.5978,40.6731,1022.66
946202,-0.619232,9.79941,-0.398972,-0.28,-0.63,-0.07,-23.3846,-66.5978,40.6731,1022.64
946208,-0.567095,9.80893,-0.346701,-0.21,-0.63,-0.07,-23.3846,-66.5978,40.6731,1022.64
946214,-0.628711,9.81846,-0.351453,-0.07,-0.49,-0.07,-23.3846,-66.5978,40.6731,1022.64
946220,-0.638191,9.84703,-0.384716,0.21,-0.35,-0.14,-23.3846,-66.5978,40.6731,1022.63
946226,-0.605013,9.81369,-0.403724,0.14,-0.49,-0.07,-23.3846,-66.5978,40.6731,1022.63
946232,-0.628711,9.80893,-0.341949,0.07,-0.49,-0.14,-23.3846,-66.5978,40.6731,1022.64
946238,-0.65715,9.87084,-0.384716,0.21,-0.42,0,-23.3846,-66.5978,40.6731,1022.64
946244,-0.704547,9.86608,-0.356205,0.07,-0.56,0.14,-23.3846,-66.5978,40.6731,1022.62
946250,-0.642931,9.79464,-0.327694,-0.14,-0.84,0.21,-23.3846,-66.5978,40.6731,1022.62
946256,-0.590794,9.87561,-0.44649,0.14,-0.63,0.28,-23.3846,-66.5978,40.6731,1022.65
946262,-0.595534,9.82322,-0.365709,0.14,-0.7,0.21,-23.3846,-66.5978,40.6731,1022.65
946268,-0.605013,9.82798,-0.384716,-0.07,-0.84,0.28,-23.3846,-66.5978,40.6731,1022.65
946274,-0.552876,9.75178,-0.365709,-0.14,-0.91,0.35,-23.3846,-66.5978,40.6731,1022.64
946280,-0.595534,9.87561,-0.313438,0,-0.91,0.35,-23.3846,-66.5978,40.6731,1022.64
946286,-0.619232,9.89942,-0.436987,-0.28,-0.77,0.35,-23.3846,-66.5978,40.6731,1022.62
946292,-0.557616,9.81369,-0.346701,-0.28,-0.77,0.28,-23.3846,-66.5978,40.6731,1022.62
946298,-0.586054,9.80893,-0.356205,-0.21,-0.7,0.21,-23.3846,-66.5978,40.6731,1022.68
946304,-0.567095,9.83274,-0.375212,0,-0.56,0.14,-23.3846,-66.5978,40.6731,1022.68
946310,-0.562356,9.78036,-0.370461,0.07,-0.35,0.07,-23.3846,-66.5978,40.6731,1022.68
946316,-0.623972,9.84703,-0.360957,0.07,-0.42,0,-23.3846,-66.5978,40.6731,1022.66
946322,-0.590794,9.82798,-0.341949,0,-0.42,-0.07,-23.3846,-66.5978,40.6731,1022.66
946328,-0.505479,9.78512,-0.413227,0.07,-0.35,-0.07,-23.3846,-66.5978,40.6731,1022.64
946334,-0.576575,9.83274,-0.417979,0.28,-0.35,-0.21,-23.3846,-66.5978,40.6731,1022.64
946340,-0.64767,9.86608,-0.351453,-0.49,-0.84,-0.07,-23.3846,-66.5978,40.6731,1022.65
946346,-0.586054,9.82798,-0.341949,-0.91,-2.17,0.21,-23.3846,-66.5978,40.6731,1022.65
946352,-0.320631,9.78036,-0.498761,-1.12,-1.96,0.14,-23.3846,-66.5978,40.6731,1022.66
946358,-0.562356,9.79464,-0.322942,-0.21,-0.21,-0.14,-23.3846,-66.5978,40.6731,1022.66
946364,-0.633451,9.84227,-0.427483,0.07,-0.63,0,-23.3846,-66.5978,40.6731,1022.66
946370,-0.571835,9.82322,-0.384716,-0.28,-0.49,0.07,-23.3846,-66.5978,40.6731,1022.63
946376,-0.586054,9.84227,-0.341949,-0.07,-0.35,0.07,-23.3846,-66.5978,40.6731,1022.63
946382,-0.552876,9.93752,-0.413227,-0.07,-0.56,0.07,-23.3846,-66.5978,40.6731,1022.64
946388,-0.595534,9.84703,-0.341949,-0.21,-0.63,0,-23.3846,-66.5978,40.6731,1022.64
946394,-0.567095,9.77559,-0.346701,-0.14,-0.35,-0.14,-23.3846,-66.5978,40.6731,1022.65
946400,-0.595534,9.86132,-0.332446,0.14,-0.35,-0.07,-23.3846,-66.5978,40.6731,1022.65
946406,-0.557616,9.80417,-0.422731,0.07,-0.35,-0.07,-23.3846,-66.5978,40.6731,1022.63
946412,-0.586054,9.79941,-0.346701,0.07,-0.21,-0.07,-23.3846,-66.5978,40.6731,1022.63
946418,-0.562356,9.85179,-0.375212,0.14,-0.21,-0.14,-23.3846,-66.5978,40.6731,1022.63
946424,-0.619232,9.83751,-0.308686,0.21,0,-0.21,-23.3846,-66.5978,40.6731,1022.65
946430,-0.605013,9.83751,-0.341949,0,-0.21,-0.28,-23.3846,-66.5978,40.6731,1022.65
946436,-0.571835,9.81846,-0.313438,0.07,-0.28,-0.14,-23.3846,-66.5978,40.6731,1022.67
946442,-0.571835,9.81846,-0.341949,0.21,-0.28,-0.21,-23.3846,-66.5978,40.6731,1022.67
946448,-0.605013,9.80417,-0.365709,0.14,-0.14,-0.28,-23.3846,-66.5978,40.6731,1022.65
946454,-0.605013,9.84703,-0.408476,0.21,-0.28,-0.28,-23.3846,-66.5978,40.6731,1022.65
946460,-0.571835,9.88037,-0.370461,0.28,-0.28,-0.35,-23.3846,-66.5978,40.6731,1022.65
946466,-0.576575,9.84703,-0.346701,0.21,-0.35,-0.21,-23.3846,-66.5978,40.6731,1022.64
946472,-0.671369,9.89942,-0.413227,0.07,-0.21,-0.14,-23.3846,-66.5978,40.6731,1022.64
946478,-0.619232,9.86132,-0.365709,-0.07,-0.56,-0.14,-23.3846,-66.5978,40.6731,1022.66
946484,-0.576575,9.79941,-0.39422,-0.28,-0.7,-0.07,-23.3846,-66.5978,40.6731,1022.66
946490,-0.538657,9.82322,-0.313438,0,-0.42,-0.14,-23.3846,-66.5978,40.6731,1022.66
946496,-0.586054,9.81369,-0.327694,0.14,-0.07,-0.21,-23.3846,-66.5978,40.6731,1022.66
946502,-0.529178,9.81369,-0.308686,0.14,-0.21,-0.21,-23.3846,-66.5978,40.6731,1022.65
946508,-0.510219,9.81846,-0.375212,0.42,-0.21,-0.21,-23.3846,-66.5978,40.6731,1022.65
946514,-0.581314,9.81846,-0.322942,0.35,-0.14,-0.35,-23.3846,-66.5978,40.6731,1022.65
946520,-0.510219,9.8899,-0.322942,0.42,-0.14,-0.42,-23.3846,-66.5978,40.6731,1022.66
946526,-0.595534,9.83274,-0.332446,0.42,0,-0.42,-23.3846,-66.5978,40.6731,1022.66
946532,-0.595534,9.82322,-0.398972,0.35,-0.14,-0.35,-23.3846,-66.5978,40.6731,1022.64
946538,-0.614492,9.85179,-0.375212,0.28,-0.14,-0.28,-23.3846,-66.5978,40.6731,1022.64
946544,-0.595534,9.87084,-0.365709,0.28,-0.07,-0.28,-23.3846,-66.5978,40.6731,1022.65
946550,-0.590794,9.84227,-0.39422,0.35,-0.14,-0.28,-23.3846,-66.5978,40.6731,1022.65
946556,-0.633451,9.85179,-0.351453,0.21,-0.28,-0.21,-23.3846,-66.5978,40.6731,1022.65
946562,-0.586054,9.82322,-0.427483,0,-0.42,-0.14,-23.3846,-66.5978,40.6731,1022.67
946568,-0.628711,9.84227,-0.375212,0.07,-0.21,-0.21,-23.3846,-66.5978,40.6731,1022.67
946574,-0.557616,9.87084,-0.360957,0,-0.07,-0.21,-23.3846,-66.5978,40.6731,1022.62
946580,-0.590794,9.81369,-0.351453,0.07,-0.21,-0.07,-23.3846,-66.5978,40.6731,1022.62
946586,-0.595534,9.83751,-0.365709,0.14,-0.28,-0.07,-23.3846,-66.5978,40.6731,1022.67
946592,-0.562356,9.80417,-0.360957,0.07,-0.28,-0.14,-23.3846,-66.5978,40.6731,1022.67
946598,-0.595534,9.83751,-0.351453,0.14,-0.28,-0.21,-23.3846,-66.5978,40.6731,1022.67
946604,-0.552876,9.80893,-0.284927,0.28,-0.28,-0.21,-23.3846,-66.5978,40.6731,1022.67
946610,-0.581314,9.81369,-0.337197,0.35,-0.07,-0.28,-23.3846,-66.5978,40.6731,1022.67
946616,-0.600273,9.78512,-0.346701,0.42,0,-0.35,-23.3846,-66.5978,40.6731,1022.64
946622,-0.586054,9.80893,-0.346701,0.49,0.14,-0.35,-23.3846,-66.5978,40.6731,1022.64
946628,-0.676108,9.83751,-0.370461,0.63,0,-0.42,-23.3846,-66.5978,40.6731,1022.65
946634,-0.600273,9.81369,-0.384716,0.28,-0.21,-0.21,-23.3846,-66.5978,40.6731,1022.65
946640,-0.524438,9.83274,-0.375212,0.21,-0.21,-0.21,-23.3846,-66.5978,40.6731,1022.64
946646,-0.543397,9.79464,-0.379964,0.14,-0.21,-0.28,-23.3846,-66.5978,40.6731,1022.64
946652,-0.576575,9.83751,-0.332446,0.35,-0.21,-0.21,-23.3846,-66.5978,40.6731,1022.64
946658,-0.628711,9.84227,-0.346701,0.14,-0.14,-0.14,-23.3846,-66.5978,40.6731,1022.66
946664,-0.567095,9.79941,-0.341949,0.28,-0.21,-0.28,-23.3846,-66.5978,40.6731,1022.66
946670,-0.557616,9.84703,-0.39422,0.28,-0.21,-0.28,-23.3846,-66.5978,40.6731,1022.64
946676,-0.557616,9.80893,-0.370461,0.07,-0.21,-0.35,-23.3846,-66.5978,40.6731,1022.64
946682,-0.571835,9.86132,-0.356205,0.35,0,-0.35,-23.3846,-66.5978,40.6731,1022.63
946688,-0.628711,9.88513,-0.389468,0.21,-0.07,-0.28,-23.3846,-66.5978,40.6731,1022.63
946694,-0.590794,9.78988,-0.332446,0.14,-0.14,-0.28,-23.3846,-66.5978,40.6731,1022.66
946700,-0.571835,9.81846,-0.341949,0.14,-0.07,-0.35,-23.3846,-66.5978,40.6731,1022.66
946706,-0.619232,9.80417,-0.365709,0.35,-0.07,-0.35,-23.3846,-66.5978,40.6731,1022.66
946712,-0.543397,9.83751,-0.370461,0.35,0,-0.42,-23.3846,-66.5978,40.6731,1022.65
946718,-0.548137,9.86608,-0.327694,0.14,-0.14,-0.42,-23.3846,-66.5978,40.6731,1022.65
946724,-0.609753,9.80417,-0.313438,0.14,-0.07,-0.35,-23.3846,-66.5978,40.6731,1022.66
946730,-0.576575,9.82322,-0.356205,0.42,0.07,-0.42,-23.3846,-66.5978,40.6731,1022.66
946736,-0.595534,9.81846,-0.327694,0.49,0.14,-0.49,-23.3846,-66.5978,40.6731,1022.63
946742,-0.614492,9.86132,-0.337197,0.42,0.07,-0.56,-23.3846,-66.5978,40.6731,1022.63
946748,-0.586054,9.81369,-0.39422,0.63,-0.14,-0.49,-23.3846,-66.5978,40.6731,1022.59
946754,-0.600273,9.81846,-0.408476,0.42,0,-0.49,-23.3846,-66.5978,40.6731,1022.59
946760,-0.64767,9.82798,-0.346701,0.28,-0.21,-0.49,-23.3846,-66.5978,40.6731,1022.59
946766,-0.614492,9.80893,-0.327694,0.35,-0.14,-0.28,-23.3846,-66.5978,40.6731,1022.66
946772,-0.548137,9.80893,-0.384716,0.21,-0.21,-0.35,-23.3846,-66.5978,40.6731,1022.66
946778,-0.609753,9.83274,-0.403724,0.21,-0.35,-0.42,-23.3846,-66.5978,40.6731,1022.64
946784,-0.595534,9.85656,-0.332446,0.21,-0.21,-0.35,-23.3846,-66.5978,40.6731,1022.64
946790,-0.628711,9.81369,-0.389468,0.28,-0.21,-0.21,-23.3846,-66.5978,40.6731,1022.65
946796,-0.548137,9.83751,-0.346701,0.35,-0.14,-0.28,-23.3846,-66.5978,40.6731,1022.65
946802,-0.595534,9.85656,-0.370461,0.35,-0.14,-0.35,-23.3846,-66.5978,40.6731,1022.65
946808,-0.576575,9.82798,-0.384716,0.35,0,-0.35,-23.3846,-66.5978,40.6731,1022.64
946814,-0.605013,9.84703,-0.289679,0.35,0,-0.35,-23.3846,-66.5978,40.6731,1022.64
946820,-0.557616,9.78988,-0.313438,0.56,0.07,-0.35,-23.3846,-66.5978,40.6731,1022.66
946826,-0.609753,9.77083,-0.31819,0.56,0.07,-0.49,-23.3846,-66.5978,40.6731,1022.66
946832,-0.548137,9.77559,-0.39422,0.35,-0.07,-0.63,-23.3846,-66.5978,40.6731,1022.63
946838,-0.529178,9.79464,-0.31819,0.42,0.14,-0.56,-23.3846,-66.5978,40.6731,1022.63
946844,-0.609753,9.85656,-0.403724,0.77,0.56,-0.63,-23.3846,-66.5978,40.6731,1022.64
946850,-0.529178,9.87084,-0.356205,0.7,0.28,-0.7,-23.3846,-66.5978,40.6731,1022.64
946856,-0.628711,9.80417,-0.351453,0.56,0.28,-0.7,-23.3846,-66.5978,40.6731,1022.64
946862,-0.64767,9.8899,-0.351453,0.7,0.21,-0.63,-23.3846,-66.5978,40.6731,1022.66
946868,-0.581314,9.85656,-0.389468,0.49,0.28,-0.63,-23.3846,-66.5978,40.6731,1022.66
946874,-0.581314,9.81846,-0.299183,0.56,0.14,-0.49,-23.3846,-66.5978,40.6731,1022.66
946880,-0.590794,9.85656,-0.413227,0.42,0.07,-0.49,-23.3846,-66.5978,40.6731,1022.66
946886,-0.533917,9.82798,-0.360957,0.21,-0.07,-0.49,-23.3846,-66.5978,40.6731,1022.66
946892,-0.514959,9.76131,-0.313438,0.28,-0.07,-0.56,-23.3846,-66.5978,40.6731,1022.66
946898,-0.680848,9.91847,-0.360957,0.56,0,-0.35,-23.3846,-66.5978,40.6731,1022.66
946904,-0.628711,9.81369,-0.341949,0.21,-0.21,-0.42,-23.3846,-66.5978,40.6731,1022.62
946910,-0.524438,9.82322,-0.398972,0.21,-0.14,-0.35,-23.3846,-66.5978,40.6731,1022.62
946916,-0.666629,9.84227,-0.370461,0.49,0,-0.42,-23.3846,-66.5978,40.6731,1022.66
946922,-0.581314,9.83751,-0.384716,0.35,0,-0.42,-23.3846,-66.5978,40.6731,1022.66
946928,-0.529178,9.83274,-0.379964,0.35,0.07,-0.49,-23.3846,-66.5978,40.6731,1022.68
946934,-0.619232,9.84227,-0.351453,0.35,0.21,-0.56,-23.3846,-66.5978,40.6731,1022.68
946940,-0.552876,9.85656,-0.370461,0.35,0.14,-0.63,-23.3846,-66.5978,40.6731,1022.65
946946,-0.638191,9.84703,-0.360957,0.42,0.14,-0.49,-23.3846,-66.5978,40.6731,1022.65
946952,-0.586054,9.87084,-0.365709,0.42,-0.21,-0.42,-23.3846,-66.5978,40.6731,1022.65
946958,-0.619232,9.86608,-0.379964,0.21,-0.21,-0.35,-23.3846,-66.5978,40.6731,1022.62
946964,-0.538657,9.84703,-0.322942,0.14,-0.21,-0.35,-23.3846,-66.5978,40.6731,1022.62
946970,-0.543397,9.80417,-0.370461,0.14,-0.14,-0.28,-23.3846,-66.5978,40.6731,1022.64
946976,-0.609753,9.82798,-0.379964,0.07,-0.28,-0.21,-23.3846,-66.5978,40.6731,1022.64
946982,-0.529178,9.83274,-0.337197,0.14,-0.35,-0.28,-23.3846,-66.5978,40.6731,1022.64
946988,-0.600273,9.83751,-0.384716,0.35,-0.07,-0.28,-23.3846,-66.5978,40.6731,1022.64
946994,-0.609753,9.86132,-0.370461,0.42,-0.21,-0.28,-23.3846,-66.5978,40.6731,1022.64
947000,-0.543397,9.80417,-0.341949,0.14,-0.28,-0.35,-23.3846,-66.5978,40.6731,1022.64
947006,-0.543397,9.78512,-0.39422,0.63,-0.14,-0.49,-23.3846,-66.5978,40.6731,1022.64
947012,-0.543397,9.88037,-0.303934,0.42,0,-0.49,-23.3846,-66.5978,40.6731,1022.63
947018,-0.576575,9.86132,-0.341949,0.42,0.07,-0.56,-23.3846,-66.5978,40.6731,1022.63
947024,-0.552876,9.84703,-0.389468,0.56,0,-0.42,-23.3846,-66.5978,40.6731,1022.66
947030,-0.567095,9.79464,-0.413227,0.28,-0.07,-0.49,-23.3846,-66.5978,40.6731,1022.66
947036,-0.562356,9.80893,-0.337197,0.42,-0.14,-0.42,-23.3846,-66.5978,40.6731,1022.62
947042,-0.605013,9.84703,-0.403724,0.21,-0.07,-0.42,-23.3846,-66.5978,40.6731,1022.62
947048,-0.586054,9.83274,-0.31819,0.14,-0.14,-0.42,-23.3846,-66.5978,40.6731,1022.62
947054,-0.628711,9.83751,-0.337197,0.28,-0.14,-0.35,-23.3846,-66.5978,40.6731,1022.65
947060,-0.614492,9.87561,-0.356205,0.21,-0.14,-0.35,-23.3846,-66.5978,40.6731,1022.65
947066,-0.600273,9.85656,-0.379964,0.07,-0.28,-0.28,-23.3846,-66.5978,40.6731,1022.65
947072,-0.605013,9.84703,-0.346701,0.14,-0.35,-0.28,-23.3846,-66.5978,40.6731,1022.65
947078,-0.567095,9.80893,-0.308686,0.21,-0.56,-0.14,-23.3846,-66.5978,40.6731,1022.65
947084,-0.548137,9.81369,-0.327694,0.21,-0.49,-0.21,-23.3846,-66.5978,40.6731,1022.65
947090,-0.543397,9.83751,-0.332446,0.28,-0.35,-0.14,-23.3846,-66.5978,40.6731,1022.67
947096,-0.595534,9.78512,-0.346701,0.42,-0.42,-0.21,-23.3846,-66.5978,40.6731,1022.67
947102,-0.567095,9.86132,-0.375212,0.42,-0.35,-0.21,-23.3846,-66.5978,40.6731,1022.67
947108,-0.562356,9.86132,-0.413227,0.35,-0.21,-0.14,-23.3846,-66.5978,40.6731,1022.64
947114,-0.571835,9.85656,-0.389468,0.21,-0.49,-0.21,-23.3846,-66.5978,40.6731,1022.64
947120,-0.628711,9.80893,-0.337197,0.28,-0.28,-0.14,-23.3846,-66.5978,40.6731,1022.68
947126,-0.576575,9.85656,-0.384716,0.21,-0.21,-0.07,-23.3846,-66.5978,40.6731,1022.68
947132,-0.514959,9.86608,-0.422731,0.21,-0.35,-0.07,-23.3846,-66.5978,40.6731,1022.63
947138,-0.605013,9.81846,-0.375212,0.07,-0.21,-0.21,-23.3846,-66.5978,40.6731,1022.63
947144,-0.538657,9.80893,-0.327694,0.35,-0.21,-0.07,-23.3846,-66.5978,40.6731,1022.63
947150,-0.552876,9.8899,-0.403724,0.14,-0.21,-0.21,-23.3846,-66.5978,40.6731,1022.64
947156,-0.600273,9.81369,-0.370461,0.07,-0.35,-0.14,-23.3846,-66.5978,40.6731,1022.64
947162,-0.576575,9.81846,-0.275423,0.21,-0.42,-0.07,-23.3846,-66.5978,40.6731,1022.65
947168,-0.661889,9.87084,-0.370461,0.14,-0.35,0,-23.3846,-66.5978,40.6731,1022.65
947174,-0.595534,9.81369,-0.327694,0.07,-0.42,0.07,-23.3846,-66.5978,40.6731,1022.63
947180,-0.552876,9.85179,-0.389468,0.14,-0.56,-0.07,-23.3846,-66.5978,40.6731,1022.63
947186,-0.524438,9.83274,-0.360957,0.21,-0.49,-0.07,-23.3846,-66.5978,40.6731,1022.66
947192,-0.567095,9.77083,-0.327694,-0.07,-0.42,-0.14,-23.3846,-66.5978,40.6731,1022.66
947198,-0.538657,9.71844,-0.375212,0,-0.28,-0.21,-23.3846,-66.5978,40.6731,1022.66
947204,-0.571835,9.84703,-0.360957,0.21,-0.14,-0.28,-23.3846,-66.5978,40.6731,1022.63
947210,-0.538657,9.85179,-0.332446,0.21,-0.14,-0.28,-23.3846,-66.5978,40.6731,1022.63
947216,-0.562356,9.83274,-0.365709,0.28,-0.21,-0.14,-23.3846,-66.5978,40.6731,1022.66
947222,-0.567095,9.78988,-0.299183,0.07,-0.28,-0.28,-23.3846,-66.5978,40.6731,1022.66
947228,-0.557616,9.81846,-0.370461,0.14,-0.42,-0.21,-23.3846,-66.5978,40.6731,1022.64
947234,-0.581314,9.82798,-0.346701,0.21,-0.14,-0.21,-23.3846,-66.5978,40.6731,1022.64
947240,-0.571835,9.81369,-0.389468,0.35,-0.07,-0.35,-23.3846,-66.5978,40.6731,1022.64
947246,-0.571835,9.80893,-0.379964,0.14,-0.35,-0.28,-23.3846,-66.5978,40.6731,1022.66
947252,-0.529178,9.82322,-0.346701,0.14,-0.28,-0.35,-23.3846,-66.5978,40.6731,1022.66
947258,-0.614492,9.79464,-0.31819,0.42,-0.14,-0.49,-23.3846,-66.5978,40.6731,1022.66
947264,-0.514959,9.84703,-0.384716,0.49,0,-0.49,-23.3846,-66.5978,40.6731,1022.66
947270,-0.533917,9.89942,-0.356205,0,-0.28,-0.42,-23.3846,-66.5978,40.6731,1022.65
947276,-0.576575,9.81369,-0.337197,0.07,-0.28,-0.35,-23.3846,-66.5978,40.6731,1022.65
947282,-0.524438,9.80417,-0.365709,0.35,-0.21,-0.35,-23.3846,-66.5978,40.6731,1022.67
947288,-0.609753,9.78988,-0.384716,0.35,-0.14,-0.35,-23.3846,-66.5978,40.6731,1022.67
947294,-0.571835,9.80893,-0.413227,0.35,-0.07,-0.28,-23.3846,-66.5978,40.6731,1022.67
947300,-0.65715,9.87084,-0.384716,0.28,-0.07,-0.35,-23.3846,-66.5978,40.6731,1022.62
947306,-0.605013,9.82798,-0.39422,0.07,-0.21,-0.35,-23.3846,-66.5978,40.6731,1022.62
947312,-0.533917,9.80417,-0.346701,0.14,-0.42,-0.35,-23.3846,-66.5978,40.6731,1022.65
947318,-0.562356,9.82322,-0.341949,0.14,-0.14,-0.35,-23.3846,-66.5978,40.6731,1022.65
947324,-0.619232,9.79464,-0.379964,0.14,-0.14,-0.35,-23.3846,-66.5978,40.6731,1022.62
947330,-0.600273,9.89466,-0.341949,0.14,-0.21,-0.35,-23.3846,-66.5978,40.6731,1022.62
947336,-0.552876,9.83751,-0.341949,0.21,-0.28,-0.35,-23.3846,-66.5978,40.6731,1022.62
947342,-0.529178,9.79941,-0.44649,0.07,-0.35,-0.21,-23.3846,-66.5978,40.6731,1022.66
947348,-0.543397,9.80417,-0.351453,0.14,-0.28,-0.42,-23.3846,-66.5978,40.6731,1022.66
947354,-0.586054,9.82322,-0.337197,0.28,-0.28,-0.28,-23.3846,-66.5978,40.6731,1022.66
947360,-0.567095,9.88513,-0.322942,0.14,-0.21,-0.28,-23.3846,-66.5978,40.6731,1022.66
947366,-0.623972,9.81369,-0.346701,0.21,-0.21,-0.28,-23.3846,-66.5978,40.6731,1022.65
947372,-0.562356,9.84703,-0.384716,0.28,-0.28,-0.28,-23.3846,-66.5978,40.6731,1022.65
947378,-0.595534,9.82322,-0.365709,0.14,-0.07,-0.28,-23.3846,-66.5978,40.6731,1022.67
947384,-0.609753,9.91371,-0.375212,0.28,-0.21,-0.28,-23.3846,-66.5978,40.6731,1022.67
947390,-0.557616,9.86132,-0.375212,0.14,-0.28,-0.35,-23.3846,-66.5978,40.6731,1022.67
947396,-0.609753,9.81369,-0.303934,0,-0.35,-0.28,-23.3846,-66.5978,40.6731,1022.66
947402,-0.486521,9.85656,-0.332446,-0.07,-0.35,-0.35,-23.3846,-66.5978,40.6731,1022.66
947408,-0.65715,9.84227,-0.327694,0.35,-0.14,-0.42,-23.3846,-66.5978,40.6731,1022.68
947414,-0.590794,9.80893,-0.346701,0.28,-0.07,-0.42,-23.3846,-66.5978,40.6731,1022.68
947420,-0.529178,9.86608,-0.417979,0.35,-0.07,-0.42,-23.3846,-66.5978,40.6731,1022.64
947426,-0.65715,9.87561,-0.39422,0.35,-0.14,-0.35,-23.3846,-66.5978,40.6731,1022.64
947432,-0.586054,9.87561,-0.370461,0.14,-0.28,-0.28,-23.3846,-66.5978,40.6731,1022.64
947438,-0.571835,9.83274,-0.351453,0.14,-0.35,-0.28,-23.3846,-66.5978,40.6731,1022.63
947444,-0.638191,9.84227,-0.332446,0.21,-0.49,-0.28,-23.3846,-66.5978,40.6731,1022.63
947450,-0.628711,9.84227,-0.379964,0.07,-0.49,-0.28,-23.3846,-66.5978,40.6731,1022.65
947456,-0.543397,9.87561,-0.332446,-0.07,-0.56,-0.21,-23.3846,-66.5978,40.6731,1022.65
947462,-0.562356,9.80417,-0.384716,0.14,-0.63,-0.14,-23.3846,-66.5978,40.6731,1022.66
947468,-0.519698,9.85179,-0.341949,0,-0.49,-0.21,-23.3846,-66.5978,40.6731,1022.66
947474,-0.595534,9.80417,-0.337197,0.07,-0.28,-0.28,-23.3846,-66.5978,40.6731,1022.65
947480,-0.524438,9.82322,-0.346701,0.21,-0.28,-0.35,-23.3846,-66.5978,40.6731,1022.65
947486,-0.510219,9.80893,-0.346701,0.35,-0.14,-0.49,-23.3846,-66.5978,40.6731,1022.65
947492,-0.50074,9.79941,-0.322942,0.35,-0.07,-0.49,-23.3846,-66.5978,40.6731,1022.64
947498,-0.519698,9.79941,-0.341949,0.56,0,-0.56,-23.3846,-66.5978,40.6731,1022.64
947504,-0.529178,9.84227,-0.370461,0.49,0,-0.49,-23.3846,-66.5978,40.6731,1022.66
947510,-0.571835,9.79941,-0.365709,0.49,-0.07,-0.56,-23.3846,-66.5978,40.6731,1022.66
947516,-0.581314,9.85656,-0.384716,0.28,-0.14,-0.56,-23.3846,-66.5978,40.6731,1022.68
947522,-0.590794,9.85179,-0.356205,0.28,-0.14,-0.63,-23.3846,-66.5978,40.6731,1022.68
947528,-0.548137,9.85179,-0.31819,0.35,-0.14,-0.63,-23.3846,-66.5978,40.6731,1022.66
947534,-0.576575,9.88037,-0.403724,0.56,0.07,-0.63,-23.3846,-66.5978,40.6731,1022.66
947540,-0.619232,9.86132,-0.408476,0.21,-0.21,-0.63,-23.3846,-66.5978,40.6731,1022.66
947546,-0.538657,9.78512,-0.356205,0.14,-0.21,-0.63,-23.3846,-66.5978,40.6731,1022.64
947552,-0.529178,9.85656,-0.31819,0.35,-0.07,-0.63,-23.3846,-66.5978,40.6731,1022.64
947558,-0.590794,9.82322,-0.365709,0.28,-0.07,-0.7,-23.3846,-66.5978,40.6731,1022.66
947564,-0.548137,9.82322,-0.360957,0.42,-0.21,-0.56,-23.3846,-66.5978,40.6731,1022.66
947570,-0.576575,9.86608,-0.413227,0.28,-0.21,-0.42,-23.3846,-66.5978,40.6731,1022.64
947576,-0.571835,9.84703,-0.346701,0.28,-0.21,-0.49,-23.3846,-66.5978,40.6731,1022.64
947582,-0.505479,9.82798,-0.341949,0.42,-0.14,-0.49,-23.3846,-66.5978,40.6731,1022.64
947588,-0.581314,9.81846,-0.398972,0.49,-0.14,-0.49,-23.3846,-66.5978,40.6731,1022.66
947594,-0.557616,9.84703,-0.351453,0.56,0,-0.63,-23.3846,-66.5978,40.6731,1022.66
947600,-0.543397,9.85656,-0.389468,0.56,0,-0.56,-23.3846,-66.5978,40.6731,1022.67
947606,-0.576575,9.85179,-0.365709,0.35,0,-0.7,-23.3846,-66.5978,40.6731,1022.67
947612,-0.619232,9.80893,-0.403724,0.56,0.14,-0.7,-23.3846,-66.5978,40.6731,1022.68
947618,-0.557616,9.81846,-0.398972,0.42,0.14,-0.7,-23.3846,-66.5978,40.6731,1022.68
947624,-0.595534,9.84227,-0.375212,0.42,0.07,-0.7,-23.3846,-66.5978,40.6731,1022.65
947630,-0.638191,9.82322,-0.451242,0.35,0.14,-0.7,-23.3846,-66.5978,40.6731,1022.65
947636,-0.595534,9.84703,-0.370461,0.35,0.21,-0.7,-23.3846,-66.5978,40.6731,1022.65
947642,-0.567095,9.81369,-0.375212,0.35,0.21,-0.63,-23.3846,-66.5978,40.6731,1022.66
947648,-0.576575,9.85656,-0.398972,0.35,0.14,-0.63,-23.3846,-66.5978,40.6731,1022.66
947654,-0.562356,9.80417,-0.351453,0.35,0,-0.63,-23.3846,-66.5978,40.6731,1022.66
947660,-0.567095,9.90418,-0.398972,0.49,0,-0.56,-23.3846,-66.5978,40.6731,1022.66
947666,-0.552876,9.86132,-0.332446,0.35,0,-0.56,-23.3846,-66.5978,40.6731,1022.67
947672,-0.543397,9.78988,-0.379964,0.21,-0.21,-0.63,-23.3846,-66.5978,40.6731,1022.67
947678,-0.548137,9.82798,-0.351453,0.42,0.07,-0.63,-23.3846,-66.5978,40.6731,1022.67
947684,-0.552876,9.82798,-0.375212,0.49,0.14,-0.56,-23.3846,-66.5978,40.6731,1022.65
947690,-0.590794,9.87084,-0.39422,0.42,0,-0.56,-23.3846,-66.5978,40.6731,1022.65
947696,-0.586054,9.81369,-0.436987,0.35,0,-0.56,-23.3846,-66.5978,40.6731,1022.64
947702,-0.552876,9.85656,-0.327694,0.35,-0.07,-0.63,-23.3846,-66.5978,40.6731,1022.64
947708,-0.543397,9.85179,-0.389468,0.42,0,-0.63,-23.3846,-66.5978,40.6731,1022.63
947714,-0.538657,9.79941,-0.356205,0.35,0.07,-0.63,-23.3846,-66.5978,40.6731,1022.63
947720,-0.614492,9.84703,-0.294431,0.42,0.14,-0.7,-23.3846,-66.5978,40.6731,1022.66
947726,-0.595534,9.89942,-0.39422,0.49,-0.07,-0.56,-23.3846,-66.5978,40.6731,1022.66
947732,-0.533917,9.83274,-0.351453,0.49,0,-0.63,-23.3846,-66.5978,40.6731,1022.66
947738,-0.614492,9.84227,-0.346701,0.42,0.14,-0.63,-23.3846,-66.5978,40.6731,1022.66
947744,-0.543397,9.82798,-0.332446,0.49,0,-0.7,-23.3846,-66.5978,40.6731,1022.66
947750,-0.609753,9.80893,-0.365709,0.28,0,-0.7,-23.3846,-66.5978,40.6731,1022.68
947756,-0.661889,9.89942,-0.379964,0.35,0.07,-0.49,-23.3846,-66.5978,40.6731,1022.68
947762,-0.529178,9.84703,-0.294431,0.35,-0.07,-0.56,-23.3846,-66.5978,40.6731,1022.64
947768,-0.548137,9.76607,-0.384716,0.28,-0.14,-0.63,-23.3846,-66.5978,40.6731,1022.64
947774,-0.576575,9.81369,-0.384716,0.49,0,-0.56,-23.3846,-66.5978,40.6731,1022.64
947780,-0.581314,9.84227,-0.384716,0.35,-0.07,-0.63,-23.3846,-66.5978,40.6731,1022.68
947786,-0.529178,9.84703,-0.384716,0.42,-0.07,-0.7,-23.3846,-66.5978,40.6731,1022.68
947792,-0.586054,9.84227,-0.341949,0.42,0,-0.63,-23.3846,-66.5978,40.6731,1022.63
947798,-0.552876,9.77559,-0.313438,0.35,0.07,-0.7,-23.3846,-66.5978,40.6731,1022.63
947804,-0.562356,9.83274,-0.379964,0.63,0.28,-0.63,-23.3846,-66.5978,40.6731,1022.61
947810,-0.633451,9.88513,-0.332446,0.56,0.21,-0.63,-23.3846,-66.5978,40.6731,1022.61
947816,-0.581314,9.82322,-0.422731,0.42,-0.07,-0.63,-23.3846,-66.5978,40.6731,1022.64
947822,-0.605013,9.87084,-0.337197,0.28,0.14,-0.63,-23.3846,-66.5978,40.6731,1022.64
947828,-0.576575,9.80417,-0.356205,0.49,0.14,-0.7,-23.3846,-66.5978,40.6731,1022.64
947834,-0.576575,9.91371,-0.408476,0.56,0.14,-0.63,-23.3846,-66.5978,40.6731,1022.64
947840,-0.605013,9.88037,-0.422731,0.56,0.14,-0.56,-23.3846,-66.5978,40.6731,1022.64
947846,-0.605013,9.82322,-0.379964,0.42,0.14,-0.56,-23.3846,-66.5978,40.6731,1022.63
947852,-0.609753,9.84227,-0.341949,0.07,-0.14,-0.56,-23.3846,-66.5978,40.6731,1022.63
947858,-0.543397,9.81846,-0.332446,0.63,0.07,-0.63,-23.3846,-66.5978,40.6731,1022.66
947864,-0.600273,9.90895,-0.398972,0.63,0.14,-0.63,-23.3846,-66.5978,40.6731,1022.66
947870,-0.562356,9.82798,-0.365709,0.42,-0.07,-0.56,-23.3846,-66.5978,40.6731,1022.64
947876,-0.533917,9.81846,-0.337197,0.42,-0.14,-0.63,-23.3846,-66.5978,40.6731,1022.64
947882,-0.609753,9.78988,-0.327694,0.56,0.14,-0.7,-23.3846,-66.5978,40.6731,1022.64
947888,-0.557616,9.82798,-0.384716,0.56,-0.07,-0.63,-23.3846,-66.5978,40.6731,1022.65
947894,-0.65241,9.83274,-0.332446,0.49,0.07,-0.7,-23.3846,-66.5978,40.6731,1022.65
947900,-0.605013,9.82798,-0.341949,0.63,0,-0.56,-23.3846,-66.5978,40.6731,1022.63
947906,-0.590794,9.83751,-0.408476,0.63,0,-0.56,-23.3846,-66.5978,40.6731,1022.63
947912,-0.581314,9.80893,-0.384716,0.56,-0.07,-0.56,-23.3846,-66.5978,40.6731,1022.65
947918,-0.642931,9.89466,-0.389468,0.7,0,-0.49,-23.3846,-66.5978,40.6731,1022.65
947924,-0.619232,9.87084,-0.308686,0.56,-0.07,-0.56,-23.3846,-66.5978,40.6731,1022.65
947930,-0.576575,9.79464,-0.39422,0.35,-0.14,-0.49,-23.3846,-66.5978,40.6731,1022.65
947936,-0.586054,9.88037,-0.384716,0.49,0.07,-0.49,-23.3846,-66.5978,40.6731,1022.65
947942,-0.628711,9.78988,-0.365709,0.28,-0.14,-0.63,-23.3846,-66.5978,40.6731,1022.65
947948,-0.529178,9.88037,-0.346701,0.28,-0.14,-0.63,-23.3846,-66.5978,40.6731,1022.65
947954,-0.557616,9.83274,-0.365709,0.28,0,-0.63,-23.3846,-66.5978,40.6731,1022.66
947960,-0.614492,9.81369,-0.313438,0.49,0.14,-0.63,-23.3846,-66.5978,40.6731,1022.66
947966,-0.642931,9.83274,-0.408476,0.28,-0.14,-0.63,-23.3846,-66.5978,40.6731,1022.64
947972,-0.567095,9.79464,-0.308686,0.14,-0.14,-0.56,-23.3846,-66.5978,40.6731,1022.64
947978,-0.510219,9.79464,-0.341949,0.35,-0.14,-0.56,-23.3846,-66.5978,40.6731,1022.64
947984,-0.633451,9.84703,-0.379964,0.7,0.21,-0.63,-23.3846,-66.5978,40.6731,1022.65
947990,-0.571835,9.89942,-0.427483,0.56,0.28,-0.7,-23.3846,-66.5978,40.6731,1022.65
947996,-0.581314,9.88037,-0.341949,0.49,0.07,-0.56,-23.3846,-66.5978,40.6731,1022.64
948002,-0.614492,9.80417,-0.432235,0.56,0.07,-0.7,-23.3846,-66.5978,40.6731,1022.64
948008,-0.576575,9.81846,-0.356205,0.56,0.07,-0.7,-23.3846,-66.5978,40.6731,1022.64
948014,-0.529178,9.85179,-0.384716,0.49,0.14,-0.63,-23.3846,-66.5978,40.6731,1022.64
948020,-0.65241,9.87084,-0.39422,0.42,0.07,-0.49,-23.3846,-66.5978,40.6731,1022.64
948026,-0.576575,9.82798,-0.417979,0.21,-0.07,-0.63,-23.3846,-66.5978,40.6731,1022.65
948032,-0.552876,9.78036,-0.356205,0.21,-0.07,-0.56,-23.3846,-66.5978,40.6731,1022.65
948038,-0.548137,9.79941,-0.365709,0.28,-0.14,-0.77,-23.3846,-66.5978,40.6731,1022.64
948044,-0.619232,9.87084,-0.346701,0.35,0.14,-0.63,-23.3846,-66.5978,40.6731,1022.64
948050,-0.642931,9.85179,-0.384716,0.21,0.07,-0.63,-23.3846,-66.5978,40.6731,1022.66
948056,-0.600273,9.80893,-0.346701,0.21,0.07,-0.63,-23.3846,-66.5978,40.6731,1022.66
948062,-0.628711,9.83274,-0.337197,0.14,0,-0.63,-23.3846,-66.5978,40.6731,1022.65
948068,-0.614492,9.77559,-0.365709,0.35,0.07,-0.63,-23.3846,-66.5978,40.6731,1022.65
948074,-0.567095,9.82322,-0.379964,0.28,-0.07,-0.77,-23.3846,-66.5978,40.6731,1022.65
948080,-0.567095,9.85179,-0.384716,0.42,0,-0.7,-23.3846,-66.5978,40.6731,1022.64
948086,-0.543397,9.81846,-0.356205,0.42,0,-0.7,-23.3846,-66.5978,40.6731,1022.64
948092,-0.623972,9.84703,-0.337197,0.35,0.21,-0.63,-23.3846,-66.5978,40.6731,1022.66
948098,-0.50074,9.81369,-0.375212,0.56,0.07,-0.77,-23.3846,-66.5978,40.6731,1022.66
948104,-0.623972,9.82798,-0.365709,0.49,0.14,-0.77,-23.3846,-66.5978,40.6731,1022.63
948110,-0.586054,9.82322,-0.398972,0.42,0,-0.77,-23.3846,-66.5978,40.6731,1022.63
948116,-0.581314,9.81846,-0.39422,0.56,0.21,-0.63,-23.3846,-66.5978,40.6731,1022.65
948122,-0.64767,9.90418,-0.370461,0.49,0.21,-0.7,-23.3846,-66.5978,40.6731,1022.65
948128,-0.590794,9.84703,-0.39422,0.28,0.07,-0.7,-23.3846,-66.5978,40.6731,1022.65
948134,-0.590794,9.8899,-0.375212,0.42,0,-0.77,-23.3846,-66.5978,40.6731,1022.64
948140,-0.590794,9.87084,-0.39422,0.42,0,-0.63,-23.3846,-66.5978,40.6731,1022.64
948146,-0.576575,9.79464,-0.370461,0.21,0.14,-0.7,-23.3846,-66.5978,40.6731,1022.65
948152,-0.628711,9.81369,-0.356205,0.42,0.07,-0.77,-23.3846,-66.5978,40.6731,1022.65
948158,-0.623972,9.82322,-0.389468,0.42,-0.14,-0.63,-23.3846,-66.5978,40.6731,1022.66
948164,-0.552876,9.86608,-0.422731,0.28,-0.21,-0.63,-23.3846,-66.5978,40.6731,1022.66
948170,-0.586054,9.79464,-0.346701,0.21,-0.14,-0.7,-23.3846,-66.5978,40.6731,1022.66
948176,-0.614492,9.85656,-0.360957,0.35,-0.07,-0.7,-23.3846,-66.5978,40.6731,1022.64
948182,-0.590794,9.81369,-0.327694,0.35,-0.07,-0.63,-23.3846,-66.5978,40.6731,1022.64
948188,-0.633451,9.82798,-0.403724,0.56,0,-0.7,-23.3846,-66.5978,40.6731,1022.64
948194,-0.581314,9.84227,-0.389468,0.7,-0.07,-0.63,-23.3846,-66.5978,40.6731,1022.64
948200,-0.576575,9.83274,-0.370461,0.63,0,-0.7,-23.3846,-66.5978,40.6731,1022.65
948206,-0.548137,9.84703,-0.398972,0.49,0,-0.7,-23.3846,-66.5978,40.6731,1022.65
948212,-0.50074,9.81846,-0.379964,0.56,0.07,-0.7,-23.3846,-66.5978,40.6731,1022.63
948218,-0.614492,9.85656,-0.370461,0.56,0.21,-0.84,-23.3846,-66.5978,40.6731,1022.63
948224,-0.609753,9.82798,-0.436987,0.56,0,-0.77,-23.3846,-66.5978,40.6731,1022.63
948230,-0.567095,9.85656,-0.417979,0.21,0.07,-0.77,-23.3846,-66.5978,40.6731,1022.63
948236,-0.590794,9.83751,-0.39422,0.56,-0.07,-0.77,-23.3846,-66.5978,40.6731,1022.63
948242,-0.576575,9.87561,-0.375212,0.35,0.07,-0.77,-23.3846,-66.5978,40.6731,1022.65
948248,-0.605013,9.84227,-0.360957,0.28,0.07,-0.7,-23.3846,-66.5978,40.6731,1022.65
948254,-0.595534,9.82322,-0.436987,0.42,0.07,-0.7,-23.3846,-66.5978,40.6731,1022.66
948260,-0.557616,9.78512,-0.370461,0.21,0,-0.77,-23.3846,-66.5978,40.6731,1022.66
948266,-0.623972,9.78512,-0.346701,0.35,-0.07,-0.84,-23.3846,-66.5978,40.6731,1022.66
948272,-0.614492,9.84227,-0.370461,0.56,0.07,-0.84,-23.3846,-66.5978,40.6731,1022.65
948278,-0.571835,9.82322,-0.375212,0.56,0.21,-0.84,-23.3846,-66.5978,40.6731,1022.65
948284,-0.590794,9.79464,-0.360957,0.56,0.21,-0.77,-23.3846,-66.5978,40.6731,1022.65
948290,-0.571835,9.85179,-0.370461,0.42,0,-0.77,-23.3846,-66.5978,40.6731,1022.65
948296,-0.595534,9.79941,-0.365709,0.42,0.14,-0.77,-23.3846,-66.5978,40.6731,1022.64
948302,-0.614492,9.79464,-0.422731,0.49,0.28,-0.7,-23.3846,-66.5978,40.6731,1022.64
948308,-0.709286,9.83751,-0.360957,0.63,0.21,-0.77,-23.3846,-66.5978,40.6731,1022.64
948314,-0.680848,9.81846,-0.432235,0.21,0.14,-0.7,-23.3846,-66.5978,40.6731,1022.64
948320,-0.600273,9.78036,-0.327694,0.35,0,-0.84,-23.3846,-66.5978,40.6731,1022.64
948326,-0.567095,9.82322,-0.356205,0.42,0.14,-0.84,-23.3846,-66.5978,40.6731,1022.66
948332,-0.623972,9.84227,-0.375212,0.63,0.21,-0.84,-23.3846,-66.5978,40.6731,1022.66
948338,-0.586054,9.89466,-0.39422,0.28,0.07,-0.91,-23.3846,-66.5978,40.6731,1022.61
948344,-0.64767,9.84703,-0.332446,0.42,0.14,-0.91,-23.3846,-66.5978,40.6731,1022.61
948350,-0.576575,9.82322,-0.384716,0.42,0.14,-0.84,-23.3846,-66.5978,40.6731,1022.66
948356,-0.628711,9.82798,-0.422731,0.56,0.35,-0.84,-23.3846,-66.5978,40.6731,1022.66
948362,-0.590794,9.85656,-0.356205,0.63,0.21,-0.84,-23.3846,-66.5978,40.6731,1022.66
948368,-0.65241,9.81369,-0.365709,0.42,0.28,-0.84,-23.3846,-66.5978,40.6731,1022.66
948374,-0.642931,9.83751,-0.39422,0.35,0.07,-0.77,-23.3846,-66.5978,40.6731,1022.66
948380,-0.605013,9.84227,-0.413227,0.35,0,-0.84,-23.3846,-66.5978,40.6731,1022.65
948386,-0.609753,9.84703,-0.375212,0.21,0,-0.77,-23.3846,-66.5978,40.6731,1022.65
948392,-0.633451,9.81846,-0.413227,0.63,0.21,-0.84,-23.3846,-66.5978,40.6731,1022.67
948398,-0.623972,9.87084,-0.389468,0.56,0.14,-0.77,-23.3846,-66.5978,40.6731,1022.67
948404,-0.633451,9.87084,-0.403724,0.28,0,-0.7,-23.3846,-66.5978,40.6731,1022.64
948410,-0.567095,9.81369,-0.375212,0.63,0.07,-0.7,-23.3846,-66.5978,40.6731,1022.64
948416,-0.614492,9.82798,-0.356205,0.77,0.35,-0.7,-23.3846,-66.5978,40.6731,1022.64
948422,-0.65241,9.79941,-0.365709,0.49,0.07,-0.63,-23.3846,-66.5978,40.6731,1022.62
948428,-0.633451,9.80417,-0.365709,0.42,-0.07,-0.63,-23.3846,-66.5978,40.6731,1022.62
948434,-0.600273,9.82322,-0.39422,0.56,0.07,-0.56,-23.3846,-66.5978,40.6731,1022.65
948440,-0.581314,9.81369,-0.436987,0.42,0.21,-0.7,-23.3846,-66.5978,40.6731,1022.65
948446,-0.628711,9.88513,-0.379964,0.21,0.07,-0.56,-23.3846,-66.5978,40.6731,1022.67
948452,-0.614492,9.76131,-0.379964,0.14,0,-0.63,-23.3846,-66.5978,40.6731,1022.67
948458,-0.661889,9.84227,-0.356205,0.21,0,-0.63,-23.3846,-66.5978,40.6731,1022.62
948464,-0.576575,9.85179,-0.451242,0.28,0,-0.56,-23.3846,-66.5978,40.6731,1022.62
948470,-0.609753,9.79464,-0.436987,0.35,0.14,-0.63,-23.3846,-66.5978,40.6731,1022.62
948476,-0.619232,9.74226,-0.39422,0.14,0,-0.7,-23.3846,-66.5978,40.6731,1022.62
948482,-0.581314,9.81846,-0.389468,0.28,0.07,-0.77,-23.3846,-66.5978,40.6731,1022.62
948488,-0.605013,9.81369,-0.356205,0.49,0.21,-0.7,-23.3846,-66.5978,40.6731,1022.64
948494,-0.666629,9.85656,-0.398972,0.42,0.21,-0.63,-23.3846,-66.5978,40.6731,1022.64
948500,-0.562356,9.80417,-0.375212,0.35,0.07,-0.63,-23.3846,-66.5978,40.6731,1022.63
948506,-0.638191,9.85179,-0.39422,0.63,0.07,-0.63,-23.3846,-66.5978,40.6731,1022.63
948512,-0.600273,9.79464,-0.379964,0.49,0.07,-0.7,-23.3846,-66.5978,40.6731,1022.63
948518,-0.623972,9.76131,-0.356205,0.42,0.21,-0.63,-23.3846,-66.5978,40.6731,1022.66
948524,-0.576575,9.88037,-0.365709,0.63,0.21,-0.63,-23.3846,-66.5978,40.6731,1022.66
948530,-0.614492,9.88037,-0.384716,0.49,0.14,-0.77,-23.3846,-66.5978,40.6731,1022.66
948536,-0.628711,9.83274,-0.370461,0.49,0.14,-0.63,-23.3846,-66.5978,40.6731,1022.66
948542,-0.65715,9.83274,-0.432235,0.56,0.14,-0.63,-23.3846,-66.5978,40.6731,1022.63
948548,-0.619232,9.86608,-0.360957,0.42,-0.07,-0.63,-23.3846,-66.5978,40.6731,1022.63
948554,-0.695067,9.80893,-0.379964,0.28,-0.07,-0.63,-23.3846,-66.5978,40.6731,1022.63
948560,-0.633451,9.79941,-0.375212,0.35,-0.14,-0.56,-23.3846,-66.5978,40.6731,1022.63
948566,-0.576575,9.78988,-0.427483,0.21,0,-0.56,-23.3846,-66.5978,40.6731,1022.63
948572,-0.628711,9.78512,-0.327694,0.28,0,-0.63,-23.3846,-66.5978,40.6731,1022.65
948578,-0.557616,9.82322,-0.356205,0.56,0,-0.63,-23.3846,-66.5978,40.6731,1022.65
948584,-0.628711,9.84703,-0.356205,0.28,0,-0.77,-23.3846,-66.5978,40.6731,1022.66
948590,-0.567095,9.76607,-0.375212,0.49,0,-0.7,-23.3846,-66.5978,40.6731,1022.66
948596,-0.567095,9.83751,-0.39422,0.63,0,-0.77,-23.3846,-66.5978,40.6731,1022.64
948602,-0.609753,9.84227,-0.379964,0.56,0.07,-0.77,-23.3846,-66.5978,40.6731,1022.64
948608,-0.595534,9.79941,-0.356205,0.42,-0.07,-0.7,-23.3846,-66.5978,40.6731,1022.64
948614,-0.586054,9.87084,-0.427483,0.42,0.07,-0.7,-23.3846,-66.5978,40.6731,1022.65
948620,-0.638191,9.78512,-0.427483,0.35,0.07,-0.7,-23.3846,-66.5978,40.6731,1022.65
948626,-0.638191,9.84227,-0.389468,0.49,0.07,-0.77,-23.3846,-66.5978,40.6731,1022.62
948632,-0.529178,9.83274,-0.398972,0.49,0.21,-0.84,-23.3846,-66.5978,40.6731,1022.62
948638,-0.567095,9.81369,-0.408476,0.49,0.14,-0.84,-23.3846,-66.5978,40.6731,1022.65
948644,-0.590794,9.90418,-0.365709,0.42,0.07,-0.84,-23.3846,-66.5978,40.6731,1022.65
948650,-0.614492,9.81846,-0.337197,0.35,0.14,-0.84,-23.3846,-66.5978,40.6731,1022.61
948656,-0.623972,9.86132,-0.39422,0.7,0.35,-0.84,-23.3846,-66.5978,40.6731,1022.61
948662,-0.666629,9.78036,-0.370461,0.35,0.14,-0.77,-23.3846,-66.5978,40.6731,1022.61
948668,-0.605013,9.87084,-0.360957,0.28,-0.14,-0.77,-23.3846,-66.5978,40.6731,1022.67
948674,-0.600273,9.85656,-0.413227,0.28,0.14,-0.77,-23.3846,-66.5978,40.6731,1022.67
948680,-0.680848,9.84703,-0.389468,0.49,0.14,-0.77,-23.3846,-66.5978,40.6731,1022.61
948686,-0.623972,9.75178,-0.432235,0.49,-0.07,-0.77,-23.3846,-66.5978,40.6731,1022.61
948692,-0.614492,9.87084,-0.403724,0.56,0.14,-0.7,-23.3846,-66.5978,40.6731,1022.64
948698,-0.695067,9.78512,-0.379964,0.42,0.14,-0.77,-23.3846,-66.5978,40.6731,1022.64
948704,-0.567095,9.81369,-0.413227,0.49,0.07,-0.77,-23.3846,-66.5978,40.6731,1022.64
948710,-0.590794,9.82322,-0.360957,0.7,0.28,-0.77,-23.3846,-66.5978,40.6731,1022.62
948716,-0.666629,9.84703,-0.422731,0.35,0,-0.77,-23.3846,-66.5978,40.6731,1022.62
948722,-0.605013,9.81369,-0.356205,0.14,0,-0.63,-23.3846,-66.5978,40.6731,1022.66
948728,-0.605013,9.80417,-0.370461,0.42,0,-0.7,-23.3846,-66.5978,40.6731,1022.66
948734,-0.590794,9.84703,-0.375212,0.35,0.07,-0.63,-23.3846,-66.5978,40.6731,1022.63
948740,-0.680848,9.83751,-0.432235,0.42,0.07,-0.7,-23.3846,-66.5978,40.6731,1022.63
948746,-0.600273,9.85179,-0.39422,0.56,0.07,-0.63,-23.3846,-66.5978,40.6731,1022.65
948752,-0.623972,9.8899,-0.370461,0.35,-0.14,-0.63,-23.3846,-66.5978,40.6731,1022.65
948758,-0.661889,9.89942,-0.417979,0.14,-0.21,-0.49,-23.3846,-66.5978,40.6731,1022.65
948764,-0.619232,9.76131,-0.327694,0.28,0,-0.49,-23.3846,-66.5978,40.6731,1022.63
948770,-0.642931,9.82322,-0.432235,0.35,-0.07,-0.49,-23.3846,-66.5978,40.6731,1022.63
948776,-0.614492,9.76607,-0.360957,0.49,0.07,-0.49,-23.3846,-66.5978,40.6731,1022.64
948782,-0.65715,9.8899,-0.436987,0.42,-0.07,-0.63,-23.3846,-66.5978,40.6731,1022.64
948788,-0.614492,9.86608,-0.39422,0.35,-0.21,-0.49,-23.3846,-66.5978,40.6731,1022.66
948794,-0.595534,9.84703,-0.44649,0,0,-0.49,-23.3846,-66.5978,40.6731,1022.66
948800,-0.666629,9.81846,-0.322942,0.28,0.07,-0.49,-23.3846,-66.5978,40.6731,1022.64
948806,-0.609753,9.80893,-0.413227,0.28,-0.21,-0.56,-23.3846,-66.5978,40.6731,1022.64
948812,-0.581314,9.85179,-0.432235,0.56,0,-0.56,-23.3846,-66.5978,40.6731,1022.64
948818,-0.619232,9.82798,-0.360957,0.35,-0.07,-0.42,-23.3846,-66.5978,40.6731,1022.65
948824,-0.605013,9.87084,-0.337197,0.63,-0.07,-0.56,-23.3846,-66.5978,40.6731,1022.65
948830,-0.666629,9.86132,-0.489257,0.42,-0.14,-0.56,-23.3846,-66.5978,40.6731,1022.63
948836,-0.642931,9.84227,-0.427483,0.07,-0.28,-0.56,-23.3846,-66.5978,40.6731,1022.63
948842,-0.619232,9.75178,-0.303934,0,-0.42,-0.56,-23.3846,-66.5978,40.6731,1022.63
948848,-0.695067,9.83751,-0.417979,0.42,0.07,-0.7,-23.3846,-66.5978,40.6731,1022.63
948854,-0.619232,9.83274,-0.356205,0.28,-0.07,-0.63,-23.3846,-66.5978,40.6731,1022.63
948860,-0.666629,9.82322,-0.375212,0.28,-0.07,-0.63,-23.3846,-66.5978,40.6731,1022.63
948866,-0.586054,9.77559,-0.384716,0.42,-0.07,-0.7,-23.3846,-66.5978,40.6731,1022.63
948872,-0.666629,9.79464,-0.308686,0.49,0.14,-0.7,-23.3846,-66.5978,40.6731,1022.65
948878,-0.571835,9.77559,-0.39422,0.49,-0.21,-0.7,-23.3846,-66.5978,40.6731,1022.65
948884,-0.633451,9.84703,-0.341949,0.63,0.14,-0.7,-23.3846,-66.5978,40.6731,1022.64
948890,-0.614492,9.81369,-0.356205,0.7,0.21,-0.84,-23.3846,-66.5978,40.6731,1022.64
948896,-0.614492,9.81846,-0.413227,0.63,0.21,-0.77,-23.3846,-66.5978,40.6731,1022.65
948902,-0.676108,9.79941,-0.427483,0.63,0.28,-0.77,-23.3846,-66.5978,40.6731,1022.65
948908,-0.628711,9.87561,-0.365709,0.7,0.14,-0.7,-23.3846,-66.5978,40.6731,1022.65
948914,-0.614492,9.87084,-0.432235,0.63,0.14,-0.7,-23.3846,-66.5978,40.6731,1022.61
948920,-0.676108,9.75178,-0.417979,0.56,0.14,-0.77,-23.3846,-66.5978,40.6731,1022.61
948926,-0.65241,9.79464,-0.432235,0.63,0.07,-0.7,-23.3846,-66.5978,40.6731,1022.65
948932,-0.64767,9.90418,-0.398972,0.42,0,-0.84,-23.3846,-66.5978,40.6731,1022.65
948938,-0.605013,9.88037,-0.417979,0.42,0,-0.84,-23.3846,-66.5978,40.6731,1022.64
948944,-0.65715,9.75178,-0.370461,0.49,0.14,-0.7,-23.3846,-66.5978,40.6731,1022.64
948950,-0.605013,9.88513,-0.432235,0.56,0.07,-0.7,-23.3846,-66.5978,40.6731,1022.64
948956,-0.65715,9.82798,-0.337197,0.42,0,-0.77,-23.3846,-66.5978,40.6731,1022.66
948962,-0.600273,9.82322,-0.44649,0.42,0.14,-0.7,-23.3846,-66.5978,40.6731,1022.66
948968,-0.642931,9.82798,-0.370461,0.49,0.21,-0.77,-23.3846,-66.5978,40.6731,1022.68
948974,-0.581314,9.85179,-0.375212,0.49,0,-0.91,-23.3846,-66.5978,40.6731,1022.68
948980,-0.685588,9.86132,-0.351453,0.49,0.21,-0.84,-23.3846,-66.5978,40.6731,1022.65
948986,-0.595534,9.77559,-0.389468,0.35,0.07,-0.84,-23.3846,-66.5978,40.6731,1022.65
948992,-0.666629,9.80417,-0.370461,0.63,0.21,-0.91,-23.3846,-66.5978,40.6731,1022.65
948998,-0.614492,9.83274,-0.455994,0.56,0.07,-0.91,-23.3846,-66.5978,40.6731,1022.65
949004,-0.64767,9.81846,-0.451242,0.28,0.07,-0.98,-23.3846,-66.5978,40.6731,1022.65
949010,-0.562356,9.84703,-0.417979,0.49,0.21,-0.98,-23.3846,-66.5978,40.6731,1022.63
949016,-0.690327,9.82322,-0.403724,0.42,0.07,-0.98,-23.3846,-66.5978,40.6731,1022.63
949022,-0.623972,9.76131,-0.389468,0.42,-0.14,-1.05,-23.3846,-66.5978,40.6731,1022.61
949028,-0.609753,9.87561,-0.489257,0.42,0.07,-1.05,-23.3846,-66.5978,40.6731,1022.61
949034,-0.661889,9.81846,-0.403724,0.28,0,-0.98,-23.3846,-66.5978,40.6731,1022.68
949040,-0.633451,9.75178,-0.413227,0.14,-0.07,-0.98,-23.3846,-66.5978,40.6731,1022.68
949046,-0.595534,9.80417,-0.375212,0.28,0,-0.98,-23.3846,-66.5978,40.6731,1022.68
949052,-0.65715,9.82322,-0.417979,0.28,0.21,-1.05,-23.3846,-66.5978,40.6731,1022.64
949058,-0.690327,9.85656,-0.365709,0.21,0.07,-1.05,-23.3846,-66.5978,40.6731,1022.64
949064,-0.623972,9.80417,-0.408476,0.28,0.07,-0.91,-23.3846,-66.5978,40.6731,1022.63
949070,-0.609753,9.84227,-0.408476,0.42,0.21,-1.05,-23.3846,-66.5978,40.6731,1022.63
949076,-0.642931,9.82322,-0.346701,0.56,0.21,-1.05,-23.3846,-66.5978,40.6731,1022.64
949082,-0.605013,9.81369,-0.432235,0.63,0.14,-0.91,-23.3846,-66.5978,40.6731,1022.64
949088,-0.638191,9.84703,-0.370461,0.56,0.14,-0.98,-23.3846,-66.5978,40.6731,1022.64
949094,-0.600273,9.88513,-0.432235,0.35,0,-0.98,-23.3846,-66.5978,40.6731,1022.64
949100,-0.64767,9.81846,-0.413227,0.49,0.28,-1.05,-23.3846,-66.5978,40.6731,1022.64
949106,-0.642931,9.86132,-0.351453,0.7,0.35,-0.91,-23.3846,-66.5978,40.6731,1022.62
949112,-0.65715,9.81369,-0.484505,0.63,0.14,-0.98,-23.3846,-66.5978,40.6731,1022.62
949118,-0.65241,9.87561,-0.408476,0.63,0.42,-0.91,-23.3846,-66.5978,40.6731,1022.66
949124,-0.65241,9.83274,-0.436987,0.7,0.35,-0.91,-23.3846,-66.5978,40.6731,1022.66
949130,-0.65715,9.8899,-0.427483,0.56,0.21,-0.91,-23.3846,-66.5978,40.6731,1022.63
949136,-0.64767,9.80893,-0.427483,0.21,0,-0.91,-23.3846,-66.5978,40.6731,1022.63
949142,-0.64767,9.81369,-0.365709,0.42,-0.07,-0.7,-23.3846,-66.5978,40.6731,1022.65
949148,-0.642931,9.86132,-0.465498,0.28,-0.14,-0.63,-23.3846,-66.5978,40.6731,1022.65
949154,-0.699807,9.84227,-0.308686,0.14,-0.14,-0.56,-23.3846,-66.5978,40.6731,1022.65
949160,-0.614492,9.83274,-0.360957,0.35,-0.28,-0.56,-23.3846,-66.5978,40.6731,1022.66
949166,-0.661889,9.86608,-0.417979,0.42,-0.07,-0.56,-23.3846,-66.5978,40.6731,1022.66
949172,-0.64767,9.86132,-0.379964,0.49,-0.14,-0.56,-23.3846,-66.5978,40.6731,1022.64
949178,-0.628711,9.78036,-0.432235,0.42,-0.14,-0.56,-23.3846,-66.5978,40.6731,1022.64
949184,-0.590794,9.85656,-0.351453,0.35,-0.07,-0.63,-23.3846,-66.5978,40.6731,1022.65
949190,-0.680848,9.78988,-0.413227,0.49,0.07,-0.63,-23.3846,-66.5978,40.6731,1022.65
949196,-0.600273,9.87561,-0.427483,0.49,-0.21,-0.63,-23.3846,-66.5978,40.6731,1022.65
949202,-0.680848,9.86132,-0.436987,0.14,0,-0.56,-23.3846,-66.5978,40.6731,1022.64
949208,-0.548137,9.85179,-0.356205,0.28,-0.07,-0.63,-23.3846,-66.5978,40.6731,1022.64
949214,-0.623972,9.79941,-0.417979,0.42,0.07,-0.56,-23.3846,-66.5978,40.6731,1022.66
949220,-0.614492,9.77083,-0.408476,0.14,0,-0.7,-23.3846,-66.5978,40.6731,1022.66
949226,-0.609753,9.78988,-0.365709,0.28,0.14,-0.7,-23.3846,-66.5978,40.6731,1022.65
949232,-0.628711,9.81846,-0.375212,0.56,0.21,-0.7,-23.3846,-66.5978,40.6731,1022.65
949238,-0.628711,9.85656,-0.484505,0.63,0.28,-0.63,-23.3846,-66.5978,40.6731,1022.65
949244,-0.666629,9.82322,-0.360957,0.56,0.35,-0.7,-23.3846,-66.5978,40.6731,1022.65
949250,-0.642931,9.80893,-0.47025,0.49,0.21,-0.77,-23.3846,-66.5978,40.6731,1022.65
949256,-0.671369,9.84703,-0.375212,0.56,0.07,-0.77,-23.3846,-66.5978,40.6731,1022.67
949262,-0.65241,9.78988,-0.398972,0.49,0,-0.63,-23.3846,-66.5978,40.6731,1022.67
949268,-0.65241,9.82798,-0.436987,0.42,0,-0.63,-23.3846,-66.5978,40.6731,1022.66
949274,-0.595534,9.88513,-0.375212,0.49,-0.14,-0.56,-23.3846,-66.5978,40.6731,1022.66
949280,-0.623972,9.87084,-0.398972,0.56,-0.07,-0.56,-23.3846,-66.5978,40.6731,1022.64
949286,-0.64767,9.79941,-0.403724,0.42,-0.07,-0.63,-23.3846,-66.5978,40.6731,1022.64
949292,-0.628711,9.84227,-0.47025,0.14,-0.07,-0.56,-23.3846,-66.5978,40.6731,1022.64
949298,-0.685588,9.80893,-0.422731,0.28,0,-0.49,-23.3846,-66.5978,40.6731,1022.65
949304,-0.65715,9.89942,-0.455994,0.35,-0.07,-0.63,-23.3846,-66.5978,40.6731,1022.65
949310,-0.623972,9.82798,-0.408476,0.28,0,-0.7,-23.3846,-66.5978,40.6731,1022.62
949316,-0.628711,9.78988,-0.413227,0.35,-0.07,-0.63,-23.3846,-66.5978,40.6731,1022.62
949322,-0.619232,9.82798,-0.370461,0.42,0,-0.63,-23.3846,-66.5978,40.6731,1022.63
949328,-0.65241,9.87084,-0.441739,0.42,0.07,-0.56,-23.3846,-66.5978,40.6731,1022.63
949334,-0.623972,9.77559,-0.475002,0.42,-0.07,-0.49,-23.3846,-66.5978,40.6731,1022.65
949340,-0.671369,9.88037,-0.360957,0.28,-0.07,-0.56,-23.3846,-66.5978,40.6731,1022.65
949346,-0.619232,9.77559,-0.384716,0.35,0,-0.56,-23.3846,-66.5978,40.6731,1022.65
949352,-0.680848,9.80417,-0.375212,0.42,0.07,-0.49,-23.3846,-66.5978,40.6731,1022.69
949358,-0.64767,9.82798,-0.413227,0.42,-0.07,-0.42,-23.3846,-66.5978,40.6731,1022.69
949364,-0.605013,9.83274,-0.398972,0.42,-0.21,-0.49,-23.3846,-66.5978,40.6731,1022.66
949370,-0.642931,9.83274,-0.484505,0.35,-0.14,-0.56,-23.3846,-66.5978,40.6731,1022.66
949376,-0.666629,9.84703,-0.427483,0.21,0,-0.42,-23.3846,-66.5978,40.6731,1022.64
949382,-0.633451,9.82798,-0.427483,0.07,-0.14,-0.49,-23.3846,-66.5978,40.6731,1022.64
949388,-0.642931,9.81369,-0.436987,0.35,-0.14,-0.49,-23.3846,-66.5978,40.6731,1022.64
949394,-0.680848,9.86608,-0.427483,0.49,0,-0.63,-23.3846,-66.5978,40.6731,1022.64
949400,-0.638191,9.83751,-0.398972,0.49,0,-0.49,-23.3846,-66.5978,40.6731,1022.64
949406,-0.619232,9.83274,-0.427483,0.49,-0.07,-0.49,-23.3846,-66.5978,40.6731,1022.65
949412,-0.714026,9.82322,-0.403724,0.35,-0.28,-0.42,-23.3846,-66.5978,40.6731,1022.65
949418,-0.661889,9.83751,-0.432235,0.28,-0.35,-0.35,-23.3846,-66.5978,40.6731,1022.64
949424,-0.638191,9.76607,-0.398972,0.35,0,-0.42,-23.3846,-66.5978,40.6731,1022.64
949430,-0.642931,9.85656,-0.451242,0.42,-0.21,-0.49,-23.3846,-66.5978,40.6731,1022.66
949436,-0.614492,9.74702,-0.265919,0.07,-0.21,-0.42,-23.3846,-66.5978,40.6731,1022.66
949442,-0.661889,9.80417,-0.360957,0.49,-0.07,-0.35,-23.3846,-66.5978,40.6731,1022.66
949448,-0.628711,9.89466,-0.484505,0.84,0.21,-0.42,-23.3846,-66.5978,40.6731,1022.68
949454,-0.671369,9.81846,-0.356205,0.49,0.07,-0.42,-23.3846,-66.5978,40.6731,1022.68
949460,-0.623972,9.83274,-0.379964,0.28,-0.14,-0.42,-23.3846,-66.5978,40.6731,1022.69
949466,-0.680848,9.84703,-0.417979,0.63,0.21,-0.35,-23.3846,-66.5978,40.6731,1022.69
949472,-0.770902,9.82798,-0.398972,0.42,0.07,-0.28,-23.3846,-66.5978,40.6731,1022.65
949478,-0.638191,9.8899,-0.460746,0.28,-0.14,-0.21,-23.3846,-66.5978,40.6731,1022.65
949484,-0.685588,9.85656,-0.432235,0.21,-0.21,-0.28,-23.3846,-66.5978,40.6731,1022.66
949490,-0.548137,9.78036,-0.413227,0.42,-0.42,-0.35,-23.3846,-66.5978,40.6731,1022.66
949496,-0.680848,9.79464,-0.422731,0.42,-0.14,-0.28,-23.3846,-66.5978,40.6731,1022.66
949502,-0.676108,9.80893,-0.375212,0.28,-0.21,-0.21,-23.3846,-66.5978,40.6731,1022.67
949508,-0.548137,9.77559,-0.432235,0.21,-0.42,-0.35,-23.3846,-66.5978,40.6731,1022.67
949514,-0.633451,9.83274,-0.360957,0.35,0,-0.35,-23.3846,-66.5978,40.6731,1022.68
949520,-0.609753,9.86132,-0.417979,0.35,-0.14,-0.35,-23.3846,-66.5978,40.6731,1022.68
949526,-0.633451,9.80893,-0.384716,0.49,-0.07,-0.35,-23.3846,-66.5978,40.6731,1022.63
949532,-0.690327,9.86608,-0.422731,0.56,-0.07,-0.35,-23.3846,-66.5978,40.6731,1022.63
949538,-0.614492,9.86132,-0.47025,0.35,-0.28,-0.35,-23.3846,-66.5978,40.6731,1022.63
949544,-0.571835,9.76131,-0.413227,0.35,-0.21,-0.28,-23.3846,-66.5978,40.6731,1022.66
949550,-0.661889,9.86132,-0.39422,0.42,0,-0.28,-23.3846,-66.5978,40.6731,1022.66
949556,-0.661889,9.85179,-0.460746,0.28,-0.14,-0.14,-23.3846,-66.5978,40.6731,1022.68
949562,-0.64767,9.84227,-0.44649,0.21,-0.35,-0.14,-23.3846,-66.5978,40.6731,1022.68
949568,-0.64767,9.86132,-0.375212,0.07,-0.42,-0.14,-23.3846,-66.5978,40.6731,1022.65
949574,-0.576575,9.80893,-0.44649,0,-0.49,-0.21,-23.3846,-66.5978,40.6731,1022.65
949580,-0.576575,9.85179,-0.337197,0.21,-0.42,-0.21,-23.3846,-66.5978,40.6731,1022.61
949586,-0.676108,9.82322,-0.432235,0.21,-0.21,-0.28,-23.3846,-66.5978,40.6731,1022.61
949592,-0.638191,9.86608,-0.413227,0.21,-0.21,-0.28,-23.3846,-66.5978,40.6731,1022.61
949598,-0.661889,9.79464,-0.508265,0.07,-0.35,-0.28,-23.3846,-66.5978,40.6731,1022.63
949604,-0.676108,9.78036,-0.403724,0.42,-0.21,-0.28,-23.3846,-66.5978,40.6731,1022.63
949610,-0.666629,9.84703,-0.375212,0.49,-0.14,-0.28,-23.3846,-66.5978,40.6731,1022.65
949616,-0.642931,9.85179,-0.489257,0.21,-0.07,-0.35,-23.3846,-66.5978,40.6731,1022.65
949622,-0.65241,9.86608,-0.398972,0.28,-0.14,-0.28,-23.3846,-66.5978,40.6731,1022.63
949628,-0.676108,9.83751,-0.460746,0.21,-0.14,-0.28,-23.3846,-66.5978,40.6731,1022.63
949634,-0.690327,9.81369,-0.365709,0.14,-0.28,-0.28,-23.3846,-66.5978,40.6731,1022.63
949640,-0.666629,9.85656,-0.460746,0.28,-0.35,-0.35,-23.3846,-66.5978,40.6731,1022.63
949646,-0.680848,9.81369,-0.39422,0.35,-0.35,-0.28,-23.3846,-66.5978,40.6731,1022.63
949652,-0.671369,9.80893,-0.465498,0.35,-0.14,-0.35,-23.3846,-66.5978,40.6731,1022.66
949658,-0.756683,9.84227,-0.417979,0.28,-0.21,-0.35,-23.3846,-66.5978,40.6731,1022.66
949664,-0.605013,9.87084,-0.436987,0.21,-0.35,-0.35,-23.3846,-66.5978,40.6731,1022.65
949670,-0.64767,9.84227,-0.408476,0.35,-0.14,-0.35,-23.3846,-66.5978,40.6731,1022.65
949676,-0.65715,9.85656,-0.436987,0.35,-0.14,-0.35,-23.3846,-66.5978,40.6731,1022.64
949682,-0.65715,9.86608,-0.375212,0.14,-0.21,-0.42,-23.3846,-66.5978,40.6731,1022.64
949688,-0.586054,9.78036,-0.413227,0.21,-0.42,-0.35,-23.3846,-66.5978,40.6731,1022.64
949694,-0.600273,9.84227,-0.341949,0.28,-0.07,-0.35,-23.3846,-66.5978,40.6731,1022.68
949700,-0.690327,9.80417,-0.427483,0.28,-0.14,-0.42,-23.3846,-66.5978,40.6731,1022.68
949706,-0.704547,9.8899,-0.408476,0.28,-0.21,-0.35,-23.3846,-66.5978,40.6731,1022.64
949712,-0.671369,9.84227,-0.432235,0.21,-0.28,-0.35,-23.3846,-66.5978,40.6731,1022.64
949718,-0.586054,9.80893,-0.465498,0.14,-0.35,-0.42,-23.3846,-66.5978,40.6731,1022.66
949724,-0.676108,9.80893,-0.375212,0.28,-0.21,-0.42,-23.3846,-66.5978,40.6731,1022.66
949730,-0.65715,9.79941,-0.436987,0.21,-0.35,-0.49,-23.3846,-66.5978,40.6731,1022.66
949736,-0.628711,9.78988,-0.417979,0.28,-0.21,-0.42,-23.3846,-66.5978,40.6731,1022.68
949742,-0.600273,9.83751,-0.451242,0.21,-0.21,-0.35,-23.3846,-66.5978,40.6731,1022.68
949748,-0.628711,9.82322,-0.337197,0.21,-0.21,-0.42,-23.3846,-66.5978,40.6731,1022.67
949754,-0.676108,9.81369,-0.360957,0.35,-0.14,-0.49,-23.3846,-66.5978,40.6731,1022.67
949760,-0.666629,9.80893,-0.455994,0.28,-0.21,-0.42,-23.3846,-66.5978,40.6731,1022.67
949766,-0.64767,9.80893,-0.451242,0.35,-0.14,-0.35,-23.3846,-66.5978,40.6731,1022.67
949772,-0.65241,9.78036,-0.370461,0.28,-0.14,-0.35,-23.3846,-66.5978,40.6731,1022.63
949778,-0.605013,9.82798,-0.389468,0.21,-0.35,-0.42,-23.3846,-66.5978,40.6731,1022.63
949784,-0.567095,9.83274,-0.379964,0.28,-0.07,-0.49,-23.3846,-66.5978,40.6731,1022.63
949790,-0.638191,9.83751,-0.44649,0.35,-0.07,-0.42,-23.3846,-66.5978,40.6731,1022.65
949796,-0.65715,9.77083,-0.398972,0.21,-0.14,-0.42,-23.3846,-66.5978,40.6731,1022.65
949802,-0.571835,9.83274,-0.39422,0.14,-0.21,-0.56,-23.3846,-66.5978,40.6731,1022.65
949808,-0.619232,9.81846,-0.356205,0.49,0.14,-0.49,-23.3846,-66.5978,40.6731,1022.65
949814,-0.690327,9.86608,-0.455994,0.49,0.07,-0.42,-23.3846,-66.5978,40.6731,1022.66
949820,-0.638191,9.84227,-0.370461,0.28,-0.21,-0.42,-23.3846,-66.5978,40.6731,1022.66
949826,-0.600273,9.78988,-0.384716,0.28,-0.21,-0.42,-23.3846,-66.5978,40.6731,1022.64
949832,-0.676108,9.76607,-0.432235,0.42,0,-0.49,-23.3846,-66.5978,40.6731,1022.64
949838,-0.65241,9.86132,-0.451242,0.42,-0.07,-0.35,-23.3846,-66.5978,40.6731,1022.64
949844,-0.614492,9.82322,-0.484505,0.21,-0.07,-0.42,-23.3846,-66.5978,40.6731,1022.67
949850,-0.680848,9.78512,-0.322942,0.28,-0.07,-0.42,-23.3846,-66.5978,40.6731,1022.67
949856,-0.595534,9.86132,-0.436987,0.35,-0.14,-0.49,-23.3846,-66.5978,40.6731,1022.66
949862,-0.628711,9.84703,-0.427483,0.35,0,-0.49,-23.3846,-66.5978,40.6731,1022.66
949868,-0.595534,9.81369,-0.44649,0.35,-0.07,-0.49,-23.3846,-66.5978,40.6731,1022.66
949874,-0.65715,9.84227,-0.356205,0.42,0.07,-0.56,-23.3846,-66.5978,40.6731,1022.66
949880,-0.614492,9.82322,-0.465498,0.28,-0.14,-0.56,-23.3846,-66.5978,40.6731,1022.66
949886,-0.642931,9.78036,-0.403724,0.28,0,-0.56,-23.3846,-66.5978,40.6731,1022.66
949892,-0.609753,9.81846,-0.436987,0.49,0,-0.56,-23.3846,-66.5978,40.6731,1022.66
949898,-0.642931,9.80417,-0.455994,0.49,-0.14,-0.63,-23.3846,-66.5978,40.6731,1022.65
949904,-0.600273,9.83274,-0.427483,0.49,0.07,-0.49,-23.3846,-66.5978,40.6731,1022.65
949910,-0.676108,9.83751,-0.403724,0.56,0.14,-0.42,-23.3846,-66.5978,40.6731,1022.66
949916,-0.642931,9.80417,-0.403724,0.14,-0.49,-0.42,-23.3846,-66.5978,40.6731,1022.66
949922,-0.638191,9.78988,-0.408476,0.35,-0.28,-0.42,-23.3846,-66.5978,40.6731,1022.68
949928,-0.638191,9.84703,-0.408476,0.42,-0.28,-0.42,-23.3846,-66.5978,40.6731,1022.68
949934,-0.65241,9.85656,-0.460746,0.28,-0.28,-0.35,-23.3846,-66.5978,40.6731,1022.68
949940,-0.628711,9.87561,-0.346701,0.21,-0.28,-0.42,-23.3846,-66.5978,40.6731,1022.66
949946,-0.614492,9.85179,-0.408476,0.21,-0.28,-0.49,-23.3846,-66.5978,40.6731,1022.66
949952,-0.642931,9.82322,-0.379964,0.28,-0.14,-0.49,-23.3846,-66.5978,40.6731,1022.66
949958,-0.609753,9.81369,-0.432235,0.49,-0.07,-0.49,-23.3846,-66.5978,40.6731,1022.66
949964,-0.685588,9.84703,-0.356205,0.56,-0.07,-0.42,-23.3846,-66.5978,40.6731,1022.64
949970,-0.65715,9.82322,-0.370461,0.21,-0.35,-0.49,-23.3846,-66.5978,40.6731,1022.64
949976,-0.661889,9.74702,-0.436987,0.49,-0.21,-0.42,-23.3846,-66.5978,40.6731,1022.64
949982,-0.690327,9.84703,-0.489257,0.35,-0.21,-0.35,-23.3846,-66.5978,40.6731,1022.65
949988,-0.690327,9.81846,-0.422731,0,-0.42,-0.49,-23.3846,-66.5978,40.6731,1022.65
949994,-0.623972,9.74702,-0.403724,0.14,-0.07,-0.42,-23.3846,-66.5978,40.6731,1022.68
950000,-0.590794,9.84703,-0.356205,0.28,-0.07,-0.42,-23.3846,-66.5978,40.6731,1022.68
950006,-0.695067,9.76607,-0.379964,0.35,-0.07,-0.42,-23.3846,-66.5978,40.6731,1022.64
950012,-0.600273,9.81846,-0.441739,0.49,-0.07,-0.56,-23.3846,-66.5978,40.6731,1022.64
950018,-0.671369,9.83751,-0.417979,0.42,0,-0.56,-23.3846,-66.5978,40.6731,1022.67
950024,-0.680848,9.78512,-0.460746,0.35,0,-0.49,-23.3846,-66.5978,40.6731,1022.67
950030,-0.628711,9.83751,-0.398972,0.49,-0.07,-0.49,-23.3846,-66.5978,40.6731,1022.67
950036,-0.65715,9.86608,-0.432235,0.28,-0.21,-0.42,-23.3846,-66.5978,40.6731,1022.67
950042,-0.65241,9.79941,-0.432235,0.21,-0.07,-0.49,-23.3846,-66.5978,40.6731,1022.67
950048,-0.600273,9.78036,-0.427483,0.14,-0.14,-0.35,-23.3846,-66.5978,40.6731,1022.65
950054,-0.64767,9.79464,-0.398972,0.35,-0.28,-0.49,-23.3846,-66.5978,40.6731,1022.65
950060,-0.605013,9.87561,-0.44649,0.28,-0.35,-0.49,-23.3846,-66.5978,40.6731,1022.66
950066,-0.666629,9.80417,-0.39422,0.21,-0.28,-0.35,-23.3846,-66.5978,40.6731,1022.66
950072,-0.576575,9.78036,-0.436987,0.28,-0.35,-0.49,-23.3846,-66.5978,40.6731,1022.66
950078,-0.638191,9.85179,-0.379964,0.42,-0.21,-0.49,-23.3846,-66.5978,40.6731,1022.68
950084,-0.628711,9.78036,-0.47025,0.28,-0.28,-0.56,-23.3846,-66.5978,40.6731,1022.68
950090,-0.65715,9.83751,-0.403724,0.35,-0.14,-0.49,-23.3846,-66.5978,40.6731,1022.65
950096,-0.661889,9.84227,-0.408476,0.42,-0.07,-0.49,-23.3846,-66.5978,40.6731,1022.65
950102,-0.600273,9.83751,-0.413227,0.35,-0.28,-0.63,-23.3846,-66.5978,40.6731,1022.69
950108,-0.633451,9.82798,-0.427483,0.42,0.07,-0.63,-23.3846,-66.5978,40.6731,1022.69
950114,-0.671369,9.84227,-0.422731,0.35,0,-0.63,-23.3846,-66.5978,40.6731,1022.68
950120,-0.642931,9.82322,-0.441739,0.28,0,-0.7,-23.3846,-66.5978,40.6731,1022.68
950126,-0.633451,9.83274,-0.465498,0.49,0.07,-0.7,-23.3846,-66.5978,40.6731,1022.68
950132,-0.685588,9.77559,-0.384716,0.28,-0.07,-0.63,-23.3846,-66.5978,40.6731,1022.69
950138,-0.605013,9.84703,-0.403724,0.42,-0.07,-0.7,-23.3846,-66.5978,40.6731,1022.69
950144,-0.680848,9.86608,-0.417979,0.49,0.07,-0.77,-23.3846,-66.5978,40.6731,1022.66
950150,-0.661889,9.93276,-0.489257,0.35,-0.21,-0.63,-23.3846,-66.5978,40.6731,1022.66
950156,-0.605013,9.74702,-0.384716,0.14,-0.21,-0.56,-23.3846,-66.5978,40.6731,1022.68
950162,-0.623972,9.89942,-0.451242,0.49,-0.07,-0.63,-23.3846,-66.5978,40.6731,1022.68
950168,-0.666629,9.81846,-0.389468,0.42,-0.07,-0.7,-23.3846,-66.5978,40.6731,1022.64
950174,-0.661889,9.88037,-0.375212,0.35,-0.14,-0.63,-23.3846,-66.5978,40.6731,1022.64
950180,-0.623972,9.80417,-0.489257,0.28,-0.14,-0.63,-23.3846,-66.5978,40.6731,1022.64
950186,-0.633451,9.85179,-0.417979,0.42,0,-0.77,-23.3846,-66.5978,40.6731,1022.67
950192,-0.666629,9.78036,-0.39422,0.42,0,-0.63,-23.3846,-66.5978,40.6731,1022.67
950198,-0.590794,9.88513,-0.451242,0.35,-0.21,-0.7,-23.3846,-66.5978,40.6731,1022.66
950204,-0.605013,9.81369,-0.403724,0.14,-0.07,-0.63,-23.3846,-66.5978,40.6731,1022.66
950210,-0.666629,9.8899,-0.455994,0.35,-0.21,-0.63,-23.3846,-66.5978,40.6731,1022.64
950216,-0.64767,9.78036,-0.375212,0.21,-0.28,-0.56,-23.3846,-66.5978,40.6731,1022.64
950222,-0.590794,9.82798,-0.427483,0.21,-0.35,-0.7,-23.3846,-66.5978,40.6731,1022.64
950228,-0.609753,9.81369,-0.451242,0.35,-0.14,-0.7,-23.3846,-66.5978,40.6731,1022.66
950234,-0.690327,9.82798,-0.403724,0.35,0,-0.63,-23.3846,-66.5978,40.6731,1022.66
950240,-0.581314,9.82798,-0.484505,0.35,-0.14,-0.7,-23.3846,-66.5978,40.6731,1022.64
950246,-0.65241,9.78512,-0.379964,0.14,-0.21,-0.63,-23.3846,-66.5978,40.6731,1022.64
950252,-0.64767,9.78988,-0.384716,0.21,-0.21,-0.63,-23.3846,-66.5978,40.6731,1022.65
950258,-0.595534,9.86132,-0.465498,0.56,0,-0.56,-23.3846,-66.5978,40.6731,1022.65
950264,-0.661889,9.79464,-0.403724,0.21,-0.21,-0.63,-23.3846,-66.5978,40.6731,1022.64
950270,-0.595534,9.81369,-0.432235,0.28,-0.14,-0.63,-23.3846,-66.5978,40.6731,1022.64
950276,-0.666629,9.82322,-0.427483,0.35,0.14,-0.63,-23.3846,-66.5978,40.6731,1022.64
950282,-0.676108,9.84227,-0.408476,0.35,0.14,-0.7,-23.3846,-66.5978,40.6731,1022.65
950288,-0.680848,9.88513,-0.398972,0.28,-0.14,-0.56,-23.3846,-66.5978,40.6731,1022.65
950294,-0.680848,9.83751,-0.417979,0.21,-0.07,-0.63,-23.3846,-66.5978,40.6731,1022.65
950300,-0.571835,9.82798,-0.413227,0.14,-0.35,-0.63,-23.3846,-66.5978,40.6731,1022.65
950306,-0.633451,9.79941,-0.436987,0.14,-0.28,-0.63,-23.3846,-66.5978,40.6731,1022.64
950312,-0.64767,9.82322,-0.39422,0.35,-0.07,-0.56,-23.3846,-66.5978,40.6731,1022.64
950318,-0.65715,9.83274,-0.494009,0.28,-0.21,-0.56,-23.3846,-66.5978,40.6731,1022.64
950324,-0.709286,9.84703,-0.413227,0.28,-0.14,-0.56,-23.3846,-66.5978,40.6731,1022.63
950330,-0.671369,9.87561,-0.417979,0.07,-0.42,-0.49,-23.3846,-66.5978,40.6731,1022.63
950336,-0.633451,9.80417,-0.370461,-0.07,-0.63,-0.49,-23.3846,-66.5978,40.6731,1022.67
950342,-0.661889,9.81846,-0.375212,0.49,0.14,-0.56,-23.3846,-66.5978,40.6731,1022.67
950348,-0.619232,9.88513,-0.465498,0.42,-0.14,-0.56,-23.3846,-66.5978,40.6731,1022.64
950354,-0.623972,9.79464,-0.451242,0.28,-0.07,-0.63,-23.3846,-66.5978,40.6731,1022.64
950360,-0.633451,9.70415,-0.327694,0.56,0.28,-0.63,-23.3846,-66.5978,40.6731,1022.66
950366,-0.614492,9.86608,-0.403724,0.56,-0.07,-0.63,-23.3846,-66.5978,40.6731,1022.66
950372,-0.690327,9.84227,-0.389468,0.35,0,-0.63,-23.3846,-66.5978,40.6731,1022.66
950378,-0.614492,9.79941,-0.465498,0.35,-0.07,-0.7,-23.3846,-66.5978,40.6731,1022.67
950384,-0.666629,9.84227,-0.432235,0.35,-0.07,-0.63,-23.3846,-66.5978,40.6731,1022.67
950390,-0.666629,9.83751,-0.375212,0.28,-0.21,-0.56,-23.3846,-66.5978,40.6731,1022.68
950396,-0.690327,9.77083,-0.422731,0.28,0,-0.56,-23.3846,-66.5978,40.6731,1022.68
950402,-0.609753,9.82322,-0.398972,0.28,-0.07,-0.49,-23.3846,-66.5978,40.6731,1022.62
950408,-0.666629,9.82322,-0.389468,0.35,0,-0.56,-23.3846,-66.5978,40.6731,1022.62
950414,-0.633451,9.88513,-0.479754,0.21,-0.28,-0.63,-23.3846,-66.5978,40.6731,1022.62
950420,-0.65241,9.80893,-0.408476,0,-0.28,-0.49,-23.3846,-66.5978,40.6731,1022.65
950426,-0.65715,9.84227,-0.47025,0.28,-0.21,-0.42,-23.3846,-66.5978,40.6731,1022.65
950432,-0.685588,9.87561,-0.422731,0.07,-0.35,-0.42,-23.3846,-66.5978,40.6731,1022.66
950438,-0.64767,9.80893,-0.360957,0,-0.49,-0.42,-23.3846,-66.5978,40.6731,1022.66
950444,-0.633451,9.80417,-0.475002,0.21,-0.21,-0.42,-23.3846,-66.5978,40.6731,1022.66
950450,-0.709286,9.85179,-0.375212,0.07,-0.21,-0.28,-23.3846,-66.5978,40.6731,1022.66
950456,-0.714026,9.81846,-0.484505,0.07,-0.28,-0.21,-23.3846,-66.5978,40.6731,1022.67
950462,-0.671369,9.84227,-0.422731,0.07,-0.28,-0.28,-23.3846,-66.5978,40.6731,1022.67
950468,-0.633451,9.78988,-0.375212,-0.07,-0.42,-0.28,-23.3846,-66.5978,40.6731,1022.67
950474,-0.590794,9.74226,-0.408476,0.28,-0.35,-0.28,-23.3846,-66.5978,40.6731,1022.65
950480,-0.709286,9.88037,-0.379964,0.21,-0.28,-0.35,-23.3846,-66.5978,40.6731,1022.65
950486,-0.590794,9.82322,-0.379964,-0.07,-0.35,-0.42,-23.3846,-66.5978,40.6731,1022.67
950492,-0.628711,9.79941,-0.370461,0.35,-0.21,-0.42,-23.3846,-66.5978,40.6731,1022.67
950498,-0.671369,9.86608,-0.417979,0.35,-0.21,-0.35,-23.3846,-66.5978,40.6731,1022.67
950504,-0.704547,9.82798,-0.417979,0.21,-0.28,-0.35,-23.3846,-66.5978,40.6731,1022.67
950510,-0.628711,9.81369,-0.455994,0.07,-0.14,-0.35,-23.3846,-66.5978,40.6731,1022.67
950516,-0.695067,9.81846,-0.398972,0.21,-0.14,-0.42,-23.3846,-66.5978,40.6731,1022.67
950522,-0.65715,9.85179,-0.413227,0,-0.49,-0.49,-23.3846,-66.5978,40.6731,1022.67
950528,-0.666629,9.81846,-0.441739,0.07,-0.28,-0.35,-23.3846,-66.5978,40.6731,1022.66
950534,-0.642931,9.85656,-0.479754,0.35,-0.42,-0.35,-23.3846,-66.5978,40.6731,1022.66
950540,-0.671369,9.88037,-0.375212,0.14,-0.42,-0.35,-23.3846,-66.5978,40.6731,1022.66
950546,-0.642931,9.81846,-0.427483,0,-0.49,-0.35,-23.3846,-66.5978,40.6731,1022.66
950552,-0.709286,9.80893,-0.379964,0.07,-0.21,-0.28,-23.3846,-66.5978,40.6731,1022.66
950558,-0.690327,9.88037,-0.460746,0.21,-0.35,-0.21,-23.3846,-66.5978,40.6731,1022.66
950564,-0.65241,9.84227,-0.39422,0.07,-0.28,-0.14,-23.3846,-66.5978,40.6731,1022.66
950570,-0.619232,9.80893,-0.398972,0.21,-0.35,-0.14,-23.3846,-66.5978,40.6731,1022.65
950576,-0.685588,9.84227,-0.460746,0.28,-0.28,-0.14,-23.3846,-66.5978,40.6731,1022.65
950582,-0.64767,9.83274,-0.370461,0.21,-0.21,-0.14,-23.3846,-66.5978,40.6731,1022.67
950588,-0.699807,9.85179,-0.465498,0.28,-0.42,-0.14,-23.3846,-66.5978,40.6731,1022.67
950594,-0.590794,9.82798,-0.441739,-0.07,-0.42,-0.14,-23.3846,-66.5978,40.6731,1022.66
950600,-0.680848,9.80893,-0.346701,0,-0.28,-0.21,-23.3846,-66.5978,40.6731,1022.66
950606,-0.619232,9.84703,-0.432235,0.28,-0.28,-0.21,-23.3846,-66.5978,40.6731,1022.66
950612,-0.638191,9.81369,-0.351453,0.42,-0.28,-0.28,-23.3846,-66.5978,40.6731,1022.66
950618,-0.600273,9.87084,-0.475002,0.35,-0.42,-0.28,-23.3846,-66.5978,40.6731,1022.66
950624,-0.65241,9.82798,-0.465498,0.14,-0.35,-0.28,-23.3846,-66.5978,40.6731,1022.65
950630,-0.628711,9.83274,-0.379964,0.14,-0.28,-0.21,-23.3846,-66.5978,40.6731,1022.65
950636,-0.676108,9.90895,-0.44649,0.28,-0.42,-0.14,-23.3846,-66.5978,40.6731,1022.64
950642,-0.676108,9.84227,-0.379964,0.14,-0.56,-0.14,-23.3846,-66.5978,40.6731,1022.64
950648,-0.614492,9.81369,-0.465498,-0.21,-0.63,-0.14,-23.3846,-66.5978,40.6731,1022.65
950654,-0.64767,9.82322,-0.351453,0.14,-0.56,-0.14,-23.3846,-66.5978,40.6731,1022.65
950660,-0.638191,9.82798,-0.436987,0.21,-0.49,-0.07,-23.3846,-66.5978,40.6731,1022.65
950666,-0.728245,9.84227,-0.47025,0,-0.56,-0.07,-23.3846,-66.5978,40.6731,1022.65
950672,-0.65241,9.84703,-0.451242,0,-0.7,-0.14,-23.3846,-66.5978,40.6731,1022.65
950678,-0.642931,9.79464,-0.389468,-0.14,-0.84,-0.07,-23.3846,-66.5978,40.6731,1022.65
950684,-0.619232,9.76131,-0.375212,-0.21,-0.7,-0.07,-23.3846,-66.5978,40.6731,1022.65
950690,-0.633451,9.85179,-0.417979,0.14,-0.42,-0.21,-23.3846,-66.5978,40.6731,1022.62
950696,-0.605013,9.78512,-0.413227,-0.07,-0.49,-0.07,-23.3846,-66.5978,40.6731,1022.62
950702,-0.671369,9.82322,-0.403724,0.07,-0.56,0,-23.3846,-66.5978,40.6731,1022.63
950708,-0.600273,9.84703,-0.432235,0.07,-0.56,-0.07,-23.3846,-66.5978,40.6731,1022.63
950714,-0.619232,9.80893,-0.375212,0.07,-0.28,-0.07,-23.3846,-66.5978,40.6731,1022.63
950720,-0.557616,9.81369,-0.517769,0.14,-0.42,0,-23.3846,-66.5978,40.6731,1022.65
950726,-0.65241,9.84703,-0.417979,0.07,-0.35,0,-23.3846,-66.5978,40.6731,1022.65
950732,-0.666629,9.79941,-0.460746,-0.21,-0.56,-0.07,-23.3846,-66.5978,40.6731,1022.66
950738,-0.623972,9.83274,-0.422731,-0.14,-0.63,-0.07,-23.3846,-66.5978,40.6731,1022.66
950744,-0.628711,9.83751,-0.460746,0.07,-0.49,-0.07,-23.3846,-66.5978,40.6731,1022.65
950750,-0.609753,9.84227,-0.408476,0.14,-0.49,-0.07,-23.3846,-66.5978,40.6731,1022.65
950756,-0.671369,9.84703,-0.475002,0.14,-0.42,-0.07,-23.3846,-66.5978,40.6731,1022.65
950762,-0.709286,9.85179,-0.403724,0.07,-0.49,0,-23.3846,-66.5978,40.6731,1022.68
950768,-0.704547,9.83751,-0.413227,0,-0.63,0.07,-23.3846,-66.5978,40.6731,1022.68
950774,-0.64767,9.85656,-0.44649,-0.28,-0.84,0.14,-23.3846,-66.5978,40.6731,1022.63
950780,-0.619232,9.78988,-0.356205,-0.35,-0.91,0.21,-23.3846,-66.5978,40.6731,1022.63
950786,-0.64767,9.76607,-0.308686,-0.21,-0.7,0.14,-23.3846,-66.5978,40.6731,1022.64
950792,-0.64767,9.81369,-0.489257,0,-0.77,0.07,-23.3846,-66.5978,40.6731,1022.64
950798,-0.633451,9.81846,-0.375212,-0.14,-0.77,0.14,-23.3846,-66.5978,40.6731,1022.66
950804,-0.571835,9.80893,-0.408476,-0.14,-0.98,0.07,-23.3846,-66.5978,40.6731,1022.66
950810,-0.595534,9.78988,-0.379964,0,-0.63,0,-23.3846,-66.5978,40.6731,1022.66
950816,-0.619232,9.82798,-0.398972,0.07,-0.49,0,-23.3846,-66.5978,40.6731,1022.68
950822,-0.600273,9.80893,-0.403724,0.14,-0.28,-0.07,-23.3846,-66.5978,40.6731,1022.68
950828,-0.661889,9.88037,-0.460746,0.28,-0.28,-0.14,-23.3846,-66.5978,40.6731,1022.65
950834,-0.633451,9.80417,-0.375212,0.14,-0.35,-0.07,-23.3846,-66.5978,40.6731,1022.65
950840,-0.638191,9.90418,-0.422731,0.35,-0.49,0,-23.3846,-66.5978,40.6731,1022.66
950846,-0.64767,9.84703,-0.451242,0.21,-0.42,-0.14,-23.3846,-66.5978,40.6731,1022.66
950852,-0.595534,9.83751,-0.375212,0,-0.42,-0.14,-23.3846,-66.5978,40.6731,1022.63
950858,-0.695067,9.83751,-0.47025,0.07,-0.49,-0.14,-23.3846,-66.5978,40.6731,1022.63
950864,-0.628711,9.78988,-0.455994,0,-0.49,-0.14,-23.3846,-66.5978,40.6731,1022.63
950870,-0.64767,9.81369,-0.365709,0,-0.49,-0.14,-23.3846,-66.5978,40.6731,1022.67
950876,-0.723505,9.85656,-0.403724,0.14,-0.42,-0.21,-23.3846,-66.5978,40.6731,1022.67
950882,-0.704547,9.82322,-0.403724,0.07,-0.35,-0.21,-23.3846,-66.5978,40.6731,1022.64
950888,-0.638191,9.85656,-0.417979,0,-0.49,-0.14,-23.3846,-66.5978,40.6731,1022.64
950894,-0.714026,9.81846,-0.403724,0.21,-0.49,0,-23.3846,-66.5978,40.6731,1022.7
950900,-0.581314,9.89942,-0.460746,0.14,-0.7,0,-23.3846,-66.5978,40.6731,1022.7
950906,-0.64767,9.78512,-0.389468,-0.07,-0.56,-0.14,-23.3846,-66.5978,40.6731,1022.7
950912,-0.567095,9.83274,-0.389468,0.07,-0.35,-0.21,-23.3846,-66.5978,40.6731,1022.67
950918,-0.619232,9.78988,-0.389468,0.35,-0.28,-0.14,-23.3846,-66.5978,40.6731,1022.67
950924,-0.595534,9.79941,-0.365709,0.49,-0.14,-0.14,-23.3846,-66.5978,40.6731,1022.66
950930,-0.581314,9.84703,-0.417979,0.21,-0.28,-0.14,-23.3846,-66.5978,40.6731,1022.66
950936,-0.562356,9.81846,-0.351453,0.28,-0.28,-0.14,-23.3846,-66.5978,40.6731,1022.65
950942,-0.619232,9.84703,-0.346701,0.42,-0.14,-0.28,-23.3846,-66.5978,40.6731,1022.65
950948,-0.552876,9.79941,-0.39422,0.42,-0.21,-0.28,-23.3846,-66.5978,40.6731,1022.66
950954,-0.600273,9.81369,-0.427483,0.35,-0.14,-0.35,-23.3846,-66.5978,40.6731,1022.66
950960,-0.595534,9.83751,-0.408476,0.21,-0.28,-0.21,-23.3846,-66.5978,40.6731,1022.66
950966,-0.552876,9.81369,-0.436987,0.07,-0.35,-0.28,-23.3846,-66.5978,40.6731,1022.61
950972,-0.609753,9.84703,-0.398972,0.14,-0.35,-0.21,-23.3846,-66.5978,40.6731,1022.61
950978,-0.605013,9.80893,-0.379964,0.14,-0.35,-0.28,-23.3846,-66.5978,40.6731,1022.64
950984,-0.623972,9.85656,-0.436987,0.28,-0.35,-0.21,-23.3846,-66.5978,40.6731,1022.64
950990,-0.586054,9.84703,-0.455994,0.07,-0.56,-0.21,-23.3846,-66.5978,40.6731,1022.68
950996,-0.628711,9.80893,-0.39422,-0.14,-0.63,-0.28,-23.3846,-66.5978,40.6731,1022.68
951002,-0.633451,9.85656,-0.413227,0.07,-0.63,-0.21,-23.3846,-66.5978,40.6731,1022.68
951008,-0.64767,9.78512,-0.441739,0.14,-0.42,-0.28,-23.3846,-66.5978,40.6731,1022.63
951014,-0.65241,9.79941,-0.31819,0.28,-0.28,-0.21,-23.3846,-66.5978,40.6731,1022.63
951020,-0.64767,9.80417,-0.422731,0.28,-0.35,-0.21,-23.3846,-66.5978,40.6731,1022.66
951026,-0.605013,9.85656,-0.403724,0.07,-0.35,-0.14,-23.3846,-66.5978,40.6731,1022.66
951032,-0.628711,9.81369,-0.384716,0.14,-0.42,-0.21,-23.3846,-66.5978,40.6731,1022.65
951038,-0.638191,9.85656,-0.403724,0.35,-0.07,-0.35,-23.3846,-66.5978,40.6731,1022.65
951044,-0.628711,9.78988,-0.422731,0.28,-0.28,-0.35,-23.3846,-66.5978,40.6731,1022.65
951050,-0.576575,9.78512,-0.384716,0.28,-0.07,-0.28,-23.3846,-66.5978,40.6731,1022.65
951056,-0.614492,9.87561,-0.427483,0.49,0.07,-0.35,-23.3846,-66.5978,40.6731,1022.65
951062,-0.633451,9.84227,-0.441739,0.56,0,-0.35,-23.3846,-66.5978,40.6731,1022.67
951068,-0.628711,9.86608,-0.451242,0.35,0,-0.28,-23.3846,-66.5978,40.6731,1022.67
951074,-0.723505,9.91371,-0.475002,0.21,-0.14,-0.14,-23.3846,-66.5978,40.6731,1022.66
951080,-0.666629,9.89466,-0.370461,0.28,-0.42,-0.07,-23.3846,-66.5978,40.6731,1022.66
951086,-0.638191,9.82322,-0.403724,0.21,-0.42,-0.07,-23.3846,-66.5978,40.6731,1022.67
951092,-0.638191,9.85179,-0.337197,0.14,-0.49,0,-23.3846,-66.5978,40.6731,1022.67
951098,-0.586054,9.84227,-0.427483,0.21,-0.49,-0.14,-23.3846,-66.5978,40.6731,1022.67
951104,-0.609753,9.82798,-0.379964,0.21,-0.49,-0.14,-23.3846,-66.5978,40.6731,1022.65
951110,-0.595534,9.81369,-0.360957,0.07,-0.56,-0.07,-23.3846,-66.5978,40.6731,1022.65
951116,-0.65715,9.80893,-0.39422,0.14,-0.49,-0.07,-23.3846,-66.5978,40.6731,1022.67
951122,-0.609753,9.83751,-0.365709,0.07,-0.49,-0.07,-23.3846,-66.5978,40.6731,1022.67
951128,-0.638191,9.81369,-0.403724,0.14,-0.63,-0.07,-23.3846,-66.5978,40.6731,1022.67
951134,-0.590794,9.81846,-0.398972,0,-0.7,-0.07,-23.3846,-66.5978,40.6731,1022.67
951140,-0.64767,9.77083,-0.360957,0.14,-0.49,-0.07,-23.3846,-66.5978,40.6731,1022.69
951146,-0.671369,9.78512,-0.384716,0.14,-0.56,-0.21,-23.3846,-66.5978,40.6731,1022.69
951152,-0.581314,9.83751,-0.39422,0.21,-0.49,-0.14,-23.3846,-66.5978,40.6731,1022.69
951158,-0.595534,9.86132,-0.375212,0.21,-0.35,-0.21,-23.3846,-66.5978,40.6731,1022.69
951164,-0.552876,9.90418,-0.422731,0.35,-0.49,-0.28,-23.3846,-66.5978,40.6731,1022.69
951170,-0.609753,9.83751,-0.432235,0.35,-0.28,-0.07,-23.3846,-66.5978,40.6731,1022.67
951176,-0.65715,9.84703,-0.432235,0.42,-0.28,-0.07,-23.3846,-66.5978,40.6731,1022.67
951182,-0.619232,9.82798,-0.384716,0.14,-0.49,-0.14,-23.3846,-66.5978,40.6731,1022.67
951188,-0.567095,9.82798,-0.436987,0,-0.49,-0.14,-23.3846,-66.5978,40.6731,1022.67
951194,-0.65241,9.78512,-0.370461,0.21,-0.28,-0.28,-23.3846,-66.5978,40.6731,1022.62
951200,-0.64767,9.85179,-0.427483,0.14,-0.28,-0.21,-23.3846,-66.5978,40.6731,1022.62
951206,-0.605013,9.79464,-0.375212,0.14,-0.35,-0.07,-23.3846,-66.5978,40.6731,1022.62
951212,-0.605013,9.84703,-0.379964,0.35,-0.21,-0.07,-23.3846,-66.5978,40.6731,1022.68
951218,-0.666629,9.88513,-0.379964,0.42,-0.28,-0.07,-23.3846,-66.5978,40.6731,1022.68
951224,-0.671369,9.87561,-0.384716,0.07,-0.49,0.14,-23.3846,-66.5978,40.6731,1022.64
951230,-0.576575,9.83751,-0.327694,-0.07,-0.77,0.21,-23.3846,-66.5978,40.6731,1022.64
951236,-0.562356,9.77083,-0.427483,0,-0.7,0.21,-23.3846,-66.5978,40.6731,1022.65
951242,-0.605013,9.78988,-0.379964,0.28,-0.56,0.14,-23.3846,-66.5978,40.6731,1022.65
951248,-0.704547,9.84703,-0.403724,0.28,-0.49,0.07,-23.3846,-66.5978,40.6731,1022.65
951254,-0.581314,9.82798,-0.389468,0.07,-0.7,0.14,-23.3846,-66.5978,40.6731,1022.67
951260,-0.609753,9.75654,-0.370461,0,-0.56,0.07,-23.3846,-66.5978,40.6731,1022.67
951266,-0.619232,9.78988,-0.360957,0.07,-0.56,0,-23.3846,-66.5978,40.6731,1022.67
951272,-0.614492,9.88513,-0.379964,0.14,-0.56,0,-23.3846,-66.5978,40.6731,1022.67
951278,-0.595534,9.84703,-0.379964,0.21,-0.63,-0.07,-23.3846,-66.5978,40.6731,1022.65
951284,-0.628711,9.82798,-0.408476,0.28,-0.35,0.07,-23.3846,-66.5978,40.6731,1022.65
951290,-0.642931,9.82322,-0.403724,0.21,-0.56,0.07,-23.3846,-66.5978,40.6731,1022.67
951296,-0.595534,9.87084,-0.413227,0,-0.63,-0.07,-23.3846,-66.5978,40.6731,1022.67
951302,-0.595534,9.83274,-0.341949,0.14,-0.49,-0.14,-23.3846,-66.5978,40.6731,1022.67
951308,-0.638191,9.85179,-0.398972,0.35,-0.35,-0.14,-23.3846,-66.5978,40.6731,1022.68
951314,-0.704547,9.82322,-0.375212,0.14,-0.56,-0.07,-23.3846,-66.5978,40.6731,1022.68
951320,-0.571835,9.81369,-0.403724,0,-0.56,-0.14,-23.3846,-66.5978,40.6731,1022.63
951326,-0.609753,9.77559,-0.398972,0.35,-0.35,-0.14,-23.3846,-66.5978,40.6731,1022.63
951332,-0.614492,9.86132,-0.44649,0.35,-0.35,-0.14,-23.3846,-66.5978,40.6731,1022.68
951338,-0.642931,9.85179,-0.337197,0.21,-0.42,-0.07,-23.3846,-66.5978,40.6731,1022.68
951344,-0.571835,9.83274,-0.389468,0.21,-0.42,-0.07,-23.3846,-66.5978,40.6731,1022.68
951350,-0.633451,9.78036,-0.370461,0.21,-0.28,-0.07,-23.3846,-66.5978,40.6731,1022.71
951356,-0.623972,9.83274,-0.379964,0.42,-0.35,-0.21,-23.3846,-66.5978,40.6731,1022.71
951362,-0.642931,9.79464,-0.365709,0.35,-0.28,-0.35,-23.3846,-66.5978,40.6731,1022.65
951368,-0.614492,9.78512,-0.356205,0.35,-0.21,-0.42,-23.3846,-66.5978,40.6731,1022.65
951374,-0.571835,9.84703,-0.436987,0.42,-0.07,-0.42,-23.3846,-66.5978,40.6731,1022.65
951380,-0.628711,9.81369,-0.389468,0.28,-0.07,-0.42,-23.3846,-66.5978,40.6731,1022.65
951386,-0.671369,9.87084,-0.351453,0.42,0.07,-0.35,-23.3846,-66.5978,40.6731,1022.65
951392,-0.552876,9.88037,-0.417979,0.21,0,-0.28,-23.3846,-66.5978,40.6731,1022.65
951398,-0.676108,9.77559,-0.417979,0.14,0.07,-0.28,-23.3846,-66.5978,40.6731,1022.65
951404,-0.65715,9.78512,-0.356205,0.49,0,-0.49,-23.3846,-66.5978,40.6731,1022.65
951410,-0.638191,9.84703,-0.365709,0.42,0,-0.42,-23.3846,-66.5978,40.6731,1022.65
951416,-0.533917,9.83274,-0.389468,0.42,-0.07,-0.42,-23.3846,-66.5978,40.6731,1022.66
951422,-0.595534,9.82322,-0.39422,0.42,0.07,-0.49,-23.3846,-66.5978,40.6731,1022.66
951428,-0.605013,9.78036,-0.365709,0.42,0.07,-0.56,-23.3846,-66.5978,40.6731,1022.65
951434,-0.586054,9.84227,-0.408476,0.56,0.14,-0.63,-23.3846,-66.5978,40.6731,1022.65
951440,-0.595534,9.87561,-0.379964,0.35,0.21,-0.56,-23.3846,-66.5978,40.6731,1022.65
951446,-0.676108,9.81369,-0.465498,0.35,-0.07,-0.49,-23.3846,-66.5978,40.6731,1022.68
951452,-0.552876,9.87084,-0.460746,0.35,-0.14,-0.49,-23.3846,-66.5978,40.6731,1022.68
951458,-0.595534,9.80893,-0.370461,0.28,-0.07,-0.42,-23.3846,-66.5978,40.6731,1022.67
951464,-0.628711,9.83274,-0.455994,0.21,-0.14,-0.56,-23.3846,-66.5978,40.6731,1022.67
951470,-0.586054,9.82798,-0.356205,0.28,0.07,-0.56,-23.3846,-66.5978,40.6731,1022.61
951476,-0.576575,9.79941,-0.365709,0.21,-0.07,-0.49,-23.3846,-66.5978,40.6731,1022.61
951482,-0.65715,9.82322,-0.370461,0.35,-0.07,-0.56,-23.3846,-66.5978,40.6731,1022.67
951488,-0.642931,9.81369,-0.356205,0.49,0,-0.56,-23.3846,-66.5978,40.6731,1022.67
951494,-0.614492,9.88037,-0.379964,0.21,-0.21,-0.56,-23.3846,-66.5978,40.6731,1022.67
951500,-0.562356,9.80893,-0.360957,0.28,-0.21,-0.49,-23.3846,-66.5978,40.6731,1022.65
951506,-0.65241,9.85656,-0.432235,0.35,-0.21,-0.56,-23.3846,-66.5978,40.6731,1022.65
951512,-0.628711,9.84703,-0.384716,0.35,-0.14,-0.56,-23.3846,-66.5978,40.6731,1022.68
951518,-0.590794,9.82322,-0.427483,0.42,-0.07,-0.56,-23.3846,-66.5978,40.6731,1022.68
951524,-0.557616,9.86132,-0.408476,0.21,-0.14,-0.56,-23.3846,-66.5978,40.6731,1022.66
951530,-0.619232,9.84227,-0.39422,0.14,-0.14,-0.49,-23.3846,-66.5978,40.6731,1022.66
951536,-0.600273,9.74702,-0.375212,0.21,0,-0.63,-23.3846,-66.5978,40.6731,1022.66
951542,-0.65241,9.80893,-0.356205,0.42,0.07,-0.7,-23.3846,-66.5978,40.6731,1022.65
951548,-0.590794,9.88513,-0.408476,0.42,0.14,-0.63,-23.3846,-66.5978,40.6731,1022.65
951554,-0.576575,9.85656,-0.370461,0.49,0.21,-0.56,-23.3846,-66.5978,40.6731,1022.65
951560,-0.638191,9.82798,-0.389468,0.56,0.21,-0.56,-23.3846,-66.5978,40.6731,1022.65
951566,-0.623972,9.80417,-0.432235,0.42,0.14,-0.63,-23.3846,-66.5978,40.6731,1022.67
951572,-0.633451,9.81846,-0.384716,0.42,0.35,-0.7,-23.3846,-66.5978,40.6731,1022.67
951578,-0.609753,9.82322,-0.455994,0.63,0.21,-0.7,-23.3846,-66.5978,40.6731,1022.68
951584,-0.609753,9.8899,-0.47025,0.35,0.21,-0.77,-23.3846,-66.5978,40.6731,1022.68
951590,-0.571835,9.78512,-0.379964,0.28,0.14,-0.7,-23.3846,-66.5978,40.6731,1022.68
951596,-0.595534,9.84703,-0.351453,0.35,0.07,-0.7,-23.3846,-66.5978,40.6731,1022.65
951602,-0.633451,9.84227,-0.356205,0.49,0.21,-0.7,-23.3846,-66.5978,40.6731,1022.65
951608,-0.605013,9.85179,-0.422731,0.42,-0.14,-0.7,-23.3846,-66.5978,40.6731,1022.65
951614,-0.595534,9.80417,-0.432235,0.49,0,-0.77,-23.3846,-66.5978,40.6731,1022.65
951620,-0.605013,9.80893,-0.322942,0.35,0.07,-0.77,-23.3846,-66.5978,40.6731,1022.65
951626,-0.64767,9.83751,-0.432235,0.63,0.07,-0.63,-23.3846,-66.5978,40.6731,1022.65
951632,-0.676108,9.87561,-0.436987,0.49,0.07,-0.56,-23.3846,-66.5978,40.6731,1022.68
951638,-0.609753,9.76131,-0.398972,0.21,-0.07,-0.63,-23.3846,-66.5978,40.6731,1022.68
951644,-0.586054,9.80417,-0.384716,0.42,0,-0.63,-23.3846,-66.5978,40.6731,1022.68
951650,-0.519698,9.85656,-0.427483,0.7,0.07,-0.56,-23.3846,-66.5978,40.6731,1022.66
951656,-0.628711,9.84703,-0.356205,0.28,-0.14,-0.49,-23.3846,-66.5978,40.6731,1022.66
951662,-0.666629,9.85179,-0.341949,0.21,-0.07,-0.56,-23.3846,-66.5978,40.6731,1022.66
951668,-0.571835,9.83274,-0.432235,0.35,-0.07,-0.49,-23.3846,-66.5978,40.6731,1022.66
951674,-0.600273,9.85179,-0.403724,0.49,0.07,-0.49,-23.3846,-66.5978,40.6731,1022.63
951680,-0.638191,9.82322,-0.484505,0.42,-0.21,-0.42,-23.3846,-66.5978,40.6731,1022.63
951686,-0.661889,9.86132,-0.484505,0.28,-0.07,-0.42,-23.3846,-66.5978,40.6731,1022.63
951692,-0.642931,9.85656,-0.403724,0.14,-0.35,-0.42,-23.3846,-66.5978,40.6731,1022.68
951698,-0.633451,9.75654,-0.403724,0,-0.42,-0.42,-23.3846,-66.5978,40.6731,1022.68
951704,-0.619232,9.82798,-0.365709,0.21,-0.28,-0.49,-23.3846,-66.5978,40.6731,1022.69
951710,-0.65241,9.81846,-0.384716,0.21,-0.28,-0.49,-23.3846,-66.5978,40.6731,1022.69
951716,-0.590794,9.81369,-0.365709,0.14,-0.35,-0.49,-23.3846,-66.5978,40.6731,1022.65
951722,-0.581314,9.81846,-0.408476,0.07,-0.28,-0.49,-23.3846,-66.5978,40.6731,1022.65
951728,-0.628711,9.80893,-0.39422,0.28,-0.28,-0.56,-23.3846,-66.5978,40.6731,1022.69
951734,-0.695067,9.81846,-0.417979,0.07,-0.28,-0.42,-23.3846,-66.5978,40.6731,1022.69
951740,-0.605013,9.82322,-0.327694,0,-0.35,-0.42,-23.3846,-66.5978,40.6731,1022.69
951746,-0.65241,9.81369,-0.370461,0.14,-0.35,-0.49,-23.3846,-66.5978,40.6731,1022.66
951752,-0.595534,9.80417,-0.403724,0.21,-0.14,-0.35,-23.3846,-66.5978,40.6731,1022.66
951758,-0.600273,9.80893,-0.427483,0.35,-0.35,-0.42,-23.3846,-66.5978,40.6731,1022.67
951764,-0.576575,9.82798,-0.413227,0.42,-0.14,-0.49,-23.3846,-66.5978,40.6731,1022.67
951770,-0.671369,9.78036,-0.379964,0.42,0,-0.42,-23.3846,-66.5978,40.6731,1022.65
951776,-0.605013,9.84227,-0.44649,0.42,-0.14,-0.42,-23.3846,-66.5978,40.6731,1022.65
951782,-0.64767,9.83274,-0.436987,0.21,-0.14,-0.42,-23.3846,-66.5978,40.6731,1022.65
951788,-0.642931,9.83751,-0.403724,0.28,-0.14,-0.56,-23.3846,-66.5978,40.6731,1022.68
951794,-0.590794,9.80417,-0.422731,0.28,-0.21,-0.56,-23.3846,-66.5978,40.6731,1022.68
951800,-0.65241,9.84227,-0.422731,0.21,-0.14,-0.49,-23.3846,-66.5978,40.6731,1022.67
951806,-0.638191,9.84703,-0.422731,0.14,-0.21,-0.56,-23.3846,-66.5978,40.6731,1022.67
951812,-0.623972,9.86132,-0.408476,0.14,-0.28,-0.49,-23.3846,-66.5978,40.6731,1022.64
951818,-0.65241,9.81846,-0.351453,0.21,-0.21,-0.49,-23.3846,-66.5978,40.6731,1022.64
951824,-0.638191,9.90895,-0.370461,0.28,-0.28,-0.42,-23.3846,-66.5978,40.6731,1022.64
951830,-0.676108,9.83751,-0.403724,0.14,-0.35,-0.49,-23.3846,-66.5978,40.6731,1022.64
951836,-0.595534,9.82798,-0.31819,0.07,-0.35,-0.42,-23.3846,-66.5978,40.6731,1022.64
951842,-0.619232,9.78988,-0.432235,0.42,0,-0.42,-23.3846,-66.5978,40.6731,1022.69
951848,-0.642931,9.85179,-0.365709,0.35,0.07,-0.42,-23.3846,-66.5978,40.6731,1022.69
951854,-0.633451,9.84227,-0.398972,0.28,-0.07,-0.35,-23.3846,-66.5978,40.6731,1022.69
951860,-0.633451,9.85656,-0.432235,0.42,-0.21,-0.21,-23.3846,-66.5978,40.6731,1022.69
951866,-0.619232,9.80893,-0.39422,0,-0.28,-0.35,-23.3846,-66.5978,40.6731,1022.65
951872,-0.605013,9.79941,-0.346701,0.21,-0.28,-0.35,-23.3846,-66.5978,40.6731,1022.65
951878,-0.623972,9.77559,-0.384716,0.35,-0.07,-0.35,-23.3846,-66.5978,40.6731,1022.65
951884,-0.676108,9.84703,-0.39422,0.42,0.07,-0.42,-23.3846,-66.5978,40.6731,1022.65
951890,-0.586054,9.84703,-0.422731,0.07,-0.21,-0.35,-23.3846,-66.5978,40.6731,1022.65
951896,-0.576575,9.81846,-0.413227,0.28,-0.14,-0.35,-23.3846,-66.5978,40.6731,1022.64
951902,-0.562356,9.84703,-0.455994,0.28,-0.14,-0.42,-23.3846,-66.5978,40.6731,1022.64
951908,-0.690327,9.86608,-0.346701,0.07,-0.35,-0.35,-23.3846,-66.5978,40.6731,1022.65
951914,-0.600273,9.85656,-0.375212,0,-0.49,-0.35,-23.3846,-66.5978,40.6731,1022.65
951920,-0.685588,9.86608,-0.303934,0.28,-0.21,-0.35,-23.3846,-66.5978,40.6731,1022.66
951926,-0.590794,9.84703,-0.436987,0.07,-0.56,-0.42,-23.3846,-66.5978,40.6731,1022.66
951932,-0.619232,9.88037,-0.460746,0.21,-0.28,-0.42,-23.3846,-66.5978,40.6731,1022.66
951938,-0.605013,9.89466,-0.39422,0.42,-0.14,-0.35,-23.3846,-66.5978,40.6731,1022.66
951944,-0.661889,9.85656,-0.39422,0.07,-0.49,-0.28,-23.3846,-66.5978,40.6731,1022.66
951950,-0.623972,9.84703,-0.398972,0.21,-0.28,-0.35,-23.3846,-66.5978,40.6731,1022.67
951956,-0.695067,9.86608,-0.436987,0.21,-0.21,-0.35,-23.3846,-66.5978,40.6731,1022.67
951962,-0.605013,9.80893,-0.384716,0.14,-0.42,-0.42,-23.3846,-66.5978,40.6731,1022.65
951968,-0.538657,9.81369,-0.441739,0.07,-0.42,-0.35,-23.3846,-66.5978,40.6731,1022.65
951974,-0.65715,9.84227,-0.370461,0.21,-0.42,-0.42,-23.3846,-66.5978,40.6731,1022.69
951980,-0.567095,9.82798,-0.460746,0.14,-0.35,-0.35,-23.3846,-66.5978,40.6731,1022.69
951986,-0.642931,9.81846,-0.365709,0.14,-0.28,-0.35,-23.3846,-66.5978,40.6731,1022.69
951992,-0.571835,9.84227,-0.360957,0.07,-0.28,-0.28,-23.3846,-66.5978,40.6731,1022.66
951998,-0.590794,9.88037,-0.389468,0.28,-0.35,-0.35,-23.3846,-66.5978,40.6731,1022.66
952004,-0.614492,9.83751,-0.465498,0.28,-0.21,-0.28,-23.3846,-66.5978,40.6731,1022.69
952010,-0.695067,9.87084,-0.346701,0.14,-0.28,-0.28,-23.3846,-66.5978,40.6731,1022.69
952016,-0.552876,9.80893,-0.389468,0,-0.63,-0.35,-23.3846,-66.5978,40.6731,1022.66
952022,-0.600273,9.79941,-0.356205,0.14,-0.35,-0.35,-23.3846,-66.5978,40.6731,1022.66
952028,-0.533917,9.82322,-0.432235,0.21,-0.14,-0.21,-23.3846,-66.5978,40.6731,1022.66
952034,-0.642931,9.79941,-0.398972,0.35,-0.14,-0.28,-23.3846,-66.5978,40.6731,1022.62
952040,-0.65715,9.81846,-0.417979,0.42,-0.28,-0.14,-23.3846,-66.5978,40.6731,1022.62
952046,-0.619232,9.80417,-0.436987,0.14,-0.35,-0.21,-23.3846,-66.5978,40.6731,1022.67
952052,-0.623972,9.84703,-0.44649,0.14,-0.28,-0.21,-23.3846,-66.5978,40.6731,1022.67
952058,-0.623972,9.78988,-0.389468,0.21,-0.28,-0.21,-23.3846,-66.5978,40.6731,1022.7
952064,-0.576575,9.85656,-0.365709,0.28,-0.35,-0.21,-23.3846,-66.5978,40.6731,1022.7
952070,-0.600273,9.84227,-0.44649,0.07,-0.35,-0.21,-23.3846,-66.5978,40.6731,1022.68
952076,-0.619232,9.82322,-0.389468,0.14,-0.49,-0.28,-23.3846,-66.5978,40.6731,1022.68
952082,-0.595534,9.83751,-0.441739,0.21,-0.42,-0.35,-23.3846,-66.5978,40.6731,1022.68
952088,-0.619232,9.86608,-0.360957,0.07,-0.49,-0.28,-23.3846,-66.5978,40.6731,1022.65
952094,-0.581314,9.79941,-0.408476,0,-0.42,-0.35,-23.3846,-66.5978,40.6731,1022.65
952100,-0.628711,9.75654,-0.370461,0.14,-0.35,-0.28,-23.3846,-66.5978,40.6731,1022.68
952106,-0.586054,9.86132,-0.39422,0.14,-0.35,-0.35,-23.3846,-66.5978,40.6731,1022.68
952112,-0.65715,9.82798,-0.398972,0.14,-0.42,-0.35,-23.3846,-66.5978,40.6731,1022.66
952118,-0.661889,9.85656,-0.417979,0.28,-0.21,-0.28,-23.3846,-66.5978,40.6731,1022.66
952124,-0.619232,9.82798,-0.384716,0.21,-0.21,-0.28,-23.3846,-66.5978,40.6731,1022.66
952130,-0.590794,9.83751,-0.408476,0.14,-0.42,-0.28,-23.3846,-66.5978,40.6731,1022.66
952136,-0.661889,9.81369,-0.379964,0.21,-0.35,-0.28,-23.3846,-66.5978,40.6731,1022.66
952142,-0.581314,9.78988,-0.408476,0.14,-0.42,-0.35,-23.3846,-66.5978,40.6731,1022.64
952148,-0.65715,9.83274,-0.384716,0,-0.42,-0.21,-23.3846,-66.5978,40.6731,1022.64
952154,-0.548137,9.81369,-0.398972,0.14,-0.35,-0.35,-23.3846,-66.5978,40.6731,1022.66
952160,-0.609753,9.82798,-0.389468,0.35,-0.21,-0.28,-23.3846,-66.5978,40.6731,1022.66
952166,-0.576575,9.83751,-0.384716,0.42,-0.28,-0.42,-23.3846,-66.5978,40.6731,1022.67
952172,-0.623972,9.85656,-0.403724,0.49,-0.07,-0.42,-23.3846,-66.5978,40.6731,1022.67
952178,-0.586054,9.80417,-0.427483,0.35,-0.14,-0.42,-23.3846,-66.5978,40.6731,1022.67
952184,-0.609753,9.81846,-0.436987,0.28,-0.21,-0.42,-23.3846,-66.5978,40.6731,1022.68
952190,-0.628711,9.82322,-0.351453,0.14,-0.07,-0.49,-23.3846,-66.5978,40.6731,1022.68
952196,-0.576575,9.82322,-0.413227,0.07,-0.21,-0.56,-23.3846,-66.5978,40.6731,1022.69
952202,-0.64767,9.83274,-0.375212,0.21,0,-0.49,-23.3846,-66.5978,40.6731,1022.69
952208,-0.595534,9.82322,-0.379964,0.28,0,-0.42,-23.3846,-66.5978,40.6731,1022.68
952214,-0.586054,9.80417,-0.356205,0.14,-0.21,-0.42,-23.3846,-66.5978,40.6731,1022.68
952220,-0.595534,9.82798,-0.356205,0.21,-0.21,-0.49,-23.3846,-66.5978,40.6731,1022.68
952226,-0.661889,9.79464,-0.389468,0.28,-0.14,-0.49,-23.3846,-66.5978,40.6731,1022.67
952232,-0.514959,9.88037,-0.408476,0.21,-0.14,-0.42,-23.3846,-66.5978,40.6731,1022.67
