Timestamp,AccX,AccY,AccZ,AngularVelX,AngularVelY,AngularVelZ,MagX,MagY,MagZ,AirPressure
15668,0.282162,9.81827,0.0573888,1.26,-2.52,0.42,-22.7109,-47.9408,14.2717,1020.26
15674,0.306074,9.79436,0.0813008,1.61,-2.73,-0.07,-22.6527,-44.1167,17.4191,1020.26
15680,0.315638,9.83261,0.047824,1.75,-2.73,-0.21,-23.3211,-45.0727,14.183,1020.26
15686,0.301291,9.84696,0.0573888,1.19,-2.52,0.14,-23.3211,-47.3549,15.0401,1020.26
15692,0.286944,9.8087,0.0334768,1.61,-2.59,0.07,-23.4663,-45.3503,14.582,1020.25
15698,0.315638,9.81349,0.0382592,1.47,-2.45,-0.14,-22.8852,-44.3018,17.1531,1020.25
15704,0.310856,9.84696,0.0813008,1.54,-2.66,-0.14,-22.7399,-46.2447,15.3208,1020.23
15710,0.301291,9.81349,0.071736,1.75,-2.45,0.21,-23.2339,-45.8129,15.2174,1020.23
15716,0.296509,9.8374,0.071736,1.47,-2.87,0,-22.1878,-43.2532,16.104,1020.24
15722,0.301291,9.81349,0.0286944,1.75,-2.52,-0.21,-23.0014,-45.3503,15.3356,1020.24
15728,0.272597,9.83261,0.0669536,1.68,-2.52,-0.28,-23.2339,-46.5531,14.3012,1020.24
15734,0.267814,9.84218,0.071736,1.12,-1.96,-0.07,-22.8271,-44.3634,16.2222,1020.23
15740,0.267814,9.81349,0.0573888,1.75,-2.45,0.21,-22.8852,-43.9008,15.6607,1020.23
15746,0.282162,9.85174,0.0334768,1.54,-2.59,-0.21,-23.2339,-47.6016,13.5624,1020.24
15752,0.291726,9.84696,0.0813008,1.47,-3.22,-0.42,-22.798,-44.5793,14.7445,1020.24
15758,0.301291,9.84696,0.0334768,1.54,-2.59,0.14,-22.1588,-43.9934,15.2469,1020.26
15764,0.296509,9.83261,0.0382592,1.61,-2.73,0.49,-23.6407,-46.5531,13.9614,1020.26
15770,0.301291,9.85653,0.0669536,1.61,-2.66,-0.21,-22.7109,-46.368,14.4786,1020.26
15776,0.315638,9.84696,0.0621712,1.47,-2.59,0,-22.8852,-43.3149,16.6655,1020.26
15782,0.282162,9.81827,0.0430416,1.61,-2.52,0.21,-23.4663,-45.6895,15.9414,1020.25
15788,0.306074,9.84696,0.0191296,1.26,-2.8,0.35,-22.9433,-47.6941,12.6463,1020.25
15794,0.277379,9.83261,0.0621712,1.47,-2.52,0.56,-22.9143,-43.9934,15.7493,1020.25
15800,0.282162,9.81827,0.0526064,1.47,-2.94,0.21,-23.1467,-46.0288,15.3799,1020.26
15806,0.277379,9.84218,0.0526064,1.47,-2.59,0.07,-22.6237,-46.9848,14.6706,1020.26
15812,0.286944,9.83261,0.0191296,1.89,-3.08,-0.07,-22.6818,-46.0288,16.0892,1020.28
15818,0.296509,9.86131,0.0621712,1.47,-2.59,0,-22.798,-44.5485,17.3156,1020.28
15824,0.224773,9.81827,0.0765184,1.54,-2.1,0.49,-23.292,-47.2932,15.8971,1020.25
15830,0.243902,9.76566,0.143472,1.96,-2.66,0.28,-23.8441,-46.4297,15.5868,1020.25
15836,0.334768,9.87566,0.0095648,1.89,-3.15,-0.21,-22.9433,-43.685,16.0892,1020.25
15842,0.439981,9.90435,-0.0573888,0.77,-2.24,-0.14,-22.5946,-46.6147,15.8232,1020.25
15848,0.277379,9.8087,0.071736,1.12,-1.96,0.14,-23.1758,-47.0157,13.6215,1020.25
15854,0.243902,9.81349,0.13869,1.89,-3.08,0,-23.0595,-44.826,16.8576,1020.22
15860,0.277379,9.84218,0.023912,1.89,-3.5,0,-23.0305,-44.3943,17.2713,1020.22
15866,0.296509,9.8374,0.0286944,2.03,-2.59,0.14,-22.9433,-47.1082,15.3799,1020.24
15872,0.296509,9.81827,0.047824,1.61,-2.59,-0.28,-22.8271,-44.4559,15.5868,1020.24
15878,0.253467,9.82305,0.0765184,1.26,-2.52,0.21,-22.3912,-43.6541,17.6112,1020.23
15884,0.286944,9.81827,0.047824,1.4,-2.73,0.28,-22.769,-46.954,15.4242,1020.23
15890,0.306074,9.80392,0.0143472,1.61,-2.45,-0.21,-22.4493,-46.5222,15.4833,1020.26
15896,0.301291,9.82305,0.0430416,1.75,-2.45,-0.07,-22.5365,-43.9625,17.0201,1020.26
15902,0.310856,9.81349,0.0382592,1.75,-2.94,0.42,-23.4954,-46.5222,14.0944,1020.26
15908,0.286944,9.8374,0.0430416,1.4,-2.8,-0.21,-22.9143,-47.139,15.3947,1020.25
15914,0.286944,9.85174,0.0526064,1.68,-2.73,-0.14,-23.0595,-43.8083,17.0644,1020.25
15920,0.277379,9.84218,0.0573888,1.4,-2.66,0.77,-22.9433,-44.1476,15.439,1020.25
15926,0.282162,9.8374,0.0334768,1.68,-2.52,0.49,-23.6116,-47.6941,15.2765,1020.25
15932,0.296509,9.82305,0.047824,1.47,-2.87,0.42,-23.0014,-45.3195,16.3404,1020.24
15938,0.310856,9.79436,0.0860832,1.75,-3.08,-0.28,-22.4203,-44.5485,15.306,1020.24
15944,0.291726,9.81349,0.0430416,1.33,-2.8,0.28,-22.8271,-46.2138,15.3208,1020.23
15950,0.320421,9.83261,0.071736,1.61,-2.38,0.14,-23.2629,-46.5531,14.0944,1020.23
15956,0.296509,9.83261,0.0334768,1.61,-2.52,0.21,-23.1177,-44.1476,16.5177,1020.26
15962,0.325203,9.86131,0.047824,1.96,-2.8,-0.49,-23.1467,-45.5353,15.7198,1020.26
15968,0.286944,9.82305,0.0765184,1.4,-2.73,-0.21,-22.9724,-46.7998,14.8036,1020.26
15974,0.267814,9.84218,0.0334768,2.17,-2.87,0.42,-23.9894,-44.6718,15.4833,1020.23
15980,0.291726,9.83261,0.0669536,1.82,-3.15,0,-23.0014,-45.0111,16.562,1020.23
15986,0.267814,9.8374,0.0573888,1.75,-2.87,-0.14,-24.4252,-47.2932,15.572,1020.24
15992,0.282162,9.82305,0.0286944,2.1,-2.87,0.21,-23.3211,-45.7204,16.1483,1020.24
15998,0.291726,9.85174,0.0286944,1.54,-2.8,0.14,-22.5075,-43.1915,17.227,1020.26
16004,0.282162,9.84696,0.0621712,1.68,-2.59,0.28,-22.6237,-47.1698,16.4881,1020.26
16010,0.310856,9.80392,0.0382592,1.54,-2.52,0.21,-22.9143,-46.3372,15.705,1020.26
16016,0.306074,9.86131,0.0191296,1.33,-2.38,-0.28,-22.5365,-43.5924,16.8723,1020.26
16022,0.272597,9.80392,0.0526064,1.47,-2.66,-0.35,-22.1878,-45.8129,15.0696,1020.26
16028,0.272597,9.81827,0.0765184,1.82,-2.38,0.28,-22.8561,-47.6324,15.3947,1020.25
16034,0.301291,9.8087,0.023912,1.75,-2.31,0.28,-22.8271,-44.641,14.9218,1020.25
16040,0.267814,9.81349,0.0860832,1.05,-2.52,0.14,-22.5365,-44.7643,16.4734,1020.26
16046,0.306074,9.82305,0.0813008,1.54,-2.38,0.56,-23.2339,-48.1567,16.6211,1020.26
16052,0.267814,9.85653,0.0573888,1.82,-2.8,-0.21,-23.6116,-45.5353,15.8084,1020.23
16058,0.296509,9.82783,0.0286944,1.61,-2.59,-0.07,-22.4493,-44.3943,16.0596,1020.23
16064,0.310856,9.86609,0.0382592,1.47,-2.17,0.14,-22.246,-46.954,15.3504,1020.25
16070,0.282162,9.81827,0.0669536,1.82,-2.38,-0.28,-23.0595,-45.8746,15.7345,1020.25
16076,0.306074,9.82783,0.0526064,1.54,-2.52,-0.14,-22.3912,-43.5924,15.9266,1020.25
16082,0.263032,9.79436,0.0382592,1.54,-2.59,0.07,-22.3041,-46.0905,15.3799,1020.24
16088,0.286944,9.8087,0.0526064,1.54,-2.73,0.28,-23.3501,-47.7558,15.0844,1020.24
16094,0.301291,9.81349,0.0382592,1.54,-2.66,0.14,-21.8973,-45.6279,15.3356,1020.22
16100,0.277379,9.84696,0.0526064,1.54,-2.31,-0.07,-22.0426,-44.5485,15.7641,1020.22
16106,0.282162,9.8374,0.0430416,1.47,-2.38,-0.28,-22.7109,-47.5091,15.4095,1020.24
16112,0.291726,9.84218,0.047824,1.89,-2.52,0.21,-22.0716,-45.412,15.838,1020.24
16118,0.301291,9.8374,0.047824,1.54,-2.52,0.21,-21.8101,-44.0859,16.9905,1020.25
16124,0.306074,9.84218,0.0334768,1.4,-2.38,-0.28,-22.9724,-46.7381,15.7641,1020.25
16130,0.277379,9.79914,0.0813008,1.26,-2.45,-0.07,-22.4493,-47.0773,15.5572,1020.26
16136,0.277379,9.85653,0.0334768,1.68,-2.38,-0.07,-22.0426,-44.055,16.6064,1020.26
16142,0.296509,9.85174,0.0669536,1.33,-2.73,0.56,-22.8271,-45.7512,15.3208,1020.26
16148,0.272597,9.82305,0.0669536,1.26,-2.31,0.35,-23.2629,-47.324,15.0992,1020.24
16154,0.282162,9.8374,0,1.75,-2.8,0,-22.769,-44.4251,16.4881,1020.24
16160,0.310856,9.79436,0.071736,1.33,-2.59,-0.07,-22.9724,-44.9494,15.838,1020.26
16166,0.315638,9.82305,0.0765184,1.54,-2.52,0.21,-22.7399,-46.954,15.8823,1020.26
16172,0.315638,9.8374,0.0286944,1.19,-2.52,-0.21,-22.9724,-45.5662,14.8036,1020.23
16178,0.296509,9.81827,0.0526064,1.54,-2.17,0,-22.1878,-43.3766,16.7837,1020.23
16184,0.263032,9.8087,0.0621712,1.26,-2.1,0.14,-22.9433,-46.5222,15.5277,1020.23
16190,0.296509,9.81827,0.047824,1.68,-2.87,-0.07,-23.1177,-47.1698,15.3651,1020.23
16196,0.282162,9.81827,0.0382592,1.54,-2.8,-0.14,-21.8682,-43.87,16.6507,1020.23
16202,0.282162,9.82305,0.0573888,1.54,-2.45,0.07,-22.8271,-45.2886,17.094,1020.25
16208,0.277379,9.82305,0.0908656,1.68,-2.87,-0.56,-22.8271,-46.6456,13.6511,1020.25
16214,0.272597,9.8087,0.0669536,2.17,-2.66,0.14,-22.769,-44.7952,16.5916,1020.27
16220,0.277379,9.81349,0.071736,1.82,-2.87,-0.14,-22.4493,-44.4559,18.0249,1020.27
16226,0.306074,9.87566,0.047824,2.03,-2.66,-0.28,-22.5075,-46.9231,16.0153,1020.23
16232,0.272597,9.8374,0.047824,1.4,-2.52,0.21,-22.7399,-45.3811,16.2813,1020.23
16238,0.282162,9.83261,0.071736,1.82,-2.52,0.28,-22.7109,-43.1607,17.0201,1020.26
16244,0.291726,9.83261,0.0526064,1.96,-2.52,-0.07,-22.8271,-46.3372,15.5129,1020.26
16250,0.291726,9.84696,0.0526064,2.1,-2.59,0.21,-22.8271,-46.8923,14.2421,1020.24
16256,0.277379,9.84218,0.0573888,1.47,-2.59,0.49,-22.4784,-43.685,15.4686,1020.24
16262,0.282162,9.8087,0.0286944,1.68,-2.94,0.14,-22.5365,-44.6718,15.8528,1020.24
16268,0.310856,9.81349,0.0382592,1.54,-2.52,-0.07,-23.4082,-47.4166,14.7298,1020.24
16274,0.291726,9.85653,0.0669536,1.26,-2.73,-0.14,-22.1878,-44.826,16.4143,1020.24
16280,0.277379,9.85653,0.0143472,1.54,-2.87,0.14,-22.3622,-43.5616,15.6607,1020.22
16286,0.310856,9.84696,0.0286944,1.47,-2.73,-0.14,-22.8852,-47.139,16.0153,1020.22
16292,0.306074,9.82305,0,1.75,-2.87,-0.56,-22.4784,-45.4737,15.0548,1020.23
16298,0.310856,9.85653,0.0334768,1.54,-2.31,-0.07,-21.8682,-43.87,15.8232,1020.23
16304,0.296509,9.86131,0.023912,1.33,-2.66,-0.21,-22.0135,-46.7689,14.8184,1020.29
16310,0.310856,9.79914,0.105213,1.19,-2.52,-0.42,-21.752,-47.0773,14.8036,1020.29
16316,0.286944,9.73218,0.129125,1.61,-2.1,-0.14,-22.5656,-44.0859,15.6754,1020.29
16322,0.224773,9.8374,0.071736,1.75,-3.15,-0.7,-22.3041,-44.8877,16.2222,1020.23
16328,0.282162,9.83261,0.0526064,1.68,-2.94,-0.21,-23.0305,-47.6633,15.3356,1020.23
16334,0.286944,9.82305,-0.0143472,1.89,-2.73,0,-22.9433,-45.0419,15.7937,1020.26
16340,0.296509,9.88044,0.0765184,1.19,-2.31,-0.42,-22.0426,-44.4559,16.4586,1020.26
16346,0.263032,9.78957,0.105213,1.4,-2.17,0.14,-22.8271,-47.725,15.1878,1020.25
16352,0.277379,9.81827,0.0382592,1.68,-2.73,-0.35,-22.7399,-45.5353,15.8823,1020.25
16358,0.282162,9.84696,0.0095648,1.54,-2.94,-0.07,-22.4784,-44.5793,15.7345,1020.23
16364,0.277379,9.76088,0.0813008,1.68,-2.66,0.14,-22.6237,-46.8923,14.3603,1020.23
16370,0.272597,9.83261,0.071736,1.54,-2.66,-0.14,-22.9433,-47.3549,14.3012,1020.23
16376,0.310856,9.83261,-0.023912,1.26,-2.8,-0.56,-22.4493,-43.6541,16.2517,1020.25
16382,0.291726,9.86609,0.023912,1.54,-2.94,-0.28,-22.7399,-45.2269,15.7937,1020.25
16388,0.282162,9.85174,0.0765184,1.61,-2.66,-0.28,-23.2339,-48.2801,15.2765,1020.24
16394,0.267814,9.82783,0.0334768,1.4,-2.17,-0.56,-21.9554,-44.4559,16.1631,1020.24
16400,0.277379,9.85174,0.0286944,1.47,-2.87,-0.42,-22.7109,-44.4868,16.2369,1020.24
16406,0.277379,9.83261,0.0382592,1.4,-3.01,-0.42,-22.246,-47.4166,14.0057,1020.24
16412,0.272597,9.79436,0.071736,1.47,-2.38,-0.21,-23.0595,-45.8129,15.7345,1020.26
16418,0.23912,9.79914,0.0860832,1.26,-2.38,-0.42,-22.5656,-44.4251,14.8923,1020.26
16424,0.286944,9.83261,0.0143472,1.54,-2.31,-0.07,-23.5826,-46.8923,15.0844,1020.25
16430,0.253467,9.8087,0.0526064,1.61,-2.8,0.35,-23.3792,-46.7998,14.3603,1020.25
16436,0.263032,9.80392,0.0860832,1.68,-2.87,-0.07,-22.5075,-43.4999,15.8971,1020.25
16442,0.301291,9.85174,0.0430416,1.61,-2.66,-0.21,-22.7109,-45.3503,15.4095,1020.25
16448,0.296509,9.86609,0.0526064,1.4,-2.66,-0.21,-22.6527,-46.954,14.5081,1020.25
16454,0.282162,9.81827,0.0430416,1.47,-2.31,0.07,-22.5946,-44.4251,15.2617,1020.26
16460,0.253467,9.84218,0.0669536,1.47,-2.45,0.07,-22.769,-43.9317,15.8084,1020.26
16466,0.277379,9.81827,0.0765184,1.47,-2.45,-0.28,-23.4082,-47.324,15.1583,1020.25
16472,0.263032,9.79436,0.0765184,1.61,-2.45,0.14,-22.769,-45.6279,15.971,1020.25
16478,0.301291,9.84218,0.0143472,1.33,-2.73,-0.21,-22.0135,-44.1784,16.1187,1020.25
16484,0.286944,9.82783,0.023912,1.26,-2.31,0,-21.9554,-46.4914,16.1335,1020.25
16490,0.277379,9.81349,0.071736,1.68,-2.59,-0.14,-22.4203,-46.8923,14.8627,1020.25
16496,0.306074,9.85174,0.0334768,1.61,-2.8,-0.7,-21.9263,-44.641,16.2369,1020.25
16502,0.296509,9.85174,0.0191296,1.4,-2.17,-0.14,-21.9554,-45.8746,15.9414,1020.25
16508,0.248685,9.79914,0.071736,1.26,-2.24,-0.07,-22.4203,-47.725,15.173,1020.25
16514,0.306074,9.82305,0.0573888,1.26,-2.45,-0.21,-22.1007,-44.7027,15.971,1020.25
16520,0.277379,9.81349,0.0669536,1.47,-3.08,-0.56,-21.752,-44.6718,14.6263,1020.21
16526,0.25825,9.82783,0.0621712,1.68,-2.94,-0.42,-22.8271,-47.0465,15.439,1020.21
16532,0.25825,9.82305,0.023912,1.68,-2.45,0.14,-22.3041,-45.8437,15.838,1020.26
16538,0.272597,9.85174,0.0430416,1.19,-2.38,-0.21,-21.9554,-43.5616,17.1383,1020.26
16544,0.277379,9.81827,0.0621712,1.75,-2.24,-17.71,-22.5075,-46.0905,15.5277,1020.26
16550,0.282162,9.81827,0.047824,1.68,-2.73,-0.7,-22.8271,-46.9848,15.0105,1020.22
16556,0.277379,9.83261,0.0526064,1.54,-2.1,0.42,-22.1007,-43.8392,17.3008,1020.22
16562,0.282162,9.82783,0.0573888,1.26,-2.31,0.21,-22.1297,-45.2269,15.3651,1020.22
16568,0.272597,9.82305,0.0430416,1.82,-2.66,-0.63,-22.246,-47.2932,14.7741,1020.22
16574,0.25825,9.78479,0.0573888,1.54,-2.87,0.07,-22.5365,-44.3943,15.4833,1020.24
16580,0.282162,9.80392,0.0526064,1.54,-2.38,0.14,-21.8682,-44.3634,15.8232,1020.24
16586,0.267814,9.78957,0.0573888,1.33,-1.96,0.21,-21.6648,-46.4914,15.0105,1020.25
16592,0.263032,9.83261,0.0621712,1.47,-2.94,-0.49,-22.4493,-45.597,14.3012,1020.25
16598,0.25825,9.81827,0.0669536,1.89,-2.87,-0.07,-22.3331,-43.9934,16.0301,1020.27
16604,0.291726,9.82305,0.0669536,1.4,-2.52,0.07,-22.275,-47.3549,15.6163,1020.27
16610,0.296509,9.82783,0.0573888,1.26,-2.31,-0.42,-22.4493,-46.954,15.173,1020.27
16616,0.301291,9.81349,0.0573888,0.98,-2.66,0.14,-22.4203,-44.5176,16.5177,1020.23
16622,0.277379,9.82305,0.0860832,1.61,-2.66,-0.21,-22.1297,-45.6279,13.2669,1020.23
16628,0.291726,9.86131,0.071736,1.82,-2.73,0.49,-22.5365,-48.1259,13.9023,1020.24
16634,0.267814,9.84218,0.0286944,1.05,-2.31,0,-22.246,-44.6101,15.1139,1020.24
16640,0.267814,9.82783,0.0430416,1.61,-2.59,-0.14,-22.246,-44.3326,15.9562,1020.25
16646,0.272597,9.82305,0.0286944,1.75,-2.45,0.07,-22.769,-46.9231,14.2126,1020.25
16652,0.243902,9.78001,0.129125,1.82,-2.59,0.07,-22.3912,-45.2269,15.6311,1020.24
16658,0.263032,9.85653,0.0430416,1.54,-3.01,0.21,-21.781,-43.1607,15.8528,1020.24
16664,0.291726,9.81349,0.0669536,1.54,-2.8,-0.21,-22.246,-46.1521,15.7493,1020.24
16670,0.277379,9.81349,0.023912,1.68,-2.31,0.42,-22.8271,-46.4297,14.5672,1020.26
16676,0.25825,9.85653,0.0430416,1.89,-2.66,0.42,-22.9433,-44.641,16.2074,1020.26
16682,0.291726,9.83261,0.0573888,1.61,-2.73,0.42,-22.8561,-44.9494,15.9562,1020.24
16688,0.267814,9.81349,0.0813008,1.54,-2.59,0.21,-23.5826,-47.2624,14.6559,1020.24
16694,0.301291,9.81827,0.0286944,1.68,-2.38,0.14,-22.8561,-45.412,15.8084,1020.27
16700,0.282162,9.79914,0.0621712,1.4,-2.31,0.49,-22.5946,-43.87,16.9019,1020.27
16706,0.306074,9.85174,0.0382592,1.54,-2.66,0,-22.8852,-46.9231,14.715,1020.25
16712,0.296509,9.85174,0.0047824,1.47,-2.8,-0.28,-23.3792,-45.5353,15.7641,1020.25
16718,0.277379,9.83261,0.0669536,0.91,-2.17,0.21,-22.9724,-43.5308,16.2813,1020.25
16724,0.267814,9.81349,0.11956,1.54,-2.38,0.42,-23.0886,-46.0288,15.5868,1020.24
16730,0.25825,9.81827,0.10043,1.54,-2.66,-0.28,-23.1467,-46.3989,15.6311,1020.24
16736,0.263032,9.83261,0.0860832,1.75,-2.59,-0.21,-22.3331,-43.87,16.828,1020.26
16742,0.267814,9.81349,0.047824,1.75,-2.31,0,-22.4493,-44.9494,16.5029,1020.26
16748,0.25825,9.79436,0.0765184,1.26,-2.31,-17.92,-22.3622,-47.9717,14.4194,1020.22
16754,0.253467,9.81827,0.0765184,1.47,-2.59,0,-22.5365,-45.2886,16.2665,1020.22
16760,0.248685,9.8374,0.0669536,1.96,-2.94,0.14,-22.3912,-45.2578,15.4538,1020.25
16766,0.253467,9.82305,0.0382592,1.33,-2.73,-0.14,-22.3912,-46.9231,15.3356,1020.25
16772,0.286944,9.82305,0.0191296,1.61,-2.59,0,-22.8271,-45.7512,15.7641,1020.24
16778,0.267814,9.82783,0.0621712,1.96,-2.45,0.07,-22.4493,-43.8392,16.6359,1020.24
16784,0.248685,9.82305,0.0526064,1.4,-2.17,0.14,-22.6818,-45.9671,15.0992,1020.24
16790,0.248685,9.8374,0.0669536,1.68,-2.1,0.42,-22.769,-47.0157,14.9366,1020.28
16796,0.286944,9.82783,0.0669536,1.61,-2.59,0.07,-22.7399,-44.0242,15.9414,1020.28
16802,0.267814,9.82783,0.0908656,1.4,-2.31,0.07,-21.9554,-44.5176,16.7985,1020.24
16808,0.291726,9.81349,0.0526064,1.47,-2.24,0.28,-22.9143,-47.5091,13.9909,1020.24
16814,0.277379,9.79914,0.0334768,1.68,-2.03,0.21,-22.798,-44.641,16.429,1020.24
16820,0.277379,9.82783,0.047824,1.4,-2.66,-0.28,-22.1007,-44.055,17.0496,1020.24
16826,0.291726,9.82305,0.0860832,1.4,-2.31,0.21,-23.4373,-46.8615,15.8971,1020.22
16832,0.253467,9.85174,0.0813008,1.61,-2.66,0.07,-23.0595,-47.1082,14.4638,1020.22
16838,0.253467,9.81349,0.0621712,1.68,-2.66,0.14,-22.5656,-44.4868,16.3404,1020.22
16844,0.272597,9.81827,0.0813008,1.68,-2.59,-0.14,-22.5365,-46.5839,15.838,1020.23
16850,0.282162,9.84696,-0.0047824,1.47,-2.87,-0.07,-22.4493,-46.9231,14.449,1020.23
16856,0.306074,9.8374,0.133907,0.98,-2.45,-0.21,-22.2169,-44.5176,16.7246,1020.25
16862,0.167384,9.74175,0.186514,2.52,-2.66,0.14,-22.1297,-44.7643,17.0349,1020.25
16868,0.248685,9.87087,0.0382592,1.61,-3.36,0.21,-22.6818,-47.0773,15.1583,1020.24
16874,0.334768,9.84218,0.0047824,1.4,-2.31,0.14,-22.3622,-45.6279,15.3504,1020.24
16880,0.25825,9.82783,0.0382592,1.54,-2.66,0.21,-22.3331,-44.6101,16.9462,1020.23
16886,0.272597,9.83261,0.047824,1.4,-2.38,0.07,-22.5656,-47.0465,14.4194,1020.23
16892,0.291726,9.81827,0.023912,1.4,-2.17,0.14,-23.3792,-46.7998,14.3751,1020.23
16898,0.23912,9.86609,0.0286944,1.47,-2.45,0.07,-22.4203,-44.055,16.8723,1020.25
16904,0.282162,9.76088,0.133907,1.26,-2.17,0.35,-22.1588,-46.5839,15.1878,1020.25
16910,0.176949,9.76088,0.114778,2.31,-2.59,0.28,-22.798,-47.8792,14.183,1020.24
16916,0.35868,9.85653,0.0191296,1.61,-2.66,0.35,-23.292,-44.8877,16.1187,1020.24
16922,0.37781,9.92348,-0.095648,1.54,-2.73,-0.14,-22.0426,-45.0419,16.1483,1020.23
16928,0.277379,9.82305,0.0669536,1.05,-2.45,-0.14,-23.1177,-48.2492,13.6806,1020.23
16934,0.25825,9.80392,0.148254,1.96,-2.45,0.07,-22.5365,-45.9054,14.6854,1020.25
16940,0.243902,9.84218,0.0669536,1.75,-2.66,-0.07,-22.6237,-44.0859,15.971,1020.25
16946,0.277379,9.78957,0.0573888,1.33,-2.38,-0.14,-23.2339,-47.139,15.3799,1020.24
16952,0.272597,9.8374,0.0334768,2.03,-3.08,-17.78,-22.9724,-46.9848,15.5868,1020.24
16958,0.23912,9.82305,0.0765184,1.82,-2.87,-0.42,-22.0135,-44.8569,16.0744,1020.24
16964,0.248685,9.8087,0.0573888,1.61,-2.73,0.07,-23.6116,-46.2138,16.1187,1020.26
16970,0.243902,9.82783,0.0526064,1.61,-2.59,0.14,-23.5244,-47.3549,14.1387,1020.26
16976,0.248685,9.8374,0.0573888,1.75,-2.87,-0.07,-22.8852,-44.9185,15.5129,1020.26
16982,0.296509,9.83261,0.047824,1.75,-2.38,-0.35,-22.7109,-44.5485,15.7198,1020.26
16988,0.23912,9.83261,0.0573888,1.75,-2.8,0.07,-23.2048,-48.4343,15.0844,1020.24
16994,0.282162,9.85653,0.0430416,1.47,-2.8,0.63,-23.0305,-45.9671,15.7345,1020.24
17000,0.272597,9.8374,0.0573888,1.61,-2.94,0.14,-22.5656,-44.4559,17.4043,1020.25
17006,0.25825,9.83261,0.047824,1.61,-2.66,-0.07,-22.5365,-47.0773,14.848,1020.25
17012,0.306074,9.85174,0.0191296,1.61,-2.59,0.21,-22.7109,-46.2755,14.9218,1020.25
17018,0.296509,9.82783,0.0382592,1.75,-2.52,0.07,-22.1588,-43.685,16.7246,1020.26
17024,0.306074,9.85174,-0.0430416,1.54,-3.29,-0.21,-21.6358,-46.0288,15.3947,1020.26
17030,0.306074,9.83261,0.0908656,1.75,-2.24,-0.42,-23.3792,-47.6324,12.5428,1020.24
17036,0.234338,9.78001,0.109995,1.61,-3.08,-0.07,-23.0014,-44.826,16.7246,1020.24
17042,0.315638,9.88522,-0.023912,1.82,-3.29,-0.28,-22.9433,-44.7952,16.9314,1020.26
17048,0.344333,9.82305,0.0286944,1.33,-2.45,-0.56,-22.7399,-47.6941,14.5081,1020.26
17054,0.224773,9.81827,0.0669536,1.75,-2.31,-0.14,-22.1588,-45.0111,14.9662,1020.24
17060,0.243902,9.82305,0.0860832,1.61,-3.08,-0.49,-23.2048,-44.7335,15.5425,1020.24
17066,0.272597,9.84218,0.0573888,1.68,-2.59,0.14,-22.8271,-47.4782,13.3851,1020.25
17072,0.243902,9.80392,0.0334768,1.61,-2.8,-0.28,-22.7399,-47.0465,13.9614,1020.25
17078,0.253467,9.79914,0.0526064,1.96,-2.66,-0.42,-22.8271,-44.2401,16.0301,1020.25
17084,0.234338,9.86609,0.0382592,1.68,-2.73,-0.35,-22.5365,-46.2447,15.5572,1020.25
17090,0.267814,9.81827,0.023912,1.89,-2.66,-0.21,-23.1758,-47.5091,14.6854,1020.25
17096,0.277379,9.8374,0.0286944,1.82,-3.01,0.21,-21.9844,-44.4868,15.1583,1020.25
17102,0.267814,9.80392,0.0334768,1.96,-2.73,-0.14,-22.6527,-44.8877,15.6311,1020.25
17108,0.25825,9.81349,0.071736,1.89,-2.8,-0.28,-22.9143,-48.1876,15.5868,1020.29
17114,0.248685,9.85174,0.023912,1.68,-2.66,0.07,-22.3041,-46.2138,15.9414,1020.29
17120,0.263032,9.83261,0.0430416,1.54,-2.8,0.35,-22.3912,-43.9934,15.7641,1020.24
17126,0.301291,9.86609,0.0286944,1.47,-2.24,0.14,-22.769,-47.5399,15.3799,1020.24
17132,0.291726,9.87087,0,1.4,-2.59,0.35,-22.8561,-47.2007,12.602,1020.24
17138,0.296509,9.82783,0.0526064,1.68,-2.31,-0.07,-22.3912,-43.8392,15.4833,1020.26
17144,0.25825,9.82305,0.047824,1.54,-2.31,-0.28,-22.9143,-46.1213,14.9071,1020.26
17150,0.25825,9.86609,0.0430416,1.33,-2.45,-0.21,-22.9143,-47.4782,15.439,1020.27
17156,0.253467,9.83261,0.0669536,1.68,-2.38,-0.21,-22.1878,-45.0727,15.8675,1020.27
17162,0.267814,9.82783,0.047824,1.68,-2.73,-0.35,-22.4493,-44.7335,16.8132,1020.24
17168,0.267814,9.85174,0.0621712,1.61,-2.73,0.07,-23.2339,-47.3857,16.7985,1020.24
17174,0.248685,9.76566,0.124342,1.54,-2.17,-0.56,-22.0426,-45.6895,15.2469,1020.24
17180,0.224773,9.81827,0.0765184,1.75,-2.45,0.07,-22.7109,-44.4868,16.5177,1020.24
17186,0.253467,9.78957,0.0621712,1.75,-2.87,-0.07,-22.4493,-46.9231,15.1435,1020.24
17192,0.253467,9.84218,0.023912,1.89,-3.01,-0.35,-22.1297,-47.5399,15.1287,1020.29
17198,0.23912,9.79436,0.0095648,1.47,-2.73,-0.21,-22.3041,-44.1167,16.0596,1020.29
17204,0.253467,9.84696,0.0286944,1.4,-2.45,0,-22.5075,-46.954,16.4881,1020.25
17210,0.263032,9.85174,0.0286944,1.68,-2.8,-0.35,-22.3912,-47.5708,15.4833,1020.25
17216,0.286944,9.82305,0.0813008,0.84,-2.66,-0.07,-22.3331,-44.9494,15.1435,1020.26
17222,0.234338,9.73697,0.129125,1.96,-2.66,0.35,-21.9263,-45.9671,16.7689,1020.26
17228,0.215208,9.8374,0.071736,2.03,-3.22,0.07,-22.6527,-47.4782,14.9514,1020.28
17234,0.33955,9.86131,0,1.19,-2.87,0.35,-22.5946,-45.9979,15.7641,1020.28
17240,0.277379,9.84696,0.0286944,1.54,-2.73,0,-22.0426,-44.1784,16.7837,1020.24
17246,0.25825,9.88044,-0.0191296,1.61,-2.59,-0.21,-22.798,-47.4782,15.3208,1020.24
17252,0.282162,9.82783,0,1.47,-2.59,-0.42,-22.9143,-47.8175,16.5029,1020.24
17258,0.248685,9.83261,0.0047824,1.54,-2.87,-0.7,-22.7109,-44.055,15.9119,1020.23
17264,0.315638,9.8374,0.124342,1.4,-2.94,-0.91,-22.0135,-46.368,16.0449,1020.23
17270,0.267814,9.74175,0.11956,1.75,-2.8,-0.56,-23.3501,-48.1259,14.848,1020.25
17276,0.205643,9.86609,0.071736,1.47,-3.08,-0.77,-22.246,-44.9185,15.6163,1020.25
17282,0.277379,9.85174,0.0095648,1.4,-2.45,-0.7,-22.5365,-45.4428,16.3404,1020.25
17288,0.286944,9.84218,0.0669536,1.61,-2.45,-0.63,-22.2169,-48.2492,14.582,1020.25
17294,0.229555,9.81827,0.0621712,1.05,-2.8,-0.84,-22.2169,-45.0419,14.7298,1020.22
17300,0.234338,9.82783,0.124342,1.54,-2.52,-0.35,-21.7229,-43.7466,16.8871,1020.22
17306,0.234338,9.84218,0.0430416,1.68,-2.73,-0.77,-22.5656,-46.3372,14.7593,1020.22
17312,0.267814,9.80392,0.0669536,1.33,-2.94,-0.49,-22.6527,-46.3063,14.4342,1020.25
17318,0.23912,9.83261,0.0860832,1.61,-2.87,-0.35,-22.4203,-44.3634,15.8084,1020.25
17324,0.23912,9.84218,0.047824,1.19,-2.66,-0.63,-22.3912,-45.8129,15.0844,1020.25
17330,0.248685,9.85653,0.0382592,1.47,-2.38,-0.63,-22.8852,-47.4166,14.8923,1020.25
17336,0.229555,9.8087,0.0813008,1.05,-2.73,-0.14,-22.3041,-44.9494,15.5868,1020.23
17342,0.267814,9.85174,0.023912,1.82,-2.87,-0.14,-22.4493,-45.0727,15.1139,1020.23
17348,0.286944,9.8087,0.023912,1.19,-2.66,-0.28,-22.5365,-47.7866,14.5672,1020.25
17354,0.253467,9.85653,0.0669536,1.05,-2.45,-0.84,-23.292,-46.183,14.3456,1020.25
17360,0.277379,9.81827,0.10043,1.26,-2.59,-0.42,-22.1297,-44.4251,14.6263,1020.25
17366,0.291726,9.82783,-0.0047824,1.61,-2.31,-1.12,-22.0716,-46.7689,15.6902,1020.24
17372,0.248685,9.85653,0.047824,1.54,-2.94,-0.56,-22.3912,-46.5222,14.848,1020.24
17378,0.277379,9.84218,0.0047824,1.4,-2.31,-0.14,-22.3331,-43.7775,15.6607,1020.23
17384,0.229555,9.84218,0.047824,1.4,-2.45,-0.7,-22.769,-45.6895,16.0892,1020.23
17390,0.229555,9.79436,0.105213,1.33,-2.87,-1.05,-22.6818,-47.3857,14.715,1020.25
17396,0.210426,9.81827,0.0621712,1.82,-2.45,-0.77,-22.5365,-45.1961,16.3108,1020.25
17402,0.25825,9.83261,0.071736,1.33,-2.45,-0.28,-22.3041,-44.2092,15.8971,1020.23
17408,0.224773,9.79914,0.11956,1.33,-2.73,-0.77,-22.9143,-48.095,14.3603,1020.23
17414,0.234338,9.82305,0.0669536,1.33,-2.52,-0.42,-22.2169,-46.368,14.6854,1020.24
17420,0.234338,9.82783,0.0765184,1.26,-2.45,0.14,-21.8392,-44.2092,16.429,1020.24
17426,0.23912,9.80392,0.047824,1.68,-2.1,-0.42,-22.5075,-46.6456,16.4881,1020.24
17432,0.229555,9.85653,0.0765184,1.4,-2.45,-0.21,-22.8852,-46.7073,14.0205,1020.24
17438,0.248685,9.81827,0.0526064,1.89,-2.66,-0.35,-21.4614,-44.8569,15.0992,1020.24
17444,0.277379,9.84696,-0.0191296,1.54,-2.38,-0.56,-22.5075,-45.6895,15.1139,1020.25
17450,0.286944,9.87087,-0.0095648,1.47,-2.45,-0.49,-22.7109,-47.6324,13.9466,1020.25
17456,0.23912,9.8087,0.114778,1.19,-1.89,-0.7,-22.4784,-45.1653,16.3404,1020.24
17462,0.253467,9.77523,0.109995,1.54,-1.96,-0.49,-22.0426,-44.7952,16.4881,1020.24
17468,0.272597,9.81349,0.0573888,1.54,-2.66,-0.63,-21.9844,-47.3857,14.7741,1020.23
17474,0.248685,9.84696,0.023912,1.33,-2.17,-0.35,-22.3331,-46.6456,15.2174,1020.23
17480,0.243902,9.81827,0.0669536,1.12,-2.17,-0.49,-22.1588,-44.5485,15.9119,1020.23
17486,0.229555,9.84218,0.0813008,1.26,-2.66,-0.56,-22.3331,-46.6456,15.1139,1020.23
17492,0.253467,9.78001,0.0621712,1.68,-3.01,-0.91,-22.8852,-46.7689,14.8332,1020.23
17498,0.229555,9.86131,0.0765184,1.61,-2.45,-0.63,-22.7399,-44.3326,16.0744,1020.25
17504,0.25825,9.8087,0.0573888,1.54,-2.59,-0.84,-21.5776,-45.7204,16.4881,1020.25
17510,0.21999,9.87566,0.023912,1.4,-2.31,-0.49,-22.9724,-47.9717,14.2421,1020.24
17516,0.21999,9.81349,0.0813008,1.4,-2.52,-0.56,-21.8682,-45.1653,16.3699,1020.24
17522,0.200861,9.82305,0.071736,1.54,-2.59,-0.14,-21.8973,-44.1476,15.4981,1020.26
17528,0.205643,9.84696,0.0621712,1.33,-2.24,0.07,-22.6527,-47.4782,15.8971,1020.26
17534,0.229555,9.84696,0.0860832,1.33,-2.59,-0.42,-21.9844,-45.9979,16.3256,1020.26
17540,0.229555,9.83261,0.0908656,1.75,-2.73,-0.35,-21.9263,-44.2092,15.6754,1020.24
17546,0.25825,9.82783,0.0860832,1.47,-2.31,0.28,-22.9143,-47.6016,16.6802,1020.24
17552,0.243902,9.82305,0.047824,1.61,-2.1,-0.63,-22.3041,-47.1082,15.705,1020.27
17558,0.267814,9.87087,0.105213,1.4,-2.52,-0.7,-22.5075,-43.9934,15.2322,1020.27
17564,0.277379,9.88522,0.023912,1.61,-2.8,-0.21,-22.246,-45.8129,16.4734,1020.24
17570,0.267814,9.83261,0.0382592,1.54,-2.52,-0.98,-22.4493,-47.0157,14.7593,1020.24
17576,0.267814,9.79914,0.109995,1.4,-2.73,-0.77,-22.4493,-45.1653,16.2813,1020.25
17582,0.286944,9.80392,0.0669536,1.96,-2.8,-1.12,-22.275,-44.2709,16.1187,1020.25
17588,0.282162,9.88044,-0.0191296,1.54,-2.94,-1.26,-22.246,-47.9408,14.7002,1020.22
17594,0.277379,9.87087,-0.047824,1.61,-2.59,-1.19,-22.6818,-45.7821,15.3208,1020.22
17600,0.23912,9.8374,0.109995,1.19,-2.31,-1.61,-22.8271,-44.1784,16.2665,1020.22
17606,0.23912,9.83261,0.071736,1.61,-2.38,-1.82,-23.1467,-47.5399,15.0105,1020.22
17612,0.215208,9.87566,0.0669536,1.82,-2.66,-1.61,-22.8271,-47.7866,15.1287,1020.22
17618,0.215208,9.81349,0.071736,1.96,-2.38,-1.68,-21.781,-44.5485,15.8528,1020.24
17624,0.21999,9.8087,0.13869,1.75,-2.66,-1.89,-22.1007,-46.2138,15.6311,1020.24
17630,0.205643,9.80392,0.10043,2.38,-2.66,-1.82,-22.1588,-48.1259,14.2569,1020.24
17636,0.176949,9.85174,0.10043,2.59,-2.59,-1.89,-21.8101,-44.6718,15.0696,1020.24
17642,0.210426,9.85174,0.0382592,2.03,-2.52,-1.54,-21.1418,-44.7643,16.429,1020.23
17648,0.210426,9.8374,0.0430416,2.31,-2.24,-1.75,-22.275,-48.3109,15.3651,1020.23
17654,0.267814,9.82305,0.0095648,1.96,-2.1,-1.89,-22.5365,-46.2138,15.4095,1020.23
17660,0.272597,9.85653,0.047824,2.1,-2.1,-2.1,-22.3622,-43.9317,16.0892,1020.25
17666,0.196078,9.82305,0.0765184,1.75,-2.17,-1.75,-22.1007,-46.8615,15.6163,1020.25
17672,0.243902,9.85653,0.0191296,2.1,-2.24,-2.31,-21.8973,-46.8615,14.8775,1020.23
17678,0.329986,9.93783,-0.0382592,2.1,-2.45,-3.08,-22.4203,-44.6718,15.6459,1020.23
17684,0.329986,9.91392,-0.153037,1.75,-1.75,-2.66,-21.9844,-45.3503,15.173,1020.25
17690,0.205643,9.88044,0.0621712,0.84,-1.33,-3.29,-22.5365,-48.0334,15.4686,1020.25
17696,0.191296,9.78957,0.124342,1.75,-1.75,-3.08,-21.3452,-44.1167,15.0844,1020.26
17702,0.124342,9.84696,0.047824,2.17,-2.45,-3.08,-21.6648,-44.4559,16.1926,1020.26
17708,0.248685,9.84696,0.023912,1.61,-2.1,-2.87,-22.1297,-47.3549,13.6806,1020.24
17714,0.172166,9.77523,0.0908656,2.52,-2.45,-3.15,-22.3331,-46.3372,14.6411,1020.24
17720,0.162602,9.85653,0.0143472,2.73,-2.1,-2.87,-22.1007,-43.8083,15.439,1020.24
17726,0.157819,9.88044,-0.0191296,2.17,-2.31,-3.5,-22.1007,-47.2007,14.7889,1020.26
17732,0.181731,9.84218,0.0382592,2.17,-2.03,-3.29,-22.0426,-48.095,13.6806,1020.26
17738,0.148254,9.82783,0.0621712,2.1,-1.68,-2.94,-21.4324,-44.8569,16.6507,1020.26
17744,0.148254,9.8374,0.071736,2.31,-1.82,-2.59,-21.752,-45.9054,15.173,1020.26
17750,0.11956,9.77523,0.10043,1.82,-1.75,-2.87,-22.6527,-47.91,14.6411,1020.25
17756,0.105213,9.79914,0.0908656,2.1,-2.38,-2.45,-21.781,-44.5176,16.0153,1020.25
17762,0.129125,9.81827,0.0669536,2.17,-2.31,-2.45,-22.3912,-44.641,15.9119,1020.26
17768,0.124342,9.79436,0.071736,2.17,-1.82,-1.96,-22.3622,-47.5708,14.8627,1020.26
17774,0.124342,9.79436,0.0813008,2.24,-1.96,-2.24,-21.781,-46.0288,14.4342,1020.26
17780,0.176949,9.83261,0.0191296,2.66,-2.45,-2.31,-21.229,-43.9625,15.6163,1020.26
17786,0.162602,9.91392,-0.0191296,1.96,-1.75,-2.17,-22.1588,-47.4166,14.7593,1020.26
17792,0.162602,9.85653,-0.0191296,1.89,-1.89,-2.38,-21.6067,-46.9848,14.5524,1020.25
17798,0.0860832,9.81827,0.047824,1.82,-1.82,-2.03,-21.3452,-44.2401,17.094,1020.25
17804,0.200861,9.78957,0.0382592,1.96,-1.96,-2.31,-21.3161,-46.0288,15.1583,1020.26
17810,0.157819,9.87566,-0.0334768,1.75,-1.54,-2.45,-21.752,-48.1567,14.0648,1020.26
17816,0.186514,9.85174,-0.0095648,1.4,-1.19,-2.59,-21.9554,-44.7952,16.5029,1020.24
17822,0.114778,9.8087,0.0669536,1.54,-1.05,-2.17,-21.5486,-44.641,16.1335,1020.24
17828,0.0621712,9.79436,0.0860832,1.68,-1.26,-2.1,-21.3161,-47.9408,14.5672,1020.24
17834,0.10043,9.78001,0.13869,1.96,-1.89,-2.03,-21.2871,-46.4297,15.6163,1020.24
17840,0.0669536,9.74653,0.176949,2.17,-2.31,-2.03,-21.8101,-44.3634,15.838,1020.24
17846,0.162602,9.77044,0.129125,2.94,-2.17,-2.45,-21.5486,-47.1082,14.9218,1020.25
17852,0.148254,9.9187,-0.0382592,2.38,-1.33,-2.38,-21.7229,-48.2801,13.06,1020.25
17858,0.0813008,9.89,0,2.17,-1.96,-2.31,-21.1418,-44.5485,16.6802,1020.23
17864,0.0621712,9.8374,0.0286944,2.1,-2.45,-2.1,-20.8512,-45.7821,16.3847,1020.23
17870,0.0860832,9.84696,0.0047824,2.52,-2.17,-2.45,-20.9965,-47.3857,14.7002,1020.21
17876,0.0908656,9.82305,0.0860832,2.17,-1.89,-2.31,-21.8101,-45.1961,15.572,1020.21
17882,0.133907,9.77523,0.129125,2.31,-2.03,-2.03,-21.1127,-44.8569,16.0301,1020.21
17888,0.0765184,9.81349,0.095648,2.66,-2.03,-1.89,-20.9965,-47.5399,15.8084,1020.21
17894,0.129125,9.90913,-0.0382592,2.45,-2.31,-2.66,-20.9675,-46.2138,14.7445,1020.21
17900,0.133907,9.89479,-0.0765184,2.17,-1.96,-2.1,-20.8222,-44.0242,16.0596,1020.21
17906,0.143472,9.88044,0.0095648,1.96,-2.17,-2.45,-21.4324,-46.6147,15.4095,1020.21
17912,0.10043,9.86609,0.0334768,2.24,-1.75,-2.31,-20.9675,-47.2315,14.4786,1020.26
17918,0.0765184,9.8374,0.0669536,1.89,-1.89,-2.24,-20.8222,-43.9317,14.9071,1020.26
17924,0.0813008,9.81349,0.047824,2.59,-2.38,-2.45,-21.781,-45.6587,15.439,1020.23
17930,0.0860832,9.86131,0.0382592,2.03,-1.96,-2.24,-21.8682,-47.9717,15.0992,1020.23
17936,0.10043,9.84696,0.0860832,2.45,-1.82,-2.24,-21.4905,-45.1961,14.715,1020.2
17942,0.0765184,9.87087,0.023912,2.31,-2.24,-2.31,-21.752,-44.3018,14.7298,1020.2
17948,0.0813008,9.8374,0,1.68,-2.03,-2.52,-22.1878,-47.4166,15.1435,1020.2
17954,0.0430416,9.81827,0.0908656,2.03,-2.59,-2.17,-21.1418,-46.4297,15.0401,1020.23
17960,0.023912,9.77044,0.153037,1.82,-2.94,-1.75,-20.8222,-44.5793,15.3947,1020.23
17966,0.0286944,9.73697,0.133907,2.66,-2.8,-2.45,-21.6067,-46.6147,15.971,1020.24
17972,0.11956,9.82305,0.047824,2.59,-2.73,-2.38,-22.0426,-48.2184,15.0105,1020.24
17978,0.172166,10.0383,-0.215208,2.03,-2.38,-2.59,-21.229,-44.7643,15.3799,1020.28
17984,0.0908656,9.96652,-0.105213,1.05,-2.03,-2.94,-21.1418,-45.6895,15.0548,1020.28
17990,0.0621712,9.78479,0.124342,1.05,-2.45,-2.66,-21.8101,-48.0025,14.4342,1020.26
17996,0.0095648,9.81827,0.023912,1.19,-2.03,-1.82,-20.9965,-45.4737,13.3851,1020.26
18002,0.0430416,9.86609,-0.0286944,1.47,-2.52,-2.17,-21.258,-45.3195,14.9957,1020.26
18008,0.0621712,9.81349,0.0047824,0.77,-2.1,-2.03,-21.2871,-47.8175,14.2274,1020.27
18014,-0.0095648,9.77523,0.0765184,1.19,-2.17,-1.61,-21.9554,-45.9671,14.2274,1020.27
18020,0.0526064,9.8087,0.071736,0.63,-1.75,-1.89,-21.4324,-43.9317,14.7889,1020.23
18026,0.0047824,9.81349,0.023912,0.84,-2.03,-1.75,-21.6939,-45.6279,14.316,1020.23
18032,-0.0382592,9.77044,0.0526064,0.28,-1.61,-1.61,-21.8682,-47.4782,14.1239,1020.24
18038,-0.0191296,9.76088,0.0765184,0.84,-1.82,-1.47,-21.1999,-45.0419,15.439,1020.24
18044,-0.047824,9.7561,0.148254,0.7,-1.82,-1.12,-20.9675,-45.3811,15.9562,1020.27
18050,-0.10043,9.72262,0.172166,1.12,-2.24,-0.77,-21.5195,-47.6016,13.5624,1020.27
18056,0,9.78479,0.0813008,1.19,-2.66,-0.28,-21.8682,-45.8746,14.6411,1020.25
18062,0.0095648,9.78001,0.047824,1.4,-2.45,0.07,-21.0256,-44.3943,16.2517,1020.25
18068,0.0095648,9.77523,0.143472,1.05,-1.75,-0.28,-21.0837,-46.9848,13.8579,1020.25
18074,0.0430416,9.69871,0.205643,1.47,-1.89,-0.35,-21.7229,-47.3857,15.2765,1020.25
18080,0.0669536,9.79914,0.0526064,1.75,-2.38,-0.07,-21.3742,-44.6718,16.4586,1020.25
18086,0.023912,9.91392,-0.0382592,1.82,-2.87,-0.21,-21.3742,-46.8306,14.9071,1020.22
18092,0.0047824,9.85653,0.0095648,1.4,-2.59,-0.49,-21.4033,-47.8792,15.838,1020.22
18098,-0.0191296,9.80392,0.0573888,1.61,-2.38,-0.07,-20.4735,-44.9802,14.7445,1020.24
18104,0.0143472,9.78957,0.095648,1.61,-2.59,0.14,-21.4033,-45.1344,15.7198,1020.24
18110,0.0382592,9.77523,0.129125,2.31,-2.66,-0.35,-21.0837,-47.6941,13.2964,1020.24
18116,-0.0191296,9.84696,0,1.61,-2.45,0.07,-21.6648,-45.3195,14.9071,1020.24
18122,-0.0430416,9.77523,0.10043,1.47,-2.1,0.35,-20.9384,-45.2578,14.7741,1020.24
18128,-0.0095648,9.67958,0.200861,2.45,-2.73,0.77,-20.9384,-47.1698,13.9466,1020.26
18134,-0.0047824,9.85653,-0.0526064,1.75,-2.73,0.98,-21.5486,-47.1082,14.05,1020.26
18140,0.023912,9.78001,0.047824,1.12,-2.1,0.91,-21.3742,-44.641,16.2369,1020.23
18146,-0.0095648,9.78001,0.0334768,1.89,-2.24,0.91,-21.8973,-45.9671,15.1139,1020.23
18152,-0.0143472,9.89,-0.0382592,1.26,-2.1,1.47,-20.9093,-48.1567,14.5229,1020.23
18158,0.0047824,9.74175,0.133907,0.77,-1.89,1.68,-21.3452,-44.5485,14.6706,1020.23
18164,0.0095648,9.67958,0.224773,2.24,-2.03,1.4,-20.7931,-44.9802,16.2369,1020.23
18170,0.133907,9.85653,0,2.1,-2.52,1.33,-20.735,-48.8969,14.8036,1020.23
18176,0.0860832,9.91392,-0.0430416,1.61,-2.03,1.47,-21.5776,-45.9979,15.7789,1020.23
18182,0.095648,9.92826,-0.0765184,1.47,-2.1,0.7,-20.2991,-44.8569,15.8528,1020.24
18188,0.0813008,9.98087,-0.071736,1.26,-2.24,0.77,-21.1418,-47.9717,15.4242,1020.24
18194,0.114778,9.90913,0,0.84,-2.87,0.56,-20.9965,-47.2932,15.971,1020.22
18200,0.0908656,9.84696,0.0191296,1.26,-2.66,0.35,-20.1539,-43.87,16.5473,1020.22
18206,0.0765184,9.85174,0.0430416,1.82,-2.8,0,-21.3742,-47.0465,15.2026,1020.22
18212,0.047824,9.82305,-0.0191296,1.54,-2.66,0,-22.3912,-47.3549,15.1583,1020.22
18218,0.0669536,9.85174,0.0573888,1.75,-3.15,-0.21,-21.0837,-44.8877,15.306,1020.24
18224,0.0669536,9.80392,0.0526064,2.52,-3.15,-0.49,-20.9675,-45.3503,16.0005,1020.24
18230,0.0143472,9.8087,0.0430416,2.03,-3.15,0.14,-21.3161,-47.9717,15.2913,1020.23
18236,0.095648,9.86131,-0.0143472,2.31,-3.22,-0.14,-21.1709,-45.7204,14.8332,1020.23
18242,0.0573888,9.8374,-0.0143472,2.03,-2.8,-0.63,-20.7931,-44.4251,15.8971,1020.23
18248,0.023912,9.79436,0.023912,2.66,-3.36,-0.56,-21.8973,-48.4343,14.9514,1020.24
18254,0.0382592,9.84218,0.0430416,2.38,-3.15,-0.63,-21.4614,-46.7689,14.848,1020.24
18260,0.0621712,9.8374,0,1.96,-2.45,-0.35,-21.0256,-44.2092,13.5772,1020.26
18266,-0.0143472,9.77523,0.0765184,2.31,-2.87,-0.14,-21.6067,-46.2447,15.2174,1020.26
18272,0.0860832,9.82783,0.047824,2.45,-3.64,-0.7,-20.7931,-47.8483,14.3012,1020.26
18278,0.0669536,9.8374,-0.047824,2.1,-3.29,-0.56,-21.7229,-45.6279,15.3651,1020.26
18284,0.0430416,9.82305,0.0573888,1.68,-2.87,-0.7,-20.9675,-45.0419,16.104,1020.24
18290,0.0430416,9.78001,0.0813008,1.68,-2.94,-0.56,-21.1127,-48.4034,14.2865,1020.24
18296,0.0382592,9.78957,0.047824,2.03,-3.08,-0.84,-21.0256,-45.597,15.2765,1020.24
18302,0.071736,9.8087,0.0286944,2.24,-3.01,-0.28,-20.8512,-44.7643,16.6802,1020.24
18308,0.0908656,9.92348,-0.0621712,2.24,-3.08,-0.98,-21.8682,-47.7558,14.7889,1020.24
18314,0.095648,9.87087,0.0382592,2.31,-3.08,-1.26,-21.4614,-47.4782,14.0944,1020.25
18320,0.047824,9.85174,0.0095648,2.24,-3.22,-1.33,-21.0546,-44.7643,14.9957,1020.25
18326,-0.0095648,9.84218,0.0095648,2.66,-3.78,-1.19,-21.0837,-46.4605,14.4786,1020.24
18332,0.047824,9.81349,0.0286944,3.22,-3.43,-1.54,-22.769,-47.5708,13.6067,1020.24
18338,0.023912,9.9187,-0.0813008,2.17,-3.36,-1.05,-21.6067,-44.0859,14.4194,1020.25
18344,0.0621712,9.74175,0.114778,1.82,-3.43,-0.98,-20.9384,-44.5485,15.3799,1020.25
18350,0.0095648,9.69871,0.148254,3.29,-3.29,-1.54,-21.1709,-48.1567,14.7445,1020.25
18356,-0.0286944,9.76566,0.109995,3.15,-3.92,-0.77,-21.1418,-45.7512,14.9514,1020.26
18362,0.0047824,9.82305,-0.023912,3.01,-3.5,-0.14,-20.9093,-44.4868,16.1483,1020.26
18368,0.0430416,9.83261,0.0191296,2.73,-2.94,-1.12,-21.2871,-47.0465,14.8627,1020.22
18374,0.0334768,9.81827,0.0143472,2.59,-3.01,-0.77,-21.0546,-46.7998,14.5081,1020.22
18380,-0.0047824,9.79914,0.047824,2.52,-3.15,-0.35,-21.4614,-43.7158,16.7689,1020.23
18386,0.0382592,9.79914,0.023912,2.59,-2.73,-0.7,-21.2871,-46.6764,14.9662,1020.23
18392,0.0191296,9.84218,0.023912,2.24,-2.87,-0.35,-21.8973,-48.095,14.3308,1020.23
18398,0.0573888,9.78001,0.0334768,2.87,-3.15,-0.98,-20.7059,-44.5176,15.3356,1020.23
18404,0.0573888,9.89,-0.0526064,2.94,-2.73,-0.91,-21.2871,-44.9185,16.8576,1020.25
18410,0.0286944,9.92826,-0.105213,2.03,-2.59,-0.56,-22.0135,-47.324,14.6559,1020.25
18416,-0.0047824,9.82783,0.0143472,1.82,-3.01,-1.19,-21.9263,-45.7512,16.1631,1020.25
18422,0.071736,9.89,0,1.96,-2.94,-1.47,-20.9384,-43.7158,15.7493,1020.27
18428,0.105213,9.94261,-0.0573888,1.54,-1.96,-0.91,-21.6067,-47.6016,14.0944,1020.27
18434,-0.0191296,9.79914,-0.0143472,1.47,-2.38,-1.26,-20.9384,-47.0465,14.2421,1020.26
18440,-0.0191296,9.78957,-0.0095648,2.94,-3.43,-1.82,-21.229,-44.6718,15.2765,1020.26
18446,0.023912,9.83261,0.0813008,2.94,-3.36,-1.54,-21.4033,-46.8923,15.2174,1020.25
18452,0.0286944,9.79914,0.0191296,3.08,-3.22,-1.12,-22.0716,-48.0642,13.6954,1020.25
18458,-0.0334768,9.81827,0.0526064,2.73,-3.5,-1.47,-20.7931,-45.597,15.838,1020.24
18464,0.0334768,9.80392,0.0430416,3.36,-3.22,-1.26,-21.1418,-45.597,15.7345,1020.24
18470,-0.0765184,9.81349,0.0621712,3.36,-3.01,-1.54,-21.5195,-47.7866,13.9023,1020.24
18476,-0.0286944,9.80392,0.0813008,3.71,-3.57,-1.26,-21.6067,-44.8569,15.4095,1020.23
18482,-0.0286944,9.85653,-0.0382592,3.43,-4.13,-0.21,-21.258,-43.9625,15.0401,1020.23
18488,0.0286944,9.82305,0.0334768,3.08,-3.71,-0.7,-21.1127,-47.139,14.6115,1020.22
18494,0.0143472,9.82305,-0.0047824,3.78,-3.71,-1.12,-20.8512,-47.0157,14.2126,1020.22
18500,-0.0047824,9.92826,-0.124342,3.36,-3.43,-0.98,-21.0256,-44.7027,16.2961,1020.25
18506,0.0286944,9.94261,-0.186514,2.38,-3.22,-1.26,-20.8222,-46.1521,16.4881,1020.25
18512,0.0334768,9.87566,-0.129125,2.1,-3.01,-1.33,-20.8222,-48.0025,15.8971,1020.26
18518,-0.047824,9.84218,-0.0143472,2.59,-3.01,-1.47,-20.6478,-44.9802,16.3995,1020.26
18524,0.0430416,9.85653,-0.0669536,2.45,-3.29,-1.75,-21.0256,-44.7643,15.705,1020.24
18530,0.0191296,9.87566,-0.0860832,2.31,-3.36,-1.4,-21.5195,-47.6941,15.5129,1020.24
18536,0,9.81827,0,2.45,-3.71,-2.03,-20.9675,-46.0596,14.6854,1020.24
18542,-0.0047824,9.79436,0,2.8,-3.36,-1.68,-21.2871,-44.4868,15.4981,1020.25
18548,-0.0334768,9.81827,0.0430416,2.73,-3.64,-1.75,-20.735,-46.9231,14.3012,1020.25
18554,-0.0286944,9.78001,0.0860832,2.73,-3.15,-1.68,-20.9093,-46.5531,13.9023,1020.25
18560,-0.0430416,9.84218,-0.0095648,3.78,-3.57,-1.61,-20.3863,-43.4691,16.429,1020.25
18566,-0.0095648,9.85174,-0.0430416,3.01,-3.29,-1.26,-20.6478,-47.0157,15.705,1020.23
18572,0.0047824,9.8374,0.047824,3.22,-3.15,-1.61,-21.3742,-48.2492,15.3651,1020.23
18578,-0.0191296,9.78001,0.0334768,3.22,-3.43,-2.03,-20.241,-45.3503,14.6559,1020.28
18584,-0.0430416,9.83261,-0.0573888,3.5,-3.5,-1.75,-21.4614,-45.5045,15.8823,1020.28
18590,-0.0430416,9.8374,-0.0191296,3.22,-3.36,-1.75,-21.3452,-47.6633,14.9514,1020.28
18596,-0.0334768,9.78479,-0.0286944,3.36,-2.87,-1.47,-21.4614,-46.3063,14.0944,1020.25
18602,-0.0430416,9.85174,-0.0191296,3.15,-3.15,-1.96,-20.9965,-44.6101,16.3552,1020.25
18608,0,9.89,-0.0813008,2.94,-3.01,-1.82,-20.7641,-46.2138,14.4194,1020.27
18614,0.0095648,9.87087,-0.0860832,2.1,-2.31,-1.82,-20.6478,-46.5222,14.2274,1020.27
18620,0.0430416,9.87087,-0.129125,2.73,-2.87,-1.82,-21.1709,-43.6233,16.9314,1020.24
18626,-0.023912,9.94261,-0.143472,2.94,-3.71,-2.66,-21.258,-46.4297,15.4981,1020.24
18632,0.0095648,10.0239,-0.253467,2.31,-3.57,-2.94,-21.5776,-48.0334,13.6659,1020.23
18638,0.023912,10.0048,-0.191296,2.31,-3.85,-3.01,-21.4033,-45.3503,14.8923,1020.23
18644,-0.0286944,9.98565,-0.224773,1.61,-3.64,-3.57,-20.7931,-45.5045,16.3995,1020.23
18650,-0.0430416,9.9187,-0.0860832,0.7,-3.78,-3.57,-20.6188,-47.8483,14.449,1020.23
18656,-0.0047824,9.73697,0.0430416,1.68,-3.71,-4.2,-20.735,-45.9979,14.5081,1020.23
18662,-0.0573888,9.71305,0.10043,1.75,-3.36,-3.71,-21.4033,-44.4251,15.7937,1020.24
18668,-0.0765184,9.5935,0.105213,2.17,-2.59,-3.92,-20.8512,-47.1698,14.9662,1020.24
18674,-0.0908656,9.5935,0.124342,2.94,-2.73,-3.57,-21.0256,-47.2624,14.981,1020.24
18680,-0.11956,9.68436,0.023912,3.22,-2.8,-3.5,-21.0546,-44.1167,13.9171,1020.24
18686,-0.167384,9.52176,0.215208,3.71,-2.87,-2.87,-20.7931,-46.3063,16.1926,1020.27
18692,-0.133907,9.49306,0.191296,4.9,-2.94,-2.31,-21.0546,-47.8175,15.3799,1020.27
18698,-0.13869,9.67001,0.253467,5.74,-3.78,-1.96,-20.4735,-45.7204,16.429,1020.25
18704,-0.0334768,9.54567,0.200861,6.3,-2.59,-2.03,-21.4033,-45.7512,16.7246,1020.25
18710,-0.186514,9.55045,0.181731,7.21,-2.45,-1.26,-21.2871,-48.095,14.4047,1020.25
18716,-0.143472,9.67958,0.0573888,7.91,-3.01,-1.33,-21.5486,-46.6147,14.2274,1020.22
18722,-0.0430416,9.77044,0.0191296,7.49,-2.87,-0.91,-20.241,-44.3018,16.8576,1020.22
18728,-0.0334768,9.80392,-0.0191296,7.77,-2.87,-1.4,-21.5486,-47.4782,14.8036,1020.23
18734,0.0047824,10.0048,-0.196078,8.05,-2.87,-2.17,-20.9093,-47.2932,14.2569,1020.23
18740,-0.0095648,10.1865,-0.425634,7.07,-3.99,-2.73,-20.5025,-43.8083,16.562,1020.24
18746,0.143472,10.1769,-0.463893,4.97,-3.57,-3.5,-20.7059,-46.2755,16.0892,1020.24
18752,0.0813008,9.96652,-0.23912,4.76,-2.24,-3.78,-21.0546,-46.8306,14.8332,1020.24
18758,-0.095648,9.84696,-0.0334768,4.76,-2.52,-4.13,-20.3863,-45.0419,14.4638,1020.24
18764,-0.095648,9.79914,0.105213,5.95,-3.01,-3.99,-20.5025,-44.9802,16.6802,1020.24
18770,-0.023912,9.84218,-0.0573888,6.09,-2.59,-4.55,-20.9093,-48.0025,14.8332,1020.25
18776,-0.047824,9.88522,-0.0573888,6.37,-2.31,-4.55,-20.735,-46.5839,16.0153,1020.25
18782,-0.0334768,9.79914,0.023912,7,-2.17,-5.25,-20.6478,-44.3018,17.0644,1020.23
18788,-0.0621712,9.79914,0.0286944,7.84,-1.82,-5.25,-20.3863,-46.8615,16.2961,1020.23
18794,-0.095648,9.81349,0,7.91,-1.33,-5.11,-20.8803,-46.9848,15.9266,1020.25
18800,-0.162602,9.85174,-0.172166,7.84,-1.33,-5.39,-21.1999,-43.8083,16.3995,1020.25
18806,-0.215208,9.92826,-0.329986,7.35,-1.47,-5.39,-20.4735,-45.6587,16.3847,1020.24
18812,-0.143472,10.067,-0.425634,6.37,-1.89,-5.88,-20.241,-47.6016,15.971,1020.24
18818,-0.0573888,10.0765,-0.435198,5.32,-1.68,-5.88,-20.212,-45.412,16.6359,1020.24
18824,-0.0095648,10.1961,-0.506934,4.48,-1.33,-6.65,-20.5607,-45.1653,17.1383,1020.27
18830,0.023912,10.2582,-0.439981,2.66,-0.63,-7.63,-21.229,-47.5091,15.8084,1020.27
18836,0.095648,10.2678,-0.349115,2.31,-0.91,-8.96,-20.7641,-45.8129,16.8871,1020.23
18842,0.191296,10.2917,-0.325203,2.03,-0.7,-10.29,-20.9675,-44.1476,16.2517,1020.23
18848,0.21999,10.483,-0.353898,1.68,0.21,-12.39,-21.4905,-47.3857,14.9662,1020.23
18854,0.286944,10.483,-0.25825,1.96,0.42,-14.91,-20.9384,-46.7381,16.7689,1020.23
18860,0.296509,10.4639,-0.133907,3.29,1.33,-16.66,-19.9795,-44.5176,16.828,1020.24
18866,0.25825,10.4065,-0.0334768,4.27,1.82,-19.04,-20.0958,-45.2886,15.9266,1020.24
18872,0.153037,10.4591,-0.071736,5.53,1.89,-20.58,-20.4154,-48.1876,14.3751,1020.23
18878,0.124342,10.4208,-0.105213,6.16,2.87,-22.4,-18.9916,-45.1961,16.6064,1020.23
18884,0.0143472,10.2343,0.0526064,7.56,3.36,-23.87,-19.689,-44.0859,17.1974,1020.23
18890,-0.0765184,10.1052,0.047824,9.03,3.5,-24.99,-20.0958,-47.2932,15.838,1020.26
18896,-0.162602,10.1722,0.0286944,10.29,3.29,-26.11,-19.7471,-46.7689,15.9119,1020.26
18902,-0.124342,10.2104,-0.071736,10.99,3.43,-26.81,-19.689,-43.87,17.685,1020.24
18908,-0.282162,10.1004,-0.167384,10.99,3.29,-27.44,-19.2531,-46.8923,15.705,1020.24
18914,-0.35868,10.0143,-0.172166,12.25,2.52,-28.35,-19.718,-47.0157,16.6211,1020.21
18920,-0.392157,10,-0.301291,12.04,2.94,-28.63,-19.1659,-44.6101,17.2713,1020.21
18926,-0.392157,10.0622,-0.444763,10.78,3.15,-29.33,-18.9916,-45.7204,16.7837,1020.26
18932,-0.511717,9.98565,-0.33955,11.76,1.82,-29.05,-19.5437,-47.9408,16.2074,1020.26
18938,-0.47824,10.0956,-0.401722,11.55,0.42,-30.24,-18.6429,-45.4428,16.695,1020.26
18944,-0.416069,10.0574,-0.492587,10.64,1.19,-30.1,-18.4105,-44.8877,17.0349,1020.26
18950,-0.487805,10.0622,-0.392157,9.59,0.7,-30.87,-18.0618,-48.496,15.4095,1020.26
18956,-0.502152,10.2056,-0.45911,8.96,0.07,-31.92,-18.701,-47.5399,15.9414,1020.26
18962,-0.425634,10.1435,-0.506934,8.89,-0.35,-33.04,-17.9165,-45.3811,17.1383,1020.26
18968,-0.516499,10.1769,-0.473458,8.33,0,-33.81,-18.0037,-48.4034,16.5177,1020.25
18974,-0.569106,10.0765,-0.506934,7.77,-0.21,-34.58,-18.701,-48.8044,15.0548,1020.25
18980,-0.636059,10.0574,-0.439981,7.28,-0.42,-35.49,-18.0037,-45.3811,17.5964,1020.25
18986,-0.69823,10.0813,-0.416069,6.72,-0.77,-36.54,-17.4516,-46.9231,17.8032,1020.25
18992,-0.851267,10.1004,-0.411286,5.67,-1.68,-36.96,-17.5097,-49.0819,16.2222,1020.25
18998,-0.832138,9.76566,-0.49737,5.04,-1.05,-36.61,-17.5388,-45.9979,17.1826,1020.24
19004,-1.07604,9.72262,-0.325203,5.95,-1.4,-36.61,-17.4225,-45.597,18.3795,1020.24
19010,-1.09995,9.58393,-0.272597,5.39,-2.73,-36.19,-16.7252,-48.5885,16.5916,1020.24
19016,-1.12865,9.58871,-0.349115,6.72,-2.45,-35.28,-17.1029,-47.7558,17.0792,1020.24
19022,-1.12386,9.65088,-0.487805,6.02,-3.29,-35.14,-16.8414,-45.9054,17.8624,1020.23
19028,-1.07126,9.74175,-0.468675,5.6,-3.92,-34.79,-15.8825,-48.4343,17.4929,1020.23
19034,-1.12386,9.81827,-0.296509,5.39,-5.04,-34.79,-16.4637,-49.7295,16.9758,1020.27
19040,-0.999522,9.73697,-0.320421,4.55,-5.18,-35,-15.7372,-47.2315,17.9658,1020.27
19046,-1.13821,9.82783,-0.664754,3.57,-4.06,-35,-15.4176,-48.2184,18.5716,1020.22
19052,-1.31994,9.98565,-0.879962,2.03,-4.55,-34.72,-14.604,-50.2847,16.961,1020.22
19058,-1.24821,9.83261,-0.707795,1.12,-4.9,-35.42,-15.5338,-47.0773,18.2761,1020.22
19064,-1.39168,9.66523,-0.272597,0.84,-6.09,-35.42,-15.2142,-46.4297,17.685,1020.22
19070,-1.32472,9.55523,-0.263032,1.26,-5.95,-34.58,-14.8365,-49.6062,16.6655,1020.22
19076,-1.40603,9.5935,-0.263032,1.26,-6.37,-33.67,-15.9987,-48.3109,16.2517,1020.24
19082,-1.3869,9.61741,-0.105213,1.82,-7.35,-33.74,-15.0108,-46.4914,18.5421,1020.24
19088,-1.3582,9.4835,-0.148254,2.73,-6.86,-33.88,-14.2553,-49.0202,16.6211,1020.24
19094,-1.35342,9.56958,-0.133907,5.18,-6.72,-34.02,-15.1561,-49.9454,16.7689,1020.24
19100,-1.4395,9.84696,-0.329986,4.97,-7.21,-33.95,-14.4878,-46.8306,18.35,1020.23
19106,-1.36298,9.78001,-0.373027,5.46,-7.91,-34.86,-14.0519,-48.2492,16.9019,1020.23
19112,-1.40603,10.0287,-0.315638,5.04,-7.56,-35.07,-13.5289,-49.9763,16.3108,1020.23
19118,-1.34864,10.0287,-0.33955,4.9,-7.84,-36.26,-14.081,-47.7558,17.5964,1020.22
19124,-1.44907,10.0813,-0.549976,5.67,-7.63,-37.8,-13.4417,-47.6941,18.3204,1020.22
19130,-1.55906,10.1435,-0.540411,4.83,-8.82,-38.85,-12.8897,-49.6679,16.9905,1020.23
19136,-1.5208,10.2535,-0.487805,4.97,-9.66,-39.83,-12.57,-48.095,16.2961,1020.23
19142,-1.47298,10.2965,-0.449546,4.48,-10.78,-41.44,-12.6863,-47.4474,17.5816,1020.22
19148,-1.46341,10.0861,-0.473458,3.99,-10.85,-42.98,-12.4538,-50.3463,17.1531,1020.22
19154,-1.41081,9.92826,-0.387374,4.27,-10.29,-44.17,-12.3666,-50.8706,16.5768,1020.24
19160,-1.65471,9.99043,-0.243902,6.16,-9.45,-45.64,-12.0761,-47.5708,17.5373,1020.24
19166,-1.6834,10.0287,-0.205643,6.93,-11.55,-46.62,-12.7734,-49.0819,17.0349,1020.24
19172,-1.60689,10.3443,-0.387374,8.61,-12.32,-48.79,-11.7565,-51.2099,16.2665,1020.24
19178,-1.58776,10.4017,-0.483022,7.91,-12.25,-51.03,-11.4078,-48.1876,16.6211,1020.24
19184,-1.57819,10.4926,-0.530846,7.49,-12.6,-53.55,-11.4659,-48.4343,17.4191,1020.26
19190,-1.60689,10.5548,-0.535629,7.7,-13.44,-55.44,-10.0421,-50.5005,16.2813,1020.26
19196,-1.64036,10.7078,-0.769966,7.91,-14.42,-57.96,-11.2915,-50.6547,16.5177,1020.25
19202,-1.6834,10.8082,-0.707795,7.49,-15.47,-61.32,-10.0131,-48.4034,16.2813,1020.25
19208,-1.46341,10.7747,-0.45911,6.86,-16.17,-64.47,-10.0712,-49.7295,16.9758,1020.24
19214,-1.54472,10.856,-0.483022,7.42,-15.82,-68.25,-9.86777,-51.4257,16.695,1020.24
19220,-1.69297,10.7891,-0.69823,6.65,-16.94,-71.4,-9.86777,-48.496,17.6407,1020.25
19226,-1.71688,10.7174,-0.640842,6.44,-18.06,-74.06,-8.47304,-50.1613,18.8524,1020.25
19232,-1.74079,10.5548,-0.296509,6.72,-17.64,-77.49,-8.53116,-52.1042,17.685,1020.25
19238,-1.75992,10.813,-0.325203,8.05,-17.71,-81.55,-8.61833,-50.0071,17.227,1020.24
19244,-1.74558,11.0473,-0.373027,7.77,-18.48,-84.91,-7.427,-49.1744,18.1136,1020.24
19250,-1.66906,11.2004,-0.387374,8.54,-19.11,-89.39,-7.2236,-52.3818,17.3156,1020.25
19256,-1.6834,11.4156,-0.516499,7.77,-19.67,-94.64,-6.72964,-50.9631,18.0988,1020.25
19262,-1.6308,11.6069,-0.73649,7,-19.53,-99.61,-6.46813,-48.4651,18.808,1020.26
19268,-1.61645,11.6451,-0.73649,5.46,-19.46,-104.93,-5.59642,-51.3332,18.5125,1020.26
19274,-1.84122,11.7886,-0.320421,4.06,-19.18,-110.81,-5.45114,-52.1659,17.0053,1020.24
19280,-1.65471,12.0182,0.157819,6.3,-20.93,-117.11,-4.87,-48.866,18.0397,1020.24
19286,-1.24342,12.2382,-0.325203,8.61,-19.95,-123.97,-3.47528,-50.4697,17.6998,1020.24
19292,-1.73601,12.9555,-0.765184,5.81,-20.16,-131.11,-2.34206,-52.6285,16.9905,1020.24
19298,-1.72645,12.8216,-1.48254,3.01,-22.19,-140.07,-2.0515,-50.7781,18.5864,1020.24
19304,-1.37733,13.0703,-1.52559,-0.35,-19.39,-147.84,-1.76093,-50.1613,19.1036,1020.22
19310,-1.82688,13.3477,-2.12817,-2.94,-19.53,-156.17,0.0115341,-53.1836,19.8128,1020.22
19316,-2.07078,13.4481,-2.36729,-8.05,-20.93,-164.57,0.098704,-52.5051,18.217,1020.23
19322,-2.79292,13.759,-1.99426,-6.86,-19.74,-172.2,0.767009,-50.5931,19.4286,1020.23
19328,-2.7451,14.9737,-1.9034,-11.2,-25.27,-180.53,2.68476,-53.0911,18.8376,1020.22
19334,-1.55428,15.2415,-2.94596,-20.09,-22.68,-190.26,3.58552,-53.9238,16.6655,1020.22
19340,-2.25729,14.945,-2.46294,-25.13,-25.83,-199.5,4.25382,-51.3024,19.074,1020.21
19346,-1.86514,14.5624,-3.28551,-24.5,-22.4,-212.66,4.74779,-51.7341,19.0001,1020.21
19352,-4.38546,15.1985,-3.52463,-25.62,-33.88,-225.96,7.21761,-55.2499,19.0001,1020.21
19358,-4.78718,14.4428,-5.0263,-22.54,-38.64,-235.48,7.39195,-52.5051,18.5568,1020.24
19364,-5.59541,14.8924,-4.41894,-14.84,-51.1,-242.69,8.40894,-51.3024,19.473,1020.24
19370,-4.72979,15.2463,-4.20851,-8.19,-61.04,-248.08,10.8788,-53.8004,17.4929,1020.24
19376,-4.50502,17.4366,-3.28073,0.91,-61.95,-254.31,12.012,-53.1528,17.7589,1020.24
19382,-4.0746,19.7226,-1.9847,2.1,-67.48,-263.48,11.5471,-50.5005,18.808,1020.23
19388,-3.29507,19.6748,-1.01865,10.08,-70.35,-275.87,14.569,-52.1659,18.35,1020.23
19394,-2.17599,20.4352,-2.40076,9.94,-73.5,-286.79,16.5448,-52.4126,18.0101,1020.22
19400,-0.884744,21.4825,-3.47202,-0.14,-72.73,-290.15,16.5739,-50.1305,17.5816,1020.22
19406,0.25825,22.2573,-4.9737,-19.04,-69.3,-296.17,19.4796,-49.6062,18.0101,1020.22
19412,0.0191296,20.88,-7.15447,-42.7,-70.91,-309.82,21.7169,-51.8883,17.2565,1020.24
19418,-1.89383,19.6078,-7.1736,-55.23,-68.67,-318.01,22.1818,-49.0202,18.7194,1020.24
19424,-3.50072,18.2401,-4.72023,-62.72,-85.05,-325.5,23.0536,-47.725,17.5668,1020.2
19430,-2.5538,16.198,-4.63415,-60.48,-92.05,-329.84,26.5113,-49.2978,15.4686,1020.2
19436,-1.0856,16.834,-6.68101,-49.56,-103.46,-327.25,27.0924,-48.2492,15.1435,1020.19
19442,1.033,17.6375,-7.44141,-72.1,-138.53,-325.85,27.2377,-44.7335,17.951,1020.19
19448,7.00622,14.9593,-8.66093,-113.19,-127.19,-313.88,29.2717,-46.368,16.9462,1020.22
19454,9.62697,12.3816,-8.2592,-153.93,-87.15,-303.38,32.0321,-46.7998,13.8875,1020.22
19460,15.7054,6.54711,-3.07508,-191.73,-94.22,-283.78,31.5962,-43.5924,13.6806,1020.22
19466,12.4295,-0.306074,-6.4945,-195.16,32.97,-212.45,33.0781,-43.7775,13.1487,1020.21
19472,-1.16212,-0.865614,0.731707,-140.56,103.32,-112,35.7804,-44.4251,12.2178,1020.21
19478,-6.64754,1.22908,7.53706,-90.72,33.88,-28.77,34.2404,-43.7158,12.2325,1020.21
19484,4.44285,1.42994,1.00909,-37.66,60.41,40.32,32.9038,-42.2355,12.9714,1020.21
19490,4.63893,2.71162,-2.22382,-15.61,117.53,98.42,35.1121,-44.6718,11.1834,1020.23
19496,1.9847,3.4242,-1.72166,2.66,113.12,135.31,34.0951,-45.3503,12.3655,1020.23
19502,3.41942,4.58154,-2.45337,23.73,103.11,158.62,31.48,-43.1915,14.1091,1020.22
19508,4.52893,5.76279,-3.2616,39.06,101.99,167.51,32.5261,-45.8129,14.1091,1020.22
19514,4.03635,7.43185,-3.89287,39.06,103.6,164.43,32.2645,-46.7998,12.2178,1020.22
19520,3.39072,7.95313,-4.11765,36.61,103.04,161.56,29.1845,-45.3195,15.0105,1020.22
19526,1.99904,7.24534,-3.73505,34.23,93.45,155.68,28.8068,-46.6147,15.6754,1020.22
19532,1.48733,6.91535,-3.87374,28.07,82.11,154.42,29.7657,-48.095,14.5968,1020.21
19538,0.879962,6.19321,-3.77331,20.79,69.09,157.15,27.6155,-46.9848,15.2617,1020.21
19544,0.511717,5.69106,-3.19464,16.1,56.91,164.36,24.9422,-45.9979,17.3008,1020.19
19550,0.0860832,5.1889,-2.38642,16.94,41.79,173.88,26.4532,-49.5753,15.439,1020.19
19556,-0.306074,5.46628,-2.29555,15.75,28.14,186.13,25.843,-49.3903,14.3456,1020.21
19562,-0.593018,5.5428,-2.16164,15.12,14.77,199.15,23.0826,-47.3549,15.4686,1020.21
19568,-0.5978,5.70062,-2.20469,14.98,2.03,213.57,23.9543,-50.0071,15.5868,1020.17
19574,-0.33955,5.40411,-2.15686,12.67,-13.86,227.57,23.1117,-51.3024,15.3356,1020.17
19580,0.196078,5.12673,-1.80296,16.38,-24.36,241.92,20.4094,-49.5445,15.572,1020.17
19586,0.526064,4.98326,-1.31038,19.67,-34.09,253.19,19.6539,-50.1921,15.3208,1020.23
19592,1.04256,5.20325,-1.2769,24.15,-43.4,263.06,19.8864,-52.8135,14.6411,1020.23
19598,1.3869,5.55237,-1.09039,27.72,-50.47,271.53,17.2713,-51.2407,15.9857,1020.19
19604,1.61645,5.95887,-1.0043,30.66,-55.65,278.95,15.9928,-51.0248,16.8871,1020.19
19610,2.08513,6.18843,-0.693448,36.33,-60.27,284.13,15.9056,-54.1396,15.572,1020.21
19616,2.32903,6.80057,-0.57867,38.78,-62.86,290.15,14.2203,-53.5228,15.7198,1020.21
19622,3.1803,7.42229,-0.731707,39.55,-60.2,293.93,11.9248,-51.5183,16.0892,1020.22
19628,3.9407,7.78575,-0.679101,39.48,-54.11,295.54,10.8207,-53.4303,15.7641,1020.22
19634,4.3472,8.46485,-0.540411,38.08,-47.32,295.26,10.6463,-55.1882,14.6115,1020.22
19640,5.14586,8.50789,0.224773,40.39,-36.75,292.81,8.11837,-52.0734,17.1383,1020.19
19646,5.30368,8.8044,0.483022,44.94,-23.66,289.73,6.40402,-52.906,16.961,1020.19
19652,5.1363,9.3209,0.526064,50.12,-10.08,287.07,5.91006,-54.6639,16.3847,1020.24
19658,4.83501,9.71305,0.363462,55.79,2.45,285.46,3.20778,-53.0602,17.36,1020.24
19664,4.09852,10.3204,0.172166,61.04,14.84,286.3,1.784,-51.95,17.4191,1020.19
19670,3.56289,10.8274,0.109995,67.97,24.64,288.05,1.66777,-53.7696,16.1631,1020.19
19676,2.85509,11.9464,-0.329986,73.29,34.09,289.24,-0.918284,-54.1088,16.7985,1020.2
19682,2.48207,12.7403,-0.674318,76.23,41.58,291.76,-2.22584,-50.5931,18.3943,1020.2
19688,2.10904,13.5868,-0.81779,78.26,48.58,293.3,-3.24282,-52.4434,18.7342,1020.2
19694,1.9034,14.1368,-0.860832,80.08,53.06,293.72,-5.39302,-52.9677,16.562,1020.2
19700,1.62602,15.0933,-0.932568,81.06,56.42,293.23,-7.65945,-49.0819,18.483,1020.2
19706,1.31038,15.9063,-1.14299,78.96,58.31,291.27,-8.41493,-49.7912,18.35,1020.21
19712,0.755619,16.5758,-1.14778,76.79,59.43,289.03,-8.76361,-52.1967,18.1579,1020.21
19718,0.535629,17.1019,-1.24342,73.99,58.38,285.95,-11.8146,-49.7912,20.1084,1020.18
19724,0.291726,17.824,-1.26734,70.49,56.7,282.24,-13.064,-46.7073,21.0984,1020.18
19730,0.25825,18.0823,-1.20516,67.76,54.32,276.57,-14.7202,-48.0025,19.4582,1020.2
19736,0.463893,18.6083,-1.0856,66.71,51.1,268.52,-16.4055,-47.8483,19.606,1020.2
19742,0.435198,19.2157,-1.15734,63.49,52.78,260.82,-16.7252,-43.7158,20.4778,1020.17
19748,-0.114778,19.5122,-0.664754,65.52,47.25,251.58,-18.7591,-46.2138,20.6994,1020.17
19754,0.200861,20.1722,-1.21951,63.84,51.73,240.8,-20.1539,-46.183,20.2414,1020.17
19760,0.224773,21.4778,-1.85557,55.09,62.16,231.56,-20.735,-42.328,20.4039,1020.21
19766,-1.06648,22.396,-1.18125,55.09,63.77,222.88,-22.1878,-42.0505,21.5565,1020.21
19772,-1.67384,22.7403,-1.70253,55.23,70.07,218.05,-22.8561,-44.8569,20.2118,1020.22
19778,-3.12291,22.9077,-1.73601,56.21,78.26,217.56,-24.5414,-41.3103,20.6403,1020.22
19784,-4.1846,22.6781,-1.48733,58.52,84.07,219.31,-25.0645,-39.0282,21.8668,1020.18
19790,-5.77236,21.956,-0.688666,66.99,91.77,227.5,-27.0694,-41.0019,21.453,1020.18
19796,-7.42707,21.6786,-0.186514,79.45,100.24,242.76,-28.3188,-39.6141,20.596,1020.2
19802,-10.0813,22.1664,-0.530846,91.07,109.34,262.08,-28.3188,-36.5918,22.0884,1020.2
19808,-11.7169,23.0607,-0.291726,96.39,111.51,280.35,-30.7305,-36.9619,21.9702,1020.2
19814,-12.8407,24.4476,-1.90818,89.04,121.1,299.95,-31.8637,-36.6843,21.1427,1020.23
19820,-13.2807,25.208,-2.81683,69.72,130.9,304.57,-32.8517,-32.6443,20.8324,1020.23
19826,-14.7872,25.9015,-4.64371,36.75,134.54,299.32,-33.6653,-31.7191,20.596,1020.23
19832,-15.6958,25.868,-7.15925,-1.47,131.18,276.85,-36.3385,-32.6752,20.1084,1020.23
19838,-19.7848,26.6093,-13.6346,-65.17,128.31,249.69,-36.9487,-30.1463,19.3104,1020.24
19844,-24.242,22.4295,-12.3673,-127.96,108.99,218.05,-36.5419,-27.4016,19.0001,1020.24
19850,-27.5227,11.7647,-6.83405,-153.09,103.11,184.03,-38.7793,-29.4062,17.6998,1020.23
19856,-31.3104,4.38546,-1.84601,-128.52,79.31,145.04,-39.9996,-28.2651,16.7689,1020.23
19862,-35.7484,-2.60163,2.2286,-72.03,46.97,112.07,-38.8083,-26.7539,16.5473,1020.25
19868,-37.7044,-4.5385,3.82592,3.43,2.31,83.86,-39.7381,-26.8156,16.2369,1020.25
19874,-36.8197,-2.59206,4.28503,81.13,-52.22,49.77,-40.7551,-29.252,15.3208,1020.25
19880,-33.0033,1.92731,2.4725,121.31,-86.87,12.67,-38.8374,-26.0138,16.7541,1020.23
19886,-26.9393,8.79483,-0.57867,126.35,-94.15,-21.63,-38.2853,-26.2913,17.4191,1020.23
19892,-23.5246,11.6786,-1.59254,105.35,-98.49,-57.96,-40.697,-28.3884,17.6259,1020.22
19898,-20.4113,13.7877,-2.21425,71.89,-98.49,-81.83,-39.0117,-26.8156,17.9362,1020.22
19904,-17.1019,14.6628,-2.35772,65.8,-89.04,-97.65,-37.5589,-25.2736,19.6798,1020.21
19910,-15.9206,14.0459,-1.24821,39.97,-86.52,-102.34,-38.4306,-28.6968,20.4187,1020.21
19916,13.7446,69.2778,47.5084,381.22,-391.51,-228.69,-37.3264,-28.2342,19.4139,1020.23
19922,0.13869,60.4734,-12.4582,-203.7,30.87,-241.85,-36.077,-27.2782,21.3791,1020.23
19928,4.39024,16.2267,-28.4601,-430.5,-94.99,-222.04,-35.3796,-30.1155,21.2757,1020.23
19934,17.4558,-10.966,14.4763,-376.04,-36.61,-258.79,-35.1762,-34.9573,18.4091,1020.23
19940,10.2965,-13.6633,15.4711,-76.72,4.9,-231.28,-33.3166,-33.2303,18.2761,1020.23
19946,14.065,-5.90148,2.20947,71.26,52.22,-234.92,-32.2996,-34.7106,19.1183,1020.23
19952,6.42755,11.2099,-1.16691,48.65,72.03,-250.11,-32.4739,-37.4245,17.5668,1020.23
19958,1.91774,17.6471,1.06648,3.57,73.5,-255.85,-31.486,-36.9002,18.1727,1020.21
19964,0.492587,13.3955,1.03778,-41.37,80.92,-258.79,-30.2075,-36.4376,18.5421,1020.21
19970,-1.92252,13.4768,2.63988,-61.95,122.22,-256.9,-29.8879,-39.1207,17.1974,1020.25
19976,-6.86274,10.6887,5.71019,-66.57,115.64,-256.97,-29.9751,-40.2926,16.4143,1020.25
19982,-14.395,13.9072,7.25968,-45.43,47.46,-221.76,-27.0403,-38.8431,16.429,1020.24
19988,-13.7924,14.9928,4.26112,-43.68,-48.58,-193.9,-27.6215,-40.7243,15.8232,1020.24
19994,-9.32568,16.3319,2.25251,-46.06,-98.98,-176.12,-27.0403,-43.4691,15.1878,1020.24
20000,-0.511717,14.8015,-4.28503,-61.18,-86.52,-156.94,-25.4713,-40.9711,16.5177,1020.21
20006,-4.26112,22.066,-10.7747,-80.78,21.07,-66.92,-24.338,-42.4514,16.0892,1020.21
20012,-4.06504,8.32138,-0.349115,-52.29,74.55,-46.34,-25.4713,-45.1036,13.8727,1020.25
20018,-5.58584,8.43615,0.61693,-0.63,18.97,-39.41,-24.8901,-43.6233,14.3012,1020.25
20024,-3.24725,16.8627,-3.5868,-43.61,-12.6,-50.26,-25.1807,-42.2972,16.5029,1020.24
20030,-1.47776,14.7441,-3.97896,-84.42,10.85,-25.83,-24.8029,-45.1961,15.0401,1020.24
20036,2.16164,5.68149,0.0526064,-41.93,41.16,-25.27,-25.326,-46.0596,14.9071,1020.24
20042,-2.52989,8.93831,4.34242,-21.91,23.45,-19.95,-24.8611,-42.5439,15.5129,1020.24
20048,-2.41511,9.09134,2.21903,-22.47,-0.63,-21.49,-23.9022,-44.3943,14.981,1020.24
20054,-1.03778,9.92348,0.109995,-9.87,-0.7,-14.42,-25.326,-46.2755,13.7545,1020.21
20060,-0.449546,10.0191,-0.167384,-12.39,-1.47,-9.1,-24.5414,-43.1915,13.5181,1020.21
20066,-0.0382592,9.35916,0.626494,-9.66,-0.77,-8.82,-23.786,-43.284,14.7741,1020.25
20072,-0.272597,9.41655,0.435198,-5.04,-0.98,-8.26,-24.832,-46.3063,14.05,1020.25
20078,0.0286944,9.95218,-0.540411,-2.87,-4.62,-7.91,-25.0935,-44.8569,13.6363,1020.24
20084,0.530846,10.4878,-1.36777,-4.76,-4.34,-7.98,-24.2509,-43.1298,15.1139,1020.24
20090,0.655189,10.5882,-1.55428,-11.9,-0.77,-9.1,-24.6577,-45.597,13.0896,1020.22
20096,0.167384,10.3922,-0.827355,-12.67,0.49,-8.47,-24.3961,-46.3372,12.5281,1020.22
20102,-0.263032,9.78001,0.483022,-9.52,-3.43,-9.24,-23.815,-43.2224,13.4442,1020.22
20108,-0.0334768,9.56002,0.454328,-3.57,-6.72,-10.5,-23.6988,-45.0419,14.5672,1020.21
20114,0.205643,9.96174,0.0765184,-4.69,-9.03,-10.22,-23.7278,-47.8175,13.3408,1020.21
20120,0.181731,9.84696,0.148254,-2.1,-4.9,-10.5,-24.1928,-44.5485,13.2669,1020.23
20126,0,9.49306,0.0526064,-3.29,-5.32,-8.54,-24.0765,-44.4868,13.7693,1020.23
20132,0.0191296,9.39263,0.368245,4.27,-7.56,-10.85,-24.309,-46.2138,12.3508,1020.23
20138,-0.0095648,10.0956,-0.353898,2.52,-9.59,-7.84,-23.9022,-44.3943,12.6463,1020.23
20144,-0.153037,10.2248,-0.282162,3.5,-10.5,-5.39,-23.7569,-42.143,13.459,1020.23
20150,-0.176949,10.11,-0.25825,4.69,-11.55,-6.02,-24.1637,-45.3503,12.6463,1020.23
20156,0.0526064,9.86131,-0.124342,5.32,-12.53,-7.21,-24.8029,-46.4914,12.6611,1020.23
20162,0.023912,9.87566,-0.11956,7.84,-13.09,-6.79,-23.9312,-43.5616,14.1239,1020.23
20168,0.200861,9.77044,-0.306074,8.05,-12.6,-7.42,-23.7278,-44.826,13.5476,1020.23
20174,0.267814,9.71305,-0.277379,8.4,-11.97,-7.42,-23.815,-47.0465,13.2521,1020.2
20180,0.272597,9.78001,-0.33955,9.45,-12.53,-7.84,-23.3792,-44.5793,12.203,1020.2
20186,0.35868,9.88044,-0.411286,9.52,-11.76,-9.73,-23.5244,-43.685,14.8332,1020.21
20192,0.468675,10.0717,-0.846485,7.35,-10.08,-10.64,-23.6407,-46.7689,13.8727,1020.21
20198,0.387374,10.0096,-0.769966,5.81,-8.47,-10.36,-24.1637,-45.2886,13.2817,1020.22
20204,0.234338,9.71305,-0.506934,7.21,-5.67,-10.08,-22.9433,-42.914,14.4047,1020.22
20210,0,9.93783,-0.612147,8.54,-4.9,-10.71,-23.6988,-45.5045,15.439,1020.25
20216,-0.0382592,9.91392,-0.554758,7.91,-5.18,-10.36,-23.9022,-46.3372,13.4885,1020.25
20222,0.0573888,9.8087,-0.573888,9.31,-4.27,-9.38,-23.2339,-43.8083,14.5229,1020.25
20228,0.133907,9.60784,-0.382592,11.55,-2.17,-8.89,-23.786,-44.826,14.4638,1020.25
20234,0.0047824,9.81827,-0.301291,10.85,0.28,-8.47,-23.6988,-46.8923,13.8727,1020.25
20240,0.0669536,9.81827,-0.430416,10.57,1.26,-8.61,-23.5535,-44.4868,13.5624,1020.25
20246,0.133907,9.91392,-0.703013,9.38,2.73,-8.68,-23.2629,-44.2092,15.0548,1020.25
20252,0.162602,10.1004,-0.731707,6.16,4.2,-8.89,-23.4663,-46.7998,14.0796,1020.26
20258,0.0813008,10.0191,-0.655189,3.43,6.44,-9.03,-23.1177,-44.9494,13.8727,1020.26
20264,0.0095648,9.86609,-0.535629,3.57,7.14,-9.52,-22.798,-43.87,15.0992,1020.26
20270,-0.186514,9.79436,-0.516499,5.6,6.72,-9.31,-23.1467,-46.183,15.3356,1020.26
20276,-0.272597,10.2965,-0.468675,3.71,3.78,-10.22,-23.0305,-46.1521,14.0205,1020.26
20282,-0.296509,10.3922,-0.789096,-1.61,1.61,-10.64,-23.0595,-44.0242,13.3851,1020.23
20288,-0.176949,10.3348,-1.01387,-5.04,-0.35,-10.22,-22.8271,-45.2269,14.3899,1020.23
20294,-0.243902,10.1626,-0.693448,-7.14,-2.31,-10.57,-23.3792,-47.5708,14.0944,1020.26
20300,-0.0669536,9.84218,-0.607365,-8.82,-2.03,-10.22,-22.6237,-43.9934,14.5081,1020.26
20306,-0.0286944,9.86609,-0.621712,-8.68,-1.61,-11.34,-22.7109,-44.7643,15.0401,1020.24
20312,-0.124342,10.043,-0.760402,-10.36,-0.14,-12.53,-23.0886,-47.6016,13.7693,1020.24
20318,-0.0191296,9.7274,-0.583453,-11.48,2.24,-12.11,-23.5535,-45.9671,12.3951,1020.23
20324,-0.10043,9.68436,-0.454328,-11.2,2.66,-12.39,-22.5656,-43.9625,14.3308,1020.23
20330,-0.329986,9.81827,-0.334768,-11.76,2.17,-12.67,-23.1467,-47.0157,14.2126,1020.24
20336,-0.296509,9.98565,-0.291726,-13.65,0.7,-13.3,-22.8561,-47.3549,13.0748,1020.24
20342,-0.57867,9.79914,-0.73649,-17.22,1.47,-11.62,-22.275,-44.9494,13.2078,1020.24
20348,-0.540411,9.38785,-0.229555,-17.71,-0.7,-10.64,-21.4905,-45.8129,13.4294,1020.24
20354,-0.511717,9.60784,-0.0047824,-14.14,-3.92,-10.92,-22.9143,-48.1567,12.6315,1020.24
20360,-0.23912,9.89479,-0.329986,-13.51,-6.86,-10.85,-21.9844,-45.412,13.0896,1020.26
20366,-0.392157,10.2439,-1.18125,-16.45,-6.02,-10.92,-22.5946,-44.7952,13.7102,1020.26
20372,-0.373027,10.043,-1.02343,-17.99,-6.58,-10.71,-21.9554,-48.3418,13.2669,1020.25
20378,-0.0382592,10.1674,-0.0430416,-15.89,-11.69,-12.74,-23.0014,-46.6147,12.5724,1020.25
20384,1.04735,10.7221,1.6308,-3.43,-17.85,-20.79,-22.1297,-45.5045,13.6215,1020.25
20390,4.06982,12.7834,5.48541,19.32,-14.56,-40.74,-21.8101,-47.9408,13.2373,1020.25
20396,3.95026,13.2759,1.15734,9.24,9.45,-53.55,-22.3622,-48.2184,10.8731,1020.25
20402,0.655189,11.5447,-2.25251,-1.96,24.85,-56.28,-22.1588,-45.6279,14.05,1020.25
20408,-1.32472,10.5882,0.191296,2.45,7.35,-60.34,-21.3161,-46.2755,14.6115,1020.25
20414,-0.463893,10.4304,1.06648,13.65,-9.66,-64.19,-21.1999,-49.5753,12.3655,1020.23
20420,0.726925,11.1669,0.196078,16.03,-8.61,-68.39,-21.1127,-46.8923,13.6954,1020.23
20426,0.870397,11.9417,-0.334768,10.85,-2.24,-73.5,-20.1248,-45.7204,14.3012,1020.22
20432,0.540411,11.4873,0.047824,9.17,1.47,-77.63,-19.3403,-48.4034,12.5724,1020.22
20438,0.176949,11.0139,0.411286,14.14,-0.21,-83.23,-19.4274,-47.8483,13.7988,1020.22
20444,-0.124342,11.3534,-0.023912,17.78,-5.32,-88.06,-18.8463,-46.368,13.7988,1020.22
20450,-0.0095648,11.9608,-0.023912,17.29,-9.45,-93.24,-18.8463,-48.6193,13.4147,1020.22
20456,0.33955,11.9321,0.205643,16.73,-10.64,-99.26,-17.8584,-49.7912,11.9666,1020.22
20462,0.329986,11.5925,0.636059,17.71,-7.98,-104.3,-17.9165,-47.2624,14.4933,1020.22
20468,-0.47824,11.7217,0.243902,22.96,-9.1,-108.01,-16.9286,-48.1876,13.2669,1020.24
20474,-0.483022,11.3965,0.483022,27.09,-16.66,-111.58,-16.5508,-50.8089,13.2964,1020.24
20480,-0.277379,11.9943,0.607365,34.72,-22.19,-118.02,-16.2893,-48.7735,15.1583,1020.21
20486,0.33955,12.4964,0.669536,41.3,-26.32,-124.88,-15.3304,-48.8969,13.9466,1020.21
20492,1.18604,13.5246,0.554758,48.02,-26.95,-133.14,-14.2844,-51.7033,14.3012,1020.23
20498,1.10952,14.2229,-0.296509,48.72,-26.67,-146.23,-13.4127,-50.6856,14.8036,1020.23
20504,0.942133,15.012,-1.62123,48.51,-27.3,-156.94,-12.7444,-47.91,15.2322,1020.24
20510,0.707795,15.6624,-1.88905,41.51,-29.47,-171.85,-12.5119,-50.5314,12.5724,1020.24
20516,1.31038,15.2654,-2.09469,30.66,-23.31,-185.22,-11.0882,-52.1659,16.1335,1020.24
20522,1.58297,15.6337,-1.06169,32.55,-26.81,-200.06,-10.3036,-49.3903,16.4143,1020.24
20528,1.14299,16.3462,-2.52511,32.62,-35.21,-218.19,-9.14135,-50.7473,15.7493,1020.24
20534,1.81731,18.1349,-3.84027,19.39,-38.85,-239.96,-6.93303,-53.7387,14.9662,1020.22
20540,0.640842,18.5653,-6.04974,3.43,-43.75,-258.23,-6.93303,-51.0865,16.0301,1020.22
20546,0.373027,18.0679,-6.30799,-5.6,-53.76,-273.98,-4.98623,-51.2407,16.9758,1020.24
20552,1.69775,18.6896,-4.88761,-4.62,-59.22,-295.54,-3.21377,-54.4789,16.5325,1020.24
20558,2.61597,21.1382,-4.88761,-9.24,-63.35,-318.01,-1.20885,-54.3247,16.0892,1020.25
20564,2.46772,23.4768,-5.978,-18.2,-56.91,-339.36,-0.831112,-51.0248,17.0496,1020.25
20570,-1.15256,25.9063,-4.22764,-15.4,-57.19,-362.04,2.01645,-53.5228,16.5325,1020.25
20576,0.521282,21.0186,-2.59206,-16.94,-89.32,-389.62,4.25382,-54.6947,15.2617,1020.24
20582,2.1473,17.0732,-1.00909,26.04,-78.05,-407.82,5.35798,-51.7033,17.552,1020.24
20588,0.444763,25.1985,-2.1473,31.99,-81.83,-423.15,7.71158,-51.6108,16.5768,1020.24
20594,5.87757,33.3955,-6.79579,-13.58,-81.2,-434.42,11.6924,-55.0648,16.0449,1020.24
20600,2.24295,32.616,-5.29412,-47.6,-48.86,-433.86,12.2154,-52.4743,15.5277,1020.23
20606,-1.40603,24.9402,0.83692,-54.11,-80.57,-446.95,13.8135,-51.6725,16.9314,1020.23
20612,4.05548,18.3979,-2.95074,-34.23,-93.38,-457.87,17.9686,-52.8752,13.7693,1020.21
20618,2.85509,19.5361,-8.33572,-2.52,-70.7,-455.21,19.7992,-52.0117,16.1926,1020.21
20624,-0.325203,25.2367,-9.36394,-6.93,-72.52,-448.77,20.0026,-49.1744,16.9167,1020.21
20630,0.741272,27.604,-8.58919,-22.19,-109.69,-459.83,24.2158,-49.3595,16.9167,1020.21
20636,5.25586,24.065,-10.0048,-42.77,-147.42,-467.81,26.9762,-49.9454,15.7198,1020.21
20642,7.87661,17.2262,-9.29699,-45.78,-146.79,-446.95,27.7026,-46.3063,15.8675,1020.19
20648,8.68006,13.2377,-8.96222,-73.78,-155.89,-408.1,30.0272,-45.2578,16.2961,1020.19
20654,14.1463,8.46963,-9.37829,-123.9,-157.71,-368.97,34.6472,-45.2886,12.8679,1020.18
20660,10.2439,-2.76423,-10.5356,-145.39,-90.44,-303.38,33.7464,-43.5924,14.7741,1020.18
20666,1.40124,-6.75275,3.71592,-59.99,-4.2,-151.34,33.6593,-41.6187,13.4885,1020.19
20672,1.38211,0.659971,7.01578,-14.49,-6.72,-55.79,36.5649,-43.8083,11.6858,1020.19
20678,5.25586,6.03061,0.774749,9.94,5.6,14.77,35.8095,-43.0065,11.9518,1020.2
20684,7.05404,6.24103,-1.01865,42.63,35.49,74.69,33.543,-42.0196,13.4885,1020.2
20690,8.07747,7.05882,-3.54376,44.17,51.59,116.97,35.6061,-44.0242,13.9171,1020.2
20696,8.71353,6.60928,-4.07939,32.34,66.01,139.16,35.1412,-44.4251,11.7892,1020.19
20702,8.78049,6.04017,-3.96939,33.39,82.25,149.73,32.1774,-43.5924,14.5672,1020.19
20708,7.39837,6.29364,-3.9407,22.4,85.82,146.86,32.497,-43.5616,15.9857,1020.2
20714,5.97322,5.82496,-3.84983,19.67,83.44,147.21,33.7464,-45.8129,13.0452,1020.2
20720,4.63415,5.14108,-2.45815,15.05,78.75,144.76,31.1023,-46.0905,14.5672,1020.2
20726,4.32329,3.43376,-2.3099,17.71,72.31,139.86,29.5042,-44.5176,16.0596,1020.2
20732,4.39503,1.6021,-1.63558,22.68,70.21,142.66,31.3928,-47.2624,15.0844,1020.16
20738,3.59158,2.18077,-2.23816,20.86,65.66,152.39,29.7366,-47.2932,15.2322,1020.16
20744,3.06074,2.34816,-2.25729,18.9,60.34,161.49,27.0053,-46.183,16.9462,1020.16
20750,2.99856,2.63988,-1.67384,17.22,58.38,171.92,27.7607,-47.139,16.104,1020.17
20756,2.20947,4.00765,-1.42994,19.6,47.95,189.14,27.9641,-48.9277,15.5868,1020.17
20762,2.16643,3.78766,-2.09469,15.47,44.73,205.38,24.3611,-47.2007,17.1235,1020.16
20768,1.3869,4.52893,-1.57819,11.48,38.99,224.63,23.8962,-48.1567,16.6064,1020.16
20774,1.24342,5.34194,-2.38164,3.57,30.17,244.44,24.4483,-50.9015,17.0792,1020.15
20780,1.33907,5.59063,-2.5538,-2.1,27.02,265.3,21.1649,-49.3595,17.0201,1020.15
20786,1.0856,4.98804,-1.69297,-2.52,19.67,281.54,19.7411,-48.2492,17.4191,1020.17
20792,0.961262,5.1076,-1.91296,-5.6,13.23,295.61,20.2641,-52.1042,16.2961,1020.17
20798,1.16691,4.48589,-1.43472,-0.35,5.46,305.13,18.9565,-51.7033,16.5768,1020.16
20804,1.4395,4.25155,-0.659971,8.4,0.7,314.65,15.7603,-49.9146,17.8476,1020.16
20810,1.86035,4.6724,-0.769966,13.3,-3.15,321.79,14.8886,-52.6285,16.9905,1020.16
20816,2.60163,4.49546,-0.363462,23.45,-5.32,326.9,13.2614,-53.5228,15.9414,1020.13
20822,2.65901,5.09804,-0.291726,30.87,-6.65,330.19,10.6463,-51.5491,17.094,1020.13
20828,3.11334,5.82018,-0.344333,37.73,-5.74,331.66,9.5131,-52.4434,17.1531,1020.2
20834,3.22812,6.56145,-0.416069,45.57,-2.24,333.76,8.75762,-55.0031,15.9119,1020.2
20840,2.94596,8.32138,-0.33955,49.42,0.28,333.62,6.66553,-52.6902,17.4486,1020.21
20846,3.13725,9.08656,-0.502152,52.01,4.9,333.2,4.92213,-51.9192,17.9658,1020.21
20852,2.77857,10.3109,-0.487805,53.83,8.33,331.8,4.16665,-54.9723,18.1579,1020.18
20858,2.17599,11.6069,-0.69823,54.67,10.85,332.43,1.72588,-54.078,15.8971,1020.18
20864,1.80775,12.3912,-0.516499,56.42,13.72,333.83,-0.947339,-50.994,18.4682,1020.18
20870,1.23864,13.6298,-0.612147,57.4,15.26,335.37,-1.93527,-52.9986,17.9362,1020.18
20876,1.08082,14.4763,-0.741272,57.19,17.22,335.51,-2.80697,-54.0163,17.6555,1020.18
20882,1.12386,15.4615,-0.942133,55.51,18.97,336.35,-5.71265,-50.9015,17.6555,1020.15
20888,0.789096,16.131,-0.659971,55.72,20.58,336.21,-7.13643,-51.0248,18.9115,1020.15
20894,0.73649,16.9201,-0.741272,55.16,21.98,334.81,-7.83379,-53.4612,17.6407,1020.16
20900,0.554758,17.4797,-0.712578,56.28,25.41,333.76,-11.03,-49.2978,19.5469,1020.16
20906,0.449546,18.2401,-0.755619,55.23,26.46,332.99,-12.2504,-48.3726,20.8324,1020.16
20912,0.282162,18.5653,-0.626494,57.19,27.79,331.24,-13.0931,-50.3463,19.8424,1020.16
20918,0.0286944,19.4213,-0.851267,60.62,31.71,329,-14.8074,-48.8044,18.1579,1020.16
20924,-0.210426,20.1722,-0.946915,61.67,30.66,328.37,-16.7833,-44.9802,20.6699,1020.17
20930,-0.588235,21.2769,-1.12865,66.71,31.85,327.18,-18.2942,-46.4605,19.473,1020.17
20936,-0.683883,22.2047,-1.40603,68.95,31.5,325.78,-20.0086,-47.0773,19.2661,1020.19
20942,-0.879962,23.8833,-1.77427,70.35,35,323.47,-21.6939,-42.9756,18.9263,1020.19
20948,-1.06648,25.0167,-1.67384,71.75,41.44,322.56,-23.0014,-42.0505,20.8472,1020.2
20954,-1.27212,26.9345,-1.61167,72.17,51.17,323.05,-24.8611,-43.5616,20.3448,1020.2
20960,-2.11382,28.2449,-1.81731,67.06,61.74,321.37,-26.6626,-40.3234,20.3152,1020.21
20966,-4.17982,29.1822,-1.6021,57.89,71.96,321.02,-26.9822,-38.4114,21.6599,1020.21
20972,-6.06408,28.6466,-0.755619,53.2,82.18,323.89,-29.1324,-39.244,20.3743,1020.22
20978,-10.1387,27.8192,0.741272,55.58,88.69,329,-30.992,-38.288,19.7833,1020.22
20984,-13.0081,27.7523,1.16691,60.06,90.58,335.51,-31.2535,-33.662,19.7981,1020.22
20990,-16.5949,27.8527,1.04256,61.88,93.24,339.36,-33.4038,-34.7723,19.8424,1020.19
20996,-19.5887,27.5849,0.253467,57.19,95.2,336.21,-35.06,-33.6004,19.6946,1020.19
21002,-21.2052,28.087,-2.30512,42.07,96.74,323.12,-35.4668,-30.1463,19.1775,1020.2
21008,-23.4146,29.5887,-9.75131,8.47,94.29,298.83,-36.8615,-28.8202,19.1331,1020.2
21014,-27.5275,30.7126,-15.8297,-61.18,87.22,269.01,-38.6049,-29.7762,18.6307,1020.24
21020,-35.9254,21.9369,-14.4046,-145.6,65.52,239.96,-38.4596,-27.3399,17.6112,1020.24
21026,-39.5218,9.9713,-6.69536,-175.84,50.4,195.37,-38.634,-25.8904,16.2813,1020.22
21032,-44.8015,-4.21808,3.90244,-163.17,69.23,151.83,-41.3362,-27.8025,16.2665,1020.22
21038,-50.8465,-10.3874,10.8082,-70.14,63.98,107.31,-41.2491,-26.5072,14.8923,1020.22
21044,-55.0933,-11.7551,13.7877,90.23,-36.61,58.66,-39.3313,-24.2868,16.961,1020.23
21050,-47.3314,-1.11908,7.21186,198.94,-119.21,-9.38,-40.3483,-25.1811,17.227,1020.23
21056,-33.0799,12.2621,0.143472,187.81,-117.32,-75.81,-41.4525,-25.8904,16.3552,1020.22
21062,-26.8962,16.968,-3.38116,134.4,-95.9,-138.18,-38.8374,-23.8858,17.8919,1020.22
21068,9.45481,62.4055,69.6843,517.79,-455.84,-259.98,-38.14,-23.9784,20.2118,1020.25
21074,-2.45337,67.1162,-11.1239,-240.59,64.05,-282.59,-38.7502,-28.6968,19.2218,1020.25
21080,-0.0430416,28.5701,-44.5146,-364.42,-167.02,-304.43,-37.3555,-29.8687,19.1627,1020.19
21086,27.0206,5.71019,-10.5643,-481.74,-67.97,-333.9,-34.7113,-30.6706,18.941,1020.19
21092,13.5294,-14.8254,33.2855,-197.33,0.14,-280.28,-34.7694,-34.2788,16.961,1020.19
21098,17.3601,-20.3587,19.6222,61.11,98.91,-285.39,-34.4789,-36.3759,15.5425,1020.23
21104,12.3242,3.59158,2.79292,151.48,146.16,-318.43,-31.9509,-34.3405,18.0249,1020.23
21110,-2.73075,17.3505,1.13821,133.14,135.59,-273.98,-32.3577,-36.8694,17.5816,1020.24
21116,-5.82975,17.9197,2.23338,79.24,46.69,-305.48,-32.0381,-39.2132,16.9167,1020.24
21122,-14.5146,27.9436,-6.37972,1.61,67.97,-256.41,-30.5271,-37.5478,17.4191,1020.24
21128,-9.83261,19.1918,-4.13678,-139.09,-8.54,-298.27,-29.1324,-39.1207,17.1679,1020.24
21134,-11.7743,13.3525,7.99139,-160.23,-29.61,-250.81,-29.0452,-42.4514,16.6655,1020.23
21140,-10.7939,8.97178,8.32138,-48.23,-51.1,-213.85,-27.8249,-42.5747,15.1583,1020.23
21146,-6.6571,17.5801,-2.066,-44.94,-95.69,-168.7,-27.1565,-40.8477,16.4143,1020.26
21152,-2.20947,20.0096,-6.56145,-83.16,-98.42,-160.44,-25.4713,-44.826,14.7002,1020.26
21158,2.32425,16.7336,-12.8551,-113.61,34.72,-122.85,-24.832,-45.3503,15.2765,1020.26
21164,-4.77284,10.3635,-0.621712,-78.54,117.04,-48.09,-24.5995,-42.6672,15.3947,1020.2
21170,-9.04352,5.85366,7.14012,-13.86,62.72,-50.82,-24.2218,-44.8877,14.7593,1020.2
21176,-7.86705,10.6169,3.44811,-11.13,-24.22,-50.82,-23.5535,-46.1521,12.8088,1020.28
21182,-1.27212,12.023,-0.83692,-40.11,-47.81,-34.23,-23.7569,-43.1298,13.7841,1020.28
21188,3.84027,7.31707,-1.62602,-22.75,-7.49,-40.46,-23.9312,-42.7598,15.3799,1020.23
21194,0.411286,10.6887,-1.32951,-24.01,18.48,-31.5,-23.786,-47.2624,14.0648,1020.23
21200,-0.607365,9.06265,1.04735,-23.87,20.93,-29.96,-23.6697,-45.0111,14.5229,1020.25
21206,-3.19464,9.53132,2.42946,-17.5,4.2,-20.16,-23.4954,-42.914,13.3555,1020.25
21212,-2.52511,8.34529,2.10426,-4.06,-8.12,-10.64,-23.7278,-46.3989,13.7988,1020.25
21218,-0.506934,9.78479,-0.143472,-5.74,-13.86,-10.78,-23.1467,-47.2315,13.4738,1020.27
21224,0.0765184,10.2391,-0.664754,-8.68,-4.06,-6.23,-23.2629,-43.7775,15.3504,1020.27
21230,0.215208,9.60784,0.148254,-3.15,6.51,-4.27,-23.1467,-45.6279,13.9466,1020.23
21236,-0.0765184,9.52654,-0.148254,-9.31,-0.14,-8.54,-23.7569,-47.9408,13.3555,1020.23
21242,-0.205643,10.4735,-1.00909,-1.68,-2.38,-5.74,-23.7569,-44.7643,14.0648,1020.22
21248,0.554758,10.9947,-1.43472,-11.13,-1.05,-5.81,-22.6818,-45.0111,14.0353,1020.22
21254,0.0382592,9.78957,-0.349115,-9.31,1.75,-7.63,-22.8271,-47.8483,12.8827,1020.24
21260,-0.25825,9.34481,0.291726,-2.87,-1.68,-9.24,-22.9724,-46.6147,12.794,1020.24
21266,-0.416069,9.96174,0.0334768,-2.24,-4.2,-9.31,-23.0014,-44.826,13.6067,1020.24
21272,-0.047824,9.75131,0.0430416,0.42,-5.67,-9.24,-23.4082,-47.2315,12.7497,1020.23
21278,-0.105213,9.89479,-0.306074,1.82,-6.23,-8.26,-22.8852,-46.8306,12.8679,1020.23
21284,-0.0382592,9.93304,-0.162602,3.08,-8.05,-7.91,-22.8271,-43.4382,13.8727,1020.22
21290,0.105213,9.66045,0.0286944,5.88,-7.42,-8.96,-23.0014,-46.2447,13.7102,1020.22
21296,0.0382592,9.90435,-0.224773,8.47,-8.26,-9.17,-23.3501,-47.6633,12.0552,1020.25
21302,0.186514,9.87087,-0.291726,9.17,-6.23,-9.31,-22.9433,-44.641,14.6115,1020.25
21308,0.0382592,9.87087,-0.353898,8.54,-4.48,-10.29,-22.3331,-45.0727,14.9957,1020.21
21314,-0.0286944,9.76088,-0.196078,10.71,-5.39,-10.64,-22.4784,-47.8792,12.2916,1020.21
21320,-0.0334768,9.82305,-0.306074,12.11,-6.44,-11.34,-22.9433,-46.5839,12.7054,1020.26
21326,0.0573888,9.94261,-0.564323,11.76,-6.02,-12.39,-22.8561,-44.9185,13.2521,1020.26
21332,-0.0191296,9.96174,-0.607365,11.13,-4.34,-12.04,-22.246,-47.725,12.9566,1020.26
21338,0.0095648,9.86131,-0.49737,11.62,-2.8,-13.72,-22.0135,-47.8483,11.8631,1020.25
21344,-0.0621712,9.84696,-0.655189,10.92,-4.48,-14.07,-22.1297,-44.641,13.9614,1020.25
21350,-0.11956,10.0574,-0.81779,9.94,-3.08,-13.72,-22.5075,-46.954,14.0057,1020.22
21356,-0.0526064,10.0239,-1.00909,8.05,0.14,-13.65,-22.6527,-48.6502,12.7497,1020.22
21362,-0.0621712,9.99522,-0.942133,4.83,2.38,-12.53,-22.5365,-45.0727,12.8532,1020.21
21368,-0.23912,9.94739,-0.932568,3.71,3.22,-12.18,-22.7399,-45.6279,15.0401,1020.21
21374,-0.234338,9.98087,-0.73649,0.91,4.83,-12.11,-22.8561,-48.4034,13.2226,1020.2
21380,-0.181731,9.76088,-0.650406,0.42,7.7,-11.69,-22.6527,-46.1213,13.8432,1020.2
21386,-0.267814,9.86131,-0.473458,-1.33,8.12,-12.04,-22.6237,-44.5176,13.9466,1020.2
21392,-0.133907,9.76088,-0.903874,-1.61,10.01,-11.13,-22.3912,-47.9408,13.5329,1020.24
21398,-0.329986,9.77523,-0.640842,-1.33,9.59,-10.71,-22.798,-47.2315,13.6067,1020.24
21404,0.162602,10.1674,-0.626494,-5.67,14.56,-11.13,-22.3041,-44.5485,14.0057,1020.23
21410,-0.569106,9.69392,-0.588235,-8.4,16.73,-9.45,-22.3041,-46.6456,14.7002,1020.23
21416,-0.612147,9.82783,-0.449546,-7.49,13.51,-10.57,-22.275,-48.2801,14.449,1020.23
21422,-0.545194,9.95218,-0.449546,-8.54,12.39,-10.15,-22.5656,-46.0288,12.8827,1020.23
21428,-0.612147,9.85653,-0.712578,-9.52,11.48,-8.96,-22.9143,-45.412,14.2865,1020.22
21434,-0.645624,9.8374,-0.473458,-11.55,10.36,-8.61,-23.0014,-48.866,11.7892,1020.22
21440,-0.827355,9.8087,-0.301291,-11.83,6.72,-8.68,-22.769,-46.7381,12.7349,1020.27
21446,-0.688666,9.96174,-0.210426,-12.46,4.2,-8.33,-21.6939,-44.1784,15.1435,1020.27
21452,-1.06169,10.1769,-0.650406,-12.32,-0.14,-8.54,-21.8682,-47.3549,13.9466,1020.27
21458,-0.516499,10.483,-0.81779,-18.13,-3.36,-10.15,-22.5656,-47.7558,11.8188,1020.23
21464,-0.25825,10.4639,-0.664754,-20.23,-4.97,-11.41,-22.0135,-45.2578,13.459,1020.23
21470,-0.583453,9.93783,-0.449546,-19.04,-6.65,-12.32,-22.5365,-46.6764,13.8727,1020.23
21476,-0.33955,10.0717,-0.310856,-20.3,-6.09,-12.67,-23.1177,-48.0334,12.8532,1020.23
21482,-0.315638,10.1722,-0.416069,-18.62,-7.77,-14.14,-21.5486,-45.8437,13.9614,1020.26
21488,-0.320421,10.1435,-0.353898,-20.09,-8.68,-15.68,-22.4493,-45.9054,13.8727,1020.26
21494,0.473458,10.3922,0.349115,-18.62,-7.56,-19.32,-21.8682,-48.7735,12.927,1020.28
21500,0.813008,10.1387,1.1956,-10.08,-4.83,-25.06,-21.8973,-47.139,12.6315,1020.28
21506,0.61693,10.2343,1.24342,-4.27,-4.2,-30.38,-21.229,-45.5662,13.6215,1020.28
21512,0.0908656,10.1243,0.492587,-0.21,-3.43,-33.18,-21.9554,-48.5268,12.0109,1020.27
21518,0.0908656,10.5069,0.449546,0.56,-3.57,-36.26,-21.3452,-48.2801,12.1143,1020.27
21524,0.382592,10.8274,0.951698,2.66,-4.76,-40.39,-20.9675,-45.8129,14.4342,1020.24
21530,0.49737,10.5022,0.693448,7.35,-1.96,-45.15,-21.0546,-47.5091,14.1683,1020.24
21536,0.286944,10.6839,0.11956,11.55,-1.96,-49.56,-21.1999,-49.7912,10.2082,1020.27
21542,0.186514,11.4156,-0.267814,11.83,-3.92,-54.81,-20.4735,-47.1698,12.4099,1020.27
21548,0.196078,11.6738,-0.129125,9.8,-3.78,-59.08,-19.8342,-46.8923,13.4885,1020.24
21554,0.411286,11.5686,0.215208,9.73,-2.45,-65.03,-18.9916,-49.0511,12.0109,1020.24
21560,0.310856,11.4778,0.0047824,12.53,-2.8,-70.42,-19.2822,-48.3418,12.8532,1020.24
21566,0.229555,11.803,-0.0526064,13.23,-3.43,-76.79,-19.3984,-46.5839,12.8827,1020.24
21572,0.148254,11.7312,0.023912,13.58,-4.06,-82.39,-18.701,-50.0996,12.7645,1020.24
21578,0.0669536,11.7073,0.0621712,15.26,-5.04,-87.99,-18.178,-49.9146,11.6563,1020.26
21584,-0.0095648,11.8938,0.0669536,17.85,-5.95,-94.71,-17.7422,-47.9408,13.4738,1020.26
21590,-0.10043,12.0947,0.430416,18.34,-9.59,-101.43,-16.9286,-49.3595,13.1339,1020.25
21596,0.0908656,11.6643,0.564323,19.81,-8.68,-106.82,-17.132,-50.6239,11.937,1020.25
21602,0,11.296,0.832138,25.83,-8.89,-112.14,-16.6671,-48.7427,10.9913,1020.25
21608,-0.387374,11.9799,0.750837,31.71,-12.25,-116.2,-16.0859,-49.0819,13.8284,1020.25
21614,-0.492587,12.4199,0.129125,33.25,-16.17,-121.52,-14.9527,-50.8706,12.4837,1020.27
21620,-0.291726,12.3721,-0.21999,36.19,-19.67,-128.1,-14.4006,-49.8529,13.6215,1020.27
21626,-0.301291,12.4964,-0.511717,38.08,-22.82,-133.84,-13.7614,-48.7118,14.5672,1020.27
21632,-0.21999,13.2425,-0.0573888,40.53,-29.68,-141.47,-13.1221,-50.5622,15.2617,1020.26
21638,1.36298,14.4381,-0.463893,34.37,-21,-153.09,-12.8897,-51.4566,13.7545,1020.26
21644,0.664754,14.3711,-0.444763,39.97,-20.58,-165.41,-11.7565,-49.0202,15.6016,1020.24
21650,0.636059,14.7441,-0.593018,38.85,-25.48,-179.55,-11.001,-50.3155,14.8332,1020.24
21656,1.07604,14.8207,-1.40124,41.02,-27.16,-193.13,-8.93795,-52.9677,14.8036,1020.24
21662,1.51602,15.7819,-1.44428,41.37,-28.56,-211.54,-9.11229,-50.6547,14.2274,1020.24
21668,0.961262,17.7236,-2.91726,38.99,-33.53,-231.14,-7.51417,-49.9454,15.4095,1020.26
21674,0.655189,18.4409,-5.10282,29.89,-42.49,-254.24,-5.0734,-53.0294,16.2369,1020.26
21680,0.263032,18.6992,-5.92061,23.52,-52.78,-276.22,-3.85302,-51.6725,15.4242,1020.26
21686,1.83166,20.1961,-4.33764,17.92,-59.78,-295.68,-3.73679,-50.6239,17.2713,1020.24
21692,3.37159,20.4687,-3.28551,11.13,-67.76,-322.98,-0.453375,-53.0602,16.3699,1020.24
21698,4.68675,20.6169,-2.64945,11.48,-59.85,-349.3,0.592669,-54.263,15.9119,1020.23
21704,1.69775,24.4333,-0.511717,35.42,-44.52,-371.42,2.16174,-51.95,15.9266,1020.23
21710,1.08082,25.6719,-2.12817,25.69,-74.27,-403.06,4.45722,-53.0602,17.8919,1020.23
21716,3.87374,21.9369,-6.59015,27.16,-65.17,-431.69,7.45007,-54.5405,15.4242,1020.23
21722,-1.08082,24.5433,-0.200861,34.16,-66.99,-449.82,8.96102,-51.5799,17.9953,1020.25
21728,0.913438,24.8876,-0.626494,29.4,-80.78,-463.75,11.1984,-50.9323,18.5421,1020.25
21734,-2.3912,27.1019,-1.09039,59.43,-54.6,-462.63,15.092,-52.9369,18.35,1020.25
21740,-3.79244,30.44,-0.224773,41.72,-87.36,-471.59,16.2252,-51.8575,17.4486,1020.23
21746,3.03204,23.2999,-3.51506,19.39,-101.57,-479.01,17.5328,-48.8044,18.3943,1020.23
21752,3.29507,19.8565,-3.38116,51.8,-72.45,-472.5,21.4845,-50.4697,18.2022,1020.24
21758,-2.14252,27.934,-4.33285,70.91,-70.98,-471.45,24.2449,-48.9586,17.7294,1020.24
21764,0.47824,30.923,-7.10665,40.74,-110.25,-472.71,24.1287,-45.4737,19.2513,1020.22
21770,5.47585,27.4558,-11.1,8.26,-118.16,-458.15,27.5283,-44.9185,18.9263,1020.22
21776,8.73744,21.0617,-7.12578,-9.31,-149.38,-456.96,32.0902,-45.7512,17.5225,1020.22
21782,12.7068,15.1363,-9.78957,-26.04,-168.56,-430.36,31.7125,-42.8831,17.8919,1020.22
21788,15.1937,12.6686,-16.4993,-102.55,-146.72,-403.9,33.1653,-40.3234,17.1531,1020.19
21794,1.91774,-1.64036,-10.11,-134.05,-90.09,-333.83,37.8434,-40.8785,16.4586,1020.19
21800,-5.27021,-2.86944,4.17504,-74.9,-59.22,-161.21,37.4367,-40.6318,15.6607,1020.19
21806,3.23768,2.60641,4.89718,-30.31,-55.79,-58.17,35.0831,-38.7506,15.2765,1020.23
21812,6.97274,5.20325,0.263032,-1.4,-11.13,23.45,37.4948,-39.5216,14.9366,1020.23
21818,5.92539,6.50885,0.894309,25.2,5.04,92.89,37.611,-40.015,14.582,1020.23
21824,8.45528,6.41798,-2.28599,34.16,22.47,142.8,35.548,-39.6758,16.5916,1020.23
21830,8.96222,6.16451,-2.80249,38.01,37.38,169.4,35.5189,-40.1692,15.6902,1020.19
21836,9.13438,6.58536,-3.61071,35.14,50.96,183.47,37.1751,-42.6672,15.439,1020.19
21842,8.48398,7.32185,-3.46724,27.3,58.87,186.62,33.8336,-42.6056,15.173,1020.21
21848,7.10665,6.85796,-3.20899,15.96,55.93,183.54,32.7295,-41.8654,17.1679,1020.21
21854,6.49928,5.56193,-2.73075,12.46,57.05,177.8,33.2525,-43.4074,16.0596,1020.21
21860,5.45672,4.00287,-1.64036,10.57,54.46,175.63,31.451,-43.8083,17.1531,1020.19
21866,5.05978,3.41942,-1.53993,10.57,51.8,176.89,29.0392,-42.7289,18.0101,1020.19
21872,4.57676,3.19464,-1.58776,6.58,50.47,181.79,31.451,-44.7335,17.1383,1020.2
21878,4.06026,3.59158,-1.76471,1.12,50.4,191.52,30.8989,-45.9363,16.4143,1020.2
21884,3.29507,4.06026,-1.58776,-3.29,48.58,203.28,27.4992,-45.0419,18.3795,1020.21
21890,2.80249,4.43807,-1.5208,-9.17,45.57,218.89,26.86,-45.8746,17.36,1020.21
21896,2.42946,4.79675,-1.56384,-14.42,43.89,237.3,27.906,-48.2492,16.7098,1020.25
21902,2.20469,5.21282,-1.6308,-20.16,39.97,258.44,24.5936,-47.2007,17.4338,1020.25
21908,2.36729,5.31325,-1.72166,-25.06,39.41,278.81,23.0245,-47.4782,18.1431,1020.25
21914,1.75036,5.37542,-1.53993,-26.11,35.63,297.29,23.5185,-50.0379,16.7541,1020.19
21920,1.75514,5.25108,-1.4395,-27.37,30.03,314.58,21.4845,-50.5005,17.6407,1020.19
21926,1.75036,5.06934,-1.28647,-24.92,24.99,328.37,18.3464,-49.2978,17.8328,1020.19
21932,1.72645,4.88761,-1.09517,-21.63,17.85,338.45,18.8984,-51.2099,16.6359,1020.19
21938,1.87948,4.82544,-1.16691,-14.98,12.74,347.76,17.2422,-52.6902,17.3747,1020.21
21944,1.83166,4.98804,-0.97561,-5.04,8.05,352.59,12.9127,-51.0865,17.1679,1020.21
21950,2.1186,5.69106,-1.05213,1.61,3.99,356.3,12.9127,-51.9192,17.3008,1020.19
21956,2.3912,5.92539,-0.669536,10.57,1.89,359.24,11.6342,-54.4789,16.4438,1020.19
21962,2.63032,7.01578,-0.760402,17.15,0.35,360.85,8.14743,-52.4434,16.8723,1020.2
21968,2.85509,7.60402,-0.779531,22.96,0.63,362.88,6.60742,-52.0734,17.2122,1020.2
21974,2.93161,8.92874,-0.927786,27.93,2.52,363.93,5.50326,-54.7873,15.0253,1020.2
21980,2.75466,9.84218,-1.0043,31.22,3.36,365.89,3.90514,-53.7696,15.572,1020.2
21986,2.19512,11.3582,-1.24342,32.9,4.69,368.76,0.708897,-51.1482,17.0349,1020.2
21992,1.61167,12.1521,-1.09039,34.65,4.06,371.7,0.185875,-53.8929,17.4338,1020.19
21998,1.10952,13.2281,-1.21951,36.89,3.22,376.25,-1.47036,-54.2322,16.2369,1020.19
22004,0.71736,14.2994,-1.50167,37.52,1.26,381.08,-3.9983,-50.408,18.084,1020.16
22010,0.181731,15.3659,-1.49689,39.83,0.14,384.09,-6.41001,-51.4257,18.0988,1020.16
22016,-0.176949,15.8011,-1.44428,40.39,-4.62,385.84,-7.36889,-52.3818,15.971,1020.21
22022,-0.334768,16.9249,-1.72166,43.26,-6.51,383.53,-9.92588,-50.0688,17.6998,1020.21
22028,-0.927786,18.3166,-1.97513,44.17,-9.24,378.98,-11.9599,-49.3903,17.6555,1020.21
22034,-1.35342,19.2013,-1.64036,44.94,-14.56,371.84,-13.4999,-50.2847,17.0792,1020.2
22040,-1.42994,19.6126,-1.35342,50.54,-16.87,361.41,-15.6791,-48.3726,17.8476,1020.2
22046,-1.27212,20.9469,-1.67384,56.77,-20.3,348.6,-17.161,-46.0288,18.8819,1020.18
22052,-1.46341,22.3386,-1.91774,60.13,-22.82,336.98,-17.7422,-47.2624,19.0001,1020.18
22058,-2.1186,25.0406,-1.9034,71.12,-16.1,333.83,-19.5146,-46.954,18.4239,1020.16
22064,-2.33859,26.2219,-1.22908,67.27,-7.42,333.13,-21.7229,-42.7906,20.4039,1020.16
22070,-2.22382,27.5514,-0.83692,74.2,8.05,336.49,-23.0014,-42.4822,20.0345,1020.19
22076,-2.16643,28.1205,-0.373027,73.85,30.59,347.69,-24.338,-44.4868,19.4434,1020.19
22082,-3.27116,29.3352,-0.703013,68.95,52.29,353.5,-25.2679,-39.5524,19.6798,1020.19
22088,-5.95887,28.5701,1.07604,64.26,71.47,356.3,-26.7207,-37.7329,20.2561,1020.2
22094,-8.49833,28.0631,2.07556,73.92,87.36,352.94,-29.2777,-39.2749,19.4139,1020.2
22100,-12.9364,29.0913,1.21951,77.77,96.25,345.87,-31.3407,-37.6712,19.8867,1020.22
22106,-16.1167,29.8374,0.291726,75.11,101.43,338.03,-31.5151,-33.8162,20.7881,1020.22
22112,-20.1578,30.3491,-1.65949,62.3,99.96,331.8,-32.9388,-34.7723,19.9606,1020.22
22118,-22.2955,29.8852,-3.20421,40.32,104.79,316.68,-35.583,-33.292,18.7194,1020.22
22124,-24.0076,28.0153,-6.77666,2.24,104.86,293.58,-34.8856,-29.1594,18.9263,1020.21
22130,-25.8154,26.4419,-10.3348,-35.77,99.4,269.01,-35.9607,-28.9744,19.3991,1020.21
22136,-31.9177,21.7934,-12.6877,-90.72,81.97,245.07,-38.6921,-30.5781,17.6555,1020.21
22142,-35.8345,14.9641,-9.5935,-121.38,58.52,211.4,-37.7623,-27.4941,18.4977,1020.21
22148,-39.6652,2.77857,-0.301291,-108.92,53.69,178.08,-38.6921,-25.3661,16.7393,1020.21
22154,-41.8173,-3.36681,4.38068,-49.7,54.04,139.37,-40.7842,-27.8642,15.705,1020.23
22160,-47.3218,-6.18843,8.78049,42.14,13.51,107.66,-41.1329,-26.6614,16.6655,1020.23
22166,-46.9632,-2.95552,7.72836,143.64,-51.03,63.63,-39.8253,-24.1326,17.1235,1020.23
22172,-37.6327,7.90053,2.56337,168.35,-75.25,3.64,-40.5227,-25.6745,16.6655,1020.23
22178,-31.0043,13.1373,-0.683883,128.24,-67.34,-64.33,-41.1619,-26.3839,16.9167,1020.23
22184,-24.9833,16.8054,-1.10473,115.71,-40.81,-102.83,-39.0117,-24.4101,17.4782,1020.23
22190,-20.4065,18.1014,1.73123,159.39,-172.48,-163.17,-38.7211,-24.441,18.7785,1020.21
22196,17.0445,74.8111,-3.46724,-19.67,141.96,-302.54,-39.7962,-27.8642,19.3548,1020.21
22202,-28.6083,33.5438,-24.9785,-253.61,-147,-321.65,-37.6751,-27.9258,18.7637,1020.21
22208,25.6528,14.6437,-13.5629,-405.79,-27.3,-275.52,-35.7864,-29.2828,19.0001,1020.21
22214,16.3845,-10.8082,7.72836,-244.3,39.48,-304.08,-36.1351,-33.2303,17.094,1020.21
22220,17.2166,-15.8106,21.4299,-4.69,106.89,-259.07,-35.7864,-33.8162,15.8232,1020.23
22226,7.04926,-2.2286,6.02104,126.84,127.82,-281.82,-33.5781,-32.7368,16.8723,1020.23
22232,-0.210426,13.4003,5.86322,150.78,66.5,-280.35,-33.4038,-36.1601,16.0301,1020.25
22238,-3.82592,12.946,0.923003,69.93,29.19,-262.01,-33.52,-37.702,15.5572,1020.25
22244,-5.34194,19.5265,2.59684,54.81,66.5,-309.89,-31.2826,-36.4376,16.5325,1020.21
22250,-11.6691,23.869,-3.76375,-20.65,78.54,-292.04,-30.5562,-38.3497,15.7493,1020.21
22256,-12.023,18.0966,4.71545,-113.61,3.99,-268.45,-31.1373,-41.9888,15.3947,1020.21
22262,-13.2329,13.4912,2.96031,-79.8,-57.54,-232.26,-28.0573,-40.3543,15.9266,1020.23
22268,-9.57915,12.1999,3.55332,-43.4,-121.38,-218.47,-27.0984,-39.645,16.961,1020.23
22274,-3.61071,18.4696,-4.5385,-58.52,-117.46,-171.08,-27.0984,-43.5308,16.695,1020.22
22280,-1.033,19.6748,-8.07747,-84.63,-42.98,-149.8,-25.3841,-43.9934,15.1435,1020.22
22286,-1.57819,13.5964,-5.87757,-107.59,69.72,-49.49,-25.2388,-41.3103,14.6706,1020.24
22292,-6.61406,3.04161,5.52367,-2.8,42.77,-34.51,-25.5875,-42.7906,14.3603,1020.24
22298,-2.56337,12.9077,-2.12817,14.21,-7.14,-65.8,-24.8611,-45.5045,13.6363,1020.23
22304,-1.62123,17.9914,-5.84888,-69.37,-9.38,-55.51,-25.0645,-42.5747,14.715,1020.23
22310,0.0908656,8.8044,-0.306074,-77.07,31.64,-22.26,-25.1516,-42.6672,14.715,1020.22
22316,0.946915,3.79723,2.99856,-18.48,43.26,-31.22,-24.8901,-46.3063,12.5281,1020.22
22322,-3.34768,9.26829,4.29938,-11.69,2.45,-31.78,-24.5414,-43.7158,13.2521,1020.22
22328,-2.8264,10.8513,-0.148254,-18.41,-13.02,-17.5,-23.5244,-42.513,14.1387,1020.19
22334,-0.425634,9.41655,0.679101,-12.88,-5.04,-12.04,-24.7158,-45.7512,13.3112,1020.19
22340,-0.277379,8.76614,1.36298,-7.14,-0.77,-10.5,-24.6286,-45.1036,12.9861,1020.24
22346,-0.396939,9.26351,0.430416,-3.29,-5.81,-6.3,-24.8901,-42.6672,13.5329,1020.24
22352,0.0573888,9.51698,-1.21951,-2.31,-5.11,-6.58,-23.786,-44.9185,14.1239,1020.23
22358,0.401722,10.2822,-0.946915,-6.44,-1.05,-4.55,-24.6867,-46.0596,12.0404,1020.23
22364,0.109995,10.2391,-0.621712,-6.3,0.91,-3.22,-24.1928,-43.3149,13.2964,1020.25
22370,0.0143472,10.5787,-0.769966,-5.6,0.28,-6.86,-23.4663,-43.685,13.6067,1020.25
22376,0.0143472,10.2056,-0.545194,-10.29,1.82,-6.3,-24.309,-47.4166,12.5724,1020.25
22382,0.25825,9.41655,0.234338,-5.95,1.26,-8.05,-23.9022,-44.6718,12.0996,1020.24
22388,-0.35868,10.0909,0.0813008,-3.22,3.36,-9.94,-24.1928,-43.4691,14.316,1020.24
22394,-0.286944,9.55045,0.530846,-0.07,-2.52,-9.45,-24.5414,-46.183,12.9861,1020.2
22400,0.047824,9.80392,-0.0908656,5.32,-4.2,-5.04,-23.8731,-45.6279,13.1782,1020.2
22406,-0.071736,10.2678,-0.47824,2.66,-5.95,-7.56,-24.0184,-43.3457,14.2569,1020.25
22412,0.205643,9.53611,-0.124342,7.91,-3.99,-6.37,-24.3671,-44.641,14.316,1020.25
22418,-0.157819,9.8087,0.047824,9.1,-5.53,-7.56,-23.9894,-46.6456,13.9762,1020.25
22424,0.181731,9.80392,-0.444763,12.32,-7.56,-8.05,-23.7278,-43.4691,13.7841,1020.25
22430,0.325203,10.0287,-0.401722,10.15,-6.02,-7.21,-23.292,-43.7158,13.6659,1020.26
22436,0.396939,9.82783,-0.573888,10.71,-4.55,-8.96,-24.0475,-47.6941,13.9909,1020.26
22442,0.344333,9.5648,-0.291726,11.06,-4.34,-10.57,-23.6697,-44.1167,13.6363,1020.26
22448,0.320421,9.82783,-0.540411,10.99,-2.52,-9.17,-23.9603,-43.4691,13.9762,1020.21
22454,0.172166,9.92826,-0.583453,10.99,-1.54,-10.15,-23.9312,-46.6147,14.0944,1020.21
22460,0.095648,9.97609,-0.784314,10.64,-1.47,-10.92,-24.2509,-45.9979,14.1683,1020.24
22466,-0.0573888,9.99043,-0.631277,7.7,-2.8,-10.99,-23.1177,-43.099,14.7593,1020.24
22472,-0.114778,9.82783,-0.588235,9.8,-1.33,-10.01,-23.7278,-45.0111,14.9514,1020.22
22478,-0.11956,9.76566,-0.435198,10.78,-1.33,-10.71,-24.2218,-46.8615,13.5476,1020.22
22484,-0.023912,9.98565,-0.793878,10.71,-2.31,-11.13,-23.7278,-43.8392,15.1139,1020.23
22490,0.0573888,10.1291,-0.932568,8.05,0.07,-10.5,-23.7569,-43.3149,13.7988,1020.23
22496,0.21999,9.93783,-0.875179,5.88,3.64,-10.85,-23.5826,-46.8615,13.2669,1020.23
22502,-0.153037,9.93783,-0.636059,3.64,6.58,-9.59,-22.5656,-45.3503,13.3408,1020.24
22508,-0.0526064,9.86131,-0.492587,2.38,6.65,-9.87,-23.2048,-43.2532,15.1583,1020.24
22514,-0.105213,9.6461,-0.435198,2.52,7.21,-9.24,-23.4082,-46.9231,13.4738,1020.21
22520,-0.0047824,9.85653,-0.406504,1.54,9.03,-9.17,-23.3211,-46.0905,12.07,1020.21
22526,0.25825,10.77,-0.487805,-9.87,14.42,-8.82,-23.2629,-43.3457,15.5129,1020.21
22532,0.215208,9.73697,-1.14778,-8.89,19.53,-8.82,-22.7109,-46.183,15.2617,1020.21
22538,-0.73649,9.61741,0.047824,-5.53,13.51,-8.26,-23.7569,-46.7998,13.3703,1020.23
22544,-0.549976,9.46915,0.0382592,-2.59,8.47,-7.35,-23.0886,-44.3326,14.8184,1020.23
22550,-0.205643,9.84696,-0.45911,-2.59,8.26,-7.14,-23.815,-45.1344,14.9514,1020.23
22556,-0.095648,10.0813,-0.569106,-5.25,9.31,-7.42,-23.6988,-46.8923,12.0404,1020.2
22562,-0.071736,9.93783,-0.688666,-7.42,10.57,-7.98,-23.3792,-45.5353,11.5233,1020.2
22568,-0.0669536,9.89957,-0.707795,-7.77,10.36,-8.33,-23.0886,-43.6541,13.6659,1020.22
22574,-0.353898,10.0191,-0.636059,-8.82,9.8,-8.89,-23.1758,-46.2755,13.06,1020.22
22580,-0.277379,9.87087,-0.49737,-9.24,9.03,-9.17,-23.815,-46.5531,12.4394,1020.24
22586,-0.310856,9.93783,-0.530846,-9.24,8.05,-9.24,-23.4663,-44.2709,13.6954,1020.24
22592,-0.449546,10.1865,-0.57867,-11.27,6.09,-9.38,-23.0305,-46.5531,14.4933,1020.23
22598,-0.516499,10.7556,-0.612147,-12.53,-1.54,-11.41,-22.6527,-47.7558,12.4099,1020.23
22604,-0.425634,10.7556,-1.04735,-18.2,-3.85,-11.55,-23.1177,-45.4737,13.6067,1020.25
22610,-0.406504,10.0383,-0.712578,-21.7,-3.71,-11.76,-22.6818,-44.7027,13.9909,1020.25
22616,-0.621712,9.78957,-0.387374,-20.93,-7.49,-11.83,-23.6697,-48.3418,11.4346,1020.25
22622,-0.306074,9.8374,-0.0430416,-19.11,-9.17,-12.32,-23.292,-45.8437,11.08,1020.25
22628,-0.373027,9.99043,-0.703013,-21.63,-9.8,-11.97,-22.9724,-44.3326,13.0305,1020.25
22634,-0.310856,10.1052,-0.559541,-22.26,-12.04,-12.67,-22.7109,-47.2315,12.8532,1020.21
22640,-0.196078,10.0383,-0.349115,-21.84,-13.44,-14.07,-22.6818,-47.6633,12.4394,1020.21
22646,-0.0860832,10.33,-0.0765184,-20.72,-15.89,-15.26,-22.5946,-44.2709,13.2817,1020.25
22652,0.669536,10.7891,0.593018,-17.01,-15.82,-20.02,-22.5075,-46.8923,12.2473,1020.25
22658,1.13343,10.7939,0.774749,-14.63,-11.9,-25.41,-22.4203,-48.095,11.3755,1020.23
22664,2.94596,11.1765,3.18986,-0.07,-7.21,-38.57,-21.9263,-45.1961,13.0157,1020.23
22670,2.02774,11.6786,0.784314,1.82,4.27,-48.37,-21.752,-45.8746,12.6906,1020.23
22676,0.248685,11.3534,-0.980392,-3.22,9.24,-51.73,-21.229,-48.8044,10.7549,1020.23
22682,-0.368245,11.0856,0.153037,-2.1,0.98,-55.79,-21.5486,-47.2624,12.4837,1020.23
22688,0.191296,11.0091,0.593018,3.92,-6.3,-61.11,-21.229,-44.1784,11.9666,1020.25
22694,0.588235,11.5017,0.291726,6.72,-7.07,-66.36,-20.9965,-48.866,10.5037,1020.25
22700,0.879962,11.8795,0.506934,6.3,-4.2,-72.73,-20.6188,-48.1567,10.4741,1020.22
22706,0.899091,11.7073,0.535629,6.72,-0.98,-78.47,-20.4154,-46.183,12.602,1020.22
22712,0.071736,11.4825,0.353898,8.05,-0.77,-82.95,-20.1829,-47.725,11.4198,1020.23
22718,-0.186514,11.2195,0.640842,13.23,-4.97,-87.64,-19.1369,-50.4697,11.1539,1020.23
22724,-0.167384,11.3821,1.20038,19.95,-10.64,-93.1,-19.3693,-47.0465,12.1143,1020.23
22730,0.263032,11.7264,1.00909,23.87,-11.97,-98.56,-18.9625,-47.1082,13.5476,1020.24
22736,0.760402,12.1377,1.3869,26.46,-9.73,-105.49,-18.0618,-49.6987,11.2425,1020.24
22742,0.583453,11.999,1.21951,30.45,-3.71,-112.77,-17.8584,-48.5268,12.336,1020.24
22748,0.047824,11.5973,0.961262,36.82,-8.19,-119.49,-17.0448,-46.8923,13.0896,1020.24
22754,-0.109995,12.1043,0.45911,42.98,-14.35,-124.6,-16.7542,-49.9146,12.602,1020.24
22760,0.0860832,12.8073,-0.549976,42.91,-18.83,-132.23,-15.0399,-50.0996,11.804,1020.24
22766,-0.0621712,13.4146,-1.26255,43.54,-23.17,-138.39,-15.3886,-48.0025,11.1686,1020.24
22772,0.047824,14.6007,-1.39646,43.4,-29.47,-146.3,-14.3135,-49.2978,14.7741,1020.24
22778,0.726925,15.4806,-1.46341,39.06,-38.36,-158.48,-13.3546,-52.1659,12.7349,1020.22
22784,1.80775,15.8202,-1.3056,31.71,-35.21,-175.56,-12.1342,-49.2361,14.3603,1020.22
22790,1.12386,15.0741,-1.91774,30.8,-29.82,-189.07,-11.4368,-49.4212,14.3751,1020.22
22796,1.06648,16.0976,-1.56384,32.83,-35.63,-206.08,-10.6523,-52.6902,14.6411,1020.22
22802,0.315638,17.0493,-4.57197,34.23,-42.14,-222.95,-9.02512,-50.8089,14.8775,1020.22
22808,0.205643,18.7757,-6.56624,22.82,-50.26,-241.08,-7.97908,-49.6679,15.7641,1020.23
22814,0.683883,20.6504,-7.37446,2.73,-55.51,-262.43,-6.26473,-52.9986,15.971,1020.23
22820,2.06121,20.5595,-5.97322,-18.34,-67.41,-282.8,-4.95717,-53.3995,15.0844,1020.22
22826,3.32855,19.9904,-3.48637,-21.42,-69.37,-306.53,-3.73679,-51.3949,15.5277,1020.22
22832,3.75418,21.5304,-2.38164,-14.07,-59.78,-327.53,-1.58659,-53.3995,17.4634,1020.24
22838,3.27116,21.6356,0.416069,-2.66,-61.95,-357.7,0.185875,-55.219,14.6115,1020.24
22844,2.61597,21.626,-0.286944,17.64,-64.61,-386.05,1.92928,-52.6285,16.2074,1020.24
22850,1.55428,22.7977,-3.93113,14.28,-80.22,-407.26,3.9342,-51.765,15.2026,1020.23
22856,3.32377,21.736,-6.35103,14.28,-81.55,-426.51,7.04327,-54.7873,15.7641,1020.23
22862,1.27212,27.341,-2.00383,4.55,-78.96,-443.52,9.25159,-52.3509,15.2913,1020.21
22868,2.70684,27.4414,-1.36298,-17.57,-87.99,-459.34,9.54215,-50.408,16.2074,1020.21
22874,-2.61119,25.3324,-2.65423,17.15,-57.96,-458.71,14.6271,-52.8752,15.3651,1020.21
22880,-5.58584,25.8776,-0.162602,17.43,-108.78,-459.83,16.5739,-52.4743,14.9366,1020.21
22886,4.42372,25.3802,-7.97704,2.31,-120.33,-457.66,17.5328,-50.2538,16.2665,1020.23
22892,6.66188,25.4854,-12.1043,-5.81,-81.97,-454.3,21.6588,-50.1305,16.7689,1020.23
22898,0.396939,29.0626,-6.91057,-26.25,-95.41,-461.3,23.9253,-49.9454,15.4538,1020.23
22904,4.07939,23.0177,-7.94357,-41.3,-140.7,-471.1,25.0875,-46.6764,15.2765,1020.24
22910,6.60449,17.8384,-8.73744,-30.8,-155.05,-464.52,27.383,-45.3503,14.8627,1020.24
22916,9.26829,13.4099,-12.0947,-44.94,-163.03,-430.08,31.2766,-46.8615,13.3999,1020.19
22922,12.0134,11.1621,-14.2229,-94.57,-163.17,-392.91,31.9159,-44.0859,13.1782,1020.19
22928,8.03921,1.956,-12.7547,-149.52,-138.39,-358.19,32.5842,-42.2972,14.6263,1020.23
22934,-1.18125,-4.76327,-4.11765,-116.2,-67.9,-232.19,36.1872,-42.9448,12.8679,1020.23
22940,0.750837,-1.6834,10.0383,-39.2,-60.41,-116.34,36.9427,-42.7906,11.6415,1020.19
22946,5.24151,1.73601,3.46724,11.13,-34.86,-36.61,34.9087,-41.2795,11.5676,1020.19
22952,4.92109,5.63845,-0.176949,43.75,-12.53,35.14,35.8676,-41.557,12.4542,1020.19
22958,7.2549,5.79627,-2.7451,55.86,10.43,93.45,36.9717,-42.6981,10.7697,1020.19
22964,9.36394,4.44285,-2.44381,61.81,37.03,124.11,34.1532,-42.2663,13.3999,1020.19
22970,9.89479,5.55237,-2.64945,64.68,53.06,139.16,33.3106,-42.2663,14.05,1020.18
22976,9.29699,7.14969,-3.79244,57.4,69.16,143.92,35.054,-44.7027,12.8384,1020.18
22982,8.34051,7.93878,-4.11765,42.91,80.08,138.74,33.9498,-43.5616,12.1587,1020.21
22988,6.9297,6.95839,-3.46724,30.17,83.02,129.99,30.957,-43.5616,15.4833,1020.21
22994,6.28886,5.62888,-2.47728,23.45,84.98,126.07,32.6713,-45.4737,13.7102,1020.19
23000,5.34672,3.9407,-1.96557,19.18,86.03,124.46,31.7415,-45.3811,14.2569,1020.19
23006,4.83022,3.63941,-2.26686,14.49,86.59,126.07,29.4751,-44.0242,16.3847,1020.19
23012,4.41416,3.42898,-2.41989,6.51,87.85,133.35,29.2426,-44.6101,16.1926,1020.19
23018,3.65375,3.48159,-2.07078,0.28,87.43,143.92,31.0442,-46.7998,15.7789,1020.19
23024,2.86944,3.45768,-1.77905,-3.15,83.86,158.9,27.4992,-45.8437,16.7246,1020.21
23030,2.70206,3.9933,-1.83166,-7.49,78.4,176.47,26.0464,-45.9979,17.5373,1020.21
23036,2.30033,4.14156,-2.23338,-11.2,81.06,197.89,27.383,-48.4343,15.572,1020.18
23042,1.59254,3.86418,-1.6021,-12.6,75.67,220.22,25.5815,-47.9717,14.5081,1020.18
23048,1.33907,4.08895,-1.64993,-15.47,67.97,241.08,22.9664,-46.9231,16.2369,1020.2
23054,1.32472,4.17982,-1.61645,-13.37,62.72,265.09,23.4603,-49.1436,17.227,1020.2
23060,1.06648,4.38068,-1.65949,-12.95,54.53,283.43,23.0245,-50.8089,15.5868,1020.18
23066,1.18125,4.26112,-1.53993,-9.66,45.85,298.55,19.2762,-49.3903,17.8032,1020.18
23072,1.23386,3.95504,-1.22429,-2.52,38.71,312.41,18.5498,-50.4697,15.7937,1020.18
23078,1.24342,4.60545,-1.37255,3.92,29.75,324.17,17.9396,-52.3509,15.6459,1020.19
23084,1.47298,5.1076,-1.67862,9.24,22.61,331.24,14.9467,-50.7781,16.5177,1020.19
23090,1.39646,5.64323,-1.1956,16.03,15.68,336.14,13.2614,-51.1173,17.0053,1020.21
23096,1.62123,6.31755,-1.30081,21.21,11.34,340.69,12.6512,-54.2013,15.4242,1020.21
23102,1.86992,7.15925,-1.18604,25.34,8.75,344.4,9.89083,-53.5228,14.7298,1020.2
23108,1.956,7.73792,-1.03778,28.7,7.63,348.46,6.57836,-52.721,16.7985,1020.2
23114,2.29077,8.60832,-1.12865,31.36,8.33,351.68,7.24667,-54.078,16.8576,1020.2
23120,2.49163,9.39263,-1.32951,32.69,11.13,353.99,5.12553,-55.2807,16.3404,1020.2
23126,2.26686,10.7365,-1.44428,33.04,13.79,356.44,2.01645,-52.1967,17.3008,1020.2
23132,1.91296,11.4012,-1.49211,34.16,16.24,359.66,1.31909,-52.6902,17.1679,1020.2
23138,1.0856,12.1808,-1.19082,37.24,16.38,363.86,-0.249977,-55.6199,18.808,1020.2
23144,0.69823,12.9125,-1.3582,40.39,17.64,368.83,-2.63263,-52.2892,17.4338,1020.18
23150,0.420851,13.5916,-1.33907,44.87,19.53,373.94,-5.33491,-50.994,18.0249,1020.18
23156,0.430416,13.9742,-1.18125,50.19,20.37,375.48,-6.06133,-53.8004,17.3008,1020.19
23162,0.368245,15.2176,-1.84601,52.22,20.65,372.89,-8.0953,-51.9192,16.6359,1020.19
23168,0.35868,16.2171,-2.18077,57.82,23.17,365.19,-10.7976,-49.1436,18.6898,1020.17
23174,-0.693448,18.9574,-2.86944,57.82,19.46,353.29,-12.4248,-52.4126,16.0301,1020.17
23180,-1.22429,20.8274,-3.43855,55.58,16.17,338.8,-13.7614,-51.4257,17.552,1020.17
23186,-1.87948,21.736,-3.53419,51.24,12.74,322.42,-15.7082,-46.2755,18.7785,1020.17
23192,-2.92683,22.3051,-3.36203,48.86,8.47,308,-16.6671,-46.7998,17.7737,1020.17
23198,-3.5868,22.7738,-2.88857,52.64,5.6,301.7,-18.3233,-48.5268,17.9658,1020.2
23204,-4.87805,23.5964,-1.90818,57.05,0.91,297.64,-19.6599,-44.826,17.7885,1020.2
23210,-5.14108,24.0029,-1.06169,69.44,2.24,301.91,-20.7641,-44.2092,19.9015,1020.2
23216,-4.47633,25.098,-0.47824,78.75,14.42,310.17,-22.4784,-45.8437,18.8967,1020.2
23222,-3.9407,26.9919,-1.10952,78.47,29.05,312.76,-24.2799,-43.4691,18.3056,1020.2
23228,-4.08895,29.6748,-1.65949,72.94,49.49,312.06,-24.6867,-40.2926,20.3743,1020.2
23234,-5.27977,30.4926,-1.72166,56.63,70.91,306.04,-26.5464,-41.8654,18.3056,1020.2
23240,-8.90005,27.7666,0.659971,41.16,85.47,300.16,-27.6796,-41.372,18.2909,1020.2
23246,-12.8407,24.4572,3.51985,59.78,95.41,302.19,-28.2316,-37.2703,18.9558,1020.2
23252,-17.7714,23.9216,3.46724,71.68,98.28,306.46,-30.4109,-36.8694,19.8276,1020.23
23258,-19.4739,24.1081,2.52032,75.46,101.5,310.8,-32.6192,-37.8254,18.483,1020.23
23264,-21.3391,25.0167,0.373027,66.29,108.08,312.2,-32.997,-33.7237,18.6455,1020.27
23270,-22.0373,25.4902,-1.99426,42.63,109.69,302.68,-33.5781,-31.8117,18.3352,1020.27
23276,-23.2999,26.351,-8.10617,0.42,110.95,281.47,-35.7573,-33.3536,17.5225,1020.23
23282,-26.2076,25.6911,-11.6547,-57.54,104.02,255.29,-37.1811,-31.2874,18.3943,1020.23
23288,-32.0277,18.2544,-10.1674,-103.39,84.42,228.55,-37.2683,-28.3268,17.1531,1020.22
23294,-34.2802,10.6121,-5.92539,-112.56,73.08,194.88,-39.0989,-29.7454,15.8823,1020.22
23300,-37.8288,0.942133,0.296509,-92.4,73.15,160.02,-39.9996,-28.7585,13.8579,1020.2
23306,-40.7795,-3.93592,3.98374,-26.74,63.14,127.68,-39.4766,-26.0446,15.3208,1020.2
23312,-44.1033,-6.56145,8.45528,62.58,16.66,94.57,-40.3774,-26.6306,15.0253,1020.2
23318,-38.7087,-0.750837,6.88666,147.91,-30.52,48.44,-40.2902,-27.4941,13.9909,1020.2
23324,-32.5873,6.36059,4.40459,172.62,-40.25,-9.24,-39.2732,-25.4895,15.8823,1020.2
23330,-25.1124,14.6868,-0.473458,129.08,-14.56,-62.3,-38.7793,-24.1326,16.2813,1020.23
23336,-22.4008,17.6566,-0.463893,109.41,-13.23,-113.96,-40.0577,-27.4324,15.7345,1020.23
23342,13.6155,70.3682,67.011,400.4,-338.38,-218.4,-38.4596,-26.6923,16.2517,1020.2
23348,-10.5261,60.4543,-14.9115,-185.92,105.35,-275.73,-37.3264,-25.8287,17.8624,1020.2
23354,-0.444763,23.8355,-43.1707,-361.06,-152.46,-294.07,-36.5128,-30.979,16.5325,1020.2
23360,21.8221,6.19321,0.765184,-444.29,-79.59,-268.38,-36.3385,-33.5695,15.1287,1020.2
23366,21.3534,-12.1138,23.5294,-221.97,76.37,-252.63,-35.3506,-32.0584,15.8084,1020.2
23372,13.979,-16.4945,13.3764,45.22,153.93,-246.12,-33.6653,-34.8956,14.4638,1020.18
23378,8.10617,4.11765,9.3209,116.69,181.86,-280.7,-33.6943,-37.9796,14.1091,1020.18
23384,-3.3429,12.8838,5.00717,108.5,152.6,-283.29,-33.0551,-35.5433,14.3012,1020.2
23390,-4.92587,16.4036,0.808226,28.49,68.81,-291.83,-31.9509,-37.2395,14.3899,1020.2
23396,-3.51985,17.451,-1.34864,9.38,74.55,-293.79,-31.2245,-40.0459,13.5772,1020.22
23402,-11.5208,18.6179,-0.344333,-67.83,81.34,-277.34,-30.3818,-40.601,12.9566,1020.22
23408,-14.8446,17.494,7.34098,-110.46,10.99,-267.33,-29.1615,-38.5347,12.469,1020.19
23414,-14.7872,11.999,6.92013,-87.71,-81.06,-230.86,-28.5513,-43.3766,12.469,1020.19
23420,-14.3281,17.5179,-0.0765184,-67.34,-139.3,-187.39,-27.4181,-44.3634,11.7006,1020.24
23426,-6.20756,20.2296,-10.7795,-76.37,-84.7,-121.03,-26.6626,-42.4514,13.0305,1020.24
23432,-0.932568,14.3137,-7.11621,-52.22,38.29,-53.69,-25.2969,-43.87,12.4099,1020.24
23438,1.82688,3.49115,0.200861,24.99,30.66,-68.81,-26.0233,-45.7204,11.7006,1020.22
23444,-3.24247,17.1975,-4.06504,-25.48,19.32,-59.71,-25.849,-44.0242,11.5528,1020.22
23450,-4.02678,15.1793,-0.726925,-101.43,13.51,-30.8,-26.2558,-42.9448,10.3559,1020.21
23456,0.679101,2.02774,5.31803,-29.96,28.21,-27.02,-26.1105,-46.5531,10.5037,1020.21
23462,-2.22382,7.03969,4.0746,13.16,3.43,-30.45,-25.7328,-45.2578,9.89787,1020.21
23468,-1.09995,11.3821,-1.43472,-15.68,-26.88,-30.24,-25.0935,-42.9448,11.1391,1020.21
23474,0.530846,10.263,-1.53993,-17.85,2.17,-20.44,-24.9192,-45.6587,10.415,1020.18
23480,-0.569106,8.06791,2.16164,-12.04,10.85,-19.46,-25.1516,-46.6456,9.75011,1020.18
23486,-2.31468,9.74653,0.827355,-1.96,2.66,-8.26,-24.8611,-43.4074,10.5333,1020.18
23492,-1.3582,9.89479,0.468675,-0.91,-11.34,-5.74,-24.8029,-44.3943,10.6958,1020.19
23498,0.47824,9.39742,-0.573888,-2.1,-9.17,-7.14,-24.6577,-46.3372,8.67143,1020.19
23504,-0.047824,9.99522,0.325203,-0.07,-1.68,1.05,-25.1516,-44.7335,10.5776,1020.22
23510,0.416069,10.3539,-0.841702,-3.5,-0.98,-1.54,-24.4833,-43.5616,10.8583,1020.22
23516,0.205643,10.7508,-1.26255,-3.71,0.42,-4.41,-25.7618,-46.3989,10.1638,1020.22
23522,0.181731,10.4161,-0.913438,-5.67,-2.87,-3.29,-25.2679,-45.8437,10.2082,1020.22
23528,-0.0621712,9.76088,0.0573888,-2.45,-0.28,-7.14,-24.6867,-43.685,11.3607,1020.21
23534,-0.310856,10.4591,-0.215208,-2.94,-2.38,-8.12,-25.5003,-46.0288,11.0209,1020.21
23540,0,10.1913,-0.267814,-1.33,-4.13,-8.33,-24.8901,-46.8615,10.5628,1020.21
23546,0.124342,9.74653,0.0191296,1.75,-3.92,-8.54,-24.8029,-43.7158,10.3559,1020.2
23552,-0.157819,10.067,0.0047824,2.03,-5.11,-9.38,-24.7158,-43.7775,10.7992,1020.2
23558,-0.200861,9.87087,-0.023912,4.34,-6.51,-8.12,-24.4543,-48.0025,8.8783,1020.21
23564,-0.047824,9.77044,0.095648,7,-7.63,-8.26,-24.4543,-45.3503,8.8783,1020.21
23570,-0.10043,9.85174,-0.200861,7.28,-7.35,-9.1,-24.4252,-44.0859,11.346,1020.22
23576,0.0191296,9.96652,-0.392157,7.49,-6.93,-8.19,-25.1226,-47.0773,9.55801,1020.22
23582,0.0382592,10.0335,-0.33955,5.81,-6.02,-8.61,-24.5414,-46.0596,10.5333,1020.22
23588,-0.109995,9.82783,-0.181731,6.86,-4.83,-7.56,-24.5705,-44.6101,11.671,1020.22
23594,0.229555,9.81349,-0.11956,9.1,-5.25,-8.75,-24.1637,-46.3063,10.5776,1020.22
23600,0.325203,9.91392,-0.530846,9.31,-2.66,-9.59,-25.0063,-46.9848,10.7106,1020.22
23606,0.0573888,10,-0.569106,8.26,-0.42,-9.94,-24.5124,-44.2401,10.6662,1020.22
23612,0.023912,9.95696,-0.45911,7.63,-0.14,-11.06,-24.7448,-44.7952,10.3855,1020.24
23618,0.0382592,10.6743,-0.49737,7.42,-2.87,-9.17,-24.3671,-48.0334,11.0948,1020.24
23624,1.11908,10.2056,-0.85605,2.73,8.96,-11.41,-23.815,-45.5045,10.7401,1020.21
23630,-0.688666,9.70827,-0.0669536,7.63,6.86,-13.3,-24.4252,-44.6718,12.2916,1020.21
23636,0.047824,10.2296,-0.521282,3.29,7.07,-12.46,-24.338,-46.6147,10.7253,1020.21
23642,0.0191296,9.96652,-1.01387,2.38,10.71,-12.6,-23.9022,-46.7381,11.0504,1020.21
23648,0.0143472,10.2009,-0.994739,-1.12,12.74,-12.18,-23.9894,-43.8083,11.1095,1020.23
23654,-0.11956,9.90435,-0.755619,-2.38,14.56,-11.76,-23.8441,-45.9363,9.89787,1020.23
23660,-0.272597,9.87087,-0.535629,-2.87,14.91,-11.97,-24.338,-47.5399,9.4398,1020.23
23666,-0.349115,10.2774,-0.416069,-8.26,14.98,-10.99,-24.338,-44.4251,10.7992,1020.21
23672,-0.0382592,9.50741,-0.903874,-4.2,16.73,-10.57,-24.3671,-45.1344,10.4298,1020.21
23678,-0.35868,9.84218,-0.176949,-6.65,18.13,-9.94,-24.6577,-48.2184,9.97175,1020.23
23684,-0.554758,9.71784,-0.229555,-4.55,15.75,-10.22,-24.338,-45.597,10.5924,1020.23
23690,-0.420851,10.0143,-0.71736,-7.42,15.75,-9.38,-24.309,-44.3326,11.1686,1020.21
23696,-0.61693,9.58393,-0.559541,-7.77,15.4,-8.26,-24.1056,-47.5091,9.89787,1020.21
23702,-0.483022,9.82783,-0.148254,-8.12,12.67,-9.45,-24.5995,-46.7381,10.4298,1020.24
23708,-0.693448,10.0526,-0.35868,-8.33,7.63,-9.8,-24.338,-44.6101,10.6662,1020.24
23714,-0.5978,10.4687,-0.61693,-13.93,2.66,-10.15,-24.6286,-46.7381,10.7549,1020.24
23720,-0.272597,10.2678,-0.37781,-16.94,0.28,-10.92,-24.832,-48.5576,9.15905,1020.23
23726,-0.37781,10.2056,-0.200861,-17.22,-2.87,-11.62,-23.9894,-44.4868,10.2821,1020.23
23732,-0.468675,9.90435,-0.454328,-19.74,-3.5,-11.62,-23.8441,-45.7821,10.8879,1020.28
23738,-0.49737,9.80392,-0.210426,-19.18,-5.67,-11.83,-23.7278,-48.6193,9.54324,1020.28
23744,-0.215208,10.1817,-0.114778,-19.88,-6.93,-12.88,-23.8441,-46.1521,9.691,1020.25
23750,-0.487805,9.76566,-0.487805,-20.79,-7.21,-12.88,-23.9312,-45.4428,10.2377,1020.25
23756,-0.626494,10.0335,-0.248685,-20.93,-10.85,-12.53,-23.786,-47.8175,9.73533,1020.21
23762,0.11956,10.2869,0.320421,-22.4,-10.01,-13.72,-23.4663,-46.7073,8.15425,1020.21
23768,-0.153037,10.1291,-0.196078,-21,-10.99,-14.77,-23.5535,-45.412,9.691,1020.2
23774,0.234338,10.4782,0.425634,-19.25,-10.92,-17.29,-23.9894,-47.6633,9.17383,1020.2
23780,2.00383,11.1382,2.52032,-13.79,-7,-27.93,-23.8731,-48.5576,8.71576,1020.2
23786,1.89861,10.4926,2.7977,4.2,-3.57,-38.29,-24.0184,-45.6587,7.96216,1020.23
23792,0.325203,10.6169,0.549976,10.92,-2.03,-43.61,-23.4663,-46.5222,8.46456,1020.23
23798,-0.143472,10.8034,0,8.61,-1.89,-45.15,-22.6237,-48.7118,8.36112,1020.24
23804,-0.114778,10.5356,0.554758,10.36,-3.92,-47.53,-22.6237,-46.6147,7.74052,1020.24
23810,0.0860832,10.5835,0.631277,14.42,-5.25,-51.87,-22.4203,-46.3063,9.41025,1020.23
23816,0.349115,11.3582,0.114778,14.56,-4.41,-55.86,-22.3622,-48.8352,7.43021,1020.23
23822,0.334768,11.3869,-0.129125,14.63,-4.9,-61.18,-21.8392,-48.5885,8.47934,1020.23
23828,0.21999,11.4873,-0.21999,13.16,-5.18,-65.94,-21.2871,-46.0905,9.691,1020.23
23834,0.191296,11.473,-0.162602,14.07,-5.32,-71.54,-21.0546,-48.2801,8.40545,1020.23
23840,-0.0143472,11.9082,-0.124342,14.98,-6.72,-76.16,-20.7059,-49.637,9.51368,1020.23
23846,0.0813008,11.7886,-0.133907,14,-9.38,-83.51,-20.6188,-47.1082,10.2525,1020.23
23852,0.162602,11.9273,-0.521282,13.16,-8.47,-87.85,-19.3112,-48.2801,9.26248,1020.23
23858,-0.272597,11.8412,0.392157,13.86,-10.78,-94.15,-19.3112,-50.8706,8.86352,1020.23
23864,-0.205643,11.6356,0.899091,18.48,-14.84,-101.43,-19.1659,-48.7735,9.30681,1020.25
23870,0.215208,11.5591,0.750837,22.96,-16.66,-106.4,-18.9335,-47.725,9.49891,1020.25
23876,0.0669536,11.7886,0.205643,25.83,-14.91,-109.9,-17.4806,-50.5931,9.83876,1020.23
23882,-0.435198,12.0803,0.521282,27.3,-15.4,-115.29,-17.4806,-50.5622,8.89307,1020.23
23888,0.148254,12.0421,0.927786,29.75,-17.43,-123.2,-17.0157,-47.6324,10.223,1020.23
23894,0.306074,12.616,-0.0191296,33.67,-16.94,-128.59,-16.4637,-50.1921,10.8288,1020.24
23900,0.109995,13.5342,-0.215208,35.35,-18.62,-135.1,-15.621,-52.0117,9.30681,1020.24
23906,0.291726,14.1846,-0.97561,32.34,-23.1,-146.16,-15.621,-50.0071,10.5037,1020.23
23912,0.865614,14.9307,-0.659971,31.92,-20.09,-155.19,-13.8485,-50.1305,11.8927,1020.23
23918,1.956,15.3754,0.793878,35.14,-22.12,-173.11,-12.5991,-53.7696,10.2673,1020.24
23924,1.7934,15.825,0.229555,44.94,-22.19,-190.4,-11.6112,-50.994,10.7401,1020.24
23930,1.40124,16.6093,-2.51554,44.8,-27.02,-209.37,-11.2044,-49.6987,13.5033,1020.22
23936,1.64993,17.781,-3.46724,34.23,-30.17,-227.85,-9.60626,-52.3509,10.8583,1020.22
23942,1.32951,19.1774,-4.58632,25.13,-33.95,-249.69,-7.89191,-53.3995,11.9961,1020.18
23948,0.903874,19.5983,-5.2176,18.06,-44.1,-271.95,-7.54323,-50.9631,13.5772,1020.18
23954,0.865614,20.4065,-5.20325,16.03,-57.19,-294.35,-4.95717,-54.1088,12.3655,1020.18
23960,2.62076,20.7747,-3.6968,15.12,-67.34,-321.37,-3.15565,-55.1573,11.6858,1020.21
23966,4.91152,22.2238,-2.06121,19.32,-58.94,-346.15,-2.31301,-52.7827,12.8236,1020.21
23972,4.70588,24.7872,1.19082,33.25,-50.19,-374.22,-0.918284,-52.3201,14.6411,1020.23
23978,4.60067,31.5495,0.789096,28.98,-52.36,-405.3,3.26589,-55.4966,12.1143,1020.23
23984,4.93065,27.2071,-5.05978,7.14,-58.31,-444.5,3.99231,-53.677,13.2817,1020.24
23990,0.325203,23.9024,-2.59206,15.26,-49.42,-460.39,5.59043,-52.4126,14.4194,1020.24
23996,1.0043,21.7408,-0.0813008,8.96,-70.21,-467.95,8.99008,-55.219,13.5329,1020.27
24002,-1.36298,21.0426,-0.430416,56.28,-45.71,-463.82,11.9539,-53.7079,12.8975,1020.27
24008,-0.884744,27.011,-0.808226,42.28,-82.46,-469.77,12.8546,-51.179,14.715,1020.27
24014,4.75371,23.649,-5.27499,26.88,-83.79,-480.41,15.9928,-52.6593,14.582,1020.18
24020,2.86466,22.8025,-4.74414,36.12,-62.16,-482.37,20.3803,-52.0425,13.6954,1020.18
24026,-0.473458,25.5858,-4.22286,40.04,-69.86,-479.5,20.3803,-50.0071,15.2026,1020.22
24032,2.22382,25.7293,-5.71019,25.76,-99.75,-477.4,22.5886,-49.4828,15.4095,1020.22
24038,5.66714,23.0081,-7.37924,13.3,-113.75,-468.23,27.9351,-48.8044,14.05,1020.19
24044,10.9565,15.4567,-6.06408,1.96,-136.29,-457.87,28.4581,-47.1698,13.6067,1020.19
24050,11.6547,12.3099,-9.5648,-16.24,-134.68,-427.49,29.446,-44.6101,15.6016,1020.21
24056,9.30177,6.80536,-13.2568,-64.75,-131.18,-389.76,32.8457,-44.5485,13.9762,1020.21
24062,-0.10043,-0.420851,-11.0139,-82.53,-86.66,-283.71,34.9378,-44.1784,11.804,1020.21
24068,-2.62076,-0.655189,5.64323,-46.69,-50.54,-136.08,33.6593,-42.0813,12.4837,1020.2
24074,1.09039,2.78336,6.37972,-14.21,-57.54,-35.56,34.8797,-42.5747,13.1487,1020.2
24080,5.49498,5.7054,0.387374,19.46,-25.13,46.06,36.5068,-43.2224,11.3755,1020.18
24086,5.35151,6.7384,-0.373027,39.76,-13.37,110.95,34.1532,-42.8214,12.6906,1020.18
24092,8.32616,5.44237,-2.5012,45.01,0.63,153.65,33.9789,-43.0373,13.1043,1020.23
24098,9.18699,4.54328,-2.52511,53.69,13.16,176.12,35.1702,-44.826,12.2325,1020.23
24104,9.48828,4.96891,-2.85988,60.97,22.82,181.65,32.9038,-44.7335,13.2964,1020.24
24110,8.48876,5.90148,-3.29986,59.22,26.18,179.2,30.2887,-44.2401,14.1387,1020.24
24116,6.97274,5.96844,-3.3429,55.3,28.28,175.21,32.6132,-45.3503,13.3112,1020.2
24122,6.4132,5.03587,-2.59206,53.69,27.44,169.12,31.8287,-46.0288,13.4442,1020.2
24128,5.69106,4.04113,-1.77427,52.71,25.62,166.11,28.2547,-44.6718,16.0892,1020.2
24134,5.26542,3.71114,-1.62123,50.4,25.2,169.96,28.9811,-45.8437,14.848,1020.21
24140,5.07891,3.72549,-2.02774,46.76,28.07,171.5,29.6785,-48.1876,13.5329,1020.21
24146,4.0746,4.4285,-1.31994,41.23,28.35,179.69,26.7728,-47.3549,15.705,1020.2
24152,3.89287,5.01196,-1.4395,33.53,28.35,192.08,25.6105,-47.139,16.0892,1020.2
24158,2.66858,5.10282,-1.28647,26.32,26.88,205.17,26.7728,-48.8044,13.9762,1020.21
24164,4.00287,6.42276,-2.09947,14.35,31.92,218.12,24.7679,-48.496,16.5029,1020.21
24170,3.21856,5.48541,-0.803443,9.31,32.34,232.96,22.3562,-48.1259,16.9905,1020.22
24176,2.879,5.53802,-1.12386,3.57,28.98,250.25,23.6056,-50.5314,15.838,1020.22
24182,2.54902,5.12673,-0.97561,3.99,26.18,265.16,22.6758,-51.3949,15.1583,1020.22
24188,2.22382,4.72023,-0.392157,6.37,22.54,281.47,17.8524,-50.5931,16.4438,1020.21
24194,2.56337,4.21808,-0.0621712,14.63,19.11,292.39,18.8403,-51.1482,17.0644,1020.21
24200,2.53467,4.40459,-0.023912,21.35,15.12,303.38,17.2422,-53.7696,14.6854,1020.19
24206,2.47728,4.6724,0.243902,31.43,11.41,312.41,14.5109,-51.179,17.6112,1020.19
24212,2.52989,5.24629,0.095648,38.99,9.03,319.69,12.8256,-51.6725,16.0005,1020.19
24218,2.58728,6.24103,0.229555,44.66,5.18,325.43,12.8837,-54.4789,15.5572,1020.19
24224,2.86944,6.75275,0.444763,51.87,5.46,331.03,10.8788,-52.9369,15.3356,1020.22
24230,2.63032,8.37877,0.229555,53.55,4.97,337.4,7.85686,-51.7033,17.1383,1020.22
24236,2.7977,9.18699,0.229555,54.67,6.93,342.93,7.65346,-53.9854,16.7985,1020.22
24242,2.85031,10.4591,0.320421,54.25,8.47,346.08,6.11346,-55.1573,17.2861,1020.22
24248,2.67814,11.3247,0.45911,51.45,8.82,350.49,2.71381,-51.4257,18.0101,1020.22
