Timestamp,AccX,AccY,AccZ,AngularVelX,AngularVelY,AngularVelZ,MagX,MagY,MagZ,AirPressure
813344,-0.434384,9.82322,-0.0948522,0.56,0,-0.56,-23.3846,-66.5978,40.6731,1022.6
813350,-0.49126,9.84227,-0.0805966,0.42,-0.14,-0.7,-23.3846,-66.5978,40.6731,1022.62
813356,-0.486521,9.81369,-0.0853484,0.35,-0.07,-0.63,-23.3846,-66.5978,40.6731,1022.62
813362,-0.472301,9.83751,-0.0710928,0.42,-0.14,-0.7,-23.3846,-66.5978,40.6731,1022.62
813368,-0.514959,9.85656,-0.0901003,0.14,0.07,-0.84,-23.3846,-66.5978,40.6731,1022.62
813374,-0.429644,9.74226,-0.066341,0.35,0,-0.84,-23.3846,-66.5978,40.6731,1022.62
813380,-0.481781,9.83751,-0.0853484,0.49,0,-0.84,-23.3846,-66.5978,40.6731,1022.6
813386,-0.510219,9.82322,-0.109108,0.49,0,-0.91,-23.3846,-66.5978,40.6731,1022.6
813392,-0.496,9.81846,-0.0710928,0.63,0.07,-0.91,-23.3846,-66.5978,40.6731,1022.62
813398,-0.49126,9.8899,-0.104356,0.49,-0.14,-0.7,-23.3846,-66.5978,40.6731,1022.62
813404,-0.552876,9.86608,-0.0520854,0.56,-0.14,-0.63,-23.3846,-66.5978,40.6731,1022.62
813410,-0.477041,9.91371,-0.147123,0.56,-0.21,-0.63,-23.3846,-66.5978,40.6731,1022.62
813416,-0.524438,9.86132,-0.11386,0.28,-0.21,-0.49,-23.3846,-66.5978,40.6731,1022.62
813422,-0.538657,9.83274,-0.0901003,0.35,-0.28,-0.42,-23.3846,-66.5978,40.6731,1022.6
813428,-0.439124,9.84703,-0.0948522,0.21,-0.35,-0.35,-23.3846,-66.5978,40.6731,1022.6
813434,-0.472301,9.80417,-0.0520854,0,-0.35,-0.35,-23.3846,-66.5978,40.6731,1022.61
813440,-0.405946,9.81846,-0.0568372,0.28,-0.14,-0.49,-23.3846,-66.5978,40.6731,1022.61
813446,-0.505479,9.78512,-0.128115,0.35,0,-0.49,-23.3846,-66.5978,40.6731,1022.65
813452,-0.429644,9.87084,-0.0473335,0.35,-0.21,-0.49,-23.3846,-66.5978,40.6731,1022.65
813458,-0.34433,9.85656,-0.137619,0.42,-0.28,-0.7,-23.3846,-66.5978,40.6731,1022.65
813464,-0.524438,9.88513,-0.0473335,0.56,0.07,-0.63,-23.3846,-66.5978,40.6731,1022.63
813470,-0.415425,9.79941,-0.066341,0.56,-0.14,-0.7,-23.3846,-66.5978,40.6731,1022.63
813476,-0.538657,9.85656,-0.0473335,0.56,0.07,-0.77,-23.3846,-66.5978,40.6731,1022.59
813482,-0.524438,9.84227,-0.0330779,0.49,0,-0.7,-23.3846,-66.5978,40.6731,1022.59
813488,-0.524438,9.78988,-0.0948522,0.49,0,-0.84,-23.3846,-66.5978,40.6731,1022.61
813494,-0.496,9.82798,-0.0473335,0.63,0.07,-0.84,-23.3846,-66.5978,40.6731,1022.61
813500,-0.477041,9.82798,-0.0853484,0.7,0.14,-0.84,-23.3846,-66.5978,40.6731,1022.63
813506,-0.458082,9.85179,-0.0853484,0.63,-0.07,-0.84,-23.3846,-66.5978,40.6731,1022.63
813512,-0.50074,9.83751,-0.0948522,0.42,0,-0.84,-23.3846,-66.5978,40.6731,1022.63
813518,-0.49126,9.85656,-0.0425816,0.56,0,-0.84,-23.3846,-66.5978,40.6731,1022.61
813524,-0.538657,9.80417,-0.0758447,0.56,0.07,-0.84,-23.3846,-66.5978,40.6731,1022.61
813530,-0.50074,9.928,-0.156626,0.91,0.07,-0.7,-23.3846,-66.5978,40.6731,1022.63
813536,-0.510219,9.87084,-0.099604,0.7,-0.21,-0.7,-23.3846,-66.5978,40.6731,1022.63
813542,-0.458082,9.80417,-0.0758447,0.42,-0.28,-0.7,-23.3846,-66.5978,40.6731,1022.63
813548,-0.434384,9.81369,-0.0901003,0.56,-0.14,-0.7,-23.3846,-66.5978,40.6731,1022.63
813554,-0.467562,9.81846,-0.0520854,0.84,0,-0.77,-23.3846,-66.5978,40.6731,1022.63
813560,-0.429644,9.89466,-0.118612,0.7,-0.07,-0.77,-23.3846,-66.5978,40.6731,1022.61
813566,-0.552876,9.83751,-0.11386,0.7,0.07,-0.77,-23.3846,-66.5978,40.6731,1022.61
813572,-0.510219,9.88037,-0.132867,0.63,-0.07,-0.7,-23.3846,-66.5978,40.6731,1022.61
813578,-0.415425,9.85656,-0.128115,0.35,-0.14,-0.7,-23.3846,-66.5978,40.6731,1022.61
813584,-0.49126,9.81846,-0.0520854,0.63,0,-0.84,-23.3846,-66.5978,40.6731,1022.59
813590,-0.552876,9.86608,-0.0758447,0.77,-0.07,-0.91,-23.3846,-66.5978,40.6731,1022.59
813596,-0.443863,9.81846,-0.132867,0.49,-0.14,-0.84,-23.3846,-66.5978,40.6731,1022.62
813602,-0.448603,9.83751,-0.0568372,0.35,0.14,-0.84,-23.3846,-66.5978,40.6731,1022.62
813608,-0.486521,9.83274,-0.104356,0.63,0.07,-0.84,-23.3846,-66.5978,40.6731,1022.62
813614,-0.496,9.80893,-0.11386,0.56,0.07,-0.77,-23.3846,-66.5978,40.6731,1022.61
813620,-0.533917,9.86132,-0.0901003,0.63,0,-0.77,-23.3846,-66.5978,40.6731,1022.61
813626,-0.496,9.78988,-0.0948522,0.63,0,-0.77,-23.3846,-66.5978,40.6731,1022.61
813632,-0.548137,9.85656,-0.104356,0.63,0,-0.63,-23.3846,-66.5978,40.6731,1022.61
813638,-0.443863,9.85179,-0.0520854,0.42,-0.14,-0.7,-23.3846,-66.5978,40.6731,1022.6
813644,-0.477041,9.79464,-0.104356,0.56,0.07,-0.7,-23.3846,-66.5978,40.6731,1022.6
813650,-0.524438,9.83751,-0.0188223,0.7,0.21,-0.63,-23.3846,-66.5978,40.6731,1022.6
813656,-0.477041,9.88037,-0.118612,0.56,0,-0.63,-23.3846,-66.5978,40.6731,1022.64
813662,-0.510219,9.8899,-0.0901003,0.56,0.07,-0.63,-23.3846,-66.5978,40.6731,1022.64
813668,-0.538657,9.87084,-0.0805966,0.56,0,-0.56,-23.3846,-66.5978,40.6731,1022.62
813674,-0.50074,9.82798,-0.0378297,0.56,-0.07,-0.49,-23.3846,-66.5978,40.6731,1022.62
813680,-0.477041,9.87561,-0.118612,0.42,-0.07,-0.63,-23.3846,-66.5978,40.6731,1022.63
813686,-0.519698,9.80417,-0.109108,0.28,0.07,-0.63,-23.3846,-66.5978,40.6731,1022.63
813692,-0.529178,9.83274,-0.123363,0.49,-0.07,-0.63,-23.3846,-66.5978,40.6731,1022.63
813698,-0.496,9.82322,-0.11386,0.42,-0.07,-0.63,-23.3846,-66.5978,40.6731,1022.63
813704,-0.453343,9.82322,-0.104356,0.35,-0.07,-0.63,-23.3846,-66.5978,40.6731,1022.63
813710,-0.477041,9.85656,-0.0710928,0.56,0,-0.7,-23.3846,-66.5978,40.6731,1022.62
813716,-0.514959,9.81846,-0.109108,0.56,-0.07,-0.7,-23.3846,-66.5978,40.6731,1022.62
813722,-0.533917,9.84703,-0.0520854,0.56,-0.14,-0.7,-23.3846,-66.5978,40.6731,1022.6
813728,-0.462822,9.80893,-0.0948522,0.49,-0.07,-0.7,-23.3846,-66.5978,40.6731,1022.6
813734,-0.472301,9.84227,-0.11386,0.49,0.07,-0.63,-23.3846,-66.5978,40.6731,1022.62
813740,-0.50074,9.85656,-0.0710928,0.56,0,-0.7,-23.3846,-66.5978,40.6731,1022.62
813746,-0.50074,9.83751,-0.099604,0.42,-0.14,-0.63,-23.3846,-66.5978,40.6731,1022.62
813752,-0.496,9.85179,-0.0710928,0.56,0,-0.56,-23.3846,-66.5978,40.6731,1022.64
813758,-0.552876,9.90895,-0.0425816,0.63,-0.07,-0.56,-23.3846,-66.5978,40.6731,1022.64
813764,-0.519698,9.84703,-0.118612,0.56,-0.35,-0.49,-23.3846,-66.5978,40.6731,1022.61
813770,-0.477041,9.83751,-0.0948522,0.35,0,-0.42,-23.3846,-66.5978,40.6731,1022.61
813776,-0.524438,9.85179,-0.118612,0.28,-0.14,-0.49,-23.3846,-66.5978,40.6731,1022.62
813782,-0.453343,9.81846,-0.099604,0.21,-0.21,-0.56,-23.3846,-66.5978,40.6731,1022.62
813788,-0.510219,9.83274,-0.151875,0.21,-0.07,-0.56,-23.3846,-66.5978,40.6731,1022.64
813794,-0.49126,9.84227,-0.0378297,0.28,-0.21,-0.56,-23.3846,-66.5978,40.6731,1022.64
813800,-0.486521,9.85179,-0.109108,0.42,0,-0.7,-23.3846,-66.5978,40.6731,1022.64
813806,-0.519698,9.84703,-0.0805966,0.42,0.07,-0.7,-23.3846,-66.5978,40.6731,1022.65
813812,-0.467562,9.79464,-0.0901003,0.35,0,-0.77,-23.3846,-66.5978,40.6731,1022.65
813818,-0.462822,9.82322,-0.11386,0.35,0,-0.84,-23.3846,-66.5978,40.6731,1022.64
813824,-0.519698,9.79941,-0.0615891,0.42,-0.07,-0.77,-23.3846,-66.5978,40.6731,1022.64
813830,-0.519698,9.85656,-0.109108,0.63,0,-0.7,-23.3846,-66.5978,40.6731,1022.62
813836,-0.538657,9.87084,-0.132867,0.56,0.07,-0.7,-23.3846,-66.5978,40.6731,1022.62
813842,-0.538657,9.84703,-0.0520854,0.49,0,-0.7,-23.3846,-66.5978,40.6731,1022.63
813848,-0.50074,9.83274,-0.132867,0.63,0.07,-0.7,-23.3846,-66.5978,40.6731,1022.63
813854,-0.481781,9.90418,-0.128115,0.35,-0.07,-0.63,-23.3846,-66.5978,40.6731,1022.63
813860,-0.510219,9.86608,-0.099604,0.35,-0.21,-0.42,-23.3846,-66.5978,40.6731,1022.64
813866,-0.514959,9.78988,-0.0615891,0.49,-0.14,-0.42,-23.3846,-66.5978,40.6731,1022.64
813872,-0.529178,9.88513,-0.066341,0.63,-0.21,-0.49,-23.3846,-66.5978,40.6731,1022.62
813878,-0.524438,9.85656,-0.16613,0.49,0.07,-0.42,-23.3846,-66.5978,40.6731,1022.62
813884,-0.538657,9.90418,-0.0901003,0,-0.14,-0.42,-23.3846,-66.5978,40.6731,1022.6
813890,-0.453343,9.80417,-0.0805966,-0.14,-0.49,-0.42,-23.3846,-66.5978,40.6731,1022.6
813896,-0.434384,9.78988,-0.0853484,0.07,-0.21,-0.49,-23.3846,-66.5978,40.6731,1022.6
813902,-0.510219,9.85179,-0.0853484,0.35,-0.14,-0.63,-23.3846,-66.5978,40.6731,1022.61
813908,-0.458082,9.81369,-0.161378,0.07,-0.14,-0.63,-23.3846,-66.5978,40.6731,1022.61
813914,-0.486521,9.84703,-0.0710928,0.07,-0.07,-0.63,-23.3846,-66.5978,40.6731,1022.6
813920,-0.529178,9.83274,-0.0710928,0.28,-0.14,-0.7,-23.3846,-66.5978,40.6731,1022.6
813926,-0.453343,9.83751,-0.11386,0.28,-0.14,-0.77,-23.3846,-66.5978,40.6731,1022.63
813932,-0.538657,9.82798,-0.0710928,0.42,0.28,-0.77,-23.3846,-66.5978,40.6731,1022.63
813938,-0.557616,9.81846,-0.142371,0.49,0.21,-0.84,-23.3846,-66.5978,40.6731,1022.62
813944,-0.458082,9.88037,-0.137619,0.42,0.14,-0.91,-23.3846,-66.5978,40.6731,1022.62
813950,-0.533917,9.87561,-0.132867,0.35,0.21,-0.77,-23.3846,-66.5978,40.6731,1022.62
813956,-0.514959,9.85179,-0.118612,0.63,-0.14,-0.77,-23.3846,-66.5978,40.6731,1022.62
813962,-0.505479,9.82798,-0.0948522,0.56,0,-0.77,-23.3846,-66.5978,40.6731,1022.62
813968,-0.519698,9.84227,-0.0710928,0.56,0.07,-0.7,-23.3846,-66.5978,40.6731,1022.64
813974,-0.50074,9.83751,-0.109108,0.56,-0.07,-0.63,-23.3846,-66.5978,40.6731,1022.64
813980,-0.533917,9.84703,-0.128115,0.42,-0.21,-0.56,-23.3846,-66.5978,40.6731,1022.63
813986,-0.538657,9.81846,-0.128115,0.28,-0.14,-0.63,-23.3846,-66.5978,40.6731,1022.63
813992,-0.524438,9.85179,-0.123363,0.21,-0.21,-0.56,-23.3846,-66.5978,40.6731,1022.63
813998,-0.514959,9.85656,-0.175634,0.28,-0.21,-0.42,-23.3846,-66.5978,40.6731,1022.6
814004,-0.529178,9.87084,-0.099604,0.35,-0.28,-0.49,-23.3846,-66.5978,40.6731,1022.6
814010,-0.420165,9.80417,-0.118612,0.21,-0.21,-0.42,-23.3846,-66.5978,40.6731,1022.63
814016,-0.448603,9.79941,-0.0615891,0.28,-0.21,-0.49,-23.3846,-66.5978,40.6731,1022.63
814022,-0.50074,9.81846,-0.0568372,0.42,-0.07,-0.56,-23.3846,-66.5978,40.6731,1022.64
814028,-0.443863,9.83274,-0.0948522,0.35,-0.07,-0.63,-23.3846,-66.5978,40.6731,1022.64
814034,-0.510219,9.82322,-0.0853484,0.35,0,-0.7,-23.3846,-66.5978,40.6731,1022.63
814040,-0.524438,9.84227,-0.142371,0.56,0.07,-0.77,-23.3846,-66.5978,40.6731,1022.63
814046,-0.50074,9.83751,-0.118612,0.7,0.21,-0.77,-23.3846,-66.5978,40.6731,1022.63
814052,-0.514959,9.82798,-0.128115,0.49,0.14,-0.84,-23.3846,-66.5978,40.6731,1022.63
814058,-0.538657,9.8899,-0.132867,0.49,0.14,-0.77,-23.3846,-66.5978,40.6731,1022.63
814064,-0.538657,9.82322,-0.11386,0.42,0.07,-0.77,-23.3846,-66.5978,40.6731,1022.61
814070,-0.505479,9.84703,-0.0853484,0.63,0.07,-0.84,-23.3846,-66.5978,40.6731,1022.61
814076,-0.505479,9.8899,-0.0901003,0.56,-0.07,-0.84,-23.3846,-66.5978,40.6731,1022.6
814082,-0.472301,9.83751,-0.0758447,0.42,-0.07,-0.84,-23.3846,-66.5978,40.6731,1022.6
814088,-0.529178,9.83274,-0.0520854,0.42,0,-0.77,-23.3846,-66.5978,40.6731,1022.6
814094,-0.524438,9.82322,-0.123363,0.42,0,-0.77,-23.3846,-66.5978,40.6731,1022.61
814100,-0.595534,9.86608,-0.104356,0.42,0.07,-0.77,-23.3846,-66.5978,40.6731,1022.61
814106,-0.514959,9.85656,-0.109108,0.56,-0.07,-0.7,-23.3846,-66.5978,40.6731,1022.61
814112,-0.514959,9.91847,-0.104356,0.49,-0.21,-0.7,-23.3846,-66.5978,40.6731,1022.61
814118,-0.486521,9.86132,-0.161378,0.28,-0.14,-0.63,-23.3846,-66.5978,40.6731,1022.64
814124,-0.548137,9.83274,-0.104356,0.35,-0.07,-0.63,-23.3846,-66.5978,40.6731,1022.64
814130,-0.477041,9.87561,-0.132867,0.21,-0.21,-0.56,-23.3846,-66.5978,40.6731,1022.65
814136,-0.533917,9.86608,-0.099604,0.14,-0.28,-0.49,-23.3846,-66.5978,40.6731,1022.65
814142,-0.462822,9.76131,-0.104356,0.56,-0.14,-0.63,-23.3846,-66.5978,40.6731,1022.65
814148,-0.448603,9.83751,-0.123363,0.42,-0.07,-0.63,-23.3846,-66.5978,40.6731,1022.62
814154,-0.467562,9.77559,-0.0901003,0.28,0.07,-0.7,-23.3846,-66.5978,40.6731,1022.62
814160,-0.486521,9.84227,-0.0948522,0.42,0,-0.77,-23.3846,-66.5978,40.6731,1022.63
814166,-0.462822,9.86132,-0.142371,0.56,0.07,-0.84,-23.3846,-66.5978,40.6731,1022.63
814172,-0.524438,9.79941,-0.0901003,0.42,0.14,-0.77,-23.3846,-66.5978,40.6731,1022.63
814178,-0.50074,9.82322,-0.128115,0.42,0.14,-0.84,-23.3846,-66.5978,40.6731,1022.63
814184,-0.49126,9.83274,-0.147123,0.56,0.21,-0.84,-23.3846,-66.5978,40.6731,1022.66
814190,-0.562356,9.87084,-0.099604,0.49,0.07,-0.84,-23.3846,-66.5978,40.6731,1022.66
814196,-0.557616,9.84227,-0.109108,0.42,0.07,-0.77,-23.3846,-66.5978,40.6731,1022.66
814202,-0.529178,9.81369,-0.104356,0.28,0.07,-0.84,-23.3846,-66.5978,40.6731,1022.59
814208,-0.49126,9.87561,-0.137619,0.35,0,-0.7,-23.3846,-66.5978,40.6731,1022.59
814214,-0.548137,9.84703,-0.123363,0.28,0.07,-0.84,-23.3846,-66.5978,40.6731,1022.59
814220,-0.576575,9.85179,-0.147123,0.42,0.21,-0.84,-23.3846,-66.5978,40.6731,1022.59
814226,-0.562356,9.80417,-0.151875,0.28,-0.28,-0.63,-23.3846,-66.5978,40.6731,1022.63
814232,-0.50074,9.83751,-0.109108,0.21,-0.14,-0.63,-23.3846,-66.5978,40.6731,1022.63
814238,-0.533917,9.81846,-0.11386,0.28,-0.07,-0.56,-23.3846,-66.5978,40.6731,1022.63
814244,-0.524438,9.85179,-0.137619,0.21,-0.14,-0.56,-23.3846,-66.5978,40.6731,1022.59
814250,-0.505479,9.84703,-0.0805966,0.28,0,-0.49,-23.3846,-66.5978,40.6731,1022.59
814256,-0.514959,9.85656,-0.109108,0.63,-0.07,-0.49,-23.3846,-66.5978,40.6731,1022.61
814262,-0.562356,9.93276,-0.104356,0.7,-0.21,-0.63,-23.3846,-66.5978,40.6731,1022.61
814268,-0.514959,9.83751,-0.118612,0.42,-0.21,-0.56,-23.3846,-66.5978,40.6731,1022.6
814274,-0.538657,9.80417,-0.11386,0.35,0.07,-0.49,-23.3846,-66.5978,40.6731,1022.6
814280,-0.552876,9.88037,-0.151875,0.49,-0.07,-0.63,-23.3846,-66.5978,40.6731,1022.64
814286,-0.514959,9.84227,-0.137619,0.49,-0.07,-0.63,-23.3846,-66.5978,40.6731,1022.64
814292,-0.590794,9.86608,-0.104356,0.42,0.07,-0.56,-23.3846,-66.5978,40.6731,1022.64
814298,-0.571835,9.85656,-0.109108,0.49,-0.21,-0.49,-23.3846,-66.5978,40.6731,1022.63
814304,-0.519698,9.83751,-0.0473335,0,-0.07,-0.63,-23.3846,-66.5978,40.6731,1022.63
814310,-0.510219,9.84227,0.00018521,0.35,-0.07,-0.7,-23.3846,-66.5978,40.6731,1022.64
814316,-0.538657,9.84227,-0.175634,0.56,0,-0.77,-23.3846,-66.5978,40.6731,1022.64
814322,-0.486521,9.80893,-0.128115,0.49,0,-0.7,-23.3846,-66.5978,40.6731,1022.63
814328,-0.519698,9.82798,-0.0805966,0.42,0.07,-0.7,-23.3846,-66.5978,40.6731,1022.63
814334,-0.562356,9.87084,-0.11386,0.35,-0.07,-0.63,-23.3846,-66.5978,40.6731,1022.63
814340,-0.533917,9.87084,-0.11386,0.28,-0.21,-0.56,-23.3846,-66.5978,40.6731,1022.59
814346,-0.552876,9.80417,-0.118612,0.21,-0.21,-0.49,-23.3846,-66.5978,40.6731,1022.59
814352,-0.50074,9.86132,-0.118612,0.42,-0.28,-0.49,-23.3846,-66.5978,40.6731,1022.64
814358,-0.557616,9.87561,-0.128115,0.42,0,-0.56,-23.3846,-66.5978,40.6731,1022.64
814364,-0.581314,9.82322,-0.0425816,0.28,-0.07,-0.56,-23.3846,-66.5978,40.6731,1022.61
814370,-0.50074,9.86608,-0.11386,0.21,-0.14,-0.56,-23.3846,-66.5978,40.6731,1022.61
814376,-0.448603,9.78036,-0.0710928,0.28,-0.21,-0.56,-23.3846,-66.5978,40.6731,1022.61
814382,-0.462822,9.82798,-0.0901003,0.42,-0.07,-0.63,-23.3846,-66.5978,40.6731,1022.61
814388,-0.548137,9.85656,-0.118612,0.42,0,-0.77,-23.3846,-66.5978,40.6731,1022.61
814394,-0.538657,9.82322,-0.132867,0.35,0.14,-0.84,-23.3846,-66.5978,40.6731,1022.6
814400,-0.505479,9.79464,-0.0901003,0.35,0.28,-0.77,-23.3846,-66.5978,40.6731,1022.6
814406,-0.557616,9.80893,-0.109108,0.21,0.07,-0.77,-23.3846,-66.5978,40.6731,1022.6
814412,-0.571835,9.80893,-0.0473335,0.35,0.14,-0.7,-23.3846,-66.5978,40.6731,1022.6
814418,-0.567095,9.86608,-0.0758447,0.56,0.14,-0.63,-23.3846,-66.5978,40.6731,1022.62
814424,-0.533917,9.85179,-0.118612,0.42,-0.07,-0.63,-23.3846,-66.5978,40.6731,1022.62
814430,-0.529178,9.80417,-0.147123,0.35,-0.07,-0.63,-23.3846,-66.5978,40.6731,1022.62
814436,-0.505479,9.86132,-0.118612,0.49,-0.07,-0.56,-23.3846,-66.5978,40.6731,1022.63
814442,-0.605013,9.87084,-0.104356,0.28,-0.14,-0.56,-23.3846,-66.5978,40.6731,1022.63
814448,-0.510219,9.85179,-0.132867,0.21,-0.21,-0.49,-23.3846,-66.5978,40.6731,1022.62
814454,-0.514959,9.78988,-0.104356,0.21,-0.14,-0.42,-23.3846,-66.5978,40.6731,1022.62
814460,-0.552876,9.81369,-0.0473335,0.35,-0.21,-0.49,-23.3846,-66.5978,40.6731,1022.65
814466,-0.49126,9.88037,-0.0948522,0.35,-0.07,-0.35,-23.3846,-66.5978,40.6731,1022.65
814472,-0.519698,9.82798,-0.0948522,0.42,-0.07,-0.42,-23.3846,-66.5978,40.6731,1022.63
814478,-0.49126,9.85179,-0.132867,0.35,-0.07,-0.42,-23.3846,-66.5978,40.6731,1022.63
814484,-0.50074,9.80417,-0.123363,0.28,-0.07,-0.49,-23.3846,-66.5978,40.6731,1022.63
814490,-0.524438,9.81846,-0.0805966,0.49,-0.21,-0.63,-23.3846,-66.5978,40.6731,1022.63
814496,-0.49126,9.84703,-0.175634,0.28,-0.07,-0.56,-23.3846,-66.5978,40.6731,1022.63
814502,-0.548137,9.80417,-0.0901003,0.28,0,-0.7,-23.3846,-66.5978,40.6731,1022.65
814508,-0.505479,9.81369,-0.0901003,0.28,-0.14,-0.7,-23.3846,-66.5978,40.6731,1022.65
814514,-0.462822,9.84703,-0.161378,0.14,-0.14,-0.77,-23.3846,-66.5978,40.6731,1022.6
814520,-0.529178,9.78988,-0.0853484,0.21,0.07,-0.84,-23.3846,-66.5978,40.6731,1022.6
814526,-0.590794,9.83274,-0.0901003,0.14,0.07,-0.84,-23.3846,-66.5978,40.6731,1022.61
814532,-0.529178,9.85179,-0.0853484,0.21,0,-0.7,-23.3846,-66.5978,40.6731,1022.61
814538,-0.519698,9.86132,-0.137619,0.21,0,-0.7,-23.3846,-66.5978,40.6731,1022.61
814544,-0.538657,9.78512,-0.0853484,0.07,-0.14,-0.7,-23.3846,-66.5978,40.6731,1022.61
814550,-0.562356,9.8899,-0.132867,0,-0.21,-0.63,-23.3846,-66.5978,40.6731,1022.61
814556,-0.590794,9.82798,-0.118612,0.07,-0.28,-0.56,-23.3846,-66.5978,40.6731,1022.62
814562,-0.600273,9.86608,-0.128115,0.07,-0.28,-0.49,-23.3846,-66.5978,40.6731,1022.62
814568,-0.567095,9.84703,-0.128115,0.14,-0.56,-0.35,-23.3846,-66.5978,40.6731,1022.59
814574,-0.557616,9.79464,-0.0948522,0.14,-0.42,-0.35,-23.3846,-66.5978,40.6731,1022.59
814580,-0.514959,9.81846,-0.0520854,0.35,-0.42,-0.42,-23.3846,-66.5978,40.6731,1022.59
814586,-0.505479,9.80893,-0.118612,0.35,-0.28,-0.56,-23.3846,-66.5978,40.6731,1022.6
814592,-0.505479,9.79941,-0.0473335,0.56,-0.07,-0.49,-23.3846,-66.5978,40.6731,1022.6
814598,-0.49126,9.84703,-0.11386,0.49,-0.07,-0.49,-23.3846,-66.5978,40.6731,1022.62
814604,-0.434384,9.87561,-0.175634,0.21,-0.21,-0.63,-23.3846,-66.5978,40.6731,1022.62
814610,-0.562356,9.79941,-0.118612,0.14,0,-0.63,-23.3846,-66.5978,40.6731,1022.61
814616,-0.467562,9.82798,-0.132867,0.21,-0.14,-0.77,-23.3846,-66.5978,40.6731,1022.61
814622,-0.496,9.82322,-0.147123,0.28,-0.07,-0.77,-23.3846,-66.5978,40.6731,1022.67
814628,-0.458082,9.78036,-0.142371,0,-0.14,-0.84,-23.3846,-66.5978,40.6731,1022.67
814634,-0.439124,9.78512,-0.11386,0.21,0.14,-0.91,-23.3846,-66.5978,40.6731,1022.67
814640,-0.562356,9.83274,-0.128115,0.42,0.28,-0.84,-23.3846,-66.5978,40.6731,1022.61
814646,-0.638191,9.80417,-0.123363,0.28,0.14,-0.91,-23.3846,-66.5978,40.6731,1022.61
814652,-0.467562,9.78988,-0.0805966,0.14,0.07,-0.84,-23.3846,-66.5978,40.6731,1022.64
814658,-0.552876,9.86132,-0.099604,0.21,0.14,-0.91,-23.3846,-66.5978,40.6731,1022.64
814664,-0.586054,9.92323,-0.0948522,0.28,0,-0.84,-23.3846,-66.5978,40.6731,1022.62
814670,-0.571835,9.88037,-0.104356,0.14,-0.14,-0.77,-23.3846,-66.5978,40.6731,1022.62
814676,-0.533917,9.86608,-0.128115,0,17.85,-0.77,-23.3846,-66.5978,40.6731,1022.62
814682,-0.514959,9.81369,-0.137619,0.28,0,-0.77,-23.3846,-66.5978,40.6731,1022.61
814688,-0.505479,9.82798,-0.118612,0.28,-0.07,-0.77,-23.3846,-66.5978,40.6731,1022.61
814694,-0.533917,9.84227,-0.0901003,0.21,0.07,-0.77,-23.3846,-66.5978,40.6731,1022.61
814700,-0.519698,9.83751,-0.109108,0.28,0,-0.63,-23.3846,-66.5978,40.6731,1022.61
814706,-0.529178,9.81369,-0.118612,0.28,0,-0.7,-23.3846,-66.5978,40.6731,1022.61
814712,-0.50074,9.83274,-0.147123,0.49,0.07,-0.7,-23.3846,-66.5978,40.6731,1022.61
814718,-0.562356,9.84703,-0.137619,0.56,0.14,-0.7,-23.3846,-66.5978,40.6731,1022.61
814724,-0.552876,9.84703,-0.0948522,0.42,0,-0.7,-23.3846,-66.5978,40.6731,1022.61
814730,-0.590794,9.85179,-0.132867,0.49,0.07,-0.7,-23.3846,-66.5978,40.6731,1022.61
814736,-0.590794,9.83751,-0.161378,0.56,0,-0.63,-23.3846,-66.5978,40.6731,1022.63
814742,-0.481781,9.90895,-0.132867,0.42,-0.07,-0.77,-23.3846,-66.5978,40.6731,1022.63
814748,-0.529178,9.79941,-0.109108,0.28,-0.07,-0.77,-23.3846,-66.5978,40.6731,1022.61
814754,-0.467562,9.83274,-0.104356,0.28,0,-0.77,-23.3846,-66.5978,40.6731,1022.61
814760,-0.533917,9.85179,-0.099604,0.21,0.07,-0.7,-23.3846,-66.5978,40.6731,1022.64
814766,-0.519698,9.82798,-0.118612,0.35,0,-0.7,-23.3846,-66.5978,40.6731,1022.64
814772,-0.590794,9.81846,-0.147123,0.35,-0.07,-0.7,-23.3846,-66.5978,40.6731,1022.64
814778,-0.533917,9.87084,-0.161378,0.21,0,-0.7,-23.3846,-66.5978,40.6731,1022.66
814784,-0.557616,9.93276,-0.0948522,0.14,0,-0.7,-23.3846,-66.5978,40.6731,1022.66
814790,-0.552876,9.84227,-0.118612,0.28,0,-0.63,-23.3846,-66.5978,40.6731,1022.63
814796,-0.529178,9.83751,-0.16613,0.21,-0.07,-0.49,-23.3846,-66.5978,40.6731,1022.63
814802,-0.538657,9.80893,-0.151875,0.14,-0.07,-0.56,-23.3846,-66.5978,40.6731,1022.63
814808,-0.524438,9.86608,-0.099604,0.21,-0.21,-0.49,-23.3846,-66.5978,40.6731,1022.63
814814,-0.595534,9.84227,-0.118612,0.35,-0.07,-0.35,-23.3846,-66.5978,40.6731,1022.66
814820,-0.581314,9.88037,-0.109108,0.28,-0.21,-0.28,-23.3846,-66.5978,40.6731,1022.66
814826,-0.519698,9.83274,-0.0948522,0.14,-0.35,-0.28,-23.3846,-66.5978,40.6731,1022.66
814832,-0.548137,9.81846,-0.137619,0.14,-0.35,-0.28,-23.3846,-66.5978,40.6731,1022.63
814838,-0.590794,9.84227,-0.0568372,0.35,-0.21,-0.28,-23.3846,-66.5978,40.6731,1022.63
814844,-0.576575,9.87084,-0.099604,0.28,-0.21,-0.35,-23.3846,-66.5978,40.6731,1022.59
814850,-0.567095,9.83274,-0.161378,0.21,-0.21,-0.35,-23.3846,-66.5978,40.6731,1022.59
814856,-0.605013,9.85179,-0.0473335,0.21,-0.07,-0.28,-23.3846,-66.5978,40.6731,1022.6
814862,-0.576575,9.86132,-0.0520854,0.28,-0.14,-0.21,-23.3846,-66.5978,40.6731,1022.6
814868,-0.477041,9.80417,-0.0473335,0.07,-0.07,-0.35,-23.3846,-66.5978,40.6731,1022.59
814874,-0.548137,9.88513,-0.0710928,0.35,-0.07,-0.35,-23.3846,-66.5978,40.6731,1022.59
814880,-0.514959,9.86132,-0.199393,0.35,-0.21,-0.42,-23.3846,-66.5978,40.6731,1022.59
814886,-0.552876,9.92323,-0.099604,0.21,-0.14,-0.49,-23.3846,-66.5978,40.6731,1022.62
814892,-0.472301,9.79464,-0.099604,0.28,-0.21,-0.49,-23.3846,-66.5978,40.6731,1022.62
814898,-0.505479,9.82798,-0.118612,0.42,0,-0.42,-23.3846,-66.5978,40.6731,1022.62
814904,-0.567095,9.89466,-0.109108,0.49,0.14,-0.49,-23.3846,-66.5978,40.6731,1022.62
814910,-0.543397,9.83751,-0.147123,0.49,0,-0.42,-23.3846,-66.5978,40.6731,1022.65
814916,-0.557616,9.81846,-0.123363,0.21,-0.14,-0.35,-23.3846,-66.5978,40.6731,1022.65
814922,-0.581314,9.79941,-0.123363,0.35,-0.14,-0.42,-23.3846,-66.5978,40.6731,1022.65
814928,-0.552876,9.90895,-0.137619,0.28,-0.14,-0.35,-23.3846,-66.5978,40.6731,1022.66
814934,-0.609753,9.90895,-0.0853484,0.14,-0.21,-0.35,-23.3846,-66.5978,40.6731,1022.66
814940,-0.538657,9.80417,-0.099604,0.14,-0.28,-0.21,-23.3846,-66.5978,40.6731,1022.62
814946,-0.567095,9.84703,-0.0853484,0.07,-0.49,-0.07,-23.3846,-66.5978,40.6731,1022.62
814952,-0.481781,9.81369,-0.0473335,0.21,-0.42,-0.07,-23.3846,-66.5978,40.6731,1022.61
814958,-0.548137,9.84703,-0.118612,0.21,-0.28,-0.07,-23.3846,-66.5978,40.6731,1022.61
814964,-0.524438,9.86132,-0.175634,0.21,-0.28,-0.07,-23.3846,-66.5978,40.6731,1022.67
814970,-0.505479,9.82798,-0.118612,0.21,-0.35,-0.21,-23.3846,-66.5978,40.6731,1022.67
814976,-0.562356,9.88513,-0.118612,0.28,-0.28,-0.28,-23.3846,-66.5978,40.6731,1022.67
814982,-0.552876,9.85656,-0.151875,0.35,-0.28,-0.21,-23.3846,-66.5978,40.6731,1022.62
814988,-0.50074,9.84227,-0.137619,0.28,-0.42,-0.28,-23.3846,-66.5978,40.6731,1022.62
814994,-0.533917,9.84227,-0.109108,0.14,-0.35,-0.28,-23.3846,-66.5978,40.6731,1022.62
815000,-0.557616,9.83751,-0.109108,0.14,-0.35,-0.28,-23.3846,-66.5978,40.6731,1022.62
815006,-0.477041,9.80417,-0.118612,0.14,-0.42,-0.21,-23.3846,-66.5978,40.6731,1022.62
815012,-0.486521,9.81369,-0.11386,0.21,-0.21,-0.35,-23.3846,-66.5978,40.6731,1022.62
815018,-0.514959,9.83274,-0.0805966,0.35,0,-0.35,-23.3846,-66.5978,40.6731,1022.62
815024,-0.571835,9.86608,-0.123363,0.35,-0.21,-0.49,-23.3846,-66.5978,40.6731,1022.64
815030,-0.548137,9.86132,-0.180386,0.28,-0.21,-0.42,-23.3846,-66.5978,40.6731,1022.64
815036,-0.557616,9.85656,-0.118612,0.28,-0.21,-0.35,-23.3846,-66.5978,40.6731,1022.64
815042,-0.49126,9.89466,-0.156626,0.14,-0.35,-0.35,-23.3846,-66.5978,40.6731,1022.64
815048,-0.50074,9.82798,-0.137619,0.14,-0.35,-0.21,-23.3846,-66.5978,40.6731,1022.63
815054,-0.562356,9.85656,-0.0901003,0.14,-0.35,-0.07,-23.3846,-66.5978,40.6731,1022.63
815060,-0.567095,9.83274,-0.104356,0.14,-0.49,0,-23.3846,-66.5978,40.6731,1022.63
815066,-0.567095,9.83751,-0.109108,0.21,-0.49,-0.07,-23.3846,-66.5978,40.6731,1022.63
815072,-0.514959,9.80893,-0.11386,0.21,-0.42,-0.14,-23.3846,-66.5978,40.6731,1022.63
815078,-0.533917,9.84703,-0.0520854,0.21,-0.28,-0.07,-23.3846,-66.5978,40.6731,1022.62
815084,-0.505479,9.84227,-0.0948522,0.14,-0.28,-0.14,-23.3846,-66.5978,40.6731,1022.62
815090,-0.567095,9.79464,-0.109108,0.28,-0.28,-0.07,-23.3846,-66.5978,40.6731,1022.61
815096,-0.557616,9.84227,-0.099604,0.21,-0.28,0,-23.3846,-66.5978,40.6731,1022.61
815102,-0.505479,9.78036,-0.132867,0.28,-0.28,-0.07,-23.3846,-66.5978,40.6731,1022.63
815108,-0.533917,9.83274,-0.099604,0.21,-0.14,-0.21,-23.3846,-66.5978,40.6731,1022.63
815114,-0.548137,9.85179,-0.0853484,0.21,-0.14,-0.21,-23.3846,-66.5978,40.6731,1022.63
815120,-0.562356,9.82798,-0.142371,0.14,-0.21,-0.28,-23.3846,-66.5978,40.6731,1022.64
815126,-0.562356,9.86132,-0.161378,0.14,-0.28,-0.14,-23.3846,-66.5978,40.6731,1022.64
815132,-0.458082,9.81369,-0.0948522,0.07,-0.28,-0.28,-23.3846,-66.5978,40.6731,1022.61
815138,-0.496,9.80417,-0.0948522,0.21,-0.14,-0.21,-23.3846,-66.5978,40.6731,1022.61
815144,-0.514959,9.80893,-0.0758447,0.35,-0.07,-0.35,-23.3846,-66.5978,40.6731,1022.65
815150,-0.486521,9.85656,-0.0853484,0.42,0,-0.42,-23.3846,-66.5978,40.6731,1022.65
815156,-0.519698,9.80417,-0.0948522,0.49,-0.07,-0.49,-23.3846,-66.5978,40.6731,1022.62
815162,-0.552876,9.86132,-0.0948522,0.42,0,-0.49,-23.3846,-66.5978,40.6731,1022.62
815168,-0.595534,9.928,-0.151875,0.28,-0.07,-0.42,-23.3846,-66.5978,40.6731,1022.62
815174,-0.557616,9.88037,-0.151875,0.28,-0.28,-0.28,-23.3846,-66.5978,40.6731,1022.63
815180,-0.562356,9.87084,-0.123363,0.07,-0.28,-0.21,-23.3846,-66.5978,40.6731,1022.63
815186,-0.505479,9.83274,-0.161378,-0.07,-0.49,-0.14,-23.3846,-66.5978,40.6731,1022.64
815192,-0.581314,9.84703,-0.0758447,-0.14,-0.49,-0.21,-23.3846,-66.5978,40.6731,1022.64
815198,-0.538657,9.78512,-0.066341,0,-0.42,-0.07,-23.3846,-66.5978,40.6731,1022.57
815204,-0.567095,9.85179,-0.104356,0.35,-0.42,0,-23.3846,-66.5978,40.6731,1022.57
815210,-0.538657,9.83274,-0.147123,0.28,-0.35,0,-23.3846,-66.5978,40.6731,1022.62
815216,-0.458082,9.83751,-0.109108,0.21,-0.49,-0.07,-23.3846,-66.5978,40.6731,1022.62
815222,-0.548137,9.81846,-0.0710928,0.35,-0.35,-0.21,-23.3846,-66.5978,40.6731,1022.62
815228,-0.552876,9.87084,-0.123363,0.42,-0.28,-0.21,-23.3846,-66.5978,40.6731,1022.62
815234,-0.496,9.79941,-0.11386,0.21,-0.35,-0.21,-23.3846,-66.5978,40.6731,1022.62
815240,-0.49126,9.82798,-0.109108,0.14,-0.21,-0.35,-23.3846,-66.5978,40.6731,1022.65
815246,-0.510219,9.82798,-0.104356,0.21,-0.14,-0.42,-23.3846,-66.5978,40.6731,1022.65
815252,-0.514959,9.79941,-0.170882,0.21,-0.07,-0.49,-23.3846,-66.5978,40.6731,1022.64
815258,-0.557616,9.75654,-0.11386,0.28,-0.14,-0.49,-23.3846,-66.5978,40.6731,1022.64
815264,-0.458082,9.80417,-0.11386,0.35,0.07,-0.49,-23.3846,-66.5978,40.6731,1022.64
815270,-0.552876,9.86608,-0.0853484,0.28,0.21,-0.49,-23.3846,-66.5978,40.6731,1022.61
815276,-0.567095,9.86132,-0.142371,0.28,0,-0.56,-23.3846,-66.5978,40.6731,1022.61
815282,-0.510219,9.8899,-0.132867,0.21,-0.14,-0.49,-23.3846,-66.5978,40.6731,1022.63
815288,-0.562356,9.82322,-0.0805966,0.28,-0.07,-0.49,-23.3846,-66.5978,40.6731,1022.63
815294,-0.567095,9.87084,-0.118612,0.28,-0.21,-0.35,-23.3846,-66.5978,40.6731,1022.62
815300,-0.519698,9.87084,-0.0948522,0.21,-0.35,-0.21,-23.3846,-66.5978,40.6731,1022.62
815306,-0.557616,9.86132,-0.132867,0.14,-0.42,-0.28,-23.3846,-66.5978,40.6731,1022.61
815312,-0.538657,9.83751,-0.0901003,0.14,-0.35,-0.35,-23.3846,-66.5978,40.6731,1022.61
815318,-0.548137,9.84227,-0.11386,0.14,-0.28,-0.42,-23.3846,-66.5978,40.6731,1022.61
815324,-0.562356,9.81846,-0.0615891,0.28,-0.14,-0.49,-23.3846,-66.5978,40.6731,1022.62
815330,-0.529178,9.84703,-0.128115,0.28,-0.28,-0.35,-23.3846,-66.5978,40.6731,1022.62
815336,-0.50074,9.78988,-0.123363,0.07,-0.35,-0.42,-23.3846,-66.5978,40.6731,1022.62
815342,-0.519698,9.79464,-0.0568372,0.14,-0.28,-0.35,-23.3846,-66.5978,40.6731,1022.62
815348,-0.524438,9.78988,-0.0948522,0.28,-0.07,-0.56,-23.3846,-66.5978,40.6731,1022.63
815354,-0.519698,9.84703,-0.066341,0.42,0,-0.49,-23.3846,-66.5978,40.6731,1022.63
815360,-0.481781,9.83274,-0.0758447,0.42,0,-0.49,-23.3846,-66.5978,40.6731,1022.63
815366,-0.481781,9.85179,-0.161378,0.35,0,-0.56,-23.3846,-66.5978,40.6731,1022.64
815372,-0.477041,9.86132,-0.118612,0.35,0,-0.63,-23.3846,-66.5978,40.6731,1022.64
815378,-0.510219,9.84227,-0.123363,0.42,-0.07,-0.7,-23.3846,-66.5978,40.6731,1022.64
815384,-0.562356,9.80417,-0.147123,0.28,-0.07,-0.63,-23.3846,-66.5978,40.6731,1022.64
815390,-0.510219,9.86608,-0.099604,0.14,-0.14,-0.49,-23.3846,-66.5978,40.6731,1022.64
815396,-0.529178,9.78512,-0.156626,0.28,-0.21,-0.42,-23.3846,-66.5978,40.6731,1022.64
815402,-0.529178,9.85179,-0.147123,0.07,-0.28,-0.28,-23.3846,-66.5978,40.6731,1022.62
815408,-0.590794,9.86608,-0.0853484,-0.07,-0.42,-0.28,-23.3846,-66.5978,40.6731,1022.62
815414,-0.548137,9.82322,-0.109108,-0.14,-0.56,-0.28,-23.3846,-66.5978,40.6731,1022.62
815420,-0.552876,9.82322,-0.0378297,-0.07,-0.42,-0.21,-23.3846,-66.5978,40.6731,1022.63
815426,-0.595534,9.8899,-0.156626,0.21,-0.56,0.07,-23.3846,-66.5978,40.6731,1022.63
815432,-0.533917,9.83274,-0.132867,-0.14,-0.56,0.07,-23.3846,-66.5978,40.6731,1022.62
815438,-0.529178,9.84703,-0.0758447,0.07,-0.56,0.14,-23.3846,-66.5978,40.6731,1022.62
815444,-0.481781,9.85179,-0.11386,0.28,-0.56,0.14,-23.3846,-66.5978,40.6731,1022.63
815450,-0.533917,9.83751,-0.0758447,0.21,-0.56,0,-23.3846,-66.5978,40.6731,1022.63
815456,-0.496,9.83274,-0.109108,0.49,-0.35,0,-23.3846,-66.5978,40.6731,1022.63
815462,-0.458082,9.80893,-0.128115,0.49,-0.21,-0.21,-23.3846,-66.5978,40.6731,1022.61
815468,-0.562356,9.80417,-0.118612,0.28,-0.28,-0.28,-23.3846,-66.5978,40.6731,1022.61
815474,-0.486521,9.80893,-0.0853484,0.21,-0.35,-0.28,-23.3846,-66.5978,40.6731,1022.63
815480,-0.524438,9.85179,-0.118612,0.21,-0.07,-0.56,-23.3846,-66.5978,40.6731,1022.63
815486,-0.50074,9.84227,-0.104356,0.21,-0.14,-0.49,-23.3846,-66.5978,40.6731,1022.6
815492,-0.543397,9.82322,-0.099604,0.21,-0.14,-0.49,-23.3846,-66.5978,40.6731,1022.6
815498,-0.524438,9.89942,-0.132867,0.14,-0.07,-0.49,-23.3846,-66.5978,40.6731,1022.63
815504,-0.533917,9.87561,-0.104356,0.28,-0.07,-0.56,-23.3846,-66.5978,40.6731,1022.63
815510,-0.49126,9.83274,-0.118612,0.21,-0.07,-0.42,-23.3846,-66.5978,40.6731,1022.63
815516,-0.524438,9.84703,-0.0901003,0.35,-0.14,-0.35,-23.3846,-66.5978,40.6731,1022.63
815522,-0.529178,9.78512,-0.11386,0.35,-0.14,-0.42,-23.3846,-66.5978,40.6731,1022.63
815528,-0.481781,9.83274,-0.099604,0.14,-0.14,-0.42,-23.3846,-66.5978,40.6731,1022.61
815534,-0.661889,9.83274,-0.109108,0.35,0,-0.35,-23.3846,-66.5978,40.6731,1022.61
815540,-0.576575,9.928,-0.175634,0.35,-0.35,-0.28,-23.3846,-66.5978,40.6731,1022.62
815546,-0.552876,9.88037,-0.099604,0,-0.49,-0.21,-23.3846,-66.5978,40.6731,1022.62
815552,-0.496,9.77559,-0.0188223,-0.07,-0.56,-0.14,-23.3846,-66.5978,40.6731,1022.65
815558,-0.571835,9.83274,-0.0853484,0.21,-0.28,-0.07,-23.3846,-66.5978,40.6731,1022.65
815564,-0.50074,9.86608,-0.0853484,0,-0.49,-0.07,-23.3846,-66.5978,40.6731,1022.65
815570,-0.448603,9.78988,-0.0520854,0.07,-0.35,-0.14,-23.3846,-66.5978,40.6731,1022.65
815576,-0.543397,9.83751,-0.137619,0.35,-0.28,-0.14,-23.3846,-66.5978,40.6731,1022.65
815582,-0.567095,9.81846,-0.142371,0.42,-0.14,-0.21,-23.3846,-66.5978,40.6731,1022.58
815588,-0.505479,9.86608,-0.137619,0.28,-0.14,-0.42,-23.3846,-66.5978,40.6731,1022.58
815594,-0.434384,9.80417,-0.099604,0.35,0,-0.35,-23.3846,-66.5978,40.6731,1022.64
815600,-0.472301,9.79464,-0.066341,0.35,0,-0.35,-23.3846,-66.5978,40.6731,1022.64
815606,-0.50074,9.83751,-0.11386,0.21,0,-0.42,-23.3846,-66.5978,40.6731,1022.64
815612,-0.486521,9.82322,-0.109108,0.35,0,-0.56,-23.3846,-66.5978,40.6731,1022.66
815618,-0.496,9.88037,-0.0710928,0.35,-0.07,-0.49,-23.3846,-66.5978,40.6731,1022.66
815624,-0.538657,9.86608,-0.109108,0.21,-0.21,-0.49,-23.3846,-66.5978,40.6731,1022.62
815630,-0.548137,9.87084,-0.099604,0.07,-0.14,-0.49,-23.3846,-66.5978,40.6731,1022.62
815636,-0.529178,9.85179,-0.0853484,-0.07,-0.14,-0.56,-23.3846,-66.5978,40.6731,1022.63
815642,-0.50074,9.82322,-0.11386,0,-0.21,-0.49,-23.3846,-66.5978,40.6731,1022.63
815648,-0.533917,9.84227,-0.109108,-0.07,-0.21,-0.42,-23.3846,-66.5978,40.6731,1022.63
815654,-0.557616,9.82798,-0.0901003,0.07,-0.07,-0.35,-23.3846,-66.5978,40.6731,1022.63
815660,-0.543397,9.81369,-0.104356,0.21,0,-0.35,-23.3846,-66.5978,40.6731,1022.63
815666,-0.477041,9.84703,-0.123363,0.28,-0.14,-0.42,-23.3846,-66.5978,40.6731,1022.62
815672,-0.519698,9.84703,-0.104356,0.35,-0.14,-0.35,-23.3846,-66.5978,40.6731,1022.62
815678,-0.548137,9.86608,-0.0901003,0.42,-0.07,-0.42,-23.3846,-66.5978,40.6731,1022.61
815684,-0.543397,9.85656,-0.109108,0.42,-0.14,-0.28,-23.3846,-66.5978,40.6731,1022.61
815690,-0.481781,9.81369,-0.142371,0.35,-0.28,-0.21,-23.3846,-66.5978,40.6731,1022.59
815696,-0.49126,9.79464,-0.109108,0.21,-0.21,-0.35,-23.3846,-66.5978,40.6731,1022.59
815702,-0.543397,9.81846,-0.099604,0.35,-0.07,-0.35,-23.3846,-66.5978,40.6731,1022.59
815708,-0.49126,9.85179,-0.104356,0.49,-0.07,-0.35,-23.3846,-66.5978,40.6731,1022.64
815714,-0.467562,9.80893,-0.175634,0.42,0,-0.42,-23.3846,-66.5978,40.6731,1022.64
815720,-0.510219,9.8899,-0.0901003,0.42,0.07,-0.35,-23.3846,-66.5978,40.6731,1022.62
815726,-0.50074,9.83751,-0.132867,0.42,0,-0.42,-23.3846,-66.5978,40.6731,1022.62
815732,-0.448603,9.79941,-0.066341,0.35,0,-0.56,-23.3846,-66.5978,40.6731,1022.6
815738,-0.472301,9.77559,-0.099604,0.49,0.07,-0.56,-23.3846,-66.5978,40.6731,1022.6
815744,-0.477041,9.86132,-0.170882,0.42,0.07,-0.63,-23.3846,-66.5978,40.6731,1022.62
815750,-0.586054,9.87084,-0.104356,0.28,0,-0.49,-23.3846,-66.5978,40.6731,1022.62
815756,-0.567095,9.86132,-0.156626,0.28,0,-0.56,-23.3846,-66.5978,40.6731,1022.62
815762,-0.50074,9.85656,-0.128115,0.21,-0.07,-0.49,-23.3846,-66.5978,40.6731,1022.65
815768,-0.557616,9.85656,-0.0853484,0.28,-0.07,-0.49,-23.3846,-66.5978,40.6731,1022.65
815774,-0.562356,9.79941,-0.109108,0.42,-0.14,-0.42,-23.3846,-66.5978,40.6731,1022.62
815780,-0.529178,9.82322,-0.11386,0.28,-0.21,-0.42,-23.3846,-66.5978,40.6731,1022.62
815786,-0.496,9.87561,-0.0378297,0.28,-0.21,-0.42,-23.3846,-66.5978,40.6731,1022.64
815792,-0.543397,9.82798,-0.142371,0.35,-0.14,-0.35,-23.3846,-66.5978,40.6731,1022.64
815798,-0.50074,9.87084,-0.0948522,0.42,0,-0.49,-23.3846,-66.5978,40.6731,1022.64
815804,-0.519698,9.86132,-0.180386,0.42,-0.14,-0.28,-23.3846,-66.5978,40.6731,1022.64
815810,-0.548137,9.85656,-0.11386,0.35,-0.28,-0.28,-23.3846,-66.5978,40.6731,1022.64
815816,-0.529178,9.81846,-0.0805966,0.28,-0.28,-0.35,-23.3846,-66.5978,40.6731,1022.61
815822,-0.514959,9.79464,-0.099604,0.42,-0.21,-0.42,-23.3846,-66.5978,40.6731,1022.61
815828,-0.524438,9.88513,-0.118612,0.28,0,-0.35,-23.3846,-66.5978,40.6731,1022.63
815834,-0.524438,9.78988,-0.0901003,0.28,-0.14,-0.42,-23.3846,-66.5978,40.6731,1022.63
815840,-0.467562,9.80417,-0.104356,0.28,-0.07,-0.49,-23.3846,-66.5978,40.6731,1022.62
815846,-0.519698,9.81369,-0.118612,0.35,0,-0.49,-23.3846,-66.5978,40.6731,1022.62
815852,-0.486521,9.83751,-0.118612,0.42,0,-0.56,-23.3846,-66.5978,40.6731,1022.62
815858,-0.486521,9.84227,-0.11386,0.28,0,-0.56,-23.3846,-66.5978,40.6731,1022.64
815864,-0.510219,9.83751,-0.123363,0.21,0,-0.49,-23.3846,-66.5978,40.6731,1022.64
815870,-0.533917,9.84703,-0.0948522,0.28,0,-0.56,-23.3846,-66.5978,40.6731,1022.63
815876,-0.533917,9.80417,-0.109108,0.49,-0.07,-0.63,-23.3846,-66.5978,40.6731,1022.63
815882,-0.505479,9.80893,-0.0948522,0.28,0,-0.35,-23.3846,-66.5978,40.6731,1022.61
815888,-0.552876,9.82322,-0.118612,0.42,0,-0.42,-23.3846,-66.5978,40.6731,1022.61
815894,-0.49126,9.80893,-0.0948522,0.42,0,-0.42,-23.3846,-66.5978,40.6731,1022.62
815900,-0.519698,9.82798,-0.151875,0.28,-0.14,-0.42,-23.3846,-66.5978,40.6731,1022.62
815906,-0.496,9.84703,-0.099604,0.28,-0.14,-0.28,-23.3846,-66.5978,40.6731,1022.62
815912,-0.562356,9.83274,-0.147123,0.56,-0.21,-0.28,-23.3846,-66.5978,40.6731,1022.61
815918,-0.533917,9.84227,-0.16613,0.49,-0.21,-0.21,-23.3846,-66.5978,40.6731,1022.61
815924,-0.477041,9.85179,-0.104356,0.35,-0.28,-0.21,-23.3846,-66.5978,40.6731,1022.64
815930,-0.548137,9.81846,-0.109108,0.28,-0.35,-0.21,-23.3846,-66.5978,40.6731,1022.64
815936,-0.519698,9.88513,-0.128115,0.21,-0.21,-0.21,-23.3846,-66.5978,40.6731,1022.62
815942,-0.519698,9.87084,-0.0853484,0.21,-0.21,-0.21,-23.3846,-66.5978,40.6731,1022.62
815948,-0.529178,9.83274,-0.104356,0.28,-0.21,-0.28,-23.3846,-66.5978,40.6731,1022.62
815954,-0.519698,9.81846,-0.137619,0.28,-0.21,-0.35,-23.3846,-66.5978,40.6731,1022.63
815960,-0.538657,9.79464,-0.0901003,0.21,-0.07,-0.35,-23.3846,-66.5978,40.6731,1022.63
815966,-0.505479,9.80893,-0.0568372,0.35,-0.14,-0.49,-23.3846,-66.5978,40.6731,1022.61
815972,-0.510219,9.87561,-0.0901003,0.42,-0.07,-0.56,-23.3846,-66.5978,40.6731,1022.61
815978,-0.557616,9.86608,-0.118612,0.28,0,-0.56,-23.3846,-66.5978,40.6731,1022.61
815984,-0.524438,9.83751,-0.128115,0.28,0,-0.7,-23.3846,-66.5978,40.6731,1022.61
815990,-0.524438,9.85179,-0.099604,0.49,0.07,-0.7,-23.3846,-66.5978,40.6731,1022.62
815996,-0.543397,9.90418,-0.0901003,0.35,0.07,-0.63,-23.3846,-66.5978,40.6731,1022.62
816002,-0.581314,9.82798,-0.11386,0.28,-0.07,-0.56,-23.3846,-66.5978,40.6731,1022.62
816008,-0.472301,9.89942,-0.151875,0.35,-0.07,-0.63,-23.3846,-66.5978,40.6731,1022.62
816014,-0.538657,9.91371,-0.0948522,0.28,-0.07,-0.56,-23.3846,-66.5978,40.6731,1022.62
816020,-0.552876,9.88513,-0.0710928,0.42,-0.07,-0.49,-23.3846,-66.5978,40.6731,1022.64
816026,-0.576575,9.86608,-0.099604,0.28,-0.28,-0.42,-23.3846,-66.5978,40.6731,1022.64
816032,-0.496,9.80417,-0.0758447,0.14,-0.21,-0.35,-23.3846,-66.5978,40.6731,1022.64
816038,-0.552876,9.79464,-0.109108,0.28,-0.21,-0.35,-23.3846,-66.5978,40.6731,1022.64
816044,-0.519698,9.88513,-0.118612,0.35,-0.07,-0.42,-23.3846,-66.5978,40.6731,1022.64
816050,-0.524438,9.83274,-0.0758447,0.28,-0.14,-0.35,-23.3846,-66.5978,40.6731,1022.58
816056,-0.538657,9.80417,-0.0805966,0.21,-0.07,-0.49,-23.3846,-66.5978,40.6731,1022.58
816062,-0.467562,9.85656,-0.0853484,0.42,-0.14,-0.35,-23.3846,-66.5978,40.6731,1022.61
816068,-0.50074,9.83274,-0.109108,0.35,-0.21,-0.35,-23.3846,-66.5978,40.6731,1022.61
816074,-0.505479,9.77559,-0.109108,0.28,-0.07,-0.49,-23.3846,-66.5978,40.6731,1022.65
816080,-0.510219,9.83751,-0.11386,0.42,-0.07,-0.56,-23.3846,-66.5978,40.6731,1022.65
816086,-0.519698,9.78512,-0.0710928,0.28,-0.07,-0.42,-23.3846,-66.5978,40.6731,1022.62
816092,-0.533917,9.84227,-0.11386,0.49,0.14,-0.63,-23.3846,-66.5978,40.6731,1022.62
816098,-0.552876,9.86132,-0.16613,0.35,0.07,-0.63,-23.3846,-66.5978,40.6731,1022.62
816104,-0.496,9.83751,-0.142371,0.21,0,-0.7,-23.3846,-66.5978,40.6731,1022.63
816110,-0.533917,9.83751,-0.142371,0.28,0.14,-0.7,-23.3846,-66.5978,40.6731,1022.63
816116,-0.524438,9.82798,-0.109108,0.28,0.14,-0.63,-23.3846,-66.5978,40.6731,1022.62
816122,-0.567095,9.90418,-0.151875,0.35,-0.07,-0.56,-23.3846,-66.5978,40.6731,1022.62
816128,-0.529178,9.84227,-0.142371,0.21,-0.14,-0.42,-23.3846,-66.5978,40.6731,1022.62
816134,-0.600273,9.86132,-0.11386,0.07,-0.28,-0.35,-23.3846,-66.5978,40.6731,1022.62
816140,-0.510219,9.87084,-0.109108,0.14,-0.21,-0.35,-23.3846,-66.5978,40.6731,1022.62
816146,-0.477041,9.84227,-0.128115,0,-0.42,-0.35,-23.3846,-66.5978,40.6731,1022.64
816152,-0.49126,9.78512,-0.0901003,0.07,-0.42,-0.35,-23.3846,-66.5978,40.6731,1022.64
816158,-0.510219,9.82798,-0.104356,0.35,-0.28,-0.35,-23.3846,-66.5978,40.6731,1022.66
816164,-0.49126,9.83274,-0.128115,0.49,-0.21,-0.42,-23.3846,-66.5978,40.6731,1022.66
816170,-0.562356,9.81369,-0.11386,0.14,-0.21,-0.42,-23.3846,-66.5978,40.6731,1022.63
816176,-0.50074,9.78988,-0.099604,0.42,-0.07,-0.49,-23.3846,-66.5978,40.6731,1022.63
816182,-0.543397,9.81369,-0.109108,0.42,-0.07,-0.56,-23.3846,-66.5978,40.6731,1022.62
816188,-0.505479,9.83751,-0.0805966,0.35,-0.14,-0.63,-23.3846,-66.5978,40.6731,1022.62
816194,-0.486521,9.86132,-0.156626,0.35,-0.07,-0.63,-23.3846,-66.5978,40.6731,1022.62
816200,-0.49126,9.83274,-0.142371,0.35,0.07,-0.77,-23.3846,-66.5978,40.6731,1022.66
816206,-0.529178,9.82798,-0.099604,0.21,0,-0.77,-23.3846,-66.5978,40.6731,1022.66
816212,-0.529178,9.85656,-0.142371,0.21,0,-0.84,-23.3846,-66.5978,40.6731,1022.65
816218,-0.49126,9.80417,-0.0948522,0.28,0,-0.63,-23.3846,-66.5978,40.6731,1022.65
816224,-0.481781,9.86132,-0.142371,0.35,-0.14,-0.7,-23.3846,-66.5978,40.6731,1022.63
816230,-0.548137,9.8899,-0.147123,0.28,-0.07,-0.7,-23.3846,-66.5978,40.6731,1022.63
816236,-0.562356,9.8899,-0.147123,0.28,-0.07,-0.56,-23.3846,-66.5978,40.6731,1022.65
816242,-0.614492,9.87084,-0.109108,0.28,-0.21,-0.49,-23.3846,-66.5978,40.6731,1022.65
816248,-0.538657,9.81369,-0.128115,0.28,-0.28,-0.42,-23.3846,-66.5978,40.6731,1022.65
816254,-0.538657,9.83274,-0.118612,0.42,-0.14,-0.35,-23.3846,-66.5978,40.6731,1022.6
816260,-0.605013,9.86608,-0.11386,0.42,-0.21,-0.42,-23.3846,-66.5978,40.6731,1022.6
816266,-0.524438,9.86132,-0.118612,0.35,-0.21,-0.42,-23.3846,-66.5978,40.6731,1022.63
816272,-0.519698,9.84703,-0.123363,0.28,-0.21,-0.35,-23.3846,-66.5978,40.6731,1022.63
816278,-0.50074,9.81369,-0.0853484,0.21,-0.28,-0.35,-23.3846,-66.5978,40.6731,1022.65
816284,-0.519698,9.83274,-0.109108,0.35,-0.14,-0.35,-23.3846,-66.5978,40.6731,1022.65
816290,-0.514959,9.83274,-0.156626,0.28,-0.14,-0.42,-23.3846,-66.5978,40.6731,1022.65
816296,-0.505479,9.79464,-0.118612,0.35,-0.14,-0.42,-23.3846,-66.5978,40.6731,1022.64
816302,-0.486521,9.77559,-0.104356,0.35,-0.14,-0.49,-23.3846,-66.5978,40.6731,1022.64
816308,-0.510219,9.79464,-0.170882,0.28,-0.07,-0.7,-23.3846,-66.5978,40.6731,1022.63
816314,-0.505479,9.85179,-0.123363,0.28,-0.07,-0.84,-23.3846,-66.5978,40.6731,1022.63
816320,-0.50074,9.78988,-0.128115,0.28,0,-0.84,-23.3846,-66.5978,40.6731,1022.62
816326,-0.50074,9.84227,-0.132867,0.21,0.07,-0.77,-23.3846,-66.5978,40.6731,1022.62
816332,-0.557616,9.86132,-0.0901003,0.28,0.07,-0.77,-23.3846,-66.5978,40.6731,1022.64
816338,-0.50074,9.87561,-0.109108,0.28,0,-0.84,-23.3846,-66.5978,40.6731,1022.64
816344,-0.567095,9.79941,-0.147123,0.28,0,-0.77,-23.3846,-66.5978,40.6731,1022.64
816350,-0.519698,9.82322,-0.104356,0.21,0,-0.77,-23.3846,-66.5978,40.6731,1022.65
816356,-0.510219,9.80417,-0.118612,0.35,0.14,-0.77,-23.3846,-66.5978,40.6731,1022.65
816362,-0.567095,9.90895,-0.151875,0.21,-0.07,-0.63,-23.3846,-66.5978,40.6731,1022.64
816368,-0.533917,9.83274,-0.109108,0.28,0,-0.56,-23.3846,-66.5978,40.6731,1022.64
816374,-0.472301,9.76607,-0.0710928,0.42,0,-0.56,-23.3846,-66.5978,40.6731,1022.66
816380,-0.538657,9.82322,-0.132867,0.56,0.14,-0.56,-23.3846,-66.5978,40.6731,1022.66
816386,-0.567095,9.85656,-0.161378,0.28,-0.21,-0.28,-23.3846,-66.5978,40.6731,1022.66
816392,-0.496,9.84227,-0.132867,-0.07,-0.42,-0.35,-23.3846,-66.5978,40.6731,1022.63
816398,-0.467562,9.77559,-0.066341,0.21,-0.28,-0.35,-23.3846,-66.5978,40.6731,1022.63
816404,-0.543397,9.76131,-0.123363,0.49,0,-0.49,-23.3846,-66.5978,40.6731,1022.63
816410,-0.543397,9.82322,-0.0901003,0.42,-0.07,-0.49,-23.3846,-66.5978,40.6731,1022.63
816416,-0.519698,9.81846,-0.109108,0.28,-0.07,-0.49,-23.3846,-66.5978,40.6731,1022.63
816422,-0.557616,9.83751,-0.0901003,0.49,0,-0.49,-23.3846,-66.5978,40.6731,1022.63
816428,-0.496,9.83274,-0.0758447,0.35,0,-0.56,-23.3846,-66.5978,40.6731,1022.61
816434,-0.462822,9.82798,-0.132867,0.35,0,-0.63,-23.3846,-66.5978,40.6731,1022.61
816440,-0.557616,9.84703,-0.099604,0.35,0.07,-0.63,-23.3846,-66.5978,40.6731,1022.61
816446,-0.505479,9.83751,-0.142371,0.35,0.07,-0.63,-23.3846,-66.5978,40.6731,1022.63
816452,-0.49126,9.82798,-0.123363,0.42,0.14,-0.77,-23.3846,-66.5978,40.6731,1022.63
816458,-0.581314,9.86608,-0.132867,0.35,0,-0.77,-23.3846,-66.5978,40.6731,1022.62
816464,-0.533917,9.86608,-0.123363,0.28,0,-0.7,-23.3846,-66.5978,40.6731,1022.62
816470,-0.600273,9.84227,-0.137619,0.49,0,-0.56,-23.3846,-66.5978,40.6731,1022.64
816476,-0.519698,9.86608,-0.099604,0.49,-0.14,-0.56,-23.3846,-66.5978,40.6731,1022.64
816482,-0.519698,9.81369,-0.156626,0.35,-0.21,-0.49,-23.3846,-66.5978,40.6731,1022.64
816488,-0.557616,9.84227,-0.156626,0.28,-0.28,-0.56,-23.3846,-66.5978,40.6731,1022.62
816494,-0.514959,9.82322,-0.0948522,0.35,-0.07,-0.35,-23.3846,-66.5978,40.6731,1022.62
816500,-0.533917,9.81369,-0.099604,0.28,-0.14,-0.35,-23.3846,-66.5978,40.6731,1022.62
816506,-0.505479,9.85656,-0.151875,0.21,-0.28,-0.28,-23.3846,-66.5978,40.6731,1022.62
816512,-0.510219,9.85179,-0.109108,0.28,-0.28,-0.28,-23.3846,-66.5978,40.6731,1022.62
816518,-0.548137,9.86132,-0.0853484,0.42,-0.21,-0.35,-23.3846,-66.5978,40.6731,1022.62
816524,-0.65241,9.83751,-0.0901003,0.49,-0.14,-0.21,-23.3846,-66.5978,40.6731,1022.63
816530,-0.590794,9.85179,-0.180386,0.56,-0.35,0.14,-23.3846,-66.5978,40.6731,1022.63
816536,-0.519698,9.86132,-0.109108,0.21,-0.77,0,-23.3846,-66.5978,40.6731,1022.63
816542,-0.49126,9.75178,-0.0805966,0,-0.56,-0.14,-23.3846,-66.5978,40.6731,1022.67
816548,-0.510219,9.85179,-0.132867,0.56,-0.21,-0.28,-23.3846,-66.5978,40.6731,1022.67
816554,-0.533917,9.78512,-0.16613,0.28,-0.21,-0.28,-23.3846,-66.5978,40.6731,1022.66
816560,-0.481781,9.80417,-0.11386,0.21,-0.35,-0.28,-23.3846,-66.5978,40.6731,1022.66
816566,-0.519698,9.80893,-0.099604,0.49,-0.14,-0.35,-23.3846,-66.5978,40.6731,1022.64
816572,-0.557616,9.83751,-0.132867,0.35,-0.14,-0.56,-23.3846,-66.5978,40.6731,1022.64
816578,-0.49126,9.83751,-0.109108,0.28,-0.07,-0.63,-23.3846,-66.5978,40.6731,1022.62
816584,-0.529178,9.79941,-0.0805966,0.28,0.14,-0.77,-23.3846,-66.5978,40.6731,1022.62
816590,-0.533917,9.86608,-0.118612,0.21,0.07,-0.7,-23.3846,-66.5978,40.6731,1022.62
816596,-0.49126,9.82322,-0.156626,0.35,0.07,-0.63,-23.3846,-66.5978,40.6731,1022.64
816602,-0.519698,9.83751,-0.0568372,0.14,0.14,-0.63,-23.3846,-66.5978,40.6731,1022.64
816608,-0.557616,9.83274,-0.109108,0.28,0,-0.63,-23.3846,-66.5978,40.6731,1022.62
816614,-0.486521,9.84227,-0.0853484,0.35,0.07,-0.56,-23.3846,-66.5978,40.6731,1022.62
816620,-0.548137,9.87561,-0.0805966,0.42,0,-0.49,-23.3846,-66.5978,40.6731,1022.62
816626,-0.576575,9.84703,-0.118612,0.35,-0.07,-0.42,-23.3846,-66.5978,40.6731,1022.62
816632,-0.557616,9.85179,-0.0710928,0.21,-0.14,-0.42,-23.3846,-66.5978,40.6731,1022.62
816638,-0.529178,9.85656,-0.0853484,0.35,-0.28,-0.28,-23.3846,-66.5978,40.6731,1022.63
816644,-0.552876,9.80417,-0.109108,0.28,-0.28,-0.28,-23.3846,-66.5978,40.6731,1022.63
816650,-0.557616,9.83751,-0.128115,0.35,-0.35,-0.21,-23.3846,-66.5978,40.6731,1022.62
816656,-0.510219,9.81369,-0.0948522,0.07,-0.56,-0.21,-23.3846,-66.5978,40.6731,1022.62
816662,-0.519698,9.83274,-0.128115,0.14,-0.42,-0.14,-23.3846,-66.5978,40.6731,1022.66
816668,-0.519698,9.87084,-0.128115,0.21,-0.42,-0.07,-23.3846,-66.5978,40.6731,1022.66
816674,-0.496,9.82798,-0.099604,0.14,-0.35,-0.07,-23.3846,-66.5978,40.6731,1022.62
816680,-0.552876,9.81846,-0.151875,0.35,-0.28,-0.07,-23.3846,-66.5978,40.6731,1022.62
816686,-0.519698,9.84703,-0.147123,0.28,-0.21,-0.14,-23.3846,-66.5978,40.6731,1022.62
816692,-0.519698,9.86132,-0.104356,0.14,-0.28,-0.28,-23.3846,-66.5978,40.6731,1022.6
816698,-0.462822,9.77083,-0.11386,0.28,-0.28,-0.28,-23.3846,-66.5978,40.6731,1022.6
816704,-0.505479,9.83274,-0.123363,0.35,-0.07,-0.35,-23.3846,-66.5978,40.6731,1022.65
816710,-0.524438,9.83751,-0.118612,0.21,-0.14,-0.28,-23.3846,-66.5978,40.6731,1022.65
816716,-0.496,9.85179,-0.151875,0.21,-0.14,-0.42,-23.3846,-66.5978,40.6731,1022.64
816722,-0.533917,9.80893,-0.104356,0.28,-0.07,-0.49,-23.3846,-66.5978,40.6731,1022.64
816728,-0.50074,9.83274,-0.118612,0.35,-0.07,-0.42,-23.3846,-66.5978,40.6731,1022.64
816734,-0.567095,9.8899,-0.118612,0.28,-0.07,-0.49,-23.3846,-66.5978,40.6731,1022.61
816740,-0.581314,9.82322,-0.123363,0.35,-0.07,-0.49,-23.3846,-66.5978,40.6731,1022.61
816746,-0.600273,9.86132,-0.147123,0.35,-0.14,-0.49,-23.3846,-66.5978,40.6731,1022.61
816752,-0.514959,9.84227,-0.161378,0.28,-0.28,-0.35,-23.3846,-66.5978,40.6731,1022.61
816758,-0.538657,9.88513,-0.104356,0.07,-0.28,-0.35,-23.3846,-66.5978,40.6731,1022.62
816764,-0.462822,9.78988,-0.118612,0.07,-0.28,-0.35,-23.3846,-66.5978,40.6731,1022.62
816770,-0.567095,9.86132,-0.0473335,0.21,-0.35,-0.42,-23.3846,-66.5978,40.6731,1022.63
816776,-0.519698,9.87561,-0.0520854,0.28,-0.28,-0.35,-23.3846,-66.5978,40.6731,1022.63
816782,-0.552876,9.89466,-0.151875,0.28,-0.21,-0.35,-23.3846,-66.5978,40.6731,1022.63
816788,-0.605013,9.78512,-0.109108,0.28,-0.28,-0.35,-23.3846,-66.5978,40.6731,1022.63
816794,-0.486521,9.85179,-0.11386,0.49,-0.14,-0.35,-23.3846,-66.5978,40.6731,1022.63
816800,-0.486521,9.83274,-0.161378,0.35,-0.14,-0.35,-23.3846,-66.5978,40.6731,1022.61
816806,-0.543397,9.81846,-0.0853484,0.28,-0.14,-0.42,-23.3846,-66.5978,40.6731,1022.61
816812,-0.510219,9.79464,-0.132867,0.35,-0.14,-0.49,-23.3846,-66.5978,40.6731,1022.63
816818,-0.510219,9.81846,-0.0805966,0.28,-0.07,-0.42,-23.3846,-66.5978,40.6731,1022.63
816824,-0.538657,9.84227,-0.151875,0.28,0,-0.42,-23.3846,-66.5978,40.6731,1022.63
816830,-0.529178,9.79464,-0.147123,0.21,0,-0.35,-23.3846,-66.5978,40.6731,1022.64
816836,-0.543397,9.86608,-0.11386,0.35,0,-0.42,-23.3846,-66.5978,40.6731,1022.64
816842,-0.524438,9.87561,-0.132867,0.21,-0.07,-0.42,-23.3846,-66.5978,40.6731,1022.6
816848,-0.557616,9.83274,-0.147123,0.35,-0.14,-0.42,-23.3846,-66.5978,40.6731,1022.6
816854,-0.533917,9.83274,-0.123363,0.21,-0.21,-0.42,-23.3846,-66.5978,40.6731,1022.61
816860,-0.467562,9.85179,-0.109108,0.28,-0.21,-0.42,-23.3846,-66.5978,40.6731,1022.61
816866,-0.562356,9.82798,-0.099604,0.14,-0.14,-0.35,-23.3846,-66.5978,40.6731,1022.63
816872,-0.557616,9.90418,-0.137619,0.28,-0.21,-0.21,-23.3846,-66.5978,40.6731,1022.63
816878,-0.533917,9.90895,-0.175634,0.14,-0.35,0,-23.3846,-66.5978,40.6731,1022.63
816884,-0.519698,9.8899,-0.0853484,-0.14,-0.56,0,-23.3846,-66.5978,40.6731,1022.65
816890,-0.477041,9.87084,-0.104356,-0.14,-0.7,0.07,-23.3846,-66.5978,40.6731,1022.65
816896,-0.514959,9.80417,-0.0710928,0.07,-0.35,-0.07,-23.3846,-66.5978,40.6731,1022.64
816902,-0.529178,9.87561,-0.123363,0.14,-0.42,-0.07,-23.3846,-66.5978,40.6731,1022.64
816908,-0.453343,9.81846,-0.0710928,0.21,-0.28,-0.21,-23.3846,-66.5978,40.6731,1022.6
816914,-0.529178,9.80893,-0.0853484,0.35,-0.21,-0.28,-23.3846,-66.5978,40.6731,1022.6
816920,-0.477041,9.82322,-0.109108,0.42,-0.14,-0.42,-23.3846,-66.5978,40.6731,1022.61
816926,-0.481781,9.81369,-0.0948522,0.35,0,-0.49,-23.3846,-66.5978,40.6731,1022.61
816932,-0.576575,9.82322,-0.156626,0.35,0,-0.56,-23.3846,-66.5978,40.6731,1022.61
816938,-0.481781,9.83274,-0.123363,0.35,0,-0.56,-23.3846,-66.5978,40.6731,1022.63
816944,-0.510219,9.82322,-0.132867,0.35,-0.07,-0.56,-23.3846,-66.5978,40.6731,1022.63
816950,-0.552876,9.88037,-0.11386,0.35,0,-0.56,-23.3846,-66.5978,40.6731,1022.62
816956,-0.50074,9.80893,-0.137619,0.14,-0.21,-0.49,-23.3846,-66.5978,40.6731,1022.62
816962,-0.514959,9.79941,-0.132867,0.28,-0.14,-0.56,-23.3846,-66.5978,40.6731,1022.63
816968,-0.538657,9.82322,-0.109108,0.35,0.07,-0.49,-23.3846,-66.5978,40.6731,1022.63
816974,-0.49126,9.89942,-0.0948522,0.14,-0.28,-0.49,-23.3846,-66.5978,40.6731,1022.63
816980,-0.548137,9.85656,-0.099604,0.21,-0.28,-0.42,-23.3846,-66.5978,40.6731,1022.64
816986,-0.552876,9.928,-0.142371,0.28,-0.28,-0.35,-23.3846,-66.5978,40.6731,1022.64
816992,-0.510219,9.85656,-0.142371,0.07,-0.49,-0.14,-23.3846,-66.5978,40.6731,1022.62
816998,-0.543397,9.81369,-0.104356,-0.14,-0.56,-0.28,-23.3846,-66.5978,40.6731,1022.62
817004,-0.529178,9.81846,-0.132867,0.28,-0.35,-0.14,-23.3846,-66.5978,40.6731,1022.63
817010,-0.543397,9.80893,-0.0948522,0.21,-0.35,-0.21,-23.3846,-66.5978,40.6731,1022.63
817016,-0.505479,9.84227,-0.128115,0.21,-0.35,-0.14,-23.3846,-66.5978,40.6731,1022.6
817022,-0.481781,9.85656,-0.128115,0.21,-0.35,-0.14,-23.3846,-66.5978,40.6731,1022.6
817028,-0.519698,9.83751,-0.118612,0.28,-0.28,-0.35,-23.3846,-66.5978,40.6731,1022.6
817034,-0.514959,9.79464,-0.123363,0.28,-0.14,-0.28,-23.3846,-66.5978,40.6731,1022.65
817040,-0.486521,9.82798,-0.147123,0.35,-0.14,-0.42,-23.3846,-66.5978,40.6731,1022.65
817046,-0.552876,9.89942,-0.137619,0.28,-0.21,-0.49,-23.3846,-66.5978,40.6731,1022.63
817052,-0.514959,9.85179,-0.11386,0.21,-0.14,-0.49,-23.3846,-66.5978,40.6731,1022.63
817058,-0.552876,9.79941,-0.142371,0.14,-0.14,-0.49,-23.3846,-66.5978,40.6731,1022.63
817064,-0.481781,9.79941,-0.109108,0.07,-0.28,-0.42,-23.3846,-66.5978,40.6731,1022.63
817070,-0.538657,9.78988,-0.104356,0.28,-0.21,-0.35,-23.3846,-66.5978,40.6731,1022.63
817076,-0.543397,9.86132,-0.142371,0.35,-0.07,-0.35,-23.3846,-66.5978,40.6731,1022.59
817082,-0.49126,9.85656,-0.11386,0,-0.49,-0.21,-23.3846,-66.5978,40.6731,1022.59
817088,-0.481781,9.81846,-0.0758447,-0.14,-0.49,-0.21,-23.3846,-66.5978,40.6731,1022.61
817094,-0.548137,9.84227,-0.0710928,0,-0.35,-0.28,-23.3846,-66.5978,40.6731,1022.61
817100,-0.49126,9.81846,-0.123363,0.14,-0.42,-0.21,-23.3846,-66.5978,40.6731,1022.63
817106,-0.505479,9.83274,-0.099604,0.07,-0.35,-0.14,-23.3846,-66.5978,40.6731,1022.63
817112,-0.533917,9.76131,-0.16613,0.14,-0.49,-0.07,-23.3846,-66.5978,40.6731,1022.63
817118,-0.548137,9.84703,-0.11386,0.28,-0.42,-0.14,-23.3846,-66.5978,40.6731,1022.63
817124,-0.467562,9.89942,-0.16613,0.21,-0.42,-0.14,-23.3846,-66.5978,40.6731,1022.63
817130,-0.605013,9.82798,-0.11386,-0.14,-0.42,-0.07,-23.3846,-66.5978,40.6731,1022.63
817136,-0.567095,9.85179,-0.11386,0,-0.42,-0.14,-23.3846,-66.5978,40.6731,1022.63
817142,-0.486521,9.86132,-0.099604,0,-0.35,-0.21,-23.3846,-66.5978,40.6731,1022.61
817148,-0.514959,9.80893,-0.0805966,0.07,-0.35,-0.28,-23.3846,-66.5978,40.6731,1022.61
817154,-0.49126,9.81369,-0.16613,0.21,-0.35,-0.21,-23.3846,-66.5978,40.6731,1022.63
817160,-0.477041,9.84227,-0.132867,0.28,-0.21,-0.21,-23.3846,-66.5978,40.6731,1022.63
817166,-0.562356,9.82322,-0.0901003,0.14,-0.21,-0.28,-23.3846,-66.5978,40.6731,1022.63
817172,-0.486521,9.81369,-0.099604,0.07,-0.28,-0.42,-23.3846,-66.5978,40.6731,1022.63
817178,-0.529178,9.79464,-0.123363,0.28,-0.21,-0.35,-23.3846,-66.5978,40.6731,1022.63
817184,-0.538657,9.83751,-0.099604,0.49,-0.07,-0.28,-23.3846,-66.5978,40.6731,1022.62
817190,-0.510219,9.82798,-0.118612,0.21,-0.28,-0.35,-23.3846,-66.5978,40.6731,1022.62
817196,-0.481781,9.80893,-0.0901003,0.28,-0.28,-0.28,-23.3846,-66.5978,40.6731,1022.63
817202,-0.548137,9.83274,-0.0710928,0.28,-0.42,-0.21,-23.3846,-66.5978,40.6731,1022.63
817208,-0.586054,9.88513,-0.099604,0.14,-0.42,-0.14,-23.3846,-66.5978,40.6731,1022.62
817214,-0.505479,9.84227,-0.11386,0,-0.49,0,-23.3846,-66.5978,40.6731,1022.62
817220,-0.50074,9.87084,-0.118612,0.07,-0.49,-0.07,-23.3846,-66.5978,40.6731,1022.62
817226,-0.510219,9.81846,-0.104356,0.14,-0.49,0,-23.3846,-66.5978,40.6731,1022.61
817232,-0.548137,9.82322,-0.123363,0,-0.49,0,-23.3846,-66.5978,40.6731,1022.61
817238,-0.477041,9.83274,-0.123363,-0.07,-0.49,0,-23.3846,-66.5978,40.6731,1022.62
817244,-0.538657,9.82322,-0.066341,0.21,-0.35,-0.07,-23.3846,-66.5978,40.6731,1022.62
817250,-0.50074,9.87561,-0.147123,0.28,-0.35,-0.07,-23.3846,-66.5978,40.6731,1022.63
817256,-0.496,9.84227,-0.0758447,0.21,-0.42,-0.14,-23.3846,-66.5978,40.6731,1022.63
817262,-0.486521,9.80417,-0.0758447,0.21,-0.42,-0.21,-23.3846,-66.5978,40.6731,1022.61
817268,-0.510219,9.88513,-0.147123,0.21,-0.28,-0.14,-23.3846,-66.5978,40.6731,1022.61
817274,-0.505479,9.80417,-0.0948522,0.14,-0.28,-0.21,-23.3846,-66.5978,40.6731,1022.61
817280,-0.505479,9.79941,-0.0948522,0.21,-0.28,-0.14,-23.3846,-66.5978,40.6731,1022.65
817286,-0.519698,9.85179,-0.151875,0.35,-0.07,-0.28,-23.3846,-66.5978,40.6731,1022.65
817292,-0.524438,9.88513,-0.137619,0.28,-0.21,-0.28,-23.3846,-66.5978,40.6731,1022.64
817298,-0.477041,9.76607,-0.0520854,0.28,-0.21,-0.28,-23.3846,-66.5978,40.6731,1022.64
817304,-0.505479,9.84703,-0.099604,0.28,-0.28,-0.35,-23.3846,-66.5978,40.6731,1022.62
817310,-0.519698,9.90895,-0.132867,0.28,-0.14,-0.35,-23.3846,-66.5978,40.6731,1022.62
817316,-0.481781,9.86608,-0.128115,0.35,-0.21,-0.35,-23.3846,-66.5978,40.6731,1022.62
817322,-0.510219,9.84703,-0.099604,0.28,-0.14,-0.28,-23.3846,-66.5978,40.6731,1022.64
817328,-0.548137,9.83274,-0.118612,0.21,-0.14,-0.28,-23.3846,-66.5978,40.6731,1022.64
817334,-0.562356,9.85656,-0.0901003,0.28,-0.14,-0.28,-23.3846,-66.5978,40.6731,1022.64
817340,-0.576575,9.86132,-0.132867,0.35,-0.28,-0.21,-23.3846,-66.5978,40.6731,1022.64
817346,-0.505479,9.92323,-0.147123,0.14,-0.28,-0.14,-23.3846,-66.5978,40.6731,1022.63
817352,-0.481781,9.78988,-0.0805966,0.14,-0.49,-0.21,-23.3846,-66.5978,40.6731,1022.63
817358,-0.505479,9.83751,-0.128115,0.21,-0.35,-0.21,-23.3846,-66.5978,40.6731,1022.65
817364,-0.496,9.80893,-0.128115,0.35,-0.14,-0.07,-23.3846,-66.5978,40.6731,1022.65
817370,-0.543397,9.82322,-0.104356,0.28,-0.21,-0.07,-23.3846,-66.5978,40.6731,1022.65
817376,-0.467562,9.72797,-0.11386,0.21,-0.28,-0.07,-23.3846,-66.5978,40.6731,1022.63
817382,-0.496,9.89466,-0.0520854,0.35,-0.21,-0.14,-23.3846,-66.5978,40.6731,1022.63
817388,-0.519698,9.88037,-0.0901003,0.28,-0.07,-0.28,-23.3846,-66.5978,40.6731,1022.64
817394,-0.514959,9.89466,-0.0710928,0.35,-0.07,-0.35,-23.3846,-66.5978,40.6731,1022.64
817400,-0.467562,9.78988,-0.0520854,0.35,-0.07,-0.35,-23.3846,-66.5978,40.6731,1022.61
817406,-0.514959,9.84703,-0.0901003,0.42,-0.07,-0.42,-23.3846,-66.5978,40.6731,1022.61
817412,-0.514959,9.81369,-0.11386,0.35,-0.14,-0.42,-23.3846,-66.5978,40.6731,1022.61
817418,-0.496,9.81846,-0.11386,0.35,-0.07,-0.42,-23.3846,-66.5978,40.6731,1022.61
817424,-0.505479,9.83751,-0.123363,0.28,-0.07,-0.49,-23.3846,-66.5978,40.6731,1022.61
817430,-0.510219,9.88037,-0.151875,0,-0.21,-0.42,-23.3846,-66.5978,40.6731,1022.63
817436,-0.462822,9.88513,-0.0758447,-0.07,-0.28,-0.35,-23.3846,-66.5978,40.6731,1022.63
817442,-0.481781,9.83751,-0.11386,0.14,-0.21,-0.35,-23.3846,-66.5978,40.6731,1022.63
817448,-0.472301,9.85179,-0.0901003,0.21,-0.14,-0.42,-23.3846,-66.5978,40.6731,1022.63
817454,-0.481781,9.84703,-0.11386,0.07,-0.07,-0.49,-23.3846,-66.5978,40.6731,1022.62
817460,-0.552876,9.85179,-0.099604,0.35,0,-0.49,-23.3846,-66.5978,40.6731,1022.62
817466,-0.496,9.82798,-0.099604,0.42,0.07,-0.56,-23.3846,-66.5978,40.6731,1022.62
817472,-0.505479,9.83274,-0.161378,0.35,-0.07,-0.56,-23.3846,-66.5978,40.6731,1022.62
817478,-0.529178,9.85656,-0.0853484,0.28,-0.07,-0.49,-23.3846,-66.5978,40.6731,1022.62
817484,-0.557616,9.84227,-0.11386,0.21,-0.14,-0.49,-23.3846,-66.5978,40.6731,1022.62
817490,-0.467562,9.80893,-0.151875,0.14,-0.28,-0.49,-23.3846,-66.5978,40.6731,1022.62
817496,-0.472301,9.81369,-0.123363,0.14,-0.28,-0.49,-23.3846,-66.5978,40.6731,1022.61
817502,-0.467562,9.84227,-0.0805966,0.21,-0.21,-0.49,-23.3846,-66.5978,40.6731,1022.61
817508,-0.538657,9.88513,-0.128115,0.35,-0.14,-0.56,-23.3846,-66.5978,40.6731,1022.61
817514,-0.50074,9.81846,-0.0805966,0.42,-0.14,-0.56,-23.3846,-66.5978,40.6731,1022.61
817520,-0.514959,9.80417,-0.0473335,0.35,-0.07,-0.56,-23.3846,-66.5978,40.6731,1022.61
817526,-0.524438,9.84703,-0.151875,0.35,0,-0.63,-23.3846,-66.5978,40.6731,1022.63
817532,-0.472301,9.83751,-0.0473335,0.35,0,-0.63,-23.3846,-66.5978,40.6731,1022.63
817538,-0.510219,9.88037,-0.0948522,0.49,0,-0.56,-23.3846,-66.5978,40.6731,1022.63
817544,-0.557616,9.85656,-0.109108,0.35,0,-0.63,-23.3846,-66.5978,40.6731,1022.63
817550,-0.538657,9.84703,-0.118612,0.35,-0.07,-0.7,-23.3846,-66.5978,40.6731,1022.62
817556,-0.510219,9.82322,-0.099604,0.35,-0.21,-0.49,-23.3846,-66.5978,40.6731,1022.62
817562,-0.581314,9.88513,-0.151875,0.28,-0.14,-0.42,-23.3846,-66.5978,40.6731,1022.62
817568,-0.548137,9.83274,-0.109108,0.35,-0.14,-0.35,-23.3846,-66.5978,40.6731,1022.61
817574,-0.533917,9.85179,-0.109108,0.28,-0.21,-0.35,-23.3846,-66.5978,40.6731,1022.61
817580,-0.529178,9.85179,-0.118612,0.28,-0.28,-0.35,-23.3846,-66.5978,40.6731,1022.64
817586,-0.519698,9.76131,-0.0853484,0.14,-0.28,-0.35,-23.3846,-66.5978,40.6731,1022.64
817592,-0.510219,9.81369,-0.0948522,0.35,-0.14,-0.49,-23.3846,-66.5978,40.6731,1022.63
817598,-0.453343,9.82798,-0.0901003,0.49,0,-0.49,-23.3846,-66.5978,40.6731,1022.63
817604,-0.496,9.80417,-0.132867,0.49,0,-0.63,-23.3846,-66.5978,40.6731,1022.63
817610,-0.538657,9.79464,-0.0805966,0.49,0,-0.63,-23.3846,-66.5978,40.6731,1022.63
817616,-0.543397,9.85656,-0.161378,0.56,0.07,-0.63,-23.3846,-66.5978,40.6731,1022.63
817622,-0.510219,9.86132,-0.147123,0.35,0,-0.56,-23.3846,-66.5978,40.6731,1022.59
817628,-0.524438,9.80893,-0.0901003,0.28,-0.14,-0.56,-23.3846,-66.5978,40.6731,1022.59
817634,-0.538657,9.88037,-0.132867,0.42,-0.14,-0.56,-23.3846,-66.5978,40.6731,1022.61
817640,-0.538657,9.88513,-0.104356,0.35,-0.14,-0.56,-23.3846,-66.5978,40.6731,1022.61
817646,-0.49126,9.79941,-0.099604,0.21,-0.21,-0.49,-23.3846,-66.5978,40.6731,1022.63
817652,-0.50074,9.79464,-0.109108,0.35,-0.14,-0.49,-23.3846,-66.5978,40.6731,1022.63
817658,-0.538657,9.84227,-0.109108,0.42,-0.07,-0.56,-23.3846,-66.5978,40.6731,1022.63
817664,-0.529178,9.82798,-0.0948522,0.21,0,-0.49,-23.3846,-66.5978,40.6731,1022.63
817670,-0.462822,9.79464,-0.118612,0.42,-0.07,-0.49,-23.3846,-66.5978,40.6731,1022.63
817676,-0.567095,9.86608,-0.118612,0.35,0,-0.49,-23.3846,-66.5978,40.6731,1022.61
817682,-0.510219,9.87084,-0.099604,0.35,0,-0.56,-23.3846,-66.5978,40.6731,1022.61
817688,-0.519698,9.82322,-0.142371,0.42,-0.14,-0.42,-23.3846,-66.5978,40.6731,1022.64
817694,-0.552876,9.85656,-0.142371,0.35,-0.21,-0.42,-23.3846,-66.5978,40.6731,1022.64
817700,-0.538657,9.84703,-0.0948522,0.35,-0.14,-0.28,-23.3846,-66.5978,40.6731,1022.6
817706,-0.382247,9.83274,-0.161378,0.21,-0.42,-0.35,-23.3846,-66.5978,40.6731,1022.6
817712,-0.410685,9.73749,-0.066341,0.07,-0.21,-0.42,-23.3846,-66.5978,40.6731,1022.6
817718,-0.472301,9.80893,-0.0473335,0.42,-0.07,-0.56,-23.3846,-66.5978,40.6731,1022.63
817724,-0.49126,9.85179,-0.132867,0.42,0.14,-0.63,-23.3846,-66.5978,40.6731,1022.63
817730,-0.477041,9.84227,-0.0615891,0.28,0.14,-0.7,-23.3846,-66.5978,40.6731,1022.65
817736,-0.519698,9.80417,-0.151875,0.42,0.07,-0.84,-23.3846,-66.5978,40.6731,1022.65
817742,-0.443863,9.86132,-0.118612,0.56,0.14,-0.84,-23.3846,-66.5978,40.6731,1022.61
817748,-0.524438,9.81846,-0.0805966,0.42,0.14,-0.77,-23.3846,-66.5978,40.6731,1022.61
817754,-0.514959,9.84227,-0.11386,0.42,0.28,-0.84,-23.3846,-66.5978,40.6731,1022.61
817760,-0.533917,9.86132,-0.0948522,0.35,0.28,-0.84,-23.3846,-66.5978,40.6731,1022.63
817766,-0.496,9.82798,-0.147123,0.35,0.21,-0.84,-23.3846,-66.5978,40.6731,1022.63
817772,-0.524438,9.86608,-0.147123,0.35,0.07,-0.84,-23.3846,-66.5978,40.6731,1022.62
817778,-0.524438,9.84227,-0.0948522,0.35,0.14,-0.84,-23.3846,-66.5978,40.6731,1022.62
817784,-0.557616,9.90418,-0.118612,0.28,0,-0.7,-23.3846,-66.5978,40.6731,1022.65
817790,-0.538657,9.85179,-0.142371,0.21,0,-0.49,-23.3846,-66.5978,40.6731,1022.65
817796,-0.496,9.84703,-0.11386,0.14,-0.14,-0.56,-23.3846,-66.5978,40.6731,1022.62
817802,-0.481781,9.81846,-0.0710928,0.14,-0.35,-0.49,-23.3846,-66.5978,40.6731,1022.62
817808,-0.581314,9.81846,-0.0853484,0.28,-0.21,-0.49,-23.3846,-66.5978,40.6731,1022.62
817814,-0.477041,9.79941,-0.175634,0.42,-0.07,-0.49,-23.3846,-66.5978,40.6731,1022.62
817820,-0.496,9.85179,-0.099604,0.35,-0.07,-0.49,-23.3846,-66.5978,40.6731,1022.62
817826,-0.420165,9.83751,-0.11386,0.21,-0.14,-0.63,-23.3846,-66.5978,40.6731,1022.64
817832,-0.524438,9.83751,-0.104356,0.42,0,-0.63,-23.3846,-66.5978,40.6731,1022.64
817838,-0.548137,9.82798,-0.104356,0.42,0.07,-0.63,-23.3846,-66.5978,40.6731,1022.61
817844,-0.49126,9.83274,-0.118612,0.35,0,-0.63,-23.3846,-66.5978,40.6731,1022.61
817850,-0.524438,9.84227,-0.142371,0.35,0,-0.63,-23.3846,-66.5978,40.6731,1022.61
817856,-0.49126,9.79464,-0.137619,0.21,-0.28,-0.56,-23.3846,-66.5978,40.6731,1022.6
817862,-0.533917,9.82798,-0.156626,0.35,-0.07,-0.63,-23.3846,-66.5978,40.6731,1022.6
817868,-0.477041,9.84703,-0.132867,0.35,-0.07,-0.7,-23.3846,-66.5978,40.6731,1022.62
817874,-0.519698,9.82322,-0.118612,0.35,-0.07,-0.56,-23.3846,-66.5978,40.6731,1022.62
817880,-0.529178,9.85179,-0.137619,0.42,-0.14,-0.49,-23.3846,-66.5978,40.6731,1022.64
817886,-0.543397,9.8899,-0.11386,0.21,-0.21,-0.49,-23.3846,-66.5978,40.6731,1022.64
817892,-0.496,9.87084,-0.104356,0.21,-0.07,-0.56,-23.3846,-66.5978,40.6731,1022.65
817898,-0.524438,9.82798,-0.11386,0.28,-0.14,-0.49,-23.3846,-66.5978,40.6731,1022.65
817904,-0.510219,9.84703,-0.0805966,0.14,-0.21,-0.42,-23.3846,-66.5978,40.6731,1022.65
817910,-0.458082,9.80893,-0.066341,0.07,-0.42,-0.49,-23.3846,-66.5978,40.6731,1022.64
817916,-0.462822,9.80893,-0.142371,0.14,-0.21,-0.49,-23.3846,-66.5978,40.6731,1022.64
817922,-0.49126,9.87084,-0.223153,0.7,0.21,-0.49,-23.3846,-66.5978,40.6731,1022.64
817928,-0.533917,9.95181,-0.170882,0.28,-0.07,-0.42,-23.3846,-66.5978,40.6731,1022.64
817934,-0.533917,9.74702,-0.0901003,-0.28,-0.49,-0.42,-23.3846,-66.5978,40.6731,1022.64
817940,-0.533917,9.90895,-0.161378,0.42,0.14,-0.56,-23.3846,-66.5978,40.6731,1022.64
817946,-0.533917,9.86608,-0.109108,0.28,0,-0.56,-23.3846,-66.5978,40.6731,1022.62
817952,-0.481781,9.78036,-0.104356,0.21,-0.14,-0.56,-23.3846,-66.5978,40.6731,1022.62
817958,-0.448603,9.78988,-0.142371,0.28,0,-0.56,-23.3846,-66.5978,40.6731,1022.62
817964,-0.510219,9.80893,-0.11386,0.42,0,-0.77,-23.3846,-66.5978,40.6731,1022.63
817970,-0.514959,9.80893,-0.161378,0.35,0.21,-0.77,-23.3846,-66.5978,40.6731,1022.63
817976,-0.486521,9.79941,-0.132867,0.56,0.35,-0.84,-23.3846,-66.5978,40.6731,1022.62
817982,-0.533917,9.81369,-0.137619,0.49,0.28,-0.77,-23.3846,-66.5978,40.6731,1022.62
817988,-0.481781,9.82322,-0.132867,0.35,0.28,-0.77,-23.3846,-66.5978,40.6731,1022.63
817994,-0.505479,9.84703,-0.0758447,0.56,0.28,-0.91,-23.3846,-66.5978,40.6731,1022.63
818000,-0.514959,9.81846,-0.132867,0.63,0.28,-0.91,-23.3846,-66.5978,40.6731,1022.63
818006,-0.557616,9.87561,-0.128115,0.49,0.28,-0.84,-23.3846,-66.5978,40.6731,1022.61
818012,-0.496,9.85179,-0.104356,0.49,0.35,-0.84,-23.3846,-66.5978,40.6731,1022.61
818018,-0.548137,9.82322,-0.0948522,0.49,0.21,-0.84,-23.3846,-66.5978,40.6731,1022.63
818024,-0.49126,9.86608,-0.137619,0.49,0.14,-0.7,-23.3846,-66.5978,40.6731,1022.63
818030,-0.571835,9.84703,-0.175634,0.28,0.07,-0.7,-23.3846,-66.5978,40.6731,1022.6
818036,-0.571835,9.82322,-0.099604,0.28,0,-0.7,-23.3846,-66.5978,40.6731,1022.6
818042,-0.514959,9.78036,-0.099604,0.49,0.07,-0.63,-23.3846,-66.5978,40.6731,1022.63
818048,-0.524438,9.82322,-0.128115,0.63,-0.14,-0.7,-23.3846,-66.5978,40.6731,1022.63
818054,-0.510219,9.81846,-0.137619,0.49,0,-0.63,-23.3846,-66.5978,40.6731,1022.63
818060,-0.510219,9.82322,-0.099604,0.63,0,-0.56,-23.3846,-66.5978,40.6731,1022.59
818066,-0.486521,9.78988,-0.128115,0.56,0.14,-0.56,-23.3846,-66.5978,40.6731,1022.59
818072,-0.481781,9.84227,-0.156626,0.63,0.28,-0.7,-23.3846,-66.5978,40.6731,1022.62
818078,-0.524438,9.84227,-0.11386,0.49,0.28,-0.77,-23.3846,-66.5978,40.6731,1022.62
818084,-0.510219,9.84703,-0.0853484,0.63,0.07,-0.7,-23.3846,-66.5978,40.6731,1022.63
818090,-0.477041,9.91371,-0.151875,0.63,0.21,-0.7,-23.3846,-66.5978,40.6731,1022.63
818096,-0.552876,9.8899,-0.123363,0.49,0,-0.56,-23.3846,-66.5978,40.6731,1022.63
818102,-0.548137,9.81369,-0.118612,0.56,0.07,-0.56,-23.3846,-66.5978,40.6731,1022.61
818108,-0.533917,9.87084,-0.0948522,0.63,0.07,-0.49,-23.3846,-66.5978,40.6731,1022.61
818114,-0.586054,9.85656,-0.099604,0.49,0,-0.56,-23.3846,-66.5978,40.6731,1022.63
818120,-0.562356,9.86132,-0.161378,0.63,-0.14,-0.56,-23.3846,-66.5978,40.6731,1022.63
818126,-0.510219,9.85656,-0.147123,0.35,0,-0.56,-23.3846,-66.5978,40.6731,1022.65
818132,-0.529178,9.85179,-0.118612,0.42,-0.14,-0.49,-23.3846,-66.5978,40.6731,1022.65
818138,-0.576575,9.83274,-0.109108,0.49,-0.07,-0.42,-23.3846,-66.5978,40.6731,1022.63
818144,-0.548137,9.86132,-0.170882,0.49,-0.14,-0.35,-23.3846,-66.5978,40.6731,1022.63
818150,-0.510219,9.82798,-0.118612,0.14,-0.49,-0.28,-23.3846,-66.5978,40.6731,1022.63
818156,-0.529178,9.85179,-0.109108,0.28,-0.28,-0.35,-23.3846,-66.5978,40.6731,1022.61
818162,-0.571835,9.86132,-0.123363,0.42,-0.21,-0.28,-23.3846,-66.5978,40.6731,1022.61
818168,-0.557616,9.85656,-0.137619,0.35,-0.28,-0.28,-23.3846,-66.5978,40.6731,1022.64
818174,-0.567095,9.83751,-0.128115,0.28,-0.21,-0.35,-23.3846,-66.5978,40.6731,1022.64
818180,-0.519698,9.82322,-0.0853484,0.42,-0.35,-0.35,-23.3846,-66.5978,40.6731,1022.62
818186,-0.519698,9.75178,-0.0901003,0.35,-0.28,-0.42,-23.3846,-66.5978,40.6731,1022.62
818192,-0.529178,9.84703,-0.142371,0.35,-0.21,-0.35,-23.3846,-66.5978,40.6731,1022.62
818198,-0.49126,9.84227,-0.0758447,0.28,-0.28,-0.49,-23.3846,-66.5978,40.6731,1022.6
818204,-0.467562,9.81369,-0.137619,0.35,-0.07,-0.49,-23.3846,-66.5978,40.6731,1022.6
818210,-0.552876,9.83751,-0.118612,0.35,-0.07,-0.56,-23.3846,-66.5978,40.6731,1022.62
818216,-0.496,9.84227,-0.137619,0.28,0,-0.63,-23.3846,-66.5978,40.6731,1022.62
818222,-0.505479,9.80893,-0.0901003,0.35,0.07,-0.7,-23.3846,-66.5978,40.6731,1022.64
818228,-0.486521,9.88037,-0.147123,0.28,0.07,-0.77,-23.3846,-66.5978,40.6731,1022.64
818234,-0.477041,9.80893,-0.0710928,0.28,0.21,-0.7,-23.3846,-66.5978,40.6731,1022.62
818240,-0.600273,9.86608,-0.128115,0.42,0.28,-0.7,-23.3846,-66.5978,40.6731,1022.62
818246,-0.538657,9.86132,-0.16613,0.35,0,-0.63,-23.3846,-66.5978,40.6731,1022.62
818252,-0.514959,9.83274,-0.118612,0,-0.07,-0.63,-23.3846,-66.5978,40.6731,1022.62
818258,-0.467562,9.85656,-0.156626,0.35,0,-0.77,-23.3846,-66.5978,40.6731,1022.62
818264,-0.590794,9.84227,-0.147123,0.35,0,-0.84,-23.3846,-66.5978,40.6731,1022.63
818270,-0.533917,9.85656,-0.0901003,0.21,0.07,-0.84,-23.3846,-66.5978,40.6731,1022.63
818276,-0.538657,9.84227,-0.118612,0.35,0.07,-0.84,-23.3846,-66.5978,40.6731,1022.63
818282,-0.514959,9.83751,-0.142371,0.42,0.07,-0.7,-23.3846,-66.5978,40.6731,1022.63
818288,-0.519698,9.87561,-0.204145,0.21,-0.42,-0.7,-23.3846,-66.5978,40.6731,1022.63
818294,-0.377507,9.78988,-0.132867,0,-0.21,-0.63,-23.3846,-66.5978,40.6731,1022.64
818300,-0.548137,9.82322,-0.0140704,0.21,0.14,-0.63,-23.3846,-66.5978,40.6731,1022.64
818306,-0.543397,9.91371,-0.11386,0.49,0.21,-0.63,-23.3846,-66.5978,40.6731,1022.61
818312,-0.548137,9.79464,-0.0568372,-0.07,0,-0.7,-23.3846,-66.5978,40.6731,1022.61
818318,-0.50074,9.77559,-0.099604,0.14,0.07,-0.77,-23.3846,-66.5978,40.6731,1022.63
818324,-0.552876,9.84703,-0.109108,0.49,0.28,-0.7,-23.3846,-66.5978,40.6731,1022.63
818330,-0.524438,9.85179,-0.123363,0.35,0.21,-0.7,-23.3846,-66.5978,40.6731,1022.61
818336,-0.477041,9.81846,-0.11386,0.42,0.21,-0.63,-23.3846,-66.5978,40.6731,1022.61
818342,-0.486521,9.81369,-0.142371,0.42,0.35,-0.77,-23.3846,-66.5978,40.6731,1022.61
818348,-0.505479,9.80417,-0.161378,0.42,0.21,-0.77,-23.3846,-66.5978,40.6731,1022.59
818354,-0.50074,9.81846,-0.0948522,0.28,0.14,-0.77,-23.3846,-66.5978,40.6731,1022.59
818360,-0.619232,9.8899,-0.11386,0.42,0.21,-0.7,-23.3846,-66.5978,40.6731,1022.6
818366,-0.609753,9.91847,-0.175634,0.35,-0.07,-0.42,-23.3846,-66.5978,40.6731,1022.6
818372,-0.567095,9.88513,-0.142371,0.07,-0.28,-0.35,-23.3846,-66.5978,40.6731,1022.62
818378,-0.581314,9.81846,-0.151875,0.21,-0.21,-0.35,-23.3846,-66.5978,40.6731,1022.62
818384,-0.533917,9.87561,-0.161378,0.28,-0.14,-0.42,-23.3846,-66.5978,40.6731,1022.59
818390,-0.538657,9.83751,-0.0948522,0.21,-0.14,-0.28,-23.3846,-66.5978,40.6731,1022.59
818396,-0.581314,9.84703,-0.161378,0.28,-0.35,-0.21,-23.3846,-66.5978,40.6731,1022.59
818402,-0.533917,9.89942,-0.128115,0,-0.56,-0.14,-23.3846,-66.5978,40.6731,1022.61
818408,-0.458082,9.84703,-0.0948522,-0.14,-0.56,-0.21,-23.3846,-66.5978,40.6731,1022.61
818414,-0.505479,9.79464,-0.0710928,0.21,-0.28,-0.28,-23.3846,-66.5978,40.6731,1022.66
818420,-0.529178,9.80893,-0.137619,0.35,-0.21,-0.28,-23.3846,-66.5978,40.6731,1022.66
818426,-0.481781,9.73749,-0.11386,0.28,-0.28,-0.28,-23.3846,-66.5978,40.6731,1022.63
818432,-0.486521,9.81369,-0.118612,0.49,-0.14,-0.42,-23.3846,-66.5978,40.6731,1022.63
818438,-0.538657,9.84703,-0.099604,0.49,-0.07,-0.42,-23.3846,-66.5978,40.6731,1022.63
818444,-0.529178,9.81846,-0.128115,0.35,-0.07,-0.63,-23.3846,-66.5978,40.6731,1022.62
818450,-0.514959,9.85179,-0.161378,0.35,-0.07,-0.63,-23.3846,-66.5978,40.6731,1022.62
818456,-0.548137,9.83274,-0.147123,0.42,-0.07,-0.56,-23.3846,-66.5978,40.6731,1022.62
818462,-0.552876,9.91371,-0.16613,0.42,-0.14,-0.49,-23.3846,-66.5978,40.6731,1022.62
818468,-0.581314,9.89466,-0.118612,0.28,-0.14,-0.49,-23.3846,-66.5978,40.6731,1022.61
818474,-0.505479,9.86132,-0.104356,0.14,-0.21,-0.49,-23.3846,-66.5978,40.6731,1022.61
818480,-0.50074,9.81369,-0.156626,0.35,0,-0.49,-23.3846,-66.5978,40.6731,1022.64
818486,-0.529178,9.87084,-0.132867,0.28,-0.07,-0.35,-23.3846,-66.5978,40.6731,1022.64
818492,-0.590794,9.84703,-0.132867,0.35,-0.14,-0.35,-23.3846,-66.5978,40.6731,1022.64
818498,-0.529178,9.80417,-0.137619,0.21,-0.28,-0.35,-23.3846,-66.5978,40.6731,1022.62
818504,-0.562356,9.87084,-0.0758447,0.28,-0.21,-0.35,-23.3846,-66.5978,40.6731,1022.62
818510,-0.581314,9.86608,-0.0948522,0.35,-0.21,-0.21,-23.3846,-66.5978,40.6731,1022.61
818516,-0.514959,9.81846,-0.132867,0.42,-0.28,-0.14,-23.3846,-66.5978,40.6731,1022.61
818522,-0.538657,9.86608,-0.099604,0.28,-0.42,-0.14,-23.3846,-66.5978,40.6731,1022.59
818528,-0.543397,9.84227,-0.18989,0.21,-0.42,-0.14,-23.3846,-66.5978,40.6731,1022.59
818534,-0.519698,9.80893,-0.109108,0.21,-0.49,-0.14,-23.3846,-66.5978,40.6731,1022.59
818540,-0.519698,9.83274,-0.132867,0.21,-0.35,-0.07,-23.3846,-66.5978,40.6731,1022.62
818546,-0.533917,9.82798,-0.156626,0.35,-0.28,-0.14,-23.3846,-66.5978,40.6731,1022.62
818552,-0.481781,9.82798,-0.132867,0.28,-0.21,-0.14,-23.3846,-66.5978,40.6731,1022.62
818558,-0.472301,9.85656,-0.156626,0.28,-0.28,-0.21,-23.3846,-66.5978,40.6731,1022.62
818564,-0.510219,9.80417,-0.156626,0.14,-0.14,-0.21,-23.3846,-66.5978,40.6731,1022.61
818570,-0.562356,9.82322,-0.104356,0.21,-0.21,-0.21,-23.3846,-66.5978,40.6731,1022.61
818576,-0.538657,9.90895,-0.151875,0.21,-0.21,-0.21,-23.3846,-66.5978,40.6731,1022.62
818582,-0.50074,9.80417,-0.109108,0.14,-0.35,-0.28,-23.3846,-66.5978,40.6731,1022.62
818588,-0.533917,9.86608,-0.11386,0.21,-0.28,-0.35,-23.3846,-66.5978,40.6731,1022.62
818594,-0.496,9.85656,-0.128115,0.21,-0.14,-0.28,-23.3846,-66.5978,40.6731,1022.59
818600,-0.533917,9.82322,-0.0948522,0.14,-0.14,-0.28,-23.3846,-66.5978,40.6731,1022.59
818606,-0.524438,9.85179,-0.11386,0.14,-0.21,-0.42,-23.3846,-66.5978,40.6731,1022.64
818612,-0.609753,9.86132,-0.137619,0.14,-0.14,-0.42,-23.3846,-66.5978,40.6731,1022.64
818618,-0.524438,9.86608,-0.123363,0.07,-0.21,-0.35,-23.3846,-66.5978,40.6731,1022.61
818624,-0.505479,9.86608,-0.137619,0.07,-0.28,-0.21,-23.3846,-66.5978,40.6731,1022.61
818630,-0.619232,9.88037,-0.104356,-0.14,-0.42,-0.14,-23.3846,-66.5978,40.6731,1022.61
818636,-0.481781,9.80893,-0.104356,-0.07,-0.56,-0.07,-23.3846,-66.5978,40.6731,1022.61
818642,-0.543397,9.86132,-0.137619,0,-0.63,0.07,-23.3846,-66.5978,40.6731,1022.61
818648,-0.514959,9.86132,-0.161378,0,-0.56,0.07,-23.3846,-66.5978,40.6731,1022.63
818654,-0.496,9.84227,-0.099604,-0.07,-0.63,0.07,-23.3846,-66.5978,40.6731,1022.63
818660,-0.472301,9.88037,-0.104356,0.14,-0.63,0,-23.3846,-66.5978,40.6731,1022.63
818666,-0.514959,9.78512,-0.0948522,0.21,-0.35,-0.14,-23.3846,-66.5978,40.6731,1022.63
818672,-0.49126,9.81369,-0.0948522,0.42,-0.21,-0.14,-23.3846,-66.5978,40.6731,1022.6
818678,-0.581314,9.86608,-0.099604,0.49,-0.21,-0.14,-23.3846,-66.5978,40.6731,1022.6
818684,-0.567095,9.88513,-0.0710928,0.35,-0.07,-0.21,-23.3846,-66.5978,40.6731,1022.6
818690,-0.496,9.79464,-0.137619,0.42,-0.14,-0.21,-23.3846,-66.5978,40.6731,1022.62
818696,-0.524438,9.83274,-0.109108,0.35,-0.14,-0.21,-23.3846,-66.5978,40.6731,1022.62
818702,-0.557616,9.83274,-0.0901003,0.28,-0.21,-0.28,-23.3846,-66.5978,40.6731,1022.66
818708,-0.505479,9.87084,-0.147123,0.28,-0.14,-0.35,-23.3846,-66.5978,40.6731,1022.66
818714,-0.49126,9.85179,-0.11386,0.21,-0.21,-0.35,-23.3846,-66.5978,40.6731,1022.65
818720,-0.524438,9.81846,-0.151875,0.07,-0.21,-0.28,-23.3846,-66.5978,40.6731,1022.65
818726,-0.514959,9.87084,-0.104356,0.14,-0.21,-0.28,-23.3846,-66.5978,40.6731,1022.61
818732,-0.529178,9.85179,-0.0853484,0.21,-0.21,-0.35,-23.3846,-66.5978,40.6731,1022.61
818738,-0.562356,9.8899,-0.147123,0.21,-0.28,-0.21,-23.3846,-66.5978,40.6731,1022.61
818744,-0.590794,9.82322,-0.11386,0.21,-0.35,-0.14,-23.3846,-66.5978,40.6731,1022.62
818750,-0.543397,9.85656,-0.118612,0.07,-0.49,0,-23.3846,-66.5978,40.6731,1022.62
818756,-0.557616,9.82798,-0.118612,0.07,-0.49,0.07,-23.3846,-66.5978,40.6731,1022.6
818762,-0.557616,9.87084,-0.0853484,0.07,-0.56,0.21,-23.3846,-66.5978,40.6731,1022.6
818768,-0.505479,9.86608,-0.123363,0.14,-0.63,0.21,-23.3846,-66.5978,40.6731,1022.62
818774,-0.49126,9.81846,-0.0615891,0.07,-0.56,0.07,-23.3846,-66.5978,40.6731,1022.62
818780,-0.510219,9.82798,-0.099604,0.14,-0.42,-0.07,-23.3846,-66.5978,40.6731,1022.62
818786,-0.472301,9.82322,-0.0853484,0.28,-0.42,-0.07,-23.3846,-66.5978,40.6731,1022.62
818792,-0.49126,9.80893,-0.142371,0.21,-0.28,-0.07,-23.3846,-66.5978,40.6731,1022.62
818798,-0.514959,9.84227,-0.11386,0.28,-0.21,-0.14,-23.3846,-66.5978,40.6731,1022.61
818804,-0.548137,9.80893,-0.11386,0.14,-0.28,-0.21,-23.3846,-66.5978,40.6731,1022.61
818810,-0.524438,9.82798,-0.123363,0.14,-0.28,-0.28,-23.3846,-66.5978,40.6731,1022.62
818816,-0.496,9.85656,-0.0901003,0.14,-0.14,-0.28,-23.3846,-66.5978,40.6731,1022.62
818822,-0.529178,9.86608,-0.128115,0.21,-0.21,-0.35,-23.3846,-66.5978,40.6731,1022.62
818828,-0.548137,9.86132,-0.147123,0.07,-0.28,-0.28,-23.3846,-66.5978,40.6731,1022.62
818834,-0.50074,9.78988,-0.0901003,-0.07,-0.28,-0.21,-23.3846,-66.5978,40.6731,1022.62
818840,-0.496,9.86132,-0.132867,0.07,-0.21,-0.28,-23.3846,-66.5978,40.6731,1022.61
818846,-0.562356,9.85179,-0.161378,0,-0.35,-0.21,-23.3846,-66.5978,40.6731,1022.61
818852,-0.519698,9.87084,-0.109108,-0.07,-0.49,-0.21,-23.3846,-66.5978,40.6731,1022.61
818858,-0.543397,9.82798,-0.137619,-0.07,-0.49,-0.07,-23.3846,-66.5978,40.6731,1022.61
818864,-0.538657,9.82322,-0.104356,0,-0.42,-0.07,-23.3846,-66.5978,40.6731,1022.63
818870,-0.462822,9.85656,-0.099604,0,-0.28,-0.14,-23.3846,-66.5978,40.6731,1022.63
818876,-0.557616,9.85179,-0.161378,0.28,-0.28,-0.07,-23.3846,-66.5978,40.6731,1022.63
818882,-0.458082,9.86608,-0.123363,0.21,-0.49,-0.14,-23.3846,-66.5978,40.6731,1022.6
818888,-0.477041,9.82322,-0.161378,0,-0.42,-0.21,-23.3846,-66.5978,40.6731,1022.6
818894,-0.514959,9.84703,-0.0805966,0.21,-0.28,-0.28,-23.3846,-66.5978,40.6731,1022.64
818900,-0.496,9.81369,-0.194641,0.21,-0.28,-0.21,-23.3846,-66.5978,40.6731,1022.64
818906,-0.477041,9.81846,-0.123363,0.14,-0.28,-0.35,-23.3846,-66.5978,40.6731,1022.64
818912,-0.538657,9.83274,-0.118612,0.35,-0.21,-0.28,-23.3846,-66.5978,40.6731,1022.64
818918,-0.519698,9.88513,-0.0805966,0.35,-0.14,-0.28,-23.3846,-66.5978,40.6731,1022.64
818924,-0.567095,9.83274,-0.0948522,0.35,0,-0.42,-23.3846,-66.5978,40.6731,1022.64
818930,-0.543397,9.79464,-0.099604,0.42,-0.14,-0.35,-23.3846,-66.5978,40.6731,1022.64
818936,-0.567095,9.88513,-0.137619,0.28,-0.14,-0.49,-23.3846,-66.5978,40.6731,1022.61
818942,-0.557616,9.87561,-0.270671,0.21,0,-0.42,-23.3846,-66.5978,40.6731,1022.61
818948,-0.533917,9.88513,-0.028326,0.07,-0.35,-0.28,-23.3846,-66.5978,40.6731,1022.59
818954,-0.50074,9.81846,-0.161378,0.63,-0.07,-0.35,-23.3846,-66.5978,40.6731,1022.59
818960,-0.524438,9.98038,-0.16613,0.77,0.14,-0.35,-23.3846,-66.5978,40.6731,1022.61
818966,-0.609753,9.83274,-0.109108,0,-0.07,-0.42,-23.3846,-66.5978,40.6731,1022.61
818972,-0.538657,9.79464,-0.0615891,0.42,-0.28,-0.21,-23.3846,-66.5978,40.6731,1022.61
818978,-0.49126,9.89942,-0.16613,0.07,-0.56,-0.14,-23.3846,-66.5978,40.6731,1022.61
818984,-0.453343,9.78988,-0.0901003,-0.07,-0.56,-0.07,-23.3846,-66.5978,40.6731,1022.61
818990,-0.567095,9.79941,-0.16613,0.21,-0.42,0,-23.3846,-66.5978,40.6731,1022.62
818996,-0.557616,9.88513,-0.11386,0.35,-0.42,0,-23.3846,-66.5978,40.6731,1022.62
819002,-0.486521,9.80893,-0.123363,0.07,-0.63,0,-23.3846,-66.5978,40.6731,1022.62
819008,-0.472301,9.82322,-0.0948522,0.35,-0.21,0,-23.3846,-66.5978,40.6731,1022.62
819014,-0.543397,9.86132,-0.0901003,0.28,-0.14,-0.14,-23.3846,-66.5978,40.6731,1022.64
819020,-0.477041,9.85179,-0.142371,0.14,-0.35,-0.28,-23.3846,-66.5978,40.6731,1022.64
819026,-0.514959,9.79464,-0.132867,0,-0.21,-0.35,-23.3846,-66.5978,40.6731,1022.64
819032,-0.49126,9.86608,-0.11386,0.14,-0.35,-0.21,-23.3846,-66.5978,40.6731,1022.63
819038,-0.505479,9.79941,-0.0853484,0.14,-0.42,-0.35,-23.3846,-66.5978,40.6731,1022.63
819044,-0.453343,9.80417,-0.109108,0.21,-0.28,-0.35,-23.3846,-66.5978,40.6731,1022.6
819050,-0.50074,9.85179,-0.132867,0.21,-0.21,-0.28,-23.3846,-66.5978,40.6731,1022.6
819056,-0.538657,9.85179,-0.137619,0.14,-0.28,-0.28,-23.3846,-66.5978,40.6731,1022.62
819062,-0.605013,9.89466,-0.137619,0.28,-0.14,-0.14,-23.3846,-66.5978,40.6731,1022.62
819068,-0.496,9.87561,-0.142371,0.35,-0.28,-0.07,-23.3846,-66.5978,40.6731,1022.6
819074,-0.548137,9.83751,-0.132867,0.14,-0.49,0,-23.3846,-66.5978,40.6731,1022.6
819080,-0.486521,9.86132,-0.132867,-0.14,-0.49,0,-23.3846,-66.5978,40.6731,1022.6
819086,-0.562356,9.84227,-0.123363,0,-0.49,0.07,-23.3846,-66.5978,40.6731,1022.62
819092,-0.486521,9.81369,-0.0853484,0,-0.56,0,-23.3846,-66.5978,40.6731,1022.62
819098,-0.443863,9.81369,-0.123363,0.07,-0.49,0,-23.3846,-66.5978,40.6731,1022.62
819104,-0.510219,9.80417,-0.137619,0.21,-0.28,-0.07,-23.3846,-66.5978,40.6731,1022.62
819110,-0.543397,9.85656,-0.0948522,0.14,-0.21,-0.07,-23.3846,-66.5978,40.6731,1022.66
819116,-0.439124,9.83751,-0.104356,0.14,-0.28,-0.14,-23.3846,-66.5978,40.6731,1022.66
819122,-0.443863,9.83274,-0.0901003,0.07,-0.14,-0.21,-23.3846,-66.5978,40.6731,1022.66
819128,-0.543397,9.79464,-0.0758447,0.21,-0.14,-0.35,-23.3846,-66.5978,40.6731,1022.64
819134,-0.467562,9.83751,-0.132867,0.35,0,-0.28,-23.3846,-66.5978,40.6731,1022.64
819140,-0.519698,9.87084,-0.118612,0.35,0,-0.28,-23.3846,-66.5978,40.6731,1022.62
819146,-0.505479,9.87084,-0.156626,0.28,-0.21,-0.35,-23.3846,-66.5978,40.6731,1022.62
819152,-0.576575,9.87561,-0.147123,0.21,-0.14,-0.35,-23.3846,-66.5978,40.6731,1022.66
819158,-0.505479,9.88037,-0.104356,0.07,-0.14,-0.28,-23.3846,-66.5978,40.6731,1022.66
819164,-0.514959,9.84703,-0.0948522,0,-0.35,-0.35,-23.3846,-66.5978,40.6731,1022.63
819170,-0.443863,9.87084,-0.11386,-0.07,-0.42,-0.28,-23.3846,-66.5978,40.6731,1022.63
819176,-0.50074,9.86132,-0.132867,-0.07,-0.28,-0.14,-23.3846,-66.5978,40.6731,1022.63
819182,-0.472301,9.82322,-0.128115,-0.07,-0.42,-0.14,-23.3846,-66.5978,40.6731,1022.61
819188,-0.529178,9.87084,-0.151875,0.07,-0.42,-0.14,-23.3846,-66.5978,40.6731,1022.61
819194,-0.477041,9.84227,-0.11386,0,-0.49,0,-23.3846,-66.5978,40.6731,1022.6
819200,-0.50074,9.78512,-0.142371,0,-0.56,-0.14,-23.3846,-66.5978,40.6731,1022.6
819206,-0.514959,9.80417,-0.109108,0.07,-0.42,-0.14,-23.3846,-66.5978,40.6731,1022.62
819212,-0.510219,9.84703,-0.132867,0.14,-0.42,-0.07,-23.3846,-66.5978,40.6731,1022.62
819218,-0.486521,9.85179,-0.128115,0,-0.28,-0.14,-23.3846,-66.5978,40.6731,1022.62
819224,-0.386987,9.81369,-0.0805966,0,-0.28,-0.21,-23.3846,-66.5978,40.6731,1022.61
819230,-0.472301,9.83751,-0.128115,0.21,-0.21,-0.28,-23.3846,-66.5978,40.6731,1022.61
819236,-0.481781,9.84227,-0.11386,0.21,-0.14,-0.28,-23.3846,-66.5978,40.6731,1022.62
819242,-0.505479,9.81846,-0.156626,0.28,-0.21,-0.35,-23.3846,-66.5978,40.6731,1022.62
819248,-0.448603,9.85179,-0.0520854,0.21,-0.14,-0.35,-23.3846,-66.5978,40.6731,1022.61
819254,-0.467562,9.82798,-0.0710928,0.14,-0.07,-0.49,-23.3846,-66.5978,40.6731,1022.61
819260,-0.524438,9.81369,-0.123363,0.14,-0.07,-0.49,-23.3846,-66.5978,40.6731,1022.65
819266,-0.524438,9.78512,-0.142371,0.14,-0.07,-0.56,-23.3846,-66.5978,40.6731,1022.65
819272,-0.533917,9.84703,-0.128115,0.14,-0.07,-0.56,-23.3846,-66.5978,40.6731,1022.65
819278,-0.538657,9.80417,-0.151875,0.21,-0.07,-0.56,-23.3846,-66.5978,40.6731,1022.62
819284,-0.514959,9.81846,-0.132867,0.14,-0.21,-0.56,-23.3846,-66.5978,40.6731,1022.62
819290,-0.486521,9.83274,-0.0901003,0.07,-0.35,-0.56,-23.3846,-66.5978,40.6731,1022.61
819296,-0.519698,9.84703,-0.0948522,0.28,-0.21,-0.49,-23.3846,-66.5978,40.6731,1022.61
819302,-0.458082,9.90418,-0.0948522,0.21,-0.21,-0.35,-23.3846,-66.5978,40.6731,1022.64
819308,-0.529178,9.85179,-0.0710928,0.07,-0.28,-0.35,-23.3846,-66.5978,40.6731,1022.64
819314,-0.514959,9.82322,-0.0853484,0.14,-0.14,-0.42,-23.3846,-66.5978,40.6731,1022.64
819320,-0.467562,9.85656,-0.109108,0.35,-0.14,-0.35,-23.3846,-66.5978,40.6731,1022.62
819326,-0.486521,9.81846,-0.132867,0.28,0,-0.49,-23.3846,-66.5978,40.6731,1022.62
819332,-0.519698,9.86132,-0.142371,0.49,-0.07,-0.49,-23.3846,-66.5978,40.6731,1022.6
819338,-0.514959,9.83751,-0.156626,0.35,-0.07,-0.42,-23.3846,-66.5978,40.6731,1022.6
819344,-0.514959,9.84227,-0.11386,0.14,0,-0.42,-23.3846,-66.5978,40.6731,1022.62
819350,-0.477041,9.90418,-0.123363,0.21,0,-0.56,-23.3846,-66.5978,40.6731,1022.62
819356,-0.538657,9.86132,-0.128115,0.14,-0.14,-0.42,-23.3846,-66.5978,40.6731,1022.62
819362,-0.496,9.83751,-0.0901003,0.21,-0.21,-0.35,-23.3846,-66.5978,40.6731,1022.62
819368,-0.505479,9.79941,-0.137619,0.35,-0.07,-0.35,-23.3846,-66.5978,40.6731,1022.62
819374,-0.538657,9.94228,-0.208897,0.14,-0.28,-0.21,-23.3846,-66.5978,40.6731,1022.6
819380,-0.462822,9.77559,-0.0520854,-0.42,-0.77,-0.07,-23.3846,-66.5978,40.6731,1022.6
819386,-0.391727,9.78512,-0.0710928,0,-0.42,-0.07,-23.3846,-66.5978,40.6731,1022.64
819392,-0.510219,9.90895,-0.104356,0.28,-0.28,-0.07,-23.3846,-66.5978,40.6731,1022.64
819398,-0.529178,9.8899,-0.109108,0.07,-0.42,-0.14,-23.3846,-66.5978,40.6731,1022.61
819404,-0.458082,9.77083,-0.104356,-0.21,-0.49,-0.21,-23.3846,-66.5978,40.6731,1022.61
819410,-0.49126,9.88513,-0.11386,0.35,-0.14,-0.21,-23.3846,-66.5978,40.6731,1022.62
819416,-0.477041,9.83274,-0.066341,0.07,-0.07,-0.21,-23.3846,-66.5978,40.6731,1022.62
819422,-0.472301,9.84227,-0.142371,0.07,-0.14,-0.28,-23.3846,-66.5978,40.6731,1022.62
819428,-0.481781,9.81369,-0.142371,0.14,-0.14,-0.35,-23.3846,-66.5978,40.6731,1022.59
819434,-0.443863,9.87561,-0.104356,0.28,-0.14,-0.42,-23.3846,-66.5978,40.6731,1022.59
819440,-0.424904,9.82322,-0.104356,0.35,-0.14,-0.49,-23.3846,-66.5978,40.6731,1022.59
819446,-0.529178,9.81369,-0.0758447,0.28,-0.21,-0.49,-23.3846,-66.5978,40.6731,1022.59
819452,-0.453343,9.84703,-0.170882,0.21,-0.07,-0.49,-23.3846,-66.5978,40.6731,1022.66
819458,-0.49126,9.84227,-0.11386,0.35,-0.14,-0.56,-23.3846,-66.5978,40.6731,1022.66
819464,-0.505479,9.928,-0.109108,0.21,-0.28,-0.56,-23.3846,-66.5978,40.6731,1022.66
819470,-0.496,9.87084,-0.151875,0.21,-0.28,-0.49,-23.3846,-66.5978,40.6731,1022.64
819476,-0.49126,9.82798,-0.128115,0.21,-0.35,-0.42,-23.3846,-66.5978,40.6731,1022.64
819482,-0.49126,9.84227,-0.066341,0.14,-0.28,-0.49,-23.3846,-66.5978,40.6731,1022.61
819488,-0.458082,9.80417,-0.0948522,0.21,-0.14,-0.42,-23.3846,-66.5978,40.6731,1022.61
819494,-0.472301,9.88513,-0.0948522,0.28,-0.28,-0.42,-23.3846,-66.5978,40.6731,1022.6
819500,-0.424904,9.82322,-0.0710928,0.28,-0.28,-0.42,-23.3846,-66.5978,40.6731,1022.6
819506,-0.443863,9.83751,-0.11386,0.14,-0.21,-0.49,-23.3846,-66.5978,40.6731,1022.59
819512,-0.519698,9.78512,-0.0901003,0.28,0.07,-0.49,-23.3846,-66.5978,40.6731,1022.59
819518,-0.562356,9.83274,-0.0568372,0.42,-0.07,-0.56,-23.3846,-66.5978,40.6731,1022.59
819524,-0.49126,9.83751,-0.175634,0.42,-0.07,-0.42,-23.3846,-66.5978,40.6731,1022.58
819530,-0.467562,9.82322,-0.142371,0.49,-0.07,-0.49,-23.3846,-66.5978,40.6731,1022.58
819536,-0.505479,9.87084,-0.132867,0.49,-0.07,-0.56,-23.3846,-66.5978,40.6731,1022.63
819542,-0.496,9.78512,-0.128115,0.49,0.07,-0.56,-23.3846,-66.5978,40.6731,1022.63
819548,-0.496,9.90418,-0.104356,0.42,0.07,-0.77,-23.3846,-66.5978,40.6731,1022.61
819554,-0.477041,9.87084,-0.109108,0.49,0.21,-0.77,-23.3846,-66.5978,40.6731,1022.61
819560,-0.557616,9.83751,-0.142371,0.56,0.14,-0.7,-23.3846,-66.5978,40.6731,1022.61
819566,-0.486521,9.85179,-0.11386,0.21,0.07,-0.63,-23.3846,-66.5978,40.6731,1022.62
819572,-0.496,9.90418,-0.180386,0.14,-0.07,-0.63,-23.3846,-66.5978,40.6731,1022.62
819578,-0.467562,9.82798,-0.0520854,0.21,-0.21,-0.63,-23.3846,-66.5978,40.6731,1022.6
819584,-0.510219,9.83751,-0.104356,0.07,-0.14,-0.84,-23.3846,-66.5978,40.6731,1022.6
819590,-0.533917,9.83274,-0.0140704,0.28,0,-0.56,-23.3846,-66.5978,40.6731,1022.59
819596,-0.571835,9.91371,-0.16613,0.35,-0.14,-0.42,-23.3846,-66.5978,40.6731,1022.59
819602,-0.514959,9.83274,-0.104356,0.07,-0.28,-0.35,-23.3846,-66.5978,40.6731,1022.61
819608,-0.467562,9.82322,-0.118612,0.07,-0.35,-0.35,-23.3846,-66.5978,40.6731,1022.61
819614,-0.453343,9.83274,-0.099604,0.28,-0.28,-0.42,-23.3846,-66.5978,40.6731,1022.61
819620,-0.477041,9.87084,-0.132867,0.21,-0.21,-0.35,-23.3846,-66.5978,40.6731,1022.61
819626,-0.439124,9.87084,-0.147123,0.35,-0.21,-0.35,-23.3846,-66.5978,40.6731,1022.61
819632,-0.543397,9.81846,-0.132867,0.28,-0.28,-0.42,-23.3846,-66.5978,40.6731,1022.56
819638,-0.50074,9.84703,-0.11386,0.07,-0.28,-0.42,-23.3846,-66.5978,40.6731,1022.56
819644,-0.434384,9.83274,-0.099604,0,-0.21,-0.49,-23.3846,-66.5978,40.6731,1022.59
819650,-0.462822,9.84703,-0.0758447,0.07,-0.07,-0.56,-23.3846,-66.5978,40.6731,1022.59
819656,-0.439124,9.82322,-0.104356,0.07,-0.07,-0.49,-23.3846,-66.5978,40.6731,1022.59
819662,-0.481781,9.87084,-0.118612,0.14,0,-0.56,-23.3846,-66.5978,40.6731,1022.62
819668,-0.496,9.87084,-0.0901003,0.21,0.07,-0.63,-23.3846,-66.5978,40.6731,1022.62
819674,-0.472301,9.81846,-0.11386,0.28,-0.07,-0.77,-23.3846,-66.5978,40.6731,1022.59
819680,-0.486521,9.79464,-0.0568372,0.35,-0.07,-0.84,-23.3846,-66.5978,40.6731,1022.59
819686,-0.529178,9.8899,-0.123363,0.49,0.07,-0.7,-23.3846,-66.5978,40.6731,1022.64
819692,-0.50074,9.87084,-0.151875,0.35,-0.14,-0.7,-23.3846,-66.5978,40.6731,1022.64
819698,-0.49126,9.88513,-0.156626,0.07,-0.42,-0.56,-23.3846,-66.5978,40.6731,1022.61
819704,-0.50074,9.85179,-0.0853484,0.21,-0.21,-0.63,-23.3846,-66.5978,40.6731,1022.61
819710,-0.514959,9.82322,-0.137619,0.14,-0.21,-0.56,-23.3846,-66.5978,40.6731,1022.61
819716,-0.543397,9.85656,-0.099604,0.07,-0.35,-0.49,-23.3846,-66.5978,40.6731,1022.61
819722,-0.477041,9.82798,-0.156626,0.14,-0.28,-0.49,-23.3846,-66.5978,40.6731,1022.61
819728,-0.514959,9.86132,-0.0853484,0.14,-0.35,-0.49,-23.3846,-66.5978,40.6731,1022.61
819734,-0.496,9.84703,-0.147123,0.21,-0.07,-0.63,-23.3846,-66.5978,40.6731,1022.61
819740,-0.510219,9.83751,-0.099604,0.14,-0.14,-0.77,-23.3846,-66.5978,40.6731,1022.62
819746,-0.462822,9.80893,-0.0948522,0.21,-0.07,-0.77,-23.3846,-66.5978,40.6731,1022.62
819752,-0.481781,9.82322,-0.123363,0.42,0,-0.84,-23.3846,-66.5978,40.6731,1022.62
819758,-0.543397,9.82322,-0.123363,0.49,0,-0.91,-23.3846,-66.5978,40.6731,1022.62
819764,-0.505479,9.80893,-0.128115,0.49,0,-0.91,-23.3846,-66.5978,40.6731,1022.62
819770,-0.477041,9.86608,-0.137619,0.49,0.07,-0.91,-23.3846,-66.5978,40.6731,1022.62
819776,-0.510219,9.85179,-0.11386,0.35,0.07,-0.98,-23.3846,-66.5978,40.6731,1022.62
819782,-0.496,9.84703,-0.137619,0.42,0.07,-0.98,-23.3846,-66.5978,40.6731,1022.6
819788,-0.50074,9.89466,-0.151875,0.28,0,-0.98,-23.3846,-66.5978,40.6731,1022.6
819794,-0.576575,9.80893,-0.0901003,0.35,0,-1.12,-23.3846,-66.5978,40.6731,1022.65
819800,-0.538657,9.82798,-0.109108,0.28,0,-1.12,-23.3846,-66.5978,40.6731,1022.65
819806,-0.529178,9.88513,-0.118612,0.21,0,-0.91,-23.3846,-66.5978,40.6731,1022.65
819812,-0.510219,9.92323,-0.066341,0,-0.21,-0.84,-23.3846,-66.5978,40.6731,1022.62
819818,-0.481781,9.90895,-0.11386,0,-0.21,-0.84,-23.3846,-66.5978,40.6731,1022.62
819824,-0.505479,9.81369,-0.109108,0,-0.14,-0.84,-23.3846,-66.5978,40.6731,1022.63
819830,-0.548137,9.84703,-0.066341,0.21,-0.07,-0.84,-23.3846,-66.5978,40.6731,1022.63
819836,-0.529178,9.93276,-0.156626,0.14,-0.28,-0.7,-23.3846,-66.5978,40.6731,1022.66
819842,-0.505479,9.80417,-0.109108,0.07,-0.28,-0.77,-23.3846,-66.5978,40.6731,1022.66
819848,-0.420165,9.84227,-0.0853484,0.14,-0.21,-0.91,-23.3846,-66.5978,40.6731,1022.62
819854,-0.49126,9.85656,-0.109108,0.35,-0.21,-0.91,-23.3846,-66.5978,40.6731,1022.62
819860,-0.50074,9.82798,-0.0948522,0.35,-0.07,-0.98,-23.3846,-66.5978,40.6731,1022.62
819866,-0.477041,9.86132,-0.128115,0.42,-0.07,-0.98,-23.3846,-66.5978,40.6731,1022.62
819872,-0.49126,9.78988,-0.128115,0.49,0.07,-0.98,-23.3846,-66.5978,40.6731,1022.62
819878,-0.462822,9.83751,-0.0853484,0.35,0.21,-1.12,-23.3846,-66.5978,40.6731,1022.65
819884,-0.519698,9.84703,-0.109108,0.35,0.21,-1.12,-23.3846,-66.5978,40.6731,1022.65
819890,-0.510219,9.86132,-0.18989,0.42,0,-1.05,-23.3846,-66.5978,40.6731,1022.64
819896,-0.557616,9.85179,-0.137619,0.42,0,-1.12,-23.3846,-66.5978,40.6731,1022.64
819902,-0.543397,9.92323,-0.147123,0.14,-0.07,-0.98,-23.3846,-66.5978,40.6731,1022.64
819908,-0.538657,9.80417,-0.142371,0,-0.21,-0.91,-23.3846,-66.5978,40.6731,1022.62
819914,-0.548137,9.78036,-0.104356,0,-0.35,-0.77,-23.3846,-66.5978,40.6731,1022.62
819920,-0.458082,9.81846,-0.0568372,0.07,-0.28,-0.77,-23.3846,-66.5978,40.6731,1022.63
819926,-0.590794,9.83274,-0.128115,0.14,-0.14,-0.84,-23.3846,-66.5978,40.6731,1022.63
819932,-0.533917,9.84703,-0.123363,0.28,-0.14,-0.77,-23.3846,-66.5978,40.6731,1022.61
819938,-0.514959,9.81369,-0.118612,0.28,-0.14,-0.7,-23.3846,-66.5978,40.6731,1022.61
819944,-0.472301,9.83751,-0.0901003,0.28,-0.07,-0.77,-23.3846,-66.5978,40.6731,1022.6
819950,-0.462822,9.83274,-0.104356,0.35,0,-0.91,-23.3846,-66.5978,40.6731,1022.6
819956,-0.514959,9.83274,-0.099604,0.42,0.07,-0.91,-23.3846,-66.5978,40.6731,1022.6
819962,-0.49126,9.83751,-0.16613,0.42,0.14,-0.98,-23.3846,-66.5978,40.6731,1022.64
819968,-0.519698,9.85179,-0.0901003,0.42,0.14,-1.12,-23.3846,-66.5978,40.6731,1022.64
819974,-0.481781,9.80893,-0.0568372,0.35,0.28,-1.19,-23.3846,-66.5978,40.6731,1022.6
819980,-0.510219,9.80417,-0.118612,0.49,0.49,-1.26,-23.3846,-66.5978,40.6731,1022.6
819986,-0.472301,9.82322,-0.11386,0.56,0.49,-1.26,-23.3846,-66.5978,40.6731,1022.63
819992,-0.548137,9.89466,-0.151875,0.56,0.49,-1.26,-23.3846,-66.5978,40.6731,1022.63
819998,-0.595534,9.89466,-0.16613,0.49,0.42,-1.19,-23.3846,-66.5978,40.6731,1022.63
820004,-0.552876,9.84227,-0.118612,0.42,0.28,-1.12,-23.3846,-66.5978,40.6731,1022.62
820010,-0.50074,9.83751,-0.132867,0.28,0.14,-0.98,-23.3846,-66.5978,40.6731,1022.62
820016,-0.514959,9.81846,-0.104356,0.21,0.14,-0.84,-23.3846,-66.5978,40.6731,1022.61
820022,-0.543397,9.79464,-0.0520854,0.35,0.07,-0.77,-23.3846,-66.5978,40.6731,1022.61
820028,-0.533917,9.82798,-0.0853484,0.42,0.07,-0.84,-23.3846,-66.5978,40.6731,1022.63
820034,-0.576575,9.80417,-0.099604,0.49,0.21,-0.7,-23.3846,-66.5978,40.6731,1022.63
820040,-0.571835,9.91847,-0.132867,0.63,0,-0.63,-23.3846,-66.5978,40.6731,1022.62
820046,-0.49126,9.84227,-0.0758447,0.21,-0.14,-0.56,-23.3846,-66.5978,40.6731,1022.62
820052,-0.50074,9.83751,-0.0710928,0.35,-0.14,-0.56,-23.3846,-66.5978,40.6731,1022.62
820058,-0.505479,9.81846,-0.123363,0.56,0,-0.63,-23.3846,-66.5978,40.6731,1022.61
820064,-0.477041,9.85179,-0.147123,0.49,0.07,-0.7,-23.3846,-66.5978,40.6731,1022.61
820070,-0.567095,9.85179,-0.128115,0.28,-0.07,-0.63,-23.3846,-66.5978,40.6731,1022.6
820076,-0.562356,9.85179,-0.170882,0.14,-0.21,-0.56,-23.3846,-66.5978,40.6731,1022.6
820082,-0.529178,9.88037,-0.199393,0,-0.35,-0.49,-23.3846,-66.5978,40.6731,1022.61
820088,-0.510219,9.82322,-0.11386,-0.14,-0.42,-0.56,-23.3846,-66.5978,40.6731,1022.61
820094,-0.514959,9.87561,-0.104356,-0.07,-0.35,-0.56,-23.3846,-66.5978,40.6731,1022.6
820100,-0.548137,9.84703,-0.11386,0,-0.49,-0.35,-23.3846,-66.5978,40.6731,1022.6
820106,-0.462822,9.82322,-0.170882,-0.21,-0.63,-0.42,-23.3846,-66.5978,40.6731,1022.6
820112,-0.481781,9.82798,-0.109108,-0.07,-0.49,-0.42,-23.3846,-66.5978,40.6731,1022.62
820118,-0.519698,9.82798,-0.0853484,0,-0.42,-0.42,-23.3846,-66.5978,40.6731,1022.62
820124,-0.571835,9.82322,-0.11386,0.07,-0.42,-0.35,-23.3846,-66.5978,40.6731,1022.61
820130,-0.557616,9.80893,-0.0805966,0,-0.49,-0.28,-23.3846,-66.5978,40.6731,1022.61
820136,-0.481781,9.83751,-0.0615891,0.07,-0.49,-0.28,-23.3846,-66.5978,40.6731,1022.64
820142,-0.529178,9.84227,-0.0615891,0.21,-0.35,-0.21,-23.3846,-66.5978,40.6731,1022.64
820148,-0.519698,9.80417,-0.099604,0.42,-0.28,-0.21,-23.3846,-66.5978,40.6731,1022.64
820154,-0.514959,9.86608,-0.0568372,0.63,-0.14,-0.21,-23.3846,-66.5978,40.6731,1022.63
820160,-0.524438,9.87084,-0.109108,0.49,-0.21,-0.21,-23.3846,-66.5978,40.6731,1022.63
820166,-0.50074,9.76131,-0.0758447,0.42,-0.21,-0.14,-23.3846,-66.5978,40.6731,1022.58
820172,-0.486521,9.77559,-0.137619,0.56,-0.21,-0.14,-23.3846,-66.5978,40.6731,1022.58
820178,-0.496,9.86608,-0.099604,0.56,0,-0.28,-23.3846,-66.5978,40.6731,1022.63
820184,-0.49126,9.83274,-0.099604,0.35,-0.14,-0.35,-23.3846,-66.5978,40.6731,1022.63
820190,-0.543397,9.79464,-0.0948522,0.28,-0.14,-0.42,-23.3846,-66.5978,40.6731,1022.61
820196,-0.529178,9.87561,-0.128115,0.28,-0.14,-0.35,-23.3846,-66.5978,40.6731,1022.61
820202,-0.548137,9.82798,-0.11386,0.28,-0.21,-0.28,-23.3846,-66.5978,40.6731,1022.61
820208,-0.519698,9.83274,-0.16613,0.21,-0.35,-0.21,-23.3846,-66.5978,40.6731,1022.62
820214,-0.49126,9.85656,-0.104356,-0.07,-0.42,-0.21,-23.3846,-66.5978,40.6731,1022.62
820220,-0.519698,9.84227,-0.0853484,0.07,-0.42,-0.21,-23.3846,-66.5978,40.6731,1022.6
820226,-0.581314,9.86608,-0.147123,0.14,-0.49,-0.14,-23.3846,-66.5978,40.6731,1022.6
820232,-0.538657,9.88037,-0.156626,0.07,-0.49,-0.07,-23.3846,-66.5978,40.6731,1022.63
820238,-0.496,9.80417,-0.0901003,0.28,-0.35,-0.14,-23.3846,-66.5978,40.6731,1022.63
820244,-0.529178,9.81846,-0.099604,0.35,-0.28,-0.21,-23.3846,-66.5978,40.6731,1022.63
820250,-0.486521,9.82322,-0.132867,0.35,-0.28,-0.14,-23.3846,-66.5978,40.6731,1022.62
820256,-0.533917,9.81846,-0.0853484,0.28,-0.28,-0.14,-23.3846,-66.5978,40.6731,1022.62
820262,-0.472301,9.78512,-0.123363,0.35,-0.28,-0.07,-23.3846,-66.5978,40.6731,1022.6
820268,-0.415425,9.82798,-0.118612,0.35,-0.21,-0.21,-23.3846,-66.5978,40.6731,1022.6
820274,-0.552876,9.81369,-0.118612,0.35,-0.14,-0.35,-23.3846,-66.5978,40.6731,1022.62
820280,-0.514959,9.82322,-0.156626,0.42,-0.07,-0.35,-23.3846,-66.5978,40.6731,1022.62
820286,-0.496,9.83274,-0.132867,0.28,-0.21,-0.42,-23.3846,-66.5978,40.6731,1022.63
820292,-0.496,9.88037,-0.118612,0.35,0,-0.49,-23.3846,-66.5978,40.6731,1022.63
820298,-0.439124,9.85179,-0.0805966,0.28,0,-0.56,-23.3846,-66.5978,40.6731,1022.63
820304,-0.533917,9.79941,-0.104356,0.35,0.07,-0.49,-23.3846,-66.5978,40.6731,1022.61
820310,-0.586054,9.81369,-0.104356,0.35,0,-0.56,-23.3846,-66.5978,40.6731,1022.61
820316,-0.562356,9.84227,-0.137619,0.35,0,-0.49,-23.3846,-66.5978,40.6731,1022.63
820322,-0.552876,9.83751,-0.128115,0.49,0,-0.42,-23.3846,-66.5978,40.6731,1022.63
820328,-0.581314,9.86608,-0.0568372,0.42,0,-0.35,-23.3846,-66.5978,40.6731,1022.6
820334,-0.510219,9.82798,-0.109108,0.35,-0.14,-0.35,-23.3846,-66.5978,40.6731,1022.6
820340,-0.538657,9.81369,-0.109108,0.49,-0.07,-0.35,-23.3846,-66.5978,40.6731,1022.6
820346,-0.477041,9.84703,-0.137619,0.49,0,-0.42,-23.3846,-66.5978,40.6731,1022.65
820352,-0.496,9.82798,-0.132867,0.49,-0.07,-0.35,-23.3846,-66.5978,40.6731,1022.65
820358,-0.562356,9.82798,-0.128115,0.35,0,-0.28,-23.3846,-66.5978,40.6731,1022.6
820364,-0.472301,9.86132,-0.0901003,0.49,0,-0.28,-23.3846,-66.5978,40.6731,1022.6
820370,-0.571835,9.85656,-0.156626,0.49,0.07,-0.42,-23.3846,-66.5978,40.6731,1022.65
820376,-0.510219,9.83274,-0.123363,0.49,0,-0.28,-23.3846,-66.5978,40.6731,1022.65
820382,-0.529178,9.85656,-0.099604,0.49,0,-0.28,-23.3846,-66.5978,40.6731,1022.61
820388,-0.600273,9.86132,-0.128115,0.42,0,-0.35,-23.3846,-66.5978,40.6731,1022.61
820394,-0.519698,9.82322,-0.0901003,0.21,-0.14,-0.35,-23.3846,-66.5978,40.6731,1022.61
820400,-0.514959,9.83751,-0.128115,0.28,-0.21,-0.42,-23.3846,-66.5978,40.6731,1022.63
820406,-0.533917,9.82322,-0.123363,0.28,-0.21,-0.35,-23.3846,-66.5978,40.6731,1022.63
820412,-0.586054,9.79941,-0.11386,0.14,-0.21,-0.35,-23.3846,-66.5978,40.6731,1022.61
820418,-0.458082,9.84227,-0.132867,0.21,-0.21,-0.35,-23.3846,-66.5978,40.6731,1022.61
820424,-0.467562,9.83751,-0.066341,0.14,-0.14,-0.42,-23.3846,-66.5978,40.6731,1022.62
820430,-0.600273,9.83751,-0.028326,0.14,0,-0.42,-23.3846,-66.5978,40.6731,1022.62
820436,-0.543397,9.93752,-0.142371,0.28,-0.07,-0.28,-23.3846,-66.5978,40.6731,1022.63
820442,-0.557616,9.91371,-0.161378,0.07,-0.35,-0.21,-23.3846,-66.5978,40.6731,1022.63
820448,-0.538657,9.77559,-0.0140704,0.14,-0.56,-0.21,-23.3846,-66.5978,40.6731,1022.63
820454,-0.538657,9.80417,-0.170882,0.49,-0.21,-0.28,-23.3846,-66.5978,40.6731,1022.61
820460,-0.486521,9.89942,-0.11386,0.49,-0.14,-0.35,-23.3846,-66.5978,40.6731,1022.61
820466,-0.567095,9.85179,-0.11386,0.28,-0.21,-0.28,-23.3846,-66.5978,40.6731,1022.63
820472,-0.443863,9.82322,-0.109108,0.07,-0.42,-0.28,-23.3846,-66.5978,40.6731,1022.63
820478,-0.514959,9.83751,-0.109108,0.49,-0.07,-0.28,-23.3846,-66.5978,40.6731,1022.63
820484,-0.486521,9.84227,-0.0901003,0.42,-0.07,-0.35,-23.3846,-66.5978,40.6731,1022.63
820490,-0.567095,9.82322,-0.123363,0.35,0,-0.42,-23.3846,-66.5978,40.6731,1022.63
820496,-0.543397,9.87561,-0.099604,0.49,-0.07,-0.42,-23.3846,-66.5978,40.6731,1022.6
820502,-0.567095,9.80893,-0.223153,0.28,-0.07,-0.49,-23.3846,-66.5978,40.6731,1022.6
820508,-0.510219,9.80893,-0.156626,0.28,-0.07,-0.42,-23.3846,-66.5978,40.6731,1022.62
820514,-0.552876,9.81369,-0.123363,0.49,-0.07,-0.42,-23.3846,-66.5978,40.6731,1022.62
820520,-0.529178,9.84703,-0.11386,0.35,0,-0.49,-23.3846,-66.5978,40.6731,1022.6
820526,-0.567095,9.86132,-0.170882,0.21,0.07,-0.35,-23.3846,-66.5978,40.6731,1022.6
820532,-0.548137,9.82322,-0.128115,0.35,-0.28,-0.35,-23.3846,-66.5978,40.6731,1022.61
820538,-0.519698,9.83274,-0.066341,0.14,-0.35,-0.28,-23.3846,-66.5978,40.6731,1022.61
820544,-0.514959,9.83751,-0.161378,0.07,-0.42,-0.21,-23.3846,-66.5978,40.6731,1022.61
820550,-0.524438,9.80417,-0.0853484,0.07,-0.35,-0.21,-23.3846,-66.5978,40.6731,1022.62
820556,-0.50074,9.83751,-0.123363,0.42,-0.21,-0.28,-23.3846,-66.5978,40.6731,1022.62
820562,-0.524438,9.85656,-0.161378,0.42,-0.21,-0.28,-23.3846,-66.5978,40.6731,1022.63
820568,-0.453343,9.78036,-0.104356,0.28,-0.21,-0.28,-23.3846,-66.5978,40.6731,1022.63
820574,-0.467562,9.81846,-0.128115,0.49,-0.14,-0.35,-23.3846,-66.5978,40.6731,1022.62
820580,-0.576575,9.82322,-0.0853484,0.28,0.07,-0.35,-23.3846,-66.5978,40.6731,1022.62
820586,-0.505479,9.79464,-0.128115,0.35,0.07,-0.35,-23.3846,-66.5978,40.6731,1022.62
820592,-0.514959,9.80893,-0.118612,0.49,0.07,-0.35,-23.3846,-66.5978,40.6731,1022.62
820598,-0.538657,9.80893,-0.11386,0.42,-0.07,-0.35,-23.3846,-66.5978,40.6731,1022.62
820604,-0.486521,9.79941,-0.104356,0.35,-0.07,-0.35,-23.3846,-66.5978,40.6731,1022.64
820610,-0.486521,9.82798,-0.0901003,0.28,-0.07,-0.42,-23.3846,-66.5978,40.6731,1022.64
820616,-0.514959,9.84703,-0.0948522,0.21,-0.07,-0.42,-23.3846,-66.5978,40.6731,1022.61
820622,-0.50074,9.86132,-0.118612,0.42,0,-0.35,-23.3846,-66.5978,40.6731,1022.61
820628,-0.538657,9.84703,-0.170882,0.42,0,-0.28,-23.3846,-66.5978,40.6731,1022.63
820634,-0.514959,9.84703,-0.137619,0.07,-0.28,-0.21,-23.3846,-66.5978,40.6731,1022.63
820640,-0.50074,9.80417,-0.104356,0.07,-0.35,-0.21,-23.3846,-66.5978,40.6731,1022.63
820646,-0.514959,9.81846,-0.0805966,0.21,-0.28,-0.21,-23.3846,-66.5978,40.6731,1022.6
820652,-0.519698,9.88513,-0.11386,0.28,-0.28,-0.21,-23.3846,-66.5978,40.6731,1022.6
820658,-0.529178,9.78988,-0.099604,0.49,-0.14,-0.21,-23.3846,-66.5978,40.6731,1022.61
820664,-0.486521,9.83751,-0.128115,0.35,-0.21,-0.28,-23.3846,-66.5978,40.6731,1022.61
820670,-0.448603,9.82322,-0.128115,0.14,-0.42,-0.28,-23.3846,-66.5978,40.6731,1022.62
820676,-0.486521,9.83274,-0.104356,0.14,-0.35,-0.28,-23.3846,-66.5978,40.6731,1022.62
820682,-0.514959,9.83274,-0.128115,0.21,-0.07,-0.35,-23.3846,-66.5978,40.6731,1022.62
820688,-0.486521,9.82798,-0.156626,0.28,-0.21,-0.49,-23.3846,-66.5978,40.6731,1022.61
820694,-0.477041,9.83274,-0.132867,0.49,-0.14,-0.42,-23.3846,-66.5978,40.6731,1022.61
820700,-0.49126,9.86132,-0.123363,0.35,0,-0.49,-23.3846,-66.5978,40.6731,1022.63
820706,-0.529178,9.78988,-0.137619,0.42,0.14,-0.56,-23.3846,-66.5978,40.6731,1022.63
820712,-0.462822,9.83751,-0.11386,0.42,0,-0.77,-23.3846,-66.5978,40.6731,1022.63
820718,-0.571835,9.88037,-0.137619,0.56,0,-0.63,-23.3846,-66.5978,40.6731,1022.63
820724,-0.571835,9.8899,-0.147123,0.49,0,-0.7,-23.3846,-66.5978,40.6731,1022.63
820730,-0.538657,9.89466,-0.132867,0.35,-0.14,-0.63,-23.3846,-66.5978,40.6731,1022.63
820736,-0.533917,9.80893,-0.123363,0.14,-0.28,-0.56,-23.3846,-66.5978,40.6731,1022.63
820742,-0.538657,9.83274,-0.11386,0.35,-0.07,-0.42,-23.3846,-66.5978,40.6731,1022.62
820748,-0.600273,9.92323,-0.137619,0.35,-0.21,-0.35,-23.3846,-66.5978,40.6731,1022.62
820754,-0.543397,9.88037,-0.123363,0.21,-0.35,-0.35,-23.3846,-66.5978,40.6731,1022.62
820760,-0.533917,9.85179,-0.147123,0.07,-0.42,-0.21,-23.3846,-66.5978,40.6731,1022.62
820766,-0.443863,9.86608,-0.109108,0.14,-0.35,-0.21,-23.3846,-66.5978,40.6731,1022.6
820772,-0.548137,9.84703,-0.132867,0.28,-0.28,-0.28,-23.3846,-66.5978,40.6731,1022.6
820778,-0.529178,9.81369,-0.137619,0.28,-0.42,-0.35,-23.3846,-66.5978,40.6731,1022.66
820784,-0.477041,9.87561,-0.142371,0.35,-0.28,-0.28,-23.3846,-66.5978,40.6731,1022.66
820790,-0.552876,9.83274,-0.109108,0.28,-0.21,-0.28,-23.3846,-66.5978,40.6731,1022.66
820796,-0.533917,9.78036,-0.0758447,0.21,-0.21,-0.42,-23.3846,-66.5978,40.6731,1022.6
820802,-0.510219,9.82322,-0.128115,0.21,-0.21,-0.42,-23.3846,-66.5978,40.6731,1022.6
820808,-0.519698,9.78512,-0.099604,0.21,-0.21,-0.49,-23.3846,-66.5978,40.6731,1022.62
820814,-0.481781,9.79941,-0.142371,0.28,-0.07,-0.56,-23.3846,-66.5978,40.6731,1022.62
820820,-0.538657,9.84703,-0.109108,0.14,-0.14,-0.56,-23.3846,-66.5978,40.6731,1022.63
820826,-0.481781,9.85179,-0.137619,0.14,-0.07,-0.49,-23.3846,-66.5978,40.6731,1022.63
820832,-0.519698,9.87561,-0.0615891,0.14,-0.07,-0.56,-23.3846,-66.5978,40.6731,1022.63
820838,-0.562356,9.88513,-0.137619,0.21,-0.21,-0.56,-23.3846,-66.5978,40.6731,1022.6
820844,-0.453343,9.83274,-0.151875,0.14,-0.21,-0.56,-23.3846,-66.5978,40.6731,1022.6
820850,-0.557616,9.85656,-0.142371,0,-0.28,-0.49,-23.3846,-66.5978,40.6731,1022.63
820856,-0.590794,9.84703,-0.132867,0.07,-0.21,-0.49,-23.3846,-66.5978,40.6731,1022.63
820862,-0.533917,9.88037,-0.099604,0.07,-0.21,-0.42,-23.3846,-66.5978,40.6731,1022.64
820868,-0.562356,9.86132,-0.109108,0.14,-0.35,-0.42,-23.3846,-66.5978,40.6731,1022.64
820874,-0.548137,9.80417,-0.066341,0.21,-0.21,-0.35,-23.3846,-66.5978,40.6731,1022.61
820880,-0.519698,9.89466,-0.099604,0.14,-0.28,-0.35,-23.3846,-66.5978,40.6731,1022.61
820886,-0.477041,9.8899,-0.151875,0.07,-0.42,-0.35,-23.3846,-66.5978,40.6731,1022.61
820892,-0.505479,9.80893,-0.118612,0,-0.35,-0.28,-23.3846,-66.5978,40.6731,1022.63
820898,-0.548137,9.76607,-0.0901003,0.14,-0.49,-0.35,-23.3846,-66.5978,40.6731,1022.63
820904,-0.486521,9.91371,-0.118612,0.35,-0.14,-0.42,-23.3846,-66.5978,40.6731,1022.62
820910,-0.533917,9.88513,-0.156626,0.14,-0.21,-0.35,-23.3846,-66.5978,40.6731,1022.62
820916,-0.467562,9.78036,-0.0901003,0.07,-0.21,-0.56,-23.3846,-66.5978,40.6731,1022.61
820922,-0.486521,9.85656,-0.0948522,0.14,-0.21,-0.56,-23.3846,-66.5978,40.6731,1022.61
820928,-0.496,9.87561,-0.132867,0.35,-0.07,-0.7,-23.3846,-66.5978,40.6731,1022.61
820934,-0.529178,9.85179,-0.156626,0.42,-0.07,-0.63,-23.3846,-66.5978,40.6731,1022.61
820940,-0.543397,9.86132,-0.137619,0.42,-0.07,-0.63,-23.3846,-66.5978,40.6731,1022.61
820946,-0.529178,9.88513,-0.132867,0.14,-0.14,-0.56,-23.3846,-66.5978,40.6731,1022.6
820952,-0.514959,9.82322,-0.11386,0,-0.21,-0.42,-23.3846,-66.5978,40.6731,1022.6
820958,-0.524438,9.79941,-0.132867,0.14,-0.28,-0.42,-23.3846,-66.5978,40.6731,1022.61
820964,-0.524438,9.86608,-0.128115,0.21,-0.21,-0.49,-23.3846,-66.5978,40.6731,1022.61
820970,-0.50074,9.84703,-0.123363,0.28,-0.21,-0.49,-23.3846,-66.5978,40.6731,1022.61
820976,-0.586054,9.83751,-0.132867,0.35,0,-0.35,-23.3846,-66.5978,40.6731,1022.61
820982,-0.453343,9.83274,-0.132867,0.14,-0.42,-0.28,-23.3846,-66.5978,40.6731,1022.61
820988,-0.567095,9.83751,-0.104356,0.21,-0.07,-0.21,-23.3846,-66.5978,40.6731,1022.59
820994,-0.533917,9.89466,-0.0901003,0.28,-0.14,-0.28,-23.3846,-66.5978,40.6731,1022.59
821000,-0.467562,9.79464,-0.0615891,0.21,-0.35,-0.21,-23.3846,-66.5978,40.6731,1022.61
821006,-0.462822,9.83274,-0.11386,0.28,-0.35,-0.28,-23.3846,-66.5978,40.6731,1022.61
821012,-0.514959,9.8899,-0.118612,0.42,-0.28,-0.14,-23.3846,-66.5978,40.6731,1022.63
821018,-0.496,9.81369,-0.16613,0.35,-0.28,-0.21,-23.3846,-66.5978,40.6731,1022.63
821024,-0.496,9.81369,-0.123363,0.35,-0.21,-0.35,-23.3846,-66.5978,40.6731,1022.63
821030,-0.467562,9.82798,-0.11386,0.28,-0.28,-0.35,-23.3846,-66.5978,40.6731,1022.62
821036,-0.481781,9.77083,-0.099604,0.28,-0.21,-0.49,-23.3846,-66.5978,40.6731,1022.62
821042,-0.443863,9.81369,-0.11386,0.21,-0.14,-0.56,-23.3846,-66.5978,40.6731,1022.62
821048,-0.514959,9.83751,-0.156626,0.21,-0.14,-0.56,-23.3846,-66.5978,40.6731,1022.62
821054,-0.396466,9.83274,-0.066341,0.28,-0.14,-0.42,-23.3846,-66.5978,40.6731,1022.63
821060,-0.533917,9.78512,-0.118612,0.21,0,-0.49,-23.3846,-66.5978,40.6731,1022.63
821066,-0.443863,9.84227,-0.142371,0.21,-0.07,-0.63,-23.3846,-66.5978,40.6731,1022.64
821072,-0.49126,9.82322,-0.0948522,0.21,0,-0.63,-23.3846,-66.5978,40.6731,1022.64
821078,-0.510219,9.79941,-0.11386,0.35,-0.07,-0.63,-23.3846,-66.5978,40.6731,1022.64
821084,-0.562356,9.84703,-0.132867,0.35,0,-0.63,-23.3846,-66.5978,40.6731,1022.59
821090,-0.543397,9.87084,-0.132867,0.42,0,-0.63,-23.3846,-66.5978,40.6731,1022.59
821096,-0.557616,9.85656,-0.16613,0.42,-0.07,-0.56,-23.3846,-66.5978,40.6731,1022.58
821102,-0.557616,9.83274,-0.11386,0.28,0,-0.56,-23.3846,-66.5978,40.6731,1022.58
821108,-0.496,9.80417,-0.0568372,0.35,0.14,-0.56,-23.3846,-66.5978,40.6731,1022.63
821114,-0.590794,9.83274,-0.170882,0.35,-0.07,-0.42,-23.3846,-66.5978,40.6731,1022.63
821120,-0.472301,9.80417,-0.109108,0.14,-0.14,-0.49,-23.3846,-66.5978,40.6731,1022.63
821126,-0.519698,9.84227,-0.123363,0.21,-0.07,-0.42,-23.3846,-66.5978,40.6731,1022.61
821132,-0.538657,9.85656,-0.0901003,0.21,-0.14,-0.42,-23.3846,-66.5978,40.6731,1022.61
821138,-0.529178,9.80893,-0.066341,0.28,-0.14,-0.35,-23.3846,-66.5978,40.6731,1022.61
821144,-0.529178,9.84703,-0.118612,0.35,-0.14,-0.35,-23.3846,-66.5978,40.6731,1022.61
821150,-0.49126,9.85179,-0.128115,0.28,-0.14,-0.35,-23.3846,-66.5978,40.6731,1022.65
821156,-0.533917,9.80893,-0.099604,0.28,0,-0.42,-23.3846,-66.5978,40.6731,1022.65
821162,-0.533917,9.88037,-0.0901003,0.42,0.07,-0.49,-23.3846,-66.5978,40.6731,1022.59
821168,-0.505479,9.82322,-0.0615891,0.49,0,-0.42,-23.3846,-66.5978,40.6731,1022.59
821174,-0.538657,9.84227,-0.099604,0.56,0,-0.42,-23.3846,-66.5978,40.6731,1022.59
821180,-0.533917,9.82798,-0.104356,0.56,0,-0.49,-23.3846,-66.5978,40.6731,1022.63
821186,-0.496,9.85179,-0.128115,0.42,-0.07,-0.42,-23.3846,-66.5978,40.6731,1022.63
821192,-0.514959,9.81369,-0.118612,0.28,-0.07,-0.49,-23.3846,-66.5978,40.6731,1022.62
821198,-0.548137,9.85656,-0.0568372,0.28,-0.21,-0.42,-23.3846,-66.5978,40.6731,1022.62
821204,-0.519698,9.81846,-0.142371,0.14,-0.28,-0.35,-23.3846,-66.5978,40.6731,1022.58
821210,-0.49126,9.82798,-0.104356,0.21,-0.35,-0.42,-23.3846,-66.5978,40.6731,1022.58
821216,-0.529178,9.86132,-0.161378,0.28,-0.28,-0.42,-23.3846,-66.5978,40.6731,1022.63
821222,-0.552876,9.83751,-0.118612,0.21,-0.21,-0.28,-23.3846,-66.5978,40.6731,1022.63
821228,-0.472301,9.83274,-0.0758447,0,-0.42,-0.21,-23.3846,-66.5978,40.6731,1022.63
821234,-0.505479,9.79941,-0.0948522,0,-0.42,-0.21,-23.3846,-66.5978,40.6731,1022.63
821240,-0.467562,9.83751,-0.0901003,0.07,-0.35,-0.21,-23.3846,-66.5978,40.6731,1022.63
821246,-0.472301,9.82322,-0.11386,0.21,-0.35,-0.28,-23.3846,-66.5978,40.6731,1022.59
821252,-0.50074,9.83274,-0.0948522,0.14,-0.35,-0.35,-23.3846,-66.5978,40.6731,1022.59
821258,-0.524438,9.80893,-0.0568372,0.28,-0.21,-0.28,-23.3846,-66.5978,40.6731,1022.61
821264,-0.477041,9.78512,-0.132867,0.35,-0.21,-0.42,-23.3846,-66.5978,40.6731,1022.61
821270,-0.50074,9.85179,-0.123363,0.28,-0.14,-0.49,-23.3846,-66.5978,40.6731,1022.61
821276,-0.496,9.81369,-0.118612,0.42,-0.07,-0.56,-23.3846,-66.5978,40.6731,1022.61
821282,-0.496,9.87561,-0.137619,0.28,-0.07,-0.63,-23.3846,-66.5978,40.6731,1022.61
821288,-0.505479,9.80893,-0.0568372,0.21,-0.07,-0.63,-23.3846,-66.5978,40.6731,1022.62
821294,-0.533917,9.84703,-0.123363,0.35,0,-0.56,-23.3846,-66.5978,40.6731,1022.62
821300,-0.472301,9.82798,-0.151875,0.28,-0.07,-0.63,-23.3846,-66.5978,40.6731,1022.63
821306,-0.514959,9.78988,-0.123363,0.21,0,-0.63,-23.3846,-66.5978,40.6731,1022.63
821312,-0.434384,9.81369,-0.0758447,0.35,-0.07,-0.7,-23.3846,-66.5978,40.6731,1022.61
821318,-0.50074,9.84703,-0.137619,0.21,0,-0.7,-23.3846,-66.5978,40.6731,1022.61
821324,-0.510219,9.88037,-0.11386,0.21,-0.07,-0.63,-23.3846,-66.5978,40.6731,1022.61
821330,-0.524438,9.87084,-0.128115,0.21,-0.14,-0.56,-23.3846,-66.5978,40.6731,1022.61
821336,-0.538657,9.82798,-0.109108,0.14,-0.35,-0.56,-23.3846,-66.5978,40.6731,1022.61
821342,-0.519698,9.84703,-0.118612,0.07,-0.28,-0.42,-23.3846,-66.5978,40.6731,1022.63
821348,-0.576575,9.81846,-0.109108,0.14,-0.07,-0.49,-23.3846,-66.5978,40.6731,1022.63
821354,-0.514959,9.86132,-0.099604,0.28,-0.28,-0.49,-23.3846,-66.5978,40.6731,1022.64
821360,-0.49126,9.81846,-0.11386,0.21,-0.21,-0.42,-23.3846,-66.5978,40.6731,1022.64
821366,-0.529178,9.84227,-0.0758447,0.28,-0.28,-0.49,-23.3846,-66.5978,40.6731,1022.64
821372,-0.524438,9.88037,-0.0948522,0.21,-0.21,-0.49,-23.3846,-66.5978,40.6731,1022.61
821378,-0.453343,9.84227,-0.11386,0.28,-0.14,-0.56,-23.3846,-66.5978,40.6731,1022.61
821384,-0.505479,9.83751,-0.137619,0.42,0.14,-0.63,-23.3846,-66.5978,40.6731,1022.62
821390,-0.50074,9.78512,-0.137619,0.42,0.07,-0.7,-23.3846,-66.5978,40.6731,1022.62
821396,-0.514959,9.81846,-0.161378,0.56,0.07,-0.77,-23.3846,-66.5978,40.6731,1022.6
821402,-0.477041,9.82322,-0.137619,0.35,0.21,-0.7,-23.3846,-66.5978,40.6731,1022.6
821408,-0.552876,9.81369,-0.104356,0.42,0,-0.7,-23.3846,-66.5978,40.6731,1022.59
821414,-0.538657,9.79464,-0.0901003,0.35,0.07,-0.77,-23.3846,-66.5978,40.6731,1022.59
821420,-0.533917,9.81369,-0.109108,0.28,0.21,-0.84,-23.3846,-66.5978,40.6731,1022.59
821426,-0.50074,9.87084,-0.11386,0.35,0.07,-0.91,-23.3846,-66.5978,40.6731,1022.59
821432,-0.477041,9.85179,-0.109108,0.28,0.07,-0.84,-23.3846,-66.5978,40.6731,1022.59
821438,-0.538657,9.81369,-0.109108,0.28,-0.07,-0.84,-23.3846,-66.5978,40.6731,1022.64
821444,-0.548137,9.76607,-0.109108,0.35,0,-0.77,-23.3846,-66.5978,40.6731,1022.64
821450,-0.524438,9.8899,-0.11386,0.28,-0.14,-0.7,-23.3846,-66.5978,40.6731,1022.61
821456,-0.543397,9.83751,-0.0948522,0.21,-0.14,-0.63,-23.3846,-66.5978,40.6731,1022.61
821462,-0.510219,9.83274,-0.0901003,0.14,-0.07,-0.56,-23.3846,-66.5978,40.6731,1022.61
821468,-0.543397,9.88513,-0.0853484,0.21,-0.07,-0.56,-23.3846,-66.5978,40.6731,1022.61
821474,-0.552876,9.82322,-0.147123,0.35,-0.14,-0.49,-23.3846,-66.5978,40.6731,1022.61
821480,-0.49126,9.82322,-0.0805966,0.35,-0.14,-0.56,-23.3846,-66.5978,40.6731,1022.61
821486,-0.510219,9.80893,-0.137619,0.56,-0.07,-0.49,-23.3846,-66.5978,40.6731,1022.61
821492,-0.519698,9.82798,-0.180386,0.63,0.07,-0.7,-23.3846,-66.5978,40.6731,1022.61
821498,-0.519698,9.89466,-0.0758447,0.63,0.21,-0.77,-23.3846,-66.5978,40.6731,1022.61
821504,-0.524438,9.84227,-0.132867,0.42,0.14,-0.7,-23.3846,-66.5978,40.6731,1022.62
821510,-0.505479,9.88037,-0.128115,0.42,0.21,-0.77,-23.3846,-66.5978,40.6731,1022.62
821516,-0.481781,9.83751,-0.11386,0.42,0.14,-0.77,-23.3846,-66.5978,40.6731,1022.62
821522,-0.557616,9.84227,-0.170882,0.35,0.14,-0.7,-23.3846,-66.5978,40.6731,1022.6
821528,-0.538657,9.79941,-0.132867,0.21,0.21,-0.84,-23.3846,-66.5978,40.6731,1022.6
821534,-0.576575,9.81846,-0.109108,0.28,0,-0.63,-23.3846,-66.5978,40.6731,1022.62
821540,-0.510219,9.84703,-0.185138,0.42,-0.07,-0.56,-23.3846,-66.5978,40.6731,1022.62
821546,-0.548137,9.84227,-0.0520854,0.14,-0.07,-0.7,-23.3846,-66.5978,40.6731,1022.61
821552,-0.510219,9.86608,-0.123363,0.35,-0.14,-0.63,-23.3846,-66.5978,40.6731,1022.61
821558,-0.543397,9.83751,-0.0901003,0.42,0,-0.63,-23.3846,-66.5978,40.6731,1022.61
821564,-0.590794,9.83751,-0.099604,0.28,0,-0.56,-23.3846,-66.5978,40.6731,1022.61
821570,-0.529178,9.83274,-0.0710928,0.42,-0.14,-0.35,-23.3846,-66.5978,40.6731,1022.61
821576,-0.529178,9.80417,-0.137619,0.28,0,-0.35,-23.3846,-66.5978,40.6731,1022.61
821582,-0.510219,9.88037,-0.156626,0.21,-0.07,-0.28,-23.3846,-66.5978,40.6731,1022.61
821588,-0.552876,9.86608,-0.0710928,0.28,-0.28,-0.21,-23.3846,-66.5978,40.6731,1022.6
821594,-0.529178,9.79941,-0.11386,0.28,-0.28,-0.21,-23.3846,-66.5978,40.6731,1022.6
821600,-0.486521,9.84227,-0.132867,0.35,-0.21,-0.28,-23.3846,-66.5978,40.6731,1022.59
821606,-0.510219,9.80417,-0.123363,0.28,-0.14,-0.28,-23.3846,-66.5978,40.6731,1022.59
821612,-0.505479,9.79941,-0.128115,0.42,-0.14,-0.35,-23.3846,-66.5978,40.6731,1022.59
821618,-0.467562,9.82322,-0.142371,0.42,-0.07,-0.42,-23.3846,-66.5978,40.6731,1022.61
821624,-0.49126,9.81846,-0.132867,0.49,-0.21,-0.63,-23.3846,-66.5978,40.6731,1022.61
821630,-0.439124,9.82798,-0.123363,0.28,-0.07,-0.63,-23.3846,-66.5978,40.6731,1022.62
821636,-0.548137,9.80417,-0.128115,0.42,0.28,-0.63,-23.3846,-66.5978,40.6731,1022.62
821642,-0.543397,9.82798,-0.137619,0.35,0.21,-0.7,-23.3846,-66.5978,40.6731,1022.63
821648,-0.538657,9.84227,-0.11386,0.28,0.21,-0.63,-23.3846,-66.5978,40.6731,1022.63
821654,-0.614492,9.85656,-0.128115,0.42,0.07,-0.7,-23.3846,-66.5978,40.6731,1022.63
821660,-0.543397,9.88037,-0.123363,0.35,-0.07,-0.7,-23.3846,-66.5978,40.6731,1022.63
821666,-0.529178,9.89466,-0.109108,0.21,-0.14,-0.56,-23.3846,-66.5978,40.6731,1022.63
821672,-0.519698,9.78988,-0.132867,0.14,0,-0.56,-23.3846,-66.5978,40.6731,1022.6
821678,-0.496,9.88037,-0.123363,0.07,-0.28,-0.63,-23.3846,-66.5978,40.6731,1022.6
821684,-0.496,9.84703,-0.109108,-0.07,-0.21,-0.49,-23.3846,-66.5978,40.6731,1022.59
821690,-0.505479,9.83274,-0.0853484,0.14,-0.14,-0.49,-23.3846,-66.5978,40.6731,1022.59
821696,-0.538657,9.85179,-0.137619,0.35,-0.21,-0.56,-23.3846,-66.5978,40.6731,1022.61
821702,-0.519698,9.85656,-0.11386,0.21,-0.28,-0.35,-23.3846,-66.5978,40.6731,1022.61
821708,-0.462822,9.80893,-0.118612,0.21,-0.35,-0.35,-23.3846,-66.5978,40.6731,1022.61
821714,-0.50074,9.84703,-0.151875,0.28,-0.35,-0.28,-23.3846,-66.5978,40.6731,1022.63
821720,-0.548137,9.82322,-0.132867,0.35,-0.14,-0.35,-23.3846,-66.5978,40.6731,1022.63
821726,-0.538657,9.86132,-0.0901003,0.42,-0.14,-0.42,-23.3846,-66.5978,40.6731,1022.6
821732,-0.543397,9.84227,-0.104356,0.35,-0.07,-0.42,-23.3846,-66.5978,40.6731,1022.6
821738,-0.481781,9.83274,-0.123363,0.21,-0.07,-0.63,-23.3846,-66.5978,40.6731,1022.61
821744,-0.477041,9.86132,-0.0901003,0.42,-0.07,-0.56,-23.3846,-66.5978,40.6731,1022.61
821750,-0.514959,9.87561,-0.11386,0.49,0,-0.56,-23.3846,-66.5978,40.6731,1022.62
821756,-0.562356,9.79941,-0.151875,0.42,0,-0.63,-23.3846,-66.5978,40.6731,1022.62
821762,-0.486521,9.85656,-0.147123,0.35,0,-0.7,-23.3846,-66.5978,40.6731,1022.62
821768,-0.462822,9.78036,-0.0188223,0.28,0,-0.63,-23.3846,-66.5978,40.6731,1022.61
821774,-0.505479,9.87084,-0.204145,0.42,-0.07,-0.77,-23.3846,-66.5978,40.6731,1022.61
821780,-0.524438,9.95657,-0.232656,0.84,0.28,-0.7,-23.3846,-66.5978,40.6731,1022.62
821786,-0.472301,9.74226,-0.0378297,-0.35,-0.56,-0.56,-23.3846,-66.5978,40.6731,1022.62
821792,-0.50074,9.79464,-0.180386,0.42,-0.14,-0.56,-23.3846,-66.5978,40.6731,1022.63
821798,-0.567095,9.86608,-0.118612,0.49,0.07,-0.56,-23.3846,-66.5978,40.6731,1022.63
821804,-0.538657,9.86608,-0.0948522,0,-0.42,-0.49,-23.3846,-66.5978,40.6731,1022.63
821810,-0.567095,9.82322,-0.11386,0.28,-0.21,-0.49,-23.3846,-66.5978,40.6731,1022.62
821816,-0.538657,9.82798,-0.11386,0.21,-0.21,-0.49,-23.3846,-66.5978,40.6731,1022.62
