Timestamp,AccX,AccY,AccZ,AngularVelX,AngularVelY,AngularVelZ,MagX,MagY,MagZ,AirPressure
720236,0.382592,9.81827,-0.310856,1.12,-2.52,-0.07,-20.6478,-44.8569,21.1723,1023.36
720242,0.363462,9.81827,-0.325203,1.12,-2.52,-0.07,-20.1539,-47.7866,19.2366,1023.42
720248,0.406504,9.82783,-0.277379,1.47,-2.45,0,-21.4324,-44.3326,19.3104,1023.42
720254,0.368245,9.81349,-0.291726,1.47,-2.17,0.21,-20.5607,-43.7775,20.6551,1023.39
720260,0.353898,9.81349,-0.267814,1.47,-2.1,0.07,-21.7229,-46.6764,19.2661,1023.39
720266,0.35868,9.81827,-0.291726,1.4,-2.73,0.28,-21.4033,-45.9979,19.5616,1023.39
720272,0.368245,9.79436,-0.253467,1.54,-2.52,0.14,-20.6478,-43.4999,21.0393,1023.39
720278,0.387374,9.78001,-0.248685,2.1,-2.59,0.35,-21.1709,-46.1521,20.0197,1023.39
720284,0.320421,9.82783,-0.310856,1.68,-2.59,0.42,-21.6358,-47.7866,19.4139,1023.36
720290,0.363462,9.78001,-0.320421,1.54,-2.66,0,-21.0256,-43.9625,19.6651,1023.36
720296,0.37781,9.82783,-0.301291,1.89,-2.73,0.35,-21.229,-45.1961,19.606,1023.36
720302,0.37781,9.82783,-0.301291,1.82,-2.87,0.07,-22.0135,-47.91,18.7933,1023.36
720308,0.382592,9.84218,-0.325203,1.54,-2.31,0.21,-21.229,-44.4559,19.5025,1023.34
720314,0.373027,9.80392,-0.282162,1.68,-2.87,0.07,-20.6478,-44.2401,19.9902,1023.34
720320,0.406504,9.81349,-0.296509,1.47,-2.66,0.07,-21.1127,-47.139,19.7685,1023.34
720326,0.396939,9.82305,-0.315638,1.82,-2.59,-0.28,-21.4033,-45.6587,18.35,1023.37
720332,0.368245,9.82305,-0.282162,1.4,-2.45,0.14,-20.4444,-43.6233,20.5517,1023.37
720338,0.363462,9.85174,-0.282162,1.47,-2.73,-0.21,-20.8512,-46.1213,20.2709,1023.36
720344,0.35868,9.81349,-0.25825,1.47,-2.45,0.14,-21.229,-47.1082,18.9558,1023.36
720350,0.37781,9.80392,-0.272597,1.47,-2.87,0.56,-20.4444,-43.3149,20.6551,1023.35
720356,0.373027,9.79914,-0.253467,1.61,-3.08,-0.21,-21.0546,-44.6718,20.4039,1023.35
720362,0.392157,9.79914,-0.291726,1.47,-2.73,0.28,-22.1878,-47.6016,20.197,1023.37
720368,0.392157,9.80392,-0.277379,1.75,-2.59,0.49,-20.8222,-44.5176,20.2266,1023.37
720374,0.392157,9.78957,-0.291726,1.19,-2.66,-0.07,-20.4154,-44.0242,20.6994,1023.37
720380,0.396939,9.82305,-0.286944,1.96,-2.8,0.07,-21.4614,-47.0157,19.2809,1023.35
720386,0.382592,9.82305,-0.291726,1.89,-2.8,0.49,-21.1709,-45.7204,19.3104,1023.35
720392,0.406504,9.81349,-0.310856,1.68,-2.8,-0.14,-20.5316,-43.4382,20.8915,1023.35
720398,0.387374,9.84218,-0.301291,1.12,-2.66,-0.35,-20.5025,-46.2755,20.596,1023.35
720404,0.392157,9.82783,-0.306074,1.4,-2.52,0,-21.0837,-47.6633,19.0888,1023.39
720410,0.349115,9.8087,-0.277379,1.26,-2.8,-0.42,-21.1709,-43.3457,19.1331,1023.39
720416,0.349115,9.77523,-0.248685,1.54,-2.8,0.28,-20.7931,-44.8569,19.6503,1023.35
720422,0.35868,9.79436,-0.267814,1.68,-2.45,0.28,-20.9965,-46.6764,19.34,1023.35
720428,0.382592,9.81349,-0.306074,1.75,-2.17,-0.07,-20.5897,-44.2401,20.1675,1023.35
720434,0.35868,9.84218,-0.286944,1.47,-2.8,0.56,-19.8342,-44.2709,20.7733,1023.35
720440,0.392157,9.82783,-0.306074,1.4,-2.73,0.35,-21.4033,-46.9231,19.4139,1023.35
720446,0.35868,9.86131,-0.325203,1.54,-2.66,-0.07,-21.5486,-45.7512,19.8719,1023.35
720452,0.382592,9.81827,-0.329986,1.61,-2.87,0.42,-19.9505,-42.7906,21.5121,1023.35
720458,0.368245,9.84218,-0.315638,1.54,-2.31,0.35,-19.9505,-45.2578,20.197,1023.34
720464,0.368245,9.79914,-0.310856,1.33,-2.38,0.14,-20.9093,-45.9671,18.5273,1023.34
720470,0.387374,9.81827,-0.277379,1.12,-2.38,-0.21,-20.7641,-43.4074,20.4187,1023.33
720476,0.406504,9.82305,-0.296509,1.26,-2.73,0.14,-20.6188,-44.4559,20.4778,1023.33
720482,0.416069,9.81827,-0.286944,1.26,-2.45,-0.07,-20.7641,-48.2492,18.1136,1023.39
720488,0.396939,9.8087,-0.286944,1.12,-2.24,0.07,-20.3573,-44.4559,19.4286,1023.39
720494,0.401722,9.8087,-0.248685,1.19,-2.45,0,-20.1829,-42.9756,20.2118,1023.39
720500,0.33955,9.80392,-0.23912,1.68,-2.66,0.21,-21.4614,-47.324,19.1331,1023.37
720506,0.406504,9.82305,-0.263032,1.54,-2.38,-0.07,-21.4033,-44.6718,18.4534,1023.37
720512,0.387374,9.8087,-0.253467,1.68,-2.31,-0.14,-20.7931,-42.5747,19.9163,1023.35
720518,0.382592,9.79436,-0.263032,1.47,-2.24,0.49,-21.0837,-45.7821,20.6846,1023.35
720524,0.349115,9.82305,-0.282162,2.1,-3.15,-0.14,-21.1127,-46.2447,19.074,1023.34
720530,0.373027,9.81349,-0.277379,1.54,-2.73,-0.14,-20.6478,-42.4514,20.3448,1023.34
720536,0.373027,9.79436,-0.282162,1.61,-2.45,-0.14,-21.0546,-44.5793,20.0936,1023.36
720542,0.363462,9.79436,-0.277379,1.61,-2.45,0.21,-21.8973,-47.5399,18.5716,1023.36
720548,0.373027,9.80392,-0.325203,1.54,-2.38,0.49,-20.8512,-45.0419,19.0888,1023.36
720554,0.37781,9.84696,-0.286944,1.82,-2.73,0.28,-20.9965,-43.1915,19.8572,1023.37
720560,0.368245,9.81827,-0.282162,1.54,-2.73,0.28,-21.4905,-46.0288,20.5073,1023.37
720566,0.37781,9.81349,-0.325203,1.82,-3.01,-0.07,-20.8222,-45.597,19.9163,1023.36
720572,0.396939,9.85653,-0.325203,1.12,-2.52,0.07,-20.9675,-43.2224,19.473,1023.36
720578,0.373027,9.84218,-0.310856,1.33,-2.31,0.07,-20.8803,-45.6587,19.8424,1023.33
720584,0.392157,9.78479,-0.301291,1.12,-2.31,0.07,-21.1709,-47.3857,19.4434,1023.33
720590,0.392157,9.82783,-0.291726,1.26,-2.38,-0.35,-20.212,-43.1915,21.187,1023.34
720596,0.387374,9.82305,-0.306074,1.12,-1.61,0.28,-21.258,-44.7643,19.8719,1023.34
720602,0.382592,9.83261,-0.286944,1.33,-2.31,0,-21.6939,-46.954,19.8128,1023.34
720608,0.320421,9.8087,-0.25825,1.26,-2.17,0.14,-20.8803,-45.3195,19.9902,1023.34
720614,0.373027,9.81349,-0.272597,1.61,-2.17,-0.14,-20.735,-43.5616,20.1527,1023.34
720620,0.363462,9.79914,-0.25825,1.54,-2.52,0,-20.6188,-46.5839,20.197,1023.31
720626,0.368245,9.8087,-0.282162,1.33,-2.38,0.28,-20.735,-45.5045,19.6798,1023.31
720632,0.349115,9.80392,-0.277379,1.61,-2.52,0,-20.241,-42.7598,20.6108,1023.34
720638,0.368245,9.83261,-0.291726,1.68,-2.52,-0.07,-20.6188,-45.8746,20.7437,1023.34
720644,0.35868,9.83261,-0.272597,1.61,-2.38,0.49,-21.1418,-46.5839,20.1379,1023.37
720650,0.382592,9.81827,-0.310856,1.68,-2.31,0,-20.7641,-43.7158,20.9654,1023.37
720656,0.392157,9.78957,-0.310856,1.75,-2.45,0.14,-20.9965,-44.641,20.33,1023.36
720662,0.37781,9.82783,-0.301291,1.26,-2.31,0.49,-21.1709,-47.1082,20.3448,1023.36
720668,0.401722,9.8374,-0.334768,1.26,-2.38,0.49,-21.1127,-44.9185,19.6946,1023.36
720674,0.416069,9.85653,-0.334768,1.75,-2.73,0.49,-20.9384,-44.3326,18.9115,1023.37
720680,0.401722,9.84218,-0.315638,1.33,-2.52,0,-20.8512,-47.6016,19.1627,1023.37
720686,0.368245,9.8087,-0.315638,0.98,-2.38,-0.07,-21.4033,-45.1961,20.0493,1023.37
720692,0.334768,9.81827,-0.267814,1.26,-2.31,0.28,-20.0958,-43.0682,19.3252,1023.37
720698,0.396939,9.81349,-0.253467,1.19,-2.59,-0.35,-20.7059,-45.3811,19.6207,1023.35
720704,0.387374,9.82305,-0.272597,1.26,-2.87,-0.07,-20.5897,-46.6147,19.207,1023.35
720710,0.368245,9.82783,-0.291726,1.12,-2.1,0.35,-20.4735,-42.8523,19.5912,1023.35
720716,0.35868,9.79436,-0.263032,1.33,-1.89,0.63,-20.6478,-44.826,20.2561,1023.35
720722,0.33955,9.8087,-0.23912,1.47,-2.73,-0.07,-20.8512,-47.324,19.0149,1023.35
720728,0.37781,9.82783,-0.263032,1.96,-2.59,-0.14,-20.4444,-44.4251,18.6898,1023.38
720734,0.37781,9.80392,-0.301291,1.61,-1.96,0.14,-20.3573,-44.2709,21.1279,1023.38
720740,0.353898,9.84218,-0.296509,1.68,-2.45,0.63,-20.5607,-46.7689,18.7785,1023.34
720746,0.396939,9.84696,-0.267814,1.75,-2.73,0.49,-20.8803,-46.4605,19.3843,1023.34
720752,0.373027,9.81349,-0.291726,1.75,-2.66,0.07,-20.5897,-43.0065,20.0345,1023.39
720758,0.382592,9.84218,-0.315638,1.4,-2.38,0.28,-20.8803,-45.1961,18.4682,1023.39
720764,0.382592,9.84696,-0.315638,1.33,-2.24,0.42,-20.5897,-46.5222,19.3104,1023.39
720770,0.35868,9.82305,-0.306074,1.26,-2.59,0.49,-21.0256,-43.8083,19.4139,1023.39
720776,0.392157,9.81827,-0.306074,1.4,-2.66,0.21,-19.8342,-44.8877,19.9015,1023.39
720782,0.382592,9.80392,-0.301291,1.05,-2.45,0.42,-20.6478,-47.5708,18.3943,1023.37
720788,0.368245,9.82305,-0.291726,1.54,-2.24,0.21,-19.5146,-44.3634,19.1183,1023.37
720794,0.387374,9.78957,-0.286944,1.4,-2.66,0,-20.0376,-43.6541,20.596,1023.38
720800,0.373027,9.82783,-0.263032,1.82,-2.73,0.35,-20.4154,-46.4914,20.064,1023.38
720806,0.37781,9.8087,-0.272597,1.4,-2.45,0.21,-20.8512,-46.2138,19.1627,1023.34
720812,0.368245,9.84218,-0.25825,1.47,-2.94,-0.14,-19.7471,-42.6672,20.2709,1023.34
720818,0.392157,9.79914,-0.263032,1.82,-2.94,0.28,-20.7059,-45.9671,19.9754,1023.36
720824,0.387374,9.82305,-0.277379,1.75,-2.8,0.21,-20.7641,-47.139,18.6603,1023.36
720830,0.396939,9.78957,-0.25825,1.75,-2.59,0,-19.8052,-43.3457,19.2366,1023.36
720836,0.373027,9.82305,-0.296509,1.54,-2.87,0,-20.0086,-44.055,19.3991,1023.36
720842,0.368245,9.82783,-0.291726,1.68,-2.38,0.28,-21.6067,-47.8483,19.1922,1023.36
720848,0.401722,9.79914,-0.325203,1.89,-2.31,-0.07,-20.2991,-45.2269,19.7242,1023.36
720854,0.401722,9.83261,-0.301291,1.19,-2.52,0.21,-20.3282,-44.4559,19.8276,1023.36
720860,0.373027,9.84218,-0.296509,1.47,-2.38,0.35,-21.1709,-47.1698,19.0592,1023.38
720866,0.363462,9.84218,-0.277379,0.91,-2.24,-0.21,-20.7931,-46.3372,20.1231,1023.38
720872,0.353898,9.86131,-0.286944,1.33,-2.52,-0.35,-21.3742,-43.0373,19.8719,1023.39
720878,0.368245,9.85174,-0.267814,1.47,-2.59,-0.07,-20.8803,-45.8437,19.2661,1023.39
720884,0.35868,9.85174,-0.301291,1.54,-2.59,0.28,-21.5486,-46.8923,19.4139,1023.36
720890,0.387374,9.81827,-0.263032,1.68,-2.73,0,-21.258,-43.6233,19.34,1023.36
720896,0.392157,9.77044,-0.229555,1.68,-2.52,0.07,-20.3573,-44.3943,19.4434,1023.36
720902,0.37781,9.79436,-0.234338,1.96,-2.94,0.28,-20.8512,-47.6324,19.0445,1023.36
720908,0.382592,9.81349,-0.267814,2.1,-2.8,-0.21,-20.9965,-44.7952,19.2366,1023.36
720914,0.392157,9.84696,-0.296509,2.03,-2.59,0,-21.3161,-43.6541,19.9902,1023.39
720920,0.37781,9.8087,-0.272597,1.4,-2.52,0.14,-20.735,-47.4474,18.0249,1023.39
720926,0.35868,9.85653,-0.306074,1.68,-2.94,0.07,-21.229,-46.3372,17.9658,1023.36
720932,0.401722,9.8087,-0.344333,1.75,-2.94,0,-20.9384,-43.3457,19.0445,1023.36
720938,0.373027,9.82305,-0.310856,1.61,-3.01,-0.07,-20.9965,-46.2755,20.1675,1023.35
720944,0.392157,9.86131,-0.33955,1.61,-2.8,0,-20.8222,-47.2932,18.5125,1023.35
720950,0.411286,9.81349,-0.301291,1.33,-2.24,-0.28,-20.7641,-43.4074,19.9754,1023.35
720956,0.349115,9.78479,-0.282162,1.47,-2.59,-0.07,-20.3282,-44.4251,20.4482,1023.38
720962,0.363462,9.81827,-0.277379,1.4,-1.89,0.35,-21.5776,-47.4166,18.6898,1023.38
720968,0.387374,9.8087,-0.253467,1.47,-2.59,0,-21.0837,-44.4868,19.4139,1023.38
720974,0.382592,9.82305,-0.272597,1.82,-2.38,-0.42,-20.3573,-42.9756,21.1279,1023.38
720980,0.411286,9.81349,-0.263032,1.61,-2.31,0.14,-20.5607,-46.5531,18.4239,1023.35
720986,0.363462,9.81827,-0.263032,1.89,-2.52,-0.21,-21.1418,-47.0157,18.7194,1023.35
720992,0.37781,9.83261,-0.306074,1.61,-3.15,-0.07,-20.6188,-42.8831,19.8719,1023.36
720998,0.387374,9.79914,-0.306074,1.82,-2.73,0.07,-20.4444,-45.9671,19.2661,1023.36
721004,0.334768,9.82783,-0.282162,1.68,-2.45,-0.07,-21.4614,-47.5708,19.1183,1023.38
721010,0.387374,9.82305,-0.263032,1.47,-2.1,-0.07,-19.9214,-43.4691,19.1922,1023.38
721016,0.368245,9.81827,-0.301291,1.4,-2.52,-0.14,-19.7471,-44.4251,19.4286,1023.38
721022,0.35868,9.77523,-0.291726,1.61,-2.52,0.49,-20.3282,-47.4474,19.6946,1023.37
721028,0.387374,9.81349,-0.291726,1.19,-2.59,0,-20.6769,-44.6718,20.6994,1023.37
721034,0.401722,9.78479,-0.267814,1.75,-2.52,-0.28,-20.3863,-43.1607,20.6994,1023.36
721040,0.396939,9.84696,-0.329986,1.61,-3.08,0.35,-20.4154,-46.7073,20.0493,1023.36
721046,0.396939,9.82783,-0.277379,1.61,-2.45,0.42,-20.9384,-46.2138,19.0149,1023.36
721052,0.344333,9.79436,-0.282162,1.54,-2.1,-0.49,-20.0086,-43.284,19.3548,1023.36
721058,0.401722,9.79436,-0.267814,1.82,-2.87,0,-21.1999,-46.6147,19.8424,1023.33
721064,0.401722,9.85653,-0.306074,1.61,-2.38,0.63,-20.735,-46.6764,18.6307,1023.33
721070,0.373027,9.84696,-0.301291,1.19,-2.59,-0.07,-20.0667,-43.7466,19.9458,1023.33
721076,0.353898,9.78957,-0.286944,1.75,-2.45,17.5,-20.3282,-44.4559,20.5073,1023.35
721082,0.368245,9.79914,-0.282162,1.75,-2.59,0.07,-21.0546,-47.4166,17.7589,1023.35
721088,0.315638,9.8087,-0.267814,1.61,-2.94,-0.14,-20.735,-44.3018,19.2661,1023.37
721094,0.368245,9.8087,-0.286944,1.89,-2.8,0.28,-20.9093,-42.6672,19.5764,1023.37
721100,0.33955,9.84696,-0.301291,1.61,-2.31,0.7,-21.258,-46.5839,19.2661,1023.33
721106,0.401722,9.86131,-0.35868,1.61,-2.73,-0.42,-21.0837,-46.4914,19.0297,1023.33
721112,0.401722,9.8374,-0.310856,1.47,-2.38,0.14,-20.9093,-43.4074,20.9358,1023.37
721118,0.33955,9.81349,-0.301291,1.26,-2.73,0.49,-21.3452,-46.3989,19.4878,1023.37
721124,0.353898,9.82305,-0.25825,2.03,-3.29,-0.28,-22.1007,-48.5268,18.1283,1023.37
721130,0.373027,9.8087,-0.282162,1.61,-2.73,0.56,-20.4154,-43.4999,20.5221,1023.37
721136,0.373027,9.79914,-0.272597,1.12,-2.03,0.42,-20.9093,-43.6541,20.5369,1023.37
721142,0.37781,9.79914,-0.291726,2.03,-2.38,-0.21,-20.7931,-47.6324,19.739,1023.37
721148,0.373027,9.80392,-0.267814,1.68,-2.52,-0.07,-21.0256,-43.7466,20.3005,1023.37
721154,0.382592,9.83261,-0.310856,1.61,-2.59,-0.14,-20.6478,-43.9934,20.7881,1023.36
721160,0.392157,9.86131,-0.291726,1.61,-2.73,0.21,-21.8392,-46.9231,20.6994,1023.36
721166,0.392157,9.81827,-0.277379,1.61,-2.52,0.42,-21.4033,-46.1213,18.6012,1023.4
721172,0.411286,9.82783,-0.325203,1.82,-2.8,-0.21,-20.5025,-43.6233,20.3152,1023.4
721178,0.382592,9.78957,-0.296509,1.4,-2.73,-0.42,-21.5486,-45.2886,19.0001,1023.36
721184,0.368245,9.79914,-0.310856,1.61,-2.03,0.28,-21.1418,-46.5839,19.4139,1023.36
721190,0.310856,9.82783,-0.282162,1.47,-2.03,-0.14,-21.0546,-43.9625,20.2414,1023.36
721196,0.363462,9.81827,-0.267814,1.47,-2.45,0.28,-20.5897,-44.1476,19.4434,1023.38
721202,0.363462,9.79914,-0.282162,2.03,-2.59,0.28,-21.3452,-46.7998,20.2561,1023.38
721208,0.344333,9.85653,-0.277379,1.4,-2.66,0.35,-21.3161,-44.5793,20.4187,1023.36
721214,0.368245,9.79914,-0.277379,1.47,-2.24,0.14,-20.7641,-43.7775,19.9458,1023.36
721220,0.344333,9.81827,-0.325203,1.89,-2.59,0.35,-21.1999,-46.8615,19.8276,1023.33
721226,0.363462,9.80392,-0.277379,1.47,-2.87,-0.07,-20.8803,-45.9054,19.8424,1023.33
721232,0.387374,9.79914,-0.306074,1.12,-2.8,0.14,-20.2701,-43.1915,20.1379,1023.35
721238,0.37781,9.84696,-0.325203,1.05,-2.38,0.14,-21.1127,-45.597,20.0345,1023.35
721244,0.334768,9.78479,-0.263032,1.05,-2.52,0.14,-21.1127,-47.0773,20.1822,1023.35
721250,0.396939,9.80392,-0.267814,1.61,-2.59,0.21,-20.4735,-43.6541,20.596,1023.35
721256,0.392157,9.82305,-0.291726,1.26,-2.45,0.63,-21.1709,-45.1036,21.0541,1023.35
721262,0.363462,9.77523,-0.277379,1.68,-2.52,0.21,-21.4033,-47.7558,20.8029,1023.34
721268,0.368245,9.8374,-0.296509,1.75,-2.66,-0.28,-20.9093,-44.7027,19.931,1023.34
721274,0.37781,9.82783,-0.272597,1.33,-2.24,0.28,-20.735,-43.5308,20.8472,1023.35
721280,0.353898,9.79436,-0.277379,1.75,-2.73,0.14,-21.229,-46.2447,20.7733,1023.35
721286,0.396939,9.8374,-0.277379,1.75,-2.94,0.21,-20.9093,-46.3989,18.9115,1023.4
721292,0.382592,9.81349,-0.282162,1.89,-2.8,0.07,-20.5607,-42.4822,19.3843,1023.4
721298,0.387374,9.82305,-0.306074,1.19,-2.38,-0.14,-20.4154,-46.0905,20.2709,1023.4
721304,0.353898,9.78479,-0.263032,1.61,-2.52,0.21,-21.1999,-47.2624,19.2218,1023.35
721310,0.373027,9.81349,-0.272597,1.54,-2.59,0.28,-21.3742,-43.5924,20.197,1023.35
721316,0.344333,9.82783,-0.272597,1.61,-2.45,0.21,-21.6358,-44.3943,20.1231,1023.37
721322,0.37781,9.82305,-0.315638,1.54,-2.59,0.28,-21.781,-47.1698,19.2809,1023.37
721328,0.37781,9.84696,-0.306074,1.47,-2.52,0.14,-21.5486,-44.055,20.6699,1023.34
721334,0.349115,9.79436,-0.25825,1.4,-2.1,0.35,-21.1127,-42.7906,20.9654,1023.34
721340,0.368245,9.77044,-0.286944,1.54,-2.31,-0.42,-20.7641,-46.9231,18.7342,1023.34
721346,0.382592,9.79914,-0.282162,1.68,-2.59,0.42,-21.0546,-46.4297,19.0445,1023.34
721352,0.353898,9.80392,-0.267814,1.4,-2.45,-0.21,-20.6478,-43.3457,19.0445,1023.36
721358,0.382592,9.79914,-0.267814,1.61,-2.66,0.42,-20.5316,-46.1521,20.6255,1023.36
721364,0.363462,9.83261,-0.243902,1.89,-2.45,0.63,-21.1418,-47.5091,18.0397,1023.36
721370,0.363462,9.82783,-0.282162,1.54,-3.01,-0.35,-20.9965,-44.1476,19.5764,1023.34
721376,0.392157,9.81827,-0.296509,1.89,-2.66,0.14,-21.1418,-45.5353,20.3743,1023.34
721382,0.392157,9.79914,-0.296509,1.47,-2.17,0,-20.8222,-47.8483,19.9458,1023.33
721388,0.35868,9.83261,-0.315638,1.68,-2.45,0,-20.3863,-44.826,20.9063,1023.33
721394,0.33955,9.8087,-0.286944,1.68,-2.87,0.21,-20.8222,-43.4382,20.8029,1023.36
721400,0.373027,9.82305,-0.301291,1.54,-2.8,0,-20.9093,-47.324,20.4334,1023.36
721406,0.363462,9.84696,-0.286944,1.26,-2.45,0.07,-21.258,-45.7204,21.3644,1023.35
721412,0.37781,9.79914,-0.248685,1.47,-2.8,0.07,-20.6188,-42.8831,21.32,1023.35
721418,0.344333,9.79914,-0.282162,1.4,-2.31,0.28,-20.7931,-45.9054,20.7585,1023.35
721424,0.329986,9.83261,-0.272597,1.68,-2.52,0.28,-20.6769,-46.7689,19.1183,1023.37
721430,0.373027,9.81827,-0.277379,1.82,-2.73,0.28,-20.6188,-43.4691,19.4434,1023.37
721436,0.35868,9.81827,-0.291726,2.03,-2.59,0.28,-20.9965,-44.6101,21.3348,1023.37
721442,0.373027,9.81827,-0.310856,1.54,-2.52,0.21,-20.5025,-47.2932,19.2513,1023.37
721448,0.349115,9.84218,-0.272597,1.68,-2.8,0.91,-20.8512,-44.055,20.1822,1023.39
721454,0.35868,9.82305,-0.291726,1.54,-2.52,0.49,-20.0958,-43.0065,19.8719,1023.39
721460,0.396939,9.83261,-0.306074,1.47,-2.24,-0.21,-21.0256,-46.368,19.9902,1023.35
721466,0.406504,9.83261,-0.306074,1.12,-2.59,0.21,-20.9384,-46.2138,19.3104,1023.35
721472,0.416069,9.81349,-0.282162,1.61,-2.52,0.49,-20.8512,-42.8523,19.3548,1023.35
721478,0.392157,9.8374,-0.277379,1.54,-2.59,-0.07,-21.4614,-46.0905,18.7785,1023.35
721484,0.401722,9.76566,-0.23912,1.4,-2.31,0.14,-21.3161,-47.6941,18.0249,1023.35
721490,0.349115,9.86131,-0.25825,1.4,-2.03,-0.56,-20.7059,-43.9934,18.8376,1023.36
721496,0.392157,9.82783,-0.277379,1.54,-2.59,-0.42,-20.5316,-44.6718,19.3548,1023.36
721502,0.363462,9.79436,-0.243902,2.17,-2.73,-0.21,-20.8222,-47.6633,19.473,1023.36
721508,0.349115,9.78957,-0.21999,2.03,-2.87,-0.35,-20.9675,-44.9494,19.2218,1023.36
721514,0.382592,9.8374,-0.282162,1.96,-2.73,-0.56,-20.5025,-43.3766,21.0393,1023.34
721520,0.349115,9.80392,-0.315638,2.24,-2.94,0.42,-20.3282,-46.3063,20.8029,1023.34
721526,0.368245,9.84218,-0.306074,1.33,-2.59,-0.07,-20.8803,-46.7381,19.3104,1023.35
721532,0.35868,9.82783,-0.301291,1.89,-2.45,-0.14,-20.1539,-43.099,19.0149,1023.35
721538,0.35868,9.79914,-0.320421,1.26,-2.52,-0.49,-19.9795,-45.9363,20.9506,1023.35
721544,0.353898,9.78957,-0.306074,1.75,-2.59,0.63,-20.5025,-46.8615,18.8671,1023.37
721550,0.349115,9.83261,-0.315638,1.05,-2.94,-0.07,-20.3282,-44.0859,19.9606,1023.37
721556,0.382592,9.84218,-0.301291,1.47,-2.59,0.14,-20.735,-44.1476,20.0345,1023.35
721562,0.344333,9.79914,-0.291726,1.47,-3.01,0.28,-21.229,-47.2624,19.606,1023.35
721568,0.401722,9.84218,-0.315638,1.68,-2.73,0.21,-20.212,-45.5353,19.0001,1023.36
721574,0.392157,9.84218,-0.301291,1.26,-2.38,0.56,-20.3282,-43.6233,20.7733,1023.36
721580,0.382592,9.80392,-0.282162,1.4,-2.59,0.14,-20.1829,-46.7689,19.7685,1023.39
721586,0.387374,9.81349,-0.306074,1.12,-2.38,0,-20.8512,-46.3989,19.8867,1023.39
721592,0.382592,9.81349,-0.277379,1.05,-2.38,0.28,-20.5316,-42.7906,20.33,1023.39
721598,0.396939,9.8087,-0.282162,1.47,-2.52,-0.14,-20.9675,-46.0905,20.3005,1023.36
721604,0.334768,9.76566,-0.25825,1.75,-2.38,-0.14,-20.7641,-47.1698,19.207,1023.36
721610,0.344333,9.82305,-0.267814,1.54,-2.52,0,-20.2991,-43.9008,20.0788,1023.36
721616,0.373027,9.79436,-0.267814,1.61,-2.45,-0.49,-20.7641,-44.2401,19.5469,1023.36
721622,0.37781,9.83261,-0.263032,1.68,-2.59,0.42,-21.2871,-47.324,19.3548,1023.38
721628,0.315638,9.8087,-0.320421,1.89,-2.45,-0.07,-21.2871,-44.9802,20.0197,1023.38
721634,0.334768,9.8374,-0.291726,1.68,-2.87,0,-20.5897,-44.1167,19.5764,1023.37
721640,0.416069,9.84696,-0.282162,1.68,-3.01,0.28,-20.735,-46.6764,19.7981,1023.37
721646,0.368245,9.80392,-0.301291,1.75,-2.73,0.28,-20.3573,-45.9979,19.606,1023.37
721652,0.363462,9.82783,-0.310856,1.4,-2.8,0.21,-20.1539,-44.5485,19.9606,1023.36
721658,0.349115,9.8374,-0.33955,1.26,-2.66,0.42,-21.4905,-45.2269,21.0245,1023.36
721664,0.387374,9.83261,-0.282162,1.26,-2.73,0.28,-20.9384,-47.2007,18.8671,1023.37
721670,0.37781,9.81827,-0.267814,1.54,-2.94,0.42,-20.735,-44.0859,18.8228,1023.37
721676,0.382592,9.84696,-0.296509,1.54,-2.8,-0.14,-21.0256,-45.2578,20.2118,1023.34
721682,0.387374,9.81349,-0.315638,1.05,-2.1,0.21,-21.3452,-47.1698,19.2513,1023.34
721688,0.37781,9.78001,-0.310856,1.26,-2.38,0.07,-21.4324,-45.2578,19.8276,1023.37
721694,0.387374,9.79914,-0.301291,1.54,-2.59,0,-21.1127,-42.7906,21.0836,1023.37
721700,0.35868,9.86131,-0.33955,1.4,-2.52,0,-22.2169,-46.7998,19.5764,1023.36
721706,0.373027,9.78479,-0.301291,1.54,-2.52,-0.35,-20.241,-46.3063,18.6603,1023.36
721712,0.37781,9.82305,-0.23912,1.68,-2.73,0.21,-20.9675,-43.4074,20.3448,1023.36
721718,0.373027,9.80392,-0.320421,1.75,-2.45,-0.07,-21.0546,-45.4428,19.7094,1023.35
721724,0.37781,9.81349,-0.286944,1.33,-2.45,0,-21.8101,-47.2932,18.7637,1023.35
721730,0.373027,9.79914,-0.277379,1.54,-2.38,-0.14,-21.4033,-43.9317,19.2218,1023.34
721736,0.373027,9.77523,-0.234338,1.75,-2.8,0.28,-21.4614,-43.87,19.6798,1023.34
721742,0.344333,9.79436,-0.243902,1.89,-2.52,0.14,-21.6939,-47.7558,18.7637,1023.35
721748,0.344333,9.81827,-0.282162,1.75,-2.52,0.21,-20.5897,-45.9054,19.931,1023.35
721754,0.373027,9.78479,-0.272597,1.82,-2.66,0.35,-20.7931,-43.7775,20.2414,1023.35
721760,0.368245,9.81827,-0.272597,1.54,-2.45,0.42,-20.6769,-46.8306,19.1183,1023.35
721766,0.368245,9.83261,-0.296509,1.54,-2.59,0.07,-21.4033,-46.4297,18.4534,1023.35
721772,0.35868,9.81349,-0.320421,1.61,-2.31,0,-20.241,-43.2532,19.6503,1023.37
721778,0.382592,9.8087,-0.286944,1.61,-2.59,0.49,-20.5897,-45.2269,19.4139,1023.37
721784,0.373027,9.79436,-0.301291,1.82,-2.73,0.07,-21.7229,-46.6764,19.2661,1023.36
721790,0.382592,9.85174,-0.310856,1.89,-2.66,-0.14,-20.9384,-43.7158,18.9854,1023.36
721796,0.363462,9.83261,-0.329986,1.54,-2.52,0.14,-19.9505,-43.5308,19.2957,1023.36
721802,0.373027,9.8374,-0.310856,1.33,-2.52,-0.21,-21.0837,-47.725,18.6159,1023.36
721808,0.396939,9.82783,-0.325203,1.47,-2.73,-0.14,-20.6769,-45.3195,19.3843,1023.35
721814,0.392157,9.80392,-0.301291,1.33,-2.31,-0.21,-20.8512,-43.8083,21.2018,1023.35
721820,0.373027,9.80392,-0.277379,1.33,-2.31,0.56,-21.2871,-46.183,19.9606,1023.35
721826,0.37781,9.78479,-0.248685,1.19,-2.52,0.21,-20.735,-46.6764,18.9706,1023.34
721832,0.353898,9.75131,-0.234338,1.75,-2.38,-0.07,-20.6478,-43.0373,20.1379,1023.34
721838,0.363462,9.8087,-0.272597,1.68,-3.15,0.28,-20.5607,-45.5045,20.0788,1023.36
721844,0.35868,9.82783,-0.320421,1.19,-2.66,0.42,-20.7931,-47.5399,19.2809,1023.36
721850,0.344333,9.82783,-0.253467,1.89,-2.8,-0.28,-20.4154,-44.8877,20.2709,1023.36
721856,0.392157,9.81827,-0.291726,1.68,-2.45,0.49,-20.9675,-44.9185,21.4826,1023.36
721862,0.382592,9.78957,-0.282162,1.33,-2.38,0.56,-21.9844,-47.3857,19.2809,1023.36
721868,0.368245,9.85653,-0.306074,1.89,-2.59,0.28,-20.9384,-45.7512,20.4482,1023.36
721874,0.353898,9.79914,-0.291726,1.89,-2.94,0.14,-20.212,-43.9008,21.0245,1023.34
721880,0.382592,9.83261,-0.296509,1.61,-2.59,0.14,-21.1999,-46.6456,20.4778,1023.34
721886,0.33955,9.82783,-0.277379,1.61,-2.59,0.42,-21.0546,-46.1213,19.8867,1023.34
721892,0.392157,9.82783,-0.301291,1.47,-2.59,0.14,-20.4444,-42.8523,20.8472,1023.35
721898,0.396939,9.82783,-0.325203,1.75,-2.52,0.28,-20.241,-45.7512,19.9015,1023.35
721904,0.373027,9.84218,-0.296509,1.68,-2.38,0.07,-21.1999,-47.4782,19.0592,1023.37
721910,0.401722,9.84218,-0.277379,1.26,-2.45,-0.28,-21.5486,-44.5793,19.1036,1023.37
721916,0.33955,9.79914,-0.282162,1.89,-2.87,-0.42,-20.8803,-44.4868,20.5812,1023.36
721922,0.349115,9.84696,-0.296509,1.47,-2.87,0.35,-21.0837,-46.7381,19.8572,1023.36
721928,0.35868,9.84696,-0.267814,1.19,-2.03,0.42,-21.258,-45.412,20.1527,1023.32
721934,0.349115,9.81827,-0.277379,1.61,-2.66,-0.49,-20.6478,-43.1915,20.4039,1023.32
721940,0.363462,9.81827,-0.286944,1.82,-3.08,-0.07,-20.7641,-47.2624,20.5221,1023.32
721946,0.363462,9.82305,-0.334768,1.68,-2.52,0.14,-21.229,-45.9363,18.6159,1023.36
721952,0.349115,9.78479,-0.272597,1.54,-2.8,0.07,-20.3282,-43.2532,22.443,1023.36
721958,0.344333,9.80392,-0.282162,1.89,-2.52,0.28,-21.0256,-45.7204,20.8915,1023.33
721964,0.349115,9.80392,-0.272597,1.68,-2.66,-0.14,-20.2701,-46.4297,20.2414,1023.33
721970,0.35868,9.77523,-0.248685,1.54,-2.66,0.35,-20.735,-43.2224,19.1183,1023.35
721976,0.363462,9.80392,-0.25825,2.03,-2.66,0.28,-20.1248,-43.3766,21.3053,1023.35
721982,0.334768,9.82305,-0.267814,1.54,-2.87,-0.14,-21.0256,-47.5399,19.7242,1023.37
721988,0.406504,9.83261,-0.301291,1.68,-3.08,0.07,-21.0546,-45.0111,19.8719,1023.37
721994,0.363462,9.84696,-0.296509,1.19,-2.17,0.28,-20.5897,-43.2224,19.9754,1023.37
722000,0.344333,9.79436,-0.277379,1.47,-2.38,0.77,-20.8222,-46.6456,19.6355,1023.38
722006,0.411286,9.80392,-0.282162,1.47,-3.08,0.14,-21.229,-47.4474,19.4878,1023.38
722012,0.37781,9.8374,-0.306074,1.26,-2.87,-0.14,-21.0256,-43.4691,19.1627,1023.35
722018,0.396939,9.81827,-0.277379,1.4,-2.59,0.28,-20.4154,-45.9979,19.9754,1023.35
722024,0.392157,9.79436,-0.306074,1.12,-2.45,0,-21.6648,-47.6016,18.7194,1023.34
722030,0.349115,9.81827,-0.277379,1.26,-2.87,0.35,-20.3573,-44.5176,20.2709,1023.34
722036,0.353898,9.77523,-0.253467,1.61,-2.66,0,-20.1248,-44.2401,20.1231,1023.35
722042,0.353898,9.81827,-0.25825,1.54,-2.17,0.14,-20.7931,-47.8175,19.7685,1023.35
722048,0.392157,9.8087,-0.301291,1.68,-3.01,0,-20.6769,-45.7204,19.7537,1023.35
722054,0.334768,9.81349,-0.282162,1.61,-2.87,0,-20.2991,-44.0859,20.3448,1023.35
722060,0.349115,9.81827,-0.243902,1.54,-3.01,0.07,-21.2871,-46.9231,19.606,1023.35
722066,0.35868,9.79914,-0.301291,1.4,-2.24,0.56,-20.9965,-47.6633,18.8376,1023.36
722072,0.37781,9.82305,-0.267814,1.75,-2.59,0.07,-20.8222,-43.3766,19.8276,1023.36
722078,0.382592,9.81349,-0.277379,1.54,-2.73,-0.07,-20.0958,-46.2138,19.9754,1023.37
722084,0.363462,9.81349,-0.282162,1.54,-2.38,0.42,-21.5195,-47.6941,19.3104,1023.37
722090,0.387374,9.8087,-0.282162,1.61,-2.24,0.28,-20.9384,-43.685,21.2609,1023.36
722096,0.368245,9.8087,-0.263032,1.61,-2.38,0.7,-20.0958,-44.0242,18.9263,1023.36
722102,0.368245,9.79436,-0.282162,1.4,-2.59,0.49,-20.7931,-47.725,19.3104,1023.34
722108,0.373027,9.8087,-0.234338,1.68,-2.87,0,-21.258,-44.9802,19.6207,1023.34
722114,0.363462,9.8087,-0.286944,1.54,-2.52,0.35,-20.6769,-42.9448,20.4334,1023.34
722120,0.401722,9.81349,-0.286944,1.75,-2.73,0.14,-21.0837,-47.324,19.5173,1023.37
722126,0.368245,9.81349,-0.291726,1.96,-2.94,-0.14,-21.1418,-46.2138,19.4878,1023.37
722132,0.435198,9.82305,-0.291726,1.68,-2.8,-0.07,-20.9093,-43.3457,20.5517,1023.35
722138,0.406504,9.84696,-0.301291,1.12,-2.45,0.14,-20.5316,-45.7821,19.931,1023.35
722144,0.344333,9.8087,-0.277379,1.54,-2.59,0.07,-21.1999,-47.3549,18.9854,1023.35
722150,0.353898,9.8087,-0.277379,1.19,-2.66,0.14,-20.735,-44.5793,20.1379,1023.35
722156,0.401722,9.82305,-0.301291,1.54,-2.59,0,-20.5607,-44.4251,20.4482,1023.36
722162,0.35868,9.84218,-0.267814,1.68,-2.38,0.28,-20.735,-47.4474,19.2218,1023.36
722168,0.33955,9.81349,-0.267814,1.68,-2.45,0,-21.6648,-44.4251,19.0592,1023.36
722174,0.363462,9.81349,-0.267814,1.61,-2.24,0.21,-21.0256,-42.8831,20.2561,1023.36
722180,0.373027,9.81349,-0.253467,1.68,-2.24,0.42,-21.1418,-47.0465,20.4039,1023.36
722186,0.344333,9.8087,-0.277379,1.96,-2.24,0.42,-21.1709,-46.0905,19.3695,1023.37
722192,0.349115,9.81349,-0.277379,1.75,-2.45,0.21,-20.7641,-43.4074,20.197,1023.37
722198,0.392157,9.81827,-0.25825,1.61,-2.31,0.56,-20.7931,-45.412,19.7242,1023.34
722204,0.344333,9.82783,-0.282162,1.89,-2.8,0.35,-21.0546,-47.1698,19.0297,1023.34
722210,0.349115,9.82783,-0.296509,1.96,-2.87,0.28,-21.3161,-44.1476,20.4039,1023.38
722216,0.37781,9.78957,-0.277379,1.68,-2.38,0.35,-20.5025,-43.9934,20.6255,1023.38
722222,0.363462,9.8087,-0.272597,1.26,-2.66,0.35,-20.8222,-46.9231,19.5321,1023.38
722228,0.363462,9.80392,-0.286944,1.61,-2.52,0.49,-21.1999,-45.0111,19.7094,1023.38
722234,0.363462,9.81827,-0.272597,1.47,-2.66,0.35,-21.1709,-43.4999,19.6355,1023.38
722240,0.392157,9.82783,-0.306074,1.61,-2.94,0.07,-21.8101,-46.7381,19.7833,1023.35
722246,0.406504,9.8374,-0.315638,1.19,-2.59,0.14,-20.9965,-46.4297,19.6651,1023.35
722252,0.392157,9.82783,-0.325203,1.82,-2.31,0.21,-21.229,-43.3149,20.9358,1023.35
722258,0.373027,9.83261,-0.296509,1.12,-2.17,0.35,-21.4324,-45.3503,19.4139,1023.35
722264,0.353898,9.81349,-0.282162,1.33,-2.8,0.21,-21.8101,-47.5091,19.1331,1023.36
722270,0.363462,9.80392,-0.277379,1.4,-2.59,0.07,-21.3742,-44.055,20.596,1023.36
722276,0.387374,9.81349,-0.277379,1.54,-2.45,0.14,-21.0256,-43.7158,20.8767,1023.36
722282,0.392157,9.82783,-0.325203,1.47,-2.17,-0.14,-21.0837,-47.9717,19.2661,1023.36
722288,0.368245,9.81349,-0.248685,1.26,-2.1,0.28,-20.9965,-45.0727,19.34,1023.36
722294,0.33955,9.79436,-0.234338,1.61,-2.87,0,-20.5897,-43.7158,20.3152,1023.34
722300,0.344333,9.82305,-0.286944,1.75,-2.66,0.35,-21.4324,-46.9231,20.0936,1023.34
722306,0.382592,9.8087,-0.267814,1.54,-2.87,0.42,-21.1418,-46.1521,20.33,1023.37
722312,0.33955,9.81349,-0.277379,1.82,-2.52,0.56,-20.7931,-43.7158,20.3743,1023.37
722318,0.349115,9.78957,-0.282162,1.33,-2.66,0.28,-21.0256,-45.8746,19.1036,1023.36
722324,0.344333,9.81827,-0.282162,1.82,-2.59,0.63,-20.6478,-47.6016,19.2957,1023.36
722330,0.33955,9.80392,-0.286944,1.54,-2.52,0.63,-20.5316,-43.4074,19.4286,1023.34
722336,0.33955,9.78957,-0.243902,1.33,-2.38,0.63,-21.0546,-43.5616,20.1675,1023.34
722342,0.35868,9.8087,-0.306074,1.68,-2.38,0.7,-22.0426,-47.139,19.3991,1023.34
722348,0.35868,9.79436,-0.243902,2.1,-3.01,0.63,-21.0837,-44.6101,18.8228,1023.37
722354,0.392157,9.87087,-0.325203,1.96,-3.36,0.14,-21.3742,-43.1607,20.0197,1023.37
722360,0.363462,9.89479,-0.35868,0.98,-2.45,0.63,-20.5607,-46.183,19.6946,1023.35
722366,0.463893,9.6461,-0.162602,1.61,-1.33,0.56,-22.1588,-46.1521,19.3548,1023.35
722372,0.191296,9.72262,-0.0908656,2.8,-3.78,1.12,-20.6188,-43.1607,20.729,1023.32
722378,0.353898,9.80392,-0.272597,2.94,-3.64,1.19,-20.6769,-45.8129,20.4926,1023.32
722384,0.406504,9.88044,-0.368245,2.87,-2.87,1.19,-21.781,-47.0773,18.8967,1023.37
722390,0.349115,9.98565,-0.401722,1.89,-2.8,0.91,-22.1297,-44.7027,19.7242,1023.37
722396,0.444763,9.84218,-0.425634,1.61,-1.82,1.54,-20.9675,-44.9185,20.3152,1023.36
722402,0.286944,9.93783,-0.382592,0.28,-1.4,1.47,-21.0837,-47.2007,20.2118,1023.36
722408,0.310856,9.78479,-0.186514,1.12,-3.01,1.54,-21.4033,-45.5045,20.7733,1023.36
722414,0.416069,9.82783,-0.406504,1.4,-1.82,1.96,-20.6478,-42.7906,20.9063,1023.38
722420,0.200861,9.83261,-0.25825,0.7,-2.1,2.8,-21.1709,-46.5531,20.2118,1023.38
722426,0.286944,9.78001,-0.210426,1.47,-3.43,2.87,-21.3452,-45.5353,18.6751,1023.35
722432,0.454328,10.0143,-0.664754,1.33,-1.82,3.08,-20.5897,-43.1607,20.33,1023.35
722438,0.449546,10.1674,-0.612147,-1.54,-1.47,2.94,-21.229,-44.641,19.2957,1023.36
722444,0.373027,9.65088,-0.071736,-0.7,-0.49,3.15,-20.735,-47.6016,18.941,1023.36
722450,0.320421,9.63175,-0.0191296,0.21,-1.4,3.01,-20.735,-44.3943,20.3596,1023.35
722456,0.545194,9.93304,-0.286944,-0.21,-1.4,2.8,-21.0546,-44.7027,19.1775,1023.35
722462,0.588235,9.77044,-0.349115,-0.21,-0.28,3.01,-21.4033,-47.0773,19.5321,1023.35
722468,0.382592,9.71784,-0.172166,0.14,-1.33,2.1,-21.258,-45.412,18.6455,1023.37
722474,0.411286,9.77044,-0.181731,0.7,-1.61,1.89,-20.8803,-43.1298,20.8029,1023.37
722480,0.502152,9.87087,-0.267814,0.91,-1.47,1.61,-20.735,-46.0288,18.6603,1023.34
722486,0.516499,9.78001,-0.248685,0.84,-1.33,1.68,-21.1999,-46.5531,18.4239,1023.34
722492,0.492587,9.93304,-0.286944,0.84,-1.68,0.98,-21.4033,-43.2224,20.4778,1023.32
722498,0.454328,9.81827,-0.291726,0.56,-1.61,0.77,-20.1248,-45.2886,20.6255,1023.32
722504,0.463893,9.79436,-0.229555,1.33,-1.82,-0.14,-21.4033,-47.2315,19.207,1023.35
722510,0.483022,9.82783,-0.315638,0.91,-1.47,-0.42,-19.8342,-43.685,19.7242,1023.35
722516,0.425634,9.85653,-0.286944,0.42,-1.4,-0.07,-20.3573,-43.7775,20.1231,1023.35
722522,0.411286,9.71784,-0.243902,0.63,-2.03,-0.14,-21.1999,-47.1082,19.9163,1023.35
722528,0.420851,9.76088,-0.21999,1.89,-2.31,-0.42,-21.4905,-45.2578,18.9854,1023.35
722534,0.392157,9.84696,-0.210426,1.47,-2.38,-0.14,-21.1127,-43.4382,20.8472,1023.35
722540,0.435198,9.73218,-0.243902,1.33,-2.03,0.07,-21.1709,-46.7381,20.7437,1023.35
722546,0.401722,9.77044,-0.191296,1.75,-2.17,-0.21,-21.2871,-46.4914,19.4434,1023.34
722552,0.387374,9.7274,-0.157819,1.68,-2.52,-0.7,-21.2871,-43.2532,20.0936,1023.34
722558,0.435198,9.78479,-0.21999,2.38,-2.73,-0.42,-21.3161,-45.412,20.862,1023.36
722564,0.382592,9.82305,-0.267814,2.1,-2.8,-0.14,-21.3452,-47.4782,18.217,1023.36
722570,0.449546,9.81827,-0.301291,2.17,-3.57,-0.56,-20.8222,-43.9008,19.4878,1023.34
722576,0.435198,9.80392,-0.263032,1.82,-3.71,-0.91,-20.8803,-42.7906,21.1132,1023.34
722582,0.650406,9.83261,-0.349115,1.82,-1.89,-1.12,-21.1709,-47.4166,18.3943,1023.34
722588,0.334768,9.70349,-0.124342,2.8,-3.29,-1.05,-20.8222,-45.0111,18.8819,1023.33
722594,0.430416,9.7561,-0.23912,2.52,-4.06,-1.4,-21.0546,-43.4691,19.6798,1023.33
722600,0.454328,9.74653,-0.253467,2.73,-3.57,-1.75,-20.7641,-45.9363,19.2513,1023.32
722606,0.37781,9.84696,-0.329986,2.38,-3.99,-1.47,-21.3161,-46.5531,18.5716,1023.32
722612,0.416069,9.82305,-0.286944,2.87,-4.2,-1.54,-21.0837,-43.3457,19.6503,1023.35
722618,0.387374,9.8087,-0.272597,2.45,-3.22,-1.82,-21.3161,-45.3195,20.0936,1023.35
722624,0.373027,9.8374,-0.301291,2.45,-4.2,-2.03,-20.7641,-47.139,18.7933,1023.34
722630,0.382592,9.85174,-0.320421,2.17,-3.64,-1.75,-20.7931,-44.1784,19.1775,1023.34
722636,0.315638,9.8374,-0.325203,2.24,-3.99,-1.4,-20.5607,-43.6233,18.5273,1023.34
722642,0.325203,9.84696,-0.306074,2.24,-4.2,-0.98,-21.229,-47.6633,18.6159,1023.38
722648,0.382592,9.88044,-0.353898,1.68,-3.57,-1.05,-21.258,-46.3372,18.8228,1023.38
722654,0.35868,9.86609,-0.349115,1.96,-3.57,-1.05,-20.5316,-42.6981,20.9802,1023.35
722660,0.387374,9.8374,-0.33955,1.33,-3.01,-0.28,-20.9384,-46.368,19.5321,1023.35
722666,0.325203,9.79436,-0.296509,1.82,-3.08,-0.56,-21.229,-46.8923,19.6503,1023.36
722672,0.329986,9.81827,-0.243902,1.47,-3.5,-0.77,-20.735,-42.2046,19.8572,1023.36
722678,0.392157,9.82305,-0.267814,1.61,-3.22,0.35,-20.2701,-45.7204,20.8029,1023.36
722684,0.449546,9.82305,-0.296509,1.54,-2.73,0,-21.1709,-47.2624,18.941,1023.36
722690,0.425634,9.82783,-0.329986,1.33,-2.59,-0.7,-20.3573,-44.6718,19.9458,1023.36
722696,0.430416,9.84696,-0.325203,1.19,-2.59,-0.63,-20.6188,-43.0373,20.0493,1023.34
722702,0.420851,9.85174,-0.277379,1.68,-2.73,-0.63,-21.0837,-47.139,20.064,1023.34
722708,0.425634,9.86609,-0.349115,1.19,-2.73,-0.28,-21.0256,-44.7027,19.6503,1023.36
722714,0.401722,9.8374,-0.306074,1.47,-2.8,-0.63,-20.7931,-43.284,20.2414,1023.36
722720,0.368245,9.84218,-0.286944,0.98,-2.52,-0.35,-21.1709,-47.2007,20.1822,1023.37
722726,0.382592,9.8087,-0.277379,1.19,-2.87,-0.98,-21.6358,-47.5091,19.1331,1023.37
722732,0.406504,9.81349,-0.272597,1.33,-2.87,-0.84,-20.8803,-43.7775,20.6255,1023.38
722738,0.306074,9.82305,-0.23912,1.4,-2.87,-0.42,-20.4444,-45.5662,19.5173,1023.38
722744,0.368245,9.81349,-0.243902,1.68,-2.8,-0.42,-21.258,-46.9848,19.739,1023.38
722750,0.349115,9.78001,-0.272597,1.61,-2.8,-0.77,-21.4614,-44.2092,19.2957,1023.36
722756,0.334768,9.79436,-0.253467,1.54,-2.94,-0.14,-21.3161,-43.4691,19.9606,1023.36
722762,0.344333,9.76566,-0.248685,1.96,-3.22,17.85,-21.0256,-47.139,19.3252,1023.35
722768,0.368245,9.82305,-0.296509,1.61,-3.15,0.35,-20.9093,-46.1213,19.074,1023.35
722774,0.411286,9.80392,-0.296509,1.82,-2.45,-0.14,-20.1539,-43.0373,20.0197,1023.37
722780,0.35868,9.79914,-0.267814,1.89,-2.94,0.21,-20.6478,-46.954,20.3448,1023.37
722786,0.363462,9.81349,-0.263032,1.68,-2.87,0.07,-19.9795,-46.9848,18.3943,1023.37
722792,0.387374,9.79436,-0.291726,1.89,-2.8,-0.14,-20.8512,-43.5308,19.8424,1023.37
722798,0.392157,9.79914,-0.282162,1.68,-2.73,-0.21,-19.9505,-45.1961,19.9754,1023.37
722804,0.439981,9.82783,-0.344333,1.54,-2.66,-0.14,-20.6188,-47.8175,17.9362,1023.37
722810,0.439981,9.85653,-0.33955,1.75,-2.52,-0.49,-21.1418,-44.4868,18.8671,1023.37
722816,0.368245,9.83261,-0.310856,1.47,-2.45,-0.91,-20.0958,-44.5176,20.6846,1023.34
722822,0.33955,9.81827,-0.296509,1.61,-2.87,-0.49,-20.1539,-47.8483,19.6207,1023.34
722828,0.349115,9.8374,-0.301291,1.33,-2.94,-0.28,-20.9384,-45.7204,19.8867,1023.36
722834,0.382592,9.8374,-0.296509,1.47,-2.8,-0.07,-20.5607,-44.0242,21.1427,1023.36
722840,0.363462,9.8087,-0.301291,1.47,-2.52,-0.14,-20.8512,-46.3989,18.5421,1023.35
722846,0.334768,9.81349,-0.25825,1.47,-2.66,-0.56,-20.5607,-47.139,19.0001,1023.35
722852,0.363462,9.8087,-0.301291,1.4,-2.87,-0.14,-20.1539,-42.6672,20.5221,1023.34
722858,0.382592,9.79436,-0.310856,1.61,-2.52,0,-21.1709,-45.9979,19.8128,1023.34
722864,0.349115,9.8087,-0.272597,1.68,-2.1,-0.56,-21.5486,-47.6324,20.4482,1023.34
722870,0.344333,9.81349,-0.248685,1.12,-2.31,-0.14,-20.8512,-44.055,18.6603,1023.35
722876,0.368245,9.84218,-0.272597,1.54,-2.31,0.14,-19.9505,-43.5924,19.739,1023.35
722882,0.35868,9.84218,-0.306074,1.4,-2.17,0.21,-21.0837,-47.3549,19.6207,1023.35
722888,0.373027,9.84696,-0.310856,0.84,-2.73,0.14,-20.8512,-45.5353,19.739,1023.35
722894,0.430416,9.73218,-0.224773,1.26,-1.82,0.28,-20.735,-42.6672,19.9754,1023.34
722900,0.320421,9.74653,-0.124342,1.61,-2.45,0.49,-20.8512,-47.5399,19.9902,1023.34
722906,0.37781,9.8087,-0.263032,2.38,-2.52,0.07,-21.1999,-46.9231,19.7981,1023.34
722912,0.416069,9.8374,-0.310856,1.89,-2.87,0.21,-20.4735,-43.4074,19.8572,1023.34
722918,0.439981,9.9187,-0.37781,1.54,-2.31,-0.21,-20.5316,-45.3195,20.2857,1023.34
722924,0.373027,9.8374,-0.277379,1.47,-2.17,-0.35,-20.8803,-47.9717,19.1331,1023.37
722930,0.35868,9.83261,-0.263032,1.61,-2.38,-0.35,-20.4735,-43.9625,19.5469,1023.37
722936,0.406504,9.82783,-0.310856,1.75,-2.17,-0.35,-20.9093,-44.2401,19.8867,1023.37
722942,0.387374,9.79914,-0.306074,1.68,-2.1,-0.35,-20.9965,-46.9231,18.8228,1023.37
722948,0.349115,9.8087,-0.267814,1.26,-1.89,-0.42,-21.4614,-45.8129,18.35,1023.37
722954,0.35868,9.81349,-0.272597,1.75,-2.1,-0.35,-19.8052,-43.3457,19.8424,1023.37
722960,0.33955,9.80392,-0.25825,1.47,-2.31,-0.42,-20.6769,-46.2447,20.6994,1023.36
722966,0.334768,9.84218,-0.286944,1.68,-2.31,-0.42,-21.5486,-47.4474,18.9854,1023.36
722972,0.349115,9.80392,-0.282162,1.68,-2.52,-0.21,-20.6478,-43.5308,19.4878,1023.33
722978,0.315638,9.82305,-0.267814,1.26,-2.31,0.35,-21.3161,-45.2269,18.7933,1023.33
722984,0.334768,9.82305,-0.277379,2.1,-2.38,-0.07,-20.8222,-46.9848,19.5321,1023.33
722990,0.353898,9.81349,-0.267814,1.54,-2.31,-0.77,-20.7641,-44.641,19.4139,1023.35
722996,0.344333,9.81827,-0.286944,1.68,-2.38,0.07,-20.4735,-44.3018,20.2118,1023.35
723002,0.353898,9.82783,-0.263032,1.75,-2.59,0.21,-20.4444,-46.4297,20.0197,1023.32
723008,0.349115,9.82783,-0.291726,2.1,-2.94,-0.21,-21.229,-46.0596,19.1036,1023.32
723014,0.37781,9.83261,-0.310856,1.4,-2.45,-0.07,-20.3573,-43.1915,20.1675,1023.37
723020,0.353898,9.81349,-0.253467,1.75,-2.31,-0.63,-20.8803,-46.183,20.1675,1023.37
723026,0.353898,9.78479,-0.272597,1.96,-2.45,-0.07,-20.5025,-46.7073,19.074,1023.37
723032,0.382592,9.82783,-0.263032,1.75,-2.24,-0.28,-20.6188,-43.685,20.2266,1023.37
723038,0.368245,9.82305,-0.286944,1.89,-2.59,-0.14,-19.9214,-44.9494,20.064,1023.37
723044,0.368245,9.81349,-0.310856,1.54,-2.31,-0.21,-20.9965,-46.7998,18.1579,1023.33
723050,0.33955,9.81349,-0.272597,1.47,-2.87,-0.21,-20.735,-43.4999,20.463,1023.33
723056,0.368245,9.79436,-0.263032,1.54,-2.31,0.14,-20.8803,-43.5616,19.5321,1023.34
723062,0.37781,9.8087,-0.277379,1.68,-2.59,0.14,-20.5897,-46.5531,19.4434,1023.34
723068,0.37781,9.84696,-0.296509,1.4,-2.1,-0.28,-22.1297,-45.6279,18.4091,1023.37
723074,0.363462,9.81349,-0.272597,1.47,-2.45,-0.21,-20.7641,-42.914,20.1675,1023.37
723080,0.33955,9.84696,-0.277379,1.33,-2.73,0,-21.0256,-46.2138,20.0493,1023.37
723086,0.353898,9.80392,-0.310856,1.61,-3.01,0,-21.1127,-46.7073,19.0445,1023.37
723092,0.349115,9.82305,-0.301291,1.47,-2.66,-0.07,-20.9093,-42.6364,19.8867,1023.37
723098,0.329986,9.79436,-0.296509,1.61,-2.31,0.14,-21.1709,-44.9185,19.2366,1023.32
723104,0.35868,9.81349,-0.267814,1.54,-2.73,0.07,-21.1418,-47.9717,18.8819,1023.32
723110,0.33955,9.81827,-0.272597,1.47,-2.45,0.42,-20.6188,-44.5793,18.4534,1023.34
723116,0.334768,9.81349,-0.263032,1.19,-2.94,0.07,-20.2991,-43.0682,20.4778,1023.34
723122,0.349115,9.81827,-0.25825,1.68,-2.59,0.28,-20.3573,-46.5531,18.4977,1023.37
723128,0.416069,9.82305,-0.291726,1.4,-2.8,0.35,-21.229,-45.2886,18.6012,1023.37
723134,0.406504,9.8374,-0.329986,1.47,-2.31,0.07,-20.6188,-43.4999,19.4582,1023.33
723140,0.344333,9.79914,-0.286944,0.98,-2.38,-0.07,-20.3282,-45.1653,20.0493,1023.33
723146,0.33955,9.82783,-0.286944,1.68,-2.59,-0.14,-20.735,-46.4297,18.217,1023.32
723152,0.35868,9.81349,-0.296509,1.82,-3.15,0.07,-20.212,-43.4999,19.5912,1023.32
723158,0.368245,9.81349,-0.282162,1.82,-2.87,-0.28,-20.5316,-45.412,20.3448,1023.32
723164,0.368245,9.82783,-0.272597,1.47,-2.38,-0.28,-20.9965,-47.7558,19.3252,1023.37
723170,0.344333,9.8374,-0.277379,1.47,-2.94,-0.14,-21.2871,-44.5793,19.1627,1023.37
723176,0.35868,9.81827,-0.301291,1.47,-2.87,0,-20.0376,-43.685,21.0393,1023.36
723182,0.325203,9.80392,-0.282162,1.75,-2.45,0,-20.7641,-46.0288,19.606,1023.36
723188,0.329986,9.81827,-0.282162,1.96,-2.66,0.21,-20.4735,-45.0111,19.7537,1023.37
723194,0.373027,9.8374,-0.301291,1.12,-2.45,0.42,-20.3573,-42.6672,19.8719,1023.37
723200,0.382592,9.80392,-0.301291,1.68,-2.66,0,-20.4444,-46.6147,19.9458,1023.36
723206,0.353898,9.81349,-0.272597,1.4,-2.59,0.28,-20.9965,-46.183,19.4582,1023.36
723212,0.33955,9.85174,-0.315638,1.47,-2.03,0.14,-20.2991,-42.6981,21.1575,1023.36
723218,0.353898,9.82783,-0.301291,1.68,-2.38,0.14,-20.6188,-44.4868,20.9949,1023.38
723224,0.382592,9.83261,-0.286944,1.61,-2.45,0.42,-20.8512,-47.1082,18.8228,1023.38
723230,0.373027,9.80392,-0.25825,1.82,-2.45,0.28,-20.7931,-43.87,20.2414,1023.38
723236,0.353898,9.79436,-0.286944,1.47,-2.24,0.14,-19.718,-43.7466,20.9949,1023.38
723242,0.392157,9.83261,-0.263032,1.54,-2.45,0,-20.3282,-46.0905,19.5173,1023.32
723248,0.406504,9.78479,-0.263032,1.33,-2.31,-0.14,-20.9384,-45.3811,20.1675,1023.32
723254,0.392157,9.80392,-0.306074,1.96,-2.73,-0.14,-20.0376,-42.4514,20.862,1023.37
723260,0.449546,9.90913,-0.325203,1.26,-2.24,-0.07,-20.7059,-45.8746,20.4778,1023.37
723266,0.373027,9.8374,-0.320421,1.05,-2.17,-0.42,-20.8512,-46.2447,19.5025,1023.37
723272,0.291726,9.78957,-0.282162,1.26,-2.45,-0.35,-20.3863,-42.8523,21.3348,1023.34
723278,0.320421,9.78479,-0.286944,1.68,-2.73,-0.35,-20.1539,-44.7027,20.6255,1023.34
723284,0.35868,9.79914,-0.277379,1.4,-2.94,0.07,-20.0376,-47.725,19.4878,1023.33
723290,0.363462,9.8087,-0.315638,1.96,-2.73,-0.14,-20.212,-44.1167,20.1231,1023.33
723296,0.368245,9.8087,-0.310856,1.89,-2.24,-0.42,-20.3863,-43.9934,19.9458,1023.38
723302,0.344333,9.85174,-0.329986,1.47,-2.31,-0.14,-20.7059,-46.8923,20.3743,1023.38
723308,0.344333,9.82783,-0.310856,1.26,-2.17,-0.21,-20.735,-45.412,18.9263,1023.37
723314,0.35868,9.82305,-0.329986,1.89,-2.31,-0.07,-19.9505,-42.328,19.8276,1023.37
723320,0.349115,9.8374,-0.296509,1.47,-2.38,0.07,-20.4154,-45.9363,19.6207,1023.34
723326,0.353898,9.81349,-0.291726,1.47,-2.59,0,-21.1127,-46.183,18.3795,1023.34
723332,0.310856,9.78957,-0.263032,1.54,-2.38,-0.07,-19.689,-43.6233,19.4139,1023.34
723338,0.363462,9.74653,-0.172166,1.47,-2.24,0,-20.7059,-43.8083,19.7685,1023.35
723344,0.325203,9.71305,-0.23912,2.17,-2.52,-0.07,-21.6939,-47.0465,19.2661,1023.35
723350,0.392157,10.0383,-0.47824,1.4,-3.01,-0.49,-20.9965,-44.3018,19.4582,1023.35
723356,0.521282,9.85174,-0.439981,0.7,-2.1,-0.56,-19.6308,-42.914,21.2314,1023.35
723362,0.291726,9.75131,-0.191296,1.82,-1.96,-0.07,-20.9093,-46.7381,18.941,1023.35
723368,0.301291,9.77523,-0.234338,2.24,-2.59,-0.49,-21.0546,-45.6279,18.2465,1023.35
723374,0.368245,9.8087,-0.286944,1.82,-2.24,-0.49,-20.4444,-42.6672,19.2513,1023.35
723380,0.310856,9.8374,-0.286944,2.17,-2.59,-0.14,-20.7059,-45.597,20.0197,1023.35
723386,0.306074,9.84218,-0.315638,1.82,-2.66,-0.42,-20.1829,-46.4297,19.207,1023.35
723392,0.329986,9.78957,-0.277379,1.75,-2.66,0,-20.0086,-42.8523,20.1822,1023.34
723398,0.301291,9.82305,-0.291726,1.82,-2.59,-0.07,-20.241,-43.9317,19.5616,1023.34
723404,0.33955,9.81349,-0.296509,1.75,-2.66,-0.14,-20.5607,-46.954,19.2809,1023.35
723410,0.306074,9.8087,-0.301291,1.61,-2.73,-0.14,-20.3573,-45.1344,20.7585,1023.35
723416,0.306074,9.79914,-0.301291,1.47,-2.24,0.49,-19.9505,-43.9008,20.3743,1023.35
723422,0.325203,9.80392,-0.301291,1.68,-2.73,0,-21.3161,-47.8483,18.3943,1023.35
723428,0.33955,9.82305,-0.310856,1.61,-3.15,0.07,-20.3863,-45.8129,19.739,1023.33
723434,0.363462,9.85174,-0.291726,1.4,-2.87,-0.28,-20.1829,-43.4382,19.5469,1023.33
723440,0.334768,9.8374,-0.329986,1.05,-2.52,-0.28,-20.6769,-46.9848,19.0001,1023.33
723446,0.344333,9.82305,-0.325203,1.33,-2.1,0.14,-21.3452,-46.5222,19.8424,1023.4
723452,0.363462,9.84696,-0.325203,0.91,-3.01,0.35,-20.1248,-42.914,20.729,1023.4
723458,0.401722,9.82783,-0.315638,1.05,-2.45,-0.28,-20.0667,-44.3018,20.5073,1023.35
723464,0.329986,9.82305,-0.301291,0.98,-2.59,-0.42,-21.0546,-47.4782,19.0888,1023.35
723470,0.349115,9.84696,-0.253467,1.26,-2.66,0.07,-21.0546,-44.1784,19.6946,1023.35
723476,0.315638,9.78479,-0.267814,1.26,-2.87,0,-20.0376,-43.5924,20.4039,1023.35
723482,0.329986,9.82305,-0.277379,0.91,-2.52,0.14,-20.6188,-46.7689,19.6798,1023.35
723488,0.353898,9.77523,-0.25825,1.26,-2.87,-0.07,-20.3863,-45.597,19.2957,1023.35
723494,0.329986,9.78957,-0.229555,1.26,-2.94,0.28,-21.0256,-43.1915,21.0984,1023.36
723500,0.320421,9.78479,-0.253467,1.26,-2.73,0.21,-20.6769,-46.2447,19.8276,1023.36
723506,0.353898,9.79914,-0.282162,1.61,-2.52,0.14,-21.1999,-47.139,20.1084,1023.36
723512,0.301291,9.82305,-0.291726,1.4,-2.87,0.07,-20.212,-43.4074,20.4187,1023.35
723518,0.310856,9.79436,-0.277379,1.54,-2.8,0.07,-20.2991,-44.3326,20.1527,1023.35
723524,0.363462,9.84218,-0.306074,1.61,-2.87,0.28,-20.8803,-47.2624,18.7933,1023.35
723530,0.353898,9.85174,-0.334768,0.84,-2.45,0.28,-20.5316,-44.2092,20.1379,1023.35
723536,0.387374,9.8374,-0.310856,1.12,-2.59,0.28,-20.1829,-43.685,20.2118,1023.35
723542,0.368245,9.82783,-0.325203,1.26,-2.59,0.21,-20.6478,-47.2624,18.5568,1023.35
723548,0.329986,9.82305,-0.263032,1.33,-2.66,-0.14,-20.9384,-46.2755,18.4091,1023.35
723554,0.363462,9.8374,-0.315638,0.84,-2.66,0.56,-19.8633,-43.4074,20.7733,1023.35
723560,0.373027,9.83261,-0.286944,1.4,-2.73,0.42,-20.2991,-45.9979,20.4482,1023.35
723566,0.329986,9.85653,-0.286944,0.98,-2.94,0,-21.8101,-47.324,19.4582,1023.31
723572,0.310856,9.79436,-0.277379,1.05,-1.89,0.21,-20.7059,-43.0065,19.8128,1023.31
723578,0.353898,9.77523,-0.248685,0.98,-2.52,0.21,-20.7931,-45.1961,20.6699,1023.36
723584,0.353898,9.81827,-0.286944,1.33,-2.73,0.7,-21.8101,-47.8792,19.8128,1023.36
723590,0.320421,9.81349,-0.301291,1.4,-2.38,-0.14,-20.8803,-44.7335,20.5812,1023.36
723596,0.329986,9.81349,-0.267814,1.19,-2.38,-0.21,-20.5897,-43.8392,21.7338,1023.36
723602,0.33955,9.78001,-0.263032,1.33,-2.45,0.63,-20.9093,-47.5091,19.7981,1023.38
723608,0.325203,9.78957,-0.248685,1.4,-2.66,0.84,-21.3742,-46.1521,18.7342,1023.38
723614,0.353898,9.79914,-0.272597,0.98,-2.52,0.42,-20.5897,-43.2224,20.5517,1023.38
723620,0.363462,9.82783,-0.272597,1.4,-2.52,0.28,-20.6769,-47.139,19.3252,1023.37
723626,0.37781,9.82305,-0.263032,1.68,-2.31,0.28,-21.0837,-47.3857,19.6798,1023.37
723632,0.310856,9.8374,-0.243902,1.68,-2.8,0.07,-20.2701,-44.1476,20.7881,1023.35
723638,0.382592,9.82305,-0.325203,1.82,-2.52,0.14,-20.1248,-44.3018,20.5812,1023.35
723644,0.382592,9.87566,-0.329986,1.33,-2.66,0.56,-20.9675,-46.6764,18.6898,1023.39
723650,0.382592,9.85653,-0.315638,1.12,-2.52,0,-20.9093,-44.7643,20.6551,1023.39
723656,0.320421,9.79436,-0.296509,1.12,-2.66,0,-20.0086,-44.4868,20.4187,1023.37
723662,0.353898,9.82783,-0.296509,1.12,-2.8,0.28,-21.2871,-46.7073,19.473,1023.37
723668,0.35868,9.79436,-0.253467,0.98,-2.38,0.63,-20.9093,-45.6279,18.4091,1023.31
723674,0.349115,9.81827,-0.272597,1.19,-2.45,0.49,-20.6188,-43.1915,19.4434,1023.31
723680,0.306074,9.82305,-0.301291,1.4,-2.59,0.28,-20.5316,-45.7821,19.074,1023.31
723686,0.349115,9.84218,-0.291726,1.05,-2.24,0.21,-21.1127,-48.3109,17.5964,1023.36
723692,0.33955,9.82783,-0.267814,1.33,-2.31,0.63,-20.4444,-43.2532,20.1231,1023.36
723698,0.349115,9.83261,-0.296509,1.12,-2.45,0.21,-20.2991,-44.4868,20.3005,1023.33
723704,0.325203,9.78957,-0.282162,0.91,-2.31,0.7,-21.3452,-46.9848,18.9115,1023.33
723710,0.329986,9.76088,-0.248685,0.84,-2.8,0.28,-20.6478,-44.3018,19.5025,1023.34
723716,0.301291,9.77044,-0.23912,1.33,-2.59,0.49,-19.7471,-44.6101,20.0788,1023.34
723722,0.344333,9.78001,-0.248685,1.26,-2.87,0.7,-20.6769,-47.5708,19.6798,1023.34
723728,0.329986,9.78479,-0.243902,1.47,-2.66,0.28,-20.9384,-46.5839,19.4434,1023.34
723734,0.334768,9.84218,-0.267814,1.61,-2.8,0.63,-20.3863,-43.3457,20.8176,1023.34
723740,0.349115,9.8087,-0.277379,1.33,-2.66,0.77,-19.8052,-46.5531,20.4482,1023.32
723746,0.363462,9.82783,-0.306074,1.26,-2.8,0.7,-20.5316,-47.7558,19.1627,1023.32
723752,0.373027,9.84218,-0.263032,1.05,-2.38,0.56,-20.5897,-44.2401,20.2266,1023.38
723758,0.349115,9.82783,-0.263032,1.33,-2.45,0.84,-20.6769,-45.6587,20.4039,1023.38
723764,0.363462,9.82783,-0.267814,1.33,-2.73,0.77,-20.6188,-48.095,19.1775,1023.37
723770,0.368245,9.79436,-0.291726,1.47,-2.73,0.35,-20.8512,-44.0242,19.7242,1023.37
723776,0.35868,9.80392,-0.267814,1.47,-2.59,0.42,-20.5316,-43.6541,21.6156,1023.36
723782,0.334768,9.8087,-0.272597,1.68,-2.66,0.28,-20.9675,-47.139,18.9115,1023.36
723788,0.349115,9.78957,-0.25825,1.68,-2.52,1.26,-20.9675,-46.183,18.7194,1023.36
723794,0.35868,9.77044,-0.267814,1.61,-2.31,0.63,-20.9093,-42.914,20.463,1023.39
723800,0.325203,9.79436,-0.272597,1.61,-2.8,0,-19.8342,-46.3063,19.3843,1023.39
723806,0.363462,9.8087,-0.25825,1.47,-2.52,1.26,-20.5897,-47.3549,18.8967,1023.32
723812,0.334768,9.8087,-0.286944,1.47,-2.94,0.91,-20.4154,-43.4999,19.7685,1023.32
723818,0.368245,9.82305,-0.301291,1.54,-2.66,0.28,-20.6478,-44.3943,18.9115,1023.36
723824,0.329986,9.8374,-0.296509,1.4,-2.94,0.49,-20.4154,-47.5091,18.9115,1023.36
723830,0.329986,9.8087,-0.296509,1.26,-2.94,0.98,-20.1539,-44.5793,19.2957,1023.38
723836,0.406504,9.84696,-0.320421,1.19,-2.59,1.05,-20.1248,-43.87,21.0984,1023.38
723842,0.344333,9.81827,-0.272597,1.19,-2.59,0.98,-20.8803,-46.7073,19.5469,1023.35
723848,0.387374,9.83261,-0.272597,1.05,-2.8,0.49,-20.6769,-45.597,18.6455,1023.35
723854,0.392157,9.85653,-0.310856,1.26,-2.52,0.21,-19.5727,-43.4691,20.3891,1023.35
723860,0.37781,9.87087,-0.286944,0.7,-2.03,0.63,-20.4735,-47.0465,20.5517,1023.36
723866,0.344333,9.79914,-0.277379,0.77,-2.87,0.42,-21.4033,-47.0465,18.5716,1023.36
723872,0.349115,9.81349,-0.291726,0.84,-2.52,-0.07,-20.3573,-43.9317,21.187,1023.31
723878,0.392157,9.8087,-0.263032,0.98,-2.52,0.35,-19.6308,-44.3943,20.4482,1023.31
723884,0.373027,9.78479,-0.23912,0.77,-2.24,-0.07,-21.1127,-47.4782,19.9606,1023.34
723890,0.344333,9.78001,-0.181731,1.05,-2.38,0.28,-20.7641,-44.2709,20.5664,1023.34
723896,0.344333,9.77044,-0.205643,1.61,-2.38,0.49,-20.6188,-43.7466,20.9949,1023.33
723902,0.373027,9.78001,-0.263032,1.54,-2.45,0.42,-20.4154,-46.7689,20.6255,1023.33
723908,0.387374,9.79436,-0.291726,1.47,-2.24,0.56,-20.5025,-45.9363,19.3548,1023.33
723914,0.153037,9.73218,-0.153037,1.96,-3.29,0.63,-20.9675,-43.1607,20.2118,1023.35
723920,0.387374,9.88044,-0.291726,1.61,-2.94,1.05,-21.0256,-46.2447,19.739,1023.35
723926,0.35868,9.81349,-0.25825,1.47,-2.24,0.77,-21.0837,-47.3857,19.3991,1023.36
723932,0.33955,9.84218,-0.253467,1.61,-2.45,0.21,-20.0376,-44.1784,20.197,1023.36
723938,0.349115,9.82305,-0.267814,0.84,-2.8,0.56,-20.7641,-45.1961,21.4235,1023.38
723944,0.411286,9.83261,-0.296509,1.61,-2.73,0.42,-20.212,-47.6941,18.8376,1023.38
723950,0.363462,9.8087,-0.272597,1.19,-3.01,0.63,-20.2991,-44.1784,20.1084,1023.35
723956,0.382592,9.8087,-0.267814,1.54,-2.52,0.84,-20.8512,-43.8083,20.463,1023.35
723962,0.382592,9.82305,-0.286944,1.26,-3.01,0.49,-20.6188,-47.4474,20.9654,1023.35
723968,0.37781,9.82783,-0.325203,1.4,-2.87,0.56,-21.258,-45.6895,20.5812,1023.37
723974,0.392157,9.83261,-0.296509,1.4,-2.87,0.49,-20.3282,-43.6541,20.2561,1023.37
723980,0.382592,9.86609,-0.277379,1.26,-2.52,0.56,-21.1418,-46.5531,19.7833,1023.39
723986,0.387374,9.79436,-0.253467,1.19,-2.45,0.7,-20.212,-47.5399,19.1331,1023.39
723992,0.329986,9.8374,-0.267814,1.05,-2.52,0.42,-21.4033,-44.8877,19.4582,1023.33
723998,0.368245,9.8087,-0.200861,1.4,-2.73,0.42,-20.7641,-45.2269,20.6551,1023.33
724004,0.387374,9.8087,-0.243902,1.68,-2.45,1.12,-20.6769,-48.1259,19.5173,1023.32
724010,0.368245,9.84218,-0.23912,1.26,-2.73,0.42,-20.4444,-44.3326,21.3496,1023.32
724016,0.420851,9.78001,-0.253467,1.82,-3.22,0.63,-20.3282,-43.7775,20.6551,1023.38
724022,0.392157,9.8374,-0.253467,1.68,-2.8,0.63,-20.6769,-47.139,19.5469,1023.38
724028,0.35868,9.79914,-0.267814,1.68,-2.52,0.7,-20.6188,-45.8746,20.5369,1023.38
724034,0.396939,9.80392,-0.272597,1.54,-2.94,0.63,-20.7059,-43.5308,20.9358,1023.36
724040,0.349115,9.82783,-0.253467,1.61,-2.45,0.84,-20.0376,-45.9054,19.3104,1023.36
724046,0.406504,9.83261,-0.277379,1.33,-2.87,0.84,-20.7059,-47.3857,18.941,1023.36
724052,0.368245,9.81827,-0.272597,1.19,-2.45,0.63,-21.0546,-44.3326,20.6108,1023.36
724058,0.363462,9.80392,-0.229555,1.54,-3.15,0.63,-21.1127,-44.5485,20.5812,1023.36
724064,0.401722,9.83261,-0.23912,1.75,-3.15,0.56,-21.1127,-48.0642,18.7046,1023.36
724070,0.416069,9.78957,-0.267814,1.89,-2.38,0.56,-21.1127,-44.5485,18.9854,1023.34
724076,0.425634,9.83261,-0.282162,1.54,-2.52,0.91,-20.6188,-43.7775,20.6403,1023.34
724082,0.425634,9.8374,-0.296509,1.54,-2.66,0.07,-21.229,-47.2315,20.1379,1023.34
724088,0.368245,9.81827,-0.267814,1.75,-3.15,0.42,-21.229,-45.8129,20.2266,1023.36
724094,0.368245,9.81349,-0.267814,1.61,-2.17,0.42,-21.229,-43.8083,19.0592,1023.36
724100,0.401722,9.84218,-0.320421,1.68,-2.73,0.28,-20.9093,-45.2578,20.1527,1023.37
724106,0.406504,9.86609,-0.310856,1.68,-2.45,-0.49,-20.7641,-47.3857,19.2661,1023.37
724112,0.373027,9.83261,-0.282162,1.54,-2.59,-0.14,-20.9093,-44.3018,20.8472,1023.34
724118,0.320421,9.83261,-0.277379,1.47,-2.94,0.07,-20.8222,-45.1344,20.5812,1023.34
724124,0.373027,9.79436,-0.215208,1.75,-2.59,0.21,-21.0546,-47.0157,19.2218,1023.39
724130,0.334768,9.7561,-0.248685,2.17,-2.66,0.35,-20.8512,-44.6718,19.0445,1023.39
724136,0.349115,9.84218,-0.286944,2.17,-2.8,0.42,-20.3282,-44.055,20.6846,1023.39
724142,0.35868,9.82305,-0.286944,1.68,-2.66,0.49,-20.8803,-47.1082,20.463,1023.34
724148,0.353898,9.83261,-0.277379,1.96,-2.94,0.21,-20.735,-45.9363,18.9263,1023.34
724154,0.382592,9.81827,-0.253467,1.54,-2.52,0.35,-20.0667,-43.87,21.0097,1023.34
724160,0.373027,9.79436,-0.272597,1.68,-2.59,0.35,-20.1539,-46.368,20.4778,1023.34
724166,0.35868,9.81349,-0.272597,1.61,-2.87,0.91,-20.5897,-47.1698,19.7685,1023.39
724172,0.373027,9.77523,-0.282162,1.82,-3.15,0.7,-20.4154,-44.8877,19.7685,1023.39
724178,0.353898,9.8087,-0.25825,1.54,-3.08,0.49,-20.5316,-45.1653,20.9358,1023.36
724184,0.406504,9.81827,-0.267814,1.47,-2.8,0.84,-20.5897,-47.9717,18.808,1023.36
724190,0.430416,9.81349,-0.282162,1.96,-3.36,0.21,-20.7059,-45.0419,19.0149,1023.36
724196,0.401722,9.8374,-0.301291,1.68,-3.01,0.28,-21.0256,-43.8083,21.2166,1023.36
724202,0.396939,9.82783,-0.282162,1.75,-2.8,0.7,-20.8512,-46.3063,19.1036,1023.36
724208,0.349115,9.83261,-0.263032,1.68,-2.59,0.49,-20.5025,-46.1521,19.1627,1023.36
724214,0.349115,9.79436,-0.253467,2.38,-3.22,0,-20.4154,-42.9756,19.4434,1023.36
724220,0.37781,9.78957,-0.243902,2.73,-3.64,0.91,-21.258,-46.5531,19.8867,1023.34
724226,0.363462,9.88522,-0.315638,2.17,-3.64,0.56,-20.9093,-46.8306,18.9115,1023.34
724232,0.430416,9.89,-0.37781,2.03,-3.08,0.07,-21.0256,-44.1784,20.5369,1023.38
724238,0.35868,9.78479,-0.253467,1.47,-2.8,0.56,-20.7931,-44.5485,20.8324,1023.38
724244,0.329986,9.78957,-0.224773,1.96,-2.8,0.7,-21.0837,-47.6633,19.0001,1023.38
724250,0.353898,9.79436,-0.282162,1.89,-2.73,0.35,-20.735,-44.7335,20.0049,1023.38
724256,0.425634,9.81349,-0.272597,1.96,-2.59,0.14,-21.0256,-42.9448,19.4878,1023.38
724262,0.382592,9.84218,-0.286944,2.03,-2.87,0.49,-20.8803,-46.9231,18.8671,1023.34
724268,0.387374,9.82305,-0.25825,1.96,-3.08,0.7,-20.7931,-47.2315,20.2266,1023.34
724274,0.411286,9.80392,-0.272597,2.31,-3.15,0.49,-20.212,-43.6541,20.1527,1023.35
724280,0.406504,9.84696,-0.301291,2.1,-2.8,-0.21,-20.5025,-45.9054,19.7685,1023.35
724286,0.420851,9.84696,-0.33955,1.82,-2.52,0.49,-20.5025,-47.4166,19.606,1023.36
724292,0.37781,9.81349,-0.310856,1.82,-2.45,0.42,-20.7931,-43.3457,20.3448,1023.36
724298,0.387374,9.81827,-0.301291,1.96,-2.45,0,-21.4905,-45.1961,19.6651,1023.36
724304,0.406504,9.80392,-0.33955,1.96,-2.66,0.14,-21.5195,-47.4474,20.6108,1023.36
724310,0.420851,9.83261,-0.310856,1.82,-2.73,0.21,-21.1709,-45.3811,21.0393,1023.36
724316,0.37781,9.84218,-0.315638,1.61,-2.59,0.63,-21.229,-43.87,21.1575,1023.36
724322,0.392157,9.83261,-0.306074,1.89,-2.8,0.35,-21.1418,-47.4474,20.4778,1023.36
724328,0.392157,9.82305,-0.291726,1.89,-2.94,-0.14,-21.4614,-45.6587,19.4878,1023.33
724334,0.406504,9.79436,-0.296509,1.96,-2.8,0.07,-20.3863,-42.914,20.4482,1023.33
724340,0.373027,9.8374,-0.296509,1.75,-2.8,0.49,-21.3161,-46.0288,19.606,1023.36
724346,0.387374,9.82783,-0.320421,1.96,-2.38,-0.14,-21.781,-46.8306,19.2513,1023.36
724352,0.396939,9.85653,-0.349115,1.89,-2.66,0.21,-20.6769,-43.9317,21.1575,1023.37
724358,0.373027,9.83261,-0.33955,1.75,-2.8,0.07,-20.5025,-44.0242,20.0049,1023.37
724364,0.401722,9.82783,-0.33955,1.26,-2.59,0.49,-21.8101,-47.1698,20.2709,1023.35
724370,0.396939,9.79436,-0.315638,1.96,-2.8,0.21,-20.9384,-45.2269,19.3252,1023.35
724376,0.420851,9.81827,-0.325203,1.61,-2.87,0.07,-20.9965,-43.0373,20.729,1023.35
724382,0.416069,9.82783,-0.325203,1.96,-2.94,0.21,-21.4324,-46.2755,19.8867,1023.4
724388,0.435198,9.81827,-0.325203,1.47,-2.24,0,-20.9384,-46.2447,20.1231,1023.4
724394,0.406504,9.82783,-0.334768,1.68,-2.38,0.07,-20.735,-43.5308,20.5369,1023.37
724400,0.420851,9.79914,-0.306074,1.61,-2.8,-0.07,-21.0837,-47.2315,19.0297,1023.37
724406,0.37781,9.79436,-0.272597,1.4,-2.87,-0.21,-20.7931,-46.9848,19.2218,1023.36
724412,0.37781,9.80392,-0.315638,1.75,-2.73,-0.21,-20.2991,-44.0859,19.1627,1023.36
724418,0.353898,9.82783,-0.320421,1.33,-2.38,0.07,-20.5316,-44.6718,19.8424,1023.35
724424,0.406504,9.78957,-0.253467,1.89,-2.66,-0.35,-20.8512,-47.0465,18.483,1023.35
724430,0.368245,9.80392,-0.272597,1.68,-2.31,-0.07,-20.6188,-44.1476,20.0345,1023.35
724436,0.33955,9.79436,-0.315638,1.82,-2.8,0,-20.7931,-43.099,20.0345,1023.36
724442,0.368245,9.77523,-0.272597,2.1,-2.59,0.14,-21.1418,-47.1082,21.0836,1023.36
724448,0.37781,9.81827,-0.296509,1.47,-2.45,0.14,-20.8803,-47.0465,19.8867,1023.35
724454,0.363462,9.83261,-0.325203,1.89,-2.45,0.21,-19.9214,-44.055,19.9902,1023.35
724460,0.363462,9.81349,-0.291726,1.75,-2.8,-0.14,-20.241,-45.9054,20.1822,1023.37
724466,0.392157,9.8374,-0.291726,1.82,-2.66,0.28,-21.3161,-47.725,18.6603,1023.37
724472,0.420851,9.82783,-0.334768,1.96,-2.94,0.14,-20.8512,-44.3326,19.6207,1023.34
724478,0.373027,9.84218,-0.33955,1.68,-2.31,-0.28,-20.5897,-44.4251,19.6207,1023.34
724484,0.353898,9.79914,-0.296509,1.68,-2.8,0,-21.1999,-47.5091,18.8524,1023.34
724490,0.392157,9.81349,-0.325203,1.61,-2.73,0.56,-21.1709,-44.4251,20.064,1023.4
724496,0.420851,9.84218,-0.306074,0.91,-1.75,0.28,-20.1539,-43.099,20.197,1023.4
724502,0.401722,9.85653,-0.325203,1.54,-2.52,-0.49,-21.752,-47.9408,17.2122,1023.35
724508,0.416069,9.8087,-0.325203,1.47,-2.94,-0.21,-22.0135,-46.5531,18.2465,1023.35
724514,0.382592,9.85174,-0.320421,1.12,-2.59,-0.07,-20.2701,-43.5924,21.6894,1023.38
724520,0.435198,9.84696,-0.320421,1.33,-2.45,0,-20.735,-46.0596,20.0049,1023.38
724526,0.363462,9.82305,-0.25825,1.05,-1.96,0.07,-21.258,-47.3857,19.0001,1023.36
724532,0.373027,9.81349,-0.286944,1.4,-2.45,0,-21.0546,-44.1167,18.9263,1023.36
724538,0.387374,9.81349,-0.296509,1.19,-2.52,-0.28,-20.3282,-44.7335,21.6894,1023.37
724544,0.349115,9.8087,-0.296509,1.75,-2.38,0.21,-21.3161,-47.5399,18.7637,1023.37
724550,0.368245,9.77044,-0.272597,1.47,-2.66,0.14,-20.9675,-44.4868,20.1231,1023.37
724556,0.368245,9.81827,-0.286944,1.68,-2.8,0,-21.0546,-43.9934,20.6108,1023.39
724562,0.363462,9.78957,-0.282162,1.47,-2.52,0.14,-21.4614,-47.4474,19.473,1023.39
724568,0.37781,9.82783,-0.296509,1.54,-2.66,0.14,-21.4324,-46.3372,19.3548,1023.36
724574,0.382592,9.80392,-0.301291,1.61,-2.59,0.35,-20.7931,-44.0242,20.3448,1023.36
724580,0.353898,9.82783,-0.315638,1.54,-2.31,0.21,-21.2871,-46.183,20.1822,1023.38
724586,0.420851,9.79914,-0.325203,1.47,-2.45,0.35,-21.258,-47.3857,19.2661,1023.38
724592,0.420851,9.82305,-0.353898,1.26,-2.24,0,-20.5607,-43.0682,19.9606,1023.35
724598,0.382592,9.8087,-0.286944,1.47,-2.38,-0.07,-21.0837,-44.2401,20.5369,1023.35
724604,0.387374,9.84218,-0.277379,1.54,-2.87,0.21,-20.7641,-47.5399,18.1874,1023.35
724610,0.396939,9.8087,-0.286944,1.61,-2.66,-0.35,-20.5316,-44.3326,18.9263,1023.33
724616,0.439981,9.86609,-0.315638,1.4,-2.31,0.07,-20.3573,-42.8831,19.2957,1023.33
724622,0.425634,9.8087,-0.325203,1.26,-2.17,0.21,-20.9675,-46.5839,18.3795,1023.36
724628,0.349115,9.81827,-0.267814,1.4,-2.24,-0.07,-21.4905,-46.3372,19.9606,1023.36
724634,0.363462,9.81349,-0.329986,1.26,-2.17,-0.42,-20.9093,-44.7335,20.6699,1023.35
724640,0.37781,9.81349,-0.272597,1.4,-2.52,-0.21,-21.229,-46.5222,19.7833,1023.35
724646,0.37781,9.8087,-0.272597,1.68,-3.08,0.07,-21.781,-48.095,19.931,1023.37
724652,0.37781,9.84696,-0.25825,1.19,-2.17,-0.21,-21.1418,-43.87,20.0936,1023.37
724658,0.406504,9.78479,-0.282162,1.68,-2.38,0,-21.0256,-44.6101,19.9458,1023.37
724664,0.368245,9.8087,-0.277379,1.54,-2.66,0.42,-21.0837,-47.3549,18.1727,1023.35
724670,0.363462,9.80392,-0.286944,1.75,-3.01,-0.14,-21.0256,-44.4251,19.8128,1023.35
724676,0.401722,9.78001,-0.291726,1.96,-2.38,0.07,-20.1248,-43.5616,20.2857,1023.35
724682,0.387374,9.81827,-0.329986,1.68,-2.31,0.14,-20.7641,-48.496,18.8524,1023.35
724688,0.37781,9.84218,-0.325203,1.61,-2.66,0.35,-20.3863,-46.8923,18.7489,1023.37
724694,0.373027,9.82783,-0.306074,1.82,-2.8,0.07,-20.735,-43.4074,19.739,1023.37
724700,0.430416,9.79436,-0.325203,1.61,-2.31,0,-20.9965,-46.1213,19.5616,1023.34
724706,0.382592,9.83261,-0.325203,1.61,-2.59,0.14,-20.7641,-47.5399,19.4582,1023.34
724712,0.420851,9.85174,-0.344333,1.54,-2.66,0.07,-21.0546,-43.8392,18.6751,1023.34
724718,0.382592,9.83261,-0.306074,0.98,-2.03,17.78,-19.6018,-44.3634,19.6207,1023.35
724724,0.37781,9.82305,-0.277379,1.61,-2.59,0.07,-20.7059,-47.8792,18.808,1023.35
724730,0.37781,9.78479,-0.272597,1.33,-2.52,-0.21,-20.8222,-44.7643,19.34,1023.36
724736,0.387374,9.81827,-0.277379,1.54,-2.59,0.07,-20.7059,-43.3457,20.729,1023.36
724742,0.368245,9.78957,-0.282162,1.47,-3.01,0,-19.7761,-46.7381,19.6355,1023.33
724748,0.382592,9.79914,-0.25825,1.96,-2.8,-0.07,-20.8803,-46.2447,19.4286,1023.33
724754,0.368245,9.76566,-0.277379,1.89,-2.31,-0.28,-20.0958,-43.5616,20.4039,1023.36
724760,0.353898,9.8087,-0.272597,2.03,-2.38,-0.14,-20.5897,-45.8746,20.5812,1023.36
724766,0.392157,9.82783,-0.286944,2.1,-2.8,-0.07,-20.4154,-47.3857,19.1036,1023.34
724772,0.373027,9.80392,-0.286944,1.96,-2.66,-0.07,-20.6478,-43.9317,20.1379,1023.34
724778,0.37781,9.78001,-0.301291,1.75,-2.8,0.35,-20.3863,-44.6718,19.3104,1023.34
724784,0.344333,9.82305,-0.301291,2.1,-2.73,0.28,-20.9093,-47.6941,19.606,1023.36
724790,0.396939,9.82783,-0.310856,1.89,-2.73,0.14,-20.7931,-44.5793,19.4582,1023.36
724796,0.387374,9.84218,-0.37781,1.89,-2.45,0.35,-20.5607,-44.055,20.8029,1023.34
724802,0.37781,9.89,-0.368245,1.54,-2.8,-0.21,-20.4444,-46.3372,20.2857,1023.34
724808,0.454328,9.71784,-0.229555,1.68,-2.45,-0.21,-21.3161,-47.3857,18.5125,1023.36
724814,0.33955,9.75131,-0.167384,2.31,-2.8,-0.49,-20.1248,-43.7775,21.0541,1023.36
724820,0.420851,9.84696,-0.368245,2.17,-3.01,-0.07,-19.8052,-46.3989,20.1084,1023.38
724826,0.468675,9.86131,-0.392157,1.61,-2.73,0,-20.7931,-47.139,18.9854,1023.38
724832,0.35868,9.87087,-0.334768,1.68,-2.66,-0.49,-20.4154,-43.5308,18.6898,1023.38
724838,0.363462,9.78479,-0.306074,1.26,-2.31,-0.28,-20.6188,-43.9934,20.1527,1023.37
724844,0.320421,9.78957,-0.248685,2.03,-2.59,0.14,-20.9384,-47.324,18.5273,1023.37
724850,0.35868,9.79914,-0.277379,2.1,-2.87,-0.14,-20.6478,-44.2709,20.1527,1023.37
724856,0.392157,9.81827,-0.320421,1.61,-2.03,0,-19.5437,-42.9448,20.4334,1023.37
724862,0.344333,9.81827,-0.296509,1.61,-2.38,-0.14,-20.3282,-46.183,20.1527,1023.39
724868,0.334768,9.79914,-0.310856,1.75,-2.66,-0.42,-20.6188,-46.3989,19.1922,1023.39
724874,0.349115,9.78001,-0.267814,1.75,-2.45,0,-20.5025,-42.6364,20.463,1023.35
724880,0.363462,9.81827,-0.310856,1.68,-2.66,-0.14,-19.9795,-45.6279,19.9754,1023.35
724886,0.368245,9.79436,-0.296509,1.68,-2.8,0.49,-20.735,-47.2007,20.1231,1023.35
724892,0.368245,9.81349,-0.291726,1.54,-2.87,0.42,-21.3161,-43.8083,21.4826,1023.36
724898,0.387374,9.82305,-0.301291,1.89,-2.94,-0.14,-20.1539,-44.6101,21.0541,1023.36
724904,0.411286,9.81827,-0.306074,1.75,-2.24,0.35,-20.6769,-47.0773,18.9706,1023.38
724910,0.373027,9.83261,-0.325203,1.54,-2.38,0.21,-20.3282,-44.2092,20.2857,1023.38
724916,0.373027,9.85174,-0.329986,1.47,-2.59,-0.42,-20.3573,-43.5308,20.9654,1023.37
724922,0.349115,9.81827,-0.272597,1.47,-2.52,-0.56,-21.3161,-46.6147,20.1379,1023.37
724928,0.37781,9.80392,-0.253467,1.68,-2.8,-0.42,-20.8222,-46.2447,20.5221,1023.37
724934,0.430416,9.84218,-0.334768,1.54,-2.24,-0.07,-20.3863,-43.685,20.3448,1023.37
724940,0.382592,9.85174,-0.301291,1.47,-2.45,-0.35,-20.5025,-45.7821,19.8424,1023.35
724946,0.344333,9.78957,-0.306074,1.4,-2.1,-0.56,-21.1709,-46.7998,19.8867,1023.35
724952,0.325203,9.8374,-0.296509,1.33,-2.45,-0.56,-20.3282,-43.1915,20.5073,1023.35
724958,0.37781,9.85174,-0.291726,1.19,-2.45,-0.42,-20.1248,-44.6718,20.8472,1023.36
724964,0.392157,9.81349,-0.306074,1.75,-2.52,-0.42,-20.2991,-46.9848,19.7537,1023.36
724970,0.33955,9.83261,-0.310856,1.26,-2.59,-0.35,-20.4735,-44.7643,19.0149,1023.37
724976,0.33955,9.79436,-0.277379,1.54,-2.59,-0.49,-19.4856,-44.6101,20.4187,1023.37
724982,0.33955,9.79436,-0.272597,1.75,-2.59,-0.35,-19.6599,-47.2315,19.6651,1023.38
724988,0.373027,9.8087,-0.25825,1.68,-2.73,-17.78,-21.0546,-46.7998,19.2513,1023.38
724994,0.353898,9.8087,-0.296509,1.61,-2.45,-0.35,-20.3573,-43.8392,19.9458,1023.39
725000,0.37781,9.81349,-0.301291,1.54,-2.31,0.21,-20.8803,-45.8746,19.7981,1023.39
725006,0.392157,9.8087,-0.282162,1.47,-2.59,0.35,-20.5025,-47.5399,18.7342,1023.39
725012,0.37781,9.83261,-0.301291,1.47,-2.52,-0.28,-20.7059,-44.7952,19.6946,1023.36
725018,0.435198,9.82305,-0.291726,1.68,-2.87,-0.21,-20.9384,-44.7027,20.6551,1023.36
725024,0.425634,9.79914,-0.320421,1.26,-2.17,-0.07,-20.7059,-47.6941,19.6355,1023.37
725030,0.35868,9.84218,-0.310856,1.33,-2.94,-0.49,-20.1248,-45.4428,19.739,1023.37
725036,0.382592,9.80392,-0.286944,1.75,-2.73,-0.49,-20.1539,-43.3149,21.0836,1023.37
725042,0.37781,9.84218,-0.296509,1.05,-2.1,0,-20.4735,-46.8923,20.6403,1023.37
725048,0.368245,9.81349,-0.325203,1.19,-2.38,-0.07,-20.6188,-46.4605,19.7685,1023.37
725054,0.387374,9.8087,-0.301291,1.47,-2.59,-0.21,-20.7931,-43.2532,20.2414,1023.37
725060,0.353898,9.82305,-0.277379,1.68,-2.52,0.07,-20.8222,-45.412,21.0393,1023.37
725066,0.349115,9.79914,-0.286944,1.61,-2.38,-0.42,-21.0837,-48.0642,18.8819,1023.34
725072,0.334768,9.8087,-0.296509,1.61,-2.1,0.07,-20.0667,-44.3018,20.4187,1023.34
725078,0.35868,9.8087,-0.320421,1.54,-2.24,-0.21,-20.5897,-44.9185,19.9163,1023.37
725084,0.344333,9.79436,-0.291726,1.68,-2.73,-0.14,-21.1127,-47.6941,19.3991,1023.37
725090,0.33955,9.82305,-0.291726,1.89,-2.45,0.14,-21.4033,-45.1961,19.2809,1023.34
725096,0.349115,9.81349,-0.315638,1.75,-2.52,-0.28,-20.5607,-43.5616,21.5269,1023.34
725102,0.353898,9.82305,-0.310856,1.4,-2.17,-0.35,-21.229,-46.4914,19.4878,1023.35
725108,0.349115,9.8087,-0.282162,1.4,-2.31,0.28,-20.9384,-46.5531,18.9115,1023.35
725114,0.401722,9.82783,-0.282162,1.82,-2.45,-0.14,-20.4444,-42.9756,20.8324,1023.38
725120,0.382592,9.81349,-0.282162,1.54,-2.94,-0.42,-20.7641,-45.0419,19.3548,1023.38
725126,0.435198,9.85174,-0.306074,1.75,-2.52,-0.21,-20.7931,-47.9408,19.2218,1023.38
725132,0.373027,9.83261,-0.344333,1.4,-2.52,-0.98,-20.3573,-44.3634,19.6503,1023.38
725138,0.382592,9.82783,-0.325203,1.26,-2.45,-0.14,-19.5727,-44.0859,20.6255,1023.38
725144,0.406504,9.8374,-0.301291,1.54,-2.59,-0.07,-20.3863,-47.0465,18.7785,1023.37
725150,0.387374,9.84218,-0.291726,1.54,-2.17,-0.84,-20.241,-45.6895,19.1036,1023.37
725156,0.353898,9.78957,-0.282162,1.61,-2.03,-0.91,-19.8342,-43.5308,20.7437,1023.35
725162,0.325203,9.81827,-0.296509,2.03,-2.66,-0.35,-20.0667,-46.1521,19.4286,1023.35
725168,0.349115,9.81349,-0.291726,1.54,-2.87,-0.63,-20.9675,-46.6456,19.6503,1023.38
725174,0.353898,9.78479,-0.272597,1.89,-2.24,-0.42,-20.3863,-43.0373,19.9902,1023.38
725180,0.368245,9.81349,-0.296509,1.75,-2.66,-0.49,-20.6769,-45.5045,20.3152,1023.38
725186,0.329986,9.81827,-0.286944,1.68,-2.31,-0.35,-20.6769,-47.324,19.1183,1023.33
725192,0.320421,9.80392,-0.296509,1.82,-2.24,-0.14,-20.0667,-43.9934,19.5912,1023.33
725198,0.368245,9.82783,-0.310856,1.4,-2.1,-0.35,-19.7471,-43.685,20.1231,1023.39
725204,0.334768,9.81827,-0.325203,1.82,-2.45,-0.49,-20.5607,-47.725,19.6503,1023.39
725210,0.320421,9.91392,-0.392157,1.05,-2.45,-0.07,-20.6478,-45.6587,20.1675,1023.37
725216,0.487805,9.68914,-0.143472,0.7,-1.54,0.21,-19.6599,-43.5616,21.187,1023.37
725222,0.253467,9.7561,-0.095648,2.94,-3.15,-0.14,-20.3282,-46.183,20.3743,1023.35
725228,0.368245,9.94261,-0.401722,1.68,-3.29,-0.14,-20.9384,-46.1213,20.3005,1023.35
725234,0.47824,9.89479,-0.416069,1.33,-1.68,0,-20.1248,-42.9756,20.2118,1023.35
725240,0.310856,9.83261,-0.315638,1.12,-2.45,-0.49,-20.9384,-45.1344,20.0197,1023.35
725246,0.416069,9.79914,-0.301291,1.4,-2.59,-0.42,-21.0256,-46.7998,19.4434,1023.35
725252,0.373027,9.79914,-0.272597,1.75,-2.24,0,-20.6769,-43.8392,21.187,1023.34
725258,0.35868,9.82305,-0.325203,1.96,-2.73,-0.56,-19.9505,-44.3326,20.3448,1023.34
725264,0.368245,9.80392,-0.282162,1.54,-2.31,-0.49,-20.8222,-47.4474,17.685,1023.38
725270,0.301291,9.79436,-0.267814,1.4,-2.73,-0.98,-20.5897,-45.7204,19.473,1023.38
725276,0.296509,9.76566,-0.25825,1.68,-2.94,-0.84,-20.5607,-42.8523,21.2609,1023.39
725282,0.325203,9.79914,-0.23912,1.75,-2.38,-0.07,-20.5607,-46.6456,20.4187,1023.39
725288,0.315638,9.81349,-0.286944,1.61,-2.66,0.21,-20.735,-47.139,19.5025,1023.34
725294,0.320421,9.82305,-0.248685,1.68,-2.66,-0.7,-20.5025,-43.2532,20.8472,1023.34
725300,0.344333,9.8087,-0.286944,1.96,-2.17,-0.07,-20.3282,-45.7512,20.4778,1023.34
725306,0.296509,9.83261,-0.310856,1.47,-1.82,0.21,-21.4324,-47.3857,19.5469,1023.36
725312,0.320421,9.79914,-0.267814,0.91,-2.31,0.42,-20.8803,-44.0859,19.8572,1023.36
725318,0.329986,9.81349,-0.296509,1.82,-2.66,0.42,-20.5607,-44.0242,19.931,1023.35
725324,0.368245,9.8087,-0.286944,1.33,-2.31,0.49,-21.6939,-47.5399,19.6651,1023.35
725330,0.363462,9.8374,-0.310856,1.68,-2.87,0.35,-20.9675,-46.4605,18.3204,1023.34
725336,0.368245,9.84218,-0.310856,1.33,-2.38,0.49,-20.8222,-44.3943,20.0049,1023.34
725342,0.344333,9.82783,-0.301291,1.4,-2.1,-0.21,-21.1418,-47.324,18.1579,1023.36
725348,0.353898,9.85174,-0.286944,1.47,-2.45,-0.28,-21.0256,-47.324,18.7637,1023.36
725354,0.368245,9.82783,-0.315638,1.19,-2.73,0.07,-20.8512,-44.2709,20.0788,1023.36
725360,0.387374,9.86609,-0.286944,0.91,-2.31,0.14,-19.9795,-45.3811,20.4334,1023.37
725366,0.35868,9.81349,-0.277379,1.33,-2.31,-0.63,-20.241,-47.2624,18.6159,1023.37
725372,0.33955,9.84218,-0.23912,1.75,-2.8,-0.14,-20.241,-43.9625,19.5616,1023.34
725378,0.35868,9.79914,-0.291726,1.4,-2.03,0.28,-19.8633,-44.641,19.7685,1023.34
725384,0.329986,9.78957,-0.296509,1.19,-2.45,-0.63,-20.4154,-48.1876,19.5173,1023.39
725390,0.329986,9.80392,-0.277379,1.47,-2.52,-0.28,-21.0546,-45.3503,19.606,1023.39
725396,0.35868,9.80392,-0.272597,1.82,-2.73,-0.28,-20.4154,-43.4999,20.0197,1023.36
725402,0.325203,9.8087,-0.267814,2.03,-2.17,-0.28,-21.5195,-47.7558,19.6946,1023.36
725408,0.286944,9.81827,-0.248685,1.4,-2.73,0.49,-20.5025,-46.5839,19.2366,1023.36
725414,0.33955,9.82783,-0.253467,1.54,-2.52,0.21,-20.8222,-43.7466,20.197,1023.37
725420,0.306074,9.82783,-0.315638,1.68,-2.38,0,-20.3863,-44.5793,21.0097,1023.37
725426,0.334768,9.76088,-0.282162,1.61,-2.87,0.49,-21.4614,-47.6324,19.2809,1023.37
725432,0.368245,9.83261,-0.310856,1.82,-2.66,-0.07,-20.1539,-44.1784,19.9754,1023.37
725438,0.344333,9.82783,-0.310856,1.54,-2.52,-0.35,-20.4735,-44.5485,20.0049,1023.37
725444,0.363462,9.8087,-0.286944,1.54,-2.1,0.21,-21.8973,-47.6941,19.5173,1023.37
725450,0.396939,9.82783,-0.301291,1.26,-2.87,0.07,-20.4444,-44.5793,19.4582,1023.36
725456,0.353898,9.8374,-0.296509,1.61,-2.66,0.21,-19.7761,-43.3766,20.2561,1023.36
725462,0.349115,9.78479,-0.277379,1.47,-2.38,-0.07,-19.718,-46.4914,19.1183,1023.34
725468,0.349115,9.82305,-0.282162,1.82,-2.73,0,-20.9384,-46.8615,18.483,1023.34
725474,0.363462,9.84218,-0.301291,1.12,-2.31,0.14,-19.8342,-43.2532,20.2709,1023.34
725480,0.353898,9.79436,-0.267814,1.54,-2.94,-0.35,-20.5607,-45.5045,19.3252,1023.4
725486,0.353898,9.81827,-0.267814,1.82,-2.45,-0.21,-20.6478,-48.095,18.808,1023.4
725492,0.33955,9.78957,-0.282162,1.82,-2.59,0.49,-19.9214,-43.6233,20.8767,1023.36
725498,0.344333,9.79914,-0.282162,1.75,-2.73,-0.21,-19.8633,-43.6233,21.6156,1023.36
725504,0.325203,9.82783,-0.248685,2.03,-2.8,0.21,-20.1248,-47.7866,19.473,1023.36
725510,0.33955,9.78957,-0.25825,1.68,-2.45,0.28,-20.8222,-45.7821,18.9263,1023.36
725516,0.344333,9.79436,-0.277379,1.4,-2.31,0.56,-19.5146,-43.1915,19.606,1023.37
725522,0.349115,9.80392,-0.286944,1.61,-2.87,0.07,-20.4735,-46.4297,19.5025,1023.37
725528,0.329986,9.81827,-0.315638,1.89,-3.15,0.63,-21.1418,-46.3063,19.2661,1023.37
725534,0.334768,9.81827,-0.349115,1.82,-2.8,0.42,-20.8803,-43.2224,20.1675,1023.35
725540,0.344333,9.85174,-0.320421,1.61,-2.87,0.28,-20.4154,-45.5045,19.7094,1023.35
725546,0.416069,9.84696,-0.387374,1.4,-3.08,0.63,-20.9384,-47.7866,19.1627,1023.36
725552,0.396939,9.89479,-0.363462,1.4,-2.52,0.07,-20.1829,-44.1784,19.3991,1023.36
725558,0.334768,9.85174,-0.325203,0.91,-2.38,0,-20.6478,-44.1784,20.5812,1023.34
725564,0.320421,9.82783,-0.267814,1.68,-2.73,-0.14,-20.8803,-47.0773,19.0445,1023.34
725570,0.373027,9.80392,-0.296509,1.4,-2.73,0,-20.9384,-44.4868,19.0149,1023.37
725576,0.368245,9.81827,-0.301291,1.54,-2.45,-0.14,-20.6188,-43.7466,19.5764,1023.37
725582,0.33955,9.78957,-0.282162,1.61,-2.66,-0.56,-21.4614,-47.324,19.6503,1023.37
725588,0.334768,9.76088,-0.23912,1.68,-2.66,0,-21.1127,-46.7689,18.3795,1023.37
725594,0.301291,9.85653,-0.349115,1.89,-2.66,0,-20.5607,-42.9448,19.6503,1023.37
725600,0.396939,9.86131,-0.353898,1.26,-2.8,-0.28,-21.0256,-45.1036,20.4778,1023.35
725606,0.320421,9.77523,-0.23912,1.61,-2.52,0.07,-21.0546,-47.324,19.2513,1023.35
725612,0.329986,9.76088,-0.248685,2.03,-3.08,0.14,-20.8512,-44.1476,20.3743,1023.35
725618,0.33955,9.78001,-0.282162,1.54,-2.73,0.07,-20.9675,-44.3634,20.5517,1023.35
725624,0.320421,9.83261,-0.320421,1.54,-2.52,0,-20.7931,-47.3549,19.7537,1023.35
725630,0.344333,9.8087,-0.306074,1.47,-2.87,0.35,-21.6939,-45.2269,20.4926,1023.35
725636,0.315638,9.81349,-0.286944,1.47,-2.52,0.35,-21.1127,-43.5308,20.4187,1023.38
725642,0.329986,9.82783,-0.33955,1.4,-2.52,0.42,-21.229,-46.5222,19.5912,1023.38
725648,0.325203,9.78957,-0.286944,1.89,-2.8,0.07,-21.5195,-47.0465,18.9854,1023.38
725654,0.349115,9.80392,-0.344333,1.4,-2.52,0.63,-20.5025,-43.2532,21.0393,1023.34
725660,0.349115,9.84696,-0.363462,1.05,-2.17,0.84,-20.735,-45.0111,19.931,1023.34
725666,0.368245,9.85174,-0.329986,0.98,-2.45,0.49,-21.3452,-47.3857,17.4191,1023.32
725672,0.334768,9.78001,-0.272597,0.91,-2.1,0.35,-21.0256,-44.2092,20.4187,1023.32
725678,0.363462,9.81827,-0.344333,1.26,-2.17,-0.21,-21.0256,-43.6233,19.8128,1023.38
725684,0.373027,9.87087,-0.368245,1.19,-2.31,0.49,-22.0135,-47.324,19.2661,1023.38
725690,0.353898,9.81827,-0.301291,1.12,-1.89,0.07,-21.8682,-44.9494,20.4482,1023.35
725696,0.306074,9.8087,-0.253467,1.05,-2.24,0.14,-20.735,-43.1298,20.8029,1023.35
725702,0.329986,9.81349,-0.25825,1.54,-2.8,0.42,-21.1999,-46.4914,20.4778,1023.35
725708,0.344333,9.78001,-0.263032,1.47,-2.8,0.7,-20.8803,-46.8615,19.0149,1023.34
725714,0.344333,9.81349,-0.296509,1.68,-2.17,0.21,-20.5897,-43.4999,20.862,1023.34
725720,0.320421,9.79436,-0.291726,1.26,-2.03,0.28,-20.9675,-45.1036,20.1822,1023.38
725726,0.325203,9.8087,-0.286944,1.89,-2.66,0.28,-21.4033,-46.9848,19.3695,1023.38
725732,0.353898,9.8087,-0.282162,1.75,-3.01,0.21,-20.8222,-44.2092,19.6798,1023.36
725738,0.329986,9.8374,-0.301291,1.47,-2.31,0.7,-20.6478,-44.2709,19.7094,1023.36
725744,0.291726,9.79914,-0.315638,1.68,-2.66,0.7,-21.229,-46.4605,18.6751,1023.36
725750,0.353898,9.86609,-0.325203,1.12,-2.73,0.56,-21.229,-45.5353,18.9115,1023.36
725756,0.353898,9.84218,-0.353898,1.05,-2.59,0.84,-20.735,-43.7466,20.3152,1023.36
725762,0.320421,9.83261,-0.334768,0.98,-2.45,0.77,-19.9505,-48.0025,19.1331,1023.35
725768,0.373027,9.82783,-0.325203,1.12,-2.31,0.35,-21.5195,-47.1082,19.4878,1023.35
725774,0.382592,9.83261,-0.315638,0.7,-2.24,0.49,-20.1248,-43.4691,19.9606,1023.38
725780,0.368245,9.84696,-0.320421,0.77,-2.66,0.7,-20.9384,-46.1213,19.0297,1023.38
725786,0.37781,9.84696,-0.263032,0.91,-2.45,0.42,-20.5897,-48.1567,18.7046,1023.37
725792,0.329986,9.79914,-0.234338,0.77,-2.24,0.49,-20.1829,-44.1476,18.6751,1023.37
725798,0.33955,9.81349,-0.215208,1.54,-2.52,0.42,-20.1248,-44.4559,18.8671,1023.35
725804,0.349115,9.85174,-0.25825,1.47,-2.66,0.14,-21.1999,-47.6324,18.7194,1023.35
725810,0.320421,9.79914,-0.234338,1.19,-2.38,0.28,-20.2991,-45.7821,18.7342,1023.39
725816,0.33955,9.76566,-0.277379,1.4,-2.73,0.7,-20.735,-44.0859,20.5369,1023.39
725822,0.33955,9.82305,-0.272597,1.33,-2.52,0.42,-20.8803,-47.139,19.1479,1023.39
725828,0.344333,9.79914,-0.272597,1.68,-2.31,0.42,-21.5776,-46.3372,18.7933,1023.38
725834,0.320421,9.81349,-0.282162,1.96,-2.66,0.77,-21.5195,-43.5924,19.7981,1023.38
725840,0.35868,9.81827,-0.286944,1.26,-2.8,0.7,-20.735,-45.5353,19.6207,1023.36
725846,0.353898,9.81349,-0.272597,1.75,-2.8,0.35,-21.7229,-48.2492,17.6703,1023.36
725852,0.306074,9.82305,-0.286944,1.4,-2.73,0.63,-21.6939,-44.7335,18.7785,1023.38
725858,0.353898,9.81349,-0.286944,1.82,-2.31,1.19,-20.5897,-44.3943,19.7685,1023.38
725864,0.344333,9.82305,-0.320421,1.54,-2.66,0.56,-21.0256,-46.368,18.3795,1023.38
725870,0.37781,9.83261,-0.296509,1.4,-2.31,0.84,-21.1999,-44.9494,18.5421,1023.38
725876,0.401722,9.81827,-0.286944,1.4,-2.8,0.7,-20.7641,-42.2972,19.3695,1023.38
725882,0.368245,9.82783,-0.325203,1.19,-2.94,0.42,-20.8803,-46.3989,19.2513,1023.35
725888,0.334768,9.8087,-0.286944,1.75,-3.15,0.49,-21.0256,-47.2007,18.8671,1023.35
725894,0.373027,9.82305,-0.291726,1.33,-2.52,0.42,-21.3161,-43.5308,19.2218,1023.4
725900,0.35868,9.82305,-0.282162,1.54,-2.8,0,-21.4033,-45.4737,20.729,1023.4
725906,0.329986,9.8087,-0.267814,1.54,-2.8,0.77,-21.4033,-47.4782,20.0049,1023.38
725912,0.344333,9.81349,-0.234338,1.89,-2.31,0.77,-21.3452,-44.4868,20.4039,1023.38
725918,0.35868,9.82305,-0.277379,1.47,-2.52,0.42,-20.3282,-44.3634,20.5221,1023.35
725924,0.37781,9.8087,-0.267814,1.68,-2.87,0.28,-21.1709,-47.3857,18.7489,1023.35
725930,0.373027,9.81349,-0.248685,2.03,-2.66,0.77,-21.5486,-45.4428,19.5764,1023.35
725936,0.35868,9.79914,-0.25825,1.19,-2.1,0.84,-21.1127,-44.0859,18.3647,1023.38
725942,0.37781,9.81827,-0.282162,1.75,-2.66,0.7,-20.735,-46.3372,20.6108,1023.38
725948,0.334768,9.84218,-0.272597,1.68,-2.73,0.56,-20.9965,-46.368,18.2465,1023.33
725954,0.353898,9.82783,-0.282162,1.75,-2.73,0.49,-21.0837,-43.3149,21.3053,1023.33
725960,0.406504,9.8374,-0.306074,1.54,-2.94,0.7,-21.1709,-45.2269,20.1379,1023.34
725966,0.406504,9.80392,-0.306074,1.68,-2.59,0.7,-20.9093,-47.4474,19.4434,1023.34
725972,0.416069,9.82783,-0.277379,1.96,-2.59,0.14,-21.0837,-43.9625,19.1922,1023.35
725978,0.411286,9.82783,-0.353898,1.61,-2.31,-0.07,-21.1999,-44.6718,19.3548,1023.35
725984,0.21999,9.74653,-0.153037,2.03,-3.85,0.56,-21.2871,-47.5399,18.1431,1023.39
725990,0.487805,9.84696,-0.353898,1.75,-2.52,0.42,-21.4324,-44.9802,18.9854,1023.39
725996,0.33955,9.8087,-0.25825,1.96,-2.52,-0.14,-20.5897,-42.8831,19.7833,1023.39
726002,0.363462,9.85174,-0.306074,1.96,-2.8,0.14,-21.3742,-46.3063,19.2957,1023.38
726008,0.35868,9.81827,-0.296509,2.03,-2.38,0.21,-21.1999,-46.5839,19.0888,1023.38
726014,0.329986,11.0139,-0.25825,1.89,-2.59,0.7,-20.4154,-42.8523,20.3152,1023.34
726020,0.334768,9.84696,-0.310856,1.68,-2.8,0.14,-21.2871,-45.8129,20.596,1023.34
726026,0.368245,9.82783,-0.267814,1.68,-2.87,0.35,-21.6358,-47.2315,18.3352,1023.35
726032,0.334768,9.81827,-0.25825,2.03,-2.8,0.49,-21.8101,-44.2709,19.473,1023.35
726038,0.373027,9.84696,-0.320421,1.68,-2.45,0.42,-20.735,-44.2092,18.9854,1023.38
726044,0.37781,9.85653,-0.315638,1.4,-2.17,0.07,-21.0256,-46.4914,19.2661,1023.38
726050,0.373027,9.82305,-0.291726,1.4,-2.66,0.42,-21.0256,-45.3503,20.2118,1023.38
726056,0.392157,9.7274,-0.210426,1.61,-2.52,0.63,-21.1999,-42.9756,20.33,1023.35
726062,0.306074,9.8087,-0.253467,2.03,-3.08,0.35,-20.735,-45.8437,20.1675,1023.35
726068,0.37781,9.85653,-0.334768,1.96,-3.15,0.84,-21.0546,-46.2755,20.0197,1023.37
726074,0.406504,9.84696,-0.35868,1.54,-2.73,0.28,-20.6188,-43.5616,20.5812,1023.37
726080,0.363462,9.8087,-0.310856,1.33,-2.73,0.21,-20.4154,-44.0242,20.2266,1023.35
726086,0.363462,9.81827,-0.25825,1.68,-2.52,0.63,-21.6358,-47.0157,20.0049,1023.35
726092,0.363462,9.81349,-0.263032,1.68,-2.66,0.07,-20.9093,-44.2092,18.8376,1023.4
726098,0.373027,9.84696,-0.320421,1.68,-2.59,-0.14,-20.7641,-43.9008,19.7981,1023.4
726104,0.425634,9.81349,-0.310856,1.4,-2.52,0.14,-21.4324,-47.4166,18.2318,1023.4
726110,0.344333,9.78957,-0.272597,1.82,-2.87,0.28,-20.4735,-45.7204,18.8524,1023.35
726116,0.363462,9.8087,-0.263032,1.75,-2.8,0.28,-20.1539,-43.1298,20.6403,1023.35
726122,0.382592,9.82305,-0.282162,1.61,-2.31,0.35,-20.0958,-46.5531,19.9015,1023.32
726128,0.353898,9.81349,-0.282162,1.61,-2.31,0.14,-20.8512,-46.7689,19.9902,1023.32
726134,0.33955,9.79914,-0.272597,1.75,-2.38,0.14,-20.735,-43.9625,19.739,1023.32
726140,0.35868,9.79914,-0.291726,1.75,-2.87,0.42,-21.7229,-45.6587,18.9706,1023.32
726146,0.382592,9.79436,-0.282162,1.61,-2.94,0.35,-21.3161,-47.5708,18.7046,1023.33
726152,0.349115,9.82783,-0.263032,1.33,-2.59,0.21,-20.4444,-44.6101,19.606,1023.33
726158,0.353898,9.81827,-0.296509,1.05,-2.1,0.56,-20.4444,-43.9008,20.463,1023.36
726164,0.353898,9.8087,-0.291726,1.33,-2.94,0.49,-21.1999,-47.725,19.7833,1023.36
726170,0.363462,9.81349,-0.282162,1.61,-3.01,0.21,-20.5897,-45.5662,20.1822,1023.36
726176,0.35868,9.78001,-0.325203,1.68,-3.01,0.56,-20.5607,-43.4691,20.6699,1023.33
726182,0.35868,9.81827,-0.286944,1.4,-2.59,0.56,-20.3863,-46.368,19.7094,1023.33
726188,0.37781,9.83261,-0.282162,1.61,-2.45,0,-20.8803,-45.8746,18.9115,1023.38
726194,0.396939,9.81349,-0.325203,1.4,-2.66,0.21,-20.3863,-42.8214,19.5912,1023.38
726200,0.35868,9.82305,-0.301291,1.33,-2.94,0.49,-20.6769,-44.9802,20.5369,1023.39
726206,0.33955,9.8087,-0.243902,1.54,-2.52,0.42,-20.6769,-47.3549,20.3005,1023.39
726212,0.382592,9.8374,-0.272597,1.47,-2.8,0.56,-20.9675,-44.3326,19.7981,1023.35
726218,0.363462,9.81827,-0.253467,1.47,-2.59,0.35,-20.5025,-43.5616,20.3596,1023.35
726224,0.353898,9.8087,-0.306074,1.26,-2.73,-0.07,-21.3742,-47.2007,19.7094,1023.35
726230,0.353898,9.78479,-0.277379,1.54,-2.38,0.7,-20.7931,-45.5662,19.5764,1023.36
726236,0.33955,9.8087,-0.291726,1.68,-2.31,0.42,-19.7761,-43.1915,19.8867,1023.36
726242,0.406504,9.82305,-0.329986,1.61,-2.87,0.56,-20.6769,-46.4914,19.2957,1023.33
726248,0.396939,9.82783,-0.325203,1.26,-2.87,0.77,-21.5776,-46.4605,19.8424,1023.33
726254,0.392157,9.81349,-0.267814,1.61,-2.8,0,-20.5025,-43.0065,20.2709,1023.35
726260,0.392157,9.85174,-0.320421,1.54,-2.73,0.42,-20.3282,-45.412,20.8767,1023.35
726266,0.33955,9.85174,-0.315638,1.47,-2.31,0.77,-20.5897,-47.4782,17.8919,1023.34
726272,0.35868,9.82305,-0.277379,1.61,-2.45,0.14,-20.6769,-44.4868,20.2709,1023.34
726278,0.368245,9.8087,-0.296509,1.4,-2.66,0.28,-20.4444,-43.3766,18.35,1023.34
726284,0.396939,9.8087,-0.306074,1.54,-2.52,0.07,-21.4324,-47.2007,19.3695,1023.34
726290,0.373027,9.80392,-0.291726,1.47,-3.01,-0.07,-21.0837,-45.3811,19.6651,1023.34
726296,0.363462,9.84218,-0.310856,1.54,-3.01,0.14,-20.0958,-43.685,20.1379,1023.33
726302,0.392157,9.85653,-0.325203,1.4,-2.31,0.21,-20.9675,-46.9231,20.6551,1023.33
726308,0.406504,9.82783,-0.310856,1.75,-2.66,0.35,-21.1418,-47.2932,19.7685,1023.35
726314,0.396939,9.79436,-0.306074,1.12,-2.17,0,-21.1418,-43.6541,21.1723,1023.35
726320,0.37781,9.80392,-0.267814,1.68,-2.1,0.21,-20.212,-45.6895,19.931,1023.33
726326,0.349115,9.82783,-0.301291,1.33,-2.59,0.42,-20.7931,-47.4474,20.3743,1023.33
726332,0.368245,9.79914,-0.296509,1.47,-2.87,0.07,-20.4444,-43.8083,19.207,1023.36
726338,0.353898,9.81827,-0.286944,1.61,-2.52,0.28,-20.3863,-43.6541,20.5517,1023.36
726344,0.363462,9.81827,-0.296509,1.12,-2.66,0.07,-20.9384,-47.2007,18.4534,1023.36
726350,0.368245,9.79914,-0.320421,1.47,-2.52,0.07,-20.1829,-45.9671,18.2613,1023.37
726356,0.392157,9.81827,-0.277379,1.33,-1.96,0.7,-19.8052,-43.1607,20.9211,1023.37
726362,0.387374,9.82783,-0.306074,1.54,-2.52,0.28,-21.0546,-46.5222,20.5369,1023.35
726368,0.406504,9.8087,-0.315638,1.47,-2.52,0.21,-20.8512,-47.1698,19.1922,1023.35
726374,0.368245,9.80392,-0.282162,1.33,-2.38,0.49,-20.6478,-42.8831,19.9015,1023.36
726380,0.373027,9.78957,-0.282162,1.26,-2.8,0.28,-20.1248,-44.9494,19.7094,1023.36
726386,0.373027,9.84218,-0.296509,1.05,-2.45,0.35,-20.5316,-47.5399,18.9854,1023.35
726392,0.387374,9.82783,-0.320421,1.33,-2.45,0.56,-21.1418,-45.1961,19.5616,1023.35
726398,0.37781,9.79914,-0.277379,1.33,-2.24,0.14,-20.2701,-44.3326,20.6255,1023.35
726404,0.392157,9.78001,-0.277379,1.47,-2.73,0.21,-21.0256,-46.8923,19.5469,1023.35
726410,0.411286,9.8087,-0.23912,1.4,-2.52,0.07,-20.6769,-45.8129,19.3104,1023.35
726416,0.373027,9.78957,-0.392157,1.82,-2.66,0.07,-19.8052,-43.5924,20.1675,1023.34
726422,0.396939,9.94739,-0.406504,0.77,-2.8,0.07,-20.5025,-46.9848,19.2218,1023.34
726428,0.373027,9.74653,-0.21999,1.19,-1.75,0.21,-20.4444,-46.6147,19.0592,1023.37
726434,0.301291,9.7561,-0.172166,1.33,-2.8,0.14,-20.6188,-42.8831,19.6355,1023.37
726440,0.411286,9.80392,-0.310856,1.89,-2.59,0,-20.0958,-44.8877,19.34,1023.37
726446,0.396939,9.78957,-0.306074,1.54,-2.38,0.14,-20.212,-48.2801,18.0101,1023.37
726452,0.349115,9.79436,-0.306074,1.4,-2.87,0.84,-21.1418,-43.9934,19.2513,1023.37
726458,0.373027,9.81827,-0.301291,1.61,-2.73,0.28,-20.7059,-44.055,19.1627,1023.38
726464,0.334768,9.81349,-0.296509,1.33,-2.59,0.42,-21.1709,-47.4166,18.7489,1023.38
726470,0.387374,9.82305,-0.368245,1.4,-2.59,0.28,-20.7931,-46.3372,18.8819,1023.36
726476,0.368245,9.81827,-0.329986,1.33,-2.59,0.42,-21.1709,-43.87,20.197,1023.36
726482,0.373027,9.81349,-0.306074,1.54,-2.73,0.42,-20.6769,-46.3989,20.2561,1023.36
726488,0.368245,9.82783,-0.248685,1.47,-2.45,0.42,-21.1418,-46.7381,19.3991,1023.36
726494,0.387374,9.78001,-0.291726,1.54,-2.66,0.63,-21.0546,-43.4999,20.9211,1023.36
726500,0.387374,9.79436,-0.263032,1.19,-2.45,-0.07,-20.5025,-45.4737,20.9654,1023.36
726506,0.396939,9.78957,-0.320421,1.47,-2.73,0.35,-20.9675,-48.1876,19.6355,1023.37
726512,0.420851,9.87566,-0.320421,1.12,-2.45,0.21,-20.8803,-44.2709,20.1675,1023.37
726518,0.430416,9.80392,-0.315638,1.19,-2.1,-0.14,-20.735,-44.4868,20.5664,1023.37
726524,0.325203,9.84218,-0.286944,1.47,-2.87,0.21,-21.5195,-46.8615,19.0149,1023.35
726530,0.439981,9.85653,-0.291726,1.75,-2.45,0.14,-21.229,-45.7821,19.4878,1023.35
726536,0.37781,9.79914,-0.306074,0.98,-2.03,-0.21,-20.3573,-42.6981,19.207,1023.37
726542,0.344333,9.83261,-0.25825,1.47,-2.45,0,-20.8803,-45.9363,20.6403,1023.37
726548,0.387374,9.82783,-0.301291,1.26,-2.94,0.07,-21.1999,-46.7998,18.483,1023.36
726554,0.344333,9.79914,-0.286944,1.47,-2.52,0.21,-20.5897,-42.7906,21.1132,1023.36
726560,0.37781,9.78957,-0.267814,1.68,-1.89,-0.14,-20.9675,-44.7952,19.7537,1023.36
726566,0.349115,9.79436,-0.306074,1.89,-2.66,0.28,-21.258,-47.1698,19.1331,1023.36
726572,0.368245,9.86131,-0.291726,1.26,-2.38,0.21,-20.0667,-43.685,20.0049,1023.36
726578,0.368245,9.79436,-0.296509,1.05,-2.59,0.56,-20.3863,-44.0242,21.1575,1023.39
726584,0.344333,9.78479,-0.282162,1.61,-2.52,0,-21.1999,-47.8483,18.941,1023.39
726590,0.35868,9.79436,-0.272597,1.54,-2.8,0.56,-20.7931,-45.6279,19.5616,1023.38
726596,0.363462,9.78957,-0.267814,1.61,-2.45,0.63,-20.7931,-42.9448,20.9654,1023.38
726602,0.416069,9.83261,-0.296509,1.4,-2.66,0.28,-21.0546,-46.6147,20.6403,1023.34
726608,0.392157,9.82783,-0.306074,1.26,-2.17,0.28,-21.4324,-46.8615,19.0001,1023.34
726614,0.344333,9.79914,-0.263032,1.68,-2.94,0.14,-20.7641,-43.4691,19.8128,1023.36
726620,0.387374,9.82305,-0.25825,1.47,-2.52,0.49,-20.8512,-44.9494,19.6207,1023.36
726626,0.373027,9.84696,-0.301291,1.68,-2.31,0.28,-20.5025,-46.9848,19.4878,1023.36
726632,0.37781,9.81349,-0.296509,1.19,-2.59,0.77,-20.241,-44.6101,19.4286,1023.34
726638,0.392157,9.81349,-0.315638,1.4,-2.8,0.49,-20.1248,-44.2709,20.1527,1023.34
726644,0.35868,9.81349,-0.25825,1.33,-2.73,0.07,-20.5607,-46.6764,19.3991,1023.38
726650,0.396939,9.81349,-0.286944,1.75,-3.01,0.21,-20.8512,-45.3811,19.6946,1023.38
726656,0.406504,9.81827,-0.306074,1.54,-2.38,0.63,-19.9795,-43.0682,20.8472,1023.35
726662,0.387374,9.82305,-0.310856,1.19,-1.82,-0.07,-20.8512,-45.9671,20.8324,1023.35
726668,0.37781,9.82305,-0.267814,1.61,-2.8,-0.21,-20.7059,-46.183,19.4582,1023.38
726674,0.368245,9.79914,-0.306074,1.61,-2.52,-17.5,-20.8803,-43.3457,20.6108,1023.38
726680,0.406504,9.82305,-0.277379,1.75,-2.45,0.49,-20.8803,-44.3943,21.187,1023.39
726686,0.329986,9.8087,-0.296509,1.61,-2.87,0.77,-20.8803,-47.2624,19.6207,1023.39
726692,0.382592,9.84696,-0.306074,1.61,-2.1,0,-20.735,-44.1167,20.4187,1023.39
726698,0.368245,9.78957,-0.296509,1.61,-2.66,-0.14,-20.0958,-44.055,21.3053,1023.33
726704,0.37781,9.82305,-0.25825,1.33,-2.94,0.14,-19.7471,-46.5531,20.1379,1023.33
726710,0.373027,9.80392,-0.277379,1.47,-2.45,0.28,-20.3282,-45.5353,18.5716,1023.37
726716,0.406504,9.79436,-0.286944,1.61,-2.59,0.77,-20.735,-42.8831,20.1084,1023.37
726722,0.387374,9.80392,-0.263032,2.03,-2.73,0.49,-20.4154,-45.597,20.5073,1023.38
726728,0.373027,9.81827,-0.296509,1.4,-2.45,0.21,-21.6067,-46.7689,18.6159,1023.38
726734,0.368245,9.83261,-0.282162,1.47,-2.59,0.42,-20.8222,-43.1298,19.34,1023.38
726740,0.401722,9.82783,-0.267814,1.75,-2.8,0.63,-20.7059,-44.7643,20.4187,1023.38
726746,0.353898,9.82305,-0.291726,1.89,-3.08,0.07,-21.0837,-47.7866,19.4286,1023.38
726752,0.373027,9.8087,-0.310856,1.96,-2.66,0.49,-20.4154,-44.5793,19.6355,1023.34
726758,0.425634,9.78001,-0.267814,1.89,-2.52,0.63,-21.1709,-43.4691,20.8472,1023.34
726764,0.37781,9.8087,-0.243902,1.96,-2.38,-0.28,-20.4444,-47.0773,18.941,1023.36
726770,0.396939,9.81827,-0.296509,1.89,-2.8,0.35,-19.8342,-45.6279,19.0149,1023.36
726776,0.373027,9.84696,-0.325203,1.68,-2.59,0.56,-20.1539,-43.2532,19.2661,1023.36
726782,0.396939,9.84218,-0.301291,1.68,-2.8,0.21,-20.1539,-46.0596,18.9115,1023.36
726788,0.387374,9.81349,-0.23912,1.61,-2.66,0.14,-21.6358,-47.0773,19.5912,1023.35
726794,0.401722,9.81827,-0.291726,1.89,-2.66,0.28,-20.6478,-43.4382,19.2957,1023.35
726800,0.387374,9.85653,-0.306074,1.47,-2.38,0,-20.5316,-45.1961,19.7242,1023.35
726806,0.368245,9.85174,-0.282162,1.75,-2.87,-0.07,-20.9675,-47.4782,18.8376,1023.37
726812,0.392157,9.80392,-0.263032,1.82,-2.52,-0.07,-20.9093,-45.4737,20.1527,1023.37
726818,0.382592,9.81349,-0.263032,1.68,-3.08,0.21,-20.6478,-44.1167,20.729,1023.31
726824,0.344333,9.8087,-0.243902,1.89,-2.59,0.63,-21.258,-47.7558,20.3891,1023.31
726830,0.37781,9.81827,-0.291726,1.54,-2.73,0.42,-20.8803,-46.0288,19.5912,1023.35
726836,0.363462,9.8087,-0.301291,2.45,-3.08,0.49,-20.2991,-43.1915,20.2709,1023.35
726842,0.430416,9.80392,-0.296509,1.54,-2.52,0.56,-20.2991,-46.7689,20.2709,1023.34
726848,0.392157,9.8374,-0.306074,1.68,-2.8,0.42,-20.4735,-46.954,19.3548,1023.34
726854,0.420851,9.81349,-0.315638,1.61,-3.01,0.07,-20.5607,-43.685,20.3891,1023.37
726860,0.425634,9.85174,-0.320421,1.61,-2.8,0.84,-20.6188,-44.5793,19.5616,1023.37
726866,0.416069,9.8087,-0.320421,1.75,-2.38,0.14,-20.1539,-48.0642,19.5912,1023.37
726872,0.368245,9.83261,-0.25825,1.54,-2.73,0,-20.4444,-44.6101,20.3448,1023.38
726878,0.401722,9.82305,-0.277379,1.61,-2.8,-0.07,-20.5897,-45.0727,20.6108,1023.38
726884,0.396939,9.81827,-0.286944,1.47,-2.94,0,-21.1709,-47.6324,20.5517,1023.35
726890,0.396939,9.82305,-0.291726,1.54,-2.59,0.21,-20.0958,-46.2447,19.3548,1023.35
726896,0.382592,9.78479,-0.263032,1.75,-2.38,0.14,-20.3282,-43.3149,20.5517,1023.34
726902,0.368245,9.83261,-0.277379,1.89,-2.87,-0.21,-20.8512,-45.5662,20.197,1023.34
726908,0.396939,9.78479,-0.282162,1.82,-2.87,0.35,-20.5025,-46.3063,19.5764,1023.31
726914,0.396939,9.8087,-0.301291,1.54,-2.73,0.28,-20.6769,-43.9008,19.8867,1023.31
726920,0.35868,9.80392,-0.291726,2.1,-2.52,-0.14,-20.7931,-44.7027,19.1183,1023.31
726926,0.373027,9.80392,-0.291726,1.68,-2.73,-0.07,-20.5607,-47.5399,18.7933,1023.34
726932,0.334768,9.81349,-0.263032,1.68,-2.31,0.42,-21.1418,-44.7027,20.2709,1023.34
726938,0.368245,9.81349,-0.291726,1.54,-2.73,0.21,-20.2701,-43.5308,19.5912,1023.38
726944,0.353898,9.8087,-0.282162,1.68,-3.01,17.71,-20.7059,-46.5222,18.5716,1023.38
726950,0.382592,9.80392,-0.277379,1.68,-2.8,-0.28,-20.8803,-46.3989,18.7489,1023.35
726956,0.387374,9.82305,-0.282162,1.68,-2.52,0.28,-20.0086,-42.8523,20.4187,1023.35
726962,0.406504,9.8087,-0.277379,1.75,-2.87,0.63,-20.9384,-46.6456,20.1822,1023.33
726968,0.396939,9.85174,-0.286944,1.68,-2.38,0.42,-21.0837,-46.6147,19.3104,1023.33
726974,0.406504,9.81349,-0.306074,1.68,-2.03,0.14,-20.7059,-44.1784,19.2366,1023.33
726980,0.392157,9.81349,-0.277379,1.61,-2.38,0.49,-20.1248,-44.7335,19.9754,1023.37
726986,0.396939,9.84218,-0.296509,1.75,-2.73,0.21,-21.1999,-48.3726,19.5616,1023.37
726992,0.425634,9.8087,-0.296509,1.68,-2.45,0,-20.9675,-45.4428,19.2218,1023.38
726998,0.406504,9.81827,-0.272597,1.33,-2.38,-0.07,-20.5607,-43.9934,20.463,1023.38
727004,0.382592,9.82783,-0.277379,1.61,-2.8,0.42,-20.4154,-47.0773,18.7342,1023.33
727010,0.368245,9.80392,-0.306074,1.4,-2.59,0.14,-20.6478,-46.2138,18.35,1023.33
727016,0.387374,9.81827,-0.301291,1.33,-2.73,0.14,-19.7761,-43.4691,21.0836,1023.36
727022,0.411286,9.86131,-0.310856,1.54,-2.59,-0.14,-21.0546,-46.7073,20.3743,1023.36
727028,0.37781,9.83261,-0.315638,1.26,-2.24,0.14,-21.258,-47.0157,19.0297,1023.38
727034,0.35868,9.79436,-0.315638,1.82,-2.66,-0.28,-20.9384,-44.1784,19.9015,1023.38
727040,0.396939,9.8374,-0.291726,1.61,-3.08,0.35,-21.0256,-44.5485,20.2709,1023.38
727046,0.411286,9.84696,-0.286944,1.61,-2.1,0.07,-20.8803,-47.9408,19.7537,1023.33
727052,0.406504,9.82783,-0.272597,1.54,-2.45,-0.21,-20.9675,-44.3018,20.1527,1023.33
727058,0.363462,9.79914,-0.306074,2.03,-2.66,0.42,-19.7471,-43.7158,19.5321,1023.36
727064,0.387374,9.80392,-0.291726,1.47,-2.59,0.21,-20.5316,-47.2624,18.6603,1023.36
727070,0.35868,9.81349,-0.277379,1.54,-2.73,0.42,-21.6067,-45.9671,19.074,1023.39
727076,0.401722,9.87087,-0.277379,1.4,-2.52,0.56,-20.4735,-43.4382,21.1427,1023.39
727082,0.411286,9.74653,-0.253467,1.47,-2.45,0.84,-21.2871,-46.4297,19.207,1023.4
727088,0.35868,9.84696,-0.248685,1.33,-2.66,0.35,-21.258,-47.139,18.9263,1023.4
727094,0.454328,9.85174,-0.334768,1.47,-2.31,0.07,-21.1709,-44.2401,19.4286,1023.4
727100,0.401722,9.82783,-0.310856,0.98,-2.31,0.07,-21.1709,-44.6718,20.6108,1023.36
727106,0.416069,9.82305,-0.282162,1.33,-2.73,0.49,-20.9675,-47.0773,19.6355,1023.36
727112,0.411286,9.80392,-0.286944,1.47,-2.24,0.14,-20.3863,-44.5176,18.8819,1023.34
727118,0.382592,9.8374,-0.310856,1.26,-1.82,-0.07,-21.0837,-43.3766,20.6551,1023.34
727124,0.387374,9.82783,-0.291726,1.12,-2.1,0.07,-21.2871,-47.5708,18.6751,1023.37
727130,0.373027,9.81349,-0.277379,1.33,-2.73,0.28,-20.8803,-45.4428,19.1775,1023.37
727136,0.392157,9.8087,-0.272597,0.91,-2.24,0,-20.7059,-42.4205,20.197,1023.31
727142,0.392157,9.78001,-0.291726,1.47,-2.59,-0.21,-20.5897,-46.3063,19.5912,1023.31
727148,0.401722,9.76566,-0.282162,1.47,-2.52,-0.21,-21.6358,-47.4474,19.3548,1023.31
727154,0.382592,9.8087,-0.267814,1.54,-2.73,0.28,-20.212,-43.4999,20.8767,1023.35
727160,0.406504,9.79914,-0.286944,1.61,-2.24,0.28,-20.241,-44.6718,20.3743,1023.35
727166,0.382592,9.79914,-0.301291,1.12,-2.38,0.42,-21.0256,-48.4343,18.3204,1023.35
727172,0.401722,9.84696,-0.296509,1.12,-2.87,0.28,-21.0256,-44.2092,20.0788,1023.35
727178,0.387374,9.79914,-0.25825,1.68,-2.94,0.56,-20.735,-43.4074,20.862,1023.37
727184,0.392157,9.84218,-0.296509,1.54,-2.17,0.07,-21.0256,-46.7073,19.6651,1023.37
727190,0.392157,9.82305,-0.301291,1.33,-2.59,0.49,-20.7059,-46.0596,20.0936,1023.36
727196,0.401722,9.82783,-0.306074,1.61,-2.66,0.42,-20.5897,-43.3149,20.0936,1023.36
727202,0.387374,9.78001,-0.301291,1.05,-2.24,0.21,-20.8803,-46.4605,20.2118,1023.36
727208,0.373027,9.8374,-0.272597,1.4,-2.45,-0.07,-21.0837,-47.2932,19.5025,1023.36
727214,0.401722,9.8374,-0.301291,1.61,-2.45,0.14,-20.3573,-43.8083,19.7833,1023.36
727220,0.392157,9.8374,-0.310856,1.47,-2.31,0.07,-19.718,-45.0727,20.3743,1023.36
727226,0.406504,9.84696,-0.325203,1.61,-2.38,0.07,-21.3161,-48.0642,20.0788,1023.36
727232,0.416069,9.81349,-0.329986,1.26,-2.45,-0.21,-20.735,-45.2269,19.7242,1023.38
727238,0.401722,9.82305,-0.296509,1.12,-2.45,-0.14,-20.1829,-43.87,20.6846,1023.38
727244,0.401722,9.79436,-0.25825,1.47,-2.59,0.21,-20.1829,-47.1082,19.0001,1023.34
727250,0.37781,9.79436,-0.25825,1.05,-2.03,0,-20.5607,-46.6456,19.5912,1023.34
727256,0.396939,9.86131,-0.301291,1.54,-2.66,0.28,-20.8222,-43.1298,19.8572,1023.38
727262,0.392157,9.8374,-0.33955,1.26,-2.38,-0.07,-20.5025,-46.7998,20.9358,1023.38
727268,0.334768,9.79436,-0.23912,1.47,-2.59,0.28,-21.1418,-47.0157,19.739,1023.38
727274,0.349115,9.76566,-0.23912,1.19,-2.66,0.56,-20.6188,-43.0373,20.4482,1023.35
727280,0.373027,9.8374,-0.263032,1.54,-2.73,0.07,-20.4444,-45.0727,19.9606,1023.35
727286,0.382592,9.80392,-0.286944,1.68,-2.87,0.07,-20.9384,-47.9717,20.6994,1023.41
727292,0.373027,9.8087,-0.263032,1.68,-2.52,0.35,-20.6478,-45.2269,19.2809,1023.41
727298,0.363462,9.81827,-0.291726,1.75,-2.31,0.14,-19.3984,-44.1784,19.4878,1023.35
727304,0.387374,9.84218,-0.320421,1.89,-2.59,0.28,-20.3573,-47.6016,19.1922,1023.35
727310,0.420851,9.82305,-0.315638,1.26,-2.66,0.35,-21.0256,-46.6764,19.5912,1023.35
727316,0.382592,9.82305,-0.291726,1.61,-3.08,0,-20.0667,-42.914,20.3891,1023.35
727322,0.363462,9.81349,-0.282162,1.47,-2.66,0.84,-19.9505,-46.183,21.3348,1023.35
727328,0.37781,9.78479,-0.25825,1.68,-2.59,0.07,-20.5025,-47.6016,19.473,1023.36
727334,0.416069,9.80392,-0.310856,1.61,-2.31,0.07,-20.7641,-43.4691,21.0541,1023.36
727340,0.444763,9.83261,-0.329986,1.61,-2.31,0.35,-21.1999,-44.6718,19.9902,1023.38
727346,0.396939,9.83261,-0.306074,1.33,-2.31,0.07,-20.6769,-46.9231,18.4386,1023.38
727352,0.363462,9.8087,-0.286944,1.75,-2.31,0.21,-20.0376,-43.87,19.9606,1023.37
727358,0.368245,9.78001,-0.25825,1.75,-2.73,-0.21,-20.3863,-43.1607,20.5369,1023.37
727364,0.416069,9.83261,-0.291726,1.54,-2.52,-0.07,-20.6478,-46.1521,19.1922,1023.35
727370,0.401722,9.84696,-0.301291,1.4,-2.52,0.07,-20.9965,-45.9363,18.3943,1023.35
727376,0.373027,9.78479,-0.253467,1.68,-2.31,0.14,-20.1829,-42.914,19.9606,1023.38
727382,0.349115,9.77523,-0.263032,2.03,-2.73,0.07,-20.6188,-45.8129,20.8176,1023.38
727388,0.37781,9.82783,-0.277379,2.03,-2.73,0.35,-20.9965,-47.1082,19.8276,1023.38
727394,0.37781,9.80392,-0.291726,1.68,-2.59,0.14,-20.3863,-43.1915,19.7242,1023.37
727400,0.353898,9.8087,-0.306074,1.89,-2.94,-0.28,-21.3452,-43.9317,20.4482,1023.37
727406,0.35868,9.81827,-0.291726,1.96,-2.66,0.91,-20.9675,-47.3549,20.6551,1023.36
727412,0.368245,9.79914,-0.263032,1.75,-2.45,0.63,-20.9093,-44.0859,20.5073,1023.36
727418,0.401722,9.80392,-0.25825,1.89,-2.59,0.77,-20.1248,-42.9756,21.1427,1023.37
727424,0.406504,9.83261,-0.296509,1.82,-2.73,0.21,-20.8222,-46.8306,19.5616,1023.37
727430,0.387374,9.84696,-0.291726,1.89,-2.59,0,-21.5776,-45.7512,19.9015,1023.36
727436,0.392157,9.8374,-0.306074,1.26,-2.24,0.56,-20.6769,-43.6233,20.8029,1023.36
727442,0.396939,9.81827,-0.306074,1.89,-3.01,0.63,-20.3863,-45.9979,19.7981,1023.36
727448,0.406504,9.82783,-0.310856,1.4,-2.66,0.14,-21.229,-47.4782,19.2513,1023.39
727454,0.416069,9.8087,-0.301291,1.47,-2.94,0.28,-21.1418,-43.6233,20.3891,1023.39
727460,0.396939,9.81349,-0.296509,1.54,-3.22,0.63,-20.9384,-44.9494,20.4778,1023.36
727466,0.420851,9.81827,-0.23912,1.68,-2.66,-0.07,-20.9675,-47.2624,19.4434,1023.36
727472,0.435198,9.78957,-0.282162,1.96,-2.87,-0.49,-21.6939,-45.3503,18.5716,1023.39
727478,0.435198,9.81827,-0.272597,1.82,-2.73,-0.21,-21.4324,-43.4074,19.606,1023.39
727484,0.416069,9.79914,-0.301291,1.4,-2.24,-0.07,-21.3742,-46.4297,20.3743,1023.38
727490,0.329986,9.86609,-0.277379,1.26,-2.52,0,-21.6648,-45.9054,19.5321,1023.38
727496,0.411286,9.69392,-0.229555,1.96,-2.1,0.21,-20.6188,-43.0373,20.1231,1023.38
727502,0.325203,9.84218,-0.248685,1.61,-2.59,0.07,-21.1999,-46.3063,20.6551,1023.39
727508,0.444763,9.83261,-0.373027,1.68,-2.73,-0.35,-21.3742,-47.0157,18.3352,1023.39
727514,0.310856,9.88522,-0.353898,1.19,-2.73,0.35,-20.9675,-43.685,19.7981,1023.36
727520,0.363462,9.6461,-0.172166,1.75,-2.59,0.35,-20.9965,-44.3018,20.6403,1023.36
727526,0.35868,9.78957,-0.248685,2.38,-3.01,0.21,-21.1127,-47.7558,20.3596,1023.37
727532,0.387374,9.82305,-0.353898,2.17,-2.8,0.42,-21.229,-45.5045,20.1822,1023.37
727538,0.416069,9.82783,-0.315638,1.75,-2.66,0.35,-21.5776,-44.3018,21.4382,1023.36
727544,0.363462,9.8374,-0.315638,1.54,-2.8,0.49,-21.1418,-46.8923,18.2613,1023.36
727550,0.387374,9.79914,-0.325203,1.33,-3.15,0.42,-21.2871,-45.597,19.606,1023.39
727556,0.368245,9.80392,-0.272597,2.03,-2.73,0.49,-20.2991,-43.5308,20.2414,1023.39
727562,0.363462,9.8374,-0.310856,2.1,-2.8,0.35,-20.9384,-45.5353,18.9263,1023.39
727568,0.416069,9.83261,-0.301291,1.19,-2.38,0.42,-20.8512,-47.2624,19.2366,1023.38
727574,0.406504,9.8374,-0.296509,1.82,-3.01,-0.14,-22.6527,-45.0727,20.0936,1023.38
727580,0.416069,9.82305,-0.282162,1.54,-2.66,0.42,-20.6188,-44.5176,20.0197,1023.39
727586,0.416069,9.82305,-0.267814,1.68,-2.45,0,-21.1418,-47.139,19.8128,1023.39
727592,0.406504,9.81349,-0.296509,1.19,-2.8,-0.28,-21.4033,-45.2269,19.2661,1023.32
727598,0.396939,9.81349,-0.301291,1.75,-2.8,0.07,-20.6188,-43.9625,21.8815,1023.32
727604,0.401722,9.81827,-0.301291,1.26,-2.1,0,-20.5897,-46.6764,19.3548,1023.36
727610,0.373027,9.79436,-0.282162,1.33,-2.31,-0.14,-20.3863,-46.3989,18.8671,1023.36
727616,0.344333,9.79914,-0.296509,1.75,-2.66,0,-21.229,-42.8831,19.931,1023.36
727622,0.373027,9.81349,-0.320421,1.4,-2.66,0.14,-20.4154,-45.5353,20.8915,1023.36
727628,0.37781,9.82305,-0.291726,1.89,-2.73,0.42,-21.1127,-46.8306,19.7094,1023.36
727634,0.406504,9.85653,-0.310856,0.91,-2.24,0,-20.3282,-43.7775,20.2561,1023.37
727640,0.406504,9.81349,-0.296509,1.47,-2.03,0.28,-20.4735,-44.4868,19.074,1023.37
727646,0.37781,9.8374,-0.286944,1.33,-2.52,0.63,-20.7641,-47.3549,18.941,1023.38
727652,0.35868,9.8087,-0.310856,1.4,-2.45,0.28,-20.0958,-45.2886,20.3596,1023.38
727658,0.387374,9.82783,-0.315638,1.33,-2.1,0,-20.1829,-43.6541,20.7585,1023.36
727664,0.382592,9.80392,-0.286944,1.19,-2.1,0.21,-20.735,-45.7821,20.0493,1023.36
727670,0.406504,9.81349,-0.325203,1.47,-2.8,0.28,-21.5486,-46.5531,21.1132,1023.36
727676,0.353898,9.82783,-0.277379,1.33,-2.87,0.28,-20.7931,-43.0682,19.7833,1023.37
727682,0.449546,9.8087,-0.334768,1.4,-2.94,-0.35,-20.6769,-45.7512,20.463,1023.37
727688,0.439981,9.84218,-0.353898,1.05,-2.73,-0.35,-21.8682,-46.9231,18.2465,1023.33
727694,0.416069,9.81827,-0.325203,1.33,-2.17,-0.42,-21.1999,-43.4382,20.5073,1023.33
727700,0.406504,9.83261,-0.286944,1.05,-2.03,0.07,-19.9214,-44.055,21.1132,1023.34
727706,0.396939,9.81349,-0.296509,1.33,-2.17,-0.49,-21.2871,-46.7381,19.8128,1023.34
727712,0.392157,9.78479,-0.282162,1.26,-2.38,-0.63,-21.1127,-45.412,20.7733,1023.35
727718,0.37781,9.80392,-0.296509,1.47,-2.59,-0.21,-20.5025,-43.4074,21.3644,1023.35
727724,0.349115,9.82305,-0.325203,1.26,-2.52,0,-20.9384,-46.954,19.7981,1023.38
727730,0.368245,9.77044,-0.277379,1.4,-2.45,-0.07,-20.6188,-45.9363,19.0888,1023.38
727736,0.368245,9.79914,-0.277379,1.61,-2.73,-0.07,-20.241,-43.0373,21.5417,1023.38
727742,0.387374,9.79914,-0.306074,1.68,-2.38,0.07,-21.0546,-45.0111,20.3448,1023.35
727748,0.373027,9.79436,-0.291726,1.47,-2.38,0.14,-21.6067,-46.7073,19.2218,1023.35
727754,0.368245,9.80392,-0.291726,1.26,-2.8,-17.57,-20.5025,-43.5308,20.2266,1023.36
727760,0.353898,9.82783,-0.310856,1.68,-2.8,0.42,-21.1127,-43.6541,19.7242,1023.36
727766,0.368245,9.81827,-0.291726,1.47,-2.38,0.63,-21.3742,-46.9231,19.2661,1023.36
727772,0.373027,9.84218,-0.315638,1.4,-2.31,0,-21.0546,-45.4737,18.9854,1023.36
727778,0.392157,9.81349,-0.296509,1.4,-2.31,-0.07,-20.4444,-43.4691,20.3005,1023.34
727784,0.420851,9.79914,-0.267814,1.61,-2.31,0.63,-21.5195,-46.3372,17.9658,1023.34
727790,0.416069,9.81349,-0.329986,1.54,-2.66,0.07,-20.9384,-46.5839,18.6307,1023.34
727796,0.396939,9.85653,-0.310856,1.47,-2.8,-0.07,-20.7931,-42.7289,20.9063,1023.33
727802,0.353898,9.8087,-0.272597,1.4,-2.94,0.21,-21.4324,-46.0596,19.9754,1023.33
727808,0.411286,9.79914,-0.282162,1.4,-2.45,-0.28,-21.4614,-47.4782,19.5469,1023.39
727814,0.406504,9.84218,-0.329986,2.03,-2.31,0.21,-21.1418,-44.3326,20.0197,1023.39
727820,0.406504,9.82783,-0.353898,1.47,-2.24,0.14,-20.0667,-44.1476,20.0936,1023.39
727826,0.416069,9.81349,-0.310856,1.68,-2.17,-0.14,-21.4033,-48.866,20.596,1023.39
727832,0.334768,9.76566,-0.263032,1.4,-2.73,-0.07,-20.9965,-45.2886,20.8324,1023.35
727838,0.392157,9.77523,-0.272597,1.68,-2.87,-0.56,-20.2991,-43.7158,20.4482,1023.35
727844,0.35868,9.84218,-0.272597,1.54,-2.45,0,-20.9965,-47.0773,19.931,1023.35
727850,0.373027,9.79914,-0.286944,1.89,-2.94,0.77,-21.2871,-46.8923,17.7737,1023.35
727856,0.363462,9.81349,-0.320421,1.54,-2.8,0.07,-21.0256,-43.1607,21.5121,1023.35
727862,0.37781,9.81349,-0.296509,1.54,-2.45,-0.07,-21.6648,-45.8746,20.4926,1023.36
727868,0.37781,9.79914,-0.296509,1.4,-2.66,0.63,-20.9675,-46.954,19.8424,1023.36
727874,0.373027,9.78001,-0.301291,1.75,-2.73,0.28,-21.0837,-43.8392,19.8867,1023.36
727880,0.392157,9.81349,-0.315638,1.54,-2.31,0.14,-20.6478,-44.2709,20.5812,1023.36
727886,0.363462,9.82783,-0.277379,1.4,-2.24,0.28,-21.0546,-47.6016,19.7094,1023.37
727892,0.416069,9.8374,-0.325203,1.47,-2.59,-0.07,-20.3573,-45.1036,20.4926,1023.37
727898,0.396939,9.81349,-0.35868,1.05,-2.8,0.49,-21.1127,-43.1607,20.9654,1023.36
727904,0.35868,9.81349,-0.291726,1.4,-2.45,0.07,-20.6769,-46.9231,19.6355,1023.36
727910,0.363462,9.79436,-0.291726,1.26,-2.24,0.07,-20.8803,-46.7073,18.808,1023.36
727916,0.411286,9.81827,-0.286944,1.47,-2.52,-0.07,-20.4444,-43.0373,20.9506,1023.38
727922,0.411286,9.82783,-0.310856,1.47,-2.73,0,-21.0256,-46.5531,20.7142,1023.38
727928,0.387374,9.81827,-0.301291,1.4,-2.38,0.14,-21.0256,-47.3857,19.3548,1023.37
727934,0.353898,9.79914,-0.267814,1.54,-2.66,-0.07,-20.8803,-43.4691,19.9015,1023.37
727940,0.401722,9.79436,-0.286944,1.75,-2.59,-0.07,-20.9675,-45.4428,20.197,1023.39
727946,0.439981,9.79914,-0.310856,1.68,-1.89,-0.28,-21.4033,-47.5708,19.9754,1023.39
727952,0.33955,9.89,-0.382592,1.54,-2.8,-0.14,-21.1418,-45.0419,19.6207,1023.38
727958,0.420851,9.79914,-0.353898,0.84,-2.03,-0.28,-20.9384,-43.284,20.197,1023.38
727964,0.334768,9.74175,-0.234338,1.47,-2.52,0.07,-21.5195,-47.0773,19.7242,1023.38
727970,0.353898,9.78001,-0.21999,1.75,-2.87,0,-21.752,-46.5531,19.4878,1023.38
727976,0.401722,9.77523,-0.286944,1.75,-2.52,-0.28,-20.8222,-43.0065,22.0441,1023.38
727982,0.334768,9.85653,-0.315638,1.68,-2.59,0.42,-20.8803,-45.6895,20.33,1023.35
727988,0.368245,9.82783,-0.282162,1.47,-2.8,0.28,-21.3161,-47.5708,19.6651,1023.35
727994,0.37781,9.79914,-0.291726,1.68,-2.45,-0.14,-20.5607,-43.87,20.9211,1023.37
728000,0.368245,9.82783,-0.286944,1.54,-2.59,0.21,-21.1418,-44.826,19.7094,1023.37
728006,0.392157,9.80392,-0.301291,1.82,-2.8,0.49,-21.229,-47.5708,20.1379,1023.37
728012,0.373027,9.81349,-0.306074,1.68,-2.66,0.21,-20.9384,-44.6718,19.7833,1023.37
728018,0.373027,9.82783,-0.306074,1.61,-2.87,0.28,-21.4033,-43.5308,20.2414,1023.37
728024,0.401722,9.81349,-0.306074,1.68,-2.45,0.28,-21.1999,-47.0773,21.3348,1023.35
728030,0.363462,9.82305,-0.315638,1.75,-3.08,0.21,-21.4905,-46.7998,20.0788,1023.35
728036,0.363462,9.79436,-0.277379,1.47,-2.52,0.84,-21.0256,-43.3766,22.1475,1023.32
728042,0.406504,9.81349,-0.315638,2.17,-2.87,0.28,-21.0837,-45.4737,20.1231,1023.32
728048,0.382592,9.79914,-0.291726,1.47,-2.73,-0.21,-20.9384,-46.6764,19.7981,1023.35
728054,0.392157,9.78001,-0.286944,1.4,-2.45,0.56,-20.3573,-43.7775,20.5221,1023.35
728060,0.416069,9.81349,-0.315638,1.96,-2.52,0.42,-20.3863,-44.0859,21.3644,1023.38
728066,0.387374,9.8374,-0.306074,1.89,-2.66,-0.35,-20.7931,-47.2007,20.6108,1023.38
728072,0.406504,9.80392,-0.325203,1.82,-2.45,0.07,-20.9384,-44.1167,20.1675,1023.37
728078,0.396939,9.80392,-0.296509,1.54,-2.73,0.49,-21.1999,-42.8523,21.0836,1023.37
728084,0.435198,9.8087,-0.306074,1.61,-2.59,0.42,-20.9093,-46.2447,20.3005,1023.37
728090,0.430416,9.85174,-0.320421,1.54,-3.01,-0.35,-20.8803,-46.6456,18.4091,1023.35
728096,0.396939,9.83261,-0.306074,1.75,-2.59,-0.28,-20.241,-43.7466,21.4973,1023.35
728102,0.382592,9.83261,-0.277379,1.47,-2.87,-0.35,-20.9675,-45.2886,19.7242,1023.37
728108,0.368245,9.79436,-0.291726,1.4,-2.52,0.42,-21.1999,-46.7381,18.5864,1023.37
728114,0.387374,9.82783,-0.325203,1.47,-2.59,-0.07,-21.5195,-43.4382,19.7242,1023.37
728120,0.387374,9.83261,-0.248685,1.61,-2.59,-0.14,-20.2701,-43.8392,20.1231,1023.37
728126,0.392157,9.80392,-0.310856,1.75,-2.8,0.35,-20.9965,-46.954,18.9558,1023.38
728132,0.387374,9.84696,-0.301291,1.47,-2.59,0.28,-20.7641,-44.7952,19.8424,1023.38
728138,0.401722,9.79436,-0.291726,1.4,-2.52,0.21,-21.1127,-43.6233,20.6551,1023.38
728144,0.37781,9.79914,-0.306074,1.12,-2.24,0.14,-20.5607,-47.4166,19.34,1023.38
728150,0.37781,9.83261,-0.344333,1.33,-2.87,-0.07,-21.7229,-47.139,19.1922,1023.38
728156,0.416069,9.78001,-0.272597,1.54,-2.73,-0.21,-20.6188,-43.099,20.5073,1023.35
728162,0.373027,9.81827,-0.301291,1.47,-2.52,-0.07,-20.6478,-45.5353,21.2905,1023.35
728168,0.439981,9.8087,-0.325203,1.12,-2.1,-0.21,-20.5607,-47.6633,18.4977,1023.35
728174,0.368245,9.79436,-0.310856,1.33,-2.52,0.56,-20.6188,-43.5924,20.5369,1023.35
728180,0.373027,9.79914,-0.25825,1.61,-2.87,-0.07,-20.6478,-44.7643,20.7585,1023.35
728186,0.387374,9.84218,-0.296509,1.4,-2.59,-0.35,-20.6188,-47.5399,20.3743,1023.35
728192,0.37781,9.8087,-0.306074,1.26,-2.45,-0.42,-20.9675,-44.7952,20.1379,1023.35
728198,0.35868,9.79914,-0.248685,1.26,-2.38,0.21,-19.9214,-43.7158,20.6994,1023.39
728204,0.37781,9.8087,-0.253467,1.47,-2.45,0.35,-21.258,-46.5222,19.6503,1023.39
728210,0.382592,9.79914,-0.267814,1.4,-2.45,0,-20.7931,-46.7381,19.3695,1023.35
728216,0.37781,9.79436,-0.296509,1.47,-2.52,-0.07,-20.5025,-42.9448,21.0984,1023.35
728222,0.349115,9.79436,-0.301291,1.96,-2.8,-0.07,-20.7059,-45.8129,20.4334,1023.35
728228,0.35868,9.81827,-0.282162,1.82,-2.8,0.21,-21.1999,-47.2624,19.0592,1023.35
728234,0.401722,9.84218,-0.296509,1.4,-2.31,0.7,-19.9214,-44.641,19.5173,1023.37
728240,0.37781,9.77523,-0.315638,1.89,-2.52,0,-21.0256,-43.9008,20.6699,1023.37
728246,0.37781,9.82305,-0.296509,1.19,-2.66,0.14,-21.4614,-46.2447,19.7981,1023.36
728252,0.368245,9.81349,-0.282162,1.61,-2.8,0.35,-20.5897,-44.826,18.6898,1023.36
728258,0.406504,9.83261,-0.320421,1.54,-2.66,0.35,-20.2701,-43.284,21.0393,1023.36
728264,0.396939,9.83261,-0.320421,1.82,-2.38,-0.07,-20.0667,-47.4782,20.0049,1023.37
728270,0.37781,9.80392,-0.296509,1.4,-2.24,0.14,-20.9675,-45.5662,21.3053,1023.37
728276,0.373027,9.79914,-0.306074,1.68,-2.52,0.14,-20.3573,-43.4382,20.9358,1023.39
728282,0.425634,9.82783,-0.320421,1.47,-2.52,0.35,-20.7931,-45.8437,20.5517,1023.39
728288,0.406504,9.82305,-0.315638,1.4,-2.52,-0.28,-20.735,-47.725,19.6651,1023.36
728294,0.334768,9.8087,-0.301291,1.19,-2.73,-17.85,-20.5897,-43.9008,21.5712,1023.36
728300,0.382592,9.81827,-0.25825,1.33,-3.08,0.42,-20.5025,-44.3326,21.5565,1023.38
728306,0.396939,9.78001,-0.272597,1.47,-2.45,0.49,-21.4033,-47.324,20.2414,1023.38
728312,0.406504,9.82783,-0.315638,1.4,-2.03,-0.21,-21.1127,-45.2578,19.5321,1023.38
728318,0.344333,9.78957,-0.263032,1.47,-2.24,0.07,-20.5897,-43.3149,20.9654,1023.38
728324,0.344333,9.79436,-0.291726,1.47,-2.66,0.28,-21.3161,-46.5222,19.8276,1023.38
728330,0.392157,9.79914,-0.263032,1.75,-2.31,0.28,-20.6769,-46.2755,19.1183,1023.35
728336,0.368245,9.82783,-0.296509,1.61,-2.73,-0.14,-20.0667,-43.4074,21.7781,1023.35
728342,0.37781,9.82783,-0.301291,1.61,-2.45,0.35,-20.8222,-45.4737,20.5073,1023.35
728348,0.37781,9.81827,-0.296509,1.82,-2.8,0.56,-19.8924,-47.1698,18.7342,1023.35
728354,0.382592,9.8087,-0.325203,1.33,-2.45,0.28,-20.5025,-44.1167,22.6056,1023.36
728360,0.368245,9.80392,-0.310856,1.68,-2.66,0.07,-20.212,-44.3943,21.5121,1023.36
728366,0.363462,9.80392,-0.286944,1.33,-2.73,0.14,-20.5025,-46.9231,20.3891,1023.36
728372,0.387374,9.79914,-0.33955,1.47,-2.87,0.35,-20.8222,-44.3018,19.074,1023.35
728378,0.363462,9.81827,-0.301291,1.54,-2.73,0.21,-20.6188,-43.0682,19.9015,1023.35
728384,0.454328,9.82305,-0.306074,1.47,-2.66,0.28,-20.3573,-45.9363,18.9263,1023.37
728390,0.416069,9.81827,-0.329986,2.03,-2.59,0.28,-20.4154,-46.7998,19.6355,1023.37
728396,0.373027,9.82305,-0.296509,1.33,-2.66,-0.14,-20.7059,-42.9448,20.1379,1023.38
728402,0.411286,9.8374,-0.296509,1.05,-2.31,0.28,-20.5025,-45.9979,20.6994,1023.38
728408,0.373027,9.81827,-0.310856,1.89,-2.8,0.14,-20.4444,-47.6016,18.8967,1023.36
728414,0.396939,9.83261,-0.301291,1.33,-2.8,-0.21,-20.4444,-44.4251,20.0345,1023.36
728420,0.373027,9.81827,-0.296509,1.19,-2.59,-0.07,-20.5897,-43.9625,20.6551,1023.37
728426,0.353898,9.81349,-0.301291,1.47,-2.73,0.28,-21.3452,-47.4474,20.5221,1023.37
728432,0.363462,9.82783,-0.286944,1.54,-2.45,0.14,-19.8924,-45.1961,19.2809,1023.37
728438,0.353898,9.8087,-0.301291,1.75,-2.59,0.14,-20.6188,-43.2224,20.1379,1023.39
728444,0.344333,9.82783,-0.272597,1.47,-2.52,0.14,-20.7059,-46.3372,19.1183,1023.39
728450,0.33955,9.79914,-0.267814,1.61,-2.24,0.21,-20.7641,-46.6456,19.5321,1023.38
728456,0.349115,9.80392,-0.310856,1.54,-2.31,0.35,-19.6599,-43.5308,21.0984,1023.38
728462,0.401722,9.82305,-0.267814,1.61,-2.17,0.14,-20.2701,-45.9671,19.6946,1023.36
728468,0.373027,9.82305,-0.277379,1.61,-2.38,0.28,-21.0837,-47.4474,18.4091,1023.36
728474,0.373027,9.81349,-0.310856,1.47,-2.8,0.35,-20.4735,-44.7335,19.3843,1023.34
728480,0.387374,9.79914,-0.320421,1.82,-2.45,0.42,-20.4154,-44.7952,19.7833,1023.34
728486,0.416069,9.83261,-0.291726,1.61,-2.8,0,-21.0256,-46.7998,19.9163,1023.34
728492,0.363462,9.8087,-0.310856,1.33,-2.38,0.35,-20.8222,-44.826,19.4286,1023.38
728498,0.392157,9.85174,-0.310856,1.26,-2.17,-0.28,-20.4444,-43.5308,20.2118,1023.38
728504,0.406504,9.85174,-0.291726,1.33,-2.8,0.49,-20.6188,-47.4474,19.6207,1023.36
728510,0.382592,9.82305,-0.301291,1.26,-2.38,0.63,-20.7059,-45.597,19.1627,1023.36
728516,0.368245,9.78957,-0.267814,1.61,-2.45,0,-20.0376,-43.4382,18.8967,1023.35
728522,0.35868,9.79436,-0.263032,1.68,-2.59,-0.07,-21.3452,-45.7821,19.8276,1023.35
728528,0.387374,9.82783,-0.301291,1.54,-2.94,0.49,-21.229,-47.4166,19.9606,1023.37
728534,0.373027,9.81349,-0.267814,1.68,-2.31,0.28,-20.6478,-43.8392,20.1231,1023.37
728540,0.363462,9.80392,-0.253467,1.61,-2.45,0.28,-20.0667,-44.3943,18.7933,1023.37
728546,0.353898,9.79436,-0.282162,1.68,-2.45,0.56,-20.5607,-47.4166,19.4878,1023.36
728552,0.35868,9.8087,-0.291726,1.96,-2.59,0.35,-20.4444,-45.5045,18.8671,1023.36
728558,0.37781,9.8087,-0.310856,1.68,-2.59,0,-20.5897,-43.2224,20.1527,1023.33
728564,0.392157,9.81827,-0.291726,1.68,-2.59,0.07,-20.2701,-46.2755,19.7833,1023.33
728570,0.37781,9.8087,-0.306074,1.61,-2.8,0.28,-20.7059,-45.597,19.2957,1023.37
728576,0.387374,9.78001,-0.286944,1.54,-2.73,0.49,-20.4154,-42.914,20.0197,1023.37
728582,0.382592,9.80392,-0.301291,1.4,-2.59,0.21,-20.5897,-44.7335,20.0345,1023.36
728588,0.392157,9.83261,-0.282162,1.26,-2.45,0,-20.5025,-47.2932,19.0149,1023.36
728594,0.435198,9.85653,-0.301291,1.19,-2.52,0.28,-20.3573,-43.87,19.1922,1023.37
728600,0.406504,9.82783,-0.286944,1.75,-2.59,0.14,-20.0086,-44.2709,20.2709,1023.37
728606,0.37781,9.84696,-0.296509,1.12,-2.52,-0.28,-20.4735,-47.4166,17.9806,1023.37
728612,0.411286,9.83261,-0.306074,0.98,-2.45,0,-20.5025,-45.1344,18.1283,1023.37
728618,0.416069,9.81349,-0.301291,1.4,-2.52,-0.14,-19.8342,-43.2532,20.2266,1023.37
728624,0.392157,9.81827,-0.320421,1.4,-2.03,0.21,-21.0256,-46.4297,19.3252,1023.35
728630,0.363462,9.81349,-0.248685,1.33,-2.24,0.21,-20.4154,-46.2138,19.4582,1023.35
728636,0.368245,9.78957,-0.263032,1.4,-2.59,-0.28,-20.5897,-43.4074,19.5764,1023.36
728642,0.37781,9.80392,-0.272597,1.54,-2.8,0,-20.3863,-45.1961,19.5912,1023.36
728648,0.353898,9.8087,-0.296509,1.61,-2.8,-0.07,-20.3863,-47.3549,18.3943,1023.37
728654,0.37781,9.84696,-0.296509,1.33,-2.59,0.28,-20.7931,-44.3018,19.8128,1023.37
728660,0.363462,9.82305,-0.263032,1.54,-2.8,0.14,-20.0376,-44.6101,20.8767,1023.37
728666,0.35868,9.78479,-0.277379,1.54,-2.59,0.42,-20.8512,-47.3549,18.8228,1023.37
728672,0.382592,9.82783,-0.315638,1.47,-2.52,0.21,-20.6769,-46.183,19.8867,1023.37
728678,0.363462,9.80392,-0.310856,1.75,-2.66,0.35,-19.689,-42.5747,20.6551,1023.35
728684,0.368245,9.81827,-0.296509,1.47,-2.59,0.28,-20.2991,-46.3372,19.1922,1023.35
728690,0.382592,9.82305,-0.291726,1.33,-2.66,0.49,-20.5025,-46.6147,19.7833,1023.37
728696,0.37781,9.81827,-0.267814,1.47,-2.66,0,-19.3984,-43.284,20.9506,1023.37
728702,0.387374,9.79914,-0.277379,1.33,-2.66,0.63,-20.3573,-44.9802,20.0197,1023.37
728708,0.430416,9.80392,-0.296509,1.19,-2.52,0.56,-19.9795,-46.8615,19.3104,1023.37
728714,0.37781,9.80392,-0.277379,1.26,-2.52,0.21,-21.1418,-44.2709,20.197,1023.37
728720,0.392157,9.81349,-0.296509,1.05,-2.03,-0.14,-20.9675,-44.3943,20.5369,1023.36
728726,0.416069,9.82305,-0.277379,1.47,-2.1,0.49,-20.9965,-47.324,18.5568,1023.36
728732,0.387374,9.82783,-0.306074,1.54,-2.8,0.07,-21.3452,-45.1344,19.8719,1023.39
728738,0.382592,9.81349,-0.301291,1.61,-2.66,-0.21,-20.212,-43.7466,21.8668,1023.39
728744,0.37781,9.78957,-0.282162,1.61,-2.31,0.14,-20.4154,-46.8306,19.8867,1023.35
728750,0.373027,9.81349,-0.263032,1.47,-2.59,0.42,-20.8803,-46.1213,20.4334,1023.35
728756,0.387374,9.8087,-0.296509,1.54,-2.17,-0.21,-19.689,-43.6233,21.0984,1023.37
728762,0.411286,9.82783,-0.301291,1.75,-2.17,0.21,-20.3282,-45.7821,20.33,1023.37
728768,0.35868,9.85174,-0.296509,1.12,-2.24,0.28,-21.229,-47.2624,19.5616,1023.37
728774,0.387374,9.82305,-0.253467,1.68,-2.45,0.14,-20.4154,-43.9625,19.7981,1023.4
728780,0.368245,9.82305,-0.263032,1.89,-2.52,0.56,-20.241,-43.6541,20.5221,1023.4
728786,0.396939,9.84218,-0.306074,1.61,-2.59,0.07,-20.2991,-47.1082,19.4582,1023.37
728792,0.401722,9.84218,-0.296509,1.61,-2.59,-0.21,-20.4444,-45.1036,18.5125,1023.37
728798,0.392157,9.83261,-0.25825,1.54,-3.01,0.49,-20.9093,-43.8392,21.0688,1023.35
728804,0.373027,9.81827,-0.267814,1.75,-2.59,0,-20.1539,-46.5839,20.1822,1023.35
728810,0.373027,9.82783,-0.286944,1.54,-2.38,0.28,-20.4735,-46.9848,19.2366,1023.38
728816,0.401722,9.78479,-0.320421,1.47,-3.08,0.42,-19.5437,-43.4382,20.3743,1023.38
728822,0.387374,9.82783,-0.277379,1.82,-2.66,0.21,-19.4274,-45.2886,20.0493,1023.36
728828,0.363462,9.81827,-0.282162,1.33,-2.52,0.35,-20.7641,-46.4914,19.606,1023.36
728834,0.392157,9.8087,-0.210426,1.68,-2.31,0.07,-20.3863,-45.1344,20.6403,1023.36
728840,0.401722,9.68914,0.0095648,2.73,-1.96,0.63,-20.5316,-44.0242,20.6994,1023.37
728846,0.162602,10.0239,-0.545194,2.59,-4.27,0.07,-20.9965,-47.324,17.5964,1023.37
728852,0.741272,9.76566,-0.650406,0,-2.24,-0.28,-20.9093,-45.3503,18.9115,1023.36
728858,0.382592,9.7561,-0.196078,0.84,-0.84,0.14,-20.1829,-43.3149,19.8719,1023.36
728864,0.320421,9.73697,-0.210426,1.26,-3.64,0.14,-20.6769,-45.1961,18.808,1023.37
728870,0.511717,9.71305,-0.248685,1.75,-1.96,-0.14,-20.4735,-45.8437,19.9163,1023.37
728876,0.277379,9.9187,-0.329986,1.96,-2.59,-0.07,-20.3863,-43.1298,20.5221,1023.36
728882,0.430416,9.82783,-0.329986,1.12,-2.66,0.21,-20.4444,-44.641,19.6355,1023.36
