Timestamp,AccX,AccY,AccZ,AngularVelX,AngularVelY,AngularVelZ,MagX,MagY,MagZ,AirPressure
609722,0.45911,9.82783,-0.129125,1.68,-2.45,0.28,17.4456,-47.9717,-22.3295,1023.42
609728,0.47824,9.82305,-0.13869,1.4,-2.52,0.14,17.5037,-48.4343,-22.6693,1023.42
609734,0.416069,9.8087,-0.23912,1.05,-2.59,0.07,18.2882,-52.135,-22.2999,1023.42
609740,0.416069,9.81349,-0.133907,1.47,-2.52,-0.21,18.2301,-48.8044,-22.2408,1023.41
609746,0.406504,9.78957,-0.133907,1.82,-2.87,0.21,17.8233,-47.8483,-22.1226,1023.41
609752,0.396939,9.8087,-0.129125,1.54,-2.73,0.42,17.7071,-50.8089,-23.0683,1023.44
609758,0.425634,9.83261,-0.181731,1.75,-2.24,-0.14,18.4045,-50.6547,-21.6497,1023.44
609764,0.435198,9.8374,-0.167384,0.98,-2.52,0.56,18.1139,-46.368,-22.6989,1023.42
609770,0.406504,9.81349,-0.157819,1.4,-2.73,0.63,18.3754,-49.5445,-22.8614,1023.42
609776,0.425634,9.77044,-0.143472,1.4,-2.52,0.42,18.5207,-51.2099,-20.9553,1023.42
609782,0.406504,9.84218,-0.172166,1.4,-2.59,-0.14,18.0848,-47.4166,-21.4429,1023.42
609788,0.435198,9.81349,-0.210426,1.89,-2.94,0.7,17.3584,-47.6016,-21.9453,1023.42
609794,0.435198,9.82783,-0.172166,1.54,-2.8,0.21,18.5788,-51.95,-21.3394,1023.45
609800,0.449546,9.82783,-0.153037,1.75,-2.94,0.56,18.4335,-49.7912,-21.6202,1023.45
609806,0.444763,9.84218,-0.167384,1.54,-2.52,0,17.8814,-48.1567,-22.4772,1023.43
609812,0.392157,9.79914,-0.133907,1.61,-2.59,0.35,18.9275,-51.5183,-21.3247,1023.43
609818,0.425634,9.81349,-0.143472,1.75,-2.59,0.56,18.3464,-50.1921,-20.5563,1023.43
609824,0.444763,9.83261,-0.172166,1.47,-2.52,0,17.678,-46.183,-22.3147,1023.43
609830,0.454328,9.8374,-0.157819,1.54,-2.45,-0.35,18.7241,-49.8837,-21.8418,1023.42
609836,0.430416,9.81827,-0.186514,1.4,-2.59,0.21,19.2762,-51.5183,-20.4085,1023.42
609842,0.439981,9.85653,-0.191296,1.33,-2.38,0.49,18.143,-48.2492,-23.024,1023.42
609848,0.444763,9.86609,-0.167384,1.12,-2.31,0,17.5909,-48.4343,-23.3343,1023.41
609854,0.406504,9.79914,-0.148254,1.54,-3.08,-0.14,18.4335,-52.3509,-20.9996,1023.41
609860,0.430416,9.81349,-0.143472,1.89,-2.59,0.42,18.3464,-49.1436,-22.3442,1023.43
609866,0.396939,9.82305,-0.153037,1.82,-2.59,0,18.2882,-47.4782,-22.492,1023.43
609872,0.392157,9.82783,-0.13869,1.68,-2.59,0.28,18.8113,-50.9323,-22.3442,1023.44
609878,0.449546,9.86131,-0.181731,1.54,-2.52,0.28,19.4215,-50.4697,-22.1817,1023.44
609884,0.416069,9.79436,-0.167384,1.82,-2.66,-0.14,17.6199,-46.7381,-22.5659,1023.41
609890,0.416069,9.8087,-0.162602,1.89,-2.17,0.49,17.8524,-49.3286,-22.0783,1023.41
609896,0.454328,9.8374,-0.205643,1.61,-2.59,0.7,18.172,-51.5799,-21.103,1023.43
609902,0.444763,9.81349,-0.176949,1.61,-2.73,0.56,18.1139,-47.2007,-22.226,1023.43
609908,0.420851,9.81827,-0.153037,1.61,-2.94,0.28,17.7362,-47.9408,-22.2999,1023.43
609914,0.454328,9.81827,-0.176949,1.68,-2.52,0.14,18.2882,-52.1042,-21.6054,1023.46
609920,0.435198,9.83261,-0.129125,1.47,-2.59,0.56,17.7943,-49.0202,-22.2556,1023.46
609926,0.430416,9.81349,-0.162602,1.61,-2.45,0.21,17.3003,-47.0773,-23.0978,1023.4
609932,0.420851,9.81349,-0.13869,1.61,-2.94,0.35,18.2301,-50.8089,-21.0144,1023.4
609938,0.439981,9.82783,-0.191296,1.4,-2.73,0.28,18.8984,-50.4697,-20.4381,1023.43
609944,0.449546,9.88044,-0.176949,1.54,-2.73,0.49,17.649,-46.8923,-22.5511,1023.43
609950,0.454328,9.80392,-0.133907,1.47,-2.52,0.42,17.4456,-50.1921,-22.0339,1023.47
609956,0.435198,9.84218,-0.11956,1.54,-2.38,0.21,18.695,-51.6416,-21.5759,1023.47
609962,0.45911,9.82305,-0.191296,1.33,-2.52,0.21,17.8524,-47.6633,-21.5463,1023.47
609968,0.430416,9.82783,-0.191296,1.4,-2.24,0.42,17.7943,-48.0025,-23.4968,1023.41
609974,0.382592,9.83261,-0.13869,1.75,-2.66,0.14,18.0267,-51.1482,-21.3247,1023.41
609980,0.416069,9.78957,-0.148254,1.47,-2.8,0.14,18.7532,-48.6502,-21.5759,1023.4
609986,0.420851,9.8374,-0.13869,1.61,-2.31,0.49,17.4456,-46.1521,-23.0683,1023.4
609992,0.430416,9.8087,-0.157819,1.82,-2.8,0.56,18.0267,-50.994,-21.7975,1023.39
609998,0.435198,9.80392,-0.157819,1.68,-2.45,0.42,18.4916,-50.3463,-21.6645,1023.39
610004,0.401722,9.82783,-0.176949,1.61,-2.1,0.42,17.4165,-46.954,-23.1717,1023.42
610010,0.401722,9.82783,-0.124342,1.75,-3.01,0.21,17.8814,-49.3286,-23.4377,1023.42
610016,0.444763,9.81827,-0.176949,1.47,-2.73,0.7,18.4335,-50.6547,-21.4577,1023.42
610022,0.444763,9.81827,-0.200861,1.33,-2.24,0.14,17.9686,-47.324,-21.7236,1023.44
610028,0.425634,9.84696,-0.167384,1.05,-2.52,0.49,17.9977,-48.681,-23.6002,1023.44
610034,0.454328,9.82783,-0.129125,1.61,-2.59,0.7,18.4045,-52.0734,-21.2065,1023.41
610040,0.430416,9.80392,-0.148254,1.54,-2.52,0.28,18.0267,-48.5885,-20.9848,1023.41
610046,0.502152,9.82783,-0.157819,1.4,-2.66,-0.21,17.7652,-46.4605,-23.0831,1023.43
610052,0.487805,9.83261,-0.205643,1.54,-2.73,0.63,18.4626,-50.8398,-22.8466,1023.43
610058,0.502152,9.89957,-0.224773,1.33,-2.87,0.21,18.143,-50.0071,-21.1621,1023.46
610064,0.444763,9.84218,-0.133907,1.26,-2.38,0.42,17.9977,-46.4914,-23.216,1023.46
610070,0.430416,9.81349,-0.10043,1.54,-2.73,0.07,18.3173,-49.7912,-22.1965,1023.41
610076,0.45911,9.80392,-0.176949,1.47,-2.45,-0.21,18.4335,-50.3772,-22.093,1023.41
610082,0.435198,9.80392,-0.191296,1.19,-2.31,0,18.4916,-46.7073,-24.0583,1023.41
610088,0.449546,9.8374,-0.13869,1.33,-2.24,0.35,17.4165,-48.095,-23.216,1023.41
610094,0.435198,9.79436,-0.172166,1.26,-2.52,-0.21,18.6079,-51.3024,-22.1521,1023.41
610100,0.396939,9.79436,-0.148254,1.75,-2.66,-0.35,18.8403,-48.4034,-21.635,1023.42
610106,0.406504,9.8087,-0.109995,1.89,-2.52,0.28,18.172,-47.2624,-22.5659,1023.42
610112,0.411286,9.82783,-0.148254,1.47,-2.45,0.35,18.3173,-50.9323,-22.1669,1023.44
610118,0.411286,9.8374,-0.196078,1.61,-2.24,0.28,18.2301,-50.4697,-21.6054,1023.44
610124,0.435198,9.81827,-0.167384,1.61,-2.66,0.42,16.9226,-47.6941,-23.7184,1023.45
610130,0.396939,9.8087,-0.143472,1.61,-3.01,0.77,17.649,-49.1744,-22.0044,1023.45
610136,0.430416,9.80392,-0.162602,1.75,-2.8,0.49,18.666,-51.5491,-22.625,1023.45
610142,0.45911,9.81827,-0.167384,1.75,-2.87,0.35,18.2011,-47.8483,-22.9353,1023.42
610148,0.468675,9.84218,-0.186514,1.61,-2.59,0.28,18.1139,-47.6941,-22.6989,1023.42
610154,0.435198,9.82783,-0.157819,1.4,-2.66,0.7,18.3754,-51.6108,-22.0487,1023.41
610160,0.444763,9.87566,-0.153037,1.54,-2.17,0.35,17.7943,-47.8792,-22.1817,1023.41
610166,0.416069,9.84696,-0.167384,1.12,-2.31,0,16.9516,-47.324,-22.2851,1023.42
610172,0.449546,9.85653,-0.153037,1.47,-2.31,0.35,17.7362,-51.5799,-21.6054,1023.42
610178,0.435198,9.80392,-0.167384,1.26,-2.52,0.21,18.2011,-50.4389,-21.1474,1023.44
610184,0.468675,9.8374,-0.13869,1.54,-2.8,-0.07,17.3875,-46.8923,-23.4229,1023.44
610190,0.425634,9.83261,-0.167384,1.26,-2.8,0.49,18.172,-49.9146,-21.1621,1023.44
610196,0.430416,9.8087,-0.181731,1.12,-2.24,0.21,18.5498,-50.994,-21.6054,1023.44
610202,0.420851,9.76566,-0.105213,1.4,-2.45,0.49,18.1139,-47.2624,-22.0487,1023.44
610208,0.435198,9.81349,-0.143472,1.82,-2.59,0.28,16.632,-47.324,-22.7137,1023.41
610214,0.425634,9.81349,-0.162602,1.47,-2.1,0.56,17.8233,-52.7518,-21.1621,1023.41
610220,0.416069,9.85174,-0.181731,1.89,-2.73,0.28,17.8524,-48.0642,-21.6202,1023.42
610226,0.439981,9.82783,-0.148254,1.4,-2.24,0.35,16.109,-48.4651,-24.2652,1023.42
610232,0.45911,9.82305,-0.124342,1.54,-2.45,0.21,17.0969,-50.0071,-21.635,1023.43
610238,0.444763,9.81827,-0.148254,1.82,-2.87,0.42,18.4626,-50.0379,-20.0539,1023.43
610244,0.454328,9.8087,-0.105213,1.19,-2.38,0.56,17.2422,-47.2932,-22.5363,1023.45
610250,0.468675,9.81349,-0.157819,1.26,-1.96,0,18.143,-49.7912,-21.3099,1023.45
610256,0.454328,9.84218,-0.172166,1.96,-2.59,0.28,18.3173,-51.0865,-21.3247,1023.45
610262,0.454328,9.81349,-0.157819,1.61,-2.52,0.49,17.5037,-48.095,-21.6054,1023.46
610268,0.449546,9.8374,-0.143472,1.47,-2.52,0.35,17.8233,-47.9717,-22.6841,1023.46
610274,0.439981,9.84218,-0.176949,1.47,-2.66,0.07,18.0267,-52.721,-21.7532,1023.44
610280,0.444763,9.8087,-0.143472,1.68,-2.94,0.14,18.1139,-47.6941,-22.5954,1023.44
610286,0.406504,9.81349,-0.143472,1.47,-2.73,0.35,17.3294,-47.139,-22.5363,1023.42
610292,0.439981,9.8374,-0.167384,1.89,-2.17,0.07,18.1139,-51.2099,-21.2212,1023.42
610298,0.411286,9.8374,-0.157819,1.96,-2.45,0.14,18.0558,-50.0996,-20.9257,1023.42
610304,0.444763,9.80392,-0.143472,1.75,-2.87,0.35,17.3294,-46.368,-22.5363,1023.42
610310,0.420851,9.81827,-0.153037,1.89,-2.45,0.35,17.2422,-50.1921,-22.492,1023.42
610316,0.444763,9.82783,-0.143472,1.33,-2.31,0.21,18.4335,-52.0117,-21.1769,1023.43
610322,0.449546,9.81827,-0.133907,1.89,-2.87,0.14,17.7943,-47.8792,-23.1717,1023.43
610328,0.411286,9.81349,-0.133907,1.82,-2.94,0.35,16.3996,-49.2669,-22.7728,1023.43
610334,0.425634,9.84218,-0.167384,1.47,-2.73,0.63,18.2592,-51.8883,-20.5563,1023.43
610340,0.439981,9.81349,-0.167384,1.4,-2.66,0.21,18.2301,-47.9408,-21.1474,1023.46
610346,0.435198,9.8087,-0.143472,1.61,-2.73,0.49,17.9105,-47.1698,-21.1769,1023.46
610352,0.468675,9.8374,-0.157819,1.4,-3.01,0.77,17.649,-50.1921,-20.8223,1023.4
610358,0.435198,9.8374,-0.181731,1.33,-2.8,0.21,18.2301,-49.5753,-20.837,1023.4
610364,0.406504,9.79436,-0.153037,1.89,-2.52,0.21,17.5909,-46.6147,-21.8418,1023.4
610370,0.435198,9.84218,-0.153037,1.33,-2.59,0.49,17.4165,-49.2053,-20.97,1023.42
610376,0.492587,9.8374,-0.181731,1.96,-2.59,0.28,17.8814,-51.1173,-19.7731,1023.42
610382,0.444763,9.82783,-0.157819,1.54,-2.59,0.21,18.172,-47.5399,-22.625,1023.41
610388,0.406504,9.81349,-0.13869,1.54,-2.59,0.42,17.155,-48.5268,-22.0044,1023.41
610394,0.420851,9.82783,-0.157819,1.68,-2.8,0.35,18.3173,-51.4874,-20.6302,1023.43
610400,0.449546,9.79914,-0.124342,1.68,-2.66,0.49,17.9686,-48.681,-21.4429,1023.43
610406,0.416069,9.79436,-0.157819,1.68,-2.94,0,17.4165,-46.3372,-21.9009,1023.45
610412,0.430416,9.79914,-0.167384,1.47,-2.45,0.49,17.7362,-50.6856,-21.4724,1023.45
610418,0.401722,9.84218,-0.129125,1.4,-2.8,0.7,17.8233,-49.7295,-21.1769,1023.42
610424,0.439981,9.82305,-0.129125,1.75,-2.52,0.7,17.2713,-46.2755,-21.5315,1023.42
610430,0.449546,9.82305,-0.124342,1.68,-2.52,0.42,17.1841,-49.0202,-21.1178,1023.42
610436,0.468675,9.83261,-0.196078,1.61,-2.1,0.63,18.2011,-51.3024,-21.0587,1023.42
610442,0.454328,9.84696,-0.186514,1.4,-2.52,0.14,17.8814,-46.9848,-21.2212,1023.42
610448,0.425634,9.79436,-0.133907,1.61,-2.52,0.7,17.3003,-48.5268,-22.0044,1023.43
610454,0.435198,9.83261,-0.143472,1.19,-2.8,0.42,18.0558,-52.0117,-21.9453,1023.43
610460,0.463893,9.82305,-0.124342,1.68,-2.66,0.07,17.2713,-48.8352,-21.1621,1023.42
610466,0.430416,9.85174,-0.11956,1.4,-2.31,-17.43,17.5909,-47.139,-23.7776,1023.42
610472,0.454328,9.82305,-0.181731,1.54,-2.94,0.21,17.4165,-51.6416,-23.5411,1023.47
610478,0.430416,9.82783,-0.13869,1.47,-2.45,0.63,18.4045,-49.6679,-20.9405,1023.47
610484,0.439981,9.79914,-0.109995,1.68,-2.66,0.21,17.9105,-46.7381,-22.5511,1023.47
610490,0.45911,9.83261,-0.157819,1.61,-2.38,0.35,16.9516,-48.9894,-21.236,1023.44
610496,0.468675,9.84218,-0.191296,1.47,-2.45,0.21,18.172,-50.9323,-21.3985,1023.44
610502,0.444763,9.80392,-0.105213,1.68,-2.73,0.49,17.7652,-47.1698,-22.2556,1023.43
610508,0.444763,9.81827,-0.181731,1.4,-2.87,0.35,16.9807,-47.6324,-22.3442,1023.43
610514,0.454328,9.8087,-0.181731,1.82,-2.94,0.21,18.4626,-51.179,-20.8666,1023.45
610520,0.463893,9.81827,-0.157819,1.33,-2.1,0.14,17.4456,-49.1128,-22.3442,1023.45
610526,0.449546,9.8374,-0.186514,1.4,-2.17,0.56,17.2131,-47.4166,-23.2013,1023.42
610532,0.439981,9.8374,-0.167384,1.47,-2.38,0.35,17.3294,-50.5314,-22.0783,1023.42
610538,0.454328,9.81827,-0.167384,1.33,-2.31,0.77,17.7943,-50.6856,-20.5415,1023.42
610544,0.454328,9.78957,-0.153037,1.61,-2.73,0.28,17.2131,-45.9671,-22.359,1023.44
610550,0.492587,9.84218,-0.148254,1.61,-2.94,-0.14,17.3584,-49.5445,-22.8023,1023.44
610556,0.506934,9.90435,-0.210426,1.54,-2.8,0.28,18.7822,-50.8398,-21.6054,1023.43
610562,0.463893,9.84696,-0.200861,1.33,-2.24,0.49,18.3754,-46.7998,-22.6693,1023.43
610568,0.406504,9.78001,-0.11956,1.19,-2.73,-0.28,17.7943,-47.6324,-23.7923,1023.44
610574,0.425634,9.81349,-0.11956,1.75,-2.94,-0.14,18.0558,-51.5491,-21.9601,1023.44
610580,0.425634,9.81349,-0.133907,1.4,-2.73,0,18.0267,-48.2492,-22.1817,1023.45
610586,0.420851,9.82305,-0.133907,1.54,-2.52,0.49,17.2131,-47.0773,-24.0879,1023.45
610592,0.406504,9.76566,-0.167384,1.75,-2.59,0.07,17.3875,-50.994,-21.9453,1023.45
610598,0.430416,9.80392,-0.133907,1.89,-2.66,0.07,18.5207,-50.5622,-20.9553,1023.44
610604,0.435198,9.81827,-0.196078,1.82,-2.38,-0.14,17.0679,-46.0596,-22.6989,1023.44
610610,0.420851,9.82305,-0.181731,1.61,-2.52,0.14,17.126,-48.9586,-21.6497,1023.43
610616,0.449546,9.80392,-0.153037,1.89,-2.45,0.56,17.9686,-50.3772,-20.97,1023.43
610622,0.425634,9.79914,-0.162602,1.47,-2.52,0.35,18.0848,-47.0465,-22.6545,1023.46
610628,0.439981,9.8374,-0.157819,1.96,-2.8,0.21,17.7362,-47.139,-23.0535,1023.46
610634,0.468675,9.8374,-0.176949,1.68,-2.59,0.56,17.4456,-52.1042,-22.9796,1023.43
610640,0.47824,9.86609,-0.176949,1.4,-2.59,0.14,17.8814,-48.0025,-22.359,1023.43
610646,0.463893,9.81349,-0.176949,1.47,-2.31,-0.28,17.5037,-46.6456,-23.024,1023.45
610652,0.47824,9.81827,-0.162602,1.33,-2.1,0.14,17.649,-50.0379,-20.9109,1023.45
610658,0.45911,9.8087,-0.176949,1.47,-2.52,0.21,18.666,-49.6062,-22.226,1023.45
610664,0.439981,9.83261,-0.200861,1.61,-2.66,-0.21,16.8354,-46.3063,-22.9944,1023.44
610670,0.439981,9.8087,-0.157819,1.61,-2.59,0,18.0558,-49.3286,-22.1078,1023.44
610676,0.454328,9.84218,-0.200861,1.75,-2.45,-0.35,18.695,-50.9323,-20.4676,1023.4
610682,0.463893,9.83261,-0.124342,1.33,-2.24,-0.07,17.9977,-46.6764,-20.7336,1023.4
610688,0.420851,9.82783,-0.172166,1.61,-2.59,0,16.9516,-48.2801,-22.4625,1023.44
610694,0.435198,9.78479,-0.148254,1.47,-2.66,-0.07,18.6369,-51.9192,-21.0439,1023.44
610700,0.406504,9.80392,-0.124342,1.75,-2.24,0.35,18.0848,-48.8969,-20.9553,1023.41
610706,0.416069,9.79436,-0.157819,1.54,-2.8,0.42,17.3003,-46.5222,-22.3738,1023.41
610712,0.430416,9.79436,-0.172166,1.61,-2.59,0,18.7241,-50.5931,-21.6202,1023.41
610718,0.430416,9.8087,-0.109995,1.33,-2.94,0.35,18.9275,-50.6239,-21.5168,1023.42
610724,0.439981,9.78957,-0.176949,1.61,-2.73,-0.21,17.5037,-46.6456,-22.9353,1023.42
610730,0.420851,9.85174,-0.153037,1.68,-3.01,0.49,17.7362,-50.0379,-21.6941,1023.43
610736,0.430416,9.82783,-0.162602,1.68,-2.52,0.28,18.7822,-51.6108,-21.3099,1023.43
610742,0.468675,9.84218,-0.191296,1.4,-2.31,0.21,18.2882,-47.5399,-21.7089,1023.44
610748,0.487805,9.8374,-0.162602,1.61,-2.73,-0.07,17.7362,-47.5091,-23.0978,1023.44
610754,0.487805,9.81349,-0.215208,1.33,-2.66,0.28,19.1018,-51.3024,-20.1426,1023.47
610760,0.483022,9.85653,-0.205643,1.47,-2.59,-0.14,18.0267,-48.8044,-21.5315,1023.47
610766,0.45911,9.81349,-0.162602,1.54,-2.8,-0.42,17.649,-46.6456,-23.5855,1023.47
610772,0.47824,9.85174,-0.196078,1.33,-2.73,-0.14,18.0267,-50.994,-21.3838,1023.45
610778,0.473458,9.86131,-0.167384,1.12,-2.59,0,18.3464,-50.6239,-20.97,1023.45
610784,0.439981,9.84218,-0.148254,1.47,-2.38,-0.84,17.8233,-46.9231,-22.5511,1023.43
610790,0.483022,9.84218,-0.196078,1.47,-2.66,-0.63,18.6369,-49.9146,-22.093,1023.43
610796,0.435198,9.82783,-0.148254,1.4,-2.66,-0.42,18.0848,-51.1173,-20.2903,1023.44
610802,0.454328,9.76566,-0.13869,1.05,-2.45,-0.21,17.5618,-47.5399,-21.9453,1023.44
610808,0.411286,9.81349,-0.162602,1.61,-2.59,-0.28,17.5037,-48.0642,-23.0831,1023.44
610814,0.420851,9.77523,-0.172166,1.4,-2.66,0,18.0267,-51.6416,-20.97,1023.44
610820,0.425634,9.79914,-0.176949,1.61,-2.24,-0.07,17.5328,-48.7427,-21.3838,1023.43
610826,0.37781,9.84218,-0.153037,1.33,-2.45,0.07,17.3294,-46.9231,-22.9796,1023.43
610832,0.416069,9.81827,-0.157819,1.33,-2.52,0.14,18.2301,-51.6416,-21.0291,1023.43
610838,0.439981,9.8374,-0.191296,1.26,-2.73,0.42,17.7362,-51.0248,-21.6054,1023.41
610844,0.425634,9.76088,-0.114778,1.19,-2.73,0.35,16.9516,-46.5839,-21.9748,1023.41
610850,0.425634,9.76088,-0.071736,2.31,-2.52,0.35,17.7943,-49.8529,-20.5415,1023.45
610856,0.439981,9.84696,-0.153037,1.89,-2.8,0.42,17.7652,-51.8575,-20.7484,1023.45
610862,0.49737,9.81827,-0.23912,1.54,-2.73,0.07,17.7652,-47.4782,-22.5363,1023.46
610868,0.483022,9.82305,-0.176949,1.54,-2.87,0.21,17.5037,-47.3549,-22.5363,1023.46
610874,0.468675,9.87087,-0.21999,1.19,-2.66,0,18.3464,-51.7341,-21.103,1023.44
610880,0.47824,9.81827,-0.13869,0.98,-2.38,-0.21,17.8524,-48.2801,-20.97,1023.44
610886,0.45911,9.81349,-0.13869,1.47,-2.87,0.21,17.2131,-47.0465,-20.97,1023.44
610892,0.449546,9.84696,-0.205643,1.26,-2.59,0,17.6199,-50.4389,-20.8075,1023.44
610898,0.492587,9.81827,-0.181731,1.26,-2.45,-0.42,18.3464,-49.9454,-20.97,1023.44
610904,0.454328,9.85653,-0.196078,0.77,-2.45,0,17.5909,-46.6147,-22.2851,1023.44
610910,0.416069,9.78957,-0.13869,1.61,-2.59,0.21,17.5037,-49.7295,-21.4872,1023.44
610916,0.435198,9.81349,-0.143472,1.19,-2.66,-0.07,18.2301,-50.8089,-21.2951,1023.42
610922,0.420851,9.83261,-0.148254,1.61,-2.73,-0.14,17.4747,-47.91,-21.8566,1023.42
610928,0.430416,9.80392,-0.129125,1.4,-2.52,0.21,16.7773,-47.6633,-20.9257,1023.43
610934,0.435198,9.81349,-0.162602,1.4,-1.89,0.42,17.3294,-51.3949,-21.9601,1023.43
610940,0.420851,9.79436,-0.13869,1.82,-2.03,-0.14,17.7362,-47.6941,-21.3985,1023.43
610946,0.430416,9.78957,-0.157819,1.68,-1.89,0.42,17.2713,-46.368,-23.0387,1023.41
610952,0.439981,9.81827,-0.167384,1.82,-1.96,0.7,17.5909,-50.408,-22.7284,1023.41
610958,0.444763,9.81827,-0.162602,1.96,-2.87,0.35,17.8233,-50.0996,-20.8962,1023.41
610964,0.454328,9.80392,-0.172166,1.82,-2.87,-0.21,16.7192,-47.4782,-22.6545,1023.41
610970,0.47824,9.82783,-0.172166,1.82,-1.96,0.07,16.7482,-49.7295,-22.4033,1023.46
610976,0.468675,9.81827,-0.191296,2.24,-2.87,0.42,18.2592,-50.7473,-20.8666,1023.46
610982,0.502152,9.85653,-0.191296,1.89,-3.29,0,16.5158,-48.866,-21.369,1023.45
610988,0.45911,9.86609,-0.205643,1.54,-2.59,-0.84,16.1671,-48.1259,-22.9353,1023.45
610994,0.425634,9.81827,-0.129125,1.61,-2.24,-0.21,17.5037,-51.6108,-19.6402,1023.44
611000,0.387374,9.81349,-0.105213,1.75,-2.03,0.56,17.5618,-48.7427,-20.2312,1023.44
611006,0.444763,9.79436,-0.143472,1.4,-2.45,17.85,15.6441,-48.7118,-23.4229,1023.44
611012,0.463893,9.80392,-0.148254,1.75,-2.24,0.14,17.1841,-50.5931,-20.4676,1023.41
611018,0.430416,9.79914,-0.133907,1.61,-2.73,-0.14,18.143,-50.5314,-21.1178,1023.41
611024,0.387374,9.82305,-0.11956,1.96,-2.8,-0.56,16.9807,-46.7073,-23.3638,1023.41
611030,0.420851,9.76566,-0.11956,1.4,-2.87,0.77,16.9226,-49.8837,-22.2408,1023.41
611036,0.411286,9.8087,-0.143472,1.61,-2.59,0.21,18.2011,-51.3024,-20.2608,1023.39
611042,0.416069,9.78957,-0.191296,1.68,-2.45,0.07,17.4747,-48.1259,-21.8566,1023.39
611048,0.411286,9.79914,-0.210426,1.61,-2.31,0.28,17.3294,-47.8483,-22.6693,1023.41
611054,0.444763,9.83261,-0.172166,1.47,-2.87,0.56,17.0679,-51.5183,-21.4133,1023.41
611060,0.454328,9.83261,-0.157819,1.82,-2.8,0.77,18.0267,-49.8221,-21.7532,1023.41
611066,0.487805,9.84696,-0.181731,1.96,-2.8,-0.14,17.2131,-46.4914,-21.6497,1023.44
611072,0.439981,9.82305,-0.153037,1.4,-2.45,0.35,17.0969,-51.179,-22.4477,1023.44
611078,0.435198,9.82305,-0.162602,1.12,-2.45,0.35,17.2131,-50.8089,-21.8566,1023.46
611084,0.449546,9.84218,-0.13869,1.33,-2.73,0.42,16.9807,-47.2315,-21.8566,1023.46
611090,0.463893,9.79914,-0.153037,1.68,-2.8,0.14,17.155,-49.7912,-21.5611,1023.44
611096,0.463893,9.8374,-0.200861,1.4,-2.73,-0.07,17.4456,-52.4743,-20.8518,1023.44
611102,0.454328,9.84218,-0.167384,1.47,-2.38,0.07,16.7192,-47.91,-21.369,1023.45
611108,0.439981,9.82305,-0.181731,1.68,-2.8,0.28,17.126,-48.8352,-22.3738,1023.45
611114,0.439981,9.80392,-0.13869,1.75,-3.15,0.14,17.9105,-52.2892,-20.8962,1023.45
611120,0.45911,9.85174,-0.172166,1.68,-2.38,-0.07,17.678,-49.1744,-21.9157,1023.4
611126,0.454328,9.81349,-0.157819,1.4,-2.17,0.28,16.9516,-47.7866,-22.4033,1023.4
611132,0.430416,9.79436,-0.162602,1.54,-2.66,0.21,17.8814,-50.6239,-20.9109,1023.43
611138,0.444763,9.79914,-0.167384,1.54,-2.73,-0.21,18.6079,-50.2847,-20.5858,1023.43
611144,0.435198,9.79914,-0.176949,1.61,-2.38,0.21,18.1139,-47.0157,-21.5168,1023.44
611150,0.435198,9.81349,-0.162602,1.54,-2.1,0.49,17.2422,-49.1436,-22.0635,1023.44
611156,0.425634,9.84696,-0.167384,1.33,-2.52,0.7,17.9977,-50.9323,-20.9848,1023.41
611162,0.439981,9.8374,-0.153037,1.54,-2.45,0.91,18.0558,-48.0642,-21.5759,1023.41
611168,0.411286,9.84218,-0.167384,1.33,-2.73,0.49,17.3003,-47.3549,-23.3786,1023.41
611174,0.45911,9.87087,-0.143472,0.98,-2.38,0.63,18.4335,-51.6108,-21.4429,1023.44
611180,0.401722,9.76088,-0.105213,1.68,-2.24,0.98,17.7071,-48.3109,-21.8123,1023.44
611186,0.47824,9.81827,-0.148254,1.75,-2.24,0.28,17.8814,-46.7689,-22.1669,1023.42
611192,0.444763,9.82783,-0.181731,1.12,-2.66,0.21,17.8524,-50.6239,-22.0044,1023.42
611198,0.468675,9.79914,-0.124342,1.4,-2.87,0.42,18.4045,-49.8529,-19.389,1023.42
611204,0.483022,9.85653,-0.215208,1.61,-2.8,0.28,16.6901,-45.8437,-21.7236,1023.42
611210,0.444763,9.82305,-0.196078,1.26,-2.45,0.63,17.3584,-48.8044,-21.3099,1023.41
611216,0.492587,9.8087,-0.148254,1.33,-2.45,0,17.9686,-50.9015,-20.6154,1023.41
611222,0.454328,9.82783,-0.153037,1.82,-2.73,-0.07,17.3294,-47.0773,-21.9305,1023.4
611228,0.463893,9.8374,-0.172166,1.47,-2.52,0.14,17.126,-47.2932,-22.226,1023.4
611234,0.45911,9.82783,-0.191296,1.26,-2.31,-0.28,17.9105,-51.2099,-21.2065,1023.4
611240,0.406504,9.84218,-0.13869,1.05,-2.45,0.14,17.8524,-48.2801,-21.2508,1023.43
611246,0.401722,9.82783,-0.129125,1.82,-2.66,0.42,16.9226,-46.9231,-22.6693,1023.43
611252,0.430416,9.83261,-0.157819,1.33,-2.03,-0.14,16.6901,-50.7781,-21.1621,1023.43
611258,0.47824,9.84218,-0.200861,1.61,-2.59,0.14,18.0267,-49.7604,-21.236,1023.43
611264,0.435198,9.78957,-0.143472,1.4,-2.31,0.42,16.9807,-46.7998,-22.8023,1023.44
611270,0.420851,9.78001,-0.172166,1.75,-2.24,0.56,17.3294,-49.7912,-22.0044,1023.44
611276,0.444763,9.84218,-0.172166,1.47,-2.38,0.63,17.8233,-51.1173,-21.1178,1023.41
611282,0.454328,9.82305,-0.172166,1.61,-2.59,0.56,17.5328,-47.4474,-21.768,1023.41
611288,0.473458,9.81827,-0.167384,1.61,-2.45,0.42,16.7482,-47.0157,-23.7628,1023.41
611294,0.463893,9.81827,-0.196078,1.47,-2.52,0.7,17.8524,-51.4874,-21.5759,1023.4
611300,0.439981,9.79436,-0.105213,1.82,-2.45,0.56,18.6079,-48.2801,-20.9553,1023.4
611306,0.435198,9.81349,-0.105213,1.4,-2.8,0.7,17.678,-46.3063,-22.7875,1023.37
611312,0.435198,9.81827,-0.191296,1.47,-2.73,0.49,17.5328,-50.5005,-22.1669,1023.37
611318,0.468675,9.85174,-0.200861,1.33,-2.59,0.7,18.695,-51.0557,-21.7532,1023.43
611324,0.463893,9.84218,-0.172166,1.54,-2.66,0.49,17.126,-46.4605,-22.0339,1023.43
611330,0.463893,9.8374,-0.215208,1.4,-2.52,0.35,17.8814,-48.8044,-22.226,1023.44
611336,0.468675,9.81827,-0.196078,1.82,-2.73,0,17.7652,-50.994,-20.9553,1023.44
611342,0.439981,9.8087,-0.205643,1.26,-2.38,0.42,17.8233,-47.1698,-22.758,1023.44
611348,0.444763,9.82305,-0.157819,1.89,-2.59,0,17.2422,-47.5708,-22.9057,1023.42
611354,0.468675,9.84218,-0.181731,1.47,-2.73,0.28,17.7652,-51.0557,-22.1078,1023.42
611360,0.425634,9.84218,-0.148254,1.26,-2.66,0.21,18.172,-49.2669,-21.1917,1023.48
611366,0.425634,9.82783,-0.167384,1.61,-3.08,0,17.8814,-47.1698,-23.0978,1023.48
611372,0.435198,9.78479,-0.172166,1.75,-2.73,0.28,18.0558,-50.7781,-22.3442,1023.42
611378,0.435198,9.83261,-0.129125,1.75,-2.31,0.35,17.8814,-50.8706,-20.8075,1023.42
611384,0.449546,9.81349,-0.181731,1.47,-2.52,0.21,17.4456,-46.5531,-23.3343,1023.44
611390,0.449546,9.83261,-0.181731,1.19,-2.52,0.7,17.9105,-48.681,-22.625,1023.44
611396,0.435198,9.80392,-0.129125,1.68,-2.59,0.77,17.3003,-51.2715,-20.8518,1023.46
611402,0.449546,9.8374,-0.13869,1.82,-3.08,0.14,17.0969,-47.3549,-21.9748,1023.46
611408,0.468675,9.82305,-0.176949,1.33,-2.38,0.63,17.9977,-47.6016,-22.4033,1023.46
611414,0.463893,9.84218,-0.200861,1.61,-2.73,0.07,18.0267,-51.3641,-21.9305,1023.42
611420,0.492587,9.84218,-0.191296,1.47,-2.45,0.28,17.4747,-48.095,-22.8319,1023.42
611426,0.473458,9.81349,-0.200861,1.33,-2.66,0.77,17.6199,-46.6764,-23.2456,1023.45
611432,0.449546,9.8374,-0.148254,1.19,-2.52,-0.28,17.5037,-50.6856,-21.8418,1023.45
611438,0.473458,9.81349,-0.167384,1.82,-3.01,-0.56,18.4335,-50.9323,-20.9553,1023.45
611444,0.435198,9.84218,-0.196078,1.61,-2.8,-0.14,17.3875,-46.6764,-21.4429,1023.45
611450,0.45911,9.83261,-0.167384,1.26,-2.59,0.28,17.9977,-49.6679,-22.9353,1023.45
611456,0.406504,9.78001,-0.13869,1.05,-2.24,-0.07,18.2301,-50.6856,-20.5858,1023.45
611462,0.411286,9.77044,-0.0813008,1.68,-2.8,0,17.7071,-46.4914,-22.1374,1023.45
611468,0.454328,9.8374,-0.153037,1.61,-2.8,0.28,17.3294,-47.1082,-23.2308,1023.45
611474,0.463893,9.85174,-0.172166,1.82,-2.52,0.49,18.2011,-51.6725,-22.359,1023.45
611480,0.449546,9.81349,-0.181731,1.47,-2.24,0.56,17.9105,-48.9894,-21.6941,1023.45
611486,0.45911,9.8374,-0.172166,1.61,-2.38,0.49,17.0388,-46.3063,-22.5363,1023.45
611492,0.449546,9.85174,-0.181731,1.12,-2.8,0.21,18.0267,-49.9454,-21.9157,1023.4
611498,0.401722,9.73697,-0.0669536,1.89,-2.17,0.49,18.695,-50.0996,-20.4972,1023.4
611504,0.392157,9.80392,-0.124342,2.1,-2.73,1.05,17.4747,-46.5531,-23.0683,1023.45
611510,0.487805,9.85174,-0.21999,1.47,-2.52,0.21,17.8233,-49.3595,-23.0978,1023.45
611516,0.444763,9.81827,-0.148254,1.26,-2.87,0.7,17.9686,-50.8089,-20.9996,1023.45
611522,0.45911,9.81349,-0.157819,1.54,-2.52,0.63,17.649,-46.7381,-22.6398,1023.45
611528,0.487805,9.81349,-0.157819,1.33,-2.45,0.35,16.5158,-47.8792,-23.4377,1023.45
611534,0.483022,9.84218,-0.181731,1.4,-2.8,0.42,18.143,-51.0248,-21.7975,1023.45
611540,0.483022,9.86131,-0.205643,1.33,-2.52,0.21,18.0267,-48.5576,-22.0783,1023.45
611546,0.492587,9.85174,-0.162602,1.12,-2.31,-0.21,17.4456,-46.5222,-22.8762,1023.4
611552,0.425634,9.84696,-0.143472,1.33,-2.52,0.28,17.3003,-50.8398,-21.7975,1023.4
611558,0.468675,9.84218,-0.133907,1.4,-2.73,0.35,17.126,-50.5005,-21.2951,1023.42
611564,0.511717,9.87087,-0.191296,1.33,-2.38,0.28,17.126,-47.4166,-23.2456,1023.42
611570,0.468675,9.82305,-0.200861,1.12,-2.03,0,17.3875,-49.7295,-21.1769,1023.43
611576,0.430416,9.84218,-0.153037,1.19,-2.45,0.14,18.0848,-51.4257,-19.6697,1023.43
611582,0.425634,9.83261,-0.143472,1.47,-2.17,-0.07,17.649,-47.1698,-20.97,1023.43
611588,0.435198,9.8087,-0.129125,1.61,-2.45,0,17.126,-48.4651,-22.2704,1023.47
611594,0.435198,9.78479,-0.172166,1.54,-2.24,0.14,17.3875,-51.8575,-21.5759,1023.47
611600,0.449546,9.82783,-0.176949,1.54,-2.59,0.28,17.678,-49.2669,-20.7188,1023.43
611606,0.416069,9.79914,-0.11956,2.03,-2.73,-0.21,17.0388,-47.324,-22.2999,1023.43
611612,0.420851,9.78001,-0.124342,1.54,-2.45,0.35,17.6199,-50.3155,-20.9553,1023.4
611618,0.435198,9.83261,-0.172166,1.54,-2.45,0.35,17.9396,-50.1613,-21.0882,1023.4
611624,0.454328,9.81349,-0.153037,1.26,-2.1,0.49,17.126,-46.0288,-22.1078,1023.43
611630,0.454328,9.81827,-0.176949,1.54,-2.24,0.49,17.5037,-49.6679,-20.5858,1023.43
611636,0.473458,9.84218,-0.191296,1.47,-2.87,0.21,17.126,-51.0248,-20.6154,1023.43
611642,0.435198,9.79436,-0.143472,1.54,-2.31,0.28,17.2131,-47.5091,-22.7137,1023.46
611648,0.468675,9.83261,-0.157819,1.61,-2.38,0.21,17.0097,-48.3418,-21.9748,1023.46
611654,0.468675,9.81349,-0.157819,1.68,-2.94,0.14,17.2713,-51.7341,-20.6745,1023.44
611660,0.468675,9.84696,-0.181731,1.61,-2.73,-0.07,17.8814,-48.4343,-20.7041,1023.44
611666,0.47824,9.84218,-0.196078,1.61,-2.38,0.56,17.3875,-46.6147,-22.9353,1023.45
611672,0.468675,9.81827,-0.162602,1.47,-2.8,-0.07,18.0267,-49.637,-21.5906,1023.45
611678,0.483022,9.80392,-0.133907,1.54,-2.87,-0.42,17.3875,-50.6547,-21.2951,1023.42
611684,0.47824,9.85174,-0.167384,1.68,-2.66,-0.21,17.3875,-46.6456,-23.1274,1023.42
611690,0.468675,9.81827,-0.13869,1.19,-2.38,-0.35,17.2131,-49.6679,-22.6693,1023.42
611696,0.401722,9.8087,-0.11956,2.1,-2.59,0.35,17.9686,-51.0248,-20.97,1023.44
611702,0.435198,9.78479,-0.13869,1.75,-2.38,-0.21,17.4747,-47.324,-21.2508,1023.44
611708,0.430416,9.81827,-0.167384,2.03,-2.73,-0.35,17.5909,-47.5399,-21.0439,1023.4
611714,0.463893,9.84696,-0.172166,1.82,-2.87,0.14,18.143,-50.8398,-21.3247,1023.4
611720,0.435198,9.8374,-0.172166,1.54,-2.66,0.63,17.9977,-48.3418,-20.6154,1023.44
611726,0.396939,9.81827,-0.148254,1.75,-2.59,-0.14,17.9686,-46.5531,-21.8566,1023.44
611732,0.468675,9.79436,-0.153037,1.4,-2.17,-0.07,18.2301,-50.6239,-21.2803,1023.42
611738,0.439981,9.8374,-0.162602,1.82,-2.73,0.7,18.0267,-50.0996,-20.379,1023.42
611744,0.468675,9.81349,-0.148254,1.47,-2.94,-0.21,17.2131,-46.368,-21.9896,1023.4
611750,0.454328,9.78479,-0.133907,1.4,-2.31,0.7,17.0969,-48.4343,-21.7089,1023.4
611756,0.487805,9.81827,-0.162602,1.61,-2.31,-0.21,17.6199,-51.0248,-21.3838,1023.4
611762,0.483022,9.86609,-0.205643,1.47,-2.1,0.42,17.0388,-47.8792,-23.2752,1023.43
611768,0.449546,9.84218,-0.157819,1.4,-2.31,-0.07,17.7652,-48.4343,-23.881,1023.43
611774,0.463893,9.8087,-0.124342,1.33,-2.59,-0.35,18.4626,-50.9323,-20.8075,1023.43
611780,0.463893,9.81827,-0.167384,1.61,-2.52,0.28,16.8063,-49.0202,-21.8418,1023.43
611786,0.444763,9.81827,-0.157819,1.47,-2.8,0,17.678,-46.8306,-22.5068,1023.43
611792,0.454328,9.85174,-0.162602,1.05,-1.96,-0.49,18.4916,-50.2538,-20.8814,1023.43
611798,0.449546,9.78479,-0.129125,1.47,-2.17,-0.14,18.0558,-50.0379,-20.7188,1023.42
611804,0.45911,9.81349,-0.10043,1.54,-2.66,0,17.3875,-46.9848,-22.1965,1023.42
611810,0.454328,9.84218,-0.157819,1.4,-2.31,-0.14,16.8645,-48.5576,-21.1917,1023.42
611816,0.444763,9.83261,-0.143472,1.61,-2.31,0.14,17.5328,-50.9631,-21.4133,1023.43
611822,0.439981,9.8374,-0.172166,1.75,-2.52,-0.35,17.678,-47.4166,-21.2065,1023.43
611828,0.411286,9.79914,-0.143472,1.4,-2.38,0.07,17.7362,-47.5091,-21.9009,1023.45
611834,0.444763,9.81349,-0.167384,1.4,-2.52,0.14,18.3754,-51.5799,-20.7188,1023.45
611840,0.430416,9.81827,-0.157819,1.68,-2.66,0.28,18.3754,-49.1128,-21.0291,1023.42
611846,0.449546,9.85653,-0.21999,0.98,-2.31,0,17.0388,-46.954,-22.8319,1023.42
611852,0.439981,9.7561,-0.105213,1.82,-2.66,-0.14,17.5037,-50.2847,-21.0144,1023.43
611858,0.430416,9.87566,-0.215208,0.98,-2.31,0.56,18.666,-51.0557,-21.8862,1023.43
611864,0.430416,9.82783,-0.11956,1.05,-2.45,0.56,17.2713,-47.0773,-23.3343,1023.43
611870,0.487805,9.82783,-0.143472,1.82,-2.87,-0.14,17.649,-49.6679,-22.5068,1023.42
611876,0.45911,9.88044,-0.229555,1.12,-2.45,-0.14,18.0848,-51.0248,-21.2065,1023.42
611882,0.483022,9.80392,-0.13869,1.33,-2.03,-0.28,17.1841,-47.4166,-22.0783,1023.41
611888,0.502152,9.77044,-0.0813008,1.68,-2.66,-0.07,16.8935,-48.1876,-21.9748,1023.41
611894,0.45911,9.8374,-0.11956,1.68,-2.8,-0.07,17.8814,-52.0117,-20.0391,1023.42
611900,0.492587,9.83261,-0.200861,1.47,-2.38,-0.21,17.9977,-49.0819,-20.97,1023.42
611906,0.473458,9.8374,-0.186514,1.89,-2.38,-0.28,17.7362,-46.4914,-21.6941,1023.43
611912,0.49737,9.85174,-0.191296,1.19,-2.52,-0.14,18.143,-51.0248,-21.0291,1023.43
611918,0.406504,9.80392,-0.162602,1.68,-2.59,-0.21,18.6079,-49.9763,-21.2065,1023.43
611924,0.454328,9.82305,-0.13869,1.33,-2.52,-0.35,17.678,-46.6456,-21.3838,1023.43
611930,0.425634,9.77523,-0.0908656,1.47,-1.96,-0.28,18.695,-49.1744,-21.5168,1023.43
611936,0.435198,9.8374,-0.167384,1.89,-2.59,0.07,17.678,-51.5183,-20.3642,1023.41
611942,0.435198,9.81349,-0.157819,1.54,-2.66,0.21,17.8524,-46.9231,-21.7089,1023.41
611948,0.430416,9.79914,-0.129125,1.4,-2.73,17.64,17.2713,-47.4474,-21.9157,1023.42
611954,0.425634,9.81349,-0.181731,1.68,-2.52,0.07,18.2592,-51.8883,-20.5858,1023.42
611960,0.425634,9.79436,-0.129125,1.61,-2.59,0.42,18.1139,-49.1744,-21.1326,1023.42
611966,0.473458,9.80392,-0.13869,1.47,-2.38,0.21,17.7943,-47.324,-23.5116,1023.42
611972,0.454328,9.82783,-0.153037,1.68,-2.66,0.35,18.8694,-50.7473,-22.9353,1023.43
611978,0.425634,9.84218,-0.13869,1.54,-1.96,0.14,18.7532,-50.5931,-20.9553,1023.43
611984,0.454328,9.79914,-0.148254,1.33,-2.1,-0.14,17.8233,-46.6147,-21.9157,1023.43
611990,0.425634,9.79914,-0.129125,1.61,-2.8,0.49,17.8524,-49.2053,-21.5906,1023.43
611996,0.516499,9.84218,-0.243902,1.19,-2.45,-0.14,17.9977,-51.3641,-20.7041,1023.43
612002,0.439981,9.85653,-0.186514,1.26,-2.45,-0.42,17.0388,-47.8175,-22.8614,1023.45
612008,0.425634,9.78957,-0.105213,1.89,-2.73,-0.28,16.8645,-47.91,-22.1374,1023.45
612014,0.45911,9.79914,-0.153037,1.68,-2.17,-0.21,18.172,-51.7958,-20.3642,1023.41
612020,0.463893,9.8374,-0.186514,1.47,-3.01,-0.35,18.2011,-48.9894,-22.0044,1023.41
612026,0.502152,9.83261,-0.191296,1.4,-1.96,-0.28,17.7652,-45.7512,-22.2408,1023.44
612032,0.411286,9.8087,-0.129125,1.4,-2.66,-0.63,17.4165,-50.3772,-21.4577,1023.44
612038,0.468675,9.81827,-0.153037,1.89,-2.73,-0.14,17.9105,-50.2538,-21.5463,1023.44
612044,0.406504,9.83261,-0.129125,1.82,-2.73,0,16.9807,-46.8615,-22.4625,1023.41
612050,0.468675,9.82305,-0.181731,1.19,-2.38,-0.42,16.9807,-48.9894,-21.502,1023.41
612056,0.425634,9.79436,-0.143472,1.68,-2.59,-0.56,18.0848,-51.0248,-19.5663,1023.39
612062,0.425634,9.8374,-0.186514,1.61,-2.1,0.14,17.0969,-47.6016,-22.1374,1023.39
612068,0.473458,9.79436,-0.205643,1.89,-2.24,0.35,17.0097,-48.496,-22.1521,1023.43
612074,0.411286,9.83261,-0.11956,1.61,-2.73,-0.21,17.7362,-51.7958,-21.6941,1023.43
612080,0.45911,9.86131,-0.210426,1.4,-2.87,-0.21,18.0848,-48.866,-20.7779,1023.4
612086,0.454328,9.78479,-0.157819,1.68,-2.66,-0.28,18.0558,-46.0288,-21.8862,1023.4
612092,0.468675,9.8374,-0.157819,1.4,-2.38,0.07,17.649,-50.3155,-20.7632,1023.4
612098,0.416069,9.78957,-0.129125,1.82,-2.59,-0.28,18.172,-50.8398,-21.0439,1023.43
612104,0.430416,9.84218,-0.153037,1.4,-2.66,-0.77,17.5909,-46.3372,-21.9157,1023.43
612110,0.483022,9.78957,-0.176949,1.19,-2.1,-0.63,17.9105,-49.3595,-22.6102,1023.44
612116,0.430416,9.81827,-0.157819,1.4,-2.38,0.14,18.7822,-51.2715,-20.97,1023.44
612122,0.430416,9.82305,-0.176949,1.19,-2.45,-0.49,17.4165,-47.324,-21.1917,1023.41
612128,0.396939,9.76088,-0.10043,1.75,-2.87,-0.35,17.7943,-47.9717,-23.2604,1023.41
612134,0.420851,9.84696,-0.148254,1.61,-2.59,0.07,18.4045,-50.9631,-20.0243,1023.45
612140,0.449546,9.83261,-0.172166,1.61,-3.15,0.07,17.7943,-48.496,-20.8814,1023.45
612146,0.396939,9.8087,-0.105213,1.4,-2.1,-0.21,17.5328,-46.183,-21.8123,1023.4
612152,0.449546,9.82305,-0.157819,1.26,-2.31,-0.14,18.0267,-49.7604,-20.8814,1023.4
612158,0.411286,9.81349,-0.157819,1.47,-2.8,0.14,18.172,-50.7473,-20.7188,1023.4
612164,0.411286,9.79914,-0.162602,1.68,-2.73,0.21,18.2301,-47.0773,-23.4081,1023.44
612170,0.430416,9.83261,-0.181731,1.26,-2.38,0.21,17.2713,-49.2669,-22.3147,1023.44
612176,0.430416,9.82305,-0.162602,1.33,-2.52,-0.07,18.3464,-51.8267,-20.9553,1023.43
612182,0.47824,9.81827,-0.172166,1.61,-2.38,0,17.8814,-47.4166,-22.5068,1023.43
612188,0.483022,9.8374,-0.167384,1.33,-2.45,-0.21,18.0558,-47.4166,-22.359,1023.43
612194,0.468675,9.83261,-0.215208,1.4,-2.31,-0.35,17.8524,-51.7341,-20.246,1023.43
612200,0.449546,9.86131,-0.191296,1.61,-2.24,-0.49,18.4045,-49.1128,-22.0044,1023.44
612206,0.411286,9.82783,-0.153037,1.33,-2.31,-0.35,18.2592,-46.6764,-22.8466,1023.44
612212,0.392157,9.78001,-0.129125,2.03,-2.8,-0.56,18.6079,-50.7473,-21.9601,1023.44
612218,0.406504,9.82305,-0.148254,1.89,-2.45,-0.63,18.2301,-50.3772,-21.3985,1023.4
612224,0.439981,9.86131,-0.215208,1.54,-2.31,-0.21,17.3294,-46.954,-21.8123,1023.4
612230,0.411286,9.80392,-0.167384,1.33,-2.45,-0.35,17.7362,-49.8221,-21.6793,1023.41
612236,0.401722,9.79914,-0.153037,1.33,-2.45,0.28,18.3754,-51.6416,-21.7384,1023.41
612242,0.420851,9.84696,-0.148254,1.68,-2.24,-0.14,17.6199,-48.2184,-22.758,1023.43
612248,0.45911,9.8374,-0.176949,1.61,-2.24,-0.28,17.2131,-48.0642,-23.2013,1023.43
612254,0.430416,9.81349,-0.167384,1.54,-2.94,-0.07,17.678,-51.9809,-21.6793,1023.43
612260,0.416069,9.82305,-0.167384,1.54,-2.52,-0.21,18.0558,-50.3155,-21.4281,1023.43
612266,0.425634,9.78001,-0.124342,1.33,-2.31,0.07,16.8935,-46.7998,-23.024,1023.43
612272,0.449546,9.8087,-0.167384,1.47,-2.66,-0.21,17.4456,-49.8529,-21.7384,1023.42
612278,0.425634,9.8087,-0.124342,1.47,-2.73,0.77,17.9686,-50.4389,-21.4133,1023.42
612284,0.45911,9.85653,-0.167384,1.33,-2.31,0.35,17.3875,-46.6764,-22.6398,1023.42
612290,0.463893,9.80392,-0.215208,1.54,-2.24,0.14,17.5037,-48.866,-21.1621,1023.42
612296,0.468675,9.82305,-0.196078,1.19,-2.17,0.35,18.172,-51.4257,-21.1621,1023.42
612302,0.45911,9.8374,-0.148254,1.96,-2.94,-0.98,17.7943,-47.2007,-22.4033,1023.42
612308,0.49737,9.85653,-0.229555,1.4,-2.73,-0.35,17.1841,-48.0025,-22.3147,1023.42
612314,0.420851,9.80392,-0.181731,1.33,-2.24,-0.84,17.8814,-50.9323,-20.2312,1023.42
612320,0.373027,9.8087,-0.13869,1.82,-2.52,-0.49,18.7822,-48.2492,-20.9996,1023.43
612326,0.392157,9.79436,-0.143472,1.47,-2.45,-0.28,17.649,-47.0157,-22.9501,1023.43
612332,0.463893,9.8087,-0.157819,1.89,-2.73,-0.49,18.2011,-50.0688,-21.7384,1023.43
612338,0.430416,9.82305,-0.176949,1.61,-2.38,-0.56,18.6079,-50.1613,-20.837,1023.42
612344,0.396939,9.84696,-0.191296,1.75,-2.8,-0.28,17.9105,-46.368,-22.5363,1023.42
612350,0.406504,9.79436,-0.176949,1.54,-2.38,-0.28,17.7362,-49.0202,-22.6989,1023.41
612356,0.411286,9.81349,-0.124342,1.82,-2.59,-0.28,18.7822,-51.3332,-21.8862,1023.41
612362,0.387374,9.81349,-0.148254,1.61,-2.45,-0.21,17.9105,-47.8483,-22.1669,1023.42
612368,0.401722,9.81827,-0.167384,1.26,-2.1,-0.14,17.0969,-47.725,-22.0192,1023.42
612374,0.411286,9.81349,-0.133907,1.47,-2.52,0.35,18.2301,-51.6108,-21.0735,1023.44
612380,0.37781,9.79436,-0.105213,1.4,-2.52,0,18.0558,-49.3595,-21.6941,1023.44
612386,0.420851,9.82783,-0.172166,2.03,-3.36,-0.84,17.2422,-46.8923,-21.9601,1023.44
612392,0.406504,9.82783,-0.186514,1.68,-3.01,0.28,18.3464,-50.3772,-22.1965,1023.42
612398,0.430416,9.79436,-0.13869,1.68,-2.87,0.84,18.4626,-50.8089,-21.6497,1023.42
612404,0.435198,9.82305,-0.167384,1.61,-3.29,-0.35,17.5618,-46.7689,-22.9796,1023.43
612410,0.420851,9.8374,-0.162602,1.96,-3.36,0,17.3875,-49.1744,-23.748,1023.43
612416,0.45911,9.82783,-0.191296,1.82,-2.66,-0.35,18.9275,-51.2715,-20.8962,1023.42
612422,0.473458,9.84218,-0.186514,1.05,-2.45,0.63,18.0558,-47.5708,-22.0192,1023.42
612428,0.468675,9.8374,-0.172166,0.7,-2.38,-0.63,16.8645,-48.1259,-22.3442,1023.41
612434,0.401722,9.81349,-0.153037,1.12,-1.89,-0.98,17.2131,-50.9631,-20.8075,1023.41
612440,0.435198,9.79914,-0.148254,1.82,-2.38,0.42,17.7652,-49.0511,-21.4133,1023.41
612446,0.439981,9.86609,-0.181731,1.82,-2.52,-0.14,17.0969,-46.7073,-22.2556,1023.43
612452,0.416069,9.82783,-0.224773,1.47,-2.8,-0.77,17.7652,-50.5622,-21.3099,1023.43
612458,0.430416,9.84218,-0.176949,1.54,-2.38,-0.35,18.5788,-50.6856,-20.8666,1023.42
612464,0.401722,9.79436,-0.162602,1.89,-2.38,-0.28,17.5037,-46.7073,-22.2408,1023.42
612470,0.392157,9.81349,-0.148254,1.54,-2.31,-0.28,17.5618,-48.7427,-21.9896,1023.39
612476,0.406504,9.83261,-0.191296,1.33,-2.59,-0.28,18.6079,-51.179,-21.4133,1023.39
612482,0.392157,9.77523,-0.124342,1.61,-2.17,-0.14,17.3003,-48.1876,-22.3147,1023.42
612488,0.425634,9.79914,-0.157819,1.26,-2.52,0.14,18.4045,-47.9717,-21.502,1023.42
612494,0.425634,9.85653,-0.172166,1.4,-2.73,-0.42,18.143,-51.8267,-21.2065,1023.42
612500,0.439981,9.78479,-0.133907,1.61,-2.17,0.21,17.7652,-48.8969,-20.7041,1023.43
612506,0.411286,9.81349,-0.186514,1.26,-2.45,0.35,18.1139,-46.3989,-22.3147,1023.43
612512,0.430416,9.87566,-0.186514,1.26,-2.24,-0.49,18.3464,-50.3155,-20.1869,1023.42
612518,0.425634,9.82783,-0.196078,1.47,-2.38,-0.14,18.5788,-51.2715,-20.4233,1023.42
612524,0.416069,9.79914,-0.143472,1.33,-2.59,0.07,17.8524,-46.2138,-22.7432,1023.42
612530,0.425634,9.80392,-0.13869,1.26,-2.66,-0.07,17.9105,-49.5137,-21.7975,1023.42
612536,0.454328,9.84696,-0.191296,1.26,-2.31,-0.56,18.3464,-51.4566,-20.6745,1023.41
612542,0.425634,9.84696,-0.181731,1.4,-2.17,-0.42,18.5207,-47.4782,-21.1326,1023.41
612548,0.401722,9.81349,-0.153037,1.61,-2.17,-0.07,17.3875,-46.8306,-22.2113,1023.44
612554,0.425634,9.81827,-0.13869,1.82,-2.87,16.94,17.5909,-51.4257,-21.1621,1023.44
612560,0.435198,9.78479,-0.162602,1.68,-2.73,-0.42,17.7943,-48.7118,-21.9305,1023.44
612566,0.435198,9.83261,-0.167384,1.82,-2.45,-0.84,17.6199,-46.7073,-23.2456,1023.45
612572,0.392157,9.81827,-0.167384,1.12,-2.66,-0.07,18.1139,-50.1305,-21.4429,1023.45
612578,0.416069,9.82305,-0.133907,2.03,-2.73,-0.14,18.5498,-51.2099,-20.5267,1023.43
612584,0.396939,9.83261,-0.13869,1.61,-2.87,-0.14,18.1139,-46.8615,-21.1621,1023.43
612590,0.406504,9.81349,-0.172166,1.82,-2.87,0.07,17.5328,-49.4212,-23.0535,1023.43
612596,0.37781,9.81827,-0.153037,1.26,-2.31,0.35,18.695,-51.7033,-21.1769,1023.43
612602,0.37781,9.80392,-0.153037,1.68,-2.66,-0.07,18.2011,-47.2315,-21.9748,1023.42
612608,0.430416,9.82783,-0.148254,1.61,-2.45,0,17.9105,-47.1082,-23.3195,1023.42
612614,0.425634,9.86131,-0.196078,1.89,-2.52,0,17.9686,-51.4874,-20.512,1023.42
612620,0.439981,9.82783,-0.186514,1.4,-2.17,0,18.6079,-49.452,-21.9305,1023.44
612626,0.444763,9.82783,-0.143472,1.12,-2.38,0,18.3173,-47.324,-21.9601,1023.44
612632,0.416069,9.85174,-0.157819,1.4,-2.1,-0.21,17.9977,-50.5314,-20.4824,1023.44
612638,0.416069,9.84218,-0.162602,1.54,-2.1,-0.91,18.7822,-50.8398,-20.1869,1023.44
612644,0.449546,9.84696,-0.167384,1.75,-2.38,-0.07,17.126,-46.8306,-21.4724,1023.42
612650,0.387374,9.84218,-0.133907,1.26,-1.96,-0.49,16.8935,-49.7912,-21.4133,1023.42
612656,0.420851,9.84218,-0.133907,1.82,-2.24,-0.77,18.143,-52.2584,-20.6745,1023.42
612662,0.35868,9.8374,-0.153037,1.54,-2.52,-0.14,18.0267,-47.0157,-21.5611,1023.42
612668,0.382592,9.82783,-0.191296,1.54,-2.52,-0.14,17.3294,-47.8483,-22.5363,1023.42
612674,0.430416,9.84218,-0.200861,1.54,-2.94,-0.49,18.4626,-51.9192,-21.5463,1023.41
612680,0.392157,9.80392,-0.181731,1.26,-2.17,-0.35,18.2592,-49.637,-21.5315,1023.41
612686,0.406504,9.8087,-0.157819,1.61,-1.96,0,17.8233,-47.2624,-22.6693,1023.43
612692,0.396939,9.80392,-0.143472,1.26,-2.31,-0.07,17.9977,-50.9631,-21.3985,1023.43
612698,0.382592,9.80392,-0.167384,1.54,-2.03,0.14,18.2011,-50.9015,-21.1474,1023.42
612704,0.392157,9.85174,-0.181731,1.68,-2.24,-0.21,18.0267,-46.8306,-21.6645,1023.42
612710,0.435198,9.83261,-0.162602,1.68,-2.59,-0.7,17.6199,-48.9894,-20.8814,1023.44
612716,0.454328,9.83261,-0.196078,1.75,-2.38,-0.42,18.5207,-51.3024,-19.5219,1023.44
612722,0.45911,9.85174,-0.196078,1.4,-2.17,-0.28,17.9396,-47.91,-21.9896,1023.43
612728,0.439981,9.84696,-0.172166,1.05,-1.96,-0.28,16.7773,-47.3857,-21.8271,1023.43
612734,0.406504,9.8087,-0.133907,1.47,-2.31,-1.05,18.3464,-50.6547,-21.1474,1023.43
612740,0.382592,9.78957,-0.124342,1.68,-2.17,-0.35,17.3003,-48.9586,-21.0882,1023.41
612746,0.406504,9.83261,-0.157819,2.03,-3.08,-0.77,17.4165,-46.6456,-22.1078,1023.41
612752,0.468675,9.9187,-0.263032,1.82,-2.17,-0.42,17.8814,-50.7473,-20.8666,1023.41
612758,0.425634,9.8374,-0.205643,1.19,-1.89,-0.56,17.9686,-50.8706,-20.6302,1023.41
612764,0.33955,9.76566,-0.0765184,1.33,-1.61,-0.7,17.2131,-47.8175,-21.2951,1023.44
612770,0.344333,9.79436,-0.114778,1.82,-2.38,-0.56,17.5909,-49.3286,-21.7975,1023.44
612776,0.349115,9.84696,-0.143472,1.61,-2.31,-0.21,18.5788,-52.2276,-19.8766,1023.41
612782,0.363462,9.83261,-0.157819,1.82,-2.17,0.07,17.649,-47.3549,-21.5759,1023.41
612788,0.401722,9.82305,-0.13869,1.54,-2.31,-0.49,16.7773,-47.6633,-21.3838,1023.41
612794,0.373027,9.79436,-0.153037,1.68,-2.45,-0.21,18.2301,-51.9809,-20.7632,1023.44
612800,0.392157,9.79436,-0.143472,1.54,-2.52,-0.07,17.9977,-49.2669,-20.9109,1023.44
612806,0.411286,9.79436,-0.162602,1.68,-2.17,0.21,17.9977,-46.3063,-22.8466,1023.43
612812,0.373027,9.84218,-0.172166,1.54,-2.03,-0.42,17.5618,-50.6547,-20.8962,1023.43
612818,0.406504,9.79914,-0.13869,1.82,-2.31,-0.21,18.3173,-51.179,-20.6006,1023.42
612824,0.439981,9.88044,-0.234338,1.33,-2.31,-0.07,17.7943,-46.5839,-20.7632,1023.42
612830,0.353898,9.89,-0.215208,1.26,-2.66,-0.21,18.2592,-49.2361,-21.9157,1023.43
612836,0.454328,9.82783,-0.176949,2.31,-2.94,-0.42,18.9565,-51.8883,-20.9553,1023.43
612842,0.439981,9.85653,-0.234338,1.61,-2.52,-0.77,17.649,-47.2315,-21.9453,1023.43
612848,0.411286,9.82783,-0.167384,1.82,-2.38,-0.91,17.7362,-47.7558,-21.8714,1023.41
612854,0.392157,9.88044,-0.243902,2.31,-2.03,-0.77,18.7241,-51.95,-22.8319,1023.41
612860,0.45911,9.89479,-0.248685,1.68,-2.38,-1.4,17.9396,-49.3595,-21.1474,1023.44
612866,0.487805,9.78957,-0.11956,1.26,-1.68,-1.26,17.7362,-46.7073,-22.8466,1023.44
612872,0.344333,9.73697,-0.0191296,2.17,-1.75,-1.12,18.0267,-51.1482,-21.9601,1023.41
612878,0.334768,9.81349,-0.10043,2.66,-2.31,-1.26,19.3924,-50.408,-22.1965,1023.41
612884,0.411286,9.84218,-0.215208,2.24,-1.82,-1.19,18.3173,-47.139,-22.5216,1023.41
612890,0.406504,9.82783,-0.162602,1.75,-1.68,-1.4,17.9977,-49.7912,-22.5954,1023.41
612896,0.325203,9.76088,-0.143472,2.31,-1.05,-0.63,18.8984,-50.994,-22.1817,1023.44
612902,0.368245,9.87566,-0.157819,1.89,-1.54,-0.84,17.9686,-48.0642,-22.8466,1023.44
612908,0.411286,9.79436,-0.210426,1.26,-1.75,-0.98,16.9807,-48.496,-22.0192,1023.44
612914,0.420851,9.83261,-0.329986,2.17,-1.33,-1.47,18.172,-51.3332,-21.4724,1023.41
612920,0.411286,9.84218,-0.172166,1.96,-1.96,-1.33,18.6079,-48.9586,-21.768,1023.41
612926,0.449546,9.90435,-0.320421,1.96,-1.75,-1.26,18.4626,-46.1521,-22.4772,1023.4
612932,0.511717,9.9187,-0.25825,1.75,-0.84,-1.54,18.8113,-50.1305,-21.635,1023.4
612938,0.45911,9.79914,-0.148254,1.96,-0.56,-1.89,18.9565,-50.7473,-21.1178,1023.42
612944,0.387374,9.8087,-0.109995,2.03,-0.63,-1.96,17.5909,-45.9363,-23.5559,1023.42
612950,0.425634,9.82305,-0.176949,2.52,-0.84,-1.89,18.0848,-48.7735,-22.6989,1023.42
612956,0.430416,9.85174,-0.196078,2.45,0.07,-2.24,18.8403,-51.5183,-21.1178,1023.42
612962,0.363462,9.8374,-0.200861,2.87,-0.56,-2.24,18.6079,-48.3109,-20.8962,1023.42
612968,0.373027,9.8087,-0.129125,3.15,-0.42,-2.31,17.1841,-47.5399,-22.758,1023.39
612974,0.349115,9.82305,-0.196078,3.36,-0.21,-2.38,18.4045,-51.6416,-21.7532,1023.39
612980,0.310856,9.79914,-0.143472,3.57,0.28,-2.03,19.0437,-49.452,-21.4281,1023.39
612986,0.320421,9.8087,-0.191296,3.5,0.7,-1.96,17.649,-47.324,-21.1326,1023.39
612992,0.291726,9.81827,-0.162602,3.5,0,-1.47,18.0848,-49.6062,-22.0783,1023.42
612998,0.33955,9.82305,-0.172166,2.94,0.42,-2.17,17.9686,-51.2407,-22.5511,1023.42
613004,0.306074,9.82305,-0.153037,3.15,0.56,-1.05,17.4456,-46.7689,-23.4525,1023.39
613010,0.306074,9.84696,-0.181731,2.52,0,-0.7,18.6369,-49.452,-22.6545,1023.39
613016,0.315638,9.81827,-0.162602,2.94,0.28,-0.91,18.0558,-52.1042,-21.3247,1023.39
613022,0.315638,9.79436,-0.109995,2.24,0.14,-0.91,17.6199,-48.1259,-21.6941,1023.39
613028,0.306074,9.8087,-0.148254,2.59,-17.85,-1.12,17.8233,-48.1567,-22.891,1023.39
613034,0.329986,9.8087,-0.162602,2.38,-0.14,-0.7,18.695,-51.8883,-22.1374,1023.44
613040,0.315638,9.82783,-0.167384,1.96,-0.63,-0.21,18.8403,-49.2053,-21.0882,1023.44
613046,0.296509,9.81827,-0.176949,1.82,-0.7,-0.56,17.6199,-46.7381,-22.5363,1023.41
613052,0.363462,9.82783,-0.200861,1.82,-0.63,-0.98,17.8814,-50.5622,-21.4724,1023.41
613058,0.334768,9.81349,-0.176949,1.89,-0.77,-0.35,18.5207,-50.5005,-20.1426,1023.4
613064,0.315638,9.78957,-0.143472,1.47,-0.56,-0.63,18.2011,-47.1698,-21.5168,1023.4
613070,0.296509,9.8087,-0.109995,1.96,-0.7,-1.05,17.2131,-48.3418,-20.7188,1023.41
613076,0.315638,9.81349,-0.162602,1.96,-1.19,-0.56,18.7822,-51.4566,-19.9948,1023.41
613082,0.301291,9.80392,-0.172166,1.89,-1.26,-0.21,18.2592,-48.2184,-21.635,1023.41
613088,0.296509,9.77044,-0.133907,1.96,-1.61,-0.63,17.3584,-48.4343,-22.492,1023.4
613094,0.282162,9.74175,-0.105213,2.17,-1.89,-0.56,18.2592,-51.3949,-20.6006,1023.4
613100,0.296509,9.81349,-0.148254,1.89,-1.96,-0.35,18.3464,-49.7912,-21.1917,1023.39
613106,0.286944,9.81827,-0.215208,2.24,-2.03,0.35,17.7652,-47.1698,-22.6841,1023.39
613112,0.291726,9.81349,-0.13869,1.82,-2.1,0.42,17.9686,-49.5445,-21.2212,1023.4
613118,0.301291,9.77044,-0.153037,1.89,-2.24,0,18.0558,-50.7473,-21.6793,1023.4
613124,0.306074,9.78479,-0.176949,1.82,-2.45,0.28,18.2011,-46.4914,-22.1965,1023.44
613130,0.306074,9.81827,-0.191296,1.54,-2.8,0.21,18.2592,-48.4034,-22.7875,1023.44
613136,0.320421,9.77044,-0.11956,1.61,-2.66,0.63,18.8403,-51.9809,-20.3199,1023.44
613142,0.310856,9.84218,-0.224773,2.03,-3.08,0.21,18.0558,-47.5708,-21.2065,1023.43
613148,0.37781,9.85174,-0.25825,1.96,-2.94,0.56,17.4747,-47.91,-21.5759,1023.43
613154,0.392157,9.85174,-0.296509,1.75,-2.45,0,18.9565,-51.7958,-20.512,1023.4
613160,0.37781,9.86609,-0.205643,1.47,-2.66,17.57,19.189,-49.452,-20.6154,1023.4
613166,0.310856,9.83261,-0.181731,1.75,-2.87,0.07,17.9105,-46.6456,-22.226,1023.44
613172,0.37781,9.84696,-0.272597,1.82,-2.94,-0.21,19.2762,-50.0996,-21.3985,1023.44
613178,0.396939,9.85653,-0.253467,1.54,-2.8,-0.35,18.695,-51.6725,-21.1178,1023.44
613184,0.353898,9.84218,-0.205643,1.61,-2.66,-0.49,18.2882,-47.5399,-21.9453,1023.44
613190,0.334768,9.80392,-0.210426,1.82,-2.38,-0.28,18.3754,-49.5137,-21.0882,1023.44
613196,0.344333,9.79914,-0.196078,1.89,-2.73,0,18.8113,-51.5183,-21.2212,1023.44
613202,0.329986,9.8087,-0.172166,1.96,-2.73,-0.21,18.0267,-47.8483,-21.4281,1023.44
613208,0.320421,9.77523,-0.176949,1.96,-2.73,0,16.8354,-47.6016,-22.3295,1023.41
613214,0.320421,9.82783,-0.186514,1.75,-3.01,0.28,18.1139,-51.2407,-20.7927,1023.41
613220,0.334768,9.78001,-0.21999,1.82,-2.66,0.56,18.4335,-50.1613,-21.5611,1023.42
613226,0.306074,9.8087,-0.205643,1.61,-2.87,0.42,18.4045,-46.7689,-22.3442,1023.42
613232,0.301291,9.79914,-0.210426,1.68,-2.73,0.56,18.2882,-50.2847,-22.093,1023.44
613238,0.301291,9.78001,-0.167384,1.61,-2.87,0.56,18.1139,-50.9015,-20.3051,1023.44
613244,0.416069,9.83261,-0.25825,1.68,-2.87,0.21,18.0267,-46.3989,-22.8762,1023.44
613250,0.253467,9.80392,-0.162602,1.61,-3.15,1.12,17.5909,-48.1567,-22.1226,1023.42
613256,0.396939,9.81827,-0.253467,1.26,-3.64,0.49,18.6079,-51.0865,-21.0291,1023.42
613262,0.401722,9.82783,-0.267814,1.47,-2.66,0.07,18.2011,-47.6941,-21.2951,1023.44
613268,0.344333,9.84218,-0.23912,1.75,-2.87,0.63,18.4335,-47.4474,-22.9648,1023.44
613274,0.353898,9.89479,-0.21999,1.33,-2.66,0.35,18.0848,-51.5491,-22.0339,1023.43
613280,0.382592,9.81349,-0.210426,1.75,-2.59,0,18.3464,-49.2361,-20.9996,1023.43
613286,0.334768,9.82783,-0.181731,1.68,-3.01,0.49,17.9977,-47.0157,-22.2113,1023.42
613292,0.329986,9.83261,-0.176949,1.33,-2.52,0.42,17.9396,-51.0557,-20.7632,1023.42
613298,0.329986,9.77044,-0.181731,1.61,-2.8,0.35,17.6199,-51.8883,-21.8418,1023.44
613304,0.349115,9.81827,-0.205643,1.61,-2.87,0.35,17.9686,-47.7558,-21.4281,1023.44
613310,0.334768,9.87087,-0.224773,1.19,-2.59,0.7,17.9686,-49.2053,-21.3838,1023.44
613316,0.286944,9.78957,-0.157819,1.4,-2.94,0.56,18.8403,-51.5183,-21.0587,1023.41
613322,0.301291,9.75131,-0.105213,1.26,-3.22,0.63,17.9686,-47.91,-22.1521,1023.41
613328,0.315638,9.8087,-0.153037,1.4,-3.15,1.05,18.0558,-48.0334,-22.1965,1023.42
613334,0.334768,9.81827,-0.21999,1.26,-3.29,0.77,18.1139,-51.5491,-21.6497,1023.42
613340,0.325203,9.79914,-0.162602,1.19,-3.01,0.77,18.2592,-49.2978,-21.3542,1023.41
613346,0.329986,9.78957,-0.167384,1.82,-3.36,0.77,18.143,-46.5222,-21.4429,1023.41
613352,0.334768,9.84696,-0.229555,1.19,-3.5,0.7,18.9565,-50.408,-20.97,1023.44
613358,0.329986,9.87087,-0.23912,1.4,-3.15,0.84,18.9275,-50.6547,-20.7041,1023.44
613364,0.334768,9.86131,-0.200861,0.7,-2.8,0.84,18.2592,-46.7689,-22.3295,1023.44
613370,0.353898,9.80392,-0.129125,1.33,-3.5,1.12,18.4916,-48.9894,-20.5415,1023.43
613376,0.329986,9.82305,-0.186514,1.4,-3.5,0.7,18.7822,-51.5183,-20.3347,1023.43
613382,0.382592,9.85174,-0.196078,0.98,-3.5,0.84,18.2882,-47.3857,-22.4772,1023.42
613388,0.349115,9.84218,-0.196078,0.84,-3.64,1.26,18.2301,-47.6324,-22.1817,1023.42
613394,0.310856,9.79914,-0.176949,0.77,-3.57,0.77,18.3464,-51.6416,-20.3051,1023.45
613400,0.291726,9.80392,-0.167384,1.75,-3.92,0.63,17.8814,-50.5314,-22.1817,1023.45
613406,0.349115,9.8374,-0.176949,1.12,-3.99,0.84,17.7362,-46.954,-22.2408,1023.45
613412,0.363462,9.8374,-0.153037,0.77,-4.34,1.26,18.3464,-50.994,-21.4724,1023.45
613418,0.33955,9.80392,-0.186514,1.26,-4.2,1.19,19.2181,-51.4566,-20.9405,1023.45
613424,0.325203,9.80392,-0.191296,0.84,-4.2,0.63,17.9686,-47.91,-22.6693,1023.47
613430,0.334768,9.79914,-0.157819,0.63,-3.78,1.05,18.5207,-49.1128,-21.8862,1023.47
613436,0.344333,9.81827,-0.167384,1.05,-4.48,0.98,19.3052,-50.8706,-21.0587,1023.46
613442,0.37781,9.8087,-0.133907,0.98,-4.55,1.33,18.5788,-47.8792,-22.7728,1023.46
613448,0.368245,9.81349,-0.167384,0.91,-4.06,1.61,18.2301,-47.4782,-23.1569,1023.4
613454,0.368245,9.81349,-0.186514,1.19,-4.13,1.47,18.4916,-50.9323,-22.2408,1023.4
613460,0.382592,9.82305,-0.215208,0.84,-3.92,1.12,18.8694,-48.7735,-21.1621,1023.43
613466,0.416069,9.84696,-0.243902,1.05,-4.13,0.84,17.2713,-46.5839,-22.9057,1023.43
613472,0.439981,9.85653,-0.277379,1.12,-3.29,1.05,18.7241,-50.6239,-21.7532,1023.41
613478,0.416069,9.83261,-0.243902,0.49,-3.15,0.7,18.666,-50.5622,-21.0144,1023.41
613484,0.392157,9.81827,-0.215208,1.05,-3.36,0.63,18.3464,-47.1082,-21.5759,1023.41
613490,0.392157,9.79436,-0.200861,1.26,-3.43,1.05,18.1139,-48.2801,-20.7188,1023.42
613496,0.401722,9.86131,-0.196078,1.26,-3.5,0.98,18.1139,-51.7341,-20.6893,1023.42
613502,0.368245,9.82305,-0.167384,1.26,-3.36,0.7,17.8524,-47.2007,-21.0439,1023.37
613508,0.368245,9.82305,-0.191296,1.89,-3.71,0.56,18.0848,-47.5091,-22.4477,1023.37
613514,0.353898,9.8374,-0.196078,1.33,-3.43,0.56,18.9565,-50.8706,-21.8271,1023.44
613520,0.329986,9.78957,-0.143472,1.26,-3.01,0.98,18.6369,-48.8044,-20.7779,1023.44
613526,0.33955,9.78957,-0.105213,1.54,-4.06,0.98,18.143,-46.0288,-22.9057,1023.44
613532,0.35868,9.81827,-0.133907,1.89,-4.13,0.91,17.8814,-51.2407,-22.4329,1023.44
613538,0.334768,9.81827,-0.196078,1.26,-3.92,0.91,18.4916,-50.7164,-20.2755,1023.44
613544,0.334768,9.78479,-0.172166,1.26,-3.92,1.33,18.2011,-47.6324,-20.6006,1023.42
613550,0.349115,9.78957,-0.133907,1.47,-3.85,0.98,18.5788,-48.9277,-21.8271,1023.42
613556,0.373027,9.81349,-0.191296,1.54,-4.06,0.98,18.2301,-51.2099,-20.4529,1023.46
613562,0.37781,9.82305,-0.176949,1.47,-4.06,1.12,18.2011,-48.5576,-20.7336,1023.46
613568,0.425634,9.84696,-0.23912,0.91,-3.92,0.84,17.155,-48.3109,-23.2013,1023.42
613574,0.411286,9.84218,-0.229555,0.98,-3.92,1.05,18.4335,-50.994,-20.6597,1023.42
613580,0.420851,9.84218,-0.224773,1.26,-3.64,0.49,17.7071,-48.8044,-20.7041,1023.41
613586,0.416069,9.8374,-0.191296,1.19,-3.29,0.56,18.5207,-46.954,-21.8271,1023.41
613592,0.382592,9.8087,-0.186514,1.33,-3.36,0.77,18.2011,-49.3903,-21.635,1023.41
613598,0.430416,9.86131,-0.186514,1.61,-3.5,0.91,18.143,-50.3463,-22.2999,1023.4
613604,0.401722,9.85174,-0.215208,1.68,-3.36,0.77,18.8403,-46.8306,-22.1226,1023.4
613610,0.392157,9.78957,-0.162602,1.26,-2.94,0.42,17.8524,-49.7912,-21.4281,1023.41
613616,0.37781,9.81827,-0.176949,1.68,-3.22,0.28,18.666,-51.0248,-20.6597,1023.41
613622,0.368245,9.82783,-0.176949,1.68,-3.22,0.63,18.1139,-47.6941,-21.8123,1023.41
613628,0.35868,9.79436,-0.186514,1.33,-2.8,0.28,17.9977,-47.5708,-22.492,1023.41
613634,0.353898,9.82783,-0.157819,1.19,-3.15,0.56,18.8403,-51.7341,-21.0882,1023.42
613640,0.33955,9.80392,-0.176949,1.19,-3.08,0.7,18.6369,-49.4828,-21.5906,1023.42
613646,0.387374,9.82305,-0.157819,1.4,-3.29,0.63,17.8524,-47.139,-22.0044,1023.42
613652,0.363462,9.83261,-0.176949,1.47,-3.29,0.7,18.4335,-50.0688,-21.1326,1023.42
613658,0.37781,9.83261,-0.234338,1.19,-2.8,0.7,18.7532,-50.1613,-21.1474,1023.42
613664,0.387374,9.86609,-0.200861,1.4,-3.22,0.84,17.7362,-46.6147,-22.0192,1023.43
613670,0.435198,9.81349,-0.215208,1.12,-2.94,0.63,17.2422,-49.5445,-22.3738,1023.43
613676,0.430416,9.85653,-0.191296,1.61,-2.73,0.49,18.8403,-51.3332,-20.9553,1023.43
613682,0.392157,9.86609,-0.229555,1.68,-3.08,0.28,18.0848,-47.7558,-21.3394,1023.43
613688,0.416069,9.88522,-0.205643,0.98,-2.73,0.35,17.3003,-47.3549,-22.9944,1023.42
613694,0.387374,9.81827,-0.181731,0.77,-2.66,0.07,18.172,-50.8398,-21.635,1023.42
613700,0.392157,9.79436,-0.157819,1.54,-2.52,0.07,18.0848,-48.7427,-21.8714,1023.41
613706,0.368245,9.81827,-0.186514,1.47,-2.38,0.07,17.678,-46.1213,-22.3442,1023.41
613712,0.37781,9.8087,-0.148254,1.68,-2.66,0.14,17.7071,-50.223,-22.4477,1023.41
613718,0.368245,9.81349,-0.196078,1.54,-3.01,0.42,18.5498,-50.5622,-20.2164,1023.42
613724,0.368245,9.78957,-0.167384,1.47,-2.87,0.35,18.2011,-46.9231,-22.5511,1023.42
613730,0.373027,9.81827,-0.191296,1.4,-2.52,0.49,18.0267,-49.1436,-22.0635,1023.44
613736,0.368245,9.79436,-0.186514,1.19,-2.66,0.77,18.7241,-51.5799,-19.8914,1023.44
613742,0.382592,9.80392,-0.196078,1.33,-2.38,0.98,17.7943,-47.8792,-21.7827,1023.42
613748,0.35868,9.77044,-0.172166,1.19,-2.8,0.77,17.7071,-47.5708,-22.8023,1023.42
613754,0.349115,9.8087,-0.157819,1.19,-2.45,0.84,17.8524,-50.9323,-21.236,1023.43
613760,0.363462,9.81827,-0.13869,1.26,-2.59,1.05,18.2301,-50.1613,-20.7927,1023.43
613766,0.382592,9.80392,-0.153037,1.33,-2.94,0.77,17.0679,-46.6147,-22.0044,1023.43
613772,0.382592,9.8087,-0.162602,1.19,-2.66,0.84,17.6199,-50.3772,-20.6302,1023.41
613778,0.387374,9.84218,-0.181731,1.26,-2.87,0.63,18.8113,-50.3772,-20.4824,1023.41
613784,0.439981,9.81827,-0.186514,1.33,-2.73,0.91,17.3294,-46.7381,-22.3147,1023.42
613790,0.401722,9.8374,-0.162602,1.19,-2.52,0.77,17.4165,-48.8352,-22.6398,1023.42
613796,0.387374,9.80392,-0.148254,1.33,-3.15,0.35,18.5207,-51.9809,-21.3542,1023.44
613802,0.411286,9.81827,-0.215208,1.19,-3.29,0.77,17.8524,-47.4782,-22.8614,1023.44
613808,0.406504,9.84218,-0.200861,1.19,-2.87,0.63,17.7071,-48.0642,-23.3047,1023.42
613814,0.368245,9.85653,-0.191296,1.4,-2.73,0.91,17.8524,-51.179,-21.0882,1023.42
613820,0.368245,9.81349,-0.157819,1.68,-2.8,0.14,18.172,-50.5931,-22.1226,1023.4
613826,0.396939,9.82305,-0.176949,1.54,-3.08,0.91,17.7943,-46.3372,-22.0044,1023.4
613832,0.392157,9.84218,-0.200861,1.47,-3.15,1.12,18.3173,-51.0248,-21.3542,1023.4
613838,0.406504,9.81349,-0.167384,1.05,-2.8,1.19,18.8113,-51.0248,-21.6645,1023.45
613844,0.373027,9.81827,-0.176949,1.4,-3.22,0.49,18.0848,-47.2624,-22.226,1023.45
613850,0.392157,9.84218,-0.153037,1.19,-3.22,0.42,18.0848,-48.9277,-23.1717,1023.4
613856,0.401722,9.8087,-0.157819,1.33,-2.59,0.84,17.8524,-51.8267,-20.7041,1023.4
613862,0.396939,9.78957,-0.153037,1.05,-2.66,1.12,17.9686,-47.7558,-21.6645,1023.41
613868,0.392157,9.85653,-0.200861,1.05,-3.01,0.98,18.1139,-47.1698,-23.1422,1023.41
613874,0.425634,9.82305,-0.157819,1.33,-3.08,1.05,17.8233,-51.3332,-21.7975,1023.43
613880,0.444763,9.86131,-0.181731,1.26,-2.94,0.98,18.5788,-49.2669,-22.6693,1023.43
613886,0.449546,9.87087,-0.200861,1.4,-2.87,0.63,17.4747,-47.2007,-21.7975,1023.43
613892,0.444763,9.83261,-0.167384,1.05,-2.52,0.63,18.2301,-50.994,-22.2408,1023.4
613898,0.435198,9.8374,-0.133907,1.12,-2.8,0.84,19.0147,-51.5491,-21.3247,1023.4
613904,0.387374,9.8087,-0.143472,1.54,-2.8,0.63,17.5328,-47.5091,-22.6398,1023.41
613910,0.430416,9.8087,-0.181731,1.54,-2.87,0.91,17.678,-48.9586,-22.5954,1023.41
613916,0.392157,9.84218,-0.157819,1.61,-3.29,0.35,18.0558,-51.6725,-21.2803,1023.39
613922,0.37781,9.8374,-0.157819,1.33,-2.59,0.49,18.2011,-47.7558,-21.9305,1023.39
613928,0.392157,9.78001,-0.129125,1.47,-2.8,0.49,17.5037,-47.1082,-22.492,1023.43
613934,0.406504,9.8374,-0.162602,1.61,-2.59,0.98,18.3464,-51.5491,-21.8862,1023.43
613940,0.373027,9.82305,-0.176949,1.89,-2.94,0.91,18.1139,-50.0379,-21.0291,1023.43
613946,0.425634,9.79914,-0.172166,1.19,-3.01,0,17.8814,-47.4782,-22.0783,1023.44
613952,0.382592,9.81827,-0.176949,1.61,-3.22,0.7,17.9686,-50.2538,-21.4133,1023.44
613958,0.411286,9.80392,-0.148254,1.54,-3.01,0.7,17.7652,-51.0865,-20.0391,1023.41
613964,0.396939,9.81349,-0.176949,1.26,-2.8,0.91,18.3754,-46.954,-22.6693,1023.41
613970,0.406504,9.83261,-0.200861,1.19,-2.87,0.49,18.2301,-48.5576,-21.9157,1023.43
613976,0.449546,9.85174,-0.21999,1.19,-2.8,0.28,18.2011,-51.9809,-22.6989,1023.43
613982,0.425634,9.8374,-0.181731,1.19,-2.94,0.56,18.666,-48.1567,-22.226,1023.42
613988,0.411286,9.78957,-0.172166,1.61,-2.94,0.56,18.2011,-47.5091,-24.1617,1023.42
613994,0.420851,9.82305,-0.162602,1.33,-2.45,0.56,17.9105,-51.4566,-21.0439,1023.46
614000,0.420851,9.85174,-0.176949,1.61,-2.52,0,18.0848,-49.6987,-21.7827,1023.46
614006,0.416069,9.8374,-0.167384,1.75,-2.73,0.21,17.4456,-47.2007,-22.3147,1023.46
614012,0.396939,9.79914,-0.162602,1.54,-2.52,-0.07,17.7652,-50.6547,-20.6154,1023.42
614018,0.411286,9.81349,-0.181731,1.33,-2.38,0,18.4916,-49.8529,-22.891,1023.42
614024,0.416069,9.84218,-0.172166,1.68,-2.66,0.35,17.3003,-46.5531,-22.7137,1023.42
614030,0.396939,9.8374,-0.191296,1.12,-2.73,0.28,18.6369,-47.91,-22.8762,1023.42
614036,0.411286,9.84696,-0.196078,1.75,-2.66,0.14,18.8984,-51.7033,-21.8714,1023.42
614042,0.420851,9.82783,-0.124342,1.75,-2.31,0.21,18.7241,-48.1567,-21.4281,1023.42
614048,0.392157,9.80392,-0.153037,1.61,-2.94,0.63,17.678,-47.4474,-23.7923,1023.43
614054,0.449546,9.82305,-0.167384,1.75,-2.66,0.49,18.143,-50.9631,-22.0635,1023.43
614060,0.387374,9.81827,-0.109995,1.54,-2.59,0.28,18.172,-49.3903,-22.5659,1023.43
614066,0.387374,9.81827,-0.114778,1.4,-2.8,0.49,17.678,-46.7998,-24.2652,1023.43
614072,0.430416,9.82305,-0.196078,1.61,-2.73,0.7,18.8113,-50.3155,-22.6989,1023.43
614078,0.420851,9.85653,-0.224773,1.68,-3.01,0.28,18.9275,-49.9763,-20.5711,1023.44
614084,0.47824,9.83261,-0.25825,1.4,-2.59,0.14,18.2592,-45.9363,-22.3886,1023.44
614090,0.502152,9.86131,-0.234338,1.75,-2.45,0,17.8814,-48.1259,-22.2704,1023.41
614096,0.368245,9.89957,-0.205643,1.33,-2.8,-0.07,18.5498,-51.5183,-21.4872,1023.41
614102,0.392157,9.82305,-0.133907,1.19,-2.73,-0.56,18.4045,-47.0157,-22.5363,1023.43
614108,0.411286,9.78001,-0.0813008,1.54,-2.59,-0.21,18.2592,-47.0465,-23.4672,1023.43
614114,0.411286,9.77523,-0.109995,1.82,-2.8,-0.49,18.4916,-51.0557,-20.5415,1023.43
614120,0.430416,9.81349,-0.13869,1.89,-2.31,-0.42,18.2301,-49.3595,-20.97,1023.4
614126,0.382592,9.80392,-0.143472,2.03,-2.17,-0.28,17.5037,-46.5839,-22.3295,1023.4
614132,0.363462,9.83261,-0.172166,1.54,-2.87,0,18.0267,-50.0688,-22.0487,1023.44
614138,0.406504,9.81827,-0.191296,1.89,-2.94,-0.14,17.9686,-50.0688,-21.8862,1023.44
614144,0.411286,9.82783,-0.172166,1.4,-2.45,0.14,17.7071,-46.954,-22.7875,1023.41
614150,0.382592,9.84218,-0.153037,1.96,-2.52,0.35,18.0848,-48.8352,-22.6545,1023.41
614156,0.406504,9.82783,-0.196078,1.89,-2.31,0.28,18.2882,-51.179,-20.9405,1023.42
614162,0.439981,9.85653,-0.157819,1.75,-3.08,0.35,18.2011,-47.4782,-22.3886,1023.42
614168,0.416069,9.81827,-0.176949,1.12,-2.31,0.63,17.0388,-47.4782,-23.349,1023.42
614174,0.468675,9.86609,-0.205643,1.82,-2.31,0.14,18.1139,-50.4389,-22.3295,1023.43
614180,0.425634,9.84696,-0.234338,1.61,-2.66,0.14,17.9105,-48.8352,-22.1669,1023.43
614186,0.425634,9.84218,-0.200861,1.47,-2.45,-0.14,17.2131,-46.6456,-23.2456,1023.41
614192,0.45911,9.8374,-0.191296,1.12,-2.1,-0.21,17.9396,-50.4389,-22.0044,1023.41
614198,0.420851,9.85653,-0.186514,1.4,-2.73,-0.35,18.2882,-50.1921,-21.3838,1023.39
614204,0.435198,9.83261,-0.167384,1.26,-2.66,-0.49,17.155,-47.0773,-21.768,1023.39
614210,0.430416,9.82783,-0.13869,0.91,-2.52,-0.63,17.6199,-48.9586,-23.3195,1023.42
614216,0.401722,9.78957,-0.133907,1.54,-2.66,-0.42,17.9977,-51.6725,-21.0439,1023.42
614222,0.430416,9.81827,-0.153037,1.54,-2.8,-0.77,17.649,-47.6324,-22.4625,1023.45
614228,0.396939,9.7561,-0.157819,1.47,-2.38,-0.56,17.0679,-46.9231,-23.6741,1023.45
614234,0.33955,9.79436,-0.0813008,1.75,-2.87,-0.28,17.5037,-50.4389,-22.359,1023.45
614240,0.420851,9.78479,-0.13869,2.1,-3.08,0.28,18.4045,-48.7427,-22.3147,1023.43
614246,0.363462,9.84696,-0.162602,1.47,-2.8,0.28,17.0969,-46.7689,-22.3442,1023.43
614252,0.396939,9.78001,-0.172166,1.96,-2.1,0.42,17.2422,-49.9763,-22.8319,1023.43
614258,0.33955,9.87087,-0.153037,1.96,-2.17,0.42,17.5909,-51.3024,-21.1769,1023.43
614264,0.363462,9.84696,-0.210426,1.26,-2.66,0.77,17.3584,-46.8923,-23.1126,1023.42
614270,0.416069,9.81827,-0.162602,1.82,-2.94,0.7,17.155,-49.2978,-23.2456,1023.42
614276,0.416069,9.86131,-0.172166,1.54,-2.03,0.56,18.6079,-51.9192,-20.9109,1023.44
614282,0.430416,9.81827,-0.148254,1.47,-2.1,0.7,17.8233,-48.2801,-22.8762,1023.44
614288,0.435198,9.83261,-0.196078,1.54,-2.17,0.42,17.2422,-47.4474,-23.0535,1023.44
614294,0.382592,9.84218,-0.172166,1.61,-2.38,0.42,17.5909,-49.9454,-21.8566,1023.43
614300,0.444763,9.86131,-0.181731,1.12,-2.45,0.21,18.0267,-48.7118,-20.9553,1023.43
614306,0.416069,9.82305,-0.176949,1.47,-2.66,0.14,17.2131,-46.368,-22.4772,1023.48
614312,0.411286,9.81349,-0.143472,1.54,-2.31,0.14,17.8233,-49.2053,-22.093,1023.48
614318,0.425634,9.84218,-0.162602,1.54,-2.59,-0.07,18.5788,-51.3332,-21.0291,1023.43
614324,0.420851,9.82305,-0.157819,1.33,-2.31,0.42,17.5618,-46.9848,-22.8762,1023.43
614330,0.439981,9.83261,-0.143472,1.61,-1.96,0.35,17.1841,-48.3109,-22.5659,1023.44
614336,0.392157,9.78957,-0.153037,1.54,-2.66,0.42,17.9686,-51.0865,-20.3347,1023.44
614342,0.406504,9.78957,-0.129125,1.68,-2.8,0.14,17.5328,-47.8792,-21.6793,1023.44
614348,0.37781,9.78479,-0.148254,1.82,-2.59,0.14,17.678,-47.5399,-22.4477,1023.44
614354,0.396939,9.81827,-0.181731,1.26,-2.38,0.91,17.9686,-50.408,-21.2656,1023.44
614360,0.406504,9.80392,-0.205643,1.47,-2.66,0.63,18.143,-49.1744,-20.6154,1023.45
614366,0.392157,9.82305,-0.181731,1.33,-2.1,0.63,17.5328,-46.5222,-22.4329,1023.45
614372,0.416069,9.83261,-0.181731,1.33,-2.1,0.7,17.7071,-50.5005,-21.5759,1023.42
614378,0.406504,9.80392,-0.133907,1.47,-2.59,0.42,17.649,-50.5314,-22.6545,1023.42
614384,0.468675,9.84696,-0.210426,0.98,-2.24,0.28,17.8814,-46.8306,-21.8862,1023.43
614390,0.387374,9.79914,-0.148254,1.47,-2.59,0.56,17.7943,-47.6941,-22.758,1023.43
614396,0.511717,9.84218,-0.253467,0.84,-2.03,0.28,18.6369,-51.4874,-21.3394,1023.42
614402,0.449546,9.78957,-0.148254,1.75,-2.59,0,18.9565,-47.5399,-22.625,1023.42
614408,0.382592,9.89,-0.229555,1.54,-2.52,0.07,17.6199,-47.8175,-22.891,1023.42
614414,0.420851,9.81827,-0.167384,1.26,-2.1,0.14,17.8524,-51.3024,-20.9996,1023.4
614420,0.425634,9.82783,-0.153037,1.68,-2.52,0.07,18.2882,-49.5445,-20.645,1023.4
614426,0.420851,9.84218,-0.200861,1.61,-1.96,0,17.5909,-46.7073,-23.0387,1023.4
614432,0.411286,9.79436,-0.143472,1.47,-2.1,0,18.6369,-50.0996,-21.5463,1023.4
614438,0.387374,9.79436,-0.13869,1.89,-2.31,0.21,18.2882,-50.5931,-21.4281,1023.42
614444,0.353898,9.8087,-0.157819,1.61,-2.38,0.35,18.5788,-46.4605,-23.6741,1023.42
614450,0.401722,9.81827,-0.210426,1.82,-2.17,0.14,17.7362,-47.6016,-22.8319,1023.41
614456,0.382592,9.78957,-0.124342,1.68,-2.66,0.49,18.1139,-51.3024,-21.8566,1023.41
614462,0.382592,9.79914,-0.162602,1.96,-2.38,0.42,18.3173,-47.91,-22.2851,1023.41
614468,0.420851,9.81349,-0.143472,1.82,-2.31,0.77,17.5328,-47.2315,-23.4525,1023.44
614474,0.411286,9.81827,-0.196078,1.61,-2.59,0.77,18.5498,-51.3332,-21.9453,1023.44
614480,0.420851,9.81827,-0.176949,1.19,-1.82,0.63,18.172,-49.7912,-22.5068,1023.41
614486,0.435198,9.8374,-0.181731,1.68,-2.24,0.56,17.5618,-46.8923,-23.1126,1023.41
614492,0.430416,9.82783,-0.229555,1.61,-2.45,0.49,17.7071,-50.5314,-21.9748,1023.41
614498,0.454328,9.85653,-0.143472,1.75,-2.73,0.56,18.3173,-51.3332,-21.2508,1023.41
614504,0.45911,9.86609,-0.205643,1.75,-2.45,0.28,18.0558,-46.954,-23.2308,1023.41
614510,0.430416,9.85174,-0.210426,1.61,-2.45,0.28,18.2882,-48.8969,-22.9205,1023.41
614516,0.454328,9.79436,-0.176949,1.33,-2.45,0.35,18.2592,-52.1659,-21.5168,1023.41
614522,0.430416,9.78957,-0.176949,1.89,-2.73,0.35,17.3584,-48.4651,-22.6398,1023.42
614528,0.420851,9.82783,-0.200861,1.82,-2.52,0,17.4747,-47.1698,-22.9501,1023.42
614534,0.435198,9.8374,-0.200861,1.4,-2.24,0.28,18.3754,-51.2407,-22.1817,1023.4
614540,0.430416,9.81827,-0.162602,1.61,-2.52,0.21,17.5909,-49.8837,-23.2308,1023.4
614546,0.387374,9.8087,-0.13869,1.75,-2.59,0.35,17.0679,-46.954,-22.7432,1023.43
614552,0.420851,9.81349,-0.148254,1.96,-3.22,0.28,17.7943,-49.9763,-21.9601,1023.43
614558,0.420851,9.8087,-0.162602,1.68,-2.94,0.35,18.4626,-51.4257,-22.1965,1023.43
614564,0.406504,9.78957,-0.162602,1.75,-2.38,0.21,18.1139,-47.139,-23.5116,1023.43
614570,0.396939,9.81349,-0.167384,1.47,-2.45,0.28,17.3003,-48.496,-22.625,1023.38
614576,0.406504,9.82783,-0.167384,1.19,-2.38,0.42,18.2011,-51.4874,-20.8518,1023.38
614582,0.382592,9.84218,-0.176949,1.54,-2.45,0.49,18.143,-48.8969,-22.1226,1023.38
614588,0.430416,9.81827,-0.191296,1.54,-2.66,0.56,17.6199,-47.5091,-23.4968,1023.41
614594,0.454328,9.81827,-0.205643,1.82,-2.94,0.28,18.3754,-50.9323,-23.1126,1023.41
614600,0.449546,9.86609,-0.210426,1.26,-2.17,0.35,17.9977,-50.1613,-21.9748,1023.43
614606,0.468675,9.79436,-0.186514,1.75,-2.38,0.21,18.2592,-46.3989,-23.2308,1023.43
614612,0.406504,9.87087,-0.186514,1.12,-2.24,0,17.9396,-50.8398,-22.0192,1023.42
614618,0.401722,9.84696,-0.167384,1.19,-2.45,0.21,17.678,-51.179,-21.6793,1023.42
614624,0.420851,9.82783,-0.143472,1.61,-2.8,0.07,18.0558,-47.6941,-24.7971,1023.42
614630,0.401722,9.84218,-0.148254,1.54,-2.59,-0.07,17.8524,-47.3549,-23.4377,1023.42
614636,0.406504,9.81827,-0.167384,1.33,-1.89,-0.14,18.5788,-51.2407,-21.4133,1023.42
614642,0.373027,9.8087,-0.13869,1.89,-2.66,0.14,17.9105,-47.9717,-22.0044,1023.41
614648,0.406504,9.80392,-0.186514,1.61,-2.45,0.28,17.4456,-46.8615,-24.014,1023.41
614654,0.45911,9.84696,-0.181731,1.82,-2.66,0.14,18.0267,-51.3024,-22.625,1023.41
614660,0.387374,9.78479,-0.191296,1.33,-2.59,0.56,17.9105,-50.1921,-21.4577,1023.41
614666,0.406504,9.83261,-0.162602,1.33,-2.59,0.28,17.0679,-46.7381,-23.1274,1023.39
614672,0.430416,9.8374,-0.196078,1.54,-2.24,0.84,17.7362,-51.0248,-22.0487,1023.39
614678,0.439981,9.82783,-0.181731,1.54,-2.52,0.35,18.143,-51.4566,-22.0192,1023.42
614684,0.425634,9.82305,-0.176949,1.47,-2.38,0.42,17.4456,-46.7998,-23.4672,1023.42
614690,0.435198,9.84218,-0.191296,1.19,-2.38,0.77,18.4335,-48.3109,-23.0683,1023.42
614696,0.401722,9.81827,-0.13869,1.4,-2.59,0.42,18.0848,-51.2407,-21.5463,1023.4
614702,0.425634,9.79914,-0.143472,1.47,-2.73,0.49,17.9686,-47.5708,-22.5511,1023.4
614708,0.444763,9.85174,-0.157819,1.33,-2.73,0.28,17.8233,-46.8306,-23.4525,1023.41
614714,0.463893,9.83261,-0.157819,1.68,-2.66,-0.14,18.1139,-51.2407,-22.3147,1023.41
614720,0.483022,9.85653,-0.224773,1.26,-2.59,0.42,18.3173,-49.7295,-21.9748,1023.41
614726,0.401722,9.79436,-0.176949,1.12,-2.03,0.28,18.143,-47.2007,-23.0387,1023.41
614732,0.416069,9.8087,-0.129125,1.47,-2.73,-0.35,17.7652,-50.7164,-22.2999,1023.44
614738,0.444763,9.82305,-0.205643,1.47,-2.59,-0.42,18.3464,-50.5314,-22.1374,1023.44
614744,0.430416,9.85653,-0.200861,1.61,-2.38,-0.21,17.7943,-47.4782,-22.9648,1023.43
614750,0.439981,9.83261,-0.181731,0.91,-2.52,-0.84,17.678,-48.6502,-22.9501,1023.43
614756,0.396939,9.79914,-0.172166,1.54,-2.24,-0.35,18.4916,-51.7958,-20.837,1023.43
614762,0.382592,9.79436,-0.153037,1.75,-2.73,0.21,17.3875,-47.7866,-21.9748,1023.42
614768,0.387374,9.85174,-0.162602,1.54,-2.52,0.07,17.126,-47.9408,-23.4229,1023.42
614774,0.392157,9.83261,-0.181731,1.26,-2.24,-0.21,18.3464,-51.9809,-20.7041,1023.4
614780,0.368245,9.77523,-0.162602,1.82,-2.38,0.14,18.2011,-50.0996,-22.625,1023.4
614786,0.396939,9.81827,-0.157819,1.89,-2.73,-0.28,17.155,-46.7381,-22.6545,1023.43
614792,0.387374,9.76566,-0.157819,1.89,-2.73,0.35,17.8233,-50.0688,-23.0092,1023.43
614798,0.411286,9.79436,-0.172166,1.4,-2.59,0.77,18.4916,-51.179,-20.9996,1023.45
614804,0.401722,9.8374,-0.172166,1.82,-2.31,0.28,18.2882,-47.4166,-22.0783,1023.45
614810,0.430416,9.81349,-0.200861,1.61,-2.31,0.14,17.5328,-48.8352,-22.891,1023.45
614816,0.45911,9.84218,-0.21999,1.89,-2.73,0.77,18.0558,-52.5976,-21.9305,1023.42
614822,0.425634,9.85653,-0.224773,1.4,-2.94,0.14,17.7362,-48.0334,-22.1078,1023.42
614828,0.45911,9.84696,-0.196078,1.05,-2.87,0.21,17.2713,-46.954,-22.2851,1023.4
614834,0.387374,9.75131,-0.105213,2.17,-2.73,0.21,17.4165,-52.536,-22.5954,1023.4
614840,0.392157,9.81349,-0.114778,1.75,-3.01,0.21,18.3173,-49.1744,-21.0144,1023.41
614846,0.492587,9.89957,-0.248685,1.4,-2.8,0.35,17.4747,-46.1213,-22.7875,1023.41
614852,0.45911,9.81349,-0.186514,1.4,-2.73,-0.35,18.1139,-50.6239,-21.6941,1023.37
614858,0.411286,9.8374,-0.176949,0.98,-2.45,0.07,18.695,-51.179,-19.9948,1023.37
614864,0.430416,9.80392,-0.13869,1.82,-2.52,-0.35,18.0267,-47.5708,-21.3985,1023.37
614870,0.416069,9.79914,-0.114778,0.98,-2.03,0.07,17.8814,-49.0511,-22.1817,1023.39
614876,0.406504,9.80392,-0.153037,1.75,-2.59,-0.35,18.2301,-51.5491,-20.9405,1023.39
614882,0.416069,9.79914,-0.167384,2.03,-2.52,-0.14,18.2301,-47.5091,-21.635,1023.42
614888,0.401722,9.81827,-0.153037,1.75,-2.52,-0.14,17.5618,-47.6016,-23.349,1023.42
614894,0.411286,9.8374,-0.167384,1.54,-2.59,0,18.0267,-50.8706,-22.093,1023.42
614900,0.406504,9.8087,-0.181731,1.61,-2.66,0.28,18.5207,-49.9146,-21.4577,1023.42
614906,0.387374,9.82305,-0.191296,1.47,-2.8,0.21,17.8233,-46.183,-22.1374,1023.41
614912,0.420851,9.8087,-0.157819,1.4,-2.52,0.21,18.4626,-50.1921,-22.5068,1023.41
614918,0.416069,9.82783,-0.186514,1.61,-2.59,0.14,17.678,-50.7164,-21.2508,1023.41
614924,0.444763,9.86131,-0.210426,1.68,-2.73,0.35,18.0267,-47.4166,-22.625,1023.42
614930,0.468675,9.85653,-0.210426,1.4,-2.17,-0.21,17.8233,-48.9586,-22.0783,1023.42
614936,0.47824,9.85653,-0.234338,0.84,-1.96,0.14,17.7652,-53.0294,-21.1917,1023.43
614942,0.449546,9.84696,-0.172166,1.54,-2.66,-0.91,17.5618,-48.4343,-22.0487,1023.43
614948,0.425634,9.82305,-0.215208,1.47,-2.73,-0.56,17.9105,-48.0025,-21.7384,1023.4
614954,0.435198,9.85653,-0.172166,1.05,-2.24,-0.21,18.143,-51.5491,-22.3147,1023.4
614960,0.416069,9.8374,-0.153037,0.91,-2.24,-0.91,18.2592,-49.3595,-21.7089,1023.41
614966,0.416069,9.81827,-0.148254,1.82,-2.87,-0.42,17.5909,-46.368,-22.7284,1023.41
614972,0.411286,9.80392,-0.114778,1.54,-2.66,-0.28,18.3173,-50.9015,-21.5906,1023.42
614978,0.396939,9.79914,-0.167384,1.33,-2.45,-0.07,18.4335,-50.6856,-20.4824,1023.42
614984,0.411286,9.78001,-0.129125,1.75,-2.31,-0.07,17.4747,-47.2624,-21.9748,1023.42
614990,0.396939,9.80392,-0.172166,1.26,-2.45,0.14,17.0097,-49.0202,-21.6054,1023.4
614996,0.396939,9.80392,-0.176949,1.75,-2.66,-0.35,18.8984,-51.9809,-20.4824,1023.4
615002,0.382592,9.8087,-0.157819,1.47,-2.73,-0.28,17.4456,-48.8352,-21.8418,1023.43
615008,0.382592,9.80392,-0.176949,1.75,-3.08,0.42,17.0969,-48.2801,-22.2408,1023.43
615014,0.420851,9.81349,-0.176949,1.47,-2.38,0.56,18.2592,-51.1482,-20.7188,1023.42
615020,0.392157,9.81827,-0.153037,1.26,-2.59,0.42,18.3464,-49.5753,-20.379,1023.42
615026,0.401722,9.83261,-0.181731,1.26,-2.73,0.98,17.4456,-47.324,-22.625,1023.41
615032,0.406504,9.82305,-0.167384,1.33,-2.45,0.56,17.126,-49.9146,-21.9009,1023.41
615038,0.401722,9.82305,-0.176949,1.61,-2.45,-0.14,18.4045,-51.3641,-20.3938,1023.41
615044,0.416069,9.8087,-0.157819,1.54,-2.59,0.63,17.6199,-47.3549,-23.2308,1023.42
615050,0.439981,9.82783,-0.186514,1.68,-2.1,0.21,18.172,-49.2361,-21.9896,1023.42
615056,0.454328,9.86609,-0.191296,1.19,-2.45,0.56,18.2011,-52.0117,-21.7236,1023.44
615062,0.401722,9.84218,-0.172166,1.12,-2.1,0.07,18.4045,-48.496,-21.9009,1023.44
615068,0.406504,9.82783,-0.162602,1.33,-2.17,-0.07,17.4456,-47.8175,-21.8566,1023.43
615074,0.406504,9.80392,-0.167384,1.33,-2.17,0.35,17.9686,-51.2715,-21.9305,1023.43
615080,0.411286,9.81827,-0.167384,1.61,-2.87,-0.21,18.2301,-50.0071,-20.7336,1023.43
615086,0.406504,9.84218,-0.162602,1.54,-2.73,-0.28,17.155,-46.954,-22.9501,1023.43
615092,0.439981,9.80392,-0.186514,1.19,-2.66,0,17.649,-50.7164,-21.9896,1023.43
615098,0.392157,9.82305,-0.186514,1.4,-2.73,-0.14,18.695,-51.2407,-20.97,1023.46
615104,0.411286,9.8374,-0.186514,1.61,-2.38,0.21,17.7652,-47.3549,-22.5807,1023.46
615110,0.35868,9.79914,-0.148254,1.26,-2.31,0.49,17.7071,-48.3726,-22.4625,1023.4
615116,0.406504,9.80392,-0.143472,1.61,-2.59,0.21,17.9686,-51.765,-20.5858,1023.4
615122,0.439981,9.84218,-0.191296,1.61,-2.38,0.35,18.1139,-48.7427,-21.7975,1023.44
615128,0.406504,9.78479,-0.13869,1.75,-2.73,0.14,17.1841,-46.8615,-21.6941,1023.44
615134,0.396939,9.79436,-0.181731,1.19,-2.17,0,17.9396,-51.0865,-22.2999,1023.42
615140,0.392157,9.80392,-0.153037,1.75,-2.87,0.21,18.3754,-49.9146,-21.2656,1023.42
615146,0.420851,9.8087,-0.167384,1.68,-2.87,0.98,18.3464,-46.7689,-22.5954,1023.41
615152,0.444763,9.82305,-0.162602,1.26,-2.52,0.28,18.0848,-50.3155,-21.3985,1023.41
615158,0.45911,9.80392,-0.153037,1.54,-2.52,0.07,18.7241,-50.4697,-21.1474,1023.41
615164,0.439981,9.79436,-0.124342,2.03,-2.45,0.21,17.5618,-47.3857,-21.5759,1023.42
615170,0.473458,9.85174,-0.224773,1.4,-2.94,0.49,18.2301,-47.8175,-21.1769,1023.42
615176,0.430416,9.88044,-0.23912,1.26,-2.31,0,18.2011,-51.3024,-21.0882,1023.42
615182,0.396939,9.78957,-0.148254,0.98,-2.1,0.07,17.2131,-48.681,-21.369,1023.42
615188,0.392157,9.80392,-0.129125,1.4,-2.66,-0.21,17.126,-46.3989,-23.2308,1023.41
615194,0.425634,9.82305,-0.167384,1.75,-2.8,-0.42,17.7943,-51.7033,-21.5463,1023.41
615200,0.396939,9.82305,-0.13869,1.4,-2.59,0.7,17.9105,-49.4212,-21.7532,1023.41
615206,0.382592,9.78001,-0.13869,1.61,-2.8,0.07,17.0388,-46.8615,-22.5511,1023.41
615212,0.401722,9.79436,-0.143472,1.89,-2.8,-0.35,17.5618,-49.452,-22.2999,1023.41
615218,0.406504,9.81827,-0.133907,1.61,-2.66,0.63,18.3464,-50.3772,-22.2704,1023.41
615224,0.396939,9.83261,-0.176949,1.47,-2.38,0.49,17.649,-46.6764,-21.8123,1023.41
615230,0.411286,9.8087,-0.186514,1.54,-3.15,0.14,17.649,-48.4343,-21.6497,1023.44
615236,0.401722,9.80392,-0.167384,2.24,-2.73,0.28,18.143,-51.3641,-20.9257,1023.44
615242,0.411286,9.81349,-0.176949,1.75,-2.8,0.49,17.0679,-48.4651,-21.9009,1023.41
615248,0.406504,9.83261,-0.191296,1.82,-2.45,0.07,17.9396,-46.8306,-21.5315,1023.41
615254,0.416069,9.82305,-0.191296,1.75,-2.59,0.14,18.4916,-50.6856,-21.5315,1023.41
615260,0.425634,9.81349,-0.186514,1.33,-2.66,0.07,17.9686,-49.6679,-20.6006,1023.41
615266,0.444763,9.83261,-0.186514,1.47,-2.8,0.21,17.4456,-47.0773,-22.8023,1023.41
615272,0.416069,9.84218,-0.157819,1.33,-2.73,0,17.7652,-50.0996,-21.5463,1023.44
615278,0.406504,9.81827,-0.13869,1.61,-2.59,0.14,18.666,-50.9631,-20.9405,1023.44
615284,0.396939,9.8087,-0.143472,1.19,-2.38,-0.07,17.2422,-47.3549,-22.0635,1023.42
615290,0.416069,9.80392,-0.176949,1.54,-2.17,0.35,17.0679,-48.496,-22.6398,1023.42
615296,0.396939,9.85653,-0.181731,1.4,-2.73,0,17.9686,-52.2276,-21.6202,1023.4
615302,0.449546,9.81349,-0.143472,1.54,-2.38,-0.21,18.1139,-48.0334,-20.8223,1023.4
615308,0.411286,9.80392,-0.11956,1.68,-2.59,0.35,17.3294,-46.9848,-21.8862,1023.41
615314,0.401722,9.80392,-0.148254,1.75,-2.59,0.28,17.8524,-51.1482,-22.2113,1023.41
615320,0.387374,9.81827,-0.143472,1.75,-2.59,0.35,18.3173,-50.7473,-21.7089,1023.45
615326,0.396939,9.82783,-0.172166,1.33,-2.87,0.14,17.0097,-46.7381,-22.3738,1023.45
615332,0.406504,9.82305,-0.176949,1.61,-2.8,0.14,18.0267,-50.1305,-21.4724,1023.45
615338,0.416069,9.8087,-0.172166,1.68,-2.45,0.07,18.695,-51.2099,-21.2803,1023.41
615344,0.411286,9.80392,-0.200861,1.54,-2.31,0.35,17.649,-46.6147,-22.7875,1023.41
615350,0.430416,9.85653,-0.172166,1.54,-2.8,0,17.2713,-48.1567,-22.5511,1023.41
615356,0.430416,9.82783,-0.176949,1.33,-2.38,0.42,18.695,-51.5491,-21.6941,1023.41
615362,0.449546,9.84696,-0.176949,1.61,-2.66,0.35,17.649,-47.7866,-20.9996,1023.42
615368,0.416069,9.8374,-0.172166,1.68,-2.24,-0.21,17.8524,-47.2007,-24.4573,1023.42
615374,0.444763,9.85174,-0.167384,1.54,-2.17,-0.14,18.2882,-50.9323,-22.7432,1023.42
615380,0.430416,9.81827,-0.196078,1.26,-2.38,0.14,18.4916,-49.9146,-22.226,1023.42
615386,0.396939,9.82305,-0.186514,1.26,-2.45,0,17.5037,-46.9231,-24.3834,1023.42
615392,0.416069,9.81349,-0.181731,1.4,-2.38,-0.21,18.4916,-50.1613,-22.0192,1023.4
615398,0.396939,9.78479,-0.124342,1.54,-2.66,-0.14,18.5498,-51.1173,-22.1817,1023.4
615404,0.420851,9.80392,-0.133907,2.03,-2.59,-0.07,18.2592,-47.4166,-22.5807,1023.41
615410,0.396939,9.86131,-0.167384,1.75,-2.8,-0.14,17.678,-47.91,-22.9944,1023.41
615416,0.382592,9.8087,-0.172166,1.47,-2.66,0.21,17.7071,-51.3949,-21.3247,1023.42
615422,0.401722,9.79914,-0.133907,1.75,-2.66,-0.14,17.9977,-47.8483,-21.9009,1023.42
615428,0.363462,9.82305,-0.172166,1.47,-2.24,0.21,16.7773,-47.4166,-22.1078,1023.39
615434,0.411286,9.83261,-0.153037,1.54,-2.45,0.21,18.143,-51.95,-21.5168,1023.39
615440,0.406504,9.78957,-0.157819,1.4,-2.73,0.56,17.6199,-50.3463,-22.0339,1023.39
615446,0.430416,9.80392,-0.148254,1.54,-2.52,0.35,17.4456,-46.8923,-23.1569,1023.4
615452,0.396939,9.81349,-0.162602,1.75,-2.87,0.35,17.7362,-50.7164,-21.9748,1023.4
615458,0.420851,9.82305,-0.167384,1.33,-2.8,0.07,17.649,-50.7164,-21.0291,1023.42
615464,0.411286,9.82305,-0.172166,1.68,-2.52,0.7,17.9977,-46.7689,-22.9944,1023.42
615470,0.444763,9.84696,-0.172166,1.47,-2.17,0.21,17.1841,-48.7735,-22.492,1023.42
615476,0.411286,9.82305,-0.124342,1.54,-2.38,-0.07,18.5788,-51.2407,-21.3542,1023.42
615482,0.439981,9.81827,-0.191296,1.61,-3.29,-0.28,17.9686,-48.1259,-22.8614,1023.41
615488,0.444763,9.86131,-0.205643,0.98,-2.38,0.63,17.7071,-47.0157,-23.2013,1023.41
615494,0.420851,9.82305,-0.191296,1.61,-2.38,-0.28,17.9686,-50.7473,-22.1374,1023.42
615500,0.387374,9.8087,-0.148254,1.4,-2.73,-0.63,17.9686,-49.1128,-22.0487,1023.42
615506,0.406504,9.78957,-0.13869,1.75,-2.66,-0.21,17.5618,-45.7204,-23.7923,1023.42
615512,0.396939,9.8087,-0.167384,1.89,-2.31,0.21,17.649,-50.0996,-23.9105,1023.4
615518,0.416069,9.83261,-0.157819,1.68,-2.31,17.43,17.9686,-50.6547,-20.9553,1023.4
615524,0.401722,9.82305,-0.176949,1.54,-2.24,-0.21,18.172,-47.0773,-21.8862,1023.41
615530,0.396939,9.8087,-0.133907,1.54,-2.31,0,17.2131,-48.496,-23.7332,1023.41
615536,0.411286,9.81349,-0.153037,1.75,-2.8,-0.07,18.4626,-51.2407,-20.645,1023.42
615542,0.401722,9.8374,-0.172166,1.47,-2.31,0.49,18.0848,-48.4034,-22.1078,1023.42
615548,0.416069,9.8087,-0.176949,1.54,-2.73,0,17.3294,-46.8923,-22.8762,1023.43
615554,0.387374,9.80392,-0.162602,1.47,-3.08,0.07,18.3464,-50.6547,-21.502,1023.43
615560,0.406504,9.82305,-0.13869,1.33,-2.45,0.28,18.3754,-49.452,-21.3394,1023.43
615566,0.401722,9.82305,-0.129125,1.68,-2.73,0.14,17.2131,-46.2755,-23.8367,1023.42
615572,0.401722,9.8087,-0.157819,1.61,-2.52,0.35,18.2882,-50.4697,-21.7975,1023.42
615578,0.425634,9.8087,-0.167384,1.68,-2.66,0.14,18.4045,-51.0248,-21.0882,1023.43
615584,0.401722,9.81827,-0.13869,1.96,-2.66,0.28,18.3754,-47.6324,-22.3295,1023.43
615590,0.416069,9.82783,-0.196078,1.26,-2.73,0.14,17.649,-48.5576,-22.1374,1023.41
615596,0.47824,9.85653,-0.210426,1.12,-2.52,0.21,18.6079,-51.95,-22.3295,1023.41
615602,0.435198,9.84696,-0.200861,1.61,-2.31,0.14,18.6079,-47.2932,-21.8566,1023.41
615608,0.425634,9.80392,-0.148254,1.54,-2.38,0,18.2011,-47.4166,-21.9896,1023.41
615614,0.406504,9.81349,-0.186514,1.26,-2.8,-0.35,18.4626,-50.5314,-22.5807,1023.41
615620,0.435198,9.83261,-0.172166,1.4,-2.73,-0.28,19.6249,-49.5137,-21.4872,1023.4
615626,0.392157,9.82305,-0.167384,1.47,-2.38,0.28,18.3464,-46.4914,-22.6841,1023.4
615632,0.368245,9.84696,-0.143472,1.26,-2.45,0.14,18.6369,-49.2978,-21.8566,1023.42
615638,0.37781,9.80392,-0.124342,1.82,-2.24,-0.14,18.6079,-50.3463,-20.8962,1023.42
615644,0.392157,9.79914,-0.143472,1.68,-2.45,0.07,18.3173,-46.8923,-22.1521,1023.38
615650,0.387374,9.81349,-0.162602,1.68,-2.38,0.28,18.1139,-48.8352,-22.4181,1023.38
615656,0.387374,9.8087,-0.153037,1.54,-2.94,0.35,18.4626,-51.8883,-21.5611,1023.43
615662,0.406504,9.80392,-0.157819,1.54,-2.87,0.14,18.3464,-48.5268,-21.8271,1023.43
615668,0.396939,9.81827,-0.129125,1.61,-2.52,0.21,17.8814,-48.0642,-22.9205,1023.43
615674,0.387374,9.81827,-0.157819,1.82,-2.38,0.42,17.7071,-51.8575,-21.4872,1023.42
615680,0.392157,9.80392,-0.172166,1.47,-2.73,0.28,17.8524,-50.1305,-20.7927,1023.42
615686,0.454328,9.79436,-0.153037,1.82,-2.38,0.35,17.9396,-46.954,-22.5659,1023.44
615692,0.401722,9.83261,-0.148254,1.54,-2.24,0.7,18.2301,-49.637,-22.0783,1023.44
615698,0.430416,9.81827,-0.172166,1.82,-3.01,0.07,18.2301,-51.8575,-22.0339,1023.42
615704,0.416069,9.85174,-0.191296,1.47,-2.8,-0.07,18.4335,-47.6016,-22.4772,1023.42
615710,0.463893,9.84696,-0.200861,1.61,-2.66,0.28,17.7943,-48.9894,-22.4477,1023.4
615716,0.435198,9.84218,-0.191296,1.47,-1.96,0,18.0848,-51.6416,-21.6497,1023.4
615722,0.411286,9.83261,-0.157819,1.33,-2.87,0.07,18.0558,-48.7118,-21.1178,1023.4
615728,0.411286,9.83261,-0.157819,1.68,-2.52,-0.42,17.4456,-47.725,-22.8466,1023.4
615734,0.430416,9.84696,-0.162602,1.75,-2.94,0,18.143,-50.5622,-21.103,1023.4
615740,0.420851,9.85174,-0.196078,1.47,-2.8,0,17.7943,-49.1744,-21.2951,1023.43
615746,0.396939,9.84218,-0.162602,1.33,-2.66,0.77,17.4747,-46.7689,-23.2308,1023.43
615752,0.387374,9.82305,-0.162602,1.75,-2.59,0.35,16.9516,-50.3155,-21.9748,1023.42
615758,0.406504,9.80392,-0.167384,1.19,-2.59,0.42,18.4045,-50.7781,-20.0835,1023.42
615764,0.411286,9.8087,-0.181731,1.33,-2.8,0.28,17.5618,-47.3549,-22.2113,1023.39
615770,0.382592,9.81827,-0.176949,1.54,-2.31,0.07,17.4165,-48.1259,-21.7827,1023.39
615776,0.411286,9.77523,-0.186514,1.26,-2.38,0.14,18.4335,-51.4566,-21.3985,1023.4
615782,0.392157,9.82305,-0.13869,1.47,-2.45,0.35,18.3464,-48.0642,-21.6793,1023.4
615788,0.406504,9.81827,-0.129125,1.89,-2.87,0.42,17.2422,-47.3549,-22.6398,1023.4
615794,0.396939,9.8087,-0.153037,1.68,-2.87,0.63,17.9396,-51.2407,-21.2508,1023.41
615800,0.420851,9.82783,-0.148254,1.33,-2.8,0.56,18.2882,-50.8706,-21.5168,1023.41
615806,0.425634,9.81827,-0.172166,1.89,-2.73,0,17.5328,-46.4914,-21.9009,1023.38
615812,0.420851,9.84696,-0.167384,1.33,-2.38,0.21,17.2131,-49.2669,-22.226,1023.38
615818,0.454328,9.85174,-0.148254,1.4,-2.52,0.42,18.2592,-51.0865,-21.2508,1023.43
615824,0.444763,9.84218,-0.191296,1.68,-2.87,-0.28,17.1841,-47.4474,-23.2456,1023.43
615830,0.454328,9.86609,-0.196078,1.4,-2.59,0,18.2301,-48.0642,-22.3886,1023.44
615836,0.411286,9.84218,-0.13869,1.19,-2.24,-0.28,18.2301,-51.6416,-21.6054,1023.44
615842,0.387374,9.78957,-0.11956,1.75,-2.45,-0.07,17.9686,-48.1259,-22.2704,1023.44
615848,0.401722,9.84696,-0.133907,1.75,-2.66,0.42,17.8524,-47.5091,-22.5216,1023.41
615854,0.401722,9.82783,-0.196078,1.61,-2.94,-17.78,18.5207,-51.2407,-21.7975,1023.41
615860,0.363462,9.79914,-0.148254,1.96,-2.59,0.42,18.4626,-51.6725,-22.758,1023.42
615866,0.37781,9.84218,-0.148254,1.61,-2.66,0.49,17.4456,-46.8923,-22.3442,1023.42
615872,0.387374,9.84696,-0.172166,1.54,-2.66,-0.14,18.0267,-49.5445,-22.4477,1023.41
615878,0.411286,9.8374,-0.148254,1.4,-2.38,0.56,18.8113,-50.6547,-21.0587,1023.41
615884,0.368245,9.84696,-0.162602,1.47,-2.24,0.63,17.8814,-47.4782,-22.0783,1023.43
615890,0.387374,9.83261,-0.133907,1.33,-2.66,0.07,17.7652,-48.0025,-23.1422,1023.43
615896,0.416069,9.8087,-0.143472,1.26,-2.45,0.35,18.2882,-52.0425,-21.3247,1023.43
615902,0.401722,9.82783,-0.153037,1.75,-2.52,0.84,17.5328,-48.681,-23.1274,1023.43
615908,0.406504,9.8087,-0.13869,1.68,-2.59,1.05,17.7943,-48.0334,-22.9057,1023.43
615914,0.416069,9.79436,-0.148254,1.82,-2.87,-0.28,17.5618,-50.8706,-21.236,1023.45
615920,0.401722,9.80392,-0.172166,1.61,-2.87,0.35,18.1139,-50.2538,-21.5759,1023.45
615926,0.439981,9.84218,-0.196078,1.61,-2.94,-0.35,17.5037,-46.4605,-22.1817,1023.4
615932,0.449546,9.86609,-0.181731,1.61,-2.73,0.42,18.0267,-49.7604,-21.6645,1023.4
615938,0.37781,9.83261,-0.157819,1.4,-2.66,0.49,18.695,-51.0248,-20.837,1023.38
615944,0.425634,9.8374,-0.167384,1.75,-2.73,-0.07,17.9396,-47.6016,-21.8418,1023.38
615950,0.396939,9.86131,-0.181731,1.61,-2.66,-0.28,17.8524,-47.8792,-22.0635,1023.42
615956,0.401722,9.82783,-0.172166,1.61,-2.59,0.91,18.4626,-51.4874,-20.5711,1023.42
615962,0.392157,9.8374,-0.133907,1.89,-2.8,0.28,18.143,-48.2184,-21.4872,1023.42
615968,0.401722,9.81349,-0.153037,1.54,-2.73,0.42,17.4747,-47.1082,-22.4329,1023.4
615974,0.411286,9.78957,-0.153037,1.33,-2.66,0.7,17.9105,-50.5314,-22.3886,1023.4
615980,0.416069,9.85174,-0.191296,1.75,-2.73,0.14,18.666,-50.7781,-21.103,1023.41
615986,0.401722,9.8374,-0.172166,1.4,-2.59,0.35,17.6199,-45.9979,-22.6693,1023.41
615992,0.396939,9.79436,-0.205643,1.61,-2.8,0.28,17.9977,-49.8837,-20.7336,1023.43
615998,0.392157,9.81827,-0.181731,1.75,-2.66,0.35,18.9856,-51.2099,-21.9896,1023.43
616004,0.387374,9.81827,-0.153037,1.54,-2.38,0.21,18.1139,-47.6633,-22.1374,1023.4
616010,0.382592,9.81827,-0.172166,1.54,-2.45,0.28,17.8233,-48.4034,-22.9057,1023.4
616016,0.444763,9.78001,-0.157819,1.82,-2.87,0.63,18.695,-51.6108,-20.837,1023.4
616022,0.435198,9.81349,-0.196078,1.68,-2.52,0.14,18.3173,-48.3418,-21.3838,1023.42
616028,0.411286,9.85174,-0.172166,1.47,-2.17,0.28,17.8814,-47.5399,-22.9944,1023.42
616034,0.425634,9.81349,-0.186514,1.68,-3.01,-0.14,18.5788,-51.1482,-22.1521,1023.41
616040,0.430416,9.84696,-0.148254,1.54,-2.45,-0.07,18.2011,-49.4828,-20.8223,1023.41
616046,0.425634,9.8374,-0.191296,1.26,-2.31,0,17.6199,-46.2138,-21.6054,1023.41
616052,0.387374,9.78479,-0.148254,1.33,-2.17,-0.21,18.143,-50.1613,-22.2704,1023.41
616058,0.35868,9.79914,-0.13869,1.54,-2.87,0.14,18.9856,-51.0248,-20.5563,1023.41
616064,0.411286,9.82305,-0.153037,1.75,-2.87,-0.28,17.9686,-46.6764,-22.6545,1023.41
616070,0.396939,9.8087,-0.157819,1.33,-2.8,0.07,18.0267,-48.4343,-22.758,1023.42
616076,0.37781,9.78479,-0.143472,1.89,-2.87,0.35,18.3754,-51.5183,-20.8814,1023.42
616082,0.392157,9.81349,-0.148254,1.89,-2.8,0.21,18.2592,-48.2184,-21.9305,1023.42
616088,0.411286,9.78957,-0.186514,1.68,-2.52,0.35,17.9977,-47.5399,-21.8123,1023.4
616094,0.420851,9.81827,-0.191296,1.82,-2.59,0.77,17.4747,-50.9323,-20.837,1023.4
616100,0.416069,9.82783,-0.153037,1.75,-2.59,0.35,18.1139,-50.3155,-20.4381,1023.4
616106,0.411286,9.80392,-0.143472,1.75,-2.66,0.21,17.8524,-46.6764,-23.0831,1023.4
616112,0.411286,9.81349,-0.148254,1.75,-2.73,0.14,18.1139,-49.7604,-22.2408,1023.42
616118,0.420851,9.82305,-0.186514,1.61,-2.87,0.56,18.9565,-51.6416,-20.7632,1023.42
616124,0.420851,9.81349,-0.191296,1.4,-2.38,0.49,17.6199,-47.3549,-20.8962,1023.39
616130,0.401722,9.86131,-0.172166,1.4,-2.66,0.63,17.4747,-47.5091,-22.6398,1023.39
616136,0.425634,9.83261,-0.143472,1.61,-2.8,0.35,18.5788,-51.0865,-20.97,1023.39
616142,0.411286,9.84218,-0.13869,1.47,-2.45,0.35,18.6369,-47.139,-21.3099,1023.41
616148,0.416069,9.85174,-0.172166,1.4,-2.52,0.14,17.7652,-46.9231,-21.8862,1023.41
616154,0.425634,9.84218,-0.167384,1.54,-2.8,0.14,18.4916,-50.7473,-20.9996,1023.4
616160,0.411286,9.81349,-0.157819,1.54,-2.59,-0.07,18.0558,-50.1613,-22.3886,1023.4
616166,0.406504,9.82305,-0.153037,1.75,-3.15,0.49,17.4456,-47.0465,-22.9205,1023.42
616172,0.401722,9.8374,-0.13869,1.61,-3.01,-0.14,17.4165,-49.6062,-22.0044,1023.42
616178,0.416069,9.87087,-0.162602,1.47,-3.08,-0.28,18.6369,-52.0117,-21.1769,1023.42
616184,0.411286,9.80392,-0.157819,1.61,-2.24,0.14,17.7071,-47.6324,-21.2803,1023.42
616190,0.353898,9.83261,-0.143472,1.47,-2.66,0.63,18.0267,-48.9277,-21.3838,1023.42
616196,0.425634,9.82783,-0.157819,1.54,-2.73,0.14,18.3754,-52.2584,-20.7632,1023.43
616202,0.430416,9.78479,-0.153037,1.33,-2.45,0.42,18.7822,-48.1567,-22.3738,1023.43
616208,0.325203,9.82305,-0.10043,1.47,-2.38,0.63,17.3003,-47.7866,-22.4181,1023.42
616214,0.439981,9.8087,-0.157819,1.61,-2.45,0.21,18.172,-50.6239,-20.3494,1023.42
616220,0.401722,9.83261,-0.153037,1.61,-2.73,0.49,18.143,-50.408,-21.4724,1023.4
616226,0.406504,9.81827,-0.172166,1.75,-3.29,0.56,17.8524,-46.5222,-23.1422,1023.4
616232,0.406504,9.82305,-0.13869,1.19,-2.17,0.42,18.4916,-49.7604,-22.0487,1023.41
616238,0.406504,9.87566,-0.176949,1.68,-2.45,0.49,18.0848,-51.179,-20.6006,1023.41
616244,0.420851,9.83261,-0.210426,1.82,-2.66,0.21,18.172,-47.6016,-20.9848,1023.4
616250,0.487805,9.8374,-0.186514,1.54,-2.31,0.07,17.4165,-48.5268,-21.8862,1023.4
616256,0.416069,9.84696,-0.200861,1.12,-2.8,0.21,18.2592,-51.8267,-21.7827,1023.4
616262,0.425634,9.81827,-0.148254,1.68,-2.52,-0.14,18.3173,-48.2184,-21.9157,1023.43
616268,0.430416,9.86609,-0.162602,1.4,-2.52,-0.14,17.9977,-47.4782,-21.7975,1023.43
616274,0.420851,9.84218,-0.162602,1.82,-3.08,-0.28,18.5788,-51.4874,-20.3642,1023.44
616280,0.392157,9.8087,-0.133907,1.47,-2.59,0.49,18.3754,-49.8837,-20.3494,1023.44
616286,0.425634,9.84696,-0.186514,1.54,-3.08,0.42,17.3294,-46.4914,-21.8123,1023.44
616292,0.420851,9.84696,-0.196078,2.1,-2.87,-0.49,17.7071,-49.6987,-20.7484,1023.44
616298,0.406504,9.84218,-0.205643,1.68,-2.38,0.49,18.7241,-50.6547,-20.3494,1023.41
616304,0.368245,9.81349,-0.11956,1.12,-2.31,0.42,18.143,-47.0773,-21.5759,1023.41
616310,0.425634,9.78479,-0.148254,1.75,-2.66,0.21,17.4747,-48.4034,-22.9205,1023.41
616316,0.406504,9.81827,-0.167384,1.61,-2.31,0.42,18.143,-51.0248,-21.2212,1023.37
616322,0.401722,9.79914,-0.191296,1.54,-2.38,0.42,17.8814,-47.5708,-20.6154,1023.37
616328,0.387374,9.80392,-0.167384,1.33,-2.31,0.49,17.5328,-46.7689,-22.226,1023.4
616334,0.401722,9.79914,-0.172166,1.4,-2.17,0.42,17.678,-50.5931,-21.4133,1023.4
616340,0.420851,9.82305,-0.157819,1.54,-2.59,0.56,17.9977,-49.9146,-21.3394,1023.38
616346,0.430416,9.81827,-0.191296,1.4,-2.38,1.05,17.5037,-46.8615,-21.9896,1023.38
616352,0.411286,9.84218,-0.157819,1.61,-2.73,0.63,18.0558,-50.4697,-21.1621,1023.43
616358,0.454328,9.84218,-0.148254,1.33,-2.73,0.21,18.4626,-51.2407,-20.2017,1023.43
616364,0.416069,9.84218,-0.162602,1.4,-2.59,0.14,17.7652,-47.6633,-21.6645,1023.43
616370,0.439981,9.85653,-0.186514,1.33,-2.38,0.63,17.9396,-48.3726,-22.0044,1023.4
616376,0.449546,9.82783,-0.181731,1.4,-2.52,0.14,17.9105,-52.3509,-21.9896,1023.4
616382,0.406504,9.84696,-0.167384,1.47,-2.52,0.07,18.695,-48.0334,-21.6645,1023.43
616388,0.416069,9.84218,-0.167384,1.4,-2.31,0.42,18.172,-47.6633,-21.7532,1023.43
616394,0.430416,9.8087,-0.196078,1.33,-2.45,0.42,17.4747,-50.3463,-21.7089,1023.41
616400,0.444763,9.83261,-0.181731,1.4,-2.52,0.77,18.666,-50.5005,-21.1178,1023.41
616406,0.406504,9.80392,-0.11956,1.68,-2.8,0.14,17.5618,-46.7998,-22.492,1023.38
616412,0.396939,9.84218,-0.162602,1.4,-2.38,0.35,18.172,-48.8352,-21.6497,1023.38
616418,0.401722,9.84696,-0.148254,1.68,-2.38,0.42,18.8113,-50.9015,-19.6549,1023.43
616424,0.416069,9.79436,-0.186514,1.54,-2.52,0.21,17.4165,-46.9848,-20.1721,1023.43
616430,0.396939,9.81349,-0.153037,1.4,-2.8,0.56,17.5618,-48.3418,-21.369,1023.43
616436,0.401722,9.78957,-0.143472,1.68,-2.45,0.63,18.2882,-51.95,-20.3938,1023.41
616442,0.444763,9.82783,-0.191296,1.05,-2.59,0.77,18.143,-48.7427,-19.9357,1023.41
616448,0.392157,9.81349,-0.157819,1.68,-2.94,0.42,17.0679,-47.2007,-21.236,1023.43
616454,0.411286,9.8087,-0.157819,1.4,-2.24,0.35,18.2882,-51.2099,-20.3494,1023.43
616460,0.411286,9.79436,-0.176949,1.4,-2.45,0.42,17.678,-50.1305,-20.7336,1023.42
616466,0.439981,9.8087,-0.143472,1.4,-2.1,0.63,17.3294,-46.2755,-22.2704,1023.42
616472,0.420851,9.85653,-0.196078,1.47,-2.73,0.63,16.6611,-50.408,-22.1226,1023.41
616478,0.387374,9.82305,-0.148254,1.19,-2.38,0.35,17.8524,-50.9323,-20.379,1023.41
616484,0.439981,9.85174,-0.162602,1.12,-2.52,0.56,17.5909,-47.6633,-21.9601,1023.41
616490,0.468675,9.85174,-0.196078,1.47,-2.66,0.49,17.4747,-48.9894,-20.645,1023.4
616496,0.449546,9.84696,-0.167384,1.54,-2.31,0.35,17.9105,-51.1482,-21.4429,1023.4
616502,0.430416,9.8374,-0.148254,1.4,-2.45,0.07,17.8524,-48.3418,-20.4529,1023.4
616508,0.45911,9.8374,-0.133907,1.33,-2.87,0.49,17.155,-46.6764,-21.8271,1023.4
616514,0.435198,9.81827,-0.167384,1.75,-2.87,0.42,18.5498,-50.2847,-20.4233,1023.44
616520,0.401722,9.82783,-0.148254,1.4,-2.59,0,18.8113,-49.6679,-21.3099,1023.44
616526,0.430416,9.78479,-0.148254,1.61,-2.52,0.77,17.3584,-46.7998,-22.1817,1023.41
616532,0.387374,9.79914,-0.153037,1.4,-2.59,0.14,17.649,-49.7912,-21.3099,1023.41
616538,0.420851,9.83261,-0.181731,1.68,-2.38,0.7,18.4626,-51.0557,-21.236,1023.41
616544,0.401722,9.8374,-0.167384,1.61,-2.66,0.42,18.4916,-46.5839,-22.2999,1023.38
616550,0.454328,9.84218,-0.181731,1.75,-2.59,0.35,17.7362,-48.4034,-21.0291,1023.38
616556,0.435198,9.83261,-0.157819,1.33,-2.59,0.49,19.2181,-51.4874,-20.3938,1023.41
616562,0.444763,9.78957,-0.148254,1.61,-2.73,0.56,19.3633,-48.9277,-21.2656,1023.41
616568,0.425634,9.82305,-0.133907,1.12,-2.38,0.28,17.8233,-46.9231,-21.2065,1023.42
616574,0.401722,9.8374,-0.162602,1.47,-2.73,0.49,18.3464,-50.7781,-20.1573,1023.42
616580,0.449546,9.80392,-0.162602,1.4,-2.8,0.28,18.9565,-50.3155,-20.9996,1023.42
616586,0.416069,9.82305,-0.181731,1.54,-2.38,0.7,17.6199,-46.6456,-23.4081,1023.42
616592,0.454328,9.81349,-0.200861,1.54,-2.24,0.56,18.8403,-49.6987,-21.768,1023.41
616598,0.439981,9.81827,-0.191296,1.4,-2.59,0.42,18.7241,-50.9631,-21.4429,1023.41
616604,0.406504,9.79914,-0.114778,1.68,-2.59,0.49,18.3464,-47.324,-21.5611,1023.41
616610,0.435198,10.9947,-0.11956,2.17,-2.8,0.63,17.8814,-47.4166,-21.6497,1023.42
616616,0.420851,9.87566,-0.267814,1.54,-2.52,0.42,18.172,-51.6416,-21.3099,1023.42
616622,0.521282,9.9187,-0.310856,0.84,-2.38,0.14,18.2011,-48.7735,-21.3394,1023.41
616628,0.473458,9.78957,-0.148254,1.19,-2.1,-0.28,18.143,-47.324,-21.4577,1023.41
616634,0.401722,9.78957,-0.071736,1.33,-2.87,0.35,18.1139,-50.7781,-21.5168,1023.43
616640,0.473458,9.81827,-0.181731,1.61,-2.31,0.07,18.1139,-51.2715,-21.9157,1023.43
616646,0.37781,9.81827,-0.162602,1.61,-2.94,0.49,17.9105,-46.7998,-22.7875,1023.4
616652,0.463893,9.81827,-0.162602,1.26,-2.38,0.56,17.6199,-48.9894,-22.1078,1023.4
616658,0.416069,9.81349,-0.143472,1.68,-2.31,0.14,18.4916,-50.8089,-21.7089,1023.4
616664,0.406504,9.80392,-0.129125,1.68,-2.73,0.35,18.5788,-47.324,-22.4181,1023.42
616670,0.444763,9.82305,-0.176949,1.61,-2.45,0.35,17.9977,-47.7558,-22.2408,1023.42
616676,0.425634,9.81349,-0.153037,1.4,-2.31,0.56,19.1309,-50.8706,-19.7731,1023.39
616682,0.411286,9.82305,-0.13869,1.33,-3.01,0.07,18.7241,-48.496,-20.3642,1023.39
616688,0.420851,9.79436,-0.153037,1.54,-3.08,0.63,17.9105,-47.4474,-22.8171,1023.39
616694,0.420851,9.84218,-0.210426,1.75,-2.45,0.42,18.4626,-51.3641,-21.1917,1023.39
616700,0.449546,9.83261,-0.186514,1.61,-2.24,-0.14,18.7532,-50.4389,-21.5315,1023.4
616706,0.435198,9.82783,-0.153037,1.47,-2.8,0.56,17.9396,-46.5531,-22.4329,1023.4
616712,0.468675,9.8087,-0.186514,1.75,-2.8,0.42,18.172,-48.9586,-21.0735,1023.4
616718,0.430416,9.83261,-0.191296,1.19,-2.38,0.28,19.1018,-51.3332,-21.4281,1023.4
616724,0.430416,9.81349,-0.176949,1.54,-3.01,0.14,17.9105,-47.6941,-22.6989,1023.4
616730,0.49737,9.81349,-0.196078,1.26,-2.73,0.28,18.3173,-48.0025,-24.014,1023.4
616736,0.492587,9.82783,-0.172166,1.54,-2.66,-0.14,18.2301,-51.1482,-21.0439,1023.4
616742,0.425634,9.82783,-0.172166,1.19,-2.38,0.28,18.1139,-48.8352,-21.6202,1023.38
616748,0.420851,9.85174,-0.143472,1.4,-2.31,0.21,17.5909,-47.4166,-22.5511,1023.38
616754,0.435198,9.81349,-0.143472,1.47,-2.59,0.35,18.2882,-51.2099,-21.1621,1023.42
616760,0.382592,9.78957,-0.153037,1.47,-2.87,0.14,18.4916,-50.9323,-20.7779,1023.42
616766,0.420851,9.84218,-0.172166,1.68,-2.45,0.28,17.649,-47.1698,-23.4377,1023.42
616772,0.401722,9.83261,-0.162602,1.4,-2.45,0.28,18.0558,-49.5445,-21.9601,1023.41
616778,0.454328,9.82305,-0.124342,1.54,-2.66,0.14,18.4335,-52.1659,-21.2803,1023.41
616784,0.396939,9.8374,-0.162602,1.68,-3.08,0,17.5909,-47.4474,-22.0044,1023.4
616790,0.387374,9.80392,-0.172166,1.61,-2.52,0.56,17.0679,-48.0025,-22.6545,1023.4
616796,0.420851,9.81349,-0.143472,1.33,-2.52,0.63,18.0558,-51.95,-22.1078,1023.43
616802,0.439981,9.83261,-0.148254,1.33,-2.38,0.56,17.6199,-48.6502,-21.4429,1023.43
616808,0.425634,9.82305,-0.176949,1.4,-2.94,0.63,17.3584,-47.4166,-22.9057,1023.4
616814,0.439981,9.83261,-0.13869,1.33,-2.52,0.49,17.8524,-51.0865,-21.1917,1023.4
616820,0.444763,9.8087,-0.172166,1.54,-2.31,0.07,17.5037,-50.3463,-20.9553,1023.36
616826,0.420851,9.81349,-0.167384,1.47,-3.01,0.49,17.4456,-46.7998,-22.625,1023.36
616832,0.473458,9.84218,-0.196078,1.33,-2.94,0.63,17.3875,-50.3155,-20.379,1023.36
616838,0.45911,9.82783,-0.176949,1.4,-2.66,-0.28,18.3173,-52.0117,-20.113,1023.39
616844,0.45911,9.83261,-0.157819,1.47,-2.73,0,18.3754,-47.91,-21.0144,1023.39
616850,0.439981,9.85653,-0.186514,1.54,-2.66,0.35,18.2592,-48.3418,-21.9157,1023.42
616856,0.425634,9.81349,-0.167384,1.26,-2.73,0.14,18.143,-51.8883,-21.4281,1023.42
616862,0.435198,9.79436,-0.157819,1.61,-2.8,-0.07,18.3173,-48.0334,-21.2065,1023.41
616868,0.435198,9.82783,-0.153037,1.47,-2.24,-0.14,17.9686,-47.4782,-22.4625,1023.41
616874,0.435198,9.82783,-0.167384,1.47,-2.52,0.21,18.2882,-51.179,-21.5906,1023.4
616880,0.420851,9.79914,-0.176949,1.19,-2.87,0.84,18.4916,-50.5005,-21.0291,1023.4
616886,0.435198,9.78479,-0.11956,1.61,-2.8,0,16.5158,-47.6324,-23.7332,1023.4
616892,0.420851,9.79914,-0.114778,1.61,-2.24,0.28,17.8814,-49.5137,-22.5363,1023.38
616898,0.435198,9.86131,-0.157819,1.68,-2.38,0.77,18.0267,-51.5799,-21.502,1023.38
616904,0.439981,9.82783,-0.148254,1.12,-3.22,0.07,17.649,-47.2007,-23.1274,1023.39
616910,0.444763,9.8087,-0.124342,1.4,-2.94,0.35,17.1841,-48.681,-22.1078,1023.39
616916,0.439981,9.8087,-0.133907,1.82,-2.66,0.7,19.0728,-52.8135,-20.3347,1023.42
616922,0.444763,9.82305,-0.162602,1.26,-2.59,0.49,18.3173,-48.6193,-20.7779,1023.42
616928,0.45911,9.8374,-0.124342,1.61,-2.59,0.07,17.9105,-47.3857,-22.4625,1023.4
616934,0.468675,9.84696,-0.196078,1.54,-2.52,0.35,18.2882,-51.9192,-20.2903,1023.4
616940,0.47824,9.83261,-0.181731,1.47,-3.15,0.07,18.666,-50.2538,-21.3838,1023.4
616946,0.454328,9.85174,-0.205643,1.54,-2.66,0.28,19.1018,-46.9231,-21.635,1023.41
616952,0.463893,9.88044,-0.172166,1.12,-2.1,0.21,18.0267,-49.9454,-21.7975,1023.41
616958,0.435198,9.81827,-0.133907,1.54,-2.59,-0.42,19.0437,-51.2099,-20.7779,1023.4
616964,0.425634,9.8087,-0.153037,1.61,-2.45,-0.14,18.0848,-47.5708,-21.4429,1023.4
616970,0.401722,9.82305,-0.162602,1.4,-2.31,0.28,17.649,-47.6016,-21.8714,1023.42
616976,0.425634,9.83261,-0.157819,1.33,-2.38,0.35,18.9275,-50.994,-20.3199,1023.42
616982,0.439981,9.82305,-0.162602,1.61,-2.66,0.21,18.5788,-47.9408,-21.1917,1023.42
616988,0.425634,9.80392,-0.133907,1.61,-2.52,-0.14,18.0558,-47.3549,-22.3442,1023.42
616994,0.401722,9.8087,-0.153037,1.33,-2.17,0.84,18.4626,-51.4874,-21.369,1023.42
617000,0.45911,9.81827,-0.153037,1.89,-2.31,0.49,18.8694,-51.3949,-20.5563,1023.42
617006,0.454328,9.83261,-0.167384,1.61,-2.52,0.56,18.172,-47.4782,-22.5216,1023.42
617012,0.45911,9.8374,-0.133907,1.33,-2.52,0.49,18.5498,-50.6239,-21.1917,1023.39
617018,0.416069,9.85174,-0.13869,1.61,-2.8,0,18.7241,-51.7341,-20.5267,1023.39
617024,0.439981,9.8087,-0.162602,1.68,-2.38,0.77,18.1139,-46.5531,-22.625,1023.39
617030,0.430416,9.82783,-0.172166,1.12,-2.38,0.7,17.4747,-48.8969,-21.4281,1023.39
617036,0.45911,9.83261,-0.133907,1.54,-2.38,0.21,18.7241,-51.5799,-20.9996,1023.38
617042,0.454328,9.83261,-0.143472,1.61,-3.01,0.35,17.9686,-48.7735,-20.4529,1023.38
617048,0.473458,9.79436,-0.157819,1.12,-2.31,0.35,17.6199,-47.5091,-21.9009,1023.39
617054,0.463893,9.81827,-0.148254,1.68,-2.17,0.56,17.9686,-51.0865,-21.0735,1023.39
617060,0.468675,9.81827,-0.186514,1.68,-2.1,-0.21,18.666,-50.3463,-20.4972,1023.39
617066,0.449546,9.85653,-0.172166,1.54,-2.73,0.07,17.7071,-46.5222,-21.7384,1023.4
617072,0.435198,9.82305,-0.167384,1.47,-2.17,-0.56,17.8524,-49.1744,-21.4429,1023.4
617078,0.416069,9.8087,-0.10043,1.75,-2.52,0.21,18.4045,-51.3024,-20.4381,1023.41
617084,0.425634,9.8087,-0.129125,1.68,-2.59,0.21,18.172,-47.2932,-21.1621,1023.41
617090,0.420851,9.8374,-0.172166,1.54,-2.38,-0.07,17.5618,-48.9277,-22.1669,1023.41
617096,0.435198,9.82783,-0.167384,1.68,-3.01,-0.42,17.9105,-51.7341,-20.8518,1023.41
617102,0.406504,9.80392,-0.162602,1.4,-2.38,0.77,18.143,-48.3418,-21.9453,1023.39
617108,0.430416,9.80392,-0.13869,1.82,-2.24,0.42,17.7652,-47.2932,-22.9353,1023.39
617114,0.425634,9.83261,-0.148254,1.26,-2.73,-0.28,17.8524,-50.1305,-21.3099,1023.39
617120,0.444763,9.82783,-0.191296,1.89,-2.94,0.56,18.5788,-50.4389,-20.645,1023.39
617126,0.444763,9.8087,-0.153037,1.75,-3.01,0.49,18.3754,-47.0157,-22.3147,1023.39
617132,0.430416,9.78001,-0.167384,1.54,-2.45,0.07,18.143,-50.223,-21.635,1023.38
617138,0.439981,9.82783,-0.157819,1.4,-2.8,0.14,19.1018,-50.9631,-20.9553,1023.38
617144,0.449546,9.82305,-0.172166,1.61,-2.73,0.42,18.6079,-47.6016,-22.4477,1023.39
617150,0.416069,9.84218,-0.162602,1.68,-2.52,0.07,18.0267,-47.91,-21.9896,1023.39
617156,0.473458,9.81827,-0.186514,1.26,-1.89,0.35,17.2422,-52.2892,-19.7584,1023.41
617162,0.45911,9.79436,-0.157819,1.68,-2.52,0.21,18.7532,-48.866,-21.0587,1023.41
617192,0.454328,9.81827,-0.167384,1.19,-2.66,0.07,17.7362,-50.5622,-21.3394,1023.4
617198,0.439981,9.81827,-0.153037,1.4,-2.59,0.07,18.7241,-51.7341,-19.4481,1023.42
617204,0.444763,9.8087,-0.13869,1.61,-3.01,0.07,17.4747,-48.0642,-22.9648,1023.42
617210,0.435198,9.82305,-0.157819,1.47,-2.03,-0.21,17.5328,-47.91,-22.2556,1023.41
617216,0.430416,9.79914,-0.162602,1.47,-2.45,0.35,18.1139,-52.6902,-20.7632,1023.41
617222,0.420851,9.80392,-0.124342,1.68,-2.52,0.28,17.7943,-48.8352,-22.1521,1023.4
617228,0.430416,9.79436,-0.129125,1.54,-2.8,0.07,17.3003,-47.2624,-22.891,1023.4
617234,0.420851,9.8087,-0.133907,1.82,-2.8,0.07,17.7362,-51.2099,-21.6941,1023.4
617240,0.416069,9.8087,-0.196078,1.61,-2.38,0.49,18.9565,-49.8221,-20.7779,1023.41
617246,0.435198,9.80392,-0.181731,1.61,-2.87,0.07,17.126,-46.4297,-21.8123,1023.41
617252,0.439981,9.82783,-0.11956,1.96,-2.94,0.07,18.172,-49.2978,-21.768,1023.4
617258,0.439981,9.82783,-0.176949,1.75,-2.31,0.84,18.4335,-51.3332,-20.4824,1023.4
617264,0.468675,9.84696,-0.162602,1.75,-2.8,0.28,17.7943,-47.1698,-21.1474,1023.4
617270,0.483022,9.84696,-0.157819,1.61,-2.73,17.85,17.5909,-47.5399,-22.4033,1023.4
617276,0.487805,9.8087,-0.181731,1.82,-2.87,0.14,18.8403,-50.8398,-20.6893,1023.38
617282,0.483022,9.84218,-0.181731,1.33,-2.38,0,17.8524,-49.4828,-21.1621,1023.38
617288,0.468675,9.87087,-0.153037,1.47,-2.52,0.07,17.4165,-46.4914,-21.7532,1023.38
617294,0.483022,9.85174,-0.172166,1.4,-2.94,-0.14,17.7943,-50.8089,-21.502,1023.42
617300,0.45911,9.83261,-0.167384,1.19,-2.59,-0.21,18.4916,-50.0071,-21.5315,1023.42
617306,0.439981,9.84696,-0.143472,1.61,-2.52,-0.07,17.678,-46.954,-22.0192,1023.41
617312,0.454328,9.82783,-0.172166,1.33,-2.1,0.07,17.4747,-49.7912,-22.3147,1023.41
617318,0.449546,9.82783,-0.153037,2.17,-2.45,-0.28,17.8524,-50.994,-21.4724,1023.42
617324,0.411286,9.81349,-0.167384,1.12,-2.24,0.42,17.7362,-47.9717,-22.5659,1023.42
617330,0.425634,9.8087,-0.13869,1.05,-2.38,-0.07,17.4747,-48.3418,-23.4377,1023.41
617336,0.406504,9.8374,-0.176949,1.82,-2.73,-0.21,18.9565,-51.7341,-20.8962,1023.41
617342,0.406504,9.82305,-0.153037,1.61,-2.45,0.21,18.7532,-50.3155,-21.3542,1023.38
617348,0.45911,9.8374,-0.167384,1.47,-2.66,-0.07,17.5618,-47.2624,-22.7875,1023.38
617354,0.463893,9.84696,-0.114778,1.68,-2.38,0.56,18.666,-51.4566,-21.1621,1023.38
617360,0.430416,9.83261,-0.148254,1.33,-2.52,0.14,18.7822,-50.4389,-20.6302,1023.42
617366,0.425634,9.8087,-0.148254,1.68,-2.66,0.07,17.7362,-46.6764,-22.2113,1023.42
617372,0.425634,9.81827,-0.176949,1.26,-2.24,0.49,18.4626,-50.1613,-21.5463,1023.41
617378,0.468675,9.81349,-0.167384,1.68,-2.45,0,18.8984,-51.3332,-21.369,1023.41
617384,0.430416,9.8087,-0.191296,1.61,-2.52,0,18.2301,-47.8175,-22.0044,1023.4
617390,0.449546,9.78957,-0.157819,1.33,-2.94,0.49,17.678,-47.8483,-21.3985,1023.4
617396,0.487805,9.84696,-0.200861,1.54,-2.17,0.07,18.1139,-51.3332,-22.1965,1023.41
617402,0.435198,9.82783,-0.186514,1.19,-2.45,-0.07,18.0848,-49.3286,-21.1917,1023.41
617408,0.454328,9.82305,-0.162602,1.75,-2.59,-0.42,17.8814,-47.6941,-22.9057,1023.41
617414,0.468675,9.86609,-0.167384,1.68,-2.73,-0.14,18.1139,-50.7473,-21.369,1023.44
617420,0.45911,9.82783,-0.157819,1.68,-2.03,0.21,18.666,-50.6856,-22.093,1023.44
617426,0.449546,9.85653,-0.124342,1.47,-2.94,-0.56,17.9105,-47.324,-22.2999,1023.43
617432,0.439981,9.8087,-0.148254,1.33,-2.59,0.07,18.143,-49.1744,-21.6497,1023.43
617438,0.439981,9.82305,-0.13869,1.54,-2.45,-0.42,18.143,-51.2715,-21.0144,1023.37
617444,0.411286,9.8374,-0.133907,1.75,-2.45,-0.28,17.4165,-47.5708,-21.5463,1023.37
617450,0.416069,9.82783,-0.153037,1.82,-2.94,0,17.5618,-48.0334,-22.9057,1023.38
617456,0.430416,9.79436,-0.11956,1.68,-2.59,0.14,18.3173,-51.9809,-20.8518,1023.38
617462,0.45911,9.82305,-0.162602,1.4,-2.24,-0.07,18.4626,-49.0819,-21.3394,1023.38
617468,0.420851,9.8374,-0.148254,1.33,-2.52,0.07,17.4747,-47.2932,-21.7236,1023.38
617474,0.416069,9.84696,-0.129125,1.68,-2.8,0.07,18.1139,-50.9015,-20.4676,1023.38
617480,0.435198,9.81827,-0.167384,2.1,-2.8,0.35,18.5207,-51.0865,-21.0735,1023.42
617486,0.444763,9.8087,-0.162602,1.54,-2.52,0.07,18.0558,-47.0465,-23.0387,1023.42
617492,0.430416,9.81349,-0.143472,1.68,-2.31,0.35,17.155,-50.0996,-21.635,1023.41
617498,0.454328,9.82783,-0.153037,1.54,-2.66,0.14,18.4335,-50.7164,-21.1474,1023.41
617504,0.444763,9.85174,-0.148254,1.4,-2.87,-0.21,18.0267,-48.0642,-22.9648,1023.42
617510,0.454328,9.81827,-0.172166,1.47,-2.52,0.49,17.1841,-47.9717,-23.4525,1023.42
617516,0.454328,9.86131,-0.13869,1.05,-2.66,0.42,18.5498,-51.9809,-21.103,1023.4
617522,0.487805,9.84696,-0.162602,1.89,-2.52,0.14,17.7362,-48.6193,-21.6941,1023.4
617528,0.468675,9.85653,-0.196078,1.19,-2.59,-0.49,17.4165,-46.6764,-23.3638,1023.4
617534,0.454328,9.84218,-0.200861,1.54,-2.73,-0.42,17.7362,-51.3641,-21.8714,1023.4
617540,0.449546,9.82305,-0.162602,1.33,-2.8,-0.21,17.7071,-50.4389,-20.1869,1023.4
617546,0.430416,9.82305,-0.162602,1.19,-2.38,-0.14,17.0969,-46.7998,-22.6841,1023.41
617552,0.406504,9.81827,-0.143472,1.61,-2.87,-0.21,18.2882,-49.637,-22.625,1023.41
617558,0.435198,9.81827,-0.148254,1.54,-2.73,0.21,18.2882,-52.0425,-21.9157,1023.4
617564,0.430416,9.82305,-0.143472,1.54,-2.66,0.35,18.3464,-47.725,-22.1226,1023.4
617570,0.396939,9.8087,-0.133907,1.96,-3.08,0,17.9396,-47.8175,-21.8566,1023.41
617576,0.416069,9.82783,-0.153037,1.47,-2.73,-0.21,18.9565,-52.1659,-20.97,1023.41
617582,0.425634,9.8374,-0.133907,1.61,-2.59,0.28,18.4626,-48.8352,-20.6302,1023.41
617588,0.449546,9.79914,-0.133907,1.61,-2.59,0.28,17.7362,-47.9717,-22.0044,1023.42
617594,0.411286,9.80392,-0.148254,1.61,-2.94,0.28,18.2011,-51.8575,-20.4824,1023.42
617600,0.439981,9.8374,-0.153037,2.1,-3.22,0.28,17.5328,-51.6416,-21.236,1023.44
617606,0.411286,9.82305,-0.153037,1.33,-2.94,0.14,17.9105,-46.9231,-22.7137,1023.44
617612,0.454328,9.81827,-0.191296,1.26,-2.45,0.63,17.9977,-49.9763,-23.2899,1023.41
617618,0.430416,9.84218,-0.191296,1.26,-2.8,0.21,18.5498,-51.7033,-21.0882,1023.41
617624,0.454328,9.8374,-0.186514,1.26,-2.17,0.21,17.8233,-47.2315,-21.4577,1023.42
617630,0.416069,9.8374,-0.172166,0.98,-2.87,0.14,18.0558,-48.7118,-22.1078,1023.42
617636,0.430416,9.78957,-0.133907,1.33,-2.66,0,18.5498,-51.9192,-21.5168,1023.42
617642,0.502152,9.8374,-0.162602,1.75,-2.66,0.14,17.9396,-48.0334,-21.9748,1023.4
617648,0.473458,9.85174,-0.196078,1.05,-1.96,-0.35,18.143,-47.7558,-23.5264,1023.4
617654,0.454328,9.83261,-0.181731,0.84,-2.24,-0.21,17.8233,-50.6239,-21.7236,1023.38
617660,0.406504,9.77044,-0.0908656,1.19,-2.52,-0.14,17.9105,-49.8529,-21.9157,1023.38
617666,0.396939,9.81827,-0.095648,1.47,-2.8,0,17.4456,-46.5531,-23.1569,1023.43
617672,0.439981,9.8087,-0.148254,1.96,-2.73,-0.14,17.649,-49.5137,-22.6102,1023.43
617678,0.439981,9.8374,-0.148254,1.4,-2.52,-0.07,18.5207,-51.2407,-21.5168,1023.41
617684,0.444763,9.80392,-0.143472,1.75,-2.73,-0.14,17.7943,-47.5399,-22.2851,1023.41
617690,0.411286,9.78001,-0.157819,1.68,-2.59,0.42,18.3754,-48.496,-22.6545,1023.41
617696,0.425634,9.81349,-0.172166,1.68,-3.01,0.28,19.2181,-51.4874,-22.0339,1023.42
617702,0.430416,9.84218,-0.167384,1.75,-2.45,0.35,18.8984,-48.6193,-21.9748,1023.42
617708,0.449546,9.83261,-0.210426,1.89,-2.73,-0.21,17.7071,-46.954,-23.3343,1023.4
617714,0.444763,9.80392,-0.167384,1.47,-2.45,0.28,18.3173,-51.3332,-22.891,1023.4
617720,0.439981,9.82305,-0.157819,1.61,-3.08,0.63,18.6079,-50.8398,-20.3199,1023.41
617726,0.45911,9.82305,-0.148254,1.19,-2.45,0.42,17.2422,-47.5091,-22.3442,1023.41
617732,0.444763,9.85174,-0.153037,1.33,-2.31,0.14,18.2882,-49.6679,-21.9601,1023.41
617738,0.473458,9.8374,-0.13869,1.4,-2.52,0.21,18.6079,-51.179,-19.9061,1023.41
617744,0.463893,9.84696,-0.191296,1.33,-2.52,-0.21,18.6369,-46.7689,-22.625,1023.4
617750,0.47824,9.86609,-0.210426,1.4,-2.38,-0.49,17.6199,-47.8483,-21.4429,1023.4
617756,0.416069,9.83261,-0.13869,1.47,-2.24,-0.28,18.3173,-51.179,-21.1178,1023.4
617762,0.416069,9.81349,-0.095648,1.61,-2.66,-0.42,18.6369,-48.6502,-20.6302,1023.4
617768,0.435198,9.81349,-0.11956,1.89,-2.8,0,18.0848,-46.9848,-22.6841,1023.4
617774,0.454328,9.86609,-0.196078,1.33,-2.31,-0.49,18.6369,-50.8089,-21.3838,1023.42
617780,0.444763,9.8374,-0.186514,1.47,-2.59,-0.14,18.7822,-50.3463,-20.6893,1023.42
617786,0.420851,9.8087,-0.148254,1.68,-2.59,-0.28,18.143,-45.9671,-22.4033,1023.41
617792,0.392157,9.82783,-0.129125,1.82,-2.94,-0.21,17.8233,-50.1921,-22.1965,1023.41
617798,0.430416,9.81827,-0.176949,1.75,-2.8,-0.14,18.4916,-52.135,-20.2312,1023.41
617804,0.435198,9.80392,-0.181731,1.68,-2.31,0.28,18.172,-47.3857,-21.5611,1023.41
617810,0.387374,9.82305,-0.133907,1.61,-2.38,-0.07,17.3294,-48.5576,-21.3985,1023.41
617816,0.406504,9.81349,-0.124342,1.75,-2.59,0.35,18.666,-51.5799,-19.1378,1023.41
617822,0.416069,9.82783,-0.153037,1.89,-2.45,0.42,18.4045,-48.9277,-22.1521,1023.41
617828,0.435198,9.81827,-0.172166,1.75,-2.45,-0.07,17.5328,-46.6764,-23.9696,1023.39
617834,0.406504,9.8374,-0.181731,1.54,-2.45,0.21,18.7532,-51.2407,-22.1817,1023.39
617840,0.454328,9.84218,-0.167384,1.4,-2.94,0,18.7532,-50.7473,-22.0192,1023.4
617846,0.449546,9.81349,-0.153037,1.82,-2.59,-0.07,18.2882,-47.2932,-23.1126,1023.4
617852,0.473458,9.83261,-0.172166,1.4,-2.59,-0.35,17.8524,-49.4212,-22.1374,1023.4
617858,0.49737,9.88522,-0.205643,1.33,-2.45,0.14,18.4045,-50.9015,-22.6693,1023.4
617864,0.444763,9.8374,-0.172166,1.33,-2.24,-0.07,18.2011,-47.8175,-21.8123,1023.4
617870,0.430416,9.83261,-0.153037,1.4,-2.45,-0.7,17.6199,-47.9717,-21.3542,1023.41
617876,0.463893,9.81827,-0.172166,2.03,-2.94,-0.35,18.8113,-51.179,-21.3838,1023.41
617882,0.439981,9.84218,-0.129125,1.82,-2.73,-0.63,18.9565,-49.2669,-20.9553,1023.41
617888,0.425634,9.81827,-0.191296,1.54,-2.38,-0.14,17.2713,-47.91,-21.9157,1023.41
617894,0.406504,9.79436,-0.129125,1.61,-2.38,-0.35,17.4747,-51.3332,-21.3542,1023.38
617900,0.411286,9.79914,-0.114778,1.68,-2.38,-0.35,17.7362,-50.4697,-21.1917,1023.38
617906,0.396939,9.80392,-0.133907,1.75,-2.52,-0.14,18.1139,-46.8615,-22.492,1023.4
617912,0.430416,9.8374,-0.148254,1.47,-1.89,0.21,17.9396,-50.6547,-21.236,1023.4
617918,0.411286,9.85653,-0.153037,1.4,-2.66,-0.28,18.4916,-52.0117,-20.4972,1023.41
617924,0.416069,9.80392,-0.133907,1.54,-2.73,0,17.3294,-47.8483,-22.2704,1023.41
617930,0.425634,9.84696,-0.109995,1.47,-2.17,0.56,17.5037,-48.2184,-22.5511,1023.41
617936,0.411286,9.80392,-0.162602,1.47,-2.52,-0.14,18.2882,-51.3024,-20.4972,1023.41
617942,0.430416,9.81349,-0.148254,1.75,-2.45,-0.07,18.2301,-48.8969,-22.2999,1023.41
617948,0.439981,9.81827,-0.176949,1.75,-3.15,-0.21,16.6901,-47.324,-21.8714,1023.41
617954,0.473458,9.84218,-0.181731,1.4,-2.31,0.28,18.4916,-50.7164,-20.5711,1023.41
617960,0.420851,9.81827,-0.129125,1.47,-2.38,0.07,18.3754,-50.3463,-21.9453,1023.4
617966,0.420851,9.83261,-0.157819,1.33,-2.52,-0.84,17.1841,-47.139,-21.6645,1023.4
617972,0.449546,9.84218,-0.153037,1.4,-2.59,-0.42,17.5328,-50.223,-22.1817,1023.4
617978,0.425634,9.8374,-0.176949,1.19,-2.66,0.28,18.1139,-51.7033,-20.4381,1023.4
617984,0.435198,9.8087,-0.162602,1.61,-2.31,-0.28,17.8233,-47.6633,-21.502,1023.4
617990,0.416069,9.79914,-0.105213,1.05,-2.52,-0.7,17.3875,-48.1567,-22.5511,1023.4
617996,0.420851,9.83261,-0.105213,1.33,-2.52,0.14,18.8984,-51.4874,-21.6054,1023.4
618002,0.435198,9.81349,-0.153037,1.61,-2.31,0.07,17.8233,-48.4343,-21.2212,1023.38
618008,0.435198,9.82305,-0.13869,1.75,-2.87,-0.28,17.9105,-48.681,-23.4377,1023.38
618014,0.425634,9.80392,-0.143472,1.68,-2.87,0,18.0848,-50.7473,-21.1474,1023.44
618020,0.420851,9.83261,-0.157819,1.75,-3.29,0.07,18.9275,-50.0996,-20.8814,1023.44
618026,0.406504,9.82305,-0.148254,1.54,-2.38,0.14,18.3173,-47.2315,-22.6693,1023.38
618032,0.406504,9.8087,-0.162602,1.47,-2.38,0.42,18.2882,-50.3155,-20.1721,1023.38
618038,0.435198,9.78957,-0.143472,1.75,-2.8,0.7,18.7241,-51.3641,-21.1917,1023.38
618044,0.420851,9.8374,-0.13869,1.54,-2.73,0.42,18.4045,-47.0773,-22.1374,1023.41
618050,0.401722,9.79914,-0.162602,1.47,-2.66,0.35,17.7362,-47.5091,-22.3295,1023.41
618056,0.396939,9.8087,-0.148254,1.33,-2.66,0.35,18.5498,-51.6725,-21.0587,1023.41
618062,0.416069,9.82783,-0.176949,1.68,-2.59,0.07,18.2882,-48.7118,-20.6302,1023.41
618068,0.425634,9.81827,-0.153037,1.54,-2.24,0,17.2713,-47.139,-22.492,1023.42
618074,0.435198,9.8087,-0.157819,1.54,-2.59,0.07,17.7362,-50.7473,-21.1769,1023.42
618080,0.416069,9.8087,-0.153037,1.4,-2.87,0,18.6079,-49.9763,-21.3838,1023.4
618086,0.401722,9.8087,-0.13869,1.47,-2.38,0,17.8814,-46.9231,-21.6941,1023.4
618092,0.411286,9.81349,-0.153037,1.33,-2.45,0.28,17.9396,-49.1744,-21.8862,1023.42
618098,0.435198,9.80392,-0.124342,1.4,-2.8,0.21,18.7532,-51.3641,-20.6006,1023.42
618104,0.416069,9.79914,-0.133907,1.75,-2.87,0.42,18.143,-47.6633,-21.2065,1023.42
618110,0.430416,9.81827,-0.148254,1.82,-3.08,0,17.4456,-48.6193,-22.4477,1023.37
618116,0.416069,9.79436,-0.172166,1.47,-2.52,-0.35,19.0728,-52.2276,-21.236,1023.37
618122,0.396939,9.81349,-0.157819,1.75,-2.73,0.07,18.666,-49.3595,-21.6054,1023.39
618128,0.444763,9.8087,-0.133907,2.1,-3.01,0.35,18.2592,-47.1082,-20.9405,1023.39
618134,0.425634,9.82305,-0.148254,1.96,-2.52,0.14,18.4335,-50.1921,-20.4233,1023.4
618140,0.439981,9.84696,-0.172166,2.03,-2.66,0.35,18.3754,-49.9454,-20.8518,1023.4
618146,0.430416,9.81827,-0.148254,1.68,-2.59,0.21,17.8233,-46.2755,-22.1669,1023.42
618152,0.416069,9.81349,-0.176949,1.61,-2.73,0.7,17.8524,-49.3595,-22.8614,1023.42
618158,0.396939,9.82783,-0.191296,1.96,-2.38,0.49,18.5498,-50.7164,-21.2508,1023.42
618164,0.454328,9.84696,-0.153037,1.47,-2.31,0.14,18.0558,-47.9717,-21.635,1023.42
618170,0.483022,9.82783,-0.181731,1.54,-2.73,-0.14,17.5618,-48.6502,-22.8614,1023.42
618176,0.435198,9.83261,-0.181731,1.61,-2.45,0.7,18.2882,-52.6902,-21.9157,1023.41
618182,0.416069,9.82305,-0.11956,1.54,-2.66,0.14,18.5788,-49.1744,-21.2803,1023.41
618188,0.45911,9.85653,-0.191296,1.61,-2.59,-0.28,18.1139,-47.5399,-22.6693,1023.38
618194,0.439981,9.8374,-0.153037,1.54,-2.31,-0.21,18.4335,-51.5183,-20.6154,1023.38
618200,0.420851,9.84218,-0.133907,1.75,-2.59,0,18.4335,-50.9631,-21.236,1023.41
618206,0.430416,9.80392,-0.129125,1.33,-2.66,0,17.9396,-46.4914,-22.7284,1023.41
618212,0.392157,9.80392,-0.13869,1.61,-2.94,0.63,17.2131,-49.5445,-22.6841,1023.41
618218,0.396939,9.8087,-0.143472,2.03,-3.22,-0.21,18.3464,-51.7958,-19.9209,1023.39
618224,0.401722,9.81349,-0.210426,1.82,-3.22,0.42,18.2301,-47.8483,-22.1078,1023.39
618230,0.420851,9.84696,-0.157819,1.75,-2.94,0.42,18.2882,-48.4343,-22.6841,1023.39
618236,0.411286,9.85653,-0.157819,1.82,-2.8,0.35,18.3464,-51.95,-20.8814,1023.39
618242,0.401722,9.82305,-0.143472,1.68,-2.73,0.42,18.2301,-49.3286,-20.3642,1023.39
618248,0.411286,9.8087,-0.172166,1.75,-2.31,0.56,18.0558,-47.3857,-22.4477,1023.39
618254,0.449546,9.82305,-0.162602,1.33,-2.38,0.63,18.4045,-50.5931,-21.0439,1023.39
618260,0.435198,9.84218,-0.162602,1.61,-2.59,0.07,18.143,-50.9631,-20.6006,1023.39
618266,0.430416,9.79914,-0.153037,1.89,-2.45,0.49,17.8524,-46.6764,-21.0587,1023.38
618272,0.444763,9.83261,-0.153037,1.19,-2.66,0.63,18.666,-49.2361,-21.9009,1023.38
618278,0.454328,9.82783,-0.13869,1.61,-2.45,0.35,18.5498,-51.3024,-20.1721,1023.38
618284,0.454328,9.85653,-0.200861,1.4,-2.52,0.49,18.3754,-48.0334,-22.0783,1023.4
618290,0.435198,9.80392,-0.176949,1.47,-2.45,0.28,17.7652,-48.3726,-22.2556,1023.4
618296,0.411286,9.78479,-0.153037,1.54,-2.24,-0.21,19.189,-51.765,-20.5267,1023.43
618302,0.430416,9.81349,-0.157819,1.68,-2.52,0.56,18.4626,-49.8529,-19.8914,1023.43
618308,0.392157,9.82783,-0.162602,1.47,-2.94,0.56,18.4045,-47.9717,-22.5363,1023.41
618314,0.430416,9.78957,-0.162602,1.33,-2.17,-0.07,17.3003,-51.7958,-23.0092,1023.41
618320,0.420851,9.83261,-0.191296,1.82,-2.45,0.21,18.1139,-51.2715,-20.6154,1023.45
618326,0.439981,9.84696,-0.162602,1.61,-2.52,0.21,17.5328,-46.5222,-22.8023,1023.45
618332,0.435198,9.84218,-0.153037,1.68,-2.31,0.49,18.7532,-50.4389,-21.9748,1023.45
618338,0.430416,9.77044,-0.105213,1.47,-2.38,0.42,18.4335,-51.7033,-21.1474,1023.4
618344,0.416069,9.81827,-0.143472,1.61,-3.01,0,18.3464,-48.6502,-22.3442,1023.4
618350,0.439981,9.82783,-0.153037,1.33,-2.38,0.28,17.8524,-47.9408,-22.1521,1023.41
618356,0.401722,9.83261,-0.157819,1.89,-2.87,0.21,18.9856,-51.3641,-21.6202,1023.41
618362,0.454328,9.80392,-0.157819,1.82,-2.45,0.63,18.7241,-49.0202,-21.369,1023.37
618368,0.392157,9.82783,-0.157819,1.47,-2.24,1.05,18.5498,-48.681,-22.8023,1023.37
618374,0.439981,9.81827,-0.172166,1.75,-2.66,0.56,18.5788,-51.2715,-21.9896,1023.42
618380,0.420851,9.83261,-0.167384,1.47,-2.66,0.42,18.2882,-50.3155,-21.8123,1023.42
618386,0.449546,9.8374,-0.13869,1.61,-2.66,0.7,17.5037,-46.8923,-22.4477,1023.42
618392,0.425634,9.81349,-0.13869,1.33,-2.52,0.42,17.7652,-49.637,-22.1078,1023.41
618398,0.425634,9.79914,-0.129125,1.82,-2.87,0.28,18.6079,-51.6108,-20.7188,1023.41
