Timestamp,AccX,AccY,AccZ,AngularVelX,AngularVelY,AngularVelZ,MagX,MagY,MagZ,AirPressure
110282,0.444763,9.83261,-0.0334768,1.4,-2.66,0.42,21.5717,-49.8529,-17.8079,1023.36
110288,0.483022,9.8374,-0.0669536,1.12,-2.66,0.42,21.2811,-50.6856,-18.7831,1023.36
110294,0.439981,9.82305,-0.071736,1.96,-2.73,0.28,21.223,-49.452,-19.8914,1023.36
110300,0.463893,9.82305,-0.0095648,1.54,-2.45,-0.14,22.2109,-50.0379,-19.0491,1023.36
110306,0.411286,9.8374,-0.0430416,1.54,-3.01,0.07,21.3973,-50.3463,-17.2316,1023.36
110312,0.439981,9.82783,-0.0430416,1.54,-2.8,0.21,21.746,-49.4828,-19.0787,1023.36
110318,0.444763,9.84696,-0.047824,1.61,-1.96,-0.14,21.5135,-50.3463,-18.8718,1023.36
110324,0.439981,9.8374,-0.0286944,1.4,-2.24,-0.14,21.3973,-50.9323,-19.123,1023.36
110330,0.392157,9.81827,0.0143472,1.61,-3.43,0.07,21.3973,-50.4697,-18.6797,1023.37
110336,0.425634,9.78957,-0.0191296,1.47,-3.08,0.42,22.1818,-50.5005,-20.5858,1023.37
110342,0.406504,9.81827,-0.0286944,1.4,-2.59,0.28,22.1237,-50.5314,-17.9409,1023.37
110348,0.449546,9.83261,-0.0286944,1.75,-2.66,0.21,21.7169,-50.9631,-17.5271,1023.37
110354,0.430416,9.81827,-0.0430416,2.03,-3.08,0.07,21.223,-49.9763,-19.8766,1023.39
110360,0.411286,9.81827,-0.0334768,1.75,-2.87,0.07,21.8913,-50.3155,-19.7288,1023.39
110366,0.416069,9.81827,-0.047824,1.68,-2.59,0.35,21.746,-50.8398,-19.256,1023.35
110372,0.435198,9.83261,-0.023912,2.03,-2.87,-0.21,21.9203,-50.0996,-18.0591,1023.35
110378,0.468675,9.87087,-0.0526064,1.68,-3.01,0.42,22.2109,-50.4697,-18.7092,1023.35
110384,0.416069,9.81349,-0.0143472,1.26,-2.45,0.42,21.9785,-50.4389,-17.9704,1023.36
110390,0.396939,9.81349,-0.023912,1.47,-2.52,0.28,22.24,-50.0996,-19.6697,1023.36
110396,0.449546,9.85653,-0.0143472,1.54,-2.87,0.14,21.5135,-49.1744,-19.1378,1023.36
110402,0.45911,9.82783,-0.0143472,1.4,-2.59,0.63,21.223,-50.9631,-17.8227,1023.36
110408,0.435198,9.84696,-0.047824,1.68,-2.45,-0.07,21.9785,-50.2847,-17.734,1023.35
110414,0.420851,9.85174,-0.0573888,1.19,-2.73,0.28,21.223,-50.1921,-19.714,1023.35
110420,0.439981,9.83261,-0.0526064,1.54,-2.94,0.35,21.2811,-50.3463,-18.857,1023.37
110426,0.416069,9.85174,-0.047824,1.47,-2.52,0.07,21.746,-50.3772,-18.5615,1023.37
110432,0.444763,9.78479,-0.0095648,1.19,-2.52,0.21,22.5596,-50.4389,-18.6649,1023.37
110438,0.439981,9.82783,-0.023912,1.75,-3.15,0.49,21.3973,-50.4389,-19.6254,1023.39
110444,0.430416,9.82783,-0.0286944,1.82,-2.73,0.21,22.2981,-50.3463,-18.2955,1023.39
110450,0.439981,9.81827,-0.0095648,1.47,-2.45,0.49,21.9785,-50.7781,-19.6254,1023.38
110456,0.45911,9.82305,-0.0382592,1.82,-2.59,0.84,22.1237,-50.0071,-20.0687,1023.38
110462,0.435198,9.85174,-0.0908656,1.4,-2.31,0.21,21.8041,-51.2407,-19.0343,1023.37
110468,0.463893,9.80392,-0.0095648,1.82,-2.8,0,21.8622,-50.4697,-20.512,1023.37
110474,0.439981,9.83261,-0.0573888,1.68,-2.45,0.7,21.6879,-49.6679,-19.389,1023.33
110480,0.430416,9.84218,-0.0765184,1.75,-2.59,0.42,22.0366,-50.2538,-18.2512,1023.33
110486,0.439981,9.81827,-0.0286944,1.68,-2.8,0.07,21.8332,-50.6239,-19.1082,1023.37
110492,0.430416,9.81349,-0.0191296,2.1,-2.94,0.07,21.8332,-50.0071,-18.9309,1023.37
110498,0.45911,9.81349,-0.071736,1.33,-2.45,0.28,21.3973,-50.1921,-19.389,1023.37
110504,0.430416,9.84218,-0.0526064,1.54,-2.59,0.07,21.9494,-50.4697,-19.6106,1023.38
110510,0.430416,9.81349,-0.023912,1.47,-2.8,0.14,22.5596,-50.4697,-19.389,1023.38
110516,0.425634,9.85653,-0.047824,1.33,-2.45,0.35,21.5426,-49.9454,-19.5515,1023.39
110522,0.449546,9.80392,-0.047824,1.68,-2.45,0.35,22.0075,-50.2538,-19.0639,1023.39
110528,0.473458,9.87566,-0.0669536,1.4,-2.59,-0.07,21.746,-50.4697,-19.3446,1023.35
110534,0.396939,9.82305,-0.0669536,1.47,-2.66,0.07,21.6298,-49.5445,-20.3494,1023.35
110540,0.430416,9.82305,-0.0621712,1.47,-2.17,0.56,22.0366,-50.0071,-20.1426,1023.33
110546,0.444763,9.84696,-0.0382592,1.61,-2.45,0.14,22.0656,-50.5005,-18.0148,1023.33
110552,0.439981,9.82783,-0.0334768,1.61,-2.94,0.28,22.24,-49.5753,-18.5615,1023.33
110558,0.420851,9.84696,-0.0430416,1.68,-2.52,-0.28,21.3683,-49.8529,-19.4924,1023.36
110564,0.435198,9.82305,-0.0526064,1.47,-2.1,0.21,21.4264,-50.5622,-17.9409,1023.36
110570,0.411286,9.82305,-0.0573888,1.75,-2.66,0.49,22.2981,-49.3286,-19.8618,1023.36
110576,0.449546,9.8374,-0.023912,1.61,-2.38,0.49,21.3683,-50.0379,-18.7536,1023.36
110582,0.45911,9.85174,-0.0908656,1.26,-2.73,0.28,21.3973,-50.8398,-18.5024,1023.36
110588,0.45911,9.8374,-0.0430416,1.26,-2.66,0.49,21.1358,-50.4389,-18.591,1023.36
110594,0.435198,9.80392,-0.0191296,1.61,-3.22,0.14,22.0947,-49.6679,-19.2412,1023.38
110600,0.468675,9.80392,-0.0621712,1.47,-2.52,0.28,22.0947,-50.0996,-18.2807,1023.38
110606,0.49737,9.81827,-0.0621712,1.47,-2.1,0.35,21.746,-49.452,-18.3398,1023.38
110612,0.444763,9.83261,0,1.4,-2.45,0.35,22.0947,-49.3286,-18.7092,1023.38
110618,0.425634,9.8087,-0.0430416,1.54,-2.66,0.21,22.6758,-50.5314,-18.8275,1023.38
110624,0.454328,9.81349,-0.0573888,1.4,-2.94,0.35,21.5135,-51.1482,-19.9357,1023.33
110630,0.449546,9.80392,-0.0669536,1.33,-2.52,0.07,22.0947,-49.2053,-18.6649,1023.33
110636,0.444763,9.85653,-0.0621712,1.75,-2.45,0.07,20.729,-49.5445,-19.2708,1023.34
110642,0.435198,9.8087,-0.0526064,1.47,-2.52,-0.14,21.1939,-49.8529,-18.5024,1023.34
110648,0.439981,9.80392,-0.023912,1.4,-2.59,0.35,22.2109,-50.8089,-17.9261,1023.36
110654,0.444763,9.81349,-0.023912,1.33,-2.24,0.35,21.7169,-48.8044,-19.1082,1023.36
110660,0.401722,9.81827,-0.0191296,1.82,-2.52,0.35,21.5426,-49.2361,-19.7731,1023.39
110666,0.449546,9.85653,-0.0143472,1.82,-2.52,0.14,21.8913,-49.9763,-18.4137,1023.39
110672,0.449546,9.84218,-0.0526064,1.26,-2.1,0.35,21.6879,-50.0071,-19.4776,1023.39
110678,0.430416,9.81827,-0.0382592,1.54,-2.87,0.28,22.1818,-48.9586,-20.3494,1023.34
110684,0.454328,9.81349,-0.0573888,1.89,-2.31,0.07,22.0947,-49.8837,-19.0491,1023.34
110690,0.449546,9.80392,-0.047824,1.68,-2.66,0.14,22.0947,-49.3286,-19.1969,1023.35
110696,0.47824,9.80392,-0.0286944,1.54,-2.38,0.42,21.6298,-49.6987,-19.8175,1023.35
110702,0.439981,9.8374,-0.0382592,1.54,-2.31,0.49,22.0656,-49.9146,-19.7731,1023.36
110708,0.439981,9.82305,-0.0334768,1.61,-2.59,0.28,22.1818,-50.4697,-19.256,1023.36
110714,0.430416,9.8087,-0.0382592,1.75,-2.8,0.28,21.4264,-50.0379,-19.3594,1023.36
110720,0.473458,9.8087,-0.0286944,1.19,-2.38,0.35,21.8041,-50.2538,-19.1673,1023.36
110726,0.449546,9.82783,-0.0526064,1.68,-2.66,0.35,22.4434,-49.637,-17.9852,1023.36
110732,0.449546,9.81349,-0.0143472,1.19,-2.52,0.28,21.5135,-50.2847,-19.0639,1023.36
110738,0.454328,9.84696,-0.0813008,1.61,-2.66,-0.07,21.6298,-49.8529,-18.133,1023.36
110744,0.463893,9.82783,-0.023912,1.75,-3.01,0.28,22.0366,-50.5931,-19.1673,1023.37
110750,0.463893,9.82305,-0.0526064,1.47,-2.8,0.14,22.269,-49.7295,-19.3151,1023.37
110756,0.473458,9.86131,-0.10043,1.54,-2.73,0.7,21.7169,-49.4212,-18.9161,1023.34
110762,0.430416,9.84696,-0.0860832,1.68,-2.52,0.21,22.1528,-49.7295,-18.1625,1023.34
110768,0.430416,9.84218,-0.0334768,1.19,-2.17,0.42,21.7751,-49.6062,-17.8079,1023.35
110774,0.444763,9.83261,-0.0047824,1.75,-2.59,-0.14,21.3392,-49.2978,-19.7436,1023.35
110780,0.454328,9.84218,-0.0430416,1.75,-2.8,-0.14,21.5717,-49.6987,-18.3546,1023.35
110786,0.425634,9.82783,-0.0334768,1.4,-2.1,0.49,21.6007,-50.5622,-18.857,1023.37
110792,0.430416,9.80392,-0.0191296,1.54,-2.24,0.42,21.252,-49.6987,-18.9013,1023.37
110798,0.420851,9.81349,-0.047824,1.26,-2.59,-0.14,21.1649,-50.7164,-18.7536,1023.33
110804,0.444763,9.82305,-0.0382592,1.19,-2.38,0.35,22.0366,-50.9323,-18.8866,1023.33
110810,0.444763,9.84218,-0.0382592,1.61,-2.38,0.63,21.5717,-49.637,-18.3694,1023.36
110816,0.444763,9.83261,-0.0382592,1.61,-3.01,0.63,21.1358,-50.0688,-18.9161,1023.36
110822,0.444763,9.83261,-0.0526064,1.54,-2.87,0.21,21.7169,-50.223,-18.0591,1023.34
110828,0.420851,9.83261,-0.0430416,1.4,-1.61,0.49,21.6588,-51.6725,-19.4333,1023.34
110834,0.45911,9.82783,-0.0382592,1.26,-2.17,0.56,21.8041,-49.6679,-19.389,1023.37
110840,0.439981,9.82305,-0.0526064,1.47,-2.73,0.56,22.5596,-50.2538,-17.8522,1023.37
110846,0.444763,9.85174,-0.071736,1.61,-2.66,0.07,21.8041,-50.4697,-17.9556,1023.37
110852,0.435198,9.81827,-0.0669536,1.96,-2.66,0.07,21.8622,-49.7295,-19.7288,1023.38
110858,0.435198,9.78479,-0.0382592,1.26,-2.66,0.63,20.8743,-49.2669,-18.9752,1023.38
110864,0.444763,9.8374,-0.0669536,1.47,-2.52,0.28,21.8622,-49.9763,-18.5615,1023.37
110870,0.435198,9.84696,-0.0860832,1.33,-2.59,0.56,21.5135,-49.8529,-18.9013,1023.37
110876,0.449546,9.84218,-0.0526064,1.54,-2.31,0.21,21.2811,-49.9454,-18.7092,1023.35
110882,0.444763,9.84696,-0.0430416,1.54,-2.38,0.21,22.0075,-50.5005,-19.1525,1023.35
110888,0.444763,9.8087,-0.0334768,1.47,-2.38,0.35,21.9203,-50.5314,-19.0639,1023.35
110894,0.454328,9.8374,-0.0813008,1.26,-2.17,0.28,22.2109,-50.2847,-20.2755,1023.35
110900,0.487805,9.82305,-0.0430416,1.12,-2.31,0.21,22.1237,-50.5622,-17.8374,1023.35
110906,0.463893,9.81349,-0.0286944,1.4,-2.31,0.21,21.223,-50.5931,-19.6993,1023.33
110912,0.430416,9.79436,-0.0573888,1.12,-2.73,0.07,21.0486,-50.1921,-19.7288,1023.33
110918,0.401722,9.78957,-0.0286944,1.47,-2.52,-0.07,22.0075,-50.5005,-18.8866,1023.4
110924,0.420851,9.8087,-0.0526064,1.47,-2.17,0.14,21.7751,-50.5314,-18.6649,1023.4
110930,0.454328,9.83261,-0.0526064,1.19,-2.17,0.35,20.7581,-50.6239,-18.1921,1023.34
110936,0.439981,9.82783,-0.0573888,1.68,-2.59,0.07,21.7751,-49.7604,-18.5024,1023.34
110942,0.444763,9.81827,-0.0334768,1.47,-2.87,0.35,21.7751,-50.8089,-18.8866,1023.36
110948,0.454328,9.81349,-0.0526064,1.61,-2.52,-0.07,21.4554,-50.6856,-18.9457,1023.36
110954,0.444763,9.83261,-0.0382592,1.75,-2.8,0.07,21.223,-49.637,-18.724,1023.36
110960,0.439981,9.78957,-0.071736,1.61,-2.45,0.07,21.223,-50.5622,-17.5271,1023.33
110966,0.454328,9.80392,-0.0526064,1.47,-2.45,0.28,21.6879,-50.8706,-17.3055,1023.33
110972,0.444763,9.82783,-0.0526064,1.4,-2.66,0.56,21.6298,-49.9454,-18.6797,1023.34
110978,0.439981,9.84696,-0.0669536,1.47,-2.52,0.35,21.7751,-49.5137,-18.4285,1023.34
110984,0.473458,9.80392,-0.0334768,1.75,-2.59,0.28,22.1818,-50.994,-18.9013,1023.37
110990,0.444763,9.78001,-0.0191296,1.05,-2.66,0.28,22.24,-50.994,-17.8965,1023.37
110996,0.468675,9.82305,-0.0334768,1.82,-2.73,0.21,21.5135,-50.223,-19.8175,1023.33
111002,0.487805,9.84218,-0.0860832,1.33,-2.38,0.07,22.2981,-50.7473,-17.9704,1023.33
111008,0.449546,9.81827,-0.0573888,1.33,-2.31,0.28,22.0366,-50.5314,-18.1625,1023.36
111014,0.420851,9.8087,-0.0382592,1.54,-2.52,0.42,21.9785,-49.3595,-18.6058,1023.36
111020,0.483022,9.8087,-0.0047824,1.89,-2.52,0.49,21.4264,-50.0996,-18.7536,1023.36
111026,0.435198,9.8087,-0.0334768,1.89,-3.15,0.56,21.9203,-50.3772,-18.6354,1023.38
111032,0.473458,9.85653,-0.148254,1.4,-2.1,-0.07,21.746,-49.9146,-18.7979,1023.38
111038,0.454328,9.78957,-0.0621712,1.26,-1.89,0.84,22.1818,-49.9454,-20.0096,1023.37
111044,0.425634,9.79436,-0.0286944,1.96,-2.94,0.28,22.1528,-50.5622,-18.458,1023.37
111050,0.439981,9.83261,-0.047824,1.4,-2.94,0.07,21.6007,-50.1921,-19.0343,1023.34
111056,0.454328,9.8087,-0.0621712,1.54,-2.87,0.21,21.6007,-49.8529,-18.5172,1023.34
111062,0.454328,9.86609,-0.0573888,1.47,-2.59,0.42,21.746,-49.9763,-19.5958,1023.37
111068,0.468675,9.8087,-0.0573888,1.47,-2.38,0.21,22.6468,-49.8837,-19.0639,1023.37
111074,0.411286,9.76566,-0.0143472,1.19,-2.38,0.63,21.1067,-49.452,-20.6006,1023.37
111080,0.449546,9.81827,-0.023912,1.61,-2.87,0.42,21.6007,-50.1305,-19.1082,1023.37
111086,0.449546,9.82305,-0.0621712,1.75,-2.87,0.14,21.8622,-50.4389,-18.6945,1023.37
111092,0.45911,9.83261,-0.047824,1.61,-2.52,0.42,21.6879,-50.1613,-20.3051,1023.36
111098,0.406504,9.83261,-0.0526064,1.89,-2.59,0.21,20.7871,-49.7604,-19.256,1023.36
111104,0.392157,9.83261,-0.0382592,1.61,-2.73,0.35,22.0947,-50.223,-18.0739,1023.36
111110,0.463893,9.82305,-0.0765184,1.54,-2.87,0.28,21.6879,-50.8089,-19.256,1023.36
111116,0.425634,9.82305,-0.0621712,1.75,-2.45,0.56,22.24,-49.7604,-19.3742,1023.34
111122,0.45911,9.8374,-0.0860832,1.26,-2.38,0.28,22.2981,-50.4389,-19.1821,1023.34
111128,0.449546,9.83261,-0.0573888,1.82,-2.1,0.28,21.9494,-49.8529,-19.0491,1023.34
111134,0.392157,9.8087,-0.0143472,1.89,-2.8,0.28,21.4845,-49.6679,-20.3642,1023.36
111140,0.492587,9.82305,-0.0813008,1.75,-3.08,0.35,22.0947,-50.7164,-18.5615,1023.36
111146,0.473458,9.84218,-0.0813008,1.68,-2.87,-0.28,21.746,-50.1305,-18.6649,1023.33
111152,0.411286,9.79436,-0.0382592,1.47,-2.45,-16.87,21.1939,-49.9454,-18.5763,1023.33
111158,0.45911,9.81349,-0.0430416,1.68,-2.38,0.35,22.0947,-49.8529,-19.0639,1023.35
111164,0.435198,9.85174,-0.071736,1.47,-2.38,0.63,21.7169,-50.5622,-17.6749,1023.35
111170,0.449546,9.80392,-0.0908656,1.54,-2.52,-0.07,21.3973,-49.3595,-18.3398,1023.37
111176,0.416069,9.84696,-0.0334768,1.96,-2.8,-0.07,21.3101,-49.6062,-19.1821,1023.37
111182,0.47824,9.83261,-0.0573888,1.89,-2.8,0.35,22.1818,-50.408,-19.6106,1023.33
111188,0.49737,9.82783,-0.0573888,1.61,-2.73,-0.21,22.5886,-49.6062,-18.4285,1023.33
111194,0.45911,9.84218,-0.0908656,1.47,-2.94,0.07,22.24,-49.6679,-20.9109,1023.33
111200,0.454328,9.82783,-0.0621712,1.68,-2.59,0.07,21.746,-50.3463,-19.1525,1023.36
111206,0.45911,9.8087,-0.0526064,1.82,-2.24,0.21,22.0947,-50.7781,-18.6058,1023.36
111212,0.396939,9.81349,-0.0573888,1.54,-3.01,-0.49,22.0947,-50.7473,-19.9948,1023.36
111218,0.483022,9.84218,-0.0669536,2.03,-2.59,-0.21,22.8502,-49.7912,-18.9604,1023.36
111224,0.468675,9.81827,-0.0860832,1.96,-2.8,-0.49,22.3271,-50.1305,-18.9013,1023.36
111230,0.444763,9.81349,-0.0382592,1.19,-2.52,0.07,22.5015,-50.0071,-19.5219,1023.36
111236,0.439981,9.83261,-0.071736,1.33,-2.31,0.63,21.9494,-50.6856,-20.2312,1023.37
111242,0.47824,9.8087,-0.0382592,1.89,-2.87,-0.21,22.3271,-50.5005,-19.7584,1023.37
111248,0.435198,9.82783,-0.0286944,1.75,-3.01,-0.35,22.3852,-51.3949,-18.9309,1023.37
111254,0.449546,9.8374,-0.0526064,1.47,-2.59,0.7,22.4434,-49.8221,-19.9505,1023.37
111260,0.468675,9.82305,-0.0621712,1.54,-2.52,0.35,21.746,-50.5314,-19.8914,1023.37
111266,0.444763,9.8374,-0.0143472,1.54,-2.17,-0.49,22.5596,-50.408,-19.5811,1023.37
111272,0.45911,9.82783,-0.0430416,1.68,-2.24,0.07,22.0366,-50.1613,-18.8275,1023.37
111278,0.473458,9.87087,-0.0813008,1.4,-2.66,0.28,21.5717,-50.0996,-19.7584,1023.39
111284,0.444763,9.81349,-0.0621712,1.68,-2.73,-0.28,22.5015,-49.9763,-18.6206,1023.39
111290,0.439981,9.84218,-0.0669536,1.19,-2.31,-0.07,21.6298,-49.7295,-17.7192,1023.36
111296,0.444763,9.79436,0,1.61,-2.38,-0.21,21.8622,-50.1305,-19.4037,1023.36
111302,0.454328,9.79914,-0.0191296,1.05,-2.03,0.28,22.24,-50.5622,-18.99,1023.36
111308,0.45911,9.82783,-0.047824,1.4,-2.59,0.49,22.3852,-50.0379,-19.4185,1023.36
111314,0.435198,9.81827,-0.0382592,1.68,-2.87,-0.07,22.24,-50.0996,-19.7731,1023.36
111320,0.444763,9.81349,-0.0813008,1.61,-2.38,0.49,22.1528,-50.3155,-18.99,1023.38
111326,0.420851,9.85653,-0.0430416,1.26,-2.52,0.49,22.5596,-50.1921,-18.8127,1023.38
111332,0.47824,9.83261,-0.0621712,1.54,-2.45,0.42,21.8041,-49.5137,-18.8127,1023.38
111338,0.439981,9.8374,-0.0860832,1.33,-2.31,-0.07,22.4143,-49.5753,-19.6993,1023.38
111344,0.463893,9.82305,-0.0860832,1.26,-1.82,0.7,21.8913,-49.6062,-19.6402,1023.33
111350,0.483022,9.8087,-0.0669536,1.4,-2.31,0.14,23.0536,-49.6062,-18.6206,1023.33
111356,0.444763,9.81827,-0.047824,1.26,-1.89,0.56,22.6177,-49.8837,-18.4728,1023.35
111362,0.416069,9.77044,-0.0286944,1.68,-2.45,0,22.5886,-50.8089,-19.0343,1023.35
111368,0.463893,11.0091,-0.0191296,1.61,-2.45,-0.07,22.8211,-50.4389,-19.1969,1023.35
111374,0.435198,9.86131,-0.0430416,1.4,-2.03,0.42,21.6879,-49.9454,-19.0048,1023.38
111380,0.463893,9.83261,-0.0621712,1.68,-2.59,0.28,22.0075,-50.3463,-18.9752,1023.38
111386,0.463893,9.83261,-0.0286944,1.33,-1.96,0.07,22.3562,-49.8837,-18.2955,1023.39
111392,0.483022,9.82305,-0.0573888,1.12,-2.38,0.07,21.9494,-50.0688,-19.2708,1023.39
111398,0.439981,9.81827,-0.0430416,1.54,-3.01,0.21,22.0656,-50.0379,-19.0343,1023.34
111404,0.463893,9.82783,-0.0430416,1.54,-2.52,-0.21,22.5596,-51.0248,-18.2955,1023.34
111410,0.47824,9.84696,-0.095648,1.68,-2.66,-0.14,21.9785,-50.5314,-17.5567,1023.37
111416,0.463893,9.84218,-0.0908656,1.47,-2.03,0.07,22.3852,-49.6987,-19.6254,1023.37
111422,0.473458,9.82783,-0.0526064,1.47,-2.73,-0.42,22.9083,-50.994,-18.591,1023.37
111428,0.473458,9.86131,-0.0765184,1.4,-2.38,0.07,22.3852,-50.6856,-17.867,1023.36
111434,0.47824,9.82783,-0.0430416,1.54,-2.17,0.07,22.4434,-50.3155,-18.9013,1023.36
111440,0.463893,9.8087,-0.0621712,1.61,-2.45,0,22.5886,-49.637,-17.9113,1023.39
111446,0.435198,9.81827,-0.0334768,1.68,-2.66,-0.07,22.6468,-50.6239,-19.0639,1023.39
111452,0.406504,9.8374,-0.0382592,1.4,-2.03,0.07,22.7339,-49.9146,-18.9752,1023.32
111458,0.425634,9.81827,-0.0191296,1.47,-2.24,-0.21,22.7339,-49.9454,-19.0491,1023.32
111464,0.416069,9.83261,-0.0382592,1.75,-2.66,0.14,22.1237,-50.3463,-19.5072,1023.38
111470,0.416069,9.84696,-0.0334768,1.4,-3.01,-0.42,22.763,-49.637,-18.4137,1023.38
111476,0.444763,9.81349,-0.0621712,1.47,-2.59,0.14,22.3852,-50.0071,-19.4037,1023.38
111482,0.45911,9.81827,-0.0526064,2.1,-2.87,-0.07,21.8913,-49.7912,-17.734,1023.38
111488,0.449546,9.83261,-0.0334768,1.4,-2.45,-17.71,22.0366,-51.4257,-18.0886,1023.38
111494,0.449546,9.84696,-0.0669536,1.82,-2.66,0.28,22.1818,-50.0071,-18.6649,1023.35
111500,0.468675,9.8087,-0.0573888,1.33,-2.52,0.21,21.9494,-50.0379,-17.7488,1023.35
111506,0.454328,9.81827,-0.0669536,1.4,-2.87,-0.14,22.763,-50.9631,-18.6649,1023.38
111512,0.396939,9.82783,-0.0430416,1.75,-2.52,0.21,22.3271,-49.9763,-18.8718,1023.38
111518,0.483022,9.83261,-0.0573888,1.4,-2.73,0.07,22.4724,-50.3463,-20.1426,1023.37
111524,0.468675,9.85653,-0.105213,1.33,-2.45,0.07,21.5717,-50.4697,-18.591,1023.37
111530,0.416069,9.81349,-0.0143472,1.26,-2.59,-0.14,21.7169,-49.8221,-19.5515,1023.37
111536,0.473458,9.82783,-0.0143472,1.33,-2.24,0.35,22.0075,-49.9454,-19.5515,1023.32
111542,0.401722,9.8374,-0.023912,1.54,-2.52,0.07,22.4724,-50.6547,-17.9704,1023.32
111548,0.420851,9.79436,-0.0286944,1.82,-2.31,0,21.8622,-50.7164,-18.2512,1023.34
111554,0.401722,9.8374,-0.0191296,1.96,-2.73,-0.14,22.0075,-49.7604,-19.6402,1023.34
111560,0.45911,9.82305,-0.0669536,1.26,-2.31,0.35,22.0366,-51.2099,-18.4433,1023.34
111566,0.420851,9.82305,-0.0430416,1.68,-2.45,0.07,22.0947,-50.5931,-18.1625,1023.34
111572,0.430416,9.80392,-0.0526064,1.54,-2.59,0.14,22.0656,-49.9146,-18.857,1023.33
111578,0.444763,9.84218,-0.0765184,1.61,-2.59,0.07,21.8913,-50.223,-19.2412,1023.33
111584,0.444763,9.82305,-0.0334768,1.82,-2.94,-0.14,21.8622,-50.3155,-19.7731,1023.37
111590,0.449546,9.82783,-0.0382592,1.26,-2.45,0.28,22.2981,-49.7295,-20.0539,1023.37
111596,0.430416,9.84218,-0.0669536,1.89,-2.8,0.07,22.3562,-49.4212,-19.0343,1023.37
111602,0.435198,9.81827,-0.0526064,1.61,-2.59,0,21.9203,-51.3024,-18.5763,1023.34
111608,0.444763,9.83261,-0.0334768,1.4,-2.59,-0.28,22.4724,-49.8837,-17.8079,1023.34
111614,0.468675,9.83261,-0.071736,1.19,-2.03,-0.07,21.9785,-49.1128,-18.9161,1023.34
111620,0.430416,9.82783,-0.0430416,1.33,-2.17,0.07,21.9203,-50.5005,-18.5024,1023.34
111626,0.468675,9.84218,-0.0621712,1.54,-2.73,-0.35,22.7049,-51.0557,-18.9161,1023.36
111632,0.444763,9.85174,-0.0621712,1.33,-2.31,0.07,22.24,-50.3155,-18.7092,1023.36
111638,0.387374,9.80392,0,1.61,-2.38,0.35,22.7049,-50.223,-18.3546,1023.35
111644,0.444763,9.82305,-0.047824,1.54,-1.75,-0.14,22.8792,-50.8398,-19.1821,1023.35
111650,0.420851,9.85653,-0.0621712,1.26,-2.66,0,21.8622,-50.3155,-19.1378,1023.35
111656,0.425634,9.82305,-0.0526064,1.54,-2.38,0.42,22.269,-50.4697,-19.0491,1023.4
111662,0.468675,9.84218,-0.0573888,1.54,-2.45,-0.21,22.3271,-50.6239,-17.867,1023.4
111668,0.435198,9.8374,-0.0334768,1.47,-2.59,-0.14,22.6468,-50.1613,-18.3398,1023.35
111674,0.406504,9.83261,0.0047824,1.4,-2.1,0.49,22.2981,-50.8398,-19.1378,1023.35
111680,0.468675,9.82783,-0.0382592,1.4,-2.45,0.35,21.6879,-51.0248,-19.1378,1023.36
111686,0.454328,9.8374,-0.0621712,1.54,-2.8,-0.07,22.1237,-50.9631,-18.8422,1023.36
111692,0.430416,9.81827,-0.0286944,1.47,-2.17,0.07,22.0656,-51.1173,-18.7831,1023.37
111698,0.420851,9.8374,-0.0430416,1.47,-2.59,0,22.0656,-50.7473,-18.8275,1023.37
111704,0.401722,9.82305,-0.0143472,1.54,-2.24,0.42,22.2981,-51.0248,-18.0295,1023.37
111710,0.416069,9.82305,-0.0191296,1.61,-2.73,0.28,22.1818,-50.4389,-19.5219,1023.41
111716,0.468675,9.83261,-0.0621712,1.47,-2.38,0.49,21.5717,-50.4697,-19.98,1023.41
111722,0.449546,9.87087,-0.0382592,1.33,-2.1,0.14,21.746,-50.3155,-19.6106,1023.4
111728,0.435198,9.83261,-0.0621712,1.05,-2.45,0.42,22.269,-51.3024,-19.4185,1023.4
111734,0.454328,9.85174,-0.047824,1.4,-2.52,0.14,22.1237,-50.1921,-20.0539,1023.37
111740,0.411286,9.81349,-0.023912,1.4,-2.52,-0.49,21.8913,-50.7473,-19.3742,1023.37
111746,0.449546,9.8374,-0.0286944,1.12,-2.45,-0.07,21.8041,-50.6856,-19.0787,1023.37
111752,0.463893,9.87087,-0.071736,1.61,-2.1,0.49,22.269,-50.2538,-19.7731,1023.37
111758,0.425634,9.85174,-0.0573888,0.98,-2.31,0.14,22.3271,-50.3463,-20.2164,1023.35
111764,0.430416,9.84696,-0.0430416,1.4,-2.31,0.28,22.3562,-51.6725,-18.2807,1023.35
111770,0.425634,9.8374,-0.0286944,1.47,-2.73,-0.28,22.1528,-50.3772,-19.3299,1023.35
111776,0.473458,9.82783,-0.0286944,1.61,-2.1,0,22.1237,-49.637,-19.8175,1023.35
111782,0.435198,9.8374,-0.047824,1.61,-2.66,0.07,22.2109,-50.6547,-18.5763,1023.35
111788,0.45911,9.82783,0.0047824,1.26,-2.52,0.14,22.3562,-50.7781,-18,1023.33
111794,0.463893,9.79914,-0.0430416,1.54,-2.59,-0.21,22.5886,-50.0996,-19.0048,1023.33
111800,0.420851,9.80392,-0.047824,1.47,-2.59,0.21,22.1237,-50.5622,-18.0739,1023.34
111806,0.425634,9.83261,-0.0621712,1.82,-2.45,0.14,22.0947,-50.5314,-19.9061,1023.34
111812,0.406504,9.81349,-0.023912,1.4,-2.94,0.21,21.3973,-49.5137,-18.99,1023.39
111818,0.468675,9.82305,-0.0526064,1.68,-2.8,0.28,21.8913,-50.2847,-18.9013,1023.39
111824,0.430416,9.84696,-0.071736,1.33,-2.24,0.21,22.5015,-50.9015,-18.2512,1023.39
111830,0.492587,9.82305,-0.0334768,1.75,-2.66,0.07,21.6588,-50.5622,-18.5172,1023.35
111836,0.435198,9.84696,-0.0191296,1.75,-2.94,0.28,21.4554,-49.7604,-18.1773,1023.35
111842,0.444763,9.8087,-0.0286944,1.4,-2.52,0.28,22.1237,-51.2407,-19.7879,1023.36
111848,0.463893,9.82783,-0.0908656,1.4,-2.24,0.42,22.0366,-50.7473,-17.6306,1023.36
111854,0.444763,9.83261,-0.0334768,1.4,-2.45,-0.14,22.1237,-50.1921,-18.6649,1023.36
111860,0.439981,9.85653,-0.023912,1.4,-2.8,-0.07,22.1818,-50.3155,-18.9161,1023.36
111866,0.45911,9.8374,-0.0765184,1.47,-2.73,0.21,22.0947,-50.5931,-19.3594,1023.35
111872,0.425634,9.84218,-0.0382592,1.12,-2.45,0.21,22.1237,-49.9454,-18.0739,1023.35
111878,0.401722,9.82783,-0.023912,1.33,-2.17,-0.21,21.1067,-50.2538,-19.4924,1023.35
111884,0.420851,9.85174,0.0095648,1.4,-2.52,0.35,21.7169,-50.0996,-18.5467,1023.35
111890,0.435198,9.8087,-0.0191296,1.4,-2.45,-0.07,22.3271,-49.9146,-19.2855,1023.35
111896,0.430416,9.82305,-0.0430416,1.47,-2.59,-0.35,21.5426,-50.0071,-19.2708,1023.38
111902,0.444763,9.87087,-0.0621712,1.26,-2.31,0,21.8332,-50.7473,-19.4037,1023.38
111908,0.449546,9.83261,-0.0095648,1.12,-2.31,0.07,22.5305,-50.0071,-19.2116,1023.36
111914,0.425634,9.8087,0,1.54,-2.73,-0.07,21.4264,-50.2847,-19.9948,1023.36
111920,0.435198,9.8087,-0.0286944,1.47,-2.66,0.21,21.9785,-50.1305,-18.9013,1023.35
111926,0.439981,9.82305,-0.0334768,1.19,-2.45,0.49,21.4845,-49.5753,-17.5715,1023.35
111932,0.425634,9.81827,0,1.82,-2.73,0.42,21.4845,-49.4828,-19.0196,1023.36
111938,0.454328,9.81827,-0.0286944,1.54,-2.38,0,22.4724,-51.4566,-19.3003,1023.36
111944,0.430416,9.85174,-0.047824,1.68,-2.59,0.14,21.8913,-51.5183,-18.266,1023.36
111950,0.420851,9.81827,-0.0526064,1.4,-2.38,0.14,21.9785,-50.0688,-17.5271,1023.35
111956,0.449546,9.83261,-0.0334768,1.61,-2.8,0.07,22.1237,-50.0071,-17.2907,1023.35
111962,0.444763,9.82783,-0.0382592,1.61,-2.38,0.35,21.1649,-51.7958,-19.0196,1023.37
111968,0.45911,9.83261,-0.0430416,1.47,-2.73,-0.07,22.5015,-50.5005,-18.3546,1023.37
111974,0.401722,9.8374,-0.047824,1.54,-2.73,0.42,21.1649,-50.5005,-18.4137,1023.36
111980,0.430416,9.81349,-0.0286944,1.82,-2.73,0.28,21.8622,-51.0248,-19.123,1023.36
111986,0.425634,9.81827,-0.023912,1.4,-2.1,-0.21,22.1237,-50.5622,-17.4237,1023.39
111992,0.420851,9.84218,-0.0286944,1.47,-2.17,-0.07,22.5596,-50.0071,-18.9752,1023.39
111998,0.45911,9.82305,-0.0334768,1.68,-3.08,0.63,21.746,-50.3463,-19.5811,1023.39
112004,0.449546,9.76566,-0.0382592,1.68,-2.52,0.49,21.9494,-51.2715,-19.0934,1023.36
112010,0.411286,9.8374,-0.0191296,1.33,-2.24,-0.21,21.6879,-50.0379,-20.2755,1023.36
112016,0.463893,9.85174,-0.0430416,1.68,-2.66,0.21,21.9494,-50.7164,-19.847,1023.36
112022,0.439981,9.83261,-0.0191296,1.47,-2.52,0.7,21.3683,-50.5005,-18.3694,1023.36
112028,0.411286,9.82305,-0.0191296,1.75,-2.73,0.14,21.8332,-50.4389,-17.7488,1023.37
112034,0.449546,9.83261,-0.0430416,1.4,-2.59,0.42,21.5717,-49.5445,-19.2412,1023.37
112040,0.420851,9.84218,-0.0573888,1.26,-2.52,0.28,21.4554,-49.4212,-18.2955,1023.36
112046,0.420851,9.8374,-0.0286944,1.61,-2.8,0.35,21.4845,-50.9015,-18.9752,1023.36
112052,0.435198,9.83261,-0.0669536,1.47,-2.94,0.07,21.6298,-50.3463,-18.99,1023.36
112058,0.439981,9.82783,-0.023912,2.03,-3.01,0.42,21.4554,-50.3463,-19.8323,1023.37
112064,0.430416,9.84696,-0.023912,1.82,-3.01,-0.14,21.6588,-50.8706,-18.458,1023.37
112070,0.449546,9.84218,-0.0191296,1.75,-2.38,0.07,22.0366,-49.452,-19.6254,1023.36
112076,0.401722,9.83261,-0.0430416,1.68,-2.59,0.07,21.8913,-50.0996,-19.6254,1023.36
112082,0.420851,9.81349,-0.0334768,1.33,-2.66,0.28,22.0075,-50.7164,-19.0491,1023.38
112088,0.435198,9.8087,-0.0621712,1.96,-3.01,0.07,22.24,-49.9146,-18.3251,1023.38
112094,0.444763,9.83261,-0.0573888,0.98,-2.73,0.35,22.1237,-49.637,-19.5515,1023.35
112100,0.401722,9.84696,-0.047824,1.33,-2.1,-0.07,21.1358,-50.4389,-19.4481,1023.35
112106,0.454328,9.83261,-0.0334768,1.19,-2.52,0.21,21.8913,-50.5931,-18.7979,1023.36
112112,0.439981,9.80392,-0.0430416,1.47,-2.87,0.21,21.5717,-49.4828,-19.5811,1023.36
112118,0.425634,9.81349,-0.0286944,1.54,-3.01,-0.07,21.7169,-49.7295,-19.7731,1023.36
112124,0.396939,9.81349,-0.0143472,1.19,-2.59,0.28,21.7169,-50.0688,-18.3842,1023.36
112130,0.487805,9.80392,-0.0382592,1.96,-2.66,0,21.3101,-49.6987,-19.5072,1023.36
112136,0.444763,9.8374,-0.0621712,1.33,-2.59,0.14,21.3973,-49.637,-20.2017,1023.34
112142,0.430416,9.8374,-0.0047824,1.33,-2.59,0.35,21.5717,-50.5314,-18.9309,1023.34
112148,0.454328,9.81827,-0.0286944,1.61,-2.38,0.35,21.8913,-50.2538,-19.389,1023.34
112154,0.401722,9.83261,-0.0095648,1.61,-2.8,-0.21,21.223,-49.2053,-19.7288,1023.34
112160,0.516499,9.8374,-0.0526064,1.54,-2.59,0.07,21.6879,-50.223,-18.2364,1023.37
112166,0.382592,9.81349,0.023912,1.47,-2.45,0.42,22.1528,-50.8089,-19.8175,1023.37
112172,0.435198,9.76566,0.0143472,1.47,-2.45,0,21.5426,-50.0071,-18.9161,1023.37
112178,0.439981,9.86131,-0.047824,1.54,-2.73,0.28,21.8913,-49.9763,-19.1673,1023.36
112184,0.439981,9.79914,-0.023912,1.26,-2.87,0.14,22.0947,-50.2847,-19.2708,1023.36
112190,0.444763,9.80392,-0.0430416,1.47,-2.59,0.14,21.6298,-49.452,-18.5763,1023.37
112196,0.406504,9.84696,-0.047824,1.4,-2.24,0.14,21.0777,-49.9454,-19.0639,1023.37
112202,0.406504,9.8087,-0.0621712,1.68,-2.66,0.07,21.8041,-50.0996,-18.7092,1023.39
112208,0.425634,9.82783,0,1.68,-2.38,-0.14,21.6879,-50.8089,-18.9013,1023.39
112214,0.473458,9.83261,-0.0430416,1.54,-2.31,-0.21,21.5426,-50.3772,-19.4776,1023.4
112220,0.444763,9.81349,-0.0143472,1.75,-2.38,0.35,21.8622,-50.9631,-20.113,1023.4
112226,0.416069,9.86609,-0.0334768,1.47,-2.66,-0.21,21.8622,-49.6987,-18.3989,1023.4
112232,0.420851,9.82305,-0.023912,1.12,-2.45,0.35,21.746,-49.6062,-19.5515,1023.39
112238,0.444763,9.82783,-0.0430416,1.19,-2.31,0,21.5426,-50.3772,-19.0343,1023.39
112244,0.449546,9.8374,-0.0047824,1.75,-2.73,0.07,21.5426,-50.994,-18.4285,1023.37
112250,0.454328,9.79914,-0.0430416,1.4,-2.59,0,21.8332,-49.637,-19.6697,1023.37
112256,0.449546,9.82305,-0.0430416,1.61,-2.66,0.56,21.6298,-50.4389,-20.2608,1023.38
112262,0.406504,9.83261,-0.0430416,1.61,-2.52,0,21.252,-50.408,-19.3594,1023.38
112268,0.430416,9.82305,-0.0526064,1.54,-2.8,0,21.3392,-49.6062,-20.3199,1023.35
112274,0.468675,9.84696,-0.0860832,1.75,-2.45,0.35,21.1939,-49.2361,-19.4333,1023.35
112280,0.416069,9.8087,-0.0621712,1.12,-2.52,0.21,21.223,-49.9454,-19.3742,1023.36
112286,0.396939,9.81349,-0.0286944,1.47,-2.59,0.28,21.7169,-50.0688,-18,1023.36
112292,0.396939,9.81827,-0.0621712,1.54,-2.87,0.21,21.3101,-49.8837,-19.7436,1023.36
112298,0.435198,9.84696,-0.071736,1.96,-2.45,0.56,21.7169,-50.1613,-19.1821,1023.35
112304,0.449546,9.83261,-0.0334768,1.61,-2.52,0.35,21.252,-50.8398,-18.6501,1023.35
112310,0.416069,9.84218,-0.023912,1.54,-2.8,-0.35,21.0196,-49.6987,-19.0491,1023.37
112316,0.435198,9.84218,-0.071736,1.89,-2.31,0.28,21.4264,-50.0688,-19.6254,1023.37
112322,0.449546,9.81349,-0.0526064,1.75,-2.94,0.21,21.3392,-50.6239,-19.6697,1023.38
112328,0.439981,9.82783,-0.023912,1.26,-2.45,0.14,22.0366,-50.408,-19.3299,1023.38
112334,0.439981,9.85653,-0.0382592,1.75,-2.87,-0.14,21.3973,-48.9586,-18.5024,1023.39
112340,0.425634,9.80392,-0.0143472,1.47,-2.8,0.21,21.4845,-50.3155,-18.0739,1023.39
112346,0.425634,9.82305,-0.0430416,1.89,-2.87,0.14,21.1939,-50.6547,-18.6945,1023.39
112352,0.430416,9.82305,-0.0621712,1.12,-2.66,0.28,21.9203,-50.0379,-19.2412,1023.37
112358,0.416069,9.81827,-0.0573888,1.61,-2.66,0,21.8041,-50.0071,-17.2907,1023.37
112364,0.430416,9.82305,-0.0334768,1.54,-2.52,0.21,20.6418,-51.0865,-19.6993,1023.37
112370,0.463893,9.85174,-0.047824,1.54,-2.8,0.28,21.4264,-49.2669,-18.3546,1023.37
112376,0.439981,9.8374,-0.0621712,1.75,-2.87,0.21,21.3392,-49.3903,-17.9556,1023.36
112382,0.416069,9.83261,-0.0430416,1.68,-2.73,0.14,21.8332,-50.223,-17.6897,1023.36
112388,0.468675,9.82783,-0.0621712,1.75,-2.38,0.07,21.3101,-50.4697,-19.3742,1023.38
112394,0.401722,9.82783,-0.047824,1.4,-2.38,0.14,21.7169,-50.2847,-19.9061,1023.38
112400,0.449546,9.84218,-0.0765184,1.82,-2.73,0.28,21.5717,-49.8837,-18.0591,1023.38
112406,0.420851,9.8374,-0.0669536,1.54,-2.94,0.14,21.6007,-49.8529,-19.3594,1023.36
112412,0.468675,9.84218,-0.095648,1.12,-2.45,0.35,21.6298,-49.8529,-18.7684,1023.36
112418,0.430416,9.80392,-0.0430416,1.61,-2.52,0.28,21.2811,-50.2538,-18.2955,1023.35
112424,0.430416,9.81349,-0.0813008,1.61,-2.8,0.14,21.4264,-50.2847,-18.2955,1023.35
112430,0.430416,9.79436,-0.0334768,1.26,-2.31,0.42,21.3683,-49.9146,-17.8965,1023.33
112436,0.45911,9.82305,-0.0621712,1.4,-2.8,-0.21,21.223,-49.5137,-18.5172,1023.33
112442,0.473458,9.82305,-0.0573888,1.47,-2.73,0,21.3973,-50.4697,-18.6945,1023.31
112448,0.444763,9.79436,-0.0334768,1.26,-2.45,0.14,21.3101,-50.0071,-19.4628,1023.31
112454,0.463893,9.83261,-0.0430416,1.19,-2.31,0.28,21.3973,-50.1305,-18.6206,1023.39
112460,0.454328,9.84218,-0.0860832,1.33,-2.31,-0.21,21.9494,-50.1921,-17.734,1023.39
112466,0.439981,9.82783,-0.0669536,1.19,-2.38,-0.21,21.8622,-50.2538,-18.5172,1023.39
112472,0.430416,9.80392,-0.0286944,1.61,-2.31,0.49,22.4434,-49.637,-18.2216,1023.37
112478,0.444763,9.8374,-0.0382592,1.26,-2.59,0.35,22.1818,-50.5005,-20.1278,1023.37
112484,0.449546,9.82305,-0.071736,1.47,-2.45,0,22.0656,-49.8529,-17.6601,1023.35
112490,0.463893,9.78479,-0.0621712,1.68,-2.73,0.14,20.8162,-49.4828,-19.4628,1023.35
112496,0.430416,9.79436,-0.0526064,1.54,-2.66,0.28,21.746,-48.1876,-19.2708,1023.37
112502,0.420851,9.79914,-0.0526064,1.4,-2.24,0.07,22.3852,-49.7604,-18.7831,1023.37
112508,0.444763,9.84218,-0.0765184,1.26,-2.38,-0.07,22.3271,-49.1744,-19.4628,1023.38
112514,0.439981,9.79436,-0.0621712,1.96,-2.52,-0.28,21.9785,-49.8837,-19.1821,1023.38
112520,0.435198,9.81827,-0.0286944,1.47,-2.73,0.28,21.6007,-50.1921,-17.2759,1023.38
112526,0.449546,9.82305,-0.071736,1.4,-2.73,0.63,22.0075,-50.223,-17.9409,1023.36
112532,0.425634,9.84218,-0.0526064,1.54,-2.31,0.07,21.3101,-50.223,-18.1773,1023.36
112538,0.449546,9.85174,-0.0621712,1.75,-2.59,0,21.1067,-50.7781,-18.6206,1023.37
112544,0.439981,9.84696,-0.0669536,1.68,-2.52,0.28,21.6879,-50.8089,-18.1182,1023.37
112550,0.435198,9.82305,-0.0908656,1.47,-2.66,0.14,22.0656,-49.9454,-18.9604,1023.37
112556,0.439981,9.82783,-0.0382592,1.75,-2.52,-0.21,21.7169,-49.9146,-18.9752,1023.37
112562,0.439981,9.8374,-0.0334768,1.4,-2.38,0.28,21.9203,-50.2538,-18.5763,1023.39
112568,0.430416,9.80392,-0.0382592,1.33,-2.45,-0.07,21.3973,-51.8883,-18.9161,1023.39
112574,0.435198,9.82783,-0.0430416,1.68,-2.87,0.07,21.3101,-51.179,-18.458,1023.39
112580,0.45911,9.86609,-0.071736,1.68,-2.38,0,21.7169,-50.7781,-19.8175,1023.38
112586,0.47824,9.84218,-0.0334768,1.54,-2.59,-0.07,22.1237,-50.1613,-18.7684,1023.38
112592,0.435198,9.80392,-0.023912,1.4,-2.24,-0.07,21.8041,-50.2847,-19.8027,1023.35
112598,0.439981,9.83261,-0.0573888,1.4,-2.38,0,22.0075,-50.4389,-19.4185,1023.35
112604,0.463893,9.83261,-0.0860832,1.61,-2.87,0.42,22.0366,-50.9631,-18.5615,1023.35
112610,0.411286,9.85653,-0.023912,1.33,-2.94,0.07,22.3562,-49.4828,-20.2164,1023.35
112616,0.430416,9.81349,-0.0526064,1.54,-2.59,0.14,21.8622,-50.223,-19.6697,1023.38
112622,0.425634,9.84696,-0.0573888,1.75,-2.52,0.14,21.9494,-50.3463,-19.1969,1023.38
112628,0.444763,9.81827,-0.0286944,1.68,-2.52,0.28,21.7169,-50.3463,-18.4728,1023.37
112634,0.430416,9.84696,-0.0334768,1.4,-2.38,-0.07,21.0486,-50.4389,-19.7879,1023.37
112640,0.454328,9.84218,-0.023912,1.68,-2.52,0.49,21.6879,-51.3949,-19.4924,1023.37
112646,0.425634,9.81827,-0.0526064,1.68,-2.73,0,21.5717,-50.8089,-18.5467,1023.35
112652,0.411286,9.79436,-0.023912,1.68,-2.87,0.07,21.8332,-49.9454,-20.0835,1023.35
112658,0.473458,9.80392,-0.0382592,1.75,-2.73,0.56,21.3683,-50.9015,-19.1525,1023.36
112664,0.454328,9.81827,-0.0621712,1.61,-3.15,0.42,22.2981,-50.6547,-18.8866,1023.36
112670,0.425634,9.81349,-0.0573888,1.75,-2.38,0.35,21.3392,-50.1613,-19.7731,1023.39
112676,0.387374,9.79914,-0.0621712,2.03,-2.38,0.28,21.3392,-49.9146,-18.9752,1023.39
112682,0.430416,9.81827,-0.0286944,1.61,-2.24,0.07,21.252,-50.0379,-19.8027,1023.38
112688,0.444763,9.84218,-0.0669536,1.89,-2.94,0.07,21.4845,-50.2847,-20.4381,1023.38
112694,0.454328,9.85174,-0.0908656,1.82,-3.08,-0.42,21.8913,-49.7912,-19.7436,1023.38
112700,0.483022,9.85653,-0.0573888,2.1,-2.73,-0.14,22.3852,-50.2538,-18.8422,1023.34
112706,0.401722,9.80392,-0.0573888,1.68,-2.17,-0.21,21.8041,-50.8398,-18.857,1023.34
112712,0.420851,9.80392,-0.0382592,1.89,-3.01,-0.07,21.0486,-49.9454,-19.3151,1023.36
112718,0.439981,9.82783,-0.0669536,1.54,-3.15,0.07,22.0075,-50.3772,-19.2412,1023.36
112724,0.420851,9.84218,-0.0430416,1.89,-2.8,-0.14,22.0947,-50.0379,-18.8718,1023.37
112730,0.430416,9.85653,-0.0143472,1.54,-2.87,-0.14,21.3973,-49.7912,-18.3546,1023.37
112736,0.463893,9.82783,-0.0286944,1.96,-3.01,0.07,21.8332,-50.0071,-18.5024,1023.36
112742,0.420851,9.79914,-0.023912,1.61,-2.73,-0.14,21.5717,-50.8089,-18.4876,1023.36
112748,0.45911,9.83261,-0.0765184,1.54,-2.66,0.07,21.746,-50.0071,-18.266,1023.36
112754,0.416069,9.8374,-0.0430416,1.68,-2.52,0.28,21.5135,-49.5445,-18.857,1023.34
112760,0.420851,9.78957,-0.0286944,1.47,-2.45,-0.14,22.269,-50.5314,-17.7192,1023.34
112766,0.420851,9.82305,-0.0430416,1.61,-2.59,0.14,21.5135,-50.2538,-17.9704,1023.35
112772,0.435198,9.83261,-0.0765184,1.68,-2.52,0,21.6007,-49.8221,-18.2364,1023.35
112778,0.435198,9.81349,-0.0430416,1.33,-2.66,0.07,21.8913,-50.0379,-19.8618,1023.37
112784,0.435198,9.84218,-0.0286944,1.75,-3.08,-0.14,21.746,-51.2407,-18.591,1023.37
112790,0.47824,9.85653,-0.0621712,1.54,-3.01,0.21,21.8041,-50.2538,-18.6501,1023.37
112796,0.473458,9.83261,-0.0621712,1.47,-2.1,0.28,21.6298,-48.9277,-19.3151,1023.37
112802,0.454328,9.82783,-0.0430416,1.19,-2.59,0.14,21.4845,-50.5931,-18.2068,1023.37
112808,0.406504,9.81827,-0.0286944,1.54,-2.66,-0.21,21.8913,-49.5753,-19.4333,1023.37
112814,0.430416,9.8374,-0.0095648,1.26,-2.8,-0.21,21.6588,-50.3463,-18.1182,1023.37
112820,0.444763,9.82783,-0.0286944,1.47,-2.52,-0.14,20.8452,-50.1613,-19.1525,1023.34
112826,0.435198,9.81827,-0.0526064,1.26,-2.52,0.28,21.7751,-50.3155,-17.6453,1023.34
112832,0.463893,9.82305,-0.0526064,1.33,-2.31,0.07,20.9905,-49.7912,-17.7045,1023.36
112838,0.435198,9.8087,-0.0047824,1.12,-2.59,0.14,21.6588,-50.4389,-19.3594,1023.36
112844,0.406504,9.82783,-0.0573888,1.4,-2.38,0.21,21.6879,-50.5622,-17.9113,1023.36
112850,0.416069,9.84696,-0.047824,1.82,-2.38,0.35,22.0075,-50.1613,-18.458,1023.36
112856,0.425634,9.8087,-0.0669536,1.54,-2.1,-0.07,21.5426,-50.5314,-18.9457,1023.34
112862,0.435198,9.85174,-0.0382592,1.4,-2.66,-0.21,21.252,-50.8706,-18.7092,1023.34
112868,0.449546,9.8374,-0.047824,1.33,-2.73,0.56,21.1067,-50.5931,-18.9161,1023.34
112874,0.420851,9.86131,-0.0334768,1.05,-2.38,0.56,20.0607,-51.2099,-18.1182,1023.35
112880,0.435198,9.82783,-0.0526064,1.61,-2.38,0,21.8913,-50.1921,-18.2955,1023.35
112886,0.449546,9.81827,-0.0286944,1.4,-2.45,-0.49,21.6588,-50.3463,-18.7684,1023.38
112892,0.420851,9.82783,-0.0143472,1.33,-2.52,0.56,21.6298,-49.8221,-18.591,1023.38
112898,0.430416,9.84218,-0.071736,1.4,-2.38,0.21,21.8622,-50.1921,-18.4285,1023.35
112904,0.444763,9.79914,-0.0143472,1.54,-1.82,0.21,21.9203,-50.5314,-18.7831,1023.35
112910,0.430416,9.8374,-0.0191296,1.12,-2.17,-0.07,22.5596,-49.637,-19.5811,1023.35
112916,0.439981,9.8374,-0.0334768,1.75,-2.73,-0.07,21.4554,-49.5137,-19.1082,1023.35
112922,0.430416,9.81827,-0.0095648,1.33,-2.17,0.21,21.6298,-51.0557,-17.6749,1023.35
112928,0.435198,9.79436,-0.0573888,1.82,-2.45,0.28,21.1939,-50.1305,-19.1378,1023.35
112934,0.444763,9.83261,-0.0286944,1.12,-2.03,-0.07,21.6879,-49.4212,-20.5415,1023.35
112940,0.430416,9.84218,-0.0334768,1.47,-2.73,0,22.3271,-50.3463,-18.9752,1023.37
112946,0.416069,9.82305,-0.023912,1.4,-2.45,0.35,21.9785,-50.3155,-18.3103,1023.37
112952,0.473458,9.81827,-0.0191296,1.54,-2.1,0.21,21.252,-48.7118,-19.0048,1023.38
112958,0.396939,9.82305,-0.023912,1.61,-2.59,0.14,21.8622,-49.7295,-19.3299,1023.38
112964,0.420851,9.83261,-0.0143472,1.61,-2.45,0.28,21.8332,-50.0071,-19.4333,1023.4
112970,0.439981,9.8374,-0.0191296,1.26,-2.38,0.21,21.9785,-50.408,-19.3742,1023.4
112976,0.439981,9.8087,-0.047824,1.47,-2.31,0.35,21.4264,-49.7604,-19.3742,1023.37
112982,0.430416,9.82305,-0.0430416,1.33,-2.31,0.35,21.5426,-49.9146,-18.0886,1023.37
112988,0.449546,9.84218,-0.047824,1.47,-2.59,0.35,21.9203,-50.223,-18.4728,1023.37
112994,0.439981,9.81827,-0.0143472,1.26,-2.45,0.35,21.7751,-49.452,-19.4628,1023.35
113000,0.430416,9.78957,-0.0095648,1.26,-2.24,0.14,22.1528,-50.7473,-18.4728,1023.35
113006,0.444763,9.81827,-0.0047824,1.68,-2.45,0.07,21.8622,-49.9763,-18.7536,1023.35
113012,0.435198,9.82305,-0.0765184,1.68,-2.24,-0.28,20.729,-49.5753,-19.3446,1023.35
113018,0.420851,9.8374,-0.0621712,1.61,-2.45,0.21,21.6879,-50.0996,-20.3199,1023.36
113024,0.411286,9.81827,-0.0573888,1.61,-2.73,-0.21,21.3973,-50.408,-19.8914,1023.36
113030,0.439981,9.81349,0,1.75,-2.73,0.07,20.9324,-49.8837,-20.0982,1023.36
113036,0.47824,9.81827,-0.0191296,1.68,-2.73,0.07,21.6007,-50.6856,-19.6106,1023.36
113042,0.463893,9.83261,-0.0573888,1.47,-2.31,0.35,22.0366,-50.5622,-18.7388,1023.36
113048,0.444763,9.82783,-0.0908656,1.82,-2.31,0.14,21.8041,-49.4828,-19.5515,1023.35
113054,0.387374,9.83261,-0.0430416,1.47,-2.52,0.07,21.9203,-49.637,-20.1278,1023.35
113060,0.401722,9.82783,-0.0286944,1.54,-2.1,0.14,21.3101,-50.1613,-19.7288,1023.35
113066,0.416069,9.79914,-0.0382592,2.1,-2.52,0.35,20.9905,-50.1921,-17.4237,1023.35
113072,0.487805,9.85653,-0.105213,1.47,-2.31,0,21.6588,-49.9146,-19.8766,1023.35
113078,0.416069,9.8374,-0.0765184,1.61,-2.52,-0.14,22.0075,-49.8529,-19.0343,1023.35
113084,0.430416,9.77523,-0.0047824,1.47,-2.8,0.56,22.5015,-50.6856,-20.3347,1023.39
113090,0.425634,9.83261,-0.047824,1.68,-2.45,0.21,21.5717,-50.2538,-19.6845,1023.39
113096,0.45911,9.85174,-0.0765184,1.68,-2.94,0,21.4264,-50.2538,-18,1023.39
113102,0.49737,9.81349,-0.0526064,1.05,-2.38,0.14,21.8332,-50.9323,-17.9409,1023.38
113108,0.416069,9.8087,-0.0382592,1.47,-2.66,0.14,21.6007,-50.0688,-19.5663,1023.38
113114,0.411286,9.82305,-0.0191296,1.47,-2.8,0.07,21.3973,-49.5137,-19.4037,1023.37
113120,0.430416,9.86131,-0.071736,2.03,-2.73,0.21,22.1237,-50.1921,-19.123,1023.37
113126,0.430416,9.83261,-0.0573888,1.33,-2.73,-0.21,21.5426,-50.3463,-18.6206,1023.39
113132,0.454328,9.8087,-0.0669536,1.26,-2.38,0.21,21.252,-49.6679,-19.6845,1023.39
113138,0.392157,9.80392,-0.0430416,1.4,-2.38,0.49,21.746,-50.223,-18.0739,1023.36
113144,0.406504,9.83261,-0.0526064,1.54,-2.45,-0.49,21.9494,-50.8089,-18.7092,1023.36
113150,0.454328,9.84696,-0.047824,1.4,-3.01,0.21,22.1818,-49.452,-18.0295,1023.38
113156,0.425634,9.85653,-0.0573888,1.47,-3.22,0.28,21.5717,-50.5005,-19.3742,1023.38
113162,0.420851,9.83261,-0.0191296,1.54,-2.45,0.49,21.6588,-50.3463,-18.0886,1023.38
113168,0.425634,9.82783,-0.0430416,1.54,-2.38,-0.07,20.9905,-50.1613,-19.3594,1023.37
113174,0.454328,9.82783,-0.0191296,1.68,-2.66,0.14,21.4264,-49.6062,-19.9948,1023.37
113180,0.425634,9.83261,-0.0526064,1.61,-2.59,0,21.5717,-49.4828,-18.1921,1023.35
113186,0.425634,9.81827,-0.0669536,1.61,-3.08,0.14,21.2811,-50.7473,-19.2116,1023.35
113192,0.449546,9.8374,-0.0526064,1.33,-2.87,0.63,21.1649,-49.5445,-19.9357,1023.37
113198,0.406504,9.82783,-0.047824,1.89,-2.94,0,21.6298,-49.8529,-18.6945,1023.37
113204,0.435198,9.8374,-0.0813008,1.19,-2.45,0,21.9203,-50.6239,-17.8522,1023.37
113210,0.430416,9.81827,-0.0382592,1.54,-2.31,0.7,22.1237,-49.7604,-18.2955,1023.37
113216,0.420851,9.81827,-0.0573888,1.75,-2.73,0.35,21.9785,-50.1305,-18.8718,1023.37
113222,0.430416,9.8087,-0.0813008,1.54,-2.73,-0.07,22.0366,-50.2538,-18.8718,1023.36
113228,0.430416,9.82783,-0.0669536,1.68,-2.38,0.07,21.6588,-49.5753,-19.5958,1023.36
113234,0.392157,9.79436,-0.0621712,1.33,-2.45,0.14,22.0656,-50.0688,-19.3742,1023.38
113240,0.435198,9.81827,-0.0334768,1.4,-2.59,0.63,22.1528,-50.5005,-18.133,1023.38
113246,0.430416,9.83261,-0.0765184,1.33,-2.45,0.07,22.1237,-49.7912,-18.6945,1023.37
113252,0.449546,9.8374,-0.0765184,1.47,-2.52,0.07,22.0947,-50.1921,-19.4776,1023.37
113258,0.435198,9.85653,-0.047824,1.47,-2.45,0.35,22.0075,-50.3155,-19.0343,1023.37
113264,0.425634,9.83261,-0.0382592,1.61,-2.17,0.07,21.7751,-50.2847,-18.7536,1023.37
113270,0.435198,9.85174,-0.0669536,1.75,-2.8,-0.07,21.6879,-50.0379,-18.0148,1023.37
113276,0.416069,9.8374,-0.0573888,1.75,-2.87,0.07,20.9615,-49.7604,-20.4529,1023.36
113282,0.439981,9.8087,-0.0143472,1.54,-2.66,0.28,21.2811,-50.223,-18.9604,1023.36
113288,0.430416,9.82305,-0.0573888,1.68,-2.94,-0.21,21.0777,-49.2669,-19.2116,1023.37
113294,0.454328,9.82783,-0.0382592,1.54,-2.52,0.21,20.8162,-49.3903,-19.0343,1023.37
113300,0.411286,9.81349,-0.0286944,1.61,-2.66,0.35,21.1358,-50.4389,-19.2412,1023.38
113306,0.392157,9.81827,-0.047824,1.19,-2.45,0.14,21.6007,-50.1613,-18.133,1023.38
113312,0.430416,9.81349,-0.0860832,1.47,-2.52,0.28,21.8622,-49.5445,-18.857,1023.38
113318,0.430416,9.82783,-0.0430416,1.47,-2.73,0.28,21.5717,-50.3772,-19.4037,1023.38
113324,0.425634,9.82305,-0.0573888,1.96,-2.59,-0.07,22.2109,-50.6239,-18.857,1023.38
113330,0.463893,9.83261,-0.071736,1.68,-2.38,0.42,21.3683,-49.2053,-19.3151,1023.38
113336,0.425634,9.8374,-0.0430416,1.4,-2.66,0.56,22.0075,-50.0688,-19.2855,1023.38
113342,0.435198,9.87087,-0.095648,1.61,-2.38,-0.21,21.8332,-50.223,-18.724,1023.36
113348,0.420851,9.8374,-0.0908656,1.19,-1.96,0,22.1237,-49.3286,-19.3594,1023.36
113354,0.444763,9.8087,-0.0382592,1.47,-2.45,0.21,22.0656,-49.637,-19.2855,1023.34
113360,0.406504,9.79914,-0.0095648,1.68,-3.08,0.28,22.5015,-49.8221,-19.9357,1023.34
113366,0.416069,9.81827,-0.0430416,1.61,-2.66,-0.07,22.5305,-49.8221,-18.2955,1023.38
113372,0.430416,9.81349,-0.0430416,1.68,-2.52,0.21,21.9203,-49.2669,-19.0934,1023.38
113378,0.416069,9.81827,-0.0526064,1.05,-2.73,-0.35,21.5135,-49.3595,-19.4628,1023.37
113384,0.425634,9.8087,-0.0573888,1.61,-2.87,0.63,21.6298,-50.5005,-18.3546,1023.37
113390,0.416069,9.84696,-0.0573888,1.54,-2.8,0.49,21.8913,-49.1744,-19.1378,1023.37
113396,0.439981,9.8374,-0.0621712,1.47,-2.45,-0.21,22.2109,-49.6062,-18.8127,1023.35
113402,0.416069,9.81349,-0.0286944,1.61,-2.52,0.28,22.1528,-50.0688,-18.2364,1023.35
113408,0.430416,9.82783,-0.0430416,1.54,-2.8,0.49,22.0656,-49.5137,-19.9948,1023.35
113414,0.444763,9.8374,-0.071736,1.89,-3.01,0.14,22.1818,-49.1744,-20.2903,1023.35
113420,0.411286,9.86131,-0.0813008,1.61,-2.52,-0.07,22.1528,-50.3772,-18.4137,1023.34
113426,0.435198,9.83261,-0.0621712,1.4,-2.8,-0.07,22.2981,-50.3155,-19.0196,1023.34
113432,0.416069,9.85174,-0.0669536,1.54,-2.87,0.14,20.3222,-50.0071,-18.458,1023.38
113438,0.439981,9.82783,-0.0765184,1.89,-2.73,17.57,21.9785,-50.6239,-19.0048,1023.38
113444,0.416069,9.84218,-0.0430416,1.26,-2.38,0.07,22.269,-50.5314,-18.857,1023.38
113450,0.416069,9.8087,-0.0526064,1.47,-2.59,-0.14,21.7169,-49.0819,-18.3251,1023.35
113456,0.420851,9.83261,-0.0526064,1.68,-2.73,0.14,22.3562,-50.1613,-19.5515,1023.35
113462,0.420851,9.8374,-0.0334768,1.54,-2.66,0.28,21.4554,-50.994,-17.9852,1023.35
113468,0.416069,9.82305,-0.0669536,1.54,-2.66,-0.14,21.4554,-49.2053,-18.6797,1023.35
113474,0.420851,9.82305,-0.0621712,1.68,-2.73,0.35,21.9494,-49.6987,-19.6697,1023.38
113480,0.416069,9.82783,-0.0143472,1.75,-2.45,0,21.3101,-50.4697,-18.7979,1023.38
113486,0.435198,9.81349,-0.0382592,1.61,-2.45,-0.14,21.8913,-50.2847,-19.1821,1023.34
113492,0.439981,9.81349,-0.071736,1.33,-2.66,0.14,21.4554,-49.1436,-19.3003,1023.34
113498,0.454328,9.8374,-0.0621712,1.47,-2.66,0.28,21.6007,-49.8221,-17.8079,1023.34
113504,0.45911,9.83261,-0.0573888,1.61,-2.52,0.28,21.7751,-50.3463,-18.133,1023.35
113510,0.487805,9.81349,-0.0669536,1.4,-2.45,0.21,21.5717,-49.5137,-18.1921,1023.35
113516,0.444763,9.84218,-0.0382592,1.33,-2.45,0.77,21.3392,-49.9763,-18.99,1023.38
113522,0.444763,9.78957,-0.0095648,2.1,-2.52,0.07,22.1818,-50.3772,-17.3941,1023.38
113528,0.439981,9.82305,-0.0621712,1.68,-2.87,-0.35,21.3392,-49.6987,-19.4776,1023.32
113534,0.430416,9.8374,-0.0573888,1.33,-2.66,0.35,21.1358,-49.3595,-19.4481,1023.32
113540,0.435198,9.8374,-0.0573888,1.75,-2.66,0.56,21.0196,-50.5931,-19.7731,1023.35
113546,0.430416,9.81827,-0.0191296,1.33,-1.96,0.14,21.5717,-49.7604,-17.6897,1023.35
113552,0.435198,9.84218,-0.0621712,1.19,-2.24,0.28,21.5135,-50.0379,-18.0443,1023.37
113558,0.425634,9.83261,-0.047824,1.75,-2.45,0,20.9615,-50.3772,-18.1034,1023.37
113564,0.401722,9.82783,-0.0669536,1.75,-2.52,0.28,21.5717,-50.5005,-17.8079,1023.37
113570,0.45911,9.81349,-0.023912,1.47,-2.59,0.07,21.8913,-50.7164,-18.2807,1023.33
113576,0.411286,9.81349,-0.0669536,1.68,-2.03,0.42,21.3101,-50.408,-18.4876,1023.33
113582,0.454328,9.82783,-0.0286944,1.47,-2.87,0.42,21.5717,-50.0996,-17.3203,1023.35
113588,0.430416,9.80392,-0.0621712,1.47,-3.08,0.35,21.3973,-49.8221,-18.3103,1023.35
113594,0.454328,9.82305,-0.0382592,1.12,-2.52,0.42,21.1649,-49.8837,-18.5615,1023.39
113600,0.411286,9.82783,-0.0286944,2.03,-2.1,0.21,22.0656,-50.3155,-17.3498,1023.39
113606,0.435198,9.8374,-0.047824,1.4,-2.45,0.49,22.5015,-50.5005,-18.1477,1023.39
113612,0.439981,9.82305,-0.047824,1.75,-2.73,0.07,21.8332,-49.6062,-19.0787,1023.39
113618,0.444763,9.83261,-0.0621712,1.54,-2.66,0.42,21.5717,-50.0379,-18.0148,1023.39
113624,0.454328,9.81827,-0.0669536,1.61,-2.66,0.07,21.5717,-49.7295,-17.8818,1023.37
113630,0.411286,9.81349,-0.0382592,1.54,-2.59,-0.14,21.6007,-49.8529,-19.4185,1023.37
113636,0.463893,9.8374,-0.0669536,1.61,-2.03,0.28,20.8162,-50.0996,-19.9652,1023.37
113642,0.430416,9.81827,-0.0334768,1.4,-2.45,0.07,21.5426,-50.5005,-19.3151,1023.37
113648,0.435198,9.82783,-0.0334768,1.54,-3.01,0.14,21.3683,-50.6239,-20.5267,1023.36
113654,0.47824,9.82783,-0.0669536,1.68,-2.66,0.14,22.1818,-49.452,-20.2903,1023.36
113660,0.449546,9.82305,-0.0430416,1.33,-2.38,0.28,21.9494,-50.5931,-19.1525,1023.37
113666,0.430416,9.83261,-0.0430416,1.54,-2.31,0.21,21.223,-49.6987,-18.8275,1023.37
113672,0.411286,9.81349,-0.0382592,1.47,-2.73,-0.14,21.5135,-50.0996,-19.3742,1023.37
113678,0.430416,9.8374,-0.047824,1.61,-2.59,0.7,20.9905,-49.6062,-18.7979,1023.35
113684,0.416069,9.82783,-0.0334768,1.68,-2.66,0.07,21.8913,-50.6547,-18.0886,1023.35
113690,0.444763,9.82305,-0.0621712,1.61,-2.8,0,22.1528,-49.7912,-19.8027,1023.36
113696,0.454328,9.82305,-0.0334768,1.05,-3.08,0.42,21.4264,-49.8529,-19.0048,1023.36
113702,0.454328,9.85174,-0.0669536,1.33,-2.24,0.21,21.3392,-50.0379,-18.724,1023.34
113708,0.454328,9.83261,-0.0669536,1.47,-2.24,17.71,22.1818,-49.5137,-19.0048,1023.34
113714,0.435198,9.81349,-0.047824,1.54,-2.24,0.14,22.3852,-49.2053,-20.113,1023.35
113720,0.420851,9.82783,-0.0382592,1.68,-2.52,-0.21,22.3271,-50.4697,-18.5615,1023.35
113726,0.463893,9.83261,-0.0860832,1.4,-2.52,0.42,22.4143,-49.7295,-18.3989,1023.35
113732,0.454328,9.8087,-0.0573888,1.54,-2.17,0.42,21.9203,-49.4828,-18.5763,1023.35
113738,0.454328,9.82783,-0.0621712,1.47,-2.31,-0.28,22.1237,-50.2538,-18.7831,1023.35
113744,0.45911,9.8374,-0.023912,1.75,-2.59,0,21.7751,-49.5445,-18.0295,1023.35
113750,0.449546,9.83261,-0.0765184,1.47,-2.24,0.49,21.4264,-50.1921,-19.0048,1023.35
113756,0.430416,9.85653,-0.0860832,1.4,-2.38,-0.07,21.3392,-50.0688,-19.3003,1023.32
113762,0.401722,9.82783,-0.0334768,1.54,-2.73,-0.35,21.4264,-50.6239,-18.6501,1023.32
113768,0.435198,9.81349,-0.0286944,1.61,-2.24,0.49,21.6298,-49.5445,-19.6697,1023.37
113774,0.444763,9.82783,-0.047824,1.4,-2.31,0.28,21.4264,-49.452,-19.0639,1023.37
113780,0.420851,9.81827,-0.0573888,1.47,-2.1,0,22.1237,-49.6679,-18.2807,1023.36
113786,0.439981,9.81349,-0.0621712,1.54,-2.59,0.14,21.6007,-50.5314,-18.0148,1023.36
113792,0.416069,9.81349,-0.0286944,1.68,-2.45,0.07,21.6879,-49.4212,-18.9013,1023.36
113798,0.425634,9.78957,-0.0286944,1.68,-2.73,0.28,21.9494,-50.408,-17.5419,1023.36
113804,0.425634,9.84696,-0.0430416,1.26,-2.52,0.42,22.3271,-51.0248,-18.6797,1023.36
113810,0.473458,9.83261,-0.0813008,1.26,-2.66,0.35,22.4434,-49.8221,-18.458,1023.37
113816,0.416069,9.82305,-0.0286944,1.47,-2.45,0.14,22.2109,-49.8221,-19.123,1023.37
113822,0.411286,9.82305,-0.0382592,1.47,-2.73,0.56,21.3392,-50.3155,-18.0295,1023.37
113828,0.435198,9.84218,-0.0334768,1.75,-2.52,0.28,21.6879,-50.5314,-16.744,1023.37
113834,0.444763,9.85174,-0.0621712,1.4,-2.31,-0.21,22.1528,-49.3903,-17.4533,1023.37
113840,0.435198,9.79914,-0.0191296,1.19,-2.45,0.14,21.5135,-50.8089,-18.3694,1023.37
113846,0.439981,9.82305,-0.023912,1.68,-2.03,0,22.0075,-50.8089,-18.3398,1023.37
113852,0.439981,9.8087,-0.0286944,1.54,-2.03,0.49,21.6588,-49.637,-19.389,1023.36
113858,0.416069,9.82305,0.0047824,1.68,-2.52,0.35,21.4264,-50.223,-18.2512,1023.36
113864,0.411286,9.82783,-0.0430416,1.12,-2.73,0,21.9203,-50.223,-18.266,1023.36
113870,0.454328,9.84218,-0.0382592,1.47,-2.66,0.14,21.5717,-49.3286,-18.7536,1023.36
113876,0.439981,9.79436,-0.0860832,1.33,-2.59,0.35,21.8041,-49.5445,-19.123,1023.36
113882,0.439981,9.8087,-0.0430416,1.26,-2.38,0.49,21.3101,-50.5005,-19.1082,1023.36
113888,0.435198,9.82783,-0.0286944,1.47,-2.38,0.35,21.1067,-49.8529,-19.4924,1023.37
113894,0.444763,9.84696,-0.0860832,1.4,-2.38,0.14,21.3392,-49.3903,-20.5415,1023.37
113900,0.430416,9.8087,-0.0526064,1.4,-2.52,0.28,21.1939,-50.9015,-19.0196,1023.39
113906,0.420851,9.79436,0.0095648,1.4,-2.8,-0.35,21.6007,-49.5753,-17.6601,1023.39
113912,0.473458,9.79436,-0.0143472,1.54,-2.59,0.14,21.0196,-49.637,-18.6797,1023.39
113918,0.430416,9.85174,-0.0430416,1.47,-2.73,0,21.1358,-50.4389,-18.6206,1023.38
113924,0.425634,9.82305,-0.047824,1.47,-2.59,0.07,21.8622,-50.223,-18.1034,1023.38
113930,0.406504,9.81827,-0.023912,1.4,-2.59,0.07,21.6007,-48.9894,-18.0295,1023.37
113936,0.416069,9.82783,0.0095648,1.61,-2.59,0.35,21.2811,-49.6679,-18.3546,1023.37
113942,0.439981,9.8374,-0.0334768,1.54,-2.52,0.28,22.0366,-50.1613,-17.2021,1023.35
113948,0.454328,9.83261,-0.0621712,1.05,-2.31,-0.07,21.8913,-49.8529,-19.0639,1023.35
113954,0.425634,9.79914,-0.0191296,1.26,-2.52,-0.07,22.0075,-49.3286,-18.458,1023.36
113960,0.420851,9.82305,-0.047824,1.75,-2.73,0.14,21.6298,-49.8529,-18.7536,1023.36
113966,0.420851,9.8374,-0.047824,1.47,-2.59,0.21,21.3683,-49.7604,-17.5715,1023.36
113972,0.444763,9.84696,-0.0526064,1.19,-2.24,0.14,21.1939,-49.3903,-19.6106,1023.34
113978,0.454328,9.81827,-0.0526064,1.47,-2.24,0.14,21.3392,-49.5137,-20.3642,1023.34
113984,0.406504,9.84218,-0.0143472,1.68,-2.59,0.42,22.0366,-50.223,-19.0639,1023.34
113990,0.449546,9.8374,-0.0526064,1.54,-2.45,0.28,21.4845,-49.7912,-19.1378,1023.34
113996,0.449546,9.82783,-0.0573888,1.61,-2.45,0.14,21.7751,-49.6679,-18.7684,1023.36
114002,0.411286,9.84218,-0.0191296,1.61,-2.17,0.35,20.9905,-49.6679,-19.6993,1023.36
114008,0.430416,9.80392,-0.023912,1.54,-2.73,0.56,21.8913,-49.9763,-18.5615,1023.35
114014,0.435198,9.82305,-0.0334768,1.4,-2.17,0.42,21.8913,-49.8529,-19.8766,1023.35
114020,0.454328,9.81827,-0.0669536,1.61,-2.66,-0.21,22.1528,-50.8089,-18.9013,1023.35
114026,0.420851,9.82783,-0.047824,1.54,-2.8,0.21,21.8332,-50.408,-19.1673,1023.33
114032,0.435198,9.83261,-0.0382592,1.82,-2.45,0.56,21.9203,-48.9586,-19.7436,1023.33
114038,0.425634,9.80392,-0.0286944,1.68,-2.59,0.21,21.8913,-50.0688,-19.3003,1023.34
114044,0.454328,9.84696,-0.0191296,1.54,-2.59,-17.71,21.9494,-50.1305,-19.2116,1023.34
114050,0.444763,9.85174,-0.0526064,1.26,-2.1,0,21.9785,-48.5576,-18.1625,1023.36
114056,0.411286,9.82783,-0.0382592,1.33,-2.59,0.35,21.8622,-49.6062,-19.2116,1023.36
114062,0.435198,9.8087,0.0095648,1.89,-2.73,0.42,21.8622,-50.408,-18.99,1023.34
114068,0.444763,9.80392,-0.047824,1.61,-2.87,0.07,21.8041,-49.6987,-19.4481,1023.34
114074,0.454328,9.82305,-0.0286944,1.47,-2.66,0,21.746,-49.3595,-19.256,1023.36
114080,0.430416,9.81827,-0.0573888,1.96,-2.24,0.21,22.4143,-49.637,-19.1082,1023.36
114086,0.416069,9.84696,-0.0334768,1.61,-2.1,0.21,22.0075,-49.9763,-19.6845,1023.36
114092,0.392157,9.82305,-0.0143472,1.33,-2.24,-0.21,21.6879,-48.9586,-18.9457,1023.37
114098,0.420851,9.80392,-0.0382592,1.54,-2.45,0.42,22.0366,-50.408,-18.7536,1023.37
114104,0.430416,9.82305,-0.0430416,1.75,-2.24,0,20.9034,-51.0865,-19.2264,1023.37
114110,0.420851,9.84696,-0.0143472,1.75,-2.87,-0.07,21.3392,-50.408,-19.4037,1023.37
114116,0.435198,9.84218,-0.047824,1.61,-2.73,0.21,21.5135,-50.223,-18.6058,1023.37
114122,0.416069,9.8374,-0.0095648,1.47,-2.73,0.21,21.746,-50.7781,-18.6354,1023.37
114128,0.444763,9.82305,-0.0191296,1.54,-2.45,0.28,21.7169,-50.2847,-18.8275,1023.36
114134,0.425634,9.81827,-0.0286944,1.54,-2.73,0.28,21.9203,-49.7295,-19.9061,1023.36
114140,0.444763,9.8374,-0.0526064,1.26,-2.66,0.07,21.9494,-50.7781,-18.4285,1023.36
114146,0.444763,9.82783,-0.0382592,1.54,-2.52,0,21.4264,-50.6547,-18.2955,1023.35
114152,0.454328,9.85653,-0.0334768,1.47,-2.24,0.28,21.4845,-49.7604,-20.0243,1023.35
114158,0.439981,9.82783,-0.0286944,1.19,-1.96,0.21,21.4554,-50.5931,-18.4137,1023.35
114164,0.435198,9.83261,-0.0191296,1.47,-2.45,0,21.6007,-50.5005,-19.2708,1023.35
114170,0.435198,9.85174,-0.047824,1.4,-2.17,0.35,21.7169,-49.4828,-19.7584,1023.39
114176,0.396939,9.8087,0,1.54,-2.03,0.42,21.746,-50.1921,-18.8422,1023.39
114182,0.406504,9.81349,-0.047824,1.68,-2.38,0.42,22.1528,-51.0865,-18.3842,1023.34
114188,0.416069,9.79914,-0.0286944,1.54,-2.52,0.28,21.9203,-50.1921,-17.9852,1023.34
114194,0.425634,9.8374,-0.0526064,1.26,-2.59,-0.49,21.3101,-50.5005,-19.5663,1023.34
114200,0.449546,9.85653,-0.0573888,1.4,-2.17,0.07,22.0075,-50.0071,-19.7584,1023.33
114206,0.411286,9.81349,-0.0047824,1.54,-2.66,0.49,20.9034,-51.2407,-21.1917,1023.33
114212,0.425634,9.82783,-0.0095648,1.47,-2.66,0.42,22.1528,-49.637,-19.3742,1023.32
114218,0.416069,9.82305,-0.0621712,1.19,-2.24,0.35,21.7751,-49.9763,-19.3742,1023.32
114224,0.439981,9.84218,-0.0191296,1.47,-2.8,0.49,22.1818,-50.5622,-18.9309,1023.37
114230,0.430416,9.81827,-0.0143472,1.54,-2.87,0.28,21.7169,-49.7912,-19.4481,1023.37
114236,0.416069,9.82783,-0.023912,1.68,-2.31,0.56,22.3562,-50.5931,-19.3151,1023.38
114242,0.439981,9.8374,-0.047824,1.61,-2.1,-0.21,21.8332,-50.8398,-18.1182,1023.38
114248,0.425634,9.82305,-0.047824,1.54,-2.17,0.21,22.2109,-50.3155,-18.8127,1023.35
114254,0.435198,9.84696,-0.0382592,1.54,-2.31,-0.21,21.3683,-49.3903,-19.9505,1023.35
114260,0.439981,9.84696,-0.0526064,1.54,-2.73,0.35,22.1818,-50.5005,-18.5763,1023.35
114266,0.420851,9.8087,-0.0526064,1.33,-1.89,0.56,22.4724,-50.8398,-18.8275,1023.31
114272,0.435198,9.82783,-0.047824,1.54,-2.52,0.07,22.1237,-49.7295,-20.0243,1023.31
114278,0.425634,9.82783,-0.0526064,1.61,-2.38,0.21,21.8332,-49.9763,-18.7536,1023.37
114284,0.416069,9.83261,-0.0143472,1.61,-2.45,0.42,22.0366,-50.6547,-17.8522,1023.37
114290,0.425634,9.86131,-0.023912,1.47,-2.24,0.63,21.3101,-49.1128,-19.3003,1023.36
114296,0.435198,9.83261,-0.023912,1.68,-2.73,-0.14,20.7871,-49.7912,-19.6106,1023.36
114302,0.420851,9.82305,-0.0334768,1.33,-2.24,0,21.6298,-50.4389,-18.6797,1023.38
114308,0.425634,9.8374,-0.0526064,1.47,-2.38,0.49,21.6007,-49.452,-19.0196,1023.38
114314,0.439981,9.82305,-0.023912,1.47,-2.59,0.63,21.5426,-49.1128,-19.8175,1023.38
114320,0.430416,9.79914,-0.0047824,1.47,-2.24,0.14,22.4143,-49.9763,-18.1625,1023.35
114326,0.420851,9.81349,-0.0382592,1.4,-2.59,0.21,21.7169,-49.8221,-19.3446,1023.35
114332,0.439981,9.82305,-0.0382592,1.33,-2.31,0.07,22.1237,-49.2053,-18.857,1023.33
114338,0.420851,9.8374,-0.047824,1.75,-2.52,0.28,22.1528,-50.4389,-18.1182,1023.33
114344,0.411286,9.8087,-0.0526064,1.68,-2.52,0.21,22.3852,-50.2538,-18.1921,1023.34
114350,0.439981,9.81349,-0.0334768,1.4,-2.38,0.07,22.1237,-49.4828,-19.0787,1023.34
114356,0.435198,9.83261,-0.0621712,1.05,-2.38,0.21,22.1818,-49.8221,-19.2412,1023.37
114362,0.425634,9.8374,-0.0334768,1.68,-2.24,0.56,21.9494,-50.5005,-18.7092,1023.37
114368,0.444763,9.82305,-0.0430416,1.61,-2.66,0.49,21.8913,-49.8837,-19.4185,1023.37
114374,0.406504,9.85174,-0.0669536,1.54,-2.59,0.42,22.5015,-49.2669,-18.9161,1023.37
114380,0.439981,9.82305,-0.0382592,2.03,-2.73,0.49,22.792,-50.3463,-19.7731,1023.37
114386,0.454328,9.82783,-0.0334768,1.75,-2.94,0.28,22.4724,-49.9763,-18.6797,1023.36
114392,0.320421,9.82783,0.0047824,1.68,-3.08,0.7,21.4554,-49.1436,-20.4972,1023.36
114398,0.516499,9.83261,-0.0860832,1.68,-2.87,0.28,21.9494,-50.0379,-18.5467,1023.4
114404,0.392157,9.88044,-0.0573888,1.26,-2.17,0.63,22.4434,-50.0996,-19.1525,1023.4
114410,0.411286,9.78957,0.0143472,1.75,-2.8,0.07,21.746,-50.0996,-19.4333,1023.36
114416,0.45911,9.85174,-0.0334768,1.47,-2.03,0.07,21.4845,-50.0688,-18.6354,1023.36
114422,0.439981,9.87087,-0.0430416,1.54,-2.59,0.07,22.2981,-49.9454,-18.458,1023.33
114428,0.449546,9.78479,-0.0143472,1.47,-2.45,0,21.8041,-49.6987,-19.3299,1023.33
114434,0.396939,9.86131,-0.0526064,1.54,-3.01,0,21.3973,-49.3903,-19.123,1023.33
114440,0.454328,9.82305,-0.0813008,1.54,-2.31,0.35,21.9785,-49.6987,-17.734,1023.34
114446,0.416069,9.8087,-0.0430416,1.68,-2.66,0.21,22.1237,-49.9146,-17.2612,1023.34
114452,0.406504,9.86609,-0.071736,1.75,-2.59,0.28,22.0075,-49.2053,-18.3398,1023.34
114458,0.454328,9.82783,-0.0669536,1.54,-2.52,-0.07,21.8041,-49.637,-18.1921,1023.34
114464,0.420851,9.84696,-0.0526064,1.47,-2.52,0.21,21.6588,-50.5622,-17.2759,1023.39
114470,0.454328,9.81349,-0.047824,1.54,-2.8,0.42,20.7581,-49.6062,-19.1673,1023.39
114476,0.449546,9.83261,-0.0430416,1.96,-3.43,0.28,21.746,-49.9454,-18.1477,1023.37
114482,0.444763,9.82783,-0.047824,1.68,-2.8,0.21,21.6007,-49.7604,-16.9952,1023.37
114488,0.435198,9.78001,-0.0765184,1.47,-2.38,0.21,21.5426,-49.4828,-19.3003,1023.37
114494,0.439981,9.83261,-0.071736,1.54,-2.8,0.7,22.3271,-49.9146,-18.8422,1023.33
114500,0.439981,9.81349,-0.095648,1.75,-2.8,0.35,22.5015,-50.2538,-17.9704,1023.33
114506,0.435198,9.85174,-0.0526064,1.75,-2.52,0.07,22.5305,-50.2847,-18.0443,1023.37
114512,0.425634,9.84218,-0.0669536,1.54,-2.38,0.42,21.6588,-49.6062,-19.0787,1023.37
114518,0.430416,9.79914,-0.0526064,1.4,-2.38,-0.07,22.4724,-49.9763,-18.133,1023.35
114524,0.435198,9.8374,-0.0669536,1.47,-2.87,0.35,21.1649,-49.5445,-17.8522,1023.35
114530,0.454328,9.80392,-0.0573888,1.33,-2.59,-0.07,21.0196,-49.6062,-19.2412,1023.37
114536,0.425634,9.84218,-0.105213,1.54,-2.59,-0.21,21.6588,-49.6062,-18.5024,1023.37
114542,0.406504,9.83261,-0.0526064,1.68,-2.45,0.56,21.9203,-50.0379,-18.1773,1023.37
114548,0.444763,9.8087,-0.047824,1.61,-2.94,0.35,21.8332,-48.9277,-20.5711,1023.37
114554,0.463893,9.84218,-0.0573888,1.61,-2.24,-0.14,22.3852,-49.7295,-18.8127,1023.37
114560,0.416069,9.8374,-0.0669536,1.19,-2.73,0.21,21.4845,-50.1305,-18.3251,1023.34
114566,0.411286,9.78957,-0.0382592,1.4,-2.45,0.21,21.8332,-49.7295,-18.857,1023.34
114572,0.420851,9.8374,-0.0573888,1.61,-2.24,0.35,21.9785,-49.5445,-20.3642,1023.37
114578,0.401722,9.81827,-0.0669536,1.33,-2.45,0.14,21.9785,-49.7912,-18.0295,1023.37
114584,0.439981,9.84218,-0.0860832,1.89,-2.38,0.49,21.9785,-50.1921,-19.2116,1023.37
114590,0.439981,9.82305,-0.0526064,1.54,-2.59,0.42,21.8622,-49.4212,-19.0787,1023.37
114596,0.411286,9.81827,-0.071736,1.68,-2.45,0.14,21.3683,-49.5753,-19.8323,1023.33
114602,0.435198,9.81349,-0.0573888,1.68,-2.59,0.35,22.2981,-50.5005,-18.3546,1023.33
114608,0.406504,9.82783,-0.0382592,1.26,-2.8,0.21,21.7751,-49.6062,-18.9457,1023.33
114614,0.411286,9.82783,-0.071736,1.26,-2.31,0.28,20.5547,-51.0248,-19.9505,1023.37
114620,0.439981,9.82783,-0.0765184,1.47,-2.17,0,22.4724,-49.9763,-18.3103,1023.37
114626,0.416069,9.8087,-0.071736,1.4,-3.08,0.14,22.3562,-50.0071,-19.4037,1023.34
114632,0.435198,9.82783,-0.0621712,1.75,-2.73,0.35,21.3392,-50.1613,-19.4628,1023.34
114638,0.439981,9.8374,-0.0430416,1.4,-2.73,-0.42,21.3973,-49.9763,-18.9309,1023.36
114644,0.435198,9.84218,-0.0382592,1.54,-2.73,0.14,21.5717,-49.8529,-18.3842,1023.36
114650,0.454328,9.81827,-0.0669536,1.61,-2.59,-0.21,21.5135,-50.3772,-18.5319,1023.37
114656,0.430416,9.79914,-0.071736,1.61,-2.59,-0.28,21.223,-50.1921,-19.3151,1023.37
114662,0.416069,9.82305,-0.0669536,1.4,-2.73,0.21,22.1528,-50.994,-17.8227,1023.37
114668,0.430416,9.82305,-0.0621712,1.61,-2.45,0,22.0947,-49.6987,-18.3103,1023.35
114674,0.439981,9.83261,-0.0526064,1.47,-2.8,-0.14,21.3101,-50.2538,-19.6845,1023.35
114680,0.430416,9.81349,-0.105213,1.26,-2.59,0.14,21.3973,-51.2715,-19.0934,1023.37
114686,0.401722,9.82305,-0.0621712,1.33,-2.59,-0.14,21.1358,-50.9323,-19.0639,1023.37
114692,0.401722,9.84218,-0.0813008,1.47,-2.73,-0.07,22.2109,-49.8837,-20.9996,1023.37
114698,0.406504,9.8087,-0.0526064,1.68,-2.8,0.14,21.9203,-50.223,-19.4185,1023.37
114704,0.439981,9.82305,-0.071736,1.68,-2.52,0.21,21.252,-50.0379,-18.458,1023.36
114710,0.401722,9.82305,-0.0573888,1.4,-2.1,0.49,21.8041,-49.0819,-19.1082,1023.36
114716,0.425634,9.83261,-0.071736,1.26,-2.31,0.14,21.9203,-50.0688,-19.0048,1023.36
114722,0.430416,9.8374,-0.047824,1.75,-3.01,0.56,21.3392,-50.1305,-18.4876,1023.35
114728,0.411286,9.8087,-0.095648,1.68,-2.66,-0.14,21.4264,-49.5137,-19.389,1023.35
114734,0.45911,9.83261,-0.047824,2.03,-2.59,0.28,22.2981,-49.6987,-19.389,1023.33
114740,0.416069,9.82305,-0.0430416,1.47,-2.52,0.21,21.9203,-49.3595,-18.2512,1023.33
114746,0.439981,9.8374,-0.0669536,1.82,-2.87,0,22.3562,-49.5445,-18.8275,1023.35
114752,0.449546,9.81827,-0.071736,1.68,-2.66,-0.14,21.7169,-49.6062,-18.7092,1023.35
114758,0.439981,9.81827,-0.0526064,1.61,-2.59,0.14,22.8502,-49.8221,-18.4137,1023.34
114764,0.463893,9.82783,-0.0430416,1.54,-2.73,0,22.3271,-49.8529,-17.9261,1023.34
114770,0.435198,9.79436,-0.0430416,1.26,-2.38,0,21.3973,-50.0688,-19.6993,1023.35
114776,0.444763,9.85174,-0.0526064,1.47,-2.45,0.14,22.0075,-50.1613,-19.847,1023.35
114782,0.439981,9.8374,-0.0860832,1.61,-2.94,-0.07,22.5305,-50.5314,-18.7092,1023.35
114788,0.45911,9.83261,-0.0669536,1.89,-2.59,-0.21,21.2811,-49.9454,-20.246,1023.34
114794,0.439981,9.82783,-0.0526064,1.89,-2.94,0.14,21.6588,-49.2053,-19.0934,1023.34
114800,0.473458,9.85653,-0.0382592,2.03,-2.73,0,21.9203,-50.4697,-19.0934,1023.33
114806,0.416069,9.82305,-0.071736,1.54,-2.38,-0.35,21.1939,-50.2538,-18.7979,1023.33
114812,0.449546,9.8374,-0.071736,1.47,-2.24,0,20.9905,-49.9146,-20.0539,1023.32
114818,0.425634,9.84218,-0.0765184,1.47,-2.73,0.21,22.1528,-49.9763,-19.4628,1023.32
114824,0.420851,9.84218,-0.0765184,1.47,-2.73,0.07,21.2811,-50.0379,-20.2608,1023.34
114830,0.449546,9.82783,-0.0765184,1.61,-2.94,0.21,21.7751,-49.6679,-20.113,1023.34
114836,0.444763,9.8087,-0.0669536,1.47,-2.87,0.14,22.1818,-49.9146,-18.5172,1023.34
114842,0.435198,9.8374,-0.0621712,1.68,-2.31,0.28,21.4554,-49.8221,-17.5271,1023.36
114848,0.439981,9.85653,-0.0765184,1.33,-2.59,0.07,21.6298,-49.1436,-18.1625,1023.36
114854,0.435198,9.83261,-0.0573888,1.4,-2.52,0.14,21.8041,-49.4828,-18.8422,1023.35
114860,0.430416,9.82305,-0.0191296,1.54,-2.66,-0.21,21.7169,-49.7912,-19.3446,1023.35
114866,0.444763,9.84218,-0.0430416,1.68,-2.66,-0.28,21.9494,-50.408,-18.3694,1023.35
114872,0.430416,9.82783,-0.0382592,1.26,-2.24,0.49,21.7169,-50.5622,-19.714,1023.35
114878,0.425634,9.8087,-0.0573888,1.33,-2.52,0.21,22.0656,-49.8837,-17.9113,1023.35
114884,0.416069,9.82783,-0.095648,2.03,-2.73,-0.21,22.0947,-50.1613,-17.3794,1023.35
114890,0.468675,9.85174,-0.047824,1.47,-2.38,0.14,21.7751,-49.5137,-18.2364,1023.35
114896,0.449546,9.8087,-0.0765184,1.68,-2.73,-0.28,22.24,-49.8221,-18.3842,1023.35
114902,0.420851,9.82783,-0.047824,1.75,-2.59,0,21.9785,-49.8529,-16.7588,1023.35
114908,0.406504,9.81349,-0.0382592,1.4,-2.31,-0.21,22.2981,-49.3286,-18.1625,1023.35
114914,0.406504,9.82783,-0.0573888,1.54,-2.45,0,21.6007,-49.6987,-18.3251,1023.35
114920,0.416069,9.8087,-0.0860832,1.26,-2.52,-0.14,22.0366,-50.9015,-18,1023.36
114926,0.444763,9.81349,-0.0765184,2.03,-2.45,0.28,22.2109,-49.7295,-17.5124,1023.36
114932,0.420851,9.83261,-0.0765184,1.61,-2.52,0.28,21.5717,-49.5137,-18.7388,1023.33
114938,0.420851,9.81349,-0.109995,1.54,-2.45,0.07,22.5015,-50.5931,-18.5172,1023.33
114944,0.45911,9.81349,-0.0765184,1.4,-2.8,0.21,21.8041,-49.9763,-18.3694,1023.33
114950,0.444763,9.82783,-0.0621712,1.54,-2.52,0.63,21.3683,-49.1128,-19.4037,1023.34
114956,0.449546,9.81827,-0.0621712,1.4,-2.1,0,21.6588,-49.6987,-18.2216,1023.34
114962,0.416069,9.8087,-0.0382592,1.82,-2.87,0.21,22.4434,-50.223,-17.2612,1023.32
114968,0.454328,9.87087,-0.0813008,1.26,-2.59,0.28,21.223,-49.8221,-18.0148,1023.32
114974,0.435198,9.85174,-0.114778,1.19,-2.24,0.14,21.4845,-50.3155,-17.3794,1023.37
114980,0.444763,9.85653,-0.0191296,1.47,-2.52,0,21.4554,-50.6856,-18.0886,1023.37
114986,0.406504,9.8087,-0.047824,1.61,-2.24,-17.78,21.4845,-49.6987,-18,1023.3
114992,0.425634,9.8374,-0.0573888,1.47,-2.31,0.77,21.0777,-49.5137,-17.2907,1023.3
114998,0.416069,9.81827,-0.047824,1.89,-2.52,-0.21,22.5015,-49.637,-17.5124,1023.36
115004,0.463893,9.83261,-0.0765184,1.61,-2.38,-0.49,21.6007,-50.4389,-17.5715,1023.36
115010,0.416069,9.80392,-0.0573888,1.54,-2.73,0.28,22.3271,-48.681,-17.4533,1023.36
115016,0.430416,9.80392,-0.023912,1.61,-2.94,0.35,21.4554,-50.6239,-17.7192,1023.35
115022,0.406504,9.82783,-0.0765184,1.54,-2.52,0.07,22.1818,-50.5622,-17.4976,1023.35
115028,0.444763,9.8374,-0.0860832,1.54,-2.31,0.63,21.9494,-49.8837,-19.0787,1023.38
115034,0.420851,9.8087,-0.0286944,1.68,-2.38,-0.21,22.1528,-50.3772,-19.6549,1023.38
115040,0.401722,9.83261,-0.0526064,1.61,-2.45,-0.35,22.6177,-50.7781,-17.867,1023.34
115046,0.401722,9.79914,-0.047824,1.68,-2.17,0.56,22.1237,-50.0071,-17.7488,1023.34
115052,0.396939,9.85174,-0.0669536,1.61,-2.94,0.07,22.0366,-49.0511,-19.1821,1023.34
115058,0.416069,9.79436,-0.071736,1.61,-2.73,0.49,21.6298,-50.0996,-18.3251,1023.34
115064,0.483022,9.85174,-0.0669536,1.47,-2.45,-0.07,22.2109,-49.5445,-17.7931,1023.34
115070,0.444763,9.81827,-0.0669536,1.33,-2.38,0.28,21.2811,-49.7604,-19.0934,1023.33
115076,0.439981,9.83261,-0.0621712,1.54,-2.59,0.07,22.0656,-49.7295,-19.4924,1023.33
115082,0.425634,9.8374,-0.0526064,1.33,-2.94,0.42,21.6298,-50.223,-19.1378,1023.35
115088,0.439981,9.83261,-0.0573888,1.54,-2.45,0.56,21.746,-49.6679,-19.8175,1023.35
115094,0.439981,9.82783,-0.0286944,1.68,-2.87,-0.07,21.8622,-50.0688,-19.6106,1023.33
115100,0.435198,9.78479,-0.0669536,1.89,-2.66,-0.28,21.746,-50.994,-19.0787,1023.33
115106,0.416069,9.82783,-0.0191296,1.68,-2.52,0.21,21.6588,-50.4389,-18.7979,1023.36
115112,0.416069,9.81349,-0.0334768,1.61,-2.45,0.14,22.3271,-49.8221,-18.857,1023.36
115118,0.435198,9.84696,-0.0430416,1.54,-2.59,-0.07,22.24,-49.7604,-17.4533,1023.36
115124,0.420851,9.82783,-0.0765184,1.54,-2.52,0.35,21.6588,-50.9631,-17.6601,1023.34
115130,0.420851,9.81827,-0.071736,1.4,-2.94,0,22.0656,-50.408,-19.98,1023.34
115136,0.425634,9.8374,-0.0573888,1.68,-2.59,-0.14,21.6588,-50.2538,-19.2412,1023.38
115142,0.439981,9.81827,-0.0430416,1.61,-2.87,0.21,22.3271,-50.0379,-18.8422,1023.38
115148,0.435198,9.81349,-0.0621712,1.47,-2.38,0.77,21.7169,-49.8221,-18.0443,1023.39
115154,0.45911,9.85174,-0.0669536,1.33,-2.38,-0.42,21.1649,-49.3286,-18.5467,1023.39
115160,0.406504,9.84696,-0.0286944,1.19,-2.38,-0.07,21.2811,-51.2715,-17.4533,1023.32
115166,0.406504,9.82305,-0.023912,1.61,-2.59,0.77,22.1818,-50.408,-17.6158,1023.32
115172,0.435198,9.82783,-0.0430416,1.89,-2.38,-0.14,21.4845,-49.9146,-18.6206,1023.36
115178,0.435198,9.87566,-0.0765184,1.54,-2.17,-0.21,21.5135,-49.9454,-18.5615,1023.36
115184,0.411286,9.84696,-0.0526064,1.54,-2.38,0.07,21.5426,-50.0688,-18.8718,1023.36
115190,0.416069,9.77523,-0.0334768,1.26,-2.73,-0.35,21.3101,-48.9894,-18.8866,1023.33
115196,0.435198,9.82783,-0.0526064,1.82,-2.59,0,22.4724,-50.4389,-18.1182,1023.33
115202,0.45911,9.84696,-0.0813008,1.47,-2.45,0.28,21.9203,-49.7912,-17.4533,1023.34
115208,0.454328,9.82783,-0.095648,1.4,-2.59,-0.35,22.3562,-49.637,-17.4089,1023.34
115214,0.430416,9.79914,-0.0621712,1.61,-2.38,-0.07,22.3852,-49.3903,-17.9113,1023.35
115220,0.420851,9.85174,-0.0286944,1.26,-2.45,0.35,22.1237,-49.9763,-17.3794,1023.35
115226,0.416069,9.79436,-0.0430416,1.89,-2.52,0.21,22.269,-49.7295,-17.7488,1023.34
115232,0.439981,9.82783,-0.0430416,1.61,-2.31,-0.14,21.7169,-49.5137,-19.5663,1023.34
115238,0.416069,9.80392,-0.0430416,1.61,-2.38,-0.14,21.8622,-49.7604,-17.8965,1023.34
115244,0.430416,9.81827,-0.0334768,1.54,-2.66,0.49,21.8041,-50.0071,-17.7045,1023.35
115250,0.406504,9.84696,-0.047824,1.19,-2.1,0.35,22.2981,-48.8969,-18.1625,1023.35
115256,0.463893,9.82783,-0.0573888,1.61,-2.8,0.42,22.3271,-49.2978,-19.1378,1023.35
115262,0.439981,9.81349,-0.0382592,1.54,-2.59,0.28,21.6298,-50.0379,-18.5763,1023.35
115268,0.425634,9.79914,-0.0095648,1.4,-2.52,0.14,21.1939,-50.5005,-19.123,1023.34
115274,0.473458,9.79436,-0.023912,1.68,-2.66,0.14,22.0947,-50.5622,-18.1034,1023.34
115280,0.444763,9.84218,-0.0334768,1.54,-2.52,0.35,21.7751,-50.9631,-18.2955,1023.35
115286,0.463893,9.79436,-0.047824,1.54,-2.45,-0.14,21.5717,-49.637,-18.7388,1023.35
115292,0.439981,9.84218,-0.0669536,1.61,-2.31,-0.07,21.8913,-50.2847,-18.3842,1023.35
115298,0.430416,9.82783,-0.0382592,1.19,-2.73,0.28,21.5135,-49.9763,-18.266,1023.32
115304,0.449546,9.84696,-0.047824,1.47,-2.66,-0.07,21.4554,-50.4697,-17.4533,1023.32
115310,0.416069,9.86131,-0.0286944,1.26,-2.31,-0.14,21.6879,-49.637,-19.5663,1023.34
115316,0.416069,9.83261,-0.0334768,1.61,-2.66,0.07,21.1649,-50.0379,-18.5615,1023.34
115322,0.420851,9.76088,-0.0143472,1.54,-2.52,-17.78,21.6298,-50.1613,-18.6206,1023.33
115328,0.425634,9.82305,-0.0286944,1.61,-2.8,0.35,21.6007,-51.0248,-18.9309,1023.33
115334,0.420851,9.81349,-0.0573888,1.47,-2.59,0.49,21.1649,-51.7033,-19.0639,1023.33
115340,0.430416,9.84218,-0.0334768,1.4,-2.8,0.28,22.269,-50.994,-18.1921,1023.33
115346,0.382592,9.81827,-0.0143472,1.75,-2.59,-0.35,22.0656,-50.0379,-18.3989,1023.33
115352,0.425634,9.82305,-0.0334768,1.4,-2.45,0.35,22.0947,-50.0996,-18.4876,1023.33
115358,0.420851,9.84696,-0.0621712,1.54,-2.59,0.28,22.0947,-50.223,-17.5419,1023.33
115364,0.411286,9.86609,-0.0382592,1.68,-3.36,0,22.0075,-50.1305,-17.9409,1023.34
115370,0.454328,9.82305,-0.0573888,1.61,-2.8,0.42,21.6298,-50.1613,-19.5367,1023.34
115376,0.435198,9.84218,-0.0430416,1.4,-2.73,0.14,21.5426,-50.8398,-19.1525,1023.39
115382,0.439981,9.79436,-0.0334768,1.68,-2.8,0.07,22.0947,-50.5622,-18.0443,1023.39
115388,0.425634,9.84218,-0.0382592,1.54,-2.59,0,21.9203,-49.3595,-18.9013,1023.35
115394,0.430416,9.86609,-0.0526064,1.61,-2.66,-0.07,22.0366,-49.7295,-19.6402,1023.35
115400,0.449546,9.80392,-0.047824,1.33,-2.73,0.14,21.4845,-50.2847,-17.8965,1023.33
115406,0.444763,9.82783,-0.0430416,1.4,-2.24,0.28,21.746,-49.8529,-17.5715,1023.33
115412,0.439981,9.82305,-0.0526064,1.68,-2.52,0.07,21.5135,-50.7781,-18.6945,1023.33
115418,0.45911,9.81827,-0.0526064,1.4,-2.38,0.14,21.7169,-49.8529,-18.0295,1023.32
115424,0.416069,9.82305,-0.0526064,1.54,-2.59,0.35,21.7169,-51.0248,-18.2068,1023.32
115430,0.425634,9.84218,-0.071736,1.75,-3.01,-0.14,21.8622,-49.6987,-19.8914,1023.35
115436,0.444763,9.82305,-0.0191296,1.75,-2.73,0.14,21.1939,-49.7604,-18.2216,1023.35
115442,0.439981,9.81349,-0.023912,1.47,-2.31,0.49,21.8332,-50.1305,-17.7636,1023.34
115448,0.411286,9.8087,-0.047824,1.82,-2.38,0,21.4845,-50.408,-18.5024,1023.34
115454,0.411286,9.80392,-0.0286944,1.61,-2.87,0.14,21.9494,-49.6062,-18.3694,1023.37
115460,0.392157,9.85174,-0.0334768,1.68,-2.59,0.14,21.9203,-50.0071,-18.6945,1023.37
115466,0.425634,9.82305,-0.0621712,1.33,-2.45,0.28,21.8622,-50.3772,-18.7979,1023.37
115472,0.411286,9.81827,-0.023912,1.75,-2.45,0.49,21.2811,-49.452,-20.0835,1023.35
115478,0.411286,9.84218,-0.0334768,1.4,-2.45,0.21,21.3392,-50.4389,-17.7931,1023.35
115484,0.444763,9.82305,-0.0526064,2.03,-2.59,0.49,21.5717,-49.5445,-18.9013,1023.32
115490,0.411286,9.84696,-0.0334768,1.26,-2.45,0.49,21.8041,-49.5137,-19.3594,1023.32
115496,0.439981,9.82783,-0.0669536,1.89,-2.8,0.14,21.7751,-50.0996,-18.1477,1023.37
115502,0.416069,9.81827,-0.0430416,1.96,-2.87,0.07,21.8913,-49.6987,-17.4828,1023.37
115508,0.425634,9.86131,-0.0095648,1.61,-2.87,0.28,21.8622,-49.6679,-19.4037,1023.36
115514,0.444763,9.81349,-0.095648,1.68,-3.01,-0.14,21.3973,-49.3595,-18.4285,1023.36
115520,0.416069,9.82783,-0.047824,1.47,-2.24,-0.14,21.1358,-50.6239,-17.7192,1023.36
115526,0.401722,9.82783,-0.047824,1.61,-2.8,0,21.4554,-49.8221,-18.6797,1023.36
115532,0.420851,9.79914,-0.0286944,1.61,-2.24,0.14,21.8622,-48.7735,-17.7636,1023.36
115538,0.444763,9.80392,-0.0765184,1.89,-2.52,0.07,21.9203,-50.6239,-17.2907,1023.34
115544,0.444763,9.85174,-0.071736,1.61,-2.31,-0.28,22.1237,-50.5622,-17.5567,1023.34
115550,0.416069,9.81827,-0.0286944,1.68,-2.59,-0.07,20.9905,-49.7604,-18.458,1023.33
115556,0.416069,9.82783,-0.047824,1.68,-2.52,0.14,21.6298,-49.6987,-17.7192,1023.33
115562,0.468675,9.83261,-0.047824,1.75,-2.8,0,22.0656,-50.5005,-18.0886,1023.32
115568,0.406504,9.79914,-0.047824,1.61,-2.73,0.21,21.0486,-50.3155,-18.724,1023.32
115574,0.411286,9.8087,-0.0382592,1.4,-2.73,0.35,21.4554,-50.1613,-18.591,1023.33
115580,0.392157,9.79914,-0.047824,1.54,-2.66,0.21,21.4554,-50.4697,-18.3546,1023.33
115586,0.411286,9.84218,-0.0334768,1.82,-2.66,0.28,21.4845,-50.2538,-18.724,1023.33
115592,0.444763,9.85653,-0.095648,1.33,-2.45,0.35,21.0777,-49.9454,-19.5958,1023.33
115598,0.435198,9.86609,-0.023912,1.05,-2.38,0.42,21.2811,-50.5005,-17.5862,1023.33
115604,0.411286,9.79914,-0.0573888,1.82,-2.59,0.28,21.5426,-50.2847,-18.7388,1023.33
115610,0.406504,9.82305,-0.0430416,1.47,-2.8,-0.35,21.252,-50.4389,-17.9704,1023.33
115616,0.449546,9.83261,-0.0430416,1.61,-2.8,0.35,21.1358,-50.0688,-17.9704,1023.34
115622,0.439981,9.8374,-0.0573888,1.54,-2.66,0.21,21.4554,-50.0688,-16.7883,1023.34
115628,0.401722,9.81349,-0.047824,1.61,-2.59,0,20.9034,-49.5137,-18.1773,1023.33
115634,0.435198,9.82783,-0.0430416,1.68,-2.66,0.07,21.9494,-50.1921,-17.0838,1023.33
115640,0.444763,9.8374,-0.047824,1.4,-2.87,0,21.1067,-50.2847,-17.0543,1023.33
115646,0.449546,9.81827,-0.0095648,1.33,-2.87,-0.21,22.269,-49.637,-18.2807,1023.32
115652,0.435198,9.85174,-0.10043,1.61,-2.66,0.28,22.2109,-50.3155,-18.3842,1023.32
115658,0.420851,9.8087,-0.047824,1.61,-2.73,-17.64,22.8502,-49.7912,-18.0148,1023.31
115664,0.416069,9.82305,0,1.4,-2.73,0.35,21.3973,-49.6679,-17.4828,1023.31
115670,0.430416,9.81827,0.0143472,1.75,-2.45,0.42,21.6298,-50.223,-17.9261,1023.35
115676,0.435198,9.8374,-0.0526064,1.75,-2.52,-0.28,21.6588,-50.7473,-18.5763,1023.35
115682,0.435198,9.84696,-0.0621712,1.75,-2.52,0.07,21.7169,-50.0996,-18.133,1023.33
115688,0.435198,9.84696,-0.0573888,1.75,-2.87,0.21,22.1818,-49.637,-19.1821,1023.33
115694,0.411286,9.81827,-0.0669536,1.61,-2.45,0,21.9203,-49.5445,-18.6501,1023.33
115700,0.435198,9.82783,-0.0191296,1.75,-2.94,0.14,21.4845,-50.0071,-17.8374,1023.33
115706,0.430416,9.77523,-0.0095648,1.61,-2.73,0.35,21.8622,-49.5137,-18.8866,1023.33
115712,0.416069,9.83261,-0.0382592,1.61,-2.45,0.56,21.8332,-49.8837,-20.1573,1023.35
115718,0.435198,9.83261,-0.0621712,1.26,-2.24,0.07,21.6298,-49.7295,-17.5419,1023.35
115724,0.449546,9.80392,-0.0143472,1.68,-2.87,-0.07,21.0486,-49.4828,-17.4237,1023.38
115730,0.406504,9.84218,-0.023912,1.4,-2.66,-0.14,21.1939,-48.4651,-19.4628,1023.38
115736,0.420851,9.84218,-0.0382592,1.68,-2.31,0.35,21.6007,-49.4212,-18.2807,1023.36
115742,0.430416,9.82305,-0.0143472,1.61,-2.94,0.56,21.2811,-49.3286,-17.4385,1023.36
115748,0.430416,9.81349,-0.0191296,1.33,-2.52,-0.07,21.7751,-49.2669,-18.857,1023.33
115754,0.420851,9.82783,-0.0382592,1.4,-2.31,-0.07,21.3683,-49.6987,-18.1625,1023.33
115760,0.430416,9.81349,-0.0191296,1.61,-2.59,0,22.2109,-50.1921,-17.0543,1023.33
115766,0.435198,9.78479,-0.0382592,1.47,-2.38,0.14,21.0196,-49.8221,-18.6354,1023.35
115772,0.449546,9.82305,-0.0382592,1.68,-2.38,-0.14,21.8913,-50.3155,-18.266,1023.35
115778,0.444763,9.8087,-0.0621712,1.47,-2.31,0.07,21.8041,-50.7473,-18.0591,1023.35
115784,0.430416,9.84696,-0.023912,1.61,-2.59,0.14,22.0075,-49.8837,-18.0443,1023.35
115790,0.401722,9.85174,-0.0382592,1.75,-2.45,0.14,21.8041,-48.8352,-20.1278,1023.35
115796,0.449546,9.78957,-0.0286944,1.68,-2.45,0.07,21.8041,-49.9454,-18.133,1023.35
115802,0.439981,9.82305,-0.0191296,1.47,-2.66,-0.14,21.8332,-49.9146,-17.2021,1023.33
115808,0.435198,9.81827,-0.0382592,1.47,-2.8,0.35,21.6879,-49.9146,-19.0639,1023.33
115814,0.444763,9.82783,-0.0286944,1.61,-2.8,0.21,22.4143,-49.4212,-19.3151,1023.33
115820,0.425634,9.82305,-0.0191296,1.54,-2.31,-0.07,21.6879,-50.408,-17.5419,1023.36
115826,0.425634,9.82305,-0.0191296,1.54,-2.45,0.21,21.9785,-50.4697,-18.4285,1023.36
115832,0.425634,9.8374,-0.0382592,1.4,-2.73,0.42,22.0947,-49.3595,-18.4137,1023.34
115838,0.454328,9.83261,-0.0573888,1.47,-2.66,-0.14,22.0656,-50.223,-17.5419,1023.34
115844,0.396939,9.81827,-0.023912,1.68,-2.73,0.07,22.2109,-49.8837,-17.6601,1023.33
115850,0.435198,9.81827,-0.023912,1.4,-2.59,0.35,22.1528,-49.452,-18.9457,1023.33
115856,0.444763,9.8087,-0.0334768,1.54,-2.73,-0.21,22.0366,-49.637,-17.601,1023.32
115862,0.45911,9.85174,-0.0669536,1.47,-1.96,0.35,21.4845,-50.7781,-18.0739,1023.32
115868,0.454328,9.79914,-0.0286944,0.98,-2.17,-0.07,21.1649,-49.6062,-18.4285,1023.36
115874,0.406504,9.82783,-0.0286944,1.26,-2.24,0.28,21.5426,-49.7295,-17.9704,1023.36
115880,0.416069,9.82305,0.0047824,1.61,-2.24,0.28,21.8041,-51.3024,-18.1921,1023.36
115886,0.401722,9.79436,-0.0334768,1.82,-2.8,0,22.0366,-50.0688,-18.724,1023.33
115892,0.449546,9.85653,-0.0573888,1.26,-2.38,0.14,21.252,-49.8837,-18.9604,1023.33
115898,0.435198,9.80392,0.0047824,1.47,-2.31,0.35,21.3973,-51.0557,-19.0491,1023.34
115904,0.430416,9.79914,-0.0621712,1.75,-2.52,0.28,22.1237,-49.6987,-18.6649,1023.34
115910,0.411286,9.79914,-0.0095648,1.82,-2.66,-0.21,21.0777,-50.3463,-19.5958,1023.31
115916,0.454328,9.84218,-0.047824,1.4,-2.38,-0.21,22.0947,-50.7164,-18.0591,1023.31
115922,0.373027,9.81827,-0.047824,1.68,-2.66,0.28,22.1818,-50.1921,-18.1477,1023.33
115928,0.373027,9.82305,0.0095648,1.33,-2.38,-0.14,20.8743,-50.2538,-18.2955,1023.33
115934,0.416069,9.82305,-0.0334768,1.61,-2.73,0.35,21.9785,-49.637,-18.3251,1023.33
115940,0.444763,9.84696,-0.0334768,1.61,-2.45,0.14,22.0075,-49.9763,-17.6897,1023.32
115946,0.435198,9.85174,-0.0191296,1.61,-2.73,0.28,21.0196,-51.0248,-18.7831,1023.32
115952,0.444763,9.82783,-0.0382592,1.75,-2.8,0,21.9785,-50.1305,-19.3446,1023.31
115958,0.430416,9.8374,-0.0286944,1.26,-2.52,0,21.9785,-50.5314,-18.7684,1023.31
115964,0.45911,9.8374,-0.0430416,1.4,-2.8,0.21,22.0366,-50.6856,-18.8422,1023.34
115970,0.425634,9.82783,-0.0526064,1.12,-2.73,0.14,21.8622,-49.5753,-19.2708,1023.34
115976,0.425634,9.80392,-0.0286944,1.61,-2.24,-0.28,22.0656,-50.5622,-17.867,1023.31
115982,0.411286,9.82305,0,1.68,-2.52,0.35,21.4554,-50.5005,-18.5319,1023.31
115988,0.439981,9.82783,-0.023912,1.47,-2.45,0.21,21.6588,-49.2978,-19.4628,1023.31
115994,0.416069,9.82783,-0.0526064,1.47,-2.31,17.43,21.1067,-50.0996,-19.5958,1023.33
116000,0.420851,9.83261,0.0047824,1.47,-2.52,-0.07,21.9494,-49.7604,-18.3694,1023.33
116006,0.444763,9.83261,0,1.19,-2.31,0.14,21.6007,-49.6987,-20.1573,1023.3
116012,0.454328,9.8374,-0.0334768,1.75,-2.87,0.21,21.3973,-49.7604,-19.6549,1023.3
116018,0.439981,9.8374,-0.0143472,1.47,-2.8,0.07,22.1818,-49.9146,-18.2068,1023.35
116024,0.435198,9.82305,-0.0191296,1.54,-2.45,-0.07,22.2981,-49.3286,-18.458,1023.35
116030,0.420851,9.82305,-0.023912,1.12,-2.31,0.35,21.7751,-49.7604,-20.0391,1023.33
116036,0.425634,9.8374,0.0191296,1.68,-2.59,0.07,21.6298,-49.9763,-19.8027,1023.33
116042,0.454328,9.8374,-0.0382592,1.47,-2.31,0.07,22.4143,-49.8529,-19.2412,1023.32
116048,0.425634,9.84696,-0.0573888,1.68,-2.8,-0.07,21.9785,-50.0688,-19.0787,1023.32
116054,0.430416,9.79914,-0.023912,1.26,-2.87,0.14,21.8332,-49.9454,-18.6649,1023.32
116060,0.401722,9.81827,-0.047824,1.47,-2.73,0.14,22.4724,-50.6239,-18.458,1023.32
116066,0.411286,9.77044,-0.0286944,1.26,-2.52,0.7,21.6007,-50.6547,-19.0343,1023.32
116072,0.430416,9.70827,0.114778,1.96,-2.94,-0.49,22.1528,-50.3155,-20.1426,1023.33
116078,0.502152,9.95218,-0.157819,2.17,-3.08,-0.14,22.269,-50.7164,-19.4037,1023.33
116084,0.487805,9.88044,-0.176949,1.12,-1.96,0.14,21.746,-50.0379,-20.0243,1023.35
116090,0.353898,9.7274,0.0860832,1.12,-2.59,-0.07,21.9785,-50.408,-19.0934,1023.35
116096,0.430416,9.82305,-0.0286944,1.89,-2.73,0.07,21.4845,-50.6239,-16.9804,1023.36
116102,0.439981,9.88044,-0.0860832,1.26,-2.73,0.14,22.1818,-50.3155,-17.3941,1023.36
116108,0.420851,9.81827,-0.0334768,1.61,-2.1,0.28,21.7169,-49.7604,-18.3694,1023.36
116114,0.430416,9.85174,-0.0334768,1.54,-1.96,-0.28,21.6879,-50.0071,-18.0886,1023.34
116120,0.430416,9.84218,-0.0143472,1.33,-2.31,0.07,22.3271,-50.5931,-17.2759,1023.34
116126,0.439981,9.83261,-0.0286944,1.47,-2.73,0.28,21.8332,-50.6239,-18.6501,1023.32
116132,0.416069,9.83261,-0.0286944,1.75,-2.45,0.21,21.5426,-49.5137,-19.9505,1023.32
116138,0.416069,9.8087,-0.0191296,1.4,-2.52,-0.42,22.0656,-50.3772,-18.0591,1023.36
116144,0.411286,9.77044,-0.0286944,1.47,-2.24,0,21.8332,-50.5005,-18.133,1023.36
116150,0.396939,9.78957,-0.0143472,1.68,-3.01,0.28,21.5426,-50.1305,-20.0539,1023.33
116156,0.444763,9.82783,-0.0191296,1.47,-2.8,0.63,21.5426,-50.7164,-18.2807,1023.33
116162,0.435198,9.83261,-0.0334768,1.05,-2.31,0.42,22.5596,-49.7912,-17.0543,1023.33
116168,0.387374,9.80392,-0.0382592,1.61,-2.59,0.21,21.8913,-49.8221,-18.0148,1023.32
116174,0.401722,9.82783,-0.0382592,1.61,-2.31,0.49,22.4724,-49.8221,-19.1525,1023.32
116180,0.392157,9.81349,-0.071736,1.4,-2.38,0,22.24,-49.8837,-17.3941,1023.32
116186,0.439981,9.83261,-0.0382592,1.75,-2.59,0.35,22.3271,-48.6502,-18.1921,1023.32
116192,0.435198,9.80392,-0.047824,1.4,-2.52,0.35,21.6007,-49.1436,-18.7684,1023.32
116198,0.420851,9.8374,-0.0621712,1.54,-2.52,0.07,21.8332,-50.1305,-17.5271,1023.32
116204,0.420851,9.84696,-0.0095648,1.47,-2.52,0.49,21.9494,-50.0071,-18.458,1023.37
116210,0.387374,9.82783,-0.0286944,1.4,-2.45,0.14,22.24,-49.2669,-18.9309,1023.37
116216,0.416069,9.84696,-0.0430416,1.54,-2.94,0,22.2109,-49.7604,-19.0639,1023.34
116222,0.425634,9.81827,-0.0382592,1.75,-2.45,0.07,22.5886,-50.0379,-18.1182,1023.34
116228,0.411286,9.82783,-0.0143472,1.75,-3.01,-0.07,22.0366,-49.7912,-19.8027,1023.34
116234,0.420851,9.82783,-0.0095648,1.61,-2.59,-0.14,21.5135,-50.4697,-19.7436,1023.32
116240,0.411286,9.8087,-0.0286944,1.82,-2.8,0.42,22.1818,-50.6547,-18.266,1023.32
116246,0.406504,9.8374,-0.047824,1.54,-2.87,-0.14,22.6177,-49.8221,-18.1182,1023.33
116252,0.444763,9.78957,-0.0430416,1.75,-3.15,-0.07,22.5015,-49.9146,-18.9013,1023.33
116258,0.444763,9.8087,-0.0573888,1.68,-2.87,0.42,22.4434,-50.7473,-18.4876,1023.34
116264,0.411286,9.85174,-0.0573888,1.54,-2.73,-0.21,21.6007,-49.9763,-17.9852,1023.34
116270,0.411286,9.8374,-0.0573888,2.1,-2.8,0.7,21.2811,-49.5445,-18.9604,1023.33
116276,0.416069,9.83261,-0.0095648,2.03,-2.73,0.28,22.3562,-50.408,-18.9013,1023.33
116282,0.420851,9.8087,-0.047824,1.75,-2.73,-0.28,21.9785,-50.5622,-18.4728,1023.33
116288,0.430416,9.84696,-0.0286944,2.03,-2.87,0.28,21.9785,-49.2978,-17.9852,1023.34
116294,0.444763,9.8374,-0.0526064,1.4,-2.59,0.35,22.4143,-50.223,-19.3446,1023.34
116300,0.411286,9.83261,-0.0382592,1.68,-2.73,0.21,21.9203,-50.1305,-18.4728,1023.37
116306,0.425634,9.84218,-0.0430416,1.61,-2.45,0.21,21.5426,-49.8221,-17.9409,1023.37
116312,0.430416,9.81827,-0.0526064,1.89,-2.52,0.63,22.0656,-49.637,-19.6549,1023.35
116318,0.396939,9.8374,-0.0334768,1.61,-3.01,-0.21,22.2981,-50.3155,-19.0048,1023.35
116324,0.435198,9.8087,-0.0765184,1.75,-2.73,0.07,21.2811,-49.9763,-17.867,1023.32
116330,0.425634,9.84218,-0.0430416,1.47,-2.45,0.35,22.1818,-49.9146,-19.3003,1023.32
116336,0.416069,9.81349,-0.0669536,1.54,-2.8,0.42,21.6588,-50.1305,-18.2807,1023.32
116342,0.420851,9.82305,-0.0621712,1.47,-2.73,0.35,21.8913,-50.8398,-17.4237,1023.36
116348,0.416069,9.8374,-0.0286944,1.54,-3.15,-0.21,22.0656,-49.0819,-18.3989,1023.36
116354,0.406504,9.80392,-0.0526064,1.47,-2.66,0.56,22.0947,-50.1921,-20.7632,1023.33
116360,0.416069,9.84218,-0.071736,1.89,-3.01,0.49,22.3271,-50.5314,-18.6206,1023.33
116366,0.396939,9.83261,-0.0813008,1.47,-2.94,0,21.2811,-49.3286,-17.7488,1023.33
116372,0.449546,9.81827,-0.047824,1.68,-2.87,0,21.6007,-49.5445,-19.9061,1023.33
116378,0.416069,9.81827,-0.0669536,1.4,-2.52,0.35,21.7169,-50.1613,-18.724,1023.35
116384,0.435198,9.84218,-0.0669536,1.82,-2.8,0,21.8913,-49.637,-19.4333,1023.35
116390,0.463893,9.85653,-0.0669536,1.68,-2.59,0.14,21.3683,-49.8837,-19.0343,1023.34
116396,0.439981,9.8087,-0.0621712,1.4,-2.45,0,21.8913,-49.7604,-18.0443,1023.34
116402,0.454328,9.82305,-0.047824,1.54,-2.59,-0.49,22.0656,-49.7604,-19.1821,1023.34
116408,0.439981,9.84696,-0.0526064,1.54,-2.24,0.28,21.223,-49.2053,-20.1869,1023.34
116414,0.396939,9.8374,-0.0382592,1.54,-2.38,0.35,21.0777,-49.8837,-19.1378,1023.34
116420,0.416069,9.82305,-0.071736,1.47,-2.59,0.07,21.252,-50.4389,-18.9457,1023.34
116426,0.430416,9.85174,-0.0382592,1.26,-1.89,-0.14,21.6007,-50.1921,-18.4876,1023.34
116432,0.454328,9.85174,-0.0813008,1.4,-2.52,0.35,21.4264,-48.7427,-19.2412,1023.3
116438,0.420851,9.8374,-0.0621712,1.4,-2.52,0.28,21.1939,-49.637,-18.0739,1023.3
116444,0.401722,9.80392,-0.023912,1.61,-2.45,0.35,22.2109,-50.5622,-17.4828,1023.34
116450,0.411286,9.81349,-0.0526064,1.47,-2.45,0.14,21.5717,-49.0819,-18.4285,1023.34
116456,0.411286,9.82783,-0.0573888,1.47,-2.31,0.49,21.5717,-49.8837,-18.458,1023.34
116462,0.420851,9.81827,-0.047824,1.26,-2.66,-0.21,22.2981,-49.8221,-18.7831,1023.38
116468,0.425634,9.79914,-0.047824,1.33,-2.73,0.49,21.3973,-49.8221,-17.8818,1023.38
116474,0.411286,9.79436,-0.023912,1.68,-2.45,0.14,21.6588,-50.1613,-17.9704,1023.35
116480,0.425634,9.79436,-0.0669536,1.68,-2.17,0.35,22.0947,-50.3772,-18.3251,1023.35
116486,0.425634,9.84218,-0.0813008,1.68,-2.45,0.49,22.0075,-49.3595,-18.99,1023.32
116492,0.420851,9.81349,-0.0621712,1.61,-2.59,0.28,21.7751,-49.8221,-20.3347,1023.32
116498,0.425634,9.81349,-0.0621712,1.96,-2.31,-0.07,22.2981,-50.8398,-18.7684,1023.33
116504,0.392157,9.8374,-0.0382592,1.4,-2.73,0.49,21.4264,-49.8837,-18.4137,1023.33
116510,0.492587,9.81349,-0.0382592,1.54,-2.73,0.21,21.746,-49.4212,-18.2068,1023.33
116516,0.353898,9.87566,-0.129125,1.26,-2.17,0.49,21.0777,-50.2847,-17.8965,1023.34
116522,0.349115,9.79436,0.047824,1.54,-3.5,0.21,21.9494,-50.5622,-18.7536,1023.34
116528,0.506934,9.86131,-0.186514,1.75,-2.52,0.56,21.5426,-49.8837,-18.6354,1023.32
116534,0.401722,9.88044,-0.0621712,1.33,-2.59,0.42,21.2811,-50.3772,-18.266,1023.32
116540,0.449546,9.78957,-0.0382592,1.4,-2.66,0.56,21.6298,-50.9631,-18.6058,1023.32
116546,0.45911,9.85174,-0.10043,1.54,-2.24,-0.14,21.2811,-50.4697,-17.2021,1023.32
116552,0.382592,9.8087,0,1.4,-3.64,0.56,21.6298,-50.5005,-18.5615,1023.33
116558,0.492587,9.75131,-0.0621712,1.75,-2.52,0.28,21.9494,-50.5931,-16.8474,1023.33
116564,0.420851,9.85174,-0.0286944,1.47,-2.87,0.07,22.2981,-50.6547,-18.99,1023.35
116570,0.45911,9.81349,-0.0860832,1.75,-2.52,0.14,21.6298,-49.637,-18.2955,1023.35
116576,0.435198,9.83261,-0.0813008,1.19,-2.52,0.35,21.6588,-50.9323,-17.8079,1023.35
116582,0.416069,9.82783,-0.0813008,1.26,-2.66,0.28,22.0947,-50.6239,-18.7979,1023.32
116588,0.401722,9.79914,-0.0095648,1.68,-2.87,0.28,21.5426,-49.5445,-18.7536,1023.32
116594,0.411286,9.81349,-0.0430416,1.61,-3.01,0.21,21.6298,-50.8398,-18.3694,1023.32
116600,0.454328,9.85174,-0.0621712,1.61,-2.31,0.42,21.8332,-50.8089,-18.4728,1023.32
116606,0.416069,9.81827,-0.0621712,1.61,-2.8,0.35,22.2109,-50.0688,-19.0491,1023.34
116612,0.411286,9.82783,-0.0382592,1.54,-2.45,0.21,21.7169,-50.4389,-18.0295,1023.34
116618,0.468675,9.81827,-0.0813008,1.26,-2.52,0,21.7751,-50.5622,-19.3742,1023.34
116624,0.468675,9.82783,-0.0765184,1.68,-2.8,0.49,21.3973,-49.3286,-19.1378,1023.34
116630,0.435198,9.8374,-0.0573888,1.4,-3.01,-0.14,21.2811,-49.3595,-18.6501,1023.34
116636,0.439981,9.8374,-0.071736,1.75,-2.38,0.49,21.5717,-50.1305,-18.9309,1023.32
116642,0.45911,9.8374,-0.10043,1.61,-2.59,0.49,21.8332,-51.1482,-18.0148,1023.32
116648,0.449546,9.83261,-0.0526064,1.47,-2.52,0.21,21.0486,-50.3155,-18.8422,1023.35
116654,0.463893,9.8374,-0.0526064,1.4,-2.59,0.63,20.7,-50.0688,-18.724,1023.35
116660,0.468675,9.82305,-0.0526064,1.68,-2.73,0.14,21.252,-50.8706,-17.7192,1023.32
116666,0.425634,9.8374,-0.071736,1.47,-2.17,0,22.0075,-49.6062,-18.724,1023.32
116672,0.435198,9.79914,-0.095648,1.47,-2.17,0,21.6588,-50.3463,-17.8374,1023.33
116678,0.406504,9.80392,-0.047824,1.47,-2.24,-0.42,21.7169,-50.7781,-17.1429,1023.33
116684,0.473458,9.86609,-0.0526064,1.4,-2.31,0.42,21.4554,-50.5622,-16.3746,1023.33
116690,0.420851,9.87087,-0.0573888,1.82,-2.8,0.42,21.4264,-50.0996,-18.1625,1023.36
116696,0.444763,9.84696,-0.0669536,1.75,-2.38,-0.21,21.8622,-50.2847,-16.8474,1023.36
116702,0.449546,9.83261,-0.0813008,1.61,-2.73,0,21.4554,-50.3155,-17.3646,1023.35
116708,0.406504,9.80392,-0.0765184,1.47,-2.73,-0.07,21.1649,-49.9763,-19.1082,1023.35
116714,0.430416,9.8374,-0.0430416,1.4,-2.45,0.21,21.6879,-50.0996,-17.8374,1023.37
116720,0.430416,9.79436,-0.071736,1.12,-2.38,0.07,21.6879,-50.9631,-17.4237,1023.37
116726,0.420851,9.81827,-0.0334768,1.47,-2.73,0,21.3973,-50.3463,-18.5319,1023.35
116732,0.401722,9.84218,-0.0526064,1.68,-2.24,0,21.4845,-50.3155,-17.6601,1023.35
116738,0.420851,9.85174,-0.0621712,1.4,-2.38,0.21,22.1818,-50.9631,-18.7831,1023.32
116744,0.420851,9.8374,-0.0286944,1.33,-2.38,0.56,21.1358,-50.5314,-18.4285,1023.32
116750,0.430416,9.80392,-0.0573888,1.68,-2.73,0.14,21.1358,-50.1613,-17.6306,1023.32
116756,0.420851,9.83261,-0.0430416,1.19,-2.1,0.07,21.6007,-50.4389,-18.0886,1023.29
116762,0.416069,9.81349,-0.0573888,1.89,-2.45,0.14,20.9615,-50.4697,-17.4385,1023.29
116768,0.420851,9.81827,-0.0669536,1.68,-3.08,0.35,21.8041,-50.0688,-18.4137,1023.32
116774,0.392157,9.84218,-0.0813008,1.54,-2.94,0.7,21.5426,-50.2847,-18.0295,1023.32
116780,0.454328,9.78957,-0.047824,1.75,-2.59,0,21.746,-50.6547,-18.3989,1023.33
116786,0.439981,9.81827,-0.047824,1.26,-1.96,-0.07,22.1818,-49.7604,-19.0048,1023.33
116792,0.435198,9.82305,-0.0813008,2.03,-2.73,0.28,21.1358,-50.1305,-18.0886,1023.33
116798,0.463893,9.78957,-0.0430416,1.12,-2.45,0.14,21.3683,-51.0865,-17.0395,1023.33
116804,0.439981,9.81349,-0.0813008,1.54,-1.96,-0.14,21.5135,-50.6239,-19.6845,1023.33
116810,0.454328,9.8374,-0.0765184,1.26,-2.45,0.14,21.1649,-50.2538,-17.6749,1023.3
116816,0.425634,9.8374,-0.0382592,1.54,-2.59,0.14,20.9324,-50.3155,-17.9704,1023.3
116822,0.401722,9.82305,-0.0382592,1.33,-2.8,0.56,21.7751,-49.7295,-17.734,1023.33
116828,0.420851,9.82305,-0.047824,1.47,-2.24,0.35,21.2811,-49.3595,-18.4876,1023.33
116834,0.425634,9.82305,-0.0526064,1.54,-2.8,-0.21,21.3683,-50.5622,-17.9852,1023.34
116840,0.411286,9.79436,-0.047824,1.4,-2.45,0.42,21.4554,-50.1613,-16.3894,1023.34
116846,0.411286,9.82305,-0.0430416,1.33,-2.38,0.49,20.6418,-49.637,-17.335,1023.33
116852,0.430416,9.81827,-0.071736,1.75,-2.87,-0.35,22.3562,-49.3595,-17.3203,1023.33
116858,0.420851,9.83261,-0.0191296,1.47,-2.59,0.07,21.252,-50.2538,-17.2907,1023.33
116864,0.435198,9.78479,-0.0860832,1.54,-2.52,0.84,21.252,-50.8706,-18.8866,1023.34
116870,0.420851,9.82783,-0.023912,1.75,-2.38,0.42,20.6128,-50.6856,-20.2608,1023.34
116876,0.425634,9.84218,-0.0621712,1.05,-2.59,0.7,21.4264,-50.8089,-17.8374,1023.31
116882,0.47824,9.83261,-0.0860832,1.68,-2.59,0.21,21.9785,-50.6547,-18.266,1023.31
116888,0.492587,9.85174,-0.0669536,1.12,-2.73,-0.35,21.5135,-50.1921,-18.2807,1023.34
116894,0.425634,9.84696,-0.0669536,1.26,-2.38,0.14,21.6879,-50.1921,-18.8866,1023.34
116900,0.45911,9.8374,-0.0765184,1.4,-2.52,0.35,22.2981,-50.408,-18.133,1023.31
116906,0.435198,9.83261,-0.047824,1.47,-2.66,-0.21,21.0777,-50.0688,-18.3398,1023.31
116912,0.396939,9.78957,-0.023912,1.61,-2.66,0.07,21.0196,-50.1613,-18.7979,1023.35
116918,0.420851,9.8374,-0.0573888,1.12,-2.17,-0.14,21.3973,-51.0248,-18.3842,1023.35
116924,0.420851,9.82783,-0.071736,1.33,-2.66,0.21,21.2811,-50.4389,-18.4285,1023.35
116930,0.416069,9.79914,-0.0095648,1.61,-2.66,0.21,21.3392,-49.5445,-18.4728,1023.34
116936,0.416069,9.81349,-0.0334768,1.26,-2.52,17.85,21.5717,-49.9454,-16.6258,1023.34
116942,0.444763,9.83261,-0.0860832,1.47,-2.52,-0.14,21.5135,-50.8398,-18.0443,1023.33
116948,0.420851,9.85174,-0.0908656,1.61,-2.45,0.28,20.9615,-50.6239,-17.8965,1023.33
116954,0.430416,9.85174,-0.071736,1.75,-2.8,0.35,22.5596,-50.7164,-18.3398,1023.33
116960,0.430416,9.84218,-0.109995,1.61,-2.8,0.35,22.6468,-51.3332,-17.4237,1023.33
116966,0.449546,9.81827,-0.0669536,1.89,-2.59,0.07,21.6879,-49.8529,-18.0443,1023.33
116972,0.425634,9.83261,-0.0813008,1.75,-2.38,-0.07,22.6758,-49.7604,-19.2116,1023.33
116978,0.439981,9.83261,-0.0669536,1.4,-2.31,0.56,21.6007,-50.7781,-17.6453,1023.33
116984,0.425634,9.85174,-0.0573888,1.68,-2.52,-0.07,22.3271,-50.3772,-18.5763,1023.3
116990,0.439981,9.81827,-0.095648,1.61,-2.52,-0.07,21.6007,-50.408,-19.2116,1023.3
116996,0.45911,9.85174,-0.0573888,1.68,-2.59,0.21,21.8041,-50.4697,-17.3055,1023.35
117002,0.435198,9.83261,-0.0813008,1.61,-2.52,0.14,21.9203,-50.7473,-17.8374,1023.35
117008,0.444763,9.84696,-0.0860832,1.47,-2.45,0.42,21.8041,-50.3155,-17.7045,1023.32
117014,0.425634,9.83261,-0.0669536,1.54,-2.66,0.21,21.8041,-50.3772,-17.2316,1023.32
117020,0.435198,9.85174,-0.0621712,1.54,-2.52,-0.28,21.3101,-50.7781,-17.6897,1023.28
117026,0.425634,9.81349,-0.071736,1.54,-2.24,-0.07,21.2811,-50.1613,-18.1034,1023.28
117032,0.425634,9.8374,-0.0813008,1.05,-2.31,0.35,21.223,-50.0071,-19.3446,1023.28
117038,0.411286,9.83261,-0.0860832,1.89,-2.73,-0.21,22.3852,-50.6239,-17.3055,1023.32
117044,0.392157,9.8087,-0.0621712,1.4,-2.17,-0.07,21.8913,-50.1305,-18.9161,1023.32
117050,0.463893,9.8087,-0.047824,1.33,-2.66,0.21,21.1067,-50.7781,-18.6649,1023.33
117056,0.396939,9.83261,-0.0860832,1.68,-2.94,-0.14,21.746,-50.4389,-18,1023.33
117062,0.416069,9.88044,-0.0813008,1.61,-2.31,-0.28,22.5596,-49.8529,-18.2216,1023.32
117068,0.444763,9.83261,-0.0621712,1.68,-2.24,0.49,21.5135,-50.0688,-19.0343,1023.32
117074,0.449546,9.85174,-0.0765184,1.33,-2.03,-0.07,22.1237,-50.2847,-17.6749,1023.32
117080,0.483022,9.81827,-0.11956,1.47,-1.68,0.49,22.3271,-50.1305,-17.9113,1023.32
117086,0.329986,9.78001,-0.0047824,1.68,-3.29,0.42,21.223,-49.7912,-18.3546,1023.33
117092,0.530846,9.82305,-0.176949,1.75,-2.24,-0.28,21.0196,-49.4828,-17.2907,1023.33
117098,0.444763,9.89957,-0.10043,1.05,-2.1,-0.21,22.0366,-50.4697,-16.8622,1023.33
117104,0.411286,9.78001,-0.0382592,1.75,-2.8,0.35,22.0947,-50.3772,-18.2216,1023.32
117110,0.454328,9.8374,-0.0621712,1.4,-2.38,0.35,20.9905,-50.5005,-18.1034,1023.32
117116,0.420851,9.84218,-0.11956,1.12,-2.17,-0.28,21.746,-50.6856,-16.8326,1023.31
117122,0.449546,9.81827,-0.0430416,1.19,-2.31,0.35,21.223,-50.0688,-17.2168,1023.31
117128,0.416069,9.86131,-0.0430416,1.47,-2.38,0.21,21.4845,-50.0996,-18.3989,1023.35
117134,0.454328,9.82305,-0.0573888,1.33,-2.31,0,21.5426,-50.0996,-18.6354,1023.35
117140,0.425634,9.81827,-0.047824,1.33,-2.38,0.14,21.7751,-51.3024,-17.9409,1023.35
117146,0.401722,9.8087,-0.047824,1.4,-2.52,0.14,21.6588,-50.1921,-19.0196,1023.35
117152,0.449546,9.82783,-0.0669536,1.4,-2.17,0,21.2811,-50.3463,-17.7488,1023.35
117158,0.373027,9.8374,-0.0526064,1.61,-2.24,0.14,22.3852,-51.3332,-17.7636,1023.33
117164,0.430416,9.83261,-0.023912,1.19,-2.31,0.28,21.8913,-50.8089,-17.5567,1023.33
117170,0.425634,9.83261,-0.0813008,1.75,-2.24,0.21,22.2109,-50.2538,-17.6749,1023.35
117176,0.411286,9.81827,-0.0669536,1.26,-2.38,0.28,21.3683,-51.3332,-18.3989,1023.35
117182,0.420851,9.82305,-0.0860832,1.54,-2.45,-0.35,21.8913,-50.0996,-16.9213,1023.33
117188,0.439981,9.83261,-0.0430416,1.33,-2.59,-0.14,21.5717,-49.2978,-18.3842,1023.33
117194,0.425634,9.83261,-0.0382592,1.47,-2.52,0.21,22.1528,-50.1921,-17.7783,1023.33
117200,0.416069,9.81827,-0.0382592,1.61,-2.52,0.42,20.9615,-50.5314,-17.7045,1023.33
117206,0.430416,9.81827,-0.0143472,1.54,-2.45,0.28,21.8332,-50.1613,-19.8027,1023.33
117212,0.444763,9.81349,-0.0430416,1.47,-2.38,0.42,21.252,-50.4697,-17.9261,1023.35
117218,0.411286,9.84696,-0.0382592,1.47,-2.73,0.07,21.4264,-51.3024,-18.5319,1023.35
117224,0.444763,9.78957,-0.0621712,1.47,-2.66,0,21.9203,-50.2538,-18.3989,1023.35
117230,0.430416,9.85174,-0.105213,1.68,-2.52,-0.07,21.223,-49.3903,-18.9752,1023.35
117236,0.425634,9.84696,-0.0286944,1.47,-2.73,0.14,20.7871,-50.6239,-18.1773,1023.32
117242,0.435198,9.84696,-0.0430416,1.33,-2.45,-0.28,21.4264,-51.2715,-17.9556,1023.32
117248,0.430416,9.83261,-0.0382592,1.47,-2.1,0.21,21.0777,-49.9454,-19.389,1023.35
117254,0.387374,9.82783,-0.0191296,1.4,-2.38,0.07,21.1649,-50.2538,-19.2412,1023.35
117260,0.396939,9.81827,-0.0669536,1.89,-2.59,0.28,21.5135,-50.7473,-17.601,1023.33
117266,0.416069,9.81827,-0.0382592,1.4,-2.52,-0.14,21.0777,-49.8837,-19.4776,1023.33
117272,0.392157,9.79914,-0.047824,1.75,-2.8,0,21.2811,-49.9146,-17.9704,1023.33
117278,0.444763,9.86609,-0.0526064,1.82,-2.73,0.07,20.8452,-51.4874,-19.5663,1023.31
117284,0.430416,9.79914,0.0047824,1.19,-2.45,0.56,21.9785,-50.5005,-18.6797,1023.31
117290,0.406504,9.79914,0.0095648,1.96,-3.15,0.21,21.5426,-50.4697,-17.9556,1023.33
117296,0.439981,9.84696,-0.0669536,1.47,-2.31,0.28,22.0947,-50.7781,-17.7488,1023.33
117302,0.420851,9.81349,-0.0573888,1.61,-2.24,0.49,21.9494,-50.1305,-17.9556,1023.35
117308,0.435198,9.79914,-0.0191296,1.89,-2.52,0.42,21.4264,-49.6987,-18.1625,1023.35
117314,0.406504,9.79436,-0.0286944,1.75,-2.59,-0.07,21.6879,-49.9146,-18.2364,1023.33
117320,0.439981,9.84218,-0.0334768,1.4,-2.38,0.35,22.4434,-50.5314,-18.5467,1023.33
117326,0.416069,9.80392,-0.0813008,1.75,-2.31,0.49,21.746,-50.3463,-17.9556,1023.33
117332,0.439981,9.81349,-0.023912,1.68,-2.66,-0.14,22.1237,-50.1305,-18.3694,1023.33
117338,0.449546,9.82305,-0.071736,1.47,-2.38,0.07,21.5426,-50.4697,-17.4089,1023.33
117344,0.430416,9.84696,-0.0382592,1.26,-2.24,-0.07,22.6468,-50.1305,-18.5763,1023.31
117350,0.454328,9.80392,-0.0526064,1.54,-2.73,0.28,22.9083,-49.5445,-20.512,1023.31
117356,0.396939,9.81827,-0.0382592,1.54,-2.45,0.28,22.0075,-50.6856,-19.1082,1023.32
117362,0.435198,9.81827,-0.0286944,1.82,-2.59,0.84,22.24,-50.3772,-18.1182,1023.32
117368,0.435198,9.85174,-0.0908656,1.61,-2.59,-0.21,21.223,-49.8837,-17.2316,1023.32
117374,0.406504,9.84218,-0.0860832,1.4,-2.59,-0.28,21.8913,-50.3772,-19.1821,1023.32
117380,0.420851,9.83261,-0.0813008,1.61,-2.52,0.42,21.4845,-50.8089,-16.9952,1023.32
117386,0.406504,9.8374,-0.047824,1.61,-2.59,0.14,21.4845,-50.1613,-18.4728,1023.31
117392,0.430416,9.81349,-0.0286944,1.54,-2.45,-0.35,21.252,-50.5005,-17.867,1023.31
117398,0.439981,9.82305,-0.0382592,1.75,-2.31,0.28,21.6879,-50.6856,-17.5124,1023.34
117404,0.425634,9.84696,-0.0669536,1.47,-2.17,0.77,21.0777,-50.5314,-18.6945,1023.34
117410,0.425634,9.82783,-0.095648,1.82,-2.24,0.21,21.6588,-50.0688,-19.1082,1023.35
117416,0.425634,9.81827,-0.0382592,1.33,-2.1,0.35,21.5717,-50.5005,-17.6601,1023.35
117422,0.406504,9.80392,-0.023912,1.82,-2.52,-0.21,20.9905,-50.3772,-17.2464,1023.33
117428,0.425634,9.8374,-0.0430416,1.47,-2.59,0.14,20.8162,-50.2847,-19.5811,1023.33
117434,0.444763,9.8374,-0.0669536,1.4,-2.31,0.21,20.8743,-50.6547,-18.2364,1023.33
117440,0.406504,9.82305,-0.0765184,1.47,-2.87,0,21.6298,-50.6547,-18.3103,1023.33
117446,0.430416,9.8374,-0.0669536,1.54,-2.73,-0.07,21.4554,-50.3155,-18.5467,1023.33
117452,0.411286,9.82305,-0.0860832,1.47,-2.1,0.77,21.6298,-50.2538,-18.3546,1023.33
117458,0.420851,9.8087,-0.071736,1.75,-2.59,0.07,21.5135,-51.179,-18.0443,1023.33
117464,0.45911,9.84696,-0.0813008,1.61,-2.38,-0.21,20.6709,-50.8398,-17.7931,1023.33
117470,0.444763,9.84218,-0.071736,1.33,-2.52,0,21.0486,-49.7604,-18.3694,1023.33
117476,0.396939,9.83261,-0.0430416,1.61,-2.66,0.21,21.746,-51.0248,-17.3498,1023.32
117482,0.435198,9.8087,-0.0669536,1.68,-2.66,0.35,20.7,-51.8883,-18.8275,1023.32
117488,0.416069,9.82783,-0.0669536,1.26,-2.45,0.42,21.5717,-50.2847,-19.256,1023.3
117494,0.439981,9.82305,-0.0191296,1.05,-2.24,-0.07,21.5717,-50.5622,-18.2807,1023.3
117500,0.406504,9.79914,-0.0286944,1.68,-2.45,-0.42,22.1237,-50.0688,-18.5319,1023.3
117506,0.430416,9.8374,-0.0765184,1.33,-2.52,0.35,21.6007,-50.0071,-18.6501,1023.29
117512,0.425634,9.86131,-0.0526064,1.68,-2.73,0.42,21.5426,-50.4697,-19.4924,1023.29
117518,0.439981,9.82305,-0.0573888,1.4,-2.45,-0.07,20.9905,-50.3463,-17.4828,1023.31
117524,0.401722,9.81349,-0.0669536,1.47,-2.8,0.28,21.9494,-50.1613,-17.7783,1023.31
117530,0.416069,9.80392,-0.0621712,1.33,-2.59,0.28,22.1237,-50.3463,-18.6945,1023.32
117536,0.416069,9.8374,-0.047824,1.89,-2.52,-0.07,22.2109,-50.6856,-18.7388,1023.32
117542,0.420851,9.82305,-0.0526064,1.4,-2.38,17.71,21.746,-50.5622,-17.9852,1023.34
117548,0.449546,9.83261,-0.071736,1.68,-2.59,-0.21,21.8332,-50.2847,-19.2855,1023.34
117554,0.411286,9.8374,-0.071736,1.68,-2.8,0.35,21.6879,-50.5005,-18.3989,1023.34
117560,0.454328,9.81349,-0.0813008,1.68,-2.38,0.28,21.252,-50.3772,-17.9261,1023.3
117566,0.47824,9.84218,-0.0765184,1.47,-2.31,0,21.5717,-50.0379,-19.2412,1023.3
117572,0.430416,9.80392,-0.0526064,1.4,-2.45,0,21.1358,-49.2978,-17.734,1023.3
117578,0.396939,9.85174,-0.0334768,1.26,-2.52,0.21,20.9034,-50.2847,-18.4876,1023.3
117584,0.444763,9.83261,-0.0382592,1.61,-3.01,-0.14,20.729,-51.3024,-18.1921,1023.32
117590,0.444763,9.81349,-0.071736,1.54,-2.59,0.21,21.3683,-49.6679,-18.7092,1023.32
117596,0.430416,9.82305,-0.0860832,1.19,-2.45,0.42,21.4845,-50.5622,-17.5124,1023.3
117602,0.411286,9.8087,-0.0286944,1.68,-2.31,0,22.0947,-50.2847,-17.7192,1023.3
117608,0.396939,9.83261,-0.0382592,1.33,-2.66,17.71,21.6879,-49.0819,-19.3003,1023.3
117614,0.416069,9.81827,-0.047824,1.61,-2.31,-0.21,21.6007,-50.0996,-18.5763,1023.33
117620,0.454328,9.85653,-0.0765184,1.89,-2.59,0,21.6879,-50.9323,-18.8718,1023.33
117626,0.401722,9.8087,-0.071736,1.47,-2.87,0.49,21.3101,-49.5137,-18.5024,1023.32
117632,0.430416,9.81827,-0.0286944,1.47,-2.66,0.21,21.9785,-49.2053,-18.8127,1023.32
117638,0.430416,9.86131,-0.0621712,1.47,-2.31,0,21.6007,-50.5314,-17.8818,1023.31
117644,0.396939,9.82305,-0.0621712,1.96,-2.8,0.56,21.4845,-50.1305,-18.99,1023.31
117650,0.463893,9.84696,-0.0813008,1.68,-2.52,0.07,21.7169,-49.7295,-18.3103,1023.29
117656,0.420851,9.78957,-0.0669536,1.47,-2.03,-0.35,22.2981,-50.7781,-18.9309,1023.29
117662,0.416069,9.8087,-0.0669536,1.75,-2.38,0.35,21.8622,-50.994,-18.8718,1023.32
117668,0.439981,9.84218,-0.0573888,1.61,-2.59,0,20.4675,-49.0511,-19.1378,1023.32
117674,0.406504,9.80392,-0.0382592,1.54,-2.17,-0.28,21.6588,-49.9763,-18.0295,1023.32
117680,0.420851,9.82305,-0.071736,1.26,-2.59,0.28,21.7751,-50.0688,-17.2759,1023.33
117686,0.430416,9.81349,-0.0573888,1.4,-2.17,0.14,21.5717,-50.1613,-18.3103,1023.33
117692,0.37781,9.80392,-0.023912,1.4,-1.96,0.35,21.6007,-50.5005,-17.8522,1023.35
117698,0.425634,9.84696,-0.0286944,1.26,-2.66,0.07,21.4264,-50.1921,-17.3646,1023.35
117704,0.401722,9.82783,-0.071736,1.68,-2.87,-0.56,21.3101,-50.3463,-18.3989,1023.31
117710,0.435198,9.84218,-0.0526064,1.68,-2.73,0.49,21.1649,-49.4828,-18.1625,1023.31
117716,0.425634,9.85174,-0.0669536,1.33,-1.96,0.63,21.8041,-50.3772,-16.1086,1023.31
117722,0.435198,9.83261,-0.0334768,1.33,-2.45,-0.35,21.6298,-50.223,-17.3794,1023.31
117728,0.401722,9.79914,-0.0430416,1.33,-2.59,-0.07,21.6879,-49.7604,-18.5615,1023.31
117734,0.420851,9.80392,-0.0573888,1.61,-2.1,0.7,21.2811,-49.9146,-18.591,1023.32
117740,0.463893,9.86131,-0.0621712,1.33,-2.17,-0.07,21.1649,-50.2847,-17.1725,1023.32
117746,0.439981,9.82305,-0.0526064,1.26,-2.52,0.28,21.0486,-50.5314,-18.5763,1023.33
117752,0.387374,9.8087,-0.0095648,1.61,-3.22,0,21.223,-50.0688,-18.1477,1023.33
117758,0.463893,9.86609,-0.0860832,1.54,-2.73,-0.07,21.3683,-50.5314,-18.8866,1023.31
117764,0.454328,9.81349,-0.0430416,1.89,-2.31,0.49,21.5135,-49.7295,-18.2512,1023.31
117770,0.439981,9.83261,-0.0334768,1.68,-2.66,0,21.0196,-50.0996,-18.7979,1023.33
117776,0.444763,9.83261,-0.0621712,1.68,-2.45,0,21.6298,-50.0071,-17.4828,1023.33
117782,0.420851,9.81827,-0.0191296,1.75,-2.66,0.14,21.6007,-50.6547,-18.7684,1023.33
117788,0.420851,9.87087,-0.071736,2.03,-2.66,0.21,21.3973,-49.3595,-20.0982,1023.34
117794,0.425634,9.84218,-0.0382592,1.82,-3.08,-0.28,21.5426,-50.408,-19.3594,1023.34
117800,0.430416,9.79436,-0.0334768,1.61,-2.73,0.21,20.9905,-50.9323,-17.6306,1023.32
117806,0.411286,9.82783,-0.0669536,1.54,-2.24,0.56,22.269,-49.3595,-19.6254,1023.32
117812,0.430416,9.81827,-0.0430416,1.33,-2.31,0.28,20.9615,-50.6547,-19.5367,1023.35
117818,0.430416,9.81827,-0.047824,1.47,-2.45,0.21,21.0777,-50.6239,-17.335,1023.35
117824,0.406504,9.81827,-0.0765184,1.82,-3.01,0.07,21.4264,-49.9146,-18.266,1023.3
117830,0.435198,9.81349,-0.0430416,1.68,-2.38,-0.07,21.6879,-50.1305,-19.6254,1023.3
117836,0.45911,9.84218,-0.0526064,1.75,-2.73,0.42,21.3392,-50.7164,-18.3546,1023.3
117842,0.463893,9.83261,-0.0669536,1.33,-2.52,0.07,21.5426,-51.179,-18.266,1023.3
117848,0.425634,9.81827,-0.0621712,1.61,-2.8,0.28,21.223,-50.1921,-19.5367,1023.3
117854,0.420851,9.83261,-0.047824,1.4,-2.45,0.21,22.1528,-50.9631,-17.9261,1023.31
117860,0.430416,9.84218,-0.071736,1.61,-2.66,0,21.6298,-51.3641,-19.5072,1023.31
117866,0.449546,9.81827,-0.0382592,1.54,-2.66,0.21,21.2811,-49.7912,-19.0196,1023.34
117872,0.396939,9.84218,-0.0526064,1.47,-2.24,0.56,21.8041,-49.8837,-18.2512,1023.34
117878,0.439981,9.82783,-0.0526064,1.19,-2.8,0.07,21.2811,-51.0248,-17.6453,1023.33
117884,0.420851,9.84218,-0.023912,1.4,-2.87,-0.14,21.1649,-49.7912,-18.5467,1023.33
117890,0.420851,9.83261,-0.047824,1.54,-2.8,0.28,21.746,-50.5314,-19.714,1023.34
117896,0.392157,9.80392,-0.0430416,1.4,-2.59,0.56,21.4264,-50.5931,-17.3794,1023.34
117902,0.425634,9.8087,-0.071736,2.03,-2.59,-0.07,21.8332,-50.2538,-17.6306,1023.34
117908,0.473458,9.82783,-0.047824,1.19,-2.45,-0.35,21.4264,-50.2847,-18.4433,1023.29
117914,0.444763,9.79914,-0.047824,1.82,-2.31,0.28,20.9905,-50.4389,-18.4137,1023.29
117920,0.411286,9.81827,-0.0095648,1.68,-2.66,0.28,22.24,-50.994,-19.4037,1023.34
117926,0.425634,9.82305,-0.0526064,1.61,-2.45,-0.14,21.3683,-50.2847,-20.113,1023.34
117932,0.449546,9.84218,-0.071736,1.4,-2.45,0.14,20.3513,-50.8398,-18.3103,1023.36
117938,0.420851,9.83261,-0.047824,1.47,-2.17,0.35,21.7751,-51.1482,-18.0443,1023.36
117944,0.430416,9.81349,-0.0669536,1.82,-2.38,0.21,21.1649,-49.7604,-18.7979,1023.3
117950,0.444763,9.84218,-0.0860832,1.96,-2.52,0.35,20.9615,-50.4697,-19.3742,1023.3
117956,0.411286,9.83261,-0.0621712,1.47,-2.73,0.07,21.6298,-51.1173,-18.2068,1023.3
117962,0.430416,9.8374,-0.0621712,1.54,-2.31,0.14,21.2811,-50.1921,-17.5271,1023.32
117968,0.387374,9.81827,-0.0526064,1.47,-2.52,0.28,21.5135,-50.2847,-18.7831,1023.32
117974,0.430416,9.78479,-0.0286944,1.54,-3.15,0.07,21.3101,-50.5314,-17.5715,1023.31
117980,0.449546,9.82305,-0.0860832,1.75,-2.8,-0.14,20.8743,-50.6239,-17.1725,1023.31
117986,0.435198,9.81827,-0.0382592,1.26,-2.1,0.63,21.0777,-50.1613,-18.1182,1023.33
117992,0.444763,9.82783,-0.0621712,1.47,-2.38,0.56,21.4554,-49.6679,-18.0295,1023.33
117998,0.420851,9.81827,-0.0669536,1.68,-2.87,0.21,22.4434,-50.2847,-18.3251,1023.31
118004,0.449546,9.81827,-0.0526064,1.47,-2.73,-0.21,21.4554,-50.408,-19.2855,1023.31
118010,0.430416,9.77523,0.0095648,1.61,-2.94,0.7,21.5135,-50.1613,-18.1477,1023.33
118016,0.416069,9.78479,-0.0047824,1.68,-2.87,0.14,22.4434,-50.3463,-17.5419,1023.33
118022,0.416069,9.81349,-0.133907,2.03,-2.8,0.77,22.3562,-50.8706,-18.7536,1023.33
118028,0.463893,9.90913,-0.0860832,1.12,-2.45,0.07,21.8332,-50.223,-19.0196,1023.32
118034,0.406504,9.76088,0.0286944,1.61,-2.38,0.21,21.9494,-49.9454,-17.0838,1023.32
118040,0.382592,9.77523,-0.0286944,1.75,-2.87,0.35,21.3683,-50.9015,-17.9704,1023.31
118046,0.401722,9.78957,0.0143472,2.1,-2.52,0.56,21.5717,-50.2847,-18.5172,1023.31
118052,0.382592,9.78001,-0.0573888,2.03,-3.43,0.21,21.9203,-50.0688,-19.3003,1023.33
118058,0.33955,9.83261,-0.124342,2.17,-3.29,0.7,21.1358,-50.7164,-18.4137,1023.33
118064,0.516499,9.87566,-0.0765184,1.89,-3.22,0.56,21.746,-50.408,-19.1525,1023.31
118070,0.396939,9.82305,-0.0669536,1.61,-2.52,0.28,21.1939,-50.5005,-19.123,1023.31
118076,0.401722,9.76088,0.0765184,1.96,-3.15,0.49,22.6468,-50.8398,-18.2955,1023.31
118082,0.449546,9.84696,-0.0908656,1.96,-3.57,0.91,21.6298,-50.5931,-18.2512,1023.32
118088,0.47824,9.85653,-0.0908656,1.89,-3.5,0.28,21.9785,-50.0379,-19.6106,1023.32
118094,0.444763,9.84218,-0.0813008,1.47,-2.94,0.56,21.6298,-50.6547,-18.1625,1023.31
118100,0.439981,9.87566,-0.0908656,1.89,-2.52,0.56,21.252,-50.1613,-19.1821,1023.31
118106,0.487805,9.86609,-0.191296,1.75,-3.15,0,20.8162,-49.7604,-18.8718,1023.33
118112,0.449546,9.88044,-0.109995,1.68,-2.66,-0.28,21.3683,-50.2538,-17.9852,1023.33
118118,0.411286,9.85653,-0.10043,1.33,-2.45,0.35,21.5135,-51.3332,-18.6797,1023.34
118124,0.435198,9.81827,-0.0860832,1.75,-2.94,0.14,21.3101,-50.3463,-18.4433,1023.34
118130,0.406504,9.86609,-0.13869,1.68,-2.73,0.28,21.5135,-50.4389,-19.5072,1023.34
118136,0.463893,9.86131,-0.133907,1.82,-2.73,0.21,21.1358,-50.9015,-17.9409,1023.31
118142,0.45911,9.86609,-0.157819,1.19,-2.1,0.28,21.0486,-50.0071,-17.4828,1023.31
118148,0.411286,9.82783,-0.0860832,1.19,-2.1,-0.21,21.252,-50.4389,-17.468,1023.3
118154,0.387374,9.79914,-0.0143472,1.47,-2.38,0.49,21.7751,-50.8706,-18.857,1023.3
118160,0.463893,9.85174,-0.0526064,1.61,-2.73,0.21,21.1939,-51.2715,-17.1725,1023.3
118166,0.45911,9.87566,-0.148254,1.05,-2.24,-0.21,21.7169,-49.8837,-18.3842,1023.3
118172,0.420851,9.84696,-0.0430416,1.26,-2.17,-0.21,21.9494,-49.9763,-18.1034,1023.32
118178,0.411286,9.82783,-0.023912,1.26,-2.59,0.56,22.0947,-49.7295,-16.8917,1023.32
118184,0.435198,9.8374,-0.0813008,1.19,-2.24,-0.07,21.6007,-50.5005,-19.6106,1023.32
118190,0.468675,9.84696,-0.071736,1.26,-2.24,0.07,21.1649,-50.1921,-19.8766,1023.32
118196,0.444763,9.82305,-0.0908656,1.4,-2.38,0.21,20.8452,-51.2099,-18.3251,1023.32
118202,0.435198,9.85174,-0.0430416,1.33,-2.17,0.07,20.8162,-51.7958,-19.0787,1023.33
118208,0.430416,9.81349,-0.0621712,1.47,-2.52,-0.21,21.3973,-50.5005,-19.0639,1023.33
118214,0.420851,9.84218,-0.095648,1.47,-2.59,0,20.4094,-51.0248,-18.8866,1023.31
118220,0.411286,9.83261,-0.0813008,1.89,-2.66,-0.21,21.2811,-51.0865,-17.7488,1023.31
118226,0.416069,9.86609,-0.095648,1.4,-2.17,0.28,20.8162,-50.8706,-18.591,1023.34
118232,0.444763,9.81827,-0.0669536,1.4,-2.24,0.07,20.7871,-50.7781,-19.6845,1023.34
118238,0.439981,9.82305,-0.047824,1.47,-2.31,-0.21,21.223,-51.2715,-18.2364,1023.31
118244,0.420851,9.83261,-0.0813008,1.68,-2.59,0,21.4264,-50.3155,-19.4037,1023.31
118250,0.411286,9.82305,-0.0669536,1.33,-2.17,0.63,21.3973,-50.5622,-18.7684,1023.31
118256,0.439981,9.79914,-0.071736,1.26,-2.17,0.35,21.7169,-51.4257,-16.8917,1023.32
118262,0.449546,9.82783,-0.047824,1.61,-2.24,-0.07,21.8041,-50.9015,-17.2021,1023.32
118268,0.444763,9.8374,-0.071736,1.47,-2.03,0.49,21.4845,-50.1305,-19.4333,1023.31
118274,0.439981,9.82305,-0.0765184,1.05,-2.1,0.35,21.3101,-50.7164,-18.6797,1023.31
118280,0.47824,9.84696,-0.0908656,1.4,-2.1,0.21,21.5717,-51.0248,-17.1282,1023.28
118286,0.353898,9.79436,0.0095648,1.61,-2.38,0.14,21.223,-50.3772,-18.5024,1023.28
118292,0.449546,9.77044,-0.0430416,1.89,-2.59,-0.21,21.8332,-50.6856,-17.8374,1023.31
118298,0.454328,9.88522,-0.0860832,1.47,-2.24,0.28,21.4554,-51.3024,-16.2416,1023.31
118304,0.396939,9.84218,-0.0765184,1.33,-2.24,0.07,21.3392,-50.2538,-17.6453,1023.31
118310,0.420851,9.85653,-0.0573888,1.82,-2.24,0.07,21.3973,-50.3155,-19.256,1023.28
118316,0.444763,9.85653,-0.071736,1.33,-2.38,0.07,21.6588,-50.9015,-18.133,1023.28
118322,0.416069,9.84696,-0.0430416,1.47,-2.17,-0.42,21.8913,-51.179,-19.0639,1023.3
118328,0.454328,9.8374,-0.0813008,1.89,-2.66,-0.35,21.6879,-50.1613,-18.6354,1023.3
118334,0.430416,9.83261,-0.0334768,2.03,-2.1,0.42,21.8913,-51.0557,-17.5124,1023.31
118340,0.411286,9.8374,-0.0382592,1.33,-2.45,0.21,21.4554,-51.0557,-19.3446,1023.31
118346,0.444763,9.8374,-0.114778,1.4,-2.24,-0.21,21.3101,-50.0379,-18.5615,1023.3
118352,0.416069,9.79914,-0.0191296,1.61,-2.31,-0.07,21.3392,-50.9323,-18.8866,1023.3
118358,0.435198,9.82305,-0.0765184,1.4,-2.38,-0.21,21.3683,-51.6725,-19.3151,1023.33
118364,0.449546,9.87566,-0.0908656,1.68,-2.66,0.07,21.8622,-50.3155,-18.4285,1023.33
118370,0.444763,9.81349,-0.095648,1.54,-1.47,0.14,21.0196,-49.8529,-18.7831,1023.33
118376,0.406504,9.79436,-0.0382592,1.4,-2.52,-0.42,21.3392,-51.6108,-18.3103,1023.32
118382,0.439981,9.78957,-0.0621712,1.68,-2.31,-0.07,21.8332,-50.4389,-18.266,1023.32
118388,0.392157,9.81349,-0.0573888,1.05,-2.17,-0.07,20.8162,-51.0865,-19.7436,1023.33
118394,0.439981,9.8087,-0.0573888,1.47,-2.45,-0.07,21.1067,-50.7473,-19.6254,1023.33
118400,0.411286,9.8374,-0.0621712,1.54,-2.59,0.35,20.9034,-50.4389,-18.1034,1023.33
118406,0.396939,9.79436,-0.0382592,1.89,-2.8,0.21,20.7871,-49.8529,-19.0196,1023.33
118412,0.420851,9.79914,-0.0334768,1.54,-2.31,0.14,21.4264,-49.7912,-18.7092,1023.33
118418,0.439981,9.82305,-0.114778,1.61,-2.38,0.21,21.1939,-50.5622,-17.7636,1023.33
118424,0.406504,9.86131,-0.0573888,1.47,-2.24,0.07,21.4264,-50.223,-17.3941,1023.33
118430,0.406504,9.79914,-0.0430416,1.68,-2.52,-0.28,21.1649,-50.223,-18.6354,1023.31
118436,0.49737,9.77523,-0.0621712,1.47,-2.45,0.21,21.6588,-51.179,-16.6553,1023.31
118442,0.420851,9.84696,-0.0765184,1.61,-2.24,0.07,21.1649,-50.5314,-17.9409,1023.29
118448,0.344333,9.87087,-0.0765184,1.54,-2.59,0.28,20.8452,-49.5753,-19.5663,1023.29
118454,0.454328,9.81349,-0.0382592,1.47,-2.38,0.14,21.1358,-50.994,-17.7931,1023.3
118460,0.396939,9.85174,-0.0621712,1.61,-2.38,-0.07,21.7169,-50.8706,-17.0691,1023.3
118466,0.435198,9.82305,-0.071736,1.54,-2.73,-0.35,20.5256,-49.9763,-19.3742,1023.33
118472,0.420851,9.81827,-0.0621712,1.54,-2.31,0.42,21.0777,-50.3155,-17.5567,1023.33
118478,0.420851,9.8374,-0.0573888,1.4,-2.66,0.14,21.0196,-51.3641,-17.3498,1023.33
118484,0.430416,9.82305,-0.0430416,1.75,-2.66,0.28,20.5547,-50.1613,-17.0838,1023.3
118490,0.45911,9.8374,-0.0860832,1.75,-2.52,0,20.6709,-50.0996,-18.3842,1023.3
118496,0.430416,9.82783,-0.0526064,1.61,-2.38,-0.21,21.9494,-51.0248,-18.5172,1023.32
118502,0.392157,9.78479,-0.0860832,1.54,-2.45,0,21.2811,-51.3024,-18.0886,1023.32
118508,0.420851,9.80392,-0.047824,1.82,-2.94,0.07,21.0486,-50.2847,-19.1821,1023.29
118514,0.444763,9.85174,-0.0813008,1.75,-2.52,-0.35,20.5837,-51.4874,-18.6945,1023.29
118520,0.439981,9.83261,-0.0813008,1.47,-2.45,0,21.2811,-50.994,-17.5862,1023.32
118526,0.420851,9.8087,-0.0860832,1.61,-2.31,0.42,20.8743,-50.6547,-18.2807,1023.32
118532,0.449546,9.81349,-0.071736,2.1,-2.87,0.21,20.8162,-51.4874,-18.4876,1023.31
118538,0.430416,9.82305,-0.109995,1.82,-2.8,0.07,21.8332,-51.179,-18.5172,1023.31
118544,0.401722,9.82783,-0.0573888,1.82,-2.59,-0.07,21.8622,-51.1173,-17.9409,1023.31
118550,0.439981,9.85174,-0.109995,1.61,-2.59,0,21.223,-50.6856,-18.4728,1023.32
118556,0.439981,9.82783,-0.0813008,1.68,-2.52,-0.21,21.746,-51.6416,-18.4876,1023.32
118562,0.439981,9.80392,-0.0765184,1.75,-2.59,0.07,22.0656,-50.9015,-18.4433,1023.3
118568,0.435198,9.8087,-0.0526064,1.61,-2.66,0.28,21.8332,-50.4697,-18.4433,1023.3
118574,0.416069,9.82305,-0.0813008,2.03,-2.73,-0.28,21.6007,-50.223,-17.3646,1023.32
118580,0.406504,9.81349,-0.0669536,1.61,-2.31,0.14,21.5426,-49.5137,-17.4089,1023.32
118586,0.435198,9.84218,-0.114778,1.54,-2.45,0.21,22.0656,-50.2538,-17.1134,1023.31
118592,0.444763,9.83261,-0.0908656,1.61,-2.38,0.42,21.8041,-50.3463,-18.7979,1023.31
118598,0.454328,9.83261,-0.105213,2.17,-2.45,-0.35,21.6298,-51.2715,-17.468,1023.31
118604,0.454328,9.85174,-0.143472,1.4,-2.66,-0.07,20.5256,-49.452,-19.4924,1023.29
118610,0.425634,9.79436,-0.0669536,1.68,-2.52,0.63,21.8622,-49.9763,-18.7831,1023.29
118616,0.420851,9.78957,-0.0430416,1.33,-2.8,-0.14,21.0486,-50.3772,-17.0395,1023.32
118622,0.439981,9.85653,-0.095648,1.54,-2.52,0.21,21.3101,-50.0071,-17.5715,1023.32
118628,0.411286,9.84218,-0.105213,1.33,-2.59,0.07,21.6298,-50.223,-18.4728,1023.33
118634,0.406504,9.81827,-0.0813008,1.33,-2.03,0,21.0486,-50.5622,-16.345,1023.33
118640,0.396939,9.81349,-0.0573888,1.75,-2.45,0.21,21.6879,-51.2099,-18,1023.3
118646,0.439981,9.80392,-0.0621712,1.82,-2.59,0.14,22.3271,-49.9454,-18.7092,1023.3
118652,0.416069,9.79436,-0.0765184,1.47,-2.31,0.07,21.8041,-50.994,-18.3989,1023.3
118658,0.392157,9.8374,-0.071736,1.75,-2.8,0.07,21.746,-51.0865,-18.0148,1023.29
118664,0.416069,9.81349,-0.0669536,2.03,-3.22,0.07,21.7751,-50.0071,-17.4089,1023.29
118670,0.430416,9.81349,-0.0765184,1.68,-2.45,0.07,21.4845,-49.8529,-18.857,1023.29
118676,0.416069,9.84696,-0.0621712,1.26,-2.38,-0.07,21.7169,-51.1482,-18.9752,1023.29
118682,0.406504,9.8087,-0.0526064,1.47,-2.24,0,22.5015,-50.7781,-17.1134,1023.29
118688,0.416069,9.81349,-0.0621712,1.33,-2.52,-0.07,22.0366,-50.0379,-18.4285,1023.29
118694,0.435198,9.84218,-0.0860832,1.47,-2.52,0.49,22.4143,-51.1173,-18.0886,1023.33
118700,0.416069,9.8374,-0.071736,1.19,-2.45,0.21,21.8622,-50.3772,-18.2512,1023.33
118706,0.463893,9.83261,-0.105213,1.33,-2.17,-0.35,21.252,-50.1305,-17.601,1023.32
118712,0.463893,9.81827,-0.0813008,1.19,-2.59,0,22.4434,-49.6987,-17.3941,1023.32
118718,0.430416,9.79914,-0.0860832,1.61,-2.52,-0.14,22.4724,-51.0248,-17.4089,1023.32
118724,0.430416,9.84218,-0.10043,1.12,-2.31,0.35,21.5135,-50.1305,-17.6306,1023.31
118730,0.439981,9.82305,-0.109995,1.61,-2.38,0,21.6007,-49.3286,-17.4828,1023.31
118736,0.420851,9.81349,-0.0813008,1.68,-2.59,-0.28,21.9494,-51.0557,-17.2168,1023.32
118742,0.401722,9.80392,-0.0573888,1.33,-2.52,0.07,21.8041,-50.0688,-18.2512,1023.32
118748,0.444763,9.84696,-0.095648,1.47,-2.52,0.63,22.0947,-49.5753,-17.9556,1023.27
118754,0.430416,9.82305,-0.124342,1.26,-2.24,0.14,22.0656,-50.8398,-17.4237,1023.27
118760,0.449546,9.81349,-0.071736,1.4,-2.38,-0.21,20.8162,-50.1305,-17.9852,1023.3
118766,0.416069,9.84218,-0.0908656,1.12,-2.1,0.14,21.3683,-50.0996,-18.0739,1023.3
118772,0.411286,9.8374,-0.0765184,1.61,-2.1,-0.07,21.6298,-50.408,-17.2759,1023.3
118778,0.401722,9.81349,-0.0621712,1.33,-2.52,0.07,21.9203,-50.5314,-17.3941,1023.31
118784,0.516499,9.84696,-0.105213,0.7,-1.47,-0.07,21.5717,-50.6239,-18.9013,1023.31
118790,0.33955,9.73697,-0.071736,0.98,-0.56,-0.56,21.746,-50.4697,-19.0639,1023.3
118796,0.267814,9.7561,0.162602,1.33,-3.01,-0.49,22.6177,-50.5931,-18.458,1023.3
118802,0.487805,9.87087,-0.153037,1.75,-2.59,0.49,21.8332,-50.0379,-18.9604,1023.28
118808,0.439981,9.83261,-0.10043,1.12,-2.38,0.28,21.0486,-49.4828,-18.2216,1023.28
118814,0.425634,9.78001,-0.0286944,1.61,-2.66,0,21.6298,-50.0996,-17.0838,1023.32
118820,0.449546,9.81349,-0.0908656,2.03,-2.66,17.78,22.0656,-49.637,-18.5024,1023.32
118826,0.373027,9.85174,-0.0621712,1.47,-2.66,0,22.1528,-49.5445,-18.133,1023.32
118832,0.401722,9.81349,-0.0765184,1.82,-2.59,0.28,21.6298,-49.6987,-17.9409,1023.31
118838,0.416069,9.83261,-0.0860832,1.47,-2.45,0.42,22.3562,-50.6239,-17.8227,1023.31
118844,0.420851,9.85174,-0.10043,1.75,-2.59,-0.28,21.2811,-49.637,-19.5515,1023.32
