Timestamp,AccX,AccY,AccZ,AngularVelX,AngularVelY,AngularVelZ,MagX,MagY,MagZ,AirPressure
10922,0.0143472,9.80392,-0.133907,1.75,-2.59,-0.14,30.7536,-74.6172,-17.0691,1020.64
10928,0.0143472,9.83261,-0.148254,1.33,-2.45,0.07,30.1725,-74.8948,-16.8622,1020.64
10934,0.0573888,9.81827,-0.176949,1.75,-2.31,0.14,29.6204,-75.82,-16.4632,1020.64
10940,-0.0095648,9.77523,-0.114778,1.33,-2.52,0,30.463,-75.4807,-17.3646,1020.67
10946,0.0095648,9.8087,-0.095648,1.96,-2.59,-0.07,30.4049,-74.8639,-17.1725,1020.67
10952,-0.0047824,9.81349,-0.148254,1.96,-2.87,-0.28,30.6083,-74.5247,-16.8326,1020.67
10958,-0.0047824,9.77523,-0.143472,1.75,-2.52,0.42,30.4921,-75.1415,-16.2711,1020.68
10964,0.0286944,9.81827,-0.157819,2.1,-2.31,0.07,29.7366,-75.3265,-16.611,1020.68
10970,0.0095648,9.78479,-0.124342,1.54,-2.24,-0.07,29.7947,-75.4191,-16.8917,1020.66
10976,0.0191296,9.80392,-0.153037,1.82,-2.38,0.14,30.3177,-74.8023,-16.2564,1020.66
10982,0.0382592,9.8087,-0.0860832,1.61,-2.24,0.35,30.2887,-75.5424,-16.4632,1020.67
10988,0.0191296,9.77044,-0.114778,1.75,-2.31,0.21,30.2015,-74.9873,-16.5814,1020.67
10994,0.023912,9.79436,-0.13869,1.82,-2.45,0.07,30.8698,-75.0798,-16.7588,1020.66
11000,0.0286944,9.80392,-0.153037,1.75,-2.45,0.28,29.3589,-75.82,-17.3646,1020.66
11006,0.0095648,9.78001,-0.13869,1.54,-2.8,0.84,31.2185,-75.6041,-15.7244,1020.66
11012,0.0047824,9.80392,-0.172166,1.82,-2.52,0.07,30.0272,-74.6172,-16.4337,1020.68
11018,0.0526064,9.8374,-0.143472,1.47,-2.17,0,30.7245,-75.2032,-16.3155,1020.68
11024,0.023912,9.79914,-0.153037,1.61,-2.52,0.21,31.48,-74.8948,-13.8921,1020.66
11030,0.0191296,9.80392,-0.153037,1.61,-2.73,0.14,30.7245,-75.2649,-15.5766,1020.66
11036,0.023912,9.78957,-0.157819,1.82,-2.38,0.14,30.4921,-74.6789,-15.355,1020.68
11042,0.0191296,9.82783,-0.162602,1.75,-2.66,-0.35,29.94,-75.0181,-15.887,1020.68
11048,0.0573888,9.82783,-0.157819,1.4,-2.52,0.21,30.5211,-75.0181,-15.7687,1020.66
11054,0.0382592,9.80392,-0.143472,1.4,-2.31,0.21,30.6955,-75.049,-16.5814,1020.66
11060,0.0382592,9.78479,-0.10043,1.33,-2.38,-0.35,30.6664,-75.7583,-16.1086,1020.64
11066,0.0334768,9.82305,-0.129125,1.61,-2.45,-0.07,30.5211,-75.0798,-16.5371,1020.64
11072,0,9.77523,-0.143472,1.68,-2.52,0.35,30.5502,-75.1723,-16.5962,1020.64
11078,-0.0095648,9.79436,-0.143472,1.68,-2.66,0.21,30.2306,-75.82,-16.9804,1020.66
11084,-0.0047824,9.78957,-0.11956,1.4,-2.59,-0.07,31.2766,-74.9565,-16.3302,1020.66
11090,0.0143472,9.7561,-0.11956,1.47,-2.24,0.35,30.5793,-76.1284,-16.0643,1020.66
11096,0.0286944,9.80392,-0.153037,1.54,-2.45,0.7,31.0151,-74.4939,-16.3155,1020.66
11102,0.0191296,9.77044,-0.133907,1.61,-2.38,0.14,30.434,-74.8948,-16.9213,1020.65
11108,0.0191296,9.78957,-0.143472,1.47,-2.38,0.07,30.8117,-74.7714,-16.8326,1020.65
11114,0.023912,9.80392,-0.143472,1.68,-2.45,0.42,30.6374,-75.2649,-15.222,1020.63
11120,0.0191296,9.79436,-0.133907,1.82,-2.52,0.21,30.0853,-75.5733,-16.5667,1020.63
11126,0.0286944,9.78001,-0.11956,1.33,-2.73,0.49,30.5793,-74.8331,-15.4732,1020.63
11132,0.0286944,9.81349,-0.162602,1.96,-2.31,0.35,30.7827,-75.2957,-17.5419,1020.65
11138,0.0334768,9.82783,-0.13869,1.47,-2.31,0.35,30.7245,-74.278,-16.7735,1020.65
11144,0.0382592,9.82783,-0.114778,1.82,-2.8,0.28,30.463,-74.2163,-17.6158,1020.64
11150,0.023912,9.82783,-0.124342,1.54,-2.45,0.28,30.9279,-75.5424,-17.3941,1020.64
11156,0.0047824,9.79436,-0.153037,1.4,-2.66,0,30.434,-74.4322,-16.2564,1020.65
11162,0.0382592,9.78957,-0.133907,1.68,-2.66,0.21,30.7245,-74.6789,-17.3498,1020.65
11168,0.0095648,9.79914,-0.13869,1.68,-2.38,0.14,30.6955,-75.5116,-16.8326,1020.65
11174,0.0047824,9.81827,-0.148254,1.61,-2.52,0.07,30.2306,-74.3397,-16.5519,1020.65
11180,0.0191296,9.79914,-0.109995,1.61,-2.38,-0.14,30.1725,-75.2649,-16.7883,1020.69
11186,0.0143472,9.78001,-0.0573888,1.47,-2.24,0.42,30.0562,-75.3882,-16.6553,1020.69
11192,0.0430416,9.77523,-0.109995,1.68,-2.73,-0.14,30.5211,-75.7891,-17.8965,1020.69
11198,0.0430416,9.78957,-0.129125,1.54,-2.38,0.14,30.7536,-74.8023,-16.2859,1020.65
11204,0.0191296,9.81827,-0.157819,1.54,-2.17,0.14,31.1313,-75.1415,-15.9904,1020.65
11210,0.023912,9.79914,-0.10043,1.89,-2.66,0.14,30.8989,-74.8948,-17.2021,1020.66
11216,-0.0191296,9.77523,-0.13869,1.47,-2.31,0.28,31.0151,-75.1723,-17.4533,1020.66
11222,-0.0047824,9.8087,-0.095648,1.19,-2.66,-0.21,30.7827,-75.1107,-16.7883,1020.64
11228,0.0382592,9.78957,-0.162602,1.82,-2.59,0.07,30.434,-74.8639,-17.2907,1020.64
11234,0.0095648,9.81349,-0.162602,1.54,-2.24,0.21,30.0853,-75.7275,-17.3794,1020.7
11240,0.0621712,9.79436,-0.109995,1.54,-2.38,-0.21,30.6955,-74.8948,-18.6797,1020.7
11246,0.0430416,9.78479,-0.11956,1.89,-2.31,0.07,29.9691,-74.5555,-17.3646,1020.7
11252,0.0430416,9.8087,-0.162602,1.54,-2.66,0.07,30.3468,-75.6349,-17.1873,1020.68
11258,0.0669536,9.79914,-0.157819,1.75,-2.03,0.21,30.434,-75.8817,-16.212,1020.68
11264,0.0191296,9.79436,-0.11956,1.68,-2.52,0.28,30.4049,-75.1107,-15.8574,1020.7
11270,0.0143472,9.82305,-0.148254,1.68,-2.73,-0.14,30.2887,-74.1855,-16.2711,1020.7
11276,0.0813008,9.79914,-0.124342,1.68,-2.59,0.07,31.1313,-74.9256,-16.5076,1020.64
11282,0.023912,9.8087,-0.095648,1.47,-2.59,0.14,31.0442,-75.1723,-16.3598,1020.64
11288,0.0621712,9.8374,-0.143472,1.4,-2.38,-0.35,31.3928,-75.0181,-17.6897,1020.65
11294,0.0430416,9.82305,-0.133907,1.96,-2.52,0.28,30.0272,-75.2032,-18.3251,1020.65
11300,0.0143472,9.8087,-0.109995,1.61,-2.66,0.07,31.6834,-75.6966,-16.6405,1020.65
11306,0.0860832,9.80392,-0.129125,1.33,-2.38,-0.42,30.5211,-74.6481,-17.3646,1020.64
11312,0.0286944,9.82783,-0.109995,1.54,-2.52,0,30.2596,-74.9565,-17.8079,1020.64
11318,0.0191296,9.79436,-0.0908656,1.82,-2.45,0.28,30.9279,-75.5116,-16.0938,1020.65
11324,0.0095648,9.80392,-0.129125,1.75,-2.31,0.21,31.451,-75.0798,-17.5271,1020.65
11330,0.0334768,9.81349,-0.11956,1.61,-2.38,0.77,30.463,-74.8639,-17.3794,1020.65
11336,0.0430416,9.81349,-0.11956,1.68,-2.45,0.21,30.7245,-74.8948,-16.6258,1020.65
11342,0.047824,9.82305,-0.129125,1.47,-2.73,-0.14,30.1143,-75.2649,-17.0986,1020.64
11348,0.0286944,9.8087,-0.153037,2.03,-2.8,-0.14,31.1894,-75.1415,-17.1577,1020.64
11354,0.0191296,9.78479,-0.129125,1.54,-2.66,0.35,30.957,-75.1415,-16.744,1020.65
11360,0.0382592,9.80392,-0.133907,1.54,-2.31,0.28,30.5793,-74.5864,-16.5223,1020.65
11366,0.0095648,9.79914,-0.114778,1.54,-2.45,-0.07,30.0272,-75.1107,-16.9804,1020.65
11372,-0.047824,9.80392,-0.133907,1.82,-2.45,0.07,30.434,-74.8639,-17.3055,1020.65
11378,0.0334768,9.81349,-0.143472,1.61,-2.66,0.63,31.1604,-74.8639,-16.5223,1020.65
11384,0.0143472,9.79436,-0.153037,1.82,-2.59,0,31.0151,-75.0181,-17.468,1020.64
11390,0.023912,9.78479,-0.143472,1.47,-2.31,-0.42,30.4921,-75.1723,-17.9852,1020.64
11396,0.0382592,9.81349,-0.143472,1.26,-2.45,0,31.1894,-74.8948,-16.5519,1020.65
11402,0.0095648,9.8087,-0.13869,1.89,-2.59,0.21,31.2476,-75.3882,-16.7292,1020.65
11408,0.0191296,9.78001,-0.11956,1.33,-2.38,-0.14,31.3928,-74.7406,-16.6405,1020.67
11414,0.047824,9.81349,-0.13869,2.1,-2.59,-0.49,30.7827,-74.6789,-16.5519,1020.67
11420,0.0191296,9.81349,-0.143472,1.33,-2.38,-0.14,31.1604,-75.0798,-18.133,1020.67
11426,0.0334768,9.78479,-0.153037,1.75,-2.45,0.21,31.451,-75.1107,-17.2612,1020.66
11432,0.0286944,9.78957,-0.0813008,1.75,-2.66,-0.14,31.2185,-74.9256,-17.0543,1020.66
11438,0.0286944,9.81349,-0.148254,1.75,-2.73,-0.14,31.3347,-74.5864,-16.8474,1020.69
11444,0.0286944,9.79914,-0.0908656,1.96,-2.59,-0.14,31.1894,-74.8023,-16.4485,1020.69
11450,0.0382592,9.79436,-0.133907,1.26,-2.38,0.07,30.6955,-74.4939,-17.1282,1020.68
11456,0.0382592,9.8087,-0.129125,1.75,-2.45,-0.14,30.1434,-74.4939,-16.9804,1020.68
11462,0.0334768,9.77523,-0.124342,1.61,-2.31,0.07,30.2887,-74.5864,-16.2564,1020.66
11468,0.0191296,9.81827,-0.13869,1.68,-2.45,0.28,29.9691,-74.3088,-16.212,1020.66
11474,0.047824,9.8374,-0.124342,1.61,-2.38,0,30.1143,-74.3705,-18.3398,1020.66
11480,-0.0095648,9.81827,-0.133907,1.47,-2.24,0,30.9279,-74.4939,-16.9361,1020.66
11486,0.0430416,9.8087,-0.105213,1.4,-2.17,-0.28,30.6083,-74.8639,-18.2955,1020.66
11492,0.0143472,9.80392,-0.114778,1.82,-2.45,0.28,31.5962,-75.234,-16.6701,1020.63
11498,0.0143472,9.78001,-0.162602,1.61,-2.31,0.21,30.2887,-74.8023,-16.2416,1020.63
11504,0.0286944,9.83261,-0.124342,1.82,-2.52,0.28,30.6955,-75.1107,-17.1725,1020.69
11510,0.0621712,9.8087,-0.153037,1.68,-2.45,-0.28,30.6664,-74.8331,-16.4485,1020.69
11516,0.0286944,9.81349,-0.133907,1.68,-2.45,-0.21,30.5793,-75.0181,-17.9113,1020.66
11522,0.0382592,9.82783,-0.162602,1.96,-2.03,-0.07,30.5502,-75.6658,-17.4385,1020.66
11528,0.0334768,9.84218,-0.153037,1.47,-2.45,0,31.1894,-74.7097,-16.9952,1020.66
11534,0.0526064,9.80392,-0.129125,1.75,-2.66,-0.35,31.0151,-75.2649,-18.2955,1020.66
11540,0,9.82783,-0.148254,1.61,-2.31,-0.42,29.5913,-74.9873,-17.4976,1020.66
11546,0.023912,9.85174,-0.157819,1.61,-2.17,-0.49,30.2015,-74.6172,-18.0295,1020.63
11552,0.0334768,9.79436,-0.105213,1.68,-2.45,-0.49,30.0272,-75.3574,-17.7045,1020.63
11558,0.023912,9.78001,-0.095648,1.61,-2.03,0.28,30.434,-75.1723,-17.7636,1020.64
11564,0.0143472,9.79914,-0.109995,1.4,-2.31,-0.14,30.463,-75.0798,-16.9804,1020.64
11570,0.0047824,9.80392,-0.157819,1.61,-2.38,-0.21,30.4921,-74.8948,-16.2564,1020.65
11576,0.0095648,9.78479,-0.11956,1.47,-2.38,-0.28,30.7536,-74.4322,-18.5467,1020.65
11582,-0.0095648,9.78001,-0.114778,1.61,-2.73,0,30.8989,-75.1723,-17.2907,1020.64
11588,-0.0191296,9.79914,-0.133907,1.61,-2.52,0.21,30.6664,-74.4322,-17.2464,1020.64
11594,0.0047824,9.79436,-0.114778,1.75,-2.52,0,31.1894,-75.3265,-17.2021,1020.64
11600,-0.0047824,9.79436,-0.143472,1.82,-2.45,0.14,30.957,-74.3705,-17.2168,1020.63
11606,0.0191296,9.79436,-0.11956,1.68,-2.52,-0.14,30.2596,-75.049,-17.2612,1020.63
11612,0.0191296,9.80392,-0.124342,1.54,-2.59,0.28,30.986,-74.6172,-17.3794,1020.68
11618,0.0286944,9.8087,-0.153037,1.68,-2.45,-0.35,30.6374,-75.0798,-15.9756,1020.68
11624,0.0430416,9.85653,-0.114778,1.4,-2.38,-0.07,30.434,-74.4014,-17.601,1020.7
11630,0.047824,9.8087,-0.153037,1.33,-2.73,-0.14,31.0151,-74.9565,-17.1577,1020.7
11636,0.0382592,9.77044,-0.129125,1.61,-2.52,-0.28,30.6664,-74.278,-16.6405,1020.65
11642,0.0334768,9.77523,-0.0908656,1.82,-2.31,-0.35,30.6083,-75.2957,-15.754,1020.65
11648,0.0286944,9.79914,-0.0669536,1.89,-2.38,-0.28,30.4049,-74.6789,-17.2464,1020.65
11654,0.0191296,9.81827,-0.124342,1.82,-2.1,-0.7,30.3759,-74.7097,-16.5519,1020.65
11660,0.0191296,9.78479,-0.13869,1.4,-2.24,-0.28,31.0442,-74.8023,-16.8917,1020.65
11666,0.023912,9.79914,-0.133907,1.47,-2.24,-0.35,31.2766,-74.7097,-16.4337,1020.63
11672,0.0334768,9.80392,-0.148254,1.68,-2.17,-0.7,29.9691,-75.3574,-16.6849,1020.63
11678,-0.0143472,9.82783,-0.11956,1.82,-2.31,-0.63,31.0151,-74.8948,-16.1973,1020.66
11684,0.0047824,9.79436,-0.11956,1.96,-2.66,-0.49,30.3177,-73.8771,-17.6158,1020.66
11690,0.0047824,9.8087,-0.105213,1.54,-2.24,-0.49,30.3759,-74.3705,-16.1825,1020.65
11696,-0.0047824,9.78957,-0.11956,2.1,-2.17,-0.28,31.0442,-75.1107,-15.9608,1020.65
11702,-0.0143472,9.8087,-0.133907,1.82,-2.17,0,30.6664,-74.8948,-17.1873,1020.64
11708,0.0334768,9.8087,-0.13869,1.54,-2.17,-0.49,30.8408,-74.6481,-17.3794,1020.64
11714,0.023912,9.78957,-0.143472,1.82,-2.52,-0.14,30.5502,-74.8331,-17.4976,1020.64
11720,-0.0047824,9.79914,-0.129125,1.47,-2.45,0.07,30.4921,-74.9873,-16.8474,1020.66
11726,0.0191296,9.8087,-0.13869,2.03,-2.59,0,30.7827,-74.4014,-17.0395,1020.66
11732,0.023912,9.79436,-0.148254,1.75,-2.59,0.07,30.1434,-74.1546,-16.6997,1020.67
11738,0.0286944,9.78001,-0.143472,1.82,-2.52,0,31.5091,-75.0798,-15.8278,1020.67
11744,0.0430416,9.78957,-0.129125,1.68,-2.66,0,30.957,-75.5424,-16.7144,1020.62
11750,0.0382592,9.81349,-0.143472,2.1,-2.45,-0.07,31.1604,-74.5555,-16.6405,1020.62
11756,-0.0286944,9.81827,-0.13869,1.54,-2.31,-0.21,31.3057,-74.5864,-17.1429,1020.65
11762,0.0191296,9.81349,-0.143472,1.82,-2.1,0.35,30.8408,-75.1107,-17.3498,1020.65
11768,0,9.78001,-0.0860832,2.03,-2.17,-0.07,31.0442,-75.5116,-16.611,1020.65
11774,0.0047824,9.81349,-0.124342,2.1,-2.38,0.14,31.0732,-74.8948,-16.3598,1020.65
11780,-0.0095648,9.79436,-0.176949,1.75,-2.94,0,30.0562,-75.1723,-17.3055,1020.65
11786,-0.0047824,9.78957,-0.162602,1.82,-2.59,-0.14,30.7245,-75.049,-17.4533,1020.66
11792,0.0143472,9.79914,-0.13869,1.47,-1.82,0,30.8989,-75.2957,-16.9361,1020.66
11798,0.0095648,9.78479,-0.148254,1.75,-2.59,0.07,31.0442,-74.8023,-16.9213,1020.65
11804,-0.0095648,9.79914,-0.143472,2.1,-2.66,0,30.6955,-75.1723,-16.5371,1020.65
11810,0.0286944,9.78001,-0.13869,1.54,-2.31,0.35,31.0442,-74.7406,-17.7192,1020.62
11816,0.047824,9.79914,-0.143472,1.68,-2.17,0.21,31.2185,-75.049,-17.4089,1020.62
11822,0.0047824,9.82305,-0.133907,1.61,-2.17,0.07,30.8698,-74.6172,-17.2759,1020.62
11828,-0.0143472,9.78001,-0.124342,1.54,-2.52,0.07,30.6374,-74.7406,-17.7488,1020.62
11834,-0.0095648,9.79914,-0.129125,1.54,-2.24,-0.14,31.0732,-74.3088,-17.4237,1020.62
11840,-0.0047824,9.78957,-0.133907,1.75,-2.59,0.21,31.5381,-74.4322,-17.5124,1020.66
11846,0.0526064,9.81827,-0.124342,1.75,-2.38,0.56,31.1604,-74.9256,-16.2416,1020.66
11852,0.023912,9.79914,-0.162602,1.68,-2.24,-0.07,30.8408,-75.1107,-17.4089,1020.66
11858,0.0573888,9.82305,-0.153037,1.47,-2.31,-0.21,30.957,-75.1723,-16.6701,1020.66
11864,0.0334768,9.82305,-0.13869,1.4,-2.59,0.07,31.1604,-74.9256,-18.2955,1020.66
11870,0.0573888,9.8087,-0.176949,1.61,-2.38,0.14,30.986,-75.1415,-17.9409,1020.66
11876,0.0191296,9.82783,-0.176949,1.54,-2.38,-0.35,31.2476,-75.3265,-17.7931,1020.66
11882,0.0191296,9.81349,-0.143472,1.47,-2.24,-0.42,31.2766,-75.4499,-17.1429,1020.66
11888,0.0286944,9.8087,-0.124342,1.33,-2.31,-0.14,31.0442,-75.4191,-17.1873,1020.66
11894,0,9.78479,-0.0908656,1.75,-2.59,-0.28,31.5381,-75.3265,-17.6749,1020.66
11900,0.023912,9.8087,-0.129125,1.61,-2.03,-17.85,30.957,-75.5116,-16.079,1020.66
11906,0,9.81349,-0.172166,1.82,-2.38,0,31.3928,-75.7275,-17.7192,1020.65
11912,-0.0047824,9.81349,-0.109995,1.61,-2.17,0.56,31.0442,-76.0359,-17.3203,1020.65
11918,0.0095648,9.78001,-0.105213,1.54,-2.31,0.56,31.3057,-74.7097,-17.5271,1020.66
11924,0,9.80392,-0.11956,1.75,-3.01,-0.28,30.6664,-74.7097,-17.0691,1020.66
11930,0.023912,9.78001,-0.133907,1.82,-2.73,-0.42,30.5502,-74.9256,-17.2168,1020.68
11936,0.0191296,9.76566,-0.114778,1.82,-2.66,0.42,30.7827,-75.1107,-16.744,1020.68
11942,0.0621712,9.78001,-0.114778,1.82,-2.38,0.35,30.8989,-75.2649,-16.9804,1020.62
11948,0.0430416,9.79914,-0.143472,2.03,-2.73,-0.21,31.3057,-75.1415,-16.3302,1020.62
11954,0.047824,9.8087,-0.124342,1.47,-2.73,0.07,30.7827,-75.4807,-17.9852,1020.62
11960,0.0382592,9.82783,-0.143472,1.82,-2.52,0.21,30.986,-75.2032,-17.1429,1020.66
11966,0.0143472,9.8374,-0.13869,1.75,-2.38,0.07,31.1313,-75.2957,-16.8917,1020.66
11972,0.0191296,9.79914,-0.10043,1.47,-2.1,17.78,31.1313,-75.6349,-17.2464,1020.65
11978,0.0191296,9.81827,-0.143472,1.47,-2.38,0.21,30.4049,-75.7275,-17.8522,1020.65
11984,0.023912,9.79436,-0.11956,1.54,-2.8,-0.28,30.8408,-75.0798,-17.3646,1020.65
11990,-0.0191296,9.81349,-0.11956,1.54,-2.45,-0.42,30.957,-74.8639,-17.5862,1020.65
11996,0.0047824,9.78957,-0.11956,1.75,-2.59,-0.28,31.1313,-74.8023,-17.5419,1020.63
12002,0.0143472,9.79436,-0.095648,1.4,-2.52,0.21,31.7415,-74.8639,-16.1382,1020.63
12008,0.0286944,9.77523,-0.133907,1.4,-2.03,0,30.8117,-74.6481,-15.9165,1020.63
12014,-0.0143472,9.79914,-0.114778,1.89,-2.52,0.14,30.6083,-74.9565,-16.9509,1020.66
12020,0.0191296,9.7561,-0.129125,1.96,-2.45,0.28,30.434,-75.049,-17.2168,1020.66
12026,0.0334768,9.79436,-0.133907,2.1,-2.87,-0.35,30.3468,-74.9873,-17.5124,1020.64
12032,-0.0143472,9.84218,-0.157819,1.47,-2.24,0.35,31.1023,-75.1415,-18.4876,1020.64
12038,0.0047824,9.8087,-0.172166,1.75,-2.59,0.42,30.6374,-74.7406,-17.5715,1020.66
12044,0.0095648,9.81827,-0.133907,1.54,-2.38,-17.5,31.5962,-75.9433,-16.7588,1020.66
12050,0.0191296,9.79914,-0.162602,1.54,-2.66,0.28,31.0442,-75.049,-17.0395,1020.67
12056,0,9.8087,-0.11956,1.82,-2.73,0.21,31.1604,-75.7275,-17.7931,1020.67
12062,0.0191296,9.79914,-0.109995,1.54,-2.87,0,31.0732,-74.4939,-16.5814,1020.66
12068,0.0430416,9.82783,-0.109995,1.82,-2.52,-0.21,31.451,-74.2471,-16.6553,1020.66
12074,0.0621712,9.78479,-0.129125,1.54,-2.24,0.21,30.957,-75.5733,-16.6701,1020.66
12080,0.0191296,9.8374,-0.186514,1.61,-2.24,-0.42,30.6374,-75.5116,-16.8474,1020.65
12086,0.0191296,9.82783,-0.162602,1.89,-2.31,-0.07,30.3759,-75.1415,-16.1973,1020.65
12092,0.0334768,9.80392,-0.13869,1.19,-2.1,0.21,30.5502,-75.3574,-16.744,1020.64
12098,0.0382592,9.8087,-0.109995,1.82,-2.8,0.07,30.6664,-74.8948,-15.4732,1020.64
12104,0.0095648,9.77523,-0.153037,1.33,-2.87,-0.14,30.7827,-74.8639,-16.1086,1020.68
12110,0.0286944,9.77523,-0.114778,1.75,-2.66,-0.07,31.3057,-74.4014,-17.6897,1020.68
12116,-0.0143472,9.78001,-0.133907,1.47,-2.59,17.43,30.1725,-75.6658,-16.4928,1020.67
12122,-0.0095648,9.80392,-0.095648,1.54,-2.52,-0.14,30.8698,-75.1723,-16.8474,1020.67
12128,0.0334768,9.8087,-0.129125,1.61,-2.45,-0.14,30.8408,-75.4499,-17.5567,1020.67
12134,0.023912,9.81349,-0.143472,1.54,-2.8,0.21,30.2887,-74.9256,-16.7292,1020.7
12140,0.0286944,9.81827,-0.176949,1.75,-2.87,0.14,31.6834,-75.2032,-17.3646,1020.7
12146,0.0191296,9.8087,-0.172166,1.75,-2.52,0.28,31.1894,-75.7275,-18.6945,1020.67
12152,0.0191296,9.80392,-0.148254,1.68,-2.66,0,30.6374,-74.8948,-17.3646,1020.67
12158,0,9.79914,-0.13869,1.54,-2.45,0.07,31.1604,-75.1107,-17.6897,1020.67
12164,-0.0191296,9.77523,-0.167384,1.54,-2.24,0.7,30.7536,-75.6658,-17.867,1020.67
12170,0.0191296,9.78957,-0.11956,1.75,-2.52,0.49,30.8117,-74.5247,-17.0838,1020.66
12176,0.0286944,9.81349,-0.148254,2.03,-2.8,0.14,30.5502,-74.8948,-17.6601,1020.66
12182,0.047824,9.81349,-0.13869,1.61,-2.45,0.21,30.6955,-75.1107,-17.1725,1020.62
12188,0.0573888,9.83261,-0.157819,1.61,-2.24,0.28,30.434,-75.1723,-16.6701,1020.62
12194,0.023912,9.8087,-0.143472,1.33,-2.38,0.42,30.0562,-74.8948,-17.8522,1020.62
12200,0.0191296,9.76088,-0.114778,1.61,-2.59,-0.07,30.8117,-75.7891,-17.4385,1020.64
12206,0.0669536,9.82305,-0.143472,2.03,-2.52,-0.42,31.0151,-75.3574,-17.5567,1020.64
12212,0.0526064,9.78001,-0.109995,1.82,-2.31,-0.14,30.6374,-75.2649,-17.7783,1020.64
12218,0.0382592,9.79914,-0.143472,1.75,-2.73,-0.21,28.9521,-76.0975,-17.4089,1020.64
12224,0.0047824,9.82305,-0.124342,1.96,-2.8,0.07,30.3759,-74.8639,-17.4237,1020.69
12230,-0.0047824,9.80392,-0.153037,1.68,-2.59,0.21,30.7245,-74.6789,-17.9113,1020.69
12236,0.0526064,9.79436,-0.153037,1.75,-2.31,0,30.4921,-74.7714,-17.3794,1020.68
12242,-0.0095648,9.82305,-0.148254,1.47,-2.17,-0.21,30.7827,-74.8023,-18.133,1020.68
12248,0.0047824,9.80392,-0.11956,1.75,-2.38,0.35,30.434,-75.2957,-17.734,1020.68
12254,0.0095648,9.77044,-0.129125,1.82,-2.66,0.42,30.3177,-75.2649,-17.6749,1020.65
12260,-0.0191296,9.78957,-0.11956,1.61,-2.1,0.14,30.1725,-75.82,-18.1034,1020.65
12266,0.0334768,9.8374,-0.13869,1.47,-2.31,0.21,30.8989,-75.7275,-17.8374,1020.66
12272,0,9.80392,-0.129125,1.75,-2.38,0.21,30.7536,-74.9873,-17.4089,1020.66
12278,0.0286944,9.79914,-0.133907,1.68,-2.38,0.21,31.2476,-75.4499,-17.5124,1020.61
12284,0.0095648,9.80392,-0.13869,1.54,-2.31,0.14,31.0442,-74.9565,-17.734,1020.61
12290,0.0526064,9.81827,-0.143472,1.33,-2.31,0.14,30.463,-75.5733,-18.7684,1020.67
12296,0.0095648,9.83261,-0.124342,1.68,-2.38,0.14,30.8117,-74.8023,-17.8374,1020.67
12302,0.0382592,9.8087,-0.143472,1.4,-2.31,0.21,31.2185,-74.8948,-17.2612,1020.67
12308,0.047824,9.85174,-0.11956,1.4,-2.31,-0.14,30.6955,-76.0359,-18.458,1020.59
12314,0.0286944,9.82305,-0.143472,1.47,-2.17,-0.07,30.7245,-75.0798,-19.1969,1020.59
12320,-0.023912,9.79436,-0.11956,1.12,-2.24,-0.14,31.3638,-75.2649,-16.7292,1020.67
12326,-0.0047824,9.81349,-0.148254,2.1,-2.38,-0.35,30.8117,-75.1415,-17.7636,1020.67
12332,0.023912,9.8087,-0.129125,1.61,-2.31,-0.07,30.957,-75.82,-17.7192,1020.68
12338,0.023912,9.76566,-0.11956,1.89,-2.59,-0.21,30.9279,-75.5424,-17.3646,1020.68
12344,-0.0095648,9.78957,-0.148254,1.68,-2.8,-0.28,31.2766,-75.3882,-17.1725,1020.67
12350,-0.0143472,9.82305,-0.13869,1.89,-2.66,0.35,31.1604,-74.7406,-16.9952,1020.67
12356,0.0191296,9.80392,-0.13869,1.26,-1.89,0.21,30.8989,-75.5116,-18.1182,1020.65
12362,0.0047824,9.81349,-0.11956,1.75,-2.59,-0.28,31.2476,-75.1415,-17.4089,1020.65
12368,-0.0095648,9.80392,-0.124342,1.89,-2.52,-0.07,31.3057,-75.6966,-18.1625,1020.65
12374,0.0286944,9.78957,-0.148254,1.75,-2.45,0.56,30.957,-75.049,-17.4828,1020.68
12380,0,9.80392,-0.153037,1.89,-2.38,0.49,30.6955,-75.1723,-18.1625,1020.68
12386,0.0191296,9.79436,-0.124342,1.75,-2.87,-0.21,31.3638,-74.7406,-18.0148,1020.67
12392,0.0095648,9.79436,-0.114778,1.89,-2.59,-0.21,31.3057,-75.4499,-17.1429,1020.67
12398,0.0286944,9.81349,-0.124342,1.75,-2.73,0.35,30.8989,-75.5424,-16.9065,1020.67
12404,0.0286944,9.81827,-0.133907,2.03,-2.87,0.28,30.8989,-75.8817,-17.4385,1020.67
12410,0.0095648,9.82783,-0.143472,1.68,-2.24,0.07,31.3057,-75.234,-16.2416,1020.64
12416,0.0334768,9.82783,-0.176949,1.75,-2.52,-0.56,30.434,-74.7406,-16.5667,1020.64
12422,-0.0047824,9.81827,-0.148254,1.75,-2.66,-0.49,30.3468,-75.2957,-16.212,1020.64
12428,0,9.79914,-0.13869,1.82,-2.31,-0.14,30.6083,-75.049,-16.5076,1020.69
12434,0,9.80392,-0.143472,1.33,-2.59,-0.35,30.6083,-75.5116,-16.2268,1020.69
12440,-0.0047824,9.81827,-0.129125,1.96,-2.52,-0.35,30.7827,-75.0181,-17.6749,1020.67
12446,-0.0095648,9.8087,-0.11956,1.82,-2.38,-0.35,31.0151,-74.8023,-17.9409,1020.67
12452,-0.0047824,9.78479,-0.10043,1.96,-2.73,-0.35,30.8117,-75.5116,-16.6701,1020.64
12458,0.0143472,9.80392,-0.13869,1.68,-2.45,0.07,30.6955,-75.3882,-16.478,1020.64
12464,-0.0047824,9.8087,-0.148254,1.54,-2.17,-0.35,30.7827,-74.6481,-16.8179,1020.64
12470,0.0286944,9.80392,-0.133907,1.75,-2.45,0.14,31.1313,-75.1415,-18.458,1020.64
12476,0.0095648,9.81827,-0.129125,1.89,-2.8,0.21,30.8698,-74.5247,-17.601,1020.63
12482,-0.0047824,9.8087,-0.129125,1.61,-2.45,-0.07,31.0151,-75.2032,-17.2316,1020.63
12488,0.0191296,9.78001,-0.105213,1.68,-2.52,0.14,31.1023,-75.3574,-16.9361,1020.63
12494,0.0095648,9.7561,-0.10043,1.47,-2.59,0.07,30.6374,-75.2649,-17.2612,1020.65
12500,0.0191296,9.78001,-0.114778,1.68,-2.31,0,30.8408,-75.7275,-16.8474,1020.65
12506,0,9.81349,-0.0908656,1.26,-2.17,0,30.7536,-75.3882,-18.0148,1020.65
12512,0.0143472,9.78957,-0.095648,1.68,-2.38,0.21,30.6374,-75.82,-18.5319,1020.65
12518,0.0286944,9.82783,-0.148254,1.68,-2.59,0.14,31.451,-75.82,-17.4385,1020.63
12524,0.0334768,9.79436,-0.157819,1.82,-2.87,-0.35,30.6664,-76.1592,-18.3694,1020.63
12530,0.0382592,9.81827,-0.148254,1.05,-1.89,-0.07,30.7827,-75.4499,-17.0395,1020.63
12536,0.0047824,9.8087,-0.11956,1.61,-2.38,0.28,30.4921,-74.9565,-16.1973,1020.63
12542,-0.0047824,9.79436,-0.114778,1.47,-2.52,0.28,31.1604,-75.1107,-17.4237,1020.63
12548,0.0334768,9.8087,-0.0860832,1.82,-2.52,0.14,31.1023,-75.8817,-18.0591,1020.67
12554,0.0526064,9.77523,-0.129125,1.47,-2.45,0.07,31.5962,-75.6658,-16.4485,1020.67
12560,0.023912,9.81349,-0.129125,1.54,-2.87,-0.21,30.4049,-74.8948,-16.9065,1020.62
12566,-0.0047824,9.82783,-0.143472,1.75,-2.03,0.07,30.8698,-75.8817,-16.6997,1020.62
12572,-0.0286944,9.81349,-0.109995,1.75,-2.38,-0.21,30.6955,-74.9873,-17.1725,1020.65
12578,0.023912,9.78957,-0.105213,1.82,-2.24,-0.14,30.7536,-75.3574,-16.3598,1020.65
12584,-0.0286944,9.82305,-0.172166,1.82,-2.31,0,31.0151,-75.3882,-17.7192,1020.64
12590,-0.0143472,9.79436,-0.162602,1.54,-2.66,0.21,30.5502,-75.4807,-16.0052,1020.64
12596,-0.0047824,9.79914,-0.114778,1.75,-2.59,0.07,30.0562,-75.1415,-17.2464,1020.64
12602,0.0095648,9.8087,-0.129125,1.4,-2.45,0.35,30.8698,-75.234,-16.5667,1020.64
12608,-0.023912,9.80392,-0.11956,1.54,-2.59,0.28,30.463,-75.1107,-17.3203,1020.64
12614,0,9.81827,-0.114778,1.61,-2.52,0.63,30.7827,-75.8508,-17.7488,1020.65
12620,0.0095648,9.8087,-0.153037,1.75,-2.31,0.28,30.8698,-75.7275,-16.9656,1020.65
12626,0.0191296,9.78957,-0.157819,1.82,-2.73,0.56,29.9691,-76.5601,-18.5763,1020.69
12632,0.0334768,9.8087,-0.162602,1.47,-2.87,-0.21,30.6955,-75.3265,-16.9509,1020.69
12638,0.0765184,9.84696,-0.13869,1.54,-2.66,0.07,30.7827,-74.8023,-17.468,1020.69
12644,0.0095648,9.82783,-0.153037,1.61,-2.52,-0.14,31.1604,-75.3882,-17.0395,1020.69
12650,0.0095648,9.8087,-0.13869,1.82,-2.24,0.28,30.434,-74.8639,-17.0986,1020.65
12656,0.0334768,9.84696,-0.129125,1.4,-2.38,0,30.6664,-75.1107,-16.5962,1020.65
12662,0.0430416,9.82783,-0.172166,1.26,-2.17,0,30.8117,-75.1723,-16.212,1020.65
12668,0.023912,9.80392,-0.124342,1.26,-2.45,0,30.6664,-75.0181,-18.2512,1020.68
12674,-0.0143472,9.8087,-0.148254,1.54,-2.1,0.21,29.7947,-75.3574,-17.4237,1020.68
12680,-0.0286944,9.77523,-0.109995,1.33,-2.38,-0.35,30.7536,-74.7714,-17.0395,1020.66
12686,-0.0191296,9.82783,-0.124342,1.75,-2.52,-0.21,30.5211,-74.8948,-17.4533,1020.66
12692,0.0143472,9.76566,-0.109995,1.47,-2.31,-0.42,30.9279,-75.1107,-17.1282,1020.62
12698,0.0095648,9.80392,-0.105213,1.82,-2.52,-0.14,30.2596,-75.0181,-17.3794,1020.62
12704,0.023912,9.79436,-0.157819,1.68,-2.45,0.42,29.9691,-75.1107,-17.468,1020.67
12710,0.0191296,9.8087,-0.157819,1.68,-2.66,0.07,30.3177,-75.2032,-18.0886,1020.67
12716,-0.0047824,9.79914,-0.13869,1.61,-2.31,0.07,30.6083,-75.2032,-16.5814,1020.67
12722,0.0382592,9.79436,-0.109995,1.54,-2.73,0.21,30.9279,-75.234,-17.1134,1020.63
12728,0,9.81827,-0.162602,1.75,-3.01,0.07,30.1725,-75.4807,-18.8275,1020.63
12734,0.0047824,9.8087,-0.124342,1.54,-2.59,0,30.6374,-75.2649,-16.7735,1020.63
12740,0.0430416,9.77523,-0.13869,1.75,-2.66,0.07,30.4049,-75.5733,-17.734,1020.63
12746,0,9.81349,-0.109995,1.82,-2.38,0.56,30.7245,-75.3882,-16.8917,1020.65
12752,0.023912,9.81349,-0.105213,1.61,-2.66,-0.07,30.6955,-75.8508,-16.7588,1020.65
12758,0.071736,9.8087,-0.0669536,1.82,-2.52,0.21,30.3177,-75.0181,-17.335,1020.65
12764,0.0621712,9.87087,-0.153037,1.68,-2.66,-0.35,30.986,-75.8817,-16.9804,1020.65
12770,-0.0047824,9.82305,-0.153037,1.82,-2.1,-0.07,30.1725,-75.7275,-16.5076,1020.64
12776,0.0286944,9.80392,-0.114778,1.89,-2.38,0.07,30.2306,-75.1415,-16.8326,1020.64
12782,0.023912,9.82783,-0.129125,1.75,-2.52,-0.14,30.6374,-75.049,-16.4337,1020.64
12788,0.023912,9.82305,-0.143472,1.54,-2.59,-0.35,30.5793,-75.5116,-16.744,1020.67
12794,0.0143472,9.78479,-0.114778,1.68,-2.52,-0.07,30.463,-75.5424,-17.3794,1020.67
12800,-0.0143472,9.79436,-0.124342,2.03,-2.31,0,30.957,-75.234,-17.468,1020.63
12806,0.023912,9.80392,-0.13869,1.89,-2.59,-0.35,31.2185,-76.005,-16.877,1020.63
12812,-0.0047824,9.78957,-0.109995,1.82,-2.73,-0.14,30.5502,-74.8639,-16.9656,1020.67
12818,-0.0047824,9.79914,-0.153037,1.47,-2.59,0.21,30.5502,-75.3882,-17.0543,1020.67
12824,0.0143472,9.78957,-0.153037,1.96,-2.66,0.56,31.6544,-75.234,-17.6601,1020.65
12830,0.0095648,9.79914,-0.133907,1.33,-2.24,0.07,30.7827,-75.0181,-18.6797,1020.65
12836,-0.0095648,9.8087,-0.129125,1.96,-2.38,0.28,31.5672,-74.7714,-16.7883,1020.65
12842,0,9.79914,-0.143472,1.82,-2.17,-0.21,31.3638,-75.5424,-17.3794,1020.65
12848,-0.0095648,9.81349,-0.129125,1.4,-2.52,0.21,30.5211,-75.5733,-16.9213,1020.65
12854,0.0047824,9.78957,-0.148254,1.61,-2.52,0.63,30.6083,-75.1723,-17.6306,1020.65
12860,0.0143472,9.81349,-0.157819,1.82,-2.38,-0.42,30.434,-75.2957,-16.5223,1020.65
12866,0.023912,9.78479,-0.114778,1.89,-2.52,-0.28,30.6664,-75.5733,-17.7488,1020.64
12872,0.047824,9.79914,-0.157819,1.47,-2.59,-0.21,30.8989,-75.5116,-18.6501,1020.64
12878,0.0526064,9.81349,-0.153037,1.68,-2.17,-0.14,30.463,-75.7891,-16.6997,1020.63
12884,0.0047824,9.82783,-0.167384,1.61,-1.96,-0.07,30.8698,-75.3882,-17.01,1020.63
12890,0.0334768,9.78957,-0.143472,1.33,-2.24,0.21,30.8408,-75.3265,-17.2316,1020.64
12896,0.0143472,9.77044,-0.148254,1.54,-2.45,-0.14,30.463,-76.0359,-16.5076,1020.64
12902,0.0191296,9.81827,-0.167384,1.26,-2.45,-0.28,30.8698,-75.0798,-17.5715,1020.64
12908,0.023912,9.80392,-0.186514,1.4,-2.52,-0.28,30.8698,-75.9125,-16.6701,1020.65
12914,0.0382592,9.7561,-0.095648,1.54,-2.45,0,30.2596,-76.4059,-17.0986,1020.65
12920,-0.023912,10.9947,-0.124342,1.96,-2.66,-0.14,30.463,-75.3265,-17.2021,1020.63
12926,0.0430416,9.82783,-0.224773,1.4,-2.45,-0.21,30.5211,-75.7583,-17.7192,1020.63
12932,0.0047824,9.80392,-0.186514,1.75,-2.45,0.21,30.5502,-75.9125,-17.1134,1020.66
12938,-0.0143472,9.8087,-0.143472,1.47,-2.73,0.35,30.463,-75.9125,-17.7192,1020.66
12944,0.0095648,9.78957,-0.114778,1.82,-2.24,-0.07,30.1434,-74.6789,-17.2168,1020.66
12950,-0.0143472,9.78957,-0.129125,1.82,-2.31,-0.07,29.94,-75.2032,-17.3055,1020.66
12956,0.0191296,9.81349,-0.172166,1.61,-2.52,0.21,30.6664,-74.9873,-16.9656,1020.66
12962,-0.0095648,9.77523,-0.196078,1.61,-2.38,0.21,30.6664,-75.234,-16.744,1020.66
12968,0.0143472,9.80392,-0.186514,1.47,-2.45,0.14,30.434,-75.5424,-17.4976,1020.66
12974,0.0526064,9.81827,-0.191296,1.68,-2.59,-0.28,31.1894,-75.2649,-17.2464,1020.66
12980,0.0095648,9.79914,-0.181731,1.61,-2.52,0.21,31.0151,-74.7097,-16.7144,1020.66
12986,0.0095648,9.79914,-0.124342,1.61,-2.38,0,31.0151,-75.2032,-16.9952,1020.67
12992,0.0286944,9.78957,-0.186514,1.47,-2.24,0.21,30.7827,-74.8639,-17.4089,1020.67
12998,0.023912,9.8087,-0.191296,1.4,-2.38,0.07,31.4219,-75.3882,-17.5124,1020.69
13004,0.0047824,9.81827,-0.153037,1.54,-2.38,0,30.986,-75.3574,-16.9509,1020.69
13010,-0.0047824,9.80392,-0.167384,1.54,-2.31,-0.35,30.4049,-75.0181,-18.6058,1020.69
13016,0,9.80392,-0.13869,1.75,-2.1,-0.14,30.9279,-74.9256,-18.133,1020.69
13022,0.0047824,9.78001,-0.13869,1.89,-2.59,-0.07,30.8117,-75.3882,-18,1020.69
13028,0.0191296,9.82783,-0.148254,1.47,-2.38,0.14,30.957,-75.7275,-16.9804,1020.65
13034,0.0047824,9.81827,-0.162602,1.68,-2.17,-0.14,30.7536,-75.0181,-17.2759,1020.65
13040,0.0143472,9.78001,-0.13869,1.68,-2.1,0.21,30.8408,-74.7406,-17.2612,1020.66
13046,-0.0095648,9.82783,-0.133907,1.61,-2.38,-17.5,30.8698,-75.234,-18.1182,1020.66
13052,0.0095648,9.81349,-0.11956,1.4,-2.52,-0.14,30.7245,-74.9873,-16.7144,1020.64
13058,0.0143472,9.81349,-0.157819,1.4,-2.66,0.28,30.7536,-75.049,-17.5124,1020.64
13064,0.0621712,9.79436,-0.133907,2.03,-2.8,0.14,30.7536,-75.6349,-17.5862,1020.65
13070,-0.0143472,9.8087,-0.143472,1.61,-1.89,0.07,31.0732,-74.9256,-17.0838,1020.65
13076,0.0047824,9.78001,-0.129125,1.75,-2.38,0.07,30.4921,-75.4499,-18.3103,1020.65
13082,0.0143472,9.81349,-0.143472,1.68,-2.87,0.14,30.463,-74.6789,-18.3103,1020.65
13088,0.0095648,9.80392,-0.167384,1.75,-2.59,0,30.6083,-75.1415,-18.3694,1020.65
13094,0.023912,9.80392,-0.153037,1.82,-2.52,0.21,30.4049,-75.6658,-16.611,1020.66
13100,0.0334768,9.79436,-0.157819,1.54,-2.38,0,30.2015,-74.7406,-16.8326,1020.66
13106,0.023912,9.79436,-0.11956,1.96,-2.52,-0.21,30.4921,-74.6172,-16.9804,1020.68
13112,0.0191296,9.79436,-0.143472,1.61,-2.38,-0.14,30.7827,-74.9873,-16.4189,1020.68
13118,0.0286944,9.80392,-0.109995,2.1,-2.52,0.14,30.6664,-74.9256,-17.0395,1020.67
13124,0.047824,9.80392,-0.143472,1.96,-2.45,0.07,30.6083,-75.3574,-17.2907,1020.67
13130,0.0191296,9.8087,-0.176949,1.54,-2.31,0,30.4921,-75.049,-16.8917,1020.67
13136,-0.0286944,9.84696,-0.167384,1.61,-2.52,-0.14,30.434,-75.4499,-16.9804,1020.68
13142,-0.0143472,9.76566,-0.109995,1.61,-2.66,-0.49,31.1604,-75.7275,-16.3007,1020.68
13148,0.0143472,9.79436,-0.11956,1.61,-2.38,-0.07,31.0151,-75.3265,-16.2564,1020.64
13154,0.0191296,9.81827,-0.162602,1.54,-2.38,0.56,30.5211,-74.7714,-17.0395,1020.64
13160,0,9.82783,-0.153037,1.68,-2.59,0.07,30.3177,-75.6041,-17.0247,1020.64
13166,0.0095648,9.79436,-0.143472,1.54,-2.52,-0.21,30.3177,-75.2649,-16.6849,1020.64
13172,0.0095648,9.82305,-0.10043,1.82,-2.31,-0.14,30.3177,-75.2649,-16.3007,1020.62
13178,0.0143472,9.78957,-0.105213,1.54,-2.24,0.49,30.8698,-75.9433,-17.6306,1020.62
13184,-0.0047824,9.80392,-0.148254,2.03,-2.45,-0.14,30.4921,-75.5116,-17.1577,1020.64
13190,0.0334768,9.79436,-0.167384,1.26,-2.66,0.07,30.2887,-75.4191,-17.1282,1020.64
13196,0.023912,9.77044,-0.153037,1.82,-2.31,0,30.3759,-75.5733,-17.2464,1020.64
13202,0.0191296,9.79914,-0.109995,1.75,-1.96,-0.07,30.6664,-75.1415,-17.2464,1020.66
13208,-0.0047824,9.81349,-0.129125,1.89,-2.59,0.49,30.6955,-74.9873,-18.4285,1020.66
13214,0.0430416,9.79914,-0.162602,1.47,-2.8,0,30.6083,-74.9256,-17.0691,1020.64
13220,0.0382592,9.80392,-0.143472,1.61,-2.52,-0.28,29.94,-75.4499,-16.0052,1020.64
13226,0.0573888,9.82783,-0.148254,1.12,-2.59,0.14,30.7827,-74.8331,-17.1429,1020.66
13232,0.0095648,9.8087,-0.129125,1.96,-2.45,0.21,30.434,-74.9565,-17.0395,1020.66
13238,-0.0143472,9.79914,-0.133907,1.33,-2.38,-0.14,29.7657,-75.5424,-16.8917,1020.68
13244,-0.0095648,9.79436,-0.143472,1.61,-2.31,-0.21,30.4049,-74.5864,-16.7735,1020.68
13250,0.023912,9.81349,-0.11956,1.4,-2.45,-0.21,30.5211,-75.1415,-17.9556,1020.68
13256,0.0095648,9.79436,-0.13869,1.89,-2.52,0.14,30.5793,-75.234,-16.5814,1020.62
13262,0.0286944,9.78479,-0.162602,1.54,-2.03,-17.92,30.0562,-75.8817,-16.9213,1020.62
13268,0.0047824,9.79914,-0.13869,1.33,-2.45,0.35,30.3177,-75.3265,-17.1577,1020.66
13274,0.0047824,9.78001,-0.11956,1.68,-2.1,0.28,30.434,-75.6966,-17.0543,1020.66
13280,0.0430416,9.84218,-0.148254,1.33,-2.31,-0.14,30.7245,-75.3574,-16.2564,1020.63
13286,0.0047824,9.79436,-0.143472,1.61,-2.24,0.21,30.5793,-75.2649,-17.5862,1020.63
13292,0.0526064,9.78001,-0.13869,1.33,-1.96,0.56,30.2306,-75.6041,-17.2907,1020.64
13298,-0.0382592,9.78957,-0.129125,1.82,-2.73,0.35,30.1434,-75.7275,-16.8326,1020.64
13304,0.0143472,9.8087,-0.129125,1.47,-2.59,0.07,30.8698,-75.049,-17.7931,1020.64
13310,0.0095648,9.81349,-0.148254,1.4,-2.87,0.21,30.3759,-75.234,-16.611,1020.68
13316,0.0143472,9.8087,-0.162602,2.03,-2.17,0.49,30.5502,-75.6349,-17.3055,1020.68
13322,-0.0047824,9.77523,-0.176949,1.75,-2.66,0.07,31.2766,-75.1723,-17.1725,1020.65
13328,0,9.77523,-0.143472,1.82,-2.66,0.14,31.0151,-75.5116,-16.9361,1020.65
13334,0.0334768,9.83261,-0.13869,1.4,-2.24,0.21,30.986,-75.1723,-17.1134,1020.69
13340,0.0526064,9.83261,-0.186514,1.61,-2.45,0,30.4049,-75.0798,-17.7636,1020.69
13346,0.0573888,9.8087,-0.153037,1.68,-2.45,-0.14,29.5332,-75.4499,-16.7292,1020.62
13352,0.0334768,9.81827,-0.153037,1.61,-2.45,-0.07,30.0853,-75.3882,-16.9361,1020.62
13358,-0.0143472,9.78957,-0.148254,1.61,-2.45,0.07,29.94,-75.5424,-17.01,1020.63
13364,-0.0047824,9.78479,-0.157819,1.89,-2.59,-0.14,30.5502,-75.2649,-17.1134,1020.63
13370,-0.0095648,9.78479,-0.143472,1.75,-2.52,-0.07,30.1143,-75.6658,-17.2168,1020.63
13376,0,9.81349,-0.124342,1.68,-2.45,-0.28,30.434,-74.8948,-16.5814,1020.64
13382,0.0095648,9.78479,-0.167384,1.96,-2.38,0.07,30.1143,-75.7891,-18.1034,1020.64
13388,0.0191296,9.81349,-0.162602,1.89,-2.38,0,30.2015,-75.2957,-18.1625,1020.67
13394,0.0143472,9.79914,-0.191296,1.54,-2.45,0.28,29.94,-75.8817,-17.4533,1020.67
13400,0.0095648,9.76566,-0.181731,1.96,-2.59,-0.21,30.5793,-75.049,-17.2021,1020.67
13406,0.0334768,9.82783,-0.153037,1.96,-2.59,17.57,30.5211,-75.1107,-16.6553,1020.67
13412,0.0095648,9.78479,-0.133907,1.61,-2.24,0.14,30.2015,-74.1546,-16.5371,1020.66
13418,0.0334768,9.78957,-0.153037,1.75,-2.31,-0.14,29.6204,-74.9256,-17.6306,1020.66
13424,0,9.80392,-0.181731,2.03,-2.17,0.7,30.8117,-75.6349,-17.2612,1020.66
13430,0.023912,9.80392,-0.162602,1.54,-2.45,0.42,29.94,-74.6481,-16.9361,1020.66
13436,0.0095648,9.77523,-0.157819,1.96,-2.73,-0.07,30.6664,-75.3882,-17.6306,1020.66
13442,0.0430416,9.80392,-0.143472,1.82,-2.87,0.14,30.1725,-75.0181,-17.5862,1020.68
13448,0.0526064,9.78001,-0.181731,1.75,-2.59,0.14,30.7827,-75.7275,-17.1134,1020.68
13454,0.0573888,9.82783,-0.167384,1.68,-2.45,0.14,29.9981,-74.8331,-17.7192,1020.64
13460,0.0430416,9.82305,-0.129125,1.68,-2.73,0.07,30.3759,-75.5424,-17.2021,1020.64
13466,0.0095648,9.80392,-0.157819,1.61,-2.31,0,29.5623,-75.6966,-17.5862,1020.62
13472,-0.0047824,9.81349,-0.162602,1.47,-2.38,-0.07,30.7536,-75.4499,-17.0395,1020.62
13478,0.0143472,9.82783,-0.162602,1.68,-2.52,-0.14,30.3468,-75.049,-17.3646,1020.65
13484,0.0382592,9.79914,-0.172166,1.96,-2.66,-0.14,29.5042,-75.0798,-17.8079,1020.65
13490,-0.0143472,9.84696,-0.162602,1.47,-2.45,0.14,29.7947,-75.4499,-16.6997,1020.65
13496,-0.0286944,9.80392,-0.0908656,1.75,-2.87,0,30.3177,-75.0798,-17.4237,1020.67
13502,0.0047824,9.8087,-0.13869,1.89,-2.66,0.21,30.0272,-75.3265,-16.8326,1020.67
13508,0.0286944,9.78957,-0.13869,1.68,-2.24,-0.07,30.463,-74.8023,-17.2612,1020.64
13514,0.0143472,9.83261,-0.133907,1.75,-2.59,0.28,30.2596,-75.234,-17.0543,1020.64
13520,0.047824,9.81827,-0.109995,2.03,-2.73,-0.07,30.7536,-75.4191,-17.0986,1020.66
13526,0.023912,9.81349,-0.167384,1.82,-2.59,0,29.8238,-75.2957,-17.0543,1020.66
13532,0.023912,9.79436,-0.162602,1.68,-2.45,0.35,30.3177,-75.9433,-16.611,1020.65
13538,-0.0191296,9.78479,-0.153037,1.68,-2.24,0.63,30.2887,-75.6349,-17.4976,1020.65
13544,0.0286944,9.77523,-0.153037,1.54,-2.31,0,30.3468,-74.8331,-16.8031,1020.65
13562,0.0143472,9.80392,-0.133907,1.89,-2.45,-0.14,30.3177,-75.2957,-17.3646,1020.67
13568,0.0286944,9.82783,-0.157819,1.75,-2.31,0.42,30.3177,-74.8331,-17.468,1020.67
13574,0.0191296,9.79914,-0.176949,1.89,-2.52,0.63,30.9279,-75.4807,-17.4976,1020.68
13580,0.0430416,9.8374,-0.129125,1.54,-2.1,0.14,31.451,-75.2957,-17.7192,1020.68
13586,0.0191296,9.78957,-0.153037,1.82,-2.1,0.07,30.5793,-75.3265,-17.0543,1020.66
13592,0.0095648,9.83261,-0.133907,1.68,-2.45,0.63,30.6374,-75.3882,-17.01,1020.66
13598,0.0286944,9.78001,-0.148254,1.61,-2.94,0.07,30.6374,-74.9256,-18.5024,1020.66
13604,0.023912,9.77044,-0.124342,2.03,-2.31,-0.21,29.94,-75.5424,-18.2807,1020.66
13610,0.0334768,9.77523,-0.176949,1.82,-2.38,-0.21,30.0562,-76.0975,-17.4385,1020.66
13616,0.0143472,9.82305,-0.172166,1.54,-2.8,0.07,30.5211,-75.2649,-17.3794,1020.63
13622,0.0191296,9.82305,-0.133907,1.75,-2.31,0.14,30.3759,-74.8331,-16.7883,1020.63
13628,0.0191296,9.78001,-0.109995,2.03,-2.59,0.07,30.5793,-75.5116,-17.7045,1020.61
13634,0,9.78001,-0.148254,1.89,-2.38,0,31.0442,-75.3574,-17.6749,1020.61
13640,0.047824,9.79436,-0.176949,1.61,-2.38,-0.28,29.8238,-74.6481,-17.1429,1020.65
13646,0.023912,9.78001,-0.148254,1.68,-2.31,0.28,31.2766,-74.6789,-17.7783,1020.65
13652,0.0382592,9.78957,-0.143472,1.47,-2.31,-0.14,30.3468,-75.6041,-16.8917,1020.65
13658,0.0430416,9.79914,-0.11956,1.68,-2.31,0.56,31.1894,-75.2032,-17.7045,1020.65
13664,0.0526064,9.82783,-0.153037,1.61,-2.59,0.07,30.8117,-75.1723,-17.4976,1020.65
13670,0.0047824,9.79914,-0.133907,1.89,-2.73,0.28,30.2887,-75.6658,-17.3055,1020.66
13676,0.0430416,9.77523,-0.162602,1.96,-2.73,0.07,31.48,-75.4499,-16.9065,1020.66
13682,-0.0047824,9.8087,-0.143472,1.75,-2.45,0.42,30.5793,-74.7714,-17.3646,1020.65
13688,0.0334768,9.82305,-0.13869,1.96,-2.31,0.28,30.6083,-74.7406,-17.1429,1020.65
13694,0.0382592,9.78001,-0.181731,1.68,-2.59,0.28,30.7245,-75.6041,-16.4632,1020.65
13700,0.023912,9.81827,-0.167384,1.75,-2.45,0,30.434,-75.1415,-16.8474,1020.65
13706,0.0047824,9.83261,-0.157819,1.82,-2.38,-0.14,30.5793,-74.8023,-17.1577,1020.63
13712,0.0382592,9.79436,-0.167384,1.61,-2.38,0.14,30.4921,-76.0975,-17.3941,1020.63
13718,0.0143472,9.79914,-0.105213,1.47,-2.03,0.07,30.2306,-75.5733,-18.0443,1020.63
13724,0.0334768,9.78001,-0.109995,1.82,-2.59,0,30.4049,-74.9256,-17.3794,1020.66
13730,0.0526064,9.78001,-0.13869,1.89,-2.45,0.28,29.8528,-75.5733,-17.4976,1020.66
13736,0.0095648,9.79914,-0.11956,1.96,-2.52,-0.28,30.5502,-75.6966,-16.8031,1020.68
13742,0,9.78957,-0.143472,1.68,-2.38,-0.42,31.1313,-75.049,-18.1625,1020.68
13748,0.0143472,9.79436,-0.148254,1.89,-2.1,0.07,30.2015,-75.2649,-17.3055,1020.65
13754,0.0095648,9.8087,-0.153037,1.75,-2.73,0.63,30.1143,-76.4985,-18.1034,1020.65
13760,-0.0095648,9.78479,-0.153037,1.82,-2.38,0.14,30.6374,-75.3574,-17.5124,1020.69
13766,0.0143472,9.81827,-0.13869,1.82,-2.52,0.21,30.5211,-75.1107,-17.1429,1020.69
13772,0.0286944,9.79914,-0.143472,1.82,-2.45,0.63,30.8117,-75.6658,-17.0395,1020.68
13778,0.0143472,9.81827,-0.167384,1.54,-2.66,0,30.8408,-75.8817,-16.4928,1020.68
13784,0.0191296,9.80392,-0.167384,1.26,-2.66,-0.35,30.3468,-75.3574,-17.01,1020.68
13790,0.0143472,9.79436,-0.133907,1.75,-2.73,0.21,30.434,-75.6966,-16.478,1020.64
13796,0.0430416,9.78479,-0.162602,1.96,-2.1,0.28,30.3177,-75.0181,-17.867,1020.64
13802,0.0573888,9.8374,-0.143472,1.82,-2.38,-0.28,29.7076,-75.8817,-17.5124,1020.6
13808,0.047824,9.81349,-0.13869,1.68,-2.73,-0.42,30.1725,-74.2471,-16.8326,1020.6
13814,0.047824,9.83261,-0.181731,1.96,-2.87,-0.28,30.1725,-75.5733,-17.0247,1020.65
13820,0.0334768,9.83261,-0.205643,1.68,-2.73,-0.28,30.8117,-75.4499,-16.1973,1020.65
13826,-0.0286944,9.80392,-0.129125,1.19,-1.96,0.07,30.434,-75.3574,-18.0148,1020.67
13832,0.0095648,9.79914,-0.148254,1.54,-2.24,-0.07,30.6664,-74.8948,-16.877,1020.67
13838,0.0095648,9.79436,-0.13869,1.89,-2.45,-0.77,30.3759,-75.9742,-17.8079,1020.67
13844,-0.023912,9.78001,-0.124342,1.89,-2.38,-0.14,29.7076,-75.5116,-16.3302,1020.68
13850,0.0047824,9.77523,-0.124342,1.61,-2.31,0.28,30.434,-74.8639,-16.9656,1020.68
13856,0,9.78479,-0.109995,1.68,-2.38,-0.7,30.4049,-75.3574,-16.9952,1020.63
13862,0,9.79436,-0.133907,1.75,-2.66,-0.07,31.1604,-74.9873,-16.9509,1020.63
13868,0.0095648,9.76088,-0.157819,1.68,-2.24,0.35,31.2476,-74.8023,-16.9065,1020.64
13874,0,9.79436,-0.157819,1.68,-2.73,0.21,29.6494,-75.4191,-16.3155,1020.64
13880,0.023912,9.78479,-0.13869,1.4,-2.87,-0.21,30.5793,-74.9256,-16.7588,1020.65
13886,-0.0191296,9.79914,-0.148254,1.89,-2.94,0.07,30.6955,-75.1723,-17.4089,1020.65
13892,-0.0286944,9.78957,-0.157819,1.68,-2.38,0.84,30.3468,-74.9256,-17.2168,1020.65
13898,0.0095648,9.79914,-0.148254,1.82,-2.45,-0.07,30.7827,-75.234,-17.2316,1020.67
13904,0.023912,9.80392,-0.157819,1.47,-2.8,-0.21,30.0853,-75.4191,-16.5962,1020.67
13910,-0.0047824,9.78957,-0.148254,1.61,-3.01,0.28,30.6083,-75.234,-17.5124,1020.65
13916,0.0765184,9.79436,-0.162602,1.96,-2.52,0.14,30.6955,-74.8023,-16.744,1020.65
13922,0.0286944,9.83261,-0.186514,1.4,-2.31,0.28,30.4049,-74.6172,-17.3646,1020.67
13928,0.0143472,9.82305,-0.133907,1.68,-2.73,0.28,30.1434,-75.0798,-16.4189,1020.67
13934,0.0526064,9.85174,-0.176949,1.54,-2.52,0,30.2306,-74.9873,-16.5223,1020.66
13940,0.047824,9.8374,-0.181731,1.68,-2.52,-0.14,31.1894,-74.9565,-17.0395,1020.66
13946,0.0191296,9.8087,-0.13869,1.4,-2.03,-0.14,30.5793,-75.5424,-17.0838,1020.67
13952,0.023912,9.78001,-0.148254,1.4,-2.45,-0.07,30.7245,-74.9873,-16.6701,1020.67
13958,0.0047824,9.79436,-0.114778,1.68,-2.59,-0.14,30.7536,-74.6172,-17.6158,1020.67
13964,0.023912,9.82783,-0.129125,2.1,-2.52,-0.56,30.4049,-76.0667,-17.0838,1020.64
13970,0.0143472,9.79436,-0.129125,1.68,-2.17,-0.49,30.7536,-76.2209,-17.2759,1020.64
13976,0.023912,9.81827,-0.129125,1.82,-2.66,-0.28,30.7245,-75.0798,-17.3055,1020.67
13982,0.0047824,9.80392,-0.124342,1.61,-2.45,0,30.7245,-74.8023,-16.345,1020.67
13988,-0.0047824,9.78479,-0.133907,1.96,-2.31,0.14,30.6374,-75.9742,-17.0691,1020.63
13994,0.0047824,9.78479,-0.129125,1.96,-2.59,0.14,30.7827,-75.5733,-16.6553,1020.63
14000,0.0334768,9.82305,-0.13869,1.61,-2.17,0.28,30.3177,-76.1901,-16.9509,1020.65
14006,-0.0095648,9.8087,-0.153037,1.75,-2.38,0.28,31.1894,-75.1723,-17.2464,1020.65
14012,-0.0191296,9.80392,-0.124342,1.96,-2.73,0.42,30.5793,-75.8508,-17.0838,1020.65
14018,0.0047824,9.81349,-0.129125,1.68,-2.73,0.42,30.6083,-75.1415,-16.877,1020.65
14024,0,9.81349,-0.181731,1.96,-2.59,0.35,30.4921,-75.5116,-17.6453,1020.65
14030,0.023912,9.80392,-0.129125,1.61,-2.17,0.28,30.3468,-76.2209,-16.6405,1020.65
14036,-0.0047824,9.81827,-0.143472,1.54,-2.31,0.21,31.1604,-75.1107,-16.9804,1020.65
14042,0.0286944,9.80392,-0.143472,1.82,-2.66,-0.14,30.8989,-75.1107,-16.744,1020.67
14048,0.0382592,9.78479,-0.148254,1.75,-2.73,-0.14,31.7706,-75.049,-16.5223,1020.67
14054,0.0573888,9.80392,-0.162602,1.68,-2.52,-0.35,30.7827,-75.3882,-16.8474,1020.63
14060,0.0095648,9.82305,-0.186514,1.75,-2.31,0.21,30.6664,-75.234,-16.079,1020.63
14066,-0.0334768,9.81349,-0.167384,1.26,-2.73,0.63,31.0442,-75.7891,-17.2168,1020.65
14072,-0.0143472,9.77523,-0.153037,1.75,-2.38,-0.14,30.7245,-74.8023,-16.4041,1020.65
14078,0.0286944,9.79436,-0.143472,1.75,-3.01,-0.49,30.0853,-75.2032,-17.8227,1020.65
14084,0.0430416,9.81349,-0.176949,1.89,-2.31,-0.21,29.8819,-75.3574,-16.8474,1020.62
14090,-0.0095648,9.78001,-0.196078,1.75,-2.31,0.35,30.2887,-75.1415,-16.6701,1020.62
14096,-0.0143472,9.79436,-0.167384,1.68,-2.45,0,30.3468,-75.2957,-17.2316,1020.62
14102,0.0382592,9.80392,-0.196078,1.89,-2.8,0,30.2015,-75.049,-16.0347,1020.62
14108,0.0143472,9.8087,-0.167384,1.4,-2.31,0.35,30.6955,-74.8023,-16.9361,1020.65
14114,-0.0095648,9.77044,-0.148254,1.75,-2.73,0.07,30.6664,-74.8639,-16.6997,1020.65
14120,0.0095648,9.78479,-0.148254,1.82,-2.52,0.49,30.1434,-75.6041,-16.9213,1020.66
14126,0.0382592,9.80392,-0.153037,1.82,-2.66,0.49,29.8819,-75.0181,-16.9509,1020.66
14132,0.0143472,9.78479,-0.176949,1.68,-2.31,0.21,29.9981,-75.1107,-17.4089,1020.66
14138,0.0095648,9.8087,-0.186514,1.61,-2.59,-0.14,30.5211,-74.9256,-17.4828,1020.65
14144,-0.0143472,9.8087,-0.13869,1.68,-2.8,0.21,30.1725,-75.2032,-16.1825,1020.65
14150,0.047824,9.78957,-0.181731,1.61,-2.59,0.35,30.3468,-76.0359,-16.2416,1020.64
14156,0.0334768,9.83261,-0.157819,1.75,-2.24,0,30.3759,-74.8639,-16.611,1020.64
14162,0.0286944,9.78479,-0.153037,1.54,-2.1,0.28,29.6204,-76.2209,-16.8031,1020.66
14168,0.0526064,9.79436,-0.196078,1.75,-2.66,0.35,30.4049,-75.1723,-17.6749,1020.66
14174,0.0382592,9.79436,-0.191296,1.47,-2.52,0.49,30.957,-76.005,-16.5519,1020.66
14180,0.0430416,9.8087,-0.133907,1.54,-2.38,0.14,30.7827,-75.3265,-15.5471,1020.66
14186,0.0191296,9.79914,-0.186514,1.68,-2.24,-0.35,30.5211,-75.5424,-16.744,1020.66
14192,0.0382592,9.8087,-0.210426,1.89,-2.45,0.28,30.5502,-76.1592,-16.9509,1020.64
14198,0.0143472,9.8087,-0.162602,1.61,-2.73,-0.56,30.5502,-74.7714,-16.3007,1020.64
14204,0.0095648,9.78957,-0.167384,1.75,-2.59,0.07,30.3759,-75.2649,-16.9656,1020.65
14210,0.0286944,9.8087,-0.181731,1.89,-2.8,-0.14,30.7536,-75.1415,-16.079,1020.65
14216,0.0334768,9.80392,-0.186514,1.68,-2.38,0.21,31.2766,-74.6481,-17.7045,1020.65
14222,-0.0191296,9.79914,-0.157819,1.68,-2.31,0.07,30.6083,-75.1723,-16.6405,1020.65
14228,0.0143472,9.78479,-0.167384,1.68,-2.73,0.14,30.7245,-75.4499,-17.4237,1020.64
14234,0.0191296,9.83261,-0.176949,1.89,-2.59,0.35,30.4049,-74.7714,-17.6453,1020.64
14240,0.0765184,9.78001,-0.196078,1.68,-2.52,0.14,30.3177,-75.1107,-17.9556,1020.62
14246,-0.0047824,9.79436,-0.196078,1.54,-2.52,0.35,30.7827,-75.4499,-17.4533,1020.62
14252,0.0047824,9.81827,-0.148254,1.61,-2.66,-0.07,30.9279,-75.8817,-17.6601,1020.62
14258,-0.0047824,9.80392,-0.191296,2.03,-2.45,0.42,30.5211,-75.5116,-16.9213,1020.59
14264,0,9.8087,-0.143472,1.54,-2.59,0.28,30.3177,-75.0798,-16.6553,1020.59
14270,0.0669536,9.79436,-0.186514,1.89,-2.52,-0.07,30.434,-75.0181,-17.2759,1020.66
14276,0.0334768,9.80392,-0.172166,1.47,-2.45,0.07,30.5211,-74.9256,-17.1577,1020.66
14282,0.0191296,9.78957,-0.162602,2.03,-2.38,0.42,30.5211,-75.234,-17.2464,1020.67
14288,0.0334768,9.79436,-0.162602,1.61,-2.45,-0.14,30.8408,-75.2032,-16.7588,1020.67
14294,0.023912,9.78001,-0.200861,1.68,-2.38,0.42,31.1604,-75.5116,-18.3842,1020.64
14300,0.0430416,9.78957,-0.172166,1.61,-2.38,-0.07,31.1023,-75.0181,-16.9509,1020.64
14306,0.0095648,9.78957,-0.172166,1.47,-2.45,0.28,30.9279,-75.4499,-17.0691,1020.64
14312,0.023912,9.8087,-0.186514,1.68,-2.59,0.28,29.9981,-75.2649,-18.0886,1020.63
14318,0.0143472,9.79914,-0.176949,1.89,-2.73,-0.35,30.1143,-76.1284,-17.734,1020.63
14324,0.0047824,9.79914,-0.176949,1.68,-2.38,0.21,30.8408,-75.2032,-16.7735,1020.64
14330,0.0047824,9.8087,-0.186514,1.54,-2.45,0.21,30.6955,-75.1723,-17.0986,1020.64
14336,0.0143472,9.79436,-0.176949,1.26,-2.45,0.56,30.434,-75.234,-16.4485,1020.64
14342,-0.0047824,9.77044,-0.172166,1.4,-2.66,-0.14,31.2766,-75.3882,-17.6749,1020.64
14348,0.0334768,9.78957,-0.167384,1.47,-2.38,0.14,30.8408,-76.1901,-17.8374,1020.69
14354,-0.0047824,9.78001,-0.186514,1.54,-2.52,-0.07,30.5793,-76.0359,-17.4976,1020.69
14360,-0.0334768,9.78957,-0.157819,1.61,-2.45,-0.07,31.2185,-75.8508,-17.2021,1020.65
14366,0.0191296,9.80392,-0.181731,1.47,-2.59,0.14,31.2185,-75.7891,-17.1282,1020.65
14372,0.047824,9.82305,-0.172166,1.68,-2.73,0,30.5502,-75.1107,-16.6997,1020.65
14378,0.0286944,9.79914,-0.157819,1.54,-2.17,0.07,30.8698,-75.1723,-16.9952,1020.66
14384,-0.0047824,9.79436,-0.167384,1.54,-2.38,0.21,30.7827,-75.7275,-16.5519,1020.66
14390,0.0095648,9.77523,-0.167384,1.68,-2.38,0.35,30.9279,-75.6349,-16.2711,1020.64
14396,0.0526064,9.81827,-0.196078,1.82,-2.59,0.07,30.6083,-75.4499,-17.0986,1020.64
14402,-0.0095648,9.79436,-0.162602,1.68,-2.59,-0.14,30.986,-75.9433,-17.6601,1020.63
14408,-0.0047824,9.80392,-0.157819,1.4,-2.31,0.28,30.7245,-75.7891,-17.4533,1020.63
14414,0.0095648,9.8087,-0.181731,1.68,-2.45,-0.42,31.1023,-75.8508,-16.3302,1020.6
14420,0.0621712,9.78001,-0.157819,1.75,-2.17,0.28,30.986,-75.3574,-17.7045,1020.6
14426,0.0191296,9.79914,-0.186514,1.47,-2.38,0.42,30.1434,-74.3705,-17.4976,1020.6
14432,0.0430416,9.83261,-0.210426,1.61,-2.31,-0.21,31.0732,-74.7406,-17.5862,1020.64
14438,0.047824,9.81827,-0.153037,1.47,-2.52,0,30.8117,-75.3574,-17.1282,1020.64
14444,-0.0047824,9.76566,-0.133907,1.75,-2.45,0.21,30.1434,-75.3265,-17.5124,1020.66
14450,0.0047824,9.78479,-0.176949,1.96,-3.01,0.07,30.7827,-74.7097,-16.4041,1020.66
14456,0.0573888,9.82305,-0.176949,1.68,-2.73,-0.42,30.2306,-75.1107,-16.4928,1020.64
14462,0.0334768,9.74175,-0.143472,1.68,-2.59,0.14,30.6083,-75.4191,-16.9804,1020.64
14468,-0.0286944,9.77523,-0.129125,1.89,-2.45,0.56,30.8408,-74.6789,-16.9509,1020.66
14474,0.047824,9.78957,-0.162602,1.96,-2.52,-0.63,29.9109,-75.6349,-17.3794,1020.66
14480,-0.0047824,9.83261,-0.181731,1.68,-2.73,17.57,30.463,-74.5864,-18.0739,1020.66
14486,0.0526064,9.79914,-0.186514,1.19,-2.38,0.21,30.5793,-74.9256,-17.0838,1020.65
14492,0.0095648,9.77523,-0.186514,1.75,-2.52,0.07,30.0272,-75.4807,-17.0838,1020.65
14498,0.023912,9.77523,-0.143472,1.75,-2.66,0.63,30.9279,-74.7097,-16.7883,1020.69
14504,0.047824,9.79436,-0.176949,1.4,-2.52,0.35,30.5502,-75.0798,-17.3203,1020.69
14510,0.047824,9.81349,-0.162602,1.54,-2.31,0.28,30.7536,-75.82,-16.5667,1020.65
14516,0.0765184,9.84696,-0.191296,1.33,-2.31,0,30.5793,-75.0798,-17.8818,1020.65
14522,0.0621712,9.79436,-0.172166,1.54,-2.52,0.49,30.6664,-74.7714,-16.5519,1020.64
14528,0.0526064,9.81827,-0.109995,1.61,-2.52,0.21,30.3468,-75.234,-17.2464,1020.64
14534,0.0191296,9.78957,-0.157819,1.68,-2.45,-0.28,30.1434,-75.7891,-15.9461,1020.67
14540,0.0191296,9.78001,-0.200861,1.26,-1.82,0.42,30.6374,-74.8331,-16.5962,1020.67
14546,0.0430416,9.81349,-0.162602,1.47,-2.73,0.14,30.434,-75.0798,-17.867,1020.67
14552,0.0143472,9.81827,-0.191296,1.68,-3.01,-17.85,30.5502,-75.6966,-16.6849,1020.63
14558,0.0334768,9.78001,-0.200861,1.89,-2.59,0.63,30.8989,-74.8331,-16.4189,1020.63
14564,0.0286944,9.83261,-0.153037,1.89,-2.24,0.42,29.7657,-75.049,-17.01,1020.63
14570,0.0191296,9.77523,-0.191296,1.4,-2.31,0.07,30.5502,-75.2957,-17.2612,1020.63
14576,0.0286944,9.82305,-0.167384,1.33,-2.59,0.14,31.1313,-74.9256,-16.9509,1020.66
14582,0.0143472,9.78479,-0.176949,2.03,-2.8,0.56,30.2015,-75.1107,-16.1529,1020.66
14588,-0.0143472,9.80392,-0.167384,1.61,-2.66,-0.07,30.6955,-75.2032,-18.7831,1020.69
14594,0.0286944,9.78479,-0.200861,1.96,-2.66,-0.07,30.9279,-74.6481,-17.5124,1020.69
14600,0.0286944,9.79914,-0.157819,1.68,-2.59,0.07,30.6664,-75.7583,-16.7292,1020.69
14606,0.0526064,9.77044,-0.153037,2.1,-2.59,-0.14,30.8117,-74.8639,-17.1134,1020.64
14612,0.023912,9.78957,-0.205643,2.03,-2.73,-0.07,30.3177,-75.3882,-16.0495,1020.64
14618,0.0334768,9.81349,-0.162602,1.54,-2.17,0.21,30.3468,-74.7406,-17.9113,1020.63
14624,0.0047824,9.81827,-0.172166,1.82,-2.66,0.35,31.2185,-74.8023,-16.9361,1020.63
14630,0.023912,9.8374,-0.191296,1.47,-2.52,0.21,30.434,-75.6041,-17.9852,1020.64
14636,0.023912,9.81349,-0.191296,1.19,-2.73,0.28,30.5502,-75.234,-16.611,1020.64
14642,0.0334768,9.79436,-0.157819,1.33,-2.52,0.07,30.2306,-74.463,-15.9608,1020.66
14648,0.0573888,9.8087,-0.172166,1.89,-2.45,-0.21,30.434,-75.2649,-16.8622,1020.66
14654,0.0573888,9.78479,-0.205643,1.75,-2.45,-0.35,30.4921,-75.0181,-16.4632,1020.64
14660,0.0095648,9.83261,-0.186514,1.54,-2.45,-0.35,29.94,-75.4191,-17.2464,1020.64
14666,0.0143472,9.82305,-0.162602,1.26,-2.52,0,30.2306,-74.7406,-16.2711,1020.64
14672,0.0286944,9.7561,-0.148254,1.47,-2.24,0.21,30.1725,-75.3265,-17.2168,1020.65
14678,0.0382592,9.76566,-0.143472,1.68,-2.31,-0.49,30.0272,-75.4191,-16.5667,1020.65
14684,0.0191296,9.78957,-0.162602,1.4,-1.96,-0.42,30.2306,-75.6966,-16.3894,1020.69
14690,0.0047824,9.8087,-0.157819,1.68,-2.52,-0.28,30.4921,-75.6041,-17.1873,1020.69
14696,0.0430416,9.78001,-0.153037,1.75,-2.45,-17.71,30.5502,-75.5424,-16.5519,1020.67
14702,0.0334768,9.78479,-0.162602,1.61,-2.45,0,30.3468,-75.4499,-16.6553,1020.67
14708,0.023912,9.78957,-0.167384,1.68,-2.24,0.21,30.6955,-75.5424,-17.8965,1020.65
14714,-0.0047824,9.78957,-0.162602,1.61,-2.59,0.35,30.1725,-75.5424,-16.877,1020.65
14720,0.0191296,9.78957,-0.253467,1.47,-2.1,0.07,30.2015,-75.5424,-15.6653,1020.65
14726,-0.023912,9.8374,-0.172166,1.26,-2.52,-0.21,30.0562,-75.2957,-17.0838,1020.66
14732,0.0908656,9.77523,-0.172166,1.61,-2.24,0.63,30.434,-75.4499,-17.1725,1020.66
14738,0.0286944,9.82783,-0.157819,1.54,-2.1,0.63,30.8117,-74.4939,-17.01,1020.62
14744,0.0334768,9.78957,-0.191296,1.33,-2.38,0,30.6083,-75.5424,-17.9261,1020.62
14750,0.0573888,9.78479,-0.153037,1.4,-2.31,0.21,30.434,-75.6658,-16.1677,1020.65
14756,0.023912,9.79436,-0.172166,1.96,-2.52,0.35,30.6664,-75.2649,-17.6306,1020.65
14762,0.0286944,9.79914,-0.172166,1.75,-2.17,0.28,30.957,-75.3882,-17.7931,1020.62
14768,0.023912,9.81349,-0.148254,1.61,-2.03,0.42,30.6955,-75.4499,-17.4089,1020.62
14774,0.0430416,9.77044,-0.13869,1.82,-2.38,-0.07,30.6664,-74.9873,-16.9804,1020.66
14780,0.0334768,9.81827,-0.205643,1.4,-1.89,0,30.986,-75.5424,-17.5124,1020.66
14786,0.0334768,9.81827,-0.176949,1.82,-2.38,0,30.5502,-75.234,-16.1825,1020.66
14792,0.0286944,9.8087,-0.181731,1.89,-2.24,0.21,30.8989,-75.4499,-16.9065,1020.63
14798,-0.0191296,9.79914,-0.172166,1.54,-2.45,0,30.5502,-74.8948,-17.6897,1020.63
14804,0.0191296,9.7561,-0.13869,1.47,-1.96,0.07,30.3468,-74.7406,-16.9952,1020.66
14810,0.0143472,9.81827,-0.186514,2.03,-2.52,0.07,30.4049,-75.6658,-16.8326,1020.66
14816,0.0191296,9.81349,-0.143472,1.33,-2.59,0.14,31.0442,-74.2471,-16.7735,1020.63
14822,0.0334768,9.82305,-0.186514,1.61,-2.24,0.21,30.1725,-75.2957,-18.266,1020.63
14828,0.0143472,9.82305,-0.167384,1.47,-2.38,0.42,30.986,-74.8023,-17.2759,1020.67
14834,0.0095648,9.83261,-0.196078,1.68,-2.31,0.28,30.7245,-74.8023,-17.1725,1020.67
14840,0.0334768,9.8087,-0.200861,1.54,-2.52,0.49,30.3759,-75.4499,-16.8917,1020.67
14846,0.0286944,9.78479,-0.157819,1.19,-2.52,0,30.8117,-75.3265,-17.5567,1020.64
14852,0.047824,9.79914,-0.162602,1.26,-2.1,0.63,30.2306,-75.7275,-16.5962,1020.64
14858,0.0047824,9.80392,-0.162602,1.75,-2.52,0.21,31.0151,-74.4939,-16.8474,1020.65
14864,0.023912,9.81349,-0.176949,1.4,-1.82,0.28,31.0151,-75.2032,-16.7144,1020.65
14870,0.0621712,9.79436,-0.162602,1.61,-2.17,0.35,30.8408,-75.2032,-17.3646,1020.62
14876,0.0143472,9.79436,-0.143472,1.68,-2.66,0,29.7366,-75.2649,-17.0691,1020.62
14882,0.0143472,9.82305,-0.157819,1.82,-2.03,0.42,29.8528,-75.0181,-17.2464,1020.61
14888,0.0382592,9.78957,-0.162602,1.68,-2.59,0.14,30.8117,-75.6349,-17.4533,1020.61
14894,0.0669536,9.81827,-0.167384,1.68,-2.66,-0.42,30.3468,-75.3574,-16.9656,1020.61
14900,0.047824,9.82783,-0.172166,1.82,-2.52,0.14,30.1725,-74.6481,-16.3598,1020.68
14906,0.0669536,9.8374,-0.153037,1.47,-2.45,0.21,30.2596,-75.049,-16.0495,1020.68
14912,0.023912,9.7561,-0.148254,1.68,-2.31,-0.07,30.7536,-75.5116,-16.8179,1020.66
14918,0.0191296,9.79436,-0.148254,1.61,-2.31,-0.14,30.7245,-75.7891,-16.7883,1020.66
14924,0.0143472,9.81349,-0.162602,1.54,-2.52,0.07,30.5502,-74.6481,-17.2612,1020.62
14930,0.0143472,9.78479,-0.148254,1.54,-2.59,0.07,30.8117,-74.9873,-18,1020.62
14936,0.0286944,9.81349,-0.157819,1.61,-2.45,0.28,30.434,-75.6041,-17.8965,1020.63
14942,0.0095648,9.78957,-0.162602,1.82,-2.45,-0.42,30.434,-76.1592,-15.8722,1020.63
14948,0.0191296,9.79436,-0.153037,1.82,-2.45,-0.07,30.5502,-75.2957,-15.6801,1020.64
14954,0.0334768,9.79914,-0.13869,1.96,-2.8,0.21,30.7245,-75.2032,-16.8622,1020.64
14960,0.0095648,9.78957,-0.148254,1.68,-2.24,0.28,30.957,-74.8331,-17.3646,1020.64
14966,0.0047824,9.80392,-0.157819,1.61,-2.52,-0.07,30.0272,-74.7097,-16.6258,1020.65
14972,0.0430416,9.81349,-0.129125,1.89,-2.38,0,30.2015,-74.6789,-16.9065,1020.65
14978,0.0143472,9.78001,-0.167384,1.54,-2.94,0.63,30.3759,-74.7714,-15.7687,1020.63
14984,0.0047824,9.77523,-0.148254,1.96,-2.45,0.49,30.2887,-76.1592,-18.1921,1020.63
14990,0.0286944,9.78479,-0.105213,1.54,-2.66,0.63,30.0853,-74.7406,-17.0247,1020.62
14996,0.0382592,9.79436,-0.157819,1.75,-2.52,0,30.3759,-75.1415,-17.3203,1020.62
15002,0.0573888,9.81827,-0.105213,2.17,-2.87,-0.21,30.6374,-74.8948,-15.8278,1020.64
15008,0.0430416,9.81827,-0.196078,1.82,-2.45,0.21,29.5913,-74.6172,-17.335,1020.64
15014,0.0286944,9.84218,-0.172166,1.96,-2.66,0.21,30.1434,-74.9873,-16.5667,1020.64
15020,0.047824,9.82305,-0.172166,1.68,-2.45,0.07,30.0562,-75.0798,-17.2316,1020.66
15026,0.0334768,9.79914,-0.181731,1.54,-2.59,0.28,30.0562,-75.5424,-16.9804,1020.66
15032,0.0143472,9.84696,-0.181731,1.54,-2.31,-0.14,30.3177,-75.7891,-16.4337,1020.63
15038,0.0526064,9.78957,-0.181731,1.47,-2.66,0.07,30.2887,-74.8023,-16.0643,1020.63
15044,0.023912,9.79436,-0.129125,1.47,-2.52,0.07,30.0853,-75.2032,-16.6849,1020.65
15050,0.0573888,9.81349,-0.143472,1.82,-2.59,-0.14,30.1143,-75.5424,-17.8079,1020.65
15056,0.0047824,9.77523,-0.124342,1.4,-2.24,-0.07,29.7947,-75.5733,-17.5567,1020.64
15062,-0.0047824,9.79914,-0.172166,1.68,-2.59,0.14,30.8408,-75.4499,-16.9656,1020.64
15068,0.0573888,9.78957,-0.153037,1.26,-2.38,0.28,29.8819,-75.3882,-16.5962,1020.62
15074,0.023912,9.78957,-0.153037,2.17,-2.24,0.49,30.1143,-75.2649,-17.3794,1020.62
15080,0.0143472,9.79436,-0.181731,1.61,-2.1,0.28,30.6374,-75.6658,-17.3794,1020.62
15086,0.0286944,9.78957,-0.186514,1.68,-2.31,0.84,30.7245,-75.4499,-17.5862,1020.65
15092,0.0286944,9.78957,-0.148254,1.75,-2.66,0.63,30.3468,-75.4191,-17.7488,1020.65
15098,0.0286944,9.77523,-0.13869,1.61,-2.94,0,30.3468,-75.6041,-16.212,1020.68
15104,0.0047824,9.78957,-0.157819,1.89,-2.52,-0.07,30.2887,-75.6041,-17.8818,1020.68
15110,0.0047824,9.79914,-0.13869,1.82,-2.87,0.56,30.1143,-75.0181,-16.2416,1020.67
15116,0.0382592,9.78479,-0.162602,1.96,-2.8,0.42,30.2887,-76.0975,-17.2907,1020.67
15122,0.0573888,9.81349,-0.167384,1.61,-2.52,-0.07,29.8819,-75.3882,-16.5814,1020.66
15128,0.0334768,9.80392,-0.172166,1.75,-2.73,0.77,30.2015,-75.5116,-16.6553,1020.66
15134,0.0669536,9.79914,-0.148254,2.1,-2.94,-0.42,30.3468,-75.6349,-17.7783,1020.66
15140,0.0813008,9.8374,-0.205643,1.96,-2.66,0,29.9981,-75.6966,-17.4828,1020.65
15146,0.095648,9.90435,-0.21999,1.4,-2.8,0.49,30.3468,-75.6041,-17.2612,1020.65
15152,0.10043,9.79436,-0.095648,1.12,-2.03,0.07,30.2887,-75.5116,-17.0986,1020.62
15158,-0.0813008,9.7274,-0.0430416,2.59,-2.59,-0.28,29.8238,-75.049,-17.2612,1020.62
15164,0.0430416,9.89479,-0.210426,1.68,-2.94,0.49,29.7947,-75.2957,-16.3007,1020.63
15170,0.023912,9.76566,-0.21999,1.96,-1.96,0.35,30.8989,-75.2957,-16.5814,1020.63
15176,-0.0526064,9.80392,-0.0143472,1.47,-3.29,0.07,30.2306,-76.1284,-16.7144,1020.63
15182,0.0813008,9.78479,-0.21999,2.45,-2.8,-0.14,30.5793,-75.0798,-16.5371,1020.63
15188,0.0286944,9.84696,-0.21999,1.12,-3.08,0.07,30.8698,-75.8817,-17.7931,1020.63
15194,-0.0047824,9.7274,-0.248685,1.4,-2.03,0.42,30.4049,-75.7275,-15.9608,1020.68
15200,-0.095648,9.77523,0.0526064,1.05,-3.36,0.84,31.0442,-74.6172,-15.8722,1020.68
15206,0.10043,9.72262,-0.0908656,2.24,-3.01,0.7,30.8117,-75.9433,-16.3598,1020.66
15212,-0.0191296,9.79436,-0.129125,1.75,-2.59,0.42,31.3057,-75.6041,-16.4337,1020.66
15218,0.0143472,9.77044,-0.129125,1.4,-3.36,0.56,30.1143,-75.3265,-16.1234,1020.65
15224,0.0286944,9.73218,-0.0669536,2.52,-3.22,0.98,30.3759,-75.0798,-16.744,1020.65
15230,0.0047824,9.78001,-0.162602,2.38,-3.5,0.63,30.7827,-75.0798,-17.0838,1020.66
15236,0.0286944,9.79436,-0.148254,2.38,-3.57,0.56,30.3468,-75.3574,-16.9509,1020.66
15242,0.0334768,9.81827,-0.21999,1.61,-3.5,0.56,30.3177,-75.2032,-17.2021,1020.65
15248,0.0430416,9.83261,-0.243902,1.82,-3.29,1.05,30.8698,-75.1415,-16.6849,1020.65
15254,0.10043,9.86609,-0.248685,1.26,-3.29,0.14,30.5211,-75.2957,-16.2416,1020.65
15260,0.0526064,9.82783,-0.253467,0.7,-3.43,0.84,30.8698,-75.3574,-17.0838,1020.69
15266,0.0382592,9.8087,-0.205643,0.98,-3.01,0.98,30.7245,-75.5116,-16.7883,1020.69
15272,0.0334768,9.78479,-0.143472,0.98,-3.22,0.91,30.1143,-75.7891,-16.4632,1020.65
15278,0.0286944,9.78001,-0.109995,1.26,-3.43,0.42,30.2015,-75.7275,-17.0543,1020.65
15284,0.0621712,9.79436,-0.105213,1.33,-3.29,0.49,30.986,-75.6966,-18.1625,1020.64
15290,0.0382592,9.78957,-0.0860832,1.33,-3.29,1.12,29.9981,-75.5116,-16.6405,1020.64
15296,0.071736,9.76088,-0.0860832,1.75,-3.29,0.63,30.434,-76.1284,-17.2316,1020.66
15302,0.023912,9.74653,-0.0860832,1.89,-2.94,0.21,30.5502,-75.1723,-16.7883,1020.66
15308,0.0382592,9.70827,-0.0286944,1.96,-3.36,0.91,30.2306,-75.7583,-18.1921,1020.66
15314,0.0526064,9.71784,0.0191296,2.1,-3.64,0.91,29.5913,-76.0359,-16.4189,1020.68
15320,0.0573888,9.69392,-0.023912,3.01,-3.92,0.21,30.3759,-75.8817,-16.6405,1020.68
15326,0.0286944,9.75131,-0.0669536,3.08,-4.06,0.35,31.0732,-75.9433,-17.0543,1020.65
15332,0.0813008,9.80392,-0.181731,3.36,-4.13,0.7,30.2306,-75.82,-16.5223,1020.65
15338,0.0765184,9.83261,-0.153037,2.94,-4.06,0.7,30.3468,-75.6041,-16.2416,1020.63
15344,0.0334768,9.80392,-0.243902,3.08,-3.5,0.56,30.3468,-75.6349,-16.2564,1020.63
15350,0.0430416,9.88522,-0.282162,2.8,-3.85,0.42,30.5793,-75.1723,-16.4189,1020.63
15356,0.0191296,9.94739,-0.301291,2.87,-3.71,0.35,30.7827,-74.8023,-16.8917,1020.63
15362,0.0286944,9.87087,-0.248685,2.1,-3.22,0.7,30.3468,-76.005,-16.9509,1020.66
15368,0.0430416,9.81827,-0.267814,1.82,-3.29,0.98,31.0442,-75.6658,-16.4337,1020.66
15374,-0.0286944,9.8374,-0.215208,1.26,-2.94,1.12,30.7536,-75.5733,-17.3203,1020.66
15380,0.0526064,9.73218,-0.129125,1.47,-3.43,0.35,29.9691,-75.3265,-17.0838,1020.62
15386,0,9.7274,-0.0908656,2.1,-3.57,0.77,30.6083,-75.5733,-16.7292,1020.62
15392,0.0286944,9.76566,-0.153037,2.66,-3.92,0.84,29.446,-75.4191,-15.7687,1020.63
15398,0.0621712,9.84218,-0.191296,1.75,-4.06,1.19,30.2887,-74.9256,-16.0938,1020.63
15404,0.0573888,9.78957,-0.13869,2.24,-4.27,0.7,30.3177,-74.9256,-16.0199,1020.64
15410,0.0621712,9.7561,-0.157819,2.45,-4.13,0.49,30.463,-75.4191,-16.7292,1020.64
15416,0.0669536,9.84218,-0.162602,2.87,-4.06,0.07,30.5793,-74.8639,-16.2564,1020.68
15422,0.0765184,9.8374,-0.210426,2.52,-3.99,0.63,29.9691,-75.3882,-17.3055,1020.68
15428,0.0765184,9.84696,-0.248685,2.31,-4.06,0.63,30.1725,-74.5864,-17.3646,1020.68
15434,0.0765184,9.8374,-0.229555,2.17,-3.64,1.05,30.7245,-75.3574,-16.4189,1020.63
15440,0.0669536,9.8087,-0.200861,2.1,-4.06,0.42,30.2015,-75.3882,-16.8179,1020.63
15446,0.0382592,9.80392,-0.133907,2.38,-3.71,0.49,30.4921,-75.6349,-16.9804,1020.63
15452,0.0286944,9.8374,-0.129125,2.38,-3.85,0.63,30.6374,-75.4807,-16.6849,1020.63
15458,-0.0047824,9.85174,-0.176949,2.52,-3.29,1.26,30.7245,-75.4191,-17.7931,1020.67
15464,0.0860832,9.89957,-0.272597,2.17,-3.08,0.77,30.6664,-75.3574,-16.5962,1020.67
15470,-0.0047824,9.82783,-0.224773,2.38,-3.36,0.63,30.0562,-75.4807,-16.8031,1020.64
15476,0.0860832,9.84696,-0.191296,2.66,-3.01,1.05,30.3468,-75.1107,-17.6601,1020.64
15482,0.0621712,9.81349,-0.263032,2.66,-3.01,0.91,30.3759,-75.4499,-17.7783,1020.64
15488,0.0430416,9.8374,-0.229555,2.66,-3.01,1.19,30.1434,-75.1107,-16.8474,1020.65
15494,0.0908656,9.8087,-0.248685,2.66,-2.8,1.4,30.1143,-74.8639,-16.8326,1020.65
15500,0.0143472,9.83261,-0.200861,2.45,-2.73,1.05,29.9691,-74.8639,-17.4533,1020.64
15506,0.0526064,9.8087,-0.191296,2.73,-2.87,1.19,29.5623,-75.0181,-16.9509,1020.64
15512,0.0621712,9.83261,-0.215208,2.73,-2.87,1.75,29.5042,-74.8948,-17.0838,1020.65
15518,0.0573888,9.81827,-0.229555,2.87,-2.87,1.54,30.2596,-75.234,-16.2711,1020.65
15524,0.0860832,9.81827,-0.234338,2.59,-2.87,0.91,30.2887,-75.7275,-16.6701,1020.63
15530,0.0621712,9.8374,-0.21999,2.45,-2.17,0.91,30.4049,-75.1415,-16.9804,1020.63
15536,0.0765184,9.76566,-0.172166,2.31,-2.17,1.82,30.6955,-75.3574,-17.1282,1020.64
15542,0.109995,9.80392,-0.172166,2.66,-1.61,1.61,30.4921,-75.5116,-17.4828,1020.64
15548,0.0860832,9.89479,-0.286944,2.17,-2.59,0.98,29.9691,-74.8331,-17.3941,1020.64
15554,0.0908656,9.91392,-0.291726,2.24,-1.61,1.47,30.7536,-75.3574,-17.5271,1020.67
15560,0.13869,9.8374,-0.253467,1.4,-1.26,0.98,30.8408,-75.4191,-17.7636,1020.67
15566,0.0765184,9.8374,-0.205643,1.89,-1.68,0.98,29.8528,-74.4322,-16.1529,1020.64
15572,0.129125,9.83261,-0.23912,1.47,-1.47,1.05,29.9981,-75.6658,-17.7192,1020.64
15578,0.0813008,9.84218,-0.23912,1.47,-1.19,1.05,30.4921,-75.82,-16.5667,1020.63
15584,0.0908656,9.85653,-0.267814,1.82,-1.47,0.7,30.5793,-75.3882,-15.7983,1020.63
15590,0.124342,9.88522,-0.310856,1.54,-0.98,0.56,30.5211,-75.7891,-16.5962,1020.67
15596,0.11956,9.90435,-0.320421,0.84,-0.98,0.49,30.5793,-75.6966,-17.5419,1020.67
15602,0.124342,9.86131,-0.234338,1.12,-0.21,0.63,30.2015,-75.3265,-17.3055,1020.67
15608,0.0908656,9.87566,-0.243902,1.26,-0.28,0.91,30.2596,-74.9873,-17.01,1020.65
15614,0.124342,9.82783,-0.25825,1.4,-0.14,0.28,30.957,-75.6658,-17.1429,1020.65
15620,0.095648,9.84696,-0.306074,1.12,0.07,0.35,31.0442,-75.8508,-16.5519,1020.65
15626,0.105213,9.89,-0.248685,1.12,0.28,-0.07,30.6664,-74.5864,-16.6849,1020.65
15632,0.143472,9.84696,-0.272597,1.33,1.26,0.35,30.4049,-75.6349,-17.01,1020.63
15638,0.095648,9.86609,-0.296509,1.26,1.12,0.35,29.7366,-74.9873,-17.7192,1020.63
15644,0.095648,9.89,-0.320421,1.26,1.26,-0.14,29.9109,-75.82,-17.5567,1020.64
15650,0.153037,9.84218,-0.243902,1.26,1.4,-0.07,30.4921,-75.0798,-16.2564,1020.64
15656,0.172166,9.83261,-0.272597,1.61,1.75,-0.28,29.9981,-74.9256,-16.1973,1020.61
15662,0.23912,9.90913,-0.382592,1.75,1.33,-1.26,30.2306,-75.3574,-18.3989,1020.61
15668,0.267814,9.96652,-0.473458,1.61,1.4,-1.96,29.8238,-75.3882,-17.6158,1020.61
15674,0.210426,9.96174,-0.406504,1.47,2.31,-2.24,30.1143,-75.7583,-17.6897,1020.65
15680,0.210426,9.89957,-0.320421,1.75,2.66,-2.24,30.5793,-75.3265,-18.2955,1020.65
15686,0.148254,9.85653,-0.263032,2.8,3.15,-2.24,30.4921,-75.6041,-17.9556,1020.64
15692,0.200861,9.85174,-0.23912,3.64,3.85,-2.73,30.2306,-75.2032,-17.2168,1020.64
15698,0.148254,9.90435,-0.382592,4.27,4.55,-2.8,28.9521,-76.1284,-18,1020.7
15704,0.186514,9.92826,-0.392157,5.53,5.04,-3.15,30.6374,-75.8508,-15.9313,1020.7
15710,0.153037,9.94739,-0.425634,4.69,5.25,-2.8,30.3177,-76.0359,-16.4189,1020.62
15716,0.047824,9.98565,-0.473458,4.48,5.11,-2.8,30.0562,-75.0181,-16.6553,1020.62
15722,0.253467,9.9713,-0.61693,5.67,6.93,-2.73,30.434,-75.6349,-16.5814,1020.62
15728,0.181731,9.97609,-0.659971,5.67,8.68,-2.87,30.4049,-75.6041,-16.8326,1020.63
15734,0.153037,10.0717,-0.655189,5.74,9.87,-2.73,30.0272,-75.4499,-16.3746,1020.63
15740,1.05691,10.8895,-0.870397,-3.92,21.56,-2.73,30.2015,-75.1415,-16.3598,1020.63
15746,0.0286944,10.4591,-1.62602,-6.51,23.87,-2.45,30.434,-75.1723,-16.8031,1020.63
15752,0.267814,10.99,-1.11908,-13.09,27.58,-1.82,30.8117,-75.3574,-18.0886,1020.66
15758,0.306074,10.6648,-1.033,-12.81,29.89,-3.36,30.4049,-75.2649,-15.355,1020.66
15764,0.129125,12.5634,-1.0043,-18.06,25.55,-6.51,30.3177,-75.1723,-16.478,1020.62
15770,-0.315638,13.142,-1.97035,-37.31,18.9,-6.3,30.7245,-75.2032,-16.1825,1020.62
15776,-0.143472,12.2286,-1.50167,-43.68,13.72,-9.94,30.0853,-75.234,-16.9509,1020.62
15782,-0.157819,11.4634,-2.00861,-49.07,13.51,-11.34,30.6374,-74.6172,-17.0838,1020.64
15788,-0.310856,11.4778,-1.08082,-47.46,11.69,-15.61,31.1604,-74.5864,-18.1625,1020.64
15794,-1.09517,9.4022,-0.306074,-34.09,2.8,-26.46,30.9279,-74.5247,-18.6797,1020.64
15800,-3.86418,9.85174,-1.75992,-0.91,-13.3,-37.73,30.6374,-74.4939,-18.0295,1020.64
15806,-4.55763,12.1234,-4.40937,-4.55,-33.6,-36.96,31.48,-74.4322,-17.0691,1020.64
15812,-3.2329,13.3238,-4.56241,-17.64,-48.93,-35.28,31.9159,-74.5247,-17.7931,1020.64
15818,-1.76949,13.4003,-3.8594,-25.97,-55.93,-36.61,31.3928,-74.278,-19.714,1020.61
15824,-0.416069,14.0842,-3.29029,-33.18,-57.47,-37.73,31.7706,-73.9696,-18.2807,1020.61
15830,0.329986,14.835,-3.38116,-43.75,-55.3,-36.96,32.1483,-73.6304,-19.3003,1020.64
15836,0.961262,15.208,-3.52941,-61.39,-54.11,-39.41,31.7706,-73.1369,-20.7927,1020.64
15842,1.38211,14.8398,-3.40985,-74.27,-49.56,-41.09,32.5551,-72.3968,-20.4824,1020.64
15848,2.08034,14.242,-2.76423,-82.74,-46.69,-41.72,33.2525,-72.2426,-21.6793,1020.65
15854,2.81205,13.8977,-2.93161,-92.68,-42.98,-42.77,33.1653,-72.9519,-21.9748,1020.65
15860,3.93113,12.7021,-3.099,-105.63,-38.99,-42.63,33.514,-72.3351,-22.5511,1020.64
15866,4.90674,10.6313,-2.29077,-107.24,-35.77,-41.79,33.2815,-70.8548,-23.482,1020.64
15872,6.77666,7.66619,-1.89861,-94.43,-21.91,-42.42,33.1363,-71.4099,-23.8071,1020.63
15878,7.29316,6.64275,-1.64515,-76.44,-4.48,-44.1,33.7755,-70.7931,-23.9401,1020.63
15884,7.85748,6.46102,-1.82209,-60.2,9.17,-47.04,34.3276,-71.1323,-25.3734,1020.61
15890,9.17264,6.46581,-2.50598,-46.48,27.72,-51.45,34.1823,-70.7931,-24.7823,1020.61
15896,9.78957,6.04017,-2.74032,-32.9,46.06,-53.62,34.008,-70.0221,-26.0531,1020.61
15902,10.5643,5.93974,-2.89813,-20.65,65.87,-54.04,35.0831,-69.9913,-25.8758,1020.62
15908,11.5304,5.59063,-4.14156,-8.19,86.59,-53.34,35.0249,-70.3613,-25.27,1020.62
15914,10.8656,4.73458,-4.38546,5.25,105.91,-46.69,35.4317,-69.8371,-24.472,1020.66
15920,10.6791,4.33764,-4.36155,23.31,117.6,-35.77,36.3906,-69.9913,-25.4621,1020.66
15926,10.8369,4.40937,-4.96413,33.18,126.84,-26.32,36.3906,-69.6829,-23.6741,1020.67
15932,10.5882,3.912,-4.51937,45.43,131.88,-17.29,36.9427,-70.1763,-23.3638,1020.67
15938,10.0239,4.38068,-4.13678,55.23,133.56,-8.4,37.5238,-70.6081,-24.147,1020.65
15944,10.0287,4.75371,-4.12243,62.3,130.13,-0.77,36.6812,-70.5155,-22.6398,1020.65
15950,9.66523,4.98804,-3.45768,67.41,125.86,6.72,37.088,-71.4099,-22.1669,1020.62
15956,9.52176,5.34672,-3.0703,73.08,120.26,15.54,37.64,-71.4099,-20.5711,1020.62
15962,9.17264,6.20756,-2.48685,75.39,113.05,24.36,37.2042,-71.7183,-20.246,1020.62
15968,8.967,6.68101,-2.19512,76.93,105.28,33.11,36.6812,-72.8285,-19.3742,1020.64
15974,8.79005,7.60402,-1.6834,77,98.21,42.56,36.3034,-73.1678,-19.2116,1020.64
15980,8.61789,8.22573,-1.43472,76.3,92.19,51.8,36.2453,-74.278,-18.4728,1020.65
15986,7.95313,9.35916,-0.942133,72.31,83.72,61.74,35.548,-74.7406,-16.5962,1020.65
15992,7.82401,9.92826,-0.951698,66.29,76.65,71.47,35.2574,-74.5247,-17.3941,1020.62
15998,7.38403,10.4878,-0.755619,60.41,70.56,79.45,34.5019,-74.8948,-16.3746,1020.62
16004,7.10665,10.7317,-0.636059,54.11,64.19,86.66,33.3106,-75.6349,-16.3155,1020.65
16010,6.51841,11.0521,-0.640842,50.12,58.66,92.61,33.514,-76.6835,-15.621,1020.65
16016,6.12147,11.1382,-0.650406,44.73,51.38,97.3,32.3808,-77.7012,-15.7835,1020.65
16022,5.63367,11.4873,-0.884744,41.37,47.04,100.45,30.7245,-77.7012,-14.5127,1020.6
16028,5.16021,11.5112,-0.803443,39.06,42.21,104.65,30.1434,-78.8114,-15.1777,1020.6
16034,4.42372,11.8986,-0.942133,36.89,36.61,107.17,29.2136,-78.904,-14.6753,1020.65
16040,4.03635,12.2669,-1.02343,34.23,30.8,110.95,28.2547,-79.7058,-14.3207,1020.65
16046,3.62028,12.6925,-1.40124,30.24,27.23,115.71,26.1917,-79.5516,-13.7739,1020.62
16052,3.29507,12.9507,-1.64515,25.97,24.57,120.96,25.1456,-79.6749,-13.6705,1020.62
16058,2.61597,12.989,-1.83644,20.3,21.56,125.93,23.6056,-79.4591,-12.9021,1020.63
16064,2.48685,12.6208,-1.84122,19.74,20.3,131.18,22.4143,-80.1067,-13.0647,1020.63
16070,2.08513,12.4773,-1.73601,20.02,18.9,136.29,21.2811,-80.3226,-11.8825,1020.63
16076,2.15686,12.1473,-1.74558,22.54,19.39,140.14,19.4796,-79.9525,-11.6313,1020.63
16082,1.80296,11.999,-1.58776,24.78,18.97,142.45,18.4335,-80.7852,-12.0599,1020.63
16088,2.27164,11.6356,-1.71688,28.84,21.84,142.73,17.4747,-80.1684,-12.843,1020.62
16094,2.13773,11.693,-1.47298,33.88,24.57,141.47,16.3414,-80.2609,-12.0746,1020.62
16100,2.06121,11.5925,-1.27212,38.22,28.14,138.32,15.6441,-80.1684,-10.3901,1020.62
16106,1.99426,11.5495,-1.10473,43.68,32.06,134.47,14.598,-80.816,-9.73997,1020.62
16112,1.81731,11.7647,-0.726925,49.21,36.19,130.83,12.9418,-80.3843,-9.68086,1020.63
16118,1.59254,11.9369,-0.382592,53.62,41.44,125.65,12.2735,-80.6001,-8.17367,1020.63
16124,1.0856,12.2143,0.0382592,56.84,45.92,121.87,11.8667,-80.5693,-6.41528,1020.61
16130,0.640842,12.4103,0.229555,58.31,49.77,117.53,10.5882,-80.3226,-6.79947,1020.61
16136,-0.10043,12.6447,0.310856,56.98,52.85,113.96,11.0822,-79.9217,-5.01152,1020.61
16142,-0.674318,12.7834,0.33955,54.04,53.69,109.76,9.16442,-80.1067,-4.19882,1020.67
16148,-1.86035,12.9029,0.420851,51.31,52.15,104.51,9.07725,-80.5693,-3.7703,1020.67
16154,-2.51554,12.8407,0.401722,47.95,49.21,100.73,8.40894,-80.1684,-3.25313,1020.6
16160,-3.26638,12.8025,0.129125,45.43,46.34,96.32,7.91497,-79.6749,-1.74594,1020.6
16166,-3.74462,12.5681,-0.153037,40.39,42.49,93.17,7.3629,-80.4459,-1.65728,1020.63
16172,-4.5911,12.4103,-0.420851,35.84,37.94,90.23,7.01422,-81.0319,0.500078,1020.63
16178,-4.95935,12.3338,-0.798661,29.82,33.39,88.76,6.31685,-80.4768,0.36709,1020.6
16184,-5.67193,11.9273,-0.827355,24.92,28.07,87.15,5.56138,-79.9217,1.78563,1020.6
16190,-6.12625,11.6069,-0.683883,20.16,19.32,85.05,4.66062,-81.0319,1.81518,1020.6
16196,-6.01626,10.5643,-0.750837,19.81,13.79,80.64,4.8059,-81.0936,3.63268,1020.65
16202,-6.2219,10.1722,-0.640842,18.97,6.93,75.04,3.75986,-81.0011,4.57836,1020.65
16208,-6.43233,9.5935,-0.143472,20.86,-2.1,67.62,2.74287,-81.2786,5.06599,1020.65
16214,-6.23625,9.20612,0.153037,25.06,-7.98,60.13,2.27796,-81.9262,4.88867,1020.65
16220,-6.03061,9.0483,0.277379,29.05,-13.09,52.15,1.60966,-81.7412,5.42062,1020.61
16226,-5.73888,9.16308,0.416069,29.75,-17.22,45.15,1.52249,-82.2346,6.14466,1020.61
16232,-5.34194,9.28742,0.363462,31.43,-18.55,37.59,1.14475,-81.8954,6.27765,1020.63
16238,-5.22716,9.75131,0.387374,28.84,-19.67,30.17,1.3772,-81.1553,7.38588,1020.63
16244,-5.07891,10.0717,0.200861,25.2,-20.65,23.94,0.476442,-81.5253,8.73053,1020.63
16250,-5.02152,10.0096,0.387374,21.63,-21.42,16.59,-0.0465791,-81.5562,8.86352,1020.63
16256,-5.09326,10.0335,0.0908656,17.43,-22.26,9.31,-0.0175235,-81.3711,11.0061,1020.63
16262,-5.16021,9.73218,0.0095648,14.49,-23.31,1.47,-0.133751,-81.6487,10.3116,1020.62
16268,-5.33716,9.45959,-0.0334768,12.25,-24.5,-5.53,0.0696483,-81.1861,10.4298,1020.62
16274,-5.45672,8.97657,0.143472,13.51,-26.53,-13.58,-0.133751,-81.0319,12.1587,1020.66
16280,-5.6241,8.94787,0.071736,14.56,-28.98,-19.25,-1.26696,-80.2917,13.2521,1020.66
16286,-5.34194,8.85701,-0.0813008,16.8,-28.77,-24.78,-0.831112,-81.0319,11.8188,1020.64
16292,-5.34194,9.01004,0.0860832,18.83,-29.82,-29.68,-0.947339,-81.2169,12.8384,1020.64
16298,-0.966045,26.7432,-7.46533,14.84,-1.33,-92.61,0.0115341,-80.8777,13.8579,1020.66
16304,-2.28599,18.9,-1.19082,-87.08,-32.27,-104.3,0.331158,-81.1861,12.1587,1020.66
16310,-3.24247,11.5351,4.01243,-111.3,-61.6,-117.88,0.621727,-80.9394,11.671,1020.66
16316,-0.23912,12.3338,-0.774749,-111.79,-8.75,-125.16,1.55154,-81.3403,12.4099,1020.66
16322,-3.80201,10.8082,3.06074,-116.34,17.01,-146.44,3.17872,-81.772,10.6071,1020.66
16328,-5.98278,7.99139,7.86705,-113.4,1.75,-179.06,3.81797,-81.3403,10.3116,1020.62
16334,-1.23864,-0.688666,14.8398,-64.12,-26.74,-188.09,5.56138,-81.9571,9.35114,1020.62
16340,4.27068,-3.03204,9.19656,6.02,-37.94,-196.28,7.27573,-81.3711,9.29204,1020.66
16346,5.49498,5.51889,-1.50646,52.78,25.27,-196.91,8.90291,-82.1113,8.43501,1020.66
16352,0.913438,12.4055,-1.72166,43.54,27.02,-191.59,9.86178,-81.2786,10.4298,1020.63
16358,0.559541,18.1014,-1.83644,1.47,0.14,-195.16,11.3727,-81.4636,10.7992,1020.63
16364,-1.30081,17.8957,-6.72405,-34.51,4.2,-185.78,13.0871,-81.3711,11.4789,1020.64
16370,-3.61071,15.2463,1.09039,-59.71,0.28,-175,13.9588,-80.9394,11.0504,1020.64
16376,-4.37111,10.2917,4.39024,-56.84,-30.59,-164.08,14.8886,-81.6487,11.1834,1020.64
16382,-3.52941,8.82831,3.65375,-31.36,-37.73,-150.29,16.6029,-80.8777,9.9422,1020.66
16388,-3.97896,10.373,2.31946,-14.7,-42.7,-135.8,17.6199,-80.3843,10.415,1020.66
16394,-2.99856,11.3869,0.181731,-17.64,-54.95,-124.39,19.4796,-80.8777,10.223,1020.66
16400,-3.01291,14.4094,-3.60115,-26.39,-52.22,-103.6,20.0316,-80.9702,10.7697,1020.66
16406,0.047824,13.7542,-3.59158,-57.82,-56.07,-104.16,20.0607,-80.2917,9.70578,1020.61
16412,0.272597,12.1473,-2.52989,-74.34,-38.92,-100.94,21.3973,-80.9085,9.48413,1020.61
16418,-2.38164,14.4094,-0.81779,-72.03,4.55,-64.75,21.5717,-81.0627,8.43501,1020.63
16424,-2.59206,5.64801,-1.06169,-60.2,15.26,-43.82,21.9203,-80.7852,8.92263,1020.63
16430,-7.23099,8.59876,4.54806,-17.01,-27.51,-27.02,22.4434,-80.3226,7.53365,1020.63
16436,0.865614,11.5208,-1.74079,-18.2,-28.35,-33.25,23.0826,-80.0759,7.94739,1020.65
16442,3.03682,11.9895,-2.5012,-42.49,-3.01,-31.92,23.9834,-80.4459,8.86352,1020.65
16448,-1.01387,9.09613,-0.0047824,-36.26,6.86,-23.45,23.6056,-79.6133,7.93261,1020.65
16454,-2.49163,8.26399,1.65949,-17.01,-3.15,-18.06,24.3321,-79.5824,7.66663,1020.65
16460,-1.76949,8.79962,1.65471,-6.3,-17.57,-15.68,23.6347,-80.1992,7.50409,1020.63
16466,-0.229555,9.44046,0.229555,0.77,-15.68,-12.88,24.0415,-80.9085,7.47454,1020.63
16472,0.645624,10.8991,-1.81731,-2.87,-3.85,-10.22,25.349,-80.631,6.67661,1020.62
16478,-0.37781,10.4782,-0.650406,-10.57,-6.44,-7.98,23.5766,-80.2301,7.6223,1020.62
16484,-0.210426,9.78479,-0.153037,-7.07,-6.16,-9.38,24.4483,-80.4768,7.34155,1020.62
16490,-0.344333,9.47394,0.21999,-2.94,-6.09,-5.88,24.4773,-80.7235,8.36112,1020.66
16496,-0.109995,9.78957,-0.286944,-1.19,-4.9,-6.16,23.9543,-80.6618,8.3759,1020.66
16502,-0.0191296,9.97609,-0.368245,-3.43,-5.32,-4.76,23.809,-80.6618,6.70617,1020.61
16508,0.0191296,9.42133,-0.196078,2.03,-7.42,-4.13,24.0705,-80.6001,6.60273,1020.61
16514,0.0191296,10.1865,-0.545194,-1.05,-3.43,-2.94,24.6226,-80.5076,7.51887,1020.63
16520,-0.0334768,10.1196,-0.57867,-1.68,-3.22,-2.94,23.9834,-80.8469,6.64706,1020.63
16526,0.095648,9.95218,-0.363462,-0.98,-1.89,-3.36,24.2449,-81.3403,7.37111,1020.67
16532,-0.200861,10.0574,-0.291726,-2.45,-3.5,-2.73,24.2739,-81.1244,6.82438,1020.67
16538,0.205643,10.067,-0.406504,-0.35,-3.99,-2.87,24.7388,-80.4151,7.69619,1020.65
16544,-0.234338,9.82305,-0.0382592,-1.12,-3.99,-2.66,24.9422,-80.3843,6.29243,1020.65
16550,0.0430416,9.76566,0.0191296,0.56,-2.52,-2.87,24.7098,-81.1861,7.97694,1020.65
16556,-0.229555,9.92826,-0.277379,0.42,-4.2,-2.73,25.1747,-79.8908,6.45497,1020.64
16562,0.0382592,9.82305,-0.172166,1.89,-3.85,-2.59,23.8381,-80.5076,5.96735,1020.64
16568,-0.0334768,9.90435,-0.243902,3.5,-5.11,-2.94,25.0004,-81.0011,6.10033,1020.64
16574,0.13869,10.2535,-0.564323,2.66,-4.48,-2.73,24.8841,-81.3403,6.57318,1020.64
16580,-0.0860832,9.96174,-0.349115,1.12,-6.02,-3.15,24.6517,-80.6001,7.72574,1020.67
16586,0.205643,9.84218,-0.401722,1.47,-5.88,-3.64,24.9132,-80.5076,6.83915,1020.67
16592,0.148254,10.0191,-0.511717,1.12,-5.46,-4.06,24.7098,-80.6618,7.29722,1020.65
16598,-0.0143472,9.79914,-0.310856,1.05,-4.34,-3.78,25.5524,-80.0142,6.89826,1020.65
16604,-0.11956,9.74175,-0.167384,2.24,-7.56,-4.41,24.826,-80.1684,7.312,1020.65
16610,0.286944,10.11,-0.746054,1.33,-6.51,-4.55,25.1166,-80.6618,6.35153,1020.66
16616,0.143472,10.0574,-0.588235,-0.28,-4.9,-4.97,24.1577,-80.1067,6.95737,1020.66
16622,-0.176949,9.45959,0.0047824,1.05,-6.16,-4.69,25.7268,-80.6001,6.70617,1020.6
16628,-0.047824,9.74653,-0.234338,2.45,-6.23,-3.92,25.0294,-79.6133,6.66184,1020.6
16634,0.0095648,9.75131,-0.344333,2.38,-6.16,-4.27,24.5354,-80.4768,7.03125,1020.6
16640,0.129125,9.8087,-0.25825,2.59,-4.76,-3.92,25.4072,-80.1992,7.34155,1020.6
16646,-0.306074,9.70349,-0.047824,4.06,-7.07,-4.55,25.349,-80.8777,7.14946,1020.65
16652,0.114778,9.88522,-0.33955,5.6,-7.07,-5.04,25.2909,-79.9217,6.5584,1020.65
16658,0.133907,9.94739,-0.49737,4.62,-5.95,-5.18,25.349,-80.1375,7.35633,1020.66
16664,0.0860832,9.95696,-0.468675,3.78,-4.97,-5.18,24.8551,-80.7235,6.64706,1020.66
16670,0.0286944,9.78957,-0.33955,3.64,-5.6,-6.23,24.9132,-80.045,7.29722,1020.66
16676,0.124342,9.76088,-0.325203,5.18,-5.18,-6.3,24.9713,-80.4768,7.19379,1020.64
16682,-0.0191296,9.90913,-0.282162,4.76,-5.74,-5.88,25.5815,-78.9965,7.11991,1020.64
16688,0.133907,10.0909,-0.774749,2.45,-4.97,-6.09,25.2619,-80.3843,7.45976,1020.67
16694,0.21999,9.78001,-0.526064,3.43,-0.63,-6.51,26.0464,-80.1684,8.22814,1020.67
16700,-0.277379,9.77523,-0.368245,4.13,-4.06,-7,25.6105,-79.3357,8.00649,1020.67
16706,-0.0286944,9.6461,-0.21999,6.44,-5.67,-6.58,25.5815,-80.1067,7.6223,1020.67
16712,0.33955,10.3395,-0.650406,4.27,-1.05,-6.86,25.6105,-79.9833,6.94259,1020.67
16718,0.368245,10.0048,-1.15734,2.52,6.58,-6.79,25.4362,-79.5516,7.47454,1020.67
16724,-0.420851,9.85653,0.0526064,0.91,3.22,-7.28,24.4192,-80.816,6.54363,1020.67
16730,0.210426,9.67001,-0.502152,2.1,4.55,-6.51,25.6687,-79.9525,7.82917,1020.64
16736,0.0286944,9.86609,-0.540411,2.45,7.28,-6.86,25.6396,-80.1992,8.49411,1020.64
16742,-0.382592,9.93783,-0.234338,1.61,5.53,-6.79,25.6687,-80.4151,6.7505,1020.65
16748,0,9.71305,-0.382592,1.19,6.02,-7.42,26.1626,-79.5824,7.37111,1020.65
16754,0.172166,9.79436,-0.669536,1.4,8.33,-7.28,25.8721,-80.3534,7.51887,1020.65
16760,-0.157819,9.82305,-0.406504,1.61,7.7,-7.42,26.0464,-78.7189,7.78484,1020.65
16766,0.109995,9.92826,-0.908656,0.77,11.9,-6.93,25.9883,-79.5516,7.82917,1020.64
16772,-0.334768,9.82305,-0.186514,-0.84,11.48,-6.79,25.6396,-79.8291,7.63708,1020.64
16778,-0.277379,9.7561,-0.205643,-0.35,10.71,-6.72,25.1166,-80.4151,7.20856,1020.64
16784,-0.047824,9.71784,-0.449546,0.84,13.09,-6.23,25.8721,-79.7983,7.29722,1020.64
16790,-0.21999,9.8374,-0.253467,1.12,13.37,-5.74,25.7849,-79.4899,6.52885,1020.64
16796,-0.25825,9.84218,-0.13869,0.77,12.53,-6.65,25.3781,-80.1375,7.74052,1020.65
16802,0.162602,9.89,-0.612147,0.91,14.63,-7.07,25.9883,-80.1375,7.43021,1020.65
16808,0.0908656,9.74175,-0.535629,0.56,15.61,-7.49,25.9011,-79.4899,7.77007,1020.64
16814,-0.0382592,9.88044,-0.516499,0.35,15.75,-7.84,25.9302,-79.3357,6.64706,1020.64
16820,0.0573888,9.92348,-0.569106,0.7,17.08,-8.61,25.7558,-79.1198,7.48932,1020.64
16826,0.0573888,9.89479,-0.411286,-0.49,18.13,-9.1,25.4653,-80.2609,6.45497,1020.64
16832,-0.0430416,9.85174,-0.396939,0.21,20.79,-10.22,25.9883,-78.7498,7.01647,1020.63
16838,-0.0669536,9.88522,-0.463893,-0.77,21.14,-10.64,26.366,-78.5956,8.65665,1020.63
16844,-0.114778,9.94739,-0.626494,-1.89,23.24,-10.29,25.843,-78.6264,7.53365,1020.63
16850,-0.0908656,10.1004,-0.822573,-4.76,24.22,-10.71,26.2498,-79.7675,8.02127,1020.64
16856,0.0430416,10.0909,-1.10952,-6.86,27.72,-11.34,26.4241,-79.7366,7.45976,1020.64
16862,-0.215208,10.2582,-0.927786,-8.19,29.19,-10.99,25.32,-79.5208,7.93261,1020.64
16868,-0.181731,9.79914,-1.05213,-12.04,30.45,-11.76,26.1336,-79.3666,8.6271,1020.64
16874,-0.368245,10.1626,-1.0043,-12.46,29.47,-10.85,26.6275,-79.2123,7.35633,1020.63
16880,-0.444763,10.5452,-1.7121,-17.15,28.7,-11.41,26.5694,-80.3843,7.312,1020.63
16886,-0.789096,9.93304,-2.42468,-21.98,30.87,-10.01,26.889,-79.4282,7.63708,1020.66
16892,-0.640842,9.82783,-1.97513,-21,33.32,-10.01,26.4241,-79.9217,7.26767,1020.66
16898,2.76901,13.4242,3.96939,-1.26,35.21,-24.71,26.4823,-79.1815,8.43501,1020.66
16904,4.50024,17.3458,6.4945,10.85,3.64,-60.62,26.5985,-79.1507,8.42023,1020.63
16910,-0.769966,14.1176,-1.57819,-12.32,-22.33,-70.98,26.889,-78.7806,7.88828,1020.63
16916,0.0621712,11.693,-3.7494,-21.42,-13.93,-70.49,27.1506,-77.9788,7.59275,1020.63
16922,2.03252,10.8321,-0.095648,-9.66,4.76,-75.53,27.877,-78.503,8.13948,1020.63
16928,1.09517,11.5686,1.97035,-0.07,3.5,-83.44,27.7607,-79.1507,6.11511,1020.62
16934,-0.540411,11.3917,2.32425,2.31,-11.27,-89.39,28.2838,-77.9479,7.26767,1020.62
16940,0.636059,11.1621,0.707795,5.74,-14.56,-94.22,29.2136,-78.3488,6.95737,1020.67
16946,0.860832,11.4012,-0.0047824,12.74,-10.08,-100.52,29.8819,-77.9788,7.43021,1020.67
16952,0.263032,11.999,0.425634,15.68,-10.5,-105.49,31.0442,-77.6395,7.09035,1020.67
16958,0.153037,12.1138,0.71736,13.58,-14.49,-110.11,32.0321,-77.4853,7.13468,1020.67
16964,0.272597,11.3917,0.463893,17.15,-18.13,-116.13,32.6132,-76.8069,7.74052,1020.67
16970,0.521282,11.6691,0.25825,23.17,-14.77,-121.17,33.6012,-77.4236,7.94739,1020.64
16976,0.913438,12.7499,-0.463893,28.14,-10.78,-126.56,34.0661,-76.6526,7.71096,1020.64
16982,-0.25825,13.3477,-1.09995,27.93,-12.6,-133.14,34.6763,-77.0536,7.79962,1020.66
16988,-0.349115,14.7202,-1.92252,20.09,-15.47,-139.65,36.6521,-76.1901,8.74531,1020.66
16994,0.109995,15.3802,-2.59684,15.26,-13.86,-145.39,36.3616,-75.4807,7.37111,1020.66
17000,1.18604,15.2319,-3.13725,-1.19,-12.25,-156.94,37.6691,-74.5247,7.91783,1020.66
17006,0.315638,14.7346,-1.97035,-1.82,-13.65,-167.3,38.7733,-75.1107,8.42023,1020.62
17012,0.492587,14.2181,-0.951698,2.45,-16.94,-178.92,39.8484,-73.9079,7.5632,1020.62
17018,0.726925,15.0502,-1.2769,5.46,-20.93,-192.15,41.1269,-73.5995,7.88828,1020.62
17024,1.15256,16.3175,-3.19464,-0.35,-23.31,-207.2,42.3763,-73.2294,7.01647,1020.58
17030,0.0047824,16.7623,-4.0746,-10.5,-27.02,-220.57,43.8873,-72.6435,5.87869,1020.58
17036,-0.0573888,16.1693,-4.18938,-17.57,-29.05,-233.94,44.8461,-71.8725,5.92302,1020.64
17042,-0.286944,16.131,-3.03682,-10.71,-33.81,-247.8,46.4733,-69.7137,7.17901,1020.64
17048,-0.95648,17.8718,-4.08417,-8.05,-41.09,-262.29,48.0133,-69.0044,6.26287,1020.62
17054,-2.05643,20.2582,-6.3845,-12.18,-41.86,-273.14,48.9431,-68.6652,6.15944,1020.62
17060,-2.67336,21.2865,-4.92587,-21.63,-58.52,-288.61,50.6575,-67.4624,6.44019,1020.64
17066,-1.32951,19.4787,-4.12721,-28.49,-90.09,-311.92,51.7907,-66.0438,4.9921,1020.64
17072,0.750837,16.7958,-6.05452,-15.19,-82.11,-324.45,54.1734,-64.1626,4.34194,1020.64
17078,0.172166,17.2023,-3.56289,2.38,-77.07,-336,55.7424,-62.528,3.51446,1020.64
17084,-0.564323,19.3974,-1.50167,12.04,-83.86,-346.85,57.05,-60.6468,3.49969,1020.64
17090,0.0813008,26.8006,-1.18125,-1.61,-82.67,-353.99,58.9968,-58.1488,2.89386,1020.61
17096,-0.899091,24.2181,-2.37207,-32.48,-104.72,-373.1,60.2172,-56.6068,1.57876,1020.61
17102,-1.06648,23.5055,-2.23338,-19.11,-111.44,-368.34,61.9606,-54.078,0.36709,1020.61
17108,2.49163,27.2214,-6.02104,-28.56,-112.28,-372.61,63.0357,-51.4257,-0.445612,1020.61
17114,4.71545,28.5701,-11.5017,-77.7,-109.69,-381.08,63.8493,-49.7912,-1.87892,1020.61
17120,3.49593,26.3175,-11.8795,-117.74,-106.54,-386.61,65.3311,-47.5708,-1.73116,1020.61
17126,2.20469,24.0411,-8.88092,-132.72,-111.79,-385.91,65.5055,-45.2578,-4.05105,1020.62
17132,2.85988,24.462,-8.46007,-137.9,-130.13,-391.02,66.6678,-42.1738,-6.17886,1020.62
17138,6.48972,23.7016,-10.9134,-168.42,-143.78,-386.26,67.2489,-39.3057,-7.24276,1020.62
17144,10.8465,19.4213,-10.5691,-202.44,-138.88,-372.61,68.0334,-36.7152,-8.4692,1020.55
17150,16.4706,12.5586,-5.86322,-241.22,-137.2,-347.55,68.5855,-33.3845,-10.7152,1020.55
17156,26.6523,4.07939,-6.46581,-313.6,-110.39,-296.1,68.818,-30.7631,-12.8135,1020.63
17162,17.4797,-13.4051,-7.44141,-259.91,64.61,-205.31,68.2949,-28.9744,-14.3502,1020.63
17168,8.74701,-9.44046,-0.760402,-157.5,181.02,-88.48,68.1787,-27.895,-13.7444,1020.58
17174,-0.21999,-0.779531,7.44141,-98.14,149.38,-18.97,67.3361,-27.7716,-12.0451,1020.58
17180,0.267814,1.33429,5.61932,-57.82,90.51,40.88,67.4813,-26.9698,-11.2619,1020.62
17186,10.5835,-1.03778,-5.40411,-13.37,123.2,86.31,66.4934,-28.5735,-12.7248,1020.62
17192,11.4012,-1.20516,-6.64275,26.04,169.12,115.08,65.273,-28.5118,-10.4788,1020.62
17198,7.07317,2.07556,-3.42898,43.12,165.13,128.8,64.3432,-30.0229,-9.62176,1020.6
17204,6.51363,4.16547,-4.30416,51.8,154.07,128.94,64.1108,-30.7014,-9.26712,1020.6
17210,5.83931,5.89192,-5.44715,61.81,151.76,127.47,63.2972,-32.3051,-8.02591,1020.61
17216,2.97465,6.71927,-4.54328,62.09,139.44,124.95,62.5708,-32.8294,-7.00633,1020.61
17222,2.71162,6.78623,-4.16069,53.97,118.51,125.44,61.5828,-33.2611,-6.62215,1020.62
17228,3.19943,5.4615,-4.11765,48.3,106.75,131.6,60.2172,-34.3405,-6.93245,1020.62
17234,2.92205,5.34194,-4.12243,43.96,101.71,145.67,59.0549,-35.2657,-6.75514,1020.59
17240,0.669536,5.60976,-2.60641,39.34,82.39,164.36,58.0379,-36.0059,-5.21839,1020.59
17246,1.20516,5.98278,-3.81157,30.03,70.7,183.4,56.8466,-37.517,-5.30705,1020.61
17252,-0.0430416,6.12147,-2.20469,24.43,62.72,207.83,55.1322,-38.7814,-4.92286,1020.61
17258,-0.229555,5.77236,-1.52559,18.55,39.69,229.67,54.2024,-39.4907,-3.69642,1020.61
17264,-0.109995,5.21282,-0.746054,19.95,26.32,255.71,52.1103,-41.4337,-3.91807,1020.59
17270,1.18125,5.4615,-1.75514,27.79,7.56,276.01,50.3379,-42.0196,-3.94762,1020.59
17276,1.07604,5.36107,-0.5978,29.82,-2.31,293.72,47.839,-43.3149,-4.93764,1020.58
17282,2.86944,6.11191,-1.42037,23.94,-5.95,304.57,46.1537,-44.4559,-5.63213,1020.58
17288,2.00383,6.42276,-0.387374,17.85,-16.52,309.4,43.8582,-45.0111,-5.38093,1020.6
17294,2.42468,5.32281,1.13821,27.51,-27.23,312.06,42.4925,-45.412,-5.63213,1020.6
17300,3.41942,6.56624,0.406504,30.1,-30.52,318.43,40.1389,-46.3372,-6.10497,1020.57
17306,3.83548,6.61406,0.71736,30.59,-29.19,317.8,38.134,-47.7558,-6.29707,1020.57
17312,4.11286,7.18317,1.43472,35,-28.91,314.23,36.1872,-48.0025,-7.12455,1020.57
17318,4.5098,7.66619,1.62602,36.54,-26.18,312.76,34.7344,-47.8483,-5.54347,1020.59
17324,4.89718,8.39311,1.8747,38.43,-20.72,313.6,32.5261,-48.4343,-6.31184,1020.59
17330,5.12673,9.05787,1.75992,37.87,-12.74,312.41,30.2015,-47.4782,-6.22319,1020.62
17336,4.73936,9.81349,2.18077,42.63,-5.04,310.66,29.1555,-48.3109,-6.6517,1020.62
17342,4.61502,10.3682,2.13773,45.92,2.73,311.36,28.0513,-47.9717,-7.43485,1020.6
17348,3.95983,11.4778,1.76471,44.31,9.03,312.76,26.1917,-48.1876,-7.4644,1020.6
17354,3.51985,12.3529,1.45385,45.01,15.54,313.67,24.5645,-48.496,-7.77471,1020.55
17360,2.02296,13.0703,1.76471,48.72,15.89,314.3,24.4773,-48.6502,-7.9077,1020.55
17366,1.0043,14.1798,1.37733,51.1,17.36,314.93,22.4143,-49.2053,-8.54308,1020.6
17372,0.765184,14.7537,1.02822,55.23,16.94,315,21.1067,-49.7912,-8.61696,1020.6
17378,-0.21999,16.1549,1.17169,55.16,10.99,316.33,19.2762,-49.3595,-8.11456,1020.6
17384,-0.229555,16.7432,0.851267,55.79,7.56,314.72,18.1139,-50.2847,-8.92727,1020.56
17390,-0.248685,17.4079,0.664754,54.6,5.74,315,15.4988,-49.5137,-9.04548,1020.56
17396,0.530846,16.8675,0.023912,54.32,17.71,313.46,13.581,-49.2053,-8.14412,1020.57
17402,-0.449546,18.4027,0.196078,57.54,12.04,316.75,11.6924,-49.1128,-7.24276,1020.57
17408,-0.215208,18.6848,0.33955,57.26,10.71,312.9,9.77461,-49.1436,-8.05546,1020.56
17414,-0.310856,18.9957,0.502152,56.42,8.68,307.58,7.76969,-48.3726,-7.1541,1020.56
17420,-0.655189,19.5218,0.392157,58.8,8.96,308.49,6.49119,-46.368,-6.71081,1020.57
17426,-0.899091,20.3826,-0.435198,60.13,13.16,303.87,4.51533,-45.412,-5.92766,1020.57
17432,-0.97561,20.9134,-0.167384,61.46,14.63,304.08,2.48136,-43.9008,-5.77989,1020.57
17438,-1.89861,22.2908,-0.439981,58.52,12.74,307.58,2.59759,-42.8214,-4.34658,1020.57
17444,-1.40603,22.3195,-0.808226,58.73,22.96,312.55,1.40626,-41.0019,-3.53388,1020.57
17450,-2.46772,22.8742,-0.45911,60.97,33.6,319.97,0.679839,-39.3057,-2.57341,1020.58
17456,-2.43902,23.692,-0.832138,59.64,41.86,326.48,0.098704,-37.5787,-2.46998,1020.58
17462,-4.01722,23.6011,-0.621712,51.38,50.47,335.16,0.621727,-35.4816,-2.7064,1020.6
17468,-5.14108,22.1425,1.3869,57.26,55.23,336.21,0.592669,-33.6929,-2.63252,1020.6
17474,-7.04926,21.2434,2.69249,71.75,60.34,332.71,1.29003,-33.8471,-1.74594,1020.63
17480,-8.63701,22.0612,2.70206,87.78,66.92,326.69,3.55646,-32.1509,-1.59817,1020.63
17486,-11.0473,24.7824,1.60689,88.9,71.89,313.81,4.31194,-32.6135,-1.76071,1020.63
17492,-13.3764,26.6523,0.420851,73.08,70.98,292.18,5.53232,-34.1246,-2.94282,1020.6
17498,-16.0163,28.5748,-3.56767,39.69,63.77,266.35,7.13044,-34.9881,-2.98715,1020.6
17504,-19.9713,30.2056,-10.4639,-14.84,61.53,239.61,6.92704,-37.4553,-2.17445,1020.59
17510,-23.9694,26.7288,-11.2912,-67.48,47.39,211.61,7.30478,-39.7066,-2.10057,1020.59
17516,-29.89,18.6179,-9.61262,-99.54,21.49,183.26,6.72365,-40.4776,-2.32222,1020.61
17522,-33.0081,11.5638,-7.33142,-97.37,-3.57,158.2,5.44515,-42.4205,-2.88372,1020.61
17528,-37.0062,0.373027,-1.07604,-59.5,-22.47,132.86,5.85194,-44.826,-3.35656,1020.61
17534,-39.0818,-4.46198,5.45672,10.64,-47.74,110.18,5.70666,-45.5045,-3.31223,1020.61
17540,-38.2114,-3.99809,9.43568,104.09,-82.74,81.2,4.77684,-45.9979,-3.44522,1020.65
17546,-34.5959,1.48254,7.45098,174.93,-110.04,43.75,4.57345,-47.2315,-2.15967,1020.65
17552,7.54663,49.3544,24.1033,333.62,-109.27,-207.69,4.77684,-46.9848,-0.696811,1020.65
17558,-32.8742,39.5791,-4.20373,101.71,-111.02,-180.74,5.06741,-48.1567,0.293209,1020.65
17564,-20.6121,30.2009,-0.961262,-151.55,-162.68,-242.48,5.99723,-48.5268,-0.268295,1020.65
17570,-11.1526,24.7872,1.66906,-203.7,-85.05,-280.56,6.83987,-49.5445,-0.0909787,1020.66
17576,-13.3285,12.9364,-0.626494,-195.44,-18.97,-307.79,8.87385,-49.1744,-1.77549,1020.66
17582,-6.53754,11.5686,5.93496,-195.09,-103.74,-283.99,10.0361,-49.0202,-2.91327,1020.6
17588,23.032,-7.26447,7.32664,-234.64,-85.4,-322.49,10.7335,-49.637,-3.28268,1020.6
17594,10.7891,-9.09134,11.7838,30.1,59.36,-313.25,12.9127,-48.9894,-4.84898,1020.61
17600,6.26973,12.2764,-2.32903,73.15,87.71,-328.51,14.9467,-49.1128,-3.72597,1020.61
17606,-0.93735,22.0038,-6.09756,-1.96,52.15,-327.88,16.8354,-49.4212,-2.75073,1020.61
17612,-2.99856,22.1712,3.89287,-39.55,23.94,-308.56,18.9275,-49.4212,-2.58819,1020.62
17618,-8.95265,13.8307,2.27642,-39.41,28.91,-270.34,20.2641,-49.5445,-2.6473,1020.62
17624,-10.2869,12.946,3.22812,-31.22,15.68,-250.04,21.0486,-49.8221,-3.87374,1020.64
17630,-12.9268,14.9737,3.48637,-26.39,-7.56,-211.33,21.8332,-48.6193,-1.77549,1020.64
17636,-9.33525,13.4338,4.41894,-41.37,-64.47,-188.02,22.6758,-49.5137,-3.32701,1020.64
17642,-9.34003,20.6121,-3.45289,-52.85,-63.77,-137.97,24.1868,-48.5885,-2.97238,1020.64
17648,-1.99904,12.5729,0.69823,-85.96,-78.47,-138.25,24.8841,-48.3109,-3.90329,1020.67
17654,0.588235,11.7169,-0.85605,-75.6,-61.18,-138.18,24.9713,-48.2492,-5.35138,1020.67
17660,-11.0808,18.4983,-0.746054,-76.79,-26.46,-51.1,26.2207,-48.3726,-5.42526,1020.61
17666,-4.04113,9.7274,-1.37255,-28.49,-13.3,-69.09,25.7558,-48.1259,-5.46959,1020.61
17672,1.07126,8.14921,-2.43902,1.19,-15.12,-41.16,26.1626,-48.4343,-5.72079,1020.61
17678,1.46341,15.1506,-5.60497,-50.05,3.43,-51.45,26.0173,-48.496,-5.17406,1020.61
17684,-0.851267,12.1473,-1.42037,-72.17,5.6,-38.5,26.5985,-48.4651,-4.76032,1020.61
17690,-2.32425,7.934,0.870397,-45.29,18.9,-4.27,26.1626,-48.2492,-6.03109,1020.6
17696,-1.31516,7.55619,3.07508,-23.52,10.78,-13.23,27.5283,-48.0642,-4.65689,1020.6
17702,0.798661,7.60402,1.88905,-12.04,-5.11,-27.86,26.9181,-49.1128,-5.839,1020.64
17708,-1.13343,10.5356,-0.989957,-3.57,-0.77,-14.28,27.2377,-48.7118,-6.75514,1020.64
17714,-0.73649,10.66,-0.631277,-13.51,2.66,-15.12,26.6856,-48.3109,-4.68644,1020.65
17720,-0.860832,9.34481,0.37781,-7.98,-5.53,-9.59,26.8309,-48.0334,-5.15928,1020.65
17726,-0.564323,9.51219,0.215208,-0.42,-4.83,-6.3,27.5864,-48.0025,-5.76512,1020.65
17732,-0.0095648,9.7561,-0.559541,2.94,-4.41,-10.57,27.5574,-48.2184,-5.98676,1020.63
17738,0.554758,10.8991,-1.51602,-3.64,-3.36,-12.6,27.6736,-48.5576,-6.85857,1020.63
17744,-0.0669536,9.70349,-0.35868,-0.21,-3.71,-7.56,27.2958,-48.9277,-6.71081,1020.65
17750,0.210426,10.2917,-0.157819,0.98,-1.47,-6.23,27.8189,-48.1876,-6.17886,1020.65
17756,1.31038,10.5117,-1.42037,-3.92,0.07,-10.15,27.0053,-48.2184,-6.60737,1020.65
17762,-0.961262,9.28742,0.583453,0.21,-10.08,-13.37,27.354,-47.9408,-6.31184,1020.65
17768,0.0286944,10.3682,-0.420851,-1.4,-9.8,-10.57,27.6736,-48.496,-6.28229,1020.61
17774,0.071736,10.1913,-0.583453,-1.12,0.63,-8.75,27.4411,-48.5268,-6.47438,1020.61
17780,-0.420851,9.5935,0.210426,1.68,-4.62,-12.6,27.6445,-47.7558,-6.0902,1020.65
17786,0.272597,9.28742,-0.23912,5.04,-7.98,-15.19,27.0053,-49.2053,-6.62215,1020.65
17792,-0.401722,10.7317,-0.296509,4.41,-8.4,-11.48,27.7607,-47.6016,-6.04587,1020.65
17798,-0.559541,10.5117,-0.416069,5.11,-6.65,-10.71,27.4411,-48.4343,-5.27749,1020.63
17804,-0.310856,10.0048,-0.229555,4.76,-2.38,-11.55,27.7898,-47.8792,-6.93245,1020.63
17810,-0.47824,9.24438,0.0047824,10.29,-6.37,-12.04,27.1796,-48.3726,-6.57782,1020.63
17816,0.588235,10.8321,-0.989957,7.7,-3.71,-12.88,27.877,-47.4166,-5.15928,1020.63
17822,1.10473,9.89,-1.41559,10.5,11.55,-12.88,28.0804,-48.3109,-4.46479,1020.63
17828,-0.157819,9.63654,-0.320421,1.4,4.13,-7.91,27.4121,-47.4474,-6.4005,1020.63
17834,0.291726,9.83261,-0.679101,6.51,4.06,-10.01,28.2547,-47.6941,-5.32183,1020.67
17840,-0.569106,10,-0.444763,4.06,13.09,-12.95,28.0223,-48.5576,-6.23796,1020.67
17846,0.387374,10.4256,-2.16643,-1.05,14.77,-9.94,27.7317,-48.3109,-5.61735,1020.67
17852,0.162602,9.89,-1.21473,-6.72,18.27,-12.46,27.7026,-48.6502,-5.98676,1020.63
17858,0.0334768,9.95696,-1.34385,-6.37,22.26,-5.32,27.8479,-48.0334,-6.1493,1020.63
17864,0.277379,9.34959,-0.392157,-3.15,21.98,-5.6,27.6445,-48.1567,-6.07542,1020.64
17870,-0.234338,9.86609,-0.961262,-4.13,26.39,-6.44,27.3249,-47.9717,-7.16888,1020.64
17876,-0.33955,10.1243,-0.430416,-7.14,24.64,-7.14,27.5864,-47.4782,-5.66168,1020.64
17882,-0.196078,9.66045,-0.392157,-7.07,25.69,-6.02,27.7607,-47.8483,-5.32183,1020.64
17888,-0.105213,9.43568,-0.25825,-5.25,28.98,-5.46,28.0513,-48.1876,-5.61735,1020.64
17894,-0.191296,9.45002,-0.105213,-3.57,29.61,-6.79,27.4411,-47.8175,-6.57782,1020.64
17900,-0.49737,9.45481,0.21999,-2.24,29.75,-2.94,27.2377,-47.91,-5.24794,1020.64
17906,-0.215208,9.82783,-0.516499,-6.65,32.06,-6.02,27.4121,-47.8483,-6.22319,1020.64
17912,-0.49737,9.95218,-0.176949,-6.37,31.57,-3.85,27.6736,-47.6016,-5.51392,1020.64
17918,-0.502152,9.56958,-0.157819,-6.58,31.08,-2.87,27.9641,-48.1567,-5.88333,1020.64
17924,-0.172166,9.53132,-0.263032,-4.9,27.65,-3.71,28.0513,-46.9848,-4.49435,1020.64
17930,-0.181731,9.74653,-0.659971,-4.48,31.78,0,28.4581,-47.1082,-5.27749,1020.64
17936,-0.798661,10.0909,-0.181731,-6.65,26.95,-2.73,27.8189,-47.139,-6.20841,1020.64
17942,-1.26255,9.79914,0.286944,-11.55,17.78,-2.8,27.8189,-47.2624,-5.38093,1020.62
17948,-0.593018,9.62219,-0.353898,-10.29,14,-3.08,27.2377,-48.1567,-4.87853,1020.62
17954,-0.153037,9.62219,-1.0043,-10.22,16.03,-3.01,27.6155,-48.2801,-5.14451,1020.64
17960,-0.0430416,9.53132,-0.703013,-9.24,15.54,-4.62,27.8189,-47.6324,-5.95721,1020.64
17966,-0.0669536,10.0335,-0.650406,-10.92,15.54,-5.6,27.7317,-47.3857,-5.3366,1020.64
17972,-0.373027,10.7556,-0.095648,-7.91,12.81,-7,28.4291,-47.2315,-5.45481,1020.66
17978,0.263032,12.3673,0.196078,-17.01,3.57,-13.51,27.7898,-47.4474,-5.32183,1020.66
17984,-0.148254,11.2482,0.573888,-23.1,-7.21,-17.99,27.8189,-48.2801,-6.76991,1020.63
17990,1.17647,9.50263,1.38211,-10.99,-6.44,-25.06,27.0343,-48.3109,-5.97199,1020.63
17996,0.779531,9.88044,0.124342,-3.22,1.33,-27.65,28.5743,-47.139,-5.95721,1020.62
18002,-0.487805,10.4878,0.047824,-3.5,-1.54,-29.54,27.8479,-46.9231,-6.9029,1020.62
18008,-0.095648,10.9708,0.0669536,-7.42,-4.83,-33.6,28.2547,-47.5708,-5.29227,1020.63
18014,0.530846,10.6743,0.296509,-5.18,-4.13,-37.1,28.3128,-47.5708,-5.76512,1020.63
18020,0.33955,10.6121,0.516499,-1.19,-4.48,-40.81,27.877,-47.5708,-6.3414,1020.63
18026,0.124342,10.8847,0.172166,0.28,-5.6,-44.94,28.8649,-47.0157,-5.18884,1020.66
18032,0.0573888,11.1813,-0.176949,0.14,-6.72,-49.42,28.5453,-47.0465,-5.41048,1020.66
18038,0.109995,11.0856,-0.21999,-0.35,-6.93,-53.34,28.7777,-46.183,-6.13453,1020.65
18044,-0.0860832,10.9756,-0.114778,1.54,-7.49,-56.07,29.7366,-46.7998,-5.55825,1020.65
18050,-0.282162,10.8465,0.353898,2.38,-9.87,-59.71,29.417,-46.3063,-5.55825,1020.65
18056,0.047824,10.8847,0.301291,6.3,-10.64,-64.12,28.2547,-48.4651,-5.89811,1020.65
18062,0.114778,11.3295,0.148254,9.45,-12.88,-70.42,29.8528,-46.6764,-6.47438,1020.63
18068,0.047824,11.7791,-0.334768,7.7,-13.93,-75.81,30.9279,-45.7512,-5.18884,1020.63
18074,0.023912,11.8699,-0.167384,6.44,-15.75,-81.2,30.6374,-46.1213,-5.69124,1020.66
18080,0.224773,11.5638,0.540411,6.93,-17.29,-86.03,30.9279,-45.4737,-5.57302,1020.66
18086,0.344333,11.5543,0.564323,10.71,-17.29,-92.19,31.1894,-45.6279,-4.30225,1020.66
18092,0.492587,12.109,0.0095648,12.81,-16.24,-98.77,31.0732,-45.5662,-5.97199,1020.62
18098,0.425634,12.3577,0.253467,15.89,-17.01,-105.91,31.7706,-44.2092,-4.81943,1020.62
18104,0.306074,12.6781,0.0430416,14.98,-18.76,-112.42,31.6544,-44.826,-5.10018,1020.64
18110,0.430416,13.032,0.282162,13.58,-18.55,-119.49,32.1483,-44.2092,-5.48437,1020.64
18116,0.315638,13.0512,0.196078,16.52,-17.99,-127.05,32.5261,-44.6718,-4.87853,1020.61
18122,0.167384,13.5294,0.0813008,17.43,-16.52,-132.93,32.9038,-43.685,-5.20361,1020.61
18128,0.315638,14.5624,-1.26734,15.12,-13.02,-136.57,33.4268,-43.6233,-6.00154,1020.64
18134,0.363462,13.6729,-1.28647,8.75,-13.93,-147.07,33.7755,-43.7775,-4.2727,1020.64
18140,0.382592,13.2329,-1.36777,8.96,-10.22,-154.84,33.4559,-42.6364,-4.46479,1020.64
18146,0.554758,13.0081,-0.85605,17.99,-6.16,-164.5,34.7925,-41.3103,-5.94243,1020.61
18152,0.769966,13.9885,-0.349115,23.52,-4.83,-175.56,34.7634,-42.2355,-4.71599,1020.61
18158,0.95648,14.902,-0.329986,26.88,-5.25,-187.6,34.7925,-41.8963,-6.66648,1020.6
18164,0.946915,16.0115,-1.20995,22.89,-8.75,-204.19,36.3325,-41.0636,-4.92286,1020.6
18170,0.779531,16.3128,-1.74558,18.06,-12.67,-219.17,36.4778,-41.2795,-5.18884,1020.62
18176,1.20038,17.0206,-2.16643,18.76,-13.02,-234.22,37.5238,-39.8917,-4.80465,1020.62
18182,1.42994,17.9914,-1.8747,21.14,-13.51,-252.49,37.9887,-39.4599,-5.82422,1020.59
18188,0.980392,19.6222,-3.36203,18.27,-21.84,-273.35,38.7442,-38.5964,-5.97199,1020.59
18194,0.291726,20.3778,-5.81062,7.21,-24.71,-293.37,39.645,-37.2086,-5.85377,1020.59
18200,-0.607365,23.362,-5.92539,2.03,-22.12,-307.16,39.8774,-37.2703,-5.77989,1020.59
18206,-0.602582,22.9125,-4.20373,-6.65,-48.72,-333.27,40.7491,-35.8517,-5.66168,1020.59
18212,0.932568,21.2912,-5.58584,-13.02,-69.09,-360.08,41.5337,-34.5872,-5.32183,1020.63
18218,2.12339,20.8274,-5.90626,-1.89,-58.52,-378.35,42.5506,-32.891,-6.43005,1020.63
18224,1.86992,23.5342,-4.65328,-5.32,-51.66,-397.88,43.9163,-32.1201,-6.31184,1020.6
18230,-0.798661,24.7441,-2.77857,-12.67,-63,-418.67,44.2941,-29.5295,-7.08022,1020.6
18236,-1.94644,27.078,-2.42468,-10.43,-79.38,-424.48,45.311,-28.5426,-7.31664,1020.61
18242,-1.46341,26.3797,-1.78384,-1.4,-99.05,-434.35,46.0375,-26.8773,-7.27231,1020.61
18248,2.76901,26.571,-2.61119,-1.54,-122.01,-450.87,46.7639,-26.1988,-7.81904,1020.58
18254,7.46054,30.1722,-7.83357,-11.62,-118.44,-459.34,46.8511,-23.2074,-8.51353,1020.58
18260,4.72501,32.1664,-12.4534,-28.42,-87.15,-460.11,47.0254,-22.128,-9.44444,1020.58
18266,-0.583453,34.8302,-11.1143,-62.79,-95.13,-456.4,47.7809,-18.9823,-10.0355,1020.6
18272,0.81779,33.6777,-9.05787,-118.51,-158.06,-466.13,48.7107,-16.5151,-10.7595,1020.6
18278,9.76566,24.5672,-10.9947,-173.25,-206.64,-452.13,48.5945,-14.8806,-11.6757,1020.56
18284,15.0072,15.165,-14.1655,-213.5,-178.43,-405.86,48.3039,-11.6733,-12.3406,1020.56
18290,18.9479,4.96891,-11.0665,-234.43,-153.44,-363.09,47.9552,-10.1005,-14.4093,1020.55
18296,24.4476,-5.30368,-18.2401,-299.95,-110.32,-289.8,48.1586,-8.25009,-13.9217,1020.55
18302,6.58536,-16.0832,-3.9933,-190.4,65.31,-150.15,48.2748,-6.8623,-14.1729,1020.57
18308,-0.35868,-10.7317,9.44046,-45.22,113.05,-27.44,47.9843,-6.15299,-13.5375,1020.57
18314,-7.40316,2.92205,13.3525,32.48,8.96,43.4,48.2748,-5.93711,-13.5227,1020.57
18320,-1.09517,6.17886,1.24821,41.09,-52.01,117.25,47.316,-7.38658,-13.0203,1020.62
18326,12.5442,0.903874,-7.54184,56.7,3.85,166.95,46.822,-6.89314,-13.6853,1020.62
18332,14.572,-2.05165,-5.96365,129.64,61.88,193.55,46.9382,-8.21925,-12.5032,1020.54
18338,12.5251,4.56241,-5.04065,99.47,65.59,201.39,46.822,-9.51452,-12.9464,1020.54
18344,8.60354,8.71353,-5.22716,90.51,55.02,194.67,46.4152,-9.91543,-11.7348,1020.58
18350,8.967,9.36394,-5.01674,68.18,65.03,190.61,46.4443,-11.4883,-12.5179,1020.58
18356,7.75227,9.22525,-4.39503,64.19,80.01,175.56,46.4152,-11.7041,-11.3358,1020.6
18362,6.2219,7.80009,-2.77379,47.04,71.4,167.16,45.0786,-14.1713,-11.6018,1020.6
18368,8.73266,7.01578,-6.37016,8.4,33.74,153.09,45.7759,-13.5854,-10.6857,1020.56
18374,10.8178,1.51124,-3.94548,22.61,82.67,175.98,44.9914,-14.7881,-9.75474,1020.56
18380,5.19369,5.61454,-2.99378,25.76,94.5,199.99,44.8171,-15.3124,-8.67607,1020.56
18386,2.56815,5.99235,-1.83166,-2.45,69.44,203.98,44.4103,-16.2067,-9.10458,1020.55
18392,3.34768,4.56719,-2.71162,-5.04,71.19,224.28,44.0325,-15.8367,-9.73997,1020.55
18398,3.52941,3.81157,-3.51506,-9.73,80.71,240.73,42.6959,-17.5945,-8.79428,1020.54
18404,-0.593018,4.97848,-2.47728,-7.42,58.45,256.2,42.8122,-18.9823,-8.18845,1020.54
18410,1.46341,4.37111,-3.36681,-11.83,47.67,268.31,42.4344,-19.5374,-7.55306,1020.51
18416,-0.124342,3.7494,-1.64515,2.24,40.95,282.17,41.0687,-19.4758,-7.34619,1020.51
18422,0.37781,3.35246,-1.5495,12.39,26.81,288.19,40.4295,-20.8944,-8.09979,1020.59
18428,0.047824,2.73553,-0.492587,27.58,11.34,299.81,39.4997,-21.1103,-6.76991,1020.59
18434,0.659971,3.73027,-1.54472,40.95,1.33,311.85,39.2382,-22.7139,-7.64172,1020.59
18440,0.722142,4.43807,-1.31994,48.16,-10.29,316.19,36.8846,-22.7139,-6.37095,1020.57
18446,1.12386,4.91631,-0.846485,60.13,-15.75,324.45,36.0419,-23.7008,-5.85377,1020.57
18452,4.33285,0.569106,0.588235,82.18,15.12,324.24,35.054,-24.1017,-6.87335,1020.63
18458,2.43424,6.37494,-1.72166,69.02,-14.7,328.02,33.3106,-24.6877,-7.06544,1020.63
18464,2.33859,8.57484,-0.263032,74.69,-25.83,339.92,31.7706,-24.8727,-7.7156,1020.59
18470,2.05165,9.06743,0.430416,74.41,-25.83,341.6,31.5672,-24.9652,-7.30186,1020.59
18476,0.755619,11.3152,1.45385,73.5,-28.35,338.52,29.7366,-24.441,-5.48437,1020.6
18482,1.39168,13.4338,-0.449546,66.92,-23.87,335.09,29.417,-23.855,-6.60737,1020.6
18488,1.07126,13.7111,-0.133907,64.26,-18.83,332.36,27.8479,-22.6214,-6.56304,1020.6
18494,0.860832,14.2659,0.420851,57.75,-0.77,329.14,27.4121,-22.0355,-6.10497,1020.56
18500,-0.25825,15.1985,0.669536,55.09,-15.89,333.06,26.9762,-22.3439,-6.85857,1020.56
18506,-0.813008,15.5715,0.712578,51.59,-13.65,334.88,27.0634,-20.9252,-6.16408,1020.6
18512,-0.731707,15.5524,0.841702,52.15,-11.48,330.96,27.4411,-21.1411,-6.3414,1020.6
18518,-1.44907,15.9923,0.899091,52.5,-9.52,328.16,27.9351,-21.3261,-5.75034,1020.59
18524,-1.57819,16.2362,0.363462,54.39,-7.63,326.06,27.9932,-20.8019,-6.29707,1020.59
18530,-1.76949,16.4084,0.368245,57.68,-4.34,319.97,28.2838,-21.542,-8.49875,1020.59
18536,-2.36251,16.4897,0.970827,62.86,-4.55,311.01,27.8479,-22.6523,-8.08501,1020.59
18542,-2.43902,17.4318,0.47824,67.27,-4.06,302.19,27.9641,-22.4055,-7.74515,1020.59
18548,-2.54424,18.087,0.229555,70.56,-4.13,294.42,28.0513,-23.2382,-8.70562,1020.59
18554,-2.85988,17.6805,0.822573,75.18,2.87,288.26,27.354,-23.6391,-7.24276,1020.59
18560,-2.49163,19.034,-0.243902,81.41,-5.25,285.11,28.6325,-24.1634,-8.35099,1020.62
18566,-1.98948,20.3204,-0.793878,77.84,17.64,291.48,28.0513,-24.4101,-7.70083,1020.62
18572,-2.31468,21.3534,-1.31516,73.92,15.05,293.37,27.9932,-24.6568,-8.12934,1020.58
18578,-2.20469,22.3338,-0.903874,68.46,23.38,302.19,28.2257,-24.811,-8.45442,1020.58
18584,-2.56815,22.9125,-0.640842,64.12,34.58,317.31,29.2426,-25.3045,-8.17367,1020.58
18590,-2.89335,23.5151,-1.24821,56.49,49,324.17,30.2306,-26.6923,-8.94204,1020.58
18596,-3.26638,22.7212,-1.32472,55.93,63.56,326.97,30.7245,-26.3839,-8.04068,1020.63
18602,-4.74892,23.5007,-1.16691,57.05,74.55,327.04,31.3057,-27.8025,-7.9668,1020.63
18608,-5.36585,22.5968,-1.61167,59.57,85.96,323.26,32.8457,-29.8379,-6.88812,1020.63
18614,-7.56097,21.1286,0.272597,68.74,91.07,313.81,34.1823,-31.1023,-6.03109,1020.61
18620,-8.24964,18.7948,2.26686,80.85,95.69,302.4,34.6763,-33.8471,-3.13492,1020.61
18626,-11.1382,19.5505,3.74462,107.45,100.1,295.26,35.6061,-37.2086,-4.39091,1020.56
18632,-12.3338,21.8364,3.04639,109.76,101.99,281.54,35.6932,-39.4599,-2.80984,1020.56
18638,-14.1846,25.1459,0.81779,94.5,100.24,261.03,35.6932,-41.8346,-1.68683,1020.63
18644,-16.1263,27.8049,-3.53898,53.2,105.14,239.33,34.6472,-45.1961,-0.16486,1020.63
18650,-21.9464,28.7661,-7.57532,-4.9,99.47,216.72,33.3106,-47.6941,0.307985,1020.61
18656,-28.5748,24.0363,-7.6088,-60.69,75.74,193.13,32.0902,-49.1744,0.500078,1020.61
18662,-33.2807,19.3352,-5.61932,-79.45,48.16,169.33,31.451,-51.8883,0.766053,1020.6
18668,-39.4978,8.967,-1.53515,-72.17,11.2,138.95,29.7076,-53.307,1.50487,1020.6
18674,-41.8412,2.33859,2.61119,-28.35,-18.55,111.16,28.9811,-52.721,1.4901,1020.6
18680,-42.836,-2.56815,10.1435,45.22,-53.48,74.41,28.6325,-55.0957,1.28323,1020.67
18686,-39.7991,0.0047824,10.3252,107.17,-84.56,39.48,28.3419,-55.3424,2.03682,1020.67
18692,-32.9794,9.50741,6.64754,124.39,-91.98,-0.07,28.2257,-55.9592,2.62788,1020.65
18698,-28.2927,12.946,6.26973,147.56,-164.64,-43.12,28.8649,-56.3909,3.72133,1020.65
18704,-44.6915,52.066,-36.791,17.29,15.4,-168.63,30.4049,-55.7125,4.85912,1020.64
18710,-15.1315,63.1133,5.40889,-292.18,-108.71,-267.47,32.2064,-54.9415,3.98731,1020.64
18716,-15.0359,5.54758,3.08943,-301,-198.66,-299.39,33.3978,-53.8621,1.88906,1020.65
18722,24.2324,2.50598,-1.01387,-330.05,-146.09,-311.78,34.9959,-53.4303,1.41622,1020.65
18728,27.2836,-6.17408,1.33907,-173.6,71.4,-297.99,36.1582,-52.5051,-0.962785,1020.65
18734,5.88713,-15.2559,19.9426,-5.88,65.87,-308.56,37.611,-51.5183,-0.445612,1020.66
18740,6.3032,6.12147,5.91583,60.2,37.66,-336.49,39.9936,-50.2847,0.219327,1020.66
18746,2.34816,16.6284,-3.89287,38.99,58.52,-332.5,41.3593,-50.0071,0.012457,1020.68
18752,0.0908656,16.0402,2.54902,8.12,31.5,-324.66,43.1608,-48.2184,0.36709,1020.68
18758,-0.554758,18.9813,2.12817,14.63,73.57,-304.43,44.8461,-47.2007,1.96294,1020.67
18764,-9.41176,18.9909,-2.0373,-25.2,61.32,-284.41,44.8752,-46.954,2.70176,1020.67
18770,-16.2554,18.2592,3.04639,-64.05,1.47,-242.69,47.2869,-45.5045,1.298,1020.63
18776,-12.5299,16.1645,2.43424,-69.86,-56.42,-205.17,47.8099,-44.4559,3.57357,1020.63
18782,-3.68723,13.9742,0.13869,-65.59,-46.41,-177.45,48.4782,-44.1167,1.8004,1020.67
18788,-2.2286,11.9703,1.5495,-57.47,-44.8,-152.6,48.9722,-42.914,2.11071,1020.67
18794,-2.01817,11.8269,0.521282,-80.85,-90.16,-153.02,50.3088,-43.099,0.174997,1020.67
18800,-5.38976,16.5854,-1.3582,-57.4,-28.56,-120.33,50.4831,-42.6056,-0.135307,1020.69
18806,-3.70636,9.8087,-3.34768,-44.31,-9.24,-78.61,50.1345,-42.0813,0.544407,1020.69
18812,-5.69106,9.36872,1.32951,-18.55,-32.76,-39.06,51.0933,-41.557,-0.53427,1020.66
18818,1.65949,13.5198,-7.21186,-41.79,20.72,-50.4,51.0062,-40.8169,-0.3274,1020.66
18824,-0.927786,11.7695,-0.549976,-81.34,14.21,-54.18,51.413,-41.6804,-0.489941,1020.64
18830,-3.7781,6.76231,2.41033,-52.99,20.86,-21.91,51.3839,-41.7421,-0.667258,1020.64
18836,-3.32855,6.59971,4.99761,-17.36,6.44,-11.97,51.2386,-41.4337,-1.43563,1020.69
18842,-1.10952,8.82353,2.12339,-1.82,-10.08,-18.34,51.6164,-40.786,-0.489941,1020.69
18848,-0.989957,10.0478,-0.827355,-1.61,-10.99,-16.52,51.5292,-41.4953,-1.18443,1020.69
18854,-0.784314,10.4782,-0.573888,-9.59,-6.79,-10.78,51.442,-41.4953,-0.962785,1020.64
18860,-1.29603,9.88044,0.569106,-11.27,-10.22,-8.61,51.2967,-41.2486,-0.815022,1020.64
18866,-1.09517,8.74223,1.09039,0.42,-14.14,-2.73,51.6745,-40.5085,-0.770693,1020.66
18872,0.540411,9.9713,-1.18125,2.45,-4.97,-1.19,51.0643,-41.6495,-0.519494,1020.66
18878,-0.396939,10.5548,-0.884744,-3.92,-0.91,-1.26,51.7035,-40.8169,-1.68683,1020.66
18884,-0.530846,9.84696,0.521282,-1.05,-9.52,-2.38,51.9941,-40.1692,-1.19921,1020.66
18890,0.85605,10.5261,-1.07126,-0.21,-3.08,-2.73,51.965,-39.9225,-1.73116,1020.63
18896,0.243902,10.3061,-0.846485,-2.59,-1.68,-3.01,51.3839,-39.7683,-2.73595,1020.63
18902,-0.210426,10.5595,-0.296509,-5.67,-2.45,-4.27,51.1515,-40.6935,-0.549046,1020.63
18908,0.0382592,9.91392,-0.554758,-3.85,-3.57,-4.06,51.2096,-40.2001,-1.87892,1020.63
18914,0.157819,10.0909,-0.588235,-2.52,-1.4,-3.5,51.3258,-39.8917,0.130669,1020.63
18920,0.071736,9.79914,0.047824,-0.07,-1.54,-3.29,51.0643,-40.6627,-0.682034,1020.61
18926,0.554758,9.61262,-0.277379,3.57,1.75,-5.74,51.2386,-40.4776,-0.785469,1020.61
18932,0.109995,10.373,-0.765184,1.61,3.22,-4.62,50.9771,-41.2795,-1.06622,1020.63
18938,0.420851,9.70827,-0.468675,2.8,4.13,-7.49,51.8488,-40.3234,-0.549046,1020.63
18944,0.224773,9.66045,-0.105213,5.18,5.11,-6.65,51.2967,-40.3543,-1.40608,1020.65
18950,0.229555,9.71305,-0.693448,7.56,8.82,-6.16,51.7326,-39.9842,-1.16965,1020.65
18956,-0.296509,9.64132,0.0908656,7.91,6.65,-6.44,52.0522,-40.4159,0.115892,1020.68
18962,-0.363462,9.8374,0.0526064,7.14,3.29,-6.79,51.8198,-40.8477,-0.519494,1020.68
18968,0.071736,9.88044,-0.621712,6.72,2.45,-7.49,51.5873,-40.7243,-1.19921,1020.68
18974,-0.143472,9.78957,-0.291726,6.3,3.01,-6.51,51.1515,-39.8608,-0.888903,1020.66
18980,0.023912,9.79436,-0.291726,5.88,2.87,-6.72,51.965,-40.015,-0.977562,1020.66
18986,0.243902,9.89479,-0.93735,4.41,3.15,-7.91,51.442,-40.2309,-0.297848,1020.7
18992,0.334768,10.067,-1.06169,3.99,4.76,-8.61,51.7035,-39.9225,-0.874128,1020.7
18998,0.0143472,9.78001,-0.521282,3.36,7.14,-9.38,51.965,-40.4468,0.189774,1020.65
19004,0.334768,9.94261,-1.29125,-2.52,11.55,-9.45,52.0522,-40.1384,-0.416059,1020.65
19010,-0.129125,10.3635,-1.24342,-3.71,14.56,-7.77,51.3258,-40.2926,-0.90368,1020.64
19016,-0.0860832,9.66045,-0.296509,-4.13,14.63,-7.56,51.5582,-40.3851,0.529631,1020.64
19022,-0.0430416,9.41176,-0.35868,-1.26,15.61,-7.21,51.5001,-39.9225,-0.0909787,1020.64
19028,-0.167384,9.56002,-0.186514,-0.49,15.54,-7.7,51.7326,-40.0459,-0.386506,1020.64
19034,-0.263032,9.86609,-0.583453,-1.33,15.89,-7.91,51.965,-39.9534,-0.0762019,1020.64
19040,-0.0430416,9.6748,-0.329986,-1.89,16.31,-7.28,50.919,-39.6141,-1.27309,1020.66
19046,-0.0095648,9.41176,-0.0430416,0.91,16.73,-6.79,52.5752,-39.1515,-0.637705,1020.66
19052,0.0191296,9.55045,-0.124342,1.61,16.31,-7.91,52.5171,-40.0459,1.0468,1020.65
19058,0,9.74175,-0.588235,0.77,16.24,-7.49,52.1103,-40.8169,-0.504717,1020.65
19064,0.0286944,9.60306,-0.530846,-0.35,14.21,-7.14,51.8488,-39.1824,-1.43563,1020.69
19070,-0.215208,9.74653,-0.186514,-0.91,21.35,-8.61,51.965,-39.4599,-0.0762019,1020.69
19082,-1.14299,10.3443,0.808226,0.21,1.68,-3.15,51.8779,-39.059,-0.549046,1020.64
19088,0.349115,10.1483,-0.961262,-1.75,6.86,-7.35,52.0232,-39.645,1.10591,1020.64
19094,0.301291,10.0574,-0.813008,3.08,20.51,-9.73,52.4299,-39.4599,0.470526,1020.64
19100,-0.0813008,9.85653,-0.712578,-5.46,14.7,-8.19,51.5873,-39.7683,0.559184,1020.64
19106,-0.382592,9.7274,-0.45911,-5.04,8.47,-9.94,52.5171,-39.4291,0.381867,1020.65
19112,-0.363462,10.373,-0.645624,-7.77,8.89,-10.99,51.8198,-39.83,0.78083,1020.65
19118,-0.0621712,9.94739,-0.669536,-6.23,11.2,-10.64,52.6043,-39.5524,0.500078,1020.65
19124,-0.468675,9.93304,0.0286944,-6.37,7.77,-10.36,52.0813,-39.1207,-0.209189,1020.65
19130,-0.942133,10.7508,-0.492587,-10.29,4.83,-11.76,51.9069,-39.83,-0.3274,1020.65
19136,-0.191296,9.66045,-0.860832,-13.93,4.83,-13.79,52.3718,-39.7683,1.00248,1020.65
19142,0.162602,9.90913,-0.93735,-13.58,7.42,-12.53,52.0813,-39.5833,0.736501,1020.65
19148,0.21999,9.79914,-1.21951,-13.58,13.86,-12.32,51.8779,-38.8431,-0.0170966,1020.62
19154,-0.272597,10.4208,-1.40603,-14.84,18.41,-10.5,52.2556,-39.1207,1.44577,1020.62
19160,-0.272597,12.0708,-1.24342,-15.75,20.3,-9.87,51.6454,-39.8917,0.662618,1020.66
19166,0.023912,14.3376,-1.02343,-30.38,8.4,-17.71,52.0813,-38.6889,0.677395,1020.66
19172,-0.401722,13.7781,-1.36298,-51.1,-6.65,-23.31,52.3137,-39.2749,0.899041,1020.65
19178,4.15112,10.8321,5.10282,-39.83,-8.47,-44.17,52.3428,-38.7506,0.115892,1020.65
19184,4.16547,9.75131,7.99139,19.39,-4.69,-65.87,53.5922,-38.9048,-0.238742,1020.64
19190,0.631277,11.9082,-1.42516,15.68,1.54,-71.4,52.8949,-38.7814,0.588736,1020.64
19196,-0.37781,12.3338,-2.53945,5.25,-0.21,-74.34,52.9239,-38.0104,-0.312624,1020.64
19202,0.124342,11.2386,0.712578,-2.8,-4.27,-75.53,52.5462,-37.3011,0.16022,1020.66
19208,0.473458,11.033,2.26686,8.05,-6.65,-82.11,53.0401,-36.3451,1.0468,1020.66
19214,1.12865,11.6165,1.21951,21.07,-5.25,-91.7,54.3477,-37.2086,0.381867,1020.66
19220,0.903874,12.8264,-0.229555,21.07,-4.13,-99.82,54.0571,-35.4507,-1.00711,1020.66
19226,0.0047824,12.6973,-0.229555,17.08,-8.26,-107.45,54.1443,-35.6975,0.514854,1020.64
19232,0.392157,11.8747,0.655189,18.62,-12.53,-112.77,54.8998,-34.433,0.706948,1020.64
19238,0.69823,11.6212,1.30081,23.17,-14.56,-120.19,54.4349,-34.1863,0.514854,1020.66
19244,1.06169,11.956,1.24821,31.15,-12.6,-128.59,55.2485,-33.4462,0.706948,1020.66
19250,0.822573,12.4582,1.07604,37.8,-13.02,-135.73,55.9749,-33.7237,-0.0170966,1020.63
19256,0.439981,13.4146,-0.506934,39.06,-14.56,-141.68,55.3356,-32.9219,0.810383,1020.63
19262,0.095648,13.6011,-1.32951,38.92,-14.14,-146.09,55.5681,-32.7985,0.677395,1020.63
19268,0.181731,15.012,-2.83118,32.2,-10.22,-152.32,56.3236,-32.1201,1.17979,1020.69
19274,0.932568,16.461,-2.84075,21.21,-9.38,-159.46,56.3236,-31.2565,1.37189,1020.69
19280,1.76471,15.0502,-0.344333,17.5,-14.7,-174.44,56.8175,-30.5472,0.825158,1020.65
19286,1.00909,14.1894,0.344333,26.6,-14.7,-189.07,57.3987,-29.4062,1.66741,1020.65
19292,0.918221,14.6581,-1.40603,36.75,-15.47,-202.09,57.7764,-28.6968,1.32756,1020.63
19298,1.61167,15.935,-2.01339,36.33,-15.54,-216.72,57.7764,-27.7716,1.5492,1020.63
19304,2.10904,18.3214,-2.90292,27.16,-19.04,-234.36,58.3866,-26.168,0.544407,1020.65
19310,1.4682,19.8422,-4.56719,15.26,-21.84,-252.42,58.8806,-25.2736,0.115892,1020.65
19316,0.884744,20.2917,-5.61454,0.21,-34.02,-273.91,58.2994,-23.269,0.115892,1020.65
19322,0.860832,20.2726,-5.60019,-12.81,-46.06,-293.65,59.2002,-23.084,-0.593376,1020.69
19328,1.47776,21.2195,-5.91583,-14.35,-33.53,-311.08,60.0428,-20.6785,0.94337,1020.69
19334,0.401722,24.8398,-3.65375,-7.56,-32.83,-330.61,60.13,-19.5374,-0.386506,1020.64
19340,1.31038,24.5768,-3.10856,-19.46,-69.65,-362.25,60.9145,-17.5329,-1.30264,1020.64
19346,2.97465,21.8699,-4.3472,-19.32,-78.54,-388.71,60.7111,-15.3741,-1.30264,1020.6
19352,4.75849,22.1999,-3.56289,-11.06,-63.07,-406.77,60.9145,-13.8321,-1.06622,1020.6
19358,3.96461,24.3281,-2.26686,-17.22,-57.12,-426.86,61.6409,-10.6247,-1.42085,1020.62
19364,-0.047824,28.4314,-0.932568,-17.5,-58.1,-436.31,62.5126,-8.74353,-2.26311,1020.62
19370,-0.57867,29.4548,-1.02343,-17.5,-77.77,-450.24,62.4545,-5.25863,-2.01191,1020.62
19376,3.25681,30.153,-2.45337,-32.97,-102.41,-457.87,62.1349,-3.13069,-2.9576,1020.62
19382,9.57915,30.8513,-8.5605,-64.47,-99.26,-463.47,61.7572,-1.18779,-3.40089,1020.62
19388,8.23529,30.4208,-11.7169,-80.99,-54.11,-470.12,61.67,1.64947,-4.61256,1020.62
19394,1.19082,31.253,-7.27403,-102.55,-63.28,-474.18,61.9025,4.39421,-5.05585,1020.62
19400,1.65471,27.2071,-6.08321,-151.55,-126.84,-477.19,61.4957,7.20062,-5.35138,1020.62
19406,8.79483,15.4615,-10.0574,-189.14,-140,-446.88,60.624,9.60612,-5.30705,1020.62
19412,12.4199,9.67001,-10.5452,-196.49,-94.36,-398.09,60.3915,12.0425,-7.37575,1020.6
19418,16.9153,-0.243902,-8.78049,-235.06,-134.05,-328.23,60.0428,14.7255,-6.99156,1020.6
19424,25.9732,-12.0182,-17.4175,-292.39,-117.46,-222.11,59.3164,17.0077,-8.29188,1020.61
19430,11.2291,-17.6184,-3.38116,-116.34,105.35,-92.82,58.9677,17.9329,-7.44963,1020.61
19436,-2.05165,-7.42707,11.4538,25.69,127.75,14.35,59.4326,16.9768,-6.22319,1020.61
19442,-9.24438,6.97274,11.9608,59.99,-33.95,72.94,60.3334,16.2367,-5.80945,1020.63
19448,0.588235,7.94357,-2.45815,54.81,-102.27,132.02,60.0138,16.4525,-7.19843,1020.63
19454,17.2358,0.755619,-11.4682,77.56,-26.81,172.83,60.6821,15.219,-7.64172,1020.58
19460,17.9483,0.191296,-6.88187,120.05,43.54,189.07,61.7281,13.8312,-6.99156,1020.58
19466,11.406,7.04926,-1.65471,120.26,30.31,191.24,62.5126,13.0602,-6.41528,1020.62
19472,10.373,10.0239,-4.0746,95.83,16.59,192.64,62.4836,11.0556,-5.92766,1020.62
19478,10.1387,10.5739,-4.67719,76.86,24.43,193.13,63.3553,10.1304,-7.30186,1020.62
19484,10.0909,9.86131,-4.61023,59.01,38.29,193.34,64.8081,8.43421,-7.2132,1020.62
19490,8.03921,9.54567,-3.85461,35.21,47.74,196.28,65.0115,6.61467,-6.99156,1020.62
19496,6.02582,7.78575,-0.85605,11.06,33.11,203.28,65.3893,5.28856,-6.72558,1020.6
19502,8.06791,6.28886,-3.03682,2.87,53.9,217.84,66.8421,3.59237,-5.12973,1020.6
19508,6.29842,4.80153,-2.01339,-5.6,61.25,224.35,67.4523,1.77283,-5.61735,1020.55
19514,4.14634,4.49546,-1.09039,-10.29,53.48,235.62,68.0044,0.631758,-4.74554,1020.55
19520,3.40985,4.24199,-1.88427,-9.87,51.1,250.04,69.1085,-2.2055,-6.07542,1020.55
19526,2.79292,3.86896,-1.72166,-6.09,45.71,262.01,69.8349,-3.90169,-4.11016,1020.55
19532,1.74558,3.51506,-1.16691,3.08,34.65,271.18,71.5202,-6.12215,-3.81463,1020.55
