Timestamp,AccX,AccY,AccZ,AngularVelX,AngularVelY,AngularVelZ,MagX,MagY,MagZ,AirPressure
70232,8.37877,-4.43328,-3.4768,-3.5,-5.11,-5.32,-57.1784,12.9217,-10.9582,1011.96
70238,8.29746,-4.25155,-3.46724,-6.72,-4.97,-5.81,-57.4363,12.4876,-10.3344,1011.98
70244,8.30703,-4.11286,-3.4768,-8.05,-4.9,-7.42,-57.6081,13.6162,-11.3268,1011.98
70250,8.34051,-3.8307,-3.57245,-8.89,-3.29,-7.63,-57.8373,13.0085,-10.6605,1011.98
70256,8.29746,-3.70636,-3.50072,-10.92,-2.52,-7.84,-57.1784,12.5166,-10.7597,1011.98
70262,8.17312,-3.62028,-3.43376,-9.94,-1.68,-7,-57.0925,13.0085,-10.7313,1011.94
70268,8.05834,-3.51985,-3.40507,-7.14,-2.52,-5.53,-56.5769,13.2979,-10.7172,1011.94
70274,8.04878,-3.46246,-3.46724,-7,-2.87,-4.13,-56.5769,12.8349,-10.8731,1011.96
70280,8.18747,-3.36681,-3.56767,-5.39,-1.96,-1.47,-57.1211,13.1243,-11.4827,1011.96
70286,8.23529,-3.3142,-3.63462,-3.71,-0.84,1.33,-57.0352,13.0664,-10.6888,1011.93
70292,8.26399,-3.34768,-3.59636,-2.59,0.28,1.82,-57.1784,12.4587,-10.1501,1011.93
70298,8.35964,-3.46724,-3.57724,-0.21,1.05,2.17,-57.0639,12.5166,-10.6463,1011.93
70304,8.35964,-3.53898,-3.60115,2.31,1.33,1.96,-56.7774,13.269,-9.54046,1011.97
70310,8.41702,-3.60115,-3.68723,3.92,1.12,1.54,-57.4363,12.9796,-9.88071,1011.97
70316,8.44572,-3.56767,-3.70636,4.34,1.05,2.1,-57.379,12.777,-11.1283,1011.94
70322,8.43137,-3.53419,-3.78766,2.38,1.75,2.45,-57.4076,12.8638,-10.9156,1011.94
70328,8.42659,-3.51985,-3.71114,0.98,2.03,2.31,-57.3503,12.6902,-10.306,1011.92
70334,8.33572,-3.51028,-3.59636,-0.14,2.1,2.31,-57.0352,12.5455,-10.4762,1011.92
70340,8.27833,-3.57245,-3.44811,0.28,1.54,2.17,-57.379,13.5584,-10.5754,1011.96
70346,8.2879,-3.51506,-3.40985,0.21,0.35,1.26,-57.78,13.0664,-10.5612,1011.96
70352,8.33094,-3.53419,-3.41463,0.28,-0.42,0.28,-56.7487,13.0953,-10.6321,1011.94
70370,8.38355,-3.63941,-3.47202,0.98,-1.75,-3.78,-56.892,13.3558,-10.306,1011.96
70376,8.43137,-3.62028,-3.47202,1.82,-1.82,-4.55,-57.4935,12.9217,-10.8306,1011.96
70382,8.44094,-3.51028,-3.53419,2.31,-1.54,-5.11,-57.5508,12.8349,-11.4402,1011.94
70388,8.46485,-3.49115,-3.50072,3.29,-0.91,-4.69,-58.0665,12.7481,-11.6812,1011.94
70394,8.41702,-3.48637,-3.45289,3.36,-0.07,-3.71,-57.4076,13.0664,-10.8306,1011.97
70400,8.41224,-3.47202,-3.47202,2.87,0.42,-2.94,-57.293,12.8638,-11.5678,1011.97
70406,8.34051,-3.45289,-3.39072,3.71,1.12,-2.03,-56.806,12.9217,-11.6245,1011.97
70412,8.38833,-3.43376,-3.29507,4.55,2.17,-0.77,-57.0352,13.4426,-10.4336,1011.97
70418,8.39311,-3.47202,-3.25681,6.16,3.08,-0.84,-57.5795,12.9217,-11.3268,1011.92
70424,8.38833,-3.59158,-3.17551,6.58,4.13,-2.31,-57.2357,12.8928,-11.185,1011.92
70430,8.35485,-3.68723,-3.12769,8.82,4.83,-4.76,-57.3503,12.6902,-10.3911,1011.95
70436,8.33572,-3.76853,-3.11812,9.52,5.81,-7.84,-57.293,13.0664,-10.4194,1011.95
70442,8.19225,-3.64419,-3.19943,9.45,6.23,-9.94,-56.7487,12.9507,-11.7237,1011.94
70448,8.20182,-3.57245,-3.19464,8.68,6.93,-11.97,-56.7774,12.4298,-10.6888,1011.94
70454,8.29268,-3.45289,-3.15638,8.19,6.72,-13.02,-57.0925,12.5744,-10.9582,1011.93
70460,8.36442,-3.40507,-3.24725,7.91,5.95,-14,-57.7514,12.6323,-10.0508,1011.93
70466,8.52702,-3.35246,-3.46724,8.47,5.18,-12.46,-56.9206,12.2561,-10.1359,1011.93
70472,8.63701,-3.2329,-3.54854,9.66,4.9,-11.41,-56.8633,12.6613,-11.0007,1011.97
70478,8.59397,-3.15638,-3.52463,9.52,4.41,-10.5,-57.2357,12.1982,-10.8306,1011.97
70484,8.50789,-3.13725,-3.45768,10.36,3.99,-10.22,-57.0066,12.4008,-11.3268,1011.98
70490,8.37877,-3.22334,-3.43376,11.48,3.5,-10.64,-56.7774,12.4008,-10.306,1011.98
70496,8.2879,-3.31899,-3.37159,12.46,3.29,-11.69,-57.1784,11.359,-10.5612,1011.96
70502,8.24008,-3.40507,-3.37159,12.67,3.57,-12.46,-57.293,11.7642,-11.0149,1011.96
70508,8.19703,-3.46246,-3.36681,13.02,4.34,-13.44,-57.0639,12.0825,-11.8655,1011.91
70514,8.10139,-3.48637,-3.38594,12.6,5.39,-13.93,-57.2644,11.7931,-11.9222,1011.91
70520,8.06791,-3.53898,-3.37637,12.11,6.44,-13.93,-57.6081,11.822,-12.0356,1011.94
70526,8.10617,-3.50072,-3.35246,9.87,7.35,-13.16,-57.6081,11.2433,-11.185,1011.94
70532,8.1253,-3.45289,-3.38594,9.24,9.87,-11.06,-57.5222,11.3301,-11.2134,1011.92
70538,8.13486,-3.37637,-3.40507,8.26,11.97,-8.47,-56.7487,11.0986,-10.6321,1011.92
70544,8.11095,-3.47202,-3.48637,6.37,13.37,-6.16,-56.6055,11.0696,-11.5536,1011.95
70550,8.06791,-3.5868,-3.54854,5.67,14.63,-3.29,-57.3503,11.5326,-12.4751,1011.95
70556,8.15877,-3.76375,-3.62028,2.87,15.19,-3.08,-56.9779,10.8671,-12.0923,1011.95
70562,8.18269,-3.84027,-3.63941,1.89,13.93,-4.34,-56.4336,10.3751,-12.4184,1011.93
70568,8.37877,-3.95983,-3.76853,-0.84,11.69,-8.33,-56.892,10.9828,-12.6169,1011.93
70574,8.6944,-3.98374,-3.86418,-3.29,9.45,-14.98,-56.7201,10.7513,-12.0782,1011.95
70580,9.00526,-3.90722,-4.022,-3.29,8.26,-21.56,-56.6341,10.5777,-13.0706,1011.95
70586,9.14395,-3.65854,-4.12243,-0.77,6.58,-26.88,-56.4909,10.6645,-12.4326,1011.94
70592,9.05787,-3.49593,-4.06026,0.63,4.48,-30.52,-56.6055,10.3462,-11.7946,1011.94
70598,9.11525,-3.44333,-3.9407,6.16,4.83,-31.78,-56.5769,10.0857,-12.3475,1011.98
70604,8.95744,-3.41942,-3.95026,11.34,5.95,-31.99,-56.5196,10.2015,-11.9931,1011.98
70610,8.71353,-3.39072,-3.88331,13.86,6.72,-30.66,-55.8607,10.4619,-12.9997,1011.95
70616,8.40746,-3.33812,-3.75418,15.47,5.95,-27.3,-56.9206,9.76737,-13.028,1011.95
70622,8.35485,-3.35724,-3.75897,15.61,5.46,-22.4,-57.3503,9.39117,-12.787,1011.95
70628,8.35485,-3.64897,-3.74462,15.4,4.69,-21.07,-56.7201,9.18859,-11.823,1011.95
70634,8.35007,-3.9407,-3.66332,14.42,4.06,-24.29,-55.8034,9.27541,-12.5885,1011.94
70640,8.59397,-4.28503,-3.56289,14.28,5.25,-32.48,-57.4363,8.89921,-12.9572,1011.94
70646,8.71832,-4.31851,-3.53419,12.81,7.84,-42.98,-56.6914,9.07284,-13.0706,1011.94
70652,8.6418,-4.19895,-3.59158,11.55,9.45,-49.63,-57.379,9.36223,-12.0073,1011.96
70658,8.57484,-3.84983,-3.73984,9.03,11.48,-52.71,-56.319,7.88635,-11.9364,1011.96
70664,8.55571,-3.52463,-3.80201,6.72,13.79,-50.96,-56.5769,8.03104,-13.3825,1011.94
70670,8.44094,-3.10856,-3.67767,2.38,15.68,-45.71,-56.6055,7.65483,-13.5101,1011.94
70676,8.31181,-2.96031,-3.53898,-1.12,16.45,-39.34,-56.6914,7.24969,-12.943,1011.96
70682,8.35485,-2.99856,-3.46246,-3.5,17.5,-35,-56.2044,6.64197,-13.2123,1011.96
70688,8.41224,-3.01291,-3.34768,-4.62,19.11,-31.01,-56.6341,6.90242,-13.3683,1011.93
70694,8.50311,-3.05595,-3.28073,-3.71,19.67,-29.05,-56.9206,6.32364,-13.1415,1011.93
70700,8.66093,-3.10378,-3.20899,-2.94,20.3,-29.61,-57.4363,6.09213,-12.9713,1011.92
70706,8.84266,-3.04639,-3.17551,-2.1,20.37,-31.92,-56.3477,5.7738,-13.2549,1011.92
70712,8.90005,-2.91248,-3.18986,-1.96,19.88,-34.58,-56.5482,5.02139,-13.3399,1011.97
70718,8.90005,-2.7977,-3.26638,-0.7,19.04,-35.56,-56.6628,5.42654,-13.1273,1011.97
70724,8.92874,-2.57293,-3.38594,-2.31,17.78,-33.95,-56.7201,5.65805,-13.6518,1011.97
70730,8.93831,-2.23816,-3.34768,-3.36,16.73,-28.77,-56.3477,4.90564,-13.7369,1011.94
70736,9.03395,-2.13773,-3.22812,-2.45,15.75,-23.8,-56.2904,5.45548,-13.2549,1011.94
70742,9.10091,-2.28599,-3.17073,-1.61,16.03,-19.53,-56.4336,5.07927,-13.425,1011.94
70748,9.06743,-2.48207,-3.1803,0.77,16.94,-16.66,-56.9779,4.732,-14.4174,1011.94
70754,8.95744,-2.63988,-3.03204,2.59,17.15,-15.61,-56.6628,5.51335,-14.7293,1011.92
70760,8.86657,-2.84075,-2.86466,3.85,17.99,-15.4,-56.892,4.26898,-14.3182,1011.92
70766,8.85701,-3.04161,-2.7977,5.04,18.27,-17.01,-56.7774,5.13715,-14.0913,1011.93
70772,8.95744,-3.29507,-2.67336,5.04,17.36,-22.68,-56.0039,4.03747,-15.3106,1011.93
70778,9.02439,-3.49593,-2.59684,5.04,16.52,-32.13,-56.319,4.44262,-14.942,1011.93
70784,9.13438,-3.64897,-2.59206,4.83,16.45,-43.05,-56.892,4.2111,-15.424,1011.93
70790,9.2109,-3.59158,-2.59684,4.76,17.43,-51.66,-57.5222,3.42975,-14.6159,1011.94
70796,9.13917,-3.3142,-2.67336,2.73,17.71,-57.33,-56.892,3.71914,-15.3106,1011.94
70802,8.8044,-2.84553,-2.75944,-1.33,19.04,-56.49,-56.8347,2.7931,-14.148,1011.97
70808,8.81875,-2.8264,-2.70206,-3.08,21.14,-55.93,-57.4935,2.85097,-15.027,1011.97
70814,8.61789,-2.52032,-2.43902,-4.27,21.98,-54.88,-57.1784,2.35901,-15.0554,1011.97
70820,8.54137,-2.35294,-2.25251,-3.08,22.12,-52.08,-57.1498,2.15644,-15.183,1011.93
70826,8.65614,-2.19034,-2.1999,-1.4,23.03,-49.63,-57.4935,2.2722,-15.2397,1011.93
70832,8.81875,-1.99426,-2.40076,3.85,22.75,-48.02,-56.4336,1.83811,-15.7784,1011.97
70838,8.93831,-1.89383,-2.64945,8.54,23.38,-46.9,-56.2044,1.05676,-15.4665,1011.97
70844,9.31133,-1.88427,-2.83118,13.51,25.34,-48.65,-56.6055,1.46191,-15.6366,1011.97
70850,9.35916,-1.94165,-2.75466,17.36,27.79,-51.8,-56.2904,1.28827,-15.2538,1011.97
70856,9.13438,-1.99904,-2.54902,20.02,27.58,-53.83,-56.319,0.506923,-15.268,1011.95
70862,9.12482,-2.13295,-2.62554,18.9,24.36,-56.14,-56.0612,0.535862,-15.665,1011.95
70868,9.18699,-2.10426,-2.84553,13.79,23.38,-58.45,-55.9466,-0.274427,-16.147,1011.93
70874,9.09613,-2.13295,-2.80249,5.39,22.96,-59.15,-56.1472,-0.216549,-15.8493,1011.93
70880,9.03874,-2.21425,-2.60641,-1.26,21.7,-59.78,-56.0326,-1.1426,-16.1045,1011.95
70886,8.86657,-2.29077,-2.24773,-6.02,19.88,-60.41,-55.8607,-1.80819,-17.4513,1011.95
70892,8.91439,-2.32425,-2.16164,-9.31,17.43,-62.51,-55.9753,-2.21333,-16.8984,1011.92
70898,9.08656,-2.31946,-2.12817,-10.29,16.73,-66.71,-56.2331,-2.01076,-16.9551,1011.92
70904,9.39263,-2.09947,-2.16643,-8.89,16.87,-71.33,-55.7461,-2.35803,-17.3237,1011.92
70910,9.55045,-1.95122,-2.01339,-5.18,15.96,-77.56,-56.0612,-2.82105,-16.4873,1011.95
70916,9.70827,-1.42037,-1.77427,-3.64,15.4,-84.35,-56.319,-3.77603,-17.0402,1011.95
70922,9.5935,-0.205643,-1.96078,-5.46,0.91,-104.72,-55.5169,-3.92073,-17.267,1011.97
70928,10.2582,0.545194,-2.35772,0.42,5.04,-135.31,-55.1159,-5.3098,-17.4513,1011.97
70934,10.2869,0.45911,-2.19034,9.66,9.87,-145.04,-56.2331,-5.33874,-17.3237,1011.93
70940,10.2487,0.109995,-2.04208,25.34,17.64,-130.41,-55.6888,-6.55417,-16.3171,1011.93
70946,9.70827,-0.0860832,-2.25251,36.47,22.26,-101.99,-54.6289,-7.16189,-16.8417,1011.94
70952,9.34003,-0.148254,-2.44381,37.87,23.73,-78.75,-54.6575,-7.9143,-16.303,1011.94
70958,9.05308,-0.439981,-2.28599,32.34,21.28,-63.35,-54.9154,-8.37732,-16.8984,1011.94
70964,9.05787,-0.659971,-2.10426,23.24,16.45,-58.94,-54.9154,-8.08793,-17.5505,1011.94
70970,9.26351,-0.95648,-2.03252,13.3,11.48,-62.79,-54.457,-8.72459,-15.9202,1011.94
70976,9.69392,-1.51124,-1.93209,3.71,8.26,-73.57,-54.3997,-9.70851,-17.1394,1011.94
70982,9.70349,-1.6308,-1.83166,-4.34,4.76,-85.89,-54.5429,-9.73745,-18.0751,1011.94
70988,9.6748,-1.37733,-1.97035,-9.66,2.03,-94.36,-54.1992,-10.5767,-17.3379,1011.95
70994,9.68436,-0.946915,-2.21425,-15.96,1.75,-98.63,-54.1419,-10.0847,-17.4655,1011.95
71000,9.65088,-0.435198,-2.45337,-19.39,6.23,-96.04,-54.1132,-11.2133,-16.9126,1011.95
71006,9.62697,0.253467,-2.49641,-23.45,10.92,-90.58,-53.4544,-11.358,-17.0969,1011.95
71012,9.93304,0.483022,-2.56337,-25.97,20.37,-82.6,-53.3111,-11.8211,-17.5789,1011.9
71018,10.3826,0.803443,-2.53945,-27.72,30.8,-76.86,-53.9127,-12.9207,-18.3303,1011.9
71024,10.4017,0.755619,-2.32425,-29.4,37.59,-74.27,-53.8841,-13.2969,-19.2802,1011.92
71030,10.1435,0.45911,-1.93209,-26.95,41.51,-72.66,-52.9674,-13.0365,-19.2802,1011.92
71036,9.86609,0.310856,-1.68819,-22.33,41.16,-72.59,-53.2825,-13.8468,-18.9683,1011.94
71042,9.67001,0.105213,-1.53993,-17.71,38.92,-74.9,-52.9387,-13.7889,-19.2093,1011.94
71048,9.62219,-0.205643,-1.20995,-11.69,36.82,-79.24,-53.0247,-14.6571,-18.6847,1011.95
71054,9.62219,-0.320421,-0.966045,-6.44,33.39,-85.96,-52.5377,-15.2648,-19.4645,1011.95
71060,9.74175,-0.105213,-0.985174,-3.78,31.15,-94.22,-52.509,-15.612,-19.8047,1011.95
71066,9.71305,0.105213,-1.21473,-2.45,29.4,-101.43,-52.6809,-17.1458,-20.2442,1011.95
71072,9.5648,0.329986,-1.41081,-3.15,28.14,-105.42,-51.7356,-16.5092,-19.4928,1011.95
71078,9.28742,0.703013,-1.49211,-4.55,27.02,-106.82,-51.4778,-17.551,-20.5277,1011.95
71084,9.05308,0.894309,-1.69775,-5.04,25.41,-104.16,-51.0481,-18.1297,-20.4994,1011.95
71090,8.93831,0.913438,-1.87948,-3.78,25.55,-102.69,-50.3605,-18.7085,-20.3576,1011.92
71096,8.8044,0.908656,-1.76949,-5.88,29.4,-107.1,-51.4205,-19.6346,-20.2442,1011.92
71102,6.64754,2.66858,-0.487805,-20.44,27.37,-128.87,-50.3033,-19.3162,-20.8113,1011.91
71108,5.7054,3.37637,0.707795,-63.91,19.04,-171.5,-49.8449,-20.0976,-20.9672,1011.91
71114,9.5935,-0.602582,-2.08991,-53.13,38.57,-189.91,-49.5298,-21.0815,-21.9455,1011.97
71120,10.11,1.09039,-2.56337,-14.42,42.63,-170.52,-49.1287,-21.6892,-22.1156,1011.97
71126,8.97657,3.52463,-1.72645,-2.38,36.61,-153.65,-48.0688,-22.1812,-22.2432,1011.95
71132,8.39789,3.59636,-1.9847,0.91,29.47,-145.18,-48.0688,-24.2069,-23.0087,1011.95
71138,8.30703,2.45815,-5.69584,-52.36,38.43,-132.16,-47.8969,-23.6571,-21.1799,1011.93
71144,7.94357,0.679101,-3.13725,-53.9,33.46,-108.5,-47.2094,-25.0461,-22.8244,1011.93
71150,8.14443,3.18986,0.186514,-25.06,15.26,-100.52,-46.6651,-25.7696,-22.1156,1011.95
71156,9.14395,4.25155,-1.55906,-24.5,18.34,-97.86,-46.7797,-26.2326,-22.385,1011.95
71162,9.30177,3.74462,-1.85079,-30.87,21.98,-95.83,-46.0922,-26.522,-22.47,1011.95
71168,9.31133,2.92683,-1.17647,-29.61,21.63,-96.18,-45.4333,-26.9272,-23.6042,1011.96
71174,9.73218,2.39598,-1.06648,-20.79,19.74,-103.88,-45.4333,-27.2744,-24.0153,1011.96
71180,10.0096,2.52511,-1.28168,-13.23,19.46,-115.22,-44.2588,-27.5349,-23.0229,1011.95
71186,10.2009,2.60641,-1.37733,-5.39,18.62,-131.18,-44.975,-27.94,-24.2847,1011.95
71192,10.0861,2.56815,-1.49689,2.66,16.66,-145.18,-44.0296,-29.6474,-23.3915,1011.94
71198,9.95696,2.71162,-1.45385,11.13,16.45,-152.95,-44.2302,-30.3709,-25.0361,1011.94
71204,10.3109,3.25203,-1.40124,16.66,14.28,-161.56,-43.2275,-30.4288,-23.7318,1011.95
71210,10.7987,3.44333,-1.14778,23.31,10.64,-171.85,-42.4827,-31.268,-23.4624,1011.95
71216,10.9995,3.71114,-1.28168,30.66,3.22,-180.88,-41.2796,-32.1651,-23.831,1011.93
71222,6.36059,7.81444,0.932568,32.2,-32.97,-160.93,-41.566,-32.7149,-24.4832,1011.93
71228,10.1817,5.46628,-1.99426,35.28,-24.29,-171.29,-40.2769,-34.2487,-23.6184,1011.98
71234,12.5729,2.15686,-2.34816,37.59,-4.97,-212.59,-39.7613,-35.2037,-23.7034,1011.98
71240,11.7217,2.31946,-0.879962,42.14,6.79,-250.11,-38.4722,-36.014,-23.6184,1011.96
71246,10.3109,2.75944,-0.210426,53.69,25.62,-274.26,-37.355,-36.969,-22.5267,1011.96
71252,9.66523,3.51985,-0.157819,75.88,29.89,-291.34,-36.2664,-39.1104,-23.1789,1011.96
71258,9.3209,3.11334,-1.02822,98.84,18.06,-319.97,-35.2638,-40.2391,-23.0229,1011.96
71264,10.2965,2.57771,-4.66762,101.64,31.5,-352.94,-34.3757,-41.5702,-22.229,1011.96
71270,10.6456,2.49163,-5.24629,87.22,64.96,-372.75,-32.3132,-43.3355,-20.4569,1011.97
71276,10,2.99856,-4.33285,73.57,101.71,-383.39,-29.7923,-45.3323,-21.0523,1011.97
71282,8.68484,3.2616,-3.04161,50.33,130.06,-381.15,-28.2167,-46.5767,-21.4634,1011.93
71288,5.61932,4.87327,-1.88427,24.36,114.66,-373.24,-26.0109,-48.5735,-21.832,1011.93
71294,3.9933,5.83931,-0.726925,23.38,68.81,-364.91,-23.9484,-49.6731,-21.591,1012
71300,6.20756,6.33668,-3.29507,27.86,88.62,-360.15,-21.5134,-50.8596,-21.7328,1012
71306,6.6571,6.37016,-2.24773,24.85,98.77,-357.35,-19.5941,-52.2487,-21.8888,1012
71312,6.96317,6.74318,-1.72166,25.41,103.11,-352.8,-17.3597,-53.2616,-22.1723,1012
71318,6.87709,7.54184,-2.066,20.44,109.06,-342.86,-15.1825,-53.3484,-21.9596,1011.94
71324,6.28407,8.01052,-1.81731,15.19,114.03,-328.58,-13.5783,-55.2873,-21.6761,1011.94
71330,5.35151,7.99617,-1.62123,17.08,115.57,-319.69,-10.2553,-56.0108,-21.7753,1011.94
71336,3.97896,9.00526,-1.18125,16.73,101.64,-315.84,-8.67975,-56.0686,-22.4417,1011.94
71342,3.63941,9.50741,-0.784314,14,84.21,-321.79,-6.58854,-56.7921,-21.6903,1011.94
71348,3.60593,9.11525,0.11956,15.82,58.24,-335.37,-4.06764,-58.3259,-22.1723,1011.95
71354,3.71592,8.98135,-0.0573888,20.58,27.3,-357.77,-2.17697,-58.9046,-21.3926,1011.95
71360,3.80679,9.08656,-1.18604,14.63,7.56,-382.55,-0.14306,-57.6024,-22.2432,1011.94
71366,3.64897,9.05308,-1.85557,9.17,-0.49,-404.32,2.09137,-59.2809,-21.7895,1011.94
71372,3.04639,8.79962,-2.49163,-2.8,-10.92,-416.5,4.55498,-59.686,-21.8179,1011.94
71378,0.731707,8.08704,-0.879962,-14.49,-22.12,-426.93,7.24776,-59.9754,-21.8888,1011.94
71384,-0.569106,7.89096,-0.205643,-9.03,-38.22,-423.64,10.0551,-59.7728,-21.5485,1011.93
71390,-1.53993,7.94357,0.143472,-13.44,-44.31,-406.56,12.175,-59.8886,-22.8244,1011.93
71396,-2.17599,8.21138,-0.162602,-28,-45.78,-387.94,13.3781,-60.1201,-22.385,1011.93
71402,-2.39598,8.89048,-0.267814,-31.99,-41.23,-359.73,15.1542,-59.2809,-23.0087,1011.93
71408,-2.49641,10.2726,0.234338,-36.54,-44.87,-326.97,17.7038,-58.6153,-22.7252,1011.94
71414,-2.1186,10.6456,-0.157819,-38.99,-51.87,-302.4,20.4252,-58.0654,-22.4558,1011.94
71420,-1.80775,10.153,-0.210426,-33.46,-65.59,-276.78,21.1414,-58.268,-23.0513,1011.94
71426,-1.80296,10.5787,-0.0430416,-32.06,-77.42,-263.97,23.2899,-57.8629,-22.8953,1011.91
71432,-0.851267,10.0143,-0.291726,-34.79,-82.53,-255.78,24.7508,-57.5156,-23.349,1011.91
71438,-1.10473,9.25394,-0.325203,-30.38,-85.47,-247.52,25.467,-56.5027,-23.4057,1011.92
71444,-1.46341,9.39263,-0.631277,-32.2,-82.25,-233.52,26.3264,-56.2712,-25.2062,1011.92
71450,-1.72645,9.45002,-0.583453,-40.88,-72.94,-223.3,28.1598,-55.6346,-25.4614,1011.96
71456,-1.40603,8.86657,-0.593018,-48.16,-59.64,-217.63,28.6181,-54.3323,-24.3839,1011.96
71462,-1.64036,7.90531,-0.636059,-49.98,-45.92,-223.16,29.8213,-54.3902,-25.8867,1011.92
71468,-2.57293,7.18317,-0.468675,-51.1,-32.55,-234.08,30.8239,-53.4641,-26.8224,1011.92
71474,-3.13725,7.25012,-0.196078,-50.26,-24.78,-244.23,32.3995,-52.596,-26.95,1011.95
71480,-4.31851,7.02056,0.884744,-45.57,-22.75,-249.06,33.0297,-51.5252,-27.1485,1011.95
71486,-4.81109,6.96317,1.04735,-37.66,-21.84,-249.97,34.7485,-51.178,-27.8857,1011.94
71492,-5.51889,6.36537,1.17169,-26.95,-24.78,-240.59,35.9516,-49.7021,-27.5171,1011.94
71498,-5.83931,6.48972,1.05691,-18.55,-29.96,-228.48,36.8683,-49.6442,-27.7014,1011.94
71504,-6.48015,7.14491,1.0856,-12.25,-40.46,-213.64,37.6132,-49.3838,-28.6371,1011.94
71510,-6.77188,8.00574,1.033,-9.1,-49.28,-192.43,38.5298,-47.9947,-29.5444,1011.94
71516,-6.4945,8.2879,0.731707,-5.6,-52.29,-178.64,39.7043,-47.4738,-28.5095,1011.95
71522,-5.99235,8.24964,0.406504,-3.15,-52.15,-168.63,40.8216,-46.1426,-27.9707,1011.95
71528,-5.69106,8.32616,0.277379,1.4,-47.81,-161.84,40.9362,-46.7214,-29.5444,1011.99
71534,-5.25586,8.3692,0.181731,2.87,-45.92,-159.32,41.681,-45.2166,-29.1474,1011.99
71540,-4.00765,7.91965,-0.0286944,4.48,-40.46,-160.65,41.4231,-44.4641,-30.2674,1011.95
71546,-3.90244,8.04878,-0.435198,6.86,-33.25,-161.28,42.168,-43.9722,-29.8563,1011.95
71552,-3.8594,7.94835,-0.573888,6.72,-30.17,-163.8,42.569,-43.0461,-30.6928,1011.97
71558,-4.26112,7.91487,-0.607365,4.13,-30.8,-162.96,43.6289,-42.2937,-30.2674,1011.97
71564,-4.87327,7.5275,-0.406504,1.89,-32.62,-160.44,44.1446,-42.2358,-30.4801,1011.92
71570,-5.05021,7.35533,-0.181731,0.63,-34.44,-158.41,44.6316,-40.6731,-29.9555,1011.92
71576,-5.36585,7.3362,0.143472,0.42,-35.21,-155.4,45.5196,-40.3259,-31.033,1011.94
71582,-5.66236,7.25012,0.607365,5.46,-32.83,-152.81,45.5769,-40.4706,-30.9479,1011.94
71588,-5.82496,6.96317,0.750837,11.69,-26.46,-154.28,46.5222,-38.6474,-30.1966,1012.01
71594,-6.23625,7.06839,0.33955,17.22,-19.6,-153.37,47.2671,-38.5895,-31.3449,1012.01
71600,-6.55189,7.17838,0.210426,17.08,-11.83,-150.08,46.9806,-38.0976,-30.8204,1012.01
71606,-6.72405,7.24055,0.114778,11.41,-2.17,-145.95,47.4676,-36.8532,-30.2249,1011.95
71612,-6.80057,7.08752,0.200861,7.98,9.24,-142.1,47.6681,-36.5928,-31.515,1011.95
71618,-6.97274,7.10186,0.286944,7.63,14.84,-138.25,49.1004,-35.9561,-32.0821,1011.93
71624,-7.39837,7.58489,-0.0669536,4.55,17.71,-132.37,48.5848,-34.8854,-30.154,1011.93
71630,-8.09182,8.19703,-0.430416,1.61,24.92,-123.27,48.9572,-34.596,-31.5717,1011.95
71636,-7.54663,9.55045,0.559541,2.87,22.4,-111.02,49.9025,-33.2069,-31.0755,1011.95
71642,-6.81492,10.5452,0.234338,3.71,18.62,-99.26,50.7046,-33.4095,-31.7844,1011.95
71648,-6.51841,11.3199,-0.511717,-3.01,17.01,-87.78,50.2463,-32.3677,-29.9414,1011.95
71654,-6.25538,11.7217,-1.04735,-15.75,12.53,-84.63,51.3635,-32.194,-31.5009,1011.97
71660,-6.50885,11.3725,-1.69297,-31.43,11.69,-87.01,50.9911,-31.0654,-30.1399,1011.97
71666,-5.89192,8.73744,-0.148254,-33.88,6.65,-105.56,51.7359,-30.805,-29.5161,1011.98
71672,-6.88187,6.00669,-1.05691,-6.02,-143.78,-126.28,52.1943,-30.5445,-31.2173,1011.98
71678,-5.49498,7.20708,-1.32472,3.29,-164.15,-148.12,51.9651,-28.7793,-32.2948,1011.98
71684,-7.00143,8.28312,-1.17169,-2.24,-169.89,-154.56,51.5067,-28.895,-32.5925,1011.98
71690,-7.75227,7.97704,-0.769966,-1.82,-168.42,-158.27,51.4781,-27.9979,-33.8117,1011.98
71696,-7.92444,7.58489,0.573888,2.45,-165.9,-163.03,50.8192,-26.6667,-34.634,1011.97
71702,-7.76184,7.2836,0.760402,-0.84,-159.95,-170.66,49.788,-26.6088,-36.1651,1011.97
71708,-7.48924,6.41798,0.526064,-7.91,-147.7,-177.52,49.1864,-25.6249,-36.5054,1011.96
71714,-7.3649,6.7671,0.401722,-19.6,-126.14,-186.06,49.8452,-24.3516,-36.7606,1011.96
71720,-7.28838,6.36537,0.760402,-28.21,-101.15,-191.87,48.7853,-23.9175,-38.4477,1011.94
71726,-6.58058,6.07843,1.25299,-35.28,-61.95,-199.85,49.8166,-21.6603,-37.3844,1011.94
71732,-6.6858,6.31755,1.16691,-40.39,-30.45,-205.87,49.6734,-20.2712,-38.2917,1011.96
71738,-7.76662,7.06839,1.27212,-51.87,3.57,-205.31,49.1577,-19.6924,-37.8522,1011.96
71744,-8.53658,7.51793,1.01387,-66.22,40.46,-184.52,50.5041,-17.5799,-37.9089,1011.96
71750,-10.5356,7.8527,1.64515,-75.04,45.92,-154.42,50.6474,-16.3645,-37.3418,1011.96
71756,-10.7987,7.18317,2.31946,-69.16,28.91,-122.08,51.1916,-15.4384,-37.271,1011.93
71762,-8.59876,6.95839,2.43902,-67.55,47.6,-95.69,51.7359,-15.0911,-37.597,1011.93
71768,-7.69488,6.83883,2.62076,-66.57,80.43,-68.11,51.5927,-14.2809,-36.7322,1011.93
71774,-8.99091,5.7054,1.31994,-61.46,96.88,-38.78,52.3948,-14.5992,-36.4487,1011.93
71780,-9.93783,4.2946,0.93735,-44.94,87.22,-27.79,53.025,-14.0493,-36.4061,1011.93
71786,-9.39263,4.55763,1.26734,-33.11,61.95,-26.39,53.7412,-12.7471,-36.1226,1011.94
71792,-8.75179,4.6724,1.37733,-25.97,38.71,-27.02,53.2255,-13.9047,-36.1935,1011.94
71798,-8.76136,4.15112,1.13343,-21.7,16.03,-26.18,53.4547,-12.8339,-35.7398,1011.96
71804,-8.9957,4.63893,1.14778,-20.72,3.5,-19.32,53.6839,-12.9497,-35.9241,1011.96
71810,-9.54567,3.98374,1.6021,-15.61,-7.35,-18.48,53.6552,-12.5445,-35.6548,1011.95
71816,-9.68436,4.32807,2.16643,-14.56,-9.52,-20.3,53.1396,-12.3998,-35.8249,1011.95
71822,-10.0909,3.72071,2.76901,-6.93,-12.04,-26.04,53.1969,-11.3291,-36.9165,1011.95
71828,-11.3965,3.4768,3.13725,0.28,-25.55,-31.85,53.3974,-10.895,-35.357,1011.95
71834,-11.6404,3.25203,3.20421,13.09,-40.88,-46.27,52.9964,-11.5027,-36.9449,1011.93
71840,-11.0473,2.77857,2.53467,30.38,-77.49,-57.61,53.0537,-11.8789,-37.0016,1011.93
71846,-10.1769,3.42898,2.1473,35.91,-101.64,-72.59,52.8531,-11.358,-36.5196,1011.97
71852,-8.67049,4.38068,1.61645,29.68,-91.7,-88.34,52.2229,-11.1844,-37.9231,1011.97
71858,-10.5452,5.99713,0.602582,18.76,-58.31,-72.45,51.4781,-10.6346,-37.8947,1011.97
71864,-9.63654,5.52845,0.784314,-0.77,-14.84,-62.09,50.8765,-10.7503,-38.3909,1011.95
71870,0.97561,6.95839,-2.1999,-71.12,16.59,-107.59,51.4495,-9.94002,-38.2066,1011.95
71876,-1.66906,3.14682,-0.746054,-32.55,-62.58,-150.99,51.6786,-9.24549,-38.7595,1011.94
71882,-6.04495,5.1363,0.396939,-16.52,-70.28,-160.16,50.676,-8.23263,-39.0289,1011.94
71888,-7.83357,6.70014,1.01387,-34.72,-41.72,-145.04,51.1916,-7.10401,-38.0082,1011.95
71894,-9.41176,5.29412,1.32951,-44.38,-17.92,-130.76,51.163,-7.07507,-38.079,1011.95
71900,-10.0383,4.79675,1.72645,-41.3,-14.91,-112.63,50.7046,-5.36768,-39.0573,1011.95
71906,-9.21568,3.40029,1.41559,-28.63,-14.56,-113.54,50.6187,-4.84677,-39.0998,1011.95
71912,-9.5648,2.61597,1.6834,-20.44,-19.46,-115.43,50.2463,-4.18118,-39.2558,1011.94
71918,-9.4022,2.40555,2.3099,-21.77,-28.7,-97.02,50.2177,-3.54452,-40.2056,1011.94
71924,-7.73792,1.47776,2.11382,-16.73,-27.37,-75.74,50.7333,-2.41591,-39.0147,1011.98
71930,-6.84361,1.37255,1.38211,-16.45,-12.39,-52.43,49.8739,-2.61848,-39.114,1011.98
71936,-8.31181,0.803443,2.95552,-40.39,-15.05,-36.4,49.6161,-2.06864,-39.8228,1011.97
71942,-9.34003,2.95552,1.85557,-62.02,0.56,-21.42,49.5015,-0.997901,-39.5109,1011.97
71948,-9.85174,3.44333,2.2286,-75.81,14.77,-18.41,50.2463,-1.37411,-39.0714,1011.97
71954,-10.7126,3.56289,2.26208,-84.91,21.14,-34.23,49.9885,-0.18761,-38.9722,1011.95
71960,-11.2291,3.16117,2.16643,-86.45,25.83,-53.48,50.3322,-0.505937,-38.8588,1011.95
71966,-11.076,2.77857,1.73123,-76.72,36.96,-77.21,49.9025,0.449045,-39.114,1011.96
71972,-9.80392,0.37781,2.14252,-59.99,48.37,-108.36,51.163,0.998884,-38.7312,1011.96
71978,-9.34959,-0.133907,2.05643,-53.97,61.32,-138.46,50.8192,2.87991,-38.6887,1011.95
71984,-9.99522,1.10473,2.34816,-57.33,71.05,-159.53,50.5041,3.08249,-38.3909,1011.95
71990,-10.3252,1.83644,2.29555,-57.96,84.56,-168.77,51.1343,4.12429,-38.0365,1011.93
71996,-9.55045,2.79292,2.19512,-43.75,85.68,-168.35,50.9052,5.60017,-37.6112,1011.93
72002,-9.09134,3.75418,1.61645,-40.04,98.42,-168.35,50.5041,6.87348,-35.357,1011.93
72008,-10.0622,2.5825,2.53467,-33.53,75.6,-197.96,50.7619,7.82847,-36.4487,1011.93
72014,-9.44046,2.5538,1.74558,-40.53,74.76,-211.05,50.8192,8.78345,-36.2502,1011.97
72020,-9.61262,1.94644,2.68293,-71.33,89.67,-215.46,49.8739,10.1436,-35.598,1011.97
72026,-9.68436,1.7934,2.29077,-87.22,70.28,-208.53,50.1317,11.6484,-34.79,1011.97
72032,-9.60306,2.14252,1.44428,-90.51,58.8,-198.52,50.1317,13.5584,-34.0811,1011.97
72038,-9.4022,3.20899,1.37255,-90.79,31.71,-176.89,49.5874,14.9185,-34.79,1011.97
72044,-9.50741,2.64467,1.37733,-86.1,1.12,-157.71,49.7307,15.9024,-33.1596,1011.93
72050,-8.84266,0.903874,0.731707,-84.98,-18.27,-151.13,49.2723,16.3076,-33.273,1011.93
72056,-8.83309,-2.71162,1.15734,-108.92,-16.66,-156.03,48.8426,18.1018,-32.9327,1011.92
72062,-8.68006,-5.55715,0.846485,-129.15,-11.06,-183.33,48.4416,18.7674,-32.9611,1011.92
72068,-9.27307,-4.16069,0.81779,-146.93,-1.89,-190.75,47.6108,21.0246,-33.0887,1011.94
72074,-9.50741,-2.05165,0.368245,-156.24,9.52,-191.1,47.2957,22.5584,-32.0396,1011.94
72080,-9.35916,-0.631277,0.430416,-152.11,24.5,-176.4,45.978,23.3108,-31.9687,1011.96
72086,-9.18221,0.172166,0.583453,-139.23,35.14,-163.1,46.3504,25.3944,-31.5009,1011.96
72092,-9.12004,0.353898,0.707795,-117.74,52.57,-152.25,45.6056,26.1468,-30.7495,1011.98
72098,-9.73697,-0.277379,1.15256,-86.8,70.35,-147,45.7488,27.1018,-29.6578,1011.98
72104,-9.82783,-0.989957,0.793878,-63.42,83.93,-141.82,44.7175,28.3751,-30.7069,1011.99
72110,-9.54567,-1.62602,0.487805,-48.3,97.23,-155.47,45.2904,29.6195,-29.2467,1011.99
72116,-9.53611,-1.97991,0.487805,-40.81,112.49,-177.87,44.9467,30.4008,-28.3252,1011.99
72122,-10.0574,-1.7934,0.516499,-40.46,123.55,-191.73,43.7435,31.2111,-27.3611,1011.92
72128,-10.2056,-2.04208,0.411286,-34.86,129.5,-204.12,44.03,32.195,-26.3404,1011.92
72134,-10.2822,-2.1999,0.0095648,-27.23,123.48,-209.37,43.3998,33.4105,-26.7515,1011.97
72140,-9.98087,-2.48207,-0.157819,-14.28,116.48,-209.51,42.2253,34.5391,-26.3404,1011.97
72146,-9.64132,-2.49641,-0.468675,2.66,105,-201.53,42.2539,34.7416,-25.9292,1011.94
72152,-9.43089,-2.46294,-0.573888,22.61,86.94,-186.97,42.1393,35.6677,-26.0568,1011.94
72158,-9.18699,-2.70206,-0.545194,42.21,72.87,-170.87,41.595,36.8831,-24.8943,1011.98
72164,-8.65614,-3.20421,-0.487805,65.59,67.83,-158.2,39.9622,36.3622,-24.71,1011.98
72170,-9.42611,-2.6638,-0.463893,76.37,55.09,-126,39.3033,37.2883,-25.589,1011.96
72176,-8.0153,-3.40029,-0.683883,75.46,52.71,-106.26,38.6731,38.1275,-25.0786,1011.96
72182,-7.18795,-3.97417,0.0860832,69.93,56.77,-102.41,38.7877,37.5487,-26.1135,1011.96
72188,-6.85318,-4.21329,0.0621712,62.09,72.94,-96.46,38.6731,38.359,-26.1561,1011.96
72194,-7.47011,-4.11765,0.176949,47.81,76.3,-101.15,38.2147,38.6484,-26.071,1011.99
72200,-7.76662,-4.39024,-0.368245,28,75.18,-116.06,38.2147,38.359,-25.2629,1011.99
72206,-8.40268,-4.61023,-0.463893,21.42,75.6,-117.18,37.2121,38.9667,-25.9009,1011.99
72212,-8.59876,-5.33238,-0.755619,24.01,77.98,-113.89,37.1262,39.9796,-25.4614,1011.95
72218,-9.39742,-5.27499,-1.29603,29.82,71.61,-110.39,36.3241,40.7031,-25.1778,1011.95
72224,-9.65567,-5.36107,-1.6308,31.08,69.79,-108.43,35.8657,40.0953,-24.7667,1011.96
72230,-9.93304,-5.69106,-1.6308,28.56,70.63,-108.36,35.6652,40.8188,-25.8867,1011.96
72236,-10.1052,-5.55237,-1.64036,19.6,67.83,-104.79,34.9777,40.9346,-24.6108,1011.94
72242,-10.0191,-5.44715,-1.75514,2.8,64.05,-106.68,34.0896,42.5262,-24.5541,1011.94
72248,-9.86131,-5.37542,-1.61645,-7.7,69.58,-107.59,34.1469,41.3687,-24.5257,1011.95
72254,-10.8034,-5.04065,-1.78862,-10.85,76.93,-84.42,33.5453,43.0471,-23.746,1011.95
72260,-9.78479,-5.055,-1.76949,-18.83,79.1,-92.61,33.5167,43.568,-24.3414,1011.98
72266,-9.45481,-5.16021,-1.81731,-27.93,74.55,-117.25,33.574,42.9314,-23.3774,1011.98
72272,-9.11525,-5.868,-1.54472,-39.69,72.87,-153.93,32.8865,43.7995,-23.2923,1011.95
72278,-8.5605,-6.26973,-1.28647,-47.74,75.32,-208.6,31.1104,44.5809,-22.229,1011.95
72284,-8.62745,-5.99713,-0.918221,-38.64,84.84,-229.95,31.0244,45.0728,-21.8037,1011.93
72290,-9.27786,-5.29412,-0.626494,-26.74,82.53,-221.41,29.3343,46.3461,-22.2432,1011.93
72296,-8.67049,-5.868,-0.669536,-10.29,80.36,-207.9,29.2483,46.7802,-21.7045,1011.93
72302,-7.53228,-6.14538,-0.827355,4.9,86.87,-195.58,27.3863,47.0407,-21.5485,1011.95
72308,-7.69488,-7.2549,-0.607365,26.53,93.52,-181.02,26.8707,47.8799,-21.6619,1011.95
72314,-7.90053,-6.88187,-1.07126,31.57,92.61,-165.83,26.2405,48.5166,-21.2933,1011.98
72320,-8.14921,-6.81492,-1.38211,12.74,85.12,-164.92,25.3524,48.7191,-21.3358,1011.98
72326,-7.76184,-6.66188,-1.82688,-10.5,84.21,-164.29,24.7508,48.9796,-20.4285,1011.94
72332,-8.24486,-1.81253,-2.81205,-35.42,90.3,-131.04,23.8914,49.3269,-20.4994,1011.94
72338,-7.64706,-5.30846,-2.7164,-35.56,106.68,-112.84,23.4331,49.732,-20.2158,1011.91
72344,-6.45624,-8.85222,-1.6834,-15.82,103.67,-122.92,23.3471,50.3108,-20.4569,1011.91
72350,-6.79579,-8.8857,-2.989,10.99,96.6,-136.64,21.6856,50.5712,-20.0315,1011.96
72356,-7.34577,-7.64228,-3.16595,27.3,83.79,-128.31,21.5997,50.4555,-20.0883,1011.96
72362,-6.69536,-5.868,-2.79292,17.5,60.62,-102.83,21.3992,50.9185,-19.6488,1011.98
72368,-5.978,-7.06839,-2.38642,5.53,32.48,-88.06,20.9122,51.613,-20.6412,1011.98
72374,-5.32281,-8.3692,-2.3912,3.08,6.09,-84.7,20.196,50.9185,-19.9748,1011.98
72380,-5.43281,-7.92922,-2.15208,-8.96,-17.22,-82.39,20.3679,51.8156,-19.1242,1011.94
72386,-5.45672,-7.78096,-1.84601,-20.65,-35,-81.55,19.6231,50.7159,-19.9465,1011.94
72392,-5.28933,-7.58967,-1.78862,-30.1,-45.85,-81.76,19.0502,52.1629,-19.5495,1011.96
72398,-5.4615,-7.50359,-1.51602,-40.04,-50.4,-78.4,18.6491,51.9603,-19.9181,1011.96
72404,-5.7341,-7.57054,-1.44907,-45.29,-48.3,-75.04,17.2741,52.0182,-19.1667,1011.96
72410,-5.7341,-7.83357,-1.6834,-42.28,-33.6,-73.57,16.9876,52.105,-19.6771,1011.96
72416,-6.31755,-7.26447,-1.26255,-37.87,-25.13,-77,17.3887,52.9153,-18.5713,1011.94
72422,-6.82449,-7.07317,-1.15734,-35.14,-25.2,-83.51,16.2714,52.3365,-19.0391,1011.94
72428,-6.97752,-6.39407,-1.15256,-35.77,-24.5,-85.61,14.3808,51.5841,-19.8898,1011.99
72434,-6.37494,-6.72884,-1.25777,-33.95,-17.71,-86.52,14.6099,53.1179,-18.3019,1011.99
72440,-5.92539,-7.02535,-1.55428,-27.02,-9.8,-89.25,14.3521,53.2047,-19.1667,1011.95
72446,-5.60497,-7.70923,-2.32903,-14.56,3.36,-96.67,14.0943,53.2626,-17.4371,1011.95
72452,-5.38976,-8.30225,-2.99378,-3.43,21,-109.48,13.55,53.1179,-17.664,1011.96
72458,-5.39455,-9.0483,-3.16595,1.05,34.37,-127.82,12.3469,53.2336,-17.4371,1011.96
72464,-5.66236,-8.6131,-2.88379,3.99,44.66,-143.64,12.089,53.3783,-18.6138,1011.96
72470,-5.88235,-8.05356,-3.11334,0.98,54.32,-149.73,11.0864,53.8124,-17.9617,1011.96
72476,-6.20756,-7.90531,-2.97944,-3.01,57.82,-151.83,10.4848,54.2754,-17.8766,1011.96
72482,-5.90148,-7.98183,-2.88857,-3.36,61.25,-149.03,9.39626,54.2754,-18.0609,1011.94
72488,-5.53802,-7.934,-2.60163,0.91,61.18,-135.87,8.04986,54.3044,-17.2387,1011.94
72494,-4.81588,-7.76662,-2.84553,6.51,61.46,-128.8,7.99257,53.986,-17.7065,1011.94
72500,-4.02678,-6.62841,-2.70684,3.71,72.03,-126.91,6.87536,54.0439,-17.1536,1011.94
72506,-6.00669,-7.89574,-1.23864,9.24,72.31,-120.4,6.15919,54.5648,-17.6923,1011.95
72512,-5.05978,-8.81396,-2.18556,17.01,71.47,-115.99,5.75814,54.4201,-18.8123,1011.95
72518,2.97944,-7.64706,-2.88857,18.13,70.84,-134.12,4.49769,55.0568,-18.3161,1011.92
72524,-2.05643,-6.33668,-0.45911,27.79,86.87,-126,4.35446,54.5359,-18.628,1011.92
72530,-5.42324,-7.73792,-1.66906,33.6,70.84,-99.75,3.46641,55.2304,-17.6923,1011.94
72536,-2.48685,-9.56002,-2.80727,31.64,51.17,-94.5,3.66694,54.8252,-18.9824,1011.94
72542,-2.52989,-8.95744,-2.52989,27.02,27.23,-84.77,2.75025,54.2754,-18.628,1011.95
72548,-2.04687,-7.72836,-2.31946,20.37,8.82,-77.84,2.97942,54.1307,-19.9465,1011.95
72566,-2.81205,-13.0894,-3.02248,-21.56,-6.16,-93.38,1.60438,54.478,-19.9465,1011.95
72572,-3.31899,-12.2908,-3.88809,-67.83,-12.81,-109.2,0.257992,54.1886,-19.9607,1011.99
72578,-5.16021,-9.26351,-2.86944,-98.28,-26.95,-114.8,0.0574649,54.6806,-18.1318,1011.99
72584,-4.52893,-8.4505,-3.12291,-95.48,-30.17,-109.69,-0.887872,55.2883,-17.6781,1011.98
72590,-3.912,-7.89096,-3.5868,-67.76,-28.56,-97.44,-1.5181,55.1146,-17.5222,1011.98
72596,-4.19416,-8.64658,-3.76375,-32.06,-18.55,-83.65,-2.43479,54.9699,-17.8908,1011.99
72602,-3.71592,-8.64658,-3.82592,-20.37,-4.83,-79.31,-2.86449,55.5777,-17.1536,1011.99
72608,-3.6681,-8.52702,-3.64897,-18.34,9.03,-82.74,-2.66396,55.6645,-15.7784,1012
72614,-3.68723,-8.27355,-4.48589,-9.87,31.57,-82.46,-3.95306,55.433,-17.423,1012
72620,-3.25681,-8.58919,-4.26112,11.69,51.8,-76.86,-3.95306,55.4619,-16.6574,1011.93
72626,-3.10378,-8.54615,-4.30416,33.39,66.29,-70.56,-4.29682,55.1436,-17.0543,1011.93
72632,-2.85988,-8.60354,-3.63462,38.92,70.49,-71.68,-5.90103,54.6227,-17.2812,1011.96
72638,-2.879,-6.19321,-4.18938,17.78,70.49,-68.39,-4.52599,55.2883,-17.8057,1011.96
72644,-2.67814,-7.21664,-2.58728,3.29,54.88,-72.87,-4.95569,54.8542,-18.2452,1011.96
72650,-2.27164,-8.2592,-1.10952,-1.68,29.26,-83.02,-5.52862,55.0568,-17.749,1011.94
72656,-2.02774,-7.85748,-1.76471,-5.88,11.06,-89.25,-5.92967,55.1725,-16.7283,1011.94
72662,-1.42037,-7.14012,-3.4242,-22.89,-4.76,-109.06,-6.64584,54.3912,-18.1035,1011.93
72668,-1.58297,-7.58967,-4.12243,-45.22,-9.24,-135.59,-7.01824,54.9121,-17.5222,1011.93
72674,-1.3582,-7.79053,-3.61071,-57.54,-2.66,-152.18,-8.53651,55.4908,-17.1252,1011.99
72680,-1.64036,-9.44046,-2.04208,-52.99,-4.62,-183.12,-10.0834,55.2304,-16.9976,1011.99
72686,-1.95122,-11.1908,-1.09995,-43.33,-10.64,-209.16,-10.284,55.1436,-16.4164,1011.96
72692,-0.755619,-11.0139,-2.1999,-38.92,-4.34,-222.39,-12.146,55.1725,-16.9409,1011.96
72698,-0.382592,-11.2052,-2.60641,-21.42,4.13,-236.39,-13.9221,54.8542,-16.7566,1011.99
72704,-0.569106,-12.219,-2.25729,7.28,1.82,-247.1,-14.982,55.1725,-16.2888,1011.99
72710,0.71736,-11.186,-2.46772,26.46,2.45,-245.14,-16.2711,54.3912,-16.3455,1011.94
72716,1.07604,-9.45959,-2.91248,23.66,7.14,-233.24,-17.3597,54.0439,-16.8275,1011.94
72722,0.5978,-10.1339,-2.91248,47.39,17.29,-209.37,-19.193,53.8124,-15.9485,1011.94
72728,-0.37781,-10.7795,-2.00861,118.02,22.4,-179.97,-20.2816,53.5519,-17.7065,1011.92
72734,-1.24342,-9.88044,-1.93209,146.58,16.1,-172.27,-21.5134,53.06,-18.2594,1011.92
72740,-0.45911,-9.03874,-4.17025,139.58,17.43,-169.68,-21.6567,51.6998,-18.8832,1011.94
72746,1.20995,-7.16882,-5.80583,98.98,29.54,-154.98,-22.5161,51.5841,-19.2518,1011.94
72752,3.03682,-10.1722,-4.31851,80.22,32.9,-166.6,-23.2036,50.7159,-19.5637,1011.94
72758,4.93544,-11.4347,-3.29029,80.36,18.2,-205.31,-24.6932,50.8027,-20.4285,1011.94
72764,5.84888,-14.5863,-0.0765184,119.7,8.68,-268.59,-26.1255,50.3976,-20.8538,1011.94
72770,4.48111,-12.6734,0.353898,150.29,-11.69,-302.75,-27.4719,48.6034,-22.1014,1011.94
72776,3.84027,-9.78479,-0.674318,143.64,-6.09,-299.32,-29.4485,46.0857,-21.832,1011.96
72782,2.59684,-9.89957,-0.803443,131.74,1.75,-287.21,-29.8496,45.8542,-22.0447,1011.96
72788,2.41511,-9.3209,-1.58776,98.98,-4.41,-310.45,-30.9954,44.3494,-23.8736,1011.96
72794,3.03682,-10.5069,-4.19416,55.16,2.03,-342.86,-32.2272,43.568,-23.9586,1011.96
72800,3.78766,-8.25442,-3.75897,27.86,-0.35,-372.05,-34.5476,41.8896,-22.8812,1011.95
72806,3.90722,-9.89,-2.05643,12.88,-10.15,-389.13,-35.9227,41.3108,-23.6325,1011.95
72812,3.97417,-11.4682,-1.05691,13.58,-2.59,-398.37,-37.269,40.3269,-23.1789,1011.95
72818,4.41894,-10.3443,-1.6834,7.84,18.9,-408.45,-38.9019,37.896,-23.5758,1011.93
72824,4.71066,-9.47872,-2.53467,-5.39,40.67,-405.51,-39.8759,36.449,-23.4908,1011.93
72830,4.65328,-10.593,-1.7934,0,51.38,-384.37,-41.079,34.7706,-23.5758,1011.96
72836,5.45194,-9.39742,-1.92252,2.24,65.1,-358.19,-42.5973,33.0632,-24.2705,1011.96
72842,5.14108,-8.6131,-2.02296,-7.56,66.15,-333.83,-43.2275,31.4137,-24.4973,1011.93
72848,5.6528,-9.96652,-2.09469,-0.42,68.67,-320.81,-43.8864,30.4876,-24.3981,1011.93
72854,5.44715,-9.89957,-1.54472,19.04,62.72,-312.69,-44.4307,29.2143,-24.3414,1011.94
72860,5.36585,-10.33,-1.02343,54.11,48.44,-313.53,-44.8031,27.8542,-25.0503,1011.94
72866,5.5428,-10.33,-1.24342,80.85,40.67,-326.34,-45.6911,26.6098,-25.4897,1011.97
72872,6.12625,-8.90005,-1.06648,100.87,26.6,-339.5,-46.0922,24.1211,-25.7024,1011.97
72878,6.17886,-7.43185,-3.13247,77.28,21.28,-371.63,-46.923,22.24,-26.4113,1011.94
72884,6.59015,-6.59015,-1.85079,70.77,5.04,-388.36,-47.7251,20.2433,-26.3829,1011.94
72890,6.91535,-6.52319,-2.38164,66.92,3.08,-382.48,-48.4985,18.8253,-26.1986,1011.96
72896,5.78192,-5.05978,-0.712578,53.9,0.77,-366.45,-48.785,16.6548,-25.4897,1011.96
72902,5.72932,-4.58154,-0.985174,50.68,3.92,-331.52,-49.3293,14.7449,-26.1844,1011.96
72908,6.2219,-4.60545,-1.06648,42.07,12.6,-301.98,-49.5011,13.2111,-27.347,1011.98
72914,6.58058,-5.50933,-0.903874,43.68,28.21,-273.21,-49.9308,10.5777,-25.8725,1011.98
72920,6.98709,-4.39503,-1.13821,34.93,31.71,-262.29,-50.8762,9.91207,-25.6741,1011.95
72926,7.47489,-6.40842,-0.0047824,42.21,31.71,-265.72,-49.6157,8.72557,-27.1059,1011.95
72932,7.23099,-4.95935,-0.81779,48.09,24.08,-271.46,-50.2746,7.36544,-26.4113,1011.99
72938,7.72836,-5.7054,-1.18604,56.42,26.88,-276.71,-51.0194,4.67413,-27.0492,1011.99
72944,8.03921,-4.75849,-0.306074,64.89,28.28,-270.13,-49.5584,4.09535,-26.7515,1011.94
72950,8.67049,-4.54328,-0.454328,67.41,35.56,-260.4,-50.246,2.61946,-26.2553,1011.94
72956,9.17264,-4.60067,-0.387374,63.98,41.65,-249.62,-49.7303,0.825252,-28.3535,1011.95
72962,9.4835,-4.31851,-0.612147,57.19,46.41,-244.37,-49.5871,-0.274427,-28.0558,1011.95
72968,9.74653,-4.62936,-0.789096,53.27,49.35,-250.53,-49.7876,-1.72137,-27.8148,1011.95
72974,9.90435,-4.71066,-0.272597,60.34,47.46,-256.41,-48.8423,-2.15545,-27.0918,1011.95
72980,9.90913,-3.71592,-0.549976,69.51,41.16,-264.39,-49.3006,-4.84677,-29.1191,1011.96
72986,9.70349,-3.36203,-0.511717,99.47,27.23,-257.53,-48.8709,-5.686,-28.1976,1011.96
72992,9.09613,-3.25681,-0.0573888,120.33,3.29,-257.67,-48.298,-7.33552,-29.3885,1011.96
72998,8.16834,-2.15208,-0.69823,121.1,-21.14,-271.11,-48.4126,-9.27443,-28.6371,1011.96
73004,7.64706,-1.28168,-0.841702,100.8,-33.74,-282.73,-48.5558,-10.7214,-27.6447,1011.96
73010,7.56097,0.0860832,-0.45911,89.18,-37.52,-272.09,-47.6964,-12.1104,-28.1692,1011.95
73016,7.20708,0.913438,-0.0286944,75.25,-42.56,-249.34,-47.5818,-14.1072,-26.7515,1011.95
73022,7.25968,2.00861,0.172166,68.95,-44.66,-207.06,-48.2693,-15.0911,-26.2553,1011.95
73028,7.91487,1.29125,0.865614,68.53,-50.4,-167.86,-47.1521,-16.4223,-25.4047,1011.95
73034,8.4792,1.24342,0.492587,45.99,-52.64,-144.48,-46.5505,-17.2037,-25.589,1011.96
73040,9.85174,0.320421,-0.621712,26.32,-42.07,-132.72,-46.7797,-18.2744,-25.1353,1011.96
73046,10.2391,-1.20516,-0.511717,25.62,-33.81,-136.01,-46.4933,-18.3323,-25.3763,1011.95
73052,10.1148,-1.20516,-0.83692,19.04,-24.92,-154.07,-47.1521,-19.8082,-25.0503,1011.95
73058,10.2343,-1.27212,-1.00909,11.2,-12.67,-182.07,-46.923,-21.1394,-25.192,1011.96
73064,10.3061,-1.51602,-1.23386,15.33,4.69,-206.99,-45.376,-21.7471,-25.2487,1011.96
73070,9.7561,-1.65949,-0.889526,32.27,16.52,-233.45,-45.376,-23.5992,-23.8736,1011.96
73076,9.24438,-1.06648,-0.664754,32.9,16.87,-257.25,-44.9463,-24.3516,-24.951,1011.93
73082,9.09613,0.334768,-0.946915,19.67,18.69,-269.78,-44.1442,-25.567,-25.9434,1011.93
73088,9.03874,1.27212,-1.21951,-8.33,22.54,-276.92,-42.8838,-26.9272,-25.1353,1011.96
73094,9.01961,2.10904,-1.77427,-38.43,33.39,-271.6,-42.3108,-28.6056,-25.2487,1011.96
73100,8.87135,3.34768,-2.00861,-68.95,42.84,-255.92,-42.053,-29.8789,-25.1211,1011.96
73106,8.99091,4.48111,-1.56863,-93.73,40.25,-235.76,-40.4488,-30.5735,-25.6599,1011.96
73112,8.85701,3.40507,-0.0669536,-93.38,30.1,-225.82,-40.7926,-31.4995,-25.9434,1011.95
73118,8.69919,5.2176,-0.306074,-102.62,27.37,-224.21,-39.1024,-32.0493,-26.071,1011.95
73124,8.68484,5.76279,-0.0621712,-111.51,25.62,-208.39,-38.6154,-32.3677,-26.8791,1011.98
73130,8.61789,7.14012,1.45863,-109.97,13.02,-170.87,-38.0998,-32.5992,-27.2335,1011.98
73136,8.16356,6.38929,3.85461,-100.73,6.23,-152.88,-37.3263,-33.3227,-27.6305,1011.98
73142,8.41702,4.68197,3.2329,-64.75,-18.41,-120.19,-37.4123,-32.9754,-27.4887,1011.98
73148,8.85222,5.69584,-0.765184,-30.87,-12.53,-65.59,-37.0399,-33.5542,-28.8923,1011.99
73154,7.82401,5.82018,1.76949,-44.59,-8.26,-62.65,-36.5529,-34.7117,-28.6371,1011.99
73160,7.53706,4.84935,1.18604,-30.8,-18.06,-66.22,-35.6362,-33.5831,-28.4244,1011.99
73166,10.483,3.02248,-0.191296,-11.76,-6.65,-52.57,-35.6362,-33.4384,-27.7156,1011.96
73172,12.0086,3.99809,-1.32951,-25.62,6.3,-58.38,-35.6362,-33.7857,-28.708,1011.96
73178,10.8321,2.89813,-0.879962,-32.27,21.21,-82.11,-35.2638,-33.9304,-28.3819,1011.94
73184,10.4926,2.43902,-1.36777,-52.85,48.79,-111.02,-35.1778,-34.7696,-28.7221,1011.94
73190,10.1483,2.56337,-2.07556,-65.52,50.4,-111.72,-35.006,-35.3484,-29.1049,1011.97
73196,8.86657,2.02296,-1.85557,-73.43,65.94,-133.49,-34.032,-35.1458,-29.2325,1011.97
73202,7.96748,2.09947,-1.32472,-81.97,77.21,-174.51,-33.9747,-35.6667,-29.1333,1011.94
73208,7.72358,0.813008,0.129125,-80.5,75.67,-182.63,-33.1726,-35.7825,-30.4092,1011.94
73214,6.94883,1.79818,0.813008,-72.66,68.6,-208.25,-31.8835,-36.1876,-31.2173,1011.93
73220,6.55667,2.13773,0.564323,-74.9,60.41,-234.64,-30.6517,-36.5349,-31.8411,1011.93
73226,6.59971,2.7451,0.10043,-65.73,62.16,-230.02,-29.5345,-37.6635,-32.5216,1011.96
73232,6.0593,3.12291,0.913438,-54.88,59.15,-232.75,-28.0448,-38.3291,-32.6067,1011.96
73238,5.67671,3.48159,1.52559,-43.05,47.81,-241.15,-26.7844,-39.7182,-32.2381,1011.94
73244,6.04495,3.70636,0.521282,2.52,59.71,-215.88,-26.0969,-39.805,-33.2588,1011.94
73250,5.42802,4.17982,2.45337,21.07,56.07,-209.23,-24.951,-40.2969,-33.2163,1011.94
73256,5.24629,7.45098,2.69727,35.7,48.16,-176.26,-23.7765,-41.2809,-32.4507,1011.93
73262,5.05978,9.41655,2.1473,29.19,43.68,-136.43,-23.0603,-42.4384,-33.9535,1011.93
73268,5.40411,9.34481,2.13295,19.18,35.84,-100.17,-21.5994,-41.8596,-33.2588,1011.93
73274,5.59541,8.46007,2.58728,19.11,23.87,-77.91,-21.9431,-43.0751,-33.3155,1011.93
73280,5.68627,7.45576,2.48207,33.74,10.01,-63.7,-21.628,-43.104,-32.1672,1011.94
73286,5.72932,7.08752,2.15686,48.02,-1.68,-56.35,-22.0291,-43.4223,-32.6917,1011.94
73292,5.63367,6.59971,1.7934,58.45,-11.27,-56.63,-20.6254,-43.2487,-33.1312,1011.95
73298,5.98757,4.99761,1.8747,70.98,-25.06,-68.67,-20.8259,-44.2616,-31.9545,1011.95
73304,6.54232,4.69632,1.56384,77.56,-35.91,-89.95,-20.167,-44.8982,-32.1105,1011.94
73310,6.77666,4.43807,1.29603,83.79,-45.92,-117.6,-19.7087,-45.3612,-31.7986,1011.94
73316,6.73362,4.40937,0.61693,89.39,-57.61,-150.5,-19.7946,-45.7953,-30.8629,1011.95
73322,6.28886,4.64371,0.334768,81.48,-74.34,-193.27,-18.7633,-47.0686,-30.2533,1011.95
73328,5.66236,5.94452,-0.344333,66.71,-88.2,-223.16,-18.5915,-47.4159,-30.5226,1011.96
73334,5.24629,7.38403,-0.95648,47.53,-93.45,-229.95,-17.3024,-48.4577,-31.274,1011.96
73340,4.77762,9.80392,-0.559541,32.97,-95.41,-210.98,-17.0159,-49.9046,-28.708,1011.96
73346,5.055,11.3869,-0.612147,25.76,-87.92,-173.6,-16.4143,-49.5285,-29.3318,1011.99
73352,5.65758,12.7451,-1.08082,19.46,-67.2,-117.88,-15.2398,-50.1362,-29.0057,1011.99
73358,6.54711,13.1994,-0.664754,13.09,-48.93,-61.67,-14.8674,-50.2809,-28.2826,1011.95
73364,7.22142,12.506,-0.11956,9.73,-36.96,-20.3,-15.4117,-50.0204,-28.5237,1011.95
73370,7.38881,10.0717,0.267814,16.1,-23.94,9.24,-14.5809,-50.7149,-29.2183,1011.92
73376,7.28838,8.6944,1.16691,23.1,-22.68,16.52,-14.9247,-50.7728,-28.1551,1011.92
73382,7.38881,8.52702,0.889526,19.88,-19.6,20.86,-14.9534,-50.4834,-28.1267,1011.93
73388,6.95839,8.36442,-0.210426,3.36,-16.52,24.64,-15.1252,-50.5413,-28.1976,1011.93
73394,6.59493,7.8527,-0.765184,-3.15,-15.61,23.52,-15.956,-49.1233,-29.3318,1011.93
73400,6.39885,7.36011,-1.0043,-0.7,-15.12,19.53,-15.383,-50.0783,-27.7581,1011.93
73406,6.51363,6.45146,-0.468675,10.57,-16.87,5.6,-15.5836,-50.1651,-28.4669,1011.93
73412,7.11621,5.89192,-0.0047824,34.93,-17.01,-16.24,-15.4976,-50.2519,-28.0558,1011.93
73418,7.46054,6.32233,-0.11956,41.58,-16.94,-32.34,-16.0419,-50.3966,-28.4102,1011.93
73424,7.8814,6.55667,-0.966045,33.25,-16.45,-51.45,-15.469,-50.5992,-28.0983,1011.95
73430,7.43663,6.70014,-1.61645,22.12,-17.43,-67.48,-15.7268,-50.2809,-27.2335,1011.95
73436,6.97274,6.94404,-1.40603,11.83,-19.32,-76.72,-15.0106,-50.9754,-27.8857,1011.98
73442,6.76231,7.25012,-0.583453,5.11,-19.11,-81.83,-15.0679,-51.0911,-26.6097,1011.98
73448,6.7671,7.42229,-0.368245,0,-19.18,-83.86,-14.2085,-51.178,-27.3044,1011.96
73454,6.65232,7.7714,-0.554758,-4.83,-16.1,-83.93,-13.7788,-51.3227,-27.8006,1011.96
73460,5.94452,8.10617,-0.387374,-8.47,-15.26,-78.33,-13.3205,-51.2648,-28.2259,1011.95
73466,5.53802,8.41702,-0.387374,-9.94,-13.93,-69.3,-12.8908,-51.3516,-27.9424,1011.95
73472,5.35629,8.50311,-0.344333,-12.25,-13.72,-59.71,-12.8335,-51.8146,-27.914,1011.95
73478,5.49498,8.48876,-0.396939,-15.68,-10.57,-45.85,-12.1746,-52.3645,-26.7657,1011.95
73484,5.31803,8.22573,-0.25825,-18.34,-12.25,-35.7,-12.2606,-52.1908,-27.432,1011.98
73490,4.3472,7.96748,-0.726925,-18.2,-11.69,-29.19,-11.0861,-52.5381,-27.1201,1011.98
73496,5.17934,8.00096,-0.650406,-25.06,-10.85,-18.13,-12.2033,-52.1908,-28.1125,1011.97
73502,5.59541,7.72358,-0.0430416,-23.94,-12.74,-9.73,-11.7449,-51.7567,-28.0842,1011.97
73508,5.31325,8.11095,-0.296509,-26.67,-10.57,1.54,-11.6017,-52.2776,-27.9282,1011.97
73514,5.19369,7.98183,-0.722142,-37.03,-8.47,9.87,-11.659,-51.9593,-27.347,1011.95
73520,5.15064,7.50359,-0.416069,-37.45,-9.17,6.3,-12.547,-52.567,-28.8639,1011.95
73526,6.24103,6.81014,0.344333,-20.79,-5.6,-7.98,-12.2033,-51.0043,-28.4102,1011.97
73532,6.27929,6.60449,-0.349115,-5.46,-2.66,-20.93,-11.4585,-51.1201,-27.9707,1011.97
73538,5.93018,6.58536,-0.612147,12.67,2.94,-30.52,-11.7736,-51.4674,-28.708,1011.98
73544,6.25538,6.94883,-0.95648,21.56,10.08,-46.76,-11.8022,-52.3934,-28.5662,1011.98
73550,6.04495,7.08752,-0.502152,23.24,12.25,-64.89,-11.2866,-52.5092,-28.5804,1011.99
73556,5.77714,7.74749,-0.344333,22.61,12.6,-76.23,-10.2267,-52.596,-28.2118,1011.99
73562,5.1889,8.48398,-0.468675,17.36,8.47,-79.24,-10.0548,-52.4802,-28.0275,1011.96
73568,5.00717,9.13438,-0.83692,4.06,5.25,-75.04,-9.42456,-53.1458,-28.3819,1011.96
73574,4.46676,10.2487,-0.196078,-13.09,0.84,-60.06,-9.85426,-53.4063,-28.2968,1011.95
73580,4.03635,11.033,0.167384,-25.27,-0.07,-35,-8.6511,-53.1458,-28.0558,1011.95
73586,4.11286,11.186,0.755619,-25.83,0.14,-6.16,-8.90892,-53.0011,-28.0416,1011.96
73592,4.40937,10.8991,1.02343,-21.7,-2.1,19.04,-9.42456,-52.567,-29.431,1011.96
73598,4.63893,10.3109,0.999522,-13.23,-4.48,37.03,-9.10945,-52.4223,-28.07,1011.96
73604,4.68675,9.48828,0.435198,-6.09,-3.01,48.02,-9.71102,-52.8854,-28.552,1011.96
73610,4.51459,8.74223,0.325203,1.19,-4.48,52.78,-9.5105,-52.5381,-28.2826,1011.96
73616,5.15064,7.9627,0.0908656,4.13,-8.82,52.71,-9.59644,-53.2326,-29.2609,1011.95
73622,6.29842,7.30751,0.095648,4.48,-7.07,38.57,-10.2553,-52.1619,-28.6513,1011.95
73628,6.78144,6.98709,-0.0047824,6.44,-5.81,9.8,-10.7137,-52.1908,-28.2968,1011.94
73634,7.02056,6.78623,-0.392157,10.36,-6.23,-29.26,-10.2267,-52.2487,-28.311,1011.94
73640,6.88187,7.04448,-1.09517,11.41,-9.45,-64.47,-10.2267,-52.567,-29.4877,1011.97
73646,6.57102,7.33142,-1.58297,7.07,-13.65,-90.79,-10.0261,-52.2198,-27.914,1011.97
73652,6.1406,7.43663,-1.86035,-8.54,-12.46,-113.82,-9.28132,-53.1169,-28.7647,1011.96
73658,5.36107,7.3649,-1.55428,-26.74,-12.39,-130.06,-9.05215,-53.2616,-29.4877,1011.96
73664,4.97848,7.45098,-1.23386,-40.53,-12.88,-137.06,-7.19012,-53.2037,-29.3885,1011.94
73670,5.0263,7.71401,-0.93735,-54.39,-11.2,-137.55,-7.76305,-53.2616,-28.2259,1011.94
73676,4.30894,7.96748,-0.61693,-63.77,-8.33,-129.15,-6.38802,-53.4352,-29.6153,1011.92
73682,3.9933,8.14921,-0.143472,-65.8,-6.93,-118.02,-6.15885,-52.8564,-30.2958,1011.92
73688,3.29507,8.54137,0.564323,-65.45,-6.72,-100.45,-5.84373,-53.2326,-30.3809,1011.92
73694,2.85509,8.50789,0.784314,-59.43,-6.02,-79.24,-5.21351,-53.551,-29.7854,1011.94
73700,2.61119,8.50789,0.899091,-49.14,-3.71,-61.6,-5.04163,-53.7535,-31.4441,1011.94
73706,2.52989,8.56528,1.28168,-33.46,-2.1,-42,-4.21088,-53.0011,-30.9763,1011.97
73712,2.68771,8.78049,1.42037,-13.09,-1.54,-21.35,-3.63794,-52.7985,-30.2391,1011.97
73718,3.43855,8.92874,1.36298,5.04,5.32,-6.58,-4.21088,-53.2326,-31.4441,1011.93
73724,3.77331,8.98135,1.47298,23.73,8.89,2.17,-3.72389,-52.7696,-30.1966,1011.93
73730,4.24199,8.81875,1.07604,36.05,10.43,4.48,-3.69524,-53.3194,-30.8771,1011.94
73736,4.83501,8.94309,0.468675,40.6,13.16,5.67,-4.12494,-53.2326,-30.2107,1011.94
73742,5.39933,8.83788,0.0143472,37.45,16.59,2.45,-4.06764,-53.4352,-30.3383,1011.95
73748,4.38546,8.85701,-0.765184,30.87,-11.2,-42.07,-3.89576,-53.8693,-29.6153,1011.95
73754,5.09326,8.7757,-2.24773,30.17,-19.88,-84.7,-2.92178,-54.5928,-30.636,1011.95
73760,6.91057,9.64132,-1.64036,0.98,16.94,-93.17,-3.52336,-54.3323,-30.4517,1011.95
73766,5.68149,9.56958,0.210426,-35.63,28,-85.05,-2.54937,-54.3323,-30.4092,1011.95
73772,4.53372,9.05308,0.320421,-48.16,16.24,-92.19,-2.7499,-54.0719,-30.3242,1011.95
73778,4.1846,8.6418,-0.726925,-43.68,14.49,-103.6,-0.945166,-54.0429,-30.9479,1011.95
73784,4.4572,8.16834,-1.10473,-38.64,24.5,-113.05,-1.28892,-54.3612,-31.2031,1011.98
73790,4.11765,7.46054,-0.315638,-27.65,29.82,-117.88,0.000171967,-54.2166,-31.1181,1011.98
73796,4.00765,7.47011,-0.200861,-13.58,35.91,-121.31,0.172052,-54.1297,-30.5793,1011.95
73802,3.41942,7.73314,0.583453,5.46,39.62,-116.2,1.89085,-53.6378,-31.7844,1011.95
73808,3.11812,8.52702,0.487805,16.87,43.47,-108.57,2.14867,-54.4481,-31.3591,1011.96
73814,2.61597,8.82353,0.985174,27.3,43.19,-97.09,3.32318,-54.94,-30.8062,1011.96
73820,2.18556,9.44046,1.07126,33.67,40.04,-85.12,4.06799,-54.7953,-30.4801,1011.96
73826,1.78384,9.49785,1.08082,38.08,34.09,-73.22,4.58363,-55.3741,-30.3383,1011.96
73832,1.69775,9.58871,0.97561,43.68,27.37,-56.42,4.95603,-55.403,-30.3809,1011.99
73838,1.72645,9.93304,0.71736,47.11,24.22,-43.96,5.50032,-55.2005,-29.7712,1011.99
73844,1.73123,10.1626,0.707795,47.88,22.89,-33.67,5.38573,-55.3741,-29.3034,1011.98
73850,0.186514,15.1937,-1.07604,-10.78,13.65,-15.12,6.13054,-55.9239,-30.2816,1011.98
73856,1.20995,9.5648,-0.143472,-1.05,-0.35,12.88,6.27378,-56.0976,-30.069,1011.98
73862,2.65423,8.64658,1.61167,1.26,-3.99,25.9,6.4743,-56.0397,-29.5161,1011.94
73868,2.83596,8.30703,1.90818,2.87,-7.14,33.53,5.90137,-55.4609,-30.31,1011.94
73874,3.48159,8.62745,-0.396939,18.06,13.58,30.45,5.93002,-55.6635,-29.7145,1011.97
73880,4.38546,10.5356,-0.234338,8.4,33.74,25.97,5.75814,-55.9239,-29.0766,1011.97
73886,3.95504,10.0287,0.291726,17.22,41.16,22.26,5.87273,-55.8371,-29.5019,1011.97
73892,3.48159,10.77,0.095648,14.98,44.73,16.94,6.58889,-55.5477,-29.7287,1011.97
73898,3.18508,10.1291,-0.129125,6.23,44.87,4.83,5.87273,-56.5027,-29.3176,1011.98
73904,3.60115,11.0043,-0.263032,1.19,47.25,-22.26,6.61754,-56.7921,-28.3535,1011.98
73910,3.22334,10.3587,-0.0286944,11.83,32.83,-41.44,6.78942,-56.0397,-29.3034,1011.98
73916,3.1803,10.4352,-0.334768,12.25,27.79,-52.78,7.04723,-56.5027,-29.0907,1011.98
73922,2.5538,10.1387,-0.5978,6.23,17.01,-64.75,7.39099,-56.2423,-28.6796,1011.98
73928,2.62554,9.87566,-0.492587,-3.22,10.99,-67.76,7.24776,-56.5895,-29.0199,1011.98
73934,3.01769,9.31612,-0.444763,-12.39,10.43,-64.47,8.45092,-56.8211,-29.2183,1011.98
73940,2.96987,9.22525,-0.683883,-22.96,16.31,-61.32,8.39363,-57.0526,-29.1333,1011.98
73946,2.54902,8.06791,-0.133907,-5.25,17.22,-53.55,8.93791,-56.1844,-30.2816,1011.98
73952,2.88379,9.36394,0.45911,-1.82,25.55,-43.47,9.25302,-56.85,-29.3885,1011.95
73958,2.77857,9.97609,0.793878,8.89,24.64,-36.68,10.0551,-56.6474,-30.069,1011.95
73964,3.04161,10.6839,0.530846,18.55,21.35,-38.08,9.65408,-56.6474,-29.8421,1012
73970,2.16643,10.3204,-0.095648,25.34,7,-34.02,10.1411,-56.85,-30.2816,1012
73976,2.77857,10.2152,0.416069,26.74,5.32,-46.97,10.4275,-56.6474,-28.9631,1011.96
73982,2.85031,14.7537,-0.0095648,-53.48,3.78,-101.08,10.4275,-57.2262,-28.6513,1011.96
73988,1.05213,10.966,-0.530846,-38.85,-17.08,-101.08,11.0291,-57.0236,-29.2467,1011.95
73994,2.3912,9.35437,-0.143472,-24.78,-5.04,-91.63,11.5448,-56.5895,-29.3176,1011.95
74000,2.59684,8.88092,1.53037,-14.63,1.68,-87.01,12.2036,-56.9079,-29.5586,1011.98
74006,1.96557,9.2396,0.181731,-24.36,3.92,-88.2,13.2349,-56.8211,-29.0907,1011.98
74012,1.21473,8.78049,-0.267814,-27.3,4.2,-82.53,12.9771,-56.3002,-29.7429,1011.97
74018,1.09995,8.50311,-0.382592,-23.59,4.55,-73.99,13.4068,-56.387,-29.5444,1011.97
74024,0.741272,8.71353,0.612147,-19.81,1.68,-66.92,14.037,-56.387,-29.1049,1011.97
74030,0.430416,8.52224,0.559541,-14.91,1.75,-57.82,14.1229,-56.5895,-29.6436,1011.96
74036,0.387374,9.45959,0.750837,-13.09,-0.28,-46.69,15.1542,-55.6635,-30.0406,1011.96
74042,0.047824,9.89479,0.970827,-14.07,-9.31,-35.91,15.4693,-54.9979,-30.2674,1011.96
74048,0.61693,9.83261,0.516499,-5.39,-15.26,-22.82,14.7245,-55.8661,-29.5728,1011.96
74054,1.94644,9.79436,0.191296,-2.66,-16.87,-11.48,15.0683,-55.7793,-30.8487,1011.96
74060,3.10378,9.09134,-0.0669536,-0.14,-14.91,-10.08,15.2688,-55.2873,-29.9839,1011.96
74066,3.08465,7.70445,-0.722142,10.85,-22.33,-22.05,14.1229,-56.0108,-31.0897,1011.95
74072,2.76901,8.08226,-1.42516,10.22,-32.41,-53.27,15.5553,-55.432,-29.7854,1011.95
74078,0.779531,10,-1.4395,-0.7,-47.46,-41.44,15.2688,-55.6924,-30.2674,1011.94
74084,-1.07604,10.5643,-0.774749,-19.18,-66.92,-37.03,16.0709,-54.94,-30.1257,1011.94
74090,-3.1516,10.4926,0.10043,-27.02,-84.56,-20.3,15.9563,-55.2294,-30.636,1011.98
74096,-0.516499,8.8857,0.559541,-14.28,-51.31,-29.89,15.5553,-55.1137,-31.5576,1011.98
74102,5.06456,7.47011,3.01769,1.05,-50.05,-86.66,16.2428,-55.0558,-31.0614,1011.95
74108,-1.42037,12.9268,2.44859,7.91,-64.68,-88.27,15.5553,-54.8532,-31.4867,1011.95
74114,-1.3056,10.9134,0.832138,20.93,-69.51,-97.02,15.9277,-54.5059,-32.394,1011.95
74120,-0.368245,10.2009,-1.01865,25.13,-67.83,-88.41,16.5293,-54.7953,-31.1748,1011.97
74126,-0.95648,10.3013,-0.746054,14.07,-68.32,-92.47,16.4147,-55.432,-32.4224,1011.97
74132,-1.32951,10.6648,-0.33955,-71.47,-72.8,-141.89,17.2454,-54.4481,-31.5009,1011.95
74138,0.0334768,5.50933,-1.5208,-146.3,-69.3,-187.46,18.2767,-54.1008,-31.6568,1011.95
74144,1.44907,5.51889,0.884744,-149.59,-61.11,-202.09,18.1908,-53.1169,-32.791,1011.95
74150,0.607365,8.97178,3.11812,-123.13,-52.71,-196.14,19.5371,-52.2487,-33.8684,1011.95
74156,0.334768,10.99,3.17073,-94.01,-47.88,-171.57,20.1387,-51.612,-33.8968,1011.95
74162,0.401722,12.2095,1.57819,-73.64,-39.27,-140.49,21.1127,-51.0622,-35.1586,1011.95
74168,0.545194,13.7446,-1.16691,-60.62,-19.88,-107.59,21.5997,-51.149,-35.4705,1011.96
74174,1.08082,12.7929,-1.06648,-40.04,-2.8,-89.88,21.6856,-50.1072,-35.0026,1011.96
74180,1.17169,10.4208,0.344333,-22.4,4.62,-90.37,22.631,-49.5863,-36.3069,1011.97
74186,1.24342,9.15351,1.14299,-5.53,8.82,-103.6,22.6023,-50.0783,-34.5206,1011.97
74192,0.612147,9.53611,0.875179,-2.24,12.04,-122.15,23.3471,-49.9046,-35.6264,1011.95
74198,0.272597,10.3348,0.980392,-6.02,11.76,-136.22,23.8628,-49.1233,-34.7758,1011.95
74204,-0.0334768,10.5739,1.17169,-11.97,9.87,-149.59,24.7508,-48.7182,-36.236,1011.95
74210,-0.631277,10.4304,0.703013,-20.3,11.69,-163.66,25.9826,-48.9207,-37.1717,1011.98
74216,-1.13343,10.3491,0.966045,-24.92,8.33,-176.4,26.2118,-47.9657,-36.0234,1011.98
74222,-0.865614,9.82305,1.64036,-25.06,4.2,-196.35,27.4723,-47.6474,-36.5905,1011.98
74228,-0.430416,9.66523,1.39168,-24.22,-0.91,-218.75,27.6441,-47.6185,-35.7682,1011.98
74234,-0.272597,9.55523,1.39646,-22.89,-0.63,-235.13,28.7614,-46.7792,-37.1008,1011.92
74240,-0.822573,9.19177,0.870397,-17.29,0.91,-252.42,29.678,-45.477,-35.8107,1011.92
74246,-1.34864,9.12482,1.5495,-14.84,-3.29,-263.55,30.6807,-45.9979,-35.9525,1011.95
74252,-2.54902,9.12482,1.92731,-14,-7.98,-263.2,32.5141,-44.2905,-36.7747,1011.95
74258,-3.34768,9.03874,1.41559,-14.91,-8.89,-252.07,33.8318,-43.1619,-36.5196,1011.96
74264,-4.55285,9.4022,2.11382,-13.16,-9.8,-223.09,35.0636,-42.8146,-36.5763,1011.96
74270,-4.19895,8.80918,1.78862,-9.45,-12.04,-192.01,35.923,-42.3516,-35.9667,1012
74276,-3.70158,8.82831,1.5495,-3.5,-14.49,-158.83,36.4959,-42.2069,-37.4836,1012
74282,-3.47202,8.39311,1.51124,9.38,-15.4,-126.7,36.897,-41.8018,-37.8947,1011.99
74288,-3.70158,8.76614,1.10473,15.68,-11.69,-97.58,37.7277,-41.5413,-37.0583,1011.99
74294,-4.66762,8.19225,-0.071736,25.48,-6.72,-78.12,37.4413,-41.5702,-37.3418,1011.99
74300,-7.73792,5.00717,0.023912,66.08,-18.13,-117.88,37.4126,-40.8757,-36.477,1011.94
74306,-5.36107,6.64754,0.607365,78.19,-30.38,-134.89,38.2434,-41.3098,-36.4203,1011.94
74312,-3.35724,10.6361,0.712578,45.08,-18.83,-125.58,37.8996,-40.2101,-36.6897,1011.95
74318,-3.70158,11.4586,-1.10473,11.27,-0.7,-114.87,38.8163,-40.8178,-35.9383,1011.95
74324,-4.23721,8.21616,1.2769,18.2,-0.98,-122.99,39.6184,-39.8918,-36.4629,1011.98
74330,-4.72023,8.75657,1.07604,31.78,-8.54,-128.8,39.5611,-39.7182,-36.0801,1011.98
74336,-4.6198,9.27786,0.765184,35.14,-11.69,-122.15,40.3059,-39.4288,-36.718,1011.97
74342,-4.24199,9.31612,0.85605,35.14,-13.23,-107.8,41.0794,-39.3998,-36.392,1011.97
74348,-4.13678,9.21568,0.49737,37.87,-10.92,-86.66,41.1367,-38.9947,-36.2077,1011.97
74354,-3.74462,10.0813,0.37781,8.26,-4.48,-57.96,40.9362,-38.4159,-36.9732,1011.97
74360,-3.62028,8.54137,0.994739,-5.39,0.63,-33.6,41.0221,-38.7342,-35.4705,1011.93
74366,-3.16595,8.15399,1.55906,-12.67,-2.24,-7.77,41.9101,-38.85,-36.0659,1011.93
74372,-3.44333,8.03921,1.44907,-15.12,-3.5,16.8,40.3919,-39.5445,-35.9383,1011.93
74378,-4.10808,8.08704,1.48254,-14.07,-5.95,41.02,41.4231,-38.7342,-36.477,1011.95
74384,-5.32759,8.49833,1.45863,-7.84,-13.51,71.82,40.9362,-38.9947,-37.7104,1011.95
74390,-5.68149,8.79962,1.08082,-3.71,-14.77,96.88,40.7929,-38.85,-36.2644,1011.92
74396,-6.36059,9.01482,0.994739,2.52,-15.26,112.7,40.5924,-39.313,-36.0234,1011.92
74402,-6.17408,9.30177,0.980392,4.62,-13.44,115.71,39.9335,-39.2841,-35.8107,1011.99
74408,-5.82018,9.18699,0.540411,4.27,-10.29,112.84,39.2174,-39.8629,-36.1935,1011.99
74414,-5.23195,8.63223,1.07604,9.31,-13.23,111.86,38.3007,-40.3259,-36.8598,1011.97
74420,-4.83979,9.70827,0.023912,13.79,-6.09,125.44,37.6132,-41.1362,-36.5905,1011.97
74426,-3.6968,9.62219,0.420851,12.04,0.42,136.43,38.1001,-41.3387,-36.392,1011.95
74432,-3.45768,10.0622,0.57867,6.79,6.58,148.75,37.2407,-41.8886,-36.7889,1011.95
74438,-3.52941,10.6982,0.382592,-2.52,14.14,172.9,35.9516,-41.5413,-36.9307,1011.95
74444,-3.62028,10.88,0.310856,-12.39,23.38,207.34,36.1522,-43.0751,-36.3778,1011.95
74450,-3.71114,10.7174,0.746054,-20.51,31.43,239.33,35.4933,-43.8564,-35.4705,1011.94
74456,-3.9407,10.6121,0.430416,-35.14,42.63,279.37,35.0923,-44.3773,-35.6264,1011.94
74462,-4.02678,11.5065,-0.0526064,-49.84,62.44,322.91,33.1729,-45.1587,-36.2786,1011.94
74468,-4.22286,10.5356,0.392157,-65.03,75.18,352.73,30.9958,-44.8982,-36.9874,1011.94
74474,-4.16547,9.2109,0.966045,-68.95,77.56,369.74,29.8213,-46.6635,-37.356,1011.94
74480,-4.18938,7.7714,1.956,-61.04,71.68,371.84,29.4489,-46.2294,-36.2218,1011.96
74486,-3.29029,6.89622,2.65423,-47.25,61.88,367.15,27.9879,-47.0976,-35.9667,1011.96
74492,-2.066,7.26925,2.32903,-39.97,61.39,353.15,26.5269,-47.9657,-36.7747,1012.01
74498,-0.664754,8.19703,1.74079,-35.49,62.23,340.27,24.5503,-48.1104,-35.8532,1012.01
74504,-0.210426,8.38833,2.36251,-35.84,62.02,324.59,24.3211,-48.9207,-36.5337,1011.96
74510,-0.023912,9.20612,2.09947,-49.84,60.2,309.05,22.4305,-49.2969,-36.1226,1011.96
74516,0.095648,9.62219,1.66906,-67.27,61.39,300.02,21.2273,-49.0944,-36.1935,1011.94
74522,0.344333,9.77523,1.55428,-81.83,63.21,291.62,20.196,-49.9046,-36.4345,1011.94
74528,0.894309,9.95696,1.28647,-92.05,63,279.86,18.7637,-50.1651,-37.6112,1011.99
74534,1.45385,9.69392,1.7934,-86.59,53.06,259.42,17.7611,-49.268,-37.3418,1011.99
74540,2.01339,9.87566,1.62602,-67.9,44.38,232.96,16.5865,-49.2101,-38.873,1011.98
74546,1.56384,10.5739,0.942133,-56.35,48.37,215.74,15.8131,-48.6024,-37.2142,1011.98
74552,1.20995,10.8847,1.25299,-52.85,50.26,206.64,15.7844,-48.2841,-37.9089,1011.98
74558,1.42037,10.8226,2.40555,-47.95,46.34,199.15,14.0943,-48.9497,-37.6963,1011.97
74564,1.75992,10.3922,3.09421,-41.02,38.15,193.97,12.6333,-49.0654,-38.0932,1011.97
74570,2.1186,10.9708,2.41989,-37.52,38.22,198.73,12.1177,-48.9207,-37.4269,1011.94
74576,2.3099,10.8943,2.6351,-31.99,43.26,213.29,10.0838,-49.5574,-38.5469,1011.94
74582,2.73553,10.2678,3.2616,-26.53,44.66,230.23,9.99783,-48.3998,-38.3626,1011.99
74588,3.00813,9.48828,3.67767,-17.08,44.8,245.7,8.90926,-48.9497,-37.7388,1011.99
74594,3.30464,8.8044,3.40507,0.84,47.46,261.45,7.84934,-48.6603,-38.6036,1011.99
74600,1.97513,13.2712,2.12817,-0.35,28.84,323.05,7.10453,-48.4866,-37.6396,1011.99
74606,2.00861,10.9613,2.94118,3.15,4.06,364.28,5.09927,-48.4288,-39.1565,1011.96
74612,2.20469,8.66093,2.76901,5.25,-18.83,397.46,3.81017,-48.2841,-38.4902,1011.96
74618,2.21425,6.21234,2.65901,35.77,-32.2,415.8,1.89085,-48.3709,-38.8588,1011.97
74624,1.64515,5.11717,2.57771,51.1,-45.01,434.14,-1.28892,-47.7632,-38.4618,1011.97
74630,1.61167,6.72405,1.20038,51.1,-49.21,460.95,-3.03637,-48.4288,-38.2208,1011.94
74636,1.86514,5.71975,1.28168,54.81,-62.86,464.24,-6.07291,-48.0236,-38.5327,1011.94
74642,5.67671,6.01626,1.87948,63.77,-67.55,446.25,-8.25005,-47.0108,-36.6755,1011.94
74648,5.44715,7.29794,1.6021,72.17,-69.3,465.08,-11.172,-46.1715,-35.8958,1011.96
74654,5.06934,7.68053,1.7934,94.08,-63.56,489.37,-13.0054,-45.4481,-35.9099,1011.96
74660,4.72501,7.83357,1.59254,111.72,-61.53,508.55,-16.4143,-45.477,-35.4846,1011.93
74666,5.62888,8.12052,0.798661,123.69,-47.11,550.41,-18.792,-44.2037,-35.1444,1011.93
74672,5.74844,4.78718,1.7121,147.21,-40.81,554.61,-21.3415,-42.7278,-34.4922,1011.94
74678,6.44668,3.05117,1.19082,170.45,-35.56,526.47,-24.3781,-42.4384,-33.1454,1011.94
74684,7.40794,2.04687,0.0765184,183.4,-33.11,480.34,-27.1568,-41.6281,-31.9262,1011.95
74690,7.84314,1.48254,-0.153037,196.63,-22.96,435.54,-28.6178,-40.5863,-30.8912,1011.95
74696,8.73744,1.91296,-0.463893,190.54,-11.27,393.61,-30.1074,-40.0654,-31.0755,1011.95
74702,9.25873,3.31899,0.296509,170.94,-5.81,368.2,-31.8548,-38.9368,-29.2325,1011.95
74708,10.0909,4.29938,-0.109995,137.9,1.12,354.27,-33.8601,-37.895,-29.3601,1011.96
74714,10.0383,4.3472,0.612147,107.1,-2.94,340.13,-35.2351,-37.2294,-29.3601,1011.96
74720,10.5356,4.41416,0.095648,68.04,-6.86,325.71,-35.7508,-36.4191,-29.0199,1011.96
74726,10.3395,4.15591,-0.157819,32.34,-10.92,315.35,-37.6128,-34.8854,-28.1551,1011.97
74732,9.94261,3.70158,0.612147,4.41,-12.11,308.21,-38.3003,-33.6989,-28.1692,1011.97
74738,10.2822,2.95552,1.02343,-10.22,-13.79,302.4,-39.3603,-32.3098,-28.07,1011.96
74744,10.1004,2.17599,0.674318,-22.05,-12.46,302.89,-41.3655,-31.3837,-28.07,1011.96
74750,9.89,1.77905,0.57867,-32.62,-13.51,303.87,-41.9957,-29.3291,-27.6021,1011.94
74756,9.63654,1.56863,0.569106,-44.87,-17.78,308.77,-42.7978,-27.8243,-27.3895,1011.94
74762,9.36872,1.37733,0.435198,-54.11,-25.2,316.4,-43.5999,-25.4802,-27.829,1011.96
74768,8.83309,1.22908,0.387374,-60.2,-33.74,319.97,-45.2614,-24.4384,-29.1758,1011.96
74774,8.57963,0.942133,0.33955,-51.59,-34.65,323.12,-46.1495,-22.4995,-29.5586,1011.98
74780,8.7757,0.95648,0.49737,-33.81,-30.73,321.93,-47.4386,-21.3998,-29.4452,1011.98
74786,8.34529,-0.215208,1.44428,-8.26,-23.66,316.05,-47.3526,-18.7664,-27.9991,1011.94
74792,8.07747,-0.989957,0.970827,22.33,-21.35,310.17,-47.9256,-17.551,-28.4244,1011.94
74798,8.51745,-1.88427,0.545194,48.72,-15.89,302.68,-48.5272,-16.3645,-27.7297,1011.96
74804,8.74701,-3.00335,-0.162602,68.95,-12.32,297.57,-48.8709,-14.686,-27.7864,1011.96
74810,8.93831,-3.43855,-0.669536,89.74,-6.86,293.16,-49.4725,-13.8757,-28.5804,1011.96
74816,8.95744,-3.52463,-0.229555,110.74,-5.81,291.06,-50.16,-13.0944,-27.8999,1011.98
74822,8.63701,-3.61549,0.396939,128.1,-8.68,285.25,-50.8762,-10.3452,-27.5738,1011.98
74828,8.83309,-3.60593,0.095648,141.68,-4.41,278.74,-51.5064,-9.56382,-27.6589,1011.97
74834,8.70875,-3.30464,-0.095648,143.43,-3.92,272.65,-51.5637,-8.92716,-26.7373,1011.97
74840,8.81875,-3.55332,0.267814,143.78,-7.49,267.75,-51.5351,-7.30658,-26.2695,1011.99
74846,9.11525,-4.02678,0.133907,142.59,-4.34,269.22,-52.7955,-7.07507,-26.1277,1011.99
74852,8.43615,-4.09373,0.564323,145.6,-0.77,286.16,-52.8814,-5.62813,-26.5956,1011.97
74858,8.31181,-4.3759,0.172166,140.14,-3.43,301.28,-52.595,-5.42555,-26.5956,1011.97
74864,8.43137,-4.61502,0.296509,131.53,-12.67,308.98,-53.1679,-3.97861,-26.5672,1011.95
74870,8.19703,-4.84935,0.129125,119.56,-19.46,311.5,-53.2252,-2.79211,-25.4897,1011.95
74876,8.39789,-5.43759,0.473458,113.82,-19.39,313.53,-53.5117,-0.911083,-26.1419,1011.97
74882,8.29268,-5.67671,1.05213,113.89,-21.35,311.08,-53.8268,0.883129,-26.0001,1011.97
74888,8.68962,-5.978,1.6021,114.66,-27.37,295.68,-53.7695,1.72236,-25.5323,1011.97
74894,9.00526,-5.22716,0.703013,102.83,-35.07,274.82,-53.6549,3.92172,-26.4821,1011.97
74900,14.2898,3.00335,1.32472,45.15,-14.21,278.46,-54.5143,4.44262,-25.6315,1011.97
74906,13.252,1.61167,0.492587,-20.58,3.99,292.46,-54.1419,6.55515,-24.5541,1012
74912,10.2678,-4.31372,-0.722142,-42.77,33.46,261.66,-53.7695,7.65483,-26.1277,1012
74918,3.85461,-8.78527,3.58202,-43.54,23.38,212.73,-53.569,8.98602,-25.4897,1011.94
74924,6.11191,-8.23051,3.12769,-47.32,18.2,177.03,-54.1419,9.82525,-25.2204,1011.94
74930,7.8814,-6.22669,1.71688,-59.99,19.53,170.17,-53.3111,11.0696,-25.2346,1012.01
74936,7.18795,-7.15447,1.56863,-42.98,8.47,170.24,-53.1679,11.5616,-24.7667,1012.01
74942,7.34577,-6.42276,0.0430416,-29.33,18.55,179.06,-53.1966,12.806,-25.8725,1011.95
74948,6.84361,-5.08369,-1.09517,-30.31,43.96,200.69,-52.1366,14.1661,-26.1702,1011.95
74954,6.81492,-4.73936,-0.832138,-35.84,70.56,233.66,-52.6236,15.2658,-26.7232,1011.97
74960,6.98709,-4.99283,-0.430416,-42.77,97.23,268.8,-51.1626,15.9892,-27.0918,1011.97
74966,6.77666,-5.50454,0.0095648,-55.37,121.03,304.71,-50.5897,18.5359,-26.794,1011.97
74972,6.26973,-6.59971,0.143472,-62.51,135.17,330.68,-49.7876,19.5487,-28.0133,1011.97
74978,5.72453,-7.30273,0.401722,-64.26,138.46,341.53,-48.4126,21.9796,-29.1758,1011.96
74984,5.27499,-7.74271,0.229555,-66.64,139.02,341.04,-48.1834,23.224,-30.1257,1011.96
74990,5.03587,-8.71832,1.07604,-65.87,140.98,330.47,-46.5219,25.8574,-29.2892,1011.96
74996,4.4572,-8.7231,1.47776,-65.38,133.84,318.43,-45.1755,26.1179,-30.3809,1011.96
75002,4.3472,-8.73744,0.846485,-64.75,124.46,306.81,-43.5999,28.2593,-30.8204,1011.96
75008,4.39503,-8.97178,0.5978,-67.62,112.7,291.76,-41.8811,29.5905,-30.6502,1011.98
75014,4.11286,-9.46437,1.22908,-69.86,100.03,271.74,-41.7379,30.1404,-30.5226,1011.98
75020,4.21329,-9.5935,2.23816,-71.82,90.93,255.71,-40.191,31.4137,-31.9403,1011.92
75026,3.88331,-9.79436,2.57771,-73.71,84.28,254.31,-39.0165,33.179,-32.3515,1011.92
75032,3.70158,-10.3539,1.53037,-73.99,88.9,259.84,-37.9566,34.2497,-31.6426,1012
75038,5.88235,-15.1076,-2.30033,-112.35,109.2,225.33,-36.9826,35.0021,-31.4867,1012
75044,0.942133,-9.01961,2.9077,-99.54,91.56,253.19,-35.7221,35.9571,-31.9829,1011.98
75050,0.688666,-9.94261,1.42516,-41.86,122.29,294.84,-34.0606,37.2883,-31.43,1011.98
75056,0.631277,-10.0956,-0.506934,2.17,161.77,325.08,-32.7715,38.388,-32.0254,1011.98
75062,0.511717,-10.1865,-0.0573888,28.84,179.55,334.81,-30.0501,39.2272,-32.6634,1011.98
75068,0.626494,-10.0813,0.0095648,25.48,176.4,320.11,-29.1334,40.0664,-33.0603,1011.98
75074,0.899091,-9.30177,0.133907,-2.66,147.14,289.31,-26.5266,40.269,-34.0669,1011.96
75080,1.01865,-9.13917,0.248685,-38.85,116.69,265.93,-24.6073,41.1661,-34.1094,1011.96
75086,1.20038,-9.19656,0.688666,-50.96,103.88,251.79,-23.1176,41.1661,-35.1869,1011.96
75092,1.36777,-9.95218,1.75036,-43.12,104.93,244.86,-21.1124,42.7867,-34.6907,1011.96
75098,1.66428,-9.80392,2.08034,-24.85,122.99,258.37,-19.68,42.9024,-34.9459,1011.97
75104,1.27212,-9.87566,2.65901,-4.48,143.08,279.3,-18.5342,43.568,-34.5915,1011.97
75110,0.942133,-9.93304,1.47298,9.03,165.62,290.5,-16.844,44.031,-35.9667,1011.98
75116,-0.33955,-10.5165,1.75036,14.07,161.77,276.64,-14.2085,44.031,-35.3429,1011.98
75122,-0.674318,-10.3826,1.16212,9.94,145.32,254.66,-13.3778,44.1179,-37.0016,1011.94
75128,-2.16164,-9.2109,0.277379,-4.13,110.04,225.33,-11.0288,44.4941,-36.5479,1011.94
75134,-4.022,-6.87709,-1.18125,-23.45,45.29,144.69,-9.53914,45.3333,-36.0375,1011.99
75140,-5.79627,-6.22669,-0.133907,-39.9,-5.39,85.26,-9.5105,44.986,-36.5196,1011.99
75146,-5.06934,-8.79962,-0.81779,-37.1,-23.45,87.15,-8.6511,45.6516,-35.8674,1011.99
75152,-5.22716,-10.4065,-0.10043,-26.25,-18.13,120.19,-8.13546,45.8253,-35.0451,1011.99
75158,-5.20325,-11.9703,0.071736,-10.78,-9.31,127.47,-7.90629,45.6227,-35.0451,1011.99
75164,-3.85461,-12.9173,0.37781,23.03,4.62,115.22,-7.44794,45.1597,-35.7682,1011.98
75170,-2.95552,-12.329,-0.148254,40.18,8.19,104.93,-6.9323,45.7095,-36.5905,1011.98
75176,-2.19512,-10.8847,-0.492587,34.93,6.58,92.68,-6.1302,45.3622,-35.8249,1012
75182,-1.78384,-10.2104,0.13869,18.62,-4.34,80.08,-5.98697,45.5359,-36.6613,1012
75188,-0.980392,-10.1817,0.57867,12.88,-4.27,66.43,-5.41403,45.449,-36.0375,1011.94
75194,-1.09995,-10.3635,1.47298,14.7,1.47,63,-5.18486,45.0439,-37.0725,1011.94
75200,-1.59732,-10.1626,1.01387,20.37,17.15,70.07,-4.86975,45.2465,-36.6472,1011.99
75206,-3.38594,-9.64132,0.368245,19.6,20.93,77.28,-4.01035,45.5937,-35.8532,1011.99
75212,-3.58202,-9.28264,0.506934,7.14,11.83,85.82,-3.89576,46.0278,-36.8315,1012.03
75218,-2.15686,-10.2487,1.58776,9.17,10.43,89.39,-3.43742,45.3912,-35.9099,1012.03
75224,-1.99904,-10.2822,1.34864,18.48,16.8,92.26,-2.7499,45.1886,-37.1575,1011.97
75230,-2.85031,-9.70827,1.55906,12.39,11.83,90.58,-2.72125,45.3622,-37.2001,1011.97
75236,-3.1803,-9.73697,1.06169,2.17,4.48,86.1,-1.17434,45.1307,-37.0299,1011.96
75242,-3.86896,-9.64132,1.39646,-6.79,-1.61,85.96,-1.17434,45.015,-37.0441,1011.96
75248,-4.99283,-9.69392,1.57341,-10.99,-8.4,85.96,-0.687346,46.2304,-37.4553,1011.96
75254,-5.31803,-9.11047,1.04735,-21.49,-21.49,84.84,-1.20298,45.3622,-36.9591,1011.96
75260,-5.04543,-8.68962,0.315638,-33.04,-31.08,80.5,-0.0571209,45.3622,-37.0441,1011.96
75266,-4.51937,-8.51745,-0.0286944,-41.86,-34.72,75.39,-0.257647,45.478,-35.4705,1011.97
75272,-4.05548,-9.17743,-0.0908656,-34.23,-29.19,71.19,0.315285,46.0857,-36.8315,1011.97
75278,-4.42372,-9.9713,0.267814,-28.84,-21,70.21,1.31792,45.5937,-36.718,1011.97
75284,-4.41894,-10.4304,-0.0813008,-24.92,-17.57,62.44,0.573104,45.7095,-36.3353,1011.97
75290,-4.3472,-11.1526,0.401722,-22.54,-20.65,50.33,1.4325,45.941,-35.3996,1011.96
75296,-4.47154,-11.4538,0.827355,-17.36,-19.25,45.85,1.83355,46.404,-35.995,1011.96
75302,-5.14108,-11.0282,1.0043,-17.15,-18.83,47.81,1.74761,46.5487,-34.8183,1011.97
75308,-4.3472,-10.067,1.93687,-24.01,-32.76,47.81,1.97679,45.8253,-35.8249,1011.97
75314,-3.1803,-8.80918,2.57293,-34.44,-50.05,49.49,2.57837,46.2015,-35.8107,1011.96
75320,-2.16643,-5.57628,2.39598,-40.74,-58.52,56.49,1.91949,46.5777,-34.8325,1011.96
75326,-2.32903,-2.85509,1.72645,-57.33,-53.97,87.92,2.32055,46.1436,-35.3003,1011.98
75332,-3.11812,-1.5495,1.19082,-72.38,-41.44,129.5,2.77889,46.6645,-35.4421,1011.98
75338,-4.73458,-3.48159,1.04256,-71.19,-31.5,164.85,3.00807,47.5905,-33.8968,1011.98
75344,-6.26494,-5.45194,1.5495,-53.9,-29.19,189.7,4.23987,47.7352,-34.5631,1011.95
75350,-7.65184,-7.19751,1.33907,-40.88,-40.88,200.06,5.15656,47.2433,-33.3297,1011.95
75356,-7.36011,-8.75657,1.10473,-26.18,-47.04,208.6,6.30242,46.6934,-33.7834,1011.95
75362,-6.62362,-11.0234,0.5978,-12.53,-52.99,202.02,6.87536,46.4619,-33.3297,1011.95
75368,-5.90148,-11.1334,-0.253467,-9.38,-48.79,194.39,7.01859,46.6066,-33.4857,1011.96
75374,-5.23673,-10.8656,-1.51124,-9.59,-38.64,190.96,8.9952,46.896,-33.3581,1011.96
75380,-3.49115,-11.5878,-2.11382,-3.57,-17.85,192.15,8.90926,46.9249,-34.0244,1011.97
75386,-0.540411,-11.8508,-1.97513,2.1,-1.4,171.78,10.5421,47.3011,-32.6776,1011.97
75392,-3.60593,-10.6743,-0.157819,-8.54,0.77,136.78,11.7739,46.6934,-32.7059,1011.97
75398,-5.19847,-9.60784,0.0191296,-17.57,-7.63,108.36,12.2323,46.9539,-33.996,1011.97
75404,-6.52798,-8.15399,-0.454328,-23.45,-7.84,102.27,13.2063,47.1854,-34.0811,1011.97
75410,12.8886,-23.3094,4.06504,64.89,50.61,-26.95,13.2349,46.5198,-33.9393,1011.97
75416,-9.34003,-7.80966,1.25299,99.47,46.13,34.58,13.0057,46.2015,-33.6558,1011.97
75422,-8.28312,-1.99426,-2.42468,15.54,10.15,89.74,14.6672,45.9121,-34.0102,1011.97
75428,-8.46963,-3.75897,-2.40555,-10.36,2.52,101.85,14.8391,45.3622,-34.9601,1011.97
75434,-5.32281,-10.2822,1.58776,28.28,15.47,93.87,14.8678,45.2175,-34.2654,1011.93
75440,-6.58536,-8.42659,0.349115,42.49,27.65,95.62,15.7272,45.2175,-34.6907,1011.93
75446,-6.3845,-6.2506,0.47824,40.04,74.41,116.27,16.3001,45.0728,-33.9677,1011.97
75452,-6.52319,-7.40794,2.49641,31.15,110.74,136.5,17.2741,43.9442,-33.4006,1011.97
75458,-6.63797,-7.53706,2.86466,3.43,144.2,144.13,18.3626,44.4651,-34.6482,1012
75464,-6.31755,-7.53706,2.35294,-16.1,140.07,117.6,19.7377,43.7995,-34.4922,1012
75470,-6.04017,-8.90483,-0.473458,8.82,95.13,93.94,21.0554,43.2497,-34.1378,1011.96
75476,-4.17504,-11.1191,-3.53419,101.85,37.73,95.9,21.5997,42.6709,-33.996,1011.96
75482,-0.530846,-7.11143,-2.65901,169.47,59.92,120.96,22.8315,41.7738,-34.6482,1011.97
75488,-2.92205,-5.71975,0.21999,183.19,75.39,127.19,23.2612,40.8188,-35.4563,1011.97
75494,-4.95935,-6.35103,-0.793878,178.08,88.34,105.28,24.0633,40.0664,-35.4137,1011.97
75500,-5.95409,-6.85796,-1.05691,173.6,98.49,81.83,24.7508,38.9957,-36.6755,1011.97
75506,-7.02535,-6.21712,-1.46341,159.67,95.83,71.68,24.9514,37.8092,-36.5479,1011.97
75512,-6.67145,-7.38881,-0.650406,150.85,100.94,61.67,26.2691,36.8831,-36.7889,1011.95
75518,-6.26016,-7.27403,0.439981,129.01,90.72,48.93,26.7561,35.8124,-37.8522,1011.95
75524,-5.85366,-5.82018,1.48254,98.21,73.22,48.65,27.4723,35.6388,-38.0365,1011.96
75530,-7.04926,-4.78718,2.20469,66.99,44.94,65.38,27.7874,34.5391,-37.3985,1011.96
75536,-7.17838,-5.59063,2.12817,44.73,28.49,88.83,28.2744,33.8735,-37.271,1011.97
75542,-7.72836,-6.44189,0.894309,33.74,19.25,111.86,28.79,33.642,-38.3909,1011.97
75548,-8.42181,-6.88666,-0.516499,26.25,14.7,129.15,29.0192,33.3815,-37.7813,1011.96
75554,-9.50741,-5.98278,-1.12865,5.95,9.31,160.79,30.1364,32.8027,-38.9155,1011.96
75560,-9.11525,-6.31755,-0.473458,-10.36,12.39,197.54,30.3656,32.6002,-38.0507,1011.96
75566,-8.3692,-6.3032,0.10043,-19.11,15.47,226.45,30.8239,31.732,-38.1499,1011.96
75572,-8.73744,-5.68627,0.439981,-26.53,13.72,253.61,32.3422,30.6323,-37.4978,1011.94
75578,-8.15877,-5.32281,0.516499,-26.88,18.27,265.65,33.2016,30.0246,-37.4269,1011.94
75584,-12.5968,-14.0794,3.10378,-50.12,-0.35,105.28,34.3761,29.4748,-36.7747,1011.93
75590,-13.6442,-11.2817,3.26638,-56.49,-32.27,-10.78,34.5766,29.0407,-37.8097,1011.93
75596,-13.6346,-6.12147,-4.32807,-47.67,14.07,-55.86,33.975,29.4169,-37.7246,1011.93
75602,-14.6724,-2.62554,-3.55332,-66.85,50.68,-34.44,33.6026,29.1564,-37.6537,1011.95
75608,-13.5916,-1.72645,-2.36729,-86.38,83.86,11.9,34.6339,30.2851,-36.4203,1011.95
75614,-12.8216,-2.6638,-0.669536,-78.61,101.85,41.72,35.4647,30.4298,-35.8391,1011.93
75620,-12.3482,-2.64945,0.679101,-68.04,102.34,56.35,36.3813,29.7063,-34.8041,1011.93
75626,-11.1526,-2.97944,1.04256,-53.62,98.77,65.87,36.3241,30.7191,-35.1869,1011.99
75632,-10.9182,-2.54902,0.913438,-46.27,91.07,85.96,36.7824,30.2561,-33.6132,1011.99
75638,-11.0808,-1.59732,-0.0047824,-52.29,76.65,117.18,37.785,30.6902,-34.0102,1011.98
75644,-10.4161,-2.01339,0.688666,-46.55,73.5,162.26,38.358,29.5326,-31.6852,1011.98
75650,-7.05882,-3.32855,1.14778,-24.01,52.29,142.8,40.6783,29.2433,-32.7484,1011.96
75656,-7.27403,0.0908656,-0.492587,-5.6,61.53,159.18,40.3059,28.2883,-31.9829,1011.96
75662,-9.81349,-0.25825,-0.97561,-14.49,42.21,201.6,41.9961,27.2754,-32.0538,1011.94
75668,-7.24055,-2.15686,0.430416,-0.42,35.77,202.23,42.5977,26.4362,-31.1748,1011.94
75674,-6.71927,-2.48207,1.17647,1.33,32.76,181.72,43.5716,26.06,-31.8695,1011.99
75680,-3.1803,0.865614,-2.17599,40.53,51.24,218.61,44.5743,24.9024,-30.5793,1011.99
75686,-4.72023,-5.24629,1.67862,45.64,49.98,174.02,45.892,23.4555,-30.5935,1011.99
75692,-7.72358,-3.80201,2.879,48.09,27.09,158.62,45.6342,22.9346,-31.3874,1011.92
75698,-5.56671,0.157819,-1.06169,47.88,27.93,196.98,46.8946,21.806,-30.7495,1011.92
75704,-4.83501,0.71736,-1.06169,37.94,53.06,291.9,47.1238,20.388,-31.4016,1011.96
75710,-6.3845,-0.669536,0.0286944,43.82,77.7,373.45,48.6707,18.7384,-31.4583,1011.96
75716,-6.27929,-2.99378,1.25777,36.61,64.75,393.05,49.9025,16.597,-29.431,1011.95
75722,-6.60449,-3.85461,1.50646,8.19,19.95,355.95,51.3062,14.3397,-30.0406,1011.95
75728,-7.98661,-4.30894,0.559541,-22.54,3.15,311.71,52.4521,12.3429,-30.0973,1011.98
75734,-8.83788,-4.52415,-0.0908656,-25.76,-10.92,280.56,53.1969,11.9667,-30.4092,1011.98
75740,-9.84218,-4.07939,-0.172166,-11.55,-10.71,270.13,52.9391,10.1436,-30.9054,1011.99
75746,-10.0048,-3.68723,-0.0382592,10.22,-3.78,267.33,54.0849,8.40724,-29.8988,1011.99
75752,-9.92826,-2.1473,0.0908656,23.31,-1.89,265.58,55.0303,6.52622,-30.0406,1011.96
75758,-10.4687,0.841702,0.71736,43.47,-4.06,281.47,55.2594,5.36866,-30.5368,1011.96
75764,-8.89526,-0.822573,1.27212,63.91,-18.13,267.82,54.7725,3.66126,-30.9763,1011.96
75770,-8.71353,-1.92252,1.98948,95.06,-39.55,256.41,55.2881,2.04069,-30.4943,1011.97
75776,-8.95744,-1.96557,1.35342,122.01,-43.68,257.88,55.6605,0.420107,-30.9338,1011.97
75782,-8.22573,-1.28647,0.124342,123.76,-40.81,250.25,55.374,-1.46092,-31.3024,1011.96
75788,-7.83835,-0.454328,-1.01387,104.09,-28.77,238.84,55.861,-2.82105,-31.4867,1011.96
75794,-8.51745,0.659971,-1.69297,82.6,-15.12,234.43,55.0016,-4.61526,-31.7277,1011.98
75800,-9.39742,2.39598,-2.03252,54.32,-0.49,237.72,55.2308,-5.94645,-31.9687,1011.98
75806,-10.1291,3.51985,-2.17121,15.61,4.48,244.44,54.9443,-7.21977,-32.4224,1011.95
75812,-10.6743,4.91152,-1.87948,-23.1,3.71,245.91,55.0303,-8.03005,-32.0963,1011.95
75818,-11.3295,5.55715,-1.80296,-61.95,-2.52,246.19,55.1162,-9.53488,-33.4573,1011.95
75824,-12.7355,5.2176,-1.84601,-84.21,-9.31,249.48,54.8011,-10.4899,-33.273,1011.95
75830,-14.1703,3.08465,-3.18986,-100.17,-0.7,244.51,55.4886,-11.4738,-32.4082,1011.97
75836,-15.2989,2.27642,-3.21377,-115.43,9.24,236.32,54.8298,-12.8918,-31.1606,1011.97
75842,-12.2956,1.26255,-0.277379,-96.53,-3.36,217.42,54.9157,-13.1522,-32.5074,1011.95
75848,-10.5022,0.808226,-1.40603,-74.06,6.23,198.59,54.4001,-14.0493,-31.7844,1011.95
75854,-9.35916,1.53037,-3.3955,-60.34,35.21,182.77,54.486,-15.2069,-31.7844,1011.95
75860,-9.53132,2.20947,-2.20469,-45.85,49.84,176.54,54.8011,-15.3227,-31.671,1011.95
75866,-9.69392,3.52941,-1.37255,-42.63,47.18,184.66,54.1995,-16.1908,-32.0396,1011.95
75872,-10.2009,5.23673,-0.411286,-52.36,36.54,209.3,54.7152,-16.9432,-32.0821,1011.95
75878,-9.43568,5.55237,-0.186514,-56.77,48.86,247.1,53.7698,-18.1297,-32.635,1011.95
75884,-6.4132,6.02582,-0.803443,-67.48,73.15,275.66,54.2855,-19.4609,-31.5292,1011.96
75890,-6.65232,5.77714,-0.167384,-89.39,82.81,295.4,54.6006,-20.6185,-30.9621,1011.96
75896,-7.61836,4.68675,0.755619,-106.75,81.55,296.45,54.5719,-21.1973,-30.069,1011.96
75902,-8.30225,4.13199,0.559541,-114.8,77.49,296.31,53.6839,-22.6442,-30.4943,1011.96
75908,-8.82831,3.84983,0.401722,-106.05,88.97,306.53,52.9964,-23.9754,-30.551,1011.95
75914,-7.3362,3.67767,-0.210426,-55.79,132.3,313.81,53.6839,-25.3355,-29.1616,1011.95
75920,-7.4175,4.40459,-2.16643,-60.2,142.45,303.17,54.4287,-27.1297,-28.0558,1011.97
75926,-10.8178,9.38785,-4.60545,-178.36,83.86,265.02,53.598,-27.3323,-28.5378,1011.97
75932,-11.0378,6.88187,-1.35342,-270.9,34.72,225.26,52.7386,-27.969,-29.2325,1012.01
75938,-9.74653,4.75371,1.06648,-251.16,33.74,213.71,52.3089,-28.6056,-29.0766,1012.01
75944,-6.36059,4.87805,-1.31038,-182.56,56.84,215.25,51.5354,-28.8371,-29.6578,1012.01
75950,-5.90626,7.011,-3.2616,-170.31,50.26,214.34,51.8219,-29.6185,-28.5945,1011.94
75956,-7.61836,9.71305,-1.65949,-171.22,45.92,217.56,51.1343,-30.2551,-29.7145,1011.94
75962,-6.71927,7.80488,-0.253467,-124.11,59.15,218.4,50.2463,-30.2551,-29.7145,1011.97
75968,-5.73888,6.28407,-0.889526,-80.99,55.37,199.15,50.4182,-31.268,-29.5586,1011.97
75974,-5.67671,8.13008,-0.559541,-70.14,35.42,168.7,50.3609,-30.9497,-29.4452,1011.94
75980,-5.60497,8.24008,0.35868,-47.18,17.36,134.89,49.8452,-31.9047,-29.7712,1011.94
75986,-5.83453,9.14873,-0.813008,-27.51,5.32,111.44,50.189,-33.0911,-29.9839,1011.95
75992,-6.78144,9.76088,-1.66428,-20.51,-0.28,104.65,49.1864,-33.3227,-29.8563,1011.95
75998,-7.69488,10.3013,-2.23816,-21.77,8.05,111.3,49.0718,-33.8146,-30.4234,1011.96
76004,-7.44141,9.12482,-1.78384,-14.63,23.03,118.37,49.0145,-34.3355,-29.8988,1011.96
76010,-7.35533,8.79962,-1.56863,-10.22,40.88,127.82,47.5822,-36.0719,-30.5368,1011.94
76016,-7.16882,8.68006,-0.793878,-13.65,53.06,142.24,47.9259,-35.3773,-29.8138,1011.94
76022,-6.21712,8.044,-0.25825,-10.57,68.74,147.84,47.5535,-36.477,-28.8923,1011.97
76028,-5.28933,7.45576,0.329986,-10.15,70.7,143.71,47.9546,-36.6217,-29.034,1011.97
76034,-4.88283,7.65662,0.301291,-19.46,62.3,126.91,47.5249,-37.3452,-28.8639,1011.97
76040,-4.61023,7.82879,0.61693,-40.11,42.84,105.49,47.2384,-37.4609,-28.4528,1011.98
76046,-4.30894,7.81922,0.69823,-51.52,28.98,88.76,47.0092,-37.8661,-28.2259,1011.98
76052,-4.14156,7.84314,0.832138,-57.26,12.88,75.18,46.7801,-38.5027,-28.5095,1011.96
76058,-3.50072,8.20182,1.02343,-55.65,-1.26,66.99,46.465,-38.358,-28.9064,1011.96
76064,-3.79244,8.90483,0.966045,-51.52,-10.15,66.29,47.1525,-38.6185,-29.0482,1011.97
76070,-4.2659,9.10569,0.0191296,-45.15,-17.64,65.8,46.3504,-38.2712,-30.3383,1011.97
76076,-5.06456,9.22525,-0.961262,-43.19,-17.01,68.25,46.4077,-39.0236,-28.9206,1011.95
76082,-5.5428,8.77092,-1.40603,-41.58,-14.63,66.15,45.6056,-38.7342,-29.4877,1011.95
76088,-6.20277,8.52702,-1.64036,-42.28,-14.14,57.89,45.405,-39.0236,-30.6786,1011.94
76094,-5.39455,7.06839,-0.879962,-26.74,-16.8,40.18,45.491,-38.9657,-31.756,1011.94
76100,-5.71975,8.63701,-1.36298,-47.6,-40.32,22.82,45.0613,-39.3709,-30.31,1011.96
76106,-5.09326,7.88618,-1.02343,-52.36,-68.11,18.9,44.517,-39.0526,-31.2173,1011.96
76112,-4.16069,8.37877,-0.894309,-43.82,-68.32,14,44.8894,-39.342,-31.43,1011.96
76118,-4.20851,8.65136,0.827355,-26.32,-65.52,15.26,44.7175,-38.7921,-32.7343,1011.97
76124,-4.09852,7.66619,2.44859,-4.06,-63.28,17.22,44.1446,-38.9947,-32.1388,1011.97
76130,-2.67814,7.91965,1.89383,-9.1,-56.84,-10.15,43.8868,-38.7921,-31.5859,1011.97
76136,-4.65328,10.5022,2.41511,10.78,-46.83,12.25,43.8581,-39.1973,-32.3657,1011.97
76142,-3.59636,9.92348,0.583453,24.71,-20.86,52.22,43.6862,-39.6024,-32.394,1011.96
76148,-3.27594,8.90483,0.631277,27.58,0.14,66.43,43.2565,-39.6024,-33.1596,1011.96
76154,-4.29938,8.43615,0.884744,39.06,19.95,79.73,43.3425,-40.3838,-32.3373,1011.96
76160,-4.8637,8.41224,-0.13869,27.3,26.25,78.4,42.3112,-40.3548,-31.9829,1011.96
76166,-4.99283,8.51745,-0.387374,-3.01,21.7,57.68,42.8555,-40.9915,-32.394,1011.96
76172,-4.83022,8.33094,-0.396939,-20.86,18.9,44.8,42.4831,-41.0783,-31.6993,1011.96
76178,-4.37111,8.11095,-0.129125,-34.79,21.28,36.19,42.5404,-41.4545,-30.4659,1011.95
76184,-2.91726,7.99139,-0.664754,-59.22,25.69,24.5,41.8242,-40.9336,-31.7702,1011.95
76190,-4.3759,7.52272,4.8924,-51.1,0,22.61,41.6523,-41.0783,-32.1105,1011.97
76196,-3.63462,6.05452,5.13152,-21.28,-19.95,17.78,42.2825,-41.1072,-32.9469,1011.97
76202,-1.59254,7.011,2.52032,-6.16,-24.71,10.15,41.8528,-40.8468,-32.1955,1011.97
76208,-2.39598,9.55045,1.23386,-9.66,-20.02,21.49,42.1393,-41.1072,-32.5925,1011.95
76214,-4.18938,9.67001,1.8747,-14.84,-19.25,38.15,42.6263,-40.8468,-32.3798,1011.95
76220,-4.41416,8.79005,1.956,-14.56,-13.51,48.3,41.7669,-41.3098,-32.7768,1011.95
76226,-4.39981,8.37398,1.42516,-19.6,-4.41,53.48,41.7096,-41.3098,-32.6917,1011.95
76232,-4.25155,8.05356,1.25777,-25.83,2.87,49.84,40.9362,-40.3838,-32.2522,1011.95
76238,-4.24677,8.24008,1.15256,-33.04,9.24,47.18,40.9075,-41.9754,-32.876,1011.95
76244,-5.26064,9.33525,0.593018,-52.22,11.27,61.88,41.108,-41.2809,-32.9469,1011.94
76250,-4.83979,8.40746,0.468675,-67.48,25.13,64.26,40.9934,-41.5702,-32.9753,1011.94
76256,-4.24199,8.48876,0.0621712,-70.49,39.76,71.54,40.9934,-41.8018,-32.791,1011.98
76262,-3.80679,11.7551,0.13869,-52.99,44.73,59.64,40.5638,-40.8178,-33.4857,1011.98
76268,-2.84553,15.7293,-1.07604,-20.86,17.78,62.93,40.621,-41.0204,-32.9611,1011.99
76274,-0.841702,13.6633,1.06648,-8.61,43.47,111.02,40.1913,-41.3098,-33.6274,1011.99
76280,-2.1473,11.7934,3.33333,29.75,62.86,143.22,39.5038,-41.2809,-33.2872,1011.98
76286,-3.36203,8.81875,0.946915,51.38,68.32,148.19,39.246,-42.612,-33.9251,1011.98
76292,-3.19943,8.07269,0.196078,51.03,71.75,135.17,39.3892,-43.0461,-32.1672,1011.98
76298,-2.76901,8.00096,-0.0813008,44.31,72.73,119.21,38.9595,-43.7985,-31.4583,1011.93
76304,-3.00813,9.44046,0.11956,32.97,57.12,122.64,38.7304,-44.4063,-30.8771,1011.93
76310,-2.3099,8.84744,-0.310856,15.12,35.35,142.73,37.3553,-45.6796,-31.033,1011.96
76316,-2.06121,8.33572,-0.0382592,-7.28,29.68,155.4,37.1548,-46.2294,-31.5859,1011.96
76322,-3.30942,8.33572,0.526064,-7.42,24.85,164.99,37.3267,-45.5059,-30.2674,1011.98
76328,-2.1999,8.91439,-0.411286,9.24,51.59,155.96,36.4673,-46.432,-30.4517,1011.98
76334,-1.58776,9.69871,-1.7121,33.39,93.52,143.78,35.9516,-47.4448,-30.9905,1011.97
76340,-0.808226,10.0335,-2.59206,52.43,133.56,131.04,36.0949,-47.4448,-30.2249,1011.97
76346,-1.9847,9.50741,-1.26734,56.49,144.13,113.96,35.6938,-48.4577,-27.8148,1011.98
76352,-1.87948,9.81349,-1.41081,59.22,152.46,99.68,36.0662,-48.7182,-27.914,1011.98
76358,-2.97944,9.71784,-0.774749,62.44,147.91,96.81,35.2068,-48.8629,-26.4113,1012.01
76364,-3.25203,9.4022,-1.2769,66.08,129.85,103.53,35.2641,-50.2519,-26.3546,1012.01
76370,-3.22334,10.2917,-0.741272,53.55,110.53,122.5,34.8917,-50.8886,-25.5323,1011.96
76376,-4.30894,11.3965,0.564323,18.83,75.53,144.76,34.9204,-50.8018,-25.5748,1011.96
76382,-3.90722,11.8699,0.602582,-12.04,41.51,163.8,34.4047,-50.6571,-25.4614,1011.96
76388,-1.72645,11.6643,0.573888,-31.43,18.69,186.48,33.9464,-51.7857,-25.0219,1011.96
76394,-1.05213,11.5447,0.37781,-40.46,9.1,209.02,33.2589,-51.6699,-25.3196,1011.96
76400,-1.15256,11.2339,0.444763,-39.62,2.17,232.96,31.9984,-52.7407,-25.5465,1011.96
76406,-1.4395,10.1865,0.420851,-37.1,-7.7,260.4,30.652,-52.7407,-25.9718,1011.96
76412,-1.51124,9.60784,0.626494,-37.17,-9.1,290.64,28.9332,-54.3323,-26.2128,1011.94
76418,-1.52559,8.65136,1.01387,-41.72,-9.1,306.46,26.441,-54.7953,-25.9576,1011.94
76424,-1.53993,8.46007,1.18604,-51.24,-15.89,314.44,24.5217,-54.6506,-26.1419,1011.98
76430,0.487805,8.11573,-0.511717,-35.14,-6.37,322.77,22.4878,-55.2005,-27.191,1011.98
76436,1.72166,7.63749,-0.923003,-18.76,7.28,322.7,21.7429,-55.1137,-26.6239,1011.97
76442,1.76471,7.75227,-0.808226,-0.84,15.26,313.18,19.7663,-55.8082,-26.5247,1011.97
76448,1.9847,8.13486,-0.196078,0.49,10.92,299.18,18.0762,-55.7793,-27.3753,1011.97
76454,2.55858,8.05834,-0.0813008,-3.43,7.91,291.41,16.0136,-56.2712,-26.312,1011.97
76460,4.64371,8.0966,-0.334768,-2.52,13.16,281.05,15.0683,-56.6185,-26.6948,1011.97
76466,3.9407,8.85701,0.569106,6.16,4.34,280.21,13.1776,-56.3002,-26.8933,1011.98
76472,0.023912,10.9613,1.42037,-0.35,-15.61,316.4,11.1151,-56.7632,-26.4821,1011.98
76478,0.860832,11.6834,1.58297,0.98,-42.77,344.4,9.31032,-57.0815,-26.2695,1011.97
76484,7.1736,11.6212,3.90244,23.8,-70.42,320.53,7.50558,-56.8211,-26.0285,1011.97
76490,7.16404,10.4878,-0.148254,30.24,-38.15,333.83,5.6149,-56.5317,-25.6599,1011.95
76496,5.68149,8.37398,-1.58776,43.54,-1.47,363.3,3.00807,-57.0526,-26.227,1011.95
76502,5.82496,5.81062,-1.50167,86.03,21.28,363.09,1.11739,-56.7632,-25.8867,1011.93
76508,6.48972,3.43376,-1.69775,126.35,43.47,341.18,-1.00246,-56.7342,-24.8092,1011.93
76514,6.82927,3.25681,-1.11908,151.62,67.2,307.93,-2.83584,-56.9079,-23.9728,1011.96
76520,7.00143,4.28025,-0.612147,160.02,84.28,280.35,-2.95043,-56.5027,-24.5824,1011.96
76526,6.901,5.72453,0.13869,157.64,90.3,263.2,-5.41403,-57.2551,-23.3632,1011.97
76532,5.72453,9.63175,0.722142,111.51,102.27,238.07,-6.58854,-57.5156,-22.9804,1011.97
76538,5.53802,9.42133,2.95074,66.85,69.72,230.79,-8.56516,-56.7632,-21.4493,1012
76544,6.35103,7.85748,1.42037,33.18,38.36,232.26,-9.28132,-57.0236,-20.5561,1012
76550,6.13104,7.30273,-1.83166,-11.48,24.01,220.43,-9.8829,-56.358,-21.591,1012
76556,5.19847,8.21138,-1.40124,-54.74,9.1,195.51,-11.0001,-56.7342,-21.9455,1011.96
76562,5.20803,8.20182,-0.13869,-84.28,-9.94,193.69,-12.5757,-55.9529,-22.0022,1011.96
76568,6.01626,8.45528,-0.401722,-82.46,-11.9,213.57,-14.1512,-55.7214,-22.47,1011.97
76574,6.44189,8.91439,-0.707795,-70.49,-4.13,235.34,-15.4117,-53.3484,-22.7677,1011.97
76580,6.41798,9.2922,-0.487805,-58.17,-0.07,256.97,-17.0446,-53.7535,-24.0011,1011.97
76586,6.54232,9.08656,-0.25825,-53.41,1.75,286.86,-18.3909,-52.8275,-24.3839,1011.97
76592,6.83405,8.62745,-0.047824,-50.89,-0.98,323.68,-19.9665,-51.7857,-24.3556,1011.95
76598,7.06839,8.21616,0.0095648,-57.68,-7,359.17,-22.0577,-50.8307,-23.6893,1011.95
76604,6.64754,7.58489,-0.703013,-71.05,-20.02,403.62,-23.3182,-49.2969,-24.71,1011.99
76610,6.97274,6.54232,-0.57867,-70.98,-30.59,437.85,-25.8677,-47.9947,-25.2487,1011.99
76616,7.57054,5.52845,-0.392157,-61.46,-38.99,450.45,-28.1594,-46.8371,-24.3981,1011.96
76622,7.7714,4.42372,-0.334768,-51.8,-43.61,442.68,-30.0788,-44.2616,-24.4548,1011.96
76628,7.59445,4.1033,-0.272597,-48.93,-39.97,397.32,-33.545,-42.3227,-24.8518,1011.94
76634,8.02965,3.61071,-0.291726,-41.23,-37.59,375.2,-34.0893,-41.4256,-24.2422,1011.94
76640,8.50311,3.72549,-0.463893,-37.73,-29.75,348.88,-36.0659,-40.0075,-25.107,1011.94
76646,8.74223,3.60593,-0.263032,-39.83,-28.21,343.84,-37.5842,-38.2712,-25.1778,1011.94
76652,9.34003,3.17551,-0.10043,-39.13,-24.36,341.25,-39.6467,-35.985,-24.8801,1011.94
76658,9.78957,2.85031,-0.315638,-44.1,-17.15,331.59,-40.7639,-34.7117,-26.0143,1012
76664,9.76566,1.92252,-0.095648,-57.54,-15.12,317.17,-41.7952,-32.4545,-25.5039,1012
76670,10.7747,0.779531,0.243902,-49.98,-6.65,289.94,-42.3108,-31.731,-26.312,1011.97
76676,11.7743,1.27212,1.82209,-66.78,7.14,279.37,-43.7145,-30.0526,-27.1059,1011.97
76682,11.999,1.956,1.59254,-78.26,9.24,290.78,-44.488,-28.4899,-26.794,1012
76688,12.0134,2.38164,0.263032,-55.02,15.19,304.85,-45.376,-26.8403,-26.8791,1012
76694,11.7838,1.8747,-0.387374,-30.87,26.95,324.38,-46.6938,-24.641,-27.0918,1011.98
76700,12.2956,-0.559541,0.396939,-7.07,34.93,341.04,-46.3214,-23.0204,-27.5454,1011.98
76706,10.1148,-1.17169,0.267814,31.64,41.23,363.09,-48.0115,-22.1522,-26.8224,1011.93
76712,9.78001,-2.45337,-0.0813008,75.32,50.96,367.64,-48.298,-19.5767,-27.3044,1011.93
76718,9.07221,-2.61119,0.210426,103.39,54.6,366.52,-49.2147,-18.5349,-27.6872,1011.93
76724,9.34003,-2.79292,0.688666,121.38,39.76,354.48,-49.1574,-16.1619,-27.8857,1011.93
76730,9.7561,-2.74032,1.41559,132.16,19.18,337.12,-50.4751,-14.7728,-27.914,1011.93
76736,10.2248,-2.07556,1.82688,127.4,-4.76,326.55,-50.8189,-13.3548,-25.9151,1011.92
76742,8.94309,0.535629,0.0095648,97.44,-29.75,318.57,-51.1054,-12.6892,-27.8432,1011.92
76748,8.90005,-0.205643,0.186514,60.83,-44.87,301.77,-51.6783,-10.6056,-26.2411,1011.95
76754,9.03874,-0.927786,0.793878,46.9,-47.81,296.87,-51.9934,-9.07186,-25.8158,1011.95
76760,8.43137,-0.989957,0.73649,5.32,-44.8,281.47,-52.4804,-7.42234,-26.5814,1011.96
76766,8.23051,-1.08082,0.401722,-38.36,-31.57,273.49,-52.7096,-6.00433,-26.1277,1011.96
76772,8.22095,-2.59684,1.75036,-51.52,-27.51,270.97,-53.2538,-3.92073,-25.0219,1011.97
76778,9.0483,-2.98422,0.827355,-64.68,-29.68,259.42,-52.996,-2.24227,-25.9859,1011.97
76784,9.28742,-3.19464,1.10473,-71.89,-33.39,257.81,-52.8528,-0.390182,-25.1211,1011.98
76790,9.25873,-3.30464,0.774749,-62.72,-31.57,272.16,-53.483,1.11464,-25.0644,1011.98
76796,8.68484,-3.7494,0.200861,-57.82,-16.59,290.22,-53.2252,2.01175,-25.7308,1011.96
76802,8.5318,-4.31372,0.21999,-49.63,-8.68,304.64,-53.1679,4.50049,-24.3839,1011.96
76808,8.59397,-4.89718,0.167384,-32.48,-5.67,320.53,-52.7955,6.69985,-24.9935,1011.96
76814,8.84266,-4.28981,-0.851267,-34.72,5.53,345.66,-53.1679,8.29149,-24.5824,1011.98
76820,8.43615,-4.60067,-0.97561,-42.07,26.46,357.14,-52.509,10.2015,-26.2553,1011.98
76826,7.99617,-4.65806,0.129125,-46.55,39.69,348.39,-52.1939,12.1404,-25.8725,1011.98
76832,7.89096,-6.72884,1.51124,-52.71,69.51,359.87,-51.9361,13.9925,-24.6249,1011.98
76838,7.97226,-6.63797,1.53993,-63.21,63.49,342.65,-50.5897,16.9732,-24.866,1011.96
76844,8.56528,-6.49928,1.12865,-56.14,56.14,320.88,-50.246,18.9699,-25.6599,1011.96
76850,6.73362,-6.8484,-0.535629,-63.14,48.58,293.79,-49.5584,20.4169,-26.5247,1011.97
76856,6.19321,-8.34529,0.918221,-35.28,52.99,259.14,-48.6704,21.2851,-26.2553,1011.97
76862,4.93065,-7.49402,-0.186514,-31.78,50.61,236.88,-48.3553,22.9635,-26.7657,1011.95
76868,4.30416,-7.58489,-0.0286944,-32.9,55.86,227.99,-47.5818,23.8027,-26.4254,1011.95
76874,4.95457,-7.99617,-0.0382592,-39.48,53.62,221.69,-47.3526,24.7577,-27.4887,1012
76880,4.36155,-7.00143,0.148254,-49.21,44.31,227.99,-46.1781,25.6838,-27.2335,1012
76886,4.27068,-7.16404,-0.0573888,-59.43,39.48,231.77,-45.7771,27.2465,-26.9925,1011.97
76892,4.06504,-7.74271,0.071736,-59.29,34.44,233.8,-44.5453,28.9539,-26.3262,1011.97
76898,3.57245,-8.39789,0.0191296,-53.9,35.7,231.7,-43.3708,29.6195,-27.4745,1011.97
76904,3.40985,-8.37877,-0.23912,-55.02,31.29,224.7,-43.4567,30.8349,-26.0285,1011.96
76910,3.86896,-7.90531,-0.511717,-59.99,23.17,231.28,-41.4515,31.7031,-27.5171,1011.96
76916,3.912,-7.75705,-0.712578,-59.85,30.94,243.18,-40.9358,33.2368,-26.3971,1011.95
76922,3.77331,-7.64706,-1.39168,-60.55,39.13,260.82,-39.79,34.4233,-26.7373,1011.95
76928,2.87422,-7.8527,-0.368245,-63.56,48.58,272.02,-38.5009,35.1757,-26.6665,1011.96
76934,3.40507,-8.73744,-0.827355,-62.79,52.92,273.98,-37.4696,36.6516,-26.0285,1011.96
76940,3.71592,-10.33,-0.296509,-53.69,58.24,265.23,-36.7248,37.404,-26.4113,1012.01
76946,3.35246,-11.1191,0.387374,-41.02,55.16,245.56,-35.2924,37.896,-27.191,1012.01
76952,3.06552,-11.3917,0.516499,-28.42,50.89,224.84,-35.2638,40.1822,-27.5738,1011.97
76958,2.70684,-11.0234,0.191296,-19.95,44.17,206.64,-33.3445,39.9217,-28.3394,1011.97
76964,2.5825,-10.3826,0.148254,-14.77,42.98,199.99,-32.2272,40.0953,-27.2619,1011.93
76970,1.8747,-9.42133,-0.640842,-14.63,45.64,205.24,-31.2819,41.4555,-27.7156,1011.93
76976,1.4395,-9.05308,-1.05213,-15.61,47.74,216.58,-30.136,42.179,-27.5171,1011.96
76982,0.769966,-8.87135,-1.41559,-17.5,47.53,225.19,-28.6751,42.8735,-27.4887,1011.96
76988,0.669536,-9.25873,-1.25777,-17.36,43.61,226.1,-28.0735,44.0021,-28.3535,1011.96
76994,0.439981,-9.76566,-1.04735,-12.74,36.54,220.57,-26.5266,43.3365,-27.6872,1011.97
77000,0.416069,-10.11,-0.999522,-6.51,28.84,210.63,-25.0942,44.4651,-27.9849,1011.97
77006,0.526064,-10.3587,-0.961262,-1.4,23.31,202.44,-23.6333,44.8413,-27.9991,1012
77012,0.95648,-10.5643,-0.5978,3.29,19.46,193.2,-23.2036,45.1307,-27.673,1012
77018,1.1143,-10.77,-0.353898,8.05,18.55,183.12,-23.2322,45.5359,-28.2543,1011.98
77024,0.808226,-10.3969,0.0526064,7.7,23.17,179.13,-21.4561,45.941,-28.5237,1011.98
77030,0.750837,-10.043,-0.234338,4.97,32.9,185.29,-20.5108,46.1725,-28.7363,1011.99
77036,0.903874,-9.81827,-0.535629,2.52,43.89,191.45,-19.6227,46.5198,-29.2467,1011.99
77042,1.05213,-9.86609,-0.61693,1.12,52.01,188.93,-17.9899,47.1275,-29.2609,1011.99
77048,0.994739,-10.1052,-0.0765184,2.1,53.41,178.15,-17.1018,47.4169,-29.19,1011.99
77054,0.540411,-10.7078,0.401722,5.39,52.08,165.62,-16.0992,47.0407,-29.2042,1011.98
77060,0.0813008,-11.296,0.674318,14.14,51.17,150.99,-16.0419,46.6934,-29.8988,1011.98
77066,-0.712578,-12.0708,0.779531,28.63,53.34,140.7,-13.8934,47.7642,-28.8923,1011.99
77072,-0.951698,-11.7886,0.530846,34.44,48.44,132.3,-13.2346,47.5905,-30.1257,1011.99
77078,-0.932568,-11.4634,0.593018,42.21,41.86,122.5,-12.6616,48.2561,-30.2958,1011.99
77084,-1.53037,-10.5117,0.535629,46.34,33.95,115.43,-11.2866,47.7063,-29.7287,1011.99
77090,-1.88427,-10.0813,0.0334768,40.95,22.75,107.38,-10.8569,47.5616,-29.9414,1011.99
77096,-2.30512,-9.37829,-0.846485,31.57,6.51,95.41,-11.2579,47.9089,-31.189,1011.96
77102,-10.7843,-1.17169,-9.51219,-123.2,-123.97,106.96,-10.2553,47.5037,-30.0548,1011.96
77108,-1.42516,-8.71353,-2.60163,-115.36,-91.84,100.31,-9.22403,48.806,-29.2467,1011.95
77114,-1.80296,-9.39263,-1.3869,-76.3,-35.28,91.07,-9.62508,49.0375,-29.4026,1011.95
77120,-1.08082,-10.5356,0.13869,10.5,13.79,75.53,-9.28132,48.5744,-29.7854,1011.93
77126,-0.607365,-10.0383,-0.401722,58.52,24.5,53.76,-8.90892,48.314,-29.2325,1011.93
77132,-1.08082,-9.09613,-0.47824,60.83,12.11,37.8,-8.39328,48.2272,-29.4735,1011.93
77138,-1.65471,-7.4462,-0.722142,32.9,-7.98,35.28,-8.82298,48.0535,-29.3176,1011.93
77144,-8.02487,-3.32855,-1.15256,-30.1,-57.33,87.43,-8.16411,47.8799,-29.2892,1011.96
77150,-4.56241,-7.26925,-5.2989,-80.36,-37.87,147.21,-7.30471,48.8349,-29.7145,1011.96
77156,-3.42898,-9.22047,-3.5868,-77.84,-9.87,160.93,-6.96095,49.3558,-28.4386,1011.96
77162,-3.70158,-8.89526,-1.74558,-74.69,-21.91,148.12,-6.73178,48.8349,-28.1976,1011.94
77168,-3.1516,-10.2582,0.167384,-60.13,-40.18,120.68,-5.98697,50.224,-28.4669,1011.94
77174,-3.15638,-10.6982,0.5978,-35.98,-38.57,97.02,-5.04163,50.2818,-27.2335,1011.98
77180,-2.74032,-11.0856,0.210426,-18.97,-30.1,82.6,-5.35674,50.0503,-28.5662,1011.98
77186,-2.58728,-11.2865,-0.11956,-4.48,-28.77,61.53,-4.69787,49.5873,-28.0558,1011.95
77192,-2.60163,-11.0904,-0.143472,-1.05,-40.53,33.88,-4.61193,50.2529,-27.5171,1011.95
77198,-2.40555,-10.8034,-0.0334768,-5.25,-52.71,6.86,-4.66922,50.9185,-26.9642,1011.95
77204,-1.75514,-10.4926,0.253467,-8.33,-59.29,-23.59,-4.23952,50.9185,-26.553,1011.95
77210,-1.79818,-11.1478,2.17599,28.35,-58.1,-52.22,-4.4687,50.1371,-27.7864,1011.98
77216,-2.31468,-11.406,1.05213,54.6,-66.71,-59.64,-5.04163,50.9185,-27.0776,1011.98
77222,-2.41511,-10.7604,-0.463893,54.67,-80.29,-65.1,-5.24215,50.9185,-27.3044,1011.98
77228,-2.67814,-10.0191,-0.439981,57.96,-86.31,-71.96,-6.67448,50.3397,-28.8072,1011.98
77234,-3.04161,-9.45959,-0.860832,51.38,-100.73,-73.64,-6.81772,51.0053,-28.708,1011.97
77240,-2.58728,-9.43089,-0.908656,49.42,-96.53,-77,-7.59118,50.4844,-28.2826,1011.97
77246,-2.90292,-8.48398,-1.56863,45.15,-91.98,-73.5,-9.10945,50.3108,-28.1125,1011.97
77252,-2.05165,-8.68962,-1.67862,44.31,-78.47,-73.36,-8.73704,49.9635,-28.8781,1012
77258,-2.08513,-9.04352,-0.071736,55.37,-71.54,-73.99,-9.91155,50.1371,-29.2325,1012
77264,-2.06121,-10.2248,0.435198,75.25,-62.3,-69.65,-9.30997,49.6162,-30.8487,1011.99
77270,-1.70732,-10.3395,-0.114778,76.51,-62.93,-72.94,-10.7137,49.1532,-29.7996,1011.99
77276,-1.25299,-10.2152,0.344333,66.57,-71.89,-77.63,-11.4871,50.0503,-29.3885,1011.96
77282,-1.38211,-11.0426,1.5208,71.19,-76.23,-74.69,-12.4038,49.6452,-29.9272,1011.96
77288,-1.22908,-11.2052,1.033,72.45,-77.35,-73.15,-12.7762,48.8928,-28.9206,1011.95
77294,-1.45863,-11.0617,1.01865,66.57,-77.42,-73.64,-13.034,48.7481,-29.0199,1011.95
77300,0.143472,-10.0478,1.16691,63.28,-81.34,-84.56,-13.4637,48.8349,-30.2674,1011.94
77306,0.468675,-9.92348,1.67862,64.61,-87.71,-92.89,-14.9534,48.2851,-30.6219,1011.94
77312,0.0191296,-10.3156,2.02296,76.86,-86.38,-93.87,-15.4117,47.359,-30.3525,1011.95
77318,0.468675,-11.6356,1.99904,109.55,-66.01,-94.5,-16.0133,47.0986,-30.9338,1011.95
77324,0.0860832,-10.0909,0.35868,115.01,-64.82,-107.1,-16.0419,46.6645,-30.8487,1011.98
77330,-0.109995,-9.36872,0.731707,101.15,-77.91,-125.58,-17.1878,45.941,-31.0614,1011.98
77336,0.133907,-9.66045,1.55428,90.23,-85.82,-135.17,-18.1618,45.3044,-32.5358,1011.98
77342,0.636059,-9.40698,1.51124,76.09,-92.4,-143.22,-19.8519,45.3333,-30.8912,1011.95
77348,0.45911,-9.11047,1.75514,60.69,-97.3,-148.68,-20.5681,44.6098,-32.2381,1011.95
77354,0.277379,-8.86657,1.37733,43.19,-94.64,-146.02,-21.2556,44.1468,-31.3591,1011.96
77360,-0.0047824,-8.80918,1.19082,29.96,-85.54,-140.63,-21.4275,44.1468,-31.756,1011.96
77366,-0.35868,-9.2109,1.73123,23.8,-78.33,-136.43,-23.003,43.105,-31.7844,1011.97
77372,-0.306074,-9.96174,1.86035,17.92,-75.04,-132.02,-24.0057,43.2497,-31.6852,1011.97
77378,-0.315638,-10.0383,1.77905,15.89,-73.5,-125.93,-24.7218,43.105,-31.0188,1011.94
77384,0.0621712,-9.99522,1.41081,16.24,-72.24,-120.26,-26.6985,41.9474,-31.5434,1011.94
77390,0.45911,-10.5261,1.23386,18.83,-74.55,-108.78,-26.5266,41.8317,-31.6284,1011.99
77396,0.798661,-10.2343,1.43472,19.25,-68.04,-105.63,-27.2427,42.2079,-30.5793,1011.99
77402,0.569106,-9.54089,1.70732,16.38,-66.85,-98.98,-27.7297,41.8606,-31.1322,1011.98
77408,0.707795,-9.11525,1.53993,6.58,-62.23,-94.29,-28.2167,41.2818,-30.7636,1011.98
77414,0.382592,-8.32616,1.47298,-5.53,-58.24,-84.98,-28.5318,41.2529,-31.1322,1011.98
77420,0.13869,-7.75227,1.20516,-18.69,-54.32,-71.68,-29.5345,40.3847,-30.2674,1011.94
77426,-0.0334768,-7.68053,1.16691,-28,-51.17,-54.39,-29.8496,40.6162,-30.0548,1011.94
77432,0.210426,-7.87183,0.85605,-40.95,-48.37,-39.2,-29.9069,40.9346,-29.7287,1011.99
77438,0.526064,-8.23529,0.942133,-53.76,-49.28,-25.41,-31.2246,40.732,-30.0264,1011.99
77444,0.229555,-8.34051,-1.14778,-64.54,-34.51,-10.22,-30.0788,40.7609,-30.3242,1011.96
77450,-0.961262,-8.14443,-1.36777,-66.01,1.26,8.12,-29.9642,41.687,-29.5302,1011.96
77456,-0.626494,-9.01961,0.913438,-50.96,3.92,18.06,-30.5371,41.5134,-29.3743,1012.01
77462,0.133907,-10.0048,0.879962,-42.84,1.89,14.91,-30.4512,40.8767,-29.0624,1012.01
77468,0.808226,-10.2965,1.01387,-35.42,-6.65,7.07,-29.7923,41.4265,-28.6796,1011.98
77474,1.10952,-10.0956,1.33907,-31.57,-17.92,2.03,-29.7923,41.4265,-28.3677,1011.98
77480,1.33907,-10.4304,1.44907,-30.03,-27.58,-5.18,-29.3626,41.8027,-28.9773,1011.99
77486,1.64036,-10.9087,1.29603,-32.62,-34.09,-16.1,-30.709,41.6002,-27.8573,1011.99
77492,1.3869,-10.5404,1.31994,-31.85,-52.22,-36.47,-30.8522,41.8317,-27.4604,1011.98
77498,1.55428,-11.0234,1.09039,-22.19,-62.58,-51.73,-31.8262,41.2529,-27.4604,1011.98
77504,2.23816,-11.7073,1.09517,-4.9,-73.5,-64.33,-31.7116,41.4844,-26.0994,1011.98
77510,2.74988,-11.5495,1.35342,10.01,-84.49,-79.1,-31.8262,41.4555,-27.0351,1011.97
77516,2.21425,-10.6361,1.65471,22.33,-98.21,-88.9,-32.1986,41.5134,-27.2619,1011.97
77522,2.05165,-10.5165,1.14778,37.24,-107.66,-94.57,-33.2585,40.5873,-27.5029,1011.92
77528,1.23864,-10.3874,0.023912,56.21,-99.82,-90.09,-34.0893,40.732,-26.709,1011.92
77534,1.27212,-10.11,0.200861,71.75,-87.71,-84.56,-34.5763,39.4298,-26.3829,1011.97
77540,1.10952,-9.84218,0.449546,84.42,-76.72,-77,-36.0372,39.777,-26.0568,1011.97
77546,1.83644,-9.08656,0.932568,91.28,-67.62,-72.17,-35.8654,39.4298,-26.2837,1011.97
77552,2.38164,-8.56528,1.17169,94.08,-59.29,-67.97,-35.6935,38.9089,-26.4254,1011.97
77558,2.84553,-7.97226,1.10952,89.6,-43.82,-60.55,-36.6961,38.4169,-26.4821,1011.96
77564,3.02248,-7.66619,1.14299,77.91,-32.27,-52.22,-36.2091,37.433,-27.0776,1011.96
77570,3.07508,-7.75227,1.53037,66.43,-21.7,-45.15,-36.0659,37.5198,-26.3262,1011.92
77576,3.19943,-8.82353,1.45385,50.61,-10.92,-38.78,-36.9826,37.2015,-26.794,1011.92
77582,1.34385,-9.50263,2.28599,28.49,-23.17,-29.12,-37.4696,36.7384,-27.0351,1011.95
77588,0.23912,-12.7116,3.56289,7.84,-36.26,-43.89,-36.8393,36.3333,-26.7657,1011.95
77594,0.0526064,-12.1425,3.08943,-17.57,-33.53,-56.07,-37.1258,37.4619,-26.8224,1011.95
77600,0.93735,-9.87087,2.23816,-43.68,-42.42,-55.58,-37.756,36.5648,-26.1844,1011.97
77606,1.65949,-9.33046,1.21473,-52.43,-54.25,-41.37,-38.6154,37.1725,-26.2978,1011.97
77612,1.98948,-9.15351,0.559541,-45.78,-59.57,-20.44,-38.3863,37.3172,-26.5247,1011.95
77618,1.93687,-8.81875,0.722142,-32.76,-63.21,-5.18,-38.7587,37.2304,-24.6675,1011.95
77624,1.6308,-8.51745,0.726925,-25.83,-62.37,-1.47,-39.1311,37.2883,-24.7525,1011.96
77630,1.22429,-8.20182,0.760402,-22.96,-60.9,-1.47,-38.243,37.1725,-24.313,1011.96
77636,1.5495,-8.18747,0.650406,-21.49,-52.5,-1.33,-38.9878,37.4908,-23.6609,1011.94
77642,1.88905,-8.58919,0.707795,-19.39,-44.59,-2.52,-39.2457,37.404,-24.1146,1011.94
77648,2.41033,-9.92348,0.942133,-17.22,-41.02,-9.24,-38.816,37.7802,-24.5115,1011.96
77654,2.41511,-10.7365,1.29603,-6.3,-44.03,-19.04,-39.704,38.0986,-24.2138,1011.96
77660,2.86944,-10.9613,0.827355,-0.7,-50.96,-31.5,-40.191,37.896,-22.4984,1011.96
77666,4.50024,-11.2195,-0.11956,-16.94,-66.22,-50.47,-39.8186,37.5777,-23.0796,1011.96
77672,3.95504,-11.5256,1.0043,-16.45,-75.74,-58.24,-40.3629,37.3172,-23.6467,1011.95
77678,3.1803,-8.73744,1.21473,-15.54,-71.26,-59.36,-40.9931,37.1725,-22.4133,1011.95
77684,3.78766,-9.00526,0.755619,-24.85,-68.6,-52.71,-41.2509,36.5937,-22.2999,1011.95
77690,4.47154,-9.66523,0.526064,-39.9,-71.33,-49.21,-40.8212,36.7095,-21.4918,1011.99
77696,4.6724,-9.87566,0.511717,-54.11,-72.94,-48.16,-41.7379,36.941,-20.8113,1011.99
77702,4.2946,-9.92348,0.899091,-67.48,-75.67,-46.27,-42.4541,37.0278,-21.2791,1011.97
77708,3.64419,-9.81827,0.93735,-78.82,-81.76,-37.94,-42.1963,37.2883,-20.3151,1011.97
77714,3.56289,-9.50741,1.01387,-84.7,-89.81,-29.75,-42.5687,36.9989,-19.507,1011.98
77720,4.23242,-9.55045,0.765184,-79.52,-95.13,-25.76,-42.5114,37.6934,-18.6138,1011.98
77726,4.11765,-9.3735,0.373027,-70.07,-100.03,-29.33,-42.9697,37.7224,-18.387,1011.96
77732,3.46246,-9.99043,0.793878,-61.74,-109.27,-36.05,-42.9124,37.433,-17.3804,1011.96
77738,3.58202,-10.4639,1.19082,-47.95,-123.13,-49.84,-43.9724,37.2015,-17.026,1011.95
77744,3.30942,-10.8274,1.04256,-38.43,-131.95,-60.97,-43.1129,37.4908,-16.388,1011.95
77750,3.3955,-10.6456,0.808226,-35.07,-136.22,-66.99,-44.5453,36.3044,-16.6857,1011.91
77756,3.4242,-10.7461,1.41559,-26.11,-143.22,-69.02,-44.9463,37.0568,-14.9845,1011.91
77762,3.63941,-10.2343,0.942133,-10.36,-141.54,-68.18,-45.8057,36.7963,-14.4883,1011.91
77768,3.61071,-9.52654,0.908656,4.41,-136.57,-64.4,-45.6052,36.3622,-12.6169,1011.92
77774,2.48685,-9.1583,0.640842,15.82,-112.42,-63.77,-45.9776,36.7963,-13.1982,1011.92
77780,2.49641,-8.74701,1.3056,26.67,-103.95,-71.26,-46.6651,36.6806,-12.305,1011.94
77786,3.16595,-8.39789,2.95552,47.18,-118.93,-83.51,-46.2927,35.6098,-11.6103,1011.94
77792,2.75944,-7.20229,0.535629,62.93,-124.81,-78.26,-47.1521,35.8124,-11.6245,1012
77798,2.96031,-7.21664,-0.129125,66.36,-123.41,-56.35,-47.5245,34.7127,-10.1359,1012
77804,3.78766,-7.20229,-0.114778,63.28,-119.14,-35.21,-47.0662,35.1757,-10.4053,1011.92
77810,3.51506,-7.64228,-0.0573888,57.68,-118.93,-24.22,-47.0089,35.2915,-11.185,1011.92
77816,3.28073,-8.00096,0.545194,56.63,-131.11,-16.1,-47.5818,34.6838,-10.221,1011.96
77822,3.31899,-8.46007,0.803443,58.73,-143.36,-13.58,-48.298,34.6548,-9.31363,1011.96
77828,3.62506,-8.31659,0.822573,64.75,-154.98,-13.16,-48.0402,34.5391,-9.79565,1011.99
77834,2.7977,-8.10617,0.573888,68.18,-167.65,-12.95,-48.7563,34.2786,-8.78907,1011.99
77840,2.88857,-8.08704,0.492587,65.31,-179.41,-7.63,-48.6131,34.3365,-7.54149,1011.96
77846,3.7781,-8.75657,0.889526,64.12,-188.93,-2.52,-48.6704,35.2626,-7.05946,1011.96
77852,4.39981,-9.34003,0.73649,63.07,-199.99,-7.21,-48.8136,34.5391,-7.39971,1011.96
77858,4.23242,-9.82783,1.23864,60.76,-222.6,-25.9,-49.0142,34.105,-5.31567,1011.98
77864,3.04161,-8.75657,1.23864,62.02,-245.28,-31.5,-49.9022,33.4394,-4.81947,1011.98
77870,3.06074,-7.934,0.693448,69.09,-247.38,-21,-49.4152,33.5262,-3.85543,1011.96
77876,4.27068,-8.11573,-0.731707,65.45,-242.41,-24.22,-50.246,34.0761,-2.80632,1011.96
77882,3.87853,-7.81922,-1.77905,53.06,-228.62,-28.35,-50.4465,34.3654,-1.40278,1011.99
77888,2.92683,-7.36011,-2.27164,49.84,-206.78,-20.23,-49.9308,34.105,-1.44531,1011.99
77894,2.30512,-6.75753,-2.91726,49.77,-175.07,-9.52,-49.9022,33.7577,-0.382029,1011.99
77900,2.22382,-6.36537,-3.32377,40.46,-147.07,-4.76,-49.8735,32.8317,0.638726,1011.99
77906,2.61597,-6.8484,-3.36203,31.01,-126.35,-9.8,-49.8163,33.2368,1.04986,1012
77912,2.78336,-7.34098,-2.989,13.93,-119.49,-15.68,-50.5611,33.4973,2.38251,1012
77918,2.89813,-7.90053,-1.86035,-5.39,-125.02,-21.42,-49.3293,33.0053,3.78605,1011.96
77924,2.7977,-8.15877,-1.45385,-18.55,-133.21,-26.25,-50.5897,32.5712,3.00631,1011.96
77930,2.81683,-8.50311,-1.09039,-28.21,-139.16,-27.79,-50.1314,33.0921,4.31061,1011.92
77936,2.7164,-8.50789,-0.985174,-36.4,-143.08,-24.43,-51.3918,33.179,5.9268,1011.92
77942,2.82162,-8.52702,-0.860832,-39.76,-142.03,-21.56,-50.1887,32.687,5.79921,1011.92
77948,3.27116,-8.79962,-0.688666,-37.59,-140.42,-22.47,-50.8762,32.3108,6.7349,1011.96
77954,3.48159,-8.89526,-0.69823,-33.32,-142.24,-25.2,-50.9048,32.4555,6.80578,1011.96
77960,3.71592,-9.1296,-0.559541,-26.74,-147.07,-30.03,-50.5324,32.6002,8.97488,1011.95
77966,3.50072,-9.45002,-0.0095648,-16.17,-164.71,-40.04,-49.9881,32.2818,9.41438,1011.95
77972,3.12769,-8.94787,0.0526064,-9.24,-192.01,-51.87,-50.1314,32.5134,10.7754,1011.98
77978,2.80727,-8.30225,-0.784314,-7.42,-212.31,-60.48,-50.5611,31.3269,11.1582,1011.98
77984,2.56815,-8.13486,-1.31994,-8.05,-228.97,-66.43,-50.6184,31.732,13.2564,1011.96
77990,2.066,-8.25442,-1.54472,-6.72,-240.59,-68.53,-50.6184,31.7899,13.4832,1011.96
77996,1.956,-8.58441,-1.51124,0.7,-246.54,-67.83,-50.3033,30.2851,15.2554,1011.95
78002,1.88905,-8.56528,-1.32951,13.3,-253.61,-65.24,-50.16,30.5455,16.2336,1011.95
78008,2.29555,-8.27833,-1.47776,22.82,-254.45,-65.24,-49.4152,30.6034,17.9632,1011.94
78014,2.43424,-8.29268,-2.24773,30.24,-240.94,-61.25,-48.9569,29.6484,19.4376,1011.94
78020,2.61597,-7.81444,-4.35677,27.44,-206.64,-49,-49.0714,30.1404,20.7277,1011.96
78026,2.75466,-7.63749,-5.09804,14.84,-164.57,-34.09,-48.6131,29.1275,20.7844,1011.96
78032,3.00335,-8.07747,-5.25108,3.92,-127.26,-22.61,-48.1834,29.5037,21.2665,1011.96
78038,3.3142,-8.71832,-4.63893,-6.37,-97.3,-15.26,-47.6678,29.7352,22.1454,1011.96
78044,3.40507,-8.87135,-3.9933,-12.81,-85.96,-11.2,-47.9256,29.1275,23.308,1011.96
78050,3.49115,-8.81396,-3.19943,-15.12,-85.47,-7.91,-47.8683,29.0407,22.4573,1011.96
78056,3.51028,-8.83788,-3.09421,-13.86,-87.15,-5.11,-48.0402,28.3751,23.4639,1011.96
78062,3.25681,-8.93352,-3.04639,-12.39,-87.78,-4.83,-47.6678,28.9539,23.8325,1011.95
78068,3.18986,-9.10091,-2.94596,-8.19,-88.83,-7.63,-47.6391,28.6934,24.1728,1011.95
78074,3.06074,-9.01961,-2.88857,-6.51,-94.43,-13.16,-46.6078,28.9828,26.2994,1011.94
78080,2.88379,-8.6944,-2.96987,-7.84,-104.51,-19.39,-46.8084,27.9699,26.2001,1011.94
78086,2.86466,-8.74223,-2.69249,-7.49,-120.4,-26.53,-46.6365,27.9989,26.0442,1012.01
78092,3.06074,-9.13438,-2.18556,0.14,-143.99,-34.58,-46.3787,28.0857,27.2492,1012.01
78098,3.40507,-9.13438,-1.97991,12.18,-176.54,-41.51,-46.6078,28.3751,27.873,1011.98
78104,3.81636,-9.00048,-2.18077,19.32,-210.63,-46.97,-45.0609,27.8831,29.3049,1011.98
78110,4.19895,-9.0483,-3.38594,19.04,-242.55,-50.4,-45.1755,28.0278,30.6376,1011.98
78116,4.30894,-9.22047,-4.26112,17.43,-259.84,-48.02,-44.9177,27.5359,31.3322,1011.92
78122,4.39981,-9.18221,-5.66236,14.42,-258.09,-41.16,-43.4567,27.1307,32.2821,1011.92
78128,4.42372,-9.31612,-6.97274,6.44,-231.14,-28.91,-43.0557,27.7674,34.7489,1011.96
78134,2.70684,-9.3209,-7.70923,-1.89,-183.68,-11.34,-42.4827,26.6388,34.9049,1011.96
78140,2.73553,-9.09134,-7.34577,-3.99,-139.79,2.8,-41.4515,27.2754,35.2593,1011.99
78146,2.63032,-8.9957,-6.75753,-6.23,-98.21,10.01,-41.1936,26.986,35.2026,1011.99
78152,2.59684,-8.77092,-5.08847,-0.98,-74.9,10.29,-40.5348,26.8124,34.7773,1011.97
78158,2.40076,-8.51745,-4.17025,9.38,-73.29,5.11,-40.7353,27.1018,34.834,1011.97
78164,2.34816,-8.60832,-3.19464,20.65,-85.61,-3.64,-40.0191,27.1018,36.8471,1011.93
78170,2.59684,-9.03395,-2.69727,35.42,-102.27,-12.95,-39.8186,27.3622,36.6628,1011.93
78176,3.35246,-9.18699,-2.74032,56.91,-108.99,-17.36,-39.3603,27.8831,38.0097,1011.94
78182,3.912,-8.54137,-2.37207,83.02,-110.53,-16.38,-39.0451,27.3622,38.3925,1011.94
78188,3.82114,-8.34529,-2.42468,102.06,-112.49,-13.3,-38.4149,28.2304,38.2365,1011.94
78194,3.7781,-8.28312,-2.33381,116.34,-116.34,-13.65,-38.0998,27.8831,37.315,1011.94
78200,3.88331,-8.03443,-2.23816,124.11,-122.85,-15.96,-37.4696,27.7674,38.194,1011.94
78206,5.37064,-7.06839,-1.80296,116.62,-129.92,-4.9,-37.0399,28.5198,37.8254,1011.95
78212,6.1693,-7.64706,-1.19082,109.9,-148.54,3.01,-37.0399,29.4748,39.2289,1011.95
78218,6.2219,-8.46963,-1.7934,100.59,-167.51,9.24,-36.1518,30.2851,38.9454,1011.93
78224,6.19799,-8.29268,-2.40555,88.55,-180.25,21.49,-34.9773,30.1982,38.8887,1011.93
78230,5.92061,-8.16834,-2.45815,73.99,-193.34,34.65,-34.3757,29.8799,40.0654,1012
78236,4.99761,-9.68436,-4.50024,72.94,-193.9,29.96,-34.1752,30.5744,40.278,1012
78242,3.45289,-9.76088,-6.25538,92.33,-172.27,5.04,-32.4278,30.9507,40.037,1011.98
78248,1.93687,-7.45098,-4.97848,92.68,-164.99,0.7,-32.0554,31.0664,42.121,1011.98
78254,0.894309,-8.88092,-3.59158,67.97,-155.19,-4.55,-30.709,31.7609,40.8026,1012
78260,1.4395,-8.87613,-4.2946,47.04,-128.73,-4.76,-29.9355,32.0793,41.7383,1012
78266,1.92252,-8.88092,-4.64371,52.85,-102.27,2.1,-30.222,32.2818,42.3337,1011.98
78272,1.32472,-8.967,-4.71066,78.82,-76.58,3.29,-29.4772,32.3397,41.8375,1011.98
78278,0.549976,-8.49833,-4.28981,97.58,-64.89,-2.03,-29.248,32.8896,41.1003,1011.95
78284,0.167384,-7.93878,-2.99378,101.85,-63.42,-6.23,-28.3313,33.2368,40.8167,1011.95
78290,0.416069,-7.92922,-2.07078,97.72,-65.66,-7.21,-28.5891,33.4105,41.6674,1011.95
78296,0.932568,-7.97226,-0.946915,94.78,-69.3,-3.57,-28.1881,34.1918,40.6183,1011.96
78302,1.05213,-8.15399,-0.516499,97.02,-70.84,2.17,-28.1308,34.7706,41.9226,1011.96
78308,1.23864,-8.30225,-0.908656,104.3,-65.8,7.56,-28.7324,34.7995,40.916,1012
78314,0.927786,-8.44572,-1.26255,111.79,-58.38,12.04,-26.7271,35.5809,40.6324,1012
78320,0.645624,-8.65614,-1.02822,126.7,-49.91,17.5,-27.1568,36.5648,40.3631,1012
78326,-0.425634,-7.64706,-0.454328,137.41,-50.19,17.15,-26.9563,36.9699,39.8811,1012
78332,-0.047824,-7.64228,-1.59732,141.82,-46.83,18.48,-25.925,37.6355,40.8735,1011.97
78338,1.27212,-9.08178,-2.56815,131.39,-50.68,24.64,-26.813,36.7674,39.7535,1011.97
78344,1.51602,-9.13438,-4.5911,92.75,-74.83,28.56,-26.0109,38.5326,39.073,1011.96
78350,1.95122,-9.28264,-5.23673,64.12,-91.28,34.23,-25.4667,38.1854,39.2147,1011.96
78356,2.31468,-9.81349,-4.05548,44.17,-104.02,40.46,-24.9224,38.6195,39.2998,1012
78362,2.66858,-9.93783,-3.82592,25.9,-113.05,40.04,-23.3468,39.1404,39.5692,1012
78368,2.53467,-9.87566,-2.4725,13.58,-124.53,41.3,-23.6619,38.7642,39.1438,1011.96
78374,2.19034,-9.61262,-1.69775,0.7,-142.38,45.01,-22.5447,39.314,40.5332,1011.96
78380,1.25299,-9.24438,-0.913438,-11.41,-168.21,49.07,-21.8572,39.4008,41.0719,1011.96
78386,1.10473,-8.90483,-0.875179,-21.7,-194.74,52.99,-20.4535,39.1114,40.8167,1011.98
78392,1.17169,-9.57436,-0.329986,-22.05,-228.97,52.22,-19.5941,39.5744,41.8517,1011.98
78398,1.01387,-11.2673,2.28599,1.96,-269.85,47.74,-17.9899,39.2561,42.5889,1011.96
78404,1.04735,-11.4204,2.41033,30.38,-300.51,46.83,-16.5003,39.0535,43.4537,1011.96
78410,1.20995,-11.1382,1.77905,62.51,-325.01,45.36,-14.6955,39.314,43.4962,1011.95
78416,0.774749,-10.8178,1.09517,91.28,-342.44,47.39,-13.1773,39.9796,44.361,1011.95
78422,0.301291,-10.7317,0.631277,113.96,-355.39,47.67,-10.7423,40.5584,43.8932,1011.95
78428,-0.176949,-10.5739,0.157819,138.25,-363.44,49.07,-8.67975,40.24,44.0491,1011.95
78434,0.267814,-10.4591,-0.248685,165.76,-359.52,48.93,-7.01824,41.1661,43.0284,1011.93
78440,0.511717,-10.9326,-0.554758,190.96,-350.42,47.25,-3.72389,41.4844,44.5312,1011.93
78446,0.923003,-10.8369,-0.97561,202.93,-339.71,43.61,-2.57802,42.5262,42.3904,1011.96
78452,1.71688,-10.4782,-0.549976,215.25,-322.42,49.07,-0.630053,44.1468,42.4897,1011.96
78458,2.07078,-10.7174,-0.387374,228.06,-306.25,56.56,1.4325,44.7256,40.4481,1011.96
78464,2.18077,-10.7365,-0.688666,234.64,-288.26,61.32,0.945509,45.3912,40.0654,1011.98
78470,2.11382,-11.0426,-0.688666,243.18,-271.04,61.25,3.92476,46.0278,38.4633,1011.98
78476,1.4395,-11.2817,-0.549976,251.23,-254.52,55.79,4.98468,47.3011,36.6203,1011.93
78482,0.655189,-11.516,-0.97561,260.54,-231.98,44.52,7.01859,48.6323,36.0532,1011.93
78488,0.49737,-11.0378,-1.56863,265.09,-203.98,34.23,8.04986,49.8188,34.0826,1011.98
78494,0.0573888,-10.0956,-1.38211,261.45,-190.89,27.79,8.30768,50.6581,32.0411,1011.98
78500,0.229555,-9.62697,-0.879962,249.69,-183.12,22.19,9.53949,51.4973,31.9986,1011.98
78506,0.607365,-9.80392,-0.841702,241.01,-172.41,18.9,10.9718,51.6998,30.2831,1011.98
78512,0.951698,-10.9039,-0.655189,230.51,-163.94,12.39,10.3702,53.2047,28.2841,1011.97
78518,0.899091,-10.8752,-0.774749,218.12,-154.63,9.1,10.9718,53.7545,26.3419,1011.97
78524,0.45911,-10.9947,-0.683883,200.34,-153.86,9.38,11.4015,54.1597,25.5196,1011.94
78530,0.215208,-10.7365,-0.545194,182.21,-155.26,11.2,12.4041,54.5648,24.4847,1011.94
78536,-0.186514,-10.3204,-0.200861,163.31,-156.66,19.04,13.9797,55.896,21.791,1011.94
78542,-0.966045,-9.4022,-0.0286944,143.92,-156.59,32.69,13.7219,55.1436,21.2948,1011.94
78548,-3.1803,-7.78096,-0.0765184,115.57,-165.9,58.45,14.0657,55.4908,20.7703,1011.94
78554,-7.3649,-5.8967,-1.09995,65.17,-186.34,109.13,15.412,55.7224,19.9763,1011.94
78560,-5.66236,-9.13438,-0.669536,34.58,-193.41,133.07,16.4433,55.9249,17.3961,1011.94
78566,-4.98804,-10.2056,0.310856,27.44,-196.63,147.35,17.1881,56.0117,18.0483,1011.96
78572,-4.50024,-9.76566,0.549976,19.81,-196.63,164.36,18.2481,55.2304,17.864,1011.96
78578,-3.70636,-9.6461,0.349115,10.64,-190.61,172.83,20.769,54.7384,17.8214,1011.97
78584,-2.32903,-9.63175,0.593018,0.98,-185.78,174.58,22.3732,53.523,17.3252,1011.97
78590,-1.75514,-9.80392,0.980392,-21.49,-190.75,170.38,23.605,53.2047,17.0842,1011.96
78596,-1.82209,-9.20612,0.329986,-63.77,-205.03,167.44,24.98,52.4523,16.4037,1011.96
78602,-1.12386,-9.24438,0.674318,-95.76,-214.2,165.76,26.1832,52.9153,17.3394,1011.98
78608,-0.951698,-9.92826,0.846485,-115.01,-225.96,162.19,28.0165,51.7867,17.07,1011.98
78614,-0.569106,-11.0904,1.38211,-112.21,-229.74,155.89,29.2197,50.8606,16.5029,1011.96
78620,-0.253467,-11.1813,1.34864,-96.74,-225.4,151.48,30.9385,49.7031,17.0984,1011.96
78626,0.21999,-10.7891,0.813008,-76.51,-213.5,146.51,32.7146,49.1243,17.4386,1011.96
78632,0.320421,-10.3635,1.18604,-64.19,-204.4,139.65,33.3448,48.4876,16.9141,1011.96
78638,0.0813008,-9.66045,1.49689,-61.67,-202.02,133.21,34.4047,48.0246,16.985,1011.96
78644,-0.712578,-9.00526,2.81683,-63.63,-207.9,124.46,34.2901,47.1854,17.3678,1011.92
78650,-1.31516,-9.23481,3.42898,-59.92,-219.45,114.87,36.2954,46.2883,15.6098,1011.92
78656,-2.41989,-9.8087,2.7977,-46.83,-218.47,106.12,36.9256,45.5937,15.7799,1011.98
78662,-3.19464,-9.89,2.08513,-24.71,-208.74,91.49,38.0142,45.5937,14.8726,1011.98
78668,-3.4768,-9.74653,1.35342,-14.14,-195.72,77.42,38.3293,44.1468,13.5825,1011.94
78674,-2.91248,-10.1196,1.87948,-10.57,-193.13,66.85,38.3293,42.9603,12.902,1011.94
78680,-2.1186,-10.2678,1.89383,-5.53,-185.22,62.37,40.8502,43.6838,13.8376,1011.98
78686,-1.28168,-10.2965,1.91774,-1.12,-180.74,65.24,40.1913,42.8445,12.4625,1011.98
78692,-1.01865,-10.2296,1.75036,3.64,-175.91,71.89,41.2799,43.1629,12.5617,1011.99
78698,-1.00909,-9.61741,1.49689,1.19,-175.63,72.38,41.9961,42.0921,11.9379,1011.99
78704,-1.26255,-9.73697,1.55906,-3.99,-177.59,70.56,42.8268,42.2947,10.4351,1011.95
78710,-1.37255,-9.89957,1.956,-9.03,-177.73,68.95,43.5716,41.9764,10.5344,1011.95
78716,-2.87422,-8.02965,2.76901,-25.69,-180.95,69.93,43.8295,41.8027,9.32931,1011.94
78722,-2.92683,-7.03969,3.56289,-39.2,-186.34,72.8,44.0586,41.0214,9.32931,1011.94
