Timestamp,AccX,AccY,AccZ,AngularVelX,AngularVelY,AngularVelZ,MagX,MagY,MagZ,AirPressure
504752,0.176949,9.77044,1.31994,1.4,-3.22,-1.05,-21.6939,-48.1567,10.7401,1014.66
504758,0.148254,9.75131,1.34385,1.33,-3.22,-17.85,-21.5195,-48.8969,12.7645,1014.66
504764,0.124342,9.73697,1.34864,1.61,-3.57,-0.28,-21.6358,-47.4166,13.1487,1014.66
504770,0.13869,9.75131,1.3056,1.19,-3.08,0,-21.3452,-46.7381,12.7793,1014.64
504776,0.162602,9.73218,1.28168,1.47,-3.36,-0.21,-21.6939,-47.8175,11.5676,1014.64
504782,0.153037,9.74175,1.31516,1.82,-3.08,-0.42,-21.8392,-48.0025,11.9813,1014.66
504788,0.148254,9.76566,1.26734,2.03,-3.57,0.14,-21.5486,-46.7998,12.0848,1014.66
504794,0.153037,9.74653,1.30081,1.82,-3.08,0.7,-21.4614,-47.6324,11.6415,1014.67
504800,0.205643,9.76088,1.29603,1.96,-3.43,-0.21,-22.3331,-47.5399,11.8927,1014.67
504806,0.196078,9.73697,1.32951,1.89,-3.08,0,-21.7229,-46.7073,12.2916,1014.67
504812,0.205643,9.7561,1.29603,1.89,-3.01,0.49,-21.2871,-47.2932,12.5576,1014.68
504818,0.215208,9.77523,1.29125,1.68,-3.22,0.21,-21.4324,-48.681,12.7054,1014.68
504824,0.263032,9.74653,1.25299,1.68,-3.43,-0.28,-21.0546,-47.2932,12.3064,1014.67
504830,0.224773,9.79436,1.25299,1.75,-2.8,-0.49,-21.1418,-46.5839,12.0109,1014.67
504836,0.263032,9.79914,1.26255,1.82,-3.22,-0.21,-21.8682,-47.2932,12.794,1014.66
504842,0.25825,9.78001,1.30081,1.68,-2.87,-0.7,-21.5195,-48.0025,10.1047,1014.66
504848,0.205643,9.81827,1.2769,1.33,-3.01,-0.56,-20.7931,-46.7998,13.0452,1014.65
504854,0.129125,9.79914,1.28647,1.33,-2.8,-0.84,-21.7229,-47.9717,12.8384,1014.65
504860,0.153037,9.74175,1.32472,1.19,-3.5,-0.56,-21.4324,-49.1436,12.0996,1014.65
504866,0.162602,9.7561,1.29125,1.33,-3.29,-0.49,-21.258,-47.5399,12.2916,1014.7
504872,0.167384,9.73218,1.31038,1.54,-3.22,-0.42,-21.781,-46.7073,12.3212,1014.7
504878,0.157819,9.71784,1.29125,1.61,-3.43,-0.14,-21.7229,-48.1259,12.1587,1014.68
504884,0.124342,9.7274,1.32472,1.54,-3.64,-0.07,-22.3041,-47.8792,13.2226,1014.68
504890,0.143472,9.75131,1.30081,1.61,-3.5,-0.28,-21.752,-46.9231,13.1635,1014.69
504896,0.176949,9.74175,1.29603,1.96,-3.22,0.21,-22.5075,-47.7866,12.0257,1014.69
504902,0.176949,9.76088,1.3056,1.54,-3.57,0.42,-22.0426,-47.6016,11.7154,1014.69
504908,0.162602,9.74175,1.2769,1.96,-3.22,0.07,-21.5486,-46.6147,12.336,1014.69
504914,0.21999,9.74653,1.29603,1.89,-2.8,0.42,-21.781,-47.5708,11.7006,1014.69
504920,0.215208,9.75131,1.29603,1.75,-2.8,-0.07,-21.8392,-48.1876,12.2325,1014.69
504926,0.224773,9.76088,1.28647,1.4,-3.08,0.07,-21.5776,-46.6764,13.0157,1014.69
504932,0.210426,9.78479,1.28647,1.47,-3.08,0.42,-20.8512,-47.0157,13.3851,1014.7
504938,0.200861,9.74653,1.29125,1.54,-3.15,0.14,-22.0716,-48.5576,12.3803,1014.7
504944,0.191296,9.76088,1.32951,1.75,-3.64,-0.63,-21.8392,-47.2624,11.3016,1014.71
504950,0.172166,9.75131,1.32472,1.68,-2.87,0.14,-21.4614,-46.5531,13.0748,1014.71
504956,0.21999,9.81349,1.25299,1.54,-2.66,-0.14,-22.0426,-47.725,11.8188,1014.7
504962,0.215208,9.80392,1.26255,1.68,-3.43,-0.63,-21.3161,-48.4343,12.0996,1014.7
504968,0.263032,9.76088,1.29125,1.61,-2.8,-0.21,-21.781,-47.1082,12.927,1014.7
504974,0.181731,9.79436,1.29125,1.47,-3.08,-0.91,-21.4324,-47.5091,13.3703,1014.7
504980,0.133907,9.7561,1.31994,1.4,-2.94,-0.21,-21.5776,-48.2801,13.6659,1014.7
504986,0.129125,9.73218,1.32472,1.54,-3.5,0.07,-21.752,-47.2932,13.9762,1014.7
504992,0.205643,9.71784,1.37255,1.82,-3.5,-0.28,-22.0426,-46.5531,12.1439,1014.7
504998,0.167384,9.71305,1.31994,1.96,-3.36,0.21,-21.7229,-48.1567,12.2916,1014.68
505004,0.181731,9.7274,1.3056,1.82,-3.43,0.14,-20.9093,-48.1259,11.7154,1014.68
505010,0.114778,9.74175,1.28647,2.1,-3.57,0.07,-20.9093,-46.6147,12.2916,1014.67
505016,0.205643,9.72262,1.29603,1.96,-3.15,0,-21.6067,-47.6941,11.4198,1014.67
505022,0.229555,9.75131,1.29125,2.1,-3.29,0.07,-21.7229,-48.681,12.8236,1014.67
505028,0.176949,9.76566,1.29603,2.1,-3.29,0.35,-21.6648,-46.8615,13.6954,1014.67
505034,0.205643,9.77044,1.31038,1.75,-2.59,-0.28,-21.5486,-47.6633,10.8583,1014.67
505040,0.200861,9.76088,1.32472,1.68,-3.64,0.21,-21.9263,-48.2492,11.9222,1014.7
505046,0.229555,9.77044,1.2769,1.82,-3.36,0.35,-21.8973,-47.3857,11.937,1014.7
505052,0.263032,9.78001,1.2769,1.61,-3.08,0,-21.4905,-47.4166,12.469,1014.7
505058,0.23912,9.77523,1.31038,1.47,-2.66,-0.49,-21.7229,-48.0025,12.203,1014.7
505064,0.176949,9.79914,1.28647,1.4,-2.8,-0.28,-20.8512,-47.0465,11.8927,1014.68
505070,0.200861,9.77523,1.28647,1.33,-3.64,0.49,-21.5195,-46.7073,12.3508,1014.68
505076,0.234338,9.76566,1.29603,1.47,-3.29,-0.42,-21.8392,-47.6633,12.8088,1014.7
505082,0.196078,9.77044,1.30081,1.75,-3.22,-0.63,-21.4905,-47.6324,11.5676,1014.7
505088,0.172166,9.77044,1.31038,1.26,-3.36,-0.21,-21.258,-46.7998,12.2621,1014.7
505094,0.186514,9.74175,1.33429,1.26,-3.29,0.21,-21.258,-46.8923,12.6758,1014.7
505100,0.133907,9.73697,1.36298,1.96,-3.64,17.57,-21.2871,-48.2492,11.0948,1014.7
505106,0.162602,9.72262,1.33429,1.47,-3.22,0.28,-21.3452,-47.1082,12.7202,1014.65
505112,0.200861,9.7561,1.30081,2.1,-3.29,0,-21.3452,-47.0773,12.6906,1014.65
505118,0.186514,9.73218,1.31516,1.54,-2.87,0.07,-21.8392,-48.095,11.5085,1014.65
505124,0.181731,9.74175,1.28647,1.68,-3.22,0.42,-21.6358,-47.5399,12.9566,1014.65
505130,0.157819,9.74175,1.30081,1.75,-3.15,0.49,-21.5776,-46.6147,12.0996,1014.69
505136,0.267814,9.68914,1.28168,2.1,-2.59,0.07,-21.9554,-47.8792,12.4099,1014.69
505142,0.176949,9.74653,1.37255,2.24,-2.1,0,-21.6939,-47.6324,11.5381,1014.69
505148,0.263032,9.72262,1.33429,1.96,-2.38,0.7,-21.6358,-46.5531,12.4246,1014.69
505154,0.143472,9.71784,1.38211,2.38,-2.45,0.56,-21.4614,-47.0157,12.6167,1014.69
505160,0.286944,9.80392,1.26734,2.17,-2.73,-0.07,-21.6358,-48.3109,10.947,1014.7
505166,0.329986,9.81349,1.31038,2.1,-3.01,-0.14,-20.6188,-46.7381,12.7793,1014.7
505172,0.267814,9.83261,1.25777,2.03,-2.24,-0.77,-21.6648,-46.368,12.4542,1014.66
505178,0.263032,9.85653,1.22908,1.54,-2.17,-0.56,-21.9263,-47.139,12.4985,1014.66
505184,0.229555,9.82783,1.29125,1.96,-3.15,-0.7,-21.229,-47.4474,12.0109,1014.7
505190,0.21999,9.77523,1.29603,1.68,-2.66,-1.12,-21.4614,-46.6764,12.9418,1014.7
505196,0.196078,9.77523,1.29603,2.1,-2.31,-0.98,-21.3742,-47.3549,11.9075,1014.68
505202,0.129125,9.75131,1.31038,1.4,-2.1,-0.21,-21.4324,-47.139,12.6758,1014.68
505208,0.162602,9.71305,1.35342,1.75,-3.08,-0.98,-21.0256,-46.7381,12.602,1014.68
505214,0.176949,9.71305,1.38211,1.82,-3.08,-0.49,-21.1709,-47.9408,12.9123,1014.69
505220,0.11956,9.73697,1.30081,1.82,-2.8,0,-21.2871,-48.8044,11.8484,1014.69
505226,0.133907,9.69871,1.37733,2.1,-3.15,-0.28,-21.4614,-47.725,13.459,1014.68
505232,0.133907,9.73697,1.33429,1.89,-2.8,-0.35,-21.5195,-47.3857,12.6167,1014.68
505238,0.157819,9.75131,1.29125,2.24,-3.36,0.35,-22.0426,-47.7866,12.07,1014.7
505244,0.167384,9.7274,1.29603,1.82,-2.38,0.28,-21.258,-47.4782,12.4099,1014.7
505250,0.133907,9.74175,1.29125,2.03,-2.45,0.14,-21.4614,-46.5839,12.5576,1014.68
505256,0.153037,9.75131,1.29603,1.4,-2.17,0.91,-20.9384,-46.8615,13.8136,1014.68
505262,0.215208,9.78957,1.3056,1.82,-2.66,0.56,-21.3452,-47.5708,11.8779,1014.68
505268,0.234338,9.76566,1.31994,1.68,-2.94,0,-20.7931,-47.1082,13.0157,1014.68
505274,0.205643,9.79436,1.31038,1.82,-2.94,0.42,-21.1999,-47.725,11.6119,1014.68
505280,0.267814,9.78479,1.24821,1.54,-3.15,0.35,-21.8973,-48.3726,12.5133,1014.68
505286,0.310856,9.79436,1.32951,1.54,-2.59,-0.14,-22.275,-47.2624,13.1635,1014.68
505292,0.291726,9.79914,1.32472,1.54,-2.73,-0.7,-22.0716,-47.6633,12.6906,1014.7
505298,0.253467,9.79436,1.29603,1.89,-3.29,-0.56,-21.6648,-47.6324,12.8827,1014.7
505304,0.21999,9.78957,1.31516,1.47,-3.01,-0.7,-21.258,-47.2315,12.9861,1014.69
505310,0.23912,9.78957,1.28647,1.61,-3.22,-0.7,-21.1418,-46.2447,13.3851,1014.69
505316,0.210426,9.77044,1.31994,1.61,-3.29,-0.98,-20.9675,-47.8792,11.9075,1014.67
505322,0.129125,9.74175,1.32472,1.19,-3.29,-1.12,-21.3742,-48.0642,12.4394,1014.67
505328,0.129125,9.74175,1.34864,1.4,-3.29,-0.49,-21.1999,-46.2755,12.6167,1014.67
505334,0.129125,9.78479,1.29603,1.26,-3.36,-0.14,-21.3161,-46.2447,12.7497,1014.66
505340,0.148254,9.73218,1.33907,1.26,-3.57,-0.77,-21.0256,-47.5708,12.7202,1014.66
505346,0.181731,9.73218,1.32951,1.61,-3.78,-0.42,-21.4324,-47.139,13.0748,1014.64
505352,0.186514,9.71784,1.28168,1.05,-2.73,0,-20.9965,-46.0288,13.5624,1014.64
505358,0.0621712,9.70827,1.34864,2.03,-2.73,0.07,-21.781,-48.0642,11.5528,1014.68
505364,0.133907,9.70827,1.3869,1.19,-3.08,0.28,-21.5776,-47.1698,12.9418,1014.68
505370,0.153037,9.69392,1.35342,2.1,-3.29,0.49,-20.9675,-46.7998,12.2325,1014.65
505376,0.153037,9.71784,1.34864,1.75,-3.29,0.77,-21.5486,-47.2932,12.3803,1014.65
505382,0.196078,9.71305,1.33429,1.82,-3.36,0.21,-21.6648,-47.3549,11.9518,1014.65
505388,0.248685,9.72262,1.28168,2.24,-2.66,0.56,-21.4614,-46.4914,11.9666,1014.69
505394,0.215208,9.75131,1.2769,1.96,-2.17,0.77,-21.6358,-46.9231,12.4837,1014.69
505400,0.243902,9.8087,1.28168,1.61,-2.31,0.14,-21.6067,-47.324,10.947,1014.68
505406,0.310856,9.79436,1.2769,1.68,-2.59,0,-21.6939,-46.8615,12.5724,1014.68
505412,0.291726,9.82305,1.31516,1.33,-2.1,-0.63,-21.1127,-46.7689,12.9566,1014.68
505418,0.234338,9.78957,1.31516,1.54,-1.33,-0.49,-21.1127,-48.0334,11.2425,1014.68
505424,0.124342,9.78479,1.42994,1.61,-2.1,0,-22.0426,-47.8483,12.3064,1014.68
505430,0.205643,9.78957,1.28168,1.75,-2.73,-0.63,-21.229,-46.6147,12.0848,1014.68
505436,0.210426,9.77044,1.36298,1.33,-2.1,-0.84,-22.0135,-47.8792,11.0209,1014.67
505442,0.143472,9.70349,1.37255,1.4,-2.52,-17.92,-21.752,-48.4343,11.3607,1014.67
505448,0.109995,9.69871,1.40603,2.03,-2.31,-0.49,-21.2871,-46.7689,13.0009,1014.67
505454,0.095648,9.7274,1.34864,2.03,-2.8,0.63,-20.9384,-47.6633,12.1882,1014.66
505460,0.181731,9.71784,1.3056,2.17,-3.43,0.14,-21.4614,-48.7118,11.7892,1014.66
505466,0.148254,9.73697,1.31038,2.31,-3.43,-0.28,-20.241,-46.8923,11.4494,1014.67
505472,0.176949,9.71305,1.3056,1.89,-3.64,0.56,-21.3452,-47.0773,12.4246,1014.67
505478,0.200861,9.74175,1.28647,2.03,-3.15,0.7,-21.3452,-48.095,12.0404,1014.71
505484,0.200861,9.76088,1.29603,1.82,-3.08,0.14,-21.6939,-47.3857,12.4246,1014.71
505490,0.229555,9.75131,1.2769,1.47,-3.22,-0.07,-22.3912,-46.5531,12.8236,1014.66
505496,0.210426,9.77523,1.31516,1.61,-3.85,0.28,-21.1709,-47.8483,12.1143,1014.66
505502,0.23912,9.77523,1.28647,1.19,-3.85,0.07,-20.8222,-48.3109,11.1982,1014.66
505508,0.277379,9.81827,1.28647,0.84,-3.43,-0.42,-21.6067,-46.7689,12.9861,1014.65
505514,0.291726,9.81349,1.27212,0.98,-3.5,-1.05,-20.7641,-47.3549,12.6463,1014.65
505520,0.229555,9.7561,1.34864,0.7,-3.78,-0.91,-21.8101,-48.4651,11.7892,1014.68
505526,0.148254,9.7561,1.33429,1.19,-3.92,-0.49,-21.8101,-46.7689,12.1587,1014.68
505532,0.210426,9.75131,1.3056,1.19,-3.5,-1.12,-21.4324,-46.3372,12.5724,1014.68
505538,0.253467,9.77523,1.30081,1.05,-4.2,-1.4,-21.8682,-48.6193,13.1487,1014.68
505544,0.176949,9.7561,1.3056,0.91,-4.2,-1.12,-21.258,-46.8615,12.0404,1014.69
505550,0.143472,9.75131,1.3582,1.33,-4.2,-0.7,-21.4324,-46.8615,12.0257,1014.69
505556,0.095648,9.74653,1.34385,1.33,-4.2,-0.98,-21.6648,-48.095,11.2425,1014.69
505562,0.176949,9.76566,1.33429,0.91,-4.62,-0.77,-21.8973,-48.681,11.4051,1014.66
505568,0.148254,9.69871,1.3582,1.47,-4.27,-0.28,-21.6067,-46.9231,13.725,1014.66
505574,0.210426,9.76088,1.31038,1.61,-4.27,-0.35,-21.1418,-47.0465,11.7449,1014.64
505580,0.143472,9.74175,1.36298,1.47,-4.41,-0.42,-21.6358,-48.4034,10.223,1014.64
505586,0.167384,9.76088,1.31994,1.82,-4.13,-0.07,-21.8973,-46.954,12.6315,1014.69
505592,0.176949,9.72262,1.41559,0.91,-3.92,-0.63,-20.9384,-46.7998,12.8088,1014.69
505598,0.229555,9.76088,1.34864,1.89,-3.85,-0.21,-21.5195,-47.7558,12.3508,1014.68
505604,0.200861,9.73697,1.34864,1.75,-3.85,-0.07,-21.9263,-48.0025,12.3508,1014.68
505610,0.181731,9.73697,1.32951,1.33,-3.71,-0.35,-20.6188,-46.7689,13.2521,1014.68
505616,0.21999,9.76088,1.32472,1.75,-3.71,-0.56,-21.6939,-47.2007,12.3064,1014.68
505622,0.200861,9.74653,1.34385,1.4,-3.5,-0.49,-20.6478,-47.5708,12.4246,1014.68
505628,0.243902,9.77044,1.32951,1.33,-3.15,-0.56,-21.6648,-46.8923,13.1487,1014.69
505634,0.191296,9.78479,1.3582,1.61,-3.22,-0.49,-21.5486,-47.5708,12.2621,1014.69
505640,0.167384,9.75131,1.36777,1.61,-3.36,-0.63,-21.4614,-48.2184,10.4741,1014.66
505646,0.109995,9.79436,1.33429,1.68,-3.85,-0.42,-21.3452,-47.5399,12.3064,1014.66
505652,0.200861,9.77523,1.33429,1.61,-3.57,-0.21,-21.1709,-47.0157,12.0404,1014.66
505658,0.181731,9.77044,1.31994,1.61,-3.29,-0.56,-21.1127,-48.4651,11.5972,1014.66
505664,0.157819,9.75131,1.33429,1.47,-3.15,-0.49,-21.0256,-47.7866,10.8879,1014.66
505670,0.129125,9.76088,1.33429,1.75,-4.06,-0.21,-20.7931,-46.5839,13.0896,1014.66
505676,0.153037,9.73218,1.34385,1.61,-3.15,-0.21,-21.4614,-47.7866,10.4003,1014.66
505682,0.181731,9.78001,1.32472,1.82,-4.06,-0.56,-21.0256,-47.725,11.213,1014.7
505688,0.181731,9.70349,1.34385,1.82,-3.57,-0.28,-21.1418,-46.3372,11.9222,1014.7
505694,0.162602,9.70827,1.34864,2.03,-3.43,0.14,-21.3452,-47.2315,12.4246,1014.7
505700,0.224773,9.74653,1.33429,1.89,-3.43,0.14,-21.2871,-48.6502,11.671,1014.7
505706,0.215208,9.7561,1.34864,1.89,-3.57,-0.07,-21.0256,-47.0773,10.4003,1014.64
505712,0.167384,9.7561,1.32951,2.17,-3.43,-0.28,-20.6769,-46.6764,13.0009,1014.64
505718,0.191296,9.78001,1.35342,1.96,-3.29,0.07,-21.258,-47.8483,11.2573,1014.68
505724,0.25825,9.83261,1.31516,1.54,-3.01,-0.21,-21.1999,-47.6941,11.9813,1014.68
505730,0.267814,9.78001,1.34385,1.82,-2.94,-0.98,-20.9093,-47.1082,12.0109,1014.68
505736,0.153037,9.80392,1.32951,1.54,-3.22,-0.91,-20.7059,-47.4166,11.937,1014.68
505742,0.210426,9.79914,1.33429,1.54,-2.87,-0.42,-21.781,-48.3109,11.1243,1014.68
505748,0.21999,9.74653,1.37255,1.47,-2.87,-0.84,-21.0256,-47.139,12.2473,1014.64
505754,0.186514,9.74653,1.36298,1.47,-2.59,-1.33,-21.0546,-48.095,11.9075,1014.64
505760,0.11956,9.73218,1.37255,1.47,-3.08,-0.77,-22.1297,-48.5576,10.8879,1014.68
505766,0.153037,9.73697,1.3582,1.61,-3.5,-0.49,-21.4614,-47.2315,12.5428,1014.68
505772,0.124342,9.70827,1.3869,1.33,-3.08,-0.63,-20.6769,-47.5399,12.4985,1014.66
505778,0.13869,9.68436,1.36777,2.17,-3.08,-0.63,-21.7229,-49.6987,9.83876,1014.66
505784,0.109995,9.70827,1.37733,1.82,-2.8,-0.07,-21.1999,-47.2007,11.0061,1014.69
505790,0.10043,9.71784,1.38211,1.75,-3.78,-0.14,-21.6067,-47.1082,12.5872,1014.69
505796,0.13869,9.68914,1.3869,2.1,-3.29,0.28,-21.4614,-48.1567,12.3508,1014.69
505802,0.157819,9.71784,1.37255,1.89,-3.01,0.14,-21.6648,-48.4343,11.213,1014.72
505808,0.181731,9.74653,1.31994,1.96,-3.43,0.07,-21.9554,-47.6324,12.4837,1014.72
505814,0.167384,9.78479,1.29603,1.75,-3.36,0.07,-21.258,-47.6016,12.2325,1014.65
505820,0.205643,9.77044,1.32951,1.54,-3.15,-0.07,-21.9554,-48.6502,13.0896,1014.65
505826,0.200861,9.76088,1.34385,1.96,-3.43,0,-21.0546,-46.6147,12.3064,1014.66
505832,0.215208,9.76088,1.34864,1.47,-3.08,0,-20.9093,-47.0157,13.2373,1014.66
505838,0.229555,9.79436,1.32472,1.82,-2.8,0,-21.3452,-47.8792,12.203,1014.7
505844,0.172166,9.77044,1.34385,1.68,-2.94,-0.7,-20.5316,-46.7689,12.602,1014.7
505850,0.196078,9.76566,1.34385,1.4,-3.43,-0.28,-21.1709,-46.7998,12.1143,1014.7
505856,0.191296,9.76088,1.37255,1.89,-3.29,-0.63,-21.5486,-47.2007,11.4642,1014.69
505862,0.210426,9.72262,1.37255,1.68,-3.15,-0.21,-21.781,-48.2801,11.5233,1014.69
505868,0.157819,9.76088,1.32951,1.75,-2.87,-0.21,-21.5776,-47.0773,12.2621,1014.71
505874,0.153037,9.74653,1.3582,1.82,-3.29,-0.91,-20.6188,-47.1082,11.9666,1014.71
505880,0.0908656,9.74175,1.37255,1.89,-3.36,-0.42,-22.5365,-48.4343,11.8927,1014.66
505886,0.176949,9.7274,1.39168,1.68,-3.43,-0.07,-21.6067,-46.5839,11.5676,1014.66
505892,0.172166,9.74653,1.32951,1.96,-3.29,-0.21,-21.1127,-46.4297,13.8727,1014.63
505898,0.167384,9.76566,1.31516,2.1,-3.29,-0.42,-20.7059,-48.0025,11.7597,1014.63
505904,0.143472,9.76566,1.32951,1.82,-3.22,-0.07,-21.3452,-47.9408,11.3755,1014.63
505910,0.167384,9.78001,1.28168,1.61,-3.36,-0.35,-21.1999,-47.0465,12.8679,1014.68
505916,0.157819,9.74653,1.32951,2.1,-3.57,0.07,-20.7931,-48.4343,12.0848,1014.68
505922,0.167384,9.73697,1.35342,1.75,-3.01,0.07,-21.3452,-48.9277,12.8679,1014.69
505928,0.172166,9.73697,1.3582,1.82,-3.43,0.14,-20.6769,-46.5839,13.7102,1014.69
505934,0.196078,9.75131,1.35342,1.96,-3.22,0.35,-21.0546,-47.3857,12.8679,1014.7
505940,0.157819,9.77523,1.37733,2.03,-3.22,0,-21.4033,-48.2801,12.2325,1014.7
505946,0.248685,9.77523,1.33429,1.96,-3.36,0.14,-21.4905,-46.9848,12.7793,1014.67
505952,0.286944,9.79914,1.34385,1.68,-3.08,-0.28,-20.5897,-46.7689,13.1043,1014.67
505958,0.243902,9.78479,1.3582,1.89,-2.87,-0.84,-22.3041,-48.6193,11.8631,1014.69
505964,0.0908656,9.77523,1.3582,2.03,-3.01,-0.56,-21.1127,-47.4474,12.0257,1014.69
505970,0.143472,9.7561,1.37733,1.4,-3.57,-0.42,-20.4735,-47.2624,13.5329,1014.69
505976,0.167384,9.74175,1.37255,2.1,-3.5,-0.35,-21.0256,-48.0642,13.3408,1014.69
505982,0.186514,9.78001,1.39168,1.82,-3.36,-0.28,-21.229,-47.725,9.1886,1014.69
505988,0.176949,9.74653,1.36298,1.96,-2.94,-17.71,-21.0837,-47.6016,12.469,1014.68
505994,0.109995,9.74653,1.34864,2.45,-3.08,-0.28,-20.2991,-47.8175,12.6167,1014.68
506000,0.162602,9.7274,1.36777,1.89,-3.5,-0.07,-20.7059,-48.681,11.8631,1014.67
506006,0.11956,9.73218,1.35342,2.1,-3.78,-0.28,-20.8512,-47.8483,11.4642,1014.67
506012,0.167384,9.7274,1.32951,2.1,-3.57,-0.21,-21.4614,-47.6941,12.2621,1014.7
506018,0.129125,9.74653,1.33429,2.1,-3.57,0.21,-21.4324,-48.2184,11.7892,1014.7
506024,0.172166,9.71305,1.33907,2.03,-3.71,0.21,-21.6067,-48.4651,11.5676,1014.7
506030,0.148254,9.74653,1.34385,2.31,-3.22,0,-20.9384,-47.6016,11.8336,1014.66
506036,0.196078,9.72262,1.32951,1.89,-3.15,-0.21,-20.7641,-48.3109,11.2425,1014.66
506042,0.181731,9.7561,1.33907,1.75,-2.94,0.14,-20.9675,-48.496,11.7745,1014.65
506048,0.205643,9.76566,1.32951,1.82,-3.43,0.14,-21.3161,-47.3549,11.8188,1014.65
506054,0.205643,9.78001,1.35342,1.82,-3.43,-0.35,-21.1127,-47.0157,11.5824,1014.66
506060,0.129125,9.74175,1.35342,1.75,-3.22,0.14,-21.5486,-48.4651,11.2425,1014.66
506066,0.181731,9.7274,1.37733,2.03,-3.22,-0.42,-21.1709,-47.6941,12.2916,1014.69
506072,0.172166,9.74175,1.37255,1.82,-3.36,-0.56,-20.3573,-47.9717,12.4837,1014.69
506078,0.186514,9.76566,1.34864,1.82,-3.43,-0.28,-20.6188,-48.5576,12.927,1014.69
506084,0.148254,9.75131,1.3582,1.75,-3.5,-0.35,-21.3452,-47.91,12.1587,1014.69
506090,0.143472,9.71784,1.36298,1.96,-3.78,-0.56,-20.9675,-47.2007,13.4885,1014.69
506096,0.148254,9.76088,1.37255,1.89,-3.29,0.35,-21.5776,-47.6324,10.8288,1014.7
506102,0.186514,9.71784,1.36298,1.96,-3.15,0,-21.8682,-48.2492,11.8631,1014.7
506108,0.153037,9.75131,1.34864,1.75,-3.29,-0.49,-20.7931,-46.8615,13.8136,1014.68
506114,0.11956,9.73218,1.32951,1.68,-3.08,0.42,-21.3161,-47.1698,12.6463,1014.68
506120,0.11956,9.74175,1.36298,1.68,-3.64,0.21,-21.6067,-48.0334,11.7154,1014.69
506126,0.162602,9.76088,1.31038,2.17,-3.43,0.49,-20.6769,-47.91,12.2178,1014.69
506132,0.129125,9.74653,1.36298,2.59,-3.57,0.35,-20.9965,-47.2624,12.469,1014.68
506138,0.157819,9.7274,1.32472,1.68,-3.15,0.14,-21.5776,-48.6193,13.2817,1014.68
506144,0.133907,9.77044,1.32951,2.03,-3.64,0.28,-21.8682,-47.5091,12.2473,1014.68
506150,0.205643,9.73697,1.32951,1.75,-3.22,0.42,-21.229,-46.6764,13.5772,1014.7
506156,0.196078,9.75131,1.37255,2.17,-2.8,0.07,-21.258,-47.7558,12.9123,1014.7
506162,0.191296,9.78957,1.31994,2.31,-3.01,0.14,-20.8222,-48.2801,11.4198,1014.66
506168,0.229555,9.77044,1.32472,2.1,-3.01,-0.14,-21.4033,-46.7998,12.1882,1014.66
506174,0.23912,9.8087,1.31994,1.54,-2.66,0,-21.2871,-47.5399,13.3555,1014.67
506180,0.23912,9.76088,1.32472,1.75,-2.87,-0.91,-21.6067,-48.0642,11.804,1014.67
506186,0.105213,9.78001,1.32951,1.75,-3.43,-0.77,-21.4614,-47.4782,12.8236,1014.67
506192,0.167384,9.76088,1.39646,1.75,-2.87,-0.28,-21.3161,-47.6016,12.5724,1014.67
506198,0.181731,9.76088,1.3869,2.17,-3.36,-0.56,-21.5195,-48.5268,11.5824,1014.67
506204,0.148254,9.76566,1.37255,2.17,-3.01,-0.7,-21.1709,-47.8483,12.0996,1014.67
506210,0.0860832,9.7561,1.35342,1.82,-2.94,-0.42,-21.229,-46.6147,12.2178,1014.67
506216,0.148254,9.7274,1.3582,1.54,-2.94,-0.42,-21.752,-48.4651,11.804,1014.7
506222,0.124342,9.73697,1.34385,1.96,-2.8,-0.28,-21.8973,-48.0025,11.2721,1014.7
506228,0.153037,9.74175,1.31038,1.75,-3.08,-0.35,-20.7931,-47.2932,12.1439,1014.72
506234,0.114778,9.72262,1.37255,1.75,-3.15,-0.35,-20.9675,-47.4782,12.0552,1014.72
506240,0.11956,9.69871,1.35342,1.82,-3.36,0.14,-21.5486,-47.9717,12.5576,1014.65
506246,0.10043,9.73218,1.36777,1.82,-3.43,0.14,-21.1709,-47.6016,12.1439,1014.65
506252,0.186514,9.74653,1.33429,1.96,-3.29,0.21,-21.6939,-46.8306,11.8779,1014.65
506258,0.133907,9.70349,1.33429,1.96,-3.22,0.35,-21.6939,-48.3109,12.7645,1014.67
506264,0.157819,9.7274,1.3582,2.1,-3.22,0.42,-21.752,-47.8483,12.7793,1014.67
506270,0.186514,9.73697,1.32951,1.75,-3.15,0.21,-21.4905,-47.3857,13.4885,1014.7
506276,0.205643,9.80392,1.28168,2.17,-2.8,0.14,-21.4324,-47.6941,13.6067,1014.7
506282,0.205643,9.7561,1.31516,1.96,-3.08,-0.07,-20.9093,-48.1259,10.7106,1014.67
506288,0.153037,9.79436,1.33907,1.54,-3.08,-0.28,-21.229,-46.6764,12.203,1014.67
506294,0.21999,9.7561,1.34385,1.54,-2.66,-0.07,-20.7059,-47.6016,12.0109,1014.67
506300,0.196078,9.77044,1.32472,1.61,-3.22,-0.07,-21.5486,-48.1876,11.7745,1014.67
506306,0.167384,9.81827,1.31038,1.4,-3.29,-0.84,-21.1709,-47.1082,10.9618,1014.68
506312,0.0813008,9.77044,1.35342,1.68,-3.71,-0.7,-21.9263,-47.7558,12.3508,1014.68
506318,0.129125,9.73218,1.38211,1.19,-2.66,0,-21.9263,-47.5708,9.3807,1014.68
506324,0.143472,9.73697,1.33907,1.4,-3.29,-0.42,-21.1418,-48.1876,10.7992,1014.65
506330,0.172166,9.73218,1.34864,1.82,-3.36,-0.91,-21.2871,-46.8923,12.5133,1014.65
506336,0.124342,9.71305,1.36298,1.61,-3.43,-0.49,-21.6067,-47.4166,11.8927,1014.65
506342,0.133907,9.73218,1.37733,1.75,-3.08,0.14,-20.9384,-47.4166,11.3903,1014.65
506348,0.11956,9.70827,1.34864,1.54,-3.36,0.21,-21.0256,-46.2447,11.9813,1014.68
506354,0.13869,9.73218,1.3582,2.1,-3.29,-0.14,-21.229,-47.2315,12.0404,1014.68
506360,0.11956,9.7274,1.3582,1.89,-3.57,-0.21,-21.1709,-47.6941,10.2377,1014.69
506366,0.153037,9.71784,1.33907,2.1,-3.08,0.49,-21.9554,-47.139,12.469,1014.69
506372,0.143472,9.73697,1.36777,1.89,-3.01,0.28,-21.9554,-47.0773,12.7645,1014.69
506378,0.215208,9.76566,1.3056,2.17,-3.29,-0.14,-21.4324,-48.3109,11.7301,1014.67
506384,0.25825,9.78001,1.33429,1.96,-2.94,-0.28,-21.5486,-47.725,12.6758,1014.67
506390,0.224773,9.76566,1.30081,1.68,-2.8,-0.63,-21.3452,-47.0773,13.2964,1014.69
506396,0.167384,9.8087,1.31994,1.61,-2.87,-0.56,-21.1418,-47.8175,12.4099,1014.69
506402,0.234338,9.80392,1.32472,1.4,-3.08,-1.19,-21.3742,-47.725,11.8188,1014.69
506408,0.224773,9.77044,1.33429,1.89,-3.22,-1.19,-20.9093,-47.1082,11.0209,1014.69
506414,0.10043,9.7561,1.36298,1.75,-2.94,-0.63,-21.6067,-47.4166,11.6267,1014.64
506420,0.095648,9.73697,1.40124,1.82,-3.43,-0.35,-21.6358,-47.8175,11.8336,1014.64
506426,0.172166,9.76566,1.34864,1.54,-3.5,-0.49,-20.9965,-47.5399,12.4985,1014.64
506432,0.133907,9.76088,1.33907,1.82,-3.22,-0.63,-21.8101,-47.5399,13.2669,1014.68
506438,0.109995,9.72262,1.35342,1.89,-3.01,0.07,-21.5195,-47.5708,12.336,1014.68
506444,0.124342,9.73218,1.34864,1.82,-2.87,0.21,-21.3161,-48.7735,11.5972,1014.68
506450,0.129125,9.73218,1.3869,1.96,-3.22,0,-20.7931,-46.5222,12.6758,1014.68
506456,0.11956,9.71784,1.39646,2.1,-3.43,0.07,-20.8803,-47.6633,10.6219,1014.67
506462,0.129125,9.7274,1.33429,2.03,-3.64,0.49,-21.5195,-47.9408,12.0552,1014.67
506468,0.157819,9.76088,1.31038,1.82,-3.29,0.42,-21.6648,-46.6764,11.6858,1014.7
506474,0.157819,9.72262,1.37255,2.17,-3.22,0.35,-21.0546,-46.7689,11.8927,1014.7
506480,0.167384,9.77523,1.36298,1.82,-3.08,-0.14,-21.4324,-47.6324,11.2573,1014.69
506486,0.229555,9.76566,1.32472,1.96,-3.22,-0.07,-21.0256,-47.6633,12.2916,1014.69
506492,0.243902,9.82305,1.31038,1.89,-3.01,0.21,-20.7931,-46.8306,11.3903,1014.69
506498,0.23912,9.8087,1.31516,1.82,-2.8,-0.28,-21.0546,-48.1567,11.3903,1014.69
506504,0.172166,9.78001,1.41081,1.61,-2.94,-0.56,-21.0256,-48.3726,12.0996,1014.69
506510,0.205643,9.78479,1.37255,1.89,-2.94,-0.7,-20.6769,-46.954,12.0848,1014.68
506516,0.172166,9.76088,1.37255,1.61,-3.29,-0.63,-21.0256,-47.3857,11.5676,1014.68
506522,0.153037,9.76088,1.38211,1.82,-3.22,-0.56,-20.7641,-47.8175,11.7449,1014.7
506528,0.109995,9.7561,1.34864,1.75,-3.5,-1.26,-20.735,-46.4605,12.0257,1014.7
506534,0.11956,9.72262,1.3869,1.82,-3.5,-0.14,-21.1709,-46.9231,11.346,1014.66
506540,0.124342,9.74175,1.40124,1.75,-3.29,-0.35,-20.8222,-48.0642,11.5824,1014.66
506546,0.109995,9.71305,1.36298,2.1,-3.43,0,-21.6939,-48.1567,12.8532,1014.66
506552,0.133907,9.74653,1.36777,1.82,-3.43,-0.35,-20.8512,-47.5708,12.6758,1014.67
506558,0.105213,9.7274,1.36298,1.75,-3.08,0.07,-21.5776,-48.1876,11.8336,1014.67
506564,0.105213,9.7274,1.35342,1.75,-3.43,0.35,-21.2871,-47.6633,10.7401,1014.65
506570,0.133907,9.72262,1.35342,1.68,-3.22,-0.14,-21.4614,-46.5839,12.8384,1014.65
506576,0.133907,9.74175,1.34385,1.82,-3.64,0.42,-21.0256,-47.6324,12.0109,1014.66
506582,0.176949,9.7561,1.35342,1.82,-2.87,0.42,-21.4614,-48.6193,10.7992,1014.66
506588,0.215208,9.74653,1.36777,2.03,-3.43,0.07,-21.3161,-46.954,11.6858,1014.66
506594,0.191296,9.7561,1.31516,2.1,-3.22,-0.35,-21.8101,-47.2315,11.3164,1014.66
506600,0.157819,9.79914,1.33429,2.24,-3.29,-0.63,-21.4614,-48.1259,11.8336,1014.66
506606,0.191296,9.7561,1.36298,1.96,-3.22,-0.14,-21.0837,-47.6633,10.2968,1014.69
506612,0.181731,9.7561,1.36777,1.47,-2.8,-0.35,-21.229,-47.0157,12.8088,1014.69
506618,0.157819,9.77044,1.33907,1.89,-3.01,-0.28,-21.6939,-48.3726,11.9075,1014.66
506624,0.162602,9.77523,1.36298,1.89,-3.43,-0.56,-20.5316,-47.6633,11.0652,1014.66
506630,0.167384,9.77523,1.36298,2.03,-3.5,-0.84,-21.0256,-46.5222,12.2769,1014.66
506636,0.176949,9.76088,1.32472,1.75,-3.01,-0.14,-21.3452,-46.954,9.92742,1014.66
506642,0.133907,9.75131,1.36298,2.1,-3.08,-0.63,-21.6648,-48.6193,10.4741,1014.68
506648,0.11956,9.77523,1.35342,1.89,-3.43,-0.91,-21.1709,-46.5839,12.8236,1014.68
506654,0.114778,9.74653,1.32951,1.96,-3.64,-0.49,-21.6648,-46.8306,12.9714,1014.68
506660,0.133907,9.71305,1.36298,1.96,-3.36,0.28,-21.229,-47.6633,9.63189,1014.68
506666,0.133907,9.71784,1.35342,1.61,-3.36,0.14,-21.4614,-47.3549,11.346,1014.68
506672,0.114778,9.72262,1.3869,2.1,-3.29,17.36,-20.8222,-46.5531,12.4542,1014.67
506678,0.129125,9.7274,1.35342,1.75,-3.29,0.35,-21.3742,-47.8175,11.7006,1014.67
506684,0.124342,9.71784,1.3582,1.89,-3.29,-0.14,-21.229,-47.9408,11.4198,1014.69
506690,0.181731,9.77044,1.37255,2.1,-3.36,0.14,-21.0837,-46.6147,11.937,1014.69
506696,0.191296,9.77523,1.34385,2.03,-3.5,-0.28,-21.3161,-47.5091,11.9075,1014.68
506702,0.210426,9.77044,1.39168,1.96,-3.22,-0.21,-20.4154,-47.4782,10.2082,1014.68
506708,0.186514,9.7561,1.3582,1.61,-3.08,-0.14,-21.0837,-46.2138,10.6071,1014.66
506714,0.114778,9.76088,1.36298,1.75,-3.29,-0.49,-20.735,-47.3549,11.3164,1014.66
506720,0.191296,9.78001,1.37255,1.89,-3.36,-0.35,-21.6067,-47.9408,11.3312,1014.66
506726,0.210426,9.74653,1.34385,1.89,-3.15,-0.56,-21.6067,-47.1082,12.0848,1014.67
506732,0.13869,9.73697,1.36298,1.96,-3.64,-0.42,-20.9965,-47.4474,11.3164,1014.67
506738,0.13869,9.74653,1.32951,2.1,-2.66,-0.42,-21.229,-48.2184,11.8631,1014.66
506744,0.124342,9.77044,1.36298,1.82,-3.15,-0.35,-21.6358,-47.0157,11.7449,1014.66
506750,0.167384,9.75131,1.34864,1.68,-2.87,-0.42,-21.258,-46.183,13.3408,1014.66
506756,0.133907,9.76566,1.36777,1.96,-2.87,-0.35,-20.9384,-47.5399,12.9861,1014.66
506762,0.143472,9.76088,1.33907,1.82,-3.29,-0.14,-21.6067,-48.095,11.213,1014.69
506768,0.133907,9.73697,1.38211,2.1,-3.85,-0.35,-20.4735,-46.368,12.9123,1014.69
506774,0.124342,9.71784,1.3869,1.82,-3.01,0,-21.4033,-47.0157,12.4542,1014.69
506780,0.153037,9.74653,1.34385,1.96,-3.08,0,-21.3742,-47.7866,10.8731,1014.71
506786,0.143472,9.7274,1.36298,2.03,-3.92,-0.21,-20.9965,-46.3989,11.7892,1014.71
506792,0.191296,9.76088,1.32472,1.96,-3.43,-0.14,-21.3161,-46.8306,12.0257,1014.7
506798,0.210426,9.7274,1.36298,1.82,-3.01,-0.21,-21.5776,-47.6941,12.0109,1014.7
506804,0.23912,9.75131,1.36298,2.03,-3.29,-0.49,-20.8803,-47.2932,11.6119,1014.69
506810,0.205643,9.79436,1.34385,1.75,-2.45,-1.19,-21.6358,-46.7689,13.1487,1014.69
506816,0.186514,9.77523,1.36298,2.17,-2.73,-0.42,-20.8803,-47.5708,11.9961,1014.68
506822,0.129125,9.77523,1.37255,1.82,-3.08,-0.28,-21.7229,-47.2624,11.4346,1014.68
506828,0.157819,9.78001,1.34864,1.4,-3.64,-0.84,-20.7931,-46.3989,13.6954,1014.68
506834,0.196078,9.73697,1.38211,1.61,-3.29,-0.91,-20.9675,-47.2315,13.326,1014.67
506840,0.11956,9.71784,1.41559,1.96,-3.29,-0.42,-21.4905,-48.1876,12.469,1014.67
506846,0.143472,9.78479,1.36298,2.1,-3.01,-0.56,-21.229,-47.6324,12.5872,1014.68
506852,0.11956,9.74653,1.34864,1.4,-3.36,-0.56,-21.1709,-46.8306,12.5281,1014.68
506858,0.11956,9.76088,1.31516,1.75,-3.36,-0.07,-21.1709,-47.8792,11.4642,1014.68
506864,0.129125,9.76088,1.38211,1.68,-3.43,-0.07,-21.0256,-47.2007,11.4346,1014.68
506870,0.114778,9.7561,1.34864,1.61,-3.29,0,-20.7059,-46.7073,13.1043,1014.66
506876,0.133907,9.74175,1.37733,2.03,-3.57,-0.28,-20.7059,-47.7866,11.7449,1014.66
506882,0.133907,9.71784,1.37733,1.47,-3.85,0,-20.7931,-48.3726,12.2769,1014.66
506888,0.162602,9.73218,1.34864,1.61,-3.01,0,-20.7641,-46.4914,12.5724,1014.66
506894,0.129125,9.70827,1.37255,1.82,-2.87,0.14,-20.4735,-47.91,13.4147,1014.66
506900,0.162602,9.7274,1.36298,1.82,-3.5,0.28,-21.4033,-48.8044,11.9813,1014.65
506906,0.248685,9.78001,1.36777,1.89,-3.15,-0.07,-21.3452,-46.8923,13.1339,1014.65
506912,0.243902,9.79436,1.31994,1.96,-3.22,-0.49,-20.5897,-46.7998,11.3607,1014.67
506918,0.186514,9.76566,1.34385,1.75,-3.36,-0.28,-21.0256,-48.681,11.9813,1014.67
506924,0.0860832,9.76088,1.33907,1.75,-3.57,-0.63,-20.9093,-48.0642,11.8631,1014.69
506930,0.143472,9.7561,1.36298,2.03,-3.22,-0.84,-20.3282,-47.4474,13.7841,1014.69
506936,0.153037,9.73697,1.38211,1.96,-3.29,-0.35,-20.6769,-48.8969,12.2178,1014.68
506942,0.172166,9.78957,1.3582,1.82,-3.43,-0.49,-20.7059,-48.5576,12.203,1014.68
506948,0.172166,9.80392,1.34864,1.82,-3.5,-0.56,-20.1829,-47.2007,12.5133,1014.68
506954,0.11956,9.7561,1.32951,2.1,-3.5,-0.77,-20.7641,-47.139,11.6415,1014.68
506960,0.0908656,9.7274,1.37255,1.68,-3.36,-0.28,-20.9384,-48.9277,10.8583,1014.68
506966,0.124342,9.73697,1.35342,1.89,-3.15,-0.49,-20.735,-47.2315,11.4346,1014.67
506972,0.133907,9.74653,1.3869,1.33,-3.22,-0.28,-20.5607,-47.2315,12.2916,1014.67
506978,0.0908656,9.71784,1.39168,2.17,-3.15,-0.21,-20.4444,-48.4343,11.1391,1014.68
506984,0.109995,9.73218,1.42037,2.24,-3.22,-0.07,-20.8512,-48.681,12.1587,1014.68
506990,0.10043,9.73697,1.37255,2.03,-3.08,-0.07,-20.7931,-46.6764,12.5281,1014.66
506996,0.133907,9.74175,1.38211,1.96,-3.64,0.21,-20.5607,-48.1876,11.9961,1014.66
507002,0.157819,9.73697,1.33907,2.38,-3.57,-0.07,-21.258,-48.5576,11.1539,1014.66
507008,0.167384,9.73697,1.35342,2.24,-2.87,0.07,-21.1709,-47.2007,13.9023,1014.68
507014,0.196078,9.74653,1.33429,1.96,-3.22,17.71,-19.9795,-47.3857,12.8384,1014.68
507020,0.181731,9.76566,1.32472,1.89,-3.08,0.21,-21.1999,-48.1567,11.8188,1014.68
507026,0.148254,9.77523,1.35342,1.82,-3.22,-0.21,-20.4154,-48.1567,13.0748,1014.68
507032,0.172166,9.78479,1.37255,2.03,-3.15,-0.63,-20.8803,-47.9408,11.9518,1014.68
507038,0.172166,9.80392,1.33907,1.82,-3.36,-0.77,-20.8512,-48.5268,12.1734,1014.68
507044,0.196078,9.77523,1.35342,1.96,-3.64,-0.42,-20.9384,-47.8792,11.7449,1014.69
507050,0.114778,9.77523,1.3869,2.17,-3.36,-0.35,-21.0546,-46.9848,12.6167,1014.69
507056,0.133907,9.78001,1.38211,1.82,-3.08,-0.42,-21.8392,-48.3109,12.8827,1014.69
507062,0.13869,9.73218,1.37255,1.61,-3.01,-0.07,-21.258,-48.5268,10.9765,1014.69
507068,0.11956,9.75131,1.33429,2.24,-3.5,-0.63,-21.4324,-46.4605,12.602,1014.69
507074,0.143472,9.74653,1.37255,1.96,-3.08,-0.21,-21.1418,-46.9231,11.8779,1014.69
507080,0.129125,9.73697,1.37255,2.17,-2.94,-0.07,-21.0256,-48.3726,12.0552,1014.69
507086,0.133907,9.73218,1.3582,2.03,-2.8,-0.28,-21.9844,-46.8923,12.4542,1014.68
507092,0.124342,9.7274,1.35342,1.89,-3.08,0.14,-20.8803,-46.9848,12.3655,1014.68
507098,0.11956,9.73218,1.39646,2.31,-3.57,0.14,-20.4154,-48.2492,10.6958,1014.68
507104,0.129125,9.74175,1.36298,2.03,-3.64,-0.35,-21.229,-47.4782,11.8336,1014.68
507110,0.11956,9.72262,1.35342,2.24,-2.87,0.21,-21.5195,-46.7073,12.3508,1014.68
507116,0.162602,9.73697,1.34864,1.68,-2.8,0.35,-21.7229,-47.9717,11.2277,1014.68
507122,0.172166,9.75131,1.33429,2.31,-3.22,-0.14,-21.1709,-47.8175,11.2277,1014.68
507128,0.176949,9.7561,1.36777,2.24,-3.64,-0.35,-21.2871,-47.0773,12.7349,1014.67
507134,0.200861,9.75131,1.36777,1.96,-2.94,0,-20.4444,-47.0773,12.7645,1014.67
507140,0.224773,9.73218,1.36777,2.03,-2.73,0,-21.4614,-48.681,11.9813,1014.69
507146,0.133907,9.79436,1.36777,2.31,-2.8,-0.35,-21.0256,-47.3857,12.3803,1014.69
507152,0.153037,9.79436,1.34864,1.68,-3.08,-0.42,-20.735,-46.6147,12.9566,1014.65
507158,0.153037,9.73697,1.33907,2.24,-2.87,-0.49,-21.4614,-48.7118,12.0257,1014.65
507164,0.157819,9.78479,1.31994,1.82,-3.15,-0.35,-21.4033,-47.9717,10.9174,1014.7
507170,0.143472,9.74653,1.33429,2.38,-3.43,-0.14,-20.735,-46.6147,13.1191,1014.7
507176,0.124342,9.75131,1.35342,1.54,-3.43,-0.07,-21.4905,-48.3109,12.3508,1014.7
507182,0.129125,9.73218,1.38211,2.31,-3.36,-0.21,-21.4324,-47.725,10.4594,1014.71
507188,0.109995,9.7561,1.40603,1.89,-3.36,-0.14,-20.4444,-47.3857,12.0404,1014.71
507194,0.148254,9.7274,1.31516,2.1,-3.15,0.07,-21.229,-47.1698,11.8484,1014.69
507200,0.13869,9.73697,1.36298,1.96,-3.29,0,-21.5486,-48.5885,11.7154,1014.69
507206,0.114778,9.73697,1.3582,1.89,-2.87,0.21,-21.1418,-47.5091,12.07,1014.69
507212,0.124342,9.73218,1.36298,2.24,-3.29,0.07,-21.5195,-47.4474,13.2078,1014.69
507218,0.176949,9.73218,1.37733,1.68,-2.87,0.42,-21.0256,-48.1567,11.9222,1014.66
507224,0.176949,9.74175,1.37733,2.38,-3.29,-0.07,-21.5776,-47.9408,11.6119,1014.66
507230,0.143472,9.73697,1.40124,2.45,-3.22,0.14,-21.6067,-47.0157,13.3112,1014.68
507236,0.167384,9.76088,1.38211,2.31,-3.29,-0.56,-21.6067,-47.8792,12.8384,1014.68
507242,0.229555,9.78957,1.35342,2.1,-3.43,-0.49,-21.3742,-47.7558,10.9618,1014.68
507248,0.167384,9.78001,1.31516,2.66,-3.08,-0.07,-21.8392,-46.6764,11.9666,1014.67
507254,0.13869,9.77044,1.32951,2.1,-3.22,-0.49,-21.3161,-47.6324,11.2277,1014.67
507260,0.129125,9.78479,1.37255,2.17,-3.64,-0.91,-21.229,-48.3418,10.3116,1014.68
507266,0.176949,9.78479,1.33429,2.17,-3.29,-0.28,-21.0546,-46.7689,12.203,1014.68
507272,0.157819,9.74653,1.3869,1.75,-3.01,-0.56,-20.9675,-46.6147,11.9961,1014.68
507278,0.109995,9.76566,1.37255,2.03,-3.15,-0.77,-21.1127,-48.095,11.9961,1014.68
507284,0.0908656,9.74175,1.37255,2.24,-3.22,-0.35,-21.4614,-47.8792,13.3999,1014.71
507290,0.109995,9.7274,1.36298,2.38,-3.64,-0.21,-20.9093,-46.8615,12.0257,1014.71
507296,0.114778,9.75131,1.36298,2.52,-3.5,-0.14,-20.6188,-47.3549,11.6563,1014.71
507302,0.129125,9.71305,1.3582,2.17,-3.08,0.63,-20.0086,-48.0334,12.1439,1014.69
507308,0.114778,9.7561,1.35342,2.17,-3.43,-0.35,-21.3452,-46.8923,12.3655,1014.69
507314,0.109995,9.73697,1.35342,2.52,-3.57,0.07,-20.9675,-46.7381,12.0404,1014.68
507320,0.157819,9.72262,1.34385,2.03,-3.01,0.49,-20.9675,-48.1259,11.4346,1014.68
507326,0.143472,9.7561,1.3056,1.89,-3.01,-0.21,-21.4614,-47.139,12.3508,1014.68
507332,0.181731,9.7561,1.32472,2.38,-3.5,0.14,-20.7931,-46.5222,13.0305,1014.68
507338,0.153037,9.76566,1.33429,2.38,-3.43,0.7,-21.1418,-47.91,11.4642,1014.68
507344,0.157819,9.7561,1.34385,2.17,-3.22,-0.14,-21.1999,-47.6324,11.1686,1014.68
507350,0.200861,9.77523,1.32951,2.03,-3.64,-0.7,-21.258,-46.7073,12.2916,1014.68
507356,0.253467,9.78479,1.31994,2.1,-3.22,-0.07,-21.1999,-47.5399,12.7497,1014.7
507362,0.157819,9.78957,1.31516,1.68,-3.57,-0.21,-21.3161,-48.2801,12.0404,1014.7
507368,0.143472,9.72262,1.3869,2.24,-3.29,-0.49,-20.4444,-46.7998,11.9075,1014.67
507374,0.095648,9.77044,1.39646,1.82,-2.94,-0.42,-21.0256,-47.2624,12.7497,1014.67
507380,0.172166,9.77044,1.32951,1.96,-3.36,-0.42,-21.229,-47.725,12.3064,1014.69
507386,0.153037,9.75131,1.3582,2.24,-3.71,-0.28,-21.5776,-46.9231,11.7449,1014.69
507392,0.133907,9.75131,1.35342,1.82,-3.36,-0.21,-21.4033,-46.8306,12.6315,1014.66
507398,0.109995,9.7274,1.36298,2.1,-3.22,-0.42,-21.4324,-48.3109,12.07,1014.66
507404,0.11956,9.70827,1.36777,2.45,-3.5,0.14,-21.6358,-48.0334,11.8779,1014.66
507410,0.11956,9.74175,1.39646,2.59,-3.22,-0.28,-20.8512,-46.4914,12.2178,1014.66
507416,0.11956,9.71305,1.37255,2.24,-3.15,0.21,-21.4324,-48.2492,11.9518,1014.66
507422,0.109995,9.74175,1.37255,2.17,-3.71,0,-21.0256,-47.7866,11.4789,1014.68
507428,0.133907,9.78479,1.33429,1.96,-3.5,0.28,-20.7931,-47.0773,12.8088,1014.68
507434,0.196078,9.76566,1.3056,1.89,-3.43,0.28,-21.3452,-46.7998,13.3999,1014.68
507440,0.172166,9.76566,1.34864,1.89,-3.5,0.14,-20.5607,-48.9586,12.3212,1014.68
507446,0.143472,9.76088,1.33429,1.4,-3.5,0.14,-21.0837,-47.1698,11.7892,1014.68
507452,0.162602,9.79436,1.32472,2.03,-3.29,-0.14,-21.0546,-47.2932,12.1882,1014.68
507458,0.215208,9.77523,1.32951,1.89,-3.01,-0.35,-20.9093,-48.1259,10.4446,1014.67
507464,0.210426,9.79914,1.30081,1.82,-2.94,-0.56,-20.6188,-47.5091,11.8188,1014.67
507470,0.10043,9.79436,1.34385,1.68,-3.78,-0.77,-20.8512,-46.368,12.5281,1014.67
507476,0.0908656,9.76088,1.37733,1.4,-3.15,0.07,-20.8512,-47.725,10.6662,1014.68
507482,0.162602,9.78001,1.32951,1.54,-3.08,0,-21.6648,-48.4034,10.2821,1014.68
507488,0.176949,9.76088,1.34864,1.47,-3.22,-0.35,-21.4905,-46.9848,10.8879,1014.67
507494,0.13869,9.76566,1.34864,1.61,-3.36,-0.49,-21.3452,-46.8615,11.5972,1014.67
507500,0.0908656,9.72262,1.36298,1.54,-3.43,-0.14,-21.0546,-47.7866,11.9222,1014.71
507506,0.095648,9.72262,1.34385,1.54,-3.29,-0.28,-20.8803,-47.4474,11.5676,1014.71
507512,0.10043,9.70827,1.37733,1.61,-2.94,0,-20.9965,-46.9231,11.6858,1014.67
507518,0.0765184,9.71784,1.40124,1.61,-3.29,0.14,-22.0426,-48.5268,10.7253,1014.67
507524,0.0813008,9.72262,1.36298,2.17,-3.22,0.28,-21.2871,-47.5399,10.8288,1014.67
507530,0.10043,9.73218,1.34864,2.03,-3.36,0.07,-20.3863,-46.5839,11.9075,1014.67
507536,0.114778,9.76088,1.32951,1.82,-3.36,0.42,-21.1127,-47.725,11.8631,1014.67
507542,0.157819,9.78001,1.34385,2.1,-3.57,0.56,-21.1127,-47.7558,12.0257,1014.68
507548,0.157819,9.76088,1.34864,1.61,-3.08,0.14,-21.1418,-46.8923,12.1439,1014.68
507554,0.172166,9.75131,1.33907,1.96,-3.08,-0.07,-20.8512,-47.1082,12.0109,1014.66
507560,0.176949,9.76088,1.3869,1.89,-3.5,0,-21.9554,-48.095,11.9961,1014.66
507566,0.191296,9.81349,1.33429,1.68,-2.8,-0.35,-20.8512,-46.7073,11.4198,1014.67
507572,0.215208,9.77044,1.3582,2.17,-3.36,-0.42,-20.9384,-47.0773,13.2373,1014.67
507578,0.215208,9.78957,1.33429,1.33,-2.87,-0.42,-21.6358,-47.3549,10.9765,1014.66
507584,0.148254,9.78957,1.32951,1.96,-3.29,-1.05,-20.8222,-47.5708,12.6906,1014.66
507590,0.133907,9.75131,1.36777,1.61,-3.29,-0.77,-20.735,-46.7689,12.4394,1014.66
507596,0.157819,9.81349,1.34385,1.12,-3.36,-0.84,-21.1709,-48.0334,12.203,1014.68
507602,0.13869,9.79914,1.3056,1.68,-3.29,-1.26,-21.4614,-47.4166,12.5428,1014.68
507608,0.109995,9.73697,1.33907,1.05,-3.15,-0.98,-20.6188,-46.954,11.9666,1014.68
507614,0.071736,9.69871,1.42994,1.54,-3.64,-0.7,-20.5897,-47.139,12.9566,1014.68
507620,0.095648,9.72262,1.42516,1.89,-3.43,-0.21,-22.0135,-49.1744,10.9174,1014.66
507626,0.124342,9.7274,1.34385,1.54,-2.73,-0.56,-20.6188,-47.5091,12.336,1014.66
507632,0.0908656,9.71784,1.37733,2.03,-3.43,-0.07,-20.9384,-47.1698,13.3703,1014.67
507638,0.095648,9.7274,1.39168,2.31,-2.94,-0.14,-20.8512,-47.6633,12.0552,1014.67
507644,0.11956,9.73218,1.37255,2.1,-3.71,0.21,-21.0837,-47.6633,11.5381,1014.67
507650,0.148254,9.7274,1.34385,2.24,-3.78,0.28,-20.8803,-46.7998,13.459,1014.71
507656,0.162602,9.77523,1.34385,1.89,-3.08,0.14,-20.9675,-48.0025,13.0896,1014.71
507662,0.133907,9.73697,1.34385,1.96,-3.43,-0.07,-20.7641,-47.7866,13.4885,1014.71
507668,0.167384,9.75131,1.38211,1.82,-3.71,-0.07,-21.4033,-47.0157,12.602,1014.71
507674,0.21999,9.74653,1.36298,2.17,-3.29,-0.28,-21.2871,-47.0465,12.3508,1014.67
507680,0.167384,9.81349,1.33429,1.68,-3.08,-0.63,-20.9384,-47.7866,11.9075,1014.67
507686,0.196078,9.79436,1.32951,1.96,-3.29,-0.56,-21.1418,-47.324,11.1686,1014.68
507692,0.196078,9.81827,1.33429,1.89,-3.15,-0.91,-20.9675,-46.7689,13.3999,1014.68
507698,0.157819,9.82783,1.32951,1.47,-2.73,-0.56,-20.9965,-48.1567,12.6463,1014.68
507704,0.0669536,9.77523,1.32472,1.12,-3.15,-1.12,-21.1418,-47.7866,12.0848,1014.65
507710,0.124342,9.77044,1.36777,1.47,-3.43,-0.56,-20.6478,-46.368,13.6806,1014.65
507716,0.11956,9.69392,1.39646,1.61,-3.78,-0.7,-21.3161,-47.8175,11.213,1014.67
507722,0.10043,9.7561,1.37733,1.61,-3.36,-0.49,-20.8512,-48.7735,9.9422,1014.67
507728,0.10043,9.73218,1.38211,1.75,-2.87,-1.19,-20.8803,-47.0773,12.5872,1014.68
507734,0.0669536,9.70349,1.44907,2.1,-3.01,-0.28,-21.3161,-47.4474,12.6906,1014.68
507740,0.0908656,9.71784,1.3582,2.1,-3.29,0,-21.1999,-49.0202,11.1243,1014.67
507746,0.095648,9.73697,1.37255,1.82,-2.8,-0.07,-21.1418,-48.1876,12.6463,1014.67
507752,0.114778,9.74175,1.36777,2.24,-3.36,-0.28,-20.4154,-47.5091,12.6906,1014.67
507758,0.129125,9.75131,1.33907,1.75,-3.15,0.7,-21.1999,-49.1744,12.469,1014.67
507764,0.148254,9.78001,1.31516,1.75,-3.36,0.35,-21.258,-48.4651,11.6563,1014.67
507770,0.191296,9.78957,1.2769,1.33,-3.15,0.14,-20.5316,-47.5091,12.927,1014.7
507776,0.157819,9.79436,1.34385,1.33,-3.36,-0.21,-20.4735,-47.91,12.1734,1014.7
507782,0.248685,9.79436,1.34385,1.75,-3.29,-0.63,-20.7059,-48.866,12.1587,1014.66
507788,0.200861,9.80392,1.34385,1.68,-3.78,-0.98,-20.7931,-47.2932,11.8631,1014.66
507794,0.153037,9.76566,1.36298,1.26,-3.08,-0.91,-21.258,-47.2315,12.2769,1014.66
507800,0.10043,9.79436,1.39168,1.26,-3.22,-1.12,-21.3452,-48.4034,12.2916,1014.66
507806,0.148254,9.76088,1.40124,1.05,-3.22,-0.91,-21.0837,-47.8792,12.203,1014.66
507812,0.10043,9.71784,1.39646,1.54,-3.29,-0.49,-20.9093,-46.954,12.7497,1014.66
507818,0.095648,9.76566,1.37733,1.75,-3.29,-0.63,-21.4324,-48.4343,12.3803,1014.66
507824,0.0908656,9.7274,1.3869,1.4,-3.36,-0.63,-20.7641,-47.3857,11.2425,1014.68
507830,0.105213,9.70349,1.39168,1.82,-3.15,0.35,-20.735,-47.3857,13.0748,1014.68
507836,0.0860832,9.71784,1.40124,1.54,-3.15,-0.21,-20.8222,-47.9408,11.804,1014.68
507842,0.0765184,9.73697,1.36298,2.03,-3.5,0.28,-20.8803,-47.8792,12.07,1014.68
507848,0.047824,9.73218,1.35342,1.89,-3.43,0.21,-20.6769,-46.9231,13.0305,1014.69
507854,0.0860832,9.73218,1.3582,2.17,-3.85,-0.21,-20.6188,-47.8483,13.326,1014.69
507860,0.124342,9.74175,1.36298,1.54,-3.64,0.35,-21.1999,-48.496,11.9961,1014.66
507866,0.13869,9.74653,1.39168,2.31,-3.29,0.35,-20.3573,-47.6016,12.8384,1014.66
507872,0.124342,9.73218,1.36298,1.96,-3.08,0.28,-20.7641,-47.3549,12.9714,1014.66
507878,0.10043,9.78957,1.34864,1.82,-3.99,0.35,-21.5776,-47.8483,11.8779,1014.69
507884,0.215208,9.8087,1.34385,1.89,-3.36,0.28,-21.8392,-48.2492,12.8975,1014.69
507890,0.253467,9.78957,1.31994,1.82,-3.29,-0.49,-20.9965,-46.4297,11.8779,1014.67
507896,0.181731,9.80392,1.31516,1.82,-3.29,-0.63,-20.6188,-48.1259,13.1191,1014.67
507902,0.129125,9.78957,1.34864,1.33,-2.94,-0.49,-21.229,-48.3109,11.5085,1014.68
507908,0.148254,9.78001,1.3582,1.4,-3.15,-0.35,-20.6769,-46.2755,12.4394,1014.68
507914,0.133907,9.77044,1.38211,1.68,-3.43,-0.63,-20.7641,-47.4166,12.9123,1014.7
507920,0.095648,9.71784,1.42037,1.75,-3.43,-0.42,-21.5195,-49.0819,10.4003,1014.7
507926,0.0860832,9.75131,1.40124,1.75,-3.85,-0.42,-20.6478,-47.3549,12.203,1014.68
507932,0.0526064,9.73218,1.34864,1.96,-3.29,-0.28,-20.7931,-46.6456,11.4198,1014.68
507938,0.0860832,9.76088,1.35342,1.75,-3.36,-0.28,-21.3452,-48.3726,11.2573,1014.68
507944,0.124342,9.73697,1.38211,1.68,-3.22,-0.21,-21.1999,-47.8792,12.1734,1014.7
507950,0.13869,9.70349,1.34385,1.96,-3.92,-0.35,-20.212,-47.1082,13.4885,1014.7
507956,0.0908656,9.7274,1.35342,1.61,-3.78,0.14,-21.4905,-48.4651,12.0257,1014.7
507962,0.0860832,9.73218,1.37733,1.75,-3.43,0.07,-21.2871,-48.3418,11.6267,1014.7
507968,0.0860832,9.70349,1.39646,2.03,-3.5,0.07,-20.1829,-47.3857,12.6463,1014.68
507974,0.105213,9.74653,1.37255,1.75,-3.15,0.7,-20.5607,-48.0334,13.0009,1014.68
507980,0.133907,9.74175,1.34385,2.1,-3.01,0.21,-21.5776,-48.2492,11.8188,1014.68
507986,0.109995,9.7561,1.37255,1.96,-3.15,-0.07,-21.4324,-47.9717,12.1734,1014.68
507992,0.191296,9.75131,1.37733,1.82,-3.71,-0.07,-20.1829,-47.6324,13.4147,1014.68
507998,0.243902,9.81349,1.3582,1.75,-3.57,-0.21,-20.9675,-48.681,11.5233,1014.68
508004,0.224773,9.78479,1.34385,1.68,-3.29,-0.42,-21.5195,-48.5885,12.6906,1014.68
508010,0.181731,9.78957,1.32951,1.82,-2.66,-0.77,-21.4033,-47.139,12.9566,1014.68
508016,0.153037,9.8374,1.30081,1.61,-3.57,-1.19,-20.8512,-48.2184,11.7006,1014.68
508022,0.181731,9.77523,1.39646,1.68,-3.43,-1.19,-20.8222,-48.3109,11.8631,1014.69
508028,0.124342,9.75131,1.41081,1.61,-3.71,-1.47,-20.8222,-47.725,12.2178,1014.69
508034,0.0765184,9.73218,1.42037,1.4,-3.22,-1.19,-20.735,-47.6633,13.1339,1014.69
508040,0.0765184,9.73218,1.40124,1.54,-3.36,-0.84,-20.9093,-48.8969,11.1391,1014.69
508046,0.0765184,9.69871,1.40603,1.75,-3.64,-1.05,-20.735,-47.8483,12.469,1014.69
508052,0.105213,9.71784,1.37255,1.68,-3.64,-0.28,-20.735,-47.5091,13.0157,1014.66
508058,0.0765184,9.73218,1.38211,2.24,-3.29,-0.49,-20.8222,-48.5576,11.7597,1014.66
508064,0.105213,9.7561,1.33429,1.75,-3.36,-0.63,-20.5025,-48.3418,12.5428,1014.68
508070,0.0813008,9.72262,1.37733,1.96,-3.64,-0.21,-20.4444,-47.0157,12.1734,1014.68
508076,0.0621712,9.70827,1.40603,1.68,-3.5,0.07,-21.0256,-47.9717,12.3212,1014.7
508082,0.0621712,9.71305,1.40603,2.03,-3.57,0.77,-20.8803,-49.6062,11.8188,1014.7
508088,0.0860832,9.71784,1.36298,1.82,-3.57,0.28,-21.0837,-47.2624,12.4542,1014.69
508094,0.124342,9.75131,1.34864,2.1,-3.29,0.21,-19.9795,-47.9408,12.07,1014.69
508100,0.162602,9.76566,1.33907,1.68,-3.15,0.63,-21.0546,-48.496,11.5972,1014.68
508106,0.133907,9.74653,1.36777,1.33,-3.36,0.35,-21.3161,-48.4651,10.6219,1014.68
508112,0.13869,9.76566,1.41081,1.96,-3.15,0.56,-20.6188,-47.2932,13.4442,1014.68
508118,0.143472,9.79914,1.36298,1.61,-3.43,0.21,-21.6067,-49.0202,12.602,1014.68
508124,0.172166,9.78001,1.35342,1.33,-3.22,-0.42,-20.6769,-48.6502,11.5824,1014.68
508130,0.124342,9.79914,1.37733,2.03,-3.01,-0.35,-20.7931,-47.3549,12.6758,1014.66
508136,0.148254,9.76088,1.37255,1.61,-3.15,0.14,-21.1127,-48.3726,12.0257,1014.66
508142,0.148254,9.73218,1.39168,1.61,-3.22,-0.42,-21.4614,-48.9586,12.8384,1014.72
508148,0.153037,9.74653,1.36298,2.17,-3.15,-0.63,-20.9965,-48.0642,12.0257,1014.72
508154,0.13869,9.73697,1.38211,1.89,-3.08,-0.28,-20.5025,-47.6016,13.1339,1014.7
508160,0.105213,9.74175,1.36777,1.68,-3.15,-0.21,-20.9093,-48.496,10.9174,1014.7
508166,0.10043,9.74653,1.3869,2.24,-3.22,-0.63,-20.8222,-47.91,12.3508,1014.7
508172,0.0860832,9.73697,1.39168,1.68,-3.01,0.28,-21.5486,-46.8306,13.4294,1014.67
508178,0.0908656,9.72262,1.42037,1.82,-3.22,0,-21.5195,-48.3726,12.794,1014.67
508184,0.10043,9.71305,1.3582,1.89,-3.43,0.21,-21.258,-48.7427,11.4494,1014.69
508190,0.105213,9.74175,1.37733,2.31,-3.5,-0.28,-21.229,-46.7073,12.3803,1014.69
508196,0.105213,9.71784,1.39168,1.82,-3.15,0,-21.2871,-48.0642,11.6415,1014.68
508202,0.10043,9.7274,1.3869,2.24,-3.15,0.07,-20.8222,-48.3418,11.346,1014.68
508208,0.0813008,9.75131,1.37255,1.89,-2.94,0.56,-20.6188,-47.139,12.5133,1014.71
508214,0.11956,9.74653,1.34385,2.31,-3.15,0.07,-20.9093,-47.0157,13.0305,1014.71
508220,0.13869,9.74653,1.36777,2.03,-3.57,0.35,-20.735,-48.7427,11.5824,1014.71
508226,0.186514,9.7561,1.37255,2.17,-3.43,0,-21.5776,-47.3549,11.7892,1014.68
508232,0.210426,9.80392,1.37255,1.89,-2.94,-0.49,-20.7641,-46.9231,12.4099,1014.68
508238,0.200861,9.78957,1.35342,1.89,-3.01,-0.42,-21.0837,-49.0819,13.6215,1014.68
508244,0.071736,9.76566,1.37255,1.96,-3.36,-0.07,-20.9965,-48.8969,12.1291,1014.68
508250,0.095648,9.7561,1.37255,2.17,-3.5,-0.21,-21.229,-46.954,12.336,1014.7
508256,0.224773,9.76088,1.42516,1.75,-3.01,-0.42,-20.7931,-47.8483,12.0996,1014.7
508262,0.143472,9.74653,1.34864,1.68,-3.36,-0.84,-20.6769,-48.7427,13.1339,1014.67
508268,0.0669536,9.77523,1.34385,2.03,-3.29,-0.63,-20.8803,-47.6324,12.0404,1014.67
508274,0.0621712,9.74653,1.40124,1.47,-3.22,-0.07,-20.5316,-47.8792,12.2325,1014.67
508280,0.0765184,9.71784,1.37733,1.89,-3.29,-0.14,-20.735,-48.0642,12.8236,1014.67
508286,0.0860832,9.72262,1.3869,2.17,-3.22,-0.56,-20.6188,-47.6016,12.2325,1014.67
508292,0.095648,9.7274,1.36298,1.75,-2.87,0,-20.9675,-47.139,12.927,1014.68
508298,0.0765184,9.75131,1.39168,1.75,-3.22,0.28,-20.7931,-48.095,11.0209,1014.68
508304,0.0669536,9.71784,1.37255,1.89,-3.64,0.28,-20.8222,-48.2801,12.5724,1014.7
508310,0.0860832,9.70349,1.37255,1.75,-3.57,0.56,-20.4444,-46.7381,12.5872,1014.7
508316,0.095648,9.73218,1.36777,2.38,-3.99,0.35,-20.3282,-48.4651,13.06,1014.69
508322,0.10043,9.73218,1.39646,1.89,-3.22,0.49,-20.6478,-48.7427,10.9174,1014.69
508328,0.114778,9.74175,1.37255,2.1,-3.43,1.26,-20.3863,-47.139,11.9075,1014.68
508334,0.133907,9.73218,1.40603,2.45,-3.99,0.42,-19.718,-47.7558,13.592,1014.68
508340,0.143472,9.73218,1.37733,1.89,-3.15,0.07,-20.2701,-48.2492,10.3412,1014.68
508346,0.133907,9.78957,1.37255,2.24,-3.36,1.05,-20.3573,-47.9717,12.8679,1014.68
508352,0.200861,9.80392,1.34385,2.03,-3.71,0.35,-20.0376,-47.2007,13.0009,1014.68
508358,0.248685,9.83261,1.3582,2.45,-3.29,-0.49,-20.9093,-49.0202,12.0848,1014.69
508364,0.205643,9.77523,1.40603,2.1,-3.15,0,-20.2991,-48.1259,12.7497,1014.69
508370,0.124342,9.81827,1.34385,1.96,-3.15,0.14,-19.6599,-46.4605,11.7154,1014.7
508376,0.095648,9.79914,1.34864,1.75,-3.36,-0.49,-20.0086,-48.6193,12.3803,1014.7
508382,0.11956,9.77044,1.3869,1.96,-3.22,-0.35,-20.1829,-48.2184,12.2178,1014.67
508388,0.133907,9.75131,1.37733,1.82,-3.57,-0.63,-20.9093,-46.8615,13.5033,1014.67
508394,0.133907,9.74653,1.40124,2.1,-2.94,-0.28,-20.3573,-47.0157,13.0009,1014.67
508400,0.0430416,9.70827,1.39168,1.89,-3.15,-0.35,-21.5776,-48.7427,12.1882,1014.62
508406,0.0334768,9.7274,1.3869,2.03,-3.36,0.28,-20.4154,-48.1876,13.8579,1014.62
508412,0.10043,9.75131,1.3869,2.1,-3.22,-0.28,-20.6478,-47.6324,13.1635,1014.66
508418,0.095648,9.72262,1.39646,1.82,-2.87,0.42,-20.5607,-47.91,11.3312,1014.66
508424,0.10043,9.73218,1.3869,2.17,-3.22,0.7,-21.4324,-48.9586,11.5233,1014.68
508430,0.109995,9.7274,1.34864,2.17,-3.22,0.28,-21.229,-46.6764,12.8975,1014.68
508436,0.109995,9.7274,1.37255,2.03,-3.22,0.42,-20.2701,-48.866,12.336,1014.67
508442,0.133907,9.68436,1.37255,2.45,-3.78,0.84,-21.6358,-48.9277,12.1143,1014.67
508448,0.129125,9.74653,1.3869,2.24,-3.64,1.26,-21.752,-47.324,12.6758,1014.7
508454,0.105213,9.73697,1.36298,2.38,-3.22,0.7,-20.3573,-47.725,13.1339,1014.7
508460,0.10043,9.75131,1.34864,2.66,-3.29,1.33,-20.9384,-48.9277,11.6858,1014.7
508466,0.071736,9.76566,1.37255,2.03,-3.64,0.21,-21.4614,-47.9408,11.1391,1014.65
508472,0.181731,9.77523,1.38211,2.03,-3.43,0.42,-21.1418,-47.7558,12.203,1014.65
508478,0.224773,9.78479,1.33429,2.1,-3.22,0.7,-21.6067,-48.2801,12.5724,1014.69
508484,0.129125,9.80392,1.33907,2.24,-3.29,0.07,-20.8512,-48.0025,11.5528,1014.69
508490,0.114778,9.78001,1.34864,1.54,-3.78,0.35,-20.4735,-47.4166,12.4985,1014.67
508496,0.129125,9.77044,1.38211,1.82,-3.57,0.63,-20.3573,-48.0334,11.2869,1014.67
508502,0.176949,9.78957,1.33429,2.03,-3.57,0.14,-20.9093,-48.4034,11.7301,1014.69
508508,0.200861,9.73697,1.35342,1.96,-3.15,-0.07,-20.7931,-48.1567,11.8188,1014.69
508514,0.0908656,9.7561,1.35342,2.17,-3.22,-0.21,-20.8803,-47.6633,12.5133,1014.69
508520,0.0813008,9.77523,1.38211,1.96,-3.15,0,-20.0958,-48.5885,12.0257,1014.71
508526,0.0908656,9.74653,1.38211,1.82,-3.64,0.28,-20.5607,-47.8175,10.947,1014.71
508532,0.13869,9.74175,1.40124,2.24,-3.01,0.49,-20.4154,-47.5091,12.469,1014.69
508538,0.129125,9.74653,1.37255,2.52,-2.8,0.28,-20.4735,-48.5885,10.8583,1014.69
508544,0.10043,9.75131,1.37255,2.24,-3.57,0,-20.7641,-48.7735,10.9174,1014.72
508550,0.0908656,9.71784,1.37733,1.82,-3.15,0.35,-20.3282,-47.0465,12.3951,1014.72
508556,0.109995,9.75131,1.36298,2.1,-3.08,0.56,-20.4444,-47.725,12.7497,1014.69
508562,0.148254,9.74653,1.36777,1.89,-3.15,0.56,-20.9675,-48.5576,11.5972,1014.69
508568,0.153037,9.73218,1.3582,2.45,-3.92,0.28,-20.5025,-47.3857,11.3607,1014.69
508574,0.124342,9.70827,1.38211,2.17,-3.36,0.63,-20.6188,-47.139,11.0652,1014.68
508580,0.143472,9.77523,1.39646,2.87,-3.36,0.28,-21.0256,-48.5268,11.5381,1014.68
508586,0.167384,9.76566,1.34385,2.24,-3.08,0.35,-20.1539,-47.9717,11.7597,1014.69
508592,0.148254,9.77044,1.32951,1.82,-3.15,0.14,-20.7641,-47.2315,11.5085,1014.69
508598,0.157819,9.73697,1.33907,2.03,-3.08,0.63,-20.9675,-48.4034,11.4937,1014.69
508604,0.167384,9.82305,1.34864,2.03,-3.22,0.07,-21.0256,-47.9408,13.0305,1014.69
508610,0.13869,9.7561,1.38211,2.59,-3.15,-0.07,-20.5607,-47.4166,13.1487,1014.68
508616,0.13869,9.75131,1.34385,1.68,-3.43,0.42,-20.212,-48.1876,12.6463,1014.68
508622,0.181731,9.78001,1.31038,2.31,-3.85,0.35,-21.6648,-48.4343,10.6515,1014.68
508628,0.210426,9.76566,1.36777,2.03,-3.22,-0.14,-21.1127,-47.725,11.6267,1014.68
508634,0.109995,9.73697,1.33429,2.31,-3.43,0.21,-20.9384,-47.3549,11.9666,1014.68
508640,0.0908656,9.76566,1.39168,1.96,-3.36,0.14,-21.4905,-48.5576,11.7597,1014.67
508646,0.148254,9.75131,1.3582,2.24,-3.29,0,-21.1127,-47.0157,12.0552,1014.67
508652,0.167384,9.74175,1.37255,2.45,-3.43,0.63,-20.9384,-47.4474,12.2621,1014.69
508658,0.148254,9.74175,1.3869,2.31,-3.29,0.77,-20.6188,-48.095,10.6958,1014.69
508664,0.10043,9.76088,1.35342,2.8,-3.85,0.35,-20.8803,-48.866,11.2573,1014.71
508670,0.11956,9.7274,1.39168,2.73,-3.57,0.49,-20.8222,-46.7998,11.3312,1014.71
508676,0.143472,9.76088,1.34864,2.52,-3.08,0.49,-21.5486,-47.725,10.9174,1014.69
508682,0.167384,9.75131,1.36298,2.17,-3.08,0.63,-21.0837,-48.7427,12.3508,1014.69
508688,0.176949,9.76088,1.33429,2.52,-3.85,0.35,-21.0546,-47.725,11.4642,1014.69
508694,0.176949,9.79436,1.32472,2.1,-3.71,0.35,-21.4324,-47.7558,12.1734,1014.64
508700,0.13869,9.74653,1.35342,1.89,-3.43,0.63,-21.6648,-48.2801,10.4003,1014.64
508706,0.143472,9.7274,1.38211,2.1,-3.43,0.56,-20.6769,-47.2624,12.6758,1014.67
508712,0.133907,9.76566,1.31038,1.82,-3.15,-0.07,-20.7059,-47.1082,12.336,1014.67
508718,0.133907,9.74653,1.32472,1.96,-3.5,0.63,-21.0837,-47.3857,10.9322,1014.68
508724,0.143472,9.75131,1.36298,2.17,-3.57,0.49,-20.5025,-48.2184,11.8927,1014.68
508730,0.114778,9.72262,1.36777,2.59,-3.71,0.63,-20.3863,-46.7073,11.8188,1014.67
508736,0.11956,9.75131,1.36298,2.1,-3.64,0.98,-20.2701,-47.9717,11.4198,1014.67
508742,0.124342,9.70827,1.33907,2.52,-3.99,0.35,-21.3161,-48.1876,10.5628,1014.67
508748,0.11956,9.76566,1.33907,2.24,-2.94,0.42,-21.9554,-47.324,10.1195,1014.68
508754,0.176949,9.7561,1.33907,2.03,-3.36,0.91,-20.9093,-46.5839,12.3212,1014.68
508760,0.133907,9.72262,1.37255,2.38,-3.36,1.05,-21.1709,-48.0642,12.5428,1014.68
508766,0.11956,9.74175,1.32951,2.52,-3.43,1.12,-21.5195,-47.8792,10.8288,1014.68
508772,0.157819,9.7561,1.37733,2.94,-3.78,0.84,-21.0256,-47.1082,11.3312,1014.68
508778,0.200861,9.78001,1.33907,2.52,-3.5,0.91,-20.9675,-48.3418,11.1686,1014.68
508784,0.296509,9.80392,1.31038,2.31,-3.15,0.42,-20.4735,-48.0025,11.7892,1014.68
508790,0.263032,9.82783,1.28168,2.59,-3.29,0.14,-20.4444,-46.9848,12.4394,1014.68
508796,0.224773,9.85174,1.23864,1.75,-3.15,0.07,-20.7059,-47.91,11.6267,1014.69
508802,0.176949,9.82783,1.33907,1.75,-2.87,-0.21,-20.7931,-48.3726,10.5185,1014.69
508808,0.148254,9.74175,1.3869,1.68,-3.08,-0.49,-20.5607,-47.6633,11.8484,1014.69
508814,0.200861,9.71305,1.39646,1.4,-3.22,0.14,-21.0837,-47.9717,11.4789,1014.7
508820,0.153037,9.73218,1.3869,1.61,-3.01,0,-20.5316,-48.4034,11.4789,1014.7
508826,0.13869,9.71784,1.37733,1.89,-2.87,-0.21,-20.3573,-48.1259,11.8484,1014.69
508832,0.109995,9.71305,1.38211,2.03,-3.22,0.14,-20.9965,-47.725,12.5872,1014.69
508838,0.114778,9.70349,1.39168,2.24,-3.15,0.84,-21.0837,-48.1259,10.7401,1014.68
508844,0.133907,9.73697,1.36298,2.1,-3.36,0.35,-20.3863,-47.7866,11.213,1014.68
508850,0.129125,9.74175,1.32951,2.03,-2.73,1.19,-21.1418,-47.2315,12.6463,1014.65
508856,0.143472,9.74653,1.3582,2.52,-3.08,0.84,-20.9675,-47.91,11.9222,1014.65
508862,0.129125,9.75131,1.35342,2.17,-3.5,1.4,-20.9093,-48.9894,12.2621,1014.65
508868,0.143472,9.76566,1.37733,2.17,-3.15,0.77,-21.0837,-47.1082,13.326,1014.67
508874,0.167384,9.76088,1.31038,2.31,-3.15,0.7,-21.3161,-47.5708,12.1291,1014.67
508880,0.181731,9.77044,1.34864,2.17,-3.43,0.7,-21.4905,-48.3726,11.8484,1014.68
508886,0.172166,9.79914,1.35342,2.24,-3.29,1.05,-20.4444,-47.7558,11.1982,1014.68
508892,0.176949,9.76566,1.3582,2.8,-3.29,0.14,-21.0256,-47.4166,12.6611,1014.71
508898,0.157819,9.74653,1.33907,2.1,-3.08,0.35,-21.752,-47.9408,11.3312,1014.71
508904,0.205643,9.77044,1.31994,1.89,-3.43,1.05,-20.6188,-48.7735,12.336,1014.68
508910,0.191296,9.76088,1.36298,2.73,-3.64,0.42,-20.5897,-46.9231,11.804,1014.68
508916,0.176949,9.77523,1.34385,2.1,-3.15,0.35,-20.5025,-48.0025,11.3755,1014.68
508922,0.215208,9.78001,1.33907,2.52,-3.43,0.42,-21.4324,-48.5268,11.4494,1014.71
508928,0.13869,9.77044,1.36777,2.24,-3.71,0.35,-21.1127,-46.8306,12.7349,1014.71
508934,0.176949,9.76088,1.35342,2.31,-3.15,0.35,-20.5607,-47.725,11.7006,1014.66
508940,0.191296,9.75131,1.31516,2.17,-2.8,0.42,-21.1127,-47.9408,10.9322,1014.66
508946,0.176949,9.7274,1.33907,2.38,-3.43,0.35,-21.5776,-47.2315,11.9222,1014.69
508952,0.172166,9.7561,1.36298,1.82,-3.22,0.56,-21.6067,-47.6941,12.0848,1014.69
508958,0.162602,9.74653,1.35342,2.8,-3.43,0.35,-21.4033,-48.4343,10.9618,1014.69
508964,0.13869,9.73218,1.33907,2.24,-3.29,0.56,-21.4324,-48.2492,10.6071,1014.69
508970,0.162602,9.74175,1.34864,2.59,-3.43,0.63,-21.3742,-47.0773,12.7054,1014.68
508976,0.11956,9.7561,1.38211,2.66,-3.29,0.91,-20.7059,-48.0025,11.937,1014.68
508982,0.148254,9.74653,1.3582,2.38,-3.5,0.28,-20.5607,-48.3726,12.9714,1014.68
508988,0.181731,9.77044,1.3582,2.52,-3.08,0.49,-20.8803,-47.6941,12.7645,1014.68
508994,0.191296,9.78001,1.33429,2.1,-3.43,0.7,-20.3282,-47.6633,12.0848,1014.68
509000,0.253467,9.79914,1.34385,2.17,-3.08,0.21,-20.7641,-48.6193,11.7892,1014.67
509006,0.25825,9.81827,1.31994,2.1,-3.08,-0.07,-20.8512,-47.3549,12.2621,1014.67
509012,0.229555,9.78957,1.34385,1.96,-3.22,-0.35,-21.1709,-47.1082,11.9518,1014.69
509018,0.186514,9.80392,1.34864,1.96,-3.36,-0.49,-20.8803,-47.6324,11.4494,1014.69
509024,0.210426,9.76566,1.37733,1.96,-3.43,-0.63,-21.9844,-48.2801,11.9075,1014.69
509030,0.181731,9.78001,1.33907,1.96,-3.43,-0.49,-21.2871,-46.3372,12.336,1014.69
509036,0.143472,9.74653,1.32472,1.96,-3.15,-0.14,-20.9093,-48.1876,11.7449,1014.69
509042,0.10043,9.76088,1.35342,2.03,-3.57,-0.63,-20.9675,-48.4343,13.2373,1014.7
509048,0.129125,9.71784,1.41081,2.38,-3.5,-0.35,-20.6769,-47.0773,11.4051,1014.7
509054,0.129125,9.71784,1.36298,2.66,-3.92,0.14,-21.5195,-47.1082,12.602,1014.7
509060,0.157819,9.74175,1.34385,2.24,-3.29,-0.14,-21.7229,-47.8792,12.203,1014.7
509066,0.153037,9.74653,1.32472,2.17,-3.22,0.14,-20.8512,-47.2932,11.5381,1014.69
509072,0.157819,9.74653,1.31038,2.1,-3.92,-0.21,-20.8803,-46.8923,13.1635,1014.69
509078,0.181731,9.71305,1.34864,2.31,-3.36,0.42,-20.8512,-47.725,11.5085,1014.67
509084,0.167384,9.74175,1.31038,2.17,-3.43,0.7,-20.8512,-47.91,11.0948,1014.67
509090,0.13869,9.74175,1.32951,2.38,-3.22,0.42,-21.3742,-46.5531,12.5133,1014.67
509096,0.191296,9.72262,1.31994,2.45,-3.22,0.98,-21.0546,-47.8483,13.1043,1014.65
509102,0.176949,9.74653,1.32951,2.24,-3.5,0.7,-21.1127,-48.5885,10.2968,1014.65
509108,0.191296,9.78479,1.31038,2.73,-3.5,0.84,-21.1999,-47.2932,13.0157,1014.65
509114,0.210426,9.77044,1.31516,2.03,-3.99,0.35,-20.9384,-47.6324,12.1439,1014.65
509120,0.167384,9.78479,1.33429,2.45,-3.29,0.56,-20.9093,-48.3418,11.3312,1014.68
509126,0.25825,9.79914,1.33429,2.17,-3.57,0.63,-20.735,-48.095,12.6315,1014.68
509132,0.329986,9.81827,1.29603,2.03,-3.57,0,-20.8512,-46.7073,12.0404,1014.71
509138,0.291726,9.79914,1.32472,1.82,-3.01,-0.35,-21.5776,-48.095,11.8927,1014.71
509144,0.186514,9.81349,1.31516,1.68,-2.94,-0.21,-21.229,-47.2624,12.602,1014.7
509150,0.105213,9.78479,1.34864,2.38,-3.29,0.07,-21.6067,-46.9848,13.7102,1014.7
509156,0.153037,9.74175,1.34385,1.75,-3.43,-0.14,-21.5776,-48.4651,10.6219,1014.7
509162,0.200861,9.7561,1.36298,1.96,-3.43,-0.21,-21.8682,-47.7866,12.469,1014.68
509168,0.191296,9.70827,1.34385,2.1,-3.22,-0.49,-21.4324,-47.6941,11.3755,1014.68
509174,0.153037,9.7561,1.31038,1.96,-3.22,-0.63,-20.9093,-47.3857,12.2769,1014.7
509180,0.153037,9.73697,1.36777,2.38,-2.94,0.14,-21.3161,-48.9586,11.2425,1014.7
509186,0.148254,9.73218,1.34385,2.03,-3.57,0.28,-21.7229,-47.7866,12.8384,1014.66
509192,0.153037,9.7561,1.33429,2.38,-3.5,-0.21,-20.9965,-46.9231,11.5233,1014.66
509198,0.157819,9.78479,1.29603,2.17,-3.36,0.21,-20.735,-48.4343,12.0404,1014.67
509204,0.167384,9.74175,1.31038,1.96,-3.43,0.14,-21.4905,-47.725,11.671,1014.67
509210,0.167384,9.7561,1.32472,1.82,-3.29,0.7,-21.2871,-47.0157,12.8532,1014.67
509216,0.176949,9.74653,1.34385,2.52,-3.08,0.21,-21.258,-47.3549,11.0504,1014.68
509222,0.200861,9.74175,1.34385,1.96,-3.22,0.56,-21.4905,-48.866,11.9518,1014.68
509228,0.21999,9.77523,1.33429,2.24,-3.36,0.56,-21.1127,-46.8923,12.0996,1014.67
509234,0.181731,9.75131,1.33429,2.24,-3.43,1.19,-21.1709,-47.0773,12.3508,1014.67
509240,0.205643,9.75131,1.34864,2.24,-3.85,0.56,-20.9675,-47.6016,11.08,1014.7
509246,0.21999,9.78479,1.31038,2.52,-3.15,0.14,-21.3742,-47.6324,12.3212,1014.7
509252,0.248685,9.81349,1.31994,2.31,-3.29,0.21,-20.4735,-46.8306,12.3064,1014.71
509258,0.23912,9.77523,1.33907,1.89,-3.22,0.7,-20.5025,-48.5576,11.7154,1014.71
509264,0.196078,9.78479,1.30081,2.45,-2.94,-0.42,-21.0837,-48.0642,11.3607,1014.71
509270,0.196078,9.78479,1.31994,2.17,-3.57,17.78,-21.6648,-46.8615,13.1191,1014.7
509276,0.191296,9.78001,1.31994,2.03,-2.94,-0.35,-21.2871,-47.139,13.4738,1014.7
509282,0.23912,9.81349,1.34864,1.75,-3.43,-0.14,-20.9965,-48.4034,12.1587,1014.65
509288,0.210426,9.82305,1.32951,1.89,-3.36,0.21,-21.1127,-46.3063,12.5281,1014.65
509294,0.176949,9.75131,1.3056,2.1,-3.5,0,-21.5776,-46.6147,12.4099,1014.66
509300,0.13869,9.76088,1.37733,1.82,-3.43,-0.35,-21.781,-48.4343,11.9075,1014.66
509306,0.172166,9.7274,1.36298,1.96,-3.5,0.49,-21.4324,-47.5399,12.794,1014.69
509312,0.186514,9.73218,1.32951,1.82,-3.5,0.42,-21.3742,-47.2932,13.2669,1014.69
509318,0.181731,9.77044,1.32472,2.17,-3.29,0,-20.9965,-47.6941,13.0009,1014.68
509324,0.172166,9.74175,1.35342,1.75,-3.15,0.07,-20.8803,-47.8483,12.4099,1014.68
509330,0.196078,9.72262,1.35342,2.24,-3.78,0.35,-20.7641,-46.5531,13.5772,1014.68
509336,0.200861,9.76088,1.32472,2.03,-3.64,0.35,-20.7641,-47.9717,11.5676,1014.64
509342,0.191296,9.74653,1.33907,2.17,-3.57,0.35,-21.229,-48.5885,12.3064,1014.64
509348,0.191296,9.7561,1.31994,2.1,-3.15,0.56,-21.6067,-47.2624,12.6611,1014.67
509354,0.205643,9.75131,1.3582,1.89,-3.22,0.14,-20.4444,-47.4474,13.8284,1014.67
509360,0.248685,9.77044,1.36777,2.24,-3.85,0.56,-22.1588,-49.0202,10.2525,1014.7
509366,0.243902,9.84218,1.29603,1.75,-3.71,0.07,-20.7931,-48.1259,11.7006,1014.7
509372,0.296509,9.82305,1.29125,1.54,-3.22,-0.07,-21.6648,-46.8923,14.2865,1014.69
509378,0.349115,9.84696,1.28168,1.12,-3.01,-0.7,-21.6358,-48.8352,11.7597,1014.69
509384,0.344333,9.78957,1.28647,1.75,-3.08,-1.26,-21.6358,-48.1567,12.3064,1014.69
509390,0.124342,9.81827,1.30081,1.68,-2.8,-1.4,-21.258,-47.5708,13.2078,1014.7
509396,0.162602,9.78479,1.31994,1.05,-3.08,-1.12,-21.3452,-47.9717,12.1143,1014.7
509402,0.10043,9.73218,1.39168,1.4,-3.29,-1.33,-21.229,-48.5885,10.814,1014.7
509408,0.172166,9.72262,1.41081,1.4,-3.08,-0.91,-20.8512,-47.2624,12.4394,1014.7
509414,0.13869,9.7561,1.33907,1.61,-3.5,-0.77,-21.258,-47.139,11.7154,1014.66
509420,0.124342,9.74175,1.32472,1.75,-3.43,-0.35,-21.2871,-48.1567,11.9666,1014.66
509426,0.133907,9.68914,1.34864,1.61,-3.71,-0.21,-21.5486,-47.7558,11.5085,1014.65
509432,0.148254,9.71305,1.36298,2.38,-3.29,0,-21.1418,-47.2932,12.7793,1014.65
509438,0.0908656,9.7274,1.37733,1.96,-3.15,-0.28,-21.0546,-48.8044,12.8827,1014.65
509444,0.157819,9.72262,1.32951,1.89,-3.5,0.49,-21.6067,-48.7118,11.5824,1014.69
509450,0.109995,9.7274,1.32472,1.96,-3.85,0.49,-20.7059,-47.0157,12.7054,1014.69
509456,0.13869,9.71784,1.36777,2.45,-3.64,0.56,-20.6478,-48.6502,12.7793,1014.64
509462,0.196078,9.74653,1.3056,1.89,-3.22,0.63,-21.1418,-48.681,10.7845,1014.64
509468,0.243902,9.76088,1.33429,1.82,-3.22,1.19,-21.4905,-46.6764,12.6758,1014.67
509474,0.248685,9.76566,1.28647,1.89,-3.15,0.49,-20.6769,-47.6941,11.3312,1014.67
509480,0.272597,9.78957,1.29125,1.54,-3.22,0.42,-20.7059,-48.0334,11.8336,1014.69
509486,0.263032,9.78957,1.31516,1.61,-3.29,-0.07,-20.7931,-47.7866,12.0996,1014.69
509492,0.263032,9.84218,1.3056,1.19,-3.08,-0.14,-21.1418,-46.9848,12.6906,1014.69
509498,0.272597,9.80392,1.28647,1.33,-3.36,-0.28,-21.0256,-48.0334,12.6463,1014.69
509504,0.277379,9.81827,1.31038,0.98,-3.5,-0.7,-21.5776,-47.7866,12.0404,1014.69
509510,0.234338,9.78001,1.37255,1.19,-2.94,-1.54,-20.9384,-47.2007,12.7054,1014.69
509516,0.224773,9.77523,1.3869,1.05,-3.15,-0.98,-21.1127,-47.725,11.5381,1014.69
509522,0.153037,9.76566,1.36298,1.68,-3.01,-1.26,-21.4033,-48.8352,11.0061,1014.69
509528,0.0860832,9.77044,1.36777,0.98,-3.43,-0.28,-21.6358,-47.5399,12.5428,1014.69
509534,0.157819,9.7274,1.37733,1.54,-2.94,-0.7,-21.4905,-46.4605,13.4442,1014.68
509540,0.13869,9.73218,1.3582,1.4,-3.22,-0.63,-20.8222,-48.5576,11.6415,1014.68
509546,0.176949,9.7274,1.3582,1.4,-3.71,-0.56,-21.258,-47.8792,11.9813,1014.68
509552,0.11956,9.73697,1.33907,1.4,-3.57,-0.14,-20.9384,-47.5708,11.7006,1014.68
509558,0.133907,9.71305,1.31994,1.4,-3.29,0.14,-20.4154,-47.7866,11.7597,1014.68
509564,0.124342,9.74175,1.34864,1.33,-3.29,0.14,-20.5025,-48.0025,12.0552,1014.65
509570,0.133907,9.7274,1.37255,1.68,-3.22,-0.07,-20.7931,-46.954,12.3803,1014.65
509576,0.186514,9.71305,1.32951,1.54,-3.71,0.21,-20.9384,-48.0642,11.671,1014.66
509582,0.191296,9.74175,1.32472,1.61,-3.15,0.14,-21.3161,-48.3109,12.1143,1014.66
509588,0.196078,9.75131,1.34864,1.47,-2.73,0.28,-20.7059,-47.9717,11.5824,1014.69
509594,0.210426,9.75131,1.35342,1.75,-3.22,0.21,-20.6769,-47.2315,12.6315,1014.69
509600,0.215208,9.76566,1.35342,1.47,-3.22,-0.28,-21.3452,-48.4343,10.4594,1014.69
509606,0.243902,9.76566,1.31994,1.54,-3.15,-0.21,-20.9675,-47.91,12.0996,1014.69
509612,0.263032,9.79436,1.36777,1.82,-3.57,-0.84,-20.8512,-46.5222,12.6906,1014.69
509618,0.263032,9.77044,1.3056,1.82,-3.36,-0.98,-21.3161,-48.6502,11.2425,1014.69
509624,0.124342,9.73697,1.41559,2.1,-3.64,-0.56,-20.8803,-47.8792,11.7892,1014.69
509630,0.143472,9.78957,1.3869,2.1,-3.64,-0.49,-20.2701,-47.0157,13.7545,1014.68
509636,0.196078,9.76088,1.34385,2.1,-3.57,-0.49,-21.3452,-48.0334,12.6463,1014.68
509642,0.162602,9.74175,1.34385,2.1,-3.57,-0.49,-20.9965,-47.7866,11.213,1014.67
509648,0.167384,9.7561,1.35342,2.03,-3.29,-0.21,-21.6067,-46.954,12.0996,1014.67
509654,0.143472,9.75131,1.34385,2.59,-3.78,-0.07,-20.6478,-46.8923,13.4738,1014.69
509660,0.133907,9.73218,1.34385,2.24,-3.85,-0.14,-21.5486,-47.9408,12.203,1014.69
509666,0.176949,9.74175,1.35342,1.96,-3.71,0.14,-21.3161,-47.2932,12.8088,1014.7
509672,0.176949,9.71784,1.3582,1.96,-3.15,0,-21.3161,-46.7381,12.7497,1014.7
509678,0.186514,9.73697,1.3582,2.17,-3.29,0.28,-22.0716,-47.91,11.7006,1014.7
509684,0.200861,9.76088,1.32472,2.52,-2.66,-0.07,-21.1418,-47.8483,12.5724,1014.71
509690,0.234338,9.79436,1.3056,1.89,-3.43,0.07,-21.6067,-47.2007,12.9418,1014.71
509696,0.253467,9.78479,1.32951,1.75,-3.01,0.28,-21.229,-46.8306,12.3951,1014.67
509702,0.25825,9.79436,1.31516,1.96,-2.94,-0.42,-21.3452,-47.9408,11.4346,1014.67
509708,0.272597,9.79914,1.33907,1.89,-3.22,-0.56,-21.6067,-46.954,12.2473,1014.67
509714,0.23912,9.81827,1.29125,1.54,-3.15,-0.56,-21.5486,-47.0157,11.9075,1014.67
509720,0.229555,9.78001,1.32472,1.82,-3.01,-1.05,-21.2871,-47.324,11.0948,1014.68
509726,0.215208,9.79436,1.36298,1.19,-2.73,-0.91,-21.7229,-47.324,12.2769,1014.68
509732,0.157819,9.78479,1.3582,1.33,-3.22,-1.12,-21.229,-46.1521,12.9861,1014.68
509738,0.148254,9.71305,1.38211,1.4,-3.29,-0.7,-21.1999,-46.6456,12.8975,1014.71
509744,0.186514,9.7561,1.34864,1.68,-3.29,-0.91,-20.9093,-48.1259,11.0061,1014.71
509750,0.167384,9.77523,1.2769,1.68,-3.5,-0.77,-21.1999,-45.412,12.9418,1014.68
509756,0.153037,9.73218,1.31516,1.26,-3.5,-0.42,-20.7641,-47.7558,11.7154,1014.68
509762,0.133907,9.71784,1.32472,1.47,-3.22,-0.56,-21.6939,-47.91,11.5528,1014.69
509768,0.181731,9.73697,1.32951,1.54,-3.43,-0.35,-21.6067,-46.7998,11.3607,1014.69
509774,0.167384,9.72262,1.32951,1.75,-3.08,0.21,-21.5486,-47.2932,10.223,1014.68
509780,0.13869,9.70827,1.40124,1.54,-3.29,-0.07,-20.8803,-48.4343,11.1834,1014.68
509786,0.167384,9.71305,1.36777,1.75,-3.22,-0.07,-21.0546,-46.9231,12.1291,1014.68
509792,0.162602,9.72262,1.37733,1.82,-2.87,0.07,-21.4324,-46.7998,11.6119,1014.66
509798,0.210426,9.69871,1.40124,1.68,-3.01,0.56,-20.735,-48.0334,12.5872,1014.66
509804,0.191296,9.73697,1.3869,1.89,-2.94,-0.14,-20.6478,-47.9408,12.0848,1014.69
509810,0.286944,9.84218,1.2769,1.68,-3.22,-0.49,-21.3742,-47.4782,12.2916,1014.69
509816,0.267814,9.8087,1.28647,1.54,-2.66,-0.56,-21.0256,-48.5268,10.8288,1014.66
509822,0.181731,9.82305,1.32472,1.26,-2.94,-0.98,-20.6769,-47.8483,11.2869,1014.66
509828,0.0908656,9.76566,1.40603,1.68,-3.15,-0.7,-20.6188,-46.7689,11.4642,1014.67
509834,0.167384,9.77523,1.34864,1.54,-2.66,-0.63,-21.1418,-47.0465,12.3508,1014.67
509840,0.215208,9.79914,1.36298,1.47,-3.08,-0.98,-21.0837,-48.3109,11.6858,1014.69
509846,0.205643,9.75131,1.35342,1.75,-2.8,-0.84,-20.9675,-48.2492,11.671,1014.69
509852,0.143472,9.76566,1.33907,1.47,-2.8,-0.84,-20.5607,-46.6147,12.1734,1014.69
509858,0.143472,9.75131,1.36298,1.68,-2.8,-0.98,-21.258,-48.1876,12.1439,1014.67
509864,0.124342,9.76566,1.37255,1.4,-3.01,0.07,-21.5486,-48.3418,12.07,1014.67
509870,0.133907,9.75131,1.3582,1.26,-3.15,-0.35,-20.8512,-46.8615,12.336,1014.67
509876,0.157819,9.74175,1.36777,1.75,-2.8,-0.07,-22.275,-49.2978,11.3164,1014.67
509882,0.143472,9.73218,1.3582,1.82,-3.5,-0.49,-21.1709,-48.0642,11.7597,1014.66
509888,0.133907,9.73218,1.38211,1.75,-3.08,-0.28,-20.5316,-47.4474,12.9123,1014.66
509894,0.133907,9.74175,1.31038,2.03,-3.29,-0.14,-20.7931,-47.139,12.2769,1014.67
509900,0.172166,9.75131,1.34385,2.1,-3.22,0.56,-21.5486,-48.7118,11.4346,1014.67
509906,0.224773,9.74175,1.3582,1.61,-3.85,-0.07,-20.9384,-48.095,12.8384,1014.67
509912,0.210426,9.77044,1.34864,1.4,-3.01,-0.14,-20.8222,-46.3063,12.8088,1014.67
509918,0.224773,9.76566,1.32472,1.33,-3.15,-0.28,-20.7059,-48.4343,12.1291,1014.67
509924,0.296509,9.77044,1.36298,1.33,-3.29,-0.28,-20.8222,-47.0465,11.1095,1014.66
509930,0.263032,9.76088,1.38211,1.82,-2.73,-0.49,-21.3161,-47.6324,12.6611,1014.66
509936,0.215208,9.78479,1.33907,1.89,-3.29,-0.84,-21.258,-48.496,13.0157,1014.65
509942,0.210426,9.81349,1.32472,1.4,-2.94,-0.98,-20.9965,-48.5268,12.6463,1014.65
509948,0.162602,9.74653,1.38211,1.26,-3.36,-1.33,-21.0256,-47.5399,12.2769,1014.68
509954,0.13869,9.74175,1.41559,1.68,-3.08,-1.26,-21.0546,-47.3857,13.0305,1014.68
509960,0.11956,9.73697,1.43472,1.61,-3.15,-0.56,-20.9965,-48.6502,12.6463,1014.68
509966,0.172166,9.73697,1.36298,1.96,-3.5,-0.7,-20.735,-47.5399,12.7349,1014.67
509972,0.133907,9.74175,1.35342,1.89,-3.71,-0.56,-21.0837,-47.2315,13.1339,1014.67
509978,0.143472,9.69392,1.37255,2.1,-3.5,0.21,-21.1709,-47.2624,10.7549,1014.68
509984,0.133907,9.78957,1.35342,1.96,-3.85,-0.56,-21.5195,-48.1567,12.2769,1014.68
509990,0.162602,9.7561,1.31516,1.96,-3.57,-0.63,-21.258,-46.4914,13.2078,1014.68
509996,0.167384,9.73218,1.34385,1.61,-3.29,0.28,-21.5195,-48.0334,12.336,1014.68
510002,0.167384,9.76566,1.35342,1.82,-3.36,0.35,-21.781,-48.7427,12.4542,1014.69
510008,0.157819,9.73697,1.3582,1.54,-3.64,-0.28,-21.5195,-47.6324,12.2621,1014.69
510014,0.181731,9.74653,1.33907,1.61,-3.36,-0.21,-20.9675,-47.5399,13.8727,1014.68
510020,0.162602,9.78957,1.33429,1.75,-3.57,0.42,-21.0546,-48.7118,10.7106,1014.68
510026,0.157819,9.76088,1.34864,1.75,-3.08,0.21,-20.5897,-47.91,12.4099,1014.68
510032,0.181731,9.7561,1.37733,1.54,-3.08,0.21,-20.2991,-47.6633,12.927,1014.68
510038,0.243902,9.76088,1.3869,1.33,-3.43,-0.49,-21.3161,-48.5268,12.2325,1014.68
510044,0.234338,9.76566,1.36777,1.47,-3.15,-0.63,-20.9675,-48.0334,13.0157,1014.66
510050,0.181731,9.75131,1.3582,1.4,-3.08,-0.42,-20.8512,-47.0465,12.6315,1014.66
510056,0.21999,9.77523,1.3582,1.26,-2.73,-0.28,-20.9965,-47.6633,12.0404,1014.69
510062,0.23912,9.81349,1.32951,1.47,-3.15,-1.19,-21.6067,-48.496,10.9618,1014.69
510068,0.200861,9.81827,1.33429,1.19,-3.08,-1.05,-20.7059,-48.0334,12.1734,1014.64
510074,0.167384,9.7561,1.34864,0.98,-3.43,-0.63,-21.0837,-47.6941,12.9714,1014.64
510080,0.13869,9.70349,1.4395,0.98,-3.5,-1.26,-21.4324,-49.2053,10.814,1014.64
510086,0.105213,9.69392,1.42037,1.61,-3.22,-1.4,-21.3452,-47.4782,11.6563,1014.65
510092,0.148254,9.73218,1.36298,1.19,-3.01,-0.91,-21.4324,-47.0773,12.1439,1014.65
510098,0.114778,9.7274,1.3869,1.33,-2.94,-0.56,-22.1007,-48.095,12.0257,1014.67
510104,0.13869,9.7274,1.39168,1.68,-3.01,-0.21,-21.3742,-48.5268,11.8336,1014.67
510110,0.11956,9.73697,1.39168,1.75,-2.94,-0.35,-21.3452,-46.954,12.8975,1014.69
510116,0.157819,9.72262,1.40124,1.89,-3.15,-0.42,-20.9093,-47.9408,12.8827,1014.69
510122,0.124342,9.73697,1.35342,1.61,-3.15,-0.14,-21.3161,-48.1567,11.8188,1014.7
510128,0.153037,9.71784,1.37733,1.82,-3.15,0.07,-21.0837,-47.2932,11.7892,1014.7
510134,0.176949,9.71305,1.39646,1.54,-3.15,-0.49,-21.229,-47.7558,12.2916,1014.7
510140,0.148254,9.74175,1.3869,2.03,-3.08,0,-21.3161,-48.6193,12.0996,1014.7
510146,0.191296,9.73218,1.40603,2.17,-3.29,0.14,-21.9554,-47.6633,12.6167,1014.7
510152,0.181731,9.7561,1.39168,1.82,-2.66,-0.21,-21.6358,-47.2007,12.8088,1014.67
510158,0.167384,9.77523,1.36777,2.17,-3.29,-0.21,-21.6067,-47.8792,11.3607,1014.67
510164,0.157819,9.78479,1.32951,1.75,-3.01,0.07,-21.6067,-48.4651,12.0996,1014.69
510170,0.229555,9.79436,1.33429,2.03,-3.64,-0.14,-20.9093,-47.2007,11.8484,1014.69
510176,0.229555,9.8087,1.34864,1.68,-3.01,-0.49,-21.2871,-47.91,12.6906,1014.68
510182,0.13869,9.78479,1.32472,1.68,-2.73,-0.56,-21.1418,-48.6193,11.5676,1014.68
510188,0.114778,9.74653,1.37255,1.54,-3.22,0.21,-20.7931,-47.6324,12.2621,1014.7
510194,0.133907,9.73697,1.3869,1.68,-3.36,-0.21,-21.0546,-47.0157,12.8384,1014.7
510200,0.186514,9.70349,1.38211,1.68,-3.43,-0.49,-21.1999,-48.4343,11.3312,1014.7
510206,0.153037,9.74653,1.40124,1.68,-2.87,-0.14,-21.2871,-46.9848,12.6167,1014.68
510212,0.153037,9.75131,1.38211,2.03,-2.94,-0.42,-20.7931,-46.6147,12.2916,1014.68
510218,0.10043,9.77523,1.39168,1.96,-3.22,-0.14,-20.9675,-48.4651,11.4051,1014.68
510224,0.148254,9.7274,1.3582,1.96,-3.57,-0.07,-21.7229,-47.91,12.1439,1014.68
510230,0.167384,9.72262,1.39168,1.61,-3.01,-0.07,-21.229,-46.9231,12.602,1014.71
510236,0.153037,9.73218,1.36777,1.89,-3.15,0.42,-21.0837,-48.1876,12.9861,1014.71
510242,0.176949,9.7561,1.39168,1.96,-3.43,0.28,-20.9965,-49.0819,11.1243,1014.7
510248,0.176949,9.74175,1.36777,2.1,-3.15,-0.28,-21.2871,-47.725,12.7202,1014.7
510254,0.191296,9.73218,1.35342,2.03,-3.5,0,-21.0256,-47.725,12.5428,1014.7
510260,0.167384,9.78479,1.35342,1.47,-3.01,-0.07,-21.2871,-49.0202,12.6167,1014.68
510266,0.200861,9.74175,1.34864,1.68,-2.87,0,-21.0256,-48.3726,12.3803,1014.68
510272,0.191296,9.75131,1.38211,1.89,-2.94,-0.42,-20.7641,-47.5091,11.4346,1014.66
510278,0.23912,9.78957,1.36777,1.61,-3.5,-0.49,-21.229,-48.0334,11.4051,1014.66
510284,0.306074,9.81827,1.3582,1.26,-3.15,-0.7,-21.8682,-48.9894,10.1638,1014.68
510290,0.186514,9.77523,1.36777,1.96,-3.15,-0.91,-20.3573,-47.6633,11.7154,1014.68
510296,0.13869,9.78479,1.39646,1.19,-3.15,-0.35,-20.8512,-47.91,12.6167,1014.67
510302,0.0765184,9.76566,1.35342,1.26,-2.8,-0.07,-21.1418,-48.9277,11.8631,1014.67
510308,0.13869,9.73697,1.44428,1.75,-3.71,-0.56,-20.3573,-48.0642,12.2325,1014.67
510314,0.129125,9.73218,1.42516,1.68,-3.43,-1.05,-21.1999,-47.91,12.2178,1014.67
510320,0.114778,9.70827,1.41081,1.75,-2.94,-0.42,-21.3742,-49.0202,11.7301,1014.67
510326,0.124342,9.70827,1.40603,1.68,-3.5,0.14,-21.6648,-47.2315,11.6119,1014.69
510332,0.105213,9.71305,1.37733,1.75,-3.22,-0.21,-21.0256,-46.7998,13.2817,1014.69
510338,0.11956,9.71784,1.36777,2.03,-3.08,0.21,-21.1709,-48.3109,11.4346,1014.71
510344,0.133907,9.71784,1.39646,1.82,-2.8,0,-21.0256,-48.496,12.07,1014.71
510350,0.153037,9.7561,1.41559,2.03,-3.57,-0.21,-20.9675,-47.7866,13.0009,1014.68
510356,0.205643,9.7561,1.36298,1.82,-3.57,0.28,-21.0546,-48.2801,12.2473,1014.68
510362,0.157819,9.73218,1.36298,2.24,-3.43,0.49,-21.2871,-48.3726,11.9075,1014.73
510368,0.143472,9.74653,1.39168,2.1,-3.15,0.14,-21.2871,-47.6941,13.1043,1014.73
510374,0.124342,9.74653,1.36777,2.17,-3.08,0.35,-20.5607,-47.2932,13.4885,1014.73
510380,0.148254,9.73697,1.34385,2.52,-3.36,0.21,-21.7229,-48.6193,11.0948,1014.67
510386,0.167384,9.72262,1.40603,2.17,-2.94,-0.14,-21.4614,-47.3549,12.7054,1014.67
510392,0.234338,9.77523,1.38211,2.45,-3.36,-0.14,-20.5607,-48.1876,12.469,1014.67
510398,0.196078,9.78479,1.36298,2.03,-2.94,0.49,-20.9675,-48.7118,13.1191,1014.67
510404,0.114778,9.76566,1.34385,2.24,-3.01,-0.14,-21.4324,-48.7427,12.3508,1014.69
510410,0.191296,9.76088,1.36777,2.03,-3.5,-0.35,-20.8803,-47.324,13.4147,1014.69
510416,0.267814,9.76566,1.39168,2.31,-3.01,0.56,-20.7641,-48.1259,12.9566,1014.68
510422,0.224773,9.8087,1.33429,1.96,-3.36,-0.56,-20.9093,-49.1436,11.3164,1014.68
510428,0.11956,9.80392,1.31994,2.31,-3.64,-1.12,-20.735,-47.5399,11.5824,1014.68
510434,0.129125,9.74653,1.38211,1.75,-3.43,-0.63,-21.0546,-47.5091,12.5724,1014.67
510440,0.129125,9.68914,1.44428,1.68,-3.15,-0.42,-21.6939,-47.9717,11.5824,1014.67
510446,0.129125,9.73218,1.40603,2.38,-3.43,0.35,-20.8222,-47.7558,12.2769,1014.7
510452,0.133907,9.7274,1.37255,2.17,-2.94,0.14,-20.6769,-47.5399,12.2916,1014.7
510458,0.143472,9.73697,1.38211,2.03,-2.8,-0.35,-20.735,-48.3726,11.6119,1014.68
510464,0.124342,9.73218,1.39168,2.1,-3.36,0,-21.258,-48.4034,11.4642,1014.68
510470,0.10043,9.74653,1.37733,1.96,-3.22,0.77,-20.6188,-47.0157,13.4885,1014.67
510476,0.153037,9.76088,1.37255,2.45,-3.64,0.35,-21.1709,-47.8792,12.4394,1014.67
510482,0.13869,9.7561,1.3869,1.96,-3.22,0.49,-21.1999,-48.2184,12.6906,1014.67
510488,0.172166,9.76088,1.36777,2.1,-3.57,0.49,-21.0256,-47.91,12.6758,1014.7
510494,0.172166,9.74175,1.38211,1.96,-3.15,0.91,-20.7641,-47.2315,12.0257,1014.7
510500,0.133907,9.75131,1.40124,2.38,-3.36,0.63,-20.5897,-48.4034,12.5133,1014.68
510506,0.143472,9.73218,1.41081,2.31,-3.08,0.49,-20.6769,-47.4166,11.9075,1014.68
510512,0.224773,9.78479,1.3582,2.31,-3.08,0.42,-20.7641,-46.7381,12.9418,1014.67
510518,0.25825,9.78001,1.38211,1.75,-3.15,0.42,-20.8222,-47.8175,12.6167,1014.67
510524,0.191296,9.78001,1.34385,2.03,-3.36,-0.28,-20.6188,-48.3726,10.947,1014.66
510530,0.172166,9.7561,1.35342,2.1,-3.29,0,-20.8512,-47.139,13.9318,1014.66
510536,0.157819,9.71784,1.44907,1.89,-3.22,-0.07,-21.0837,-47.8483,12.07,1014.68
510542,0.181731,9.76088,1.3869,2.52,-3.43,0.63,-21.781,-48.1876,12.1439,1014.68
510548,0.153037,9.76566,1.3869,1.96,-3.01,0.28,-21.5486,-47.8175,12.4394,1014.68
510554,0.129125,9.77044,1.36298,2.17,-2.8,0.14,-20.8512,-46.8306,12.7202,1014.66
510560,0.148254,9.78957,1.39168,2.1,-3.15,0.28,-21.229,-48.1876,11.346,1014.66
510566,0.13869,9.73697,1.41081,2.38,-3.64,-0.14,-21.229,-48.0025,10.6367,1014.65
510572,0.176949,9.71305,1.36777,2.1,-3.57,0,-20.7641,-46.2447,11.8779,1014.65
510578,0.205643,9.78001,1.3869,2.45,-3.36,0.21,-21.4324,-47.5708,11.5085,1014.69
510584,0.172166,9.74653,1.39168,2.52,-3.43,0.7,-21.3452,-48.1567,13.0157,1014.69
510590,0.181731,9.71784,1.36777,2.38,-2.87,-0.07,-21.0546,-47.1698,10.1047,1014.7
510596,0.157819,9.73697,1.40124,2.59,-3.22,0.14,-20.8222,-46.9848,11.6119,1014.7
510602,0.172166,9.73697,1.36298,2.45,-3.15,0.21,-21.3452,-47.8483,11.346,1014.7
510608,0.162602,9.74653,1.3582,2.31,-3.43,0.14,-21.1709,-47.8792,12.5133,1014.69
510614,0.148254,9.7561,1.39168,2.59,-3.5,0,-21.258,-46.954,12.0109,1014.69
510620,0.172166,9.76088,1.3582,2.31,-3.36,0.14,-21.0546,-48.5268,10.8731,1014.69
510626,0.186514,9.74175,1.34385,2.59,-3.36,-0.07,-21.1418,-47.8175,12.6167,1014.69
510632,0.248685,9.79914,1.35342,2.1,-3.22,-0.07,-21.0256,-47.139,12.5428,1014.67
510638,0.191296,9.77523,1.35342,2.17,-2.94,17.57,-21.229,-48.1259,10.9765,1014.67
510644,0.148254,9.79914,1.38211,2.1,-3.36,-0.07,-20.7931,-47.6941,11.937,1014.69
510650,0.148254,9.7274,1.3869,2.45,-3.43,-0.28,-20.5607,-46.2138,14.2421,1014.69
510656,0.133907,9.75131,1.38211,2.24,-3.36,0.07,-21.229,-47.7866,11.6858,1014.69
510662,0.200861,9.74175,1.36298,2.1,-3.22,-0.07,-21.5776,-48.1259,12.0257,1014.66
510668,0.172166,9.76088,1.38211,2.31,-3.29,-0.49,-21.1709,-47.139,12.1439,1014.66
510674,0.13869,9.74175,1.37255,2.31,-3.43,-0.35,-20.9965,-47.0157,13.8284,1014.71
510680,0.11956,9.78001,1.35342,2.03,-3.01,0,-21.4614,-47.3549,12.1587,1014.71
510686,0.196078,9.7561,1.34864,2.45,-3.22,-0.21,-20.5025,-47.2624,11.6119,1014.69
510692,0.176949,9.76566,1.35342,2.03,-3.22,-0.28,-21.7229,-47.1082,12.0848,1014.69
510698,0.167384,9.73697,1.34864,1.89,-3.57,-0.14,-20.735,-48.3726,13.3408,1014.68
510704,0.157819,9.74653,1.36298,1.89,-3.29,0.77,-20.8222,-47.6633,12.6611,1014.68
510710,0.181731,9.74653,1.32951,1.68,-3.15,0.28,-21.1418,-47.0157,12.8236,1014.68
510716,0.167384,9.76088,1.36298,1.75,-3.15,0.35,-20.7059,-47.4782,13.0305,1014.68
510722,0.148254,9.74175,1.31994,2.03,-2.94,0,-21.2871,-48.5268,11.9222,1014.68
510728,0.167384,9.76088,1.32951,2.45,-3.22,-0.63,-21.229,-47.4782,12.4837,1014.67
510734,0.196078,9.78001,1.35342,1.61,-3.36,0.49,-21.3452,-46.6456,11.8927,1014.67
510740,0.176949,9.77523,1.36777,1.89,-3.64,0.21,-20.7931,-48.681,11.5824,1014.69
510746,0.253467,9.77523,1.37733,1.68,-3.15,-0.7,-21.0837,-47.7558,11.2721,1014.69
510752,0.310856,9.80392,1.36777,1.54,-3.01,-0.14,-21.1709,-46.4605,13.2373,1014.66
510758,0.191296,9.78957,1.35342,1.61,-3.01,-0.42,-21.3161,-48.3726,11.9961,1014.66
510764,0.11956,9.77044,1.34385,2.03,-2.94,-0.7,-21.1709,-48.0025,11.804,1014.71
510770,0.124342,9.71784,1.39646,1.68,-3.36,-0.77,-21.1127,-46.3063,14.0796,1014.71
510776,0.186514,9.75131,1.37255,1.68,-3.15,-0.7,-20.5025,-47.8483,12.9566,1014.71
510782,0.162602,9.74175,1.39646,2.03,-2.87,-0.63,-20.9965,-49.0202,11.9518,1014.67
510788,0.167384,9.74175,1.35342,1.75,-3.36,0,-20.8803,-47.5091,13.7397,1014.67
510794,0.114778,9.74175,1.3582,1.75,-3.22,-0.21,-21.0837,-46.7073,13.5624,1014.66
510800,0.157819,9.75131,1.37255,1.75,-3.08,-0.28,-20.6188,-48.7427,12.5281,1014.66
510806,0.148254,9.70349,1.33907,2.1,-3.5,-0.14,-20.9675,-47.5708,12.336,1014.71
510812,0.181731,9.70827,1.34864,1.96,-3.08,-0.07,-20.5897,-47.4474,12.7645,1014.71
510818,0.143472,9.74175,1.37733,2.17,-2.73,0.49,-20.5607,-47.5091,11.3903,1014.69
510824,0.153037,9.74653,1.39646,1.82,-3.01,0.14,-21.0256,-48.0642,11.5676,1014.69
510830,0.148254,9.75131,1.38211,2.03,-3.5,0.07,-20.7059,-47.3549,12.8827,1014.69
510836,0.153037,9.74653,1.36777,1.96,-3.15,0.84,-20.735,-47.5399,12.5872,1014.7
510842,0.186514,9.75131,1.32951,1.82,-2.59,0.21,-22.1878,-48.7735,11.8927,1014.7
510848,0.196078,9.76566,1.3582,1.54,-2.73,0.14,-20.9093,-46.1213,13.0748,1014.71
510854,0.143472,9.78001,1.37255,1.75,-2.94,-0.14,-20.3863,-46.7381,13.2817,1014.71
510860,0.215208,9.77523,1.39168,1.96,-3.15,-0.21,-21.229,-47.8175,11.6415,1014.66
510866,0.25825,9.77044,1.38211,1.68,-2.73,0.07,-21.1127,-47.91,11.8779,1014.66
510872,0.196078,9.76566,1.35342,2.17,-2.8,-0.49,-20.6769,-46.2755,12.9123,1014.7
510878,0.133907,9.78957,1.33907,1.68,-3.43,-0.49,-21.9554,-47.725,12.0109,1014.7
510884,0.11956,9.74175,1.43472,2.38,-2.94,0.07,-21.6648,-47.5399,11.6119,1014.7
510890,0.186514,9.76088,1.40603,1.96,-2.8,0.07,-20.5316,-46.2755,13.6215,1014.66
510896,0.167384,9.75131,1.40124,2.03,-3.22,-0.14,-21.1127,-47.2624,12.7793,1014.66
510902,0.129125,9.78957,1.33907,2.38,-3.64,0.28,-21.4033,-48.1876,12.2621,1014.67
510908,0.143472,9.7561,1.36777,2.03,-2.87,0.14,-21.229,-46.5531,13.0305,1014.67
510914,0.105213,9.74175,1.33907,2.03,-2.87,0.28,-21.1999,-47.2624,12.4246,1014.69
510920,0.181731,9.74175,1.33907,1.89,-3.15,0,-21.4033,-47.8483,12.1734,1014.69
510926,0.133907,9.75131,1.33907,1.75,-3.29,0.21,-21.2871,-47.6633,11.9518,1014.66
510932,0.162602,9.68914,1.36777,1.82,-3.29,0.21,-21.1999,-46.9231,11.4642,1014.66
510938,0.176949,9.74653,1.39168,1.82,-3.08,0.7,-21.0837,-48.5268,11.9666,1014.65
510944,0.224773,9.77523,1.32472,1.96,-3.22,-0.07,-20.9675,-48.1567,11.1243,1014.65
510950,0.25825,9.78479,1.33907,1.82,-3.15,-0.28,-20.0667,-47.0157,12.2621,1014.65
510956,0.215208,9.78479,1.33907,1.68,-2.8,0.14,-20.241,-47.5091,12.2473,1014.66
510962,0.263032,9.8087,1.31994,2.31,-2.94,-0.63,-21.1418,-48.3418,13.0305,1014.66
510968,0.196078,9.74175,1.36298,1.68,-2.59,-0.84,-21.2871,-47.1082,12.1734,1014.69
510974,0.11956,9.74653,1.39168,2.31,-2.8,-0.35,-20.8222,-46.954,11.08,1014.69
510980,0.143472,9.68914,1.39646,1.96,-3.15,-0.42,-20.8222,-48.496,11.7301,1014.68
510986,0.133907,9.69871,1.39646,2.31,-3.43,-0.21,-20.9093,-48.1876,12.2473,1014.68
510992,0.13869,9.7274,1.34864,2.24,-3.22,-0.07,-20.5607,-46.5531,13.5772,1014.72
510998,0.148254,9.7274,1.37255,2.17,-3.64,0.42,-21.1127,-48.1876,12.2769,1014.72
511004,0.133907,9.73697,1.34385,2.38,-3.36,0.49,-21.1418,-48.0642,11.9666,1014.72
511010,0.143472,9.75131,1.31516,1.96,-3.29,0.14,-21.229,-47.1082,12.3951,1014.66
511016,0.181731,9.77523,1.34385,1.82,-3.29,0,-20.7059,-48.2801,12.3064,1014.66
511022,0.167384,9.7561,1.32951,2.17,-3.29,0.49,-20.6188,-47.7866,11.8188,1014.67
511028,0.143472,9.77044,1.36298,2.1,-3.29,0.63,-21.229,-47.9408,12.1143,1014.67
511034,0.186514,9.75131,1.36298,2.24,-3.29,0,-21.752,-47.7558,13.2817,1014.67
511040,0.191296,9.73697,1.36298,2.17,-3.22,0.42,-21.8682,-48.4034,11.7449,1014.67
511046,0.196078,9.76088,1.37733,2.03,-3.5,0.56,-21.1127,-48.0334,13.2521,1014.7
511052,0.172166,9.76566,1.33907,1.96,-3.29,0.42,-21.1999,-48.0025,12.0109,1014.7
511058,0.129125,9.75131,1.36298,2.31,-3.29,0.28,-22.4203,-48.0334,11.8927,1014.7
511064,0.176949,9.71305,1.43472,2.31,-3.5,0.63,-21.6358,-48.1567,11.4937,1014.66
511070,0.25825,9.77523,1.31994,2.24,-3.57,0,-21.258,-47.4166,11.9518,1014.66
511076,0.320421,9.79914,1.26255,2.03,-2.8,-0.14,-21.258,-47.2007,11.0652,1014.66
511082,0.114778,9.75131,1.37733,2.17,-2.73,0,-21.4033,-48.8352,11.804,1014.66
511088,0.0860832,9.7274,1.38211,1.89,-3.36,0.14,-21.0837,-47.5091,12.1587,1014.68
511094,0.210426,9.76088,1.39646,2.1,-3.57,0,-20.9965,-47.8175,13.2817,1014.68
511100,0.253467,9.76566,1.3582,2.24,-3.71,0.21,-21.258,-49.0202,11.6415,1014.68
511106,0.21999,9.81349,1.31038,2.1,-3.08,0.07,-21.1999,-47.725,11.5972,1014.68
511112,0.148254,9.78001,1.34385,2.03,-3.22,-0.07,-21.8392,-46.5222,13.0305,1014.65
511118,0.129125,9.74175,1.34864,1.96,-3.36,-0.07,-21.4324,-48.681,11.9666,1014.65
511124,0.143472,9.73697,1.34864,1.96,-3.78,-0.07,-20.9093,-48.496,12.3951,1014.65
511130,0.162602,9.73697,1.34385,2.03,-3.57,0.21,-21.1127,-47.0773,12.8236,1014.67
511136,0.13869,9.73218,1.34864,2.03,-3.43,0.14,-20.8803,-48.2801,12.8088,1014.67
511142,0.143472,9.74653,1.31994,1.89,-4.06,0,-21.6067,-48.3418,10.9322,1014.69
511148,0.191296,9.75131,1.33907,1.96,-3.57,0.56,-21.1418,-47.4474,12.8236,1014.69
511154,0.162602,9.77523,1.36777,1.68,-3.22,0.42,-21.4324,-47.1082,13.6215,1014.65
511160,0.148254,9.73697,1.37733,1.54,-3.15,0.21,-20.8803,-48.1259,12.3803,1014.65
511166,0.148254,9.73697,1.36298,2.03,-3.57,0.56,-20.9093,-48.1567,11.9813,1014.72
511172,0.191296,9.76566,1.36298,2.1,-3.43,0.7,-21.2871,-47.324,12.8236,1014.72
511178,0.186514,9.78001,1.34385,1.96,-3.43,0.98,-20.9965,-48.7427,12.5872,1014.72
511184,0.210426,9.76088,1.41559,2.03,-3.5,0.77,-21.8973,-48.2184,11.4642,1014.69
511190,0.191296,9.69392,1.41081,2.38,-3.71,0.63,-20.9384,-46.8615,12.9123,1014.69
511196,0.263032,9.73218,1.42516,2.59,-3.57,0.42,-21.8682,-47.6633,11.8484,1014.72
511202,0.21999,9.75131,1.40124,2.59,-3.08,0.63,-22.1297,-48.5268,10.7549,1014.72
511208,0.176949,9.73218,1.3582,2.73,-3.5,0.42,-20.7641,-47.2007,11.9518,1014.69
511214,0.167384,9.76088,1.36777,2.45,-3.15,-0.07,-21.1127,-47.4474,13.2964,1014.69
511220,0.200861,9.7561,1.34864,3.22,-3.99,0.35,-21.9844,-48.6193,11.9075,1014.7
511226,0.25825,9.77044,1.3056,2.45,-3.57,1.05,-21.3742,-48.5885,11.937,1014.7
511232,0.215208,9.78001,1.30081,2.24,-3.22,-0.14,-21.258,-47.7866,12.8827,1014.7
511238,0.200861,9.76088,1.29603,2.59,-3.43,0,-21.7229,-48.3726,12.9123,1014.71
511244,0.172166,9.75131,1.37733,2.24,-3.01,0.7,-22.3331,-47.5399,11.4198,1014.71
511250,0.143472,9.69871,1.37255,2.38,-3.22,0.77,-21.5486,-47.1698,12.8679,1014.68
511256,0.162602,9.75131,1.32472,2.52,-3.01,0.84,-21.752,-47.0465,12.8827,1014.68
511262,0.172166,9.74653,1.32951,2.59,-3.29,0.77,-21.0837,-48.7427,11.3607,1014.7
511268,0.13869,9.76566,1.32951,2.38,-3.43,0.49,-21.4614,-47.5091,11.1391,1014.7
511274,0.191296,9.74653,1.34864,2.38,-3.43,0.77,-21.5486,-46.5839,13.2521,1014.68
511280,0.234338,9.82305,1.33429,2.17,-3.22,0.91,-21.7229,-48.6193,11.2425,1014.68
511286,0.267814,9.79436,1.27212,2.1,-3.29,0.49,-21.8392,-48.2801,12.3655,1014.68
511292,0.272597,9.79436,1.33907,2.03,-3.57,0.35,-21.2871,-47.6016,12.5428,1014.68
511298,0.272597,9.77523,1.32951,1.82,-3.08,0.21,-21.781,-48.496,10.9174,1014.68
511304,0.263032,9.76566,1.35342,1.54,-3.43,-0.07,-22.1297,-48.2801,11.4937,1014.68
511310,0.176949,9.74653,1.3869,2.03,-3.15,-0.42,-21.9263,-47.8792,13.0305,1014.68
511316,0.124342,9.74175,1.3869,2.45,-2.94,0.28,-21.4905,-48.1567,12.6906,1014.7
511322,0.148254,9.73697,1.39168,2.24,-3.22,-17.43,-21.2871,-49.8221,11.9075,1014.7
511328,0.21999,9.73218,1.37255,2.38,-3.43,0.56,-20.9965,-48.2801,12.4542,1014.66
511334,0.172166,9.7561,1.3582,2.45,-3.36,0.35,-20.9675,-47.5399,11.4494,1014.66
511340,0.196078,9.7274,1.32951,2.38,-3.71,0.14,-20.9384,-48.8044,10.6662,1014.7
511346,0.200861,9.7561,1.32472,2.38,-3.5,0.07,-21.4033,-48.5576,10.9322,1014.7
511352,0.181731,9.73697,1.31038,2.1,-3.22,0.42,-21.6648,-47.324,11.7745,1014.7
511358,0.215208,9.78001,1.32472,2.1,-3.57,0.42,-21.0256,-48.7118,11.5824,1014.69
511364,0.200861,9.76088,1.31038,2.1,-3.01,0.21,-21.4905,-48.496,11.6119,1014.69
511370,0.205643,9.78479,1.36777,1.82,-2.8,0.21,-21.1418,-46.9231,12.4394,1014.68
511376,0.253467,9.74175,1.35342,1.68,-3.5,0.14,-21.3742,-47.5708,12.5133,1014.68
511382,0.21999,9.76566,1.34385,2.17,-3.43,0.28,-21.4614,-48.5268,12.1734,1014.69
511388,0.148254,9.71305,1.37733,2.03,-3.29,0.7,-21.8392,-48.1567,12.8532,1014.69
511394,0.181731,9.73697,1.3582,2.03,-3.43,0.35,-21.8101,-47.9408,12.1291,1014.7
511400,0.253467,9.78957,1.33907,1.82,-3.01,0.35,-21.2871,-48.5576,11.8484,1014.7
511406,0.277379,9.74175,1.33907,1.89,-2.94,0,-21.4614,-47.8175,12.3655,1014.7
511412,0.286944,9.79436,1.3056,1.96,-3.01,-0.28,-20.8222,-46.0905,12.3803,1014.69
511418,0.267814,9.79436,1.28647,2.03,-2.66,-0.63,-21.5195,-46.6147,11.5676,1014.69
511424,0.205643,9.83261,1.3056,1.4,-2.94,-0.56,-22.0135,-48.5885,11.1982,1014.7
511430,0.162602,9.80392,1.32951,1.4,-3.43,-0.56,-21.6067,-46.7381,12.1882,1014.7
511436,0.277379,9.77523,1.3056,1.19,-3.5,-0.7,-22.2169,-47.6633,10.9913,1014.68
511442,0.267814,9.78957,1.35342,0.98,-3.08,-0.7,-22.0716,-48.8352,10.9913,1014.68
511448,0.196078,9.76566,1.38211,1.19,-2.73,-1.26,-21.5486,-47.3857,12.3951,1014.69
511454,0.0765184,9.75131,1.36777,1.05,-3.36,-1.33,-21.1418,-47.9408,11.7892,1014.69
511460,0.11956,9.72262,1.42037,1.4,-3.01,-0.49,-22.4203,-48.866,11.4198,1014.69
511466,0.148254,9.70827,1.38211,1.47,-3.43,-0.7,-22.1297,-47.8792,12.3064,1014.69
511472,0.167384,9.71784,1.36298,1.4,-2.87,0.07,-21.5486,-46.9231,13.1487,1014.69
511478,0.143472,9.71784,1.35342,1.47,-3.57,-0.28,-21.8682,-48.0334,11.4937,1014.68
511484,0.186514,9.70827,1.36298,1.82,-3.71,-0.14,-21.7229,-48.095,10.0456,1014.68
511490,0.186514,9.71784,1.37255,1.54,-2.66,-0.14,-22.1297,-46.3372,11.1391,1014.69
511496,0.157819,9.71784,1.37255,1.68,-3.08,0.07,-21.6358,-47.0465,12.2178,1014.69
511502,0.148254,9.75131,1.37255,1.82,-3.57,0.56,-21.8682,-48.7118,11.4051,1014.71
511508,0.162602,9.74175,1.36298,1.75,-3.57,0.63,-21.9263,-46.954,11.2425,1014.71
511514,0.210426,9.73697,1.33907,1.12,-3.36,0.84,-22.4493,-48.0642,12.5576,1014.66
511520,0.196078,9.76088,1.31516,1.89,-3.5,0.91,-21.9844,-48.3109,11.1095,1014.66
511526,0.21999,9.78001,1.37255,1.75,-3.43,0.07,-21.8973,-47.6633,11.937,1014.66
511532,0.181731,9.7561,1.36777,1.75,-3.64,0.84,-21.7229,-46.1521,12.3655,1014.69
511538,0.205643,9.75131,1.31994,1.4,-3.22,-0.21,-22.5075,-47.6016,11.8779,1014.69
511544,0.263032,9.76566,1.31516,1.89,-2.94,0.49,-22.1588,-48.1876,11.3164,1014.69
511550,0.243902,9.78479,1.31516,1.68,-3.29,0.56,-22.246,-46.8306,12.8975,1014.69
511556,0.224773,9.7561,1.32951,1.89,-3.36,-0.35,-21.4324,-47.3549,12.0109,1014.67
511562,0.21999,9.77523,1.33907,1.82,-3.01,-0.07,-21.8392,-48.2184,10.4298,1014.67
511568,0.263032,9.76088,1.34864,1.61,-3.64,0.21,-20.9675,-46.5839,11.1539,1014.67
511574,0.210426,9.76088,1.33907,1.75,-3.43,0,-21.8682,-46.1521,11.804,1014.67
511580,0.191296,9.74653,1.36777,1.61,-3.22,0,-21.6939,-48.3726,11.9075,1014.67
511586,0.162602,9.74175,1.36298,1.82,-3.15,0,-22.3041,-46.7381,11.7597,1014.7
511592,0.162602,9.71784,1.37733,1.61,-3.08,0.49,-22.2169,-46.4914,11.9518,1014.7
511598,0.186514,9.74175,1.37255,1.68,-3.43,0.21,-22.1878,-47.91,11.346,1014.67
511604,0.21999,9.75131,1.33907,2.03,-2.94,0.07,-22.246,-48.0025,10.2968,1014.67
511610,0.229555,9.79914,1.31994,1.61,-2.94,-0.14,-22.1007,-46.7073,12.7054,1014.66
511616,0.200861,9.77523,1.33429,1.82,-3.5,0.14,-21.7229,-47.3549,12.8088,1014.66
511622,0.210426,9.74175,1.38211,1.4,-3.36,0.56,-21.781,-48.4343,12.07,1014.71
511628,0.186514,9.7274,1.37255,1.61,-2.87,0.42,-21.6939,-47.2624,11.9518,1014.71
511634,0.191296,9.73218,1.38211,1.96,-2.87,-0.14,-21.1127,-47.0773,12.0404,1014.69
511640,0.200861,9.71784,1.36298,1.75,-3.01,0.28,-21.6067,-48.1259,10.7401,1014.69
511646,0.205643,9.76566,1.35342,2.03,-3.5,0.56,-21.5486,-47.7558,11.4346,1014.69
511652,0.243902,9.78001,1.36298,2.1,-3.36,0.07,-21.3742,-46.368,11.3164,1014.66
511658,0.33955,9.81349,1.33429,1.89,-3.36,-0.14,-21.4324,-48.0642,10.7549,1014.66
511664,0.253467,9.76566,1.3869,1.68,-3.01,-0.07,-21.6358,-46.6147,10.2673,1014.67
511670,0.205643,9.77044,1.38211,1.82,-3.08,-0.35,-21.4614,-46.3063,11.4346,1014.67
511676,0.205643,9.75131,1.39646,1.82,-3.64,0.07,-21.9263,-46.3372,11.8188,1014.68
511682,0.21999,9.74175,1.39168,1.89,-3.22,-0.63,-22.5656,-48.3726,11.3312,1014.68
511688,0.224773,9.7561,1.36298,1.54,-3.15,-0.07,-22.3041,-46.6147,12.2916,1014.7
511694,0.191296,9.77044,1.40603,1.68,-3.43,0.49,-21.3452,-46.3063,12.5133,1014.7
511700,0.176949,9.75131,1.3869,2.1,-3.57,-0.49,-22.0135,-48.3109,11.9075,1014.7
511706,0.205643,9.70827,1.3869,1.89,-3.15,-0.35,-21.9844,-47.4782,10.8731,1014.69
511712,0.210426,9.70827,1.38211,2.1,-3.01,0.63,-21.4614,-46.8923,12.9714,1014.69
511718,0.172166,9.74175,1.36298,1.96,-3.08,0.42,-21.6067,-47.8175,11.7745,1014.69
511724,0.172166,9.73218,1.3582,2.38,-3.43,-0.14,-21.4614,-48.5885,9.49891,1014.69
511730,0.23912,9.71784,1.37255,2.31,-3.22,0.14,-21.0837,-47.4782,11.8484,1014.69
511736,0.176949,9.74653,1.34385,1.96,-3.29,0.28,-21.4614,-46.8615,11.213,1014.69
511742,0.181731,9.74175,1.31994,2.17,-3.78,0,-21.9263,-48.3418,12.336,1014.69
511748,0.176949,9.75131,1.35342,2.03,-3.71,0.14,-21.0837,-47.3549,10.8731,1014.69
511754,0.21999,9.7561,1.34385,2.03,-3.15,0.63,-21.0837,-47.1698,12.1143,1014.69
511760,0.191296,9.74175,1.37255,2.1,-3.78,0.42,-20.735,-47.7866,11.1095,1014.65
511766,0.224773,9.74653,1.37733,2.31,-3.5,0.28,-21.3742,-47.4782,11.4051,1014.65
511772,0.200861,9.76566,1.32472,1.75,-3.36,0.7,-20.7059,-46.8615,11.937,1014.64
511778,0.191296,9.77044,1.37255,2.1,-3.36,0.28,-21.5195,-47.1082,12.6315,1014.64
511784,0.234338,9.74653,1.34864,1.75,-3.29,0.28,-21.4033,-47.6324,12.6906,1014.64
511790,0.243902,9.78957,1.3869,2.03,-3.64,0.07,-21.5195,-46.7381,13.2817,1014.64
511796,0.13869,9.63175,1.51124,2.8,-4.13,-0.07,-21.229,-47.6633,12.4394,1014.68
511802,0.320421,9.88044,1.13821,1.75,-3.08,0.07,-21.5776,-48.681,11.2277,1014.68
511808,0.243902,9.76566,1.34864,1.68,-3.71,0.07,-21.4324,-46.9231,12.2916,1014.66
511814,0.196078,9.77523,1.36777,1.82,-3.43,0.14,-21.5486,-46.8615,12.469,1014.66
511820,0.229555,9.72262,1.39168,1.82,-3.5,0.28,-21.0546,-48.4034,11.7006,1014.66
511826,0.196078,9.78957,1.39168,2.1,-3.15,0,-21.7229,-47.8483,11.7745,1014.68
511832,0.215208,9.77523,1.36298,1.96,-3.22,0.42,-21.1127,-47.0465,12.794,1014.68
511838,0.210426,9.78957,1.3582,1.82,-3.5,0.21,-20.9384,-47.725,12.3951,1014.67
511844,0.229555,9.74175,1.37733,2.1,-3.36,0.28,-21.1709,-48.0642,11.6119,1014.67
511850,0.205643,9.73218,1.42037,2.24,-3.15,0.35,-21.258,-47.2315,12.4099,1014.71
511856,0.191296,9.70349,1.35342,2.17,-3.22,0.42,-21.781,-47.3857,11.213,1014.71
511862,0.243902,9.73218,1.34385,2.45,-3.43,1.19,-21.8392,-48.2184,10.4446,1014.69
511868,0.172166,9.73697,1.36777,2.03,-3.36,0.14,-21.3742,-47.3549,13.3112,1014.69
511874,0.21999,9.73218,1.35342,2.52,-3.36,0.63,-21.2871,-46.9848,12.2178,1014.69
511880,0.176949,9.78479,1.33907,2.66,-3.36,0.14,-21.5486,-47.91,12.4542,1014.67
511886,0.23912,9.7561,1.31038,2.31,-3.29,0.35,-20.9675,-46.9848,11.5972,1014.67
511892,0.229555,9.81349,1.31038,2.45,-3.22,0.63,-21.0546,-46.4914,11.937,1014.68
511898,0.23912,9.78001,1.28647,2.17,-3.78,0.56,-21.781,-47.324,10.9027,1014.68
511904,0.191296,9.75131,1.33429,1.82,-3.85,0.35,-20.9384,-48.3726,12.6758,1014.71
511910,0.196078,9.77044,1.33907,1.68,-3.64,0.42,-21.6648,-46.3372,12.07,1014.71
511916,0.215208,9.76566,1.33907,1.89,-3.78,0.35,-20.735,-47.5399,11.5085,1014.67
511922,0.23912,9.7561,1.34385,1.61,-3.92,0.63,-21.0546,-47.4474,11.671,1014.67
511928,0.23912,9.73218,1.34864,1.75,-4.34,0.63,-21.1127,-46.5839,11.9518,1014.67
511934,0.205643,9.73697,1.36298,1.68,-3.57,0.49,-21.3452,-46.6764,11.3016,1014.68
511940,0.210426,9.73218,1.3869,1.89,-3.43,0.7,-21.1127,-48.3109,11.5972,1014.68
511946,0.229555,9.72262,1.38211,2.17,-3.08,1.05,-20.9965,-47.1698,11.0357,1014.71
511952,0.215208,9.75131,1.34864,2.38,-3.22,0.77,-21.0256,-46.4297,12.7202,1014.71
511958,0.215208,9.7561,1.34864,2.52,-3.5,0.84,-21.5776,-47.0465,11.9222,1014.66
511964,0.224773,9.7561,1.34385,2.45,-3.71,0.63,-21.781,-48.4034,10.947,1014.66
511970,0.191296,9.75131,1.35342,2.59,-3.29,1.19,-21.3742,-46.6764,12.8827,1014.68
511976,0.224773,9.7561,1.34864,2.52,-3.5,1.12,-21.3161,-47.324,11.6563,1014.68
511982,0.248685,9.71305,1.40603,2.66,-3.78,0.63,-21.5776,-48.2801,11.4051,1014.67
511988,0.272597,9.76088,1.33429,2.87,-3.5,1.19,-21.3452,-46.954,11.5676,1014.67
511994,0.215208,9.76566,1.31994,2.73,-3.57,1.26,-22.3912,-46.2138,13.2817,1014.67
512000,0.234338,9.79914,1.31516,1.96,-3.71,0.98,-21.1418,-47.3857,11.4198,1014.7
512006,0.205643,9.78001,1.32472,2.59,-3.57,0.56,-21.5486,-47.0157,12.3212,1014.7
512012,0.248685,9.79436,1.31994,2.31,-3.36,0.77,-21.4324,-46.8615,12.9566,1014.66
512018,0.253467,9.82783,1.3056,2.24,-3.08,0.7,-21.6648,-47.2315,12.3212,1014.66
512024,0.25825,9.77044,1.30081,1.96,-3.15,1.33,-22.2169,-48.2492,11.2573,1014.66
512030,0.277379,9.78479,1.33429,2.03,-3.64,0.49,-21.8973,-46.6764,13.0305,1014.66
512036,0.248685,9.75131,1.33429,1.89,-3.15,0.49,-21.4033,-47.5399,13.5772,1014.67
512042,0.282162,9.75131,1.33907,2.03,-3.36,0.49,-22.1878,-47.7866,12.3951,1014.67
512048,0.267814,9.7561,1.31038,2.03,-3.29,0.56,-21.8101,-46.5222,13.0452,1014.67
512054,0.272597,9.75131,1.31994,1.89,-3.15,-0.14,-21.6939,-46.0905,12.1734,1014.74
512060,0.291726,9.77523,1.3056,1.89,-2.8,0.35,-21.9263,-47.6324,11.6119,1014.74
512066,0.272597,9.7561,1.36298,1.54,-2.94,0.14,-22.1297,-47.6633,12.7497,1014.71
512072,0.272597,9.78479,1.31516,1.26,-3.01,0.14,-21.3161,-46.3372,12.336,1014.71
512078,0.25825,9.79914,1.31038,1.61,-3.08,0.14,-21.5486,-46.954,10.1343,1014.69
512084,0.25825,9.74653,1.33429,1.33,-2.59,-0.14,-21.229,-47.2624,11.213,1014.69
512090,0.272597,9.74653,1.33429,1.33,-2.66,0,-21.1418,-46.8923,11.7597,1014.69
512096,0.25825,9.73218,1.3582,1.33,-2.8,0.49,-20.3863,-47.0157,11.4494,1014.69
512102,0.215208,9.73697,1.36777,1.26,-3.15,0,-21.229,-48.3726,12.2473,1014.69
512108,0.229555,9.71305,1.37733,1.89,-2.8,0.35,-21.4614,-46.8306,13.2817,1014.68
512114,0.263032,9.73697,1.33907,1.61,-3.01,0.07,-21.3452,-47.2932,13.1043,1014.68
512120,0.253467,9.73697,1.3582,1.47,-3.22,0,-22.4493,-48.1876,12.0552,1014.7
512126,0.267814,9.7274,1.34864,1.19,-2.94,0.07,-21.3742,-47.5708,11.3312,1014.7
512132,0.243902,9.74653,1.36298,1.96,-2.87,0.49,-21.229,-46.0288,12.5428,1014.68
512138,0.229555,9.74175,1.36298,1.54,-2.94,-0.35,-21.4324,-47.7866,11.0357,1014.68
512144,0.234338,9.7274,1.35342,1.68,-2.94,0.14,-21.3742,-47.7558,11.6267,1014.67
512150,0.248685,9.70349,1.34385,1.96,-3.15,0.21,-21.6648,-46.368,12.336,1014.67
512156,0.215208,9.7274,1.36777,1.96,-3.64,0.28,-20.8803,-47.2315,11.9518,1014.66
512162,0.392157,9.72262,1.33907,1.82,-3.15,0,-20.9384,-48.095,11.7006,1014.66
512168,0.502152,9.73218,1.32951,1.68,-2.66,-0.7,-21.6067,-47.4474,12.0996,1014.66
512174,0.320421,9.67001,1.42516,2.45,-2.24,-1.54,-21.0837,-46.954,13.0748,1014.66
512180,0.176949,9.73218,1.38211,2.45,-2.03,-0.77,-21.4905,-47.8483,11.213,1014.66
512186,0.114778,9.68914,1.42994,2.52,-2.45,-0.42,-21.5776,-47.6016,12.1143,1014.65
512192,0.095648,9.69871,1.48254,2.73,-3.22,-0.91,-21.9263,-46.3063,11.4937,1014.65
512198,0.272597,9.6461,1.47776,3.5,-2.8,-0.07,-22.1007,-47.0465,11.8779,1014.69
512204,0.291726,9.63175,1.42994,3.99,-2.38,0.14,-22.1297,-47.4166,11.1834,1014.69
512210,0.205643,9.67958,1.41081,4.2,-2.45,-0.49,-21.5195,-46.368,11.9666,1014.7
512216,0.172166,9.62697,1.44907,4.69,-2.31,0.28,-21.1999,-47.139,11.8779,1014.7
512222,0.0860832,9.56002,1.50167,5.11,-2.87,0.77,-21.8973,-47.9717,11.7449,1014.7
512228,0.129125,9.53611,1.49211,5.95,-2.45,0.77,-21.1999,-46.0905,11.5528,1014.68
512234,0.148254,9.61262,1.43472,6.23,-2.03,1.61,-21.8682,-46.368,12.1143,1014.68
512240,0.196078,9.69871,1.33429,6.37,-3.22,1.61,-21.8101,-47.2007,12.602,1014.69
512246,0.191296,9.69392,1.33907,6.3,-2.87,1.19,-21.6067,-46.8615,12.3951,1014.69
512252,0.196078,9.61262,1.33429,6.23,-2.73,1.96,-21.4324,-46.2138,12.1882,1014.69
512258,0.224773,9.53132,1.48254,6.79,-2.24,2.45,-22.0426,-46.6764,12.0404,1014.69
512264,0.205643,9.61262,1.51602,7.91,-2.8,2.31,-21.6939,-48.1259,11.8631,1014.67
512270,0.229555,9.68914,1.40124,7.91,-2.38,2.24,-20.7641,-46.368,12.8236,1014.67
512276,0.253467,9.89957,1.12865,7.28,-2.03,2.38,-21.781,-46.0596,12.5133,1014.67
512282,0.282162,9.95218,1.05691,6.65,-2.38,2.1,-21.4033,-47.7866,11.5676,1014.71
512288,0.296509,9.93304,1.06169,5.18,-2.03,2.17,-21.0546,-46.3989,12.7645,1014.71
512294,0.349115,9.91392,1.10952,4.9,-2.24,2.38,-21.5486,-46.2138,13.5033,1014.7
512300,0.382592,9.88044,1.13821,4.48,-2.38,1.19,-21.229,-47.4474,11.5824,1014.7
512306,0.392157,9.86609,1.15256,4.27,-1.54,1.05,-21.9554,-47.0773,12.2473,1014.68
512312,0.296509,9.85174,1.29603,3.57,-2.03,0.98,-21.752,-46.4914,12.07,1014.68
512318,0.382592,9.78001,1.29125,3.85,-1.89,0.7,-21.6939,-47.139,11.0357,1014.69
512324,0.224773,9.74653,1.30081,4.06,-2.17,0.49,-21.5486,-46.6764,13.2373,1014.69
512330,0.224773,9.69871,1.37733,4.2,-2.52,0.56,-21.4614,-45.9979,12.9123,1014.67
512336,0.224773,9.72262,1.39646,4.76,-2.94,1.33,-21.3742,-46.2755,12.2325,1014.67
512342,0.243902,9.79914,1.29125,4.69,-2.8,0.7,-21.3161,-47.6324,11.7301,1014.67
512348,0.272597,9.87087,1.17169,3.85,-2.03,0.91,-21.1709,-46.1213,12.1439,1014.66
512354,0.263032,9.83261,1.15734,3.71,-2.52,0.7,-21.5486,-46.2447,11.8188,1014.66
512360,0.248685,9.79914,1.22429,3.5,-2.1,1.12,-21.6358,-46.5531,11.671,1014.7
512366,0.248685,9.77044,1.24821,3.29,-2.17,0.98,-21.6648,-46.3989,10.1343,1014.7
512372,0.334768,9.79914,1.18125,3.57,-2.17,1.47,-22.0426,-45.8437,12.0996,1014.7
512378,0.282162,9.78001,1.18604,3.29,-2.1,1.19,-21.6648,-47.139,11.5085,1014.7
512384,0.310856,9.78479,1.24821,3.36,-1.89,0.84,-21.5195,-46.8306,11.4937,1014.68
512390,0.296509,9.81349,1.18125,2.94,-1.68,0.77,-20.7931,-47.1698,12.1882,1014.68
512396,0.267814,9.74653,1.1956,3.01,-1.19,1.33,-20.8512,-45.9979,12.6611,1014.68
512402,0.320421,9.78479,1.20516,2.87,-1.75,0.84,-21.5195,-47.5708,11.3164,1014.66
512408,0.368245,9.82783,1.14299,2.52,-1.61,0.56,-21.8682,-46.1521,12.0109,1014.66
512414,0.382592,9.79436,1.17647,2.24,-1.47,0.21,-20.7641,-45.9363,13.3112,1014.69
512420,0.291726,9.74175,1.21473,2.03,-1.47,0.28,-21.5195,-46.6456,13.1635,1014.69
512426,0.215208,9.66045,1.4395,2.94,-1.4,0.35,-21.8682,-47.2007,12.336,1014.66
512432,0.186514,9.64132,1.45385,3.15,-0.91,0.84,-21.6939,-46.4914,11.1391,1014.66
512438,0.277379,9.78001,1.33907,3.78,-1.75,1.12,-21.752,-46.7381,11.6267,1014.7
512444,0.306074,9.79436,1.24342,3.92,-1.75,0.63,-21.5486,-47.0465,11.2721,1014.7
512450,0.291726,9.88522,1.18604,3.36,-1.89,0.49,-21.1418,-45.1653,12.927,1014.7
512456,0.263032,9.88522,1.17647,3.15,-2.1,0.63,-22.0716,-45.7204,13.2521,1014.69
512462,0.291726,9.87087,1.16212,3.08,-2.52,0.84,-22.5656,-46.7073,11.5824,1014.69
512468,0.277379,9.87087,1.13821,2.59,-2.1,0.56,-22.275,-45.7512,11.5085,1014.71
512474,0.267814,9.82305,1.17647,2.45,-1.89,0.84,-20.6188,-45.9363,11.8927,1014.71
512480,0.282162,9.77523,1.20995,2.31,-1.75,1.33,-22.275,-47.1082,12.5428,1014.69
512486,0.272597,9.76566,1.20038,2.45,-2.03,1.47,-21.9554,-46.6147,11.3016,1014.69
512492,0.296509,9.74653,1.20516,2.38,-2.24,1.05,-21.5195,-45.7204,11.5676,1014.69
512498,0.286944,9.77044,1.21473,2.1,-1.82,0.56,-21.0837,-46.3063,11.7745,1014.69
512504,0.306074,9.84218,1.18604,1.89,-1.82,1.05,-21.5195,-47.3549,12.2178,1014.7
512510,0.320421,9.89,1.13821,1.82,-2.17,1.26,-21.0837,-46.0596,12.0257,1014.7
512516,0.286944,9.85174,1.19082,1.54,-2.45,0.77,-21.7229,-46.9848,11.2721,1014.7
512522,0.296509,9.80392,1.18604,1.05,-2.03,0.63,-22.3622,-47.6324,12.8236,1014.68
512528,0.277379,9.8087,1.17169,1.4,-2.45,0.7,-21.1709,-46.6147,12.8532,1014.68
512534,0.25825,9.81827,1.1956,1.05,-2.66,0.77,-21.8682,-46.2755,12.5281,1014.69
512540,0.282162,9.8087,1.19082,0.7,-2.38,0.56,-22.1297,-47.3857,11.1243,1014.69
512546,0.286944,9.86131,1.16212,0.7,-3.01,0.91,-22.1588,-46.7381,12.2916,1014.69
512552,0.291726,9.82305,1.16691,0.21,-3.15,1.19,-21.6067,-45.8437,12.2621,1014.69
512558,0.291726,9.84696,1.18125,0.14,-3.15,0.91,-22.5075,-47.3549,12.7645,1014.65
512564,0.325203,9.85174,1.20516,0,-3.15,0.84,-22.2169,-47.0465,11.5381,1014.65
512570,0.306074,9.88044,1.13821,-0.21,-3.29,0.35,-22.0716,-45.9054,12.4837,1014.65
512576,0.33955,9.87566,1.14778,-1.12,-3.01,0.21,-22.0426,-46.2447,12.6315,1014.67
512582,0.325203,9.87566,1.13821,-0.98,-3.36,-0.07,-22.3331,-47.6016,11.7892,1014.67
512588,0.320421,9.92826,1.15734,-1.12,-3.71,-0.28,-22.4784,-46.1213,12.7793,1014.66
512594,0.325203,9.93304,1.14778,-2.03,-3.71,-0.63,-22.0716,-45.4737,13.4738,1014.66
512600,0.344333,9.8087,1.20038,-1.61,-3.64,-0.56,-22.0135,-48.2492,12.8532,1014.7
512606,0.349115,9.79914,1.21951,-2.03,-3.22,-0.42,-21.5776,-46.7689,12.3212,1014.7
512612,0.334768,9.74653,1.28168,-1.89,-3.15,-0.56,-21.8101,-45.7204,12.203,1014.72
512618,0.35868,9.77044,1.27212,-1.89,-3.01,-0.84,-22.3041,-47.4782,11.4198,1014.72
512624,0.344333,9.82305,1.27212,-1.61,-3.36,-0.84,-21.3452,-47.0773,11.08,1014.72
512630,0.387374,9.80392,1.24342,-1.47,-3.08,-1.47,-22.3622,-45.4428,12.6167,1014.71
512636,0.35868,9.8374,1.26734,-1.89,-2.8,-1.33,-21.9263,-46.0288,12.5281,1014.71
512642,0.349115,9.87087,1.29125,-1.96,-2.66,-1.4,-21.5195,-47.3549,12.5281,1014.67
512648,0.382592,9.93783,1.25299,-2.52,-3.01,-1.75,-21.6358,-46.4297,12.3212,1014.67
512654,0.353898,9.91392,1.20516,-2.03,-3.29,-1.82,-21.2871,-45.8129,12.3655,1014.69
512660,0.320421,9.88044,1.22908,-2.73,-2.66,-1.96,-22.246,-47.0465,11.6563,1014.69
512666,0.282162,9.83261,1.23386,-2.73,-3.08,-2.38,-21.5195,-47.324,12.07,1014.69
512672,0.272597,9.88044,1.17647,-3.5,-1.96,-1.96,-21.6648,-45.7204,13.3555,1014.69
512678,0.277379,9.87566,1.1956,-3.57,-1.82,-1.26,-21.9844,-47.5399,11.0652,1014.66
512684,0.325203,9.89957,1.13821,-4.76,-1.96,-1.68,-21.6358,-47.3549,11.5233,1014.66
512690,0.329986,9.81827,1.29125,-4.55,-2.66,-2.31,-22.1297,-45.9054,11.213,1014.66
512696,0.286944,9.76088,1.36298,-4.97,-1.82,-1.96,-21.6358,-45.8129,12.4246,1014.71
512702,0.401722,9.99522,1.05691,-4.83,-1.26,-2.24,-22.1878,-47.3857,10.947,1014.71
512708,0.363462,9.96652,1.16691,-6.02,0,-2.24,-22.7399,-46.7998,12.5428,1014.67
512714,0.449546,10.0861,0.97561,-6.72,0.63,-3.08,-21.3452,-45.7512,11.3903,1014.67
512720,0.420851,10.1004,0.970827,-7.7,1.47,-3.78,-21.6939,-47.8483,11.6267,1014.68
512726,0.396939,10.1291,1.02343,-10.01,2.31,-3.29,-21.1418,-46.9231,10.7401,1014.68
512732,0.439981,10.0813,1.01387,-10.57,3.01,-3.64,-21.7229,-45.6895,11.7006,1014.69
512738,0.564323,10.0956,1.1956,-12.04,3.08,-4.9,-21.3161,-47.139,11.1982,1014.69
512744,0.789096,10.0096,1.33429,-11.55,2.45,-7.07,-22.1007,-47.2315,11.3755,1014.69
512750,0.989957,9.92826,1.47776,-10.85,2.94,-8.47,-21.7229,-46.2755,11.5528,1014.66
512756,1.01865,10.0096,1.51124,-9.87,3.57,-11.69,-20.8803,-46.9231,10.9322,1014.66
512762,1.25299,9.93304,1.70253,-7.98,4.62,-15.19,-21.1999,-48.2492,10.2377,1014.68
512768,1.32472,10.1626,1.81731,-5.18,5.39,-18.27,-21.4614,-46.6764,10.3264,1014.68
512774,1.61167,10.8274,1.42516,-5.39,8.4,-22.19,-21.3452,-47.0465,13.0305,1014.68
512780,2.30033,11.5447,1.39168,-4.48,13.51,-27.51,-21.4905,-47.9408,10.814,1014.68
512786,3.17551,12.0421,2.33381,-2.24,21.56,-35.98,-21.229,-48.0025,11.1391,1014.7
512792,2.83596,15.385,1.7934,-0.49,20.65,-46.34,-21.1418,-46.5839,11.1982,1014.7
512798,3.01769,13.8642,2.26686,3.29,23.8,-62.16,-20.8803,-48.1259,10.5628,1014.7
512804,3.74462,17.8479,1.41081,11.41,13.3,-78.68,-20.5025,-48.681,9.58757,1014.68
512810,4.48111,18.3835,-0.69823,-10.43,18.27,-89.32,-20.1539,-47.91,12.1587,1014.68
512816,4.16069,16.2745,1.18125,-20.51,21.14,-98.84,-19.4565,-48.2801,10.7992,1014.68
512822,3.84027,14.9928,0.966045,-21.7,27.58,-110.11,-18.672,-49.7912,9.86832,1014.68
512828,2.08513,16.5567,0.573888,-27.16,26.18,-110.18,-17.9455,-48.9277,9.85354,1014.7
512834,3.23768,17.7905,0.0191296,-44.24,26.46,-111.72,-17.7422,-48.681,10.6662,1014.7
512840,5.6528,14.725,0.0382592,-55.72,29.75,-114.94,-17.4516,-50.6856,9.21815,1014.66
512846,5.89192,13.2759,0.200861,-59.08,38.43,-108.99,-16.8123,-50.1613,9.1886,1014.66
512852,7.05404,12.6255,-0.0047824,-61.18,39.97,-101.43,-16.5508,-49.0819,8.70098,1014.69
512858,9.61262,9.61741,-0.554758,-56.56,44.59,-90.23,-16.115,-50.2538,8.50889,1014.69
512864,12.5825,4.16069,-1.74079,-28,67.41,-76.79,-16.6089,-50.9631,7.19379,1014.69
512870,12.4008,5.58106,-2.10426,-14.49,76.02,-69.09,-15.8535,-49.8529,8.05082,1014.67
512876,11.6117,4.08895,-2.02774,3.01,90.72,-60.41,-14.6331,-50.5314,7.93261,1014.67
512882,9.24916,3.55332,-1.97991,24.08,87.78,-39.06,-14.9527,-52.4434,7.77007,1014.66
512888,10.9421,4.20373,-3.91679,32.27,82.6,-16.66,-15.4757,-50.7781,8.03604,1014.66
512894,10.9947,4.66284,-3.75418,35.77,77.07,1.89,-15.5048,-50.2847,8.39068,1014.66
512900,10.8321,4.74414,-3.37637,36.47,64.61,16.66,-15.3886,-51.3641,8.44978,1014.66
512906,10.7508,3.96461,-2.80249,38.08,52.36,26.11,-15.8244,-51.7958,8.03604,1014.66
512912,10.067,3.43376,-2.18556,42,37.03,35.07,-16.0569,-50.1305,9.63189,1014.66
512918,9.73218,3.68723,-1.34385,44.1,20.86,44.31,-16.2312,-51.1173,8.59755,1014.66
512924,9.60784,4.21808,-0.741272,45.57,6.02,50.75,-16.1731,-51.3024,8.77486,1014.64
512930,9.43568,5.44715,-0.0334768,45.01,-8.26,59.92,-17.132,-49.5137,8.78964,1014.64
512936,9.44524,6.3845,0.373027,42.21,-20.02,72.59,-16.2021,-50.3463,9.75011,1014.66
512942,9.53611,7.66619,0.81779,37.24,-29.12,83.93,-17.0448,-50.408,9.14427,1014.66
512948,9.51698,8.35485,1.06648,30.66,-35.98,95.2,-18.2361,-49.6987,9.58757,1014.62
512954,9.49306,9.1296,1.32472,24.22,-38.85,106.47,-17.6259,-48.9894,11.2573,1014.62
512960,9.1296,9.19656,1.68819,17.57,-41.58,117.95,-19.1659,-48.9894,8.65665,1014.67
512966,8.91439,9.10091,1.67862,16.03,-43.12,125.79,-19.4565,-49.6679,9.75011,1014.67
512972,8.49833,9.60784,1.17169,11.55,-43.89,132.23,-19.195,-47.139,11.5528,1014.67
512978,8.10617,9.34959,1.44907,12.95,-43.89,134.89,-20.3573,-48.0642,10.9913,1014.65
512984,7.79531,9.60784,1.22429,14.07,-42.56,134.68,-21.4033,-47.7866,11.1243,1014.65
512990,7.10186,9.98565,1.12386,17.36,-39.97,134.89,-21.258,-46.954,11.8779,1014.62
512996,6.47537,10.2487,1.10952,19.6,-39.27,133.7,-22.1007,-46.8923,11.1391,1014.62
513002,6.04017,10.8178,0.664754,23.1,-36.68,130.2,-23.1758,-47.1698,11.0357,1014.62
513008,5.66236,11.2099,0.573888,25.69,-34.09,125.93,-23.4082,-45.8746,12.2325,1014.62
513014,5.09326,12.0182,0.47824,28.98,-30.66,120.89,-23.2048,-45.6895,12.2473,1014.64
513020,4.53372,12.4008,0.645624,30.66,-28.21,114.87,-24.2509,-47.0773,11.7006,1014.64
513026,4.12243,13.1564,0.401722,31.57,-23.17,109.9,-25.5875,-46.2138,11.1391,1014.64
513032,3.5868,13.5294,0.411286,32.06,-17.57,106.89,-25.2969,-44.4868,12.5872,1014.64
513038,2.43424,14.8302,0.564323,32.48,-11.97,104.79,-26.0233,-45.0111,11.1834,1014.64
513044,1.69297,14.6485,0.334768,32.48,-7.28,107.73,-25.7618,-45.1653,12.0848,1014.63
513050,0.45911,13.8594,0.722142,33.88,-2.94,116.41,-26.1686,-43.4074,11.8631,1014.63
513056,0.13869,13.869,1.19082,36.12,5.11,126.7,-27.0984,-42.9756,12.8827,1014.65
513062,-1.31038,14.0937,1.28647,38.78,4.55,143.22,-28.435,-44.5176,12.469,1014.65
513068,-0.659971,13.7064,0.73649,37.66,9.66,160.44,-28.6675,-42.6364,13.5624,1014.67
513074,-0.746054,13.6538,0.913438,37.17,12.32,174.72,-28.4641,-40.3851,12.8532,1014.67
513080,-0.229555,13.8881,0.712578,33.11,15.47,182.77,-30.9339,-41.2178,13.9318,1014.66
513086,-0.114778,13.6585,0.899091,30.8,19.74,184.52,-30.7886,-41.4645,12.0848,1014.66
513092,-0.253467,13.2472,0.961262,28.35,22.82,180.11,-31.1954,-37.7329,13.3408,1014.66
513098,-0.373027,12.9316,0.85605,26.53,25.2,171.5,-32.7354,-38.5964,13.8579,1014.65
513104,-0.846485,12.5634,0.703013,24.29,26.81,160.02,-33.52,-38.2572,13.1782,1014.65
513110,-1.40124,12.2143,0.755619,22.54,26.67,147.63,-33.5781,-37.0236,12.602,1014.66
513116,-2.12339,11.5973,0.927786,23.03,25.48,135.66,-34.1302,-36.2217,13.6806,1014.66
513122,-2.59684,11.5399,0.95648,22.82,20.93,123.97,-35.1762,-36.4068,12.7202,1014.68
513128,-2.81205,11.8077,0.435198,21.7,16.94,112.42,-34.8275,-35.79,13.9023,1014.68
513134,-2.9077,11.6834,0.282162,18.83,11.55,100.38,-35.554,-34.9573,13.6806,1014.65
513140,-2.75466,11.6882,-0.13869,15.33,6.37,88.48,-36.5128,-35.6049,12.3803,1014.65
513146,-2.86944,11.5782,-0.234338,12.11,1.33,78.12,-36.9196,-34.5564,14.0648,1014.65
513152,-3.29029,10.6982,-0.373027,9.87,-4.06,71.33,-37.123,-33.292,13.8432,1014.66
513158,-4.05069,9.79436,-0.129125,12.74,-10.78,67.76,-36.8325,-33.9088,13.1339,1014.66
513164,-4.48589,8.6944,-0.0573888,19.6,-16.73,69.79,-36.9196,-34.2788,12.5724,1014.69
513170,-4.98804,8.38355,-0.133907,28.14,-24.36,78.05,-37.5879,-32.891,13.7988,1014.69
513176,-5.39455,8.0966,0.0860832,37.66,-33.32,90.37,-37.2392,-32.2126,13.9614,1014.66
513182,-5.03108,8.24486,0.143472,45.71,-40.53,104.58,-38.2853,-32.3051,14.316,1014.66
513188,-4.32807,9.01961,0.368245,49.42,-46.2,114.45,-38.14,-31.6575,14.7593,1014.69
513194,-2.93639,10.2296,0.435198,47.32,-48.44,116.69,-37.8494,-30.393,15.7937,1014.69
513200,-2.29077,11.1095,0.554758,41.02,-48.51,111.02,-39.5638,-30.9481,15.4095,1014.69
513206,-2.09469,11.8077,0.650406,31.43,-48.09,98.28,-38.8664,-30.5164,16.3404,1014.69
513212,-2.35772,11.7073,0.71736,21.7,-46.69,80.36,-38.2853,-28.851,16.2517,1014.69
513218,-3.21856,10.88,0.664754,14.28,-46.69,62.37,-39.4766,-29.622,16.3847,1014.69
513224,-3.84027,10.1674,0.693448,10.36,-45.99,46.62,-39.3604,-29.4062,14.582,1014.69
513230,-4.60067,9.06265,0.69823,9.1,-47.11,32.97,-38.634,-28.4193,16.7393,1014.67
513236,-4.72023,8.48876,0.679101,12.25,-48.51,22.19,-39.2732,-27.4633,17.1383,1014.67
513242,-4.71066,8.16834,0.559541,15.26,-49.49,12.25,-39.68,-29.3136,17.8476,1014.68
513248,-4.55285,8.15877,0.554758,18.48,-49.91,3.29,-39.4766,-28.4501,16.7098,1014.68
513254,-4.27068,8.49833,0.655189,20.37,-47.6,-5.81,-39.0698,-28.0492,17.1531,1014.69
513260,-4.1033,8.62267,0.908656,22.33,-44.87,-14.56,-39.5347,-28.5426,17.6259,1014.69
513266,-3.77331,9.06265,1.04256,21.7,-39.34,-24.08,-39.5347,-29.5912,18.0988,1014.69
513272,-3.71114,9.3735,1.12386,21.28,-31.71,-33.53,-38.4887,-28.0184,18.9115,1014.69
513278,7.21186,23.2233,17.714,76.93,-67.13,-87.99,-38.663,-28.666,18.0692,1014.69
513284,0.449546,38.1827,-5.12195,-60.62,14.49,-120.4,-38.9245,-29.5604,17.3895,1014.68
513290,-4.46198,9.7274,8.63223,-85.19,42.91,-135.31,-38.4306,-29.3136,18.7194,1014.68
513296,-3.95026,4.31372,7.90531,-41.58,49.56,-158.34,-37.7041,-31.5649,17.5816,1014.66
513302,-11.2673,7.6901,5.05978,-36.26,41.93,-169.26,-37.1811,-32.2434,16.7393,1014.66
513308,-7.87183,9.31133,5.58584,-44.03,-34.93,-156.66,-36.9777,-32.8602,16.961,1014.7
513314,6.04017,6.70971,-0.45911,-25.62,-0.56,-152.32,-35.9898,-32.1201,18.3647,1014.7
513320,14.2085,10.1148,-3.58202,-31.43,78.75,-153.37,-35.9898,-34.0321,15.971,1014.7
513326,7.59923,8.31181,-0.435198,-14.98,113.61,-150.36,-35.1472,-34.9881,16.7689,1014.68
513332,8.41224,11.9799,1.83644,-50.33,88.2,-165.9,-34.8275,-34.433,16.3108,1014.68
513338,8.39789,5.20325,1.40603,-31.57,117.46,-169.96,-34.7404,-36.3451,15.1583,1014.69
513344,2.6638,5.11717,5.92539,-13.44,119,-175.7,-34.4498,-37.9796,13.3408,1014.69
513350,-0.105213,5.61454,7.31707,-1.96,94.08,-181.79,-33.2585,-36.746,13.5329,1014.69
513356,-2.60641,9.49306,6.34146,9.66,94.5,-184.45,-33.4038,-38.1955,13.326,1014.69
513362,-7.45098,11.0904,5.58106,11.76,72.59,-174.65,-32.7064,-39.645,12.794,1014.72
513368,-6.87709,11.1573,4.07939,0.77,38.01,-167.65,-31.6313,-39.9225,13.0157,1014.72
513374,-5.27499,10.7413,4.52415,-2.73,14.42,-144.13,-31.3988,-39.1515,14.6706,1014.72
513380,-2.53945,11.1095,5.2176,-2.52,-6.86,-153.3,-30.2366,-41.7112,11.9666,1014.69
513386,-1.07126,11.0473,2.80727,7.63,-16.73,-147.98,-30.8468,-41.8037,12.6463,1014.69
513392,0.286944,14.3759,-0.803443,5.25,-8.12,-139.79,-29.2777,-40.9711,14.05,1014.67
513398,-0.0095648,13.0081,-1.57341,-6.09,-4.62,-131.04,-28.5513,-42.5439,13.5181,1014.67
513404,-0.191296,13.582,-2.42946,-9.87,12.46,-123.41,-28.3769,-42.9448,11.9222,1014.66
513410,-0.669536,12.659,-1.69297,-18.34,16.1,-116.76,-27.5633,-42.8523,12.9123,1014.66
513416,-0.827355,12.2382,-1.09517,-24.92,17.92,-108.99,-27.4181,-43.4999,12.927,1014.72
513422,-0.774749,11.0234,0.506934,-25.48,17.01,-104.86,-26.8079,-44.5176,11.9813,1014.72
513428,-1.66428,12.0708,-0.353898,-27.37,29.4,-103.25,-25.9362,-43.7158,13.3555,1014.69
513434,-8.65136,15.1124,0.95648,-27.58,34.65,-53.55,-24.8029,-43.2532,12.8827,1014.69
513440,-6.93448,10.9852,3.53419,-2.73,2.1,-25.06,-25.7328,-45.3195,12.2473,1014.69
513446,-1.43472,12.6781,-1.10473,-35.49,-13.37,-25.83,-25.3841,-45.2269,10.7697,1014.68
513452,3.87374,11.1717,-2.10904,-25.62,10.36,-28.28,-25.849,-44.6101,12.4394,1014.68
513458,0.0095648,10.0096,0.985174,-16.59,21.98,-26.18,-25.5875,-46.0905,11.6119,1014.66
513464,-1.64993,9.76088,2.44381,-15.19,10.85,-22.19,-25.8199,-45.7512,11.5528,1014.66
513470,-1.21473,8.56528,3.25681,-5.74,-0.42,-17.85,-24.7739,-44.6718,10.2821,1014.68
513476,-0.023912,9.4835,1.3582,2.31,-0.21,-14.49,-24.5124,-44.1784,11.5676,1014.68
513482,0.109995,10.44,0.593018,0.56,-2.87,-12.46,-24.8901,-45.9671,9.82399,1014.67
513488,0.411286,10.067,0.884744,0.42,-4.41,-13.09,-24.9482,-45.1653,10.9913,1014.67
513494,0.35868,9.71784,1.24342,1.89,-3.29,-13.02,-25.2388,-45.0111,12.7349,1014.67
513500,0.133907,9.84696,1.033,3.22,-4.41,-11.62,-24.4833,-45.9363,10.2525,1014.66
513506,0.234338,10.7604,0.425634,1.47,-5.67,-11.62,-24.8611,-45.9671,10.9174,1014.66
513512,0.454328,9.82783,0.879962,3.22,-7.49,-10.29,-24.9192,-44.3326,11.6415,1014.65
513518,0.889526,10.043,0.35868,1.05,-6.23,-12.25,-25.326,-44.5793,11.1243,1014.65
513524,0.310856,9.76566,1.1143,3.36,-7.56,-11.69,-25.0063,-45.8746,11.7154,1014.67
513530,0.301291,10.0383,0.966045,3.71,-7.7,-11.55,-23.8441,-44.9185,12.6167,1014.67
513536,0.10043,10.0191,1.07604,5.39,-9.8,-11.2,-24.338,-45.0419,12.0996,1014.66
513542,0.392157,10.0717,0.645624,5.18,-9.31,-10.64,-24.2509,-46.2447,11.4789,1014.66
513548,0.272597,10.0909,0.621712,4.97,-11.06,-10.57,-24.1346,-45.412,11.5972,1014.66
513554,0.602582,10.043,0.463893,4.13,-10.64,-11.2,-24.6577,-45.1036,11.7597,1014.66
