Timestamp,AccX,AccY,AccZ,AngularVelX,AngularVelY,AngularVelZ,MagX,MagY,MagZ,AirPressure
326282,0.25825,9.79436,0.908656,1.19,-3.85,-0.63,-23.3211,-47.7866,12.0109,1014.7
326288,0.277379,9.79436,0.875179,1.4,-3.57,0.07,-23.6407,-47.0157,12.469,1014.7
326294,0.282162,9.78479,0.851267,1.61,-3.57,-0.56,-22.6237,-46.3063,13.8579,1014.67
326300,0.291726,9.78001,0.870397,1.47,-3.78,-1.05,-23.3792,-47.1698,12.3803,1014.67
326306,0.310856,9.78479,0.889526,1.75,-3.5,-0.7,-23.6988,-46.9231,12.469,1014.71
326312,0.263032,9.78957,0.860832,1.82,-4.06,-0.84,-23.0305,-46.6147,14.1978,1014.71
326318,0.277379,11.0043,0.851267,1.75,-3.85,-0.49,-23.5535,-47.0157,13.0452,1014.69
326324,0.296509,9.81349,0.83692,1.75,-3.71,-0.77,-23.4663,-47.7558,12.2325,1014.69
326330,0.291726,9.79436,0.875179,1.54,-3.99,-0.91,-22.5946,-46.2755,12.8236,1014.64
326336,0.325203,9.78001,0.841702,1.68,-3.64,-0.98,-22.769,-45.412,13.8875,1014.64
326342,0.291726,9.84218,0.798661,1.68,-3.08,-0.98,-23.1177,-47.6941,12.7645,1014.64
326348,0.243902,9.81349,0.798661,1.47,-3.01,-0.7,-22.4493,-46.4605,12.0404,1014.69
326354,0.224773,9.81349,0.808226,0.84,-3.64,-0.77,-22.3912,-45.4737,12.7054,1014.69
326360,0.229555,9.79914,0.85605,1.19,-4.06,-0.7,-22.4784,-45.9671,13.5181,1014.67
326366,0.272597,9.73697,0.851267,1.26,-3.85,-0.35,-22.9433,-48.1259,11.8188,1014.67
326372,0.277379,9.77523,0.85605,1.05,-3.5,-0.7,-22.4784,-46.368,12.9714,1014.69
326378,0.282162,9.78479,0.822573,1.26,-3.5,-0.49,-22.1588,-46.7381,12.7349,1014.69
326384,0.282162,9.81349,0.827355,1.4,-3.85,-0.77,-22.7399,-47.1698,12.6611,1014.7
326390,0.306074,9.81827,0.879962,1.61,-3.71,-0.84,-22.7399,-46.0905,13.7545,1014.7
326396,0.296509,9.78479,0.870397,1.54,-3.29,-0.91,-22.1878,-45.5662,13.4294,1014.7
326402,0.344333,9.81349,0.879962,1.61,-2.94,-1.05,-22.2169,-47.324,13.1339,1014.69
326408,0.373027,9.81827,0.81779,1.05,-3.01,-1.89,-22.5946,-46.9848,12.9123,1014.69
326414,0.396939,9.82783,0.813008,1.4,-2.94,-1.89,-22.4203,-45.6279,14.0353,1014.67
326420,0.368245,9.85174,0.760402,1.12,-2.87,-1.82,-23.6116,-47.0773,12.2769,1014.67
326426,0.272597,9.86131,0.81779,1.19,-2.8,-2.24,-22.8852,-47.2932,11.9075,1014.71
326432,0.172166,9.78001,0.884744,0.91,-2.66,-2.03,-23.5826,-45.9363,12.5133,1014.71
326438,0.124342,9.7274,0.95648,1.19,-2.59,-1.82,-23.1758,-46.5839,12.602,1014.67
326444,0.157819,9.73697,0.942133,1.26,-2.87,-1.47,-23.0014,-47.139,12.7202,1014.67
326450,0.21999,9.78479,0.894309,1.26,-3.15,-1.4,-23.292,-46.3063,13.0305,1014.67
326456,0.243902,9.82783,0.846485,1.12,-3.43,-1.4,-22.8852,-45.5662,12.8679,1014.69
326462,0.25825,9.8087,0.813008,0.91,-3.15,-1.19,-22.5365,-47.2315,13.4442,1014.69
326468,0.196078,9.79914,0.841702,1.47,-3.01,-0.91,-22.9433,-46.3989,13.3112,1014.7
326474,0.248685,9.78957,0.889526,0.91,-3.29,-0.91,-22.6237,-45.0419,13.6363,1014.7
326480,0.248685,9.77044,0.875179,1.26,-3.57,-1.12,-23.0305,-47.9717,10.6958,1014.72
326486,0.282162,9.78479,0.846485,1.33,-3.15,-1.05,-23.815,-46.7689,12.07,1014.72
326492,0.325203,9.8374,0.822573,1.33,-2.94,-1.12,-23.3211,-46.4605,12.8827,1014.69
326498,0.272597,9.81827,0.827355,0.98,-3.01,-1.33,-22.9433,-45.9054,12.203,1014.69
326504,0.181731,9.79436,0.851267,1.19,-3.5,-1.33,-23.5826,-47.3549,12.3212,1014.71
326510,0.148254,9.80392,0.875179,0.84,-3.15,-1.12,-23.5826,-46.9231,13.0748,1014.71
326516,0.253467,9.79436,0.923003,0.77,-3.01,-1.12,-23.292,-46.0288,12.8384,1014.71
326522,0.277379,9.79436,0.879962,1.54,-3.15,-1.05,-22.1588,-46.9848,12.7497,1014.71
326528,0.248685,9.78479,0.879962,1.05,-3.08,-0.98,-22.7399,-45.7821,12.927,1014.71
326534,0.263032,9.78001,0.927786,1.54,-3.57,-1.47,-22.4784,-46.5839,12.6463,1014.69
326540,0.243902,9.80392,0.889526,1.4,-3.85,-1.12,-22.9143,-47.2007,13.9466,1014.69
326546,0.248685,9.77044,0.894309,1.05,-3.43,-1.12,-23.8731,-46.954,12.5133,1014.71
326552,0.272597,9.79914,0.846485,1.26,-3.08,-1.05,-22.3912,-46.183,13.0305,1014.71
326558,0.263032,9.79436,0.846485,1.05,-3.01,-1.54,-22.8561,-47.0157,13.3112,1014.72
326564,0.248685,9.81827,0.889526,1.19,-3.01,-0.84,-22.8561,-47.5399,12.794,1014.72
326570,0.196078,9.77044,0.899091,1.12,-3.36,-1.12,-22.8852,-46.5222,12.2769,1014.72
326576,0.181731,9.77044,0.884744,1.12,-3.78,-1.26,-22.5946,-45.7204,14.449,1014.68
326582,0.25825,9.77523,0.879962,0.98,-2.66,-0.98,-23.2629,-47.725,12.8384,1014.68
326588,0.162602,9.75131,0.879962,1.54,-3.36,-1.05,-22.9433,-46.9848,12.7054,1014.67
326594,0.210426,9.77044,0.894309,1.12,-3.5,-0.42,-22.769,-46.2138,13.3999,1014.67
326600,0.200861,9.78479,0.903874,1.4,-3.85,0.07,-22.4784,-47.324,12.7054,1014.68
326606,0.253467,9.77523,0.870397,1.4,-3.36,-0.77,-22.3331,-47.4474,11.3903,1014.68
326612,0.263032,9.79436,0.860832,1.68,-3.43,-0.7,-22.6818,-46.2755,13.3555,1014.66
326618,0.277379,9.85653,0.827355,0.84,-3.08,-0.7,-22.3331,-46.7689,13.0452,1014.66
326624,0.306074,9.88044,0.789096,1.12,-3.85,-1.33,-22.3041,-47.9717,12.8384,1014.66
326630,0.349115,9.89,0.789096,0.77,-3.85,-1.54,-22.769,-46.6764,13.5476,1014.66
326636,0.33955,9.91392,0.755619,0.14,-3.01,-2.24,-22.6237,-46.1213,11.9813,1014.66
326642,0.310856,9.89,0.760402,-0.42,-2.87,-2.66,-22.1878,-48.3726,11.8927,1014.71
326648,0.296509,9.87566,0.822573,-0.35,-2.45,-2.38,-22.4784,-47.2932,12.1587,1014.71
326654,0.196078,9.74653,1.06169,-0.07,-3.01,-2.66,-22.1007,-46.4297,12.4099,1014.71
326660,0.205643,9.76088,0.999522,0.63,-2.59,-2.03,-22.8271,-47.4166,12.3951,1014.71
326666,0.263032,9.78479,0.923003,0.77,-2.87,-2.31,-23.1177,-47.2315,12.602,1014.7
326672,0.200861,9.77044,0.970827,0.63,-2.73,-2.17,-22.1007,-45.7512,12.6611,1014.7
326678,0.191296,9.81827,0.884744,1.05,-3.15,-2.38,-22.5075,-46.7689,12.4985,1014.68
326684,0.162602,9.79436,0.942133,0.49,-2.8,-2.31,-23.2629,-47.2624,12.4246,1014.68
326690,0.191296,9.79436,0.903874,1.19,-3.29,-2.38,-22.246,-45.9671,13.5476,1014.68
326696,0.176949,9.78479,0.884744,0.98,-3.29,-2.1,-22.7109,-46.2447,13.4885,1014.71
326702,0.196078,9.7561,0.927786,0.84,-3.08,-2.1,-22.1588,-47.6016,13.2964,1014.71
326708,0.172166,9.7561,0.966045,1.4,-2.8,-2.24,-22.1588,-47.2315,12.6463,1014.7
326714,0.200861,9.76566,0.95648,0.98,-3.01,-1.96,-22.769,-46.2447,13.06,1014.7
326720,0.210426,9.82305,0.913438,1.19,-3.01,-1.96,-22.4784,-47.725,12.1143,1014.66
326726,0.282162,9.8374,0.841702,0.98,-2.8,-2.1,-22.4784,-47.7866,11.3755,1014.66
326732,0.205643,9.77044,0.932568,0.91,-3.29,-1.96,-22.4493,-46.368,11.8631,1014.68
326738,0.196078,9.86131,0.813008,0.84,-2.52,-2.03,-22.798,-46.7689,13.459,1014.68
326744,0.153037,9.80392,0.875179,0.84,-3.29,-2.03,-22.6818,-47.0465,12.9714,1014.68
326750,0.229555,9.78479,0.899091,1.33,-2.38,-2.17,-22.0716,-46.5222,12.3951,1014.65
326756,0.167384,9.82783,0.879962,0.84,-2.66,-1.89,-22.5656,-46.0905,14.1535,1014.65
326762,0.114778,9.81349,0.865614,0.49,-3.29,-2.03,-22.5656,-47.6941,12.2916,1014.67
326768,0.109995,9.81827,0.865614,0.63,-3.22,-2.31,-22.9143,-46.7998,11.937,1014.67
326774,0.095648,9.73697,0.932568,0.07,-3.36,-1.61,-22.6818,-45.9671,13.0748,1014.68
326780,0.0573888,9.7274,0.989957,0.63,-3.15,-1.47,-22.798,-47.6941,12.5576,1014.68
326786,0.129125,9.69871,1.02822,0.98,-3.36,-0.98,-22.8852,-47.2007,12.1882,1014.68
326792,0.143472,9.74175,0.93735,1.26,-3.57,-0.7,-23.0014,-46.3063,12.3212,1014.68
326798,0.129125,9.77523,0.923003,1.26,-3.15,-0.7,-22.8852,-46.368,13.0748,1014.68
326804,0.129125,9.72262,0.918221,1.33,-3.71,-0.49,-23.3501,-47.324,12.3655,1014.67
326810,0.143472,9.76088,0.913438,1.54,-3.5,-0.35,-22.5946,-46.5839,12.5281,1014.67
326816,0.148254,9.75131,0.97561,2.03,-3.64,-0.35,-22.4784,-46.183,13.7102,1014.66
326822,0.200861,9.77523,0.923003,1.89,-3.64,-0.07,-23.4373,-47.6016,12.8384,1014.66
326828,0.186514,9.78001,0.918221,1.33,-3.01,0,-22.8271,-47.3549,12.0552,1014.69
326834,0.21999,9.82783,0.913438,1.89,-3.43,-0.56,-21.9844,-46.3063,12.1734,1014.69
326840,0.21999,9.81827,0.851267,1.61,-3.64,-0.28,-22.5075,-46.5531,13.2817,1014.7
326846,0.248685,9.82783,0.83692,2.1,-3.29,-0.77,-23.1467,-47.8483,12.794,1014.7
326852,0.205643,9.83261,0.851267,1.33,-3.15,-0.7,-22.4203,-46.4605,13.1191,1014.67
326858,0.191296,9.78001,0.884744,1.05,-3.29,-0.42,-22.8852,-46.5531,12.203,1014.67
326864,0.181731,9.78001,0.95648,1.33,-3.01,-1.26,-22.8271,-47.324,12.0552,1014.67
326870,0.167384,9.8087,0.95648,1.12,-2.8,-0.56,-23.0595,-47.139,12.9714,1014.69
326876,0.167384,9.8087,0.961262,1.19,-3.22,-0.77,-23.0886,-45.5045,12.7793,1014.69
326882,0.109995,9.81827,0.966045,1.33,-3.36,-0.91,-22.6237,-47.6633,11.346,1014.66
326888,0.186514,9.79436,0.927786,1.68,-3.57,-0.7,-22.2169,-47.2624,12.5281,1014.66
326894,0.095648,9.7561,0.95648,1.47,-3.29,-0.49,-22.0716,-45.6895,13.2669,1014.7
326900,0.148254,9.77523,0.903874,1.47,-3.57,-0.21,-21.9263,-46.954,13.1339,1014.7
326906,0.13869,9.78957,0.942133,1.89,-3.78,-0.91,-22.0135,-47.6016,12.0109,1014.68
326912,0.167384,9.79914,0.951698,1.54,-3.5,0.07,-21.781,-46.368,13.6363,1014.68
326918,0.162602,9.77523,0.927786,1.61,-3.5,0.07,-22.7399,-46.7073,13.1487,1014.68
326924,0.186514,9.79914,0.913438,1.68,-3.43,0.14,-22.0135,-47.6324,12.1587,1014.7
326930,0.200861,9.81349,0.875179,1.4,-3.22,-0.35,-22.1878,-46.4605,12.1587,1014.7
326936,0.21999,9.81349,0.951698,1.47,-2.94,-0.77,-22.2169,-45.4737,13.6806,1014.66
326942,0.25825,9.8087,0.93735,1.61,-3.36,-0.7,-22.9724,-47.8792,12.2769,1014.66
326948,0.210426,9.81827,0.899091,1.61,-3.22,-0.91,-22.5946,-46.8923,12.1734,1014.71
326954,0.205643,9.85653,0.889526,1.47,-3.29,-1.4,-22.4493,-46.2755,13.9614,1014.71
326960,0.186514,9.86131,0.870397,1.33,-3.43,-1.19,-21.1127,-47.2932,13.0452,1014.68
326966,0.23912,9.8374,0.889526,1.12,-2.87,-0.7,-22.8271,-48.095,12.2621,1014.68
326972,0.224773,9.78479,0.961262,1.05,-2.66,-1.54,-21.9554,-46.0596,13.2373,1014.68
326978,0.153037,9.81349,0.946915,1.12,-3.22,-1.75,-21.9844,-47.2932,11.5381,1014.69
326984,0.105213,9.82305,0.946915,1.26,-3.64,-1.12,-22.5946,-47.7866,12.1291,1014.69
326990,0.133907,9.78957,0.93735,0.63,-2.8,-1.05,-22.4784,-47.2932,13.0009,1014.7
326996,0.114778,9.78957,0.95648,1.26,-3.57,-0.7,-22.3331,-45.7821,12.9861,1014.7
327002,0.109995,9.77044,0.951698,1.26,-3.5,-1.12,-21.9554,-47.4782,13.6363,1014.67
327008,0.071736,9.73697,0.95648,1.12,-3.36,-0.63,-22.6237,-47.6016,12.9418,1014.67
327014,0.095648,9.77523,0.95648,1.75,-3.29,-0.21,-21.3452,-46.3989,13.6659,1014.69
327020,0.095648,9.73697,0.923003,1.33,-3.43,-0.28,-22.246,-47.2624,13.2226,1014.69
327026,0.0765184,9.76566,0.966045,1.4,-3.43,-0.14,-21.8101,-47.6016,11.8188,1014.69
327032,0.129125,9.79914,0.923003,1.68,-3.71,0.21,-22.3912,-47.4782,13.0305,1014.69
327038,0.157819,9.77044,0.942133,1.54,-3.57,0.28,-22.0716,-46.7381,13.7841,1014.69
327044,0.191296,9.8087,0.927786,1.4,-3.78,0.21,-22.1007,-48.1876,12.0848,1014.72
327050,0.248685,9.83261,0.942133,1.75,-3.92,0.14,-22.769,-46.5839,13.4885,1014.72
327056,0.215208,9.83261,0.899091,1.96,-3.71,-0.28,-21.7229,-46.5531,13.0157,1014.7
327062,0.234338,9.82783,0.908656,1.54,-3.43,-0.63,-22.1297,-47.5399,11.8779,1014.7
327068,0.248685,9.88522,0.918221,1.68,-3.36,-0.98,-22.1297,-47.5708,13.592,1014.68
327074,0.243902,9.87087,0.918221,1.82,-3.43,-1.19,-22.3331,-45.9671,13.5329,1014.68
327080,0.176949,9.83261,0.908656,1.33,-3.36,-1.33,-21.6939,-47.6941,11.937,1014.66
327086,0.200861,9.82783,0.903874,1.82,-3.29,-1.47,-22.1878,-47.2315,11.7449,1014.66
327092,0.153037,9.80392,0.918221,1.12,-3.15,-1.75,-22.9143,-47.0465,11.1834,1014.66
327098,0.095648,9.76088,0.899091,1.12,-2.87,-1.33,-22.0716,-46.8615,12.9861,1014.7
327104,0.0765184,9.76566,0.942133,1.26,-3.36,-1.12,-22.5946,-47.9408,11.0357,1014.7
327110,0.0908656,9.77523,0.980392,0.7,-3.15,-0.77,-22.3622,-46.6147,11.4346,1014.69
327116,0.114778,9.70827,0.989957,1.33,-2.94,-1.05,-22.3912,-45.6587,13.1635,1014.69
327122,0.0860832,9.79436,0.97561,1.4,-3.36,-0.63,-21.8973,-47.4166,10.3707,1014.7
327128,0.148254,9.76088,0.95648,1.54,-2.87,-0.49,-22.5075,-47.4782,11.6119,1014.7
327134,0.0908656,9.76566,1.0043,1.82,-3.29,-0.28,-22.5075,-46.3372,11.0504,1014.7
327140,0.114778,9.76566,0.989957,1.75,-3.01,-0.56,-22.5946,-47.0157,12.07,1014.7
327146,0.148254,9.82783,0.946915,2.24,-3.22,-0.63,-22.5946,-47.91,12.0404,1014.7
327152,0.186514,9.81827,0.985174,1.75,-3.43,0,-22.1007,-46.7998,13.592,1014.68
327158,0.153037,9.8087,0.95648,2.1,-3.43,-0.28,-22.1588,-47.0465,12.3803,1014.68
327164,0.191296,9.8087,0.932568,1.61,-2.87,-0.91,-22.8852,-48.0642,12.3951,1014.68
327170,0.215208,9.81349,0.918221,1.82,-3.22,-1.05,-22.6237,-46.5839,12.5872,1014.68
327176,0.210426,9.85174,0.889526,1.47,-2.94,-0.91,-22.3041,-46.3063,13.3555,1014.7
327182,0.148254,9.87087,0.851267,1.12,-3.01,-1.19,-22.8561,-46.9848,12.2916,1014.7
327188,0.148254,9.81827,0.923003,1.19,-2.66,-1.26,-22.6527,-46.6147,12.6758,1014.68
327194,0.071736,9.74653,0.994739,1.4,-2.73,-1.12,-22.8852,-46.6147,11.346,1014.68
327200,0.10043,9.78479,0.942133,0.56,-3.36,-0.91,-22.6818,-47.5091,11.8484,1014.7
327206,0.0813008,9.73218,1.01865,1.26,-3.64,-0.7,-22.3041,-47.5091,12.6611,1014.7
327212,0.105213,9.76088,0.951698,1.12,-3.15,-0.28,-22.246,-45.9979,12.8827,1014.7
327218,0.047824,9.7561,0.989957,1.33,-3.36,-0.49,-22.0716,-46.954,11.9813,1014.71
327224,0.0526064,9.70349,1.0043,1.33,-3.22,-0.21,-22.5656,-48.2492,10.7549,1014.71
327230,0.0813008,9.73697,1.02343,2.03,-4.13,-0.07,-22.3331,-47.139,12.0996,1014.69
327236,0.0669536,9.73697,0.989957,1.54,-3.64,0.14,-22.1588,-46.2138,11.9222,1014.69
327242,0.105213,9.77044,1.01387,1.75,-3.43,0.63,-21.9844,-47.6941,11.671,1014.69
327248,0.162602,9.75131,0.994739,1.96,-3.22,0.35,-22.9143,-47.7866,11.4642,1014.69
327254,0.196078,9.82305,0.95648,2.1,-3.71,-0.14,-22.0716,-46.5839,12.6906,1014.66
327260,0.200861,9.81349,0.923003,2.17,-3.5,0.07,-21.752,-47.725,11.7449,1014.66
327266,0.291726,9.87566,0.899091,1.75,-3.36,-0.63,-22.8561,-47.139,11.9961,1014.66
327272,0.329986,9.92826,0.860832,1.4,-3.43,-1.12,-22.3331,-46.1521,13.1487,1014.7
327278,0.21999,9.89,0.870397,1.33,-3.43,-0.98,-22.246,-46.4914,13.3408,1014.7
327284,0.133907,9.85653,0.899091,1.12,-3.43,-1.4,-23.4954,-47.9408,12.336,1014.69
327290,0.109995,9.82305,0.923003,0.84,-3.64,-1.75,-22.246,-46.4914,12.469,1014.69
327296,0.129125,9.79436,0.994739,0.49,-3.29,-1.47,-22.4493,-46.2447,12.3803,1014.66
327302,0.162602,9.79914,0.97561,0.91,-2.94,-1.19,-22.5656,-47.1698,12.3951,1014.66
327308,0.105213,9.81827,0.889526,0.77,-3.64,-1.61,-22.5656,-47.5708,11.5381,1014.72
327314,0.105213,9.80392,0.970827,0.63,-3.71,-1.68,-22.5075,-45.9054,12.5872,1014.72
327320,0.047824,9.73218,1.04256,0.98,-3.43,-0.84,-21.6939,-46.4297,12.9861,1014.72
327326,0.095648,9.73697,1.033,1.19,-3.64,-0.77,-22.0716,-47.2315,11.6858,1014.66
327332,0.0526064,9.77044,0.966045,1.05,-3.64,-0.91,-21.6939,-46.2447,11.3903,1014.66
327338,0.0765184,9.73697,1.04735,1.12,-3.29,-0.49,-22.1007,-46.6456,12.4837,1014.67
327344,0.0430416,9.7274,1.07126,1.89,-3.36,0.35,-22.8852,-47.7558,11.4494,1014.67
327350,0.0860832,9.73218,1.03778,1.75,-3.22,0.14,-22.5656,-46.6456,11.9075,1014.67
327356,0.148254,9.76088,0.966045,2.38,-3.43,-0.07,-22.5656,-45.7821,13.2226,1014.67
327362,0.162602,9.78957,0.923003,1.75,-3.57,0.07,-21.4905,-47.7558,12.1882,1014.68
327368,0.129125,9.80392,0.932568,2.03,-3.29,0.28,-22.0426,-47.725,11.0948,1014.68
327374,0.162602,9.79436,0.970827,1.75,-3.43,-0.56,-22.2169,-45.8746,13.3703,1014.68
327380,0.272597,9.88044,0.903874,1.47,-3.64,-1.33,-22.1878,-47.2315,13.0305,1014.68
327386,0.272597,9.92826,0.865614,1.12,-3.78,-1.26,-22.6818,-48.0334,11.9666,1014.68
327392,0.186514,9.88522,0.894309,1.12,-3.15,-1.47,-22.798,-46.954,13.2226,1014.71
327398,0.109995,9.84696,0.932568,0.56,-3.08,-1.61,-22.1878,-47.2624,11.8484,1014.71
327404,0.095648,9.82783,0.999522,0.77,-3.71,-1.4,-23.0305,-47.6016,12.3212,1014.69
327410,0.205643,9.81349,1.01865,0.42,-3.29,-1.75,-22.2169,-46.6147,12.203,1014.69
327416,0.114778,9.80392,0.966045,0.56,-3.57,-2.03,-22.8271,-46.2755,12.927,1014.68
327422,0.0382592,9.81349,0.980392,0.7,-3.29,-1.47,-22.4203,-47.139,12.8532,1014.68
327428,0.0382592,9.78001,0.980392,0.14,-2.87,-1.12,-22.0426,-47.3549,12.6611,1014.72
327434,0.0526064,9.71784,1.10473,1.19,-3.29,-1.33,-22.3041,-46.1521,13.8284,1014.72
327440,0.0430416,9.69392,1.06648,1.19,-3.57,-0.98,-22.0135,-47.8175,12.2473,1014.72
327446,0.0621712,9.73697,1.01865,1.05,-3.5,-0.14,-21.781,-48.7427,11.6858,1014.66
327452,0.0382592,9.75131,1.00909,1.54,-3.5,-0.77,-22.246,-46.5839,12.794,1014.66
327458,0.047824,9.70349,1.01387,1.54,-3.78,-0.28,-22.6527,-46.0288,13.0896,1014.69
327464,0.0669536,9.74653,0.999522,1.96,-3.57,0.14,-22.1297,-47.2315,11.7006,1014.69
327470,0.129125,9.78479,0.985174,1.75,-4.06,0.07,-21.6358,-47.2932,13.0009,1014.69
327476,0.153037,9.80392,0.970827,1.68,-3.22,-0.07,-21.9844,-46.183,13.7102,1014.69
327482,0.143472,9.82783,0.946915,1.54,-2.94,-0.14,-21.9844,-48.1259,10.3855,1014.64
327488,0.13869,9.81349,0.980392,1.61,-3.5,0,-22.5365,-47.6324,11.6267,1014.64
327494,0.13869,9.76566,1.00909,1.89,-3.5,-0.42,-22.5656,-46.4605,12.1143,1014.64
327500,0.248685,9.83261,0.985174,1.54,-3.08,-0.49,-21.8973,-47.4474,11.7745,1014.67
327506,0.234338,9.88044,0.946915,1.68,-3.5,-1.61,-22.1297,-48.2492,12.2769,1014.67
327512,0.148254,9.81827,0.970827,1.54,-3.43,-1.68,-21.8973,-47.8175,12.2178,1014.66
327518,0.0430416,9.80392,0.989957,1.19,-3.29,-1.12,-22.1007,-46.8615,13.193,1014.66
327524,0.0860832,9.81349,1.0043,0.98,-3.36,-0.63,-22.3331,-48.2801,11.4642,1014.71
327530,0.105213,9.79914,1.00909,0.63,-3.5,-1.19,-21.9844,-47.91,12.4985,1014.71
327536,0.129125,9.73697,1.06648,1.47,-3.36,-1.19,-22.0716,-47.2315,12.8384,1014.67
327542,0.0334768,9.78479,1.033,1.33,-3.71,-0.84,-22.1588,-47.91,12.0848,1014.67
327548,0.0765184,9.71784,1.07604,2.03,-3.5,-0.42,-21.9554,-48.3109,12.4246,1014.68
327554,0.0334768,9.76566,1.01387,1.89,-3.64,-0.42,-22.0716,-46.8306,12.4099,1014.68
327560,0.0669536,9.78001,0.970827,1.82,-3.57,-0.63,-21.258,-47.8175,11.5381,1014.68
327566,0.0813008,9.78001,0.97561,1.54,-3.5,0.07,-23.0886,-48.7735,13.3555,1014.68
327572,0.0813008,9.74653,1.00909,1.75,-3.43,0.42,-22.0135,-47.1082,12.8679,1014.68
327578,0.071736,9.78479,0.989957,1.61,-3.64,-0.07,-22.4203,-47.5399,11.9666,1014.68
327584,0.10043,9.7274,1.01387,1.47,-3.85,-0.49,-22.7399,-48.496,11.8631,1014.68
327590,0.205643,9.78479,1.05213,1.89,-2.87,0.21,-22.5365,-47.1698,12.7054,1014.67
327596,0.172166,9.8087,0.97561,2.17,-3.08,-0.49,-22.6237,-46.7998,13.1339,1014.67
327602,0.191296,9.92348,0.894309,1.47,-3.29,-0.98,-21.8973,-47.5091,12.336,1014.68
327608,0.224773,9.87087,0.93735,1.4,-2.94,-1.19,-22.3622,-47.9717,12.2473,1014.68
327614,0.181731,9.87566,0.942133,1.26,-2.59,-1.68,-21.3742,-45.5353,13.7693,1014.68
327620,0.10043,9.78957,1.04735,1.05,-2.94,-1.19,-21.8973,-47.4474,12.07,1014.7
327626,0.071736,9.78479,1.07604,1.12,-2.87,-1.26,-22.5656,-47.8792,12.6463,1014.7
327632,-0.191296,9.59828,1.28647,0.21,-6.3,-3.57,-22.275,-46.7381,12.336,1014.66
327638,0.750837,9.4835,0.439981,1.89,-1.68,-0.84,-22.1007,-46.5222,12.9861,1014.66
327644,-0.282162,9.82783,1.16691,0.7,-4.41,-0.91,-22.246,-47.7558,13.1782,1014.72
327650,0.210426,9.71784,0.961262,0.98,-2.66,-1.4,-22.0135,-47.4782,11.804,1014.72
327656,-0.0382592,9.75131,1.09995,1.47,-3.78,-0.7,-21.4905,-46.368,13.9318,1014.67
327662,0.0765184,9.7274,1.03778,1.68,-3.08,0.07,-21.8392,-47.8792,12.0996,1014.67
327668,0.0382592,9.74653,1.02822,1.82,-3.22,-0.35,-22.1297,-47.5399,12.2473,1014.67
327674,0.023912,9.72262,1.04256,2.03,-3.22,0.49,-21.8392,-47.2932,13.4442,1014.68
327680,0.095648,9.7561,1.00909,2.1,-3.15,-0.14,-21.5776,-47.9408,13.0452,1014.68
327686,0.0334768,9.74175,1.033,1.96,-3.01,-0.07,-22.1007,-48.0642,11.3312,1014.69
327692,0.10043,9.76566,1.033,1.89,-3.15,0.49,-22.1878,-47.0157,12.5872,1014.69
327698,0.129125,9.8374,0.999522,1.68,-3.5,0.28,-21.6358,-47.2624,13.3999,1014.68
327704,0.234338,9.80392,0.970827,2.03,-2.8,-0.28,-21.6067,-48.2184,12.203,1014.68
327710,0.205643,9.93304,0.918221,1.47,-2.45,-0.35,-22.7399,-47.0465,12.4985,1014.66
327716,0.181731,9.88522,0.932568,1.33,-2.73,-0.21,-21.781,-47.1082,13.8432,1014.66
327722,0.109995,9.80392,1.05691,1.33,-3.08,-0.98,-21.6648,-47.8175,10.9765,1014.67
327728,0.0813008,9.79436,1.0856,1.4,-3.15,-1.12,-21.4905,-47.8175,12.0257,1014.67
327734,0.172166,9.80392,1.01387,2.1,-3.29,-1.26,-21.6067,-46.1213,12.7349,1014.67
327740,0.148254,9.89,0.903874,1.26,-2.73,-1.05,-21.3452,-47.5399,11.2425,1014.69
327746,0.0430416,9.78001,1.01865,1.47,-3.01,-1.05,-23.1177,-47.9717,11.7745,1014.69
327752,-0.0191296,9.78479,1.06169,1.12,-3.29,-1.12,-22.9724,-46.6764,12.7497,1014.68
327758,-0.0047824,9.74653,1.06648,1.75,-3.29,-0.91,-21.9844,-47.2315,12.469,1014.68
327764,0.0860832,9.73218,1.06648,1.33,-3.22,-0.07,-21.7229,-47.8483,10.8583,1014.67
327770,0.0430416,9.74653,1.02822,1.75,-3.22,0.28,-22.275,-47.5708,11.7597,1014.67
327776,0.0573888,9.7274,1.04256,1.54,-3.08,-0.49,-21.8682,-47.2932,11.7745,1014.72
327782,0.0191296,9.73697,1.06169,2.24,-3.22,0.07,-21.6358,-48.3109,12.1734,1014.72
327788,0.0382592,9.74653,0.994739,1.82,-3.5,0.7,-21.752,-47.7558,12.5428,1014.72
327794,0.0908656,9.73218,1.04256,2.31,-3.92,0.49,-21.6939,-46.5839,13.0157,1014.72
327800,0.047824,9.7561,1.01865,2.45,-3.43,0.14,-21.8973,-48.0642,11.7006,1014.72
327806,0.071736,9.73697,1.033,2.17,-3.5,0.42,-22.2169,-48.7118,12.5281,1014.71
327812,0.10043,9.76566,1.01865,2.52,-3.01,0.35,-22.6237,-46.4914,12.7497,1014.71
327818,0.13869,9.84696,0.97561,1.75,-2.94,0.49,-21.8973,-47.2624,12.8827,1014.7
327824,0.167384,9.81349,0.985174,2.03,-3.43,0.28,-22.1878,-48.496,12.3951,1014.7
327830,0.162602,9.84696,1.0043,2.17,-3.36,0.35,-22.3622,-47.2315,12.2769,1014.69
327836,0.11956,9.85174,0.989957,1.82,-3.15,-0.49,-22.7109,-46.368,12.203,1014.69
327842,0.0860832,9.79914,1.01865,1.89,-3.01,-0.42,-22.0135,-47.5399,11.6119,1014.69
327848,0.105213,9.83261,0.980392,1.89,-3.08,-0.21,-21.8101,-47.9717,11.2573,1014.7
327854,0.153037,9.84218,0.985174,1.96,-3.43,-0.21,-22.1297,-46.2447,13.2669,1014.7
327860,0.129125,9.85653,0.994739,1.82,-2.94,-0.77,-23.3211,-47.7558,12.2178,1014.7
327866,0.0573888,9.82783,0.97561,1.54,-3.15,-0.28,-22.9433,-48.2801,11.7154,1014.7
327872,0.0191296,9.7561,0.999522,1.75,-3.01,-0.35,-22.6527,-46.9848,11.7154,1014.67
327878,0.0621712,9.76088,1.06169,1.47,-3.29,-0.35,-22.4493,-47.3857,12.4837,1014.67
327884,0.0669536,9.79914,1.02822,1.61,-3.36,0,-22.7399,-48.496,9.92742,1014.68
327890,0.0908656,9.8087,0.980392,1.61,-3.5,-0.49,-22.1878,-47.6941,12.4542,1014.68
327896,0.0669536,9.7561,1.04735,1.68,-3.43,0.07,-21.781,-46.9231,12.6906,1014.72
327902,0.105213,9.77044,1.04256,1.96,-3.22,0.28,-22.6527,-48.0642,12.3803,1014.72
327908,0.0669536,9.76566,1.04256,2.1,-3.15,-0.07,-22.246,-48.2801,11.5233,1014.72
327914,0.071736,9.76566,1.02343,1.96,-3.71,-0.14,-22.246,-46.3989,11.1982,1014.66
327920,0.109995,9.78479,0.999522,2.24,-3.43,0.63,-22.4493,-47.6633,12.3508,1014.66
327926,0.071736,9.75131,0.989957,2.1,-3.22,0.21,-22.0135,-48.7735,12.336,1014.69
327932,0.114778,9.78957,0.97561,2.1,-3.29,-0.49,-22.2169,-46.5839,12.8532,1014.69
327938,0.153037,9.83261,0.966045,1.61,-3.01,0,-22.0426,-47.2315,11.8484,1014.68
327944,0.129125,9.8374,0.93735,1.82,-3.22,0.42,-22.4493,-48.1876,12.203,1014.68
327950,0.129125,9.86131,0.994739,1.12,-3.29,-0.63,-22.1878,-47.2932,11.4051,1014.7
327956,0.0908656,9.84696,0.980392,1.68,-2.8,-0.28,-21.5776,-47.2624,12.3212,1014.7
327962,0.114778,9.79914,1.00909,1.61,-3.29,-1.12,-22.3912,-48.0642,12.5428,1014.7
327968,0.0334768,9.80392,1.02822,1.26,-3.43,-0.7,-21.8973,-48.0642,11.7892,1014.7
327974,0.023912,9.7561,1.04256,1.54,-3.29,-0.49,-22.4784,-47.2315,14.1387,1014.7
327980,0.0095648,9.74653,1.07126,1.75,-3.29,-0.56,-22.246,-48.1259,11.8484,1014.7
327986,0.071736,9.7274,1.05691,2.03,-3.64,-0.21,-22.7109,-48.4034,12.0404,1014.7
327992,0.0334768,9.70827,1.01387,1.82,-3.71,0.28,-21.6358,-46.7689,12.9861,1014.69
327998,0.0095648,9.72262,1.06169,2.17,-2.73,0.42,-22.1007,-46.5531,12.0996,1014.69
328004,0.0334768,9.7561,1.01865,1.82,-3.01,-0.28,-23.0595,-48.5268,12.3803,1014.7
328010,0.0430416,9.75131,1.01387,2.31,-3.43,0.35,-22.5656,-47.324,12.0109,1014.7
328016,0.071736,9.77523,1.02343,2.24,-3.36,0.42,-21.4614,-46.3063,12.2178,1014.7
328022,0.0860832,9.81827,0.961262,1.54,-3.57,0.42,-21.8682,-48.1876,11.6267,1014.66
328028,0.143472,9.79436,0.999522,1.68,-3.01,0.7,-21.9263,-48.2184,11.213,1014.66
328034,0.0765184,9.79436,1.00909,2.17,-3.36,0.49,-22.0135,-46.8615,13.9762,1014.68
328040,0.181731,9.79914,1.00909,1.75,-3.22,0.14,-21.6648,-47.2624,12.7202,1014.68
328046,0.162602,9.84696,1.00909,2.03,-3.43,-0.21,-22.1878,-48.1567,12.1734,1014.69
328052,0.205643,9.88044,0.918221,1.61,-3.01,-0.21,-22.7399,-47.4782,13.0748,1014.69
328058,0.11956,9.82783,1.02822,1.33,-3.01,-0.77,-22.4203,-47.6324,13.0009,1014.69
328064,0.0908656,9.78001,1.02822,1.68,-3.22,-0.63,-21.9554,-49.2669,11.8336,1014.69
328070,0.0621712,9.8087,1.033,2.03,-3.43,-0.63,-22.5075,-48.4343,11.6563,1014.68
328076,0.143472,9.8087,1.0043,1.33,-3.71,-0.56,-22.4203,-46.8615,13.6067,1014.68
328082,0.124342,9.82305,0.97561,1.89,-3.22,-0.91,-22.0716,-48.1876,11.8631,1014.68
328088,0.0813008,9.77523,1.04256,1.68,-3.15,-0.56,-21.9263,-48.3418,13.0157,1014.7
328094,0.023912,9.74175,1.08082,1.89,-3.36,-0.98,-21.8392,-47.324,13.9023,1014.7
328100,-0.0047824,9.7274,1.0856,1.89,-2.66,-0.28,-21.9554,-47.4166,11.0209,1014.7
328106,0.0669536,9.7561,1.06169,2.1,-3.22,-0.07,-21.8392,-49.0819,12.203,1014.7
328112,0.0334768,9.77044,1.01865,2.24,-3.5,0,-21.9844,-47.4166,11.2721,1014.68
328118,0.0382592,9.77044,1.033,2.45,-3.92,-0.28,-22.2169,-46.2447,11.4346,1014.68
328124,0.0382592,9.78001,1.02343,2.45,-3.29,-0.21,-22.7399,-48.3726,11.0948,1014.68
328130,0.0860832,9.78001,1.01387,2.31,-3.5,0.49,-21.8682,-47.6016,11.9813,1014.68
328136,0.095648,9.77523,0.994739,2.45,-3.5,0.35,-21.6939,-47.0157,13.0896,1014.68
328142,0.109995,9.79436,0.994739,2.24,-3.29,0.07,-22.246,-48.2184,11.9222,1014.68
328148,0.153037,9.84218,0.999522,2.38,-3.36,-0.28,-22.275,-48.1567,13.2078,1014.68
328154,0.162602,9.81349,0.985174,1.89,-3.36,-0.42,-22.246,-46.3989,12.07,1014.7
328160,0.229555,9.89957,0.942133,1.61,-2.73,-0.42,-22.246,-49.0202,11.9666,1014.7
328166,0.176949,9.88522,0.918221,1.54,-3.15,-0.77,-22.246,-48.6193,11.8188,1014.67
328172,0.0908656,9.84218,0.97561,1.33,-3.36,-1.19,-22.3041,-46.7381,11.5085,1014.67
328178,0.0813008,9.78957,1.05213,1.19,-3.43,-1.26,-22.4493,-47.139,12.1143,1014.65
328184,0.181731,9.84696,1.02343,1.4,-3.08,-1.47,-22.1878,-48.4343,11.5528,1014.65
328190,0.196078,9.88522,0.93735,1.12,-3.15,-1.61,-22.2169,-47.725,11.8336,1014.65
328196,0.0908656,9.95218,0.865614,0.49,-2.94,-1.47,-22.0716,-47.139,13.0748,1014.69
328202,0.0382592,9.78479,1.01865,0.35,-3.5,-1.75,-21.8101,-48.5885,11.7449,1014.69
328208,0.0047824,9.7561,1.10473,0.49,-3.64,-1.68,-22.7399,-47.8483,11.0209,1014.71
328214,-0.0143472,9.69392,1.11908,0.91,-3.5,-1.26,-21.2871,-46.368,11.8484,1014.71
328220,0.047824,9.68436,1.09517,1.33,-3.5,-0.98,-22.1878,-48.9586,9.95698,1014.67
328226,0.0286944,9.73218,1.06169,1.4,-3.15,-0.56,-21.5776,-48.5576,12.3803,1014.67
328232,0.0286944,9.71305,1.04735,1.47,-3.57,-0.49,-22.0426,-47.2932,12.1291,1014.68
328238,0.023912,9.75131,1.033,2.03,-3.36,-0.7,-22.1007,-46.8923,12.7497,1014.68
328244,0.023912,9.69871,1.06169,1.82,-3.08,-0.56,-22.246,-48.496,10.5333,1014.72
328250,0.0191296,9.7274,1.03778,2.24,-3.22,0.14,-22.0716,-47.324,11.6858,1014.72
328256,0.0621712,9.77523,1.03778,2.17,-3.5,-0.21,-22.0135,-46.3372,11.7301,1014.72
328262,0.0573888,9.78957,0.989957,2.24,-3.08,0.21,-21.8682,-48.496,10.6367,1014.7
328268,0.071736,9.78479,0.932568,1.68,-2.66,0,-21.9844,-47.91,11.2869,1014.7
328274,0.105213,9.79436,0.999522,1.68,-3.78,-0.21,-22.1588,-46.3372,12.0552,1014.68
328280,0.114778,9.79914,1.033,2.03,-3.64,-0.35,-21.9554,-47.4474,11.5381,1014.68
328286,0.11956,9.81827,1.03778,1.68,-3.43,-0.63,-21.9844,-48.1567,10.5628,1014.69
328292,0.176949,9.85174,0.966045,1.61,-3.36,-0.84,-22.275,-47.139,12.3508,1014.69
328298,0.186514,9.87566,0.951698,1.4,-3.08,-1.61,-21.8973,-46.5531,13.0748,1014.69
328304,0.162602,9.89,0.961262,1.12,-3.01,-1.26,-22.1588,-48.2492,12.5428,1014.69
328310,0.11956,9.93783,0.951698,1.12,-2.59,-1.89,-21.4905,-47.1698,13.0748,1014.69
328316,0.11956,9.90435,0.966045,0.35,-2.59,-2.1,-21.4033,-46.6456,13.0157,1014.66
328322,0.0143472,9.77523,1.09995,0.98,-3.57,-1.96,-21.6358,-47.5708,12.7349,1014.66
328328,0,9.79436,1.06169,0.91,-2.94,-2.03,-22.246,-48.3418,11.6563,1014.65
328334,0.0143472,9.7561,1.06169,1.19,-3.08,-1.33,-21.5195,-47.0773,12.9123,1014.65
328340,0.0382592,9.73218,1.06648,1.4,-3.08,-1.26,-21.6648,-47.7866,12.7202,1014.66
328346,-0.0047824,9.7561,1.06648,1.26,-3.36,-1.05,-21.781,-48.2184,11.5381,1014.66
328352,-0.0143472,9.72262,1.10473,1.61,-3.08,-0.28,-21.6067,-46.6764,12.9123,1014.69
328358,-0.0334768,9.71784,1.07604,1.68,-3.08,-0.84,-21.258,-46.8306,13.3555,1014.69
328364,-0.0191296,9.72262,1.06169,1.75,-3.22,0,-22.6527,-48.2184,11.8927,1014.69
328370,-0.023912,9.73218,1.05691,2.24,-3.5,-0.42,-22.246,-47.6016,12.2325,1014.69
328376,0.0382592,9.75131,1.06648,1.89,-3.36,0.14,-22.1297,-47.1082,12.1291,1014.69
328382,0.0382592,9.73697,1.04735,2.17,-3.43,0.63,-22.2169,-48.2492,12.5281,1014.7
328388,0.0669536,9.79914,1.00909,1.89,-3.71,0,-21.8682,-48.3418,13.0452,1014.7
328394,0.071736,9.77044,1.02343,2.45,-3.64,-0.21,-22.1007,-46.8923,13.5772,1014.66
328400,0.071736,9.81349,0.980392,2.17,-3.85,-0.28,-22.2169,-47.3857,11.8779,1014.66
328406,0.0860832,9.8374,0.970827,1.4,-3.22,-0.35,-22.3041,-48.1876,12.336,1014.71
328412,0.109995,9.86131,0.989957,1.75,-3.08,-0.21,-21.8682,-46.8615,13.2226,1014.71
328418,0.0765184,9.84696,0.994739,1.54,-3.71,-0.84,-21.8973,-47.4166,12.0552,1014.67
328424,0.0908656,9.84218,0.994739,1.47,-3.78,-0.7,-22.2169,-48.4034,12.2325,1014.67
328430,0.0526064,9.81349,1.0043,1.12,-3.43,-0.84,-22.2169,-47.5708,12.5133,1014.67
328436,0.071736,9.78001,1.04735,1.61,-3.36,-0.28,-22.798,-47.4474,13.2817,1014.66
328442,0.047824,9.78957,1.06648,1.68,-3.29,-0.35,-22.3912,-47.6016,12.794,1014.66
328448,-0.023912,9.74653,1.04735,1.54,-3.5,-0.63,-21.8973,-48.0025,12.6611,1014.69
328454,0.0430416,9.74175,1.07604,1.54,-3.5,-0.56,-21.4033,-46.4914,12.8975,1014.69
328460,0,9.76566,1.06648,1.75,-3.5,0,-21.7229,-47.0465,13.9909,1014.69
328466,0.0430416,9.74175,1.03778,1.96,-3.78,0.07,-22.0135,-47.7558,10.6367,1014.69
328472,0.023912,9.78479,1.06169,1.75,-3.85,0.14,-21.8682,-46.7073,11.4346,1014.69
328478,0.0526064,9.77523,1.01387,1.89,-3.36,0.14,-22.0426,-46.9848,13.5624,1014.69
328484,0.105213,9.82783,0.999522,1.54,-2.87,-0.56,-22.3331,-47.91,11.0504,1014.69
328490,0.114778,9.85174,0.97561,1.82,-3.71,-0.21,-22.1878,-47.9408,11.5528,1014.66
328496,0.071736,9.79914,1.04256,1.75,-3.36,-0.35,-21.8973,-46.6764,14.3012,1014.66
328502,0.10043,9.76088,1.04735,1.75,-3.5,-0.7,-21.8682,-47.9717,11.9222,1014.67
328508,0.172166,9.8374,1.0043,1.82,-2.66,-0.63,-21.9554,-47.725,12.6906,1014.67
328514,0.133907,9.90435,0.927786,1.54,-3.01,-1.19,-21.4905,-46.5531,11.937,1014.67
328520,0.10043,9.86609,0.961262,1.4,-3.36,-1.68,-21.3742,-46.8306,12.5428,1014.67
328526,0.0143472,9.88044,0.942133,1.33,-3.22,-1.82,-21.8101,-48.4034,11.0652,1014.66
328532,0.023912,9.79436,1.04735,1.26,-3.15,-1.26,-21.6939,-46.2755,12.6315,1014.66
328538,0.0095648,9.76088,1.03778,1.05,-2.73,-1.19,-21.8101,-46.6456,12.2769,1014.66
328544,-0.0286944,9.78957,1.07604,1.33,-3.08,-1.12,-21.6358,-47.8175,11.0652,1014.68
328550,-0.0143472,9.73218,1.05213,1.75,-3.29,-0.56,-21.5486,-46.8615,11.0209,1014.68
328556,-0.0095648,9.69392,1.06648,1.68,-3.5,-0.84,-21.0256,-47.0157,12.4394,1014.68
328562,-0.0669536,9.71305,1.09995,1.61,-3.43,17.36,-21.0546,-47.6016,12.8088,1014.68
328568,-0.0621712,9.68914,1.09995,2.03,-3.71,-0.28,-21.6067,-47.9408,12.1291,1014.69
328574,-0.0382592,9.71305,1.08082,1.75,-3.57,0,-21.5776,-46.9231,13.0452,1014.69
328580,0.0334768,9.73697,1.08082,2.38,-3.43,0.49,-21.5776,-47.1082,11.9813,1014.68
328586,0.047824,9.79436,1.00909,2.03,-3.43,0.35,-22.6237,-47.5399,12.469,1014.68
328592,0.0382592,9.78957,1.04735,2.45,-3.22,0.14,-21.0256,-47.1082,12.3951,1014.68
328598,0.0526064,9.77523,1.08082,2.38,-3.08,0.49,-21.3452,-46.9848,13.193,1014.68
328604,0.109995,9.81827,1.0043,2.1,-3.15,0.7,-21.8392,-48.5268,10.4446,1014.68
328610,0.11956,9.86131,0.989957,2.31,-3.22,-0.21,-20.9965,-48.2184,11.9666,1014.65
328616,0.10043,9.85653,1.0043,1.68,-3.22,-0.35,-21.9263,-47.2007,13.3408,1014.65
328622,0.0526064,9.85653,1.04735,2.31,-3.01,-0.28,-21.4033,-47.4166,12.3655,1014.67
328628,0.0908656,9.82305,1.04256,2.24,-2.94,-0.7,-21.8973,-49.2053,9.86832,1014.67
328634,0.105213,9.85174,1.01865,1.82,-3.08,-0.84,-21.5486,-46.2755,13.1782,1014.71
328640,0.0334768,9.82305,1.01387,1.47,-2.94,-0.84,-21.4614,-47.2624,11.8779,1014.71
328646,-0.0047824,9.78479,1.04735,1.89,-3.08,-0.98,-20.7641,-48.681,12.0552,1014.7
328652,-0.0191296,9.7274,1.08082,2.17,-3.01,-0.35,-20.7059,-47.324,12.1439,1014.7
328658,0.0095648,9.79914,1.02822,2.03,-2.94,-0.42,-20.9093,-47.5091,11.1391,1014.7
328664,-0.0573888,9.7274,1.06648,1.82,-3.43,-0.42,-21.6358,-48.0025,11.9518,1014.71
328670,-0.0143472,9.74175,1.08082,2.17,-3.5,-0.28,-21.1999,-47.6633,11.346,1014.71
328676,-0.0191296,9.7274,1.04256,2.03,-3.5,0.35,-21.8392,-47.6016,11.8779,1014.64
328682,-0.0430416,9.74653,1.1143,2.24,-3.01,0.84,-21.3452,-48.3726,10.8436,1014.64
328688,0.0143472,9.74175,1.05213,2.59,-3.43,0.7,-21.3161,-47.91,11.5085,1014.7
328694,0.0526064,9.75131,1.05691,2.24,-3.5,0.7,-21.4033,-46.7689,11.7154,1014.7
328700,0.0860832,9.79914,1.02343,2.59,-3.64,0.7,-21.1709,-47.3857,10.5924,1014.67
328706,0.095648,9.78001,0.999522,2.17,-3.57,0.21,-22.1297,-48.4343,10.5037,1014.67
328712,0.105213,9.84218,1.0043,2.38,-3.29,0.49,-21.1127,-47.3549,11.8484,1014.67
328718,0.0908656,9.84696,0.966045,2.38,-3.43,0.21,-21.1709,-46.8615,11.937,1014.65
328724,0.105213,9.86609,0.994739,1.89,-2.73,-0.35,-21.5486,-48.0642,11.8336,1014.65
328730,0.0573888,9.85174,0.970827,1.89,-2.73,-0.42,-21.1999,-47.5399,11.9075,1014.67
328736,0.0430416,9.81827,0.994739,2.31,-2.94,-0.42,-21.4324,-46.7689,11.1539,1014.67
328742,0.0334768,9.80392,1.03778,1.82,-3.5,-0.7,-21.258,-47.5708,10.9174,1014.67
328748,0.0143472,9.78479,1.05691,1.89,-3.36,-0.49,-21.4033,-47.7866,10.2968,1014.67
328754,0.071736,9.7561,1.04735,1.68,-2.94,0.07,-21.2871,-46.9848,13.1635,1014.68
328760,-0.0047824,9.77044,1.04256,1.89,-3.29,-0.21,-21.2871,-47.5708,10.814,1014.68
328766,-0.0191296,9.75131,1.05691,1.96,-2.87,-0.28,-22.3912,-49.0819,10.6367,1014.67
328772,-0.0669536,9.74653,1.04256,2.24,-3.15,0.21,-21.1418,-46.8923,12.794,1014.67
328778,-0.0334768,9.73697,1.08082,2.24,-3.5,0.49,-21.9263,-46.8923,11.9075,1014.67
328784,-0.0095648,9.72262,1.05691,2.1,-3.43,0.91,-21.781,-48.4034,12.1587,1014.69
328790,0.023912,9.78957,1.00909,2.59,-3.5,0.63,-21.4614,-47.6324,11.8484,1014.69
328796,0.0143472,9.76088,0.985174,2.24,-3.85,0.63,-21.7229,-47.2315,12.4099,1014.7
328802,0.0430416,9.77044,1.02822,2.24,-3.92,0.98,-21.0837,-48.0334,12.7202,1014.7
328808,0.0908656,9.78957,1.02822,2.66,-3.43,1.19,-21.5195,-47.1082,11.0948,1014.69
328814,0.13869,9.78001,0.980392,2.59,-3.43,0.42,-21.3161,-46.6764,11.7006,1014.69
328820,0.148254,9.83261,0.994739,2.1,-3.57,-0.14,-21.6358,-47.0773,11.1539,1014.68
328826,0.124342,9.90435,0.927786,2.03,-3.36,0.07,-21.8682,-47.7558,11.6563,1014.68
328832,0.11956,9.87566,0.95648,1.54,-3.36,0,-21.0837,-46.8615,10.1934,1014.68
328838,0.109995,9.79914,1.0043,1.68,-3.57,0,-21.4905,-46.954,13.0009,1014.71
328844,0.0908656,9.78001,1.04735,1.47,-3.08,-0.63,-21.781,-48.3418,11.7006,1014.71
328850,0.0621712,9.76566,1.05213,2.1,-3.36,-0.56,-22.5075,-47.8175,12.0109,1014.71
328856,0.0621712,9.7274,1.0856,1.54,-3.43,-0.35,-21.4324,-47.0773,14.0648,1014.71
328862,0.0047824,9.74653,1.05691,2.17,-3.22,-0.35,-21.5776,-48.0334,11.6119,1014.69
328868,0.0143472,9.77044,1.03778,2.03,-3.22,-0.35,-21.258,-47.139,11.7154,1014.69
328874,-0.0047824,9.78479,1.05213,2.45,-3.5,-0.35,-21.4033,-46.9231,12.7202,1014.65
328880,-0.0286944,9.78957,1.06169,2.03,-3.22,0.35,-22.4203,-47.1698,11.3607,1014.65
328886,-0.0191296,9.74175,1.03778,2.59,-2.94,0.21,-22.4493,-48.4343,11.5972,1014.65
328892,0.023912,9.75131,1.02343,2.1,-3.15,0.7,-22.1588,-47.0157,12.2621,1014.66
328898,0.0430416,9.78479,1.01865,2.66,-3.43,0.35,-21.5776,-46.8615,13.9023,1014.66
328904,0.023912,9.78479,0.97561,2.24,-2.87,0.35,-22.0135,-48.2492,12.1882,1014.66
328910,0.0908656,9.8087,1.00909,1.89,-3.43,0,-21.3742,-48.0642,11.1391,1014.66
328916,0.0908656,9.81349,1.01865,2.31,-3.5,0,-21.8682,-47.2315,13.9023,1014.68
328922,0.11956,9.8374,1.01387,2.1,-3.5,0,-21.229,-48.1259,11.9222,1014.68
328928,0.105213,9.85653,0.961262,2.31,-3.43,-0.35,-22.0716,-48.4034,11.6267,1014.69
328934,0.153037,9.89957,0.932568,1.4,-2.94,-0.84,-21.2871,-47.3857,12.5133,1014.69
328940,0.0621712,9.88522,0.970827,1.54,-3.15,-0.91,-21.7229,-47.8175,12.5281,1014.67
328946,0.0143472,9.78957,0.994739,1.54,-3.15,-1.26,-22.5656,-48.2492,11.3607,1014.67
328952,-0.0286944,9.77044,1.06169,1.68,-3.15,-0.42,-21.6648,-47.3549,11.4789,1014.67
328958,0.023912,9.7274,1.09039,1.54,-3.08,-0.7,-21.6648,-46.4605,13.2373,1014.69
328964,0.0191296,9.7274,1.05691,1.89,-3.01,-0.49,-21.3161,-48.3726,12.2473,1014.69
328970,0,9.73218,1.0856,2.31,-3.29,-0.28,-21.258,-47.91,12.1143,1014.67
328976,-0.0143472,9.73697,1.06648,2.24,-3.57,0.14,-22.0426,-47.0157,11.6563,1014.67
328982,-0.047824,9.7274,1.03778,2.45,-2.87,0.35,-21.3452,-47.8175,11.9813,1014.68
328988,-0.0191296,9.69871,1.09517,2.45,-3.22,0.63,-21.6358,-48.3109,11.1982,1014.68
328994,-0.0095648,9.75131,1.05213,1.96,-3.92,0.42,-21.781,-47.2932,11.9666,1014.65
329000,0.0334768,9.76566,1.05691,2.73,-3.71,1.26,-21.4905,-48.2492,12.8975,1014.65
329006,-0.0047824,9.76088,1.01865,2.87,-3.22,1.19,-22.4784,-48.8352,12.0848,1014.65
329012,0.0573888,9.79914,1.00909,2.59,-3.29,0.91,-21.4033,-46.8615,11.8631,1014.64
329018,0.0860832,9.79436,0.989957,2.52,-3.64,1.4,-22.2169,-46.3372,10.9765,1014.64
329024,0.0908656,9.83261,0.994739,2.31,-3.71,0.63,-21.3742,-48.2801,11.1095,1014.69
329030,0.143472,9.84218,0.942133,2.38,-3.36,0.21,-21.8973,-47.725,11.9518,1014.69
329036,0.095648,9.90913,0.918221,2.03,-3.57,0.28,-22.1007,-47.0157,11.804,1014.68
329042,0.0860832,9.86609,0.966045,1.75,-3.08,0.42,-21.8101,-48.1567,11.7449,1014.68
329048,0.095648,9.79436,1.04735,2.03,-3.71,0.07,-21.4614,-47.8483,11.8927,1014.69
329054,0.10043,9.79436,1.05691,2.24,-3.22,-0.56,-21.8682,-46.8306,12.9123,1014.69
329060,0.0765184,9.78001,1.04256,1.96,-2.66,0.21,-21.5195,-47.324,12.8236,1014.69
329066,0.0047824,9.78001,1.05691,1.96,-3.22,0.28,-21.8973,-47.5399,12.2325,1014.69
329072,0.0430416,9.7561,1.033,2.45,-3.71,-0.21,-21.7229,-46.7073,11.8484,1014.69
329078,0.023912,9.76566,1.02343,2.66,-3.29,-0.21,-21.9554,-46.7998,12.1143,1014.65
329084,0.0669536,9.78001,1.033,2.38,-3.29,0.49,-21.8101,-48.7118,11.804,1014.65
329090,0.023912,9.74653,1.01865,2.17,-3.36,0.28,-21.6358,-47.4782,11.1243,1014.69
329096,0.0143472,9.77044,1.02822,2.66,-3.22,-0.07,-21.9263,-46.8615,12.1291,1014.69
329102,0.0143472,9.80392,1.02822,2.17,-3.36,0.7,-21.9554,-47.3857,13.0748,1014.7
329108,0.0286944,9.76088,0.994739,2.31,-3.85,0.77,-21.3452,-47.6941,12.1882,1014.7
329114,0.0573888,9.77523,1.0043,2.45,-3.15,0.63,-21.6358,-46.6764,12.927,1014.67
329120,0.0860832,9.77044,1.033,2.73,-3.36,0.63,-21.781,-47.91,11.9222,1014.67
329126,0.0669536,9.79436,0.989957,2.59,-3.01,0.98,-22.1878,-47.7866,10.1343,1014.67
329132,0.0908656,9.8374,0.97561,1.89,-2.8,0.49,-21.781,-47.1082,13.6659,1014.66
329138,0.176949,9.84696,0.966045,2.38,-3.22,-0.07,-21.6067,-47.6324,12.6167,1014.66
329144,0.157819,9.8374,1.00909,2.03,-3.08,0.07,-22.4203,-48.0642,12.0552,1014.66
329150,0.0860832,9.8087,0.985174,1.82,-3.78,-0.07,-21.9844,-47.6633,11.2277,1014.66
329156,0.0621712,9.84696,1.0043,1.82,-3.57,-0.56,-21.3742,-47.0773,12.927,1014.68
329162,0.0765184,9.8374,1.033,1.61,-3.22,-0.28,-21.229,-47.5399,12.4246,1014.68
329168,0.0526064,9.83261,1.033,1.68,-3.15,-0.42,-21.7229,-47.91,12.1291,1014.68
329174,0.0334768,9.79436,1.01387,1.68,-2.8,-0.35,-21.6358,-46.6456,12.336,1014.68
329180,0.0143472,9.79436,1.0043,2.1,-3.71,0.07,-22.1007,-47.1082,12.7349,1014.68
329186,0.023912,9.76088,1.06648,2.1,-3.64,-0.14,-22.0716,-48.2184,10.548,1014.68
329192,0,9.73218,1.09039,2.03,-3.08,0.28,-22.0716,-47.0157,12.1882,1014.68
329198,0.0143472,9.7274,1.03778,2.38,-3.22,0.63,-21.8973,-46.5531,11.8779,1014.69
329204,0.0191296,9.74653,1.02822,2.52,-3.78,0.21,-21.4614,-48.3418,11.1095,1014.69
329210,0.0286944,9.73697,1.01865,2.31,-3.36,1.12,-21.9844,-47.0465,11.7006,1014.67
329216,0.0334768,9.74653,1.01865,2.94,-3.36,0.98,-21.4324,-46.8923,13.326,1014.67
329222,0.0526064,9.76088,1.04256,2.17,-3.15,0.56,-21.6939,-47.5091,11.4937,1014.71
329228,0.105213,9.79436,0.966045,2.73,-3.71,0.49,-21.2871,-47.4166,10.6958,1014.71
329234,0.105213,9.8374,0.961262,2.03,-3.36,0.56,-21.4614,-46.5222,12.927,1014.71
329240,0.095648,9.79436,0.980392,2.38,-3.15,0.63,-21.7229,-46.9231,11.671,1014.66
329246,0.148254,9.85174,0.980392,1.75,-3.15,0.56,-21.6648,-47.8175,10.7549,1014.66
329252,0.162602,9.85174,0.95648,2.1,-3.15,0.28,-21.8392,-46.3063,12.1143,1014.71
329258,0.13869,9.88522,0.946915,1.68,-3.29,-0.49,-22.798,-46.6147,12.7202,1014.71
329264,0.071736,9.82305,1.01387,2.1,-3.64,-1.05,-22.2169,-47.8792,10.0604,1014.69
329270,0.0573888,9.78479,1.06169,2.03,-3.36,-0.28,-22.0135,-47.91,13.06,1014.69
329276,0.0860832,9.77044,1.04735,1.82,-2.8,-0.07,-21.3452,-46.7689,12.0257,1014.7
329282,0.047824,9.78001,1.033,1.96,-3.22,-0.56,-22.3622,-47.8792,12.0552,1014.7
329288,-0.0191296,9.78957,0.989957,2.24,-3.36,-0.91,-22.3041,-47.5091,12.602,1014.66
329294,0.0382592,9.75131,1.02822,2.17,-3.64,0.14,-22.0426,-46.9848,12.5872,1014.66
329300,0.0382592,9.73218,1.04256,2.1,-3.57,0.28,-21.9844,-47.0773,13.0896,1014.66
329306,0,9.73697,1.03778,2.66,-3.29,-0.42,-22.0135,-49.2053,11.1095,1014.67
329312,0.0526064,9.74175,0.966045,2.38,-2.8,0.21,-22.0716,-46.6764,11.5676,1014.67
329318,0.0382592,9.77044,1.00909,2.24,-3.29,0.35,-21.9844,-46.7381,12.1143,1014.68
329324,0.047824,9.80392,0.989957,2.24,-3.08,0.35,-21.4614,-47.139,12.2916,1014.68
329330,0.0669536,8.57006,0.97561,2.66,-3.36,0.7,-22.1588,-47.5708,11.7449,1014.66
329336,0.0669536,9.79914,0.95648,2.24,-3.15,0.28,-22.0135,-45.6895,13.1191,1014.66
329342,0.0908656,9.81827,0.95648,2.1,-3.5,0,-22.1297,-47.6633,12.9566,1014.67
329348,0.143472,9.86609,0.946915,1.96,-3.36,-0.35,-22.5656,-47.4166,12.8236,1014.67
329354,0.143472,9.87087,0.97561,1.47,-3.08,-0.14,-21.6358,-46.7381,12.3803,1014.67
329360,0.114778,9.81827,0.985174,1.61,-3.08,-0.35,-22.0426,-46.9231,12.9861,1014.68
329366,0.167384,9.83261,1.00909,1.96,-3.43,-0.77,-21.8973,-47.7866,12.7645,1014.68
329372,0.13869,9.8374,1.033,1.4,-3.43,-0.91,-21.4033,-47.2624,12.4542,1014.68
329378,0.114778,9.85653,0.93735,1.68,-3.01,-1.05,-21.0256,-45.8129,13.2521,1014.68
329384,0.0286944,9.89957,0.961262,1.19,-2.94,-1.26,-21.5486,-48.0642,12.5576,1014.71
329390,0.0286944,9.8374,0.980392,1.4,-3.5,-0.98,-21.6939,-47.91,12.4985,1014.71
329396,0.0191296,9.78001,1.05691,1.12,-3.08,-1.05,-21.781,-45.8129,13.3112,1014.7
329402,-0.0047824,9.71784,1.10952,1.47,-3.36,-0.91,-21.1418,-47.3549,12.2473,1014.7
329408,-0.0191296,9.73697,1.07126,2.1,-3.99,-0.56,-22.0716,-48.0642,11.5528,1014.7
329414,0.0382592,9.73697,1.01387,2.17,-3.43,0.07,-21.4033,-46.0288,12.6758,1014.71
329420,0.0047824,9.7561,0.999522,1.54,-2.87,-0.21,-21.0837,-45.7512,11.7449,1014.71
329426,0.0286944,9.73218,1.01387,2.73,-3.71,-0.28,-20.9965,-47.0773,12.4837,1014.68
329432,-0.0095648,9.76088,1.01865,1.82,-3.92,0.42,-21.7229,-46.1521,11.6415,1014.68
329438,0.0573888,9.76088,0.980392,2.1,-3.5,0.63,-21.7229,-46.7073,13.7397,1014.71
329444,0.047824,9.74175,1.00909,1.96,-3.57,0.28,-20.9675,-47.8792,12.1587,1014.71
329450,0.095648,9.77523,1.01387,1.96,-3.5,0.28,-20.6769,-47.0157,12.4246,1014.67
329456,0.095648,9.76088,1.00909,2.45,-3.57,0.42,-21.8682,-46.1521,13.2521,1014.67
329462,0.11956,9.83261,0.95648,2.24,-3.15,-0.28,-21.8973,-47.4166,12.5281,1014.7
329468,0.167384,9.88522,0.95648,2.1,-3.29,-0.14,-22.4203,-47.4166,12.1439,1014.7
329474,0.129125,9.9187,0.927786,1.54,-3.29,-0.35,-22.1297,-45.7204,13.3408,1014.7
329480,0.109995,9.86131,0.951698,1.61,-3.08,-0.98,-21.8682,-46.4914,11.7154,1014.63
329486,0.109995,9.86131,0.97561,1.26,-3.01,-1.19,-20.8512,-48.0334,11.213,1014.63
329492,0.10043,9.84696,1.01865,1.4,-3.08,-0.98,-21.0837,-45.8746,12.8384,1014.69
329498,0.0908656,9.8374,0.999522,1.82,-3.78,-1.05,-21.6067,-46.4914,14.715,1014.69
329504,0.0382592,9.84218,0.985174,1.26,-3.36,-1.4,-22.1007,-47.3857,11.1686,1014.66
329510,0.0334768,9.78957,1.033,1.19,-3.5,-0.7,-21.8973,-46.6764,13.4294,1014.66
329516,0.0143472,9.70349,1.10952,1.61,-3.71,-0.56,-21.6648,-46.1213,12.7349,1014.67
329522,0.023912,9.7274,1.09039,1.96,-3.15,-0.42,-21.8101,-46.9231,11.937,1014.67
329528,-0.0095648,9.73218,1.02822,2.1,-3.08,-0.49,-21.781,-47.3857,10.3116,1014.67
329534,-0.023912,9.74653,1.033,2.17,-3.29,-0.63,-21.4324,-45.6895,12.336,1014.74
329540,-0.0191296,9.74175,1.01865,1.82,-3.5,0.14,-21.4033,-47.6941,12.8532,1014.74
329546,0,9.7274,1.04735,2.24,-3.99,0.35,-21.229,-47.5091,13.0009,1014.7
329552,0.0382592,9.77044,1.0043,2.24,-3.57,0.21,-21.4614,-46.6456,12.3803,1014.7
329558,0.071736,9.76566,0.999522,2.52,-3.08,0,-21.5195,-45.8437,12.9418,1014.72
329564,0.0813008,9.8087,0.994739,2.45,-3.36,0.35,-22.1007,-48.0334,11.7745,1014.72
329570,0.0908656,9.81349,0.97561,2.17,-3.64,0,-22.0135,-46.6764,11.6267,1014.67
329576,0.11956,9.8374,0.923003,2.24,-3.15,-0.35,-21.752,-45.5045,12.4542,1014.67
329582,0.105213,9.83261,0.942133,1.96,-3.08,-0.35,-22.246,-47.0157,11.7301,1014.67
329588,0.0813008,9.84218,0.97561,1.89,-3.29,-0.63,-22.0716,-47.8175,12.3064,1014.69
329594,0.0430416,9.84696,0.989957,1.54,-3.22,-0.14,-21.6358,-45.6895,12.9123,1014.69
329600,0.124342,9.8374,1.00909,1.75,-3.15,-0.63,-21.5776,-47.1082,12.0552,1014.68
329606,0.114778,9.82783,0.989957,1.54,-3.08,-0.84,-22.3912,-48.6502,12.3655,1014.68
329612,0.0286944,9.84218,0.994739,1.4,-3.15,-0.84,-21.1418,-46.5222,12.9714,1014.7
329618,-0.0191296,9.80392,1.00909,1.26,-3.78,-0.91,-21.1127,-46.5222,12.2916,1014.7
329624,-0.0334768,9.73218,1.07604,2.03,-3.29,-0.35,-21.9554,-47.6941,11.8188,1014.69
329630,-0.0286944,9.73697,1.07126,1.82,-2.8,-0.28,-22.1878,-47.1698,12.4985,1014.69
329636,-0.0286944,9.75131,1.04256,1.96,-3.64,-0.56,-22.6527,-46.0596,13.3555,1014.69
329642,0.0286944,9.7561,1.07126,1.89,-3.43,-0.28,-22.3331,-46.5839,12.9123,1014.69
329648,-0.0286944,9.75131,1.01387,2.24,-3.43,0.28,-22.3331,-46.4914,11.5085,1014.69
329654,0.0191296,9.76088,1.02822,1.96,-3.71,0.42,-22.1588,-45.8437,13.0896,1014.68
329660,0.0334768,9.75131,1.00909,2.31,-3.15,0.77,-22.3912,-46.1521,12.3064,1014.68
329666,0.0765184,9.77044,1.033,2.52,-3.78,0.07,-22.5656,-48.0642,12.1882,1014.67
329672,0.0621712,9.7561,1.02343,2.31,-3.43,-0.21,-21.9844,-46.5531,12.927,1014.67
329678,0.13869,9.81827,0.994739,2.59,-3.5,0.49,-21.9844,-46.3372,11.8484,1014.67
329684,0.109995,9.82783,0.970827,1.82,-3.5,0.21,-22.0426,-47.5399,11.7154,1014.67
329690,0.13869,9.84696,0.951698,2.17,-3.36,-0.91,-22.4784,-47.5091,12.0996,1014.68
329696,0.162602,9.81827,0.989957,1.89,-3.36,-0.91,-21.8682,-47.0465,12.8827,1014.68
329702,0.129125,9.86609,0.946915,1.82,-3.5,-1.12,-22.5656,-47.7558,11.1982,1014.68
329708,0.071736,9.86609,0.93735,1.61,-3.64,-1.05,-22.3622,-47.324,11.5528,1014.67
329714,0.0860832,9.83261,0.97561,1.19,-3.22,-1.82,-22.3331,-45.9363,11.213,1014.67
329720,-0.047824,9.79914,0.985174,1.33,-3.22,-1.33,-22.1007,-46.8306,12.6463,1014.69
329726,0.0191296,9.75131,1.033,0.91,-3.15,-1.26,-22.1007,-48.5576,12.0257,1014.69
329732,0,9.74653,1.07126,1.33,-3.64,-0.91,-21.9844,-46.3063,11.3607,1014.69
329738,0.0143472,9.7561,1.02822,1.75,-3.43,-1.19,-21.6939,-47.1082,12.2621,1014.69
329744,-0.0382592,9.77044,1.033,1.47,-3.71,-0.35,-20.7059,-47.91,12.1734,1014.66
329750,-0.0143472,9.71784,1.02343,1.96,-3.15,0,-21.4614,-47.324,12.0257,1014.66
329756,0,9.70349,1.05691,1.75,-3.64,-0.56,-21.3161,-46.4297,12.1143,1014.66
329762,0.0191296,9.69392,1.02343,2.17,-3.92,0.42,-21.5776,-47.324,10.8583,1014.67
329768,0.047824,9.77044,1.04735,1.75,-3.5,0.49,-21.1709,-48.8044,11.2425,1014.67
329774,0.0669536,9.7561,0.989957,2.31,-3.08,-0.14,-21.4033,-46.4297,12.4246,1014.7
329780,0.0621712,9.78957,1.01387,1.82,-3.08,0.28,-21.1127,-46.8615,11.6415,1014.7
329786,0.10043,9.78479,1.0043,2.66,-3.71,0,-21.752,-47.6633,11.4346,1014.72
329792,0.167384,9.84696,0.97561,2.38,-2.94,-0.21,-21.3161,-46.6764,11.346,1014.72
329798,0.129125,9.88522,0.961262,1.82,-3.01,-0.56,-21.6067,-46.4914,12.3212,1014.7
329804,0.0908656,9.82305,0.966045,1.96,-2.87,-0.63,-22.1878,-48.5576,12.3508,1014.7
329810,0.0669536,9.82305,1.02343,1.54,-3.22,-0.91,-22.2169,-47.3549,13.193,1014.67
329816,0.0286944,9.81349,1.04256,1.82,-3.29,-1.12,-21.9554,-46.3372,12.0552,1014.67
329822,0.0526064,9.80392,1.033,2.03,-3.15,-0.77,-22.2169,-47.7866,11.6267,1014.67
329828,0.0191296,9.78001,1.03778,1.61,-3.29,-0.77,-22.0716,-48.0025,12.3655,1014.67
329834,0.023912,9.76566,1.07126,2.1,-3.01,-0.91,-21.229,-47.1082,12.4246,1014.67
329840,-0.0526064,9.77044,1.01865,2.1,-3.57,-0.49,-21.6067,-46.954,11.5085,1014.67
329846,0.0191296,9.78001,1.00909,2.03,-3.5,-0.7,-22.1297,-48.0642,12.2769,1014.67
329852,-0.0191296,9.78001,1.0043,1.75,-3.36,-0.49,-20.5897,-46.3063,12.6906,1014.67
329858,-0.0430416,9.73697,1.07126,2.1,-3.64,0.14,-21.5195,-46.6456,13.4147,1014.67
329864,-0.0621712,9.75131,1.05213,2.38,-3.71,0.07,-21.5776,-48.095,11.8631,1014.67
329870,-0.0095648,9.73218,1.0043,2.31,-3.29,0.84,-21.0256,-47.6016,11.937,1014.67
329876,0.0334768,9.77044,0.985174,2.17,-3.5,0.56,-20.9384,-46.5222,13.1191,1014.67
329882,0.0573888,9.78001,1.0043,2.38,-3.78,0.77,-21.9844,-47.3857,12.0109,1014.7
329888,0.124342,9.82783,0.951698,2.31,-3.36,0.07,-22.3622,-47.6324,11.9075,1014.7
329894,0.124342,9.87566,0.908656,1.89,-3.22,0.35,-21.5776,-46.8615,13.1782,1014.69
329900,0.105213,9.89,0.932568,1.54,-3.57,0.14,-21.6358,-46.7073,12.0552,1014.69
329906,0.0813008,9.85653,0.951698,1.82,-3.92,-0.42,-22.0426,-48.3726,12.3508,1014.67
329912,0.157819,9.84696,0.961262,0.98,-3.29,-0.7,-21.9554,-47.0465,12.07,1014.67
329918,0.21999,9.87087,0.970827,1.4,-3.15,-0.98,-22.1588,-46.3372,12.1882,1014.67
329924,0.0573888,9.83261,0.980392,0.91,-2.59,-1.12,-21.229,-47.8483,11.7301,1014.67
329930,0.0095648,9.8374,0.999522,1.26,-3.43,-1.12,-22.275,-47.3857,11.3755,1014.67
329936,-0.0621712,9.78001,1.08082,0.91,-3.08,-0.77,-22.3041,-46.3063,12.2621,1014.67
329942,0.0286944,9.7561,1.03778,1.26,-3.08,-0.91,-21.4905,-47.5091,11.8779,1014.67
329948,0.0526064,9.78001,1.02822,1.19,-3.43,-1.05,-21.229,-48.3726,11.7006,1014.72
329954,-0.0095648,9.74653,1.02343,1.47,-3.85,-0.63,-21.8973,-46.3989,11.6858,1014.72
329960,0.0095648,9.79914,0.989957,1.47,-3.22,-0.56,-22.0135,-47.2624,10.6219,1014.67
329966,-0.0526064,9.7274,1.05691,1.47,-3.01,-0.21,-21.6358,-48.095,11.6415,1014.67
329972,-0.047824,9.68914,1.09995,1.47,-3.43,0,-21.6358,-47.2007,12.4542,1014.67
329978,0.0047824,9.71305,1.04256,2.1,-3.64,0.49,-21.258,-45.7821,12.9566,1014.67
329984,0.023912,9.73697,1.033,2.1,-3.78,0.28,-22.1007,-47.8483,12.2916,1014.67
329990,0.047824,9.78479,0.994739,1.68,-3.36,0.21,-21.7229,-46.6764,12.7349,1014.67
329996,0.0430416,9.79436,0.961262,2.1,-3.64,0.42,-21.4614,-46.3372,13.2226,1014.67
330002,0.095648,9.81349,1.02822,1.54,-3.29,0.07,-21.4614,-47.6016,12.2916,1014.68
330008,0.0908656,9.81349,0.999522,2.31,-3.57,-0.28,-21.4324,-48.7118,11.3903,1014.68
330014,0.0765184,9.80392,0.989957,1.82,-3.15,-0.07,-21.7229,-46.6456,14.2421,1014.67
330020,0.0526064,9.83261,1.01865,1.96,-2.59,-0.21,-21.1127,-47.0465,12.4394,1014.67
330026,0.0526064,9.83261,0.980392,1.82,-3.01,-0.63,-22.1007,-47.9408,11.7892,1014.7
330032,0.047824,9.81827,0.946915,1.89,-3.22,-0.56,-21.752,-46.7998,13.1487,1014.7
330038,0.0430416,9.83261,0.966045,1.26,-2.94,-0.49,-21.8682,-46.3372,11.671,1014.68
330044,0.0286944,9.79436,1.01387,1.54,-3.5,-0.49,-21.9263,-47.7866,12.794,1014.68
330050,-0.0143472,9.81349,0.999522,1.54,-3.64,-0.49,-21.752,-47.2932,12.7054,1014.68
330056,0.0047824,9.80392,1.0043,1.68,-3.01,0.07,-20.9384,-46.5531,12.2473,1014.68
330062,0,9.79436,1.00909,1.61,-3.85,-0.21,-21.9554,-48.1259,11.7597,1014.68
330068,-0.0286944,9.77044,1.01865,1.4,-3.64,-17.92,-21.4614,-48.8969,12.3951,1014.68
330074,0.0191296,9.71305,1.06169,1.19,-3.78,0.14,-22.3912,-46.954,12.4985,1014.68
330080,0.0286944,9.71784,1.00909,1.54,-3.57,0.91,-21.6067,-47.4474,12.3064,1014.7
330086,0.0191296,9.77044,1.0043,1.19,-2.94,0.49,-21.1418,-47.725,11.4346,1014.7
330092,0.0669536,9.78479,1.04256,1.75,-3.5,-0.35,-21.4614,-46.9848,11.1982,1014.67
330098,0.124342,9.8087,0.985174,1.61,-3.64,-0.14,-21.4614,-46.368,13.0009,1014.67
330104,0.181731,9.84218,1.01387,1.75,-3.29,0.35,-22.3912,-47.7866,12.8384,1014.67
330110,0.13869,9.85174,0.961262,1.75,-2.31,-0.56,-21.4905,-47.6016,13.9909,1014.66
330116,0.114778,9.78479,1.05213,1.68,-3.29,-1.19,-21.9844,-46.5839,13.5624,1014.66
330122,0.114778,9.83261,1.033,1.75,-3.15,-1.33,-21.5776,-47.5399,11.7301,1014.67
330128,0.0813008,9.8374,1.03778,1.68,-3.15,-1.19,-21.6648,-47.5091,12.3508,1014.67
330134,-0.0047824,9.8374,1.00909,1.19,-3.01,-1.75,-21.8392,-46.2138,12.4246,1014.69
330140,0.0095648,9.82783,0.980392,1.26,-2.94,-1.54,-21.6067,-46.3989,12.203,1014.69
330146,-0.0191296,9.79914,0.999522,1.19,-3.22,-1.05,-21.4905,-48.0642,11.8631,1014.69
330152,-0.0286944,9.70827,1.00909,1.61,-3.43,-0.77,-21.4614,-47.1698,12.1734,1014.69
330158,-0.0047824,9.80392,1.00909,1.89,-3.78,-1.19,-21.6648,-46.4914,11.937,1014.68
330164,-0.0047824,9.7561,0.980392,1.47,-3.57,-0.56,-22.5946,-47.0773,11.0948,1014.68
330170,-0.0191296,9.74175,0.980392,1.26,-2.94,-0.21,-21.6939,-47.0773,10.947,1014.68
330176,-0.0143472,9.76566,1.00909,1.19,-3.15,-0.56,-20.8512,-46.2447,12.1587,1014.66
330182,-0.105213,9.65088,1.14299,2.24,-3.01,-0.07,-20.7931,-46.8306,12.0109,1014.66
330188,-0.0813008,9.68436,1.1143,2.24,-3.71,0.56,-21.1127,-47.8175,11.08,1014.73
330194,0.0191296,9.76566,1.01387,2.1,-3.29,0.49,-21.3452,-46.7381,11.8779,1014.73
330200,0.0573888,9.80392,0.946915,2.31,-3.64,0.42,-21.0256,-47.2315,11.4937,1014.72
330206,0.0526064,9.79436,0.980392,1.68,-3.15,0.42,-22.4493,-47.7866,11.804,1014.72
330212,0.0860832,9.81827,1.0043,1.68,-3.08,-0.14,-21.6648,-45.7821,12.3064,1014.67
330218,0.0813008,9.8087,0.989957,1.68,-3.36,0.28,-22.1297,-46.2138,10.8436,1014.67
330224,0.0765184,9.8374,1.02343,2.1,-3.01,0.28,-21.6939,-47.2932,11.1391,1014.67
330230,0.0286944,9.80392,0.980392,1.19,-2.8,-0.35,-21.752,-47.139,11.7597,1014.66
330236,0.0526064,9.82783,1.00909,1.96,-3.29,-0.56,-21.8973,-46.6764,12.5724,1014.66
330242,0.0669536,9.82783,1.03778,1.89,-3.36,-0.42,-21.3161,-47.6016,11.3755,1014.7
330248,0.0334768,9.8087,1.01865,2.03,-3.36,-0.49,-21.8973,-47.8175,11.3312,1014.7
330254,-0.0621712,9.78957,1.00909,1.82,-3.5,-0.49,-21.6358,-46.4914,12.1143,1014.7
330260,-0.0334768,9.79436,0.994739,1.68,-3.43,-0.21,-20.8222,-46.0596,12.1734,1014.7
330266,0.0095648,9.74653,1.08082,1.89,-3.22,0.21,-21.4324,-47.7558,11.6858,1014.7
330272,0,9.71305,1.06648,2.1,-2.94,-0.21,-21.6067,-46.8306,11.8779,1014.7
330278,-0.0191296,9.76088,1.033,2.31,-2.73,0.21,-21.8973,-46.7381,12.0109,1014.7
330284,-0.0095648,9.73218,1.02822,2.31,-3.22,-0.21,-21.752,-47.8483,11.1539,1014.69
330290,-0.0143472,9.74175,1.01865,2.38,-3.22,0.7,-21.5486,-47.5708,11.7301,1014.69
330296,-0.0143472,9.76566,0.989957,2.52,-3.22,1.19,-21.258,-46.1521,13.0009,1014.68
330302,0.023912,9.76088,1.0043,2.52,-3.43,0.49,-21.5486,-47.3549,12.203,1014.68
330308,0.023912,9.8087,0.93735,2.1,-3.43,0.77,-21.4033,-47.6941,12.6463,1014.7
330314,0.0526064,9.8374,0.961262,1.75,-3.57,0.63,-21.3161,-46.7073,11.9961,1014.7
330320,0.114778,9.83261,0.97561,1.96,-2.94,0.42,-21.3161,-47.3857,13.4294,1014.66
330326,0.129125,9.81827,0.989957,1.82,-3.08,0.07,-21.6648,-48.2492,10.8436,1014.66
330332,0.0765184,9.85653,0.970827,1.82,-3.15,-0.42,-21.1418,-46.9848,12.0552,1014.64
330338,0.0669536,9.86609,0.985174,1.75,-3.43,-0.21,-20.9675,-47.1082,11.6858,1014.64
330344,0.0430416,9.84218,1.02343,1.33,-2.8,-0.84,-21.1418,-48.1259,11.7892,1014.64
330350,0.071736,9.81827,1.0043,1.75,-3.08,-0.35,-21.3161,-47.4474,11.2277,1014.67
330356,0.047824,9.76566,1.03778,1.47,-2.73,-0.42,-22.246,-46.4914,11.8336,1014.67
330362,-0.0095648,9.76566,1.00909,1.47,-3.01,-0.42,-21.4905,-47.2007,11.7745,1014.71
330368,-0.0191296,9.78479,1.03778,2.52,-3.43,-0.14,-22.9433,-48.9277,10.5185,1014.71
330374,-0.0047824,9.76566,1.01387,1.33,-3.01,-0.07,-21.9263,-46.3063,12.8384,1014.68
330380,0,9.73218,1.02822,1.75,-3.29,-0.35,-20.8803,-46.7689,11.804,1014.68
330386,0.023912,9.73218,1.04256,1.68,-3.22,0.42,-21.1999,-48.5268,11.9666,1014.69
330392,-0.023912,9.76566,0.994739,2.17,-3.15,0.35,-21.4033,-46.8615,12.7349,1014.69
330398,0,9.7274,1.033,1.89,-3.57,0,-21.6648,-46.3372,12.9714,1014.69
330404,0.0191296,9.75131,1.0043,1.96,-3.92,0.49,-22.3331,-47.6941,11.2277,1014.71
330410,0,9.77044,1.01387,2.31,-3.5,-16.8,-22.0426,-47.5091,12.5281,1014.71
330416,0.023912,9.79436,1.00909,2.17,-3.22,0.63,-21.6648,-46.0288,11.9075,1014.71
330422,0.0382592,9.78479,1.02343,2.1,-3.43,0.7,-22.5075,-47.5708,12.8975,1014.71
330428,0.0621712,9.80392,1.00909,2.1,-3.15,0.84,-22.0426,-47.4166,12.0404,1014.69
330434,0.114778,9.81827,1.00909,2.24,-3.36,-0.14,-22.4784,-47.324,13.5033,1014.69
330440,0.114778,9.84696,0.97561,2.1,-2.8,-0.07,-21.4324,-46.8615,12.1291,1014.69
330446,0.0669536,9.84218,0.980392,2.1,-2.87,0.21,-21.5776,-47.8792,11.1834,1014.69
330452,0.023912,9.79914,1.00909,1.96,-3.22,-0.28,-21.781,-47.6941,11.937,1014.69
330458,0.0191296,9.78957,1.05691,2.03,-3.01,-0.28,-21.3452,-46.9231,13.3851,1014.68
330464,0.0860832,9.76566,1.06169,2.31,-3.08,-0.07,-22.1297,-48.0334,12.2473,1014.68
330470,0.0526064,9.79914,1.01387,2.59,-2.94,0.07,-22.4784,-47.8175,9.77966,1014.67
330476,0.0047824,9.82305,0.980392,2.1,-3.5,-0.21,-21.4614,-46.6764,11.671,1014.67
330482,-0.0047824,9.8374,0.951698,1.61,-3.5,-0.56,-21.8682,-47.725,12.3655,1014.68
330488,-0.0286944,9.8087,1.01865,1.75,-3.5,0.21,-21.9844,-47.8483,11.8927,1014.68
330494,0.0095648,9.7561,1.05691,1.96,-2.94,0,-21.4614,-46.1213,11.937,1014.68
330500,0.0047824,9.74653,1.03778,2.17,-3.57,-0.07,-21.9263,-47.1698,12.8679,1014.68
330506,0.0191296,9.81827,0.989957,1.68,-3.71,0.35,-21.5776,-48.0642,11.7597,1014.69
330512,0.0286944,9.78001,1.00909,1.82,-3.22,0.49,-21.1709,-47.7558,11.7597,1014.69
330518,0.0526064,9.78479,1.0043,1.61,-3.29,0.28,-21.5486,-47.324,13.2078,1014.69
330524,0.0382592,9.77044,1.03778,1.68,-3.22,0.42,-22.7109,-48.1567,12.2916,1014.7
330530,0.0286944,9.75131,1.03778,2.24,-3.43,0.21,-21.9844,-48.5268,10.5924,1014.7
330536,0.0143472,9.76088,1.01387,2.03,-3.36,0.35,-21.752,-46.9848,12.3064,1014.71
330542,0.0430416,9.74175,1.04256,2.31,-3.57,0.42,-22.1588,-48.0025,11.3903,1014.71
330548,0.109995,9.78957,1.0043,2.31,-3.5,0.49,-21.9263,-48.7735,11.3312,1014.7
330554,0.0573888,9.84696,0.97561,2.1,-3.29,0.42,-21.9554,-46.6147,12.1439,1014.7
330560,0.0669536,9.82305,0.966045,2.1,-3.08,-0.07,-21.6358,-47.6324,12.4246,1014.67
330566,0.0908656,9.81827,1.04256,1.68,-3.22,-0.42,-21.8392,-48.6193,11.3903,1014.67
330572,0.0430416,9.78479,1.033,2.38,-3.78,-0.21,-22.798,-47.725,11.6858,1014.67
330578,0.047824,9.78479,1.05691,1.89,-3.43,-0.49,-22.0135,-46.9231,12.6611,1014.67
330584,0.0143472,9.8087,1.06169,1.82,-3.01,0.07,-21.6067,-48.7118,13.2373,1014.67
330590,0,9.78001,1.03778,2.03,-3.15,0.21,-21.6648,-48.0642,11.1095,1014.69
330596,0.0334768,9.77523,1.01387,2.17,-3.57,-0.28,-20.8512,-46.6764,13.1487,1014.69
330602,0.023912,9.73697,1.04256,2.03,-3.5,0.21,-22.2169,-48.496,12.0996,1014.68
330608,0.0334768,9.78001,1.00909,2.38,-3.22,0.28,-22.1878,-48.3726,11.5676,1014.68
330614,0.0573888,9.77523,1.02343,1.75,-3.08,0.14,-21.3452,-46.7073,12.6611,1014.67
330620,0.0334768,9.77044,1.01865,1.89,-3.22,0.28,-21.5195,-46.5531,12.7645,1014.67
330626,0.0286944,9.78479,1.0043,2.1,-3.78,0.28,-21.5486,-48.5885,10.9913,1014.67
330632,0.0382592,9.80392,0.999522,2.31,-3.85,0.56,-21.5195,-47.1082,12.4246,1014.7
330638,0.109995,9.79914,1.0043,1.96,-3.22,0.49,-21.1999,-47.139,12.9418,1014.7
330644,0.114778,9.84218,0.966045,1.89,-2.94,0.28,-21.4614,-47.4474,11.8631,1014.69
330650,0.157819,9.84696,0.93735,2.03,-3.22,-0.42,-21.8973,-47.8483,11.5676,1014.69
330656,0.0573888,9.85653,1.01865,1.82,-3.15,-0.42,-20.9384,-46.5222,13.0305,1014.69
330662,0.095648,9.78957,1.02343,1.61,-2.8,-0.35,-21.5486,-48.0025,12.5281,1014.69
330668,0.0908656,9.82305,1.0043,1.4,-2.8,-0.98,-21.9263,-49.0202,10.0309,1014.68
330674,0.023912,9.81827,1.0043,1.82,-2.87,-0.91,-21.5486,-47.1698,10.4446,1014.68
330680,-0.0047824,9.79436,0.994739,1.61,-3.22,-0.77,-21.5776,-47.324,12.1439,1014.71
330686,0.0095648,9.82305,0.989957,1.82,-3.15,-0.91,-20.9675,-48.4343,12.1143,1014.71
330692,0.0095648,9.77523,1.0043,1.61,-3.43,-0.7,-21.5195,-46.8615,11.1686,1014.71
330698,0.0286944,9.77044,1.01387,1.68,-3.57,-0.49,-20.8222,-46.7381,12.3064,1014.66
330704,0.0047824,9.76566,1.01865,1.68,-3.22,-0.63,-21.5486,-48.3109,11.7745,1014.66
330710,0,9.74653,1.04256,1.68,-3.57,-0.14,-21.6067,-47.8483,11.1243,1014.71
330716,0.0047824,9.74175,1.03778,1.75,-3.29,0.21,-21.1709,-46.6456,12.9566,1014.71
330722,0.0143472,9.74653,1.05691,2.24,-3.5,0.28,-21.9263,-47.725,12.8384,1014.71
330728,0.0047824,9.77044,1.04735,2.03,-3.29,0.21,-21.4905,-47.5091,11.0504,1014.71
330734,-0.0095648,9.77044,1.02822,1.96,-3.71,0,-21.3742,-47.139,12.3508,1014.66
330740,0.0191296,9.76566,1.04735,1.82,-3.57,0.49,-21.5486,-46.7073,12.3064,1014.66
330746,0.0573888,9.8087,0.980392,2.24,-3.57,0.56,-21.5195,-47.8175,11.3164,1014.66
330752,0.0573888,9.79914,0.985174,2.03,-3.22,0.14,-21.781,-47.1698,13.6659,1014.69
330758,0.0621712,9.82305,0.999522,2.03,-3.08,0.14,-21.2871,-46.5839,12.7054,1014.69
330764,0.0813008,9.79914,1.02343,2.1,-3.22,-0.14,-22.1878,-48.0642,11.346,1014.67
330770,0.162602,9.8374,0.980392,2.03,-3.29,0,-21.6067,-47.8175,11.3016,1014.67
330776,0.11956,9.86131,0.932568,1.89,-3.08,-0.21,-20.9965,-46.1213,12.3508,1014.7
330782,0.0430416,9.8374,0.999522,2.03,-3.01,-0.63,-21.3452,-47.324,11.9222,1014.7
330788,0.0813008,9.8374,1.00909,1.68,-3.15,-1.05,-21.5195,-48.1259,10.8288,1014.7
330794,0.114778,9.83261,0.985174,1.75,-3.22,-0.63,-21.5195,-46.8615,11.1686,1014.7
330800,0.071736,9.82305,1.04256,1.54,-2.87,-0.98,-21.4324,-46.4914,11.9222,1014.7
330806,0.0047824,9.78479,1.04735,2.1,-2.87,-1.19,-21.9263,-47.8792,11.0357,1014.7
330812,-0.0191296,9.78479,1.03778,1.75,-2.87,-0.63,-22.275,-46.9848,12.1587,1014.7
330818,0.023912,9.77044,1.00909,1.75,-2.73,-0.42,-21.5195,-46.4914,12.5428,1014.72
330824,0,9.78479,1.0043,1.61,-3.15,-0.21,-21.1127,-48.496,11.7154,1014.72
330830,0.0191296,9.75131,1.02343,2.17,-3.15,-0.35,-21.7229,-47.7558,11.9518,1014.66
330836,-0.0095648,9.74653,1.01387,1.33,-2.73,-0.07,-21.9554,-46.8615,12.2178,1014.66
330842,0.0143472,9.73697,0.994739,2.24,-3.15,-0.14,-21.8101,-48.1876,12.6315,1014.68
330848,0.0047824,9.75131,1.00909,1.75,-3.08,0.35,-21.8973,-47.8175,11.2277,1014.68
330854,0.0095648,9.76566,0.985174,2.03,-3.22,0.42,-21.4614,-46.4914,10.947,1014.68
330860,0.0334768,9.76566,0.97561,1.75,-3.22,0.14,-21.4033,-46.6764,12.2473,1014.68
330866,0.0191296,9.79436,0.999522,2.24,-3.36,0.7,-21.3452,-48.0642,11.5972,1014.68
330872,0,9.77044,1.0043,1.96,-3.15,0.42,-21.8392,-47.0157,10.1786,1014.73
330878,0.047824,9.76088,1.02822,1.47,-3.43,0,-21.6939,-47.0465,11.5381,1014.73
330884,0.0430416,9.77523,1.02822,1.68,-3.43,0.35,-22.1007,-47.8792,11.8188,1014.69
330890,0.0526064,9.78957,1.02343,1.75,-3.5,-16.66,-22.0135,-47.8792,12.0848,1014.69
330896,0.0621712,9.7561,1.04735,2.59,-3.29,0.84,-21.5776,-46.1521,12.1882,1014.68
330902,0.0669536,9.78479,1.01865,2.17,-3.08,0.42,-21.8682,-47.2624,11.5972,1014.68
330908,0.0621712,9.81827,0.980392,2.03,-3.08,-0.49,-21.781,-47.7558,11.4937,1014.69
330914,0.0334768,9.79914,1.01865,2.17,-3.36,0.07,-22.8852,-46.2755,13.4147,1014.69
330920,-0.023912,9.77523,1.04735,1.82,-3.22,0.56,-21.5486,-46.7998,12.2473,1014.69
330926,0.0334768,9.79436,1.04256,2.24,-3.29,0.14,-21.9263,-48.681,11.9222,1014.69
330932,0.047824,9.78479,0.966045,2.59,-3.78,0,-21.9263,-47.1698,11.7449,1014.69
330938,0.0526064,9.82783,0.985174,2.24,-3.29,0.21,-21.1418,-46.1521,10.947,1014.66
330944,0.0095648,9.79436,0.980392,2.1,-3.43,0,-22.1588,-47.2932,12.0552,1014.66
330950,0.0334768,9.78957,1.0043,1.89,-3.36,0.07,-21.1999,-47.7558,11.9666,1014.7
330956,0.047824,9.78479,0.994739,2.17,-3.57,0.07,-21.0256,-45.4737,11.7745,1014.7
330962,0.0430416,9.82305,1.0043,1.96,-3.36,-0.14,-21.3742,-47.6941,10.3707,1014.69
330968,0.0382592,9.81349,1.01865,2.38,-3.22,0.56,-21.4905,-48.4651,10.6219,1014.69
330974,0.0765184,9.78001,1.00909,1.96,-2.87,0.35,-21.1999,-47.0465,12.6167,1014.69
330980,0.0573888,9.81827,1.01387,2.1,-3.22,-0.07,-21.9554,-46.7689,12.1882,1014.67
330986,0.0621712,9.79436,0.966045,2.03,-3.43,0.28,-22.1297,-48.4651,11.6858,1014.67
330992,0.0573888,9.82305,1.0043,1.96,-3.29,0.21,-21.229,-46.6456,13.5181,1014.71
330998,0.0573888,9.82305,1.02822,1.82,-3.29,-0.07,-21.4905,-46.5839,12.6906,1014.71
331004,0.105213,9.82305,0.999522,1.33,-3.5,-0.77,-21.6067,-47.6016,11.2573,1014.69
331010,0.11956,9.8087,0.999522,2.03,-3.08,-0.35,-21.7229,-48.3726,11.8631,1014.69
331016,0.0765184,9.82783,0.980392,1.75,-2.94,-0.07,-21.6358,-47.2624,10.8879,1014.67
331022,-0.0095648,9.76088,1.04256,1.54,-3.01,-0.49,-20.9675,-48.1567,11.3607,1014.67
331028,0.0191296,9.74653,1.0856,1.68,-3.15,-0.35,-21.9844,-48.8969,11.9666,1014.68
331034,0.0765184,9.78001,1.01865,1.75,-3.22,-0.35,-22.7109,-47.2315,12.5576,1014.68
331040,0.095648,9.82783,1.01387,2.24,-3.15,-0.42,-21.8101,-46.9848,12.8532,1014.68
331046,0.0095648,9.76088,1.02822,2.1,-3.29,-0.21,-22.6237,-48.496,12.4246,1014.67
331052,0,9.76566,1.02343,1.89,-3.43,-0.14,-21.8682,-47.1698,12.469,1014.67
331058,-0.0143472,9.76088,1.01387,1.75,-3.15,0,-21.258,-46.368,12.203,1014.66
331064,-0.0095648,9.74175,1.0043,2.38,-3.29,-0.14,-21.4905,-47.7558,11.7154,1014.66
331070,0.0047824,9.78479,0.999522,2.17,-3.5,0.14,-21.1418,-47.139,13.592,1014.69
331076,0.0286944,9.76566,0.994739,2.17,-3.99,-0.14,-21.752,-46.2447,14.3308,1014.69
331082,0.0143472,9.77523,0.980392,2.31,-3.29,0.35,-21.8973,-47.5091,13.5181,1014.66
331088,0.023912,9.79436,1.02343,1.82,-3.64,0.42,-21.6939,-48.5576,11.6267,1014.66
331094,0.0526064,9.78957,1.01865,1.68,-3.36,0.42,-21.4614,-46.2138,12.6758,1014.66
331100,0.0334768,9.79436,0.999522,2.1,-3.22,0.63,-21.752,-47.0157,12.0257,1014.68
331106,0.0573888,9.78957,0.980392,1.75,-3.15,0.42,-21.4905,-48.4034,12.4542,1014.68
331112,0.0908656,9.79436,1.00909,1.82,-3.29,0.42,-21.5195,-47.2007,12.5281,1014.69
331118,0.071736,9.8087,1.02343,1.61,-3.01,0.21,-21.9554,-46.8306,13.4442,1014.69
331124,0.0765184,9.8087,1.01865,2.24,-3.29,0.56,-22.0716,-48.2184,12.07,1014.68
331130,0.129125,9.82783,0.994739,2.31,-3.64,0,-22.5656,-48.6193,13.2226,1014.68
331136,0.153037,9.8374,0.966045,2.17,-3.15,-0.56,-21.5195,-46.9231,12.1587,1014.7
331142,0.0765184,9.83261,0.994739,1.68,-3.01,-0.91,-21.6067,-47.6941,13.2817,1014.7
331148,0.0047824,9.8087,1.00909,1.61,-3.01,-0.14,-22.0135,-48.4343,12.0848,1014.7
331154,0.0286944,9.77044,1.02343,2.03,-3.57,-0.28,-21.752,-47.91,12.0109,1014.69
331160,0.0765184,9.77523,1.01865,2.31,-3.22,-0.42,-22.3622,-47.5708,12.8236,1014.69
331166,0.023912,9.80392,1.00909,1.75,-3.15,-0.35,-21.781,-48.4034,11.5824,1014.69
331172,0.0095648,9.78479,1.03778,1.54,-2.94,-0.56,-21.3161,-47.3857,12.2178,1014.69
331178,-0.0191296,9.76566,1.04256,1.89,-3.15,-0.35,-21.9263,-46.8615,12.0996,1014.69
331184,0.0191296,9.78001,1.02822,2.03,-3.5,0.07,-21.5195,-48.0334,12.1882,1014.69
331190,0.0286944,9.78001,0.999522,2.1,-3.22,-0.7,-21.781,-47.91,11.6858,1014.68
331196,0.0334768,9.79914,0.970827,1.54,-3.01,-0.42,-21.3452,-46.5222,12.7202,1014.68
331202,0.0095648,9.76088,1.01865,2.03,-2.87,0.42,-21.8682,-47.2624,11.4494,1014.71
331208,0.0286944,9.77523,0.985174,2.03,-3.08,0.42,-21.752,-48.3109,11.0652,1014.71
331214,0,9.75131,0.994739,1.89,-3.64,0,-21.5776,-47.2315,11.9813,1014.71
331220,0.0382592,9.78001,1.02822,2.1,-3.64,0.35,-21.8101,-47.2315,13.0009,1014.67
331226,0.0573888,9.76088,0.994739,2.38,-3.43,0.28,-21.781,-47.6941,11.8779,1014.67
331232,0.0621712,9.76566,1.01387,1.68,-3.43,0.21,-21.1999,-47.5091,12.7054,1014.69
331238,0.0526064,9.79914,1.01387,2.1,-3.08,0.49,-20.9675,-46.7689,11.9961,1014.69
331244,0.0382592,9.76088,1.02343,1.54,-3.22,0.14,-21.6067,-48.3109,11.8631,1014.67
331250,0.0669536,9.77523,1.04256,1.61,-3.43,-0.07,-21.6067,-47.9717,11.5381,1014.67
331256,0.11956,9.82783,1.02822,2.24,-3.43,0.28,-21.1127,-46.2755,13.0157,1014.69
331262,0.0813008,9.82783,0.980392,2.1,-3.08,0.21,-21.781,-47.5399,11.6415,1014.69
331268,0.023912,9.79914,1.00909,1.89,-3.36,-0.07,-21.752,-48.5885,11.0948,1014.69
331274,0.0334768,9.76566,1.0856,2.17,-3.01,0,-21.6358,-46.8306,13.459,1014.68
331280,0.0143472,9.70349,1.1143,2.45,-2.8,0.07,-21.4324,-47.2315,13.1043,1014.68
331286,0.13869,9.87566,0.879962,1.96,-3.43,-0.49,-22.1007,-48.3726,11.9222,1014.63
331292,0.105213,9.81827,0.918221,1.61,-2.73,-0.07,-21.8392,-47.324,12.6611,1014.63
331298,0.0191296,9.76088,1.033,1.96,-3.22,0.07,-21.8973,-47.2315,12.203,1014.68
331304,-0.0143472,9.75131,1.04735,1.89,-2.94,0.28,-21.4324,-48.4651,10.9913,1014.68
331310,0.0095648,9.76088,1.02822,2.45,-3.08,0.21,-21.8101,-48.9586,11.1982,1014.7
331316,0.0191296,9.76088,1.01865,1.96,-3.08,-0.14,-21.4905,-46.8306,12.1587,1014.7
331322,0.0191296,9.73697,1.00909,2.38,-3.01,-0.28,-21.3161,-47.725,12.2473,1014.7
331328,0.0430416,9.80392,1.0043,2.1,-3.08,0.56,-21.6648,-48.8969,13.2669,1014.69
331334,0.0191296,9.77523,1.02822,2.1,-3.64,0.49,-22.0716,-47.6016,13.1339,1014.69
331340,0.0526064,9.78479,0.97561,1.89,-3.78,0.14,-21.781,-47.0157,11.8484,1014.68
331346,0.0143472,9.76088,0.999522,2.45,-3.43,0.35,-21.6358,-48.7118,11.3607,1014.68
331352,0.0573888,9.76566,1.02343,1.89,-3.08,0.7,-21.6358,-47.6633,11.7597,1014.71
331358,0.0813008,9.81349,1.0043,2.03,-3.43,0.28,-21.4905,-47.7558,12.6611,1014.71
331364,0.0813008,9.82305,0.95648,2.24,-3.85,-0.49,-21.752,-48.4034,12.1734,1014.68
331370,0.0860832,9.82783,0.97561,1.61,-3.43,0,-21.5486,-48.3109,12.2325,1014.68
331376,0.0430416,9.84696,1.0043,1.47,-3.64,-0.35,-21.3161,-47.1698,13.0748,1014.67
331382,0.162602,9.79914,1.02343,1.82,-3.01,-0.42,-21.5776,-48.6193,12.5872,1014.67
331388,0.0526064,9.83261,1.033,1.47,-3.22,-0.14,-21.5776,-48.5885,10.7253,1014.67
331394,0.0286944,9.83261,0.994739,1.89,-2.94,-0.28,-21.8101,-46.7689,10.5776,1014.69
331400,0.0382592,9.78957,1.05213,1.89,-3.08,-0.35,-21.1418,-46.8306,11.8336,1014.69
331406,0.0382592,9.76088,1.05213,1.82,-3.36,-0.49,-22.0135,-48.3726,11.2573,1014.67
331412,0.0191296,9.75131,1.033,2.17,-3.57,0.07,-21.4614,-47.139,11.3755,1014.67
331418,0,9.78957,0.994739,1.82,-3.01,0,-21.6648,-46.6764,12.3508,1014.67
331424,0.0047824,9.78479,1.01865,1.96,-2.8,0.56,-22.3912,-48.0334,11.7006,1014.67
331430,0.023912,9.78479,1.0043,1.89,-3.36,0.21,-22.1007,-48.0025,11.7892,1014.68
331436,-0.0143472,9.7561,0.999522,2.03,-3.5,-0.07,-21.4614,-46.4297,13.0452,1014.68
331442,0.0334768,9.76088,0.97561,2.03,-3.22,-0.07,-22.0135,-47.7558,13.3703,1014.68
331448,0.0430416,9.75131,1.0043,1.75,-3.57,0.49,-21.4033,-47.91,12.0404,1014.68
331454,0.071736,9.81827,0.951698,1.61,-3.29,0.77,-21.8682,-46.8306,11.8779,1014.68
331460,0.071736,9.77044,1.02343,1.75,-3.57,0.56,-21.5486,-46.8306,13.326,1014.68
331466,0.047824,9.77044,1.0043,1.61,-3.71,0.49,-22.1007,-48.7735,11.0209,1014.68
331472,0.0813008,9.78957,0.994739,2.1,-3.43,0.07,-20.6769,-47.7866,11.937,1014.67
331478,0.133907,9.8087,1.0043,1.47,-3.36,-0.07,-21.4905,-46.954,12.8384,1014.67
331484,0.095648,9.8374,0.999522,1.82,-3.29,0,-21.258,-47.8175,12.0996,1014.7
331490,0.143472,9.83261,0.97561,1.89,-3.29,-0.7,-21.781,-47.5399,12.3212,1014.7
331496,0.071736,9.84218,1.02343,1.61,-3.36,-0.91,-21.3742,-46.4914,13.0305,1014.7
331502,0.0334768,9.80392,1.05213,1.75,-3.01,-0.63,-21.0256,-47.2315,12.927,1014.73
331508,0.0095648,9.82783,0.989957,1.4,-3.29,-0.7,-21.0256,-48.0025,12.5281,1014.73
331514,0.0095648,9.78001,1.01387,1.33,-3.29,0.07,-21.1127,-46.1521,11.2869,1014.7
331520,0.0095648,9.74653,1.033,1.75,-3.5,-0.42,-21.5195,-47.2007,12.4837,1014.7
331526,0.0286944,9.78479,1.02822,1.96,-3.36,-0.63,-21.5486,-48.6193,11.8484,1014.66
331532,0.023912,9.78479,0.999522,1.4,-3.57,-0.07,-22.0716,-47.1082,12.9418,1014.66
331538,0.023912,9.76566,1.02343,1.75,-3.08,-0.07,-22.0426,-46.6456,13.1043,1014.68
331544,0.0382592,9.77523,1.01387,1.82,-3.08,0.14,-22.1297,-47.8792,12.7349,1014.68
331550,-0.0191296,9.77523,0.985174,1.54,-3.43,0.07,-22.1878,-47.7558,11.8484,1014.68
331556,0.023912,9.75131,0.985174,1.68,-3.22,0.07,-22.0426,-47.0773,13.2817,1014.68
331562,0.0573888,9.79436,0.980392,1.96,-3.43,0.28,-22.3331,-47.725,12.8384,1014.68
331568,0.047824,9.77044,1.01387,1.89,-3.22,0.35,-21.9263,-48.3726,11.213,1014.68
331574,0.0813008,9.78479,1.02822,1.96,-3.43,0.28,-22.5365,-47.3857,12.4246,1014.68
331580,0.0860832,9.78479,1.05213,2.17,-3.36,0,-22.5946,-47.2315,12.6906,1014.69
331586,0.0573888,9.79914,1.00909,2.03,-3.22,0.07,-21.8682,-48.7735,12.0404,1014.69
331592,0.0813008,9.80392,0.989957,2.03,-3.29,-0.35,-21.3161,-47.5091,11.9666,1014.71
331598,0.095648,9.82783,0.985174,2.17,-3.22,0.21,-21.1999,-48.2492,11.4937,1014.71
331604,0.105213,9.84218,0.966045,1.75,-2.94,-0.14,-22.3912,-48.4343,12.1439,1014.69
331610,0,9.81349,0.980392,1.75,-3.01,-0.7,-23.3501,-49.3286,13.1635,1014.69
331616,0.0286944,9.79436,1.01387,1.61,-2.94,0.21,-21.752,-46.5222,13.0009,1014.69
331622,0.0908656,9.77044,1.00909,1.47,-3.15,0.21,-22.0716,-48.095,10.7992,1014.71
331628,0.071736,9.82305,1.01865,1.68,-3.36,-0.42,-22.5365,-48.8044,10.8288,1014.71
331634,0.0573888,9.81349,1.0043,1.61,-3.22,0.07,-21.8682,-47.2007,11.2425,1014.69
331640,0.0573888,9.78957,1.00909,1.54,-3.36,0.14,-22.0716,-47.2932,12.4099,1014.69
331646,0.0382592,9.77523,1.04735,1.4,-3.22,0.21,-21.9263,-49.0819,11.8188,1014.67
331652,0.0334768,9.74653,1.06169,2.03,-3.29,0,-21.9263,-47.2624,11.9666,1014.67
331658,0.023912,9.77044,1.05691,2.17,-3.36,-0.07,-22.6818,-46.8615,11.8188,1014.67
331664,0.0382592,9.76566,1.03778,2.31,-3.57,0.07,-21.8682,-47.4782,11.7154,1014.67
331670,0.0669536,9.76566,1.04256,2.1,-3.15,0.35,-22.1007,-48.7735,11.7745,1014.67
331676,0.0526064,9.76566,0.97561,2.24,-3.36,0.42,-22.246,-47.5708,11.9813,1014.68
331682,0.0669536,9.78957,1.00909,2.1,-3.29,0.63,-21.8392,-47.9717,12.6167,1014.68
331688,0.0430416,9.81827,1.00909,1.89,-3.71,0.07,-22.1007,-49.0511,10.947,1014.68
331694,0.0669536,9.79914,0.994739,2.1,-3.15,0.49,-21.5776,-47.6324,11.0357,1014.68
331700,0.0621712,9.78001,1.01865,2.24,-3.01,0.21,-22.4493,-47.3857,11.1095,1014.68
331706,0.071736,9.82783,0.980392,2.17,-3.22,-0.56,-22.7109,-48.866,11.3755,1014.68
331712,0.0430416,9.8087,0.970827,2.03,-3.08,-0.07,-22.0135,-48.1567,12.9566,1014.68
331718,0.0669536,9.79914,1.03778,1.89,-3.22,-0.49,-22.275,-47.0465,13.4442,1014.68
331724,0.0669536,9.81349,1.00909,1.89,-3.29,0.07,-22.0716,-47.725,11.9666,1014.71
331730,0.047824,9.78001,1.0043,2.17,-3.57,0.21,-22.1007,-48.1876,11.6119,1014.71
331736,0.0430416,9.78957,1.07126,1.89,-3.15,-0.35,-22.3912,-46.8306,12.1439,1014.71
331742,0.0334768,9.75131,1.05691,2.31,-2.8,-0.07,-21.781,-47.1082,12.0552,1014.68
331748,0.0669536,9.84696,0.951698,2.31,-3.71,0.14,-22.0135,-48.3418,10.9765,1014.68
331754,0.0765184,9.81827,0.95648,1.68,-3.15,0.07,-22.1007,-46.1521,11.804,1014.69
331760,0.0191296,9.77523,1.02822,2.17,-3.43,0.14,-21.3742,-47.0465,13.4738,1014.69
331766,0.047824,9.74175,1.05691,1.47,-2.73,0.14,-22.275,-48.9277,11.346,1014.71
331772,0.0382592,9.79436,1.03778,2.1,-3.64,0.14,-22.0426,-47.139,11.6267,1014.71
331778,0.023912,9.78479,0.989957,1.61,-3.01,0.42,-21.4905,-46.6764,11.6267,1014.7
331784,0.0382592,9.77523,1.02343,1.89,-2.8,0.42,-22.0426,-47.9717,10.9618,1014.7
331790,0.0191296,9.74653,1.03778,2.24,-2.94,0.98,-21.9554,-47.9717,11.6119,1014.7
331796,0.071736,9.73697,1.03778,2.38,-3.43,0.56,-21.6648,-46.8306,10.6515,1014.68
331802,0.133907,9.78479,0.980392,2.66,-3.15,0.35,-22.0426,-48.3418,11.8336,1014.68
331808,0.10043,9.78001,0.994739,2.38,-3.22,-0.28,-21.2871,-48.0334,11.3016,1014.69
331814,0.0908656,9.79914,1.02822,2.24,-2.87,0.84,-22.2169,-47.2932,11.5972,1014.69
331820,0.11956,9.8374,0.999522,2.1,-3.64,0.56,-21.9554,-47.6633,12.8384,1014.66
331826,0.114778,9.84218,0.985174,2.52,-3.43,0,-21.9263,-47.91,12.8384,1014.66
331832,0.095648,9.84696,0.95648,1.4,-3.08,-0.07,-22.0716,-47.6941,11.9666,1014.66
331838,0.047824,9.81827,1.04256,1.68,-3.29,0.14,-22.3912,-46.5222,12.7793,1014.66
331844,0.0765184,9.76566,1.05213,2.24,-3.71,0,-22.0716,-47.8792,12.2916,1014.66
331850,0.0669536,9.82305,1.00909,1.75,-3.29,0.28,-21.3161,-48.681,12.1291,1014.67
331856,0.047824,9.79914,0.989957,1.68,-3.22,-0.07,-21.229,-46.7689,13.2817,1014.67
331862,0.0430416,9.78001,1.02343,2.1,-3.5,-0.07,-21.4614,-48.1567,13.6954,1014.66
331868,0.0191296,9.73218,1.03778,1.61,-3.08,0.07,-21.7229,-48.9894,11.9666,1014.66
331874,0.0860832,9.77044,1.02343,2.1,-3.15,0.77,-21.8101,-47.2932,13.6659,1014.66
331880,0.0573888,9.76566,1.01387,2.1,-3.36,-0.14,-21.7229,-46.3989,12.0552,1014.66
331886,0.071736,9.77523,1.0043,2.52,-3.15,0.07,-21.7229,-48.1876,12.4394,1014.67
331892,0.0382592,9.78479,1.00909,1.89,-3.29,0.63,-21.258,-47.0465,12.6463,1014.67
331898,0.047824,9.78479,1.033,2.17,-3.15,0.56,-21.5195,-46.8306,12.2325,1014.7
331904,0.0669536,9.76566,1.01865,2.38,-3.43,0.21,-21.9554,-47.4782,12.4837,1014.7
331910,0.071736,9.78479,1.01387,2.17,-3.36,-0.07,-22.0426,-47.5708,10.9765,1014.7
331916,0.10043,9.8087,1.01865,2.31,-3.5,0.28,-21.6067,-46.9231,12.336,1014.67
331922,0.153037,9.81827,1.02343,2.03,-3.36,-0.21,-22.3622,-47.5091,11.3903,1014.67
331928,0.0813008,9.83261,0.970827,2.24,-3.64,0.14,-21.9844,-48.5885,11.8188,1014.66
331934,0.148254,9.85174,0.93735,2.1,-2.94,-0.21,-21.8101,-47.2624,12.2621,1014.66
331940,0.0908656,9.82305,0.989957,1.89,-3.08,-0.77,-22.1297,-47.0773,10.947,1014.69
331946,0.0765184,9.8374,0.994739,2.38,-3.64,-0.77,-21.781,-47.9717,11.1686,1014.69
331952,0.0430416,9.82305,0.980392,2.17,-3.36,-0.63,-21.5195,-47.6941,12.1882,1014.69
331958,0.071736,9.81349,1.01865,1.82,-3.22,-0.7,-21.6939,-46.0596,11.3016,1014.69
331964,0.0526064,9.77044,0.980392,1.89,-3.5,-0.77,-21.781,-47.5091,11.0209,1014.69
331970,0.0286944,9.78001,1.01387,2.03,-3.22,-0.84,-21.5776,-47.3549,12.203,1014.66
331976,0.0382592,9.76566,0.994739,1.96,-3.22,-0.07,-21.3452,-46.7689,12.5428,1014.66
331982,0.0191296,9.77044,1.0043,1.89,-3.22,-0.42,-21.6358,-47.4474,13.1782,1014.7
331988,0.0334768,9.77523,1.01387,1.75,-3.57,0.28,-21.6939,-48.5268,11.4494,1014.7
331994,0.0430416,9.7561,0.999522,1.89,-3.5,0,-21.6648,-46.7998,10.8731,1014.69
332000,0.0334768,9.74653,1.01865,2.17,-3.5,-0.07,-21.229,-46.3989,11.08,1014.69
332006,0.023912,9.74653,1.0043,2.45,-3.64,0.42,-21.9263,-47.324,11.7154,1014.68
332012,0.0430416,9.74175,1.0043,1.47,-2.94,0.56,-22.275,-47.0157,12.4837,1014.68
332018,0.023912,9.76566,1.00909,2.1,-3.22,0.56,-21.9844,-46.4297,13.0896,1014.68
332024,0.0813008,9.77044,1.02822,2.59,-3.36,0.56,-22.3041,-47.2007,11.6858,1014.66
332030,0.0908656,9.78479,1.02822,2.1,-3.29,0.63,-21.752,-47.9717,12.602,1014.66
332036,0.0860832,9.79914,1.04256,2.31,-3.15,0.42,-21.9844,-45.9671,12.2916,1014.68
332042,0.0860832,9.78479,1.01387,2.31,-3.15,-0.07,-21.8392,-47.4166,12.4246,1014.68
332048,0.105213,9.79914,0.994739,1.75,-3.08,0.56,-21.9844,-48.4651,11.4789,1014.67
332054,0.0765184,9.8087,0.989957,2.24,-3.29,0.28,-21.752,-46.7381,12.469,1014.67
332060,0.071736,9.8087,1.01865,1.89,-3.43,0.35,-22.1297,-46.0905,10.8436,1014.67
332066,0.0765184,9.79436,1.033,2.03,-3.43,0.42,-21.6067,-47.5399,11.4494,1014.67
332072,0.0813008,9.82783,0.985174,2.17,-3.36,0,-22.1007,-47.2007,11.4789,1014.67
332078,0.109995,9.78957,1.01387,2.1,-3.5,0,-22.8852,-46.7998,12.8975,1014.67
332084,0.0526064,9.79914,1.00909,1.96,-3.5,0.35,-21.4614,-47.139,11.6119,1014.67
332090,0,9.77044,1.02343,2.17,-3.01,0.28,-21.8973,-47.5091,11.5824,1014.69
332096,0.0526064,9.77523,1.033,2.03,-3.22,0.28,-22.4784,-46.4605,12.6463,1014.69
332102,0.0669536,9.77044,1.00909,2.03,-3.15,0.42,-22.9143,-46.5222,12.9566,1014.66
332108,0.0860832,9.78957,1.01865,2.17,-3.22,0.56,-21.8973,-48.3418,11.3755,1014.66
332114,0.0573888,9.74653,1.01387,2.03,-3.08,0.35,-21.6939,-46.7689,12.0848,1014.67
332120,0.0669536,9.79914,1.03778,2.73,-3.01,0,-21.4614,-46.5839,11.4494,1014.67
332126,0.0765184,9.76088,0.970827,2.31,-3.22,0.42,-22.4203,-48.1259,10.7992,1014.71
332132,0.071736,9.81349,0.970827,2.45,-3.01,0.42,-22.0426,-47.6633,12.4542,1014.71
332138,0.105213,9.82305,0.999522,1.82,-3.15,0.35,-21.8392,-46.3989,12.2178,1014.71
332144,0.129125,9.81349,1.00909,2.1,-3.5,0.07,-22.5946,-47.1698,11.6415,1014.68
332150,0.133907,9.8087,0.966045,1.96,-3.36,0.14,-22.1297,-47.91,13.5772,1014.68
332156,0.124342,9.80392,0.97561,1.89,-3.01,-0.07,-21.3452,-46.368,12.9418,1014.66
332162,0.148254,9.79914,0.994739,1.89,-3.08,-0.14,-21.8392,-47.4782,12.8088,1014.66
332168,0.133907,9.83261,0.970827,1.75,-2.73,-0.14,-22.1878,-47.9717,10.8436,1014.71
332174,0.0526064,9.81827,1.01387,1.68,-2.87,-0.42,-21.9844,-46.5839,12.9418,1014.71
332180,0.095648,9.77044,1.04256,1.61,-3.01,-0.56,-21.6067,-46.368,13.6511,1014.71
332186,0.0286944,9.76088,1.04256,2.17,-3.15,-0.42,-22.275,-47.725,10.3412,1014.71
332192,0.0621712,9.73697,1.06169,1.82,-3.01,-0.42,-21.6939,-46.8923,11.8927,1014.71
332198,0.0526064,9.79436,1.02343,2.17,-3.43,-0.07,-21.781,-45.3811,13.2817,1014.68
332204,0.095648,9.78479,1.0043,1.96,-3.5,-0.35,-22.3912,-47.4474,12.1587,1014.68
332210,0.0765184,9.77523,1.01865,1.82,-3.22,-0.07,-22.0716,-48.5576,9.1886,1014.68
332216,0.047824,9.8087,0.985174,1.89,-3.08,0.7,-21.7229,-46.5839,13.2373,1014.68
332222,0.0382592,9.79436,0.999522,1.82,-3.29,0.35,-22.1878,-47.324,12.7793,1014.66
332228,0.0860832,9.78001,1.0043,1.68,-3.43,0.21,-21.9554,-47.6016,10.7992,1014.66
332234,0.0621712,9.7561,1.0043,2.31,-3.36,0.77,-21.4905,-46.6764,12.6611,1014.7
332240,0.0908656,9.78001,1.01387,1.89,-3.43,-0.07,-22.1007,-46.6147,12.3508,1014.7
332246,0.0621712,9.76566,1.02822,2.03,-3.29,0.28,-22.769,-48.1259,10.9765,1014.69
332252,0.11956,9.81349,0.980392,2.03,-3.5,0.56,-21.8392,-47.139,11.6563,1014.69
332258,0.105213,9.79436,0.970827,2.59,-3.43,-0.07,-21.2871,-46.2138,12.8975,1014.69
332264,0.114778,9.82305,1.0043,2.03,-3.08,0.35,-21.0256,-47.2624,11.0061,1014.67
332270,0.0765184,9.82305,1.03778,1.89,-2.87,-0.42,-22.1007,-48.0334,11.3016,1014.67
332276,0.0621712,9.84696,0.95648,1.89,-3.5,-0.35,-22.0716,-46.4914,12.5576,1014.69
332282,0.105213,9.8087,1.0043,1.89,-3.29,0.14,-21.8392,-46.9231,11.6858,1014.69
332288,0.0908656,9.78957,1.00909,2.17,-3.29,0,-22.3041,-48.095,11.6267,1014.66
332294,0.124342,9.77523,0.994739,2.17,-3.43,-0.42,-22.3622,-47.2007,12.6758,1014.66
332300,0.0813008,9.8374,0.999522,2.17,-3.57,-0.14,-21.5776,-47.4782,12.6463,1014.69
332306,0.0286944,9.84696,1.0043,2.03,-3.29,-0.28,-21.4905,-48.1259,12.1587,1014.69
332312,0.0621712,9.74653,1.02822,1.68,-3.36,0.28,-22.5656,-46.5839,11.7449,1014.69
332318,0.0526064,9.77523,1.02343,2.24,-3.99,-0.28,-21.3742,-46.1213,11.7301,1014.71
332324,0.0573888,9.77523,1.0043,2.1,-3.71,0.21,-21.7229,-47.6633,12.203,1014.71
332330,0.047824,9.77044,1.05213,1.68,-2.52,-0.35,-21.7229,-47.4474,11.1391,1014.66
332336,0.0765184,9.7561,1.04256,1.89,-3.08,0.63,-21.8392,-46.5531,13.3112,1014.66
332342,0.0573888,9.73697,1.02343,2.1,-3.08,0.7,-22.3041,-47.5399,12.8975,1014.7
332348,0.047824,9.76566,1.0043,2.17,-3.85,0.21,-22.8561,-48.1567,11.3755,1014.7
332354,0.0813008,9.8087,1.01865,2.52,-3.92,0.07,-22.0135,-46.7998,10.8288,1014.7
332360,0.133907,9.78957,0.966045,2.45,-3.15,0.77,-21.8973,-46.4297,12.4099,1014.7
332366,0.129125,9.82783,0.985174,2.38,-3.08,0.07,-22.4203,-48.1876,12.1587,1014.7
332372,0.0765184,9.8087,1.0043,1.96,-3.43,0,-21.4905,-48.1567,11.3164,1014.7
332378,0.167384,9.81827,0.989957,2.59,-3.08,0,-22.275,-46.368,12.6611,1014.7
332384,0.148254,9.80392,0.970827,2.31,-2.94,-0.42,-22.0426,-47.5708,12.07,1014.7
332390,0.0765184,9.8374,0.97561,2.17,-3.71,-0.7,-22.5075,-48.095,12.3951,1014.7
332396,0.0573888,9.85653,0.932568,1.61,-3.29,-0.14,-21.9844,-46.7073,11.9222,1014.69
332402,0.0621712,9.76566,1.04735,2.17,-3.85,-0.35,-21.781,-47.6324,12.7793,1014.69
332408,0.095648,9.77044,1.03778,1.96,-3.15,-0.07,-21.752,-47.91,12.1882,1014.69
332414,0.114778,9.79436,1.05213,1.96,-3.57,-0.21,-21.8682,-47.4474,12.5281,1014.69
332420,0.0621712,9.80392,1.0043,1.82,-3.01,0.42,-22.1878,-47.6633,13.1043,1014.68
332426,0.0669536,9.79436,1.03778,2.31,-3.36,-0.07,-21.6648,-48.2184,11.0652,1014.68
332432,0.0621712,9.75131,1.03778,2.1,-3.22,-0.28,-21.8682,-47.5399,11.671,1014.68
332438,0.0286944,9.77044,0.999522,2.31,-3.43,0,-21.7229,-46.7381,12.4542,1014.69
332444,0.0430416,9.74653,1.00909,2.31,-3.15,0.42,-22.3041,-47.9408,12.1734,1014.69
332450,0.0573888,9.78001,0.999522,1.89,-2.94,0.07,-21.5776,-47.6324,12.8236,1014.69
332456,0.0526064,9.78001,1.0043,2.17,-2.87,0.28,-22.1878,-46.368,14.1683,1014.69
332462,0.0526064,9.78957,0.994739,1.96,-3.5,0.7,-22.1588,-47.139,12.1143,1014.7
332468,0.0765184,9.79914,0.97561,1.82,-3.29,0.14,-22.246,-47.2932,11.8631,1014.7
332474,0.0813008,9.79436,1.01865,1.68,-3.43,0.42,-21.9554,-46.183,12.927,1014.67
332480,0.0860832,8.57963,1.0043,2.03,-3.15,0.77,-21.6648,-46.5531,13.0748,1014.67
332486,0.148254,9.76088,0.985174,1.68,-3.29,-0.28,-21.9554,-47.5708,11.346,1014.67
332492,0.172166,9.78001,0.994739,1.96,-3.36,-0.28,-21.752,-46.4605,12.9861,1014.71
332498,0.148254,9.81827,0.985174,2.03,-2.8,0.21,-21.5776,-45.2578,12.4985,1014.71
332504,0.0669536,9.81349,0.985174,2.17,-2.73,-0.35,-22.0135,-47.3549,11.6858,1014.67
332510,0.105213,9.78001,1.01865,1.82,-3.08,-0.63,-21.8682,-47.7866,12.8532,1014.67
332516,0.0765184,9.78957,1.033,1.47,-3.22,-0.77,-21.4614,-46.6147,12.6758,1014.65
332522,0.109995,9.78957,1.01865,1.75,-2.73,-0.35,-21.781,-46.6147,12.1734,1014.65
332528,0.0621712,9.82305,1.0043,1.89,-3.15,-0.7,-22.5656,-48.2801,10.5037,1014.67
332534,0.0573888,9.79436,1.00909,2.03,-3.43,-0.35,-21.8392,-46.8923,12.0257,1014.67
332540,0.047824,9.79914,1.04256,2.03,-3.64,-0.63,-23.0014,-46.6456,12.07,1014.67
332546,0.0621712,9.76566,1.04256,2.24,-3.5,-0.07,-22.6237,-48.1876,11.7745,1014.69
332552,0.0382592,9.80392,0.97561,2.24,-3.5,0.07,-22.1878,-47.0773,12.4246,1014.69
332558,0.0430416,9.78001,1.01865,1.68,-3.43,-0.07,-22.0716,-46.3063,11.8779,1014.67
332564,0.0621712,9.7561,1.0043,2.45,-3.5,0.35,-22.3622,-47.139,11.8336,1014.67
332570,0.0621712,9.78957,0.989957,2.17,-2.8,0.7,-22.5075,-47.725,12.0109,1014.69
332576,0.0813008,9.81349,0.989957,2.1,-3.15,0,-22.1588,-46.368,12.6611,1014.69
332582,0.071736,9.78957,0.970827,1.68,-3.78,0.14,-21.9554,-47.2624,12.5576,1014.68
332588,0.0908656,9.77044,1.01387,1.75,-3.43,0.49,-22.2169,-48.0025,11.8779,1014.68
332594,0.0860832,9.78479,0.97561,1.96,-3.5,0.28,-21.6358,-46.5531,12.8975,1014.67
332600,0.071736,9.76088,1.0043,2.03,-3.22,0.21,-22.3331,-47.2007,13.2964,1014.67
332606,0.114778,9.78479,0.989957,1.89,-3.22,0.56,-22.6237,-48.0642,11.213,1014.67
332612,0.124342,9.78479,1.0043,2.1,-3.64,0.21,-21.8392,-46.9848,10.6958,1014.69
332618,0.172166,9.82305,0.999522,1.61,-3.36,0.14,-22.4784,-45.3811,12.3803,1014.69
332624,0.172166,9.83261,0.980392,1.96,-3.22,-0.56,-22.5365,-47.6941,11.9518,1014.69
332630,0.124342,9.8087,1.00909,1.96,-3.01,-0.56,-22.275,-47.2624,11.8484,1014.69
332636,0.10043,9.83261,0.999522,1.96,-3.5,-0.35,-22.3331,-45.8437,12.5428,1014.69
332642,0.129125,9.82305,1.02822,2.1,-3.5,-0.7,-21.6648,-46.5531,11.8336,1014.69
332648,0.0908656,9.79436,1.00909,1.54,-2.59,-0.49,-22.3912,-48.3109,10.4594,1014.68
332654,0.0286944,9.79914,0.989957,2.1,-3.22,-0.63,-22.1878,-46.7689,12.6611,1014.68
332660,0.0382592,9.80392,1.02822,1.82,-3.57,-0.63,-21.5195,-45.9363,12.927,1014.68
332666,0.0621712,9.7561,1.02343,2.17,-3.15,-0.07,-21.8392,-47.4782,11.4789,1014.68
332672,0.071736,9.77523,0.994739,1.82,-3.01,-0.21,-21.1999,-47.2315,11.7745,1014.68
332678,0.10043,9.77044,0.994739,1.89,-3.01,0.07,-21.752,-45.9979,12.6906,1014.66
332684,0.0621712,9.78479,1.01387,2.03,-3.36,0.14,-21.752,-47.7558,13.0748,1014.66
332690,0.071736,9.7561,0.966045,2.31,-3.43,0.28,-22.769,-47.8483,11.6563,1014.69
332696,0.0621712,9.76088,0.989957,1.96,-3.64,0.21,-22.3912,-45.6587,11.9813,1014.69
332702,0.095648,9.78479,0.97561,2.24,-3.36,0.28,-21.6358,-46.5839,11.4198,1014.69
332708,0.0621712,9.8087,0.980392,2.1,-3.08,0.14,-22.5075,-47.324,10.3412,1014.69
332714,0.0813008,9.8087,0.961262,1.75,-3.01,0.42,-22.3912,-46.7073,12.0848,1014.69
332720,0.10043,9.78957,0.970827,2.17,-3.5,0.07,-21.8392,-46.368,12.9123,1014.7
332726,0.105213,9.78957,0.961262,1.89,-3.78,0.28,-22.246,-47.6324,11.0357,1014.7
332732,0.133907,9.80392,0.985174,2.03,-3.43,0.21,-21.6358,-46.6456,10.6662,1014.69
332738,0.143472,9.79914,1.00909,1.82,-2.87,0.14,-21.5195,-46.3989,12.8827,1014.69
332744,0.071736,9.83261,0.989957,1.61,-3.36,-0.21,-21.8101,-47.0157,12.2621,1014.66
332750,0.133907,9.81827,0.97561,1.75,-3.36,-0.35,-22.4203,-47.4474,13.2669,1014.66
332756,0.129125,9.79914,0.999522,1.54,-3.08,0.07,-22.3331,-46.3372,12.8975,1014.7
332762,0.095648,9.81349,0.985174,1.82,-3.29,-0.35,-22.6818,-46.8923,12.9714,1014.7
332768,0.0573888,9.77523,1.01865,1.68,-3.15,-0.49,-22.4784,-47.6016,10.681,1014.7
332774,0.0669536,9.77044,1.033,1.68,-3.43,-0.14,-22.0426,-47.6016,11.6858,1014.7
332780,0.0860832,9.78479,1.01387,1.89,-3.57,-0.07,-21.781,-46.5222,12.794,1014.7
332786,0.105213,9.77044,1.0043,2.1,-3.22,-0.49,-22.7109,-47.7558,11.0357,1014.65
332792,0.0573888,9.78001,1.033,1.96,-3.01,-0.21,-22.769,-47.0465,11.3016,1014.65
332798,0.0526064,9.78001,0.985174,2.1,-3.64,0.07,-21.3161,-45.7512,12.1143,1014.71
332804,0.0621712,9.77044,0.985174,1.82,-3.5,-0.07,-21.4324,-46.9848,11.4198,1014.71
332810,0.0765184,9.8087,0.97561,2.1,-3.5,0.14,-22.4493,-47.9408,11.9222,1014.66
332816,0.109995,9.80392,0.999522,2.03,-3.5,0.14,-21.6939,-46.4605,11.8631,1014.66
332822,0.095648,9.77044,0.966045,1.75,-3.5,-0.49,-21.9554,-47.2624,12.6611,1014.71
332828,0.105213,9.8087,0.989957,1.96,-3.64,-0.28,-21.3161,-47.8483,11.7597,1014.71
332834,0.124342,9.76088,1.00909,1.89,-3.15,0.28,-21.8101,-47.3857,12.3655,1014.71
332840,0.114778,9.82783,0.966045,1.82,-2.94,-0.21,-22.3331,-46.9848,11.2869,1014.69
332846,0.11956,9.79914,0.966045,1.61,-3.29,-0.91,-22.0426,-48.0334,11.7154,1014.69
332852,0.153037,9.80392,1.00909,1.82,-3.29,-0.49,-22.1297,-46.6764,11.9518,1014.67
332858,0.143472,9.79914,1.00909,1.96,-3.08,-0.21,-21.8682,-46.4605,12.469,1014.67
332864,0.0813008,9.87087,0.97561,1.82,-2.94,-0.98,-22.7399,-47.8792,11.2277,1014.71
332870,0.105213,9.82305,0.970827,1.68,-3.15,-0.77,-21.8101,-48.4034,12.07,1014.71
332876,0.0621712,9.82783,1.0043,1.33,-3.22,-1.05,-22.3622,-46.6456,12.3951,1014.69
332882,0.0860832,9.81827,1.01865,1.26,-3.64,-1.05,-22.5075,-47.2624,13.0896,1014.69
332888,0.0860832,9.79914,1.04256,1.54,-3.57,-0.56,-22.4203,-48.4343,11.9813,1014.69
332894,0.0813008,9.8087,1.03778,1.33,-3.15,-0.98,-21.7229,-47.0157,11.8484,1014.68
332900,0.0573888,9.78001,0.980392,1.61,-3.5,-0.98,-21.7229,-46.7998,12.6906,1014.68
332906,0.0382592,9.75131,1.00909,2.03,-3.85,-0.49,-21.9844,-47.8175,12.1291,1014.7
332912,0.023912,9.76088,1.033,1.89,-3.01,-0.35,-22.3041,-47.5399,12.6758,1014.7
332918,0.047824,9.76566,1.01865,1.82,-2.87,-0.77,-21.8973,-46.3063,12.602,1014.7
332924,0.0526064,9.75131,0.999522,2.1,-3.78,-0.07,-22.6527,-47.2932,11.9518,1014.7
332930,0.0669536,9.77523,1.0043,2.1,-3.71,0,-22.3912,-47.9717,11.9518,1014.71
332936,0.0860832,9.78001,0.970827,1.82,-3.36,0.35,-21.9263,-46.9231,11.7449,1014.71
332942,0.071736,9.80392,0.97561,1.75,-3.01,-0.35,-21.4614,-47.2007,11.5528,1014.7
332948,0.114778,9.81827,0.994739,2.31,-2.94,0.42,-21.8101,-48.5576,11.5972,1014.7
332954,0.157819,9.78957,0.966045,2.17,-3.22,-0.28,-21.9844,-47.7558,12.3951,1014.7
332960,0.143472,9.81827,1.01387,1.96,-3.29,-1.05,-21.9554,-46.7998,11.7449,1014.69
332966,0.10043,9.82783,0.980392,2.03,-3.01,-0.49,-21.9554,-47.7558,11.1834,1014.69
332972,0.10043,9.81349,0.994739,1.54,-3.08,-0.35,-22.0135,-48.1567,11.3607,1014.7
332978,0.172166,9.86609,0.908656,1.82,-3.29,-1.26,-22.2169,-45.9363,12.3655,1014.7
332984,0.11956,9.85653,1.0043,1.68,-2.87,-1.4,-22.6818,-48.1567,12.1291,1014.7
332990,0.0430416,9.78001,0.994739,1.54,-2.8,-1.05,-22.1297,-47.91,11.5085,1014.7
332996,-0.0191296,9.76566,1.07126,1.54,-3.57,-1.33,-21.8392,-46.7689,11.2869,1014.67
333002,0.0573888,9.76566,1.05213,1.33,-3.29,-0.77,-22.1007,-47.324,11.7597,1014.67
333008,0.0573888,9.75131,0.985174,1.96,-3.22,-0.49,-22.3912,-48.6193,11.6858,1014.67
333014,0.0526064,9.74653,1.04735,1.68,-3.5,-0.28,-22.0135,-46.9848,13.0305,1014.73
333020,-0.0669536,9.74175,1.03778,2.03,-3.64,-0.14,-22.0426,-46.6764,12.0996,1014.73
333026,0.0334768,9.75131,1.01387,1.82,-3.15,-0.35,-21.752,-47.5091,11.0948,1014.7
333032,0.0334768,9.76566,1.0043,1.82,-3.78,0,-21.3161,-47.2932,12.0257,1014.7
333038,0.023912,9.77523,1.03778,1.82,-3.01,0.07,-21.9263,-46.954,11.5972,1014.67
333044,0.0669536,9.76566,0.989957,2.17,-3.22,0.28,-22.0716,-48.2184,12.0848,1014.67
333050,0.071736,9.75131,0.980392,1.96,-3.43,0.14,-22.0135,-48.1259,11.0061,1014.69
333056,0.0860832,9.78001,0.989957,1.82,-2.94,-0.14,-21.6358,-47.3549,12.7202,1014.69
333062,0.109995,9.78957,0.989957,2.17,-3.71,0.14,-22.0426,-47.7866,10.6071,1014.69
333068,0.124342,9.78957,1.0043,1.82,-2.94,0.28,-22.1588,-48.3418,11.6563,1014.68
333074,0.157819,9.81349,0.951698,1.82,-2.94,-0.42,-22.275,-47.5708,11.5085,1014.68
333080,0.13869,9.81827,0.97561,1.61,-3.08,-0.42,-22.0716,-46.6764,12.8679,1014.65
333086,0.109995,9.83261,0.989957,1.89,-3.08,-0.56,-21.3742,-48.095,10.5037,1014.65
333092,0.0765184,9.8374,0.999522,1.75,-3.08,-0.77,-21.8682,-47.6941,11.4494,1014.69
333098,0.0908656,9.81349,1.04256,1.54,-3.15,-0.77,-21.6067,-46.9231,11.3312,1014.69
333104,0.105213,9.77044,1.03778,1.89,-3.15,-0.63,-21.5195,-48.3109,12.336,1014.63
333110,0.071736,9.76566,1.033,1.89,-3.29,-0.7,-22.275,-48.496,11.6415,1014.63
333116,0.047824,9.77044,1.01865,1.82,-3.5,-0.77,-21.9263,-46.7381,12.6758,1014.66
333122,0.0334768,9.78479,0.994739,2.38,-3.08,-0.77,-22.275,-47.9408,11.4642,1014.66
333128,-0.0191296,9.77044,1.033,1.68,-2.8,-0.42,-22.3912,-48.5576,11.3755,1014.66
333134,0.0047824,9.76566,0.980392,2.17,-3.36,-0.21,-21.3452,-48.095,11.3755,1014.67
333140,0.0191296,9.73697,1.0043,1.89,-3.64,-0.56,-22.5946,-47.324,13.0305,1014.67
333146,0.047824,9.7561,1.01865,2.1,-3.29,0.84,-22.5946,-48.4343,11.0061,1014.68
333152,0.0191296,9.80392,0.989957,1.68,-3.57,0.14,-22.275,-47.5708,12.07,1014.68
333158,0.047824,9.78957,1.0043,1.47,-3.22,0.56,-21.1999,-46.6764,12.2473,1014.68
333164,0.0430416,9.79914,0.989957,1.82,-3.29,0.28,-22.0135,-47.2007,12.4099,1014.68
333170,0.0860832,9.80392,0.970827,1.82,-3.29,0,-21.4033,-47.725,11.5676,1014.68
333176,0.095648,9.79914,0.966045,1.89,-3.57,0.35,-21.2871,-46.8306,12.3508,1014.68
333182,0.0860832,9.78001,0.97561,1.89,-3.71,0.42,-21.3161,-47.3549,12.3951,1014.68
333188,0.124342,9.82783,1.02822,2.03,-3.29,0,-22.1297,-48.1876,11.4051,1014.7
333194,0.143472,9.81349,0.985174,1.61,-2.87,-0.49,-22.3331,-47.2624,13.2669,1014.7
333200,0.0908656,9.85653,1.01865,1.96,-3.15,-0.28,-22.275,-47.1698,13.0748,1014.71
333206,0.047824,9.76088,1.01865,1.75,-3.29,-0.35,-22.246,-48.8352,12.0848,1014.71
333212,0.071736,9.78957,1.04256,1.82,-3.5,-0.35,-22.6818,-48.2184,11.4346,1014.66
333218,0.0813008,9.7561,1.04256,2.17,-3.57,-0.42,-22.798,-46.6147,12.4985,1014.66
333224,0.0908656,9.79914,1.033,2.17,-3.15,-0.28,-22.4784,-47.8483,11.9666,1014.66
333230,0.0382592,9.78957,0.980392,2.03,-3.08,-0.56,-22.3041,-47.6633,12.5133,1014.66
333236,0.0382592,9.76566,0.999522,2.24,-3.64,-0.35,-22.4493,-47.3857,12.7793,1014.66
333242,0.0621712,9.78957,0.980392,2.03,-3.01,-0.35,-21.8101,-46.954,11.8631,1014.7
333248,0.0334768,9.77044,1.01865,1.89,-3.15,-0.07,-22.5656,-47.9717,11.2573,1014.7
333254,0.0382592,9.78957,0.97561,1.96,-2.8,0.49,-22.3041,-47.0157,12.4394,1014.7
333260,0.0286944,9.8087,0.999522,2.1,-3.29,0.21,-22.4203,-46.4914,12.7645,1014.7
333266,0.0573888,9.79914,0.97561,2.17,-3.5,0.14,-22.1007,-48.5885,11.9813,1014.69
333272,0.0669536,9.77523,0.999522,1.61,-3.08,0.7,-21.258,-47.4474,10.7845,1014.69
333278,0.095648,9.78479,0.97561,1.89,-3.15,0.56,-22.5365,-46.3372,12.4542,1014.7
333284,0.0621712,9.80392,0.994739,1.82,-2.94,0.07,-22.3041,-47.4166,11.9813,1014.7
333290,0.0908656,9.78001,1.033,2.03,-3.22,0.28,-22.3622,-47.3549,10.1343,1014.69
333296,0.0765184,9.76088,1.03778,2.24,-2.73,0.07,-21.8973,-46.3372,12.1143,1014.69
333302,0.124342,9.80392,0.999522,1.68,-3.22,0.07,-21.8973,-46.8923,12.2621,1014.69
333308,0.105213,9.81349,1.01865,2.03,-3.99,0.14,-22.246,-47.8175,11.2573,1014.68
333314,0.13869,9.82305,0.994739,2.03,-3.22,-0.21,-21.7229,-47.2624,11.2869,1014.68
333320,0.10043,9.78957,0.994739,2.1,-2.52,-0.35,-22.275,-46.7998,12.3803,1014.66
333326,0.10043,9.85653,0.989957,2.03,-3.22,-0.63,-22.6527,-48.866,12.5428,1014.66
333332,0.124342,9.8087,0.980392,1.89,-3.22,-0.28,-22.3331,-47.7866,12.7793,1014.7
333338,0.071736,9.85653,0.97561,1.75,-3.08,-0.7,-22.5946,-47.0773,10.947,1014.7
333344,0.047824,9.78479,1.00909,1.96,-3.43,-0.7,-21.9263,-48.2492,11.9075,1014.7
333350,0.0286944,9.78001,1.04256,1.54,-3.43,0.14,-22.769,-48.0642,11.9518,1014.7
333356,0.071736,9.79436,1.033,2.1,-3.36,-0.21,-21.9554,-46.2755,12.6906,1014.7
333362,0.0765184,9.78001,0.985174,2.03,-3.64,0.28,-22.5365,-47.2932,11.7006,1014.68
333368,0.0286944,9.74653,0.970827,1.96,-3.22,-0.28,-22.4493,-48.0334,11.4494,1014.68
333374,0.0382592,9.77523,0.985174,1.82,-3.01,-0.63,-22.3331,-47.8483,12.3951,1014.71
333380,0.0143472,9.76088,1.01387,1.75,-3.57,0.07,-21.8682,-47.1082,12.6758,1014.71
333386,0.0573888,9.76566,1.0043,1.75,-3.43,0.63,-21.8973,-48.6502,11.671,1014.67
333392,0.0334768,9.81349,1.01865,2.03,-3.71,-0.07,-21.9844,-47.8175,12.2621,1014.67
333398,0.0286944,9.78479,1.00909,1.75,-3.29,-0.14,-21.6067,-45.8129,12.0109,1014.7
333404,0.0573888,9.77044,0.966045,1.68,-3.08,0.56,-22.1588,-47.7558,12.203,1014.7
333410,0.071736,9.79914,0.999522,1.96,-3.22,0.42,-21.6939,-48.5885,11.08,1014.7
333416,0.0860832,9.79436,0.970827,1.75,-3.08,0,-22.1588,-46.2755,12.2769,1014.67
333422,0.071736,9.80392,1.0043,1.89,-3.15,0.14,-21.6358,-46.9848,11.0652,1014.67
333428,0.071736,9.78479,1.01387,2.03,-3.29,0.07,-21.8392,-47.9717,10.415,1014.66
333434,0.0765184,9.79436,1.0043,1.89,-3.15,0.35,-21.6648,-46.8923,12.1439,1014.66
333440,0.114778,9.83261,0.999522,1.96,-3.71,-0.21,-21.1999,-46.4297,11.5085,1014.67
333446,0.129125,9.79436,0.999522,1.82,-3.08,-0.35,-22.2169,-48.1567,11.1686,1014.67
333452,0.023912,9.81349,1.02822,2.03,-3.22,-0.35,-22.0716,-47.91,12.2769,1014.65
333458,0.0430416,9.80392,1.00909,1.75,-3.64,-0.21,-21.4614,-47.1082,12.4246,1014.65
333464,0.0860832,9.81349,1.0043,1.96,-3.5,-0.28,-21.4324,-47.3549,11.1982,1014.66
333470,0.095648,9.78479,1.01387,2.03,-3.36,-0.35,-22.1588,-47.9408,12.203,1014.66
333476,0.0621712,9.76566,1.01387,1.75,-3.01,-0.35,-21.781,-47.0157,13.7693,1014.66
333482,0.0430416,9.81827,0.946915,2.1,-3.15,-0.14,-21.6067,-47.3857,12.1143,1014.67
333488,0.071736,9.77523,0.985174,1.4,-3.22,0.21,-22.275,-48.2492,12.6463,1014.67
333494,0.0669536,9.76088,1.01865,1.54,-3.15,0.49,-21.752,-46.5531,12.8975,1014.69
333500,0.071736,9.7561,1.04256,1.61,-3.29,-0.07,-21.8101,-46.9848,11.7597,1014.69
333506,0.0669536,9.77523,0.999522,1.68,-3.01,0.14,-22.4784,-48.2492,11.5972,1014.69
333512,0.0382592,9.74175,1.01865,1.61,-2.94,0.21,-21.7229,-46.368,11.5676,1014.69
333518,0.0860832,9.77523,1.02343,1.96,-3.43,0.35,-22.3912,-46.8615,12.4246,1014.7
333524,0.047824,9.77044,0.999522,1.68,-2.94,0.07,-22.4493,-47.6016,12.4985,1014.7
333530,0.0573888,9.78957,1.033,2.03,-3.22,0.28,-22.0135,-47.8483,11.8779,1014.7
333536,0.095648,9.78957,0.999522,2.24,-3.15,0.56,-21.229,-46.183,13.9909,1014.7
333542,0.0621712,9.78957,1.04735,2.03,-3.08,0.56,-21.1709,-46.954,12.8679,1014.7
333548,0.0765184,9.78001,1.02822,2.31,-3.71,0.07,-22.3622,-47.9408,12.4394,1014.69
333554,0.0382592,9.81827,1.0043,2.1,-3.15,0.42,-21.3742,-46.368,12.1882,1014.69
333560,0.0908656,9.81349,0.97561,2.52,-3.22,0.91,-21.781,-46.7998,12.6463,1014.69
333566,0.095648,9.80392,0.989957,1.96,-3.43,0.35,-21.6939,-47.7866,11.1095,1014.69
333572,0.105213,9.79436,1.0043,2.17,-3.29,0.21,-22.275,-47.2932,11.6415,1014.69
333578,0.10043,9.83261,0.966045,2.24,-3.36,-0.21,-21.8392,-46.7073,12.0109,1014.69
333584,0.095648,9.8087,0.985174,1.82,-3.43,0,-22.1878,-47.6016,11.1391,1014.69
333590,0.0430416,9.8374,1.01865,1.89,-3.5,0.07,-22.5365,-47.3857,11.8484,1014.67
333596,0.0908656,9.77523,1.01865,1.82,-3.22,0,-21.4614,-46.5531,11.9222,1014.67
333602,0.0191296,9.78479,0.980392,2.24,-3.43,-0.14,-21.9844,-47.139,12.0404,1014.68
333608,0.0526064,9.73697,1.033,1.89,-2.66,0.49,-22.4784,-48.6502,11.7301,1014.68
333614,0.0908656,9.78479,0.97561,2.17,-3.36,0.07,-22.2169,-47.1698,11.346,1014.69
333620,0.0382592,9.79914,0.999522,1.75,-3.22,0.35,-21.9844,-48.3726,12.8384,1014.69
333626,0.0669536,9.81349,0.985174,2.03,-3.43,0.21,-21.229,-48.095,11.7597,1014.68
333632,0.0669536,9.78957,1.0043,1.61,-3.01,0.14,-21.7229,-47.4474,12.5281,1014.68
333638,0.0765184,9.77523,1.0043,1.82,-2.73,0.49,-21.8392,-46.5222,13.592,1014.68
333644,0.0813008,9.78957,1.01865,1.61,-3.36,0.21,-22.0135,-48.9586,10.7549,1014.68
333650,0.0669536,9.78479,1.0043,2.31,-3.64,0.14,-22.8271,-48.1567,11.5824,1014.68
333656,0.172166,9.79436,0.989957,1.89,-3.22,-0.14,-21.8101,-47.2624,12.6758,1014.68
333662,0.153037,9.81827,0.989957,2.1,-2.8,0.28,-21.1999,-47.6324,13.0009,1014.68
333668,0.148254,9.80392,0.961262,1.96,-2.73,0.14,-21.8682,-48.3726,11.0061,1014.67
333674,0.0573888,9.82305,0.966045,1.82,-3.22,-0.49,-21.3742,-47.2315,11.5381,1014.67
333680,0.0813008,9.82783,1.02343,1.54,-3.22,-0.28,-21.8682,-47.0157,11.346,1014.67
333686,0.10043,9.79914,0.980392,1.89,-3.43,-0.28,-21.6939,-48.1876,12.7202,1014.67
333692,0.0765184,9.80392,1.02822,1.82,-3.22,-0.7,-22.3912,-47.9717,11.7449,1014.71
333698,0.047824,9.79914,1.033,1.75,-2.87,-0.07,-21.8973,-46.2755,12.6315,1014.71
333704,0.023912,9.79914,1.02343,1.75,-3.15,-0.21,-22.5946,-47.6016,12.2916,1014.71
333710,0.0669536,9.76088,1.01387,2.1,-3.15,-0.07,-22.9433,-47.8483,12.3655,1014.7
333716,0.0669536,9.78957,1.00909,1.75,-3.29,0.42,-22.3331,-46.3372,12.6611,1014.7
333722,0.0573888,9.75131,0.989957,1.96,-3.36,0.28,-21.8392,-47.6941,11.937,1014.69
333728,0.0526064,9.79436,0.989957,1.75,-3.57,0.07,-21.6358,-47.8483,12.2621,1014.69
333734,0.0765184,9.79914,0.980392,1.82,-3.29,0.28,-21.781,-47.3857,12.8384,1014.69
333740,0.0765184,9.78957,0.989957,1.96,-3.15,0.49,-21.4905,-46.9231,13.2669,1014.69
333746,0.105213,9.76566,0.985174,1.82,-3.08,0.56,-22.2169,-48.4343,10.8731,1014.67
333752,0.0573888,9.76566,1.00909,1.75,-3.22,0.14,-22.5946,-47.6941,10.8879,1014.67
333758,0.109995,9.8087,0.961262,1.82,-3.29,0.42,-21.8682,-47.4474,11.6858,1014.67
333764,0.0860832,9.81827,0.989957,1.68,-3.01,0.28,-22.7109,-48.0642,11.6563,1014.67
333770,0.13869,9.8087,0.97561,1.82,-2.87,-0.14,-22.1007,-47.8483,11.8188,1014.67
333776,0.148254,9.8087,1.033,2.17,-3.22,-0.14,-21.5195,-46.3063,11.213,1014.71
333782,0.13869,9.82305,0.994739,1.54,-2.87,-0.28,-22.1878,-47.6941,12.2178,1014.71
333788,0.071736,9.82783,0.980392,1.54,-3.36,-0.63,-22.3912,-47.7866,10.8436,1014.68
333794,0.114778,9.80392,1.04735,2.17,-3.15,-0.42,-22.3331,-47.2315,11.5381,1014.68
333800,0.124342,9.81827,1.02343,1.89,-3.08,-0.7,-22.2169,-47.139,12.6463,1014.69
333806,0.095648,9.81827,1.01387,1.89,-2.87,-0.91,-20.9675,-48.496,11.0357,1014.69
333812,0.0526064,9.81349,0.999522,2.1,-3.5,-0.77,-22.4203,-47.2932,11.5824,1014.68
333818,-0.0047824,9.78957,1.01387,2.03,-3.15,-0.35,-22.6237,-46.368,12.8384,1014.68
333824,0.0382592,9.7561,1.03778,1.61,-3.08,-0.56,-22.798,-48.4651,12.3655,1014.68
333830,0.047824,9.7561,1.00909,1.82,-3.15,-0.63,-21.6067,-48.4034,12.3508,1014.67
333836,0.071736,9.75131,1.00909,2.24,-2.94,-0.63,-22.1878,-47.2932,12.3212,1014.67
333842,0.0526064,9.77523,1.0043,2.03,-3.64,-0.21,-21.9844,-47.3549,12.7497,1014.68
333848,0.047824,9.76088,1.0043,1.96,-3.15,0.35,-22.5365,-48.496,11.6267,1014.68
333854,0.0526064,9.76088,0.994739,1.68,-3.22,0.14,-21.9263,-47.1698,11.7006,1014.67
333860,0.0526064,9.73218,1.01387,1.82,-3.64,-0.07,-22.0426,-47.1698,11.0061,1014.67
333866,0.0669536,9.8087,0.999522,2.1,-3.92,0.56,-22.4493,-48.1259,11.08,1014.65
333872,0.109995,9.79436,0.961262,1.68,-3.08,0.49,-21.9844,-47.8792,12.0257,1014.65
333878,0.10043,9.78479,1.0043,1.75,-3.43,0.49,-22.1588,-47.2007,12.5281,1014.65
333884,0.0860832,9.80392,0.985174,1.82,-3.36,0.21,-21.258,-48.095,11.3312,1014.68
333890,0.129125,9.79436,1.0043,1.96,-3.36,0,-21.9554,-48.5268,11.5381,1014.68
333896,0.129125,9.81827,1.0043,1.96,-3.22,0.14,-21.9554,-47.139,11.4346,1014.7
333902,0.124342,9.80392,0.999522,1.89,-3.5,-0.35,-22.4203,-48.0642,12.4099,1014.7
333908,0.0908656,9.77523,1.03778,1.61,-3.08,-0.35,-22.1007,-48.681,11.2425,1014.68
333914,0.0669536,9.79914,1.033,1.75,-2.87,-0.42,-21.3452,-47.2007,11.2573,1014.68
333920,0.071736,9.78479,0.961262,2.38,-3.22,-0.42,-21.8682,-46.8923,12.7349,1014.7
333926,0.095648,9.78479,1.0043,1.4,-2.87,-0.21,-22.8271,-48.681,11.3312,1014.7
333932,0.0621712,9.78957,1.02343,2.24,-3.36,-0.07,-22.4784,-47.9408,11.3607,1014.7
333938,0.071736,9.77044,1.00909,1.96,-3.36,-0.35,-22.9143,-46.2447,11.7301,1014.69
333944,0.10043,9.78957,0.989957,1.82,-2.8,0,-22.6527,-47.1698,10.223,1014.69
333950,0.047824,9.78001,1.00909,1.96,-2.94,0.14,-22.6237,-48.2801,11.2277,1014.69
333956,0.0382592,9.76088,0.980392,2.1,-3.36,-0.28,-21.8392,-46.6456,11.6858,1014.69
333962,0.0669536,9.79914,0.966045,1.89,-3.08,-0.07,-22.8561,-48.2492,10.8436,1014.67
333968,0.0765184,9.78479,0.970827,1.82,-3.08,0.77,-22.6237,-48.496,10.9174,1014.67
333974,0.071736,9.76566,0.97561,1.54,-3.36,0.07,-22.246,-46.7073,10.9765,1014.68
333980,0.105213,9.76566,1.00909,1.68,-2.8,0.63,-22.0135,-46.8923,12.0996,1014.68
333986,0.0813008,9.79914,0.970827,1.96,-3.5,-0.14,-22.3331,-47.8792,11.5972,1014.68
333992,0.071736,9.81827,0.970827,1.89,-3.5,-0.14,-22.4203,-48.5268,12.3064,1014.68
333998,0.133907,9.77044,1.04735,1.82,-3.22,0.7,-22.5075,-46.4605,12.203,1014.68
334004,0.124342,9.8087,1.01865,1.96,-2.87,0.07,-22.3331,-48.8352,12.9418,1014.73
334010,0.0908656,9.80392,0.970827,2.03,-2.45,-0.42,-22.246,-48.0642,11.3164,1014.73
334016,0.0526064,9.78001,1.01387,1.75,-2.8,-0.21,-21.9554,-46.5222,13.2226,1014.69
334022,0.105213,9.8087,1.01387,1.82,-3.29,-0.14,-22.3622,-46.4605,12.6611,1014.69
334028,0.105213,9.79914,1.00909,1.82,-3.15,-0.56,-22.4493,-47.9408,12.4837,1014.7
334034,0.0573888,9.77044,1.01387,2.03,-2.87,-0.7,-22.5365,-47.3549,13.4294,1014.7
334040,0.023912,9.78957,1.00909,1.96,-2.87,-0.28,-22.1588,-47.0157,12.1439,1014.71
334046,0.0621712,9.79436,1.02343,1.82,-3.15,-0.42,-22.769,-47.2624,12.1439,1014.71
334052,0.0526064,9.77044,0.985174,2.03,-3.36,0,-22.3331,-47.6941,12.3508,1014.71
334058,0.0669536,9.78479,0.999522,1.82,-3.01,0.35,-22.9143,-46.7381,12.3655,1014.7
334064,0.0669536,9.76088,1.01387,2.03,-2.66,0,-22.3912,-47.4166,12.0848,1014.7
334070,0.0191296,9.75131,1.00909,2.17,-3.36,-0.07,-22.3331,-47.139,11.6119,1014.68
334076,0.071736,9.77044,1.01387,2.24,-3.57,0,-21.6648,-46.0596,13.6363,1014.68
334082,0.0621712,9.78479,0.985174,1.96,-3.29,0.21,-21.5776,-46.8615,12.2325,1014.68
334088,0.0765184,9.77044,0.999522,2.24,-3.08,0.35,-22.0135,-47.7866,10.4446,1014.68
334094,0.0860832,9.77523,0.999522,2.1,-3.08,0.28,-21.5486,-47.2932,12.7793,1014.72
334100,0.0813008,9.81827,0.989957,1.96,-3.22,0.21,-21.781,-45.8129,12.9418,1014.72
334106,0.0908656,9.83261,0.970827,1.89,-2.94,0.56,-22.1588,-48.0642,10.8583,1014.72
334112,0.124342,9.80392,0.994739,2.1,-3.01,0.21,-21.8682,-47.4782,11.7597,1014.66
334118,0.0908656,9.81827,0.980392,1.89,-2.87,-0.21,-21.4033,-46.6764,12.3064,1014.66
334124,0.114778,9.79436,0.985174,2.03,-3.15,-0.35,-21.6067,-47.324,11.2425,1014.69
334130,0.10043,9.82783,0.999522,2.03,-3.57,0.07,-21.5776,-47.3857,11.7449,1014.69
334136,0.0765184,9.78001,0.994739,1.75,-3.15,0.28,-22.4203,-46.9848,13.1339,1014.67
334142,0.0908656,9.79914,0.999522,1.89,-3.5,0.21,-21.8973,-47.4782,12.336,1014.67
334148,0.10043,9.78001,0.989957,1.82,-3.08,-0.35,-22.1878,-48.5576,11.5972,1014.69
334154,0.0813008,9.75131,1.02343,2.03,-3.22,0,-21.8682,-46.3989,11.8484,1014.69
334160,0.047824,9.7561,1.00909,2.38,-3.71,-0.21,-21.5486,-46.4297,11.5381,1014.7
334166,0.0382592,9.80392,0.999522,1.75,-3.15,0.14,-22.1007,-47.9717,10.6515,1014.7
334172,0.095648,9.78001,1.01865,2.31,-3.29,0.49,-21.229,-47.2932,11.1539,1014.7
334178,0.0860832,9.78001,1.01865,2.38,-2.94,0.21,-21.5486,-45.412,11.7597,1014.7
334184,0.0813008,9.74653,0.994739,2.73,-3.57,0.7,-22.5075,-47.4474,11.1391,1014.7
334190,0.0573888,9.79914,0.999522,2.17,-3.57,0.42,-22.3622,-47.5708,11.9813,1014.69
334196,0.0526064,9.8087,1.01865,2.31,-3.57,0.35,-21.8101,-47.2007,13.0748,1014.69
334202,0.0908656,9.84696,0.985174,1.96,-2.94,0.35,-21.1127,-46.9848,11.8631,1014.7
334208,0.143472,9.84218,0.951698,1.89,-2.8,0.14,-22.0426,-48.6193,10.6367,1014.7
334214,0.114778,9.85653,0.93735,1.54,-3.22,-0.07,-21.6067,-47.0465,11.2277,1014.68
334220,0.133907,9.79436,1.01387,1.75,-3.29,0,-21.752,-46.7689,12.1734,1014.68
334226,0.095648,9.76088,1.06648,2.03,-2.94,0,-21.781,-48.8044,12.8088,1014.68
334232,0.129125,9.82305,0.999522,2.03,-2.8,-0.63,-22.3912,-47.2315,12.4246,1014.7
334238,0.143472,9.8087,0.994739,2.03,-3.08,-0.35,-21.8101,-45.9363,12.5281,1014.7
334244,0.0573888,9.82783,0.980392,2.1,-3.08,-0.35,-22.4203,-47.9717,12.3212,1014.69
334250,0.0526064,9.79914,1.01387,1.61,-3.01,-0.14,-21.8973,-47.7866,11.8779,1014.69
334256,0.047824,9.7561,1.04735,1.75,-3.5,-0.28,-21.0256,-46.9848,12.2178,1014.68
334262,0.105213,9.78957,0.985174,1.61,-2.87,-0.98,-21.8392,-47.1082,12.3803,1014.68
334268,0.0573888,9.78001,0.994739,1.96,-3.43,-0.14,-21.4033,-48.6193,11.7892,1014.69
334274,0.0286944,9.75131,1.02343,1.96,-3.29,0.21,-21.9554,-47.2624,12.2621,1014.69
334280,0.0765184,9.76088,1.01387,1.68,-2.94,-0.21,-21.9844,-47.2007,13.0305,1014.69
334286,0.0813008,9.77044,0.994739,2.1,-2.94,-0.35,-21.9263,-47.8483,12.07,1014.72
334292,0.0430416,9.77044,1.01387,2.24,-3.5,0.07,-21.8392,-47.725,12.3508,1014.72
334298,0.0813008,9.74175,1.02343,2.17,-3.36,0.07,-21.9554,-46.4914,12.1291,1014.68
334304,0.0382592,9.74653,1.01387,1.89,-3.29,-0.14,-22.6818,-47.6941,12.0404,1014.68
334310,0.148254,9.75131,1.01387,2.38,-3.15,0.14,-21.5486,-48.4034,10.7549,1014.67
334316,0.162602,9.80392,0.946915,2.03,-2.94,-0.35,-22.2169,-47.725,10.9913,1014.67
334322,0.200861,9.87566,0.879962,1.82,-2.87,0,-22.0135,-47.725,11.804,1014.68
334328,0.0860832,9.83261,0.951698,1.96,-3.29,-0.35,-22.3041,-47.7558,11.1834,1014.68
334334,0.105213,9.78957,1.04256,1.33,-2.94,-0.63,-21.8682,-47.5091,12.2473,1014.66
334340,0.0908656,9.79914,1.04735,1.68,-3.08,-0.91,-21.5486,-46.6764,12.6906,1014.66
334346,0.0908656,9.80392,0.951698,1.89,-3.22,-0.42,-21.5486,-48.3418,12.3655,1014.66
334352,0.0669536,9.81827,1.01387,1.19,-2.8,-0.35,-22.246,-47.5091,11.2869,1014.69
334358,0.0526064,9.74175,1.03778,1.82,-3.15,-0.63,-22.1297,-47.6324,11.9075,1014.69
334364,0.0573888,9.73697,1.01865,2.03,-3.29,-0.49,-21.8101,-47.6324,11.9075,1014.68
334370,0,9.76566,1.04256,1.75,-3.15,0,-22.0426,-47.4474,12.07,1014.68
334376,0.0621712,9.78479,0.994739,1.96,-3.29,-0.14,-21.258,-47.0465,11.7301,1014.67
334382,0.0430416,9.74175,1.08082,2.1,-3.5,17.71,-21.4324,-46.3063,13.2226,1014.67
334388,0.0526064,9.7561,1.02822,2.03,-3.22,0.07,-22.4784,-47.725,10.8731,1014.69
334394,0.0286944,9.74175,0.994739,2.17,-3.64,0.56,-22.3912,-47.2932,11.8779,1014.69
334400,0.0908656,9.77523,0.966045,1.75,-2.94,1.26,-22.1878,-46.7689,12.4246,1014.69
334406,0.109995,9.81349,1.02343,1.75,-3.29,0.56,-21.781,-47.5708,10.6071,1014.68
334412,0.0813008,9.78957,1.0043,2.31,-3.64,0.28,-21.8973,-47.6016,11.9666,1014.68
334418,0.133907,9.78479,1.00909,1.89,-3.22,0.56,-22.0716,-46.5531,12.602,1014.71
334424,0.124342,9.81827,0.95648,2.38,-3.15,0.49,-22.0716,-47.0465,11.8336,1014.71
334430,0.13869,9.83261,0.999522,1.96,-2.8,0,-21.8682,-47.7558,12.0257,1014.67
334436,0.0765184,9.82305,0.985174,2.1,-3.36,0.07,-22.2169,-46.7073,11.6858,1014.67
334442,0.124342,9.8087,1.04256,2.1,-2.87,0.21,-21.5776,-46.6147,11.2573,1014.67
334448,0.11956,9.82783,1.04256,2.24,-3.15,-0.28,-21.752,-48.3726,10.5185,1014.67
334454,0.0908656,9.81349,0.95648,2.1,-2.94,0.42,-21.7229,-46.5531,11.2277,1014.67
334460,0.0860832,9.76566,1.0043,1.96,-2.87,-0.21,-20.7059,-46.4605,11.213,1014.67
334466,0.0860832,9.78479,1.04256,1.61,-3.08,-0.21,-22.246,-47.3857,11.8779,1014.67
334472,0.0621712,9.79436,1.01865,2.17,-3.43,0.56,-21.6358,-48.0025,11.4051,1014.67
334478,0.0765184,9.79914,0.999522,2.03,-3.71,0.28,-21.9554,-46.5839,12.3951,1014.67
334484,0.0860832,9.76566,0.994739,2.24,-3.5,-0.07,-22.0716,-46.7689,11.671,1014.66
334490,0.0813008,9.77523,0.985174,1.82,-2.73,0.35,-21.6939,-47.3549,11.3903,1014.66
334496,0.0813008,9.76088,0.970827,2.24,-3.01,0.63,-21.258,-46.954,12.3655,1014.64
334502,0.0430416,9.78957,0.999522,2.1,-3.71,0.07,-22.275,-46.8923,10.6662,1014.64
334508,0.071736,9.78479,1.01865,2.17,-3.78,0.42,-22.246,-48.0642,11.7301,1014.67
334514,0.0813008,9.77523,1.00909,2.17,-3.5,0.84,-22.2169,-46.8306,10.8583,1014.67
334520,0.105213,9.78001,1.00909,2.1,-3.43,0.84,-22.1297,-46.6147,13.3555,1014.67
334526,0.109995,9.77044,0.985174,2.31,-3.22,0.56,-22.5656,-48.095,12.5576,1014.7
334532,0.11956,9.76566,0.994739,2.17,-3.5,0.28,-23.2339,-47.5091,12.2769,1014.7
334538,0.109995,9.79436,0.989957,2.24,-2.73,0.63,-22.0716,-46.8306,13.0452,1014.69
334544,0.162602,9.79436,1.0043,2.52,-3.15,0,-22.9724,-47.9408,12.5576,1014.69
334550,0.167384,9.81349,0.980392,2.17,-3.08,0,-22.0135,-48.3109,10.7253,1014.7
334556,0.129125,9.85174,0.93735,2.38,-3.22,0.21,-22.0426,-47.0157,12.0996,1014.7
334562,0.124342,9.83261,0.93735,2.1,-3.08,0.14,-22.275,-47.1698,12.7054,1014.69
334568,0.0430416,9.78001,0.970827,2.1,-3.08,-0.63,-22.3622,-47.8792,12.2916,1014.69
334574,0.0765184,9.77523,1.033,1.82,-2.94,0.28,-22.1297,-46.5839,11.9222,1014.69
334580,0.0382592,9.78479,1.01865,2.24,-3.64,0.35,-22.3331,-46.5222,13.1191,1014.66
334586,0.0860832,9.79914,0.980392,2.17,-3.43,0.14,-22.275,-47.6941,10.681,1014.66
334592,0.0430416,9.7561,1.02343,1.47,-3.29,0.63,-22.1007,-46.8923,12.3803,1014.66
334598,0.0908656,9.7561,1.0043,1.75,-3.01,0.35,-22.5365,-46.4297,12.8679,1014.66
334604,0.0813008,9.73697,0.989957,2.38,-3.5,0.49,-21.752,-47.6324,11.9666,1014.69
334610,0.0669536,9.78479,0.97561,2.45,-3.43,0.49,-22.0716,-47.6016,11.5676,1014.69
334616,0.0860832,9.76088,0.999522,2.45,-3.08,0.91,-21.8682,-46.6456,11.7892,1014.66
334622,0.109995,9.75131,1.01865,2.03,-3.64,0.7,-21.9554,-47.5708,11.9222,1014.66
334628,0.114778,9.77523,1.02343,2.03,-3.29,0.56,-22.1878,-48.5268,10.4594,1014.66
334634,0.10043,9.78479,1.0043,2.17,-3.5,0.77,-21.8682,-46.4297,11.2869,1014.69
334640,0.11956,9.79436,0.989957,2.31,-3.36,0.7,-21.6648,-46.6764,10.9322,1014.69
334646,0.0860832,9.77523,1.06169,2.59,-4.34,0.56,-21.4905,-47.7866,11.2277,1014.7
334652,0.176949,9.84218,0.884744,2.17,-3.71,0.84,-22.0716,-47.725,11.3903,1014.7
334658,0.148254,9.82783,0.966045,1.89,-2.87,0.21,-22.275,-46.7689,11.5381,1014.67
334664,0.224773,9.81827,0.932568,2.38,-3.36,0.7,-22.275,-47.4166,11.9518,1014.67
334670,0.143472,9.82783,0.95648,1.75,-2.94,0.14,-21.5776,-48.0334,11.0061,1014.71
334676,0.071736,9.82783,0.942133,2.17,-3.36,-0.21,-21.3452,-46.4297,12.0552,1014.71
334682,0.0860832,9.78001,1.0043,1.61,-3.22,0.35,-22.0426,-46.8923,12.5724,1014.68
334688,0.114778,9.78957,1.0043,1.89,-3.29,-0.14,-21.7229,-47.8483,12.0552,1014.68
334694,0.13869,9.79436,0.966045,1.89,-3.43,-0.28,-22.275,-46.183,12.0257,1014.68
334700,0.105213,9.78957,0.95648,2.1,-3.22,0.56,-22.3041,-46.8615,12.336,1014.69
334706,0.0860832,9.79914,1.01865,1.75,-3.29,0.21,-22.4203,-47.8483,10.947,1014.69
334712,0.0908656,9.77044,0.994739,1.61,-3.64,0.49,-22.3331,-47.4166,11.9813,1014.69
334718,0.10043,9.7561,1.00909,2.45,-3.08,0.35,-22.246,-46.4605,11.9961,1014.69
334724,0.095648,9.78001,0.999522,2.03,-3.15,17.85,-22.1588,-47.5091,11.3903,1014.7
334730,0.0669536,9.77523,0.994739,2.17,-3.15,0.35,-22.4203,-48.496,11.3016,1014.7
334736,0.105213,9.78479,0.980392,2.1,-2.66,0,-21.8682,-46.5839,11.3903,1014.7
334742,0.105213,9.80392,0.980392,2.17,-3.29,0.77,-21.5776,-46.6147,12.6906,1014.7
334748,0.124342,9.78957,0.980392,2.03,-3.36,0.21,-22.3041,-47.91,10.0752,1014.7
334754,0.13869,9.77044,0.980392,2.38,-3.29,-0.07,-21.6939,-47.3549,11.8631,1014.71
334760,0.181731,9.85174,0.942133,2.31,-3.01,0.21,-22.7109,-47.0465,10.8879,1014.71
334766,0.153037,9.86131,0.95648,1.68,-2.73,0.07,-21.8973,-47.91,10.8879,1014.69
334772,0.0765184,9.78479,0.970827,2.03,-3.08,-0.42,-22.8852,-48.8044,11.9222,1014.69
334778,0.10043,9.83261,1.03778,1.89,-2.8,-0.07,-21.8973,-46.5839,12.469,1014.66
334784,0.172166,9.81827,0.966045,1.75,-2.38,-0.28,-22.1878,-47.4474,11.671,1014.66
334790,0.11956,9.79914,0.946915,1.89,-3.22,-0.56,-23.0595,-47.4166,10.0309,1014.69
334796,0.0286944,9.78479,0.989957,2.1,-3.22,-0.35,-22.6527,-46.954,11.4789,1014.69
334802,0.0573888,9.75131,1.02822,2.17,-3.71,-0.07,-21.9844,-47.5091,12.8532,1014.69
334808,0.0573888,9.72262,1.02343,1.89,-3.22,-0.07,-22.2169,-48.5885,10.6071,1014.69
334814,0.0908656,9.78001,0.970827,2.45,-3.57,-0.28,-22.5075,-47.1698,10.9913,1014.69
334820,0.0765184,9.77044,0.989957,2.03,-3.78,-0.07,-21.6648,-47.2624,12.0848,1014.67
334826,0.0813008,9.77523,0.970827,2.03,-3.15,0.35,-21.8392,-47.6324,11.7449,1014.67
334832,0.10043,9.78001,0.985174,2.45,-3.01,0.49,-22.5946,-47.6633,12.1734,1014.68
334838,0.071736,9.77044,1.00909,2.17,-3.78,0.21,-21.6358,-47.324,11.7006,1014.68
334844,0.0908656,9.77523,0.970827,2.1,-3.64,0.35,-21.3742,-47.3549,12.1143,1014.66
334850,0.124342,9.79436,0.989957,2.03,-3.5,0.56,-21.5486,-47.9717,11.5085,1014.66
334856,0.133907,9.81827,1.00909,2.31,-3.36,0.07,-21.8392,-47.1082,12.4246,1014.69
334862,0.224773,9.83261,0.93735,1.82,-3.29,0.07,-21.752,-46.954,12.336,1014.69
334868,0.148254,9.82783,0.942133,2.1,-3.5,-0.49,-22.0716,-48.4034,13.0157,1014.69
334874,0.133907,9.85174,0.966045,1.47,-3.22,-0.63,-22.0716,-47.6324,10.947,1014.69
334880,0.133907,9.86131,0.927786,2.03,-3.71,-0.35,-21.3161,-46.4605,12.3508,1014.69
334886,0.176949,9.8374,0.999522,1.47,-2.87,-0.56,-22.0135,-48.7427,12.2325,1014.68
334892,0.13869,9.82305,0.951698,1.96,-3.01,-1.47,-22.769,-48.3418,11.6563,1014.68
334898,0.153037,9.84218,0.946915,1.75,-3.15,-1.54,-21.9263,-45.7512,11.7745,1014.71
334904,0.11956,9.81349,0.970827,1.19,-2.94,-0.63,-21.8973,-46.9231,11.7301,1014.71
334910,0.071736,9.77523,1.05691,1.33,-3.01,-0.91,-22.0135,-46.8923,12.1882,1014.66
334916,0.0813008,9.73697,1.00909,1.54,-3.22,-0.77,-22.0716,-46.6147,13.1487,1014.66
334922,0.0191296,9.7561,1.0043,1.68,-3.5,-0.7,-22.4493,-47.2624,12.9861,1014.66
334928,0.109995,9.77044,0.970827,1.47,-3.08,-0.21,-23.1758,-48.1259,11.3164,1014.68
334934,0.0334768,9.79914,1.01387,1.82,-3.15,0.14,-22.1297,-47.1082,11.8927,1014.68
334940,0.0334768,9.73218,1.00909,1.47,-3.43,-0.14,-22.3331,-46.8615,11.8631,1014.67
334946,0.0382592,9.71784,1.0043,1.89,-3.92,0.21,-22.7399,-48.2801,11.6563,1014.67
334952,0.047824,9.77523,1.01387,1.75,-3.15,0.56,-22.8561,-47.2624,11.4494,1014.69
334958,0.109995,9.77523,0.985174,2.17,-3.5,0.35,-22.1297,-46.4914,12.203,1014.69
334964,0.105213,9.81827,0.927786,1.61,-3.43,0.07,-21.6358,-46.954,12.4099,1014.72
334970,0.13869,9.8087,0.961262,1.82,-3.01,0.07,-22.1588,-47.6941,9.54324,1014.72
334976,0.176949,9.79914,0.95648,1.61,-3.22,0.42,-22.4203,-47.1698,11.4494,1014.72
334982,0.186514,9.8374,0.985174,1.61,-2.87,-0.21,-21.6939,-47.2315,12.4837,1014.68
334988,0.191296,9.8087,0.999522,1.75,-3.08,-0.63,-22.3622,-48.0642,12.2325,1014.68
334994,0.0813008,9.8374,0.980392,1.96,-3.5,0,-22.4203,-47.5708,13.6215,1014.67
335000,0.095648,9.78957,0.970827,1.4,-2.73,-0.91,-21.8682,-46.6147,12.3064,1014.67
335006,0.105213,9.80392,0.989957,1.82,-3.36,-0.56,-22.9143,-48.1259,10.7106,1014.68
335012,0.133907,9.78479,1.02343,1.96,-3.5,-0.35,-22.4203,-47.7558,11.0061,1014.68
335018,0.124342,9.78001,1.01865,1.75,-3.36,-0.84,-22.4493,-46.954,14.4933,1014.69
335024,0.0860832,9.78957,0.989957,2.17,-2.45,-0.49,-22.8852,-47.6016,12.4542,1014.69
