Timestamp,AccX,AccY,AccZ,AngularVelX,AngularVelY,AngularVelZ,MagX,MagY,MagZ,AirPressure
422012,-0.526064,9.72262,1.32472,0.91,0.21,-0.84,27.415,-38.3001,-5.57086,1014.5
422018,-0.626494,9.74653,1.33907,0.7,-0.63,-1.05,27.1285,-39.7182,-6.02453,1014.5
422024,-0.612147,9.77523,1.28168,0.42,-0.35,-0.49,27.2431,-38.9657,-5.78352,1014.5
422030,-0.626494,9.77044,1.26734,0.28,-0.49,-0.07,27.2717,-37.8082,-5.61339,1014.47
422036,-0.61693,9.73697,1.3582,0.07,-0.42,-0.49,27.816,-38.9947,-6.12377,1014.47
422042,-0.506934,9.7274,1.30081,-0.14,-0.14,-0.21,26.842,-39.1973,-5.76934,1014.51
422048,-0.573888,9.72262,1.3582,0.35,-0.21,-0.35,27.4723,-38.3001,-6.13795,1014.51
422054,-0.521282,9.69871,1.36777,0.21,-0.28,-0.42,27.5582,-38.3001,-6.43567,1014.48
422060,-0.559541,9.74175,1.32472,0.56,0.14,-0.14,27.2717,-39.7182,-5.72681,1014.48
422066,-0.535629,9.70827,1.34864,0.21,-0.28,-0.56,27.8733,-37.9818,-6.39314,1014.49
422072,-0.492587,9.70349,1.31994,0.35,0.28,-0.56,27.9306,-38.4159,-6.20883,1014.49
422078,-0.545194,9.70349,1.34864,0.7,-0.56,-0.21,27.9593,-39.0526,-6.37896,1014.49
422084,-0.492587,9.69871,1.32951,0.35,0.28,-0.84,27.5295,-38.2423,-6.83263,1014.49
422090,-0.549976,9.7274,1.32472,0.84,-0.14,-0.63,27.4436,-37.9239,-7.27212,1014.49
422096,-0.526064,9.69871,1.31516,0.7,-0.07,-0.21,27.5868,-39.5445,-7.27212,1014.44
422102,-0.516499,9.69871,1.33907,0.28,-0.07,-0.91,27.6728,-40.0944,-6.22301,1014.44
422108,-0.545194,9.69871,1.36777,0.84,-0.28,-0.77,27.3863,-37.9529,-7.24376,1014.48
422114,-0.554758,9.70827,1.32472,0.7,0.35,-0.49,27.5582,-39.0815,-5.95365,1014.48
422120,-0.57867,9.7274,1.3056,0.56,0.42,-0.49,27.4436,-38.8789,-6.64832,1014.51
422126,-0.583453,9.72262,1.31516,0.7,-0.42,-0.56,27.1858,-38.2133,-6.01035,1014.51
422132,-0.569106,9.76088,1.2769,0.77,0.14,-0.49,26.8993,-38.1555,-7.343,1014.48
422138,-0.545194,9.73218,1.3056,0.63,-0.14,-0.49,27.2717,-39.6603,-5.88276,1014.48
422144,-0.554758,9.73218,1.28647,0.21,-0.14,-0.42,26.6415,-39.0236,-7.35718,1014.48
422150,-0.554758,9.7274,1.29603,0.14,-0.49,-0.42,27.5582,-38.4738,-6.93187,1014.48
422156,-0.506934,9.70827,1.28647,0.56,-0.28,-0.49,27.4436,-39.6024,-6.1663,1014.48
422162,-0.554758,9.7561,1.31994,0.49,-0.14,-0.28,26.6988,-39.7182,-5.71263,1014.51
422168,-0.530846,9.75131,1.31516,0.42,0.21,-0.49,27.0139,-38.2423,-6.32225,1014.51
422174,-0.569106,9.74175,1.32951,0.28,-0.07,-0.49,26.5842,-39.1104,-5.8544,1014.5
422180,-0.530846,9.70827,1.33907,0.56,0.07,-0.35,26.4983,-39.313,-5.61339,1014.5
422186,-0.559541,9.70827,1.37733,0.56,0.56,-0.42,27.3577,-37.9529,-6.23719,1014.49
422192,-0.540411,9.69392,1.37733,0.7,0.14,-0.7,26.6129,-38.1844,-6.52073,1014.49
422198,-0.540411,9.70827,1.36298,0.77,0.07,-0.77,27.0426,-39.8629,-5.51415,1014.51
422204,-0.545194,9.68436,1.34385,1.26,-0.42,-0.63,26.9566,-38.9079,-6.03871,1014.51
422210,-0.521282,9.71305,1.31516,0.7,-0.21,-0.49,27.3863,-38.358,-6.02453,1014.5
422216,-0.573888,9.71305,1.3056,0.91,0.14,-0.63,26.842,-39.4577,-6.20883,1014.5
422222,-0.5978,9.7561,1.28168,0.98,-0.42,-0.56,27.0426,-39.342,-6.84681,1014.48
422228,-0.650406,9.7561,1.25299,0.35,-0.56,-0.49,27.5582,-37.5477,-7.52731,1014.48
422234,-0.573888,9.76088,1.25777,0.49,0,-0.21,27.6728,-39.5156,-6.03871,1014.48
422240,-0.549976,9.77523,1.27212,-0.21,-0.14,-0.07,27.3004,-39.1973,-5.45745,1014.51
422246,-0.554758,9.73697,1.31038,0.35,0,-0.21,27.4436,-38.4159,-7.38554,1014.51
422252,-0.588235,9.7561,1.30081,0.14,-0.07,-0.07,26.9853,-38.387,-7.01693,1014.48
422258,-0.564323,9.71784,1.3056,0.35,-0.28,-0.14,27.5868,-39.6892,-6.76174,1014.48
422264,-0.530846,9.70827,1.31038,0.42,-0.56,-0.28,27.5009,-38.358,-6.98858,1014.53
422270,-0.511717,9.70827,1.29125,0.14,0.14,-0.28,27.5009,-38.1555,-7.03111,1014.53
422276,-0.540411,9.69871,1.34864,0,0.21,-0.49,27.2431,-39.6024,-6.53491,1014.5
422282,-0.511717,9.70349,1.35342,0.28,0.35,-0.21,27.5582,-39.8629,-6.43567,1014.5
422288,-0.540411,9.69392,1.37733,0.49,0.14,-0.56,27.6441,-38.5606,-6.49238,1014.46
422294,-0.535629,9.69392,1.32951,0.14,0.14,-0.77,27.4436,-38.6185,-5.4858,1014.46
422300,-0.526064,9.69392,1.35342,0.56,-0.35,-0.77,27.3863,-39.3709,-5.71263,1014.52
422306,-0.559541,9.70827,1.34385,0.84,-0.07,-0.84,27.5868,-38.5606,-6.08124,1014.52
422312,-0.540411,9.71784,1.32472,0.42,0.14,-0.7,27.2717,-38.5317,-7.04529,1014.48
422318,-0.549976,9.7274,1.29603,0.98,0.07,-0.91,26.6988,-39.8629,-6.32225,1014.48
422324,-0.607365,9.76088,1.30081,0.84,-0.21,-0.49,27.5295,-38.8211,-7.71161,1014.48
422330,-0.61693,9.7561,1.28168,0.42,-0.49,-0.35,27.8447,-38.1555,-6.46402,1014.54
422336,-0.569106,9.76088,1.26255,0.63,-0.49,-0.49,27.902,-39.5156,-6.01035,1014.54
422342,-0.554758,9.76566,1.29603,0.35,-0.28,-0.35,27.329,-38.9079,-6.36478,1014.54
422348,-0.57867,9.70827,1.31994,0.7,-0.07,-0.21,27.2431,-37.6635,-6.52073,1014.54
422354,-0.573888,9.75131,1.3056,0.28,-0.21,-0.14,27.4436,-38.8789,-6.37896,1014.48
422360,-0.583453,9.68436,1.31516,0.21,-0.28,-0.28,27.816,-39.9207,-6.35061,1014.48
422366,-0.535629,9.71305,1.32951,0.63,-0.21,0,27.902,-38.0976,-7.13035,1014.48
422372,-0.521282,9.71305,1.32951,0.42,0,-0.07,28.3317,-37.403,-6.43567,1014.48
422378,-0.521282,9.71305,1.31994,0.7,0.14,-0.49,27.6155,-38.9657,-5.59922,1014.49
422384,-0.526064,9.73218,1.31516,0.63,-0.07,-0.35,27.7587,-38.8789,-6.43567,1014.49
422390,-0.545194,9.71305,1.30081,0.14,0.14,-0.42,27.4436,-37.9529,-5.52833,1014.47
422396,-0.554758,9.7274,1.31994,0.14,-0.21,-0.42,27.2717,-39.7471,-7.07364,1014.47
422402,-0.521282,9.71784,1.31516,0.7,0.28,-0.49,27.4723,-39.0815,-6.23719,1014.47
422408,-0.569106,9.69392,1.3056,0.42,0.14,-0.63,26.7561,-37.403,-6.87516,1014.5
422414,-0.57867,9.7274,1.33907,-0.07,0.7,-0.49,27.1285,-39.3998,-6.01035,1014.5
422420,-0.573888,9.70349,1.31038,0.56,-0.07,-0.21,27.3004,-39.1104,-4.86201,1014.51
422426,-0.602582,9.70827,1.31516,0.42,0.35,-0.35,27.4436,-38.1555,-5.92529,1014.51
422432,-0.602582,9.72262,1.2769,0.56,-0.49,-0.56,27.7301,-38.3001,-6.33643,1014.5
422438,-0.645624,9.74653,1.28647,0.35,0.21,-0.14,26.8993,-39.6313,-5.93947,1014.5
422444,-0.659971,9.76566,1.28647,0.77,-0.28,-0.14,27.5009,-38.6474,-5.78352,1014.49
422450,-0.588235,9.75131,1.30081,0.35,-0.07,0.07,27.5868,-37.895,-6.08124,1014.49
422456,-0.511717,9.73218,1.33429,0.35,-0.21,-0.21,27.2717,-39.805,-5.14555,1014.49
422462,-0.564323,9.69871,1.33429,0.77,0.14,-0.14,26.6988,-39.5735,-5.64175,1014.49
422468,-0.554758,9.73697,1.31994,0.91,-0.35,-0.14,26.9853,-38.0976,-5.32985,1014.49
422474,-0.564323,9.70349,1.31516,0.42,-0.07,-0.07,27.329,-39.5445,-5.76934,1014.49
422480,-0.530846,9.71784,1.31038,0.84,-0.21,-0.07,27.5868,-39.4577,-5.95365,1014.51
422486,-0.549976,9.69871,1.28647,0.56,-0.42,-0.35,27.2144,-38.5895,-6.46402,1014.51
422492,-0.526064,9.70349,1.3056,0.21,0.21,-0.28,26.7274,-38.387,-5.64175,1014.51
422498,-0.521282,9.71305,1.31038,1.05,0.14,-0.35,27.6441,-39.8339,-5.34403,1014.51
422504,-0.559541,9.69871,1.31516,0.63,0.35,-0.84,27.2717,-38.3291,-6.32225,1014.51
422510,-0.530846,9.69392,1.32472,0.42,0,-0.98,27.6728,-38.0976,-6.30807,1014.49
422516,-0.564323,9.71784,1.31516,0.91,0,-0.7,27.1285,-38.9657,-5.51415,1014.49
422522,-0.564323,9.69392,1.35342,0.77,0.28,-0.7,27.9306,-39.2262,-6.94604,1014.51
422528,-0.554758,9.73218,1.29603,0.56,0.14,-0.77,27.7587,-37.4899,-7.17288,1014.51
422534,-0.583453,9.72262,1.31038,0.84,0.07,-0.49,27.7587,-38.7921,-5.24479,1014.47
422540,-0.549976,9.72262,1.32472,0.98,-0.28,-0.77,27.0426,-39.5445,-5.54251,1014.47
422546,-0.640842,9.75131,1.29125,0.63,0,-0.56,27.329,-38.0108,-7.61237,1014.53
422552,-0.636059,9.74653,1.28168,0.63,-0.28,-0.42,27.1571,-38.5606,-5.69846,1014.53
422558,-0.602582,9.74175,1.31038,0.14,-0.28,-0.42,27.415,-39.6603,-6.56326,1014.44
422564,-0.549976,9.73697,1.29603,0.21,-0.49,-0.28,27.415,-38.5606,-6.63415,1014.44
422570,-0.593018,9.70827,1.34385,0.84,-0.35,-0.49,27.6155,-37.8661,-6.40731,1014.44
422576,-0.545194,9.74175,1.32472,0.84,-0.35,-0.63,27.5009,-39.776,-6.06706,1014.49
422582,-0.564323,9.72262,1.28647,0.77,-0.21,-0.07,27.3004,-38.358,-6.03871,1014.49
422588,-0.549976,9.71784,1.29603,0.35,-0.14,-0.63,27.4436,-37.6635,-6.13795,1014.47
422594,-0.559541,9.73697,1.29125,0.42,0,-0.63,27.415,-39.3998,-6.7901,1014.47
422600,-0.583453,9.72262,1.32951,0.84,0.35,-0.28,27.4436,-39.4866,-5.99618,1014.48
422606,-0.564323,9.74175,1.28647,0.35,0.21,-0.56,27.1571,-37.6635,-6.44985,1014.48
422612,-0.535629,9.71305,1.31516,0.49,0,-0.35,27.902,-38.2423,-6.03871,1014.51
422618,-0.573888,9.73218,1.28647,0.42,0,-0.49,27.7014,-39.0236,-5.6701,1014.51
422624,-0.593018,9.72262,1.31038,0.21,0.35,-0.49,26.6415,-37.9818,-6.98858,1014.46
422630,-0.564323,9.71784,1.3056,0.28,0.28,-0.49,27.6155,-37.8661,-6.33643,1014.46
422636,-0.602582,9.71305,1.32951,0.42,-0.07,-0.42,27.1571,-39.3998,-6.90351,1014.51
422642,-0.57867,9.7274,1.32472,0.91,-0.07,-0.7,27.7301,-39.1394,-5.69846,1014.51
422648,-0.612147,9.76088,1.30081,0.35,0,-0.35,27.5868,-37.3741,-7.18706,1014.47
422654,-0.554758,9.76088,1.2769,0.63,0.07,-0.35,27.3004,-38.8211,-6.83263,1014.47
422660,-0.540411,9.71784,1.31994,0.42,-0.21,-0.35,27.4723,-39.5156,-6.25137,1014.47
422666,-0.593018,9.74175,1.31994,0.49,-0.07,-0.49,27.6155,-38.9657,-6.20883,1014.49
422672,-0.57867,9.71305,1.31516,0.56,0.14,-0.14,27.4723,-38.7053,-5.24479,1014.49
422678,-0.607365,9.74653,1.31038,0.56,-0.14,-0.35,27.415,-39.0236,-5.10302,1014.52
422684,-0.569106,9.73697,1.29603,0.42,-0.21,-0.21,27.5868,-38.4159,-6.10959,1014.52
422690,-0.540411,9.7274,1.26734,0.49,-0.21,-0.21,27.8447,-38.3291,-6.08124,1014.5
422696,-0.559541,9.71305,1.31994,-0.14,0.14,0,26.9566,-39.1973,-5.11719,1014.5
422702,-0.549976,9.69871,1.32472,0.07,-0.14,-0.49,27.1285,-38.7632,-5.41491,1014.45
422708,-0.559541,9.72262,1.31994,0.49,-0.21,-0.14,27.5009,-38.358,-6.32225,1014.45
422714,-0.573888,9.7561,1.29603,0.21,0.21,-0.49,28.0165,-38.7342,-6.52073,1014.48
422720,-0.593018,9.73218,1.28168,0.56,0.07,-0.07,26.8707,-39.1683,-6.06706,1014.48
422726,-0.593018,9.71784,1.32472,-0.21,-0.07,-0.35,26.1545,-39.0236,-6.13795,1014.48
422732,-0.554758,9.70827,1.32951,0.56,-0.07,-0.07,27.0426,-38.5606,-6.4782,1014.48
422738,-0.61693,9.7274,1.31994,0.35,-0.21,-0.21,27.3004,-39.2262,-5.71263,1014.48
422744,-0.5978,9.74653,1.31038,0.21,0.14,-0.07,27.9593,-39.0526,-4.89036,1014.48
422750,-0.57867,9.74653,1.31038,0.56,0.28,0,27.5009,-38.5606,-5.78352,1014.48
422756,-0.545194,9.70349,1.31994,0.7,-0.28,0.07,27.7014,-39.313,-5.20226,1014.51
422762,-0.559541,9.69392,1.31994,0.63,-0.14,-0.07,27.3863,-39.2551,-5.69846,1014.51
422768,-0.57867,9.71784,1.3056,0.63,-0.49,0.07,28.2744,-38.1844,-6.22301,1014.49
422774,-0.583453,9.75131,1.29603,0.77,-0.28,-0.21,27.7301,-39.313,-5.49998,1014.49
422780,-0.593018,9.73697,1.28647,0.49,0,0.21,27.6728,-38.9947,-5.59922,1014.49
422786,-0.545194,9.7274,1.29603,0.35,0,0.07,27.6155,-38.2423,-5.8544,1014.49
422792,-0.573888,9.69871,1.33907,0.56,-0.14,-0.21,27.415,-38.4159,-6.15213,1014.49
422798,-0.602582,9.71784,1.30081,0.56,0.14,-0.28,27.7014,-39.6603,-5.4858,1014.49
422804,-0.593018,9.7274,1.29603,0.56,0.14,-0.14,27.1285,-38.7053,-6.67668,1014.49
422810,-0.573888,9.72262,1.30081,0.42,-0.21,-0.35,27.8733,-38.8211,-5.8544,1014.49
422816,-0.554758,9.72262,1.33429,0.21,0,-0.28,27.7874,-40.1812,-5.86858,1014.49
422822,-0.559541,9.71784,1.3056,0.42,-0.14,-0.28,27.0999,-39.1394,-5.62757,1014.49
422828,-0.57867,9.71305,1.29125,0.63,-0.14,-0.35,27.6441,-37.7793,-6.57744,1014.49
422834,-0.5978,9.71305,1.32472,0.7,-0.21,-0.21,27.6155,-38.4159,-5.78352,1014.5
422840,-0.559541,9.72262,1.3056,0.84,-0.21,-0.42,27.8447,-39.805,-5.95365,1014.5
422846,-0.57867,9.72262,1.31994,0.35,-0.07,-0.42,27.0426,-38.387,-6.73339,1014.49
422852,-0.569106,9.7274,1.31038,0.49,-0.42,-0.28,27.1858,-37.8661,-6.36478,1014.49
422858,-0.57867,9.73697,1.32472,0.49,-0.14,-0.56,27.1571,-39.5156,-5.68428,1014.46
422864,-0.583453,9.73697,1.29125,0.35,0.21,-0.35,27.0426,-38.3001,-6.52073,1014.46
422870,-0.593018,9.74653,1.3056,0.56,-0.14,-0.07,27.2717,-38.1265,-6.35061,1014.5
422876,-0.61693,9.74653,1.29125,0.35,0.07,0,27.9306,-39.2841,-5.86858,1014.5
422882,-0.559541,9.75131,1.29125,0.49,-0.28,-0.21,27.7587,-39.776,-6.40731,1014.53
422888,-0.545194,9.72262,1.3056,0.21,-0.14,-0.07,27.1285,-38.6185,-5.65593,1014.53
422894,-0.559541,9.71784,1.30081,0.56,-0.07,-0.21,27.0139,-39.5156,-5.89694,1014.51
422900,-0.554758,9.71305,1.33429,0.56,-0.14,-0.07,27.3863,-39.5735,-5.72681,1014.51
422906,-0.554758,9.68914,1.32951,0.63,0.35,-0.28,27.0426,-38.8789,-6.23719,1014.51
422912,-0.57867,9.70827,1.31516,0.49,0.07,-0.77,28.2171,-38.8211,-5.78352,1014.46
422918,-0.573888,9.71305,1.3056,0.63,0.49,-0.56,27.329,-38.8789,-6.35061,1014.46
422924,-0.564323,9.7274,1.32472,0.21,-0.21,-0.49,27.3577,-38.5027,-6.08124,1014.46
422930,-0.583453,9.71305,1.35342,0.7,0.14,-0.77,27.4436,-38.3291,-7.44225,1014.46
422936,-0.57867,9.70827,1.31516,0.98,-0.07,-0.49,27.3863,-39.1394,-6.4782,1014.51
422942,-0.564323,9.69871,1.3056,0.77,0.07,-0.35,27.7301,-38.5606,-6.02453,1014.51
422948,-0.573888,9.72262,1.32472,0.63,-0.07,-0.98,26.8707,-38.3291,-7.39971,1014.45
422954,-0.583453,9.73218,1.29603,0.42,-0.21,-0.56,27.3004,-38.9079,-6.35061,1014.45
422960,-0.607365,9.70827,1.28168,0.84,0.07,-0.35,28.1598,-39.7471,-5.93947,1014.5
422966,-0.588235,9.76088,1.31516,0.07,-0.14,-0.56,27.8733,-37.9529,-5.82605,1014.5
422972,-0.573888,9.74175,1.27212,0.7,-0.07,-0.49,28.0452,-38.6474,-6.6625,1014.47
422978,-0.5978,9.7561,1.28168,1.12,0,-0.14,27.9879,-39.8918,-6.18048,1014.47
422984,-0.621712,9.75131,1.29603,-0.28,0.14,-0.21,27.5868,-38.4159,-7.00275,1014.47
422990,-0.593018,9.73697,1.2769,0.28,-0.14,-0.07,27.2717,-38.2133,-6.90351,1014.48
422996,-0.573888,9.73218,1.31994,0.56,0.14,-0.28,27.3863,-39.1973,-6.93187,1014.48
423002,-0.559541,9.7274,1.33429,0.56,0,-0.07,27.5009,-39.0526,-6.63415,1014.53
423008,-0.564323,9.70827,1.31516,0.56,-0.07,-0.14,28.4462,-38.1265,-6.42149,1014.53
423014,-0.593018,9.70349,1.34864,0.21,0,-0.28,28.4176,-39.0526,-6.30807,1014.5
423020,-0.535629,9.70349,1.31516,0.98,0.07,-0.14,27.6155,-40.1812,-5.08884,1014.5
423026,-0.554758,9.71784,1.33907,0.63,-0.14,-0.35,27.0999,-37.5477,-6.6625,1014.52
423032,-0.535629,9.74653,1.30081,0.98,0.21,-0.49,27.902,-38.85,-6.77592,1014.52
423038,-0.583453,9.71784,1.2769,0.77,-0.07,-0.56,26.8707,-39.3709,-5.57086,1014.51
423044,-0.588235,9.70827,1.34385,1.05,0.07,-0.28,28.1025,-38.5317,-6.27972,1014.51
423050,-0.549976,9.72262,1.29125,0.77,0.21,-0.7,27.5295,-38.0397,-6.39314,1014.53
423056,-0.602582,9.70349,1.34864,0.84,-0.28,-0.49,27.415,-39.0526,-5.27314,1014.53
423062,-0.559541,9.73697,1.28647,1.05,0,-0.56,27.0426,-38.85,-5.72681,1014.49
423068,-0.607365,9.73218,1.30081,0.77,0.21,-0.7,27.4723,-38.4448,-6.18048,1014.49
423074,-0.569106,9.76088,1.26255,0.49,0,-0.28,27.4723,-39.1394,-5.81187,1014.49
423080,-0.612147,9.76566,1.2769,0.91,0.56,-0.14,27.7014,-39.7182,-5.32985,1014.49
423086,-0.626494,9.73218,1.31516,0.77,-0.28,-0.49,27.3577,-38.1265,-5.93947,1014.49
423092,-0.588235,9.74175,1.29603,0.42,0.14,-0.14,27.4436,-38.5606,-6.71921,1014.5
423098,-0.607365,9.71784,1.31038,0.7,-0.28,-0.42,27.7874,-39.9497,-4.63517,1014.5
423104,-0.564323,9.72262,1.25777,0.35,0.21,-0.63,28.1884,-38.0686,-6.71921,1014.5
423110,-0.621712,9.7274,1.29603,0.91,0.14,-0.35,27.6728,-38.0686,-5.95365,1014.5
423116,-0.650406,9.73697,1.31038,0.84,0.14,-0.21,27.902,-39.4288,-5.55669,1014.49
423122,-0.5978,9.76566,1.2769,0.14,0.21,-0.21,27.3577,-39.342,-6.88934,1014.49
423128,-0.583453,9.73218,1.27212,0.56,-0.14,0.35,26.928,-38.4738,-6.22301,1014.51
423134,-0.516499,9.73697,1.24821,0.49,0.28,-0.49,27.415,-39.1973,-6.59162,1014.51
423140,-0.607365,9.66523,1.3582,0.63,0.21,-0.42,27.8447,-38.7053,-6.23719,1014.51
423146,-0.593018,9.70827,1.32951,0.77,0.42,-0.42,27.6155,-38.3001,-6.98858,1014.51
423152,-0.631277,9.71305,1.31038,0.28,0.35,-0.21,27.4723,-38.6185,-6.93187,1014.51
423158,-0.583453,9.72262,1.2769,0.35,0,-0.35,28.4176,-39.805,-6.06706,1014.5
423164,-0.564323,9.71305,1.29603,0.42,0.07,-0.63,27.816,-37.9818,-5.21643,1014.5
423170,-0.554758,9.68914,1.34385,0.77,-0.07,-0.77,28.303,-38.4738,-5.95365,1014.49
423176,-0.535629,9.72262,1.31994,0.28,0.07,-0.63,27.6441,-39.2262,-5.78352,1014.49
423182,-0.593018,9.68914,1.31038,1.05,-0.28,-0.84,27.5009,-38.358,-6.44985,1014.46
423188,-0.61693,9.74175,1.30081,1.19,0.14,-0.42,27.3004,-37.6635,-5.81187,1014.46
423194,-0.61693,9.75131,1.2769,0.98,-0.07,-0.42,27.5868,-39.0815,-5.57086,1014.5
423200,-0.621712,9.77044,1.25299,0.91,-0.35,-0.28,28.5035,-39.3998,-5.96782,1014.5
423206,-0.5978,9.78001,1.23864,1.19,0.21,-0.07,27.6441,-37.403,-5.982,1014.49
423212,-0.61693,9.78001,1.23864,0.35,0.21,-0.35,28.1311,-38.8789,-7.25794,1014.49
423218,-0.664754,9.79914,1.25299,0.84,0.07,0,27.9593,-39.5156,-6.25137,1014.48
423224,-0.621712,9.75131,1.28647,0.35,-0.42,0.21,26.7274,-38.387,-6.10959,1014.48
423230,-0.588235,9.73218,1.28168,0.42,-0.14,0.21,28.5895,-38.0686,-7.42807,1014.48
423236,-0.57867,9.70349,1.31516,-0.14,-0.35,0.14,27.6441,-39.7471,-7.56984,1014.46
423242,-0.549976,9.70349,1.31038,0.28,0.35,0.21,27.1858,-39.1394,-7.45642,1014.46
423248,-0.593018,9.71305,1.32472,0.49,-0.42,0,27.1285,-38.2133,-6.60579,1014.5
423254,-0.545194,9.69392,1.29125,0.28,-0.21,0.07,27.7587,-39.6313,-5.41491,1014.5
423260,-0.593018,9.72262,1.32472,0.14,-0.28,0.07,27.2144,-39.8629,-5.93947,1014.49
423266,-0.545194,9.68436,1.3056,0.35,0,0.21,26.7274,-38.358,-7.04529,1014.49
423272,-0.57867,9.72262,1.30081,0.91,-0.21,-0.42,27.5868,-37.895,-5.51415,1014.5
423278,-0.636059,9.7561,1.26734,0.28,0.35,0,27.3004,-39.1973,-6.05289,1014.5
423284,-0.612147,9.74175,1.2769,0.14,-0.28,-0.07,27.2431,-38.2712,-6.2939,1014.46
423290,-0.569106,9.75131,1.27212,0.42,0,0,26.5556,-37.9818,-5.41491,1014.46
423296,-0.583453,9.71305,1.31038,0.21,-0.14,-0.14,27.7587,-39.5735,-5.75517,1014.49
423302,-0.636059,9.71305,1.29603,0.35,-0.07,-0.35,27.415,-39.0526,-5.76934,1014.49
423308,-0.607365,9.7274,1.29125,0.56,-0.28,0,27.0999,-38.358,-6.44985,1014.5
423314,-0.655189,9.75131,1.26255,0.42,-0.35,0.21,27.8447,-39.6024,-5.21643,1014.5
423320,-0.636059,9.76566,1.26255,0.63,-0.28,0.14,27.415,-38.85,-6.06706,1014.5
423326,-0.569106,9.75131,1.25777,0.63,-0.35,0,27.0426,-38.2133,-6.43567,1014.48
423332,-0.583453,9.73697,1.26734,-0.07,-0.21,-0.07,28.1598,-38.5027,-5.71263,1014.48
423338,-0.588235,9.75131,1.31038,0.21,-0.14,0.21,27.329,-39.0815,-6.10959,1014.48
423344,-0.602582,9.72262,1.32951,0.35,-0.42,0.07,27.6728,-37.432,-6.59162,1014.48
423350,-0.564323,9.71784,1.3056,0.56,-0.07,0.14,26.6415,-38.2712,-6.03871,1014.46
423356,-0.554758,9.70827,1.29603,0.35,-0.28,0,27.5582,-39.1394,-5.75517,1014.46
423362,-0.535629,9.72262,1.26255,0.49,-0.42,-0.28,26.8134,-38.9368,-6.63415,1014.48
423368,-0.5978,9.71305,1.31038,0.7,-0.28,0.28,27.0999,-38.5027,-6.39314,1014.48
423374,-0.588235,9.69871,1.31994,0.42,0.21,0,27.1285,-38.7632,-6.61997,1014.49
423380,-0.573888,9.7274,1.3056,0.63,0.14,-0.14,27.7014,-38.7342,-6.27972,1014.49
423386,-0.602582,9.71305,1.33429,0.35,-0.21,-0.35,27.1858,-38.0976,-6.23719,1014.51
423392,-0.573888,9.71305,1.26734,0.77,-0.14,-0.28,27.0139,-38.85,-6.26554,1014.51
423398,-0.573888,9.73218,1.22908,0.63,0.49,-0.35,27.7587,-39.8918,-6.37896,1014.51
423404,-0.631277,9.76088,1.23864,0.35,-0.14,-0.14,27.8733,-38.5027,-6.60579,1014.5
423410,-0.5978,9.74653,1.26734,0.21,-0.42,-0.21,27.9879,-37.1715,-6.33643,1014.5
423416,-0.607365,9.73697,1.30081,0.63,-0.42,0.14,27.7874,-40.2101,-5.84023,1014.45
423422,-0.57867,9.73697,1.29125,0.42,-0.07,0,27.5009,-38.9947,-5.76934,1014.45
423428,-0.645624,9.73218,1.29603,0.21,-0.21,0.07,27.7301,-38.0686,-6.05289,1014.49
423434,-0.626494,9.74653,1.31516,0.63,-0.42,0,27.0426,-38.8789,-6.01035,1014.49
423440,-0.549976,9.6748,1.35342,0.56,-0.35,0.21,27.3863,-39.1683,-5.51415,1014.49
423446,-0.57867,9.68914,1.36298,0.7,-0.14,-0.28,27.415,-37.9239,-6.81845,1014.49
423452,-0.602582,9.68914,1.34385,0.98,-0.21,-0.42,27.5582,-38.6474,-6.44985,1014.53
423458,-0.602582,9.72262,1.2769,0.77,-0.49,-0.21,26.8134,-39.6024,-5.55669,1014.53
423464,-0.588235,9.71305,1.31038,1.05,-0.42,-0.07,27.3863,-38.1555,-6.05289,1014.52
423470,-0.588235,9.74175,1.27212,1.26,-0.21,-0.35,27.5582,-38.1265,-6.23719,1014.52
423476,-0.602582,9.76088,1.28168,0.84,-0.28,-0.14,27.902,-39.5735,-6.53491,1014.49
423482,-0.593018,9.74175,1.25777,0.42,-0.7,-0.07,27.4723,-38.5606,-6.7901,1014.49
423488,-0.588235,9.77523,1.22429,0.98,-0.49,-0.35,27.7301,-37.3741,-6.49238,1014.49
423494,-0.57867,9.78957,1.20516,0.56,-0.35,-0.07,27.902,-38.6764,-6.27972,1014.5
423500,-0.626494,9.77523,1.18125,-0.35,0.07,0.21,27.4723,-39.0815,-6.35061,1014.5
423506,-0.607365,9.73697,1.27212,-0.14,-0.21,0.21,27.4723,-38.0686,-6.83263,1014.51
423512,-0.607365,9.74653,1.26734,0.56,-0.28,0.42,27.7301,-38.5317,-6.09542,1014.51
423518,-0.588235,9.76088,1.26255,0.07,-0.21,0.49,28.0738,-39.313,-5.88276,1014.44
423524,-0.593018,9.75131,1.21473,0,-0.21,0.35,27.9879,-39.5156,-6.37896,1014.44
423530,-0.607365,9.76088,1.28647,-0.07,-0.42,0.63,27.1285,-38.5606,-6.46402,1014.53
423536,-0.559541,9.7274,1.29125,0.21,-0.07,0.35,27.6155,-39.7182,-6.39314,1014.53
423542,-0.545194,9.72262,1.29603,-0.21,-0.28,0.35,26.4696,-39.1683,-6.36478,1014.48
423548,-0.535629,9.73218,1.3056,0,0.49,0.42,27.7587,-37.6056,-6.56326,1014.48
423554,-0.573888,9.71305,1.30081,0.14,0.07,0.14,27.3577,-39.313,-5.38656,1014.49
423560,-0.549976,9.73218,1.31516,0.07,0.28,0.21,27.8447,-39.5735,-5.89694,1014.49
423566,-0.540411,9.69392,1.3056,-0.35,0.07,0.07,27.8733,-38.3001,-4.87618,1014.49
423572,-0.530846,9.70349,1.30081,0.35,0.07,-0.07,27.415,-38.6185,-6.56326,1014.49
423578,-0.57867,9.70349,1.30081,0.35,-0.07,0.14,27.2717,-39.8918,-5.76934,1014.49
423584,-0.564323,9.71784,1.26255,0.28,0.35,-0.14,27.5295,-38.7053,-6.57744,1014.51
423590,-0.607365,9.73218,1.24342,0.07,-0.07,0,27.5582,-39.1394,-6.03871,1014.51
423596,-0.5978,9.72262,1.29125,-0.07,0.21,0.07,27.7301,-40.0654,-5.71263,1014.51
423602,-0.593018,9.74175,1.3056,-0.21,-0.07,0.35,27.0139,-39.0526,-5.95365,1014.51
423608,-0.535629,9.71784,1.28647,0.14,-0.28,0.21,27.2717,-38.4448,-5.38656,1014.47
423614,-0.540411,9.73697,1.3056,-0.35,-0.49,-0.14,27.1285,-38.85,-5.44327,1014.47
423620,-0.583453,9.71305,1.28647,-0.14,-0.14,0.14,27.8733,-38.6474,-6.64832,1014.52
423626,-0.573888,9.70349,1.29603,0.07,0.21,0,27.7874,-37.9818,-6.7901,1014.52
423632,-0.573888,9.74175,1.26255,0.28,-0.21,-0.14,27.5868,-38.85,-6.64832,1014.49
423638,-0.564323,9.72262,1.3056,-0.07,0.56,0,27.7014,-39.5156,-6.42149,1014.49
423644,-0.564323,9.70349,1.34385,-0.14,0.35,0.14,27.0712,-38.9368,-6.37896,1014.49
423650,-0.636059,9.7274,1.3056,0.7,0.35,0.28,27.0426,-38.5027,-6.67668,1014.49
423656,-0.554758,9.74175,1.26734,0.42,-0.42,0,27.2717,-39.6892,-6.13795,1014.49
423662,-0.526064,9.73697,1.26255,0.49,-0.56,0.14,26.9853,-38.9657,-6.2939,1014.47
423668,-0.569106,9.72262,1.32951,0.7,-0.28,0.07,27.6441,-37.8082,-6.60579,1014.47
423674,-0.564323,9.74175,1.31038,0.56,-0.49,0.28,27.5009,-39.7471,-6.1663,1014.48
423680,-0.569106,9.72262,1.29603,0.21,-0.21,-0.21,27.2717,-39.1973,-5.59922,1014.48
423686,-0.535629,9.73697,1.28168,0.28,-0.21,0.07,27.1858,-37.8082,-6.84681,1014.48
423692,-0.57867,9.71784,1.28647,0.21,0.42,0.07,28.0452,-39.2841,-6.22301,1014.48
423698,-0.593018,9.73218,1.28647,0.21,0.28,0,27.415,-39.1683,-6.73339,1014.52
423704,-0.61693,9.78957,1.24821,0.14,0.07,0.35,27.5009,-38.85,-6.42149,1014.52
423710,-0.5978,9.75131,1.28168,-0.07,0.35,0.21,27.5868,-38.4738,-6.88934,1014.47
423716,-0.626494,9.7274,1.30081,-0.14,0.07,-0.35,28.0738,-40.0944,-5.95365,1014.47
423722,-0.57867,9.7274,1.32951,0.35,0.28,0.35,27.7014,-38.9079,-6.57744,1014.45
423728,-0.57867,9.73218,1.27212,0.35,-0.07,0,27.3004,-38.2423,-6.15213,1014.45
423734,-0.564323,9.7274,1.29125,0.35,-0.21,0.14,27.5582,-39.1683,-7.05946,1014.45
423740,-0.554758,9.69871,1.31994,0.35,0.28,0.07,27.3577,-39.313,-5.59922,1014.5
423746,-0.583453,9.70349,1.33907,0.35,0.21,0,27.902,-38.3291,-6.80427,1014.5
423752,-0.573888,9.68436,1.33907,0.77,-0.28,-0.07,26.4983,-39.6892,-7.48478,1014.5
423758,-0.583453,9.7274,1.23386,0.42,0.35,0.07,27.5009,-40.0075,-6.59162,1014.5
423764,-0.621712,9.74653,1.25299,-0.07,-0.28,0,28.3317,-38.5317,-5.8544,1014.47
423770,-0.5978,9.73218,1.27212,-0.07,0,0,27.7014,-38.3001,-7.03111,1014.47
423776,-0.559541,9.7274,1.29603,0.35,0,-0.07,27.7301,-39.9497,-6.01035,1014.54
423782,-0.559541,9.70349,1.3056,0.21,0.63,0,27.5582,-39.5735,-6.30807,1014.54
423788,-0.593018,9.7561,1.23864,0,0.21,-0.07,26.8993,-38.0108,-5.99618,1014.48
423794,-0.61693,9.74175,1.29603,-0.14,0.56,0.35,27.3577,-39.0815,-6.46402,1014.48
423800,-0.564323,9.73697,1.31038,0.35,-0.42,0.14,26.9566,-39.2551,-5.06049,1014.49
423806,-0.559541,9.7274,1.30081,0.14,-0.42,0.07,27.7874,-38.5027,-6.09542,1014.49
423812,-0.602582,9.72262,1.31516,0.07,-0.07,0.21,27.3863,-38.4738,-6.61997,1014.49
423818,-0.5978,9.73697,1.31994,0.35,-0.07,0.14,27.5868,-39.6313,-6.49238,1014.47
423824,-0.569106,9.70827,1.31994,0.42,0.14,0.07,27.5295,-38.3291,-6.25137,1014.47
423830,-0.549976,9.70827,1.31038,0.42,0.14,0.14,27.7014,-38.1844,-7.01693,1014.5
423836,-0.526064,9.69392,1.3056,0.77,0.56,0.28,26.4983,-40.0944,-6.91769,1014.5
423842,-0.564323,9.72262,1.28168,0.7,0.07,-0.07,27.7301,-39.2841,-5.88276,1014.5
423848,-0.573888,9.71784,1.2769,0,0.42,0.07,27.7874,-37.7793,-6.96022,1014.5
423854,-0.573888,9.71784,1.31516,0,0,0,26.7561,-39.7471,-6.64832,1014.52
423860,-0.583453,9.7274,1.2769,0.42,-0.28,-0.07,28.4176,-39.4288,-6.08124,1014.52
423866,-0.573888,9.75131,1.25299,0.21,0.07,0,28.2744,-38.1844,-6.1663,1014.52
423872,-0.57867,9.71305,1.31994,-0.21,-0.42,0.21,28.2171,-38.85,-6.4782,1014.52
423878,-0.549976,9.74175,1.32472,0.49,0,0.28,28.3317,-39.2551,-5.59922,1014.48
423884,-0.61693,9.72262,1.29603,0.07,-0.28,0.07,28.1598,-38.7342,-6.49238,1014.48
423890,-0.545194,9.77523,1.27212,-0.21,-0.07,-0.07,27.6728,-38.6185,-6.44985,1014.48
423896,-0.61693,9.76088,1.2769,0.07,0,0.28,27.0139,-39.9497,-5.92529,1014.48
423902,-0.573888,9.72262,1.30081,0.14,-0.28,0,27.6728,-38.7632,-6.39314,1014.48
423908,-0.540411,9.74175,1.3056,0.28,0.14,0.49,27.5009,-38.2712,-6.46402,1014.49
423914,-0.5978,9.74175,1.29125,0.42,0,0.49,27.8447,-38.85,-6.32225,1014.49
423920,-0.626494,9.77044,1.27212,0,-0.21,0.28,27.415,-38.7053,-7.01693,1014.51
423926,-0.564323,9.74175,1.27212,0.07,0.07,0.91,27.7014,-37.3741,-7.05946,1014.51
423932,-0.549976,9.73218,1.2769,0.21,-0.63,0.77,27.415,-38.4738,-6.57744,1014.48
423938,-0.526064,9.73697,1.29603,-0.21,-0.14,0.42,28.2171,-38.85,-7.1587,1014.48
423944,-0.573888,9.71305,1.33907,0,-0.21,0.77,27.0426,-38.5606,-6.27972,1014.48
423950,-0.559541,9.72262,1.29125,0.91,0.28,0.84,27.3004,-37.5767,-6.73339,1014.48
423956,-0.602582,9.76566,1.26734,0,0,0.49,27.6155,-39.3709,-7.22959,1014.49
423962,-0.573888,9.76566,1.30081,0.14,0.07,0.56,26.7561,-39.1683,-7.11617,1014.49
423968,-0.521282,9.70827,1.29603,0.28,0.14,0.56,27.2431,-37.8661,-6.59162,1014.49
423974,-0.545194,9.68914,1.33907,-0.07,-0.07,0.21,27.415,-38.6185,-6.36478,1014.49
423980,-0.530846,9.72262,1.28647,-0.21,-0.14,0.63,27.5009,-39.7182,-5.7977,1014.49
423986,-0.569106,9.73218,1.29125,-0.14,0.21,0.28,27.3577,-38.358,-7.14453,1014.48
423992,-0.569106,9.7274,1.28647,-0.14,0.07,0.56,27.7014,-38.9657,-6.70503,1014.48
423998,-0.559541,9.70827,1.31994,-0.28,0.28,0.56,27.902,-39.6024,-5.64175,1014.5
424004,-0.564323,9.70827,1.3056,-0.07,-0.07,0.28,27.7301,-38.5895,-6.02453,1014.5
424010,-0.564323,9.68914,1.33907,0.14,0.14,0.35,27.5582,-37.8371,-6.74756,1014.49
424016,-0.559541,9.71305,1.26734,0.42,-0.14,0.42,27.7301,-39.4866,-6.15213,1014.49
424022,-0.5978,9.78001,1.2769,-0.28,0.21,0.42,27.2431,-38.4448,-7.10199,1014.48
424028,-0.554758,9.73218,1.2769,0.07,0.07,0.63,27.7301,-38.5027,-7.27212,1014.48
424034,-0.554758,9.68914,1.32472,0,-0.07,0.35,27.902,-39.2551,-6.98858,1014.5
424040,-0.61693,9.76088,1.29125,-0.21,-0.14,0.49,27.9879,-39.7182,-6.93187,1014.5
424046,-0.626494,9.76088,1.29125,0.07,-0.42,0.84,28.1598,-37.6924,-7.55566,1014.49
424052,-0.593018,9.79436,1.26255,-0.14,0.21,0.98,28.0738,-39.1973,-6.46402,1014.49
424058,-0.588235,9.7561,1.30081,-0.63,0.28,0.7,27.6728,-39.2841,-6.43567,1014.49
424064,-0.535629,9.71305,1.36298,0.14,-0.21,0.56,27.5868,-38.7632,-6.09542,1014.48
424070,-0.530846,9.70349,1.33907,-0.21,0.28,0.84,27.7301,-39.1973,-7.07364,1014.48
424076,-0.535629,9.7274,1.32472,-0.35,-0.49,0.63,27.7587,-40.3838,-6.88934,1014.44
424082,-0.535629,9.71784,1.32951,0.35,-0.07,0.91,27.6155,-39.1104,-6.32225,1014.44
424088,-0.511717,9.68914,1.32472,0.21,-0.42,0.7,28.1311,-38.7921,-7.58402,1014.49
424094,-0.502152,9.69871,1.34385,0,0.07,0.56,27.5009,-39.3998,-6.63415,1014.49
424100,-0.516499,9.70827,1.32951,0.14,-0.28,0.7,27.7587,-39.7471,-7.03111,1014.48
424106,-0.526064,9.71784,1.33907,0.7,0.49,0.42,27.8447,-38.7632,-7.93845,1014.48
424112,-0.593018,9.7274,1.26734,0.49,0.14,0.21,27.2717,-38.9368,-6.50655,1014.5
424118,-0.583453,9.72262,1.30081,0,-0.07,0.42,27.5868,-40.0654,-6.37896,1014.5
424124,-0.540411,9.71784,1.28168,0.21,0,0.42,27.7014,-38.3291,-6.86098,1014.54
424130,-0.540411,9.70827,1.30081,0.21,0.14,0.56,27.9879,-38.2423,-6.49238,1014.54
424136,-0.569106,9.74653,1.27212,0,0.28,0.42,27.7014,-39.8918,-6.32225,1014.5
424142,-0.573888,9.7561,1.29603,-0.07,-0.56,0.63,28.0738,-38.6474,-5.86858,1014.5
424148,-0.521282,9.7561,1.29603,-0.07,0.07,0.49,27.3863,-37.6056,-7.14453,1014.5
424154,-0.549976,9.70827,1.31994,-0.35,-0.56,0.56,28.4462,-38.7053,-5.982,1014.5
424160,-0.502152,9.7274,1.31994,-0.07,0.07,0.56,27.4436,-40.2969,-7.30047,1014.5
424166,-0.540411,9.72262,1.31994,0.28,-0.21,0.14,27.6728,-37.895,-6.77592,1014.5
424172,-0.540411,9.68914,1.32951,-0.14,0.07,0.35,27.7874,-38.8211,-6.20883,1014.5
424178,-0.530846,9.71784,1.34385,-0.07,0.28,0.42,27.4436,-40.1233,-6.15213,1014.46
424184,-0.535629,9.69871,1.36298,0,-0.42,0,27.7874,-38.5895,-6.43567,1014.46
424190,-0.506934,9.71784,1.31516,0.21,-0.14,0.21,27.4723,-37.5767,-7.42807,1014.47
424196,-0.502152,9.69392,1.32951,0.21,-0.14,0.07,28.0165,-39.6024,-6.76174,1014.47
424202,-0.521282,9.70827,1.32472,0.21,-0.28,0.28,27.6155,-38.9947,-6.87516,1014.49
424208,-0.511717,9.69392,1.34864,0.35,-0.28,-0.35,27.5295,-37.895,-7.2863,1014.49
424214,-0.502152,9.70827,1.34385,0.21,-0.28,-0.35,27.4723,-38.9947,-6.71921,1014.48
424220,-0.511717,9.70827,1.3582,0.63,-0.07,-0.14,27.3863,-38.8789,-6.96022,1014.48
424226,-0.545194,9.69392,1.31516,0.42,-0.28,-0.35,27.6441,-38.387,-7.25794,1014.48
424232,-0.487805,9.71784,1.3056,0.35,-0.35,-0.35,27.5868,-38.8789,-6.6625,1014.49
424238,-0.516499,9.74653,1.31038,0.35,0.14,0.14,27.9306,-38.9368,-6.05289,1014.49
424244,-0.602582,9.76566,1.30081,0.35,-0.28,-0.14,26.9566,-37.6346,-7.22959,1014.46
424250,-0.526064,9.68436,1.3056,0.07,0.35,-0.14,27.902,-38.1555,-6.33643,1014.46
424256,-0.545194,9.75131,1.29603,0.42,-0.28,-0.21,27.7874,-39.805,-6.50655,1014.5
424262,-0.506934,9.74175,1.29125,0.28,0,-0.56,26.8707,-38.4448,-7.04529,1014.5
424268,-0.545194,9.73697,1.31038,0.07,-0.42,-0.35,28.0738,-38.1265,-5.96782,1014.47
424274,-0.540411,9.75131,1.25777,-0.21,-0.14,0,27.415,-39.2262,-7.14453,1014.47
424280,-0.559541,9.74175,1.3056,0.21,-0.28,-0.35,27.5582,-38.7053,-7.17288,1014.52
424286,-0.516499,9.73697,1.31994,0.07,0.28,-0.42,27.6155,-38.6185,-6.52073,1014.52
424292,-0.526064,9.69392,1.33907,0.63,0.14,0.14,27.7587,-38.8789,-6.49238,1014.49
424298,-0.549976,9.71305,1.35342,0,0.7,-0.56,26.928,-39.6892,-6.25137,1014.49
424304,-0.564323,9.70827,1.34864,0,0,-0.28,27.9879,-37.9818,-6.74756,1014.49
424310,-0.535629,9.7274,1.31038,0.56,-0.42,-0.14,27.5009,-38.358,-7.49895,1014.49
424316,-0.49737,9.73218,1.28647,0.14,0.07,-0.56,27.6441,-39.342,-5.54251,1014.49
424322,-0.506934,9.73218,1.29603,0.14,-0.35,0,27.0712,-38.9368,-7.81085,1014.53
424328,-0.545194,9.73218,1.30081,-0.07,0.07,-0.28,26.8993,-38.1555,-7.11617,1014.53
424334,-0.573888,9.74175,1.30081,0.28,0.07,-0.28,27.3577,-39.4577,-6.13795,1014.47
424340,-0.530846,9.70349,1.3056,0.07,0.07,-0.07,27.8733,-39.2262,-6.39314,1014.47
424346,-0.516499,9.71784,1.31516,0.42,-0.07,-0.42,27.6441,-38.4159,-7.83921,1014.51
424352,-0.511717,9.71305,1.31994,-0.14,0,-0.91,27.7301,-38.9657,-6.6625,1014.51
424358,-0.492587,9.70349,1.31994,0,-0.35,-0.35,27.7014,-38.7632,-7.35718,1014.47
424364,-0.526064,9.72262,1.3056,0.07,0.35,-0.49,26.6988,-38.85,-8.02351,1014.47
424370,-0.545194,9.71784,1.34864,0.49,-0.14,-0.56,27.6728,-38.9079,-6.36478,1014.51
424376,-0.569106,9.74653,1.28647,-0.21,0.28,-0.35,27.5295,-39.6313,-6.43567,1014.51
424382,-0.559541,9.73697,1.27212,0.35,0.49,-0.84,27.3004,-38.8789,-7.55566,1014.48
424388,-0.583453,9.75131,1.30081,-0.07,0.7,-0.14,27.3863,-37.6924,-6.63415,1014.48
424394,-0.602582,9.71305,1.35342,-0.28,-0.14,-0.35,27.6441,-39.5735,-7.2863,1014.48
424400,-0.554758,9.72262,1.32951,0.35,-0.63,0,27.0139,-39.1104,-5.35821,1014.51
424406,-0.540411,9.73218,1.32472,-0.35,-0.07,-0.21,27.5868,-38.0976,-8.10857,1014.51
424412,-0.554758,9.73697,1.34864,0.14,-0.35,-0.14,28.3317,-38.9079,-6.13795,1014.47
424418,-0.530846,9.7274,1.33429,0.21,0.35,-0.07,27.0139,-39.2841,-6.36478,1014.47
424424,-0.549976,9.72262,1.29603,0.07,0.63,-0.35,26.928,-37.7214,-6.64832,1014.48
424430,-0.569106,9.77523,1.31516,0.14,0.28,-0.07,27.3577,-37.7793,-5.93947,1014.48
424436,-0.516499,9.70827,1.33429,0.21,-0.28,-0.14,27.5582,-39.6313,-6.57744,1014.48
424442,-0.502152,9.70827,1.36777,0.28,-0.14,-0.42,27.329,-38.4159,-5.982,1014.48
424448,-0.530846,9.69871,1.34385,0.7,-0.14,-0.21,27.415,-38.1555,-7.56984,1014.47
424454,-0.530846,9.70827,1.32472,0.7,0.42,-0.14,27.816,-39.9786,-5.65593,1014.47
424460,-0.569106,9.7274,1.3056,0.7,0.14,-0.49,27.4436,-38.9947,-6.30807,1014.49
424466,-0.530846,9.72262,1.32951,0.63,0.07,-0.21,26.6702,-38.4159,-8.32123,1014.49
424472,-0.549976,9.71784,1.34385,0.21,-0.28,-0.28,27.3863,-38.9657,-6.61997,1014.49
424478,-0.521282,9.7274,1.33429,0.42,-0.28,-0.28,26.8993,-39.6313,-6.61997,1014.47
424484,-0.526064,9.71784,1.32472,-0.07,-0.42,-0.28,27.0999,-38.0108,-7.95262,1014.47
424490,-0.502152,9.72262,1.31516,0.28,0.21,-0.21,28.2457,-38.2423,-6.71921,1014.5
424496,-0.5978,9.76566,1.29603,0.56,-0.21,-0.35,27.902,-39.3998,-6.74756,1014.5
424502,-0.559541,9.7561,1.29603,0,0.28,-0.35,27.3004,-38.7921,-4.83365,1014.49
424508,-0.559541,9.76088,1.28647,0.07,-0.35,0.21,26.7847,-38.0108,-5.78352,1014.49
424514,-0.573888,9.7561,1.32951,0.14,-0.14,0.21,27.3004,-40.2101,-6.39314,1014.49
424520,-0.540411,9.73218,1.34864,-0.28,-0.63,0,27.1285,-39.0236,-5.96782,1014.49
424526,-0.511717,9.69871,1.35342,0.14,-0.07,0,27.2144,-37.7793,-6.83263,1014.47
424532,-0.516499,9.70827,1.32951,0.49,0.07,-0.21,27.2431,-38.9079,-6.13795,1014.47
424538,-0.545194,9.69871,1.34385,0.28,-0.14,-0.49,27.1858,-39.7471,-5.31567,1014.49
424544,-0.506934,9.71305,1.33907,0.56,0,-0.35,28.2744,-37.9818,-6.09542,1014.49
424550,-0.521282,9.74175,1.31994,0.63,0.28,-0.49,27.1858,-38.2712,-5.88276,1014.53
424556,-0.516499,9.71305,1.29125,0.7,0.14,-0.56,27.5868,-39.9786,-6.36478,1014.53
424562,-0.535629,9.77523,1.29603,0.56,-0.56,-0.7,27.5582,-38.3291,-6.67668,1014.53
424568,-0.511717,9.73697,1.29125,0,-0.21,-0.77,27.4723,-38.3291,-7.32883,1014.44
424574,-0.559541,9.68914,1.31994,0.07,-0.14,-0.14,26.6702,-39.342,-5.84023,1014.44
424580,-0.521282,9.69392,1.2769,-0.21,0.49,-0.49,27.3577,-38.85,-5.76934,1014.47
424586,-0.540411,9.68914,1.33907,0.56,0.07,-0.7,27.8447,-37.895,-6.73339,1014.47
424592,-0.588235,9.7274,1.30081,0.35,0.56,-0.42,27.1285,-38.5027,-5.62757,1014.5
424598,-0.545194,9.70827,1.34864,0.35,-0.07,-0.42,27.3863,-39.4577,-6.05289,1014.5
424604,-0.530846,9.7561,1.31994,0.63,0.28,-0.91,27.7874,-37.8661,-6.90351,1014.46
424610,-0.573888,9.74653,1.31038,0.49,-0.7,-0.7,27.4723,-37.8371,-7.21541,1014.46
424616,-0.573888,9.78001,1.29603,0.07,-0.14,-0.07,27.5295,-39.1104,-5.99618,1014.47
424622,-0.602582,9.74653,1.2769,0.21,-0.91,-0.49,27.6441,-38.2712,-6.67668,1014.47
424628,-0.516499,9.73697,1.29603,0.14,0.14,-0.56,28.0738,-38.2133,-6.56326,1014.48
424634,-0.526064,9.73697,1.34385,0.21,0.42,-0.21,27.902,-38.6474,-7.14453,1014.48
424640,-0.545194,9.71784,1.35342,-0.07,0.35,-0.42,27.6728,-39.342,-5.92529,1014.48
424646,-0.569106,9.7274,1.34385,0.07,0.28,-0.14,27.329,-38.387,-7.4706,1014.48
424652,-0.559541,9.73697,1.31516,0.49,-0.35,-0.21,27.7301,-39.3709,-6.52073,1014.48
424658,-0.535629,9.71784,1.31994,0.56,-0.14,-0.7,27.6155,-39.342,-5.54251,1014.49
424664,-0.545194,9.73218,1.31038,0.42,-0.14,-0.21,27.3863,-38.0976,-6.6625,1014.49
424670,-0.569106,9.75131,1.28647,0.49,0.14,-0.21,27.5009,-39.1104,-7.13035,1014.5
424676,-0.588235,9.72262,1.29603,0,0.14,-0.21,27.5009,-39.776,-6.2939,1014.5
424682,-0.573888,9.72262,1.32472,0.07,0.07,-0.21,27.2717,-38.0108,-6.33643,1014.43
424688,-0.559541,9.72262,1.32951,0.35,0.35,0.07,27.0426,-38.358,-7.05946,1014.43
424694,-0.559541,9.71305,1.31994,0.07,0,-0.21,27.2717,-39.0236,-5.75517,1014.49
424700,-0.545194,9.68914,1.33429,0.21,-0.14,-0.35,27.3863,-39.776,-6.37896,1014.49
424706,-0.593018,9.74175,1.30081,0.21,0.21,-0.14,27.4723,-38.1555,-7.35718,1014.49
424712,-0.588235,9.76566,1.31516,0.35,-0.28,0.28,27.6155,-39.6313,-6.84681,1014.49
424718,-0.516499,9.7274,1.32472,0,0.21,0.28,27.7014,-39.313,-5.8544,1014.48
424724,-0.545194,9.74653,1.31516,0.07,0.21,0.28,26.842,-37.7214,-6.84681,1014.48
424730,-0.583453,9.78001,1.28647,0.35,-0.14,0.42,27.1285,-38.9079,-6.50655,1014.48
424736,-0.57867,9.75131,1.29125,0.35,-0.21,0,27.0712,-39.776,-6.44985,1014.51
424742,-0.559541,9.74175,1.31516,0.28,0.21,0.14,27.8447,-38.9368,-6.56326,1014.51
424748,-0.511717,9.70827,1.33429,0.07,0.14,0.21,27.2144,-37.6346,-6.70503,1014.51
424754,-0.492587,9.70349,1.33429,0.49,0.49,0.07,27.9593,-38.9079,-6.80427,1014.51
424760,-0.57867,9.69871,1.32472,0.35,0.14,-0.07,26.7847,-38.387,-5.78352,1014.49
424766,-0.526064,9.68914,1.32472,0.07,0.28,-0.07,27.0426,-38.0976,-6.71921,1014.49
424772,-0.526064,9.69392,1.3582,0.56,-0.21,-0.28,28.0165,-38.5027,-7.1587,1014.5
424778,-0.526064,9.70349,1.32951,0.63,0.28,-0.14,27.1858,-39.4577,-6.15213,1014.5
424784,-0.564323,9.74653,1.29125,-0.07,-0.14,-0.14,27.6728,-38.3001,-7.31465,1014.51
424790,-0.569106,9.78479,1.25777,0.21,0.35,-0.07,27.0712,-39.0815,-7.69743,1014.51
424796,-0.564323,9.74175,1.3056,0.49,0.14,0.28,27.7014,-40.0075,-5.982,1014.5
424802,-0.540411,9.71784,1.31994,-0.35,0.49,-0.07,27.2717,-39.0236,-6.61997,1014.5
424808,-0.511717,9.7274,1.32472,0.77,0.28,0.21,26.5556,-38.5606,-7.75414,1014.5
424814,-0.530846,9.73697,1.30081,0.56,-0.21,0.07,27.2144,-40.0944,-7.20123,1014.49
424820,-0.540411,9.76088,1.32472,-0.35,0.35,0.07,27.3863,-38.6185,-7.93845,1014.49
424826,-0.549976,9.7274,1.3056,0.28,-0.21,0.28,27.5582,-37.6924,-7.03111,1014.52
424832,-0.545194,9.70827,1.33907,0.14,0.07,0.21,26.842,-39.1973,-6.22301,1014.52
424838,-0.540411,9.73218,1.31994,0.07,0,0.28,27.6728,-39.6024,-6.86098,1014.51
424844,-0.511717,9.7274,1.33907,0.35,0.49,0.56,27.816,-38.358,-6.6625,1014.51
424850,-0.569106,9.72262,1.32951,0.21,0.07,0,26.8993,-38.0686,-7.37136,1014.53
424856,-0.569106,9.73218,1.33429,0,0.28,0.56,27.7587,-39.9207,-6.80427,1014.53
424862,-0.540411,9.70349,1.33907,-0.21,0.14,0.07,27.7874,-39.2262,-6.74756,1014.48
424868,-0.511717,9.6748,1.31994,-0.21,0,0.14,27.6728,-38.9079,-6.54909,1014.48
424874,-0.521282,9.71305,1.33907,0.14,0,0.07,27.816,-39.8918,-6.19466,1014.49
424880,-0.526064,9.69871,1.35342,-0.07,0,-0.21,27.0712,-39.2841,-6.86098,1014.49
424886,-0.506934,9.70349,1.34864,0.63,0.14,-0.35,27.0999,-38.0108,-7.04529,1014.49
424892,-0.554758,9.68436,1.32951,0,-0.07,-0.21,27.3863,-38.4448,-6.37896,1014.5
424898,-0.549976,9.74653,1.33429,0.35,0.28,-0.28,27.3863,-39.313,-6.56326,1014.5
424904,-0.573888,9.73697,1.3056,0.35,0.42,-0.21,28.0452,-38.0686,-7.01693,1014.51
424910,-0.57867,9.73218,1.29603,0.21,0.14,-0.14,28.1025,-37.8082,-6.98858,1014.51
424916,-0.545194,9.7561,1.31038,-0.07,0,0,27.2717,-39.5156,-5.7977,1014.48
424922,-0.549976,9.72262,1.28647,0.28,-0.21,0.07,27.0139,-38.7053,-6.39314,1014.48
424928,-0.569106,9.73218,1.31994,0.07,-0.14,-0.42,27.2431,-39.1973,-6.84681,1014.51
424934,-0.554758,9.72262,1.31994,0.07,0.21,-0.21,27.3577,-38.8211,-6.32225,1014.51
424940,-0.521282,9.75131,1.31994,0.42,-0.28,0.14,27.3577,-38.2133,-5.88276,1014.49
424946,-0.521282,9.70349,1.32951,0.35,0,-0.07,27.329,-37.9818,-6.40731,1014.49
424952,-0.549976,9.73697,1.32951,-0.07,0.07,0.07,27.8447,-38.6764,-5.99618,1014.51
424958,-0.57867,9.70349,1.34385,-0.21,-0.14,-0.07,27.5582,-38.7342,-5.72681,1014.51
424964,-0.549976,9.70349,1.32472,0.63,-0.14,-0.07,27.3577,-37.9818,-7.59819,1014.47
424970,-0.506934,9.70827,1.3056,0.28,-0.21,-0.07,27.4436,-38.358,-6.73339,1014.47
424976,-0.549976,9.71305,1.31516,0.28,-0.28,0.14,27.0712,-38.9657,-6.98858,1014.47
424982,-0.521282,9.72262,1.31516,0.07,-0.35,-0.14,27.2717,-38.2712,-5.54251,1014.47
424988,-0.521282,9.7274,1.32472,0,0.07,0.07,27.1858,-38.1555,-6.1663,1014.47
424994,-0.530846,9.70827,1.33907,0.21,-0.21,-0.28,27.816,-39.8629,-6.77592,1014.5
425000,-0.57867,9.73697,1.3056,-0.21,0.07,-0.28,27.6441,-39.1973,-5.89694,1014.5
425006,-0.5978,9.74653,1.34864,0.14,0.21,0,27.6728,-37.8082,-6.74756,1014.5
425012,-0.559541,9.76088,1.29125,0.14,0.35,-0.14,27.7587,-38.6185,-7.49895,1014.5
425018,-0.526064,9.70827,1.31516,0,0.35,0.07,27.816,-38.9947,-6.01035,1014.51
425024,-0.540411,9.70827,1.31038,-0.21,0.21,0.35,27.9306,-37.895,-5.59922,1014.51
425030,-0.564323,9.7274,1.35342,0.07,0.14,0.21,27.3004,-38.5027,-6.4782,1014.51
425036,-0.535629,9.70827,1.36298,-0.14,-0.35,0.07,28.303,-39.4288,-6.77592,1014.51
425042,-0.545194,9.71784,1.3582,0.42,0.35,0.28,28.1884,-38.2712,-6.76174,1014.5
425048,-0.521282,9.72262,1.29603,0.28,0.21,0.21,27.7301,-38.4448,-6.73339,1014.5
425054,-0.559541,9.74175,1.34385,-0.28,0,-0.07,27.7587,-39.7182,-6.33643,1014.5
425060,-0.554758,9.70349,1.32951,-0.07,-0.07,0,27.816,-38.6764,-5.92529,1014.5
425066,-0.526064,9.70349,1.37733,0,-0.07,0.14,27.5295,-37.5188,-6.19466,1014.5
425072,-0.530846,9.71784,1.33907,0.28,-0.28,0.14,27.5582,-38.9079,-6.32225,1014.49
425078,-0.564323,9.73218,1.33907,0.7,-0.14,-0.07,27.902,-39.0526,-5.10302,1014.49
425084,-0.545194,9.70827,1.32951,0.7,0,0.07,26.0113,-38.5895,-7.04529,1014.49
425090,-0.526064,9.73218,1.33429,0.42,-0.07,-0.14,26.6129,-38.7053,-6.57744,1014.49
425096,-0.545194,9.71784,1.32472,0.28,0.14,0.07,27.7874,-39.313,-5.75517,1014.51
425102,-0.559541,9.71305,1.30081,0.21,-0.07,0.14,27.3863,-39.1104,-6.39314,1014.51
425108,-0.564323,9.7274,1.31038,0.21,-0.28,-0.07,27.2431,-38.1265,-6.33643,1014.48
425114,-0.545194,9.72262,1.32951,0.35,0.21,0.14,27.4436,-39.5735,-6.26554,1014.48
425120,-0.545194,9.74175,1.33429,0.56,0.07,-0.14,27.3577,-39.1104,-7.08782,1014.5
425126,-0.545194,9.7274,1.34864,0.35,-0.21,0.07,27.0999,-37.7214,-6.33643,1014.5
425132,-0.559541,9.72262,1.31038,0.21,0.14,0.28,27.7014,-38.7921,-6.1663,1014.47
425138,-0.530846,9.73697,1.31994,0.07,-0.35,-0.21,27.1571,-38.6185,-6.25137,1014.47
425144,-0.530846,9.69392,1.34385,0.35,0.21,-0.35,27.6728,-38.2133,-6.13795,1014.47
425150,-0.492587,9.71305,1.33907,0.14,0,-0.07,27.4723,-38.9368,-6.40731,1014.52
425156,-0.554758,9.73697,1.3056,0.28,-0.21,-0.14,27.1571,-40.0365,-6.20883,1014.52
425162,-0.535629,9.73697,1.34385,0.07,0,0.14,27.0426,-38.9657,-6.61997,1014.49
425168,-0.583453,9.75131,1.31516,0.35,0.14,-0.21,27.3863,-38.8211,-6.36478,1014.49
425174,-0.540411,9.73218,1.32472,0.42,-0.42,-0.07,27.6441,-39.1973,-5.95365,1014.49
425180,-0.545194,9.73697,1.33429,0.21,-0.14,-0.42,26.8707,-38.6185,-6.09542,1014.49
425186,-0.526064,9.69871,1.32951,0.21,0.07,-0.21,27.3577,-37.895,-6.30807,1014.46
425192,-0.526064,9.70827,1.36777,0.21,-0.14,-0.14,27.2144,-38.8211,-5.74099,1014.46
425198,-0.57867,9.75131,1.31516,0.35,0,0,27.5582,-38.9079,-6.25137,1014.48
425204,-0.569106,9.7274,1.29603,0.14,-0.14,0.14,27.2431,-37.6635,-6.50655,1014.48
425210,-0.57867,9.73697,1.3056,0.07,-0.21,-0.21,27.2144,-38.7053,-6.35061,1014.5
425216,-0.549976,9.7274,1.32951,0.35,-0.35,-0.14,27.5582,-39.6603,-5.982,1014.5
425222,-0.535629,9.7274,1.34864,0.28,0.49,-0.14,26.9566,-38.0976,-6.6625,1014.5
425228,-0.564323,9.71784,1.33429,0.49,0.21,0.21,27.7014,-37.9239,-6.63415,1014.54
425234,-0.564323,9.72262,1.33429,0.35,-0.14,-0.07,27.5868,-39.2262,-6.90351,1014.54
425240,-0.526064,9.70827,1.33429,0.14,-0.28,-0.21,27.0139,-38.7342,-6.83263,1014.5
425246,-0.526064,9.71784,1.31994,0.56,-0.21,0.07,27.7587,-38.1555,-6.69086,1014.5
425252,-0.511717,9.70349,1.31994,0.14,-0.49,-0.42,27.2431,-39.9786,-5.88276,1014.51
425258,-0.545194,9.7274,1.32951,0.07,0.21,-0.07,27.2431,-39.4866,-6.54909,1014.51
425264,-0.49737,9.7274,1.30081,0.14,0.07,0,27.6155,-38.2133,-5.8544,1014.53
425270,-0.554758,9.75131,1.33907,0.07,0.21,-0.14,27.3863,-38.7053,-7.07364,1014.53
425276,-0.516499,9.68914,1.34864,0.28,-0.07,-0.14,27.7587,-39.0526,-6.63415,1014.49
425282,-0.564323,9.71305,1.32472,0,-0.28,-0.14,27.5295,-38.7632,-6.22301,1014.49
425288,-0.545194,9.71784,1.3056,0.63,-0.35,-0.42,28.0165,-37.8371,-7.05946,1014.49
425294,-0.559541,9.71784,1.32472,0.21,0.21,-0.28,28.0452,-39.3998,-5.68428,1014.49
425300,-0.5978,9.74175,1.32472,0.28,0.14,-0.07,26.7561,-38.9079,-6.50655,1014.49
425306,-0.540411,9.75131,1.29125,0.35,0.35,0,27.9593,-37.6924,-6.73339,1014.52
425312,-0.573888,9.72262,1.33429,0.21,0.42,-0.21,26.5556,-39.6603,-6.23719,1014.52
425318,-0.573888,9.73218,1.35342,0.14,-0.49,0.07,27.8447,-39.8629,-6.67668,1014.51
425324,-0.549976,9.7274,1.34864,0.49,0.07,-0.07,27.6441,-38.0686,-6.25137,1014.51
425330,-0.549976,9.71305,1.33907,0.21,-0.84,0.28,27.4436,-38.358,-5.40074,1014.48
425336,-0.521282,9.7274,1.35342,0,0.35,0.28,27.5295,-39.0236,-4.81947,1014.48
425342,-0.521282,9.73697,1.33907,0.56,-0.07,-0.49,27.1285,-38.6474,-6.90351,1014.49
425348,-0.530846,9.70827,1.32951,0.07,0.49,-0.35,27.0999,-38.4738,-6.36478,1014.49
425354,-0.526064,9.71305,1.3056,0.07,-0.21,0,27.2717,-38.7632,-6.20883,1014.47
425360,-0.564323,9.74175,1.31038,0.49,0.14,-0.07,26.6988,-38.4738,-7.42807,1014.47
425366,-0.593018,9.78001,1.26734,-0.49,-0.14,-0.14,27.415,-37.895,-7.35718,1014.49
425372,-0.511717,9.73218,1.32472,-0.63,0.21,-0.14,27.4723,-38.8211,-7.22959,1014.49
425378,-0.502152,9.70827,1.32472,0.84,-0.42,-0.07,27.4436,-39.3709,-6.20883,1014.49
425384,-0.545194,9.72262,1.33907,0.14,0.21,-0.14,27.3577,-38.3001,-6.39314,1014.49
425390,-0.516499,9.72262,1.3582,-0.14,-0.14,-0.35,27.8733,-39.3998,-6.60579,1014.49
425396,-0.502152,9.68914,1.34385,0.21,0.21,-0.14,27.329,-39.1104,-5.96782,1014.45
425402,-0.535629,9.7274,1.35342,-0.07,-0.07,-0.28,27.0999,-38.387,-6.23719,1014.45
425408,-0.573888,9.71305,1.37255,0.49,-0.07,0.07,27.6441,-37.8371,-7.01693,1014.51
425414,-0.545194,9.72262,1.33907,0.42,-0.28,-0.35,27.0999,-39.2262,-5.41491,1014.51
425420,-0.554758,9.7274,1.32472,0.56,0.07,-0.14,27.8733,-38.7342,-5.82605,1014.49
425426,-0.540411,9.74175,1.3582,0.49,-0.21,0,27.7874,-37.3741,-6.76174,1014.49
425432,-0.554758,9.7274,1.3056,0.49,0.42,-0.07,27.5582,-38.8789,-5.982,1014.48
425438,-0.593018,9.73697,1.31994,0.28,-0.35,0,26.8134,-39.2551,-5.34403,1014.48
425444,-0.554758,9.76088,1.34385,0.21,-0.49,0.28,27.2144,-38.0976,-6.08124,1014.52
425450,-0.540411,9.76566,1.3056,0.35,-0.42,0,27.5582,-38.85,-6.36478,1014.52
425456,-0.521282,9.73218,1.31038,0,0,0.28,27.6728,-39.7182,-5.95365,1014.48
425462,-0.49737,9.74653,1.32951,0.14,0.28,0.07,26.7274,-37.895,-6.90351,1014.48
425468,-0.545194,9.70349,1.36777,0.49,0.07,0.07,27.0712,-37.6924,-6.60579,1014.48
425474,-0.545194,9.70349,1.33429,0.21,0.21,0,27.1571,-39.1973,-6.57744,1014.49
425480,-0.492587,9.69871,1.33907,0,-0.21,-0.21,27.1285,-38.9079,-7.14453,1014.49
425486,-0.521282,9.73218,1.33429,0.35,-0.28,-0.28,27.1858,-38.4448,-5.95365,1014.48
425492,-0.506934,9.70349,1.33907,0.21,-0.35,-0.14,27.5009,-39.5445,-6.25137,1014.48
425498,-0.521282,9.7274,1.33907,0.49,0.35,-0.35,26.5556,-39.0236,-6.25137,1014.51
425504,-0.564323,9.67001,1.3582,0.28,0.42,0,27.329,-38.4738,-5.76934,1014.51
425510,-0.554758,9.69871,1.35342,0.07,0.63,-0.28,27.816,-38.7053,-6.54909,1014.48
425516,-0.554758,9.7274,1.33907,0.49,-0.49,-0.14,27.1285,-39.3709,-6.67668,1014.48
425522,-0.545194,9.68914,1.34864,0,0.35,-0.21,26.7847,-38.4448,-7.01693,1014.49
425528,-0.564323,9.77044,1.31038,0.56,-0.42,-0.07,26.842,-37.8371,-6.64832,1014.49
425534,-0.631277,9.73218,1.30081,0.42,-0.49,-0.14,26.2691,-39.2262,-6.33643,1014.5
425540,-0.564323,9.77044,1.31516,-0.14,-0.49,0.35,26.8707,-38.7921,-6.46402,1014.5
425546,-0.540411,9.74175,1.32951,0.14,0.14,0.07,27.1285,-37.6635,-6.30807,1014.49
425552,-0.545194,9.71784,1.33907,0.42,-0.28,-0.21,26.9566,-39.9207,-6.05289,1014.49
425558,-0.564323,9.74653,1.32951,0.07,0.21,0.07,26.5269,-38.8211,-6.54909,1014.49
425564,-0.564323,9.7274,1.33907,0.42,-0.28,0.35,26.9853,-37.5477,-6.96022,1014.48
425570,-0.49737,9.73697,1.31038,0.28,-0.21,0.14,27.0999,-38.7921,-6.10959,1014.48
425576,-0.506934,9.70827,1.32472,0.35,-0.14,0,27.2144,-39.0815,-5.58504,1014.5
425582,-0.526064,9.72262,1.36298,0.56,0,-0.21,27.0139,-38.4159,-5.1739,1014.5
425588,-0.540411,9.71305,1.33429,0.28,0.21,-0.28,27.0999,-38.8789,-6.25137,1014.54
425594,-0.540411,9.75131,1.31516,0.14,0.28,0.14,25.5243,-40.7021,-5.92529,1014.54
425600,-0.535629,9.69871,1.33907,0.21,0.21,-0.21,26.7561,-39.0526,-4.89036,1014.51
425606,-0.535629,9.73218,1.33429,0.49,-0.14,-0.21,27.5009,-38.0108,-5.82605,1014.51
425612,-0.564323,9.69871,1.34864,0.42,-0.21,-0.35,26.9566,-39.0815,-5.07466,1014.49
425618,-0.526064,9.76566,1.32472,0.14,0.42,-0.07,26.8707,-39.4288,-5.93947,1014.49
425624,-0.564323,9.7274,1.33429,0.56,0.21,0.07,26.4696,-38.2133,-5.81187,1014.5
425630,-0.583453,9.73218,1.32472,0.07,0.35,-0.28,27.2431,-38.7053,-6.01035,1014.5
425636,-0.61693,9.7274,1.36298,0.35,-0.21,0,26.6702,-39.2841,-6.10959,1014.5
425642,-0.573888,9.74175,1.32951,0.63,-0.14,0.35,26.7847,-40.0075,-7.00275,1014.5
425648,-0.5978,9.77044,1.28647,-0.35,-0.35,0.28,26.2405,-39.1394,-6.6625,1014.5
425654,-0.5978,9.75131,1.31994,-0.42,0.14,0.56,27.1285,-40.1522,-6.19466,1014.5
425660,-0.573888,9.78479,1.29125,-0.07,0.21,0.98,26.8993,-39.4866,-6.46402,1014.5
425666,-0.540411,9.76088,1.32472,-0.42,0.07,0.84,26.5842,-38.6185,-6.20883,1014.49
425672,-0.511717,9.72262,1.3582,0.14,-0.21,0.7,27.5009,-39.313,-5.82605,1014.49
425678,-0.545194,9.68436,1.37733,0.14,0.42,0.77,26.842,-39.4288,-5.54251,1014.48
425684,-0.521282,9.73218,1.33907,0.14,0.21,0.49,26.7274,-37.6056,-6.18048,1014.48
425690,-0.526064,9.7274,1.34864,0,0.35,0.56,27.0999,-38.9657,-7.1587,1014.47
425696,-0.511717,9.67958,1.36298,0.56,-0.56,0,26.0399,-40.4706,-5.982,1014.47
425702,-0.483022,9.69871,1.3582,-0.21,-0.28,0.42,27.0426,-38.0686,-5.15973,1014.48
425708,-0.506934,9.69871,1.34385,0.42,0.28,0.7,27.2431,-38.9657,-6.32225,1014.48
425714,-0.545194,9.71305,1.30081,-17.85,0.35,0.07,26.8134,-39.4288,-6.25137,1014.48
425720,-0.516499,9.67001,1.37733,0,0.28,0.21,27.0426,-38.8211,-5.62757,1014.47
425726,-0.516499,9.7274,1.32472,-0.07,0.28,0.56,26.9853,-37.8661,-6.20883,1014.47
425732,-0.545194,9.68914,1.41081,-17.5,-0.28,-0.21,26.7274,-39.1104,-6.13795,1014.49
425738,-0.49737,9.73218,1.32472,0.28,-0.28,0.21,27.2717,-39.1683,-6.63415,1014.49
425744,-0.549976,9.68914,1.33907,0.42,0.14,0.14,27.3004,-38.4738,-7.32883,1014.47
425750,-0.506934,9.72262,1.30081,-17.85,0.49,-0.35,27.9879,-38.7342,-6.56326,1014.47
425756,-0.583453,9.70349,1.39646,0.63,0.07,0.28,27.7014,-39.4866,-7.07364,1014.47
425762,-0.549976,9.82305,1.27212,0.07,-0.07,0.21,26.5842,-38.4159,-6.26554,1014.47
425768,-0.57867,9.77523,1.31516,0.28,-0.56,0.21,27.1285,-38.1555,-6.98858,1014.51
425774,-0.468675,9.77044,1.29603,-0.35,-0.14,0.35,26.9566,-39.6603,-6.03871,1014.51
425780,-0.535629,9.70349,1.39168,0.42,-0.21,0.35,28.0165,-38.7921,-6.57744,1014.48
425786,-0.530846,9.69871,1.37733,0.42,0,0.35,27.0712,-37.9529,-7.03111,1014.48
425792,-0.502152,9.72262,1.32951,0.21,0.14,0.21,27.5009,-38.5895,-6.93187,1014.53
425798,-0.521282,9.71305,1.3582,-0.21,0.07,-0.21,25.9253,-40.4995,-8.13692,1014.53
425804,-0.502152,9.69392,1.34864,0.14,-0.14,0.21,27.4723,-38.0686,-7.76832,1014.53
425810,-0.540411,9.71784,1.33907,-0.07,0.42,0.07,27.4723,-39.6313,-7.42807,1014.48
425816,-0.545194,9.72262,1.3869,0,0,0.21,27.6728,-40.6442,-5.62757,1014.48
425822,-0.535629,9.71784,1.3582,17.78,0.21,-0.07,27.415,-38.5027,-7.55566,1014.53
425828,-0.564323,9.73697,1.36298,0.14,-0.07,0.14,27.0139,-37.895,-6.39314,1014.53
425834,-0.540411,9.75131,1.31516,0.35,0.49,0.14,27.5009,-39.7471,-6.13795,1014.49
425840,-0.511717,9.7561,1.34385,0.28,0.14,-0.07,27.1858,-39.6024,-6.39314,1014.49
425846,-0.559541,9.72262,1.37255,0.28,0.14,0.28,26.7274,-38.5027,-7.79667,1014.5
425852,-0.545194,9.71784,1.37255,0.49,-0.21,0.21,27.0139,-39.7471,-6.13795,1014.5
425858,-0.49737,9.73218,1.33907,0.21,-0.14,0.14,27.2717,-39.4288,-6.83263,1014.48
425864,-0.535629,9.73697,1.3582,0.49,-0.21,0.07,26.8707,-38.0397,-6.98858,1014.48
425870,-0.492587,9.73697,1.34864,0.28,0.14,0.07,27.0139,-38.7342,-6.56326,1014.51
425876,-0.549976,9.71784,1.36777,0.35,0.35,0.14,27.3863,-39.342,-5.75517,1014.51
425882,-0.554758,9.74175,1.31516,0.35,0.56,0.42,27.6155,-38.0686,-5.65593,1014.51
425888,-0.506934,9.73697,1.30081,0.63,0.14,0.28,27.6728,-38.4738,-7.07364,1014.5
425894,-0.511717,9.73697,1.32951,17.71,-0.28,0.56,27.415,-39.5735,-6.1663,1014.5
425900,-0.521282,9.76088,1.34864,-0.35,0.07,0.42,26.3837,-40.1233,-6.53491,1014.52
425906,-0.502152,9.71305,1.3582,0.28,-0.14,0.07,26.6702,-37.7214,-6.39314,1014.52
425912,-0.473458,9.69871,1.36777,17.64,0.28,-0.14,27.3863,-39.2262,-6.1663,1014.49
425918,-0.535629,9.70827,1.38211,0.14,0.21,0.42,26.6129,-39.8339,-6.35061,1014.49
425924,-0.535629,9.71305,1.38211,0.77,0.77,-0.21,27.0999,-37.9818,-6.15213,1014.5
425930,-0.540411,9.72262,1.34385,0.14,-0.14,-0.07,27.329,-38.9079,-6.30807,1014.5
425936,-0.535629,9.73218,1.33429,0.28,0.56,0.42,27.4723,-39.6892,-6.53491,1014.47
425942,-0.57867,9.71784,1.33907,0.49,-0.35,-0.14,27.9879,-38.9079,-7.27212,1014.47
425948,-0.492587,9.74653,1.35342,17.78,-0.07,0.14,27.4723,-39.2262,-7.31465,1014.46
425954,-0.540411,9.70827,1.3869,0.49,0,0.35,27.3004,-40.0654,-6.06706,1014.46
425960,-0.549976,9.71305,1.38211,0.63,-0.7,-0.28,26.9566,-38.8211,-6.03871,1014.48
425966,-0.483022,9.79436,1.24821,-17.36,0.56,0,27.7874,-38.2712,-6.94604,1014.48
425972,-0.540411,9.72262,1.33907,0.14,-0.28,0.35,27.3863,-38.9079,-7.00275,1014.48
425978,-0.430416,9.7561,1.30081,-0.14,0.91,0.21,26.7561,-39.1104,-7.17288,1014.48
425984,-0.559541,9.71784,1.36777,-17.78,0,-0.07,27.4723,-38.0686,-6.71921,1014.48
425990,-0.473458,9.75131,1.31994,0.21,0.91,0.35,27.2144,-38.387,-7.2863,1014.45
425996,-0.545194,9.76566,1.32951,0,0.07,0.21,27.0139,-40.3838,-7.05946,1014.45
426002,-0.516499,9.69871,1.38211,17.71,-0.21,0,26.7274,-38.1265,-6.33643,1014.47
426008,-0.49737,9.67958,1.40124,-0.07,-0.63,0,26.7847,-38.2133,-7.22959,1014.47
426014,-0.540411,9.70827,1.39646,0.28,0.07,-0.07,26.7561,-39.805,-7.13035,1014.49
426020,-0.502152,9.76566,1.34385,17.85,0.42,0.07,26.7561,-39.2841,-7.10199,1014.49
426026,-0.540411,9.76566,1.32472,0.07,0.42,-0.07,26.7274,-38.4448,-7.18706,1014.48
426032,-0.516499,9.70349,1.34864,0.42,0,0,27.1285,-39.5156,-6.35061,1014.48
426038,-0.535629,9.72262,1.32951,17.85,-0.42,0.21,27.0712,-39.5156,-7.35718,1014.49
426044,-0.545194,9.72262,1.34864,-0.14,-0.28,0.14,26.928,-38.4159,-6.67668,1014.49
426050,-0.511717,9.77523,1.3056,0,-0.14,0.28,27.5582,-39.2841,-7.39971,1014.49
426056,-0.511717,9.7274,1.3582,-0.14,-0.07,0.14,27.0712,-39.3998,-6.15213,1014.49
426062,-0.473458,9.70349,1.37733,-0.07,0.28,0.42,27.9306,-38.7053,-7.51313,1014.49
426068,-0.526064,9.69871,1.37733,0,0.07,0.49,27.0426,-37.8661,-5.3015,1014.5
426074,-0.511717,9.68914,1.37733,0,0.07,0.07,27.5868,-39.2551,-7.17288,1014.5
426080,-0.49737,9.70827,1.36777,-0.14,-0.14,0.35,26.8707,-38.7921,-6.93187,1014.49
426086,-0.506934,9.74175,1.33429,0.35,0.14,-0.07,27.4436,-37.9818,-6.37896,1014.49
426092,-0.506934,9.73697,1.36777,17.85,0.56,-0.07,27.5295,-39.3998,-5.96782,1014.45
426098,-0.49737,9.69392,1.3869,-0.42,0.28,0.14,27.902,-39.8629,-6.76174,1014.45
426104,-0.492587,9.7274,1.3582,0,0.07,-0.14,27.6155,-37.4899,-6.08124,1014.5
426110,-0.483022,9.70827,1.37255,-17.15,-0.21,-0.21,27.1285,-38.9947,-6.56326,1014.5
426116,-0.473458,9.69392,1.36298,-0.28,0.07,-0.35,27.2431,-39.342,-5.72681,1014.5
426122,-0.559541,9.71305,1.40603,-0.07,-0.14,-0.14,28.1884,-38.4159,-7.24376,1014.5
426128,-0.492587,9.70827,1.36298,-17.36,0.21,-0.14,28.1025,-37.9239,-7.04529,1014.5
426134,-0.540411,9.76566,1.34385,0.28,0.07,0,27.8447,-39.1973,-6.96022,1014.49
426140,-0.526064,9.7274,1.3869,0.28,-0.35,0.14,27.0712,-38.5895,-6.33643,1014.49
426146,-0.549976,9.73218,1.37733,0.14,-0.21,0.21,27.415,-38.6185,-6.1663,1014.47
426152,-0.530846,9.76088,1.3582,0.49,-0.21,0.35,27.5009,-39.6603,-5.91111,1014.47
426158,-0.506934,9.78479,1.32472,-0.14,0.21,0.21,27.3863,-38.8789,-5.44327,1014.47
426164,-0.511717,9.70827,1.39646,0,0,0.07,26.7561,-37.9239,-5.84023,1014.47
426170,-0.49737,9.71784,1.35342,-0.07,0.28,0.28,27.329,-38.6185,-6.64832,1014.49
426176,-0.502152,9.70827,1.3869,0.49,0.14,0.28,27.8733,-39.4288,-6.36478,1014.49
426182,-0.492587,9.72262,1.36777,0.49,0,0.07,27.0426,-38.85,-6.87516,1014.47
426188,-0.521282,9.71784,1.38211,0.28,-0.14,-0.14,27.1571,-38.5606,-7.69743,1014.47
426194,-0.516499,9.73697,1.32951,0.07,0.35,0,26.7274,-39.5445,-6.01035,1014.47
426200,-0.502152,9.75131,1.32472,0.21,0,0.28,27.0139,-38.9368,-6.56326,1014.47
426206,-0.47824,9.71784,1.3582,-0.07,0.35,-0.21,27.415,-37.8082,-7.52731,1014.46
426212,-0.521282,9.70349,1.3869,0.14,0,-0.07,26.7274,-39.6892,-6.32225,1014.46
426218,-0.492587,9.70827,1.38211,0.49,-0.49,-0.07,27.5009,-39.7471,-6.20883,1014.46
426224,-0.526064,9.74175,1.36298,0.28,-0.49,-0.35,27.2144,-38.1844,-6.90351,1014.48
426230,-0.492587,9.70827,1.37255,0.07,-0.14,0,26.441,-38.4159,-6.06706,1014.48
426236,-0.521282,9.70349,1.37255,0.21,0.21,0.21,27.1858,-40.0075,-5.71263,1014.48
426242,-0.502152,9.73218,1.34385,0,0.21,0.07,27.2717,-37.7793,-7.07364,1014.48
426248,-0.516499,9.71784,1.3582,0,0.14,0.14,27.329,-37.8371,-7.14453,1014.52
426254,-0.47824,9.73697,1.3582,0.14,-0.14,0.14,27.329,-39.1104,-6.88934,1014.52
426260,-0.516499,9.78001,1.34864,0.21,-0.14,-0.07,27.3577,-38.7342,-7.86756,1014.48
426266,-0.540411,9.73697,1.33907,-0.07,-0.14,0.35,27.2144,-37.3741,-7.13035,1014.48
426272,-0.535629,9.74653,1.37255,-0.07,-0.28,-0.07,26.842,-38.6764,-7.61237,1014.49
426278,-0.502152,9.73218,1.3582,0.07,-0.07,-0.14,27.3863,-39.4577,-5.72681,1014.49
426284,-0.483022,9.70827,1.34864,0.14,0.07,0.35,27.329,-37.8371,-7.9668,1014.48
426290,-0.430416,9.71784,1.36777,0,0,0,27.3863,-39.313,-7.07364,1014.48
426296,-0.487805,9.68436,1.40603,0.49,0,0.21,27.9306,-39.4577,-6.23719,1014.48
426302,-0.492587,9.68436,1.3869,0.28,-0.35,0,27.4723,-38.2712,-5.76934,1014.5
426308,-0.511717,9.69392,1.38211,0.77,-0.21,-0.77,27.5009,-37.9818,-6.52073,1014.5
426314,-0.492587,9.6748,1.36777,0.49,0.14,-0.42,27.2717,-39.5445,-5.58504,1014.5
426320,-0.506934,9.71305,1.36777,0.28,0,-0.35,26.6702,-38.8789,-6.44985,1014.5
426326,-0.502152,9.69392,1.37733,0.77,-0.49,-0.7,27.4723,-38.1844,-6.39314,1014.5
426332,-0.483022,9.73218,1.35342,0.49,-0.07,-0.63,27.0712,-40.1522,-8.20781,1014.5
426338,-0.49737,9.7274,1.38211,0.56,-0.42,-0.77,27.6728,-38.9368,-6.86098,1014.48
426344,-0.526064,9.73218,1.3869,0.7,-0.07,-0.35,27.0426,-38.1265,-6.63415,1014.48
426350,-0.549976,9.79914,1.32472,0.21,-0.28,-0.35,27.0712,-38.6764,-7.18706,1014.46
426356,-0.521282,9.7561,1.33429,0.07,-0.21,-0.07,27.5295,-39.7182,-7.31465,1014.46
426362,-0.483022,9.78957,1.31994,0.21,17.71,-0.14,26.7561,-37.3162,-7.75414,1014.47
426368,-0.530846,9.73697,1.36777,0.14,0.14,-0.07,26.8134,-37.9529,-6.90351,1014.47
426374,-0.473458,9.71305,1.37255,0,0.07,-0.14,26.7847,-38.9947,-5.55669,1014.5
426380,-0.530846,9.7274,1.36298,0.42,-0.42,-0.28,26.7561,-38.9947,-6.43567,1014.5
426386,-0.473458,9.72262,1.37255,0.56,-0.28,-0.14,26.5842,-38.0976,-6.93187,1014.5
426392,-0.516499,9.72262,1.35342,-0.14,-0.07,-0.21,26.928,-38.6185,-6.26554,1014.49
426398,-0.492587,9.69392,1.40124,0.35,0.28,-0.07,27.1285,-39.1104,-6.61997,1014.49
426404,-0.506934,9.71784,1.37733,0.28,0.07,-0.28,26.6415,-37.8082,-7.92427,1014.51
426410,-0.530846,9.71784,1.3582,0.63,0.21,-0.56,27.3004,-38.6185,-5.8544,1014.51
426416,-0.502152,9.74175,1.36777,0.35,0.14,-0.14,27.7587,-39.5445,-6.46402,1014.46
426422,-0.511717,9.75131,1.31994,0.28,0.07,-0.35,26.9566,-38.2133,-6.74756,1014.46
426428,-0.530846,9.76566,1.34864,0,0.21,0,26.4123,-38.2712,-6.96022,1014.46
426434,-0.521282,9.71784,1.3582,-0.07,0.07,-0.28,27.0426,-40.1812,-5.78352,1014.46
426440,-0.530846,9.73697,1.40124,0.42,0.35,-0.07,26.7847,-38.9947,-6.37896,1014.5
426446,-0.49737,9.71784,1.39646,0.35,0,-0.42,27.7301,-37.895,-7.1587,1014.5
426452,-0.535629,9.73218,1.34864,0.35,-17.64,-0.49,27.0712,-39.4288,-6.49238,1014.5
426458,-0.492587,9.71784,1.37255,0.7,0.21,-0.14,27.7301,-39.7471,-6.84681,1014.5
426464,-0.511717,9.70349,1.3582,0.7,0.14,-0.49,27.1571,-38.6764,-7.13035,1014.5
426470,-0.506934,9.74653,1.38211,0.63,0.42,-0.42,26.9853,-39.342,-6.64832,1014.47
426476,-0.487805,9.73218,1.34864,0.56,0.14,-0.35,26.6988,-40.0365,-7.17288,1014.47
426482,-0.521282,9.7274,1.32472,0.21,-0.14,-0.35,26.2691,-38.5027,-6.2939,1014.45
426488,-0.511717,9.71784,1.32472,0.14,0.07,-0.7,27.2144,-38.387,-7.62655,1014.45
426494,-0.492587,9.69871,1.36298,0.14,-0.07,-0.21,26.8993,-39.9786,-7.32883,1014.49
426500,-0.49737,9.67958,1.37733,0.28,0.42,-0.77,27.5009,-38.4159,-7.55566,1014.49
426506,-0.511717,9.69392,1.38211,0.56,-17.5,-0.7,27.5295,-38.1844,-7.72579,1014.49
426512,-0.511717,9.75131,1.36298,0.91,0.21,-0.14,26.9566,-40.1522,-6.73339,1014.49
426518,-0.569106,9.74653,1.3582,0.21,0.07,-0.21,27.4723,-39.0236,-6.70503,1014.48
426524,-0.535629,9.7561,1.34385,0.63,17.78,-0.28,26.4696,-38.4159,-6.42149,1014.48
426530,-0.540411,9.77523,1.35342,0.56,-0.07,-0.35,27.0426,-39.1104,-7.72579,1014.45
426536,-0.564323,9.74175,1.34385,0.35,0.28,-0.35,26.7561,-39.4866,-7.11617,1014.45
426542,-0.569106,9.73218,1.34864,0.28,-0.21,-0.21,27.1285,-38.5606,-7.20123,1014.45
426548,-0.516499,9.73218,1.36298,0.49,0,0,27.6728,-38.6474,-6.4782,1014.45
426554,-0.487805,9.72262,1.39646,0.21,-0.07,-0.28,27.3004,-39.2551,-6.40731,1014.45
426560,-0.473458,9.70827,1.3869,0.35,-17.71,-0.28,27.5009,-39.0526,-7.1587,1014.45
426566,-0.49737,9.71305,1.37733,0.14,-0.07,-0.14,26.8993,-38.0686,-7.24376,1014.45
426572,-0.487805,9.73218,1.36777,0.49,-0.35,-0.21,27.4723,-39.4866,-6.70503,1014.49
426578,-0.487805,9.70827,1.33907,0.42,17.71,-0.14,26.4983,-39.6313,-7.03111,1014.49
426584,-0.511717,9.71305,1.36777,0.77,-0.14,-0.14,26.8707,-38.387,-7.20123,1014.52
426590,-0.506934,9.73218,1.31516,0.14,0.14,-0.07,27.3004,-38.8789,-5.04631,1014.52
426596,-0.554758,9.69392,1.39168,0.21,-0.21,-0.42,26.8707,-39.9786,-5.23061,1014.52
426602,-0.502152,9.74653,1.35342,0.35,-0.28,-0.07,27.3004,-38.9947,-6.26554,1014.52
426608,-0.526064,9.73697,1.33907,0.21,-0.21,-0.14,27.0712,-38.1265,-7.35718,1014.51
426614,-0.502152,9.71784,1.36777,0.42,0,-0.21,27.1285,-39.805,-6.09542,1014.51
426620,-0.516499,9.71784,1.3582,0.21,-0.07,-0.21,27.4723,-38.7632,-6.44985,1014.48
426626,-0.502152,9.7274,1.36298,0.07,0.28,-0.42,26.7847,-38.4448,-6.43567,1014.48
426632,-0.545194,9.7274,1.36298,0.42,17.78,-0.07,27.6441,-38.7342,-6.91769,1014.48
426638,-0.530846,9.73218,1.3582,-0.07,0.14,-0.56,27.5582,-38.9947,-7.18706,1014.47
426644,-0.47824,9.69871,1.36298,-0.35,-0.07,-0.21,27.5868,-38.1844,-7.03111,1014.47
426650,-0.511717,9.71784,1.34385,0.14,-17.64,-0.14,27.1285,-38.6474,-7.10199,1014.52
426656,-0.540411,9.69871,1.41559,0.21,-0.42,-0.42,27.1858,-39.6603,-6.86098,1014.52
426662,-0.502152,9.74175,1.37255,0.28,-0.49,-0.28,26.9853,-37.8661,-7.08782,1014.46
426668,-0.483022,9.68914,1.37733,0.56,-0.14,-0.21,27.3863,-38.4738,-7.1587,1014.46
426674,-0.463893,9.70349,1.33907,0.49,-0.42,-0.63,27.0426,-39.5735,-6.63415,1014.47
426680,-0.516499,9.70827,1.38211,0.14,-0.07,-0.28,26.6988,-38.0976,-7.62655,1014.47
426686,-0.506934,9.71305,1.37255,0.56,-0.07,-0.7,27.4723,-37.895,-6.88934,1014.51
426692,-0.516499,9.70827,1.36298,0.63,0.14,-0.35,27.7014,-39.0236,-7.30047,1014.51
426698,-0.47824,9.70827,1.34864,0.7,0,-0.35,27.3577,-40.0944,-6.20883,1014.47
426704,-0.47824,9.7274,1.34864,0.07,-17.78,-0.42,26.842,-38.1844,-7.24376,1014.47
426710,-0.49737,9.71305,1.37255,0.14,0,-0.56,27.3863,-38.7342,-6.94604,1014.47
426716,-0.516499,9.71784,1.33429,0.21,-0.63,-0.42,26.9853,-39.805,-6.42149,1014.51
426722,-0.526064,9.74175,1.34864,0.14,-0.49,-0.42,26.6702,-38.7921,-6.69086,1014.51
426728,-0.516499,9.77044,1.31516,-0.14,-0.07,-0.28,27.0139,-39.5735,-7.48478,1014.53
426734,-0.502152,9.78479,1.32472,-0.14,0.07,-0.49,27.1571,-39.3709,-6.56326,1014.53
426740,-0.588235,9.70827,1.32472,0.28,17.64,-0.21,26.8134,-38.4448,-5.982,1014.49
426746,-0.530846,9.74653,1.34864,-0.42,-0.07,-0.28,27.5295,-38.0397,-6.43567,1014.49
426752,-0.487805,9.73218,1.39646,0.14,0.14,-0.49,27.0999,-38.7053,-5.84023,1014.48
426758,-0.511717,9.70349,1.40124,-0.07,0.21,-0.21,26.6415,-39.2262,-6.43567,1014.48
426764,-0.516499,9.6748,1.40124,-0.35,-0.21,-0.56,27.1285,-38.5317,-7.6549,1014.53
426770,-0.483022,9.69392,1.39646,0.35,-0.42,-0.42,27.415,-38.7342,-6.96022,1014.53
426776,-0.530846,9.72262,1.3869,0.56,17.64,-0.35,27.415,-39.6603,-6.83263,1014.45
426782,-0.487805,9.70827,1.31994,0.21,0.07,-0.84,27.1285,-38.2133,-5.61339,1014.45
426788,-0.549976,9.74175,1.37255,0.21,0.21,-0.42,27.2717,-38.1265,-6.27972,1014.46
426794,-0.526064,9.73697,1.35342,0.42,17.78,-0.35,27.3863,-39.0526,-6.43567,1014.46
426800,-0.569106,9.69871,1.38211,0.63,0.07,-0.7,27.2717,-38.8789,-7.49895,1014.46
426806,-0.516499,9.70827,1.37733,0.42,-0.21,-0.14,27.2144,-38.2133,-7.17288,1014.48
426812,-0.516499,9.68914,1.3869,0.28,-17.71,-0.56,27.5868,-39.1104,-5.84023,1014.48
426818,-0.535629,9.68436,1.38211,0.42,-0.07,-0.77,27.3863,-38.9368,-5.86858,1014.51
426824,-0.516499,9.70349,1.33907,0.98,-0.21,-0.56,27.6441,-37.7793,-6.88934,1014.51
426830,-0.545194,9.73218,1.36298,0.63,-0.21,-0.35,27.4723,-39.1394,-6.63415,1014.5
426836,-0.564323,9.73218,1.37733,0.49,-0.35,-0.21,26.9853,-39.7182,-6.09542,1014.5
426842,-0.535629,9.73697,1.33907,-0.14,-0.14,-0.14,27.1285,-38.5027,-6.80427,1014.49
426848,-0.511717,9.73218,1.33429,0.77,0.07,-0.28,26.6415,-38.5317,-7.73996,1014.49
426854,-0.530846,9.74175,1.35342,0.14,0.49,-0.07,26.6702,-39.3709,-6.67668,1014.51
426860,-0.554758,9.74653,1.3582,0,-0.14,-0.28,27.4436,-38.8789,-6.83263,1014.51
426866,-0.506934,9.69871,1.37733,0.56,-0.07,-0.14,27.4436,-38.387,-6.7901,1014.51
426872,-0.506934,9.72262,1.34385,-0.07,0.07,-0.49,27.329,-39.4288,-6.81845,1014.51
426878,-0.521282,9.70827,1.39168,0.14,0.21,-0.14,27.2144,-39.0526,-7.08782,1014.51
426884,-0.540411,9.68914,1.41081,0.77,17.78,-0.56,27.1571,-37.6056,-6.81845,1014.5
426890,-0.535629,9.70349,1.39168,0.49,0.07,-0.49,27.4436,-39.0236,-6.77592,1014.5
426896,-0.521282,9.68914,1.3582,0.63,0.42,-0.49,27.2431,-39.5156,-5.84023,1014.54
426902,-0.526064,9.70827,1.36777,0.49,0.14,-0.56,27.329,-37.8661,-7.00275,1014.54
426908,-0.516499,9.68914,1.36298,0.7,0.42,-0.56,27.329,-38.7342,-6.35061,1014.48
426914,-0.545194,9.74653,1.31994,0.35,0.07,-0.42,26.8993,-39.805,-6.32225,1014.48
426920,-0.554758,9.75131,1.31994,0.77,0.14,-0.21,27.3577,-39.1973,-6.69086,1014.49
426926,-0.559541,9.7274,1.32951,0.28,0.21,0,27.329,-38.2133,-6.30807,1014.49
426932,-0.549976,9.73218,1.35342,0.42,-0.07,-0.21,27.7301,-39.4866,-6.76174,1014.51
426938,-0.516499,9.69871,1.37733,0.56,0.21,-0.21,27.1858,-39.3709,-5.84023,1014.51
426944,-0.559541,9.74175,1.37733,0.98,-0.21,-0.28,27.4723,-38.1265,-6.77592,1014.49
426950,-0.535629,9.75131,1.36298,0.63,-0.07,-0.14,27.0712,-38.6474,-7.41389,1014.49
426956,-0.535629,9.69871,1.36298,0.7,-0.35,-0.28,27.1571,-39.0236,-6.70503,1014.49
426962,-0.521282,9.71784,1.36298,0.98,0.07,-0.35,27.1285,-38.5027,-6.1663,1014.49
426968,-0.535629,9.7274,1.31994,0.14,0.49,0.07,27.2717,-39.313,-7.72579,1014.49
426974,-0.545194,9.74653,1.34385,0.77,0.42,0.07,26.7274,-39.7471,-6.80427,1014.49
426980,-0.540411,9.73697,1.36298,0.49,-0.21,-0.21,26.842,-38.7632,-6.96022,1014.49
426986,-0.47824,9.74175,1.34385,0.49,0.21,-0.14,27.0999,-39.1973,-7.92427,1014.5
426992,-0.535629,9.67958,1.42516,0.28,-0.28,-0.28,27.6155,-38.9947,-6.40731,1014.5
426998,-0.506934,9.74653,1.34864,0.21,0.42,-0.28,26.8134,-39.805,-7.13035,1014.49
427004,-0.530846,9.72262,1.36777,0.91,0.42,0.07,27.0999,-37.8661,-7.31465,1014.49
427010,-0.511717,9.70349,1.36777,0.49,0.63,17.5,27.6441,-39.6603,-6.59162,1014.52
427016,-0.573888,9.74175,1.34385,0.49,-0.14,-0.35,27.2144,-39.0815,-7.31465,1014.52
427022,-0.545194,9.71305,1.35342,0.42,-0.42,-0.28,28.1025,-37.7793,-6.84681,1014.51
427028,-0.521282,9.73218,1.38211,0.35,-0.56,17.57,27.0139,-38.6764,-7.39971,1014.51
427034,-0.540411,9.73218,1.37733,0.42,-0.07,-0.07,26.7561,-39.7182,-6.36478,1014.46
427040,-0.526064,9.76566,1.3056,0.21,0.42,0.63,27.0999,-38.387,-6.60579,1014.46
427046,-0.506934,9.75131,1.31038,0.63,0.42,0.42,27.7874,-38.0397,-6.80427,1014.46
427052,-0.564323,9.75131,1.33429,-0.14,0.07,0.14,26.9566,-39.1973,-6.93187,1014.49
427058,-0.540411,9.76088,1.3869,-0.07,-0.28,0.42,28.303,-39.5445,-5.99618,1014.49
427064,-0.530846,9.71305,1.3869,0.77,-0.7,0.07,27.7874,-37.6924,-6.26554,1014.49
427070,-0.444763,9.73218,1.34864,0.14,0.35,0.28,27.415,-38.2712,-6.25137,1014.49
427076,-0.540411,9.71305,1.32951,0,0.28,0.35,26.928,-39.3998,-6.83263,1014.49
427082,-0.554758,9.72262,1.3869,0.42,0.56,0.35,27.4723,-38.1555,-6.49238,1014.49
427088,-0.506934,9.73697,1.3056,0.07,0.21,0.28,27.816,-38.4448,-6.6625,1014.51
427094,-0.559541,9.71305,1.3869,0.35,-0.7,0.35,27.1285,-40.4706,-6.70503,1014.51
427100,-0.511717,9.73218,1.33907,0.28,-0.07,17.71,27.5009,-38.7342,-6.49238,1014.47
427106,-0.559541,9.67001,1.40124,-0.07,-0.14,0.14,27.1858,-38.7053,-6.33643,1014.47
427112,-0.449546,9.67958,1.36777,0.49,0.56,0.28,27.2144,-39.5445,-6.50655,1014.49
427118,-0.535629,9.68436,1.40603,0.7,0.07,17.71,27.6155,-38.9657,-6.2939,1014.49
427124,-0.511717,9.71305,1.34864,0.49,0,-0.14,27.9593,-37.8371,-6.87516,1014.49
427130,-0.530846,9.7561,1.33429,0.35,0.07,0.42,27.6155,-38.7921,-6.26554,1014.5
427136,-0.559541,9.77044,1.33907,0.28,0.07,-17.92,27.1571,-39.4288,-6.4782,1014.5
427142,-0.530846,9.7274,1.32951,0.28,0.42,0.35,27.0712,-38.4448,-6.77592,1014.47
427148,-0.549976,9.73218,1.3582,0.42,-0.07,0.07,27.415,-38.6764,-7.01693,1014.47
427154,-0.559541,9.73697,1.34385,0.28,-0.21,17.85,26.928,-39.1104,-6.19466,1014.49
427160,-0.521282,9.74175,1.33907,0.07,-0.35,0.35,26.6702,-38.8789,-6.35061,1014.49
427166,-0.521282,9.75131,1.33429,0.28,-0.21,0.21,27.0712,-37.7214,-6.13795,1014.47
427172,-0.540411,9.74175,1.31994,0.14,-0.35,0.42,26.3264,-39.1683,-6.88934,1014.47
427178,-0.516499,9.72262,1.34864,-0.07,-0.07,0.56,27.3577,-38.8789,-7.04529,1014.47
427184,-0.526064,9.68914,1.40603,-0.14,0.14,0.49,26.8707,-37.7793,-6.86098,1014.47
427190,-0.506934,9.68914,1.41559,0.35,0.28,0.14,26.9566,-38.5895,-7.14453,1014.48
427196,-0.526064,9.68436,1.39168,0.42,0,0,27.415,-38.8211,-5.69846,1014.48
427202,-0.511717,9.66045,1.40124,0.28,-0.56,-0.07,26.7847,-37.8371,-6.86098,1014.5
427208,-0.492587,9.68436,1.39168,0.98,-0.14,-17.85,26.355,-38.6474,-6.42149,1014.5
427214,-0.463893,9.69871,1.36298,0.63,-0.28,-0.28,27.329,-39.7182,-6.30807,1014.5
427220,-0.521282,9.73218,1.31994,0.21,0.42,-0.14,27.0999,-38.5317,-6.53491,1014.47
427226,-0.526064,9.73218,1.31516,0.35,0.21,-0.07,27.5009,-38.2133,-7.2863,1014.47
427232,-0.545194,9.77523,1.29603,0.35,0.21,-0.07,27.1285,-39.1683,-6.35061,1014.52
427238,-0.549976,9.74175,1.33907,0.28,-0.49,-0.21,26.928,-39.313,-7.04529,1014.52
427244,-0.554758,9.73218,1.34864,0.42,-0.14,0,27.0139,-38.387,-7.27212,1014.47
427250,-0.521282,9.72262,1.3869,0.56,-0.49,0.21,27.0999,-39.0236,-7.11617,1014.47
427256,-0.521282,9.70827,1.33429,0.56,0.35,0.42,27.329,-39.4577,-5.982,1014.46
427262,-0.530846,9.72262,1.3869,0.35,0,0.42,27.0426,-37.8082,-7.31465,1014.46
427268,-0.492587,9.71305,1.37255,0.42,0.35,0.35,27.4436,-38.4448,-6.9744,1014.51
427274,-0.540411,9.7274,1.33429,0.7,-0.63,0,27.1285,-39.805,-6.59162,1014.51
427280,-0.492587,9.74175,1.33907,0.49,-0.14,0.21,27.0426,-38.1265,-7.49895,1014.48
427286,-0.468675,9.70827,1.34385,0.07,0.49,0.14,26.8134,-38.5027,-6.98858,1014.48
427292,-0.483022,9.70349,1.36298,0.21,0.14,0.14,26.6702,-39.1104,-7.01693,1014.48
427298,-0.502152,9.69871,1.35342,0.49,0.21,0.07,26.1259,-38.9079,-6.10959,1014.5
427304,-0.487805,9.72262,1.34864,0.63,0,-0.07,27.3577,-37.4899,-6.12377,1014.5
427310,-0.49737,9.73218,1.31516,0.14,0.07,-0.14,27.6155,-38.7342,-6.01035,1014.52
427316,-0.492587,9.69871,1.37733,0.42,-0.21,-0.07,27.8447,-39.4288,-6.36478,1014.52
427322,-0.49737,9.67958,1.3869,0.7,0.07,0.07,26.8707,-38.1265,-7.58402,1014.5
427328,-0.530846,9.69392,1.3869,0.56,0.28,-0.35,26.8134,-38.85,-6.87516,1014.5
427334,-0.521282,9.70349,1.37733,0.56,0.07,-0.28,26.7847,-38.7632,-6.25137,1014.5
427340,-0.511717,9.70349,1.37255,0.7,0.14,0.14,27.4436,-38.6474,-5.51415,1014.5
427346,-0.511717,9.74175,1.37255,0.98,-0.35,-0.21,27.1285,-38.4159,-7.48478,1014.48
427352,-0.530846,9.73218,1.33429,0.14,-0.28,-17.71,27.0139,-39.313,-6.67668,1014.48
427358,-0.506934,9.76566,1.31516,0.49,-0.35,0.07,26.7847,-38.9657,-6.54909,1014.52
427364,-0.521282,9.73218,1.36777,0.7,0.42,-0.14,26.842,-37.6924,-7.18706,1014.52
427370,-0.535629,9.71305,1.40124,0.35,-0.21,0.14,27.1858,-38.5895,-6.63415,1014.52
427376,-0.506934,9.73697,1.34864,0.28,0.21,0.14,26.4696,-39.2551,-6.88934,1014.48
427382,-0.487805,9.76088,1.3056,0.35,-0.56,-0.07,27.3577,-38.2712,-5.95365,1014.48
427388,-0.506934,9.77044,1.28647,0,0.07,0.56,27.2144,-38.5895,-7.24376,1014.49
427394,-0.526064,9.69871,1.41559,0.21,-0.35,0.07,26.8993,-39.776,-6.60579,1014.49
427400,-0.454328,9.7274,1.33429,0.49,0.56,0,27.2717,-38.7053,-7.2863,1014.47
427406,-0.540411,9.69392,1.37733,0.07,0.21,-17.78,27.415,-37.5188,-7.00275,1014.47
427412,-0.502152,9.70349,1.38211,0.14,-0.28,-0.14,28.4176,-38.8789,-6.71921,1014.49
427418,-0.521282,9.73218,1.33429,0.35,0,0,27.4723,-39.3709,-7.39971,1014.49
427424,-0.540411,9.73697,1.31994,0.35,-0.28,17.71,27.0999,-38.7342,-6.64832,1014.51
427430,-0.545194,9.74175,1.36298,0.28,0.21,0.21,27.329,-39.1973,-6.46402,1014.51
427436,-0.47824,9.72262,1.3582,0.42,-0.28,-0.14,27.5295,-40.268,-6.56326,1014.5
427442,-0.511717,9.68436,1.41081,0.42,0.21,0.07,27.2144,-37.9818,-6.74756,1014.5
427448,-0.516499,9.70827,1.3582,0.56,-0.35,-0.07,27.2431,-39.0236,-6.73339,1014.48
427454,-0.516499,9.74175,1.29603,0.56,-0.21,0.14,26.4123,-39.8918,-6.40731,1014.48
427460,-0.521282,9.71305,1.34864,0.49,-0.63,0,26.2405,-37.8082,-6.06706,1014.48
427466,-0.47824,9.7274,1.35342,0.42,0.14,-0.28,26.928,-38.5317,-6.86098,1014.48
427472,-0.487805,9.69392,1.37733,0.14,0.21,-0.21,27.4436,-40.2101,-5.91111,1014.48
427478,-0.492587,9.71305,1.3582,0.77,0.07,-0.14,27.8733,-39.2262,-7.21541,1014.52
427484,-0.49737,9.70827,1.3582,0.77,-0.28,-0.35,27.6441,-38.0686,-6.57744,1014.52
427490,-0.502152,9.73218,1.34385,0.49,-0.35,-0.49,27.3004,-38.7921,-6.43567,1014.46
427496,-0.502152,9.71305,1.33429,0.77,-0.14,-0.49,27.329,-39.5445,-5.91111,1014.46
427502,-0.526064,9.70349,1.35342,0.42,-0.07,-0.7,27.2431,-38.9657,-7.51313,1014.5
427508,-0.545194,9.72262,1.34864,0.56,-0.35,-0.56,26.8134,-39.0815,-7.04529,1014.5
427514,-0.559541,9.73697,1.36298,0.49,-0.49,-0.28,27.6728,-39.9207,-6.4782,1014.51
427520,-0.506934,9.73218,1.34385,0.28,0,-0.21,26.6129,-38.6474,-6.06706,1014.51
427526,-0.463893,9.71305,1.3582,0.28,0.07,-0.42,27.7301,-38.3001,-6.86098,1014.47
427532,-0.487805,9.71784,1.36298,0.42,0.28,-0.21,27.5582,-40.0654,-5.93947,1014.47
427538,-0.521282,9.69871,1.37733,0.28,-0.42,-0.49,25.9253,-39.9207,-6.05289,1014.47
427544,-0.463893,9.67001,1.34864,0.77,-0.14,-0.84,27.2717,-38.0397,-7.45642,1014.47
427550,-0.473458,9.71784,1.35342,0.7,-0.42,-0.63,27.6728,-38.8211,-6.36478,1014.47
427556,-0.506934,9.71784,1.32951,0.49,0.56,-0.84,27.2717,-39.342,-6.69086,1014.5
427562,-0.545194,9.75131,1.3056,0.21,0.42,-0.49,27.1858,-38.358,-5.982,1014.5
427568,-0.540411,9.78957,1.31516,0.7,0.63,-0.42,27.1285,-38.6764,-6.05289,1014.51
427574,-0.559541,9.78001,1.28647,-0.07,0,-0.77,27.1858,-40.0944,-6.01035,1014.51
427580,-0.554758,9.73697,1.39646,0.56,-0.35,-0.07,27.2144,-38.358,-7.08782,1014.5
427586,-0.535629,9.74653,1.36298,0.42,0.07,-0.28,26.928,-38.0397,-6.76174,1014.5
427592,-0.549976,9.7561,1.32951,0.07,-0.28,-0.07,27.0712,-38.9079,-6.53491,1014.49
427598,-0.554758,9.74175,1.34864,0.56,-0.14,0.42,27.329,-38.9657,-6.19466,1014.49
427604,-0.549976,9.7274,1.34864,-0.14,-0.35,0.14,26.8993,-37.5188,-7.05946,1014.48
427610,-0.502152,9.71305,1.34864,0.42,0.14,0.07,26.9566,-39.0236,-7.05946,1014.48
427616,-0.549976,9.76088,1.34385,0.14,0.14,0.49,27.5009,-40.0944,-7.61237,1014.49
427622,-0.526064,9.71784,1.33907,0.49,0.42,0.42,27.2431,-38.1555,-6.84681,1014.49
427628,-0.526064,9.69871,1.3582,0.42,-0.35,0.21,27.2717,-38.8211,-6.7901,1014.49
427634,-0.483022,9.70827,1.39168,0.7,-0.35,0,27.1285,-40.0944,-7.10199,1014.5
427640,-0.47824,9.69392,1.36777,0.42,0.21,0.14,26.355,-39.6024,-6.20883,1014.5
427646,-0.521282,9.70349,1.3869,0.77,-0.35,0.07,26.8993,-38.4738,-6.46402,1014.48
427652,-0.511717,9.70827,1.35342,0.84,0,-0.42,27.2431,-40.268,-7.13035,1014.48
427658,-0.506934,9.73697,1.34385,0.21,-0.35,-0.28,27.3004,-39.5156,-6.60579,1014.46
427664,-0.506934,9.74653,1.33907,0.56,0.21,-0.28,27.0139,-37.7214,-7.54149,1014.46
427670,-0.535629,9.76088,1.35342,0.28,-0.14,-0.14,27.3004,-38.85,-7.39971,1014.54
427676,-0.530846,9.7561,1.35342,0.21,-0.14,-0.14,27.5582,-39.5156,-6.2939,1014.54
427682,-0.502152,9.73697,1.35342,0.49,0.14,0,27.2431,-37.9239,-6.76174,1014.5
427688,-0.530846,9.74653,1.31994,0.21,0.28,0,27.3004,-39.0815,-7.4706,1014.5
427694,-0.545194,9.75131,1.33907,0.07,0.14,0.07,27.0712,-39.6313,-7.56984,1014.49
427700,-0.530846,9.75131,1.36777,-0.21,0.35,0.14,27.0139,-38.5027,-6.03871,1014.49
427706,-0.526064,9.71305,1.37733,-0.07,-0.35,0.07,27.8447,-38.6185,-7.30047,1014.49
427712,-0.545194,9.71784,1.37733,0.21,-0.28,0.07,27.3577,-39.1973,-6.69086,1014.47
427718,-0.49737,9.72262,1.36777,0.21,-0.49,0.07,27.3004,-38.2133,-6.64832,1014.47
427724,-0.502152,9.71784,1.34864,0.35,0,0,26.6702,-38.5895,-7.58402,1014.5
427730,-0.49737,9.73218,1.37255,-0.14,-0.35,-0.14,27.6441,-38.9079,-7.00275,1014.5
427736,-0.468675,9.70827,1.3582,0.49,0.35,0.07,26.9853,-39.4866,-6.60579,1014.49
427742,-0.506934,9.70349,1.37255,0.63,-0.35,0,27.8733,-38.0686,-7.83921,1014.49
427748,-0.516499,9.71305,1.34385,0.35,0,-0.21,26.6129,-38.7053,-6.63415,1014.47
427754,-0.468675,9.68436,1.3582,0.49,-0.14,-0.28,27.2144,-39.805,-6.40731,1014.47
427760,-0.502152,9.71784,1.3582,0.28,0.14,-0.35,27.3004,-38.6474,-7.83921,1014.49
427766,-0.47824,9.71305,1.33429,0.35,0.21,-0.21,27.329,-38.1844,-7.17288,1014.49
427772,-0.535629,9.75131,1.35342,0.42,0.77,-0.21,27.5582,-39.9207,-6.61997,1014.52
427778,-0.526064,9.72262,1.34385,0.14,-0.14,0,27.0426,-39.0236,-7.7825,1014.52
427784,-0.506934,9.71784,1.36777,0.21,-0.14,0,27.3863,-38.0108,-6.60579,1014.52
427790,-0.487805,9.71305,1.36298,0.56,-0.42,0,27.3577,-39.2262,-7.13035,1014.49
427796,-0.487805,9.71305,1.3582,0.77,0.07,-0.14,27.415,-39.342,-7.45642,1014.49
427802,-0.540411,9.70827,1.3582,-0.21,-0.35,-0.35,27.0139,-38.5027,-7.62655,1014.47
427808,-0.492587,9.69392,1.35342,0.49,0.21,-0.14,26.9566,-37.9239,-7.22959,1014.47
427814,-0.545194,9.71305,1.36298,0.42,-0.07,-0.21,26.8134,-39.2262,-5.95365,1014.5
427820,-0.521282,9.75131,1.33429,-0.07,0.49,-0.14,26.928,-38.5895,-6.6625,1014.5
427826,-0.535629,9.75131,1.32951,0.14,-0.35,-0.07,26.9566,-38.6764,-6.35061,1014.48
427832,-0.49737,9.71305,1.3869,0.28,0.14,0,26.842,-39.4866,-7.37136,1014.48
427838,-0.516499,9.70349,1.39168,0.21,0.07,-0.14,27.4723,-39.0236,-6.81845,1014.5
427844,-0.549976,9.72262,1.39168,0.63,0.35,0.21,27.1571,-38.1555,-7.01693,1014.5
427850,-0.506934,9.74175,1.3582,0.21,0.14,0,27.2431,-39.1104,-7.03111,1014.5
427856,-0.506934,9.70349,1.3869,0.35,0.7,-0.14,27.6155,-39.7471,-7.01693,1014.5
427862,-0.511717,9.71784,1.37255,0.49,-0.63,-0.14,26.8993,-38.2712,-7.32883,1014.51
427868,-0.487805,9.72262,1.3582,0.91,-0.07,-0.35,26.5842,-38.3291,-5.59922,1014.51
427874,-0.511717,9.73697,1.37733,0.35,-0.63,0,26.5269,-39.8339,-6.1663,1014.51
427880,-0.540411,9.76088,1.35342,0.56,-0.21,0.14,26.842,-38.5027,-7.51313,1014.5
427886,-0.506934,9.74175,1.34864,0.42,0.21,-0.28,26.4983,-37.9818,-7.25794,1014.5
427892,-0.506934,9.70827,1.34864,0.49,0.35,0,27.0139,-39.805,-6.50655,1014.46
427898,-0.468675,9.74175,1.36298,0.07,-0.21,-0.14,27.3577,-40.0944,-7.75414,1014.46
427904,-0.540411,9.7561,1.31516,0.42,-0.07,-0.28,26.6702,-38.0976,-7.01693,1014.52
427910,-0.545194,9.74653,1.32472,0.07,-0.21,0.28,27.2717,-39.313,-7.01693,1014.52
427916,-0.49737,9.73218,1.38211,0.14,-0.07,0.14,26.928,-38.7921,-7.39971,1014.46
427922,-0.454328,9.69871,1.37733,0.21,0,0.28,27.3577,-38.2712,-6.56326,1014.46
427928,-0.516499,9.71305,1.3869,0,0.07,-0.07,27.0426,-38.5317,-6.86098,1014.51
427934,-0.516499,9.69871,1.3869,-0.21,-0.21,0,27.0139,-39.2551,-6.91769,1014.51
427940,-0.535629,9.72262,1.37255,0.07,0.14,0.14,26.7847,-38.0686,-7.32883,1014.52
427946,-0.487805,9.71305,1.37733,0.49,-0.14,0.07,27.1285,-38.2133,-8.30705,1014.52
427952,-0.502152,9.70349,1.38211,0.35,0.42,0.07,27.2431,-39.4577,-7.48478,1014.52
427958,-0.521282,9.72262,1.37255,0.49,0.21,-0.07,27.415,-39.0815,-7.04529,1014.48
427964,-0.492587,9.72262,1.39646,0.07,0.7,-0.35,27.7587,-37.9239,-7.22959,1014.48
427970,-0.540411,9.72262,1.39168,0.42,-0.49,0,26.6702,-39.2262,-7.44225,1014.46
427976,-0.487805,9.75131,1.36777,0.14,-0.42,0,26.5269,-39.6024,-6.50655,1014.46
427982,-0.511717,9.74175,1.36777,0.7,-0.77,-0.21,27.3004,-37.8661,-6.46402,1014.48
427988,-0.483022,9.71305,1.36298,0.14,0,-0.07,26.9853,-38.4448,-6.96022,1014.48
427994,-0.545194,9.74175,1.32951,0.28,0.28,0.28,26.441,-39.2262,-7.30047,1014.51
428000,-0.530846,9.7561,1.33429,0.7,0.21,0,27.3577,-37.9239,-6.37896,1014.51
428006,-0.521282,9.74653,1.31994,0.21,0.14,0,27.6155,-37.9239,-7.05946,1014.45
428012,-0.506934,9.71305,1.35342,0.35,-0.14,0.21,27.6441,-39.1394,-7.08782,1014.45
428018,-0.49737,9.70827,1.3582,0.07,0.14,-0.21,26.2405,-39.342,-6.84681,1014.51
428024,-0.554758,9.73218,1.38211,0.07,0.14,0.21,26.8707,-37.8082,-6.83263,1014.51
428030,-0.540411,9.7561,1.36298,0.07,-0.14,0.21,27.1571,-39.1104,-6.90351,1014.54
428036,-0.483022,9.7274,1.34864,0.14,-0.07,0.07,27.1285,-39.9497,-6.94604,1014.54
428042,-0.468675,9.7274,1.37733,0,-0.28,0.21,27.0712,-38.1844,-7.56984,1014.54
428048,-0.49737,9.69871,1.40603,0.21,0.07,0,27.1571,-38.7053,-7.61237,1014.51
428054,-0.521282,9.70827,1.39168,0.28,-0.07,0.07,27.0999,-39.2262,-7.32883,1014.51
428060,-0.49737,9.71305,1.37255,0.14,0.35,0.35,26.6988,-38.9947,-7.82503,1014.49
428066,-0.483022,9.71784,1.3582,0.21,0.07,0.35,26.4696,-37.6924,-6.05289,1014.49
428072,-0.49737,9.72262,1.33907,0.84,0.35,-0.14,27.1571,-40.0365,-6.88934,1014.5
428078,-0.502152,9.72262,1.3869,0.49,0,0.21,27.7014,-39.6024,-7.6549,1014.5
428084,-0.506934,9.71784,1.3582,-0.42,0,0.56,27.0999,-38.4738,-7.07364,1014.5
428090,-0.502152,9.71784,1.34385,0.84,0.07,0.14,26.4696,-38.9079,-7.27212,1014.5
428096,-0.502152,9.7274,1.34864,0.21,-0.07,-0.07,27.0426,-39.805,-7.38554,1014.5
428102,-0.502152,9.74653,1.31994,-0.07,0.28,0,27.6155,-38.8211,-7.35718,1014.5
428108,-0.483022,9.68914,1.37255,0.42,0.14,-0.14,26.6415,-39.0236,-6.35061,1014.48
428114,-0.526064,9.71784,1.3582,0.14,0.28,-0.07,27.0999,-39.3998,-6.71921,1014.48
428120,-0.526064,9.74175,1.33429,-0.14,-0.07,0.28,26.7847,-39.0236,-6.44985,1014.48
428126,-0.549976,9.73218,1.37255,0.07,-0.42,-0.21,27.0139,-38.387,-7.4706,1014.48
428132,-0.468675,9.70349,1.36777,-0.07,0.14,0.14,27.6441,-40.1233,-7.11617,1014.48
428138,-0.47824,9.71305,1.36298,0.07,0.77,0.42,26.7561,-39.805,-7.35718,1014.51
428144,-0.511717,9.72262,1.37733,0.42,0.42,-0.07,27.6441,-38.3291,-6.91769,1014.51
428150,-0.554758,9.70349,1.3869,0.28,-0.21,0.14,27.0426,-39.1973,-7.68326,1014.5
428156,-0.506934,9.69392,1.41559,0.21,-0.21,0.21,27.6155,-39.342,-7.03111,1014.5
428162,-0.47824,9.70349,1.37733,0.7,0.14,0.07,27.8447,-38.7342,-7.22959,1014.51
428168,-0.463893,9.69871,1.39168,0.91,0.14,-0.21,27.4723,-39.0526,-6.60579,1014.51
428174,-0.492587,9.6748,1.40124,0.49,-0.28,-0.21,27.2717,-39.5445,-6.61997,1014.51
428180,-0.473458,9.71305,1.37255,0.7,0,-0.14,27.6155,-38.8789,-7.08782,1014.51
428186,-0.487805,9.7274,1.34385,0.91,-0.56,-0.21,27.5009,-38.9368,-7.83921,1014.52
428192,-0.483022,9.72262,1.36298,0.63,-0.21,-0.42,27.3004,-39.776,-7.72579,1014.52
428198,-0.483022,9.71305,1.31994,0.56,0.07,-0.21,27.0139,-39.1683,-6.37896,1014.52
428204,-0.49737,9.75131,1.34864,0.63,0.07,-0.28,27.1285,-38.0108,-7.56984,1014.49
428210,-0.526064,9.78001,1.3056,0.21,0.14,-0.14,26.6702,-39.3709,-7.45642,1014.49
428216,-0.549976,9.69392,1.40603,0.21,-0.28,-0.28,27.2431,-40.0944,-7.2863,1014.48
428222,-0.47824,9.7274,1.34864,0,0.56,-0.07,27.5868,-38.6764,-7.18706,1014.48
428228,-0.526064,9.66045,1.40124,0.7,-0.35,-0.28,26.6129,-39.0236,-7.66908,1014.49
428234,-0.502152,9.7274,1.35342,0.49,-0.07,-0.14,26.8993,-38.9947,-7.44225,1014.49
428240,-0.545194,9.70349,1.36298,0.35,-0.49,-0.14,27.329,-38.6474,-6.87516,1014.46
428246,-0.47824,9.7274,1.33907,0.21,0.49,-0.14,27.1858,-38.2712,-8.02351,1014.46
428252,-0.540411,9.7274,1.37255,0.28,0.14,-0.14,27.0426,-39.6313,-6.30807,1014.46
428258,-0.49737,9.69392,1.37255,0.21,-0.14,-0.07,26.5556,-38.9368,-7.79667,1014.46
428264,-0.473458,9.7274,1.38211,-0.07,0,-0.21,27.1571,-38.8211,-6.98858,1014.49
428270,-0.502152,9.69392,1.42037,0.35,-0.07,0,27.6155,-39.805,-6.73339,1014.49
428276,-0.483022,9.71305,1.42037,0.42,0.07,-0.14,27.3004,-39.6603,-7.73996,1014.5
428282,-0.487805,9.71305,1.34864,0.77,0,-0.07,27.1285,-38.2133,-6.6625,1014.5
428288,-0.516499,9.70349,1.37733,0.42,-0.35,-0.35,27.7014,-39.313,-6.60579,1014.5
428294,-0.47824,9.70827,1.34864,0.28,0.07,-0.35,27.0712,-40.4416,-6.01035,1014.49
428300,-0.521282,9.71305,1.33429,0.42,0.07,-0.28,27.6155,-38.2423,-6.74756,1014.49
428306,-0.516499,9.73218,1.37255,0.63,-0.49,-0.56,27.0712,-37.9818,-7.68326,1014.52
428312,-0.511717,9.73697,1.34864,0.35,0,-0.14,27.2144,-39.313,-7.10199,1014.52
428318,-0.530846,9.75131,1.3582,0.42,-0.21,-0.21,27.329,-38.5606,-7.75414,1014.47
428324,-0.506934,9.78479,1.31994,0.56,0.42,0.07,27.0139,-38.387,-8.10857,1014.47
428330,-0.554758,9.77044,1.33907,0.7,-0.35,0.28,26.4983,-39.5445,-6.64832,1014.5
428336,-0.516499,9.71305,1.34864,0.35,-0.35,0.21,26.5842,-40.0944,-7.82503,1014.5
428342,-0.468675,9.70827,1.35342,0.28,-0.21,0.14,27.1285,-38.9657,-7.20123,1014.48
428348,-0.492587,9.70349,1.37255,0.77,0.21,0.21,27.0426,-38.6764,-7.88174,1014.48
428354,-0.49737,9.71784,1.36298,0.35,0.07,-0.07,27.2144,-40.0365,-6.84681,1014.5
428360,-0.487805,9.70349,1.36777,0.56,0,-0.21,26.3837,-39.0236,-7.56984,1014.5
428366,-0.492587,9.69871,1.36298,0.84,-0.07,-0.49,27.9306,-38.4448,-7.58402,1014.5
428372,-0.487805,9.70349,1.34864,0.35,-0.42,-0.42,27.2431,-39.1104,-6.7901,1014.48
428378,-0.49737,9.71784,1.33907,0.49,-0.28,-0.42,26.9853,-39.4577,-6.67668,1014.48
428384,-0.49737,9.73218,1.35342,0.35,0,-0.35,26.5269,-38.5895,-7.61237,1014.52
428390,-0.511717,9.71305,1.35342,0.28,0.42,-0.63,27.2431,-39.0526,-6.54909,1014.52
428396,-0.506934,9.69871,1.37733,0.42,0.28,-0.21,27.5868,-39.805,-7.18706,1014.49
428402,-0.49737,9.70827,1.36777,0.28,0.35,-0.63,27.1858,-38.7342,-7.41389,1014.49
428408,-0.506934,9.69392,1.36298,0.63,-0.21,-0.35,27.5582,-39.342,-7.61237,1014.47
428414,-0.487805,9.71305,1.3582,0.21,-0.42,-0.63,27.1285,-40.4706,-7.14453,1014.47
428420,-0.487805,9.71305,1.34385,0.35,0,-0.56,27.816,-38.9657,-7.11617,1014.5
428426,-0.535629,9.7274,1.36298,0.77,-0.28,-0.7,27.329,-38.4448,-7.95262,1014.5
428432,-0.521282,9.73218,1.38211,0.49,-0.07,-0.49,27.2717,-39.5445,-8.05186,1014.49
428438,-0.516499,9.7561,1.31516,0.14,-0.21,-0.21,26.6702,-39.313,-7.20123,1014.49
428444,-0.502152,9.74653,1.32472,0.35,-0.14,0.07,26.2118,-38.1555,-8.02351,1014.48
428450,-0.47824,9.7274,1.34864,0.14,0.21,-0.35,27.5582,-39.8339,-6.91769,1014.48
428456,-0.530846,9.70827,1.3869,0.35,0,0,26.7274,-39.7182,-6.9744,1014.48
428462,-0.502152,9.70349,1.36777,0.56,-0.49,0.07,27.0999,-38.6764,-7.92427,1014.5
428468,-0.502152,9.71305,1.37255,0.42,-0.21,-0.35,27.329,-39.1394,-6.71921,1014.5
428474,-0.483022,9.71305,1.3869,0.49,0,-0.21,27.3863,-39.5445,-6.98858,1014.47
428480,-0.483022,9.72262,1.34864,0.77,-0.07,-0.07,27.415,-38.4159,-7.13035,1014.47
428486,-0.49737,9.75131,1.26255,0.42,0.28,-0.42,27.5582,-38.6185,-7.48478,1014.48
428492,-0.521282,9.69392,1.4395,0.56,-0.49,-0.14,26.928,-40.4995,-6.42149,1014.48
428498,-0.401722,9.71305,1.37733,0.91,0.42,-0.07,27.5582,-38.6185,-7.61237,1014.47
428504,-0.545194,9.71305,1.3869,0.91,0.14,-0.49,27.2717,-37.7503,-7.55566,1014.47
428510,-0.483022,9.73218,1.33429,0.63,0.42,-0.35,27.2431,-39.0815,-7.18706,1014.48
428516,-0.526064,9.74175,1.33429,0.56,-0.63,-0.28,26.5556,-38.9947,-6.57744,1014.48
428522,-0.511717,9.7274,1.34864,0.7,-0.28,-0.42,27.0712,-38.1555,-6.74756,1014.48
428528,-0.564323,9.77044,1.34385,0.63,-0.56,-0.35,27.0712,-39.1683,-6.87516,1014.48
428534,-0.535629,9.78001,1.33907,0.28,0.35,-0.07,26.7561,-39.8339,-6.23719,1014.48
428540,-0.492587,9.7274,1.32951,0.21,-0.21,-0.28,27.1285,-38.5895,-6.4782,1014.5
428546,-0.530846,9.69392,1.34385,0.07,0.28,-0.28,26.8707,-38.4738,-5.72681,1014.5
428552,-0.511717,9.68914,1.36298,0.49,0,-0.35,26.5556,-39.6313,-5.72681,1014.48
428558,-0.506934,9.74175,1.3582,0.49,0.42,-0.14,27.1858,-39.0236,-6.05289,1014.48
428564,-0.506934,9.72262,1.36777,0.28,-0.35,-0.21,27.0139,-38.0397,-7.37136,1014.52
428570,-0.506934,9.73697,1.37255,0.98,-0.21,-0.35,26.6988,-39.8339,-6.77592,1014.52
428576,-0.516499,9.71784,1.3582,0.56,-0.14,-0.42,26.6988,-38.8789,-6.13795,1014.49
428582,-0.47824,9.71784,1.35342,0.56,0.07,-0.07,26.8993,-38.5317,-6.64832,1014.49
428588,-0.506934,9.68914,1.3582,1.12,0.21,-0.21,27.0712,-39.1683,-6.96022,1014.48
428594,-0.502152,9.73218,1.37255,0.28,0.35,-0.63,27.415,-39.6603,-7.13035,1014.48
428600,-0.492587,9.71305,1.33907,0.21,-0.07,-0.28,27.1571,-38.6185,-8.16528,1014.51
428606,-0.511717,9.71784,1.32472,0.56,-0.35,-0.21,27.9593,-39.0236,-8.49135,1014.51
428612,-0.506934,9.73697,1.3582,0.42,-0.28,-0.49,27.5868,-39.6313,-7.2863,1014.51
428618,-0.535629,9.74653,1.34864,0.35,-0.14,-0.07,27.329,-38.4738,-7.25794,1014.47
428624,-0.549976,9.73218,1.3582,0.42,-0.35,-0.07,26.9566,-37.7793,-7.79667,1014.47
428630,-0.47824,9.7274,1.32951,0.7,0.14,-0.56,27.7014,-38.7632,-7.54149,1014.48
428636,-0.502152,9.7274,1.36777,0.35,0.07,-0.28,26.7274,-39.342,-6.9744,1014.48
428642,-0.526064,9.73697,1.37255,0.35,-0.28,-0.21,27.9879,-37.7503,-7.05946,1014.48
428648,-0.526064,9.73218,1.36777,0.63,-0.21,-0.14,26.9853,-38.6185,-7.17288,1014.48
428654,-0.47824,9.69392,1.34385,0.35,0.28,-0.35,27.415,-39.6603,-6.73339,1014.48
428660,-0.47824,9.74653,1.3582,0.42,-0.07,-0.49,27.8447,-38.4448,-6.42149,1014.48
428666,-0.49737,9.71305,1.32951,0.21,0.21,0.07,27.0139,-38.1555,-7.76832,1014.51
428672,-0.492587,9.73697,1.34864,0.42,0.07,-0.07,27.8733,-39.776,-7.37136,1014.51
428678,-0.521282,9.68436,1.36298,0.28,0.07,-0.07,27.5582,-38.9947,-7.59819,1014.51
428684,-0.506934,9.71305,1.37255,0.42,-0.14,-0.42,27.3577,-38.7053,-7.08782,1014.51
428690,-0.468675,9.72262,1.3582,0.42,-0.07,-0.14,27.3577,-39.7471,-7.75414,1014.48
428696,-0.540411,9.70827,1.45863,0,0.14,-0.28,26.8707,-39.6313,-6.88934,1014.48
428702,-0.463893,9.63654,1.44428,0.77,-0.14,-0.56,26.6988,-37.7793,-7.37136,1014.48
428708,-0.468675,9.73697,1.3582,0.42,0.28,-0.35,27.0999,-38.5027,-8.22199,1014.52
428714,-0.521282,9.71784,1.34864,0.98,0.14,-0.21,27.1285,-39.6892,-7.343,1014.52
428720,-0.492587,9.74175,1.28168,0.35,0.07,-0.7,27.4436,-37.8371,-7.76832,1014.49
428726,-0.516499,9.7274,1.3869,0.7,0.42,-0.28,26.9566,-38.9657,-7.45642,1014.49
428732,-0.483022,9.73697,1.35342,0.84,-0.14,-0.07,27.2431,-39.6892,-6.71921,1014.48
428738,-0.530846,9.75131,1.33907,0.35,-0.21,-0.42,27.0712,-39.1683,-7.79667,1014.48
428744,-0.530846,9.76088,1.32951,0.42,-0.63,-0.21,27.4723,-37.7503,-7.75414,1014.5
428750,-0.554758,9.75131,1.31994,0.49,-0.07,-0.14,27.1285,-39.6313,-7.89591,1014.5
428756,-0.530846,9.7561,1.33907,0.35,-0.21,0.21,27.415,-39.3998,-7.81085,1014.45
428762,-0.511717,9.70827,1.36298,0.49,0,-0.28,27.3863,-38.6764,-7.32883,1014.45
428768,-0.483022,9.70827,1.36298,0.42,0,-0.21,26.842,-40.1812,-7.52731,1014.49
428774,-0.49737,9.70349,1.3869,0.42,0.35,-0.14,27.1858,-39.8918,-7.31465,1014.49
428780,-0.511717,9.71784,1.39168,0.49,-0.28,-0.28,27.7014,-38.7053,-6.77592,1014.49
428786,-0.506934,9.69392,1.34864,0.42,-0.35,-0.35,26.9853,-38.8789,-7.27212,1014.49
428792,-0.49737,9.70827,1.36777,0.7,-0.35,-0.42,26.928,-40.1233,-7.4706,1014.49
428798,-0.49737,9.71784,1.36298,0.7,0.07,-0.56,27.7014,-39.2551,-6.56326,1014.48
428804,-0.492587,9.7274,1.33429,0.14,0.21,-0.21,27.2431,-38.9947,-7.55566,1014.48
428810,-0.516499,9.7274,1.32951,0.42,0.49,-0.07,27.2431,-39.3709,-7.31465,1014.52
428816,-0.516499,9.7561,1.3056,0.63,0.28,-0.14,26.9853,-39.2551,-7.13035,1014.52
428822,-0.506934,9.73697,1.3582,0.07,-0.35,-0.07,27.0712,-37.895,-7.55566,1014.49
428828,-0.526064,9.71784,1.3582,0.91,-0.28,-0.14,27.5009,-39.0526,-6.52073,1014.49
428834,-0.49737,9.72262,1.37255,0.07,-0.14,0.14,27.6441,-39.1683,-6.88934,1014.49
428840,-0.511717,9.72262,1.33907,0.63,0.28,-0.28,27.2144,-38.3291,-7.52731,1014.49
428846,-0.49737,9.71784,1.3582,0.49,-0.14,-0.42,27.1285,-38.4159,-6.03871,1014.46
428852,-0.516499,9.70827,1.37733,0.35,-0.21,-0.21,27.3577,-40.2391,-7.32883,1014.46
428858,-0.540411,9.70827,1.33907,0.28,-0.14,-0.07,26.8993,-39.0815,-7.56984,1014.48
428864,-0.540411,9.76088,1.32951,0.42,-0.07,-0.14,27.8733,-38.387,-6.76174,1014.48
428870,-0.526064,9.74653,1.32472,0.63,-0.07,0,26.8993,-39.8339,-6.67668,1014.48
428876,-0.506934,9.73218,1.3582,0.21,0.35,-0.28,27.5295,-39.8629,-6.52073,1014.49
428882,-0.511717,9.70349,1.36777,0.63,0.28,-0.21,26.6129,-38.4738,-7.39971,1014.49
428888,-0.492587,9.71305,1.39646,0.49,0.35,0,27.2431,-38.1844,-7.54149,1014.49
428894,-0.535629,9.74175,1.36298,0.42,-0.14,-0.35,26.7274,-40.0365,-6.43567,1014.49
428900,-0.526064,9.73697,1.34385,0.49,0.28,-0.14,28.0165,-38.5317,-6.98858,1014.49
428906,-0.530846,9.73218,1.31994,0.49,0,0,25.8967,-38.0397,-8.60477,1014.49
428912,-0.564323,9.78479,1.24821,-0.14,0.77,0.14,26.5842,-39.9497,-6.91769,1014.51
428918,-0.607365,9.74175,1.4395,0.28,0,0.21,26.5269,-39.2841,-7.14453,1014.51
428924,-0.47824,9.63654,1.43472,0.84,0.21,0.28,26.2118,-38.3001,-6.91769,1014.49
428930,-0.588235,9.75131,1.3582,-0.14,-0.63,0.14,26.0113,-39.313,-5.21643,1014.49
428936,-0.47824,9.81827,1.26255,0.77,0.14,0.49,26.7274,-39.342,-6.52073,1014.49
428942,-0.746054,9.81349,1.33907,0.21,-0.35,0.42,26.7847,-38.0108,-6.71921,1014.49
428948,-0.37781,9.78001,1.22908,-0.49,1.33,0.77,27.0139,-39.9786,-7.56984,1014.49
428954,-0.521282,9.74175,1.39646,-0.07,0.14,0.63,26.6415,-40.1812,-5.54251,1014.45
428960,-0.444763,9.83261,1.26734,-0.21,0.91,0.35,26.6415,-38.7053,-6.59162,1014.45
428966,-0.511717,9.80392,1.26255,-0.56,-0.07,0.91,27.2717,-38.5027,-6.15213,1014.5
428972,-0.49737,9.74653,1.3056,-0.63,0.07,0.84,26.5842,-40.2969,-7.42807,1014.5
428978,-0.521282,9.77044,1.30081,-1.26,0.42,0.77,27.3863,-39.0815,-7.85338,1014.49
428984,-0.487805,9.71784,1.34864,-1.19,0.28,1.19,26.1259,-38.8789,-8.73236,1014.49
428990,-0.506934,9.78479,1.33429,-1.05,0.63,0.63,26.9566,-39.0236,-7.32883,1014.45
428996,-0.535629,9.73218,1.39646,-1.33,0.98,0.84,26.4983,-39.1973,-6.35061,1014.45
429002,-0.468675,9.66045,1.44428,-0.56,0.07,0.7,26.9566,-38.387,-8.02351,1014.47
429008,-0.430416,9.68436,1.41559,-0.7,0.91,0.35,26.7847,-39.0236,-6.83263,1014.47
429014,-0.526064,9.70349,1.40603,-0.35,0.21,0.91,27.1858,-39.4577,-6.84681,1014.52
429020,-0.473458,9.73697,1.33907,-0.35,0.14,0.98,27.7014,-38.6185,-6.73339,1014.52
429026,-0.521282,9.74653,1.36298,-0.63,0,0.63,27.7874,-39.5735,-7.38554,1014.52
429032,-0.468675,9.70349,1.40124,-0.84,0.42,0.91,27.5295,-40.3548,-7.27212,1014.49
429038,-0.449546,9.72262,1.37255,-0.56,0.91,0.91,26.9566,-39.2262,-7.37136,1014.49
429044,-0.506934,9.75131,1.37733,-0.56,0.63,0.49,27.4436,-38.8789,-8.23617,1014.49
429050,-0.487805,9.68436,1.42516,-0.28,0.42,0.49,27.3577,-40.0654,-6.88934,1014.49
429056,-0.492587,9.71784,1.37255,-0.21,0.14,0.63,27.1858,-39.8339,-7.00275,1014.5
429062,-0.454328,9.69392,1.41081,0.07,0.28,0.07,27.0139,-38.9657,-6.91769,1014.5
429068,-0.483022,9.66523,1.40124,0,0.21,0.49,27.1571,-38.9947,-7.18706,1014.49
429074,-0.511717,9.72262,1.3869,0.21,0.35,0.14,26.6702,-40.5863,-6.7901,1014.49
429080,-0.545194,9.74175,1.36298,0.14,0,0.14,26.928,-39.1394,-6.64832,1014.51
429086,-0.535629,9.81349,1.34385,-0.63,0.35,0.7,27.3577,-39.1973,-7.44225,1014.51
429092,-0.521282,9.73697,1.37255,-0.28,-0.14,0.49,26.928,-40.0075,-6.74756,1014.49
429098,-0.444763,9.68914,1.42516,-0.35,-0.07,0.56,27.1858,-38.9079,-7.08782,1014.49
429104,-0.473458,9.6748,1.42037,-0.21,0.49,0.35,26.355,-39.0236,-6.1663,1014.51
429110,-0.502152,9.70349,1.42037,0.21,0.21,0.07,26.7561,-39.9786,-6.30807,1014.51
429116,-0.49737,9.74175,1.3869,0.14,0.63,0.77,27.3004,-40.2391,-5.3015,1014.51
429122,-0.492587,9.70827,1.37733,0,0.07,0.42,26.4696,-38.6764,-5.86858,1014.51
429128,-0.473458,9.70349,1.39646,0.28,-0.49,0.28,27.2717,-39.342,-7.03111,1014.51
429134,-0.516499,9.74175,1.37733,0.21,-0.28,0.21,26.2977,-40.2101,-6.12377,1014.53
429140,-0.47824,9.69871,1.39168,0.49,-0.21,0.42,26.2691,-38.5317,-7.55566,1014.53
429146,-0.483022,9.74175,1.37255,-0.07,0.35,0.42,26.7561,-39.4866,-6.83263,1014.51
429152,-0.473458,9.7274,1.32472,0.35,-0.07,-0.07,26.7274,-40.2391,-7.48478,1014.51
429158,-0.444763,9.72262,1.39646,0.21,0.14,-0.07,27.415,-39.9497,-7.51313,1014.5
429164,-0.449546,9.71305,1.39646,0.28,-0.07,0.28,27.415,-39.1973,-6.42149,1014.5
429170,-0.492587,9.73697,1.36298,0.07,0,0,27.1571,-40.5285,-6.86098,1014.5
429176,-0.49737,9.76566,1.32951,0.07,-0.21,-0.21,27.0139,-40.2969,-7.38554,1014.5
429182,-0.463893,9.73697,1.34864,0.14,0.28,0.28,27.3863,-39.313,-8.49135,1014.51
429188,-0.502152,9.69392,1.3869,0,-0.07,-0.21,27.1285,-39.8629,-6.88934,1014.51
429194,-0.483022,9.69392,1.42037,0.56,0.21,0.21,27.2717,-39.6313,-6.87516,1014.51
429200,-0.511717,9.70349,1.36777,-0.07,0.07,-0.07,26.7847,-37.7793,-7.41389,1014.5
429206,-0.49737,9.70349,1.39646,0.21,-0.21,-0.07,27.2144,-38.7342,-6.71921,1014.5
429212,-0.468675,9.68436,1.42037,0.91,-0.21,-0.07,27.1858,-40.0075,-7.72579,1014.5
429218,-0.483022,9.67958,1.43472,0.56,0.21,-0.35,27.0712,-39.2551,-6.59162,1014.5
429224,-0.47824,9.71784,1.37255,0.98,-0.14,-0.42,26.5269,-38.9947,-6.80427,1014.49
429230,-0.47824,9.7274,1.38211,0.84,0.35,0,26.7847,-39.7471,-7.52731,1014.49
429236,-0.439981,9.72262,1.42037,0.7,-0.21,-0.35,26.6415,-39.5156,-7.01693,1014.5
429242,-0.492587,9.66523,1.39168,0.84,0.14,-0.07,26.2691,-38.5027,-7.08782,1014.5
429248,-0.463893,9.70827,1.3869,0.98,-0.49,-0.21,26.3264,-39.342,-6.59162,1014.47
429254,-0.463893,9.69871,1.37255,0.91,-0.14,-0.28,26.9566,-40.1233,-7.9668,1014.47
429260,-0.521282,9.70349,1.38211,0.7,-0.63,-0.28,26.5269,-38.387,-7.71161,1014.45
429266,-0.483022,9.68914,1.37733,0.7,0.14,-0.7,27.3004,-39.1683,-7.76832,1014.45
429272,-0.502152,9.70827,1.3582,0.49,0.21,-0.91,27.5582,-40.3838,-7.01693,1014.49
429278,-0.492587,9.73218,1.35342,0.77,0.28,-0.49,27.4723,-39.4866,-7.41389,1014.49
429284,-0.521282,9.72262,1.36777,0.49,-0.14,-0.35,26.7561,-40.1233,-7.95262,1014.49
429290,-0.473458,9.72262,1.37733,0.49,-0.42,-0.77,27.3004,-40.3838,-7.89591,1014.52
429296,-0.540411,9.73697,1.37255,0.7,-0.42,-0.63,27.1285,-39.6313,-7.11617,1014.52
429302,-0.483022,9.7561,1.33907,0.28,-0.14,-0.49,26.7274,-38.85,-7.73996,1014.46
429308,-0.502152,9.73218,1.36298,0.49,0.21,-0.77,27.6155,-39.2262,-7.22959,1014.46
429314,-0.492587,9.73218,1.3582,0.63,0.14,-0.14,27.3004,-40.2391,-6.90351,1014.51
429320,-0.502152,9.77523,1.36298,0.14,0.21,-0.56,26.6415,-38.6185,-7.62655,1014.51
429326,-0.483022,9.73697,1.36777,0.21,-0.28,0,27.0999,-39.1683,-8.26452,1014.48
429332,-0.473458,9.71784,1.3582,0.35,0.07,-0.28,27.6155,-40.268,-6.91769,1014.48
429338,-0.483022,9.71784,1.3869,0.49,-0.56,-0.14,26.6702,-39.0526,-8.09439,1014.45
429344,-0.47824,9.7274,1.38211,0.7,0.14,-0.07,27.2144,-38.8211,-7.83921,1014.45
429350,-0.483022,9.71784,1.37255,0.42,-0.07,-0.14,27.4436,-40.4127,-6.44985,1014.48
429356,-0.47824,9.72262,1.35342,0.49,0.35,-0.14,27.329,-39.5445,-5.93947,1014.48
429362,-0.483022,9.73697,1.36298,0.21,-0.42,-0.14,27.1858,-39.1683,-7.25794,1014.48
429368,-0.487805,9.71784,1.39646,0.07,0.14,-0.56,27.3863,-39.2551,-5.78352,1014.48
429374,-0.473458,9.71784,1.39168,0.42,-0.63,-0.21,27.3863,-40.1522,-6.32225,1014.48
429380,-0.411286,9.68436,1.41559,0.56,0.07,-0.42,27.5868,-39.1104,-7.58402,1014.51
429386,-0.516499,9.71784,1.38211,0.49,-0.77,-0.63,26.6415,-39.2841,-7.17288,1014.51
429392,-0.530846,9.78001,1.31038,0.42,-0.07,-0.42,26.7561,-40.5574,-6.67668,1014.48
429398,-0.57867,9.77523,1.34864,0.42,0,-0.35,26.9853,-38.9079,-7.45642,1014.48
429404,-0.516499,9.78001,1.32951,0.42,-0.42,-0.07,26.8993,-38.0686,-6.6625,1014.5
429410,-0.526064,9.74653,1.36777,0.14,0,-0.28,27.415,-39.6024,-6.53491,1014.5
429416,-0.545194,9.74653,1.41081,0.63,-0.28,-0.07,27.415,-39.9207,-6.69086,1014.52
429422,-0.506934,9.73218,1.39646,0.77,-0.07,-0.21,26.842,-38.4448,-7.31465,1014.52
429428,-0.506934,9.71784,1.39646,0.14,-0.21,0.07,27.1571,-39.2262,-7.08782,1014.47
429434,-0.454328,9.74653,1.35342,0.7,-0.35,-0.14,26.928,-40.1522,-6.64832,1014.47
429440,-0.468675,9.71784,1.37733,0.49,0.07,0,26.7847,-38.5606,-7.1587,1014.47
429446,-0.45911,9.73697,1.33429,0.35,-0.07,-0.07,27.2144,-38.4738,-6.42149,1014.46
429452,-0.47824,9.70827,1.32472,0.14,0.07,-0.07,26.6988,-39.4866,-6.36478,1014.46
429458,-0.473458,9.76566,1.29603,0.14,0.21,-0.28,26.7561,-38.9657,-6.50655,1014.47
429464,-0.454328,9.69871,1.3582,0.28,-0.49,-0.42,27.415,-38.4159,-7.39971,1014.47
429470,-0.492587,9.67958,1.36777,0.07,0.07,-0.28,26.8134,-39.0526,-5.92529,1014.49
429476,-0.463893,9.69871,1.39168,0.56,-0.07,-0.28,27.5582,-38.7053,-5.58504,1014.49
429482,-0.492587,9.70349,1.35342,0.42,0.49,-0.21,27.329,-38.6764,-6.61997,1014.54
429488,-0.506934,9.69392,1.38211,0.49,0,-0.63,27.415,-38.8211,-5.64175,1014.54
429494,-0.492587,9.70349,1.36298,0.56,0.35,-0.42,27.3863,-39.313,-6.12377,1014.49
429500,-0.49737,9.70827,1.36298,0.7,-0.21,-0.56,27.4723,-38.4159,-5.92529,1014.49
429506,-0.521282,9.74653,1.37733,0.35,-0.21,-0.49,27.415,-38.3291,-6.71921,1014.46
429512,-0.521282,9.71784,1.37255,0.63,-0.07,-0.28,27.6728,-40.4127,-6.30807,1014.46
429518,-0.502152,9.71784,1.39168,0.63,-0.49,-0.77,27.8733,-39.1683,-7.55566,1014.5
429524,-0.540411,9.75131,1.38211,0.42,-0.63,-0.28,26.928,-38.5317,-6.81845,1014.5
429530,-0.516499,9.77523,1.32472,0.91,-0.14,-0.07,27.0139,-40.2101,-7.07364,1014.5
429536,-0.483022,9.74653,1.3582,0.35,-0.7,-0.14,27.5009,-40.0365,-6.63415,1014.49
429542,-0.47824,9.71784,1.36777,0.35,0,-0.14,27.1571,-37.6346,-6.86098,1014.49
429548,-0.47824,9.70349,1.3869,0.42,-0.35,-0.42,27.3863,-39.4288,-6.94604,1014.51
429554,-0.454328,9.70827,1.39646,0.28,0.21,-0.49,26.9853,-39.6892,-7.343,1014.51
429560,-0.483022,9.73218,1.3582,0.35,0,-0.07,27.816,-38.0686,-6.73339,1014.48
429566,-0.45911,9.69392,1.36777,0.7,0.28,-0.7,27.2144,-39.1683,-6.90351,1014.48
429572,-0.473458,9.69871,1.3582,0.84,-0.28,-0.42,27.0426,-39.6892,-6.44985,1014.49
429578,-0.506934,9.72262,1.36777,1.05,0.14,-0.49,27.0426,-38.6474,-7.343,1014.49
429584,-0.487805,9.7274,1.37733,0.35,-0.14,-0.77,27.329,-38.7342,-7.76832,1014.47
429590,-0.449546,9.74653,1.33429,0.14,0.28,-0.35,26.842,-39.6313,-6.49238,1014.47
429596,-0.521282,9.72262,1.35342,0.28,0.28,-0.28,27.4436,-40.0944,-5.51415,1014.48
429602,-0.492587,9.74653,1.34385,-0.07,0.28,-0.77,27.5868,-38.2133,-6.52073,1014.48
429608,-0.516499,9.7274,1.36298,-0.28,0,-0.35,27.8447,-40.0944,-7.54149,1014.48
429614,-0.502152,9.76566,1.3582,0.35,0.21,0.07,27.7587,-39.5735,-6.35061,1014.46
429620,-0.521282,9.77523,1.29125,0.28,0.35,0,27.3004,-39.8339,-7.07364,1014.46
429626,-0.569106,9.78479,1.32472,-0.21,0.14,0.21,27.329,-39.313,-6.69086,1014.5
429632,-0.57867,9.74175,1.40124,0.14,-0.14,0,27.5295,-40.0075,-6.67668,1014.5
429638,-0.569106,9.78957,1.35342,0.07,-0.28,0.21,26.7274,-39.3998,-6.23719,1014.53
429644,-0.516499,9.7274,1.35342,-0.07,0.49,0.7,26.6988,-38.358,-6.98858,1014.53
429650,-0.535629,9.75131,1.37733,0.14,0.21,0.42,27.3004,-40.0365,-5.88276,1014.49
429656,-0.492587,9.73218,1.37255,-0.21,0.28,0.35,27.6155,-39.6024,-7.69743,1014.49
429662,-0.516499,9.71784,1.36777,0,0.42,0.56,27.6728,-38.2133,-6.73339,1014.51
429668,-0.49737,9.74175,1.3869,0.07,0.14,0.49,27.0999,-39.4577,-7.10199,1014.51
429674,-0.468675,9.70827,1.36298,0.14,0.07,0.35,26.8134,-40.268,-7.20123,1014.52
429680,-0.473458,9.7274,1.37255,-0.21,0.21,0.56,27.1285,-38.9079,-7.13035,1014.52
429686,-0.506934,9.67958,1.38211,0.21,0.42,0.35,26.6988,-39.2841,-7.45642,1014.51
429692,-0.487805,9.69871,1.39168,0.35,0.35,0.35,27.415,-40.9625,-7.27212,1014.51
429698,-0.45911,9.70349,1.38211,0.21,0.49,0.14,27.7587,-38.9079,-5.78352,1014.51
429704,-0.502152,9.71305,1.3869,0.42,-0.07,0.07,28.1311,-38.6474,-7.51313,1014.51
429710,-0.506934,9.70827,1.36777,-0.21,0,-0.28,27.0426,-38.7632,-6.93187,1014.51
429716,-0.502152,9.71784,1.42037,0.14,-0.14,-0.28,27.7014,-39.5735,-7.18706,1014.48
429722,-0.483022,9.71305,1.41081,0.56,0.14,0.42,27.3004,-38.6764,-7.86756,1014.48
429728,-0.483022,9.71305,1.37733,0.14,0,-0.07,27.5295,-39.4288,-7.17288,1014.51
429734,-0.526064,9.7274,1.37255,0.28,0,0.14,27.0426,-39.8918,-6.67668,1014.51
429740,-0.516499,9.73697,1.34864,0.49,-0.35,0.14,27.3863,-39.342,-6.44985,1014.53
429746,-0.492587,9.75131,1.37733,0.21,0.07,0.14,27.415,-39.4866,-6.70503,1014.53
429752,-0.506934,9.74175,1.34385,0.21,0.14,0.49,27.4436,-39.805,-7.11617,1014.49
429758,-0.516499,9.74653,1.34385,-0.21,-0.21,0.42,27.329,-39.0815,-7.62655,1014.49
429764,-0.521282,9.76566,1.31994,0.49,0.42,0.35,27.7874,-39.1104,-6.61997,1014.46
429770,-0.530846,9.78001,1.31516,-0.42,-0.35,0.49,27.5868,-39.9207,-6.1663,1014.46
429776,-0.463893,9.69871,1.42516,-0.35,-0.56,0.07,26.8134,-39.5445,-7.61237,1014.46
429782,-0.473458,9.69392,1.43472,0.35,-0.56,0.07,27.6441,-38.1555,-6.57744,1014.48
429788,-0.49737,9.68914,1.44907,0.49,0.21,-0.07,26.9566,-39.0815,-7.05946,1014.48
429794,-0.439981,9.69871,1.40603,-0.14,0.35,-0.07,26.1545,-39.7471,-6.52073,1014.53
429800,-0.454328,9.68436,1.41559,1.19,0.56,0.07,27.1858,-39.2841,-6.61997,1014.53
429806,-0.47824,9.67958,1.41559,0.7,-0.14,-0.56,26.928,-39.0236,-6.12377,1014.48
429812,-0.47824,9.72262,1.36298,0.42,-0.42,-0.28,27.4436,-39.8629,-5.03213,1014.48
429818,-0.49737,9.75131,1.34864,0.91,-0.28,0.14,27.2144,-38.9368,-5.89694,1014.51
429824,-0.47824,9.74175,1.35342,0.98,-0.21,-0.42,27.3004,-39.1973,-7.98098,1014.51
429830,-0.49737,9.74653,1.33907,0.35,0.28,-0.07,27.2144,-40.268,-5.76934,1014.51
429836,-0.540411,9.75131,1.32951,0.56,0.07,-0.49,27.0712,-39.5445,-7.01693,1014.51
429842,-0.511717,9.76566,1.3056,0.21,-0.14,-0.28,26.5269,-38.6185,-6.94604,1014.5
429848,-0.549976,9.77044,1.33907,0,-0.56,0.21,27.2144,-39.1973,-6.54909,1014.5
429854,-0.49737,9.76566,1.36298,-0.07,-0.49,0.14,27.0712,-40.1812,-6.23719,1014.5
429860,-0.468675,9.71784,1.37255,0.14,-0.21,0,26.6702,-38.5027,-5.91111,1014.48
429866,-0.473458,9.68436,1.42037,0.21,0.14,0.14,26.7561,-39.1973,-6.64832,1014.48
429872,-0.521282,9.67958,1.43472,0.56,-0.21,0.07,27.1285,-39.313,-6.9744,1014.48
429878,-0.49737,9.69392,1.37733,0.7,0.07,0.07,27.415,-38.5895,-4.8053,1014.48
429884,-0.468675,9.69871,1.37733,0.28,-0.42,-0.14,26.8993,-38.2712,-7.72579,1014.46
429890,-0.463893,9.71305,1.40603,1.33,-0.28,-0.14,26.9566,-40.4706,-6.83263,1014.46
429896,-0.483022,9.71305,1.39168,1.26,-0.35,-0.21,26.9566,-39.4288,-7.01693,1014.51
429902,-0.45911,9.70349,1.34864,0.7,0.14,-0.28,27.5009,-38.85,-6.53491,1014.51
429908,-0.483022,9.73218,1.37255,1.12,0.07,0.07,26.8707,-39.342,-6.42149,1014.5
429914,-0.502152,9.7274,1.36777,1.33,0,-0.42,26.8134,-39.7182,-6.18048,1014.5
429920,-0.49737,9.76088,1.34864,0.63,-0.49,-0.63,27.5868,-38.2423,-6.60579,1014.48
429926,-0.483022,9.7274,1.35342,0.91,-0.07,-0.14,27.0139,-38.7053,-6.25137,1014.48
429932,-0.463893,9.72262,1.36298,0.63,-0.63,-0.63,27.3577,-40.2101,-6.09542,1014.47
429938,-0.49737,9.73218,1.3582,0.56,0.07,-0.07,27.0712,-38.9368,-6.12377,1014.47
429944,-0.535629,9.74653,1.36298,0.35,-0.63,-0.35,26.3837,-38.7921,-6.83263,1014.47
429950,-0.483022,9.73697,1.35342,0.21,0,-0.42,27.3004,-39.6603,-6.43567,1014.48
429956,-0.483022,9.7274,1.35342,-0.21,0,-0.21,27.6441,-38.9368,-6.19466,1014.48
429962,-0.473458,9.70349,1.37733,0.7,0,-0.35,27.329,-37.6346,-7.01693,1014.48
429968,-0.554758,9.7274,1.3869,0.28,-0.14,-0.21,27.2144,-39.6024,-7.39971,1014.48
429974,-0.506934,9.71784,1.39168,0.14,-0.21,-0.07,27.5868,-39.805,-5.6701,1014.53
429980,-0.439981,9.71305,1.36777,0.56,-0.21,-0.42,27.6441,-38.6474,-6.56326,1014.53
429986,-0.463893,9.68436,1.41559,0.56,0.14,-0.21,27.4723,-39.5735,-5.982,1014.5
429992,-0.449546,9.6748,1.39168,0.42,-0.07,-0.07,27.3004,-39.805,-6.09542,1014.5
429998,-0.502152,9.71784,1.37733,0.77,0.21,-0.42,27.4436,-39.1973,-7.27212,1014.53
430004,-0.47824,9.7274,1.3582,0.21,-0.28,-0.49,27.415,-38.5027,-7.13035,1014.53
430010,-0.516499,9.7274,1.34864,0.35,0.07,-0.35,27.3863,-39.7471,-6.50655,1014.47
430016,-0.511717,9.74175,1.35342,0.63,-0.42,-0.49,27.9593,-39.2551,-6.44985,1014.47
430022,-0.454328,9.7561,1.33907,-0.14,0.56,-0.42,27.3863,-38.387,-6.81845,1014.47
430028,-0.49737,9.74653,1.33429,0.14,0.42,-0.21,26.7274,-39.0815,-6.46402,1014.51
430034,-0.49737,9.73697,1.33429,0.21,0.56,-0.28,27.2144,-39.2841,-6.22301,1014.51
430040,-0.511717,9.72262,1.38211,0.56,-0.21,-0.28,27.5009,-39.1104,-6.39314,1014.49
430046,-0.521282,9.70827,1.38211,0.21,-0.7,0.14,26.3837,-39.2262,-7.2863,1014.49
430052,-0.506934,9.68436,1.37733,0.28,-0.56,-0.21,27.1858,-40.1812,-6.43567,1014.5
430058,-0.487805,9.72262,1.36298,0.63,0,-0.07,27.3577,-39.5735,-6.61997,1014.5
430064,-0.506934,9.71305,1.36298,0.84,0.21,0.14,27.2717,-38.5027,-7.7825,1014.51
430070,-0.492587,9.7274,1.37255,0.77,0.21,-0.07,26.8134,-39.4866,-6.44985,1014.51
430076,-0.487805,9.74653,1.37733,0.7,-0.07,-0.07,25.954,-40.2391,-6.76174,1014.48
430082,-0.45911,9.73697,1.38211,0.42,-0.84,-0.07,27.4723,-38.6474,-6.74756,1014.48
430088,-0.463893,9.72262,1.36777,0.91,-0.21,-0.21,27.3577,-39.342,-7.44225,1014.47
430094,-0.506934,9.73697,1.33907,0.77,-0.35,0,27.2144,-39.6603,-5.95365,1014.47
430100,-0.468675,9.71784,1.34864,0,-0.07,-0.42,27.1858,-38.0397,-6.01035,1014.51
430106,-0.473458,9.71784,1.3582,0.42,-0.35,-0.07,27.2144,-39.0236,-6.61997,1014.51
430112,-0.49737,9.7274,1.37733,0.7,0.56,-0.21,26.6988,-39.6313,-6.98858,1014.51
430118,-0.487805,9.74175,1.36777,0.42,-0.21,-0.14,27.3863,-38.9079,-8.08022,1014.53
430124,-0.511717,9.7561,1.36777,0.84,0.21,-0.07,26.842,-38.8789,-7.71161,1014.53
430130,-0.492587,9.74175,1.36777,0.49,-0.49,-0.28,26.8993,-39.4866,-6.93187,1014.46
430136,-0.468675,9.72262,1.39168,-0.14,0.21,0,27.415,-38.9368,-7.20123,1014.46
430142,-0.516499,9.69392,1.38211,0.49,-0.14,-0.07,26.928,-38.0397,-6.6625,1014.51
430148,-0.545194,9.74653,1.36777,0.42,-0.07,0,26.9853,-39.1683,-6.54909,1014.51
430154,-0.511717,9.76088,1.37733,0.56,-0.35,0.14,27.0712,-39.5735,-6.18048,1014.51
430160,-0.47824,9.73218,1.40124,0.28,-0.14,0.21,27.0999,-38.5027,-7.2863,1014.51
430166,-0.483022,9.74653,1.36777,-0.14,0.14,-0.07,27.4436,-38.7921,-6.15213,1014.49
430172,-0.468675,9.75131,1.37255,0.42,0.21,-0.14,26.8134,-39.8918,-6.61997,1014.49
430178,-0.511717,9.72262,1.3869,-0.14,0.28,0.07,27.1571,-38.6474,-6.81845,1014.49
430184,-0.516499,9.76566,1.35342,-0.21,0.14,0.28,27.3004,-38.4738,-7.58402,1014.49
430190,-0.502152,9.71305,1.35342,0.42,-0.21,0.35,27.2431,-39.5735,-7.03111,1014.49
430196,-0.449546,9.69871,1.37255,0.35,0.56,0,26.8993,-39.1973,-6.33643,1014.51
430202,-0.468675,9.69392,1.37733,0.42,-0.14,-0.21,27.2144,-38.1555,-7.20123,1014.51
430208,-0.45911,9.69392,1.39168,0.21,-0.35,-0.07,26.842,-39.8629,-6.83263,1014.51
430214,-0.49737,9.71305,1.3869,0.56,-0.28,-0.21,26.1832,-40.1233,-7.44225,1014.51
430220,-0.473458,9.71784,1.35342,0.28,0.07,0,26.6415,-38.8789,-5.8544,1014.5
430226,-0.506934,9.71784,1.36777,1.05,-0.14,-0.14,27.4723,-38.85,-7.10199,1014.5
430232,-0.483022,9.72262,1.37255,0.56,0.35,-0.42,26.6415,-40.0944,-6.61997,1014.47
430238,-0.473458,9.70349,1.39168,0.56,-0.14,-0.21,27.1858,-39.2262,-6.76174,1014.47
430244,-0.487805,9.70349,1.37733,0.91,-0.14,0,27.7587,-38.6764,-7.30047,1014.5
430250,-0.49737,9.74653,1.36777,0.49,-0.07,0,28.0165,-39.5445,-5.96782,1014.5
430256,-0.511717,9.71305,1.37255,0.42,-0.42,-0.21,26.928,-39.4288,-6.25137,1014.48
430262,-0.521282,9.76566,1.34385,0.77,0.07,0.07,27.415,-38.5895,-6.77592,1014.48
430268,-0.506934,9.77044,1.37255,0.28,-0.14,0.28,28.0165,-39.5445,-7.20123,1014.52
430274,-0.526064,9.7561,1.36298,0.56,0.07,0.14,27.0712,-40.5285,-6.88934,1014.52
430280,-0.468675,9.7274,1.37255,0.49,0,-0.07,27.2717,-38.387,-6.94604,1014.52
430286,-0.492587,9.72262,1.40124,0.21,0,0.14,27.329,-39.2262,-8.02351,1014.49
430292,-0.506934,9.71305,1.39646,0.21,-0.14,0,27.3004,-40.0944,-6.23719,1014.49
430298,-0.45911,9.69392,1.37255,0.42,0.14,-0.21,27.5295,-39.2262,-7.48478,1014.49
430304,-0.516499,9.71784,1.39168,0.49,-0.07,-0.35,27.415,-38.387,-7.92427,1014.49
430310,-0.506934,9.68914,1.40124,0.49,0.07,-0.07,27.5868,-39.8629,-6.42149,1014.48
430316,-0.45911,9.71305,1.3582,0.35,-0.28,0,26.7561,-40.0075,-6.27972,1014.48
430322,-0.473458,9.7274,1.36298,0.56,0,0.07,27.4723,-38.358,-7.48478,1014.47
430328,-0.439981,9.7274,1.3582,0.77,0,-0.28,26.6415,-39.4577,-5.82605,1014.47
430334,-0.487805,9.73697,1.33907,0.35,-0.14,-0.28,27.2431,-39.2262,-7.00275,1014.5
430340,-0.483022,9.7274,1.37255,0.56,-0.07,0.14,27.3863,-38.1265,-6.91769,1014.5
430346,-0.444763,9.74175,1.34864,0.35,0.21,0,27.3577,-39.2262,-7.1587,1014.5
430352,-0.502152,9.74653,1.34385,0.28,0,-0.35,27.5009,-40.2391,-6.52073,1014.5
430358,-0.502152,9.73218,1.32951,0.63,0,-0.14,28.1884,-38.9079,-6.83263,1014.5
430364,-0.506934,9.73697,1.34864,0.42,0.07,-0.14,26.842,-37.403,-7.27212,1014.51
430370,-0.526064,9.7561,1.35342,0.84,-0.14,0.21,27.5295,-39.4577,-6.71921,1014.51
430376,-0.49737,9.72262,1.34385,0.14,-0.21,0.28,26.928,-39.5445,-6.77592,1014.47
430382,-0.47824,9.73218,1.35342,0.7,-0.35,0.14,27.5582,-38.2712,-7.00275,1014.47
430388,-0.468675,9.71305,1.40603,0.35,0.42,-0.07,27.4723,-39.6024,-6.90351,1014.48
430394,-0.49737,9.70349,1.40603,0.56,-0.07,0,27.5868,-40.0075,-7.45642,1014.48
430400,-0.511717,9.71784,1.34385,0.7,0.35,0.21,27.2431,-38.1555,-6.42149,1014.48
430406,-0.463893,9.73697,1.32472,0.77,0.07,0,26.2977,-40.1233,-7.95262,1014.48
430412,-0.49737,9.71305,1.34864,0,0.21,0,27.6728,-39.9497,-5.91111,1014.48
430418,-0.468675,9.69871,1.38211,0.35,0.21,-0.07,27.9306,-39.1683,-6.77592,1014.48
430424,-0.502152,9.71305,1.40603,0.56,0.07,-0.21,27.3863,-38.6185,-7.343,1014.53
430430,-0.492587,9.71305,1.36298,0.7,0.07,-0.14,27.6155,-40.2391,-6.96022,1014.53
430436,-0.487805,9.75131,1.3582,0.63,0,-0.35,27.0999,-39.5156,-6.56326,1014.53
430442,-0.526064,9.73697,1.34385,0.49,0.14,-0.21,26.9566,-38.4448,-6.43567,1014.51
430448,-0.47824,9.75131,1.33907,0.49,0.21,-0.49,27.329,-39.805,-6.69086,1014.51
430454,-0.506934,9.73218,1.32951,0.28,0.21,-0.07,27.3863,-40.3548,-6.54909,1014.51
430460,-0.530846,9.77044,1.32472,0.42,-0.14,0.14,27.3863,-38.1265,-6.39314,1014.51
430466,-0.506934,9.73218,1.35342,-0.14,-0.14,-0.21,27.6155,-38.8789,-7.79667,1014.49
430472,-0.530846,9.7561,1.37733,0.21,-0.28,0.49,27.4723,-40.0654,-5.96782,1014.49
430478,-0.483022,9.73697,1.34385,0.35,0.35,0.21,27.329,-38.5027,-6.19466,1014.5
430484,-0.511717,9.76088,1.33907,0,-0.21,0.63,27.8447,-38.3291,-7.05946,1014.5
430490,-0.483022,9.71305,1.37733,0.42,0.42,0.35,27.3004,-40.268,-7.39971,1014.48
430496,-0.530846,9.70827,1.42516,0.42,-0.14,0.28,27.0999,-39.9207,-5.84023,1014.48
430502,-0.521282,9.72262,1.39646,0.21,0,0.7,27.4723,-38.358,-6.36478,1014.5
430508,-0.49737,9.77044,1.32472,0.42,-0.28,0.56,27.6155,-40.0365,-7.98098,1014.5
430514,-0.483022,9.78479,1.31038,0.14,-0.07,0.56,27.2717,-40.7021,-5.68428,1014.52
430520,-0.47824,9.76566,1.2769,0.21,0.35,0.63,27.5295,-38.6764,-6.76174,1014.52
430526,-0.483022,9.76088,1.34385,-0.14,0.63,0.84,27.1571,-39.4288,-7.2863,1014.52
430532,-0.502152,9.71784,1.36777,-0.07,-0.35,0.56,27.5009,-39.8339,-6.33643,1014.46
430538,-0.396939,9.78001,1.29603,-0.63,0.84,0.49,27.0139,-38.5027,-7.21541,1014.46
430544,-0.535629,9.68436,1.40124,-0.35,-0.28,0.56,27.3004,-38.9368,-7.35718,1014.49
430550,-0.454328,9.78001,1.31516,-0.35,0.21,0.63,27.329,-39.7471,-7.00275,1014.49
430556,-0.506934,9.71305,1.39646,-0.49,0,0.7,27.7874,-40.1233,-6.73339,1014.52
430562,-0.454328,9.71305,1.39646,-0.28,-0.56,1.05,27.0712,-38.7632,-6.77592,1014.52
430568,-0.468675,9.67958,1.41081,0,-0.07,0.49,27.7587,-39.3998,-6.27972,1014.51
430574,-0.511717,9.70349,1.41081,0.21,-0.21,0.21,27.3577,-40.0075,-6.42149,1014.51
430580,-0.506934,9.70349,1.42516,0.14,0.56,0.56,27.3577,-38.0976,-6.64832,1014.5
430586,-0.468675,9.71305,1.41559,0.14,0,0.7,27.415,-38.9079,-7.24376,1014.5
430592,-0.449546,9.71784,1.33907,0.35,0.21,0.63,26.8993,-40.0075,-5.69846,1014.51
430598,-0.521282,9.77044,1.34864,-0.14,-0.35,0.7,27.3577,-38.9657,-6.61997,1014.51
430604,-0.473458,9.7274,1.33907,0.14,0.07,0.98,27.7587,-39.1394,-6.64832,1014.51
430610,-0.463893,9.73218,1.36777,-0.49,-0.35,0.63,26.3837,-41.223,-7.11617,1014.49
430616,-0.473458,9.73218,1.34385,-0.42,0,0.63,27.5295,-40.268,-6.94604,1014.49
430622,-0.454328,9.7274,1.41081,-0.42,0.7,0.49,27.0712,-38.5606,-6.9744,1014.49
430628,-0.444763,9.7274,1.37733,-0.49,0.63,0.21,27.9593,-39.2841,-6.1663,1014.49
430634,-0.502152,9.68914,1.44428,-0.28,0.49,-0.07,27.5868,-40.2969,-6.74756,1014.48
430640,-0.387374,9.65567,1.42516,0.07,-0.35,0.35,27.2717,-39.2841,-6.93187,1014.48
430646,-0.439981,9.68914,1.39646,0.21,0.35,0.07,27.3863,-38.4738,-6.18048,1014.5
430652,-0.45911,9.60306,1.47298,0.56,-0.63,-0.07,28.0165,-39.9497,-5.76934,1014.5
430658,-0.425634,9.71305,1.3869,0.49,-0.35,-0.35,28.3317,-39.1973,-6.4782,1014.47
430664,-0.487805,9.68914,1.40124,1.54,-0.63,-0.35,27.4436,-38.9947,-7.01693,1014.47
430670,-0.47824,9.78001,1.3056,0.7,0.07,-0.42,28.0738,-40.0944,-6.18048,1014.5
430676,-0.487805,9.78479,1.33429,0.07,-0.14,-0.35,27.7301,-39.9207,-6.18048,1014.5
430682,-0.483022,9.7561,1.36777,0.7,-0.42,-0.28,27.0426,-38.7342,-6.9744,1014.5
430688,-0.468675,9.70827,1.36777,0.63,0.21,-0.35,27.7301,-39.3998,-6.2939,1014.51
430694,-0.554758,9.76566,1.36777,0.35,-0.56,-0.21,27.5295,-39.8629,-5.6701,1014.51
430700,-0.468675,9.77044,1.3056,0.28,-0.21,0.07,27.3004,-39.1394,-6.35061,1014.5
430706,-0.430416,9.73218,1.32951,0.07,-0.14,-0.07,27.6728,-38.9368,-6.37896,1014.5
430712,-0.483022,9.68436,1.45863,0.21,-0.35,0,27.0712,-39.805,-7.44225,1014.49
430718,-0.425634,9.68914,1.41081,0.14,-0.07,-0.14,27.7301,-38.2423,-7.69743,1014.49
430724,-0.439981,9.68436,1.3869,-0.07,0.21,-0.35,27.0426,-38.4738,-6.57744,1014.48
430730,-0.463893,9.70349,1.42994,0.56,0,-0.07,27.2717,-39.5735,-6.40731,1014.48
430736,-0.449546,9.6461,1.42516,0.7,0.21,-0.63,27.7874,-39.6024,-6.59162,1014.48
430742,-0.444763,9.69871,1.39646,0.7,-0.07,-0.28,26.441,-38.5895,-6.76174,1014.48
430748,-0.444763,9.7274,1.33429,0.91,0.28,-0.49,27.6155,-39.9207,-6.40731,1014.5
430754,-0.49737,9.76566,1.32472,0.28,0.21,-0.63,27.0999,-40.0944,-6.13795,1014.5
430760,-0.549976,9.75131,1.35342,0.49,0.14,-0.21,27.2717,-38.6185,-6.43567,1014.51
430766,-0.516499,9.77044,1.3869,0.42,-0.49,-0.28,26.928,-39.7471,-6.7901,1014.51
430772,-0.45911,9.77523,1.34864,0.63,-0.07,-0.49,26.441,-40.5863,-6.6625,1014.51
430778,-0.468675,9.75131,1.32951,0.07,-0.28,-0.14,27.816,-39.7182,-7.343,1014.47
430784,-0.449546,9.78001,1.34864,0.56,0,-0.14,27.902,-38.7342,-8.67566,1014.47
430790,-0.511717,9.72262,1.39646,0.56,-0.21,0,27.816,-39.8629,-6.9744,1014.5
430796,-0.468675,9.73697,1.39646,0.7,-0.35,-0.07,27.6441,-39.1394,-6.74756,1014.5
430802,-0.473458,9.73218,1.37255,0.7,-0.49,-0.07,27.0139,-38.2423,-7.98098,1014.49
430808,-0.492587,9.73697,1.3582,0.84,-0.14,-0.49,28.0165,-39.0526,-6.57744,1014.49
430814,-0.506934,9.73697,1.3582,0.49,-0.35,0,27.3577,-39.9207,-7.30047,1014.49
