Timestamp,AccX,AccY,AccZ,AngularVelX,AngularVelY,AngularVelZ,MagX,MagY,MagZ,AirPressure
485882,0.267814,9.82783,1.23386,0.84,-2.94,-0.42,20.8743,-44.641,-26.1418,1014.81
485888,0.248685,9.77044,1.25299,1.12,-2.94,-0.84,21.1358,-46.3989,-24.9597,1014.84
485894,0.215208,9.74653,1.28647,0.98,-2.73,-1.4,21.3392,-45.0419,-24.7528,1014.84
485900,0.162602,9.7274,1.26734,0.98,-2.94,-0.84,21.0777,-44.5176,-26.2157,1014.82
485906,0.215208,9.76566,1.24821,1.19,-3.15,-0.07,20.8162,-45.9363,-23.8367,1014.82
485912,0.25825,9.77044,1.26734,1.19,-3.57,-0.98,20.4675,-46.3063,-26.26,1014.84
485918,0.263032,9.76088,1.20516,1.54,-2.87,-1.19,20.8743,-44.1784,-24.9597,1014.84
485924,0.210426,9.78479,1.23386,0.77,-3.01,-0.49,20.9905,-46.6147,-23.881,1014.84
485930,0.186514,9.73697,1.22429,1.05,-3.01,-0.42,21.3101,-46.3372,-25.6689,1014.84
485936,0.176949,9.73697,1.25777,1.4,-3.43,-0.91,20.206,-45.597,-25.5803,1014.84
485942,0.210426,9.7561,1.26734,1.05,-3.5,-0.42,20.8743,-45.5353,-25.2847,1014.84
485948,0.23912,9.77044,1.24821,1.4,-3.57,-0.35,21.5135,-46.5222,-25.2552,1014.84
485954,0.224773,9.76088,1.25777,1.12,-3.29,-0.56,20.9034,-44.826,-24.3982,1014.83
485960,0.229555,9.77523,1.25299,0.84,-2.59,-0.56,20.3803,-44.055,-25.2256,1014.83
485966,0.263032,9.7274,1.20995,1.33,-3.29,-0.35,21.3973,-46.4297,-25.1665,1014.81
485972,0.267814,9.78479,1.26734,1.05,-2.73,-0.84,20.3513,-45.7821,-26.1418,1014.81
485978,0.253467,9.75131,1.24821,1.26,-3.01,-0.84,20.9034,-44.6101,-26.8067,1014.82
485984,0.301291,9.79436,1.19082,0.98,-2.59,-0.84,21.3392,-46.4914,-24.9301,1014.82
485990,0.306074,9.83261,1.17647,0.63,-2.66,-1.33,21.1649,-46.5839,-25.1074,1014.82
485996,0.325203,9.81349,1.1956,0.49,-2.94,-1.26,21.0196,-44.5485,-25.8315,1014.82
486002,0.325203,9.78479,1.23386,0.35,-2.24,-1.33,21.6588,-45.9054,-24.6789,1014.82
486008,0.229555,9.77523,1.28168,0.35,-2.31,-1.4,21.3973,-47.0773,-24.6641,1014.81
486014,0.224773,9.78479,1.25777,0.49,-2.38,-1.54,20.9905,-45.6895,-25.6985,1014.81
486020,0.13869,9.7561,1.32472,0.42,-3.29,-1.75,20.6418,-44.7335,-25.994,1014.8
486026,0.172166,9.68914,1.31038,0.56,-2.52,-1.05,20.7,-45.5662,-25.4325,1014.8
486032,0.157819,9.69871,1.31516,0.91,-2.8,-0.7,21.3101,-44.3943,-25.4473,1014.85
486038,0.196078,9.76088,1.31994,0.56,-2.94,-1.19,20.7871,-44.4868,-25.5359,1014.85
486044,0.167384,9.74175,1.29125,0.91,-3.08,-0.84,21.0196,-45.3811,-25.1518,1014.85
486050,0.181731,9.70827,1.28168,0.77,-3.08,-0.63,21.6879,-46.5531,-25.4916,1014.79
486056,0.191296,9.76566,1.29125,1.05,-3.36,-0.49,21.3973,-44.6101,-27.2943,1014.79
486062,0.210426,9.72262,1.29603,1.05,-2.94,-0.28,21.2811,-44.7952,-25.1813,1014.83
486068,0.172166,9.7274,1.25299,1.33,-2.94,-0.63,21.5135,-46.954,-26.2157,1014.83
486074,0.210426,9.73697,1.25777,1.26,-2.87,-0.21,20.9615,-45.1961,-26.526,1014.83
486080,0.21999,9.75131,1.25299,1.54,-3.29,0.14,21.1939,-44.3326,-25.3734,1014.83
486086,0.196078,9.78001,1.26255,0.91,-3.15,-0.7,20.8743,-46.4605,-25.7871,1014.84
486092,0.272597,9.76566,1.23386,1.75,-3.08,-0.21,21.4845,-45.9671,-25.4473,1014.84
486098,0.243902,9.74175,1.2769,0.77,-2.87,-0.49,21.7751,-44.6718,-25.6246,1014.84
486104,0.282162,9.76566,1.28168,1.33,-2.73,-0.91,21.223,-46.0905,-25.1961,1014.82
486110,0.200861,9.78957,1.21473,1.26,-2.94,-0.98,21.4264,-46.0288,-25.6246,1014.82
486116,0.181731,9.76088,1.24821,0.77,-3.15,-0.35,21.6588,-44.7027,-24.6789,1014.79
486122,0.186514,9.74653,1.29603,1.05,-2.73,-0.35,20.729,-45.1036,-24.7232,1014.79
486128,0.196078,9.77044,1.26734,0.84,-2.8,-0.84,21.5426,-47.1082,-24.1617,1014.81
486134,0.200861,9.7561,1.30081,1.12,-3.22,-0.42,21.6007,-45.597,-25.5064,1014.81
486140,0.153037,9.70827,1.29603,1.19,-3.15,-0.21,20.9905,-44.7027,-25.7133,1014.81
486146,0.210426,9.73218,1.33429,1.05,-3.01,0,21.8913,-46.9231,-24.9301,1014.81
486152,0.167384,9.7274,1.31994,0.7,-2.94,-0.14,20.9034,-45.9054,-25.2847,1014.82
486158,0.224773,9.70827,1.2769,1.26,-3.43,-0.42,21.1649,-44.4868,-26.2452,1014.82
486164,0.205643,9.7561,1.3056,1.54,-3.08,-0.28,21.3973,-45.7512,-24.9892,1014.82
486170,0.181731,9.7561,1.27212,1.4,-2.8,0.14,21.7751,-46.183,-25.6098,1014.83
486176,0.205643,9.7561,1.27212,1.19,-3.64,-0.35,20.9615,-44.7027,-26.0383,1014.83
486182,0.205643,9.74175,1.30081,1.47,-3.22,-0.42,20.9905,-45.4428,-25.3882,1014.81
486188,0.176949,9.72262,1.31994,1.61,-3.15,0,21.223,-46.0905,-25.1222,1014.81
486194,0.272597,9.78001,1.24821,1.75,-2.8,-0.07,20.9615,-45.3195,-25.861,1014.82
486200,0.291726,9.78479,1.27212,1.54,-3.08,-0.49,20.8452,-44.8877,-26.8658,1014.82
486206,0.234338,9.76566,1.29125,1.4,-3.08,-0.91,21.1649,-45.8746,-24.9449,1014.82
486212,0.21999,9.78479,1.3056,1.26,-3.08,-0.63,21.5426,-45.9979,-25.6689,1014.82
486218,0.267814,9.79914,1.28647,1.4,-2.87,-0.56,20.4384,-44.8877,-25.8758,1014.82
486224,0.229555,9.74175,1.3056,0.91,-2.38,-0.56,21.4554,-46.1521,-25.2995,1014.81
486230,0.200861,9.76088,1.29125,1.33,-3.01,-0.84,21.4554,-47.0465,-24.5164,1014.81
486236,0.176949,9.74653,1.28647,1.47,-3.08,-1.12,20.4675,-45.412,-26.9988,1014.85
486242,0.167384,9.76088,1.29603,1.26,-2.73,-0.49,21.2811,-44.8569,-24.7528,1014.85
486248,0.181731,9.74653,1.31516,1.4,-2.87,-0.07,21.252,-47.139,-25.6098,1014.82
486254,0.153037,9.7561,1.29603,1.61,-2.94,-0.56,21.3683,-45.3195,-24.7528,1014.82
486260,0.167384,9.76566,1.28647,1.47,-2.59,-0.49,20.7871,-44.3326,-26.5407,1014.83
486266,0.191296,9.73218,1.29125,1.54,-2.87,-0.07,21.7169,-46.3989,-26.1566,1014.83
486272,0.167384,9.76088,1.29603,1.4,-3.22,-0.28,20.9324,-45.8129,-24.6789,1014.83
486278,0.191296,9.75131,1.30081,1.68,-3.43,17.29,20.7871,-44.1476,-25.1961,1014.81
486284,0.186514,9.76088,1.28647,1.47,-3.01,0.14,21.1358,-45.412,-25.3439,1014.81
486290,0.191296,9.73697,1.28168,1.54,-3.08,-0.49,21.3973,-46.1213,-25.9792,1014.79
486296,0.229555,9.75131,1.31038,1.19,-3.15,0.07,20.5837,-44.7643,-25.9792,1014.79
486302,0.23912,9.77044,1.29125,1.47,-3.22,0.21,20.9905,-45.5662,-26.0827,1014.84
486308,0.229555,9.78479,1.2769,1.61,-3.08,-0.14,21.6588,-47.2007,-25.7871,1014.84
486314,0.243902,9.7561,1.28168,1.4,-2.66,-0.35,21.0777,-45.6279,-26.4078,1014.82
486320,0.215208,9.76566,1.30081,1.47,-3.08,-0.07,21.746,-45.3811,-25.994,1014.82
486326,0.21999,9.77523,1.28168,1.19,-3.01,-0.21,21.3392,-46.7998,-24.5459,1014.8
486332,0.215208,9.76088,1.28647,1.4,-3.08,-0.77,21.7169,-45.9979,-25.9054,1014.8
486338,0.181731,9.7561,1.31516,1.26,-3.01,-0.63,21.3973,-44.6718,-25.861,1014.8
486344,0.196078,9.73697,1.32472,1.4,-2.73,0.07,21.1939,-45.9363,-25.8167,1014.82
486350,0.181731,9.74175,1.31994,1.47,-3.01,0.28,21.6298,-46.0905,-26.8658,1014.82
486356,0.181731,9.75131,1.32951,1.47,-2.66,-0.14,21.3101,-43.9625,-25.3586,1014.82
486362,0.215208,9.76088,1.32951,1.54,-2.94,-0.28,21.0196,-45.2269,-25.5359,1014.82
486368,0.210426,9.76566,1.29603,1.75,-3.36,0,21.4845,-46.4297,-25.3734,1014.83
486374,0.181731,9.73697,1.29125,1.47,-3.01,-0.14,21.1358,-44.8569,-26.4373,1014.83
486380,0.205643,9.75131,1.3056,1.61,-3.08,-0.07,20.7871,-44.055,-25.861,1014.81
486386,0.215208,9.7561,1.28647,1.47,-2.73,-0.07,20.9324,-46.0288,-26.5998,1014.81
486392,0.229555,9.75131,1.30081,1.82,-2.94,0.14,20.729,-45.6895,-25.8167,1014.81
486398,0.205643,9.75131,1.31038,1.54,-3.15,-0.14,20.7,-44.9802,-27.117,1014.81
486404,0.21999,9.7274,1.3056,1.96,-2.94,-0.7,20.6128,-46.0288,-26.7772,1014.81
486410,-0.564323,10.2104,1.5495,2.66,-8.61,0.84,21.1649,-46.1213,-24.9301,1014.8
486416,0.932568,10.0048,0.664754,0.98,-0.14,-1.05,20.5837,-44.0242,-26.3339,1014.8
486422,0.353898,9.79914,1.22908,1.26,-3.92,-0.98,21.0196,-45.2886,-26.0974,1014.81
486428,0.234338,9.70349,1.2769,1.96,-2.38,-0.84,21.3101,-46.3063,-26.6737,1014.81
486434,0.329986,9.7561,1.17647,0.98,-2.59,-0.56,21.3101,-44.2092,-26.8067,1014.8
486440,0.13869,9.74653,1.40603,1.4,-2.94,-0.98,21.4264,-44.1476,-26.4816,1014.8
486446,0.282162,9.71784,1.24821,1.33,-3.01,-0.84,21.2811,-46.3989,-25.5064,1014.8
486452,0.10043,9.71784,1.34864,1.47,-3.5,-0.56,21.1939,-45.597,-24.7676,1014.8
486458,0.224773,9.75131,1.27212,1.61,-2.59,0.07,21.1067,-44.4559,-25.2404,1014.8
486464,0.109995,9.74653,1.33907,1.33,-3.22,-0.56,21.4264,-46.1521,-24.6641,1014.81
486470,0.205643,9.7561,1.33907,1.33,-3.15,-1.12,21.746,-46.6147,-26.4225,1014.81
486476,0.181731,9.74175,1.31516,1.96,-3.22,-0.42,20.7,-43.9625,-25.5064,1014.8
486482,0.172166,9.73697,1.29125,1.33,-3.08,0.42,20.7,-44.7027,-25.728,1014.8
486488,0.143472,9.71784,1.33907,1.75,-3.08,0.07,21.3101,-46.1213,-25.0779,1014.83
486494,0.167384,9.74175,1.32472,1.33,-3.22,-0.14,20.7871,-44.2092,-26.0088,1014.83
486500,0.229555,9.72262,1.30081,1.82,-3.5,-0.63,20.5547,-44.1476,-25.2552,1014.83
486506,0.215208,9.76566,1.3056,1.75,-3.22,-0.07,21.3101,-45.8437,-26.0827,1014.83
486512,0.224773,9.77044,1.32472,1.75,-3.01,-0.07,21.5717,-45.8437,-26.8215,1014.83
486518,0.200861,9.79436,1.30081,1.61,-3.15,-0.42,21.3973,-44.4868,-25.9349,1014.8
486524,0.23912,9.8087,1.29125,1.75,-3.43,-1.12,21.1067,-46.183,-26.2009,1014.8
486530,0.267814,9.81349,1.28647,0.84,-3.15,-0.63,21.0777,-46.0288,-25.6394,1014.8
486536,0.224773,9.79436,1.30081,1.12,-3.08,-0.49,21.1649,-44.9494,-25.7576,1014.8
486542,0.210426,9.79436,1.31994,1.26,-3.08,-1.12,21.2811,-45.1344,-26.3782,1014.8
486548,0.162602,9.75131,1.3582,1.12,-2.38,-1.26,21.1067,-46.7073,-25.6246,1014.8
486554,0.210426,9.74653,1.34385,1.19,-2.59,-1.4,21.252,-45.3503,-26.0531,1014.82
486560,0.215208,9.76566,1.29603,0.91,-3.01,-1.05,20.206,-45.2578,-26.7476,1014.82
486566,0.176949,9.76088,1.29603,1.33,-3.15,-0.98,20.5256,-46.7998,-25.8167,1014.82
486572,0.162602,9.73697,1.31994,1.05,-3.5,-0.63,20.6418,-45.2269,-25.6098,1014.83
486578,0.143472,9.68436,1.41081,1.4,-2.8,-0.98,21.3101,-44.3018,-26.6885,1014.83
486584,0.11956,9.69871,1.41081,1.33,-3.01,-0.91,20.7871,-46.1521,-26.9988,1014.83
486590,0.191296,9.74653,1.30081,1.54,-2.8,-0.63,21.8332,-46.4297,-26.4669,1014.83
486596,0.133907,9.76088,1.28647,1.26,-3.36,-0.07,20.4675,-45.1036,-26.3043,1014.8
486602,0.176949,9.7561,1.29603,1.61,-3.08,-0.49,20.4384,-45.8129,-25.9201,1014.8
486608,0.143472,9.75131,1.34864,1.47,-2.94,-0.77,21.7169,-45.597,-26.851,1014.81
486614,0.200861,9.74653,1.33907,1.61,-3.36,0.07,20.6128,-44.9802,-26.659,1014.81
486620,0.210426,9.77523,1.31994,1.54,-3.08,-0.14,19.7411,-44.6101,-26.7181,1014.81
486626,0.229555,9.80392,1.22908,1.47,-3.22,-0.42,20.6128,-46.7381,-25.27,1014.81
486632,0.296509,9.82305,1.23386,0.91,-2.94,-0.84,20.6128,-45.5045,-26.7624,1014.81
486638,0.253467,9.78479,1.24342,0.7,-2.59,-1.33,20.7,-44.5485,-26.3043,1014.82
486644,0.21999,9.74175,1.3056,0.63,-2.66,-1.19,20.0607,-46.3989,-26.0679,1014.82
486650,0.167384,9.75131,1.34385,0.77,-2.8,-1.4,21.4264,-46.6456,-26.5998,1014.83
486656,0.153037,9.72262,1.37255,0.7,-3.08,-1.96,20.5837,-44.7643,-26.4964,1014.83
486662,0.172166,9.73697,1.36298,0.77,-3.29,-1.4,20.7,-45.2886,-25.7428,1014.81
486668,0.162602,9.74653,1.3582,1.47,-2.8,-0.91,21.4845,-46.0288,-25.5507,1014.81
486674,0.153037,9.73697,1.32951,0.98,-2.59,-1.47,20.6709,-45.7204,-25.3291,1014.8
486680,0.105213,9.71305,1.34864,0.91,-3.15,-1.05,20.9615,-44.4868,-26.2304,1014.8
486686,0.11956,9.73218,1.36298,1.26,-3.22,-0.84,21.0196,-46.368,-25.5803,1014.8
486692,0.13869,9.73218,1.34385,1.4,-2.8,-0.77,21.223,-45.1961,-25.3439,1014.82
486698,0.11956,9.74175,1.33429,1.68,-2.87,-0.42,20.7581,-45.0419,-26.2452,1014.82
486704,0.133907,9.73697,1.32951,1.89,-2.8,-0.56,21.3973,-46.4605,-25.728,1014.83
486722,0.243902,9.79436,1.30081,1.4,-2.94,-0.21,20.7871,-45.3811,-26.3339,1014.84
486728,0.191296,9.78479,1.2769,1.54,-2.8,-0.56,21.7751,-46.6456,-25.3439,1014.8
486734,0.205643,9.77044,1.3056,1.12,-2.66,-1.54,21.223,-44.5793,-26.3782,1014.8
486740,0.172166,9.7561,1.31516,0.84,-1.96,-0.35,21.3392,-44.8877,-27.3387,1014.8
486746,0.176949,9.76566,1.35342,1.12,-2.52,-0.77,21.9203,-47.0465,-26.1418,1014.8
486752,0.133907,9.78001,1.3056,1.05,-2.94,-1.47,21.6879,-45.5045,-25.0779,1014.8
486758,0.200861,9.7561,1.32951,1.12,-3.01,-1.12,20.6418,-45.1961,-26.4669,1014.77
486764,0.153037,9.70827,1.32951,0.98,-3.01,-1.4,20.7,-45.5662,-27.0727,1014.77
486770,0.109995,9.73697,1.34385,0.98,-2.38,-0.35,21.746,-45.9671,-26.4225,1014.82
486776,0.148254,9.73218,1.31994,1.12,-2.8,-0.42,21.4264,-44.1784,-26.7772,1014.82
486782,0.114778,9.72262,1.34864,1.19,-3.43,-0.98,21.6588,-45.5045,-25.7576,1014.82
486788,0.114778,9.74175,1.36298,1.33,-3.85,-0.63,21.0777,-46.8306,-26.3634,1014.82
486794,0.114778,9.71784,1.35342,1.54,-3.36,0.49,21.3683,-45.1961,-27.0136,1014.82
486800,0.13869,9.76088,1.33907,1.4,-2.94,0,21.1649,-44.6718,-26.9545,1014.83
486806,0.13869,9.73218,1.33907,1.12,-2.87,-0.21,21.6879,-46.0288,-26.4078,1014.83
486812,0.157819,9.7274,1.37255,2.17,-3.22,-0.07,21.8622,-46.0596,-24.9301,1014.82
486818,0.153037,9.76566,1.32472,1.54,-3.36,0.42,21.3973,-44.4868,-26.7181,1014.82
486824,0.205643,9.76088,1.33907,1.54,-3.22,-0.07,21.3392,-45.9671,-26.9693,1014.82
486830,0.157819,9.76088,1.31516,2.03,-3.08,-0.21,22.269,-46.6764,-26.7181,1014.82
486836,0.176949,9.77044,1.31516,1.68,-3.15,0,21.4845,-45.0111,-25.4916,1014.82
486842,0.176949,9.74653,1.3582,1.82,-3.36,-0.35,22.0075,-46.368,-26.8067,1014.82
486848,0.181731,9.77523,1.29603,1.61,-2.87,-0.35,21.8622,-46.6456,-25.3734,1014.83
486854,0.157819,9.76566,1.32472,1.82,-2.87,-0.14,20.5837,-45.7512,-25.137,1014.83
486860,0.181731,9.78957,1.31038,1.54,-3.08,-0.77,21.0777,-45.9054,-26.4078,1014.83
486866,0.11956,9.71784,1.38211,1.61,-2.59,-0.14,21.3973,-46.7689,-25.1961,1014.81
486872,0.105213,9.74653,1.38211,1.68,-3.22,-0.21,20.9034,-45.8746,-24.0435,1014.81
486878,0.124342,9.76566,1.33429,1.19,-3.29,-0.28,20.6128,-44.641,-25.7428,1014.82
486884,0.162602,9.74175,1.36298,1.61,-3.15,-0.21,21.223,-47.1082,-25.6394,1014.82
486890,0.13869,9.73697,1.35342,1.75,-3.01,0,21.223,-46.3063,-26.3043,1014.81
486896,0.143472,9.74653,1.33429,1.68,-2.87,-0.21,21.3973,-44.0242,-26.5112,1014.81
486902,0.148254,9.78001,1.33429,1.61,-3.15,0.07,21.5426,-45.3195,-26.4521,1014.81
486908,0.157819,9.75131,1.33429,2.03,-3.01,0.07,21.7169,-47.2624,-24.9006,1014.81
486914,0.176949,9.78001,1.31038,2.1,-3.36,0.07,20.9324,-45.1036,-26.127,1014.81
486920,0.143472,9.77044,1.31516,1.68,-2.94,-0.07,20.4966,-44.5485,-26.0383,1014.82
486926,0.172166,9.76088,1.31994,1.68,-3.08,-0.42,20.8452,-45.8437,-24.9006,1014.82
486932,0.205643,9.79914,1.32472,1.61,-3.15,-0.21,21.1939,-45.6895,-24.8858,1014.82
486938,0.167384,9.76088,1.32951,2.1,-3.08,-0.63,20.5547,-44.4559,-25.8315,1014.82
486944,0.172166,9.74175,1.35342,1.75,-3.22,-0.7,20.4094,-46.5531,-27.0579,1014.79
486950,0.224773,9.74653,1.36298,1.4,-2.24,-0.21,21.6879,-45.6587,-25.4177,1014.79
486956,0.167384,9.8374,1.3056,1.89,-3.08,-0.35,21.252,-44.5793,-26.1861,1014.81
486962,0.172166,9.78001,1.27212,1.19,-2.87,-1.12,20.9615,-45.5353,-27.4569,1014.81
486968,0.0860832,9.72262,1.37733,0.91,-2.52,-0.49,21.2811,-45.9671,-24.7676,1014.81
486974,0.157819,9.74175,1.36298,1.4,-3.15,-0.91,21.4845,-45.2886,-26.3486,1014.85
486980,0.13869,9.68914,1.36777,1.47,-2.94,-0.14,20.9324,-44.5793,-26.984,1014.85
486986,0.105213,9.74175,1.3582,1.82,-3.22,-0.07,21.1358,-45.6587,-25.6098,1014.81
486992,0.133907,9.71784,1.31994,1.61,-2.87,-0.07,21.1939,-46.0288,-25.5507,1014.81
486998,0.133907,9.70827,1.31994,1.19,-2.59,-0.14,20.0898,-43.9625,-25.8758,1014.84
487004,0.157819,9.77044,1.29125,1.61,-3.08,0.07,20.9905,-45.3503,-26.8363,1014.84
487010,0.133907,9.71305,1.37255,1.96,-3.64,-0.28,21.6879,-45.6279,-26.4669,1014.82
487016,0.143472,9.7274,1.33907,1.75,-3.01,-0.07,21.1939,-44.1167,-25.6098,1014.82
487022,0.143472,9.73697,1.33429,1.82,-3.29,-0.14,21.8041,-45.5662,-25.4768,1014.81
487028,0.153037,9.76088,1.33429,1.47,-3.15,0.14,20.9905,-47.4782,-26.1861,1014.81
487034,0.181731,9.74175,1.3056,1.82,-2.8,0,21.746,-44.6101,-26.4078,1014.81
487040,0.186514,9.77523,1.32951,1.75,-3.43,-0.56,20.8743,-44.5485,-26.8806,1014.82
487046,0.181731,9.78957,1.32472,1.54,-3.43,-0.07,22.0947,-45.8437,-25.728,1014.82
487052,0.167384,9.8087,1.31038,1.75,-3.5,0.21,21.0486,-45.412,-25.9497,1014.85
487058,0.157819,9.75131,1.31994,1.54,-2.73,-0.63,21.1649,-44.1784,-25.9201,1014.85
487064,0.114778,9.76566,1.3582,1.54,-3.01,-0.56,21.6588,-45.8437,-25.8315,1014.82
487070,0.157819,9.7274,1.36777,1.47,-3.36,0,21.3101,-46.3989,-26.0088,1014.82
487076,0.153037,9.7561,1.34385,1.61,-3.29,-0.56,20.9324,-44.2401,-26.2748,1014.81
487082,0.129125,9.76088,1.34385,1.54,-2.94,-0.56,20.7581,-46.2447,-26.1861,1014.81
487088,0.143472,9.74653,1.34864,1.68,-2.87,-0.14,21.1358,-46.5222,-26.7919,1014.81
487094,0.133907,9.73218,1.35342,1.33,-3.36,0,21.0777,-44.641,-27.3387,1014.84
487100,0.114778,9.70349,1.39646,1.54,-3.15,-0.07,20.6418,-44.2709,-26.5112,1014.84
487106,0.143472,9.70827,1.36777,2.38,-3.15,0.35,21.3683,-46.6147,-25.6394,1014.82
487112,0.167384,9.73697,1.36777,2.1,-3.29,0.42,20.8162,-45.6587,-25.7871,1014.82
487118,0.162602,9.73218,1.34864,2.03,-3.29,0,20.4966,-45.2578,-26.9545,1014.82
487124,0.162602,9.76088,1.32472,1.47,-3.15,0.07,21.6879,-46.368,-24.9153,1014.82
487130,0.157819,9.73218,1.33907,2.31,-2.94,0.28,21.252,-45.6587,-26.3339,1014.85
487136,0.186514,9.77044,1.33907,1.75,-2.66,-0.14,20.3222,-44.4559,-25.6985,1014.85
487142,0.13869,9.78957,1.32472,1.75,-3.01,-0.07,20.6709,-45.9979,-27.2943,1014.83
487148,0.162602,9.76566,1.35342,1.82,-3.64,-0.35,20.5256,-47.0157,-26.5112,1014.83
487154,0.210426,9.79914,1.3582,1.47,-2.8,0.28,20.8162,-44.8877,-25.137,1014.83
487160,0.200861,9.78001,1.36777,1.61,-2.59,-0.35,20.9905,-44.6101,-26.9988,1014.85
487166,0.162602,9.81827,1.33907,1.96,-3.29,-0.84,21.252,-46.6147,-26.5407,1014.85
487172,0.114778,9.75131,1.35342,1.61,-2.94,-0.28,21.3392,-45.5662,-25.4177,1014.8
487178,0.157819,9.71784,1.3582,1.68,-3.5,-0.7,20.4384,-44.2401,-26.0531,1014.8
487184,0.167384,9.73697,1.37733,1.89,-3.29,-0.28,21.252,-45.412,-26.8954,1014.8
487190,0.176949,9.74175,1.36298,1.26,-2.38,-0.14,20.7581,-46.7381,-25.6542,1014.8
487196,0.148254,9.71305,1.36298,1.75,-2.59,-0.28,20.9615,-45.1961,-26.6442,1014.82
487202,0.129125,9.73697,1.36298,1.96,-3.36,-0.21,20.9034,-45.0727,-25.2256,1014.82
487208,0.143472,9.71305,1.37255,1.75,-3.22,-0.35,21.3392,-46.7689,-25.403,1014.82
487214,0.13869,9.74653,1.38211,1.75,-3.01,0.07,20.9324,-45.0419,-27.1909,1014.82
487220,0.153037,9.71305,1.37255,1.68,-3.08,0.21,21.252,-45.5045,-26.1713,1014.82
487226,0.157819,9.69871,1.37733,1.75,-2.52,0.35,21.3392,-46.3063,-25.3882,1014.81
487232,0.114778,9.72262,1.37733,2.03,-2.94,0.07,21.223,-45.7821,-25.5951,1014.81
487238,0.157819,9.77523,1.33907,1.89,-3.08,-0.07,20.8452,-45.1961,-26.2748,1014.8
487244,0.176949,9.78001,1.33907,1.89,-3.01,-0.28,20.7871,-46.9848,-25.8906,1014.8
487250,0.124342,9.74175,1.34864,1.96,-3.29,-0.28,21.252,-45.9671,-24.3686,1014.8
487256,0.167384,9.7274,1.39168,1.82,-2.66,0.21,21.1067,-44.1167,-25.7871,1014.8
487262,0.186514,9.80392,1.32472,1.82,-2.94,0.35,20.8743,-45.3811,-25.2552,1014.8
487268,0.210426,9.74175,1.32951,1.68,-3.15,-0.07,21.1649,-46.4914,-25.0779,1014.83
487274,0.153037,9.77523,1.34385,1.33,-3.22,-0.14,21.5426,-45.1961,-26.5407,1014.83
487280,0.181731,9.76088,1.3056,1.89,-2.8,-0.21,20.5256,-45.9363,-25.728,1014.83
487286,0.129125,9.74653,1.35342,1.54,-2.66,-0.07,21.4264,-46.3063,-25.9497,1014.83
487292,0.162602,9.7561,1.3582,1.68,-3.01,-0.35,20.9324,-45.2269,-26.7033,1014.82
487298,0.167384,9.7561,1.36298,2.1,-3.01,0,20.4384,-44.3943,-26.7033,1014.82
487304,0.143472,9.74653,1.36298,1.4,-3.08,-0.14,21.5135,-45.3195,-26.1713,1014.82
487310,0.143472,9.73218,1.38211,1.47,-2.73,-0.35,21.7169,-45.7204,-25.3882,1014.82
487316,0.129125,9.75131,1.35342,1.75,-3.08,-0.14,20.4094,-44.3943,-25.8019,1014.82
487322,0.114778,9.77044,1.32472,1.61,-3.29,0,20.8162,-44.8569,-27.117,1014.82
487328,0.114778,9.76088,1.3582,1.75,-2.94,0.07,21.1939,-46.1521,-26.7772,1014.82
487334,0.172166,9.76566,1.32472,1.4,-2.66,0.07,20.5547,-44.7952,-27.0875,1014.82
487340,0.162602,9.74653,1.33907,1.75,-3.08,-0.14,21.1649,-44.641,-27.6046,1014.82
487346,0.124342,9.78001,1.34385,1.89,-3.22,0.35,21.6007,-46.0288,-26.8363,1014.81
487352,0.148254,9.73218,1.38211,1.68,-3.08,0.21,21.1939,-45.8437,-28.7276,1014.81
487358,0.148254,9.76088,1.3582,1.82,-2.87,-0.42,20.9034,-44.6718,-26.9693,1014.81
487364,0.167384,9.76088,1.34864,1.33,-2.8,-0.42,21.0777,-45.5353,-26.6442,1014.81
487370,0.157819,9.76566,1.31516,1.68,-3.01,0.35,21.5426,-45.8129,-25.5803,1014.81
487376,0.129125,9.77523,1.30081,1.68,-2.73,-0.21,20.9905,-44.1476,-26.2452,1014.81
487382,0.11956,9.74175,1.36777,1.54,-3.15,0.21,21.2811,-45.6279,-25.8462,1014.81
487388,0.148254,9.76088,1.3869,1.61,-3.08,-0.84,21.6879,-46.3063,-26.3043,1014.81
487394,0.129125,9.74653,1.32951,1.4,-2.8,-0.7,21.1649,-44.6101,-26.4669,1014.81
487400,0.11956,9.75131,1.34385,1.68,-2.73,0.35,20.8162,-45.1036,-26.7772,1014.84
487406,0.11956,9.71784,1.38211,1.68,-3.08,0.14,22.0366,-46.7381,-25.9497,1014.84
487412,0.109995,9.73218,1.37255,1.68,-3.08,-0.35,21.8622,-45.1344,-25.5951,1014.87
487418,0.129125,9.74175,1.38211,1.75,-3.15,-0.07,21.8622,-44.055,-26.1566,1014.87
487424,0.124342,9.71305,1.38211,1.96,-2.73,0.63,20.9905,-45.6587,-27.4864,1014.84
487430,0.124342,9.75131,1.39168,1.75,-3.08,0.42,21.3683,-46.3989,-26.2304,1014.84
487436,0.148254,9.72262,1.37733,1.89,-3.5,-0.21,21.7169,-44.3634,-26.9545,1014.84
487442,0.143472,9.7274,1.35342,1.82,-3.64,0,21.0486,-45.3195,-27.3091,1014.82
487448,0.153037,9.74653,1.35342,1.89,-3.22,0.07,21.6879,-45.6587,-26.659,1014.82
487454,0.157819,9.74653,1.36777,1.54,-2.73,0.35,21.6879,-43.87,-27.2796,1014.85
487460,0.176949,9.77523,1.32951,1.96,-2.87,0.35,21.2811,-45.2269,-25.6394,1014.85
487466,0.191296,9.76088,1.33907,1.61,-3.15,-0.07,21.3973,-45.8129,-25.3291,1014.81
487472,0.196078,9.77044,1.31038,2.1,-3.29,0.21,21.8041,-45.0111,-26.2009,1014.81
487478,0.181731,9.77044,1.30081,1.54,-2.8,0.14,21.3101,-43.7158,-26.4669,1014.84
487484,0.176949,9.79436,1.31038,1.54,-3.08,-0.49,21.0777,-45.2578,-25.4768,1014.84
487490,0.13869,9.74653,1.39168,1.75,-3.29,-0.35,20.8452,-45.4428,-25.5064,1014.81
487496,0.167384,9.73218,1.36777,1.75,-2.87,0.07,21.1649,-43.2224,-26.393,1014.81
487502,0.133907,9.75131,1.36298,1.75,-3.22,-0.28,21.9203,-44.9802,-24.7232,1014.81
487508,0.133907,9.73218,1.34864,1.75,-3.01,-0.42,21.1358,-46.4605,-26.7919,1014.84
487514,0.153037,9.7561,1.36298,1.54,-2.66,-0.14,20.8162,-44.1784,-25.8758,1014.84
487520,0.0908656,9.71784,1.3582,1.75,-2.8,0.63,21.223,-43.87,-26.6442,1014.84
487526,0.13869,9.7274,1.3582,1.89,-2.87,0.07,21.4554,-46.3372,-25.994,1014.84
487532,0.11956,9.75131,1.35342,2.17,-3.15,0.07,21.4845,-44.8877,-26.1566,1014.81
487538,0.13869,9.73218,1.34864,2.45,-3.36,0.42,21.1358,-44.3634,-26.6294,1014.81
487544,0.148254,9.74175,1.32472,2.17,-3.5,0.49,20.3513,-45.2578,-26.8215,1014.8
487550,0.153037,9.7561,1.35342,1.89,-3.01,0.21,21.0777,-46.2138,-25.5359,1014.8
487556,0.172166,9.79436,1.32472,2.24,-3.36,-0.42,20.729,-44.1476,-25.9497,1014.8
487562,0.181731,9.7561,1.36777,2.1,-3.36,0.21,21.1067,-45.6279,-25.27,1014.79
487568,0.181731,9.76566,1.34385,1.96,-3.22,0.28,21.3973,-45.0727,-25.7428,1014.79
487574,0.162602,9.76088,1.36298,1.82,-2.94,-0.21,20.2932,-44.6101,-25.6985,1014.82
487580,0.176949,9.77044,1.37733,2.17,-3.5,-0.42,20.3222,-44.4251,-26.393,1014.82
487586,0.186514,9.73697,1.32951,1.82,-3.15,-0.77,21.1067,-46.3372,-25.861,1014.81
487592,0.148254,9.74175,1.33429,2.03,-2.87,-0.42,21.223,-45.1961,-26.526,1014.81
487598,0.143472,9.77044,1.33429,2.31,-3.08,0.28,20.235,-44.3326,-25.7871,1014.79
487604,0.176949,9.76566,1.34864,1.47,-3.08,-0.35,20.6418,-45.4737,-26.5112,1014.79
487610,0.191296,9.73218,1.34864,1.82,-2.45,-0.56,21.5135,-46.3989,-25.9645,1014.79
487616,0.095648,9.80392,1.29603,1.82,-3.15,0.07,20.7871,-43.5616,-26.3782,1014.82
487622,0.162602,9.74175,1.31994,1.68,-3.01,-0.28,21.3392,-45.2886,-26.393,1014.82
487628,0.095648,9.75131,1.34864,1.54,-3.36,-0.42,21.6298,-46.3063,-26.7033,1014.81
487634,0.153037,9.72262,1.37255,2.31,-2.87,-0.35,21.0196,-45.1036,-25.9349,1014.81
487640,0.129125,9.7561,1.36298,1.54,-2.52,0.21,21.1358,-44.4868,-26.7772,1014.83
487646,0.114778,9.7561,1.3869,1.68,-2.94,0.14,21.1649,-45.9054,-26.4225,1014.83
487652,0.114778,9.76088,1.37255,1.96,-3.29,0.21,20.729,-44.9185,-27.7229,1014.82
487658,0.133907,9.75131,1.37255,1.75,-3.85,0.63,21.3683,-44.4868,-26.6885,1014.82
487664,0.133907,9.74175,1.3582,1.96,-2.94,0.14,21.3973,-46.1213,-26.2748,1014.81
487670,0.114778,9.74175,1.33907,1.68,-3.64,0.21,21.8622,-46.2447,-26.659,1014.81
487676,0.172166,9.71784,1.3582,1.75,-3.92,0.63,21.3973,-44.4251,-26.0088,1014.81
487682,0.13869,9.7274,1.34864,1.82,-3.43,0.28,20.9324,-46.0905,-25.7724,1014.83
487688,0.143472,9.7561,1.34385,2.03,-2.94,0.14,20.9615,-46.4605,-26.659,1014.83
487694,0.176949,9.79914,1.3056,1.89,-3.08,0.63,21.0196,-44.9494,-26.3191,1014.83
487700,0.176949,9.75131,1.34864,1.82,-3.08,0.42,21.0777,-44.6718,-25.6098,1014.83
487706,0.176949,9.75131,1.38211,2.1,-2.87,0,21.3392,-46.7073,-25.5507,1014.86
487712,0.167384,9.73697,1.3582,1.54,-2.66,-0.07,21.7751,-45.7204,-27.1022,1014.86
487718,0.200861,9.78001,1.3582,1.89,-3.36,0.07,21.3101,-44.5793,-27.1466,1014.82
487724,0.148254,9.78957,1.36298,1.68,-2.73,0.07,21.5717,-46.5839,-26.8658,1014.82
487730,0.172166,9.74653,1.37733,1.82,-2.94,0.35,21.8622,-46.7073,-26.7624,1014.82
487736,0.133907,9.70349,1.41081,2.1,-3.01,0,20.4675,-44.2709,-27.0727,1014.8
487742,0.095648,9.7561,1.32951,1.82,-2.87,-0.07,20.7581,-45.2886,-26.1122,1014.8
487748,0.10043,9.74175,1.35342,1.33,-2.87,-0.14,21.7169,-46.2755,-26.2157,1014.8
487754,0.13869,9.72262,1.35342,1.89,-3.64,0.63,21.3392,-45.412,-26.0088,1014.8
487760,0.105213,9.76088,1.36777,1.75,-2.87,0.63,21.4264,-45.0419,-25.6542,1014.84
487766,0.157819,9.74175,1.37733,1.96,-2.73,-0.28,21.8622,-47.0157,-26.5112,1014.84
487772,0.109995,9.77044,1.36777,1.54,-3.22,0.56,21.1358,-46.2447,-25.2847,1014.82
487778,0.143472,9.71305,1.3869,2.1,-3.08,1.05,20.7871,-43.9317,-26.2304,1014.82
487784,0.129125,9.75131,1.37255,1.82,-3.15,0.49,20.5547,-46.0596,-26.0679,1014.82
487790,0.143472,9.75131,1.33429,1.89,-3.36,0.98,20.729,-46.2138,-26.3191,1014.84
487796,0.153037,9.78957,1.3582,1.54,-3.36,0.14,19.9154,-44.1784,-25.8167,1014.84
487802,0.153037,9.74175,1.37733,1.89,-3.08,0.21,21.223,-45.3503,-26.4521,1014.79
487808,0.13869,9.74175,1.40603,2.31,-2.94,0.77,21.0486,-45.9979,-26.2009,1014.79
487814,0.143472,9.73697,1.35342,2.03,-3.15,0.91,20.729,-45.1961,-26.2304,1014.83
487820,0.157819,9.76566,1.34864,2.24,-3.22,0.42,20.9615,-45.0111,-26.4225,1014.83
487826,0.200861,9.76088,1.33907,2.24,-3.5,-0.14,20.9034,-46.4914,-24.7676,1014.86
487832,0.205643,9.7561,1.3582,2.17,-2.66,0.28,21.1649,-45.7821,-25.9054,1014.86
487838,0.148254,9.7561,1.31994,1.89,-3.01,0.42,20.6709,-43.8392,-26.659,1014.81
487844,0.162602,9.77044,1.35342,1.96,-3.08,0.07,21.2811,-46.8306,-26.0236,1014.81
487850,0.25825,9.8087,1.31994,2.1,-2.66,-0.14,22.1528,-45.2269,-26.2452,1014.81
487856,0.25825,9.78957,1.30081,1.68,-2.31,-0.14,21.4845,-44.5485,-25.7133,1014.79
487862,0.129125,9.78001,1.33907,2.1,-3.08,-0.49,22.1237,-45.1961,-26.659,1014.79
487868,0.129125,9.77523,1.3582,1.89,-3.36,0.21,21.3392,-46.6147,-27.1909,1014.84
487874,0.0765184,9.7274,1.38211,1.68,-3.15,-0.28,20.8452,-44.5793,-26.2748,1014.84
487880,0.133907,9.73697,1.36777,2.24,-2.87,-0.42,21.1067,-44.7952,-25.9349,1014.83
487886,0.109995,9.73218,1.38211,1.96,-3.01,-0.14,21.223,-46.8306,-26.2895,1014.83
487892,0.143472,9.69392,1.36777,1.68,-3.36,0.21,21.0486,-45.3811,-25.7133,1014.82
487898,0.11956,9.7274,1.36298,2.1,-3.57,0,21.4264,-45.6279,-26.2452,1014.82
487904,0.114778,9.74653,1.35342,2.31,-3.15,0,21.1649,-46.6764,-25.2109,1014.82
487910,0.148254,9.72262,1.36777,2.17,-2.94,0.7,21.7169,-45.5662,-26.5112,1014.83
487916,0.11956,9.76088,1.35342,2.17,-3.57,0.49,21.2811,-44.4559,-26.4964,1014.83
487922,0.167384,9.75131,1.31516,2.45,-3.43,0.49,21.0196,-45.597,-25.9349,1014.84
487928,0.153037,9.74175,1.3056,2.03,-3.57,0.07,20.9615,-46.0288,-26.1418,1014.84
487934,0.181731,9.76088,1.35342,2.24,-3.29,0.56,21.3973,-44.9802,-25.861,1014.84
487940,0.162602,9.7561,1.34385,2.17,-2.94,0.56,20.5547,-44.5176,-26.5555,1014.84
487946,0.21999,9.78479,1.34385,1.82,-2.94,0.7,21.1067,-46.8615,-24.8119,1014.83
487952,0.243902,9.78957,1.33429,2.17,-2.87,-0.28,21.0486,-45.8129,-27.383,1014.83
487958,0.21999,9.78479,1.35342,1.82,-2.24,0.14,21.1649,-45.0727,-27.3534,1014.83
487964,0.167384,9.79436,1.32472,2.03,-2.66,0.42,21.3101,-46.7998,-25.4916,1014.84
487970,0.148254,9.77523,1.31038,2.03,-2.94,-0.07,21.6588,-45.8129,-26.4078,1014.84
487976,0.186514,9.76566,1.29603,2.03,-3.29,-0.35,20.5547,-44.6718,-26.851,1014.84
487982,0.172166,9.79436,1.31516,2.1,-3.29,0.07,21.1649,-46.1521,-25.6689,1014.84
487988,0.167384,9.76088,1.32951,1.68,-2.73,0,21.3101,-46.5839,-25.3882,1014.79
487994,0.114778,9.73697,1.34864,2.17,-3.29,-0.28,20.8452,-44.2709,-25.6985,1014.79
488000,0.129125,9.75131,1.32472,2.1,-3.08,0.07,20.8743,-45.0111,-26.5407,1014.83
488006,0.148254,9.71305,1.36777,1.68,-3.08,0.35,21.8913,-46.5839,-26.0236,1014.83
488012,0.129125,9.74653,1.34864,1.54,-3.08,-0.07,20.8452,-45.0111,-26.4225,1014.84
488018,0.153037,9.71784,1.31994,2.17,-3.15,0.14,20.4675,-44.6718,-26.8954,1014.84
488024,0.11956,9.71784,1.32472,2.1,-3.15,0.7,21.0777,-46.368,-24.871,1014.84
488030,0.124342,9.72262,1.32951,2.17,-2.87,0.07,21.2811,-45.412,-26.0679,1014.82
488036,0.143472,9.74653,1.32472,1.96,-3.29,-0.07,21.0777,-43.3766,-26.6737,1014.82
488042,0.167384,9.74175,1.28647,2.03,-3.29,0.7,21.3101,-45.9363,-26.8067,1014.82
488048,0.172166,9.75131,1.31038,1.96,-3.08,0.42,20.8743,-46.1521,-25.6394,1014.82
488054,0.191296,9.74653,1.33907,2.1,-3.08,0.7,21.5717,-45.1036,-25.8167,1014.81
488060,0.181731,9.75131,1.32951,2.1,-3.22,0.28,20.7871,-44.641,-26.6737,1014.81
488066,0.229555,9.78001,1.3056,1.89,-2.38,0.07,21.1649,-46.3063,-26.5555,1014.84
488072,0.186514,9.74175,1.33429,2.24,-2.73,0.07,20.6128,-45.4737,-25.2847,1014.84
488078,0.191296,9.76088,1.36777,2.24,-3.01,0.07,20.3513,-44.7027,-27.383,1014.84
488084,0.143472,9.71305,1.32472,1.75,-3.15,0.49,20.4384,-46.5531,-25.9054,1014.8
488090,0.186514,9.77523,1.31516,2.31,-3.29,0.14,21.4554,-45.6587,-26.5112,1014.8
488096,0.229555,9.77523,1.31994,2.17,-3.5,0.14,20.206,-44.7643,-26.6885,1014.83
488102,0.215208,9.76566,1.32951,2.03,-3.5,-0.56,21.1067,-44.7952,-26.5407,1014.83
488108,0.153037,9.76088,1.28168,2.31,-2.94,-0.28,22.0656,-46.5531,-25.8758,1014.82
488114,0.109995,9.73218,1.31516,2.1,-3.01,-0.49,21.1939,-45.8129,-26.26,1014.82
488120,0.13869,9.76088,1.3582,1.96,-2.87,-0.07,20.4966,-44.826,-25.8315,1014.81
488126,0.176949,9.76088,1.31516,2.03,-3.64,0.42,20.9905,-46.2755,-26.4964,1014.81
488132,0.181731,9.75131,1.31994,1.68,-3.64,-0.21,21.1358,-45.0111,-26.3634,1014.81
488138,0.181731,9.73697,1.33429,2.52,-3.22,0.07,20.3513,-44.3943,-26.5998,1014.82
488144,0.148254,9.75131,1.31516,1.54,-3.22,0.56,20.4966,-46.5222,-26.4078,1014.82
488150,0.162602,9.75131,1.28647,1.89,-3.15,0.63,21.1067,-45.6895,-26.0383,1014.82
488156,0.229555,9.76088,1.31038,1.96,-3.64,-0.14,20.8743,-44.9802,-26.8067,1014.82
488162,0.200861,9.75131,1.31516,1.82,-3.57,-0.07,21.1067,-45.597,-26.5112,1014.84
488168,0.153037,9.73218,1.34385,1.68,-3.43,0.14,21.2811,-46.368,-26.0236,1014.84
488174,0.133907,9.75131,1.35342,2.17,-3.5,0.7,21.2811,-45.3195,-26.9545,1014.82
488180,0.196078,9.73697,1.33907,2.03,-3.29,0.21,20.7,-45.3811,-26.8806,1014.82
488186,0.172166,9.77044,1.32951,2.59,-3.22,-0.14,21.1649,-46.8923,-27.0136,1014.78
488192,0.186514,9.77523,1.31038,1.96,-3.22,0,21.1067,-44.9185,-26.7476,1014.78
488198,0.196078,9.78001,1.3056,1.61,-3.29,0.28,21.1939,-44.4559,-27.2057,1014.78
488204,0.25825,9.78957,1.33429,1.47,-2.66,-0.07,21.1649,-45.6587,-26.1861,1014.83
488210,0.224773,9.78001,1.34864,1.82,-3.08,0,20.9034,-46.183,-25.8758,1014.83
488216,0.162602,9.78479,1.32951,2.03,-3.22,-0.14,20.4094,-43.8392,-27.25,1014.77
488222,0.129125,9.73218,1.34385,1.89,-3.01,0.14,21.0777,-45.1653,-26.3191,1014.77
488228,0.129125,9.73697,1.3869,1.89,-2.73,-0.21,21.6298,-46.8923,-25.0483,1014.8
488234,0.143472,9.73697,1.34385,1.75,-3.22,-0.21,21.8622,-45.7821,-27.0579,1014.8
488240,0.157819,9.73218,1.32472,2.1,-3.43,0.21,20.8162,-45.0111,-26.9545,1014.82
488246,0.153037,9.73218,1.34385,1.61,-3.15,0.21,21.0196,-46.3989,-25.2109,1014.82
488252,0.176949,9.74653,1.33907,1.82,-3.01,0.35,20.7,-45.412,-25.4916,1014.82
488258,0.181731,9.7561,1.32472,2.1,-2.94,-0.07,21.1358,-45.0419,-26.4816,1014.83
488264,0.162602,9.75131,1.32472,2.1,-2.87,-0.21,21.5135,-45.7204,-25.27,1014.83
488270,0.172166,9.73697,1.37733,1.96,-2.8,0.21,21.4845,-45.9054,-26.8363,1014.85
488276,0.172166,9.74653,1.32951,1.96,-3.22,0.28,20.1769,-44.9185,-26.0679,1014.85
488282,0.210426,9.7561,1.32951,1.82,-2.66,0.14,21.3683,-45.8129,-25.1074,1014.81
488288,0.176949,9.74653,1.29125,1.82,-2.94,-0.07,20.9034,-46.0596,-26.5851,1014.81
488294,0.172166,9.74653,1.29603,1.68,-2.94,0.07,20.9905,-45.3811,-27.5455,1014.85
488300,0.229555,9.7561,1.33429,1.47,-2.87,-0.21,21.1649,-45.0111,-25.8906,1014.85
488306,0.210426,9.77044,1.33429,1.68,-2.87,-0.07,21.7751,-47.139,-26.9693,1014.85
488312,0.167384,9.76088,1.31516,1.89,-3.01,-0.42,21.1358,-45.8437,-26.4816,1014.81
488318,0.167384,9.77044,1.2769,1.54,-2.94,-0.28,20.7,-45.0419,-26.3043,1014.81
488324,0.172166,9.74175,1.31516,1.4,-2.66,-0.49,21.1067,-45.8437,-27.1022,1014.83
488330,0.191296,9.74653,1.33429,1.75,-2.66,-0.7,21.5717,-45.9363,-25.9792,1014.83
488336,0.13869,9.77044,1.33907,1.26,-2.59,-17.85,21.2811,-44.2092,-27.5308,1014.8
488342,0.133907,9.77523,1.34385,1.54,-2.94,-0.21,21.223,-45.1344,-26.4373,1014.8
488348,0.13869,9.7561,1.33907,1.61,-3.01,-0.07,20.7871,-46.5839,-27.0875,1014.82
488354,0.148254,9.73218,1.34864,1.4,-3.15,-0.28,21.2811,-44.3326,-27.649,1014.82
488360,0.133907,9.72262,1.34385,1.54,-3.15,0.21,20.9615,-44.4868,-26.7476,1014.81
488366,0.129125,9.73218,1.32951,2.03,-3.01,0,21.8622,-46.368,-25.8315,1014.81
488372,0.162602,9.71784,1.34385,1.89,-2.87,0.28,20.7581,-46.1521,-27.516,1014.81
488378,0.153037,9.7274,1.33907,1.68,-2.87,0.07,20.8162,-44.2092,-27.6342,1014.81
488384,0.157819,9.7561,1.31038,1.82,-3.36,0.14,21.6588,-46.5531,-26.26,1014.81
488390,0.181731,9.77044,1.34385,1.82,-2.94,0.14,20.6709,-46.3063,-26.9249,1014.8
488396,0.153037,9.76088,1.29125,1.68,-3.22,0.07,19.9445,-44.7027,-27.6785,1014.8
488402,0.181731,9.78957,1.31994,1.82,-2.87,0.14,20.7,-46.6764,-27.2205,1014.81
488408,0.200861,9.75131,1.3056,1.75,-3.36,0.07,21.3973,-46.8923,-26.8658,1014.81
488414,0.248685,9.77523,1.31516,1.19,-2.94,-0.42,21.1358,-44.826,-26.4816,1014.8
488420,0.196078,11.0091,1.33429,1.89,-2.8,-0.28,20.9905,-45.4428,-26.26,1014.8
488426,0.191296,9.79436,1.32472,1.26,-3.08,-0.35,21.3392,-46.5531,-25.3439,1014.8
488432,0.162602,9.74175,1.34385,1.89,-3.43,-0.56,21.1939,-45.9054,-26.2009,1014.82
488438,0.196078,9.7561,1.31994,1.54,-2.52,-0.42,20.9615,-44.8569,-26.8954,1014.82
488444,0.181731,9.75131,1.35342,1.68,-2.94,-0.56,21.1939,-47.2315,-27.3534,1014.82
488450,0.186514,9.73218,1.3582,1.54,-2.8,-0.84,21.0196,-46.7073,-26.6294,1014.82
488456,0.124342,9.76566,1.33907,1.61,-2.8,-0.49,21.1067,-45.2886,-27.3682,1014.81
488462,0.109995,9.73218,1.34864,1.75,-3.08,0,21.4264,-46.2755,-26.851,1014.81
488468,0.143472,9.7274,1.36298,1.47,-3.01,0,20.7,-46.954,-25.6837,1014.83
488474,0.143472,9.71784,1.34864,2.03,-3.36,17.57,20.1188,-46.2447,-26.5407,1014.83
488480,0.133907,9.76566,1.32472,1.75,-3.29,-0.21,21.3392,-46.4914,-28.4469,1014.83
488486,0.176949,9.71784,1.32951,1.89,-3.08,-0.14,21.2811,-46.2138,-25.994,1014.83
488492,0.172166,9.70827,1.3582,1.75,-3.29,0.35,21.0486,-45.597,-27.0727,1014.83
488498,0.162602,9.73697,1.31516,1.75,-3.36,0.35,20.4966,-44.7027,-25.4768,1014.82
488504,0.172166,9.73218,1.32951,1.75,-2.94,-0.28,21.3101,-46.9231,-25.9201,1014.82
488510,0.13869,9.73697,1.32472,2.03,-3.22,-0.07,20.9034,-45.597,-26.0974,1014.83
488516,0.157819,9.75131,1.3056,2.1,-3.36,-0.28,20.7581,-44.5176,-26.7624,1014.83
488522,0.191296,9.74175,1.31516,1.61,-3.57,0.14,20.7871,-45.8746,-27.25,1014.83
488528,0.191296,9.76088,1.31516,2.17,-3.01,-0.21,21.3101,-47.2624,-25.3882,1014.83
488534,0.205643,9.75131,1.32951,1.61,-2.73,0.07,20.5837,-45.1653,-25.9497,1014.8
488540,0.196078,9.81349,1.33429,2.03,-3.08,-0.21,20.4384,-45.1653,-26.2748,1014.8
488546,0.200861,9.77044,1.34385,1.82,-2.94,-0.35,20.8743,-46.2447,-26.6885,1014.8
488552,0.181731,9.78957,1.30081,1.75,-2.94,-0.28,20.9905,-45.1653,-26.4225,1014.8
488558,0.176949,9.78001,1.3056,1.82,-3.36,-0.49,20.8452,-44.7643,-26.851,1014.8
488564,0.157819,9.74653,1.32951,1.75,-2.8,-0.42,21.4845,-46.7689,-27.2796,1014.82
488570,0.172166,9.78001,1.34864,1.54,-2.94,0,20.9615,-46.3372,-25.8167,1014.82
488576,0.153037,9.75131,1.32472,1.54,-3.36,-0.21,20.2932,-44.5793,-26.3782,1014.82
488582,0.133907,9.74653,1.31516,1.68,-3.22,0.07,21.0486,-46.3372,-27.0431,1014.82
488588,0.148254,9.7561,1.34864,1.33,-3.15,0.21,21.3973,-46.5531,-27.0284,1014.81
488594,0.105213,9.72262,1.29603,1.82,-3.5,0,21.1649,-45.2269,-27.0727,1014.81
488600,0.153037,9.73218,1.34864,1.82,-3.5,-0.21,21.0486,-45.2269,-27.3387,1014.81
488606,0.143472,9.74653,1.31516,1.54,-3.29,0.35,21.3973,-46.7998,-25.9792,1014.79
488612,0.172166,9.73218,1.31994,1.4,-2.52,-0.21,21.1067,-45.1961,-25.9792,1014.79
488618,0.181731,9.74653,1.36298,1.54,-3.01,0.14,19.6539,-44.7952,-26.3339,1014.81
488624,0.186514,9.73697,1.3056,1.82,-3.01,-0.07,21.0196,-46.7998,-25.5359,1014.81
488630,0.196078,9.77523,1.34864,2.17,-3.08,0.07,20.9905,-46.1521,-26.0974,1014.83
488636,0.248685,9.77044,1.31038,1.61,-2.52,-0.21,21.3392,-45.0111,-27.6342,1014.83
488642,0.181731,9.74653,1.29603,1.96,-2.59,-0.14,20.8452,-45.2578,-26.1861,1014.82
488648,0.153037,9.78001,1.31994,2.03,-3.64,-0.49,21.3683,-45.5662,-26.8067,1014.82
488654,0.234338,9.78001,1.3056,1.4,-3.01,-0.49,21.1649,-43.9317,-27.9445,1014.83
488660,0.224773,9.76566,1.33429,1.89,-2.66,-0.28,20.3803,-44.7643,-26.0679,1014.83
488666,0.157819,9.74653,1.3056,1.19,-2.38,-0.35,21.6007,-45.9363,-26.4373,1014.83
488672,0.129125,9.79436,1.33907,1.47,-3.01,-1.12,21.4264,-45.6895,-27.0875,1014.84
488678,0.109995,9.74175,1.37255,1.54,-3.15,-0.56,21.3392,-44.9185,-26.1713,1014.84
488684,0.157819,9.71305,1.36298,1.68,-2.45,-0.49,21.3101,-46.2138,-26.6885,1014.81
488690,0.133907,9.74175,1.32951,1.54,-3.08,0.7,20.9905,-46.0288,-25.861,1014.81
488696,0.143472,9.7274,1.32951,1.54,-3.29,-0.21,20.8452,-43.4074,-25.3439,1014.81
488702,0.109995,9.73218,1.33907,1.82,-3.01,-0.42,20.5256,-46.0596,-25.9349,1014.81
488708,0.172166,9.74175,1.36777,1.54,-2.87,0.28,20.9905,-46.6764,-26.0383,1014.83
488714,0.124342,9.7561,1.35342,1.61,-2.73,0.42,21.0777,-44.3943,-26.6442,1014.83
488720,0.162602,9.76088,1.33429,2.17,-3.08,-0.7,20.9615,-45.4428,-26.7772,1014.83
488726,0.176949,9.76088,1.33907,1.75,-3.29,-0.35,21.4554,-46.4297,-26.659,1014.8
488732,0.191296,9.71784,1.31516,1.96,-3.08,0.42,21.4845,-44.7643,-26.2895,1014.8
488738,0.167384,9.74175,1.35342,1.61,-3.01,0.21,20.9034,-44.5485,-26.3634,1014.81
488744,0.167384,9.76566,1.33429,1.61,-3.15,-0.28,21.252,-45.9671,-26.2748,1014.81
488750,0.191296,9.76566,1.31038,1.82,-2.87,-0.49,21.6879,-45.7204,-25.9201,1014.82
488756,0.234338,9.74175,1.32951,2.17,-2.87,-0.42,20.9615,-43.9317,-26.1861,1014.82
488762,0.23912,9.77044,1.29603,1.75,-2.87,-0.49,20.9615,-45.3195,-25.6985,1014.81
488768,0.191296,9.79914,1.28647,1.61,-3.01,-0.56,21.1939,-46.6764,-25.7724,1014.81
488774,0.148254,9.77044,1.2769,1.12,-3.01,-0.77,20.9324,-43.9625,-26.4225,1014.81
488780,0.148254,9.76088,1.36777,1.61,-3.29,-0.49,20.8452,-44.9494,-28.7572,1014.81
488786,0.167384,9.7561,1.3582,1.05,-2.8,-0.28,21.3101,-46.3989,-26.526,1014.81
488792,0.172166,9.73697,1.33907,1.75,-3.43,-0.49,21.1939,-44.7027,-25.994,1014.8
488798,0.11956,9.76088,1.32472,1.33,-3.36,-0.77,20.9615,-44.1167,-26.659,1014.8
488804,0.143472,9.73697,1.37255,1.05,-2.87,-0.14,21.3973,-45.9979,-25.9497,1014.81
488810,0.13869,9.74175,1.36777,1.89,-3.36,-0.21,21.2811,-45.1961,-26.2157,1014.81
488816,0.148254,9.74653,1.32951,1.68,-3.36,-0.14,21.9203,-44.3634,-27.4421,1014.83
488822,0.124342,9.71305,1.40124,1.96,-2.87,-0.21,21.6879,-44.7643,-25.8462,1014.83
488828,0.162602,9.77523,1.3056,1.89,-2.94,-0.07,21.1939,-45.4428,-26.8954,1014.78
488834,0.143472,9.72262,1.32472,1.82,-3.08,0.07,21.1649,-45.0419,-25.7576,1014.78
488840,0.167384,9.73697,1.31994,1.89,-3.29,0.07,20.729,-44.6101,-26.8067,1014.78
488846,0.153037,9.78479,1.32951,1.68,-3.5,-0.07,21.0196,-46.2138,-27.1466,1014.84
488852,0.205643,9.76088,1.30081,1.82,-2.52,-0.35,21.1358,-44.7643,-25.994,1014.84
488858,0.205643,9.78001,1.34864,1.47,-2.8,-0.35,20.3513,-44.5485,-26.1418,1014.81
488864,0.153037,9.76088,1.32951,1.4,-2.8,-0.35,21.3101,-46.183,-27.4569,1014.81
488870,0.205643,9.76566,1.35342,1.68,-2.66,-0.49,20.9034,-45.2578,-25.9054,1014.81
488876,0.25825,9.78479,1.31038,1.61,-3.36,-0.84,20.9324,-44.1784,-26.5998,1014.81
488882,0.21999,9.78957,1.28647,0.56,-3.15,-1.12,20.6709,-46.2138,-27.0284,1014.79
488888,0.167384,9.79436,1.30081,1.68,-3.15,-1.05,21.0486,-46.0288,-25.004,1014.79
488894,0.148254,9.71784,1.35342,1.19,-3.22,-1.12,20.7871,-44.9185,-25.1813,1014.79
488900,0.167384,9.72262,1.39168,1.33,-2.87,-1.05,21.0777,-44.4559,-26.8215,1014.81
488906,0.129125,9.75131,1.39168,1.19,-3.22,-0.7,21.8332,-46.5222,-25.5064,1014.81
488912,0.11956,9.7274,1.34864,1.68,-3.36,-0.77,21.3392,-44.4868,-26.8658,1014.83
488918,0.114778,9.76566,1.39646,1.54,-3.22,-0.91,21.3973,-44.9185,-27.5603,1014.83
488924,0.133907,9.70827,1.34385,1.33,-3.15,-0.77,21.6588,-46.5222,-26.393,1014.82
488930,0.105213,9.72262,1.37255,1.4,-3.15,-0.42,21.7751,-46.1213,-26.5407,1014.82
488936,0.129125,9.69392,1.34385,1.82,-3.22,-0.14,20.7,-43.9008,-27.2205,1014.79
488942,0.148254,9.74175,1.37255,1.33,-3.08,-0.77,20.9905,-46.1521,-26.851,1014.79
488948,0.153037,9.76566,1.32951,1.47,-3.01,-0.21,21.1939,-46.4297,-26.6146,1014.79
488954,0.181731,9.76566,1.33429,1.19,-2.94,-0.07,21.5717,-44.826,-26.7919,1014.85
488960,0.143472,9.75131,1.34864,1.26,-3.08,-0.21,21.2811,-45.0419,-26.8658,1014.85
488966,0.167384,9.75131,1.35342,1.33,-2.8,-0.14,21.3392,-46.7073,-25.8019,1014.83
488972,0.172166,9.80392,1.34385,1.4,-2.87,-1.05,20.4384,-44.641,-26.7624,1014.83
488978,0.172166,9.78479,1.31994,1.05,-2.8,-1.05,21.0196,-44.6101,-27.1318,1014.82
488984,0.129125,9.77044,1.33429,0.98,-2.38,-0.21,20.8743,-47.0773,-27.7376,1014.82
488990,0.114778,9.7274,1.36298,1.33,-2.66,-0.63,21.746,-45.9363,-25.9054,1014.83
488996,0.129125,9.73697,1.40124,1.68,-3.01,-0.77,20.6418,-44.0242,-26.3486,1014.83
489002,0.133907,9.71784,1.38211,1.33,-3.08,-0.77,21.1939,-45.5662,-25.4325,1014.82
489008,0.148254,9.75131,1.35342,1.33,-2.59,-0.56,21.3101,-46.6764,-25.4768,1014.82
489014,0.148254,9.73697,1.34385,1.54,-2.8,-0.84,20.8743,-44.7335,-26.9545,1014.82
489020,0.10043,9.73218,1.3869,1.4,-2.8,-0.91,20.9034,-45.2886,-26.7328,1014.81
489026,0.105213,9.73218,1.40124,1.61,-3.22,-0.56,21.8332,-46.7381,-26.7476,1014.81
489032,0.133907,9.71784,1.3869,1.54,-2.73,-0.28,21.3101,-44.2709,-26.8658,1014.82
489038,0.0860832,9.72262,1.38211,1.75,-3.01,0.21,21.2811,-44.4868,-27.2205,1014.82
489044,0.13869,9.70827,1.40603,1.82,-2.87,-0.07,21.1358,-46.0596,-25.5803,1014.83
489050,0.133907,9.73218,1.39168,1.54,-3.5,-0.14,21.3683,-45.3195,-27.3534,1014.83
489056,0.133907,9.76088,1.38211,2.1,-3.64,0.14,21.0777,-44.2709,-26.5555,1014.83
489062,0.215208,9.71305,1.3869,1.89,-3.15,-0.21,20.9034,-45.7512,-25.9054,1014.83
489068,0.200861,9.75131,1.36298,2.17,-3.22,-0.49,21.3683,-46.7381,-25.7428,1014.83
489074,0.229555,9.79914,1.34864,1.47,-2.45,-0.28,21.8041,-43.7158,-25.2552,1014.79
489080,0.172166,9.80392,1.34385,1.4,-2.87,-0.42,20.5547,-44.2401,-26.526,1014.79
489086,0.167384,9.79436,1.35342,1.4,-2.66,-1.05,21.746,-46.7689,-26.26,1014.83
489092,0.157819,9.78001,1.41559,1.12,-3.29,-0.63,21.4264,-44.7643,-26.1861,1014.83
489098,0.105213,9.71305,1.42994,1.33,-2.94,-1.19,21.1939,-44.9185,-25.861,1014.81
489104,0.114778,9.70827,1.39168,1.26,-2.94,-0.84,21.4264,-46.2755,-25.6246,1014.81
489110,0.0813008,9.7274,1.39168,1.82,-3.29,-0.07,21.252,-46.368,-26.5555,1014.8
489116,0.0765184,9.71305,1.42516,1.19,-2.38,-0.21,21.4264,-44.5485,-26.0974,1014.8
489122,0.0860832,9.74653,1.40124,1.82,-3.43,-0.84,21.3683,-45.3811,-24.6346,1014.8
489128,0.0813008,9.74175,1.39646,1.61,-3.29,-0.07,21.8041,-45.7204,-26.26,1014.85
489134,0.105213,9.74653,1.40603,1.96,-3.29,0.07,21.1939,-44.7643,-26.9693,1014.85
489140,0.114778,9.71784,1.38211,1.68,-3.15,0,20.729,-45.0111,-26.851,1014.82
489146,0.153037,9.71305,1.3869,1.54,-3.43,-0.07,21.6298,-46.1213,-24.7085,1014.82
489152,0.143472,9.73697,1.37255,1.89,-3.22,-0.07,21.2811,-44.9802,-26.5851,1014.81
489158,0.153037,9.73218,1.38211,1.68,-3.15,-0.07,21.0777,-44.4251,-26.393,1014.81
489164,0.162602,9.77523,1.40124,1.89,-3.15,-0.28,21.7751,-45.9979,-25.9645,1014.82
489170,0.215208,9.76088,1.34385,1.68,-3.08,-0.14,21.9203,-46.2138,-25.6985,1014.82
489176,0.157819,9.7561,1.33429,2.03,-2.87,-0.28,21.3683,-43.7158,-26.4964,1014.8
489182,0.124342,9.75131,1.3869,1.75,-2.8,-0.35,20.9615,-45.9363,-26.526,1014.8
489188,0.167384,9.7561,1.36777,2.45,-2.87,-0.49,21.3683,-45.9363,-26.2009,1014.8
489194,0.191296,9.7561,1.38211,1.75,-2.94,-0.84,20.8162,-44.4251,-25.728,1014.83
489200,0.153037,9.78957,1.34864,1.47,-3.43,-0.21,20.3803,-45.7821,-26.5555,1014.83
489206,0.10043,9.78957,1.36298,1.68,-2.66,-0.84,21.4264,-46.8615,-24.9892,1014.82
489212,0.109995,9.73218,1.39168,1.75,-2.73,-0.49,21.1358,-44.9494,-25.9645,1014.82
489218,0.114778,9.71784,1.42994,1.61,-3.15,-0.21,21.6588,-44.7027,-26.5703,1014.8
489224,0.105213,9.71784,1.3869,2.03,-3.29,-0.28,21.1939,-45.6587,-25.3586,1014.8
489230,0.11956,9.76566,1.37255,1.75,-2.73,0,21.3683,-45.2269,-25.4621,1014.8
489236,0.095648,9.70827,1.39168,2.03,-2.87,-0.28,21.252,-44.826,-26.5112,1014.8
489242,0.10043,9.69392,1.41559,1.96,-2.8,0,21.3101,-46.0288,-26.8215,1014.8
489248,0.0621712,9.74175,1.40603,1.61,-3.29,0,21.7751,-46.1521,-26.0383,1014.82
489254,0.109995,9.73697,1.3869,2.1,-3.29,0.28,21.8332,-44.1476,-25.5655,1014.82
489260,0.13869,9.75131,1.35342,2.24,-2.87,0.21,21.0777,-44.9802,-25.9645,1014.82
489266,0.129125,9.74653,1.36777,1.96,-3.36,0.21,21.0196,-46.3063,-26.3782,1014.82
489272,0.129125,9.73697,1.40124,1.96,-3.15,0,21.4845,-44.7952,-25.3734,1014.81
489278,0.172166,9.76566,1.36777,2.31,-2.59,0.07,21.3101,-44.7335,-26.2304,1014.81
489284,0.196078,9.79914,1.35342,1.89,-3.08,0.14,21.3683,-45.9979,-26.0974,1014.82
489290,0.176949,9.74175,1.33907,1.75,-3.15,-0.21,21.223,-45.0419,-25.7576,1014.82
489296,0.162602,9.78957,1.36298,1.96,-2.66,-0.35,20.9324,-44.1784,-25.6985,1014.82
489302,0.205643,9.80392,1.31994,2.1,-2.94,-0.63,21.5717,-46.3063,-26.984,1014.79
489308,0.129125,9.76566,1.34864,2.03,-2.73,-0.21,21.6007,-46.3372,-26.5851,1014.79
489314,0.0813008,9.7561,1.39168,1.68,-2.8,-0.07,21.1649,-44.2709,-25.7724,1014.83
489320,0.124342,9.71784,1.40603,1.89,-3.15,-0.49,20.8743,-45.2886,-25.9201,1014.83
489326,0.11956,9.73218,1.36777,2.03,-3.22,-0.63,21.3101,-45.8746,-25.0483,1014.84
489332,0.0765184,9.72262,1.35342,1.96,-2.94,0,21.1358,-44.2401,-26.659,1014.84
489338,0.114778,9.7274,1.3869,2.1,-3.01,0,21.2811,-44.2092,-27.1318,1014.81
489344,0.095648,9.72262,1.37733,2.03,-3.5,0.35,21.4554,-45.8746,-27.0727,1014.81
489350,0.114778,9.74175,1.37255,2.17,-3.29,0.35,21.3683,-45.1653,-26.3339,1014.82
489356,0.109995,9.7274,1.37255,1.89,-3.36,0.21,20.9905,-44.641,-27.1761,1014.82
489362,0.11956,9.73697,1.38211,1.96,-2.94,0.7,21.7751,-46.5222,-27.6046,1014.82
489368,0.133907,9.7274,1.35342,1.96,-3.43,0.35,21.9785,-46.0905,-26.7033,1014.81
489374,0.11956,9.73218,1.37255,2.03,-2.94,0.21,21.4554,-45.3195,-27.4569,1014.81
489380,0.13869,9.7274,1.36298,2.17,-3.01,0.14,21.252,-45.9671,-28.4026,1014.82
489386,0.157819,9.77523,1.33429,2.03,-2.73,0.21,21.1649,-46.368,-26.5851,1014.82
489392,0.153037,9.7561,1.3869,2.31,-3.29,-0.07,21.8041,-45.1961,-27.8263,1014.83
489398,0.167384,9.78001,1.32951,2.24,-3.43,-0.63,20.4966,-44.8877,-27.4716,1014.83
489404,0.157819,9.77044,1.34864,1.89,-3.01,-0.14,21.8041,-45.8746,-27.1022,1014.84
489410,0.143472,9.77523,1.3869,2.1,-3.15,0,21.6298,-45.6587,-26.3339,1014.84
489416,0.124342,9.73218,1.41081,1.89,-3.08,-0.28,20.9324,-44.1784,-25.3882,1014.84
489422,0.124342,9.74175,1.36298,1.96,-3.36,-0.14,21.5717,-46.2138,-26.3339,1014.83
489428,0.11956,9.76566,1.3582,2.24,-3.71,-0.14,21.6879,-45.9979,-26.3634,1014.83
489434,0.11956,9.71784,1.39646,1.75,-3.22,17.78,20.9034,-44.4251,-26.3634,1014.84
489440,0.133907,9.74175,1.37733,2.1,-3.15,0.14,20.8452,-45.7512,-25.8758,1014.84
489446,0.13869,9.76088,1.34385,2.31,-3.15,0.35,21.4845,-45.6587,-26.1122,1014.82
489452,0.105213,9.72262,1.35342,1.89,-3.64,0.42,21.5135,-44.641,-25.8315,1014.82
489458,0.129125,9.73697,1.3582,2.17,-3.22,-0.07,20.9615,-44.5793,-26.0383,1014.84
489464,0.133907,9.7561,1.37255,2.17,-3.43,0,21.0777,-45.7821,-26.3191,1014.84
489470,0.105213,9.78957,1.33907,1.68,-2.94,0.7,20.729,-45.3195,-25.8167,1014.84
489476,0.172166,9.81349,1.34385,1.96,-3.36,0.07,21.3973,-44.7643,-26.4964,1014.82
489482,0.157819,9.72262,1.37255,1.68,-2.87,-0.14,20.9034,-45.5662,-26.0974,1014.82
489488,0.124342,9.69871,1.4682,2.24,-3.08,0.35,21.5426,-46.3989,-26.3191,1014.84
489494,0.200861,9.77044,1.33907,2.1,-3.22,-0.14,20.729,-44.6101,-27.3091,1014.84
489500,0.186514,9.79436,1.30081,2.31,-3.15,-0.42,20.4675,-45.7204,-26.0383,1014.81
489506,0.114778,9.81349,1.32472,1.54,-3.01,-0.28,19.9735,-47.0465,-26.127,1014.81
489512,0.162602,9.7561,1.38211,1.54,-3.15,-0.28,20.5837,-45.4428,-26.4078,1014.82
489518,0.114778,9.74175,1.40603,2.52,-2.87,-0.14,20.8743,-45.0419,-25.4916,1014.82
489524,0.129125,9.76088,1.3582,1.96,-2.8,-0.07,20.729,-46.7381,-27.1466,1014.79
489530,0.114778,9.72262,1.35342,1.68,-2.87,-0.28,21.1939,-46.7073,-26.3782,1014.79
489536,0.0860832,9.75131,1.40124,2.1,-3.43,0,20.9615,-44.3326,-27.0875,1014.79
489542,0.114778,9.74653,1.37733,2.31,-3.36,0.07,20.9905,-46.1213,-26.3191,1014.83
489548,0.105213,9.7274,1.35342,2.24,-2.94,0.14,21.3973,-46.7689,-25.7576,1014.83
489554,0.114778,9.78001,1.35342,1.61,-3.22,0.35,21.3973,-44.826,-27.2205,1014.83
489560,0.143472,9.71784,1.39646,2.38,-3.08,0.35,21.1067,-45.2269,-26.851,1014.83
489566,0.109995,9.74175,1.38211,2.1,-2.66,0.35,21.3973,-46.1521,-26.26,1014.82
489572,0.205643,9.73697,1.40124,1.96,-2.73,0.84,20.6709,-44.641,-26.2748,1014.82
489578,0.148254,9.69871,1.37255,2.17,-2.8,0.42,21.223,-44.7643,-27.1761,1014.81
489584,0.153037,9.78001,1.34385,1.75,-3.15,0,20.5547,-45.8129,-26.7181,1014.81
489590,0.153037,9.76566,1.31516,2.1,-2.66,0.56,21.252,-44.9802,-25.8758,1014.81
489596,0.162602,9.7561,1.3582,1.96,-2.94,0.07,21.3973,-44.2709,-26.4225,1014.81
489602,0.157819,9.73697,1.36298,2.03,-3.71,-0.21,20.8162,-45.5353,-26.5998,1014.81
489608,0.176949,9.7561,1.40603,2.03,-3.08,0.07,21.3683,-45.9054,-25.4473,1014.82
489614,0.148254,9.7561,1.37255,1.89,-2.1,0.49,21.2811,-44.8569,-26.2009,1014.82
489620,0.124342,9.77044,1.35342,2.24,-2.59,-0.21,21.7169,-45.4428,-26.1122,1014.83
489626,0.095648,9.74653,1.38211,1.61,-3.08,-0.42,20.9615,-46.4914,-26.127,1014.83
489632,0.105213,9.76088,1.31038,2.24,-3.43,0.35,20.8452,-44.641,-26.6885,1014.81
489638,0.124342,9.74653,1.3582,2.17,-3.15,0,20.8452,-44.2709,-27.0431,1014.81
489644,0.133907,9.76088,1.38211,2.24,-2.59,0.84,21.6588,-46.0288,-25.3734,1014.81
489650,0.109995,9.77044,1.33429,1.75,-2.94,0.49,21.252,-45.3811,-25.6837,1014.81
489656,0.162602,9.74653,1.34385,2.03,-3.29,0,21.0486,-44.4559,-26.0236,1014.81
489662,0.114778,9.7561,1.36298,2.1,-3.15,0.28,21.1358,-44.7027,-25.6394,1014.82
489668,0.124342,9.75131,1.36298,1.82,-2.8,0.56,20.4966,-46.3989,-25.6098,1014.82
489674,0.13869,9.74653,1.34864,2.03,-3.22,0.07,21.1358,-43.4691,-26.6737,1014.82
489680,0.157819,9.7274,1.39646,1.89,-3.22,0.14,21.3392,-44.8569,-27.0431,1014.82
489686,0.114778,9.77044,1.37733,2.24,-2.94,0.84,21.1067,-46.3989,-25.9349,1014.82
489692,0.167384,9.7561,1.37733,2.17,-2.73,0.28,21.3101,-44.7335,-26.7181,1014.82
489698,0.200861,9.77523,1.31994,1.82,-2.73,-0.07,21.0196,-44.2092,-26.4669,1014.81
489704,0.196078,9.73697,1.37255,2.38,-2.59,-0.21,21.3392,-45.8746,-26.0827,1014.81
489710,0.157819,9.78957,1.33907,2.24,-2.8,-0.21,21.8332,-44.9185,-26.7181,1014.81
489716,0.153037,9.76566,1.33907,1.96,-3.15,-0.28,21.6298,-43.9625,-26.26,1014.83
489722,0.162602,9.76088,1.32951,1.96,-2.59,0,21.4554,-45.5045,-26.659,1014.83
489728,0.176949,9.77523,1.32472,1.82,-3.01,-0.28,21.8913,-45.412,-26.0679,1014.83
489734,0.124342,9.75131,1.34864,1.89,-2.94,-0.07,21.0196,-44.826,-27.2943,1014.83
489740,0.0813008,9.78001,1.33907,1.75,-2.73,-0.14,20.9615,-46.0288,-26.4373,1014.81
489746,0.124342,9.73218,1.35342,1.82,-3.15,-0.42,21.8332,-47.3549,-25.8019,1014.81
489752,0.11956,9.71305,1.40124,1.75,-3.22,-0.14,21.1939,-45.6587,-25.8019,1014.84
489758,0.129125,9.73697,1.31516,1.96,-3.22,0.28,21.223,-44.7643,-26.9693,1014.84
489764,0.124342,9.72262,1.39168,1.75,-3.01,0.14,21.1939,-46.4605,-26.7772,1014.84
489770,0.071736,9.76566,1.32472,1.47,-3.5,-0.42,20.8452,-45.3503,-25.3882,1014.81
489776,0.162602,9.75131,1.37733,1.75,-3.22,0.49,21.1067,-44.4868,-25.0483,1014.81
489782,0.124342,9.78479,1.3582,2.03,-3.5,0.14,20.7871,-45.6895,-25.4621,1014.82
489788,0.172166,9.76566,1.35342,2.17,-3.08,-0.14,21.1067,-45.5353,-25.3143,1014.82
489794,0.105213,9.77044,1.39646,2.03,-3.08,0.14,20.6128,-44.2092,-26.3043,1014.83
489800,0.109995,9.73697,1.31516,2.1,-3.22,0.21,21.0777,-45.0111,-25.3882,1014.83
489806,0.153037,9.74175,1.36298,2.03,-3.01,-0.14,20.9034,-46.7689,-25.994,1014.81
489812,0.186514,9.77044,1.37733,2.52,-2.66,-0.35,21.3101,-44.5793,-26.4964,1014.81
489818,0.210426,9.75131,1.32951,1.75,-2.59,0.77,21.1358,-44.5793,-26.7328,1014.81
489824,0.133907,9.78001,1.31038,2.17,-2.94,0.14,22.0366,-45.4428,-27.2352,1014.82
489830,0.109995,9.76088,1.34385,2.1,-3.29,-0.7,21.4845,-45.0111,-25.5951,1014.82
489836,0.176949,9.74653,1.33907,1.89,-2.94,0,21.1067,-44.2092,-26.1418,1014.83
489842,0.215208,9.74175,1.36777,1.89,-3.08,0.07,21.4845,-45.412,-25.8167,1014.83
489848,0.172166,9.78001,1.31516,1.68,-2.87,-0.07,20.9034,-46.5222,-25.8167,1014.82
489854,0.124342,9.76088,1.33429,1.82,-3.01,-0.21,20.8162,-44.6101,-27.0136,1014.82
489860,0.0908656,9.78001,1.35342,1.75,-3.08,-0.28,21.0777,-44.7643,-24.9153,1014.84
489866,0.129125,9.75131,1.36777,1.75,-2.66,0,21.223,-46.4297,-26.127,1014.84
489872,0.114778,9.7561,1.36777,1.82,-3.08,0.49,20.5256,-45.0727,-26.851,1014.82
489878,0.10043,9.76566,1.36777,1.61,-3.01,0,21.0777,-44.6101,-25.8758,1014.82
489884,0.105213,9.71305,1.3582,2.31,-2.87,0.14,21.5135,-46.2447,-25.6837,1014.82
489890,0.129125,9.77044,1.3056,1.82,-3.22,0.49,21.0196,-45.412,-25.2552,1014.81
489896,0.13869,9.75131,1.35342,2.03,-3.43,0.07,20.9615,-44.3326,-25.5951,1014.81
489902,0.133907,9.74175,1.37255,2.17,-3.01,0.42,22.0075,-45.7204,-26.0088,1014.82
489908,0.172166,9.7561,1.33907,1.75,-3.29,-0.21,21.9203,-46.368,-26.1566,1014.82
489914,0.167384,9.76088,1.3582,2.17,-3.57,0.07,20.1479,-45.3195,-27.1761,1014.79
489920,0.172166,9.73697,1.35342,2.03,-3.01,-0.07,20.729,-45.1961,-26.4078,1014.79
489926,0.153037,9.78001,1.33429,2.24,-3.57,0,21.6298,-46.9848,-25.3439,1014.79
489932,0.157819,9.77523,1.37733,1.96,-3.43,-0.21,20.9615,-44.4868,-25.27,1014.79
489938,0.172166,9.77044,1.31516,2.24,-2.87,-0.49,21.4845,-44.8877,-25.9201,1014.79
489944,0.129125,9.76088,1.36777,2.1,-2.66,-0.28,21.4845,-46.1521,-25.5507,1014.82
489950,0.143472,9.76566,1.3582,1.54,-2.73,0.07,21.4845,-45.4428,-26.2157,1014.82
489956,0.114778,9.76088,1.37733,1.68,-2.87,0.07,20.7,-44.0859,-25.8906,1014.82
489962,0.13869,9.71784,1.37255,1.89,-2.87,-0.14,21.4264,-45.2578,-27.3682,1014.82
489968,0.129125,9.77044,1.32951,2.03,-3.22,-0.14,21.4554,-45.597,-25.9349,1014.81
489974,0.153037,9.74653,1.34864,1.96,-3.08,-0.35,21.3683,-44.2709,-28.4469,1014.81
489980,0.109995,9.75131,1.33429,1.75,-3.01,0,20.9615,-45.8437,-26.0236,1014.83
489986,0.0908656,9.76088,1.33907,1.54,-3.71,0,21.8041,-46.5222,-26.3043,1014.83
489992,0.11956,9.70827,1.41559,1.75,-2.59,-0.14,21.0196,-45.4737,-25.9497,1014.83
489998,0.143472,9.75131,1.33429,2.03,-2.73,0.14,21.223,-44.9185,-26.3634,1014.82
490004,0.157819,9.74175,1.34864,1.82,-3.01,-0.14,21.1358,-46.1213,-26.127,1014.82
490010,0.172166,9.74653,1.36298,2.17,-3.57,-0.14,21.1649,-45.4428,-27.1761,1014.79
490016,0.13869,9.7561,1.3869,1.89,-3.01,0.14,20.2641,-44.1476,-25.8758,1014.79
490022,0.143472,9.72262,1.38211,2.24,-2.94,0,20.9324,-45.6587,-25.7133,1014.82
490028,0.13869,9.75131,1.34385,1.89,-2.94,0.07,20.8452,-45.5662,-26.4964,1014.82
490034,0.153037,9.7561,1.3582,1.89,-2.94,0.28,20.5837,-43.9934,-27.1613,1014.82
490040,0.13869,9.74175,1.37255,1.89,-2.8,-0.42,20.8743,-44.5485,-26.0088,1014.82
490046,0.186514,9.76566,1.35342,1.82,-3.01,-0.42,21.6588,-45.5045,-26.5555,1014.82
490052,0.143472,9.76088,1.37255,2.03,-2.73,-0.56,21.4845,-44.3943,-26.7328,1014.82
490058,0.13869,9.74175,1.37733,2.17,-2.8,-0.07,21.3973,-44.2401,-28.1218,1014.82
490064,0.153037,9.79436,1.3582,1.54,-3.01,-0.07,21.1649,-46.2447,-25.728,1014.83
490070,0.153037,9.7561,1.40603,1.75,-3.36,-0.21,21.223,-45.3811,-26.4521,1014.83
490076,0.162602,9.7274,1.33907,2.1,-3.78,-0.21,21.1649,-44.4868,-27.1613,1014.81
490082,0.095648,9.73218,1.36777,1.4,-2.31,0.35,21.2811,-45.1036,-25.8167,1014.81
490088,0.11956,9.74653,1.38211,1.47,-3.08,-0.28,21.8622,-45.4737,-26.1713,1014.8
490094,0.109995,9.73218,1.40124,1.96,-3.29,0.35,20.2932,-43.3766,-26.3191,1014.8
490100,0.109995,9.7274,1.36777,1.47,-2.94,0.42,21.4845,-44.9802,-26.6737,1014.85
490106,0.11956,9.75131,1.34864,1.96,-2.87,-0.07,21.3392,-45.5662,-26.3782,1014.85
490112,0.133907,9.76088,1.36298,1.75,-2.59,-0.07,20.5837,-45.9671,-27.5899,1014.85
490118,0.157819,9.77044,1.36298,1.96,-3.22,0.14,20.7871,-45.1344,-26.4078,1014.83
490124,0.148254,9.74175,1.3869,1.75,-2.94,0.07,21.5717,-46.0596,-25.3734,1014.83
490130,0.162602,9.75131,1.3582,1.89,-3.01,0.21,21.3683,-45.5353,-26.9249,1014.8
490136,0.13869,9.72262,1.36777,1.54,-2.94,0.14,21.8332,-43.9008,-27.6194,1014.8
490142,0.129125,9.76566,1.36298,1.96,-3.36,-0.28,21.1649,-46.368,-26.4078,1014.84
490148,0.153037,9.76566,1.39646,1.82,-3.15,-0.35,21.4264,-45.7821,-26.2157,1014.84
490154,0.181731,9.76088,1.37733,2.1,-3.29,0,21.4264,-44.2092,-26.4373,1014.85
490160,0.13869,9.7561,1.33429,1.75,-3.08,-0.28,21.1067,-44.9494,-25.3143,1014.85
490166,0.167384,9.76566,1.3869,1.96,-2.8,-0.42,21.3683,-45.6895,-25.8019,1014.8
490172,0.13869,9.73218,1.38211,1.96,-3.36,-0.63,20.7,-44.1784,-25.6246,1014.8
490178,0.148254,9.75131,1.39168,1.82,-2.87,-0.14,21.3683,-45.3811,-26.4964,1014.8
490184,0.109995,9.78001,1.35342,1.82,-2.94,-0.07,21.0196,-46.6456,-26.3043,1014.79
490190,0.129125,9.77044,1.36777,2.17,-3.08,-0.35,21.3973,-45.5045,-26.7328,1014.79
490196,0.133907,9.7561,1.40603,1.89,-2.94,-0.14,20.5837,-44.5793,-26.8954,1014.82
490202,0.114778,9.7561,1.34385,2.1,-2.94,-0.28,21.2811,-45.8437,-25.8167,1014.82
490208,0.148254,9.76088,1.36777,1.4,-3.08,0.21,21.6588,-46.0905,-25.8758,1014.8
490214,0.11956,9.73218,1.37255,1.26,-2.73,0.21,21.0486,-45.1961,-27.8854,1014.8
490220,0.133907,9.74175,1.3582,1.61,-2.52,0.28,21.3101,-44.9185,-25.5507,1014.82
490226,0.162602,9.78001,1.3869,1.54,-2.94,0.21,21.1358,-46.4914,-25.861,1014.82
490232,0.153037,9.75131,1.3582,1.75,-3.5,0.07,21.0777,-44.4559,-25.9201,1014.82
490238,0.143472,9.73697,1.35342,1.54,-3.57,-0.21,20.9324,-44.6101,-26.0827,1014.83
490244,0.153037,9.7561,1.38211,2.38,-3.22,0.07,22.1237,-46.6764,-26.0679,1014.83
490250,0.13869,9.73697,1.36298,1.82,-2.73,-0.56,22.1237,-44.6718,-26.1713,1014.84
490256,0.176949,9.78479,1.36777,1.75,-3.08,-0.42,20.9324,-44.1784,-25.4916,1014.84
490262,0.13869,9.74175,1.3869,1.75,-3.08,-0.56,21.0196,-46.4605,-24.871,1014.81
490268,0.153037,9.78479,1.38211,1.82,-3.15,-0.14,21.8332,-46.2447,-25.4916,1014.81
490274,0.167384,9.74653,1.37733,1.61,-2.87,-0.28,21.6298,-44.9802,-25.9201,1014.78
490280,0.133907,9.75131,1.37733,1.96,-3.5,-0.42,21.7169,-44.7335,-25.4473,1014.78
490286,0.167384,9.76566,1.39168,1.75,-2.87,-0.35,21.9785,-46.6147,-24.7823,1014.78
490292,0.13869,9.74175,1.36298,2.1,-3.15,-0.14,21.252,-45.4428,-27.0875,1014.82
490298,0.148254,9.74175,1.37255,1.68,-3.22,-0.14,21.9203,-44.641,-25.8906,1014.82
490304,0.129125,9.75131,1.37255,2.1,-3.22,-0.14,22.5886,-46.6456,-26.2895,1014.8
490310,0.124342,9.73697,1.36777,1.54,-2.94,-0.28,20.6128,-45.8129,-26.1418,1014.8
490316,0.129125,9.74653,1.36298,1.89,-3.64,-0.42,21.5135,-44.4868,-27.0284,1014.83
490322,0.133907,9.76566,1.37733,1.47,-3.08,-0.56,21.4845,-45.9979,-25.6837,1014.83
490328,0.11956,9.74175,1.37733,1.54,-3.5,0.07,22.2109,-46.3372,-25.994,1014.83
490334,0.167384,9.74653,1.37255,1.89,-3.92,-0.56,20.7871,-43.7466,-26.9101,1014.83
490340,0.143472,9.74175,1.37255,1.96,-3.36,0.21,21.252,-45.412,-26.6294,1014.82
490346,0.143472,9.75131,1.36777,1.75,-2.38,0.21,21.9203,-46.1521,-25.1222,1014.82
490352,0.157819,9.74175,1.36777,1.61,-2.8,0.14,21.6879,-44.7952,-25.5359,1014.82
490358,0.148254,9.76566,1.3869,1.75,-3.36,-0.28,21.1358,-44.7952,-26.0974,1014.82
490364,0.143472,9.77044,1.39646,1.96,-2.94,-0.07,21.6298,-46.8615,-26.0383,1014.82
490370,0.191296,9.77523,1.36298,1.54,-2.73,-0.14,21.746,-45.7821,-25.4473,1014.82
490376,0.143472,9.76566,1.3869,1.82,-2.87,0.14,21.3683,-44.5485,-26.526,1014.82
490382,0.157819,9.77044,1.38211,1.54,-2.66,-0.21,21.5717,-46.3063,-25.6689,1014.82
490388,0.143472,9.74653,1.36777,1.96,-2.94,-0.49,21.3101,-45.5045,-24.9597,1014.82
490394,0.153037,9.77523,1.36298,2.1,-3.15,17.36,20.9034,-44.9185,-24.9301,1014.84
490400,0.11956,9.77044,1.36777,2.17,-3.22,-0.49,20.9905,-45.1344,-26.7476,1014.84
490406,0.11956,9.75131,1.4395,1.47,-3.43,0.28,22.6468,-46.2138,-25.3291,1014.84
490412,0.148254,9.74653,1.37733,2.17,-3.22,-0.14,21.9203,-45.1344,-27.6933,1014.81
490418,0.129125,9.75131,1.37255,2.45,-2.94,-0.35,20.729,-45.8129,-27.9741,1014.81
490424,0.129125,9.72262,1.35342,1.47,-2.66,0.07,22.1237,-46.0905,-25.6837,1014.83
490430,0.13869,9.77044,1.37733,1.61,-3.08,0.07,21.9203,-45.4428,-25.9201,1014.83
490436,0.133907,9.76566,1.38211,1.54,-3.01,-0.07,21.1649,-43.9934,-26.4816,1014.84
490442,0.124342,9.76566,1.33429,1.4,-2.73,0.28,21.8622,-45.6587,-26.127,1014.84
490448,0.148254,9.74175,1.3582,1.89,-3.01,0.56,21.9785,-45.7204,-26.0088,1014.83
490454,0.13869,9.73697,1.37733,1.4,-3.08,-0.14,21.1939,-44.4868,-26.9988,1014.83
490460,0.157819,9.72262,1.36777,1.89,-2.8,0.07,21.0486,-45.5353,-27.2648,1014.83
490466,0.162602,9.78957,1.33429,1.61,-2.73,0.07,22.1237,-46.6147,-26.1122,1014.8
490472,0.200861,9.78001,1.37733,1.68,-2.59,-0.42,21.5717,-44.641,-25.2552,1014.8
490478,0.167384,9.76566,1.36777,1.47,-3.01,-0.77,20.9324,-44.3634,-26.5703,1014.81
490484,0.129125,9.7561,1.40124,2.03,-3.36,-0.35,21.9494,-46.2138,-25.5507,1014.81
490490,0.095648,9.76088,1.41559,1.75,-2.8,-0.21,21.6588,-44.8877,-26.2748,1014.81
490496,0.133907,9.71784,1.41559,1.33,-3.08,-0.42,20.729,-43.3766,-26.393,1014.81
490502,0.133907,9.7274,1.36298,1.82,-3.29,-0.28,22.1237,-45.6279,-25.7133,1014.84
490508,0.105213,9.73697,1.36777,1.96,-3.08,-0.14,21.746,-45.7821,-26.0679,1014.84
490514,0.124342,9.74653,1.37733,1.47,-2.66,-0.14,21.8332,-44.5176,-26.3339,1014.8
490520,0.11956,9.7561,1.38211,1.75,-3.15,0.07,22.2109,-44.9494,-26.2157,1014.8
490526,0.124342,9.73697,1.40603,1.68,-3.43,0.35,21.3683,-45.2269,-25.6542,1014.8
490532,0.124342,9.74175,1.36298,1.89,-3.36,-17.85,21.4554,-44.641,-26.3486,1014.81
490538,0.109995,9.74175,1.3582,1.47,-3.29,0.42,21.252,-44.7952,-26.393,1014.81
490544,0.109995,9.7274,1.37733,2.17,-3.43,0.14,21.6007,-46.3063,-26.0383,1014.81
490550,0.11956,9.76088,1.3582,1.82,-3.01,-0.14,21.746,-44.7952,-25.0483,1014.81
490556,0.157819,9.7274,1.36298,1.54,-2.87,0.28,21.3101,-44.2401,-26.0383,1014.82
490562,0.191296,9.76566,1.36298,2.24,-2.8,0.28,21.7751,-46.368,-25.861,1014.82
490568,0.162602,9.76088,1.38211,1.47,-2.8,0.14,21.3973,-46.4297,-25.3291,1014.79
490574,0.181731,9.77523,1.40124,2.1,-3.64,-0.14,20.7581,-44.3943,-25.27,1014.79
490580,0.153037,9.76566,1.3582,1.47,-3.22,0.28,21.3392,-45.1653,-26.2452,1014.79
490586,0.153037,9.78001,1.36298,1.96,-2.87,-0.42,21.6588,-45.7204,-25.5064,1014.83
490592,0.143472,9.77044,1.38211,1.68,-3.5,-0.56,21.6588,-44.6101,-25.6542,1014.83
490598,0.157819,9.7274,1.3869,1.75,-3.22,-0.63,21.0196,-45.0727,-24.738,1014.81
490604,0.148254,9.7274,1.40603,2.38,-3.01,-0.35,21.6298,-46.4297,-25.6246,1014.81
490610,0.114778,9.74175,1.37733,1.54,-3.08,0,21.8041,-44.826,-25.8167,1014.83
490616,0.124342,9.76088,1.37733,1.96,-2.94,-0.21,21.2811,-43.87,-26.2895,1014.83
490622,0.109995,9.74175,1.42516,1.89,-3.29,-0.21,21.223,-47.0465,-27.4125,1014.83
490628,0.11956,9.70349,1.37255,2.17,-3.22,-0.14,21.1939,-46.3989,-25.5507,1014.83
490634,0.114778,9.74653,1.40603,1.96,-3.5,-0.14,20.7,-43.9317,-26.7328,1014.83
490640,0.109995,9.7274,1.39646,1.54,-2.45,0.63,20.2932,-45.8437,-26.9545,1014.82
490646,0.129125,9.7561,1.37255,2.1,-3.36,-0.35,21.8913,-46.0905,-26.1418,1014.82
490652,0.153037,9.77044,1.37255,1.82,-3.43,-0.21,20.9615,-44.9494,-26.4816,1014.85
490658,0.133907,9.74175,1.41081,2.31,-3.22,0.14,20.9615,-45.2886,-25.7133,1014.85
490664,0.148254,9.74653,1.39168,1.61,-3.08,0.21,20.9324,-46.3063,-27.1466,1014.81
490670,0.157819,9.74175,1.38211,1.75,-3.01,0.49,20.9034,-44.8569,-26.127,1014.81
490676,0.157819,9.76088,1.39168,1.68,-3.43,0.42,21.0486,-44.7335,-26.5407,1014.78
490682,0.167384,9.76566,1.37733,2.17,-3.01,-0.14,21.3101,-45.8437,-25.5951,1014.78
490688,0.129125,9.77523,1.37733,2.03,-2.66,-0.14,21.1358,-46.0288,-25.7724,1014.83
490694,0.13869,9.77523,1.40603,2.38,-3.01,0.07,20.9324,-43.5616,-26.7033,1014.83
490700,0.148254,9.79436,1.36298,1.75,-2.94,-0.07,21.6298,-45.8746,-25.9497,1014.83
490706,0.153037,9.77044,1.35342,1.75,-3.22,-0.14,21.6298,-46.9231,-25.6098,1014.81
490712,0.133907,9.76566,1.39646,1.89,-2.94,-0.21,21.9785,-44.2092,-26.0974,1014.81
490718,0.11956,9.74653,1.3582,1.61,-2.66,-0.28,20.8162,-44.9185,-26.5998,1014.8
490724,0.148254,9.75131,1.39168,1.89,-2.45,-0.56,21.0196,-46.8923,-26.2157,1014.8
490730,0.109995,9.73697,1.3869,1.68,-3.43,-0.7,21.0486,-45.5662,-27.25,1014.83
490736,0.11956,9.77523,1.38211,1.68,-3.15,0.14,21.746,-44.7027,-25.6985,1014.83
490742,0.129125,9.73697,1.34385,1.89,-2.52,-0.56,20.9615,-45.7512,-24.9892,1014.84
490748,0.105213,9.73697,1.39646,1.61,-3.36,0.77,21.3392,-45.8129,-24.7528,1014.84
490754,0.11956,9.75131,1.38211,1.82,-3.22,0.35,21.7751,-44.4559,-25.5951,1014.84
490760,0.153037,9.75131,1.37733,1.54,-3.22,-0.49,21.8332,-45.9671,-25.3586,1014.81
490766,0.133907,9.73697,1.35342,1.68,-3.08,-0.49,21.8622,-46.9231,-25.3882,1014.81
490772,0.13869,9.72262,1.3582,1.75,-3.15,0.49,21.3683,-44.3634,-25.6837,1014.82
490778,0.153037,9.73697,1.37733,2.03,-3.22,0.07,21.7751,-45.597,-25.8167,1014.82
490784,0.162602,9.76566,1.39646,2.1,-3.15,-0.42,21.8622,-46.9231,-25.1074,1014.79
490790,0.167384,9.7561,1.36777,1.96,-2.66,0.07,21.0486,-45.3811,-25.1665,1014.79
490796,0.143472,9.77523,1.35342,1.89,-2.87,0.42,20.9615,-45.0727,-25.9201,1014.81
490802,0.13869,9.74653,1.40124,1.89,-2.73,-0.21,21.1358,-46.0596,-25.4473,1014.81
490808,0.109995,9.75131,1.40603,1.75,-3.22,0.21,21.5717,-46.2138,-26.3191,1014.81
490814,0.11956,9.71784,1.37255,1.68,-2.87,-0.07,21.223,-44.9802,-25.9054,1014.81
490820,0.13869,9.73697,1.37733,2.31,-3.36,-0.35,21.5426,-46.3372,-26.7181,1014.81
490826,0.13869,9.79914,1.36298,1.82,-2.94,0,21.1939,-46.1521,-26.0088,1014.83
490832,0.153037,9.73697,1.39646,2.03,-3.15,0.35,20.8452,-45.597,-26.8658,1014.83
490838,0.10043,9.73697,1.37733,1.61,-3.01,0,21.3683,-44.641,-26.9397,1014.84
490844,0.095648,9.75131,1.36298,1.96,-3.64,-0.14,21.1649,-46.7381,-25.7576,1014.84
490850,0.13869,9.76088,1.36298,1.82,-3.22,-0.35,21.3683,-45.3811,-27.3534,1014.82
490856,0.167384,9.78001,1.34385,1.96,-3.15,0,21.5426,-44.8569,-26.2304,1014.82
490862,0.124342,9.72262,1.31516,1.68,-3.29,0.07,21.7751,-46.8615,-25.861,1014.84
490868,0.143472,9.74653,1.3869,1.96,-3.01,0.28,21.4845,-46.2138,-26.127,1014.84
490874,0.13869,9.75131,1.35342,2.17,-3.08,17.85,21.252,-45.0111,-25.7576,1014.84
490880,0.129125,9.7561,1.38211,1.82,-2.8,0.07,20.8743,-44.641,-26.5851,1014.84
490886,0.167384,9.74175,1.39646,1.75,-2.73,0.28,21.3392,-46.5839,-26.4816,1014.84
490892,0.162602,9.74175,1.3869,1.89,-3.29,0.56,21.5135,-44.3326,-26.3634,1014.81
490898,0.172166,9.7561,1.36298,2.03,-3.22,0.07,20.9034,-45.2269,-26.3043,1014.81
490904,0.153037,9.73697,1.33429,2.31,-3.08,-0.42,21.9203,-47.2007,-24.8858,1014.82
490910,0.172166,9.7274,1.33907,1.82,-2.73,-0.14,21.2811,-45.1961,-25.403,1014.82
490916,0.114778,9.77523,1.36298,2.03,-2.73,0.28,21.0196,-44.2092,-26.0236,1014.82
490922,0.133907,9.72262,1.39646,2.03,-3.22,-0.14,20.9905,-46.0905,-25.6689,1014.82
490928,0.143472,9.71784,1.37255,1.89,-2.94,-0.56,21.6588,-45.1961,-25.9201,1014.82
490934,0.129125,9.7561,1.3869,2.03,-3.15,-0.21,20.206,-44.4868,-27.8558,1014.82
490940,0.114778,9.76088,1.35342,1.68,-2.73,-0.21,20.729,-45.5045,-26.0827,1014.82
490946,0.129125,9.71784,1.39646,1.61,-3.5,-0.42,20.4966,-45.9363,-25.9497,1014.81
490952,0.11956,9.75131,1.35342,1.75,-3.01,0,20.5256,-44.3326,-26.2452,1014.81
490958,0.143472,9.7561,1.36777,1.89,-3.01,0.07,20.7,-45.0727,-26.0531,1014.83
490964,0.148254,9.74653,1.33429,1.47,-3.08,-0.14,21.2811,-45.9979,-26.26,1014.83
490970,0.162602,9.75131,1.3582,1.54,-2.94,0,21.6007,-44.4868,-26.4521,1014.82
490976,0.13869,9.73218,1.40124,1.82,-3.15,-0.21,20.5256,-44.2092,-26.5112,1014.82
490982,0.143472,9.7561,1.35342,1.61,-2.94,0.07,20.9905,-45.9054,-25.6542,1014.82
490988,0.129125,9.77523,1.39168,2.17,-2.94,0.21,21.3683,-45.9979,-26.2748,1014.79
490994,0.157819,9.73218,1.37733,2.03,-3.01,0.21,20.9615,-44.1167,-26.8658,1014.79
491000,0.148254,9.7561,1.34864,2.03,-2.94,-0.28,21.2811,-45.3503,-26.5998,1014.79
491006,0.13869,9.73218,1.39168,1.82,-3.29,0.14,21.0777,-45.9979,-25.8167,1014.79
491012,0.109995,9.77044,1.34864,1.82,-3.01,-0.14,20.6709,-44.9185,-26.4225,1014.83
491018,0.133907,9.75131,1.35342,2.24,-3.01,-0.07,21.5717,-44.3018,-25.6837,1014.83
491024,0.157819,9.76566,1.39646,1.89,-2.73,0.21,21.1358,-46.368,-25.2847,1014.83
491030,0.157819,9.7561,1.36777,2.1,-2.87,-0.7,20.9034,-45.1961,-24.9301,1014.83
491036,0.0908656,9.76566,1.33907,1.82,-3.57,-0.21,21.0196,-44.3943,-25.994,1014.85
491042,0.11956,9.75131,1.38211,1.82,-2.87,0.21,20.3513,-46.2755,-26.7181,1014.85
491048,0.095648,9.74653,1.39646,1.54,-2.59,0.14,20.9615,-45.9671,-26.0236,1014.85
491054,0.148254,9.75131,1.37255,1.89,-3.15,-0.56,21.2811,-44.2401,-26.9397,1014.8
491060,0.124342,9.74175,1.34385,1.96,-3.36,0.07,21.6298,-45.4737,-25.9645,1014.8
491066,0.0860832,9.73697,1.3869,1.61,-2.52,0.35,21.6588,-45.7821,-25.5064,1014.83
491072,0.124342,9.75131,1.39646,1.4,-2.73,0.07,20.8743,-44.3943,-26.8954,1014.83
491078,0.114778,9.76566,1.3869,1.75,-3.43,-0.35,20.7581,-45.0727,-27.7672,1014.82
491084,0.124342,9.74653,1.38211,1.89,-3.22,-0.07,21.0196,-46.3372,-25.9497,1014.82
491090,0.133907,9.7561,1.40603,1.68,-3.22,0.28,20.7581,-44.6718,-26.393,1014.86
491096,0.133907,9.75131,1.36298,2.31,-3.29,0.14,20.6709,-44.7027,-26.4521,1014.86
491102,0.21999,9.75131,1.42037,1.82,-3.01,-0.07,21.0486,-45.9363,-26.127,1014.86
491108,0.176949,9.77523,1.36777,2.17,-2.87,-0.21,21.1939,-45.9671,-26.526,1014.81
491114,0.153037,9.82305,1.34385,1.96,-2.94,-0.63,20.9324,-44.7027,-26.1122,1014.81
491120,0.181731,9.81827,1.36298,1.4,-3.29,-0.14,21.223,-45.2578,-26.2895,1014.82
491126,0.157819,9.74653,1.37733,1.96,-3.57,-0.42,20.9034,-45.5662,-26.2452,1014.82
491132,0.172166,9.79914,1.36298,1.82,-3.15,-0.42,20.3803,-44.6718,-24.9449,1014.86
491138,0.124342,9.76088,1.37255,1.68,-2.8,-0.42,20.5837,-44.5485,-27.0284,1014.86
491144,0.10043,9.72262,1.39168,1.61,-3.5,-0.14,21.3973,-45.8746,-26.3634,1014.81
491150,0.148254,9.7274,1.3869,1.89,-3.57,0.14,21.0777,-45.0727,-26.7328,1014.81
491156,0.143472,9.74175,1.41081,1.68,-3.22,-0.21,21.1649,-43.9625,-27.4421,1014.81
491162,0.11956,9.74653,1.3582,1.68,-3.57,-0.42,20.5547,-46.1213,-27.0284,1014.8
491168,0.133907,9.73218,1.34385,2.03,-3.01,0.35,21.5426,-44.7027,-27.5012,1014.8
491174,0.0908656,9.71784,1.37255,1.75,-2.94,0.14,21.0486,-44.1167,-26.9545,1014.83
491180,0.11956,9.73697,1.3869,1.96,-2.87,0.07,21.1939,-45.9363,-25.004,1014.83
491186,0.153037,9.73697,1.36777,1.68,-2.8,0.14,20.9905,-46.1213,-26.6442,1014.83
491192,0.148254,9.74175,1.3582,1.68,-3.15,-0.07,20.3803,-45.0419,-26.2304,1014.83
491198,0.153037,9.74653,1.3869,1.54,-3.5,0.21,20.7,-45.1653,-26.9249,1014.85
491204,0.186514,9.73697,1.35342,1.96,-3.5,-0.21,21.1067,-45.8746,-26.9249,1014.85
491210,0.176949,9.7561,1.36777,1.33,-2.94,-0.07,21.5135,-44.5176,-26.2009,1014.84
491216,0.167384,9.74175,1.37255,1.96,-3.01,0,20.5547,-44.6718,-26.0383,1014.84
491222,0.172166,9.76088,1.3869,1.82,-2.73,-0.28,21.1939,-46.0288,-26.5555,1014.84
491228,0.196078,9.78957,1.35342,1.75,-2.73,0,20.9324,-45.1344,-26.4816,1014.84
491234,0.11956,9.78001,1.33429,1.33,-3.08,-0.42,20.9034,-44.3018,-26.7476,1014.84
491240,0.13869,9.74653,1.34864,1.54,-2.59,-0.21,20.7581,-45.2886,-25.5212,1014.85
491246,0.143472,9.75131,1.36298,1.68,-2.73,-0.14,21.8913,-45.8129,-26.0531,1014.85
491252,0.143472,9.73697,1.37733,1.75,-3.15,-0.42,20.729,-44.6101,-26.5851,1014.8
491258,0.11956,9.7561,1.36777,1.68,-3.22,-0.63,20.5547,-45.3195,-27.4273,1014.8
491264,0.0765184,9.73697,1.3869,1.82,-3.36,0.07,21.6007,-47.2007,-25.8758,1014.82
491270,0.114778,9.75131,1.38211,1.75,-2.94,-0.28,20.9324,-44.7643,-26.0531,1014.82
491276,0.124342,9.75131,1.39168,1.54,-2.8,0.14,20.4384,-44.9185,-27.1022,1014.82
491282,0.105213,9.72262,1.37255,1.89,-3.01,-0.42,20.5547,-45.8129,-26.5555,1014.83
491288,0.157819,9.76088,1.38211,1.89,-3.01,0.35,20.9905,-45.4428,-26.8658,1014.83
491294,0.143472,9.73218,1.37255,1.96,-3.15,-0.07,20.3513,-44.4868,-28.3582,1014.84
491300,0.114778,9.73697,1.37255,1.75,-2.94,-0.21,21.1939,-45.4428,-27.117,1014.84
491306,0.133907,9.73697,1.35342,2.38,-2.94,0.35,21.3392,-45.8437,-25.5655,1014.82
491312,0.153037,9.73697,1.34864,1.89,-2.73,0.49,20.7,-45.2578,-25.9792,1014.82
491318,0.176949,9.78957,1.36298,1.61,-3.01,-0.07,20.5837,-45.2886,-28.1366,1014.83
491324,0.224773,9.7561,1.31994,1.82,-3.78,-0.35,21.6007,-46.3063,-27.383,1014.83
491330,0.176949,9.76566,1.31994,1.82,-3.22,0.07,21.0777,-45.8129,-26.1713,1014.82
491336,0.129125,9.77044,1.34864,1.75,-3.08,-0.14,20.7581,-44.1784,-26.984,1014.82
491342,0.143472,9.75131,1.37733,1.61,-2.45,-0.56,21.1358,-46.5531,-27.2796,1014.82
491348,0.153037,9.75131,1.37733,1.47,-3.15,-0.28,21.3101,-45.5662,-27.2205,1014.83
491354,0.148254,9.74653,1.32951,1.61,-2.94,0.21,21.5426,-44.4251,-27.5455,1014.83
491360,0.109995,9.78479,1.35342,1.68,-2.87,-0.56,20.9905,-45.3503,-27.0727,1014.83
491366,0.0765184,9.75131,1.3869,1.61,-2.59,0.42,21.8913,-46.183,-26.7181,1014.83
491372,0.124342,9.75131,1.38211,1.61,-3.22,-0.42,21.252,-45.5045,-27.1761,1014.81
491378,0.129125,9.7274,1.37255,1.54,-3.01,-0.14,20.8452,-45.7204,-27.4421,1014.81
491384,0.11956,9.72262,1.37255,1.82,-3.15,0,20.8743,-46.3372,-25.3439,1014.83
491390,0.11956,9.71784,1.34864,1.89,-2.87,-0.07,21.1358,-45.1036,-26.3339,1014.83
491396,0.11956,9.73218,1.36298,1.89,-3.22,-0.7,21.0777,-44.5176,-26.3634,1014.83
491402,0.11956,9.75131,1.34385,2.52,-3.29,-0.14,21.6007,-46.1521,-25.27,1014.84
491408,0.129125,9.74653,1.34864,1.68,-2.87,0.35,20.9615,-45.6895,-25.7724,1014.84
491414,0.143472,9.75131,1.32472,1.75,-3.22,-0.07,20.729,-44.7027,-27.5899,1014.84
491420,0.167384,9.74653,1.37255,1.54,-3.01,-0.21,20.7871,-45.7821,-26.2009,1014.84
491426,0.186514,9.72262,1.37255,1.54,-3.01,-0.14,22.1237,-46.2447,-25.8315,1014.83
491432,0.153037,9.78001,1.34385,1.68,-2.59,-0.35,20.7871,-44.7643,-26.1713,1014.83
491438,0.13869,9.74175,1.35342,1.54,-2.24,-0.07,20.9905,-45.1036,-26.5555,1014.8
491444,0.191296,9.76566,1.35342,1.68,-3.01,-0.42,21.9203,-46.368,-26.6442,1014.8
491450,0.215208,9.77523,1.36777,2.1,-2.52,-0.77,20.7581,-45.0419,-26.5703,1014.8
491456,0.133907,9.76088,1.33907,1.75,-2.45,-0.49,21.1939,-44.2401,-26.7181,1014.81
491462,0.071736,9.7561,1.35342,1.61,-2.87,0,21.2811,-45.6895,-26.6442,1014.81
491468,0.11956,9.74175,1.40603,1.4,-2.87,-0.49,20.9324,-45.6895,-27.8115,1014.82
491474,0.095648,9.74175,1.38211,1.47,-2.73,-0.42,20.9615,-44.6101,-26.1566,1014.82
491480,0.105213,9.72262,1.36777,1.96,-2.94,-0.07,21.3973,-45.597,-25.861,1014.83
491486,0.114778,9.7274,1.34385,1.68,-3.08,0.14,22.0947,-45.3503,-26.2009,1014.83
491492,0.114778,9.7274,1.3582,1.26,-3.36,-17.64,20.4966,-44.3943,-26.659,1014.83
491498,0.0908656,9.76566,1.3582,1.82,-3.15,0,20.7871,-44.641,-27.2796,1014.83
491504,0.13869,9.73218,1.37255,1.4,-3.01,0.35,21.0196,-45.8437,-26.3634,1014.81
491510,0.10043,9.74175,1.36298,1.61,-3.43,0,21.8332,-44.4868,-26.5555,1014.81
491516,0.133907,9.73218,1.36298,1.75,-3.43,0,21.1358,-43.9934,-27.2796,1014.81
491522,0.143472,9.72262,1.37733,1.54,-3.01,0.28,21.223,-46.1521,-26.3043,1014.84
491528,0.133907,9.73697,1.34385,2.03,-3.5,-0.14,22.0366,-45.6895,-25.9201,1014.84
491534,0.148254,9.77523,1.36777,1.61,-3.29,-0.28,20.9034,-44.641,-26.3339,1014.84
491540,0.162602,9.7274,1.3582,1.82,-3.43,0.21,20.9615,-45.3503,-26.6146,1014.84
491546,0.172166,9.73697,1.36298,1.47,-3.22,-0.35,21.5426,-46.9231,-26.3043,1014.84
491552,0.181731,9.7561,1.35342,1.89,-2.66,-0.28,21.223,-44.4868,-26.7033,1014.84
491558,0.167384,9.76088,1.32472,1.47,-2.8,-0.35,21.1358,-45.0111,-27.0579,1014.82
491564,0.11956,9.74653,1.34864,1.26,-3.08,-0.42,21.1649,-46.2755,-25.6394,1014.82
491570,0.095648,9.74175,1.41081,1.47,-3.15,0,20.729,-45.0727,-25.6098,1014.82
491576,0.114778,9.7561,1.40124,1.89,-3.64,-0.49,21.6007,-44.5485,-26.4669,1014.83
491582,0.11956,9.74653,1.37255,1.96,-3.43,-0.49,21.7169,-45.0111,-26.1713,1014.83
491588,0.157819,9.74175,1.37255,1.47,-3.08,0.14,21.1067,-45.0111,-26.7328,1014.83
491594,0.124342,9.7274,1.35342,2.03,-3.15,-0.07,20.8452,-43.87,-26.0531,1014.83
491600,0.114778,9.73697,1.41081,1.82,-3.15,-0.28,21.4845,-45.5045,-26.3782,1014.81
491606,0.105213,9.7561,1.38211,1.75,-2.73,-0.56,21.3973,-45.597,-25.6246,1014.81
491612,0.11956,9.73218,1.36777,1.75,-3.08,0.42,22.24,-44.3018,-24.8415,1014.8
491618,0.133907,9.76566,1.37255,1.54,-3.43,0.14,21.746,-45.2269,-24.7085,1014.8
491624,0.133907,9.72262,1.33429,2.03,-3.08,0,21.5717,-46.1213,-25.004,1014.8
491630,0.133907,9.75131,1.3869,1.26,-2.8,0.14,20.4675,-44.7952,-25.0631,1014.8
491636,0.167384,9.76088,1.37733,1.75,-3.43,-0.21,20.6418,-44.6101,-26.9101,1014.8
491642,0.157819,9.75131,1.39168,2.17,-3.36,-0.07,21.252,-46.7381,-25.3143,1014.82
491648,0.172166,9.77044,1.38211,2.03,-3.08,0,21.1939,-46.5839,-28.4617,1014.82
491654,0.181731,9.76088,1.36298,2.31,-3.29,0,20.4675,-44.3943,-27.4864,1014.81
491660,0.148254,9.74653,1.37733,2.03,-3.01,-0.35,21.3392,-45.9363,-26.2748,1014.81
491666,0.157819,9.79914,1.35342,2.1,-2.87,-0.63,21.746,-45.9363,-26.659,1014.84
491672,0.143472,9.78001,1.36298,1.82,-2.52,-0.35,21.3392,-43.9934,-28.0775,1014.84
491678,0.10043,9.74653,1.39168,1.4,-2.66,-0.07,21.252,-45.0111,-26.7033,1014.85
491684,0.105213,9.74653,1.35342,1.68,-3.01,-0.07,22.0075,-46.4297,-26.393,1014.85
491690,0.114778,9.73697,1.37255,1.82,-3.36,-0.07,21.5426,-44.8569,-27.25,1014.85
491696,0.095648,9.7561,1.40603,1.47,-3.01,0.21,21.3973,-44.7952,-26.7328,1014.82
491702,0.133907,9.73218,1.37255,1.96,-2.8,0.14,22.0656,-45.8746,-27.3239,1014.82
491708,0.124342,9.7274,1.36777,1.96,-3.01,-0.07,21.746,-45.6587,-27.0727,1014.86
491714,0.11956,9.73697,1.39646,1.96,-3.29,-0.28,20.9615,-44.9185,-27.4569,1014.86
491720,0.10043,9.7561,1.39646,1.96,-3.01,0.42,21.6879,-45.9363,-27.3091,1014.82
491726,0.133907,9.7274,1.37733,1.75,-3.08,0.14,20.9615,-46.5222,-25.5951,1014.82
491732,0.13869,9.74653,1.3869,1.68,-2.8,-0.28,20.9034,-44.6718,-25.4621,1014.81
491738,0.143472,9.76566,1.3582,1.82,-3.08,0.21,21.8622,-45.4737,-26.6885,1014.81
491744,0.13869,9.78479,1.33429,1.96,-3.15,0.35,21.7169,-46.2138,-26.2452,1014.81
491750,0.176949,9.73697,1.3869,2.03,-3.08,-0.07,21.8041,-45.7821,-28.3139,1014.8
491756,0.162602,9.74653,1.3869,1.47,-2.8,-0.14,20.9615,-44.5485,-27.25,1014.8
491762,0.143472,9.7561,1.34864,1.68,-2.45,-0.49,21.5426,-45.3811,-26.4816,1014.85
491768,0.162602,9.74653,1.39168,1.96,-2.8,-0.7,21.8332,-45.1961,-26.7476,1014.85
491774,0.129125,9.76088,1.39168,1.54,-2.52,-0.07,21.5135,-43.3766,-28.2991,1014.81
491780,0.162602,9.7561,1.39646,1.82,-3.15,-0.35,21.0777,-45.4737,-26.9988,1014.81
491786,0.124342,9.74653,1.37733,1.89,-3.43,-0.56,22.3852,-45.8129,-26.2748,1014.81
491792,0.0765184,9.74175,1.37255,1.89,-2.94,-0.28,20.729,-43.9625,-26.9101,1014.81
491798,0.153037,9.78479,1.34385,1.54,-2.45,-0.21,21.2811,-44.5793,-25.8167,1014.81
491804,0.105213,9.74653,1.37733,1.4,-2.87,-0.28,21.4845,-46.2447,-26.8806,1014.86
491810,0.0860832,9.74653,1.38211,1.96,-3.15,-0.07,21.1358,-44.6718,-27.1613,1014.86
491816,0.071736,9.74175,1.38211,1.82,-3.08,0.35,21.252,-44.3018,-27.0136,1014.85
491822,0.11956,9.72262,1.3582,2.03,-3.08,-0.14,21.4554,-45.8746,-26.5555,1014.85
491828,0.105213,9.70827,1.3869,1.54,-3.15,-0.21,22.0075,-45.2578,-27.0136,1014.82
491834,0.133907,9.73697,1.33429,2.1,-2.87,0.21,20.6418,-45.0727,-27.3387,1014.82
491840,0.11956,9.75131,1.38211,1.68,-2.94,0,20.8452,-45.6895,-26.5703,1014.79
491846,0.129125,9.73218,1.34385,1.75,-3.08,0.14,20.8743,-46.183,-26.9249,1014.79
491852,0.133907,9.7274,1.3582,1.47,-3.08,0.28,20.5256,-44.9185,-28.5208,1014.8
491858,0.176949,9.78479,1.34864,1.96,-3.29,-0.21,20.8743,-46.3989,-26.9988,1014.8
491864,0.157819,9.76566,1.38211,1.96,-3.43,-0.35,22.0075,-46.3989,-26.6737,1014.8
491870,0.114778,9.79436,1.34385,1.68,-3.01,-0.21,21.0196,-46.0596,-27.1613,1014.83
491876,0.143472,9.75131,1.32951,1.68,-2.8,-0.28,21.1939,-44.8877,-25.9349,1014.83
491882,0.13869,9.74175,1.3869,1.75,-3.01,-0.49,21.3683,-46.7998,-25.4768,1014.79
491888,0.11956,9.71784,1.3869,1.96,-3.08,-0.28,21.6879,-45.8437,-25.6837,1014.79
491894,0.124342,9.73697,1.37733,1.54,-3.01,-0.35,20.6418,-44.7643,-26.2895,1014.84
491900,0.133907,9.73697,1.37255,1.89,-3.15,-0.21,21.2811,-46.2755,-26.1566,1014.84
491906,0.11956,9.76566,1.36777,1.47,-3.01,-0.14,21.4845,-46.8923,-26.4225,1014.87
491912,0.109995,9.7274,1.41559,1.96,-3.01,-0.14,21.3392,-45.0111,-24.9301,1014.87
491918,0.133907,9.75131,1.34864,2.38,-2.73,0,21.223,-45.0419,-25.9201,1014.87
491924,0.114778,9.76566,1.37733,1.68,-2.8,0,21.746,-46.183,-26.127,1014.85
491930,0.129125,9.73218,1.38211,1.75,-3.22,-0.28,21.252,-45.1036,-25.994,1014.85
491936,0.153037,9.73697,1.3582,1.96,-3.15,0.14,21.3392,-44.4251,-26.2157,1014.82
491942,0.105213,9.77523,1.37733,1.89,-3.01,0.35,21.1649,-46.2755,-25.8462,1014.82
491948,0.157819,9.7561,1.38211,1.68,-3.15,-0.14,21.6588,-45.9363,-25.9792,1014.83
491954,0.162602,9.75131,1.37733,1.75,-2.87,0,20.4966,-45.6587,-26.4225,1014.83
491960,0.186514,9.76566,1.38211,1.96,-3.01,0.49,21.0486,-45.8746,-25.6689,1014.82
491966,0.129125,9.76566,1.39646,1.61,-3.15,-0.14,21.6879,-45.8129,-26.2304,1014.82
491972,0.167384,9.74653,1.3869,1.54,-3.36,16.87,21.0777,-44.9185,-26.851,1014.82
491978,0.143472,9.7274,1.35342,1.61,-2.8,-0.7,20.5837,-45.8746,-25.7133,1014.83
491984,0.148254,9.77044,1.36298,1.54,-3.08,-0.35,21.223,-46.6147,-26.1418,1014.83
491990,0.13869,9.77523,1.37733,1.54,-3.22,-0.07,21.5426,-44.9494,-27.3091,1014.81
491996,0.129125,9.74653,1.38211,1.47,-2.59,-0.28,21.1358,-45.5353,-26.8363,1014.81
492002,0.129125,9.7274,1.37255,1.89,-3.15,-0.42,20.8162,-46.5839,-25.9201,1014.8
492008,0.095648,9.73218,1.36777,1.82,-3.01,-0.28,21.4554,-45.4428,-26.7476,1014.8
492014,0.109995,9.75131,1.36777,1.68,-3.5,-0.42,20.9615,-45.6895,-26.8806,1014.85
492020,0.105213,9.73697,1.42037,1.61,-2.94,0,21.223,-45.9363,-26.3782,1014.85
492026,0.0669536,9.75131,1.39646,2.03,-3.36,-0.28,21.223,-46.2755,-26.8067,1014.8
492032,0.10043,9.74653,1.39646,1.89,-3.22,0,20.7871,-44.9802,-26.7033,1014.8
492038,0.114778,9.74653,1.36777,2.03,-3.15,0.21,20.7871,-45.3811,-26.3782,1014.8
492044,0.143472,9.71305,1.3869,1.68,-3.08,0.42,21.6879,-46.3372,-27.2205,1014.84
492050,0.11956,9.74175,1.36298,1.75,-3.36,0.21,21.223,-44.9802,-26.3486,1014.84
492056,0.143472,9.74653,1.37733,2.17,-3.5,-0.7,20.1479,-45.6587,-29.1266,1014.82
492062,0.133907,9.7561,1.36298,1.96,-3.5,-0.07,21.3392,-46.4297,-25.9792,1014.82
492068,0.143472,9.75131,1.40603,2.1,-3.08,0.63,20.729,-45.7512,-26.0827,1014.82
492074,0.153037,9.77523,1.3869,1.68,-2.73,-0.28,21.1067,-44.7952,-27.4421,1014.82
492080,0.153037,9.76566,1.37255,1.68,-2.52,-0.63,20.7871,-45.0727,-26.6442,1014.84
492086,0.148254,9.79914,1.36777,1.82,-3.29,-0.21,21.7751,-45.7204,-26.2009,1014.84
492092,0.172166,9.76088,1.32951,1.75,-2.87,-0.21,20.729,-45.2269,-27.1613,1014.84
492098,0.11956,9.78479,1.37255,1.89,-2.87,-0.98,21.5717,-45.1961,-26.4816,1014.82
492104,0.109995,9.75131,1.37255,1.68,-2.45,-0.56,21.6879,-45.7821,-25.9349,1014.82
492110,0.10043,9.77044,1.3869,1.47,-2.87,-0.35,21.4554,-44.8877,-26.5998,1014.81
492116,0.10043,9.73697,1.37733,1.54,-2.59,-0.28,20.6709,-44.7335,-27.1613,1014.81
492122,0.11956,9.76566,1.40124,1.61,-2.8,-0.07,21.9785,-45.6279,-25.6098,1014.83
492128,0.13869,9.73697,1.3582,1.61,-3.22,-0.56,21.3392,-44.7335,-25.9054,1014.83
492134,0.0813008,9.73218,1.37255,1.75,-3.43,0.14,20.9905,-44.2709,-26.5407,1014.84
492140,0.109995,9.71784,1.36777,1.68,-3.29,-0.14,21.7169,-45.1653,-26.393,1014.84
492146,0.11956,9.7274,1.3869,2.1,-3.22,-0.49,21.0196,-45.5353,-27.3239,1014.84
492152,0.114778,9.73697,1.3869,1.82,-2.94,-0.07,21.0486,-44.5176,-26.2304,1014.86
492158,0.11956,9.72262,1.36298,2.03,-3.36,0,21.5135,-44.8877,-27.117,1014.86
492164,0.114778,9.73218,1.35342,1.89,-2.87,-0.63,20.9615,-46.3063,-27.0579,1014.81
492170,0.11956,9.77523,1.39646,2.1,-2.8,-0.35,21.0777,-44.5793,-26.0383,1014.81
492176,0.133907,9.76566,1.3869,1.96,-2.59,0.21,20.8743,-43.87,-27.2796,1014.83
492182,0.143472,9.76566,1.34864,1.61,-2.73,-0.35,22.0366,-45.8437,-25.5507,1014.83
492188,0.157819,9.76088,1.36777,1.54,-2.66,0.14,21.223,-45.1653,-25.8019,1014.83
492194,0.109995,9.74653,1.39646,2.03,-2.87,0.07,21.252,-44.5793,-26.8658,1014.83
492200,0.133907,9.74653,1.37255,1.61,-3.15,-0.56,21.4264,-46.3372,-26.6146,1014.85
492206,0.167384,9.74175,1.35342,1.82,-2.73,-0.14,22.0656,-45.6895,-25.6246,1014.85
492212,0.181731,9.75131,1.32472,1.75,-3.08,-0.21,20.9905,-44.2401,-26.1566,1014.85
492218,0.167384,9.75131,1.37733,1.96,-3.08,-0.28,20.9324,-44.9185,-26.6442,1014.81
492224,0.071736,9.77044,1.35342,1.47,-2.94,-0.56,21.7751,-46.6764,-27.0284,1014.81
492230,0.109995,9.74653,1.36298,1.96,-2.94,-0.28,20.9905,-45.1961,-27.0875,1014.83
492236,0.114778,9.71784,1.39646,1.68,-2.94,-0.49,20.729,-44.826,-27.3978,1014.83
492242,0.114778,9.76088,1.37255,1.82,-3.57,0.07,21.4554,-46.2138,-26.851,1014.84
492248,0.095648,9.74653,1.41081,1.68,-2.8,-0.07,21.6007,-45.0419,-27.1022,1014.84
492254,0.109995,9.7561,1.36298,1.61,-3.71,0.07,20.9905,-44.3326,-28.1957,1014.85
492260,0.124342,9.73218,1.37255,1.68,-3.08,-0.28,20.5837,-45.6895,-25.9201,1014.85
492266,0.13869,9.74175,1.37733,1.82,-3.57,-0.42,21.6298,-45.9979,-25.1813,1014.85
492272,0.124342,9.73218,1.37733,2.31,-3.29,0.07,21.3392,-44.4251,-26.1122,1014.79
492278,0.13869,9.73697,1.35342,2.24,-2.8,0.63,21.1358,-45.0419,-25.2847,1014.79
492284,0.148254,9.7561,1.34864,2.1,-3.15,-0.14,21.5426,-45.6279,-25.6985,1014.83
492290,0.13869,9.7274,1.39646,1.68,-3.29,-0.28,21.6007,-44.7643,-25.8758,1014.83
492296,0.133907,9.7561,1.37733,2.38,-3.36,0.35,21.223,-44.9494,-27.2796,1014.83
492302,0.13869,9.77523,1.3582,1.89,-2.73,0.07,21.4264,-46.0905,-25.8019,1014.83
492308,0.133907,9.75131,1.37255,2.17,-2.94,-0.63,21.0777,-45.1036,-25.6689,1014.82
492314,0.148254,9.73697,1.32951,1.82,-3.01,0.07,21.2811,-43.1607,-27.4273,1014.82
492320,0.129125,9.76088,1.36777,2.24,-3.43,-0.21,21.223,-44.9802,-26.5703,1014.82
492326,0.13869,9.74175,1.37733,1.96,-3.01,0,21.223,-45.1961,-25.7428,1014.81
492332,0.133907,9.74175,1.38211,1.82,-3.08,-0.21,20.8743,-44.5793,-25.9645,1014.81
492338,0.0908656,9.73218,1.38211,2.1,-3.5,-0.42,21.2811,-45.2886,-26.4078,1014.85
492344,0.10043,9.74653,1.39646,2.03,-3.08,0.28,22.2109,-46.0288,-25.0631,1014.85
492350,0.109995,9.71784,1.33907,2.24,-3.01,0.14,20.6128,-45.3195,-25.7133,1014.85
492356,0.114778,9.75131,1.35342,1.47,-2.87,-0.42,21.0196,-44.9494,-25.5212,1014.85
492362,0.109995,9.74175,1.3869,2.03,-3.22,0.07,20.9034,-46.0596,-25.7724,1014.81
492368,0.129125,9.71784,1.36298,2.17,-2.87,0.14,21.6588,-45.1653,-25.3586,1014.81
492374,0.109995,9.73218,1.37255,1.82,-3.36,0.21,21.1067,-44.4251,-26.2748,1014.83
492380,0.095648,9.77523,1.37255,2.03,-3.01,0,21.4554,-45.7821,-26.851,1014.83
492386,0.124342,9.7561,1.35342,2.17,-3.22,0.14,21.4845,-46.3063,-24.6198,1014.83
492392,0.13869,9.7561,1.35342,1.96,-3.36,0.28,21.6007,-44.6101,-25.6837,1014.83
492398,0.162602,9.75131,1.3869,2.03,-2.73,-0.14,21.4264,-45.1653,-26.1566,1014.83
492404,0.133907,9.78001,1.36777,1.96,-2.94,-0.42,21.223,-45.5045,-26.0531,1014.82
492410,0.148254,9.76566,1.35342,2.03,-3.22,-0.07,21.9494,-44.7335,-25.6689,1014.82
492416,0.10043,9.7561,1.3869,1.75,-3.01,-0.42,22.0366,-44.3326,-26.3782,1014.83
492422,0.148254,9.73697,1.39168,2.03,-2.66,0.07,21.8913,-46.4605,-25.4621,1014.83
492428,0.129125,9.76088,1.37733,1.75,-3.01,-0.42,21.0777,-45.0727,-26.3339,1014.82
492434,0.129125,9.77044,1.36777,1.89,-2.94,-0.42,20.9324,-44.7027,-25.6985,1014.82
492440,0.124342,9.73218,1.35342,1.75,-2.94,-0.21,21.7169,-46.3989,-25.1518,1014.82
492446,0.0860832,9.76088,1.37255,1.96,-3.15,-0.21,21.3392,-45.9671,-25.9497,1014.82
492452,0.0860832,9.74175,1.39646,1.75,-2.87,-17.71,21.6007,-44.2401,-25.7133,1014.82
492458,0.095648,9.73218,1.40603,1.75,-2.94,-0.07,21.223,-45.9671,-25.6837,1014.84
492464,0.10043,9.71305,1.3869,1.75,-3.01,0.35,21.3973,-45.7821,-25.4325,1014.84
492470,0.114778,9.73218,1.35342,1.68,-2.8,0.21,21.5717,-45.1961,-26.127,1014.86
492476,0.114778,9.73218,1.36298,2.24,-3.08,0.21,21.5426,-45.0111,-26.127,1014.86
492482,0.114778,9.75131,1.36777,1.82,-3.29,0.14,21.3392,-46.8615,-25.6985,1014.81
492488,0.124342,9.7561,1.37255,2.03,-3.15,-0.14,22.0947,-45.5045,-25.4177,1014.81
492494,0.143472,9.76566,1.36298,2.17,-2.94,0.49,20.8162,-44.9802,-25.5359,1014.81
492500,0.153037,9.7561,1.39168,2.03,-3.01,-0.07,21.3683,-46.7073,-26.6737,1014.82
492506,0.129125,9.7561,1.34864,1.89,-3.15,-0.28,21.6879,-45.8437,-25.5212,1014.82
492512,0.148254,9.79436,1.34864,2.03,-2.94,0,21.223,-44.3634,-25.6689,1014.83
492518,0.153037,9.77044,1.37733,2.03,-2.87,0.28,21.1358,-44.9802,-26.6146,1014.83
492524,0.143472,9.74175,1.37255,1.47,-3.15,-0.21,21.8622,-45.5353,-25.1813,1014.8
492530,0.162602,9.74175,1.37255,2.03,-2.59,-0.49,20.7871,-45.0111,-25.9054,1014.8
492536,0.0908656,9.74175,1.36777,1.89,-3.15,-0.42,21.0196,-44.8569,-26.5555,1014.82
492542,0.071736,9.73218,1.39168,2.1,-3.08,-0.49,21.4264,-46.3989,-25.8167,1014.82
492548,0.11956,9.73218,1.39646,2.03,-2.94,0.07,21.8041,-45.3195,-26.0974,1014.82
492554,0.114778,9.75131,1.37255,1.96,-2.94,0.35,21.252,-44.826,-25.861,1014.82
492560,0.129125,9.75131,1.39168,1.82,-3.08,-0.63,20.7581,-46.4605,-25.7428,1014.82
492566,0.10043,9.76088,1.33429,1.61,-3.01,0.21,20.9324,-45.3811,-25.8462,1014.82
492572,0.105213,9.75131,1.37733,1.89,-3.29,0.77,21.1649,-44.5485,-25.6394,1014.82
492578,0.0908656,9.71305,1.3869,1.89,-3.15,-0.42,21.5135,-45.2886,-25.9645,1014.84
492584,0.11956,9.71784,1.39646,1.96,-3.08,-0.35,21.746,-46.5839,-26.5703,1014.84
492590,0.105213,9.74653,1.37255,1.75,-3.22,-17.36,21.4845,-44.7027,-26.5703,1014.83
492596,0.133907,9.74175,1.34864,2.1,-2.8,-0.07,20.7,-44.4251,-25.0779,1014.83
492602,0.181731,9.7561,1.34385,1.82,-3.08,0.63,20.6128,-45.597,-25.8462,1014.82
492608,0.143472,9.76566,1.36298,1.75,-2.87,-0.21,21.1067,-45.3811,-25.2552,1014.82
492614,0.143472,9.78479,1.34385,1.68,-3.22,-0.77,20.729,-44.3326,-26.526,1014.82
492620,0.143472,9.83261,1.3056,1.54,-2.66,-0.07,20.8452,-46.0288,-25.3439,1014.81
492626,0.205643,9.83261,1.36777,1.19,-2.8,0.21,21.8041,-46.1521,-24.0288,1014.81
492632,0.023912,9.63654,1.57819,2.17,-2.87,-0.42,20.9324,-43.87,-24.7971,1014.84
492638,0.095648,9.78479,1.34385,1.82,-3.5,-0.07,21.3101,-45.6895,-24.7085,1014.84
492644,0.105213,9.75131,1.34864,2.31,-3.08,0.07,21.0196,-46.2138,-25.728,1014.83
492650,0.0813008,9.81827,1.29603,1.96,-3.01,-0.21,20.9615,-45.5353,-25.5507,1014.83
492656,0.143472,9.71305,1.40124,2.03,-2.52,-0.35,20.729,-44.1476,-26.2009,1014.85
492662,0.105213,9.71784,1.35342,1.68,-2.8,0.07,20.9905,-46.1521,-25.5212,1014.85
492668,0.129125,9.75131,1.3582,1.61,-2.8,0,21.1358,-45.3503,-26.7772,1014.79
492674,0.13869,9.78957,1.40124,1.68,-3.22,-0.28,21.223,-44.5793,-26.4669,1014.79
492680,0.0860832,9.74653,1.43472,1.82,-3.01,0.07,21.1939,-45.8746,-25.8758,1014.79
492686,0.10043,9.74653,1.34864,2.17,-3.29,0.14,21.5135,-45.6587,-26.6885,1014.82
492692,0.129125,9.73697,1.36777,1.96,-2.94,0.07,20.8743,-44.3326,-25.6689,1014.82
492698,0.129125,9.76566,1.33429,1.96,-3.36,0.21,20.4966,-45.0727,-25.9497,1014.84
492704,0.143472,9.73697,1.36298,1.75,-3.08,-0.28,21.4845,-46.0288,-24.8119,1014.84
492710,0.133907,9.74653,1.38211,2.03,-3.08,-0.14,21.4845,-44.6718,-26.7772,1014.83
492716,0.148254,9.78001,1.36298,1.54,-3.43,0.14,20.9905,-45.1036,-26.2157,1014.83
492722,0.181731,9.76088,1.37255,1.68,-3.01,0,21.3973,-45.6279,-26.3634,1014.8
492728,0.148254,9.77044,1.34385,2.03,-2.73,0,21.223,-44.6718,-25.8167,1014.8
492734,0.109995,9.7561,1.34864,1.89,-3.15,0,20.9324,-44.5176,-25.9349,1014.8
492740,0.143472,9.76566,1.37733,1.96,-2.94,-0.77,21.6298,-45.5353,-24.5607,1014.8
492746,0.13869,9.70827,1.3869,1.96,-3.01,-0.56,22.0947,-45.1344,-25.5655,1014.8
492752,0.10043,9.76088,1.36777,1.82,-3.29,0.28,20.7581,-43.3766,-25.5507,1014.83
492758,0.0908656,9.74653,1.33907,1.82,-2.73,0.07,21.746,-44.5793,-24.6641,1014.83
492764,0.0765184,9.7274,1.37733,1.89,-3.29,-0.56,21.8041,-45.6895,-24.7676,1014.82
492770,0.10043,9.70349,1.37733,1.89,-3.22,-0.42,21.4264,-44.2092,-25.2109,1014.82
492776,0.0813008,9.73697,1.40603,2.17,-3.5,-0.14,21.0486,-44.4868,-26.4373,1014.8
492782,0.0908656,9.73218,1.37733,1.75,-2.94,-0.07,21.8622,-46.1521,-24.9597,1014.8
492788,0.114778,9.73218,1.33429,2.03,-2.73,0,22.1528,-45.7821,-24.4425,1014.8
492794,0.105213,9.73697,1.37733,2.03,-3.92,-0.42,20.8452,-44.8569,-25.9497,1014.81
492800,0.13869,9.77044,1.3582,1.68,-3.43,-0.21,21.6298,-45.8437,-26.1861,1014.81
492806,0.143472,9.77044,1.34864,2.1,-3.36,0,21.1939,-44.826,-24.9892,1014.82
492812,0.148254,9.74653,1.3582,2.03,-3.15,-0.14,22.1237,-44.5176,-25.5359,1014.82
492818,0.124342,9.76088,1.35342,1.4,-3.57,-0.07,21.3683,-44.8877,-25.1813,1014.84
492824,0.143472,9.7561,1.36298,1.96,-3.01,-0.42,21.0196,-46.183,-25.0335,1014.84
492830,0.181731,9.73697,1.37733,2.1,-3.29,-0.07,21.8332,-44.3634,-25.9497,1014.78
492836,0.13869,9.77523,1.37255,1.89,-2.87,-0.7,21.2811,-45.1036,-25.6985,1014.78
492842,0.167384,9.7561,1.3582,1.82,-2.8,-0.49,21.0196,-46.2447,-25.1222,1014.83
492848,0.148254,9.72262,1.3869,1.68,-3.29,-0.7,21.1649,-45.597,-25.4621,1014.83
492854,0.11956,9.74175,1.37733,2.1,-3.15,-0.28,21.3101,-44.3326,-26.2157,1014.83
492860,0.0908656,9.74175,1.39646,1.61,-2.94,-0.63,21.5426,-45.5353,-26.0974,1014.81
492866,0.0860832,9.74653,1.39646,1.47,-3.01,-0.14,21.0486,-45.9054,-25.4473,1014.81
492872,0.105213,9.73697,1.36777,1.68,-3.08,-0.77,20.9905,-44.3018,-26.5703,1014.85
492878,0.124342,9.73697,1.34864,2.1,-2.94,-0.56,20.8452,-45.4428,-25.0927,1014.85
492884,0.0813008,9.71784,1.36298,1.82,-3.29,0,21.4264,-45.9671,-23.8219,1014.82
492890,0.0860832,9.73697,1.36298,1.61,-3.71,-0.07,21.7751,-44.8569,-26.3043,1014.82
492896,0.0908656,9.7274,1.37733,2.03,-3.43,-0.28,21.7169,-45.0727,-25.9201,1014.81
492902,0.0908656,9.73218,1.33907,2.31,-2.94,0.07,20.8743,-45.8437,-24.4868,1014.81
492908,0.109995,9.74175,1.3582,1.68,-2.59,0.21,20.6128,-44.7643,-26.0679,1014.81
492914,0.143472,9.75131,1.34864,1.75,-3.08,0.14,21.223,-44.4868,-26.4225,1014.81
492920,0.11956,9.73218,1.39168,1.54,-3.22,-0.28,21.3683,-46.0288,-25.994,1014.81
492926,0.129125,9.76088,1.37255,1.75,-3.43,0.21,20.9615,-45.5353,-26.1566,1014.78
492932,0.095648,9.71784,1.36298,2.1,-3.15,0.07,21.6588,-44.4559,-26.5703,1014.78
492938,0.129125,9.74175,1.38211,2.03,-2.94,-0.07,21.4264,-45.2578,-26.526,1014.82
492944,0.11956,9.73697,1.36298,1.75,-2.8,-0.35,20.6709,-45.6279,-25.3439,1014.82
492950,0.109995,9.76088,1.37733,1.89,-3.36,0.28,20.9324,-44.4868,-26.7624,1014.81
492956,0.143472,9.75131,1.37733,1.54,-2.66,-0.07,20.6418,-45.3811,-25.7724,1014.81
492962,0.11956,9.7561,1.36777,1.96,-3.01,-0.21,21.0486,-45.9054,-25.0335,1014.81
492968,0.13869,9.74653,1.35342,2.24,-3.15,-0.49,21.223,-45.9671,-26.6737,1014.81
492974,0.0908656,9.78001,1.34864,1.68,-2.45,-0.14,20.4094,-44.1167,-25.4916,1014.81
492980,0.105213,9.76088,1.34864,2.17,-3.15,-0.84,21.0486,-45.9979,-26.3486,1014.83
492986,0.10043,9.74175,1.36298,1.4,-3.29,0.21,21.2811,-45.9671,-25.994,1014.83
492992,0.095648,9.75131,1.36298,2.17,-3.5,0.42,21.0777,-44.6101,-25.7724,1014.84
492998,0.124342,9.7561,1.33907,1.82,-2.8,-0.14,20.9034,-46.0288,-25.9054,1014.84
493004,0.124342,9.73218,1.38211,2.03,-3.08,0.14,21.3683,-45.8437,-24.5016,1014.82
493010,0.11956,9.7561,1.34864,1.82,-3.01,-0.35,21.0196,-45.1036,-24.5459,1014.82
493016,0.109995,9.77523,1.35342,1.89,-3.57,0,20.9615,-44.826,-26.26,1014.85
493022,0.109995,9.74175,1.36777,2.1,-3.22,0.49,21.223,-46.2138,-26.3634,1014.85
493028,0.167384,9.76566,1.34385,2.1,-3.36,0.07,21.8622,-45.2578,-24.147,1014.85
493034,0.162602,9.75131,1.3582,1.54,-2.52,0.28,21.252,-44.7643,-25.7724,1014.82
493040,0.143472,9.77523,1.34385,2.24,-3.22,0,20.8452,-46.1213,-25.27,1014.82
493046,0.133907,9.77523,1.35342,1.96,-2.87,0,21.5426,-45.5662,-25.9349,1014.82
493052,0.124342,9.74175,1.39168,1.82,-2.87,-0.42,21.7169,-44.5485,-25.6985,1014.82
493058,0.129125,9.74653,1.39646,1.89,-3.01,-0.07,22.0366,-45.3811,-25.6542,1014.8
493064,0.109995,9.70827,1.36777,1.75,-3.22,0,22.3271,-45.7512,-26.3486,1014.8
493070,0.109995,9.76088,1.37255,2.17,-3.01,-0.14,21.4264,-44.6718,-25.861,1014.82
493076,0.114778,9.7274,1.37255,2.38,-3.01,0,21.7751,-44.7335,-26.3191,1014.82
493082,0.10043,9.7561,1.36777,2.03,-3.57,-0.07,21.1939,-46.0905,-25.5507,1014.82
493088,0.105213,9.72262,1.37255,1.82,-3.22,0.21,21.6007,-45.2886,-25.6098,1014.8
493094,0.11956,9.71784,1.37255,1.96,-2.94,0.14,21.7169,-44.6718,-27.117,1014.8
493100,0.10043,9.75131,1.34864,2.03,-3.5,-0.35,22.0075,-45.9671,-25.0631,1014.85
493106,0.133907,9.75131,1.32951,1.82,-2.8,0.07,21.5717,-45.8746,-24.2208,1014.85
493112,0.129125,9.74653,1.36777,1.82,-3.01,0.07,21.5426,-44.5176,-25.2552,1014.84
493118,0.0765184,9.74653,1.37255,1.89,-3.22,-0.14,21.6588,-45.1344,-25.6542,1014.84
493124,0.114778,9.71784,1.37733,2.1,-3.08,-0.07,21.0486,-46.1213,-25.1665,1014.82
493130,0.133907,9.76088,1.35342,1.68,-3.22,0.28,21.3683,-44.4868,-26.2895,1014.82
493136,0.133907,9.73697,1.35342,1.61,-3.5,0.28,20.8452,-44.0859,-25.8462,1014.82
493142,0.10043,9.77044,1.34864,2.03,-3.43,0.21,21.5717,-46.183,-25.1074,1014.83
493148,0.153037,9.74653,1.37255,1.96,-3.5,0.07,20.3803,-45.4428,-25.4473,1014.83
493154,0.157819,9.7561,1.39168,2.17,-2.87,-0.7,21.0486,-44.4868,-26.26,1014.82
493160,0.0813008,9.77523,1.3582,1.54,-2.66,-0.35,21.6007,-45.2269,-27.0431,1014.82
493166,0.0860832,9.73218,1.35342,2.17,-3.15,-0.21,21.6007,-46.2755,-26.526,1014.83
493172,0.133907,9.73218,1.3869,2.03,-3.22,-0.35,20.9905,-44.0242,-27.117,1014.83
493178,0.124342,9.75131,1.37255,1.96,-2.66,-0.21,21.1939,-45.1653,-26.4225,1014.84
493184,0.11956,9.76566,1.36777,2.17,-2.38,0.35,21.0486,-46.9848,-26.5851,1014.84
493190,0.105213,9.73218,1.3582,1.89,-2.8,-0.14,21.5426,-45.0727,-26.6294,1014.83
493196,0.105213,9.74653,1.3582,1.82,-2.87,-0.28,21.3683,-44.0242,-27.1466,1014.83
493202,0.105213,9.74653,1.36777,1.82,-3.64,-0.42,21.3683,-46.183,-26.1713,1014.83
493208,0.109995,9.75131,1.36298,1.96,-3.78,-0.07,21.746,-44.9802,-25.7576,1014.87
493214,0.11956,9.74175,1.3582,2.03,-3.57,0,21.0196,-45.1653,-27.0727,1014.87
493220,0.105213,9.73218,1.38211,1.96,-3.29,0.28,21.223,-45.6587,-26.0383,1014.85
493226,0.095648,9.77523,1.31038,1.89,-2.66,0.07,20.9615,-45.412,-26.0383,1014.85
493232,0.114778,9.79914,1.26734,1.33,-3.71,0.28,20.8452,-44.1784,-24.6937,1014.81
493238,0.129125,9.53611,1.47298,2.1,-2.73,0.07,21.223,-45.3195,-25.27,1014.81
493244,-0.0143472,9.76566,1.44428,2.1,-3.15,0.14,21.8041,-46.0596,-26.1713,1014.81
493250,0.253467,9.74175,1.31994,2.03,-3.08,-0.14,21.1649,-44.9185,-26.5703,1014.81
493256,0.105213,9.83261,1.28168,2.24,-3.08,0.35,21.0196,-44.3634,-26.5703,1014.81
493262,0.153037,9.74653,1.31994,1.54,-3.71,-0.35,21.4554,-45.9671,-25.8758,1014.83
493268,0.129125,9.66523,1.42037,2.1,-2.94,-0.21,21.1067,-44.8569,-26.6442,1014.83
493274,0.0765184,9.77523,1.37733,2.31,-3.43,0.42,21.6007,-44.826,-25.4325,1014.84
493280,0.157819,9.76088,1.2769,1.47,-3.15,0.07,21.8041,-45.9054,-26.0088,1014.84
493286,0.129125,9.70349,1.35342,1.82,-2.1,0.07,20.8452,-46.3989,-27.117,1014.83
493292,0.0573888,9.77523,1.3582,1.96,-2.87,-0.42,21.252,-44.2709,-26.5998,1014.83
493298,0.133907,9.69392,1.39646,2.03,-2.94,-0.35,21.5717,-45.3811,-25.2109,1014.81
493304,0.0765184,9.7561,1.3869,1.68,-3.5,0.28,21.4845,-45.9363,-25.0631,1014.81
493310,0.153037,9.68914,1.35342,1.47,-3.15,0.28,20.7581,-44.641,-26.3634,1014.81
493316,0.0573888,9.72262,1.36777,2.24,-3.43,-0.35,21.1939,-45.0419,-26.2895,1014.84
493322,0.124342,9.68914,1.39646,1.89,-3.15,0.14,21.1649,-46.4605,-25.27,1014.84
493328,0.0813008,9.73218,1.35342,1.96,-3.78,0.28,21.5135,-45.2269,-25.403,1014.83
493334,0.124342,9.68914,1.39646,2.1,-3.36,0.21,20.9905,-44.0242,-25.2995,1014.83
493340,0.0860832,9.76088,1.32472,1.61,-3.64,-0.28,21.6879,-46.0905,-25.5655,1014.85
493346,0.176949,9.75131,1.37255,1.89,-3.78,-0.07,22.1237,-45.4428,-25.4177,1014.85
493352,0.143472,9.72262,1.37255,1.82,-3.15,0,20.4094,-45.2269,-25.8167,1014.84
493358,0.167384,9.7561,1.33907,1.82,-3.01,0.35,21.6588,-45.0727,-25.3291,1014.84
493364,0.129125,9.77044,1.29125,2.03,-3.5,0.14,21.4845,-46.2447,-25.9349,1014.8
493370,0.153037,9.77044,1.34385,1.4,-2.73,-0.07,20.8743,-45.1961,-25.9645,1014.8
493376,0.143472,9.72262,1.41559,2.24,-2.94,-0.49,21.3973,-44.3018,-26.3339,1014.8
493382,0.133907,9.7561,1.38211,1.82,-3.29,-0.21,21.5135,-46.5222,-24.6789,1014.81
493388,0.11956,9.80392,1.31038,1.89,-2.87,-0.63,20.5837,-45.6895,-26.6442,1014.81
493394,0.0813008,9.78001,1.32951,1.82,-3.15,-0.28,20.5547,-44.4868,-26.3043,1014.81
493400,0.124342,9.76566,1.37255,1.96,-3.57,0.07,21.4554,-45.9979,-27.25,1014.81
493406,0.153037,9.71784,1.40124,1.89,-3.43,-0.07,21.746,-45.5353,-26.5998,1014.82
493412,0.157819,9.77044,1.31994,2.03,-3.01,-0.42,20.7871,-43.9625,-26.7919,1014.82
493418,0.0765184,9.73697,1.34864,1.75,-3.08,-0.56,21.2811,-45.412,-25.8758,1014.8
493424,0.105213,9.73218,1.34864,2.45,-3.64,-0.63,21.1067,-46.0596,-25.4473,1014.8
493430,0.10043,9.78001,1.37255,1.54,-2.52,-0.14,21.7169,-44.826,-27.7967,1014.8
493436,0.129125,9.74175,1.37733,1.89,-2.87,-0.07,21.1067,-44.7952,-26.3634,1014.82
493442,0.143472,9.7274,1.34864,1.89,-3.22,-0.14,21.5135,-46.6147,-25.3143,1014.82
493448,0.109995,9.77523,1.36777,1.68,-3.29,-0.21,21.2811,-44.7335,-25.3586,1014.81
493454,0.143472,9.73218,1.33429,2.03,-3.57,-0.14,21.1649,-44.5176,-25.994,1014.81
493460,0.0860832,9.77523,1.35342,1.54,-2.94,-0.42,21.5135,-45.412,-25.9054,1014.8
493466,0.162602,9.7561,1.34385,1.33,-2.87,-0.14,21.3683,-45.5353,-25.7576,1014.8
493472,0.162602,9.74653,1.33907,1.4,-3.08,-0.35,20.7871,-43.7466,-26.6146,1014.8
493478,0.143472,9.76088,1.37255,1.89,-3.01,-0.35,21.0196,-44.7335,-25.5655,1014.8
493484,0.133907,9.79914,1.37255,1.26,-2.73,-0.28,20.6128,-45.1036,-27.0875,1014.8
493490,0.157819,9.77044,1.32951,1.19,-3.85,-0.84,20.9034,-45.0727,-27.6194,1014.82
493496,0.196078,9.78479,1.30081,1.26,-3.01,-0.77,20.9615,-43.2224,-26.9545,1014.82
493502,0.129125,9.74175,1.40124,1.19,-3.22,-0.63,21.3392,-45.4428,-25.861,1014.84
493508,0.109995,9.71784,1.42994,1.75,-2.8,-1.26,20.5256,-45.1653,-26.0088,1014.84
493514,0.105213,9.72262,1.41081,2.1,-2.73,-1.61,20.5547,-44.1476,-26.3043,1014.82
493520,0.105213,9.74653,1.3582,1.82,-2.94,-1.05,20.4675,-46.183,-26.5555,1014.82
493526,0.105213,9.77523,1.35342,1.89,-3.29,-0.98,21.1939,-44.9185,-26.3043,1014.83
493532,0.0908656,9.78957,1.34385,1.68,-2.87,-1.26,21.5135,-43.7775,-26.0531,1014.83
493538,0.0813008,9.70827,1.37733,1.33,-3.08,-1.26,21.0196,-45.7204,-26.4078,1014.83
493544,0.071736,9.68436,1.42994,2.03,-3.36,-0.98,21.8041,-46.4297,-25.4916,1014.83
493550,0.0860832,9.72262,1.36298,2.03,-3.15,-0.84,20.9905,-44.826,-25.3586,1014.83
493556,0.10043,9.72262,1.3056,1.89,-3.01,-0.28,21.2811,-44.1167,-27.6933,1014.83
493562,0.0908656,9.76088,1.32951,1.75,-3.01,-1.19,21.8622,-45.6895,-25.7576,1014.83
493568,0.157819,9.79914,1.36777,1.61,-3.22,-0.84,21.4845,-44.4251,-27.2205,1014.81
493574,0.196078,9.80392,1.30081,1.47,-3.64,-1.05,21.1067,-43.8392,-27.1022,1014.81
493580,0.124342,9.8087,1.3056,0.98,-3.29,-1.19,22.0366,-45.7512,-26.6885,1014.83
493586,0.095648,9.79436,1.36298,0.77,-3.01,-1.12,21.746,-45.2269,-26.6885,1014.83
493592,0.10043,9.76088,1.38211,0.91,-3.15,-1.12,20.7581,-45.0111,-27.2205,1014.82
493598,0.148254,9.74175,1.40124,1.47,-3.57,-1.47,20.9905,-45.1036,-26.2452,1014.82
493604,0.129125,9.7561,1.37733,1.75,-2.66,-1.4,21.223,-45.9054,-26.1713,1014.82
493610,0.105213,9.78001,1.33429,0.91,-2.24,-1.12,20.8452,-44.0859,-26.5112,1014.8
493616,0.071736,9.7561,1.36777,1.33,-3.15,-1.4,21.1649,-44.4868,-26.1122,1014.8
493622,0.023912,9.73218,1.41559,1.33,-2.94,-1.19,22.0947,-45.7204,-25.2552,1014.83
493628,0.0669536,9.70349,1.40124,1.4,-3.29,-0.77,20.8743,-44.2092,-26.5555,1014.83
493634,0.0621712,9.74175,1.37255,1.61,-3.22,-1.12,20.6709,-44.0859,-27.516,1014.84
493640,0.0908656,9.7274,1.36777,1.33,-3.01,-1.33,21.3683,-45.8129,-26.3782,1014.84
493646,0.0669536,9.76566,1.36298,1.19,-3.08,-0.63,20.9905,-45.1961,-25.2995,1014.84
493652,0.0813008,9.72262,1.40124,1.26,-2.94,-1.12,21.0777,-44.0859,-26.4816,1014.84
493658,0.071736,9.73218,1.40124,1.82,-2.8,-0.98,21.252,-45.0111,-25.7133,1014.84
493664,0.0813008,9.72262,1.3582,1.68,-3.29,-0.7,21.1649,-45.8746,-27.1022,1014.84
493670,0.0573888,9.75131,1.36777,1.47,-3.64,-0.49,21.3973,-44.2401,-26.4373,1014.84
493676,0.124342,9.76566,1.33907,1.61,-3.29,-0.7,21.1939,-45.1344,-26.3486,1014.83
493682,0.109995,9.74653,1.36777,1.61,-3.01,-1.26,21.252,-46.3063,-25.4621,1014.83
493688,0.124342,9.77044,1.3582,1.05,-2.59,-1.05,21.7169,-45.5045,-26.0679,1014.82
493694,0.114778,9.78957,1.34864,1.19,-3.01,-1.4,21.7751,-44.2092,-27.7967,1014.82
493700,0.153037,9.77044,1.3056,1.4,-3.43,-1.54,22.0656,-45.6587,-25.6246,1014.82
493706,0.129125,9.74653,1.37733,1.12,-2.8,-1.12,21.3101,-45.1961,-26.3486,1014.82
493712,0.133907,9.74175,1.40603,1.47,-2.8,-1.54,21.3973,-43.5616,-26.6442,1014.85
493718,0.133907,9.74653,1.37733,1.82,-3.08,-2.1,21.7169,-45.4428,-26.2157,1014.85
493724,0.0047824,9.75131,1.41081,1.54,-3.22,-1.4,22.1818,-45.8129,-26.0088,1014.85
493730,0.0621712,9.72262,1.40124,1.33,-2.66,-1.54,21.252,-43.9625,-27.0579,1014.84
493736,0.0573888,9.70827,1.41081,1.82,-3.01,-1.89,21.8622,-43.7466,-26.9397,1014.84
493742,0.0669536,9.70349,1.3582,1.61,-3.43,-1.61,21.5426,-45.0419,-25.6837,1014.84
493748,0.0669536,9.78957,1.31038,1.96,-3.43,-1.33,21.1358,-44.6718,-26.26,1014.84
493754,0.047824,9.76088,1.33907,1.68,-3.08,-1.47,20.6709,-43.9008,-26.5703,1014.8
493760,0.0765184,9.7561,1.33429,1.54,-2.38,-1.26,21.7169,-45.2578,-26.127,1014.8
493766,0.0526064,9.76566,1.33907,1.33,-3.01,-1.47,21.8332,-44.7643,-25.5655,1014.81
493772,0.0573888,9.75131,1.36298,1.12,-2.94,-1.33,21.1358,-43.9934,-26.4964,1014.81
493778,0.0621712,9.78001,1.38211,1.54,-2.8,-1.26,21.4554,-45.5353,-26.9101,1014.81
493784,0.0813008,9.75131,1.39168,0.91,-2.73,-0.98,21.1939,-45.8746,-26.8806,1014.81
493790,0.0669536,9.7561,1.39168,1.47,-2.94,-1.12,20.9615,-44.1784,-27.1022,1014.81
493796,0.0813008,9.77044,1.33429,1.05,-3.22,-1.19,21.4845,-44.8877,-25.4325,1014.84
493802,0.129125,9.80392,1.31038,0.77,-2.59,-1.05,21.8913,-46.4297,-26.6737,1014.84
493808,0.10043,9.81349,1.31038,0.84,-2.17,-1.4,21.4845,-45.1344,-26.0383,1014.84
493814,0.0908656,9.76566,1.32472,0.63,-2.59,-1.4,21.9494,-44.1476,-26.3634,1014.84
493820,0.0430416,9.77044,1.3582,0.35,-2.52,-1.68,22.0075,-46.0905,-25.4916,1014.84
493826,0.0669536,9.72262,1.3869,0.42,-2.52,-1.19,21.8332,-45.4737,-26.0974,1014.84
493832,0.0621712,9.72262,1.3869,0.7,-2.38,-1.54,21.7169,-44.3326,-26.6146,1014.84
493838,0.071736,9.74175,1.33429,0.7,-2.24,-1.47,21.3973,-45.8746,-26.9693,1014.82
493844,0.0430416,9.73218,1.31516,0.91,-2.87,-1.82,21.8622,-46.0288,-26.6294,1014.82
493850,0.0286944,9.78479,1.38211,0.84,-1.89,-1.96,21.8622,-44.3634,-28.5799,1014.83
493856,0.0430416,9.71784,1.37255,1.12,-1.68,-1.12,21.2811,-45.1344,-26.393,1014.83
493862,0.023912,9.73218,1.40603,0.07,-1.82,-0.98,20.8162,-46.1521,-28.0036,1014.84
493868,0.0143472,9.69871,1.39646,1.33,-1.54,-1.75,20.8162,-45.6279,-27.2352,1014.84
493874,-0.0047824,9.69871,1.41081,0.7,-0.91,-1.26,22.0075,-44.2092,-27.6933,1014.83
493880,0.0191296,9.71784,1.39168,0.98,-2.24,-0.28,21.5426,-45.6895,-26.4816,1014.83
493886,0.0143472,9.71784,1.42516,1.12,-2.45,-0.63,21.3392,-44.7027,-26.0236,1014.82
493892,0.0191296,9.74175,1.39168,0.98,-2.31,-1.05,20.7581,-43.7158,-27.5751,1014.82
493898,0.0526064,9.74175,1.3582,1.12,-2.38,-0.63,21.3101,-44.5176,-26.4521,1014.82
493904,0.095648,9.7274,1.3869,0.91,-2.17,-1.33,20.9615,-46.5222,-27.1613,1014.85
493910,0.11956,9.77523,1.34385,1.12,-2.03,-0.84,20.4966,-43.8392,-26.6885,1014.85
493916,0.071736,9.77044,1.34864,0.98,-2.24,-1.33,21.1067,-44.7952,-26.26,1014.84
493922,0.0526064,9.79436,1.33907,0.91,-2.1,-1.82,21.3101,-45.5662,-25.5655,1014.84
493928,-0.0047824,9.76088,1.37733,0.63,-2.31,-1.26,21.5426,-43.9934,-26.7033,1014.83
493934,0.0860832,9.77523,1.38211,0.63,-2.59,-1.4,21.9785,-43.8083,-26.5998,1014.83
493940,0.0430416,9.73697,1.37255,0.7,-2.17,-1.61,21.3101,-45.6587,-26.1861,1014.84
493946,0.0526064,9.74175,1.40603,1.19,-1.61,-1.68,21.1358,-45.4737,-26.0236,1014.84
493952,-0.0813008,9.68436,1.4682,1.12,-2.17,-1.05,21.2811,-44.3018,-25.4325,1014.84
493958,-0.0573888,9.70827,1.42994,1.19,-2.31,-0.98,21.5135,-45.6895,-26.127,1014.82
493964,0,9.72262,1.42516,1.26,-2.31,-0.7,22.269,-45.8437,-27.0431,1014.82
493970,-0.0191296,9.72262,1.42037,1.47,-2.52,-0.49,21.6007,-43.87,-27.2057,1014.8
493976,-0.0191296,9.7274,1.38211,1.54,-2.94,-0.35,21.4264,-45.0419,-26.6294,1014.8
493982,-0.0382592,9.73218,1.42516,1.54,-3.01,-0.28,22.1237,-46.0905,-25.403,1014.81
493988,-0.0382592,9.74653,1.41081,2.17,-2.73,0.07,21.252,-44.2709,-26.4373,1014.81
493994,0.0334768,9.76566,1.37733,1.26,-3.43,-0.63,21.1939,-43.7466,-26.3486,1014.79
494000,0.071736,9.73218,1.42516,1.75,-2.87,-0.49,21.3973,-46.2447,-25.728,1014.79
494006,0.0573888,9.76088,1.37733,1.89,-3.64,-0.7,21.7751,-45.6895,-26.0088,1014.84
494012,0.0526064,9.80392,1.38211,1.68,-3.57,0.07,21.746,-43.9934,-25.7724,1014.84
494018,0.071736,9.76566,1.36777,1.47,-3.01,-0.7,22.1528,-45.6895,-26.9545,1014.84
494024,0.0765184,9.78001,1.37255,1.54,-3.01,-0.77,22.4143,-46.183,-25.5359,1014.86
494030,0.0334768,9.75131,1.40124,1.05,-2.52,-0.7,21.0777,-44.4559,-26.8215,1014.86
494036,-0.0143472,9.73697,1.42516,1.33,-2.8,-0.98,21.4845,-44.4868,-26.8658,1014.8
494042,-0.0191296,9.69392,1.51124,1.54,-3.15,-0.56,21.7751,-46.183,-26.393,1014.8
494048,0.0334768,9.7274,1.42994,1.96,-2.94,-0.7,21.9494,-45.0727,-27.3682,1014.82
494054,0.0143472,9.72262,1.41559,1.75,-3.22,-0.63,22.4724,-45.0727,-27.5455,1014.82
494060,0.0143472,9.73697,1.3869,1.82,-2.94,-0.14,21.223,-45.6587,-26.659,1014.8
494066,-0.0191296,9.73218,1.38211,2.24,-3.01,-0.28,22.0656,-45.0419,-26.4816,1014.8
494072,-0.0047824,9.74175,1.40124,1.33,-3.08,-0.07,22.1528,-43.685,-26.3339,1014.8
494078,0.0191296,9.76566,1.38211,1.68,-3.64,0.21,21.746,-45.1653,-27.2057,1014.83
494084,0.0095648,9.75131,1.41559,2.17,-3.36,-0.35,21.9785,-45.5353,-26.26,1014.83
494090,0.0191296,9.7561,1.38211,1.54,-3.22,-0.07,20.7581,-44.5485,-26.1122,1014.8
494096,0.0430416,9.71784,1.39168,1.47,-3.22,-0.14,21.6879,-45.0111,-28.0184,1014.8
494102,0.0430416,9.77523,1.40603,1.61,-3.5,-0.21,21.9494,-46.2755,-25.9054,1014.83
494108,0.0860832,9.77044,1.38211,1.47,-3.15,-0.49,21.9203,-44.826,-26.9101,1014.83
494114,0.0813008,9.77044,1.39646,1.47,-2.94,-1.26,21.9785,-43.8083,-26.3043,1014.78
494120,0.0573888,9.7561,1.41559,1.82,-2.38,-1.19,22.3271,-46.0288,-26.6885,1014.78
494126,0.0382592,9.70349,1.42516,1.68,-2.59,-0.49,21.5135,-44.7027,-26.1713,1014.78
494132,0.0143472,9.77523,1.37255,1.61,-3.22,-0.84,21.9785,-44.1167,-26.8067,1014.83
494138,0.095648,9.8087,1.28168,1.26,-2.52,-1.4,21.6007,-44.7643,-27.4125,1014.83
494144,-0.0526064,9.71784,1.48733,1.54,-3.01,-1.19,21.3683,-45.3811,-26.526,1014.79
494150,0.0430416,9.7561,1.38211,1.05,-2.94,-0.63,21.8041,-44.6101,-27.1022,1014.79
494156,-0.0191296,9.69392,1.42037,1.47,-2.94,-0.84,21.9203,-44.6101,-26.2452,1014.83
494162,-0.0143472,9.76566,1.39646,1.26,-2.94,-0.98,21.6588,-46.0288,-26.7033,1014.83
494168,-0.0191296,9.74175,1.39646,1.26,-2.94,-0.49,21.3973,-45.0111,-26.9988,1014.82
494174,-0.0430416,9.70349,1.38211,1.12,-2.73,-0.98,21.6007,-44.2401,-27.1466,1014.82
494180,-0.0382592,9.71784,1.44428,1.61,-3.22,-0.42,21.5135,-46.0596,-26.7476,1014.82
494186,0,9.73218,1.39646,1.61,-3.15,-0.21,22.0947,-45.2269,-25.6394,1014.82
494192,0.0191296,9.73218,1.38211,1.61,-3.15,-0.7,22.1528,-43.8083,-26.9397,1014.82
494198,0.0621712,9.76566,1.39168,1.12,-3.22,-0.35,21.6007,-44.9185,-25.6985,1014.83
494204,0.0813008,9.76566,1.39646,1.61,-2.87,-0.42,22.2109,-45.9671,-26.2009,1014.83
494210,0.0669536,9.77523,1.39646,1.47,-2.73,-0.35,21.1649,-43.9008,-26.7033,1014.85
494216,0.0191296,9.74653,1.41559,1.61,-2.8,-0.7,21.0486,-44.9802,-26.659,1014.85
494222,0.0382592,9.78001,1.3869,1.12,-2.94,-0.91,22.4724,-46.3989,-26.9101,1014.83
494228,0.0047824,9.73218,1.37733,1.19,-2.38,-1.12,21.5135,-43.8083,-26.9397,1014.83
494234,0.0143472,9.74653,1.42994,1.12,-2.66,-0.7,21.5426,-44.5793,-26.9397,1014.8
494240,-0.0143472,9.77523,1.3869,0.98,-2.52,-0.56,21.8913,-45.3811,-26.0088,1014.8
494246,-0.023912,9.73697,1.41559,1.19,-3.01,-1.19,21.4845,-45.9054,-26.0827,1014.8
494252,-0.0191296,9.74175,1.40603,0.98,-3.22,-1.26,21.8913,-43.7775,-26.9693,1014.82
494258,-0.0430416,9.7561,1.39168,0.98,-2.52,-0.77,22.1528,-45.2269,-26.1418,1014.82
494264,-0.0191296,9.74175,1.36298,1.12,-2.66,-1.19,21.8332,-45.5045,-26.4816,1014.82
494270,-0.0143472,9.78001,1.36777,0.91,-3.01,-0.98,22.0656,-44.7335,-27.4125,1014.82
494276,-0.0191296,9.76566,1.39646,1.05,-2.94,-0.84,21.3683,-45.2886,-27.2205,1014.78
494282,-0.0047824,9.72262,1.40124,1.12,-3.01,-0.07,21.7751,-46.1521,-26.2895,1014.78
494288,-0.0047824,9.71305,1.42037,0.84,-2.87,-0.84,21.7751,-45.4428,-26.659,1014.82
494294,0.0047824,9.69871,1.46341,1.05,-3.15,-0.91,21.1939,-45.0419,-26.6442,1014.82
494300,0.0095648,9.71305,1.43472,1.12,-2.8,-0.42,21.0777,-45.6895,-26.7772,1014.82
494306,0.0047824,9.73697,1.44428,1.33,-3.01,-0.7,21.8041,-44.8569,-26.3191,1014.81
494312,-0.0191296,9.69871,1.44907,1.47,-3.08,-0.7,21.6879,-44.4559,-26.9988,1014.81
494318,-1.20038,9.70349,1.46341,1.26,-3.36,-0.56,21.4554,-45.5662,-26.4816,1014.84
494324,-0.0143472,9.78001,1.40603,1.68,-3.29,-1.05,21.8041,-46.183,-27.0284,1014.84
494330,0.0143472,9.74653,1.39168,1.54,-2.24,-1.26,21.4554,-43.9934,-26.4078,1014.82
494336,-0.0047824,9.75131,1.40124,1.05,-2.31,-0.49,21.1649,-45.0111,-25.994,1014.82
494342,-0.0095648,9.70349,1.42994,1.19,-3.22,-0.21,21.8332,-45.9363,-26.0827,1014.83
494348,-0.0286944,9.72262,1.39168,1.26,-2.94,-0.56,21.6007,-44.0242,-26.7328,1014.83
494354,-0.023912,9.7274,1.42516,1.54,-2.66,-0.7,22.0075,-44.0859,-27.0579,1014.84
494360,-0.0191296,9.76088,1.40124,0.91,-2.94,-0.14,21.4264,-45.412,-26.6442,1014.84
494366,-0.0334768,9.73218,1.39646,1.19,-3.15,-0.21,21.0196,-44.7643,-26.4669,1014.84
494372,-0.0669536,9.73218,1.39646,1.4,-2.8,-0.98,20.5547,-44.0242,-25.6689,1014.82
494378,-0.0334768,9.71784,1.44428,1.33,-2.52,0.42,20.7581,-45.4428,-27.0579,1014.82
494384,-0.0382592,9.73697,1.44907,1.54,-3.15,-0.77,20.7581,-46.0596,-26.5112,1014.83
494390,0.0047824,9.72262,1.44907,1.4,-2.94,-0.49,21.3973,-44.2092,-27.4273,1014.83
494396,-0.0191296,9.75131,1.41559,1.54,-3.29,0.35,21.4264,-44.2092,-25.9497,1014.83
494402,-0.0334768,9.68914,1.48733,1.68,-3.36,0.28,22.1237,-45.2886,-26.5998,1014.83
494408,0.0143472,9.70827,1.48733,1.82,-3.15,-0.7,21.6879,-44.8877,-26.3339,1014.85
494414,0.0908656,9.77044,1.3869,2.17,-3.29,-0.42,21.223,-44.0859,-27.5012,1014.85
494420,0.0143472,9.76088,1.39646,1.47,-2.8,0.14,21.9203,-45.5045,-25.6689,1014.85
494426,0.0047824,9.78479,1.39646,2.03,-2.8,-0.35,21.746,-45.1961,-25.7871,1014.83
494432,-0.0095648,9.71784,1.40603,1.26,-2.52,-1.26,21.8622,-43.87,-25.728,1014.83
494438,-0.0191296,9.73697,1.44907,1.89,-2.59,-0.42,21.6879,-44.4251,-26.6146,1014.84
494444,0.0143472,9.73697,1.45385,1.61,-2.94,-1.19,21.8622,-45.2269,-25.8019,1014.84
494450,-0.0286944,9.78001,1.36777,1.47,-2.94,0.07,21.8041,-43.6233,-25.7576,1014.81
494456,-0.0526064,9.76566,1.40603,1.47,-2.38,0,21.3973,-44.6718,-26.5703,1014.81
494462,-0.0908656,9.71784,1.42516,1.12,-2.66,-0.35,21.9203,-45.6587,-26.5998,1014.83
494468,-0.0143472,9.71305,1.49211,1.4,-3.22,-0.63,21.5717,-44.4868,-27.3239,1014.83
494474,0.0095648,9.76566,1.39168,1.82,-3.01,-0.21,21.7751,-43.9625,-26.7328,1014.83
494480,-0.0382592,9.7561,1.40124,1.47,-2.59,-0.14,22.4434,-45.4428,-26.7624,1014.84
494486,-0.0765184,9.71305,1.44907,1.12,-3.01,-0.35,21.8041,-45.3503,-25.9201,1014.84
494492,0,9.68436,1.48254,1.19,-3.15,-0.42,21.7751,-43.9625,-26.7033,1014.8
494498,0.023912,9.67001,1.49689,2.52,-3.36,0.28,21.5426,-45.0419,-26.8363,1014.8
494504,0.0047824,9.75131,1.40124,2.03,-3.15,0,22.2109,-45.7204,-25.6098,1014.82
494510,-0.0286944,9.77523,1.41559,1.96,-2.94,-0.7,21.8913,-43.7775,-26.1566,1014.82
494516,-0.0573888,9.75131,1.40603,1.89,-2.73,-0.28,21.6298,-44.9185,-26.0531,1014.84
494522,-0.0095648,9.7561,1.41081,1.82,-3.08,0,22.4143,-45.9054,-26.0827,1014.84
494528,-0.0286944,9.77523,1.38211,1.96,-3.01,0.28,22.1818,-44.0859,-26.5851,1014.79
494534,-0.0430416,9.78001,1.41559,1.75,-3.15,0.14,22.2981,-44.3943,-27.9741,1014.79
494540,-0.0765184,9.71784,1.45385,1.54,-3.36,0,22.1237,-45.597,-26.6146,1014.79
494546,-0.0526064,9.73218,1.47298,1.54,-2.59,0.49,21.8332,-44.1167,-27.5603,1014.82
494552,0.0047824,9.7561,1.4682,1.89,-2.52,0.42,21.3392,-44.1476,-27.6785,1014.82
494558,-0.0191296,9.73218,1.42516,1.68,-3.08,0,21.7751,-43.7775,-27.2205,1014.82
494564,-0.0191296,9.74175,1.43472,1.54,-2.73,0.21,21.8913,-45.7512,-27.4273,1014.82
494570,-0.0191296,9.73218,1.41081,1.75,-2.66,0.56,22.3852,-43.8083,-27.3534,1014.8
494576,0.0191296,9.71305,1.43472,1.54,-3.01,0.14,21.6298,-44.826,-27.9445,1014.8
494582,-0.047824,9.72262,1.41081,1.96,-3.5,0.35,21.5717,-45.2269,-26.6442,1014.8
494588,0,9.7274,1.47298,1.54,-2.94,0.42,21.1358,-43.3457,-28.7868,1014.8
494594,-0.047824,9.71784,1.44907,1.82,-2.94,0.35,21.9203,-44.2709,-27.2057,1014.8
494600,0.0143472,9.75131,1.44428,2.17,-3.08,0.77,21.6298,-45.5045,-28.0627,1014.79
494606,0.0191296,9.76566,1.40124,2.17,-3.01,0.63,21.9785,-45.0419,-27.7524,1014.79
494612,-0.0143472,9.78001,1.39168,1.96,-2.87,0.49,21.3683,-44.055,-28.3287,1014.79
494618,0.0095648,9.76088,1.40603,2.03,-3.5,0.7,21.9494,-45.1344,-28.0775,1014.79
494624,-0.023912,9.78479,1.43472,1.96,-3.01,0.7,21.5717,-45.2886,-26.5703,1014.82
494630,-0.0047824,9.76088,1.40124,2.17,-2.87,0.28,21.3973,-44.1167,-27.1022,1014.82
494636,-0.0047824,9.70349,1.45863,1.89,-3.15,0.56,21.5135,-44.9494,-28.1218,1014.85
494642,0.0047824,9.7561,1.46341,2.1,-3.01,0.98,21.8622,-45.4428,-26.9101,1014.85
494648,-0.0095648,9.72262,1.41559,2.17,-3.22,0.91,21.3973,-44.055,-26.984,1014.85
494654,-0.0382592,9.69392,1.44428,1.96,-3.15,0.98,22.0366,-44.5176,-27.3978,1014.83
494660,-0.0191296,9.70349,1.49211,2.1,-3.08,0.77,22.0366,-45.6279,-27.7081,1014.83
494666,-0.0095648,9.69392,1.44907,3.08,-3.08,0.91,21.8332,-44.6718,-28.0332,1014.82
494672,0.0047824,9.76566,1.45385,2.94,-2.66,1.26,21.1358,-43.9934,-27.6785,1014.82
494678,0.023912,9.7561,1.37255,2.87,-3.15,0.91,22.0366,-44.6718,-26.8067,1014.79
494684,0.0191296,9.76566,1.38211,2.31,-3.15,0.49,21.8913,-44.7027,-26.8806,1014.79
494690,0.0382592,9.78957,1.41559,2.94,-3.78,0.7,21.8332,-43.5308,-27.7376,1014.8
494696,0.0191296,9.73697,1.4395,2.52,-2.73,1.05,21.252,-43.7158,-27.6194,1014.8
494702,-0.023912,9.74175,1.42037,3.01,-3.01,0.84,21.8913,-45.5353,-26.2748,1014.78
