Timestamp,AccX,AccY,AccZ,AngularVelX,AngularVelY,AngularVelZ,MagX,MagY,MagZ,AirPressure
34112,-0.473458,9.71784,1.16212,0.49,0.42,-0.21,-29.1621,-37.5188,-1.50202,1014.47
34118,-0.511717,9.74653,1.16212,0.42,-0.21,0.07,-30.1933,-37.8661,-1.53038,1014.47
34124,-0.483022,9.7561,1.17169,0.42,0.28,-0.07,-30.3366,-38.4159,-1.47367,1014.44
34130,-0.516499,9.7561,1.13343,0.35,0.21,-0.07,-30.2506,-37.9239,-2.05493,1014.44
34136,-0.454328,9.78001,1.16212,0.49,0.21,-0.21,-29.8496,-37.9818,-1.06253,1014.41
34142,-0.487805,9.74175,1.15256,0.07,0.14,-0.14,-29.9069,-37.8371,-1.23266,1014.41
34148,-0.506934,9.77044,1.14299,0.42,-0.21,-0.42,-29.9928,-37.3741,0.0149313,1014.45
34154,-0.502152,9.78957,1.15256,0.21,0.35,-0.49,-29.9355,-38.7342,-1.84227,1014.45
34160,-0.506934,9.76566,1.15256,0.14,-0.35,-0.49,-30.222,-37.6056,-0.82152,1014.42
34166,-0.530846,9.76566,1.16212,0.35,-0.35,-0.28,-30.0788,-37.6924,-0.509623,1014.42
34172,-0.483022,9.7274,1.16691,0.07,-0.56,-0.35,-30.0501,-37.403,-0.793166,1014.44
34178,-0.483022,9.74175,1.15734,0.21,-0.35,-0.35,-30.1933,-38.0108,-0.963291,1014.44
34184,-0.506934,9.7561,1.17647,0.49,0,-0.14,-30.136,-37.432,-1.37443,1014.44
34190,-0.506934,9.78957,1.15256,0.07,-0.49,-0.28,-29.8496,-37.9818,-0.566332,1014.44
34196,-0.521282,9.79436,1.12865,-0.21,-0.28,0,-29.6777,-38.5895,-1.43114,1014.45
34202,-0.511717,9.76566,1.13343,0.21,-0.21,0.21,-29.5058,-37.9239,-1.71468,1014.45
34208,-0.483022,9.7561,1.19082,0.21,0.21,-0.35,-30.1933,-37.6346,-1.26101,1014.45
34214,-0.468675,9.71784,1.19082,0.21,0.14,0.14,-30.1933,-37.9239,-1.26101,1014.49
34220,-0.483022,9.74175,1.19082,0.49,-0.21,-0.07,-29.7636,-38.358,-2.11164,1014.49
34226,-0.49737,9.73218,1.18125,0.42,0.35,-0.21,-30.3939,-38.0976,-0.963291,1014.43
34232,-0.492587,9.74653,1.18604,0.49,-0.35,0.14,-30.623,-38.4448,-1.06253,1014.43
34238,-0.47824,9.74653,1.19082,0.49,-0.28,-0.07,-30.2793,-38.9657,-0.736457,1014.43
34244,-0.439981,9.74653,1.14778,0.07,-0.7,-0.28,-30.2793,-37.9529,-1.55873,1014.43
34250,-0.506934,9.7274,1.16212,0.28,-0.14,-0.28,-29.8496,-37.8371,-1.57291,1014.47
34256,-0.492587,9.74175,1.14778,0.56,0.42,-0.28,-29.5631,-38.7053,-1.72886,1014.47
34262,-0.492587,9.74653,1.16212,0.35,0,-0.28,-30.4512,-38.6764,-1.31772,1014.45
34268,-0.49737,9.76566,1.17169,0.63,0.28,-0.28,-30.2793,-38.387,-1.02,1014.45
34274,-0.506934,9.7561,1.17647,0.56,-0.56,-0.21,-30.2506,-38.2712,-1.99822,1014.44
34280,-0.49737,9.78001,1.16212,0.28,-0.14,-0.42,-30.1933,-38.4448,-1.40278,1014.44
34286,-0.506934,9.78479,1.17169,0.42,-0.7,0,-30.3079,-38.2712,-1.41696,1014.44
34292,-0.502152,9.77044,1.17647,0.07,-0.28,-0.35,-30.0501,-38.8789,-1.79974,1014.46
34298,-0.49737,9.77523,1.18604,0.49,-0.77,0.07,-30.222,-37.9239,-0.5238,1014.46
34304,-0.49737,9.76566,1.15256,0.14,-0.14,-0.35,-30.0788,-38.3291,-1.16177,1014.44
34310,-0.502152,9.74175,1.16691,0.42,0.21,0,-30.3366,-38.7053,-2.0124,1014.44
34316,-0.487805,9.72262,1.17169,0.21,0.42,-0.21,-30.4512,-38.358,-1.87063,1014.45
34322,-0.492587,9.7561,1.17647,-0.21,0.49,-0.35,-30.2793,-38.358,-1.7005,1014.45
34328,-0.502152,9.76088,1.15256,0,-0.28,0,-29.9928,-38.0686,-2.05493,1014.44
34334,-0.468675,9.74653,1.14778,0.28,0.21,-0.07,-31.8548,-39.1104,-2.1967,1014.44
34340,-0.439981,9.74175,1.18125,-0.07,-0.63,-0.14,-30.5085,-38.0686,-1.45949,1014.47
34346,-0.473458,9.70827,1.20995,0.21,-0.35,0,-29.9069,-38.1265,-1.13342,1014.47
34352,-0.487805,9.76088,1.17169,0.7,-0.63,-0.42,-30.4798,-37.5477,-2.76379,1014.41
34358,-0.516499,9.7274,1.17169,0.35,-0.07,-0.21,-30.222,-38.0976,-1.98405,1014.41
34364,-0.502152,9.75131,1.16691,0.21,0.35,0,-29.735,-37.6056,-0.693926,1014.43
34370,-0.487805,9.73218,1.13821,0.14,0.07,-0.56,-29.9642,-38.2423,-1.11924,1014.43
34376,-0.483022,9.7561,1.15256,0.21,0.56,-0.07,-29.9355,-38.1265,-1.31772,1014.43
34382,-0.45911,9.74653,1.16212,0.56,0.21,-0.21,-30.222,-37.6346,-3.21746,1014.43
34388,-0.516499,9.76088,1.17169,0,0.07,-0.84,-29.9355,-38.4448,-1.58709,1014.43
34394,-0.506934,9.79436,1.15734,-0.14,0.35,-0.42,-29.5918,-38.358,-2.11164,1014.44
34400,-0.521282,9.76088,1.15734,-0.28,-0.07,-0.07,-29.7063,-38.4738,-0.708103,1014.44
34406,-0.521282,9.77523,1.16212,0.21,0.28,-0.28,-30.3366,-37.8661,-1.24683,1014.45
34412,-0.521282,9.7561,1.15256,0,0.42,0.21,-30.0501,-37.6635,-0.72228,1014.45
34418,-0.487805,9.76088,1.16212,-0.07,-0.14,0.07,-29.9928,-38.0108,-0.452914,1014.4
34424,-0.535629,9.75131,1.14778,0.35,-0.07,-0.14,-29.7636,-37.5767,-1.19013,1014.4
34430,-0.47824,9.75131,1.17169,0.42,-0.63,-0.14,-30.623,-38.0976,-1.61544,1014.45
34436,-0.463893,9.7274,1.19082,0.14,0.21,0.28,-30.1933,-38.0686,-0.764811,1014.45
34442,-0.502152,9.7274,1.18604,0.28,-0.07,-0.14,-30.5085,-38.0976,-1.94151,1014.47
34448,-0.506934,9.78479,1.17169,0.14,0.49,0.21,-29.6491,-37.8371,-1.40278,1014.47
34454,-0.483022,9.74653,1.16691,0.42,0.28,0.21,-30.1074,-37.3452,-1.40278,1014.47
34460,-0.47824,9.7274,1.18125,0.14,0.35,-0.07,-30.3939,-38.2133,0.17088,1014.45
34466,-0.502152,9.7274,1.1956,0.35,-0.28,0.07,-30.0788,-38.2712,-0.906583,1014.45
34472,-0.492587,9.74175,1.14778,0.7,-0.07,-0.14,-30.7376,-38.358,-1.21848,1014.45
34478,-0.473458,9.74175,1.16212,0.35,-0.35,-0.28,-29.8782,-38.1555,-0.566332,1014.45
34484,-0.483022,9.74653,1.16212,0.56,0.07,0.14,-30.3939,-38.4738,-1.14759,1014.43
34490,-0.492587,9.76088,1.15734,0.77,0.56,-0.07,-29.9928,-37.9818,-1.71468,1014.43
34496,-0.526064,9.77044,1.13821,0.14,0.28,-0.21,-30.709,-38.1555,-0.637217,1014.43
34502,-0.526064,9.76566,1.15734,0.14,-0.07,-0.14,-30.136,-37.5767,-1.34607,1014.43
34508,-0.516499,9.77523,1.15734,0.28,-0.63,0.14,-30.5085,-37.9529,-0.963291,1014.44
34514,-0.549976,9.76566,1.16212,-0.07,-0.35,0,-30.3652,-37.6056,-0.382029,1014.44
34520,-0.502152,9.75131,1.18604,-0.35,-0.28,0.35,-30.1933,-37.8661,-1.27519,1014.45
34526,-0.45911,9.74175,1.19082,0.14,0.07,0.07,-29.6777,-38.1555,-2.67873,1014.45
34532,-0.49737,9.74175,1.19082,0.28,0.21,0,-30.2506,-38.358,-1.03418,1014.45
34538,-0.454328,9.7274,1.20038,0.56,-0.07,-0.07,-29.8782,-37.3452,-1.99822,1014.48
34544,-0.487805,9.7561,1.20038,0.63,0,0.14,-31.0241,-38.0976,-2.04075,1014.48
34550,-0.468675,9.75131,1.18125,0.49,0.07,0.28,-30.136,-37.9529,-1.26101,1014.43
34556,-0.502152,9.76088,1.15256,0.7,-0.07,0,-29.9928,-37.7214,-1.14759,1014.43
34562,-0.492587,9.77523,1.17647,0.56,0.07,-0.07,-29.9642,-38.358,-2.1967,1014.45
34568,-0.468675,9.77044,1.16691,0.49,-0.07,-0.14,-29.4485,-37.6056,-2.0124,1014.45
34574,-0.487805,9.75131,1.17647,0.56,0.14,-0.07,-28.9329,-37.8082,-2.29594,1014.41
34580,-0.454328,9.77044,1.13821,0.49,-0.28,-0.56,-29.7063,-38.2133,-0.679749,1014.41
34586,-0.487805,9.7561,1.15734,0.21,-0.21,-0.14,-29.9069,-37.5188,-1.2043,1014.43
34592,-0.521282,9.7561,1.16691,0.42,-0.35,0.21,-29.9642,-38.0108,-1.8281,1014.43
34598,-0.506934,9.7561,1.16691,0.49,0.28,-0.14,-29.9355,-38.2423,-1.02,1014.45
34604,-0.511717,9.77523,1.12865,0.07,-0.07,0.28,-30.4512,-37.8082,-2.11164,1014.45
34610,-0.502152,9.77044,1.13821,0.56,0,-0.07,-30.2793,-37.3452,-2.21088,1014.46
34616,-0.487805,9.7561,1.15734,0.28,0.21,0,-30.0501,-38.1265,-1.36025,1014.46
34622,-0.511717,9.77044,1.20038,0.14,0.21,0.35,-30.1933,-38.0686,-2.28177,1014.46
34628,-0.49737,9.77044,1.16691,0.42,-0.21,0.14,-30.0501,-38.2712,-1.94151,1014.46
34634,-0.468675,9.7274,1.17169,0.84,-0.56,-0.14,-30.3079,-38.4448,-0.467091,1014.46
34640,-0.492587,9.71784,1.18604,0.21,-0.14,0.21,-29.9642,-38.358,-1.55873,1014.45
34646,-0.473458,9.76088,1.16691,0.42,-0.14,0.07,-30.4798,-37.8661,-1.53038,1014.45
34652,-0.49737,9.74653,1.16212,0.14,-0.14,-0.28,-29.9069,-38.3001,-1.78557,1014.44
34658,-0.449546,9.74653,1.18604,0.49,0,0.14,-30.2793,-37.895,-1.07671,1014.44
34664,-0.487805,9.75131,1.16691,0.49,0.42,-0.14,-30.1647,-38.1844,-1.64379,1014.44
34670,-0.463893,9.77044,1.17647,0.49,0.21,-0.42,-29.7636,-37.9239,-0.764811,1014.44
34676,-0.463893,9.76088,1.17169,0.77,0.28,-0.49,-30.4512,-37.6056,-1.47367,1014.42
34682,-0.487805,9.7561,1.15734,0.63,0.07,-0.49,-30.222,-37.3741,-1.44531,1014.42
34688,-0.483022,9.74653,1.16691,0.49,-0.21,-0.63,-29.735,-37.3162,-1.24683,1014.45
34694,-0.511717,9.77523,1.14299,0.35,-0.56,-0.28,-30.4512,-37.9529,-0.438737,1014.45
34700,-0.530846,9.75131,1.14299,0.21,-0.28,-0.35,-29.7636,-37.8082,-1.91316,1014.45
34706,-0.540411,9.76088,1.15734,0.14,0.28,-0.14,-30.3079,-37.7503,-0.665572,1014.45
34712,-0.535629,9.79436,1.16691,0.28,0.49,-0.21,-30.709,-37.8371,-0.906583,1014.45
34718,-0.502152,9.76088,1.17647,0.21,0,-0.07,-29.9928,-38.358,-1.89898,1014.43
34724,-0.511717,9.77523,1.16691,0.28,-0.49,0,-30.5371,-37.895,-1.88481,1014.43
34730,-0.516499,9.77523,1.15256,0.14,-0.07,-0.14,-30.7663,-37.5767,-1.65797,1014.41
34736,-0.430416,9.74175,1.15256,0.14,0,0.14,-29.5345,-38.2712,-1.8281,1014.41
34742,-0.487805,9.78001,1.15256,0.21,0,0,-29.7063,-37.5188,-1.21848,1014.46
34748,-0.47824,9.7274,1.18125,0.84,0.28,-0.14,-30.3652,-37.3162,-0.651394,1014.46
34754,-0.502152,9.7274,1.17169,0.63,0.14,-0.21,-30.3939,-37.8661,-1.47367,1014.45
34760,-0.47824,9.72262,1.17647,0.07,0.07,-0.21,-30.222,-37.7793,-0.608863,1014.45
34766,-0.511717,9.7561,1.17647,0.63,0,-0.14,-30.2793,-38.358,-0.963291,1014.45
34772,-0.449546,9.71784,1.16212,0.28,0.21,-0.21,-30.0501,-37.6924,-1.48785,1014.45
34778,-0.47824,9.74653,1.17169,0.28,0.07,-0.28,-30.3939,-37.895,-1.34607,1014.42
34784,-0.473458,9.71305,1.15734,1.05,-0.21,-0.35,-30.4225,-38.0397,-2.02658,1014.42
34790,-0.483022,9.73218,1.16691,0.35,0.14,-0.14,-29.4485,-38.3001,-1.85645,1014.42
34796,-0.49737,9.77523,1.16212,0.28,0.28,-0.14,-29.7636,-37.7214,-1.92734,1014.46
34802,-0.521282,9.75131,1.12386,0.56,0.56,-0.07,-30.0215,-37.7214,-1.13342,1014.46
34808,-0.511717,9.78479,1.15256,0.28,-0.21,-0.35,-30.3079,-38.1555,-2.35265,1014.43
34814,-0.511717,9.78479,1.17169,0,-0.42,-0.14,-30.0501,-38.358,-1.17595,1014.43
34820,-0.506934,9.78957,1.14778,0.21,-0.21,0.07,-29.735,-38.7342,-0.537977,1014.41
34826,-0.559541,9.78479,1.16691,0.14,-0.63,0,-29.3626,-37.8661,-0.679749,1014.41
34832,-0.487805,9.76566,1.15734,0.21,0.07,0.28,-29.4199,-38.3291,-0.240257,1014.43
34838,-0.454328,9.74653,1.17647,0.21,-0.21,-0.28,-29.9642,-38.2423,-1.99822,1014.43
34844,-0.468675,9.74653,1.18125,0.21,0.56,-0.07,-31.11,-38.6185,-2.06911,1014.41
34850,-0.439981,9.71305,1.18604,0.21,-0.07,0.35,-30.136,-38.0686,-2.02658,1014.41
34856,-0.473458,9.74175,1.17169,0.14,0.35,-0.42,-29.5631,-38.0108,-1.03418,1014.44
34862,-0.483022,9.73218,1.16212,-0.07,0.07,-0.21,-29.1048,-37.432,-1.87063,1014.44
34868,-0.47824,9.74175,1.15734,0.35,-0.42,0,-29.9069,-38.1265,-1.24683,1014.44
34874,-0.473458,9.76088,1.17169,0.28,-0.42,-0.42,-29.5631,-38.1265,-1.09089,1014.43
34880,-0.49737,9.76088,1.16212,0.21,-0.49,0.07,-30.0501,-37.9239,-0.367851,1014.43
34886,-0.506934,9.77523,1.16691,0.28,0.28,0.35,-29.4485,-38.2423,-1.09089,1014.39
34892,-0.506934,9.74175,1.18125,0.28,-0.56,-0.21,-29.6204,-38.4159,-1.7005,1014.39
34898,-0.463893,9.76088,1.17647,0.21,0.77,0.21,-30.5371,-38.4159,-1.98405,1014.44
34904,-0.47824,9.75131,1.17647,0.49,-0.21,0,-30.1933,-37.7503,-1.81392,1014.44
34910,-0.473458,9.74175,1.15734,0.28,0.49,-0.21,-30.0788,-37.8661,-1.10506,1014.47
34916,-0.454328,9.77523,1.18604,0.77,-0.35,0.14,-29.4772,-38.1555,-2.1967,1014.47
34922,-0.502152,9.78001,1.13821,0.7,-0.63,-0.07,-29.2194,-37.7793,-1.21848,1014.46
34928,-0.511717,9.74175,1.14299,0.63,-0.56,-0.28,-29.5345,-38.0976,-1.71468,1014.46
34934,-0.521282,9.76088,1.16212,0.28,-0.35,0,-29.6777,-37.5477,-1.40278,1014.42
34940,-0.521282,9.7561,1.18604,0.42,0,-0.07,-30.0215,-37.3741,-0.566332,1014.42
34946,-0.502152,9.76566,1.13821,0.28,-0.35,0.07,-30.7949,-38.4159,-2.28177,1014.42
34952,-0.516499,9.74653,1.18125,-0.07,0.28,0,-30.1933,-38.2133,-1.61544,1014.42
34958,-0.473458,9.76088,1.17169,0.21,0.14,-0.28,-29.3626,-37.0558,-1.64379,1014.42
34964,-0.468675,9.72262,1.1956,0.42,0.35,0,-29.4199,-37.8082,-1.03418,1014.42
34970,-0.468675,9.74175,1.15734,0.35,0,-0.35,-29.2766,-37.7503,-1.43114,1014.42
34976,-0.473458,9.74175,1.18604,0.07,-0.56,-0.35,-29.6204,-37.6056,-1.55873,1014.45
34982,-0.483022,9.74653,1.20516,-0.07,-0.21,-0.14,-29.8782,-37.1137,-2.02658,1014.45
34988,-0.468675,9.74175,1.17647,-0.14,-0.07,-0.21,-30.1074,-37.2584,-1.45949,1014.45
34994,-0.468675,9.74653,1.16212,0.07,0.14,-0.42,-29.6777,-38.2712,-0.835697,1014.45
35000,-0.463893,9.76088,1.16212,0.14,-0.07,0.07,-29.9642,-37.9818,-1.28937,1014.45
35006,-0.483022,9.70827,1.14778,0.14,0.56,-0.56,-29.4772,-38.2712,-1.72886,1014.45
35012,-0.473458,9.75131,1.17647,0.49,0.14,0,-30.4798,-36.7953,-0.849874,1014.42
35018,-0.487805,9.76088,1.16691,0.49,0.42,-0.49,-30.6803,-38.4159,-1.88481,1014.42
35024,-0.483022,9.77523,1.15256,0.28,-0.07,-0.35,-29.8782,-37.9818,-1.44531,1014.43
35030,-0.487805,9.76088,1.17169,0.7,-0.14,0,-30.3652,-37.6635,-0.0559544,1014.43
35036,-0.49737,9.76566,1.14778,0.07,0,-0.63,-30.0215,-37.8371,-0.651394,1014.43
35042,-0.492587,9.78957,1.14778,0.28,-0.7,-0.14,-30.222,-38.0108,-1.38861,1014.44
35048,-0.516499,9.77044,1.16212,0.56,-0.28,0.07,-29.8782,-37.6346,-1.21848,1014.44
35054,-0.516499,9.80392,1.13821,0.21,-0.63,-0.07,-29.5058,-37.9818,-1.03418,1014.43
35060,-0.502152,9.74653,1.16212,0.28,-0.21,-0.14,-30.1647,-37.6924,-1.37443,1014.43
35066,-0.47824,9.73697,1.17647,-0.21,0.63,0.14,-29.8209,-37.7793,-1.5162,1014.42
35072,-0.492587,9.7561,1.17647,0.28,0.28,0.14,-30.1647,-37.895,-1.79974,1014.42
35078,-0.49737,9.74653,1.16212,0.21,0.49,0.14,-30.2506,-37.9239,0.0291085,1014.43
35084,-0.468675,9.74653,1.17647,0.07,-0.28,0,-29.9642,-37.6924,-0.835697,1014.43
35090,-0.47824,9.74653,1.19082,0.42,0.21,-0.35,-29.6491,-38.0686,-1.60126,1014.42
35096,-0.47824,9.71305,1.19082,0.07,-0.35,-0.14,-29.5345,-37.8371,-1.98405,1014.42
35102,-0.506934,9.76088,1.1956,0.77,0.14,-0.35,-29.3339,-37.6346,-1.74303,1014.43
35108,-0.487805,9.7561,1.15734,0.21,-0.35,-0.35,-29.8782,-37.2873,-0.467091,1014.43
35114,-0.463893,9.75131,1.16691,0.14,0.35,-0.42,-29.9928,-37.6924,-0.396206,1014.43
35120,-0.483022,9.74175,1.19082,0.49,0.42,-0.14,-29.7923,-37.6056,-1.78557,1014.45
35126,-0.492587,9.74653,1.18125,0.21,0.63,-0.56,-29.8496,-37.2584,-1.44531,1014.45
35132,-0.526064,9.7561,1.15734,0,0,-0.28,-29.6777,-37.9239,-0.963291,1014.46
35138,-0.521282,9.76088,1.14778,0.49,-0.35,0.14,-29.8496,-38.0976,0.142526,1014.46
35144,-0.45911,9.76566,1.14299,0.49,-0.35,-0.28,-29.8209,-38.0976,-0.438737,1014.44
35150,-0.516499,9.76566,1.18125,0.49,-0.63,0.07,-29.7636,-38.0976,-1.62962,1014.44
35156,-0.502152,9.76566,1.16212,0.14,0,0.21,-30.5371,-38.0686,-2.0124,1014.44
35162,-0.516499,9.78479,1.16212,-0.21,-0.21,-0.07,-29.4772,-37.7214,-1.16177,1014.44
35168,-0.506934,9.75131,1.16691,0.07,0.56,0.21,-29.8782,-37.8661,-1.88481,1014.46
35174,-0.47824,9.72262,1.20038,0.56,0.7,0.21,-30.136,-37.2584,-1.23266,1014.46
35180,-0.483022,9.72262,1.18604,0.28,0.49,0.14,-29.5058,-37.9529,-0.552154,1014.42
35186,-0.549976,9.74175,1.16691,0.07,0.07,0.35,-30.0501,-38.5317,-1.55873,1014.42
35192,-0.47824,9.78957,1.18125,0,-0.56,0,-29.7063,-38.0976,-1.07671,1014.42
35198,-0.439981,9.71784,1.20516,0.35,0.42,0.42,-30.2793,-38.0976,-1.34607,1014.45
35204,-0.483022,9.70827,1.1956,0.56,0,-0.07,-30.136,-37.9818,-0.934937,1014.45
35210,-0.463893,9.71305,1.18125,0.49,-0.49,0.21,-30.136,-38.1555,-1.78557,1014.44
35216,-0.463893,9.73218,1.19082,0.14,-0.14,-0.35,-29.8496,-38.0397,-0.82152,1014.44
35222,-0.487805,9.73218,1.16212,0,-0.14,-0.07,-29.5058,-37.6924,-1.65797,1014.47
35228,-0.468675,9.75131,1.17169,0.21,0.35,-0.28,-30.1933,-38.4159,-1.00582,1014.47
35234,-0.463893,9.73218,1.15256,0.42,0.14,-0.14,-30.2506,-38.1555,-1.21848,1014.44
35240,-0.506934,9.76088,1.15256,0,0.49,-0.14,-30.0788,-38.0686,-0.934937,1014.44
35246,-0.521282,9.76088,1.13821,0.35,0,0.07,-30.1647,-38.2712,-0.42456,1014.48
35252,-0.47824,9.75131,1.16212,0.21,0.56,-0.14,-30.3652,-38.6185,-0.594686,1014.48
35258,-0.492587,9.77044,1.15256,-0.35,-0.07,-0.14,-29.7923,-37.2873,-0.864051,1014.43
35264,-0.468675,9.75131,1.19082,0.28,-0.7,0.07,-30.222,-37.7214,-1.54455,1014.43
35270,-0.516499,9.75131,1.17169,0,-0.42,-0.35,-29.9069,-37.7503,-1.58709,1014.44
35276,-0.530846,9.77044,1.17647,-0.14,-0.21,0.42,-30.4798,-38.0976,-0.949114,1014.44
35282,-0.492587,9.78001,1.17169,0.63,0.49,0.35,-30.0501,-37.5767,-0.665572,1014.44
35288,-0.483022,9.77044,1.17647,0.21,-0.21,-0.56,-29.7636,-38.1555,-0.495446,1014.45
35294,-0.47824,9.74653,1.16691,-0.14,0.49,0.07,-30.222,-37.9239,-1.92734,1014.45
35300,-0.530846,9.76566,1.14778,0.14,-0.28,0.49,-30.1074,-37.6346,-0.906583,1014.43
35306,-0.511717,9.78001,1.15734,-0.14,0.49,0.07,-29.2194,-37.9239,-1.72886,1014.43
35312,-0.463893,9.7274,1.17169,0,-0.49,0,-29.6491,-37.8082,-2.46607,1014.45
35318,-0.45911,9.7561,1.15734,0.14,0.21,0.07,-29.7636,-37.2294,-1.88481,1014.45
35324,-0.45911,9.74175,1.18604,0,-0.42,-0.35,-29.9928,-38.1844,-0.665572,1014.44
35330,-0.473458,9.73697,1.17647,0.14,0.21,0.21,-30.1647,-37.9818,-0.934937,1014.44
35336,-0.444763,9.72262,1.19082,0.63,0.35,0.21,-29.7636,-37.8082,-2.28177,1014.45
35342,-0.463893,9.73218,1.16691,0,0.56,-0.28,-29.9355,-37.7214,-1.45949,1014.45
35348,-0.473458,9.75131,1.16691,0.21,-0.35,-0.07,-29.6777,-38.2423,-1.30354,1014.42
35354,-0.47824,9.73218,1.16691,0.77,-0.14,0.07,-30.7663,-37.6635,-1.50202,1014.42
35360,-0.516499,9.78479,1.13821,0.07,-0.49,-0.35,-30.1647,-37.7214,-0.849874,1014.42
35366,-0.483022,9.78479,1.15256,0.49,-0.21,0.14,-30.1933,-37.5767,-1.81392,1014.45
35372,-0.521282,9.76566,1.16212,0.84,-0.14,-0.07,-30.7376,-37.5477,-1.26101,1014.45
35378,-0.506934,9.76088,1.16212,0.14,0.28,-0.07,-29.4485,-38.1555,-2.02658,1014.46
35384,-0.487805,9.77044,1.16691,0.28,0,0.14,-29.5631,-37.6056,-1.72886,1014.46
35390,-0.502152,9.74653,1.16212,0.49,-0.21,-0.35,-29.8209,-37.4609,-1.30354,1014.42
35396,-0.502152,9.7561,1.16691,0.56,-0.35,-0.07,-30.2793,-38.2712,-1.8281,1014.42
35402,-0.49737,9.73697,1.17169,0.63,0.14,0.14,-29.6777,-38.0397,-1.87063,1014.44
35408,-0.49737,9.74175,1.16212,0.35,0.14,-0.07,-29.2766,-38.3291,-1.64379,1014.44
35414,-0.47824,9.74175,1.15734,0.49,0,0.49,-29.7063,-37.7214,-1.19013,1014.44
35420,-0.463893,9.74653,1.17647,0.56,0.21,0,-29.1621,-38.0976,-2.31012,1014.44
35426,-0.463893,9.74175,1.15256,0.49,0.07,-0.35,-29.4199,-37.2584,-1.61544,1014.48
35432,-0.473458,9.75131,1.16691,0.49,0.28,0.07,-29.1334,-38.2712,-1.81392,1014.48
35438,-0.463893,9.73697,1.14778,0.49,-0.28,-0.21,-29.8782,-37.5188,-0.679749,1014.44
35444,-0.468675,9.71784,1.14778,0.42,-0.21,-0.21,-29.7063,-38.3291,-0.878229,1014.44
35450,-0.492587,9.75131,1.15734,-0.07,-0.35,0,-29.5631,-37.6635,-1.07671,1014.44
35456,-0.49737,9.75131,1.15734,0.49,0.28,-0.21,-29.4485,-37.5767,-0.339497,1014.47
35462,-0.502152,9.77044,1.17647,0.63,0.28,-0.35,-30.7949,-37.3741,-0.0701315,1014.47
35468,-0.487805,9.78001,1.15734,0,0.49,-0.14,-29.6204,-37.895,-1.17595,1014.44
35474,-0.47824,9.73218,1.19082,0.49,0.49,-0.35,-29.6777,-37.8082,-1.2043,1014.44
35480,-0.511717,9.76566,1.17647,0.28,-0.14,0,-30.3939,-38.0686,-0.594686,1014.42
35486,-0.49737,9.78479,1.18604,0.49,0.14,-0.21,-29.6491,-37.6056,-0.155194,1014.42
35492,-0.487805,9.77044,1.15256,0.21,-0.84,-0.07,-29.2766,-37.5188,-1.48785,1014.46
35498,-0.492587,9.78001,1.17169,0.98,-0.21,0,-29.9928,-38.2712,-0.736457,1014.46
35504,-0.521282,9.78001,1.13821,-0.14,-0.56,0.21,-29.5918,-38.387,-1.11924,1014.44
35510,-0.487805,9.76088,1.18604,0.14,0.42,0,-29.7063,-37.7214,-1.04835,1014.44
35516,-0.435198,9.7561,1.16691,0.42,0.63,0.28,-30.3939,-38.3291,-0.42456,1014.44
35522,-0.49737,9.76566,1.16691,0.35,0.49,0.14,-30.8522,-37.895,-0.42456,1014.44
35528,-0.449546,9.7274,1.18604,0.42,0,0.28,-29.735,-38.1844,-1.68633,1014.44
35534,-0.45911,9.7274,1.16212,0.49,-0.7,0.14,-30.0788,-37.8371,-0.141017,1014.44
35540,-0.47824,9.75131,1.16691,0.28,-0.35,-0.21,-29.7923,-38.5317,-0.183549,1014.44
35546,-0.454328,9.74175,1.15734,0.28,-0.21,0,-29.9928,-38.0976,-0.679749,1014.46
35552,-0.49737,9.76566,1.17169,0.42,-0.07,0.07,-29.5631,-37.8371,-1.41696,1014.46
35558,-0.47824,9.73218,1.14778,0.07,-0.28,0.21,-29.4772,-37.895,-1.53038,1014.46
35564,-0.47824,9.76566,1.1956,0.63,0.77,0.21,-29.735,-37.9239,-1.37443,1014.46
35570,-0.49737,9.76088,1.15734,0.35,-0.14,-0.21,-30.6517,-38.8211,-1.78557,1014.45
35576,-0.49737,9.74653,1.15256,0.42,0.56,0.07,-30.1074,-38.3001,-1.64379,1014.45
35582,-0.454328,9.7561,1.18125,0.14,-0.49,0.14,-30.0788,-37.8371,0.0999942,1014.43
35588,-0.449546,9.7561,1.14778,0.35,-0.21,-0.35,-29.2194,-38.3291,-1.99822,1014.43
35594,-0.47824,9.78957,1.13821,0.35,-0.07,0.35,-30.6803,-38.2423,-2.08329,1014.45
35600,-0.468675,9.74653,1.13821,0.07,0,0.21,-30.7949,-38.0397,-2.11164,1014.45
35606,-0.454328,9.76088,1.15734,0.21,0.14,-0.28,-29.6491,-38.5606,-1.78557,1014.45
35612,-0.483022,9.78001,1.15734,0.28,0,-0.07,-30.1647,-38.0976,-1.96987,1014.41
35618,-0.463893,9.75131,1.18604,0.63,0.35,0.49,-29.6777,-37.6924,-0.708103,1014.41
35624,-0.487805,9.75131,1.20038,0.14,-0.35,-0.35,-30.3366,-37.3162,-1.37443,1014.43
35630,-0.454328,9.76566,1.18125,0.77,-0.14,0.28,-29.5918,-37.6635,-2.21088,1014.43
35636,-0.492587,9.71305,1.16212,0.28,-0.14,0.21,-29.3912,-37.3162,-1.88481,1014.44
35642,-0.483022,9.74653,1.16691,0.14,0.21,-0.21,-29.7636,-37.3741,-1.71468,1014.44
35648,-0.439981,9.7274,1.19082,0.07,0.07,0.28,-30.0501,-37.7503,-2.33847,1014.43
35654,-0.45911,9.73218,1.1956,0.42,0.14,0.28,-30.1933,-38.1555,-2.89138,1014.43
35660,-0.487805,9.7561,1.15256,0.14,-0.21,0.07,-29.4772,-37.9818,-1.87063,1014.44
35666,-0.492587,9.74175,1.17169,0.14,-0.42,-0.07,-29.5058,-37.7503,-0.878229,1014.44
35672,-0.47824,9.75131,1.16691,0.21,-0.21,0.07,-29.5058,-38.1555,-1.7005,1014.45
35678,-0.473458,9.73697,1.17647,0.42,-0.14,-0.07,-30.0215,-37.2584,-1.58709,1014.45
35684,-0.483022,9.75131,1.16691,0.42,-0.14,-0.21,-30.0215,-38.0108,-1.13342,1014.44
35690,-0.468675,9.78479,1.16691,0.63,-0.21,-0.07,-30.3939,-38.6474,-2.23923,1014.44
35696,-0.506934,9.74175,1.17647,0.56,-0.21,0,-29.735,-37.7793,-1.68633,1014.44
35702,-0.502152,9.74175,1.17169,0.14,-0.21,0.07,-29.3912,-37.6924,-1.28937,1014.44
35708,-0.47824,9.74653,1.17647,0.49,0.28,0.14,-30.0501,-37.7793,-1.7005,1014.44
35714,-0.49737,9.7561,1.17169,0.28,0.07,0,-29.5058,-38.4738,-2.56531,1014.46
35720,-0.492587,9.7561,1.17169,0.35,0.14,0.21,-30.1074,-38.2423,-1.77139,1014.46
35726,-0.526064,9.77044,1.16212,0.49,-0.14,0.07,-29.5918,-37.3452,-1.74303,1014.45
35732,-0.511717,9.78479,1.17169,0.28,0.07,0.21,-29.5631,-37.9529,-1.74303,1014.45
35738,-0.49737,9.74653,1.15256,0.14,0.07,-0.07,-29.9642,-37.7214,-1.40278,1014.43
35744,-0.449546,9.74175,1.16691,0.21,-0.14,0,-29.6777,-37.4899,-2.18253,1014.43
35750,-0.454328,9.75131,1.19082,0.42,-0.21,-0.07,-29.8782,-37.6635,-1.87063,1014.45
35756,-0.487805,9.76566,1.18125,0.49,-0.28,0,-29.2766,-38.2423,-1.44531,1014.45
35762,-0.492587,9.74175,1.17169,0.49,-0.07,-0.14,-29.9928,-37.3452,-2.05493,1014.42
35768,-0.463893,9.7274,1.18604,0.63,0.21,-0.07,-29.5918,-38.0397,-1.5162,1014.42
35774,-0.49737,9.75131,1.16212,0.49,0.49,-0.49,-29.8209,-38.0108,-1.3319,1014.42
35780,-0.473458,9.74175,1.17169,0.21,-0.14,-0.56,-30.1647,-38.3291,-2.60784,1014.41
35786,-0.47824,9.77044,1.18604,0.63,-0.49,-0.07,-29.5058,-37.2005,-1.14759,1014.41
35792,-0.483022,9.7561,1.17647,0,-0.35,-0.35,-30.136,-38.4448,-2.40936,1014.48
35798,-0.511717,9.7561,1.17169,0.14,-0.28,-0.14,-30.1647,-37.2584,-1.37443,1014.48
35804,-0.483022,9.7274,1.17647,0.49,0.21,-0.07,-29.9355,-37.7503,-1.75721,1014.46
35810,-0.511717,9.74653,1.18125,-0.07,0,-0.35,-30.5944,-38.1265,-0.778989,1014.46
35816,-0.463893,9.76566,1.16691,0.21,0.07,-0.14,-29.7923,-37.6924,-0.92076,1014.45
35822,-0.49737,9.78957,1.17169,0.7,-0.49,-0.07,-29.3053,-37.6056,-1.07671,1014.45
35828,-0.49737,9.76566,1.18125,-0.14,-0.21,-0.21,-30.5657,-37.7214,-3.01898,1014.46
35834,-0.483022,9.8087,1.16212,0.21,-0.35,0.21,-30.5371,-38.0397,-1.99822,1014.46
35840,-0.468675,9.78001,1.18604,0.49,-0.14,0.35,-30.0215,-37.8371,-1.53038,1014.44
35846,-0.473458,9.73218,1.1956,0.07,0,-0.07,-29.6204,-38.0976,-2.60784,1014.44
35852,-0.45911,9.73218,1.20038,-0.14,0,0.14,-31.0527,-37.5767,-2.02658,1014.43
35858,-0.47824,9.74653,1.1956,0.21,-0.28,0.35,-30.0215,-37.7214,-2.04075,1014.43
35864,-0.487805,9.76566,1.18604,0,-0.07,0.07,-30.0215,-38.6474,-2.36683,1014.43
35870,-0.454328,9.76088,1.17169,0.07,-0.14,0.21,-29.6491,-38.4448,-2.49442,1014.43
35876,-0.47824,9.72262,1.17647,0.49,0.35,-0.07,-29.8209,-38.2133,-0.807343,1014.43
35882,-0.483022,9.7561,1.15734,-0.42,-0.28,-0.21,-30.222,-37.8082,-2.16835,1014.47
35888,-0.483022,9.74653,1.18125,-0.07,0.35,0.14,-29.9069,-37.5767,-1.23266,1014.47
35894,-0.463893,9.76088,1.17647,0.28,-0.07,0.14,-29.4199,-37.895,-1.40278,1014.45
35900,-0.526064,9.77523,1.14778,0.07,0.42,0.07,-30.136,-37.5188,-2.53695,1014.45
35906,-0.473458,9.75131,1.16212,0.28,0.07,0.21,-29.5918,-38.387,-1.53038,1014.48
35912,-0.47824,9.74175,1.18125,0.42,-0.63,0.14,-29.9928,-37.895,-2.06911,1014.48
35918,-0.463893,9.71784,1.18604,0.21,-0.35,-0.07,-30.6803,-37.5188,-1.55873,1014.42
35924,-0.487805,9.7561,1.20995,0.42,-0.7,0.07,-30.3652,-37.6056,-2.5086,1014.42
35930,-0.47824,9.76088,1.14778,0.56,0.21,-0.21,-29.8209,-38.2423,-0.906583,1014.45
35936,-0.487805,9.77523,1.18125,0.42,-0.28,-0.07,-30.3366,-37.2584,-1.17595,1014.45
35942,-0.463893,9.73218,1.18604,0.28,0.42,0,-30.4798,-38.0108,-1.21848,1014.45
35948,-0.463893,9.7561,1.18604,0.28,0.07,0.07,-29.9069,-38.358,-1.58709,1014.41
35954,-0.468675,9.78001,1.16212,0.14,0.21,0,-29.5918,-38.358,-0.750634,1014.41
35960,-0.487805,9.76566,1.17647,0.21,-0.28,-0.14,-31.0814,-37.9818,-1.26101,1014.45
35966,-0.473458,9.74175,1.16212,0.28,-0.14,0.14,-30.2506,-37.432,-1.2043,1014.45
35972,-0.47824,9.77044,1.16691,-0.21,0,0.07,-30.1933,-38.2133,-0.977469,1014.47
35978,-0.483022,9.73697,1.21473,0.14,-0.49,0.14,-30.3366,-38.0686,-0.339497,1014.47
35984,-0.45911,9.73218,1.18604,0.28,0,0.14,-29.5058,-37.8082,-1.8281,1014.43
35990,-0.468675,9.73218,1.18125,0.49,-0.28,-0.42,-29.2194,-38.5317,-1.5162,1014.43
35996,-0.47824,9.72262,1.1956,0.21,0.21,0.07,-30.2793,-38.2712,-1.21848,1014.42
36002,-0.430416,9.72262,1.17647,0.07,-0.28,0,-29.3339,-38.1555,-1.55873,1014.42
36008,-0.473458,9.75131,1.17169,0.56,-0.07,-0.35,-29.7923,-38.0108,-2.43771,1014.44
36014,-0.463893,9.73218,1.17169,0.21,-0.28,-0.14,-30.3366,-38.1265,-2.26759,1014.44
36020,-0.473458,9.77044,1.15734,0.42,0.14,-0.07,-30.0215,-38.5027,-1.02,1014.44
36026,-0.463893,9.77523,1.15734,0.49,0.35,-0.28,-29.6491,-37.9239,-1.09089,1014.44
36032,-0.492587,9.7561,1.15256,0.07,0.14,-0.14,-29.4772,-37.403,-2.12582,1014.44
36038,-0.487805,9.76088,1.17169,0,-0.42,-0.28,-29.4485,-37.432,-1.55873,1014.44
36044,-0.463893,9.7561,1.16691,0.28,0.14,-0.28,-29.7063,-37.3162,-1.41696,1014.44
36050,-0.473458,9.77044,1.19082,0.42,-0.56,-0.07,-30.9095,-38.3001,-1.60126,1014.43
36056,-0.492587,9.78001,1.17647,0,-0.21,-0.56,-29.4485,-38.5606,-1.87063,1014.43
36062,-0.526064,9.78479,1.16691,0.14,-0.14,0.14,-30.5085,-37.6924,-1.38861,1014.43
36068,-0.521282,9.78001,1.15256,0.14,0.35,0.49,-30.4225,-39.0236,-1.60126,1014.43
36074,-0.473458,9.78001,1.15256,0.28,0.21,0.28,-30.0788,-38.0686,-0.878229,1014.45
36080,-0.449546,9.73697,1.1956,0,0.35,0.14,-29.7923,-38.1844,-1.91316,1014.45
36086,-0.463893,9.73697,1.20038,0.42,0.14,-0.07,-29.8496,-38.4738,-2.05493,1014.45
36092,-0.454328,9.70349,1.20038,0.63,-0.21,0,-30.1647,-37.895,-1.31772,1014.45
36098,-0.45911,9.74653,1.17647,0.14,0.21,0.28,-29.735,-38.4738,-1.71468,1014.45
36104,-0.425634,9.72262,1.1956,0.63,-0.14,0.07,-29.2194,-37.6635,-1.95569,1014.45
36110,-0.454328,9.74653,1.18125,0.56,-0.35,-0.21,-29.5345,-37.6924,-2.02658,1014.45
36116,-0.45911,9.7274,1.18604,0.35,-0.28,-0.21,-30.0215,-38.0108,-1.57291,1014.44
36122,-0.463893,9.73697,1.17169,0.63,-0.49,-0.07,-30.3939,-38.5317,-1.40278,1014.44
36128,-0.502152,9.74653,1.16212,0.49,0.14,-0.28,-30.4798,-38.6474,-0.708103,1014.43
36134,-0.454328,9.73218,1.16212,0.21,-0.49,-0.21,-29.4199,-37.6346,-0.906583,1014.43
36140,-0.487805,9.7561,1.16691,0.63,0.14,-0.14,-30.222,-37.6635,-1.65797,1014.45
36146,-0.45911,9.76566,1.16691,0.77,0.7,0,-30.709,-37.432,-0.906583,1014.45
36152,-0.463893,9.73697,1.17647,-0.28,0.07,-0.14,-30.5944,-37.6346,-1.11924,1014.43
36158,-0.502152,9.75131,1.18604,0.56,0.21,-0.07,-30.222,-38.1555,-1.03418,1014.43
36164,-0.49737,9.77523,1.16212,0.63,-0.56,-0.42,-30.3079,-37.6056,-0.807343,1014.47
36170,-0.492587,9.78479,1.17647,0.21,0.07,0,-30.2793,-37.4899,-2.12582,1014.47
36176,-0.487805,9.77044,1.16691,0.63,-0.56,0.14,-30.136,-38.358,-1.55873,1014.43
36182,-0.47824,9.74653,1.19082,0.21,-0.21,-0.07,-29.3339,-38.2712,-1.16177,1014.43
36188,-0.47824,9.7274,1.20995,0.35,-0.35,0.07,-30.0501,-37.403,-1.13342,1014.43
36194,-0.506934,9.75131,1.20516,0.49,0,0.07,-30.2506,-38.0686,-1.48785,1014.45
36200,-0.487805,9.73697,1.19082,0.7,0.35,-0.14,-30.3366,-37.9239,-1.94151,1014.45
36206,-0.468675,9.73697,1.17169,0.49,0.28,0.14,-30.0501,-38.4738,-1.53038,1014.46
36212,-0.430416,9.71305,1.16691,0.91,0.07,-0.21,-30.0788,-38.85,-0.906583,1014.46
36218,-0.463893,9.75131,1.19082,17.85,0,-0.07,-29.5345,-37.8661,-1.21848,1014.45
36224,-0.47824,9.74175,1.17647,0.42,0.14,0,-30.0501,-37.9239,-2.15417,1014.45
36230,-0.45911,9.76088,1.16691,0,-0.21,-0.07,-29.5058,-38.2423,-2.70708,1014.45
36236,-0.468675,9.77523,1.16212,0.49,0.49,-0.28,-29.8782,-38.2712,-1.89898,1014.45
36242,-0.45911,9.75131,1.16691,0.49,0.07,0.14,-30.709,-38.2423,-2.40936,1014.44
36248,-0.473458,9.76566,1.17647,0.21,0.7,-0.07,-30.7663,-38.0108,-1.45949,1014.44
36254,-0.492587,9.76566,1.16691,0.42,0,-0.21,-29.9642,-37.7793,-1.48785,1014.45
36260,-0.483022,9.76088,1.16212,0.07,0.49,-0.28,-30.5944,-38.0976,-2.09746,1014.45
36266,-0.483022,9.76566,1.17169,0.35,-0.7,-0.07,-30.3366,-38.1555,-2.23923,1014.41
36272,-0.502152,9.77044,1.17647,0.14,-0.42,0.14,-30.2793,-38.3001,-1.10506,1014.41
36278,-0.468675,9.76088,1.17169,0,-1.12,-0.07,-30.9954,-39.0236,-2.67873,1014.41
36284,-0.49737,9.7561,1.17647,0.35,-0.07,0.07,-30.2506,-37.6056,-2.06911,1014.44
36290,-0.473458,9.7274,1.1956,0.35,0.56,0.21,-30.1074,-37.9529,-1.53038,1014.44
36296,-0.487805,9.7561,1.1956,0,0,0.21,-29.6777,-37.4899,-0.353674,1014.43
36302,-0.468675,9.73697,1.18604,0.14,0.56,0.28,-29.7636,-38.0397,-1.62962,1014.43
36308,-0.435198,9.73697,1.18604,0.35,-0.21,0,-30.1074,-37.7503,-1.8281,1014.42
36314,-0.449546,9.73697,1.18604,0.35,0.28,-0.07,-30.222,-37.403,-0.693926,1014.42
36320,-0.430416,9.72262,1.17169,0.35,-0.21,0.35,-29.6777,-38.4159,-1.71468,1014.44
36326,-0.444763,9.75131,1.19082,0.28,-0.35,-0.28,-29.5345,-38.0397,-2.18253,1014.44
36332,-0.49737,9.74175,1.18125,0.28,-0.63,-0.14,-30.222,-38.7053,-1.95569,1014.47
36338,-0.454328,9.7274,1.19082,0.77,-0.42,-0.14,-29.8496,-38.5027,-2.04075,1014.47
36344,-0.468675,9.7274,1.18604,0.07,0.77,-0.07,-29.248,-37.6924,-1.48785,1014.42
36350,-0.449546,9.73218,1.20038,0.56,0,-0.14,-29.9355,-37.1137,-1.58709,1014.42
36356,-0.49737,9.80392,1.16212,0.91,0.56,0,-29.4485,-38.0397,-1.61544,1014.42
36362,-0.492587,9.76566,1.17647,0.14,-0.14,-0.42,-29.6777,-37.8371,-1.45949,1014.42
36368,-0.502152,9.74653,1.20038,0.56,0.07,0.14,-30.709,-38.5317,-0.849874,1014.42
36374,-0.463893,9.74653,1.20516,0.42,-0.42,-0.21,-29.5345,-37.5477,-1.7005,1014.47
36380,-0.463893,9.81349,1.17169,0.42,-0.49,-0.49,-30.1647,-37.5477,-2.60784,1014.47
36386,-0.506934,9.79436,1.17169,0.35,-0.7,-0.07,-30.6517,-37.9239,-2.16835,1014.44
36392,-0.49737,9.75131,1.17169,0.56,0,0.21,-29.8782,-37.5477,-1.50202,1014.44
36398,-0.468675,9.74175,1.17647,0.28,-0.07,-0.28,-29.8496,-38.0397,-0.651394,1014.47
36404,-0.473458,9.74653,1.16691,0,0.28,-0.07,-30.1647,-37.9239,-2.0124,1014.47
36410,-0.463893,9.74175,1.18125,0.14,0,0,-30.623,-38.6185,-2.40936,1014.43
36416,-0.47824,9.75131,1.20038,-17.57,-0.21,-0.28,-29.9355,-37.9239,-1.78557,1014.43
36422,-0.444763,9.74175,1.20038,0.07,-0.07,0,-30.7376,-38.2133,-1.78557,1014.42
36428,-0.45911,9.71784,1.1956,0.35,-0.56,-0.14,-30.3939,-38.0397,-1.98405,1014.42
36434,-0.473458,9.74175,1.19082,0.35,0.42,-0.07,-29.9355,-38.6764,-1.55873,1014.42
36440,-0.449546,9.73697,1.18604,0.42,0.28,0.14,-30.3652,-37.0847,-1.62962,1014.42
36446,-0.449546,9.74175,1.18125,0.21,0.28,-0.35,-30.5944,-37.8371,-1.41696,1014.42
36452,-0.449546,9.74175,1.15734,0.49,-0.56,-0.42,-30.6803,-38.2423,-1.98405,1014.4
36458,-0.483022,9.78001,1.16212,0.28,-0.28,-0.28,-30.7663,-38.2712,-2.0124,1014.4
36464,-0.45911,9.77044,1.15734,0.14,0,-0.14,-30.6517,-37.5188,-1.95569,1014.44
36470,-0.47824,9.77523,1.15256,0,0.42,-0.21,-30.222,-37.9818,-1.95569,1014.44
36476,-0.473458,9.78001,1.17169,0.21,0.14,-0.28,-30.623,-37.9529,-2.11164,1014.44
36482,-0.506934,9.79914,1.17169,0.42,0.77,0.21,-30.222,-37.8661,-2.35265,1014.44
36488,-0.516499,9.78957,1.16212,17.78,-0.35,0.63,-30.6803,-37.8082,-2.21088,1014.43
36494,-0.473458,9.73218,1.19082,-0.14,0,0,-30.709,-38.4738,-2.06911,1014.43
36500,-0.463893,9.74653,1.20038,0.21,-0.21,0.21,-30.9954,-38.4159,-1.88481,1014.46
36506,-0.454328,9.74653,1.20516,-0.21,-0.14,0.14,-30.623,-37.8661,-2.76379,1014.46
36512,-0.492587,9.73697,1.1956,0.28,-0.56,0,-30.4225,-38.7632,-0.963291,1014.44
36518,-0.45911,9.74175,1.19082,0.49,0,0.14,-30.2793,-38.387,-0.637217,1014.44
36524,-0.449546,9.74653,1.19082,0.35,0.28,0.14,-30.0501,-37.7793,-1.16177,1014.44
36530,-0.435198,9.73697,1.1956,0.49,0.56,0.42,-30.3079,-38.5606,-2.0124,1014.41
36536,-0.473458,9.77044,1.17169,0.35,0,0.14,-30.7376,-38.8211,-0.977469,1014.41
36542,-0.473458,9.76088,1.17647,0.56,-0.7,-0.14,-30.4798,-38.7053,-0.778989,1014.46
36548,-0.45911,9.75131,1.18125,0.21,-0.21,0.07,-30.8522,-37.7214,-1.7005,1014.46
36554,-0.483022,9.76566,1.18125,0.56,-0.35,-0.07,-30.5371,-38.7342,-1.62962,1014.45
36560,-0.444763,9.77044,1.15734,0.28,0.28,-0.35,-30.136,-38.387,-1.19013,1014.45
36566,-0.45911,9.73218,1.20995,0.28,-0.21,0.07,-30.3366,-38.2423,-2.45189,1014.43
36572,-0.449546,9.73218,1.1956,0.42,0.21,-0.56,-29.7923,-38.4448,-2.25341,1014.43
36578,-0.45911,9.74175,1.18604,0.14,0.14,-0.07,-30.623,-38.3291,-1.91316,1014.42
36584,-0.444763,9.73697,1.15734,0.56,0.35,-0.07,-30.4225,-38.2712,-0.92076,1014.42
36590,-0.45911,9.75131,1.18125,0.49,0.07,0.07,-29.8209,-37.9529,-1.50202,1014.42
36596,-0.473458,9.77044,1.1956,0.42,-0.63,-0.49,-30.3939,-38.3291,-1.23266,1014.42
36602,-0.502152,9.76566,1.18604,0.56,0.14,0,-30.3652,-38.5027,-1.62962,1014.42
36608,-0.473458,9.76566,1.14778,0.35,-0.21,-0.07,-30.4225,-38.0686,-1.13342,1014.44
36614,-0.449546,9.7561,1.20516,0.21,-0.63,-0.07,-30.3366,-38.387,-0.764811,1014.44
36620,-0.473458,9.74653,1.18604,0.28,-0.56,0.14,-30.4798,-37.6635,-1.96987,1014.44
36626,-0.454328,9.74653,1.21473,0.35,-0.42,0,-30.1647,-38.0397,-2.67873,1014.44
36632,-0.468675,9.76088,1.16212,0.21,-0.21,-0.14,-30.1933,-37.9239,-1.34607,1014.41
36638,-0.492587,9.79436,1.18125,0.35,0,0.42,-30.623,-37.9818,-1.64379,1014.41
36644,-0.435198,9.75131,1.17647,0.14,0.14,0.07,-30.0501,-37.3741,-1.00582,1014.46
36650,-0.430416,9.73697,1.19082,0.56,0.42,0,-29.9355,-37.9239,-1.65797,1014.46
36656,-0.439981,9.71784,1.20038,0.49,0.28,-0.14,-30.5085,-38.2423,-1.98405,1014.43
36662,-0.468675,9.73218,1.18125,0.49,0.42,-0.56,-29.9069,-37.432,-1.53038,1014.43
36668,-0.468675,9.74175,1.19082,0.28,-0.28,-0.14,-30.1933,-37.3452,-1.16177,1014.43
36674,-0.435198,9.74175,1.16691,0.49,0.28,-0.07,-30.0788,-37.4899,-1.89898,1014.43
36680,-0.483022,9.75131,1.18125,0.84,-0.56,-0.49,-30.6803,-38.0108,-1.13342,1014.42
36686,-0.47824,9.78001,1.16212,0.14,-0.14,-0.35,-30.5371,-37.7793,-2.46607,1014.42
36692,-0.47824,9.78479,1.14778,0.56,-0.63,0.14,-30.1933,-38.0108,-0.977469,1014.42
36698,-0.516499,9.77523,1.19082,0.35,0.42,0,-29.9069,-38.0108,-1.74303,1014.41
36704,-0.45911,9.75131,1.18125,-0.07,17.22,0,-29.5631,-38.6185,-1.57291,1014.41
36710,-0.45911,9.76088,1.15256,0.56,0.07,0.14,-30.222,-38.2712,-2.08329,1014.43
36716,-0.473458,9.7561,1.1956,0.56,0.49,0.07,-29.9069,-38.3001,-1.75721,1014.43
36722,-0.487805,9.7561,1.18125,-0.07,-0.14,0,-30.2793,-37.8082,-2.3243,1014.44
36728,-0.449546,9.7274,1.1956,0,0.56,0,-30.7949,-37.9818,-1.3319,1014.44
36734,-0.435198,9.73218,1.21951,0.35,-0.28,0,-30.2793,-37.9529,-1.75721,1014.38
36740,-0.454328,9.7561,1.17647,0.35,-17.5,0.42,-30.709,-37.432,-1.61544,1014.38
36746,-0.483022,9.75131,1.15734,0.07,-0.07,0.14,-30.8522,-38.1844,-1.26101,1014.42
36752,-0.468675,9.76566,1.1956,0.21,-0.35,0.14,-30.9954,-37.7793,-0.949114,1014.42
36758,-0.47824,9.73697,1.21473,0.35,17.36,-0.07,-30.7949,-37.5767,-1.61544,1014.46
36764,-0.454328,9.75131,1.18604,0.28,-0.49,0.07,-31.3392,-37.4609,-1.06253,1014.46
36770,-0.473458,9.73218,1.16212,0.28,0.56,-0.07,-30.8236,-38.0686,-1.71468,1014.46
36776,-0.49737,9.73697,1.21473,0.28,0,0.07,-30.4225,-38.0397,-1.19013,1014.39
36782,-0.449546,9.75131,1.18604,0.28,0.63,0.21,-30.136,-38.0108,-2.29594,1014.39
36788,-0.444763,9.75131,1.17169,0,0,0.35,-29.7923,-38.2133,-2.15417,1014.44
36794,-0.439981,9.7274,1.16691,0.49,-17.78,-0.14,-30.4798,-37.3162,-1.98405,1014.44
36800,-0.502152,9.76088,1.1956,0.35,-0.14,0.14,-30.7376,-38.6185,-1.43114,1014.5
36806,-0.468675,9.75131,1.19082,0.35,-0.28,0,-30.1933,-37.6346,-1.81392,1014.5
36812,-0.449546,9.7561,1.1956,0.14,-17.64,-0.14,-30.136,-37.3162,-1.37443,1014.43
36818,-0.468675,9.7561,1.19082,0.28,-0.56,0.07,-30.8236,-36.9979,-1.64379,1014.43
36824,-0.449546,9.73697,1.21473,0.49,-0.07,-0.07,-29.9642,-37.6346,-1.91316,1014.45
36830,-0.468675,9.76088,1.16691,-0.14,17.85,-0.14,-29.8496,-37.403,-1.61544,1014.45
36836,-0.454328,9.76566,1.16691,0.35,0.35,0.07,-30.2506,-37.8371,-1.48785,1014.45
36842,-0.468675,9.74653,1.19082,0.35,-0.35,0.21,-30.4225,-37.7793,-1.77139,1014.45
36848,-0.439981,9.73218,1.18125,0.07,17.71,0.07,-30.1074,-37.5767,-1.23266,1014.45
36854,-0.47824,9.76088,1.17647,-0.14,0.07,0.07,-30.1933,-38.0686,-2.04075,1014.45
36860,-0.420851,9.79436,1.15256,0.21,-0.28,0,-29.5918,-37.1137,-2.23923,1014.45
36866,-0.487805,9.76566,1.17169,-0.14,-0.28,0.28,-30.2793,-37.6346,-1.27519,1014.44
36872,-0.49737,9.77523,1.19082,-0.07,0.14,-0.14,-30.3079,-38.2423,-3.0048,1014.44
36878,-0.454328,9.74653,1.17169,-0.21,0,0.35,-29.7636,-37.6056,-1.72886,1014.44
36884,-0.473458,9.72262,1.22908,0.35,-17.71,0.21,-30.3939,-37.3741,-1.71468,1014.44
36890,-0.49737,9.75131,1.18604,0.35,-0.28,0.21,-30.3939,-37.1426,-2.77797,1014.45
36896,-0.454328,9.77044,1.18604,0.21,-0.42,0.49,-31.7403,-37.9818,-2.63619,1014.45
36902,-0.420851,9.74175,1.20038,0.14,17.71,0.07,-30.2506,-37.1426,-1.85645,1014.42
36908,-0.435198,9.74175,1.23864,0.42,-0.21,0.28,-30.3652,-37.7793,-3.501,1014.42
36914,-0.444763,9.7274,1.23386,0.56,0.21,0.28,-30.623,-37.5477,-1.96987,1014.45
36920,-0.449546,9.77044,1.20038,0.42,0.21,0.21,-30.7376,-38.6185,-2.46607,1014.45
36926,-0.483022,9.76088,1.14299,0.63,0.28,0,-30.3652,-37.3741,-2.55113,1014.43
36932,-0.444763,9.78001,1.15256,0.14,0.21,0.28,-30.136,-37.6924,-1.72886,1014.43
36938,-0.439981,9.7561,1.16691,0.28,-17.78,0.07,-30.3366,-37.432,-1.2043,1014.43
36944,-0.439981,9.78001,1.16212,0.07,0.28,0.35,-30.3652,-37.7214,-2.67873,1014.47
36950,-0.511717,9.81349,1.15256,-0.7,-0.35,0.14,-29.9069,-37.895,-1.67215,1014.47
36956,-0.483022,9.77044,1.17169,-0.14,-0.14,0.21,-30.5371,-37.895,-2.28177,1014.45
36962,-0.463893,9.74175,1.19082,-0.35,-0.56,0.35,-29.5058,-37.5188,-1.58709,1014.45
36968,-0.444763,9.73697,1.20995,0,-0.28,0.21,-30.2506,-38.0686,-1.41696,1014.44
36974,-0.449546,9.71305,1.20995,0.07,17.43,0.42,-30.5944,-37.6056,-1.62962,1014.44
36980,-0.463893,9.72262,1.21473,0.07,-0.14,-0.07,-30.222,-37.2005,-2.08329,1014.38
36986,-0.435198,9.73697,1.22908,-0.07,0.14,0.35,-30.2793,-37.3162,-1.43114,1014.38
36992,-0.416069,9.72262,1.20038,0.21,-17.71,-0.35,-29.9355,-37.2873,-2.49442,1014.43
36998,-0.439981,9.73697,1.23864,0.28,0.21,0.28,-32.0554,-38.1555,-2.90556,1014.43
37004,-0.435198,9.71784,1.20516,0.42,-0.28,0.14,-29.735,-37.4899,-2.66455,1014.45
37010,-0.435198,9.76088,1.1956,0.28,-17.78,0.07,-30.2793,-37.403,-1.96987,1014.45
37016,-0.454328,9.74175,1.17169,0.21,-0.42,-0.21,-30.4225,-37.5477,-1.85645,1014.45
37022,-0.444763,9.7561,1.19082,0.63,0,-0.28,-30.3939,-37.0558,-2.33847,1014.43
37028,-0.449546,9.76088,1.17647,0,17.5,0.28,-30.222,-36.9979,-2.02658,1014.43
37034,-0.449546,9.77523,1.18125,0.49,0.35,-0.14,-29.8496,-37.6924,-1.92734,1014.43
37040,-0.473458,9.78479,1.15256,0.42,0,0.21,-30.3939,-37.7793,-1.88481,1014.43
37046,-0.47824,9.78001,1.12865,-0.21,-17.71,0.14,-30.222,-38.2423,-2.62202,1014.45
37052,-0.463893,9.76566,1.1956,0.42,-0.14,0.42,-29.248,-37.4899,-1.71468,1014.45
37058,-0.444763,9.75131,1.21473,-0.21,-0.84,-0.07,-30.6803,-37.5477,-2.43771,1014.42
37064,-0.439981,9.73697,1.21473,0.07,-0.28,0.21,-30.222,-37.2005,-1.17595,1014.42
37070,-0.468675,9.72262,1.20995,0.56,-0.63,0.42,-29.8496,-37.5188,-1.7005,1014.45
37076,-0.463893,9.7274,1.20995,-0.07,-0.14,0.28,-29.8209,-37.4899,-2.11164,1014.45
37082,-0.444763,9.7274,1.18604,0.42,-0.49,0.14,-29.9928,-37.3452,-1.88481,1014.44
37088,-0.439981,9.72262,1.22429,0.56,-0.14,0.14,-29.9355,-37.6056,-1.11924,1014.44
37094,-0.444763,9.73697,1.20995,0.56,0.63,0.35,-30.7949,-38.2133,-2.21088,1014.44
37100,-0.473458,9.74175,1.1956,0.35,0.35,0.21,-30.6517,-37.7214,-2.63619,1014.48
37106,-0.435198,9.74653,1.21473,0.49,0.28,0.28,-30.1933,-37.9818,-3.08986,1014.48
37112,-0.439981,9.73697,1.20516,0.49,-0.07,0.28,-30.7663,-38.2133,-1.19013,1014.42
37118,-0.444763,9.76088,1.17647,0,0.42,-0.07,-30.5085,-38.5027,-0.608863,1014.42
37124,-0.435198,9.76088,1.18604,0.07,-0.35,0.07,-30.3079,-37.432,-2.08329,1014.45
37130,-0.439981,9.77523,1.16212,0.07,-0.56,-0.14,-30.2506,-37.5767,-1.57291,1014.45
37136,-0.454328,9.76566,1.20516,0,-0.84,0.14,-30.0215,-37.6635,-1.67215,1014.4
37142,-0.473458,9.75131,1.17169,0.21,-0.42,0.21,-30.4512,-37.1715,-1.87063,1014.4
37148,-0.463893,9.76088,1.14299,0.49,0.14,0.21,-30.3366,-37.9239,-2.60784,1014.45
37154,-0.425634,9.7561,1.1956,-0.07,-0.35,0.14,-30.2506,-37.3162,-1.30354,1014.45
37160,-0.439981,9.74653,1.21951,-0.21,0.42,0.28,-29.9642,-38.1555,-2.15417,1014.46
37166,-0.487805,9.7561,1.21951,0.35,0,0.28,-30.3652,-38.1555,-2.74961,1014.46
37172,-0.487805,9.7561,1.18604,0.35,0.35,0.14,-30.2506,-37.6924,-1.89898,1014.46
37178,-0.47824,9.77044,1.21473,0.35,-0.14,0.07,-30.3366,-37.7214,-1.89898,1014.46
37184,-0.425634,9.71305,1.20038,-0.14,-0.49,0.28,-30.5657,-37.5767,-0.864051,1014.46
37190,-0.430416,9.75131,1.22429,0.07,-0.21,0.07,-30.3366,-38.0108,-1.7005,1014.44
37196,-0.463893,9.73697,1.22908,0.07,-0.77,-0.07,-30.1933,-38.0397,-0.651394,1014.44
37202,-0.454328,9.76566,1.21951,0.56,0,-0.07,-30.0788,-38.1844,-2.42354,1014.48
37208,-0.406504,9.7274,1.18125,0.56,17.43,-0.21,-29.8209,-37.7214,-1.2043,1014.48
37214,-0.420851,9.73697,1.20995,0.35,0.49,0.14,-30.2793,-37.2294,-2.67873,1014.43
37220,-0.435198,9.7274,1.18604,0.42,0.14,0,-31.0241,-38.1265,-1.62962,1014.43
37226,-0.435198,9.7561,1.19082,-0.07,0.35,-0.49,-30.3366,-37.8371,-2.38101,1014.43
37232,-0.444763,9.7274,1.19082,0.49,-0.21,-0.49,-30.136,-37.9818,-1.71468,1014.43
37238,-0.430416,9.7561,1.20995,0.07,-0.21,-0.21,-29.9928,-38.2712,-0.764811,1014.45
37244,-0.435198,9.75131,1.18604,0,-0.21,-0.56,-29.9928,-37.3452,-1.34607,1014.45
37250,-0.454328,9.74653,1.20995,0.21,0,-0.28,-29.8209,-36.7953,-2.46607,1014.46
37256,-0.454328,9.76088,1.18604,0.35,0.35,0,-29.4199,-37.2584,-2.39518,1014.46
37262,-0.463893,9.77523,1.16212,0.49,0,-17.85,-30.0501,-37.2584,-1.67215,1014.46
37268,-0.468675,9.73697,1.20995,0.14,0,-0.35,-29.7923,-37.0847,-0.963291,1014.44
37274,-0.430416,9.7561,1.16212,-0.14,-0.35,-0.21,-30.3652,-37.895,-2.11164,1014.44
37280,-0.406504,9.81827,1.12865,0.07,0.28,0.21,-29.6777,-37.432,-1.26101,1014.44
37286,-0.530846,9.75131,1.43472,-0.91,-0.91,-0.35,-30.2506,-37.6346,-2.6929,1014.44
37292,-0.363462,9.56958,1.42037,1.05,0,0.28,-30.0788,-38.1844,-1.71468,1014.46
37298,-0.416069,9.85653,1.033,-0.07,0.21,-0.14,-30.0215,-37.6924,-1.60126,1014.46
37304,-0.463893,9.7561,1.17647,0.07,-0.35,-0.21,-30.4225,-37.3162,-1.38861,1014.45
37310,-0.392157,9.85653,1.08082,-0.49,0.14,0.21,-31.4251,-38.0108,-1.43114,1014.45
37316,-0.444763,9.66523,1.34864,0.28,-0.07,17.71,-30.9954,-37.4609,-0.849874,1014.47
37322,-0.425634,9.78001,1.16212,0,0.14,-0.21,-30.6803,-37.5767,-1.64379,1014.47
37328,-0.430416,9.75131,1.22429,-0.07,-0.28,0.14,-30.2506,-37.3452,-1.40278,1014.43
37334,-0.468675,9.73697,1.21473,0.49,0.28,-0.14,-29.9642,-37.895,-0.708103,1014.43
37340,-0.396939,9.75131,1.21473,0.35,-0.49,-0.35,-30.1074,-37.9818,-1.24683,1014.44
37346,-0.444763,9.7274,1.20516,0.35,-0.56,-0.14,-30.0215,-37.3452,-2.94809,1014.44
37352,-0.430416,9.76088,1.20516,0.42,-0.35,17.64,-30.8809,-37.6924,-1.06253,1014.44
37358,-0.468675,9.74175,1.20995,0.21,-0.07,-0.28,-30.3366,-36.7953,-0.835697,1014.49
37364,-0.449546,9.74653,1.18604,0.21,-0.14,-0.07,-30.9668,-37.895,-2.13999,1014.49
37370,-0.454328,9.75131,1.17647,0.63,-0.35,-0.14,-30.9954,-37.403,-1.3319,1014.41
37376,-0.411286,9.77044,1.16691,0.21,0.14,0.07,-29.9069,-37.432,-1.55873,1014.41
37382,-0.444763,9.74653,1.1956,0.35,0.28,-0.14,-30.4225,-37.5188,-0.72228,1014.45
37388,-0.454328,9.77044,1.18125,0.7,0.28,-17.85,-30.222,-37.403,0.0574628,1014.45
37394,-0.468675,9.78957,1.18604,0.07,0.14,-0.07,-29.6204,-37.3741,-0.750634,1014.46
37400,-0.439981,9.74653,1.20516,-0.14,-0.35,0,-29.735,-38.0976,-2.55113,1014.46
37406,-0.439981,9.78001,1.1956,0.77,-0.28,17.78,-30.9382,-37.3162,-2.38101,1014.43
37412,-0.439981,9.76088,1.21473,0.21,-0.7,-0.14,-30.623,-37.7793,-1.06253,1014.43
37418,-0.435198,9.76566,1.20516,-0.14,-0.14,-0.14,-30.3939,-37.3452,-1.65797,1014.44
37424,-0.420851,9.74175,1.24342,0.21,-0.49,0,-31.11,-37.2005,-1.26101,1014.44
37430,-0.430416,9.75131,1.23864,0.42,0.42,-0.28,-30.0501,-37.3741,-0.793166,1014.44
37436,-0.406504,9.7274,1.23386,0.28,0.42,0,-30.1933,-37.7503,-0.651394,1014.43
37442,-0.444763,9.73697,1.22429,0.7,0,-0.28,-30.3079,-37.2584,-1.48785,1014.43
37448,-0.420851,9.73697,1.20038,0.49,-0.07,-0.42,-30.2793,-37.8082,-2.94809,1014.41
37454,-0.454328,9.7561,1.20516,0.42,-0.07,-0.21,-30.5944,-37.6635,-1.00582,1014.41
37460,-0.454328,9.78479,1.18125,0.35,0.14,17.85,-30.5657,-37.5477,-1.92734,1014.41
37466,-0.430416,9.74175,1.19082,0.35,-0.28,-0.35,-30.2506,-37.2294,-1.72886,1014.41
37472,-0.45911,9.74175,1.20516,0.21,-0.14,-0.14,-30.5085,-37.6924,-2.15417,1014.46
37478,-0.430416,9.7561,1.19082,0.49,-0.28,-0.21,-30.3366,-37.3162,-2.62202,1014.46
37484,-0.420851,9.7274,1.20516,0.56,0.07,-0.42,-31.1387,-37.2584,-2.57949,1014.44
37490,-0.439981,9.74653,1.20038,0.35,0,-0.35,-30.1933,-37.6346,-1.02,1014.44
37496,-0.425634,9.73218,1.1956,0.35,0.14,-0.07,-30.709,-38.0397,-2.40936,1014.44
37502,-0.473458,9.75131,1.1956,0.21,-0.49,-0.56,-30.4512,-37.6346,-0.750634,1014.44
37508,-0.454328,9.7561,1.19082,0.63,-0.14,-0.35,-29.9642,-37.432,-1.17595,1014.44
37514,-0.45911,9.7561,1.20516,0.28,-0.35,-0.21,-30.4225,-37.8661,-3.40176,1014.44
37520,-0.439981,9.74653,1.21473,0.28,0.21,-0.56,-30.2506,-37.9529,-2.6929,1014.44
37526,-0.425634,9.7561,1.20516,0.07,0.21,-0.28,-30.7949,-37.895,-2.93391,1014.45
37532,-0.473458,9.76088,1.20516,0.56,0.14,17.64,-30.5371,-38.1265,-2.76379,1014.45
37538,-0.425634,9.76088,1.18125,0.35,0.42,-0.21,-30.7949,-37.7503,-2.59366,1014.42
37544,-0.435198,9.74653,1.22908,0.07,-0.42,-0.14,-30.9095,-37.5477,-3.58606,1014.42
37550,-0.430416,9.7274,1.23864,0.91,0,17.64,-30.5085,-37.6924,-2.12582,1014.44
37556,-0.406504,9.71784,1.22429,0.21,-0.07,-0.63,-30.4225,-37.9818,-2.40936,1014.44
37562,-0.468675,9.80392,1.17647,1.12,-0.28,0.21,-30.0501,-37.6635,-2.52278,1014.41
37568,-0.439981,9.77044,1.17647,0.28,0.14,17.57,-29.8782,-38.0976,-2.16835,1014.41
37574,-0.473458,9.72262,1.20995,0.14,-0.07,0.28,-30.623,-37.6635,-1.17595,1014.45
37580,-0.416069,9.72262,1.20516,0.42,-0.07,0.07,-30.3652,-37.403,-1.07671,1014.45
37586,-0.411286,9.76088,1.17169,0.35,-0.35,-0.28,-29.9355,-38.0397,-1.44531,1014.48
37592,-0.444763,9.78479,1.16691,0.14,0,-0.14,-30.136,-37.6924,-1.58709,1014.48
37598,-0.430416,9.7561,1.18604,0.07,0.56,0.21,-29.7923,-37.9818,-2.04075,1014.48
37604,-0.435198,9.7561,1.19082,0.28,0.07,-0.21,-30.222,-38.3001,-0.963291,1014.47
37610,-0.439981,9.76088,1.19082,0.28,0.28,-0.14,-29.5058,-37.3162,-2.46607,1014.47
37616,-0.439981,9.77523,1.24342,0.28,-0.42,-0.21,-30.0501,-38.1844,-1.75721,1014.45
37622,-0.463893,9.76088,1.1956,0.49,0.14,-0.07,-30.5944,-37.4609,-2.38101,1014.45
37628,-0.463893,9.74175,1.20995,0.14,-0.49,0.14,-29.9642,-37.1426,-1.58709,1014.44
37634,-0.45911,9.78001,1.1956,0.14,-0.21,0.14,-30.709,-37.5767,-1.21848,1014.44
37640,-0.435198,9.74175,1.1956,0.21,-0.49,0.21,-30.5657,-37.7503,-1.2043,1014.43
37646,-0.435198,9.74175,1.23864,0.35,0.28,-0.07,-30.2793,-38.0686,-2.09746,1014.43
37652,-0.45911,9.76566,1.1956,0.56,0.35,0.21,-30.6517,-37.6924,-1.10506,1014.42
37658,-0.416069,9.7561,1.18125,0.07,0.49,0,-30.222,-38.0397,-0.736457,1014.42
37664,-0.416069,9.7274,1.18125,0.35,0.28,-0.14,-31.0241,-38.0686,-2.93391,1014.44
37670,-0.401722,9.71784,1.19082,0.35,-0.28,-0.21,-30.8522,-37.2873,-1.81392,1014.44
37676,-0.439981,9.75131,1.21951,0.35,-0.56,-0.56,-30.9668,-37.895,-2.5086,1014.44
37682,-0.468675,9.7561,1.20516,0.49,-0.14,0.14,-30.9954,-37.9239,-1.78557,1014.43
37688,-0.425634,9.7561,1.18604,0.35,-0.14,-0.07,-30.5371,-37.8661,-1.21848,1014.43
37694,-0.449546,9.73697,1.21473,0.49,0.21,-17.92,-30.2793,-37.9818,-1.02,1014.47
37700,-0.454328,9.7561,1.19082,0.28,-0.28,0,-30.5944,-37.8661,0.355183,1014.47
37706,-0.449546,9.7561,1.20516,0.35,-0.14,0,-30.2506,-37.1715,-0.963291,1014.43
37712,-0.454328,9.76088,1.20516,0.56,-0.14,0,-32.4564,-38.2423,-2.11164,1014.43
37718,-0.420851,9.77044,1.17647,-0.07,0.35,-0.07,-30.623,-38.1555,-1.19013,1014.45
37724,-0.439981,9.74175,1.20038,0.21,-0.21,-0.21,-29.9928,-37.5188,-1.16177,1014.45
37730,-0.473458,9.76088,1.20038,0.14,0.14,-0.21,-30.5944,-37.4609,-1.64379,1014.45
37736,-0.454328,9.75131,1.18125,0.14,-0.21,-0.07,-30.3939,-37.895,-1.68633,1014.45
37742,-0.425634,9.78001,1.15734,0.21,0.28,-0.07,-30.136,-38.1265,-2.26759,1014.45
37748,-0.430416,9.78479,1.1956,0.28,-0.21,-0.07,-30.5944,-38.4738,-1.68633,1014.45
37754,-0.45911,9.74653,1.20038,0.35,0.21,-0.07,-30.7376,-37.4899,-1.48785,1014.45
37760,-0.430416,9.74653,1.20038,-0.28,-0.14,0.14,-30.6803,-37.7214,-0.637217,1014.45
37766,-0.47824,9.74653,1.21473,0.35,0.42,-0.07,-30.709,-37.9529,-1.84227,1014.45
37772,-0.468675,9.71784,1.20995,0.28,-0.07,-0.07,-30.9382,-37.8371,-1.57291,1014.43
37778,-0.406504,9.76088,1.17647,0.63,0.07,-0.14,-29.9642,-37.2005,-1.28937,1014.43
37784,-0.449546,9.73697,1.20516,0.56,-0.21,-0.35,-30.4798,-37.8371,-1.79974,1014.45
37790,-0.435198,9.76088,1.20516,0.21,0.21,0,-30.5085,-37.6924,-0.949114,1014.45
37796,-0.473458,9.7561,1.20038,0.56,-0.21,0.42,-30.222,-37.5477,-1.36025,1014.43
37802,-0.430416,9.74175,1.20038,0.42,-0.35,0.07,-29.8782,-37.6056,-1.57291,1014.43
37808,-0.406504,9.74175,1.20516,0.42,0.21,0,-30.0788,-37.8661,-1.17595,1014.43
37814,-0.425634,9.75131,1.20995,0.07,0.14,0.14,-30.5657,-38.2133,-0.878229,1014.43
37820,-0.45911,9.74653,1.20516,0.35,0.28,-0.14,-30.1074,-37.2005,-1.50202,1014.44
37826,-0.444763,9.74175,1.20038,0.42,-0.28,0.07,-30.9954,-37.2005,-1.47367,1014.44
37832,-0.439981,9.76566,1.1956,0.14,-0.14,0.14,-30.4512,-37.3741,-1.11924,1014.43
37838,-0.45911,9.78001,1.21473,0.56,-0.28,-0.42,-30.5085,-37.9529,-1.07671,1014.43
37844,-0.45911,9.76088,1.18604,-0.07,0.07,0.28,-30.4225,-37.5188,-1.47367,1014.43
37850,-0.439981,9.79436,1.20516,0,0,0.07,-30.0501,-37.6056,-0.750634,1014.44
37856,-0.468675,9.77044,1.18125,0.42,0.07,0.14,-29.8782,-37.403,-1.44531,1014.44
37862,-0.454328,9.76566,1.20038,-0.14,-0.28,0,-30.7949,-37.3162,-1.09089,1014.44
37868,-0.382592,9.7561,1.18604,0.14,-0.21,0.28,-29.735,-37.2005,-1.57291,1014.44
37874,-0.387374,9.74175,1.23864,0.14,-0.35,-0.14,-29.7636,-37.9239,0.0574628,1014.45
37880,-0.430416,9.72262,1.23386,-0.07,0.07,0.07,-29.4772,-37.9818,-1.57291,1014.45
37886,-0.444763,9.73697,1.21951,0.28,-0.14,0.28,-29.5345,-37.7793,-1.26101,1014.45
37892,-0.430416,9.74653,1.20516,0.35,0,-0.21,-30.136,-37.8371,-0.92076,1014.45
37898,-0.435198,9.73697,1.21951,0.63,-0.49,-0.14,-30.7376,-37.5188,-0.679749,1014.43
37904,-0.420851,9.73697,1.1956,0.49,-0.07,0.07,-30.6517,-38.0976,-2.12582,1014.43
37910,-0.449546,9.75131,1.20038,0.7,-0.21,-0.28,-30.8522,-38.1265,-2.5086,1014.4
37916,-0.47824,9.78957,1.16212,0.14,0.28,0.21,-30.9954,-38.387,-2.21088,1014.4
37922,-0.45911,9.78957,1.18125,0.21,0.14,0.35,-30.2506,-38.5317,-1.06253,1014.4
37928,-0.425634,9.76566,1.1956,0.07,0.35,0.07,-29.8782,-38.387,-2.38101,1014.45
37934,-0.435198,9.74653,1.19082,0,-0.35,-0.21,-30.8809,-37.8661,-1.79974,1014.45
37940,-0.425634,9.74653,1.21951,0,-0.49,0.14,-30.9954,-37.7503,-1.72886,1014.41
37946,-0.435198,9.78001,1.19082,0.14,-0.7,0.07,-30.4225,-37.8661,-1.89898,1014.41
37952,-0.454328,9.77523,1.20516,-0.14,-0.35,0,-30.7663,-38.0397,-1.79974,1014.44
37958,-0.425634,9.7274,1.22429,0,0.35,0.14,-30.5371,-37.6346,-1.7005,1014.44
37964,-0.406504,9.75131,1.22908,0.14,-0.28,0.28,-30.9382,-37.6346,-1.19013,1014.42
37970,-0.416069,9.73697,1.21951,0.42,0.42,0.07,-30.6803,-38.2133,-1.36025,1014.42
37976,-0.439981,9.75131,1.19082,0.14,-0.14,-0.28,-30.1074,-37.8371,-1.40278,1014.41
37982,-0.416069,9.74175,1.20516,0.07,0.07,-0.21,-29.8209,-38.1555,-1.31772,1014.41
37988,-0.411286,9.73218,1.22908,0.35,0,-0.07,-30.8522,-38.0976,-1.11924,1014.42
37994,-0.416069,9.73218,1.22908,-0.14,-0.49,-0.14,-30.6517,-38.358,-2.0124,1014.42
38000,-0.425634,9.74175,1.23864,0.77,0,0,-29.7923,-38.5317,-2.49442,1014.41
38006,-0.473458,9.78479,1.20038,0.42,-0.63,-0.42,-30.1074,-37.6924,-1.2043,1014.41
38012,-0.463893,9.78479,1.17647,0.07,-0.35,0,-30.1647,-37.9529,-1.19013,1014.41
38018,-0.468675,9.76088,1.19082,0.7,-0.42,-0.07,-31.8262,-38.9657,-1.7005,1014.42
38024,-0.449546,9.75131,1.19082,0.35,0,-0.07,-30.3939,-37.7503,-2.08329,1014.42
38030,-0.430416,9.78001,1.21473,0.28,0.49,-0.07,-29.7636,-37.9818,-2.0124,1014.42
38036,-0.444763,9.73218,1.20516,0.07,0.56,0.14,-29.9355,-37.7214,-0.62304,1014.42
38042,-0.444763,9.79436,1.22429,0.35,0,-0.42,-30.9095,-38.4159,-2.04075,1014.46
38048,-0.420851,9.75131,1.18125,0.56,-0.84,0.28,-30.709,-37.7793,-0.82152,1014.46
38054,-0.425634,9.75131,1.18125,-0.28,0.21,-0.07,-30.8522,-37.6924,-1.72886,1014.43
38060,-0.449546,9.77523,1.20516,0,-0.56,0.14,-30.3079,-37.403,-0.963291,1014.43
38066,-0.449546,9.73697,1.23386,0.07,-0.49,0,-30.0501,-38.0686,-1.43114,1014.41
38072,-0.416069,9.71784,1.20995,0.07,-0.35,0,-30.7376,-37.9239,-1.09089,1014.41
38078,-0.416069,9.71305,1.22908,0.35,0.14,0.07,-30.623,-37.432,-0.864051,1014.44
38084,-0.420851,9.75131,1.21473,-0.07,0,0,-30.4512,-37.3741,-2.26759,1014.44
38090,-0.406504,9.76566,1.21473,0.35,-0.49,0.28,-30.6803,-38.0108,-1.89898,1014.44
38096,-0.416069,9.73697,1.20038,0.7,0.28,-0.21,-30.623,-37.1715,-0.736457,1014.41
38102,-0.411286,9.77044,1.16212,0.42,0.14,-0.14,-30.4225,-37.5477,-0.651394,1014.41
38108,-0.444763,9.73697,1.18604,0.42,-0.07,0.14,-30.3366,-38.2423,-1.67215,1014.46
38114,-0.411286,9.7561,1.20516,0.7,0.14,0,-29.9642,-37.403,-1.17595,1014.46
38120,-0.449546,9.74175,1.17647,0.07,0.07,0.07,-30.5085,-37.5188,-1.5162,1014.45
38126,-0.435198,9.78001,1.18125,0.49,0.21,0.07,-30.2793,-37.2294,-1.55873,1014.45
38132,-0.406504,9.74175,1.21473,0.14,0.21,-0.21,-30.2506,-37.8082,-1.11924,1014.44
38138,-0.420851,9.73697,1.21473,0.42,-0.35,-0.21,-30.8809,-38.2133,-1.7005,1014.44
38144,-0.416069,9.75131,1.20516,0.21,0.42,-0.14,-29.9069,-37.0558,-2.3243,1014.45
38150,-0.449546,9.78001,1.19082,0.42,-0.14,-0.07,-31.3392,-37.6056,-1.72886,1014.45
38156,-0.430416,9.78957,1.20995,0.49,-0.42,0.07,-30.2793,-37.9818,-1.23266,1014.45
38162,-0.420851,9.73697,1.21473,-0.14,-0.28,0.28,-30.0788,-37.7503,-1.98405,1014.45
38168,-0.435198,9.75131,1.24342,0.49,-0.42,0.07,-30.3652,-37.9239,-1.38861,1014.46
38174,-0.406504,9.75131,1.20995,0.28,0.14,0,-30.0501,-38.0108,-1.78557,1014.46
38180,-0.425634,9.76566,1.18604,0.28,0.21,0.07,-30.222,-38.3291,-1.60126,1014.46
38186,-0.401722,9.78957,1.19082,0.42,-0.28,-0.28,-29.8782,-37.432,-1.92734,1014.43
38192,-0.420851,9.77523,1.22429,0.49,-0.98,0,-30.4225,-37.0847,-0.155194,1014.43
38198,-0.411286,9.73697,1.20995,0.14,-0.49,-0.35,-31.2246,-37.4609,-0.367851,1014.45
38204,-0.435198,9.78479,1.15734,-0.07,-0.49,0.07,-31.0241,-37.5188,-2.02658,1014.45
38210,-0.420851,9.76088,1.18604,-0.14,0.14,0,-30.2506,-37.9818,-1.53038,1014.43
38216,-0.406504,9.75131,1.21951,0.49,0,-0.07,-29.8782,-37.2005,-0.949114,1014.43
38222,-0.401722,9.7274,1.21473,0.35,0.49,-0.21,-30.3079,-36.969,-2.3243,1014.43
38228,-0.430416,9.74175,1.20995,0.14,-0.14,0.35,-30.136,-37.8082,-0.892406,1014.43
38234,-0.420851,9.72262,1.19082,0.35,0.14,0.21,-31.2246,-38.1844,-1.13342,1014.44
38240,-0.430416,9.74175,1.20995,0.35,-0.28,-0.28,-30.4798,-37.6056,-1.37443,1014.44
38246,-0.416069,9.76088,1.22908,0.21,0.14,-0.21,-30.0501,-37.6924,-1.96987,1014.42
38252,-0.449546,9.7561,1.20516,0.42,-0.21,-0.35,-31.1387,-37.8082,-1.13342,1014.42
38258,-0.444763,9.7561,1.22908,0.21,0.07,-0.21,-29.7063,-37.8661,-0.594686,1014.42
38264,-0.463893,9.74653,1.20516,0.07,0.07,0.49,-30.1647,-38.2133,-2.22506,1014.45
38270,-0.435198,9.77044,1.18604,0.07,0.21,-0.28,-31.4538,-38.0108,-1.94151,1014.45
38276,-0.396939,9.78479,1.19082,0.14,0.07,0.21,-29.7063,-37.8371,-1.23266,1014.45
38282,-0.416069,9.75131,1.22429,-0.35,-0.14,0,-30.6803,-37.7214,-0.864051,1014.45
38288,-0.430416,9.7561,1.20995,0.7,-0.07,-0.14,-29.8496,-37.6346,-1.64379,1014.47
38294,-0.430416,9.74653,1.20038,0.35,-0.42,-0.21,-30.0788,-37.3741,-0.864051,1014.47
38300,-0.435198,9.77523,1.18125,0.07,0.21,0.07,-30.3079,-37.7214,-2.15417,1014.45
38306,-0.401722,9.74175,1.20516,0.63,-0.07,-0.21,-29.7923,-37.403,-2.33847,1014.45
38312,-0.425634,9.73218,1.20038,0.21,-0.07,0.21,-30.2793,-37.7214,-1.53038,1014.42
38318,-0.449546,9.76566,1.22429,0.56,0,-0.14,-30.623,-37.1715,-1.07671,1014.42
38324,-0.425634,9.73218,1.23386,0.14,-0.35,-0.21,-30.1647,-37.5767,0.0716399,1014.45
38330,-0.396939,9.74175,1.23386,0.49,0.07,0.07,-30.6517,-37.2294,-1.04835,1014.45
38336,-0.416069,9.74175,1.24342,0.42,0,0.14,-30.3939,-38.1265,-0.807343,1014.45
38342,-0.463893,9.73218,1.20516,0.21,0.14,-0.14,-30.1074,-38.3001,-0.693926,1014.45
38348,-0.444763,9.74175,1.18604,-0.14,-0.21,-0.35,-30.1933,-37.7793,-1.89898,1014.45
38354,-0.454328,9.74653,1.21951,0.14,-0.28,0.14,-30.222,-38.5027,-2.29594,1014.41
38360,-0.401722,9.74175,1.21951,0.07,0.07,0,-30.4512,-38.0108,-0.991646,1014.41
38366,-0.420851,9.74653,1.20995,0.56,-0.42,-0.07,-30.136,-38.2423,-2.42354,1014.44
38372,-0.444763,9.78001,1.20038,0.14,-0.28,0,-31.11,-37.7793,-1.43114,1014.44
38378,-0.463893,9.74653,1.21473,0.42,-0.84,-0.07,-31.0241,-38.1265,-0.32532,1014.43
38384,-0.425634,9.77523,1.20995,0.28,0.07,0.07,-30.0788,-38.5317,-2.08329,1014.43
38390,-0.45911,9.76566,1.19082,0.28,0.49,-0.14,-30.5371,-38.6185,-1.00582,1014.46
38396,-0.425634,9.77523,1.21473,0.42,0.21,0.14,-30.3652,-38.0108,-1.75721,1014.46
38402,-0.401722,9.76088,1.23386,0.42,0.42,0.07,-30.5371,-38.2712,-1.31772,1014.44
38408,-0.396939,9.73697,1.24821,0.49,-0.28,-0.42,-30.1933,-38.0397,-1.31772,1014.44
38414,-0.392157,9.74175,1.22908,0.28,0.63,-0.07,-30.4512,-38.6474,-0.835697,1014.45
38420,-0.406504,9.72262,1.20995,0.14,-0.42,-0.07,-30.5657,-38.5027,-0.32532,1014.45
38426,-0.425634,9.75131,1.20995,0.56,-0.49,0,-30.3079,-38.358,-1.92734,1014.45
38432,-0.406504,9.7561,1.17647,0.42,-0.77,-0.14,-31.11,-38.0397,-1.03418,1014.44
38438,-0.392157,9.74175,1.20995,-0.07,-0.28,-0.14,-30.623,-38.1265,-0.750634,1014.44
38444,-0.411286,9.74653,1.22429,0.14,0.35,-0.28,-30.5657,-38.1844,-1.36025,1014.44
38450,-0.406504,9.75131,1.21951,0.42,0.28,-0.28,-30.2506,-38.0976,-0.240257,1014.44
38456,-0.454328,9.73218,1.21951,0.21,-0.07,-0.14,-30.2506,-38.4738,-1.77139,1014.44
38462,-0.411286,9.75131,1.20038,0.35,-0.28,0.21,-30.3079,-37.9818,-0.977469,1014.44
38468,-0.411286,9.73218,1.22908,0.28,-0.21,-0.28,-30.4512,-37.9239,-1.85645,1014.48
38474,-0.406504,9.74175,1.23386,0.7,-0.28,0.07,-30.9095,-38.4448,-1.77139,1014.48
38480,-0.416069,9.76088,1.21473,1.19,0.35,-0.07,-30.9382,-38.6185,-1.61544,1014.46
38486,-0.435198,9.74175,1.21951,0.35,-0.21,-0.28,-30.4798,-37.9529,-1.53038,1014.46
38492,-0.406504,9.74175,1.21951,0.35,0.28,-0.14,-30.222,-37.7503,-2.28177,1014.44
38498,-0.416069,9.74653,1.21473,0.63,-0.49,-0.28,-30.3366,-38.0976,-1.61544,1014.44
38504,-0.435198,9.76566,1.19082,0.07,-0.07,-0.14,-30.0788,-37.895,-1.58709,1014.44
38510,-0.439981,9.71784,1.21951,0.14,-0.63,-0.07,-30.709,-37.5767,-1.03418,1014.44
38516,-0.420851,9.78479,1.21473,0,-0.21,0.14,-29.2766,-37.8082,-1.88481,1014.44
38522,-0.435198,9.7561,1.23386,0.35,-0.56,-0.35,-29.6491,-37.6924,-0.537977,1014.44
38528,-0.420851,9.73697,1.22908,0.21,-0.07,-0.14,-29.9069,-38.7921,-0.481269,1014.44
38534,-0.396939,9.76088,1.21951,0.42,0.49,-0.21,-29.9642,-37.8371,-0.764811,1014.47
38540,-0.411286,9.73697,1.24821,0.21,0,-0.35,-30.7663,-37.6056,-1.30354,1014.47
38546,-0.420851,9.74175,1.23386,0.35,0.28,-0.28,-29.7636,-37.4899,-2.08329,1014.43
38552,-0.392157,9.77044,1.22429,0.28,-0.35,-0.56,-30.8522,-37.2584,-1.64379,1014.43
38558,-0.449546,9.73697,1.19082,1.05,0.14,-0.35,-30.7663,-37.9239,-1.00582,1014.45
38564,-0.420851,9.75131,1.19082,0.49,-0.35,-0.28,-29.8496,-37.4899,-1.7005,1014.45
38570,-0.454328,9.74175,1.17647,0.49,-0.21,-0.42,-30.222,-37.7214,-1.48785,1014.43
38576,-0.439981,9.7561,1.20516,0.35,-0.63,-0.35,-30.5085,-37.6924,-0.268611,1014.43
38582,-0.430416,9.77523,1.21473,0.28,-0.14,-0.49,-30.9382,-38.1844,-1.34607,1014.43
38588,-0.416069,9.74175,1.20995,0.28,0.35,-0.28,-30.0501,-37.5767,-1.75721,1014.46
38594,-0.406504,9.7561,1.23386,0,-0.07,-0.35,-30.1074,-38.2133,-2.22506,1014.46
38600,-0.449546,9.74175,1.23386,-0.07,0.21,-0.28,-30.4225,-38.0108,-1.5162,1014.44
38606,-0.439981,9.74653,1.21473,0.63,0.21,-0.07,-30.0215,-37.5767,-2.05493,1014.44
38612,-0.449546,9.74175,1.21473,0.7,0.21,-0.14,-30.222,-37.7793,-1.78557,1014.44
38618,-0.468675,9.76566,1.20995,0.42,0,-0.21,-30.0215,-37.9239,-1.87063,1014.44
38624,-0.411286,9.74653,1.18125,0.07,-0.56,-0.21,-29.9928,-37.2584,-1.43114,1014.47
38630,-0.411286,9.74653,1.23864,0.49,-0.28,-0.35,-30.5371,-37.6924,-0.141017,1014.47
38636,-0.420851,9.77044,1.20995,0.07,-0.49,-0.21,-31.5684,-38.6474,-2.77797,1014.44
38642,-0.473458,9.7561,1.19082,0.28,0.07,-0.07,-30.9954,-37.9239,-1.57291,1014.44
38648,-0.425634,9.7561,1.21473,0.56,-0.28,-0.35,-31.1673,-38.2423,-2.18253,1014.43
38654,-0.396939,9.74653,1.21473,0.07,0.14,0.07,-31.3106,-37.9529,-0.934937,1014.43
38660,-0.411286,9.73218,1.22429,0.21,0.28,-0.21,-30.3652,-38.6764,-0.580509,1014.41
38666,-0.396939,9.77044,1.1956,0.42,0,-0.21,-30.136,-38.1265,-1.54455,1014.41
38672,-0.411286,9.7561,1.21951,0.49,0.49,-0.21,-30.1647,-38.0108,-1.10506,1014.41
38678,-0.430416,9.76088,1.20516,0.35,0.14,-0.21,-29.9928,-37.3162,-1.75721,1014.45
38684,-0.406504,9.75131,1.18604,1.12,0.28,0,-29.735,-38.0108,-1.10506,1014.45
38690,-0.454328,9.74175,1.21473,0.7,0,-0.07,-29.8209,-37.5477,-2.15417,1014.44
38696,-0.435198,9.77044,1.1956,0.42,-0.35,-0.21,-30.5371,-37.7503,-1.23266,1014.44
38702,-0.435198,9.76088,1.20516,0.28,-0.21,0,-30.3652,-38.387,-0.467091,1014.45
38708,-0.439981,9.77523,1.20038,0.35,-0.56,-0.42,-30.1074,-37.4899,-1.85645,1014.45
38714,-0.439981,9.73697,1.21473,0.56,-0.21,-0.14,-30.0501,-37.5477,-0.778989,1014.47
38720,-0.430416,9.74653,1.18604,-0.07,-0.28,0,-30.1647,-38.4738,-0.849874,1014.47
38726,-0.430416,9.76088,1.20038,0.14,0.07,-0.07,-29.5345,-37.6346,-1.68633,1014.45
38732,-0.45911,9.7561,1.20516,0.7,0.49,0.07,-30.0215,-37.6056,-0.679749,1014.45
38738,-0.420851,9.75131,1.18125,-0.07,-0.21,-0.21,-30.1933,-37.7214,-1.36025,1014.44
38744,-0.420851,9.7561,1.22908,0.56,0.42,-0.07,-30.623,-38.2423,-1.34607,1014.44
38750,-0.439981,9.76566,1.22429,0.7,0,0.14,-30.7663,-38.1555,-0.72228,1014.44
38756,-0.449546,9.77044,1.19082,0,0.49,0.28,-30.3939,-38.0108,-0.254434,1014.44
38762,-0.430416,9.77523,1.20995,0.07,-0.14,0.07,-30.0788,-37.8082,-1.27519,1014.44
38768,-0.416069,9.73697,1.23864,0.28,-0.49,0.07,-30.222,-37.7503,-0.72228,1014.48
38774,-0.411286,9.7274,1.23864,0.35,-0.42,0,-29.9355,-38.4738,-1.57291,1014.48
38780,-0.444763,9.74653,1.25777,0.7,-0.7,0.14,-30.4512,-37.9239,-1.58709,1014.44
38786,-0.425634,9.73697,1.23386,1.12,0.42,0,-31.0814,-37.8082,-1.57291,1014.44
38792,-0.406504,9.73697,1.21473,0.28,-0.28,-0.35,-30.709,-37.5477,-1.64379,1014.45
38798,-0.373027,9.73697,1.20995,0.42,0.84,-0.21,-31.196,-37.8082,-1.04835,1014.45
38804,-0.420851,9.7274,1.21473,0.35,-0.21,-0.21,-30.623,-37.7214,-1.40278,1014.43
38810,-0.425634,9.73218,1.21473,0.84,0.63,-0.21,-30.7949,-37.1715,-1.96987,1014.43
38816,-0.420851,9.79914,1.15256,0.42,-0.35,-0.21,-30.0501,-37.6924,-1.06253,1014.44
38822,-0.439981,9.78957,1.16691,0.28,-0.49,-0.28,-30.0501,-38.0686,-0.268611,1014.44
38828,-0.45911,9.78001,1.18604,0.07,-0.63,0,-30.0788,-38.5895,-1.31772,1014.44
38834,-0.435198,9.77044,1.22429,0.21,-0.14,-0.21,-30.2506,-38.6185,-1.44531,1014.44
38840,-0.425634,9.7274,1.22429,0.14,0.49,-0.21,-29.5631,-38.6185,-2.08329,1014.44
38846,-0.439981,9.73218,1.22908,0,0.21,-0.21,-30.1933,-37.9818,-0.637217,1014.43
38852,-0.406504,9.74175,1.25299,-0.07,0.14,-0.49,-30.7376,-37.6056,-1.47367,1014.43
38858,-0.420851,9.72262,1.24821,0.21,-0.49,-0.21,-30.7376,-38.2712,-1.64379,1014.48
38864,-0.435198,9.75131,1.22908,0.63,0.21,-0.21,-30.6803,-38.4738,-1.92734,1014.48
38870,-0.416069,9.75131,1.22429,0,-0.07,-0.35,-30.3939,-37.9239,-0.679749,1014.44
38876,-0.435198,9.77523,1.21473,0,-0.14,-0.07,-30.1933,-37.4609,-2.12582,1014.44
38882,-0.454328,9.7561,1.1956,0.56,-0.21,-0.28,-30.4512,-37.4609,-0.82152,1014.44
38888,-0.449546,9.76566,1.20038,0.35,0,-0.49,-29.7636,-38.1265,-1.10506,1014.44
38894,-0.411286,9.73697,1.19082,0.42,0.07,-0.07,-30.4225,-38.3001,0.0149313,1014.42
38900,-0.425634,9.76088,1.21951,0.07,-0.28,-0.35,-31.5111,-37.6924,-0.580509,1014.42
38906,-0.468675,9.7561,1.1956,0,0.14,-0.21,-30.0501,-37.4609,-1.61544,1014.41
38912,-0.392157,9.75131,1.20038,0.49,0.42,0.21,-30.1933,-38.4159,-1.55873,1014.41
38918,-0.439981,9.73697,1.21951,0.28,0.21,-0.28,-30.9095,-37.7214,-1.53038,1014.41
38924,-0.435198,9.77523,1.19082,0.14,0,-0.07,-30.3366,-37.2005,-1.21848,1014.44
38930,-0.411286,9.75131,1.22908,0.98,-0.63,0,-30.136,-37.7503,-1.34607,1014.44
38936,-0.444763,9.76088,1.24342,0.35,-0.07,-0.28,-30.1074,-37.4899,-2.15417,1014.46
38942,-0.430416,9.76088,1.1956,0.7,-0.49,0.42,-31.2819,-39.1394,-2.08329,1014.46
38948,-0.401722,9.73697,1.21473,0.28,0.07,0.35,-30.5371,-38.2423,-1.41696,1014.42
38954,-0.420851,9.73218,1.19082,0.21,-0.35,-0.21,-30.623,-38.3291,-0.72228,1014.42
38960,-0.463893,9.76566,1.1956,0.14,0.21,0,-31.0527,-38.1265,-1.36025,1014.44
38966,-0.454328,9.71784,1.20516,-0.21,0.21,0,-30.7663,-37.9529,-1.24683,1014.44
38972,-0.411286,9.75131,1.20516,0.56,0.35,0.07,-30.8809,-37.6346,-0.778989,1014.45
38978,-0.392157,9.75131,1.20038,0.28,0.35,-0.14,-31.0241,-37.5188,-2.12582,1014.45
38984,-0.439981,9.76088,1.20038,0.07,-0.14,-0.21,-31.11,-37.8082,-1.79974,1014.4
38990,-0.420851,9.73218,1.24821,0.91,-0.14,-0.14,-30.3366,-36.7085,-1.38861,1014.4
38996,-0.411286,9.70349,1.24821,0.42,-0.07,-0.14,-30.6517,-37.5767,-1.16177,1014.4
39002,-0.406504,9.7274,1.21473,0.42,-0.07,0,-31.6257,-37.8371,-1.65797,1014.46
39008,-0.396939,9.74653,1.22429,0.63,-0.49,-0.21,-30.8522,-37.7503,0.0149313,1014.46
39014,-0.430416,9.76566,1.18604,0.63,-0.14,-0.35,-31.3965,-37.2584,-0.211903,1014.47
39020,-0.425634,9.75131,1.20516,0.49,0.28,-0.49,-30.9382,-37.8371,-1.02,1014.47
39026,-0.411286,9.74653,1.22429,0.56,-0.07,-0.49,-30.7376,-37.4609,-1.06253,1014.44
39032,-0.430416,9.73218,1.21473,0.49,0.35,-0.21,-30.5085,-37.2005,-0.892406,1014.44
39038,-0.425634,9.76566,1.22429,0.42,-0.14,-0.21,-30.4798,-37.0847,-0.637217,1014.42
39044,-0.45911,9.7561,1.1956,0.28,-0.21,-0.35,-30.8236,-36.969,-0.0276001,1014.42
39050,-0.416069,9.73697,1.22429,0.49,-0.07,-0.21,-30.7949,-37.9529,-0.892406,1014.42
39056,-0.430416,9.7561,1.21951,0.56,0.07,-0.35,-30.0501,-38.2133,-1.74303,1014.42
39062,-0.439981,9.76088,1.20516,0.63,0,0,-31.1387,-37.7503,-1.95569,1014.41
39068,-0.449546,9.76088,1.18604,0.77,0.07,-0.14,-30.0788,-37.6346,-0.452914,1014.41
39074,-0.420851,9.73697,1.20995,0.35,-0.07,-0.35,-29.8496,-37.7503,-0.793166,1014.44
39080,-0.392157,9.73697,1.24821,0.49,0.14,-0.14,-30.3366,-37.5477,-0.708103,1014.44
39086,-0.420851,9.74653,1.23386,0.49,-0.21,-0.35,-30.623,-37.1426,-1.09089,1014.44
39092,-0.439981,9.77044,1.22908,0.35,-0.42,-0.49,-30.4798,-37.1715,-0.0984858,1014.43
39098,-0.425634,9.76088,1.1956,0.7,0.14,-0.42,-30.5944,-37.2584,-1.50202,1014.43
39104,-0.416069,9.76088,1.21951,0.63,-0.35,-0.42,-30.3079,-37.0268,-1.14759,1014.45
39110,-0.430416,9.77044,1.19082,0.21,0.07,-0.21,-29.8209,-37.403,-1.17595,1014.45
39116,-0.406504,9.75131,1.21473,0.84,-0.28,-0.42,-30.7663,-36.94,-0.92076,1014.45
39122,-0.430416,9.74653,1.21473,0.56,0,-0.35,-30.3652,-37.2005,-0.778989,1014.45
39128,-0.449546,9.74175,1.20516,0.56,0.21,-0.35,-30.5085,-37.8661,-0.892406,1014.45
39134,-0.439981,9.7561,1.20038,0.56,0.21,-0.28,-30.6803,-37.432,-1.27519,1014.45
39140,-0.430416,9.74175,1.20995,0.28,0.28,-0.28,-30.5085,-37.6635,-2.0124,1014.44
39146,-0.435198,9.75131,1.20995,0.14,-0.28,-0.21,-30.8809,-37.1137,-1.36025,1014.44
39152,-0.430416,9.74175,1.19082,0.28,0.07,-0.28,-30.623,-36.8243,-0.736457,1014.45
39158,-0.439981,9.77044,1.20995,0.49,-0.7,-0.35,-30.7376,-37.9239,-0.679749,1014.45
39164,-0.444763,9.74653,1.20995,0.56,-0.28,-0.28,-30.4798,-37.6635,-1.03418,1014.45
39170,-0.406504,9.74175,1.22429,0.63,-0.63,-0.42,-30.3939,-37.2005,-1.47367,1014.44
39176,-0.435198,9.73218,1.20516,0.63,0.07,-0.35,-30.8522,-37.7214,-1.7005,1014.44
39182,-0.430416,9.72262,1.23386,0.7,0.42,-0.35,-30.5085,-37.5188,-1.03418,1014.43
39188,-0.439981,9.7561,1.23386,0.28,0.42,-0.42,-31.1387,-37.2294,-1.07671,1014.43
39194,-0.439981,9.73218,1.21473,0.42,-0.14,-0.35,-31.0527,-37.2294,-1.14759,1014.43
39200,-0.449546,9.74175,1.1956,0.63,-0.35,-0.28,-30.4798,-37.9529,-0.864051,1014.43
39206,-0.435198,9.79914,1.18604,0.49,-0.21,-0.35,-30.6517,-36.8243,-1.48785,1014.42
39212,-0.420851,9.7561,1.19082,0.42,-0.63,-0.49,-29.8496,-37.6346,-0.509623,1014.42
39218,-0.449546,9.74175,1.20038,0.77,0.21,-0.14,-30.2793,-37.6924,-0.892406,1014.46
39224,-0.430416,9.7274,1.20516,0.21,-0.56,-0.28,-30.1933,-37.895,-1.81392,1014.46
39230,-0.416069,9.77044,1.1956,0.42,0.07,-0.35,-29.4485,-37.4899,-0.537977,1014.46
39236,-0.449546,9.76088,1.1956,0.77,0.28,-0.28,-29.7636,-37.0847,-1.89898,1014.46
39242,-0.449546,9.74653,1.1956,0,0.21,-0.21,-30.4798,-37.9818,-0.651394,1014.46
39248,-0.425634,9.74653,1.20516,0.63,0.28,-0.14,-30.623,-37.3452,-1.06253,1014.42
39254,-0.425634,9.73697,1.20038,0.84,-0.14,-0.21,-29.8496,-37.3741,-1.03418,1014.42
39260,-0.449546,9.74653,1.21951,0.14,0.42,-0.28,-30.1933,-38.0397,-1.60126,1014.44
39266,-0.444763,9.72262,1.1956,0.28,-0.35,-0.21,-30.4798,-37.5188,-0.509623,1014.44
39272,-0.435198,9.74175,1.1956,0.91,-0.7,-0.14,-30.222,-37.2005,-1.41696,1014.44
39278,-0.392157,9.7274,1.20038,-0.21,-0.28,0.07,-29.9928,-37.1426,-0.835697,1014.44
39284,-0.444763,9.7274,1.21473,0.49,-0.28,-0.21,-29.6777,-37.1426,-1.30354,1014.45
39290,-0.430416,9.74175,1.1956,0.63,0,-0.42,-30.136,-38.0397,0.36936,1014.45
39296,-0.463893,9.7561,1.20995,0.63,-0.49,-0.07,-29.5631,-37.5477,0.0574628,1014.46
39302,-0.420851,9.75131,1.20995,0.28,0.21,-0.28,-30.7376,-37.6056,-0.155194,1014.46
39308,-0.411286,9.74175,1.22429,0.42,0,-0.7,-30.3939,-37.2005,-1.62962,1014.46
39314,-0.454328,9.74175,1.23864,1.05,0.14,-0.42,-30.5944,-37.9818,-0.268611,1014.46
39320,-0.463893,9.73218,1.21473,0.7,-0.21,-0.35,-30.4512,-37.9239,-0.835697,1014.44
39326,-0.449546,9.76566,1.21951,0.14,-0.35,-0.56,-30.9382,-37.5188,-0.438737,1014.44
39332,-0.430416,9.75131,1.1956,0.42,-0.28,-0.07,-30.1074,-37.4899,-0.651394,1014.44
39338,-0.435198,9.76566,1.23386,0.49,-0.28,-0.42,-30.8236,-36.9111,-0.92076,1014.45
39344,-0.449546,9.78479,1.18125,0.35,0.49,-0.7,-30.6517,-37.5767,0.185057,1014.45
39350,-0.439981,9.74653,1.18604,0.63,0.49,0,-30.3939,-37.1715,-0.367851,1014.44
39356,-0.420851,9.76088,1.18604,0,-0.14,-0.35,-29.7063,-37.7793,-2.28177,1014.44
39362,-0.435198,9.73697,1.1956,-0.14,-0.07,-0.21,-30.4798,-37.403,-1.58709,1014.46
39368,-0.454328,9.77044,1.19082,0.28,0.21,-0.35,-30.8522,-36.5059,-1.36025,1014.46
39374,-0.435198,9.76566,1.21473,0.49,-0.77,-0.28,-31.3392,-37.6924,-1.79974,1014.44
39380,-0.406504,9.78479,1.22908,0.63,-0.07,-0.07,-30.8809,-37.8082,-0.72228,1014.44
39386,-0.439981,9.7274,1.22429,0.63,-0.84,-0.21,-31.0241,-38.1555,-0.72228,1014.45
39392,-0.439981,9.77044,1.22429,0.28,-0.14,-0.07,-30.9095,-37.6056,-1.78557,1014.45
39398,-0.430416,9.73697,1.21951,0.35,0.56,-0.49,-30.4798,-37.2005,-1.30354,1014.5
39404,-0.401722,9.76566,1.21473,0.7,0.49,-0.07,-30.136,-36.9111,-0.566332,1014.5
39410,-0.411286,9.74175,1.21473,0.56,0.28,-0.21,-30.3366,-36.9979,-0.339497,1014.5
39416,-0.45911,9.76566,1.20516,0.63,-0.49,-0.63,-30.1647,-37.6056,-1.50202,1014.44
39422,-0.454328,9.77044,1.1956,0.42,0.14,-0.21,-30.3079,-37.895,-1.24683,1014.44
39428,-0.411286,9.72262,1.20995,0.56,-0.98,-0.28,-30.709,-37.8082,-0.750634,1014.45
39434,-0.444763,9.73218,1.18125,0.84,0.14,-0.35,-30.9382,-37.9239,-0.82152,1014.45
39440,-0.449546,9.73697,1.1956,0.14,-0.42,-0.28,-30.1074,-37.3741,-0.537977,1014.46
39446,-0.435198,9.76088,1.21473,0.35,0.35,-0.21,-30.7376,-37.5767,0.0999942,1014.46
39452,-0.416069,9.7561,1.20038,0.7,-0.07,-0.35,-32.0267,-38.6474,-0.906583,1014.43
39458,-0.435198,9.75131,1.20995,0.28,0.35,-0.42,-30.9382,-37.1426,-0.537977,1014.43
39464,-0.449546,9.74175,1.23386,0.42,-0.42,-0.14,-30.623,-38.358,-1.19013,1014.44
39470,-0.430416,9.74653,1.21473,0.91,-0.14,0.14,-30.5085,-37.7503,-0.608863,1014.44
39476,-0.401722,9.74175,1.19082,0,-0.7,-0.42,-30.5371,-38.358,-1.27519,1014.45
39482,-0.468675,9.75131,1.19082,-0.14,0.14,-0.14,-30.9954,-36.9979,-1.19013,1014.45
39488,-0.425634,9.7274,1.24821,0.42,0.42,-0.28,-30.136,-37.0847,-1.67215,1014.4
39494,-0.468675,9.73697,1.22908,0.14,0.35,-0.21,-30.5371,-37.9239,-0.92076,1014.4
39500,-0.449546,9.75131,1.23386,0.28,0.14,-0.21,-30.5371,-38.0108,-1.43114,1014.4
39506,-0.435198,9.74653,1.21951,0.56,-0.56,-0.42,-30.4225,-38.3001,-1.14759,1014.45
39512,-0.444763,9.77523,1.20038,0.28,0.07,-0.28,-31.1673,-38.3291,-1.34607,1014.45
39518,-0.444763,9.75131,1.22908,0.21,-0.28,-0.35,-30.5085,-37.8082,-1.71468,1014.42
39524,-0.444763,9.73697,1.20516,0.35,-0.28,-0.28,-30.5371,-37.8661,-0.892406,1014.42
39530,-0.435198,9.74175,1.19082,0.42,-0.49,-0.28,-29.9355,-37.5188,-0.42456,1014.44
39536,-0.444763,9.78479,1.19082,0.56,-0.07,-0.07,-30.5657,-37.7503,-0.949114,1014.44
39542,-0.435198,9.79436,1.22429,0.49,0.21,-0.14,-30.2793,-39.0526,-0.991646,1014.49
39548,-0.454328,9.7561,1.20995,0.56,0,-0.21,-30.4512,-38.7632,-0.977469,1014.49
39554,-0.444763,9.7561,1.20038,0,0.42,-0.49,-32.084,-39.0236,-2.11164,1014.44
39560,-0.439981,9.7561,1.19082,0,0,-0.35,-30.222,-37.8661,-0.807343,1014.44
39566,-0.420851,9.76088,1.20995,0.63,0.28,-0.07,-30.8522,-37.4899,-0.92076,1014.46
39572,-0.449546,9.77523,1.20516,0.49,0.14,-0.28,-29.8209,-37.7793,-1.79974,1014.46
39578,-0.468675,9.75131,1.22429,0.07,-0.07,-0.21,-30.1933,-38.4159,-1.48785,1014.46
39584,-0.444763,9.77523,1.20516,0.63,0.07,0,-31.4251,-38.5606,-0.864051,1014.45
39590,-0.396939,9.73697,1.22908,0.7,0.07,-0.14,-30.4225,-37.8371,-0.509623,1014.45
39596,-0.449546,9.74653,1.1956,0.63,-0.14,-0.28,-30.5085,-38.1555,-0.311143,1014.47
39602,-0.444763,9.75131,1.20516,0.42,0,-0.07,-30.8522,-37.9239,-1.75721,1014.47
39608,-0.416069,9.7561,1.19082,0.14,-0.21,-0.14,-30.4798,-38.3001,-1.02,1014.42
39614,-0.473458,9.74653,1.20516,0.56,0,-0.14,-30.7663,-38.0976,-0.339497,1014.42
39620,-0.463893,9.73697,1.20038,0.42,-0.28,-0.07,-30.4512,-37.9239,-1.04835,1014.42
39626,-0.444763,9.74653,1.20995,0.35,0.07,-0.42,-30.2793,-37.7503,-1.43114,1014.42
39632,-0.492587,9.76088,1.17647,0.56,0.42,-0.07,-30.3366,-37.1715,-1.64379,1014.42
39638,-0.473458,9.73697,1.20516,0.21,-0.14,-0.28,-30.7376,-38.85,-1.04835,1014.42
39644,-0.416069,9.75131,1.1956,0.14,0.14,0.07,-31.0241,-38.3001,-1.11924,1014.42
39650,-0.454328,9.78957,1.1956,0.77,0.21,0.21,-30.8236,-37.8661,-1.98405,1014.42
39656,-0.430416,9.74653,1.22908,0.21,0.21,-0.07,-31.4824,-39.0815,-2.73543,1014.42
39662,-0.463893,9.75131,1.20038,-0.14,0.35,-0.07,-30.3366,-38.0976,-0.693926,1014.45
39668,-0.444763,9.7561,1.20516,0.35,0,-0.28,-30.5657,-37.9818,-0.495446,1014.45
39674,-0.430416,9.76088,1.21473,0.49,0.42,-0.35,-30.3939,-38.1555,-1.45949,1014.46
39680,-0.416069,9.7274,1.25777,0.21,0.21,-0.35,-30.136,-37.8661,-0.282789,1014.46
39686,-0.439981,9.7274,1.20995,0.07,-0.07,0.07,-30.3079,-37.895,-1.10506,1014.45
39692,-0.468675,9.76088,1.20038,0.56,0.28,-0.28,-30.136,-37.9529,-0.736457,1014.45
39698,-0.45911,9.7561,1.21473,0.35,-0.49,-0.21,-30.8236,-38.0976,-0.552154,1014.44
39704,-0.449546,9.75131,1.20516,0.21,-0.21,-0.28,-30.623,-38.5895,-2.06911,1014.44
39710,-0.45911,9.78001,1.17647,0.91,-0.21,-0.35,-30.5944,-37.6635,-0.637217,1014.44
39716,-0.439981,9.7561,1.18604,0.28,0.21,0.07,-30.4225,-38.1265,-0.778989,1014.44
39722,-0.425634,9.7561,1.16691,0.21,0.42,0.28,-30.4512,-38.358,-1.45949,1014.44
39728,-0.463893,9.78001,1.16691,0.42,0,-0.42,-30.9382,-37.7214,-1.75721,1014.44
39734,-0.45911,9.77044,1.19082,0.07,0.14,-0.35,-30.1933,-38.2133,-1.62962,1014.44
39740,-0.468675,9.78001,1.20038,-0.21,0.14,0.14,-30.8236,-38.387,-1.28937,1014.44
39746,-0.45911,9.76566,1.20516,0.63,0.07,-0.28,-30.2506,-38.4738,-1.57291,1014.44
39752,-0.454328,9.73697,1.18125,0.21,-0.07,-0.28,-30.6803,-37.9239,-0.963291,1014.42
39758,-0.468675,9.73218,1.20038,0.28,-0.14,0.07,-30.1933,-37.9239,-1.37443,1014.42
39764,-0.45911,9.74175,1.24821,0.21,0.35,0.14,-30.6517,-37.9529,-2.13999,1014.46
39770,-0.430416,9.7274,1.22908,0.07,-0.14,-0.21,-30.8236,-37.5767,-0.72228,1014.46
39776,-0.439981,9.73218,1.22429,0.21,-0.21,0.49,-31.0241,-38.0397,-1.06253,1014.46
39782,-0.430416,9.7561,1.21473,0.42,0.28,-0.14,-29.7636,-38.0108,-0.566332,1014.46
39788,-0.430416,9.73697,1.18125,-0.28,-0.35,-0.14,-30.3939,-38.358,-1.28937,1014.46
39794,-0.425634,9.7561,1.18604,0,0.07,-0.14,-30.5657,-37.6056,-1.8281,1014.46
39800,-0.449546,9.76088,1.20038,0.07,-0.28,-0.35,-30.623,-37.7214,-1.13342,1014.44
39806,-0.430416,9.77044,1.21473,0.21,-0.07,-0.28,-30.623,-37.6056,-1.98405,1014.44
39812,-0.45911,9.76088,1.22908,0.07,0.21,-0.07,-30.0215,-38.4448,-0.750634,1014.41
39818,-0.45911,9.74653,1.19082,0.56,-0.28,-0.21,-30.7376,-38.6474,-1.03418,1014.41
39824,-0.449546,9.7561,1.20038,0,0,-0.07,-30.1933,-37.9818,-0.878229,1014.41
39830,-0.439981,9.77523,1.19082,-0.35,0.28,0.07,-30.1647,-38.1555,-2.15417,1014.44
39836,-0.439981,9.7274,1.22908,0.28,-0.07,-0.35,-30.8236,-37.6056,-0.481269,1014.44
39842,-0.454328,9.72262,1.24342,0.07,0.21,-0.28,-30.8809,-37.6924,-0.991646,1014.44
39848,-0.444763,9.72262,1.20038,0.21,-0.21,-0.07,-30.222,-38.0397,-0.963291,1014.44
39854,-0.444763,9.7274,1.21951,0.28,0.35,-0.42,-30.9095,-38.2423,-0.367851,1014.44
39860,-0.430416,9.73697,1.23864,0.21,-0.21,-0.07,-30.2506,-38.1844,-0.594686,1014.44
39866,-0.463893,9.74175,1.20516,0.77,-0.28,-0.07,-30.9954,-37.7503,-1.21848,1014.41
39872,-0.449546,9.76566,1.1956,0.49,0.21,-0.42,-30.3939,-37.9529,-0.892406,1014.41
39878,-0.435198,9.78957,1.18125,0.14,-0.56,-0.14,-30.7663,-38.0686,-0.849874,1014.45
39884,-0.454328,9.74653,1.20038,-0.28,-0.28,0.14,-30.5944,-37.432,-0.963291,1014.45
39890,-0.483022,9.77044,1.19082,0.42,-0.63,-0.28,-31.2533,-38.1844,-0.594686,1014.47
39896,-0.449546,9.78479,1.18604,0.49,-0.14,-0.21,-30.5371,-37.9239,-0.736457,1014.47
39902,-0.444763,9.74653,1.21951,0,-0.14,0.07,-30.9382,-37.9239,-0.906583,1014.41
39908,-0.411286,9.73697,1.22908,0.49,0.28,-0.21,-30.3079,-37.5767,-1.2043,1014.41
39914,-0.425634,9.74175,1.20516,0.21,-0.49,0.14,-30.2506,-37.6346,-0.481269,1014.41
39920,-0.444763,9.75131,1.21473,-0.07,-0.42,-0.14,-30.0215,-37.9818,-0.254434,1014.45
39926,-0.420851,9.73697,1.20995,0.42,-0.35,-0.07,-30.7663,-37.7793,0.326829,1014.45
39932,-0.444763,9.73218,1.23864,0.35,0.21,-0.28,-30.1647,-37.6056,-0.963291,1014.46
39938,-0.430416,9.73218,1.23386,0,0.14,-0.07,-30.3939,-37.6635,-1.58709,1014.46
39944,-0.449546,9.71305,1.22429,0.42,0.28,-0.35,-29.7636,-37.3452,-1.04835,1014.44
39950,-0.425634,9.74175,1.20038,0.63,-0.07,-0.35,-29.9928,-38.0976,-0.32532,1014.44
39956,-0.439981,9.7274,1.20038,0.77,-0.07,-0.07,-30.5085,-38.1555,-1.85645,1014.49
39962,-0.45911,9.75131,1.20516,0.56,0,-0.28,-30.222,-38.0686,-0.665572,1014.49
39968,-0.454328,9.78957,1.17647,0.56,0,-0.49,-30.136,-38.1555,-0.467091,1014.43
39974,-0.45911,9.7561,1.18604,0.21,-0.7,0.07,-30.7663,-37.5188,-0.835697,1014.43
39980,-0.449546,9.77523,1.1956,-0.07,0.07,-0.28,-30.4798,-38.5895,-0.878229,1014.42
39986,-0.454328,9.74175,1.20516,0.63,-0.35,-0.14,-30.3939,-37.5477,-1.64379,1014.42
39992,-0.439981,9.76088,1.20995,0.7,-0.28,0.21,-30.2506,-38.4738,-1.13342,1014.42
39998,-0.439981,9.73697,1.23864,0.14,-0.7,-0.14,-30.4798,-38.1844,-0.353674,1014.46
40004,-0.454328,9.76088,1.21951,0.49,-0.35,-0.35,-30.623,-37.9818,-1.10506,1014.46
40010,-0.463893,9.73697,1.21951,0.77,0.14,-0.14,-30.5657,-37.8082,-0.835697,1014.45
40016,-0.420851,9.7274,1.24342,-0.14,0,-0.14,-31.0814,-38.2712,-0.282789,1014.45
40022,-0.47824,9.73697,1.22429,0.35,0.21,-0.07,-30.4798,-38.2712,-1.61544,1014.43
40028,-0.420851,9.75131,1.20038,0.56,0,-0.07,-30.6803,-37.8661,-1.21848,1014.43
40034,-0.406504,9.74653,1.18125,0.07,0.7,0,-30.8809,-37.7793,-1.55873,1014.44
40040,-0.439981,9.75131,1.18604,-0.21,-0.21,-0.21,-30.623,-37.895,-2.05493,1014.44
40046,-0.430416,9.75131,1.20516,0.21,-0.49,0.07,-30.6517,-37.9529,-0.892406,1014.44
40052,-0.45911,9.74653,1.19082,0,-0.35,-0.14,-30.709,-38.1265,-2.35265,1014.44
40058,-0.45911,9.74653,1.23386,0.21,-0.56,-0.35,-30.5944,-38.2423,-1.67215,1014.44
40064,-0.425634,9.7274,1.22908,0.42,0.28,-0.14,-30.7663,-37.7793,-2.29594,1014.44
40070,-0.454328,9.76088,1.22429,0,-0.42,-0.07,-30.3652,-37.9529,-1.03418,1014.44
40076,-0.473458,9.77523,1.16691,0.42,0.21,0.21,-30.5657,-37.1137,-1.40278,1014.42
40082,-0.45911,9.77044,1.23864,0.56,0.35,-0.07,-30.3939,-37.5477,-1.06253,1014.42
40088,-0.435198,9.76088,1.1956,0.35,0.28,0,-30.5371,-38.1844,-1.40278,1014.44
40094,-0.439981,9.73697,1.23864,0.28,0.07,0.14,-31.2819,-37.8082,-1.43114,1014.44
40100,-0.420851,9.75131,1.1956,0.7,-0.42,-0.07,-30.7663,-37.5767,-1.87063,1014.45
40106,-0.430416,9.73697,1.20995,0.21,-0.21,-0.21,-30.9668,-37.4609,-0.934937,1014.45
40112,-0.425634,9.76088,1.21473,0.28,0.21,-0.07,-30.4225,-37.8082,-1.72886,1014.49
40118,-0.425634,9.74175,1.20995,0.49,0.07,-0.21,-30.8809,-38.6474,-0.396206,1014.49
40124,-0.439981,9.75131,1.20038,0.14,0.14,-0.35,-30.9382,-37.8371,-1.85645,1014.46
40130,-0.444763,9.74175,1.18125,0.35,-0.42,-0.35,-30.7376,-37.8371,-1.68633,1014.46
40136,-0.425634,9.74175,1.20995,0.42,-0.49,-0.14,-30.6803,-37.3452,-0.764811,1014.45
40142,-0.45911,9.74653,1.20995,0.21,-0.63,-0.21,-30.3939,-37.895,-1.58709,1014.45
40148,-0.444763,9.77044,1.21473,0,0.21,-0.07,-30.9382,-37.432,-1.28937,1014.45
40154,-0.439981,9.74175,1.1956,0.21,0.28,-0.42,-30.3079,-38.1555,-0.807343,1014.45
40160,-0.435198,9.71784,1.22429,0.49,0.28,-0.28,-30.7376,-38.6764,-0.963291,1014.45
40166,-0.425634,9.76088,1.1956,0.77,-0.21,-0.42,-31.1387,-38.5895,-1.58709,1014.42
40172,-0.521282,9.77523,1.20038,0.63,-0.07,-0.28,-31.0241,-38.0108,-0.537977,1014.42
40178,-0.483022,9.77523,1.17647,0.07,-0.42,0,-30.4798,-38.1265,-2.09746,1014.42
40184,-0.392157,9.70827,1.24821,-0.07,-0.07,0.21,-29.4485,-37.8371,-1.17595,1014.42
40190,-0.435198,9.7274,1.21951,0.77,-0.07,-0.35,-30.5657,-38.1265,-1.24683,1014.45
40196,-0.463893,9.70827,1.25299,0.98,-0.56,0,-30.8522,-37.9529,-1.11924,1014.45
40202,-0.416069,9.84696,1.07126,0.21,0.42,0,-29.9642,-37.7214,-1.02,1014.41
40208,-0.516499,9.81827,1.23864,0.28,-0.63,-0.28,-30.5371,-37.403,-1.13342,1014.41
40214,-0.37781,9.70827,1.20516,0.14,0,-0.21,-30.6517,-37.2873,-0.637217,1014.45
40220,-0.444763,9.73697,1.21473,0.63,-0.35,-0.14,-30.3939,-38.5027,-2.26759,1014.45
40226,-0.425634,9.79914,1.20038,0.77,0,-0.49,-29.8782,-38.1555,-1.8281,1014.43
40232,-0.47824,9.77523,1.14778,0.42,-0.35,-0.21,-30.4512,-37.8371,-1.89898,1014.43
40238,-0.449546,9.7274,1.24821,0.42,-0.28,-0.42,-31.6543,-37.8082,-0.72228,1014.43
40244,-0.411286,9.74653,1.19082,0.21,0.42,-0.35,-30.3652,-37.9818,-1.91316,1014.43
40250,-0.430416,9.77044,1.18125,0.07,0.21,-0.21,-30.5371,-37.7793,-0.708103,1014.43
40256,-0.444763,9.76088,1.20516,0.28,0.14,-0.35,-30.7949,-38.387,-1.36025,1014.43
40262,-0.435198,9.77044,1.20995,0.21,0.42,-0.42,-30.222,-37.6346,-1.84227,1014.43
40268,-0.425634,9.7561,1.23864,0.77,0.21,-0.28,-30.623,-37.8371,-0.438737,1014.47
40274,-0.416069,9.74175,1.19082,0.42,0.14,-0.42,-30.1933,-37.9529,-0.991646,1014.47
40280,-0.492587,9.76566,1.1956,0.07,-0.07,-0.21,-30.4512,-37.8661,-1.57291,1014.46
40286,-0.463893,9.76088,1.20516,0.56,-0.42,-0.35,-30.0788,-38.2133,-1.89898,1014.46
40292,-0.463893,9.73697,1.20516,-0.07,-0.49,-0.28,-30.4512,-37.9818,-2.25341,1014.47
40298,-0.487805,9.7274,1.29125,0.49,-0.35,-0.42,-30.5657,-37.6635,-1.94151,1014.47
40304,-0.463893,9.84218,1.05213,0.7,0,-0.07,-29.9928,-37.9818,-1.60126,1014.43
40310,-0.530846,9.70827,1.21473,0,-0.35,0.07,-30.9668,-38.2423,-1.16177,1014.43
40316,-0.349115,9.70827,1.27212,0.21,0.28,-0.07,-30.7663,-37.8082,-1.21848,1014.46
40322,-0.420851,9.72262,1.24342,0.21,0.14,-0.35,-30.1933,-37.8371,-0.537977,1014.46
40328,-0.416069,9.7274,1.25299,0.84,0,-0.49,-30.5371,-38.0976,-1.03418,1014.46
40334,-0.439981,9.78957,1.12386,0.49,-0.14,-0.49,-30.3939,-38.2712,-1.47367,1014.46
40340,-0.444763,9.71784,1.24342,0.14,0.21,-0.42,-30.136,-37.8082,-0.793166,1014.46
40346,-0.411286,9.74653,1.20995,0.56,-0.07,-0.49,-30.6517,-37.403,-1.27519,1014.45
40352,-0.454328,9.73697,1.20995,0.56,-0.56,-0.42,-30.5085,-37.9529,-0.764811,1014.45
40358,-0.420851,9.74653,1.19082,0.21,-0.21,-0.56,-30.4798,-38.2133,-1.43114,1014.42
40364,-0.416069,9.75131,1.17647,0.35,-0.21,-0.28,-31.0241,-37.6635,-1.38861,1014.42
40370,-0.468675,9.75131,1.1956,0.42,0.07,-0.28,-30.5657,-38.1555,-0.580509,1014.41
40376,-0.425634,9.73697,1.21473,0.14,-0.49,-0.35,-30.222,-37.6346,-0.949114,1014.41
40382,-0.483022,9.77523,1.20995,0.56,0,-0.35,-29.9928,-37.8661,-0.778989,1014.44
40388,-0.473458,9.78957,1.19082,0.63,0.28,-0.7,-30.4512,-37.8661,-1.5162,1014.44
40394,-0.483022,9.75131,1.1956,0.14,0.21,-0.28,-30.2506,-38.1555,-1.58709,1014.45
40400,-0.49737,9.78001,1.17169,0.35,0.07,-0.07,-30.0788,-37.895,-2.21088,1014.45
40406,-0.444763,9.78001,1.17647,0.63,0,-0.42,-30.4225,-37.7503,-1.38861,1014.45
40412,-0.439981,9.77523,1.1956,0.07,0.14,-0.49,-30.5371,-37.8082,-1.50202,1014.46
40418,-0.439981,9.74653,1.24821,0.42,-0.21,0.28,-30.3652,-37.5767,-0.835697,1014.46
40424,-0.439981,9.73697,1.22908,0.21,-0.42,0.07,-30.8809,-37.6346,-0.141017,1014.47
40430,-0.449546,9.76088,1.1956,0.21,0.28,-0.07,-30.8522,-37.9818,-0.438737,1014.47
40436,-0.425634,9.75131,1.1956,0.07,-0.42,0,-29.9928,-37.7214,-1.61544,1014.44
40442,-0.430416,9.75131,1.21473,0.49,-0.35,-0.07,-30.3366,-37.7793,-2.0124,1014.44
40448,-0.430416,9.72262,1.21473,0.42,-0.21,-0.7,-30.8236,-37.2584,-1.09089,1014.42
40454,-0.439981,9.7274,1.1956,0.42,-0.49,-0.49,-30.5657,-38.2133,-1.44531,1014.42
40460,-0.425634,9.72262,1.20516,0.91,0.42,-0.21,-30.3939,-37.5477,-1.62962,1014.47
40466,-0.454328,9.75131,1.20995,0.42,-0.28,-0.14,-30.5944,-37.895,-2.62202,1014.47
40472,-0.454328,9.74653,1.20995,0.28,0.28,-0.14,-30.7376,-37.9239,-2.13999,1014.44
40478,-0.435198,9.74653,1.23864,0.63,0.14,-0.49,-30.5371,-37.6056,-1.31772,1014.44
40484,-0.444763,9.77044,1.19082,0,-0.28,-0.56,-30.5657,-37.8371,-0.693926,1014.44
40490,-0.444763,9.76566,1.18604,0.28,0.07,-0.35,-30.7949,-37.2005,-0.977469,1014.45
40496,-0.449546,9.75131,1.20038,0.56,0.07,-0.42,-29.735,-38.1265,-0.82152,1014.45
40502,-0.473458,9.75131,1.1956,0.28,0,-0.63,-31.0241,-38.0686,-0.665572,1014.45
40508,-0.454328,9.76088,1.20995,0.07,0,-0.28,-30.3652,-38.4738,-1.48785,1014.45
40514,-0.425634,9.73697,1.21473,0.56,-0.35,-0.28,-30.3079,-37.9529,-1.67215,1014.44
40520,-0.439981,9.76088,1.21473,0.42,-0.14,-0.56,-31.2246,-37.8371,-1.99822,1014.44
40526,-0.454328,9.73218,1.21951,0.7,-0.49,-0.42,-30.2793,-37.8371,-1.45949,1014.43
40532,-0.45911,9.74653,1.22908,0.63,-0.35,-0.35,-30.8809,-38.4159,-1.54455,1014.43
40538,-0.454328,9.72262,1.21951,0.77,-0.14,-0.56,-29.9928,-38.2133,-1.77139,1014.42
40544,-0.449546,9.7561,1.21951,0.7,-0.56,-0.49,-30.9095,-38.1265,-0.481269,1014.42
40550,-0.425634,9.7274,1.20516,0.42,0.07,-0.42,-30.4798,-38.2712,-1.30354,1014.42
40556,-0.444763,9.73697,1.20038,1.05,-0.28,-0.7,-29.9069,-38.4159,-0.665572,1014.42
40562,-0.473458,9.7561,1.21473,0.77,0,-0.56,-30.623,-37.6056,-0.835697,1014.44
40568,-0.45911,9.73697,1.20995,0.42,0.28,-0.91,-30.9668,-37.8661,-0.62304,1014.44
40574,-0.454328,9.74175,1.20038,0.98,0.21,-0.56,-30.222,-37.7214,0.383537,1014.44
40580,-0.439981,9.76566,1.20038,0.35,0.7,-0.63,-30.7376,-38.0976,-0.82152,1014.42
40586,-0.473458,9.76566,1.17647,0.42,0,-0.7,-30.5371,-38.2712,-0.552154,1014.42
40592,-0.463893,9.75131,1.1956,0.63,0.07,-0.84,-30.4512,-37.9239,-0.509623,1014.43
40598,-0.449546,9.76088,1.20038,0.84,-0.49,-0.42,-29.8782,-37.8082,-1.71468,1014.43
40604,-0.47824,9.76088,1.20516,0.63,0,-0.7,-30.5944,-37.9239,-1.31772,1014.42
40610,-0.463893,9.78001,1.16212,0.84,-0.35,-0.63,-30.5085,-37.5767,-1.02,1014.42
40616,-0.487805,9.79914,1.16691,0.77,0,-0.49,-31.0241,-37.9818,-1.62962,1014.44
40622,-0.506934,9.77044,1.1956,0.35,0.07,-0.07,-30.7663,-38.3291,-1.94151,1014.44
40628,-0.45911,9.76088,1.20516,0.42,-0.28,-0.21,-30.3079,-37.8661,-1.85645,1014.45
40634,-0.420851,9.70827,1.21473,0.56,0.07,-0.35,-30.1933,-38.2423,-1.81392,1014.45
40640,-0.425634,9.73697,1.22429,0.42,0.28,-0.42,-29.9642,-37.8082,-1.02,1014.44
40646,-0.473458,9.7561,1.1956,0.98,0.28,-0.56,-31.0814,-37.6635,-1.88481,1014.44
40652,-0.473458,9.73218,1.1956,0.56,0.14,-0.56,-30.8522,-37.5188,-1.48785,1014.44
40658,-0.411286,9.76566,1.20995,0.56,-0.07,-0.28,-30.5944,-37.8661,-1.40278,1014.4
40664,-0.468675,9.74175,1.18125,0.77,0.07,-0.49,-30.8236,-37.1137,-0.934937,1014.4
40670,-0.468675,9.78001,1.14299,0.63,0,-0.28,-30.4512,-37.0558,-1.21848,1014.43
40676,-0.483022,9.78957,1.13821,0.42,-0.21,-0.42,-30.5371,-37.7214,0.241766,1014.43
40682,-0.483022,9.78001,1.15256,0.56,-0.07,-0.21,-29.9928,-37.2873,-2.11164,1014.43
40688,-0.454328,9.7561,1.20995,0.14,-0.28,-0.49,-30.2506,-37.9239,-1.67215,1014.43
40694,-0.463893,9.73697,1.21473,0.21,0.28,-0.49,-30.1074,-37.8371,-0.637217,1014.44
40700,-0.468675,9.76566,1.17169,0.42,0.35,-0.21,-30.2793,-37.6635,-1.55873,1014.44
40706,-0.492587,9.74175,1.1956,-0.21,0.28,-0.21,-30.1074,-37.5477,-2.05493,1014.44
40712,-0.47824,9.74653,1.1956,-0.28,-0.49,-0.21,-30.2793,-38.0397,-0.835697,1014.44
40718,-0.439981,9.74653,1.17169,0.77,0.14,-0.07,-30.2793,-38.1555,-1.31772,1014.44
40724,-0.502152,9.78957,1.15256,0.14,-0.28,-0.07,-30.1933,-38.0397,-0.693926,1014.44
40730,-0.483022,9.75131,1.20516,-0.21,-0.14,0,-30.5944,-38.1555,-1.30354,1014.47
40736,-0.47824,9.73697,1.20995,0.49,-0.35,0.07,-30.136,-37.403,-1.85645,1014.47
40742,-0.468675,9.73218,1.23386,0.35,-0.7,-0.42,-30.5657,-38.5027,-0.864051,1014.47
40748,-0.430416,9.70349,1.25777,0.28,-0.35,0.07,-30.5371,-37.403,-0.608863,1014.42
40754,-0.411286,9.85174,1.05213,0.35,0,-0.14,-30.5944,-37.8371,-0.764811,1014.42
40760,-0.526064,9.7274,1.23386,0.42,-0.42,-0.28,-31.3106,-38.358,-0.552154,1014.42
40766,-0.416069,9.76088,1.18125,0.21,0,0.14,-30.3366,-37.7793,-1.60126,1014.42
40772,-0.468675,9.71305,1.24342,0.35,-0.42,0,-31.0814,-37.9239,-2.04075,1014.42
40778,-0.416069,9.77044,1.17169,-0.42,-0.07,-0.35,-30.9095,-37.5477,-0.849874,1014.42
40784,-0.449546,9.78479,1.20995,-0.14,0.07,-0.42,-31.0527,-37.5188,-1.03418,1014.45
40790,-0.473458,9.76566,1.20995,0.35,0.14,-0.14,-30.8522,-37.1715,-0.665572,1014.45
40796,-0.439981,9.73697,1.20038,-0.14,0.07,-0.21,-31.1673,-37.895,-1.54455,1014.43
40802,-0.420851,9.71305,1.24821,0.21,-0.42,0.07,-30.6517,-37.8082,-2.02658,1014.43
40808,-0.439981,9.72262,1.23386,0.35,-0.42,-0.35,-31.0814,-37.8082,-1.62962,1014.45
40814,-0.468675,9.7561,1.20516,0,-0.35,0,-30.4512,-38.4448,-2.13999,1014.45
40820,-0.468675,9.75131,1.20516,0.56,0.28,0.14,-31.1673,-37.9818,-0.949114,1014.45
40826,-0.430416,9.75131,1.18604,0.35,0,-0.21,-31.3106,-37.7503,-1.84227,1014.41
40832,-0.439981,9.76088,1.19082,0.56,0.77,0.42,-31.1387,-38.0108,-1.19013,1014.41
40838,-0.444763,9.7274,1.22429,0.49,-0.28,0.35,-30.9382,-38.387,-1.65797,1014.42
40844,-0.487805,9.74653,1.19082,0.35,0.28,0.14,-31.3392,-38.85,-1.71468,1014.42
40850,-0.47824,9.7561,1.19082,0.49,-0.28,0.07,-30.7376,-38.0686,-1.28937,1014.43
40856,-0.492587,9.76088,1.16212,0.49,-0.42,-0.21,-30.3939,-38.7342,-0.892406,1014.43
40862,-0.483022,9.76088,1.20038,0.49,-0.56,0,-30.3366,-38.3001,-0.92076,1014.44
40868,-0.463893,9.7274,1.23386,0.63,-0.28,0.49,-30.1647,-37.2584,-1.53038,1014.44
40874,-0.425634,9.7274,1.18604,0.35,0.14,-0.21,-30.7949,-37.9239,-1.11924,1014.48
40880,-0.435198,9.73218,1.20038,0.77,-0.35,-0.07,-30.7949,-38.5317,-2.23923,1014.48
40886,-0.463893,9.74175,1.21473,0.91,0,0.21,-31.6543,-37.7503,-1.27519,1014.44
40892,-0.487805,9.78479,1.17169,0.7,-0.07,-0.35,-30.7376,-38.2133,-2.0124,1014.44
40898,-0.449546,9.75131,1.19082,0.49,0.21,0.14,-30.7949,-37.8371,-1.31772,1014.44
40904,-0.487805,9.78479,1.16212,0.35,0.49,0,-30.3652,-38.0686,-1.74303,1014.43
40910,-0.439981,9.78001,1.16212,0.28,0.21,0.14,-30.8522,-37.6924,-1.45949,1014.43
40916,-0.473458,9.71784,1.1956,0.21,-0.07,0.14,-30.4512,-38.2712,-0.5238,1014.46
40922,-0.396939,9.77044,1.19082,0.14,0,-0.42,-30.5371,-38.4448,-1.84227,1014.46
40928,-0.492587,9.73218,1.22429,0.35,-0.35,-0.28,-30.709,-38.2423,-2.72126,1014.43
40934,-0.444763,9.71784,1.17169,0.28,0,0.07,-31.2246,-37.8371,-2.16835,1014.43
40940,-0.468675,9.73697,1.23386,0.14,-0.28,0.07,-30.4512,-38.0397,-0.934937,1014.44
40946,-0.435198,9.75131,1.21951,0.91,-0.07,-0.35,-30.2793,-37.403,-1.2043,1014.44
40952,-0.473458,9.76566,1.17647,0.49,-0.21,0,-29.6777,-38.9079,-1.60126,1014.45
40958,-0.483022,9.76566,1.22429,0.42,-0.07,-0.14,-29.7063,-37.7503,-1.62962,1014.45
40964,-0.502152,9.78957,1.17169,0.49,0.14,0.28,-30.0788,-38.1265,-1.91316,1014.45
40970,-0.454328,9.75131,1.20038,0.35,0.14,-0.07,-29.9642,-37.5477,-0.42456,1014.45
40976,-0.435198,9.72262,1.21473,0.49,0.21,-0.14,-30.1647,-38.3291,-1.23266,1014.44
40982,-0.45911,9.74653,1.1956,0.49,-0.7,-0.35,-30.623,-38.1265,-1.61544,1014.44
40988,-0.449546,9.76088,1.1956,0.35,0.14,-0.21,-30.6803,-38.2712,-0.835697,1014.44
40994,-0.444763,9.7561,1.1956,0.35,-0.84,-0.49,-30.5371,-38.5317,-1.71468,1014.49
41000,-0.444763,9.71305,1.1956,0.7,-0.07,0,-30.8522,-38.2133,-1.13342,1014.49
41006,-0.425634,9.74653,1.20038,0.35,-0.28,-0.35,-30.3652,-37.6924,-1.75721,1014.48
41012,-0.45911,9.73218,1.16691,0.35,0.35,-0.28,-30.1647,-37.8661,-0.906583,1014.48
41018,-0.511717,9.76566,1.17647,0.35,0.21,0.14,-31.2533,-38.0397,-1.19013,1014.43
41024,-0.439981,9.74175,1.20038,0.35,0.21,-0.49,-30.5657,-37.8661,-1.37443,1014.43
41030,-0.420851,9.73218,1.1956,0.42,-0.21,-0.42,-31.0814,-38.0108,-0.878229,1014.41
41036,-0.439981,9.7561,1.1956,0.35,-0.28,-0.21,-30.5944,-38.2423,-0.679749,1014.41
41042,-0.47824,9.73218,1.20038,0.91,-0.21,-0.49,-30.7376,-38.2423,-0.778989,1014.42
41048,-0.468675,9.77523,1.17169,0.7,0.28,-0.21,-30.4798,-37.403,-0.793166,1014.42
41054,-0.435198,9.75131,1.17647,0.35,-0.14,-0.21,-30.8809,-38.0976,-0.410383,1014.47
41060,-0.430416,9.78001,1.18604,0.49,0.14,-0.07,-30.8236,-37.8371,-2.46607,1014.47
41066,-0.463893,9.77044,1.18604,0.63,-0.14,-0.14,-30.0501,-38.1265,-0.736457,1014.47
41072,-0.463893,9.78479,1.18125,0.35,0,0,-30.3939,-38.5027,-2.13999,1014.49
41078,-0.492587,9.77044,1.16212,0.49,0.07,-0.07,-30.2506,-38.1844,-1.61544,1014.49
41084,-0.47824,9.74653,1.18604,0.28,0.21,-0.07,-30.5944,-38.1555,-1.60126,1014.45
41090,-0.444763,9.7561,1.21473,0.35,-0.07,-0.28,-31.683,-39.0526,-2.26759,1014.45
41096,-0.463893,9.7561,1.20516,0.07,0.28,-0.14,-30.7376,-39.2841,-1.36025,1014.49
41102,-0.425634,9.75131,1.21473,0.14,0,-0.07,-30.0788,-38.3001,-0.963291,1014.49
41108,-0.439981,9.75131,1.20995,0.7,0,-0.07,-30.4798,-38.1555,-1.58709,1014.44
41114,-0.463893,9.74653,1.20995,0.42,-0.42,-0.14,-30.7949,-38.4159,-1.91316,1014.44
41120,-0.449546,9.75131,1.18604,0.35,-0.07,0.14,-31.0241,-38.0108,-0.82152,1014.46
41126,-0.47824,9.7561,1.18125,0.28,0.28,-0.28,-30.3079,-38.2423,-1.67215,1014.46
41132,-0.49737,9.75131,1.15256,0.28,0.07,0,-30.2506,-38.9947,-0.382029,1014.46
41138,-0.492587,9.7561,1.15256,0.28,0.21,-0.07,-30.2506,-38.0397,-0.367851,1014.46
41144,-0.463893,9.77523,1.14299,0,-0.14,-0.21,-30.4798,-37.6346,-1.00582,1014.46
41150,-0.473458,9.74653,1.19082,0.07,0.14,0.35,-30.0215,-38.8211,-1.06253,1014.46
41156,-0.439981,9.72262,1.22908,0.28,-0.07,-0.07,-30.623,-37.9818,-1.95569,1014.46
41162,-0.444763,9.74653,1.20516,0.07,-0.28,-0.28,-30.0215,-38.3001,-1.99822,1014.42
41168,-0.483022,9.7561,1.20038,0.07,0.28,0,-30.222,-38.2133,-0.807343,1014.42
41174,-0.439981,9.73697,1.18604,-0.14,0.07,-0.35,-30.3652,-38.5895,-1.55873,1014.44
41180,-0.45911,9.75131,1.20516,-0.21,-0.49,-0.49,-30.4512,-38.0686,-1.77139,1014.44
41186,-0.449546,9.7561,1.17169,0.21,0.14,-0.14,-30.0501,-37.8082,-0.764811,1014.43
41192,-0.454328,9.74175,1.20516,-0.28,-0.28,-0.28,-31.0527,-39.1973,-1.87063,1014.43
41198,-0.449546,9.7561,1.19082,-0.35,-0.35,-0.28,-30.5657,-38.0686,-1.16177,1014.44
41204,-0.483022,9.73218,1.1956,0.14,-0.28,-0.14,-30.8522,-37.4609,-1.40278,1014.44
41210,-0.449546,9.7561,1.18125,-0.14,-0.35,-0.7,-30.9095,-38.1844,-1.38861,1014.46
41216,-0.454328,9.7561,1.17169,-0.28,0.07,0.07,-30.3366,-38.3291,-1.92734,1014.46
41222,-0.439981,9.74653,1.21951,0.14,-0.49,-0.14,-30.3079,-37.895,-0.750634,1014.45
41228,-0.47824,9.7274,1.20516,-0.07,0.07,-0.21,-30.0215,-38.6764,-2.06911,1014.45
41234,-0.463893,9.75131,1.18125,-0.07,0.28,0,-30.3366,-39.5735,-1.53038,1014.45
41240,-0.502152,9.78479,1.16212,-0.14,-0.28,-0.63,-30.623,-38.6474,-1.06253,1014.42
41246,-0.430416,9.77044,1.21473,0.21,0.21,0.35,-30.8522,-38.2423,-1.40278,1014.42
41252,-0.449546,9.74653,1.21951,-0.14,-0.07,0,-30.7949,-38.1265,-1.02,1014.42
41258,-0.454328,9.7561,1.23386,0,0.21,0,-30.2506,-37.7793,-1.38861,1014.42
41264,-0.487805,9.7274,1.18604,0.28,-0.14,-0.28,-30.3079,-38.8789,-2.5086,1014.42
41270,-0.449546,9.74175,1.23864,0.42,-0.84,-0.07,-31.4824,-38.7921,-0.977469,1014.42
41276,-0.444763,9.7561,1.22429,0.21,-0.49,-0.28,-31.0241,-37.7214,-2.16835,1014.41
41282,-0.444763,9.73697,1.20516,0.35,-0.7,-0.07,-30.2793,-37.9818,-2.1967,1014.41
41288,-0.463893,9.73218,1.1956,0.28,-0.07,-0.14,-30.2506,-38.387,-1.38861,1014.45
41294,-0.45911,9.78001,1.18125,0.14,-0.35,-0.49,-30.5085,-37.9529,-1.87063,1014.45
41300,-0.49737,9.78479,1.17647,0.56,-0.07,-0.07,-30.8236,-38.5895,-1.54455,1014.44
41306,-0.473458,9.78001,1.14299,-0.42,-0.14,-0.14,-30.4512,-38.4738,-2.16835,1014.44
41312,-0.425634,9.77523,1.20516,0.21,-0.42,0.07,-29.9069,-38.6764,-0.878229,1014.44
41318,-0.444763,9.76088,1.24342,0.21,-0.28,0,-30.4225,-37.6346,-2.12582,1014.44
41324,-0.463893,9.77044,1.22429,0.28,-0.14,-0.28,-30.0501,-38.2712,-1.09089,1014.44
41330,-0.439981,9.77044,1.20516,0.63,-0.35,0.14,-30.1647,-38.0976,-0.778989,1014.45
41336,-0.454328,9.7274,1.20516,0.14,-0.07,0.07,-31.2819,-38.1265,-0.906583,1014.45
41342,-0.45911,9.76566,1.1956,-0.28,0.28,-0.14,-30.4512,-38.387,-1.41696,1014.42
41348,-0.454328,9.74175,1.21473,0.49,-0.07,-0.14,-30.0788,-38.1265,-0.82152,1014.42
41354,-0.449546,9.73697,1.21951,0.42,0.07,-0.35,-30.8236,-38.5027,-1.16177,1014.45
41360,-0.444763,9.72262,1.20038,0.63,-0.14,0.14,-30.7663,-37.432,-1.55873,1014.45
41366,-0.45911,9.75131,1.22429,0.35,0.35,-0.21,-30.3366,-38.0976,-1.84227,1014.46
41372,-0.430416,9.74175,1.18604,-0.28,-0.35,-0.35,-30.7376,-37.8082,-1.2043,1014.46
41378,-0.47824,9.75131,1.18125,0.21,-0.28,0.21,-30.1074,-38.0686,-2.53695,1014.44
41384,-0.425634,9.75131,1.17647,0.35,-0.14,-0.35,-30.6517,-38.3291,-1.87063,1014.44
41390,-0.454328,9.78479,1.21951,0.07,-0.28,-0.14,-30.623,-37.5767,-1.02,1014.42
41396,-0.483022,9.78001,1.20038,-0.07,-0.28,0.21,-30.2506,-38.0397,-0.452914,1014.42
41402,-0.483022,9.75131,1.19082,0.07,-0.21,-0.21,-30.2793,-37.9529,-1.71468,1014.42
41408,-0.454328,9.74175,1.19082,0.21,-0.42,-0.14,-30.6517,-38.3291,-1.47367,1014.45
41414,-0.444763,9.75131,1.21951,0.42,0.14,0.14,-31.2246,-38.1844,-0.651394,1014.45
41420,-0.416069,9.7274,1.20038,-0.07,-0.28,-0.28,-31.1673,-38.1844,-1.31772,1014.43
41426,-0.454328,9.77523,1.20995,-0.14,0.07,-0.21,-30.9382,-37.9239,-1.48785,1014.43
41432,-0.463893,9.77523,1.19082,0.63,0.07,0.42,-30.5944,-37.7214,-0.963291,1014.44
41438,-0.425634,9.77044,1.16212,0.07,0,-0.49,-29.9069,-38.5317,-1.30354,1014.44
41444,-0.430416,9.73697,1.19082,0,0.14,-0.14,-30.1074,-37.5188,-0.396206,1014.46
41450,-0.435198,9.71784,1.22429,0,0.21,0.21,-30.8522,-38.1555,0.0716399,1014.46
41456,-0.463893,9.71784,1.20995,0.28,0.56,-0.14,-30.5657,-37.9818,-1.48785,1014.43
41462,-0.420851,9.74653,1.22908,0.07,-0.28,-0.28,-30.7376,-37.5188,-1.19013,1014.43
41468,-0.425634,9.73218,1.17647,0.14,-0.14,-0.35,-30.7663,-37.9818,-0.467091,1014.44
41474,-0.420851,9.74653,1.1956,0.49,-0.28,-0.07,-30.4512,-38.2133,-0.949114,1014.44
41480,-0.454328,9.78001,1.19082,0.49,-0.42,-0.07,-30.4512,-37.8082,-2.62202,1014.44
41486,-0.47824,9.76566,1.15256,0.49,0.28,-0.35,-30.5085,-37.8661,-1.04835,1014.47
41492,-0.468675,9.76566,1.18604,0.14,0.14,-0.28,-30.7949,-38.9368,-0.864051,1014.47
41498,-0.444763,9.74175,1.19082,-0.07,0.14,-0.35,-30.8522,-38.0976,-0.537977,1014.43
41504,-0.444763,9.7274,1.1956,0.14,-0.35,0.14,-31.4824,-38.9368,-1.8281,1014.43
41510,-0.444763,9.75131,1.17647,-0.21,0.21,0,-29.9928,-37.6635,-1.48785,1014.43
41516,-0.430416,9.73218,1.20995,-0.35,-0.21,-0.14,-30.9095,-38.1555,-1.27519,1014.43
41522,-0.449546,9.75131,1.20038,0.07,-0.28,-0.28,-30.4798,-38.1844,-0.42456,1014.46
41528,-0.463893,9.74175,1.20038,0.21,-0.56,-0.28,-30.623,-38.3291,-1.45949,1014.46
41534,-0.430416,9.7561,1.21951,0.21,0.28,-0.28,-31.2533,-38.0686,-1.23266,1014.45
41540,-0.439981,9.74175,1.20516,0.35,-0.21,0,-30.3652,-38.0686,-1.55873,1014.45
41546,-0.439981,9.75131,1.20038,0.14,0.49,-0.21,-30.7376,-37.8371,-1.02,1014.49
41552,-0.430416,9.7561,1.22429,0.21,-0.42,-0.28,-30.4512,-38.0108,-2.0124,1014.49
41558,-0.468675,9.72262,1.1956,0.42,-0.42,0.21,-29.6204,-37.6346,-1.91316,1014.49
41564,-0.430416,9.75131,1.20038,0.14,-0.49,-0.21,-30.1933,-38.3291,-0.793166,1014.43
41570,-0.439981,9.73697,1.22908,0,-0.14,-0.07,-30.709,-38.3291,-1.47367,1014.43
41576,-0.439981,9.74175,1.1956,0.28,0.56,0.28,-30.1933,-37.5477,-1.17595,1014.42
41582,-0.449546,9.74175,1.1956,0.49,-0.21,-0.35,-30.222,-37.7503,-0.991646,1014.42
41588,-0.439981,9.74653,1.20995,0.28,0.28,-0.42,-30.1647,-38.1265,-0.963291,1014.46
41594,-0.454328,9.75131,1.21473,-0.07,0.07,-0.14,-30.6803,-38.3291,-0.0701315,1014.46
41600,-0.439981,9.76566,1.21473,0.35,0.35,-0.14,-29.9928,-38.1265,-1.84227,1014.48
41606,-0.430416,9.77523,1.18604,0,0.21,-0.07,-31.6257,-39.0526,-1.62962,1014.48
41612,-0.435198,9.76566,1.21473,0.28,-0.07,-0.42,-30.5657,-37.1137,-0.651394,1014.44
41618,-0.463893,9.75131,1.20995,0.07,0.21,-0.28,-30.1647,-37.9239,-0.112663,1014.44
41624,-0.449546,9.76088,1.17647,0.07,-0.42,0.14,-30.3366,-38.6185,-2.15417,1014.47
41630,-0.444763,9.8087,1.13821,0.07,-0.14,0.14,-30.5085,-38.0397,-0.892406,1014.47
41636,-0.439981,9.7274,1.24821,-0.42,-0.21,-0.49,-30.3079,-37.5767,-1.44531,1014.42
41642,-0.435198,9.7274,1.23386,0.28,-0.07,-0.07,-30.5085,-38.5027,-1.45949,1014.42
41648,-0.439981,9.70827,1.24342,0.56,-0.21,-0.28,-30.709,-37.7503,-1.55873,1014.42
41654,-0.454328,9.74175,1.20516,0.56,-0.14,-0.42,-30.3939,-37.4899,-1.7005,1014.41
41660,-0.449546,9.77044,1.18604,0.49,-0.35,-0.28,-30.136,-37.4899,-0.268611,1014.41
41666,-0.411286,9.76088,1.20516,0.84,0.07,-0.14,-30.1933,-37.6924,-0.183549,1014.47
41672,-0.401722,9.75131,1.20038,0.42,-0.42,-0.28,-30.1647,-38.4738,-1.75721,1014.47
41678,-0.444763,9.73218,1.20038,0.77,0,0.07,-30.9382,-37.6346,-1.43114,1014.45
41684,-0.449546,9.77044,1.20516,1.05,0,-0.35,-30.7949,-37.9818,-1.58709,1014.45
41690,-0.487805,9.77523,1.21473,0.07,-0.28,-0.07,-30.8522,-38.7921,-1.8281,1014.41
41696,-0.449546,9.7561,1.20995,0.42,0.21,-0.21,-30.9668,-37.3162,-1.40278,1014.41
41702,-0.430416,9.74175,1.21473,0.84,0.21,-0.28,-30.8522,-37.5188,-1.41696,1014.43
41708,-0.435198,9.75131,1.1956,0.14,0.28,-0.14,-30.6517,-37.9239,-1.48785,1014.43
41714,-0.47824,9.75131,1.21473,0.63,-0.14,-0.07,-30.2506,-37.9818,-0.736457,1014.43
41720,-0.502152,9.77044,1.18125,0.49,-0.14,0,-30.8236,-38.3001,-0.693926,1014.43
41726,-0.463893,9.74653,1.22429,0.28,-0.07,0.07,-30.5944,-38.1844,-2.53695,1014.43
41732,-0.425634,9.74653,1.20038,0.28,0,-0.07,-30.1933,-37.3452,-1.36025,1014.43
41738,-0.430416,9.73218,1.20516,0.35,-0.21,-0.28,-30.9095,-37.5477,-1.11924,1014.43
41744,-0.435198,9.74653,1.20995,0.42,0.21,0,-30.4798,-37.5477,-0.949114,1014.43
41750,-0.449546,9.73697,1.21473,0.56,-0.63,-0.07,-30.1074,-37.5767,-1.09089,1014.43
41756,-0.425634,9.74653,1.20516,0.56,-0.28,-0.35,-30.9954,-37.7793,-1.7005,1014.45
41762,-0.430416,9.74175,1.20516,0.98,-0.7,-0.14,-30.5371,-37.7503,-1.24683,1014.45
41768,-0.425634,9.74175,1.22908,0.77,0.14,0.21,-30.4512,-37.3741,-0.566332,1014.44
41774,-0.444763,9.7561,1.20038,0.91,0,-0.28,-31.11,-38.5027,-1.94151,1014.44
41780,-0.502152,9.74653,1.21473,0.14,0,-0.42,-30.9954,-38.1555,-1.88481,1014.46
41786,-0.45911,9.74653,1.20516,0.35,0.07,-0.49,-30.4225,-37.5188,-1.75721,1014.46
41792,-0.435198,9.74653,1.18125,0.63,-0.56,-0.49,-30.5944,-38.0686,-1.87063,1014.44
41798,-0.430416,9.75131,1.20516,0.35,0.07,-0.56,-30.4225,-38.9368,-1.50202,1014.44
41804,-0.444763,9.73218,1.22429,0.42,-0.42,-0.21,-30.9668,-37.7503,-1.65797,1014.46
41810,-0.411286,9.75131,1.18604,0.63,-0.07,-0.42,-30.7376,-37.7214,-1.37443,1014.46
41816,-0.420851,9.72262,1.21473,0.56,-0.49,-0.49,-30.3652,-37.7793,-1.04835,1014.46
41822,-0.444763,9.72262,1.17647,0.63,-0.28,-0.35,-30.8236,-38.0108,-1.65797,1014.43
41828,-0.468675,9.75131,1.20516,0.56,0.35,-0.49,-30.5085,-38.4738,-1.89898,1014.43
41834,-0.463893,9.7561,1.20038,0.42,0.14,-0.28,-30.3366,-38.358,-1.71468,1014.45
41840,-0.473458,9.76566,1.17647,0.42,0.28,-0.35,-30.6803,-38.0397,-2.43771,1014.45
41846,-0.487805,9.76088,1.1956,0.56,-0.56,-0.28,-29.8496,-38.2423,-1.23266,1014.45
41852,-0.449546,9.7561,1.20516,0.14,0.14,-0.35,-30.1647,-38.0686,-0.708103,1014.45
41858,-0.420851,9.70349,1.22908,0.35,-0.84,-0.56,-30.3079,-38.2712,-0.693926,1014.44
41864,-0.416069,9.72262,1.23386,0.7,-0.14,-0.35,-30.3939,-38.358,-0.835697,1014.44
41870,-0.444763,9.74653,1.1956,0.35,-0.35,-0.49,-30.5085,-38.1555,-1.34607,1014.41
41876,-0.45911,9.7561,1.18604,0.35,-0.14,-0.28,-29.9642,-38.3001,-1.16177,1014.41
41882,-0.45911,9.76088,1.20038,0.49,0.07,-0.42,-29.7636,-37.6924,-2.02658,1014.45
41888,-0.439981,9.76566,1.20038,0.77,0.14,-0.56,-30.0215,-38.2133,-1.58709,1014.45
41894,-0.416069,9.74653,1.20038,0.42,0.21,-0.42,-30.3652,-37.6924,-1.95569,1014.45
41900,-0.439981,9.74175,1.20995,0.42,-0.49,-0.63,-30.3079,-37.403,-0.934937,1014.4
41906,-0.435198,9.73697,1.22429,0.84,0,-0.84,-30.4512,-38.0397,-1.07671,1014.4
41912,-0.425634,9.73697,1.20995,0.56,-0.21,-0.84,-29.9355,-37.7503,-0.82152,1014.46
41918,-0.45911,9.77523,1.20995,0.42,-0.21,-0.7,-30.0501,-38.4159,-2.43771,1014.46
41924,-0.454328,9.72262,1.1956,0.84,-0.14,-0.7,-29.9642,-38.1844,-0.835697,1014.45
41930,-0.468675,9.74175,1.20038,0.84,-0.14,-0.98,-30.4512,-37.895,-1.03418,1014.45
41936,-0.444763,9.7561,1.20995,0.21,0.28,-0.77,-30.1933,-37.4899,-1.65797,1014.43
41942,-0.487805,9.81349,1.15734,0.49,0.21,-0.35,-30.3079,-38.387,-2.23923,1014.43
41948,-0.506934,9.78001,1.17647,0.28,0.35,-0.63,-30.9095,-37.6924,-2.59366,1014.46
41954,-0.516499,9.79914,1.20038,0.14,0.14,-0.14,-30.8236,-38.1555,-0.82152,1014.46
41960,-0.49737,9.77044,1.18604,0,-0.14,-0.42,-29.7923,-38.0976,-2.56531,1014.42
41966,-0.47824,9.78479,1.15734,0.56,-0.56,0,-30.4512,-37.9529,-1.48785,1014.42
41972,-0.47824,9.78001,1.21473,0.14,-0.56,0.21,-30.0215,-38.0686,-2.0124,1014.42
41978,-0.439981,9.71784,1.24821,0.42,-0.63,-0.28,-30.4225,-39.3709,-1.13342,1014.46
41984,-0.425634,9.70349,1.27212,0.56,-0.56,-0.07,-30.0501,-38.5895,-2.02658,1014.46
41990,-0.45911,9.69871,1.26255,0.91,0,-0.21,-30.4798,-38.2133,-2.29594,1014.43
41996,-0.435198,9.74175,1.21951,0.77,-0.42,-0.07,-29.9642,-38.1844,-0.892406,1014.43
42002,-0.449546,9.71305,1.21951,0.77,0.21,-0.21,-30.4512,-38.0976,-1.7005,1014.44
42008,-0.435198,9.74175,1.20038,0.7,0.07,-0.28,-30.9382,-38.4738,-2.0124,1014.44
42014,-0.463893,9.73697,1.18125,0.49,0.28,-0.21,-31.3679,-39.5445,-2.55113,1014.45
42020,-0.425634,9.75131,1.16212,0.7,-0.07,-0.56,-31.0241,-38.4738,-1.57291,1014.45
42026,-0.435198,9.74653,1.16212,0.42,-0.28,-0.63,-30.623,-38.85,-1.89898,1014.48
42032,-0.454328,9.73218,1.20038,0.42,0,-0.56,-30.1647,-37.9529,-0.353674,1014.48
42038,-0.449546,9.72262,1.18604,0.49,-0.49,-0.42,-30.6517,-38.0397,-1.04835,1014.46
42044,-0.47824,9.75131,1.19082,0.91,-0.21,-0.42,-31.1673,-37.7793,-2.56531,1014.46
42050,-0.468675,9.71784,1.1956,0.28,-0.49,-0.49,-30.7663,-38.1555,-1.89898,1014.43
42056,-0.47824,9.74175,1.20038,0.56,-0.28,-0.42,-30.7663,-38.1265,-1.74303,1014.43
42062,-0.473458,9.75131,1.1956,1.26,0.21,-0.63,-30.5657,-38.2423,-1.95569,1014.43
42068,-0.468675,9.74175,1.1956,0.14,0.14,-0.7,-29.7063,-38.5027,-2.52278,1014.45
42074,-0.473458,9.76566,1.20516,0.63,0.14,-0.63,-30.6803,-38.4159,-2.28177,1014.45
42080,-0.502152,9.7561,1.18125,0.7,-0.42,-0.56,-30.709,-38.387,-1.64379,1014.44
42086,-0.506934,9.77044,1.15734,0.49,0.28,-0.14,-29.7063,-38.0686,-1.50202,1014.44
42092,-0.45911,9.76088,1.18604,0.07,-0.56,-0.14,-30.1074,-37.8661,-2.08329,1014.46
42098,-0.420851,9.7274,1.24821,0.28,-0.28,-0.14,-29.8209,-37.1426,-2.08329,1014.46
42104,-0.449546,9.73218,1.22429,0.91,-0.42,-0.14,-29.9355,-38.1265,-1.19013,1014.45
42110,-0.49737,9.73697,1.18604,0.91,-0.14,-0.35,-30.1933,-38.0976,-0.736457,1014.45
42116,-0.468675,9.7561,1.1956,0.14,0.21,-0.56,-29.9928,-37.5477,-1.28937,1014.44
42122,-0.45911,9.74653,1.21951,0.91,0,-0.35,-30.7376,-37.7793,-2.08329,1014.44
42128,-0.454328,9.72262,1.19082,0.98,0.07,-0.35,-30.4798,-37.6056,-2.02658,1014.47
42134,-0.483022,9.75131,1.16212,-0.07,-0.14,-0.28,-29.9069,-38.0108,-2.29594,1014.47
42140,-0.463893,9.74653,1.1956,0.84,0.28,-0.28,-31.4251,-37.4609,-1.28937,1014.47
42146,-0.45911,9.76088,1.17647,0.63,-0.14,-0.42,-30.222,-38.0397,-1.58709,1014.43
42152,-0.449546,9.7561,1.20038,0.21,-0.07,-0.28,-30.0501,-37.4899,-0.552154,1014.43
42158,-0.454328,9.7561,1.22908,0.49,-0.56,-0.42,-29.8496,-37.9529,-1.44531,1014.44
42164,-0.463893,9.75131,1.20516,0.28,-0.07,-0.49,-30.5371,-38.5895,-1.37443,1014.44
42170,-0.45911,9.73218,1.20516,0.7,0.49,-0.49,-29.8782,-38.0108,-1.85645,1014.45
42176,-0.47824,9.74653,1.19082,0.07,0.28,-0.28,-30.2793,-37.9529,-1.89898,1014.45
42182,-0.454328,9.57915,1.55428,0.42,-0.98,-1.12,-30.3939,-38.2712,-1.16177,1014.45
42188,-0.325203,10,0.832138,0.42,0.98,-0.21,-29.7923,-38.3001,-1.43114,1014.45
42194,-0.674318,9.89957,0.989957,-0.63,-0.28,-0.35,-30.4798,-38.2712,-0.778989,1014.43
42200,-0.301291,9.76566,1.13343,-0.35,-0.35,0,-30.5657,-38.1265,-2.11164,1014.43
42206,-0.430416,9.76088,1.21951,0.35,-0.63,0.42,-30.1933,-38.4448,-1.85645,1014.46
42212,-0.430416,9.71784,1.23386,0.56,-0.28,-0.42,-30.5657,-38.2133,-0.452914,1014.46
42218,-0.49737,9.78001,1.27212,0,-0.84,-0.21,-30.222,-37.7503,-0.382029,1014.46
42224,-0.406504,9.7274,1.12865,0.84,0.77,0.28,-30.1933,-38.0108,-2.46607,1014.47
42230,-0.588235,9.74653,1.17647,-0.14,-0.98,-0.21,-30.7376,-37.7503,-0.750634,1014.47
42236,-0.392157,9.69871,1.23864,0.63,0.42,0,-29.9642,-37.8371,-1.11924,1014.45
42242,-0.454328,9.69871,1.24342,0.56,0.63,-0.14,-30.5085,-38.5895,-1.65797,1014.45
42248,-0.45911,9.70827,1.22908,0.42,0.21,-0.42,-30.7376,-38.6185,-1.07671,1014.48
42254,-0.45911,9.76566,1.17647,0.21,0.14,-0.21,-31.1673,-38.6185,-0.566332,1014.48
42260,-0.473458,9.67958,1.25299,0.63,0,-0.28,-30.5085,-38.1555,-2.40936,1014.41
42266,-0.45911,9.75131,1.19082,0.56,0.07,-0.21,-29.8209,-38.0108,-1.7005,1014.41
42272,-0.483022,9.73218,1.18125,0.35,-0.35,-0.21,-30.136,-38.1844,-2.90556,1014.46
42278,-0.483022,9.70827,1.29603,0.35,-0.42,-0.56,-31.196,-38.2423,-1.28937,1014.46
42284,-0.487805,9.89957,1.04256,0.42,-0.21,-0.28,-30.623,-38.3291,-1.26101,1014.47
42290,-0.564323,9.79914,1.18125,-0.07,-0.21,-0.07,-30.2506,-38.5317,-2.48025,1014.47
42296,-0.439981,9.71305,1.18125,0.14,0.84,-0.07,-30.5371,-38.1555,-1.74303,1014.44
42302,-0.502152,9.70349,1.26734,0.07,0.14,-0.14,-30.3366,-38.5027,-0.92076,1014.44
42308,-0.49737,9.69871,1.34385,1.47,0.42,-0.28,-30.709,-38.5606,-0.608863,1014.44
42314,-0.554758,10.0191,0.951698,-0.91,0.28,0.21,-30.1647,-38.4448,-0.778989,1014.45
42320,-0.5978,9.68436,1.31994,0,-0.49,0.63,-29.9355,-37.8371,-1.68633,1014.45
42326,-0.315638,9.61262,1.26734,0.42,-0.49,0.07,-30.222,-38.2712,-0.197726,1014.46
42332,-0.483022,9.90913,1.12386,0.35,-0.28,-0.14,-30.3366,-38.0686,-0.42456,1014.46
42338,-0.573888,9.72262,1.22908,0.35,-1.12,0.14,-29.6777,-38.2712,-0.594686,1014.43
42344,-0.368245,9.72262,1.18604,-0.07,0.07,-0.14,-30.3652,-37.9818,-1.16177,1014.43
42350,-0.468675,9.56002,1.48733,1.4,0.35,-0.14,-31.0241,-37.6924,-0.949114,1014.41
42356,-0.435198,9.90435,1.02343,0.49,0.35,-0.28,-30.8236,-37.6924,0.0149313,1014.41
42362,-0.564323,9.71305,1.25299,0.56,0.35,-0.28,-29.6491,-38.6764,-0.849874,1014.43
42368,-0.387374,9.76566,1.17169,0.49,0.14,-0.42,-30.6517,-38.5317,-1.55873,1014.43
42374,-0.473458,9.68914,1.28168,1.12,0.42,-0.56,-30.3939,-38.3001,-1.21848,1014.47
42380,-0.439981,9.75131,1.18604,1.05,-0.21,-0.56,-30.709,-38.5027,-2.09746,1014.47
42386,-0.454328,9.75131,1.20995,0.21,-0.14,-0.63,-30.4512,-38.5606,-1.89898,1014.47
42392,-0.468675,9.74653,1.20516,0.56,-0.63,-0.63,-29.9928,-38.7342,-1.5162,1014.44
42398,-0.463893,9.71784,1.20038,0.98,0.28,-0.56,-29.9928,-38.4448,-1.2043,1014.44
42404,-0.468675,9.73218,1.26734,1.26,0.56,-0.35,-29.3912,-37.7214,-1.44531,1014.46
42410,-0.430416,9.84218,1.09039,0.35,0.7,-0.49,-30.0215,-37.9818,-1.06253,1014.46
42416,-0.545194,9.74653,1.22429,1.05,0.14,-0.56,-30.0788,-37.6635,-1.47367,1014.46
42422,-0.420851,9.74653,1.20995,0.07,-0.28,-0.56,-30.6517,-37.9529,-0.849874,1014.46
42428,-0.502152,9.73218,1.25299,0.56,-0.14,-0.07,-30.1933,-37.6924,-0.949114,1014.44
42434,-0.439981,9.73218,1.1956,1.12,-0.14,-0.07,-30.623,-38.4159,-0.141017,1014.44
42440,-0.47824,9.77523,1.16691,0,0.28,-0.56,-30.5944,-38.0108,-1.17595,1014.44
42446,-0.463893,9.73218,1.20995,0.42,0.21,-0.35,-29.8496,-37.403,-1.8281,1014.44
42452,-0.492587,9.73697,1.18604,0.77,0.49,-0.28,-30.0215,-37.6924,-1.26101,1014.45
42458,-0.47824,9.75131,1.20516,0.35,0.35,-0.56,-29.6491,-38.358,-1.71468,1014.45
42464,-0.463893,9.74653,1.18125,0.77,0.77,-0.63,-29.7636,-37.4609,-1.2043,1014.44
42470,-0.483022,9.74175,1.19082,0.77,0.07,-0.42,-30.0788,-37.7214,-1.57291,1014.44
42476,-0.473458,9.73697,1.18125,0.14,-0.56,-0.84,-30.222,-38.2133,-0.62304,1014.44
42482,-0.45911,9.73218,1.18604,0.49,-0.07,-0.35,-30.0501,-37.8661,-2.16835,1014.5
42488,-0.473458,9.76566,1.1956,0.49,-0.28,-0.56,-29.3053,-37.7503,-1.64379,1014.5
42494,-0.473458,9.75131,1.1956,0.84,0.14,-0.63,-30.222,-37.7503,-1.36025,1014.46
42500,-0.506934,9.78001,1.17169,0.63,-0.42,-0.28,-29.6491,-37.9818,-1.84227,1014.46
42506,-0.502152,9.73697,1.17169,0.42,0.28,-0.56,-30.4225,-37.9239,0.0291085,1014.45
42512,-0.502152,9.7561,1.1956,0.28,0.35,-0.63,-29.8209,-38.5027,-0.452914,1014.45
42518,-0.47824,9.74653,1.19082,0.49,0.49,-0.28,-29.735,-38.4738,-0.183549,1014.43
42524,-0.49737,9.71784,1.23864,0.56,0,-0.28,-30.8236,-38.6185,-1.3319,1014.43
42530,-0.492587,9.76566,1.18125,0.84,-0.28,-0.56,-29.7063,-37.895,-1.45949,1014.45
42536,-0.483022,9.7274,1.1956,0.77,0,-0.21,-29.735,-37.3452,-1.67215,1014.45
42542,-0.492587,9.78001,1.18125,0.49,-0.35,-0.35,-29.5918,-38.4448,-0.892406,1014.44
42548,-0.473458,9.75131,1.17647,0.49,-0.7,-0.42,-29.4199,-37.7793,-0.82152,1014.44
42554,-0.444763,9.74653,1.20516,0.28,-0.63,-0.35,-29.5918,-38.4159,-1.75721,1014.44
42560,-0.473458,9.77044,1.20038,0.42,-0.28,-0.14,-30.7376,-38.7342,-1.54455,1014.46
42566,-0.439981,9.73218,1.21473,0.56,0.42,0,-30.1933,-37.7503,-1.2043,1014.46
42572,-0.483022,9.73218,1.19082,0.7,-0.21,-0.49,-30.623,-38.4448,-1.30354,1014.44
42578,-0.473458,9.73697,1.1956,0.77,0.63,-0.35,-29.8782,-37.7793,-1.45949,1014.44
42584,-0.473458,9.73697,1.19082,0.84,0.42,-0.42,-30.1933,-38.0108,-1.45949,1014.44
42590,-0.463893,9.7274,1.18604,0.49,0.49,-0.63,-30.9668,-38.3291,-1.17595,1014.44
42596,-0.454328,9.74653,1.20038,0.63,-0.07,-0.42,-29.0188,-37.5767,-0.0134229,1014.46
42602,-0.483022,9.74175,1.17647,1.05,0,-0.42,-30.0501,-37.8371,-1.07671,1014.46
42608,-0.483022,9.77044,1.18125,0.42,-0.28,-0.63,-30.709,-37.9529,-1.8281,1014.47
42614,-0.506934,9.7561,1.17169,0.49,0,-0.35,-29.9928,-37.8082,-0.32532,1014.47
42620,-0.473458,9.73218,1.18604,0.56,0.49,-0.42,-30.8522,-38.0686,-0.42456,1014.45
42626,-0.487805,9.7561,1.20516,0.77,-0.07,-0.28,-30.1074,-37.5477,0.326829,1014.45
42632,-0.487805,9.73697,1.20995,0.98,0.49,-0.49,-29.9642,-38.3291,-1.31772,1014.45
42638,-0.454328,9.74175,1.20038,0.42,0.28,-0.77,-29.9355,-38.5895,-1.00582,1014.48
42644,-0.502152,9.74175,1.21951,0.91,0.77,-0.49,-30.3366,-38.5895,-1.09089,1014.48
42650,-0.49737,9.76088,1.17647,0.42,0.21,-0.14,-29.5345,-37.8661,-0.878229,1014.42
42656,-0.47824,9.74653,1.16212,0.63,-0.14,-0.56,-29.8496,-38.2423,-0.0984858,1014.42
42662,-0.521282,9.77044,1.19082,1.05,-0.07,-0.14,-30.3652,-38.0397,-0.282789,1014.45
42668,-0.516499,9.78001,1.12865,0.91,-0.28,-0.28,-30.0501,-38.0108,-1.71468,1014.45
42674,-0.506934,9.76088,1.17169,0.49,0.35,-0.07,-29.9642,-38.3291,-1.11924,1014.47
42680,-0.439981,9.77044,1.17169,0.28,0.14,-0.42,-30.5371,-38.0686,-1.65797,1014.47
42686,-0.511717,9.75131,1.20516,0.49,0.28,-0.21,-29.9355,-37.3452,-1.44531,1014.43
42692,-0.511717,9.7561,1.18604,0.63,-0.07,-0.07,-30.3652,-38.4159,-0.169371,1014.43
42698,-0.492587,9.76088,1.14778,0.28,-0.14,-0.21,-30.3652,-37.7503,-1.19013,1014.43
42704,-0.49737,9.71784,1.17647,0.56,-0.07,-0.21,-29.7923,-37.8661,-2.08329,1014.43
42710,-0.420851,9.74653,1.1956,0.42,0.28,-0.35,-29.9642,-38.0397,-0.268611,1014.44
42716,-0.439981,9.71305,1.18604,0.91,0.07,-0.63,-29.6491,-38.7921,-0.282789,1014.44
42722,-0.463893,9.73218,1.19082,0.98,0.21,-0.63,-29.7923,-37.4609,-0.382029,1014.44
42728,-0.502152,9.73218,1.20038,0.77,-0.14,-0.28,-29.6777,-37.9818,-0.72228,1014.39
42734,-0.487805,9.76088,1.13821,0.35,-0.14,-0.28,-29.9642,-38.0686,-0.991646,1014.39
42740,-0.526064,9.73697,1.20516,0.91,-0.07,-0.28,-29.5058,-38.0108,-0.793166,1014.48
42746,-0.47824,9.75131,1.17169,0.21,0.56,-0.21,-30.5944,-37.6635,-0.452914,1014.48
42752,-0.511717,9.77523,1.15256,0.14,0.21,-0.35,-30.709,-38.1844,-0.452914,1014.46
42758,-0.492587,9.77523,1.14778,0.28,0.14,0,-30.0215,-37.403,-1.28937,1014.46
42764,-0.530846,9.78957,1.14299,0.14,-0.35,0.07,-30.5657,-37.7793,-1.36025,1014.45
42770,-0.540411,9.78001,1.15256,0.35,-0.42,0.56,-30.623,-37.8371,-1.88481,1014.45
42776,-0.49737,9.78001,1.14299,0.14,-0.49,-0.07,-30.623,-37.8661,-1.02,1014.44
42782,-0.492587,9.76566,1.19082,0.21,0.07,0,-30.2793,-37.8371,-0.864051,1014.44
42788,-0.483022,9.77044,1.21473,0.35,-0.14,0.21,-30.2506,-37.5188,-1.14759,1014.41
42794,-0.473458,9.75131,1.21473,0.35,-0.35,0,-30.0788,-38.0397,-0.311143,1014.41
42800,-0.483022,9.71784,1.19082,0.28,-0.28,-0.07,-30.5371,-37.9239,-1.17595,1014.41
42806,-0.454328,9.73697,1.22429,0.56,0.07,0.28,-29.735,-37.2005,-1.40278,1014.41
42812,-0.487805,9.75131,1.23386,0.42,0,-0.28,-29.9069,-38.2423,-0.396206,1014.41
42818,-0.573888,9.78479,1.09995,0.56,0,0.35,-30.7376,-38.0686,-1.24683,1014.47
42824,-0.373027,9.70349,1.16212,-0.07,-0.07,0,-30.623,-37.8661,-0.112663,1014.47
42830,-0.463893,9.64132,1.25777,0.77,-0.28,-0.21,-30.0501,-38.0976,-1.48785,1014.47
42836,-0.392157,9.7561,1.11908,0.63,1.05,-0.63,-30.136,-38.387,-1.58709,1014.47
42842,-0.569106,9.73697,1.19082,0.56,-0.07,-0.35,-30.5085,-38.4159,-0.835697,1014.44
42848,-0.392157,9.73697,1.13821,0.28,0.21,-0.42,-29.8782,-38.4448,-0.92076,1014.44
42854,-0.516499,9.70349,1.21473,1.12,-0.28,-0.91,-30.0788,-38.2423,-1.50202,1014.4
42860,-0.454328,9.74653,1.16212,0.77,0.07,-0.56,-30.1647,-38.5606,-0.963291,1014.4
