Timestamp,AccX,AccY,AccZ,AngularVelX,AngularVelY,AngularVelZ,MagX,MagY,MagZ,AirPressure
37196,0.0526064,9.74653,1.28647,0.84,-2.94,-1.54,-21.4324,-47.8792,10.4594,1014.81
37202,0.0095648,9.69392,1.3056,0.84,-2.45,-1.26,-21.9554,-47.139,13.2817,1014.84
37208,0.0143472,9.72262,1.27212,1.12,-2.73,-1.47,-21.5195,-48.8969,11.3164,1014.84
37214,0.0286944,9.68436,1.28168,1.33,-3.08,-0.77,-21.1127,-48.2184,10.8879,1014.84
37220,0.0143472,9.69392,1.30081,1.12,-2.8,-0.35,-21.5486,-47.0773,11.0357,1014.84
37226,0.0191296,9.70349,1.26255,1.47,-3.5,-0.49,-21.1418,-48.4651,11.5085,1014.83
37232,0.023912,9.71784,1.27212,1.61,-3.01,0.14,-21.8973,-48.095,10.8583,1014.83
37238,0.0526064,9.7274,1.2769,1.68,-3.36,0.28,-21.3452,-47.6941,11.6415,1014.83
37244,0.095648,9.74653,1.23864,1.61,-3.5,-0.28,-20.735,-48.1259,11.9518,1014.83
37250,0.148254,9.78479,1.23864,1.4,-2.87,0,-21.9554,-49.0202,11.3755,1014.83
37256,0.172166,9.78957,1.21473,1.61,-2.66,-0.07,-21.4905,-47.9717,11.2869,1014.81
37262,0.143472,9.78479,1.22908,1.4,-2.66,-0.42,-21.8682,-47.2007,12.2178,1014.81
37268,0.153037,9.78479,1.23864,1.33,-2.52,-0.42,-21.8392,-48.5576,10.9913,1014.82
37274,0.13869,9.80392,1.24342,1.26,-2.45,-0.98,-22.3041,-47.3549,11.2869,1014.82
37280,0.095648,9.75131,1.30081,1.47,-2.66,-0.84,-20.9675,-46.7381,11.3164,1014.82
37286,0.0621712,9.74653,1.29125,1.12,-2.31,-0.63,-22.3912,-47.5399,12.0552,1014.82
37292,0.0765184,9.70827,1.30081,1.68,-2.8,-0.7,-21.6939,-48.4343,11.0652,1014.82
37298,0.023912,9.68436,1.32472,1.61,-2.8,-0.49,-20.7931,-47.3857,12.203,1014.82
37304,0.0286944,9.7561,1.32472,1.75,-3.22,-0.77,-21.8392,-47.91,12.3951,1014.82
37310,0.0334768,9.76088,1.26734,2.17,-3.15,-0.56,-21.4905,-49.2053,10.9174,1014.82
37316,0.0047824,9.7561,1.26255,1.68,-3.01,0.21,-21.0546,-47.324,12.2621,1014.82
37322,0.0334768,9.7274,1.31516,2.31,-3.29,0.35,-21.1418,-46.954,13.06,1014.82
37328,0.023912,9.73697,1.28168,2.03,-3.08,0.28,-21.6358,-48.3726,11.1686,1014.82
37334,0.0430416,9.74653,1.23864,1.96,-2.87,0.7,-21.6648,-47.725,11.8188,1014.82
37340,0.0765184,9.76566,1.24342,2.24,-3.36,0.35,-21.1127,-47.139,13.2964,1014.82
37346,0.047824,9.75131,1.24821,2.45,-2.94,1.33,-21.6939,-48.0025,10.9027,1014.84
37352,0.10043,9.73697,1.23386,2.31,-3.29,0.63,-21.781,-47.1698,11.6563,1014.84
37358,0.124342,9.76088,1.25777,1.96,-2.8,0.63,-20.0958,-46.2138,12.1143,1014.83
37364,0.153037,9.78001,1.23386,1.89,-2.94,0.77,-21.229,-47.725,11.4937,1014.83
37370,0.162602,9.7561,1.23864,1.4,-2.8,0,-21.7229,-48.2801,12.602,1014.83
37376,0.0669536,9.77523,1.22429,1.61,-2.8,-0.07,-20.5607,-46.9231,11.5381,1014.82
37382,0.0430416,9.7274,1.29125,2.03,-2.66,0.49,-21.6358,-46.3063,13.0305,1014.82
37388,0.0908656,9.70349,1.25777,1.89,-2.8,0,-20.9965,-47.9717,11.7006,1014.82
37394,0.129125,9.75131,1.28168,1.89,-2.8,-0.07,-21.4614,-47.9408,11.4494,1014.82
37400,0.0813008,9.74653,1.26255,2.1,-2.87,0.07,-21.3742,-46.4297,12.2178,1014.8
37406,0.0382592,9.78001,1.22429,1.89,-3.22,-0.07,-21.8392,-48.4651,11.4642,1014.8
37412,0.0765184,9.75131,1.27212,1.96,-3.01,0.63,-21.5195,-48.6502,10.5628,1014.85
37418,0.0765184,9.7561,1.2769,1.96,-2.8,0.63,-20.9384,-46.4297,11.8779,1014.85
37424,0.095648,9.75131,1.2769,1.82,-3.01,0.07,-21.752,-47.2932,12.6758,1014.85
37430,0.0908656,9.74175,1.25777,2.03,-2.8,0.21,-21.229,-47.9408,11.1834,1014.84
37436,0.0908656,9.7274,1.24342,1.96,-2.66,1.19,-21.6067,-47.5091,12.469,1014.84
37442,0.0813008,9.75131,1.29603,2.17,-3.22,0.63,-21.2871,-46.3063,12.203,1014.8
37448,0.0860832,9.74175,1.25299,2.38,-3.43,0.28,-21.5486,-48.496,12.0257,1014.8
37454,0.13869,9.74653,1.24342,2.1,-3.01,0.77,-21.1418,-47.2932,12.2178,1014.84
37460,0.167384,9.79914,1.20038,1.75,-2.8,0.49,-20.9675,-47.2932,12.794,1014.84
37466,0.191296,9.79436,1.21473,1.89,-2.66,0.07,-21.5486,-48.1259,12.0257,1014.85
37472,0.0908656,9.78957,1.21473,1.82,-2.87,-0.49,-21.6939,-47.8483,10.8436,1014.85
37478,0.109995,9.76566,1.31516,2.1,-2.8,0,-21.258,-47.5091,12.8088,1014.85
37484,0.148254,9.73697,1.26734,1.82,-2.8,-0.28,-21.6648,-47.0773,12.4246,1014.85
37490,0.10043,9.76566,1.29125,2.24,-2.45,0.07,-21.4614,-48.095,11.7301,1014.85
37496,0.071736,9.76566,1.28168,1.82,-2.66,0.28,-21.0256,-47.1082,12.5724,1014.84
37502,0.0573888,9.70827,1.29603,2.31,-2.52,0.14,-21.781,-47.1698,12.794,1014.84
37508,0.0573888,9.73697,1.25777,2.03,-3.29,0.28,-21.9263,-48.681,12.7054,1014.82
37514,0.0765184,9.72262,1.23386,1.82,-3.15,0.77,-22.4203,-47.2932,13.1782,1014.82
37520,0.0573888,9.76088,1.24821,2.17,-3.01,0.42,-21.6939,-47.4166,12.2621,1014.85
37526,0.0860832,9.74653,1.27212,2.17,-3.01,0.49,-21.9554,-47.6324,13.2964,1014.85
37532,0.0813008,9.73697,1.27212,1.75,-2.87,0.7,-22.1007,-48.6502,13.3555,1014.83
37538,0.0813008,9.73218,1.22908,1.96,-2.87,1.4,-20.8512,-47.0773,12.7349,1014.83
37544,0.0860832,9.7561,1.23386,1.89,-3.36,1.12,-21.8973,-47.324,11.9518,1014.83
37550,0.095648,9.74175,1.25777,2.1,-2.8,1.19,-20.7931,-47.8483,11.2277,1014.83
37556,0.129125,9.7561,1.28168,2.24,-3.01,1.05,-21.258,-47.6941,13.9466,1014.83
37562,0.143472,9.75131,1.26255,1.96,-3.01,0.77,-21.6067,-46.4297,12.7645,1014.82
37568,0.215208,9.82305,1.22429,1.68,-2.73,0.35,-22.246,-47.6941,11.4346,1014.82
37574,0.129125,9.79914,1.21951,1.82,-2.59,0,-21.4614,-47.7558,11.5381,1014.83
37580,0.0908656,9.77044,1.2769,1.68,-2.94,0.7,-21.1709,-46.7073,12.0996,1014.83
37586,0.167384,9.77044,1.31038,2.1,-2.38,0.56,-20.8803,-47.7558,11.1834,1014.83
37592,0.13869,9.7561,1.28647,1.82,-1.96,0.21,-21.8682,-47.8175,11.7745,1014.83
37598,0.0908656,9.7561,1.28168,1.82,-2.87,-0.14,-21.6067,-46.3372,13.2226,1014.83
37604,0.0669536,9.73697,1.28168,1.96,-2.87,0.63,-21.7229,-47.1698,12.4985,1014.82
37610,0.0573888,9.73218,1.3056,1.89,-2.87,0.77,-21.8392,-48.6502,10.681,1014.82
37616,0.071736,9.72262,1.27212,2.31,-2.94,0.63,-20.9384,-46.5222,12.0848,1014.82
37622,0.0813008,9.74175,1.28647,2.03,-3.29,0.56,-21.1418,-46.9848,12.3064,1014.82
37628,0.0621712,9.73218,1.25299,1.89,-2.66,0.91,-21.8101,-47.5399,9.82399,1014.83
37634,0.047824,9.70827,1.26255,2.38,-2.8,0.84,-21.3742,-47.0773,11.4051,1014.83
37640,0.105213,9.74653,1.26734,1.75,-2.87,0.91,-21.5486,-46.368,12.4246,1014.85
37646,0.0765184,9.73218,1.23386,2.17,-3.08,0.98,-21.1999,-47.1698,12.7054,1014.85
37652,0.11956,9.74653,1.27212,2.03,-2.94,1.05,-22.5075,-48.3418,10.8879,1014.85
37658,0.114778,9.73697,1.25299,2.52,-3.36,0.98,-21.6067,-47.2624,12.0257,1014.85
37664,0.13869,9.7561,1.24342,2.03,-3.01,1.05,-21.752,-47.324,12.0404,1014.85
37670,0.13869,9.76088,1.25299,2.59,-3.01,0.77,-21.752,-48.4343,11.1095,1014.8
37676,0.148254,9.8087,1.21951,2.38,-2.38,0.98,-21.3161,-47.1698,12.8827,1014.8
37682,0.172166,9.76566,1.23864,2.38,-2.59,0.7,-21.6358,-46.6456,13.6363,1014.81
37688,0.167384,9.77523,1.21951,2.59,-2.66,0.63,-21.1709,-48.1259,11.6415,1014.81
37694,0.172166,9.76566,1.26255,2.31,-2.94,0.7,-21.752,-46.6456,11.3164,1014.88
37700,0.11956,9.77044,1.27212,2.8,-2.59,0.35,-20.9965,-46.0596,12.2769,1014.88
37706,0.11956,9.78479,1.23864,2.45,-2.66,0.42,-21.5486,-47.2932,11.7301,1014.85
37712,0.172166,9.78001,1.22908,2.17,-2.66,0.84,-21.229,-47.8175,10.415,1014.85
37718,0.0860832,9.76566,1.22908,2.1,-3.36,0.77,-21.5195,-46.4605,12.336,1014.85
37724,0.0669536,9.78001,1.23864,2.24,-3.29,0.77,-21.8682,-47.139,11.8484,1014.83
37730,0.11956,9.76566,1.22908,1.68,-3.08,0.42,-21.8682,-48.3109,12.3951,1014.83
37736,0.109995,9.7561,1.24342,2.1,-2.94,0.77,-21.2871,-46.4914,12.602,1014.81
37742,0.13869,9.78001,1.24342,1.89,-3.08,1.26,-21.8973,-47.139,12.0257,1014.81
37748,0.105213,9.75131,1.26255,2.03,-3.15,0.91,-21.6067,-47.7558,11.5824,1014.83
37754,0.129125,9.75131,1.24342,2.24,-2.8,0.98,-21.8682,-47.1082,12.2916,1014.83
37760,0.157819,9.7274,1.2769,2.1,-2.8,0.63,-22.3331,-46.3989,12.5133,1014.84
37766,0.21999,9.78479,1.22908,1.75,-2.73,0.91,-21.752,-48.0334,11.0357,1014.84
37772,0.23912,9.80392,1.21951,1.89,-2.59,0.28,-21.6939,-47.7866,12.0848,1014.84
37778,0.234338,9.84218,1.15734,2.1,-2.38,-0.35,-21.1999,-46.368,12.8827,1014.84
37784,0.153037,9.8374,1.20516,1.68,-2.45,-0.49,-21.4324,-47.3549,12.6758,1014.84
37790,0.124342,9.76566,1.26734,1.96,-2.59,0,-21.4905,-48.496,12.5281,1014.86
37796,0.167384,9.78957,1.25777,1.89,-2.8,-0.14,-21.3742,-47.2007,12.3064,1014.86
37802,0.167384,9.78957,1.21473,2.1,-2.31,-0.35,-21.0256,-47.2007,11.8927,1014.83
37808,0.10043,9.75131,1.23864,2.17,-2.73,-0.28,-21.6358,-48.5885,11.346,1014.83
37814,0.0813008,9.74175,1.24821,1.75,-2.38,-0.14,-21.4905,-47.3549,10.3855,1014.8
37820,0.10043,9.74653,1.28168,1.89,-2.38,0.21,-21.6067,-46.5839,10.1047,1014.8
37826,0.13869,9.73218,1.23386,2.17,-2.73,0.28,-22.0426,-48.095,10.7549,1014.85
37832,0.0860832,9.78957,1.21473,1.68,-2.31,0.49,-22.0716,-48.0642,10.8731,1014.85
37838,0.157819,9.74175,1.20038,1.54,-2.66,0.49,-22.0135,-46.6147,11.6267,1014.85
37844,0.114778,9.73218,1.20995,1.26,-3.01,0.35,-21.1418,-47.5399,12.1587,1014.83
37850,0.124342,9.74653,1.23864,1.61,-3.01,0.21,-21.8682,-47.8792,9.92742,1014.83
37856,0.114778,9.70349,1.24821,1.47,-2.73,0.28,-22.3622,-46.9231,11.8927,1014.82
37862,0.133907,9.7561,1.22908,1.19,-3.08,0.28,-21.6067,-47.139,12.469,1014.82
37868,0.143472,9.7274,1.27212,2.45,-2.8,0.77,-22.0135,-47.6941,11.8336,1014.8
37874,0.148254,9.75131,1.27212,2.17,-3.15,0.63,-21.258,-46.9231,11.3016,1014.8
37880,0.129125,9.73697,1.29603,2.24,-2.59,0.63,-21.1127,-46.7073,12.794,1014.82
37886,0.124342,9.7274,1.29125,1.82,-2.94,0.42,-20.9675,-46.9231,12.6463,1014.82
37892,0.143472,9.75131,1.29125,2.24,-2.94,0.35,-21.3742,-47.0157,10.5333,1014.82
37898,0.215208,9.75131,1.23864,2.1,-2.38,0.21,-22.275,-46.8923,11.3755,1014.83
37904,0.172166,9.78001,1.22908,2.31,-2.45,0.07,-21.6939,-46.954,11.0357,1014.83
37910,0.10043,9.77044,1.22908,1.96,-2.38,0.21,-21.9554,-47.9717,9.66145,1014.83
37916,0.10043,9.76088,1.25299,2.24,-2.94,0.28,-21.7229,-47.4166,11.4346,1014.83
37922,0.157819,9.76566,1.22429,2.38,-3.15,0.14,-21.4905,-46.4605,10.7549,1014.86
37928,0.162602,9.8087,1.18125,1.96,-2.87,0.35,-22.769,-48.1259,10.9618,1014.86
37934,0.109995,9.7561,1.23864,1.4,-2.38,0.21,-21.7229,-47.725,11.5381,1014.83
37940,0.10043,9.7561,1.27212,1.75,-2.38,0.49,-22.0426,-46.3989,11.213,1014.83
37946,0.10043,9.76088,1.26255,2.24,-2.87,-0.07,-22.1007,-47.4782,10.9027,1014.83
37952,0.129125,9.78001,1.18604,1.75,-3.01,-0.42,-21.4905,-48.2184,11.5972,1014.82
37958,0.148254,9.7561,1.25299,1.96,-3.15,0.56,-21.6067,-46.4605,11.8484,1014.82
37964,0.114778,9.74653,1.26255,1.89,-2.8,0.14,-21.8392,-47.6324,12.2916,1014.82
37970,0.105213,9.73218,1.25777,1.96,-2.73,0.63,-21.6358,-47.725,10.9618,1014.82
37976,0.167384,9.72262,1.26734,2.17,-2.87,0.77,-21.6358,-47.2315,11.4051,1014.82
37982,0.11956,9.73697,1.23864,1.89,-2.52,0.07,-22.275,-47.1698,12.0404,1014.82
37988,0.143472,9.71784,1.24821,2.73,-2.52,0.42,-21.9263,-47.4474,10.3855,1014.84
37994,0.13869,9.74653,1.23864,2.31,-2.94,0.49,-22.2169,-47.7558,11.5233,1014.84
38000,0.13869,9.7561,1.23864,2.52,-3.15,0.7,-22.1588,-46.5531,12.2769,1014.78
38006,0.13869,9.74653,1.23864,2.31,-2.38,0.35,-21.6939,-48.1567,12.6463,1014.78
38012,0.176949,9.76566,1.21473,2.45,-3.22,0.28,-21.9263,-47.8175,12.3655,1014.78
38018,0.200861,9.76088,1.22429,2.45,-3.01,0.21,-21.4905,-46.954,12.927,1014.86
38024,0.143472,9.76088,1.20995,2.45,-2.52,0.77,-22.4203,-47.1082,11.5528,1014.86
38030,0.109995,9.76566,1.22908,2.38,-3.36,0.35,-21.8973,-48.1259,11.2869,1014.84
38036,0.13869,9.76566,1.1956,2.73,-2.8,0.35,-20.9965,-47.0773,11.8484,1014.84
38042,0.133907,9.76088,1.23386,2.17,-3.29,0,-21.9263,-46.7998,12.2473,1014.83
38048,0.11956,9.79914,1.18604,2.1,-2.8,0.21,-21.9263,-48.9586,10.8879,1014.83
38054,0.129125,9.7561,1.20995,2.03,-2.73,0.63,-22.1297,-47.8792,12.2178,1014.83
38060,0.133907,9.77044,1.22429,1.89,-3.36,0.28,-21.8392,-47.2007,12.5724,1014.83
38066,0.13869,9.77044,1.23864,2.17,-3.43,0.56,-21.8101,-47.6324,11.6267,1014.83
38072,0.129125,9.76088,1.21473,2.17,-2.66,0.7,-21.9554,-48.4343,11.4494,1014.81
38078,0.13869,9.73697,1.24342,1.82,-2.8,0.91,-22.0716,-46.6456,12.203,1014.81
38084,0.114778,9.68914,1.28168,2.17,-3.36,0.21,-22.246,-47.6324,13.2521,1014.83
38090,0.13869,9.76088,1.24821,2.03,-2.8,0.7,-21.8682,-49.1128,11.8188,1014.83
38096,0.167384,9.76566,1.1956,2.1,-2.59,0.98,-21.6067,-47.1698,10.8436,1014.8
38102,0.210426,9.80392,1.22429,1.75,-2.45,1.26,-21.5195,-46.9231,11.8188,1014.8
38108,0.181731,9.77523,1.20995,2.1,-2.03,0.49,-22.9433,-48.0642,11.1243,1014.84
38114,0.181731,9.8087,1.1956,1.75,-2.38,0.28,-22.0426,-47.6016,11.0652,1014.84
38120,0.191296,9.77044,1.23386,2.03,-1.75,0.35,-21.8101,-47.6016,10.3707,1014.8
38126,0.205643,9.74653,1.21473,2.17,-2.17,0.21,-21.752,-47.6324,10.3264,1014.8
38132,0.191296,9.7561,1.23386,1.82,-2.03,0.07,-21.5195,-48.0334,11.6267,1014.8
38138,0.153037,9.74653,1.21951,1.96,-2.38,-0.07,-21.9844,-46.7073,11.9813,1014.78
38144,0.153037,9.77044,1.21473,2.24,-2.94,-0.14,-21.9844,-46.954,10.2673,1014.78
38150,0.167384,9.76088,1.21951,2.03,-2.52,0.35,-21.9844,-47.725,11.3607,1014.82
38156,0.114778,9.74653,1.20038,1.68,-2.66,0.21,-22.246,-47.0157,11.5824,1014.82
38162,0.129125,9.74653,1.21951,1.68,-2.66,-0.07,-22.0426,-46.8615,10.9322,1014.81
38168,0.133907,9.73697,1.20995,2.03,-2.59,-17.29,-21.9263,-47.8792,12.0109,1014.81
38174,0.153037,9.77044,1.21951,1.82,-2.17,0.21,-22.0426,-47.139,11.6415,1014.84
38180,0.124342,9.75131,1.20995,2.1,-3.01,0.63,-21.3452,-46.8615,12.2473,1014.84
38186,0.129125,9.77523,1.21951,1.68,-3.5,0.21,-21.2871,-47.91,10.8583,1014.84
38192,0.133907,9.76088,1.22908,2.1,-3.57,0.28,-22.1297,-47.6016,11.2425,1014.79
38198,0.157819,9.7561,1.22908,1.89,-2.94,0.42,-22.275,-46.3063,13.2817,1014.79
38204,0.167384,9.74175,1.22908,1.68,-3.08,0.77,-21.6648,-47.0157,11.7301,1014.8
38210,0.162602,9.76088,1.19082,1.75,-3.08,0.35,-21.752,-47.3549,11.4346,1014.8
38216,0.176949,9.76088,1.24342,2.1,-2.87,0.14,-22.275,-46.2755,11.5824,1014.8
38222,0.210426,9.79436,1.20995,1.75,-2.38,0.14,-22.8852,-47.4166,12.336,1014.8
38228,0.210426,9.77523,1.22429,2.1,-2.73,0.28,-22.3331,-48.0334,10.9913,1014.85
38234,0.153037,9.7561,1.22429,1.89,-3.01,-0.42,-21.8101,-46.5839,11.3903,1014.85
38240,0.143472,9.78479,1.1956,2.03,-3.08,0.14,-21.2871,-47.0157,11.9961,1014.85
38246,0.124342,9.81349,1.20038,2.17,-3.43,-0.28,-22.5365,-47.6016,12.1734,1014.82
38252,0.162602,9.74175,1.21473,1.75,-2.8,-0.28,-21.7229,-47.6016,10.9174,1014.82
38258,0.13869,9.76566,1.20038,2.17,-3.01,-0.07,-22.3912,-46.954,11.5824,1014.81
38264,0.095648,9.73697,1.20995,1.82,-2.8,0.28,-21.4614,-47.6016,10.8879,1014.81
38270,0.11956,9.77523,1.19082,1.89,-2.94,0.07,-21.7229,-48.1876,11.1686,1014.81
38276,0.105213,9.74653,1.26734,1.68,-2.73,0.28,-22.1297,-47.1698,11.8779,1014.81
38282,0.157819,9.75131,1.21473,1.89,-3.15,0.28,-20.9093,-46.4914,11.804,1014.83
38288,0.129125,9.78001,1.20516,1.82,-3.15,0.49,-22.0135,-47.3549,10.5628,1014.83
38294,0.143472,9.73218,1.22908,2.03,-3.08,0.21,-21.6939,-46.8615,11.2277,1014.84
38300,0.148254,9.73218,1.23864,2.24,-3.15,0.35,-21.6939,-46.5531,11.804,1014.84
38306,0.153037,9.73218,1.25299,1.75,-3.22,0.07,-21.4324,-47.6633,9.05562,1014.84
38312,0.186514,9.77044,1.22908,2.1,-3.57,0.35,-21.4614,-47.6633,11.4346,1014.86
38318,0.176949,9.7561,1.22908,2.1,-3.01,0.21,-21.9263,-46.7689,11.937,1014.86
38324,0.167384,9.74175,1.20038,2.31,-3.01,0.21,-21.9844,-47.1698,11.9961,1014.81
38330,0.176949,9.74653,1.22908,1.61,-3.01,0.35,-21.8392,-47.6941,10.7401,1014.81
38336,0.234338,9.74175,1.19082,2.17,-3.22,-0.49,-22.1007,-46.5839,12.4099,1014.82
38342,0.234338,9.78001,1.20038,2.17,-2.66,-0.07,-21.6358,-47.2624,12.0404,1014.82
38348,0.162602,9.8087,1.19082,1.61,-2.73,0.28,-21.5776,-48.095,12.3508,1014.81
38354,0.124342,9.77044,1.20516,1.33,-2.87,-0.21,-21.8392,-47.6941,11.0652,1014.81
38360,0.186514,9.78001,1.21473,1.75,-2.8,-0.21,-21.8682,-46.4914,12.3803,1014.81
38366,0.167384,9.78479,1.21473,1.47,-2.8,-0.21,-21.8101,-46.9231,11.0061,1014.83
38372,0.129125,9.75131,1.23386,1.47,-2.8,-0.07,-21.4905,-46.9848,11.1095,1014.83
38378,0.143472,9.75131,1.23386,1.68,-3.08,-0.21,-21.3161,-46.1213,11.7449,1014.81
38384,0.13869,9.78957,1.21473,1.61,-2.87,0.07,-22.1588,-47.0773,11.5676,1014.81
38390,0.105213,9.74175,1.23386,1.61,-3.01,0,-21.4033,-47.6633,10.0161,1014.8
38396,0.157819,9.74175,1.21951,1.61,-2.8,0.28,-21.4324,-47.2624,11.6119,1014.8
38402,0.105213,9.71784,1.23386,1.54,-3.01,0.35,-22.0716,-47.0465,12.2769,1014.83
38408,0.129125,9.71784,1.20995,1.4,-3.29,0.56,-21.5776,-48.0334,11.346,1014.83
38414,0.153037,9.74653,1.23864,1.68,-2.59,0.7,-21.3161,-47.6324,11.7892,1014.83
38420,0.11956,9.75131,1.25299,1.75,-2.87,0.35,-21.1999,-46.8923,12.4985,1014.84
38426,0.181731,9.7274,1.25777,1.54,-2.8,0.56,-21.9844,-48.1259,9.52846,1014.84
38432,0.172166,9.7561,1.22908,1.68,-3.08,0.42,-21.6939,-47.9408,12.6315,1014.82
38438,0.186514,9.7561,1.22429,2.17,-3.43,0.21,-21.5776,-46.7689,11.3903,1014.82
38444,0.153037,9.76088,1.21473,1.68,-2.87,-17.29,-21.8973,-47.139,11.6858,1014.8
38450,0.186514,9.76566,1.20516,1.96,-2.59,0.07,-22.0716,-48.0334,12.2916,1014.8
38456,0.205643,9.79436,1.20038,1.89,-2.87,0.35,-21.1709,-47.139,11.8927,1014.83
38462,0.186514,9.78001,1.24342,1.61,-2.94,0.07,-21.7229,-46.5531,12.5724,1014.83
38468,0.176949,9.79914,1.1956,1.75,-2.87,-0.21,-21.8682,-47.8483,12.0848,1014.84
38474,0.210426,9.78001,1.21951,1.68,-2.52,-0.49,-21.752,-47.2624,11.346,1014.84
38480,0.167384,9.74175,1.24821,1.75,-2.8,-0.07,-21.6939,-45.7512,12.0996,1014.84
38486,0.124342,9.76566,1.22908,1.68,-2.8,0.21,-22.275,-47.2624,11.4494,1014.83
38492,0.109995,9.77044,1.21951,1.61,-2.8,0.07,-22.2169,-46.9231,10.8436,1014.83
38498,0.129125,9.7274,1.23386,1.61,-2.73,-0.49,-21.8101,-46.0288,12.0257,1014.83
38504,0.13869,9.76088,1.22429,2.1,-3.08,-0.07,-22.1297,-47.139,10.8436,1014.83
38510,0.172166,9.77044,1.20516,1.61,-3.15,0.56,-21.5195,-47.9408,11.1243,1014.82
38516,0.153037,9.74653,1.24821,1.75,-3.08,0,-21.5486,-46.3989,11.3607,1014.82
38522,0.11956,9.73697,1.22429,2.24,-3.01,0.28,-22.0426,-46.5839,11.1686,1014.85
38528,0.153037,9.72262,1.22429,2.1,-3.08,-0.14,-22.275,-48.0334,11.8188,1014.85
38534,0.167384,9.7274,1.22429,2.1,-2.31,0.7,-23.2048,-48.3109,10.6219,1014.85
38540,0.148254,9.73697,1.23386,2.03,-2.66,0.35,-22.2169,-46.3372,13.1782,1014.86
38546,0.148254,9.71784,1.21951,2.1,-3.01,0.7,-22.4203,-47.5091,10.2525,1014.86
38552,0.167384,9.74175,1.20995,1.89,-2.66,0.42,-21.9844,-47.6016,11.4051,1014.83
38558,0.191296,9.7561,1.20516,2.17,-2.94,0.35,-21.5776,-46.8306,12.469,1014.83
38564,0.157819,9.76566,1.20995,2.1,-2.59,0.42,-22.1588,-47.0157,12.3508,1014.83
38570,0.196078,9.74175,1.20516,2.1,-3.01,-0.07,-22.3622,-47.7866,10.3264,1014.83
38576,0.200861,9.76566,1.18604,1.96,-2.94,0.21,-21.781,-46.2755,11.804,1014.86
38582,0.224773,9.77523,1.16691,1.96,-2.73,17.78,-21.781,-46.7381,12.3803,1014.86
38588,0.200861,9.76566,1.18125,1.75,-2.87,-0.07,-22.4784,-48.1259,10.5333,1014.86
38594,0.129125,9.7561,1.25777,1.61,-2.87,0,-22.275,-47.6016,12.2769,1014.84
38600,0.114778,9.7274,1.26734,1.61,-2.73,0.42,-22.5075,-46.7381,12.0996,1014.84
38606,0.129125,9.70827,1.20995,1.82,-3.22,0.14,-21.7229,-48.0025,11.8188,1014.82
38612,0.162602,9.76566,1.21951,1.89,-3.08,0,-21.8682,-47.91,12.5133,1014.82
38618,0.11956,9.76088,1.22908,1.96,-2.8,-0.07,-21.6648,-45.8437,10.9913,1014.82
38624,0.133907,9.74175,1.1956,1.89,-3.15,0.77,-22.3331,-47.4782,12.0848,1014.82
38630,0.143472,9.77044,1.19082,2.24,-2.94,0.28,-21.8392,-48.4343,11.2277,1014.82
38636,0.124342,9.7561,1.1956,1.68,-3.64,0.21,-22.1878,-47.2624,12.602,1014.82
38642,0.167384,9.76088,1.22908,1.96,-3.08,0.42,-21.6358,-47.324,12.3212,1014.79
38648,0.167384,9.75131,1.1956,2.24,-3.01,0.77,-22.4784,-48.095,11.7449,1014.79
38654,0.148254,9.76088,1.20995,2.17,-3.36,0.21,-21.752,-47.9408,12.3951,1014.79
38660,0.191296,9.74653,1.22908,2.17,-3.15,0.07,-20.9093,-46.5222,12.8827,1014.79
38666,0.200861,9.77044,1.18125,1.96,-2.52,0.07,-22.0716,-47.6633,11.4346,1014.79
38672,0.186514,9.78957,1.20995,1.82,-2.59,0,-21.4905,-47.8792,12.0996,1014.81
38678,0.23912,9.79436,1.19082,1.82,-3.01,0.28,-21.1709,-46.5839,12.2178,1014.81
38684,0.224773,9.82783,1.16212,1.82,-3.08,-0.21,-21.6358,-47.4782,11.5085,1014.84
38690,0.243902,9.79914,1.16691,1.68,-2.52,-0.49,-21.5776,-47.5708,11.4051,1014.84
38696,0.157819,9.77523,1.18125,1.54,-2.59,-0.42,-21.0837,-47.2932,12.6463,1014.83
38702,0.129125,9.75131,1.1956,1.26,-2.66,-0.07,-21.4324,-47.2315,11.8336,1014.83
38708,0.13869,9.7274,1.20516,1.82,-3.08,-0.14,-21.9554,-47.3549,10.4741,1014.83
38714,0.153037,9.77044,1.22429,1.82,-2.87,-0.28,-21.5776,-47.1698,11.346,1014.8
38720,0.124342,9.75131,1.20995,1.33,-2.87,-17.85,-21.4033,-46.9848,12.2621,1014.8
38726,0.157819,9.7561,1.21951,1.54,-2.66,0,-21.6067,-47.5399,11.08,1014.81
38732,0.176949,9.75131,1.20516,1.96,-3.22,0,-21.8392,-47.0773,10.7992,1014.81
38738,0.109995,9.7561,1.21951,2.1,-3.71,0,-22.0716,-47.3857,11.9222,1014.84
38744,0.114778,9.73697,1.21473,1.96,-3.15,-0.14,-21.3161,-47.5091,12.0552,1014.84
38750,0.124342,9.77523,1.20038,1.68,-2.94,0.28,-22.1878,-47.5708,11.1982,1014.83
38756,0.148254,9.77523,1.21951,1.4,-3.15,0.14,-21.4614,-46.7689,12.7349,1014.83
38762,0.11956,9.74653,1.23386,2.03,-3.22,0.49,-21.5195,-46.6147,13.06,1014.83
38768,0.162602,9.74175,1.24821,1.96,-2.8,0.49,-22.0716,-47.9717,12.1882,1014.83
38774,0.181731,9.75131,1.21473,1.75,-2.87,0.14,-21.4905,-47.2315,11.7301,1014.83
38780,0.186514,9.77044,1.19082,2.24,-3.15,0.49,-21.3742,-46.5222,11.5233,1014.81
38786,0.186514,9.79436,1.14778,1.89,-2.66,0.35,-21.229,-47.5708,12.3212,1014.81
38792,0.210426,9.81349,1.18604,1.47,-2.94,0.21,-21.9844,-47.8792,12.4394,1014.83
38798,0.196078,9.73218,1.23864,1.19,-2.52,-0.21,-22.5365,-46.183,12.8088,1014.83
38804,0.157819,9.77523,1.23864,1.89,-2.8,-0.21,-21.781,-47.0773,11.671,1014.85
38810,0.172166,9.76566,1.1956,2.03,-2.87,0.07,-21.781,-48.4343,11.5676,1014.85
38816,0.176949,9.77523,1.19082,2.03,-3.22,-0.07,-21.6939,-46.6456,11.5824,1014.83
38822,0.176949,9.76566,1.23386,1.82,-2.45,-0.42,-22.0426,-47.5091,12.5133,1014.83
38828,0.172166,9.77044,1.1956,1.68,-2.8,-0.14,-21.6648,-47.91,11.7154,1014.83
38834,0.133907,9.75131,1.1956,1.89,-2.59,0.14,-22.275,-47.1698,11.9813,1014.84
38840,0.10043,9.77044,1.17169,1.54,-2.73,-0.42,-21.8973,-46.0288,13.3851,1014.84
38846,0.172166,9.73218,1.20995,2.03,-3.36,0,-22.275,-47.139,12.2621,1014.83
38852,0.162602,9.74175,1.20995,1.75,-3.15,0.28,-22.0716,-47.0465,12.7497,1014.83
38858,0.172166,9.76088,1.22429,2.17,-2.73,-17.78,-22.3041,-46.3372,13.1339,1014.79
38864,0.157819,9.78957,1.17169,1.75,-3.22,0.28,-22.0426,-47.2007,13.6363,1014.79
38870,0.162602,9.77523,1.1956,2.1,-2.24,-0.14,-22.5075,-47.725,10.5333,1014.81
38876,0.196078,9.74175,1.16691,1.75,-2.94,0.07,-21.6067,-46.7381,12.4985,1014.81
38882,0.186514,9.78479,1.17169,1.89,-3.29,0.42,-21.7229,-46.9231,12.7349,1014.81
38888,0.191296,9.77523,1.20995,1.75,-2.52,0.35,-22.3912,-48.2801,12.4246,1014.81
38894,0.224773,9.79914,1.20038,1.54,-2.8,-0.49,-22.8271,-47.2315,11.4494,1014.81
38900,0.23912,9.78001,1.13343,1.54,-3.22,-0.35,-22.3041,-46.9848,12.8088,1014.84
38906,0.176949,9.79914,1.20516,1.61,-2.59,-0.14,-22.5946,-47.6633,11.9813,1014.84
38912,0.105213,9.77044,1.1956,1.54,-2.38,-0.7,-22.1007,-47.7558,12.2916,1014.83
38918,0.153037,9.79914,1.23864,2.03,-2.94,-0.49,-21.781,-46.5839,12.2916,1014.83
38924,0.191296,9.76566,1.1956,1.68,-2.94,-0.42,-22.2169,-48.3726,11.9222,1014.82
38930,0.143472,9.77044,1.17647,1.4,-2.8,-0.49,-21.8682,-47.6324,10.5924,1014.82
38936,0.0813008,9.76088,1.23864,1.68,-2.66,-0.21,-21.6358,-46.4297,12.927,1014.86
38942,0.133907,9.73697,1.21951,1.89,-2.52,-0.35,-22.3912,-46.5839,12.4985,1014.86
38948,0.157819,9.74175,1.20038,1.47,-2.87,-0.35,-22.4784,-48.7427,10.5333,1014.86
38954,0.13869,9.74175,1.18604,1.68,-2.8,0.14,-21.8682,-46.9231,12.0257,1014.84
38960,0.143472,9.73697,1.24821,1.82,-3.36,0.21,-21.258,-46.9848,9.86832,1014.84
38966,0.11956,9.73697,1.26255,1.89,-3.22,-0.35,-21.5195,-47.5399,10.6219,1014.83
38972,0.148254,9.7274,1.24821,1.75,-2.87,0,-21.3742,-48.1259,10.4298,1014.83
38978,0.167384,9.77523,1.22908,2.45,-3.01,0.63,-21.4905,-46.7998,12.2769,1014.82
38984,0.162602,9.75131,1.20038,1.89,-2.8,-0.07,-21.752,-47.0465,10.6662,1014.82
38990,0.176949,9.74175,1.17647,1.75,-3.15,-0.14,-21.9844,-46.8306,11.3903,1014.81
38996,0.157819,9.7561,1.1956,1.54,-2.94,0.21,-22.1588,-46.1521,12.0552,1014.81
39002,0.186514,9.77523,1.21473,1.68,-2.94,-0.07,-22.2169,-46.5839,11.5528,1014.81
39008,0.205643,9.78001,1.17169,1.82,-3.08,-0.28,-21.9844,-47.91,11.3755,1014.81
39014,0.224773,9.78957,1.20995,1.82,-2.73,-0.49,-22.4493,-47.2315,12.7645,1014.81
39020,0.176949,9.79436,1.17647,1.4,-2.94,-0.84,-22.0426,-46.3372,12.8384,1014.82
39026,0.153037,9.76566,1.20038,1.82,-2.38,-0.28,-22.246,-47.324,12.1882,1014.82
39032,0.11956,9.77044,1.1956,1.61,-2.8,-0.49,-21.8682,-47.6016,11.1391,1014.83
39038,0.129125,9.78479,1.25299,1.33,-2.73,-0.84,-21.4324,-46.4297,13.1635,1014.83
39044,0.153037,9.75131,1.20995,1.82,-3.43,-0.63,-22.0426,-48.1567,11.1095,1014.82
39050,0.176949,9.74653,1.21951,1.61,-3.29,-0.07,-21.781,-47.4166,11.7449,1014.82
39056,0.143472,9.74175,1.1956,1.68,-2.66,0.21,-21.7229,-46.6147,11.8336,1014.82
39062,0.129125,9.74175,1.25777,1.68,-2.66,-0.14,-21.6939,-47.324,12.2916,1014.8
39068,0.11956,9.7274,1.24342,1.26,-3.08,0.21,-21.9844,-48.5268,11.804,1014.8
39074,0.133907,9.75131,1.20038,1.68,-2.52,-0.14,-21.8973,-47.139,10.8583,1014.83
39080,0.153037,9.76088,1.22429,2.17,-3.01,0.28,-21.6648,-46.4605,12.0404,1014.83
39086,0.143472,9.76088,1.21951,1.68,-3.01,0.14,-21.781,-47.725,10.3707,1014.81
39092,0.157819,9.78001,1.20516,1.75,-2.59,0.35,-22.6527,-48.2492,10.9027,1014.81
39098,0.215208,9.77044,1.24821,1.4,-2.66,0.42,-22.3331,-46.3989,12.7349,1014.83
39104,0.167384,9.76088,1.21473,1.68,-2.94,0.14,-22.0716,-47.3549,11.937,1014.83
39110,0.181731,9.76566,1.20995,2.1,-2.52,0.07,-21.4324,-47.3857,10.4298,1014.84
39116,0.172166,9.79436,1.18604,1.89,-2.8,0.21,-21.3742,-46.3989,12.2325,1014.84
39122,0.186514,9.78957,1.21473,1.89,-3.01,-0.28,-22.1878,-47.9408,10.5924,1014.84
39128,0.176949,9.79914,1.19082,1.75,-3.01,-0.21,-21.9554,-48.4034,11.7597,1014.83
39134,0.243902,9.77523,1.20516,1.75,-2.59,-17.78,-21.9554,-46.954,11.6119,1014.83
39140,0.248685,9.78479,1.20995,2.1,-2.59,-0.63,-21.8682,-46.6147,12.7497,1014.81
39146,0.191296,9.79914,1.22908,1.75,-2.87,0,-21.9263,-48.3418,11.5676,1014.81
39152,0.109995,9.76088,1.21473,1.19,-2.94,-0.84,-21.3161,-47.4782,11.3016,1014.84
39158,0.13869,9.71784,1.25299,1.82,-2.94,-0.49,-21.3452,-46.3063,12.1143,1014.84
39164,0.167384,9.7561,1.24821,1.75,-2.59,0,-21.9263,-46.9848,11.9813,1014.83
39170,0.143472,9.77523,1.1956,1.75,-3.15,-0.14,-21.9554,-48.4343,12.4985,1014.83
39176,0.124342,9.75131,1.21951,1.75,-3.08,-0.49,-21.781,-47.1082,12.6315,1014.83
39182,0.129125,9.73697,1.24821,1.68,-2.87,0,-22.6818,-46.6456,12.2178,1014.84
39188,0.114778,9.76566,1.23386,1.89,-3.01,-0.07,-22.5365,-48.2801,12.2621,1014.84
39194,0.11956,9.74175,1.1956,1.47,-3.08,-0.14,-21.752,-47.139,12.3212,1014.83
39200,0.124342,9.7561,1.21951,1.82,-2.87,0.21,-22.1588,-46.5531,12.5133,1014.83
39206,0.153037,9.77044,1.23386,1.75,-3.64,0.07,-21.9844,-48.2492,11.5381,1014.84
39212,0.210426,9.74653,1.22908,1.75,-2.87,0.56,-22.246,-48.1567,11.1095,1014.84
39218,0.167384,9.76088,1.20038,1.96,-2.52,-0.49,-22.3622,-46.7073,13.1782,1014.82
39224,0.157819,9.76088,1.21951,1.82,-2.59,0,-22.3912,-47.6633,11.5381,1014.82
39230,0.143472,9.79436,1.22429,1.68,-2.66,0.42,-22.5075,-47.91,12.0996,1014.82
39236,0.215208,9.77523,1.20995,1.68,-2.87,0.14,-22.3622,-46.7998,11.213,1014.82
39242,0.210426,9.77523,1.22908,2.1,-2.52,-0.42,-21.9844,-46.8615,12.8679,1014.82
39248,0.224773,9.78479,1.20038,1.68,-2.73,-0.49,-22.5075,-48.5268,10.9765,1014.85
39254,0.162602,9.76088,1.20038,1.47,-3.01,-0.07,-21.8973,-47.4474,12.0257,1014.85
39260,0.162602,9.75131,1.26734,1.54,-2.87,-0.56,-21.9263,-46.6764,12.0552,1014.82
39266,0.167384,9.7561,1.27212,1.61,-2.94,-0.42,-22.3912,-48.3726,11.4642,1014.82
39272,0.162602,9.75131,1.21473,1.82,-2.38,-0.07,-22.798,-47.9717,11.1982,1014.79
39278,0.124342,9.74653,1.24342,1.33,-3.15,-0.35,-21.1999,-46.8615,12.8679,1014.79
39284,0.0908656,9.75131,1.22908,2.1,-3.15,0.07,-21.9554,-47.3549,12.0404,1014.82
39290,0.148254,9.76088,1.24821,1.75,-2.73,0.14,-22.0716,-48.0334,11.7597,1014.82
39296,0.143472,9.7274,1.21951,1.75,-3.36,-0.35,-22.6237,-47.2624,12.3064,1014.82
39302,0.153037,9.75131,1.17647,1.61,-3.01,-0.21,-21.8101,-46.8306,11.9961,1014.85
39308,0.133907,9.77044,1.20516,1.75,-2.73,0.49,-22.9143,-49.1744,11.0061,1014.85
39314,0.157819,9.74175,1.19082,1.75,-2.59,0.42,-22.769,-47.8483,11.1095,1014.86
39320,0.162602,9.73697,1.1956,1.54,-3.08,-0.14,-21.9844,-47.5399,12.5724,1014.86
39326,0.176949,9.74175,1.21473,1.82,-2.8,0.28,-22.4784,-48.2801,10.681,1014.83
39332,0.176949,9.78479,1.20995,1.75,-2.66,0.42,-22.275,-47.6324,12.07,1014.83
39338,0.196078,9.74653,1.20995,1.4,-2.73,0.07,-21.9844,-46.2755,11.9518,1014.78
39344,0.186514,9.73218,1.23864,1.61,-2.66,0.21,-22.5656,-47.5708,11.4789,1014.78
39350,0.181731,9.77523,1.25777,1.61,-2.87,-0.35,-22.5365,-48.4651,12.2325,1014.78
39356,0.210426,9.78479,1.21473,2.17,-3.01,-0.77,-23.0595,-46.7998,12.8827,1014.83
39362,0.196078,9.79436,1.21951,1.75,-2.45,0.21,-21.9844,-46.6147,12.1143,1014.83
39368,0.133907,9.77523,1.22429,1.47,-2.24,-0.84,-22.8271,-47.8792,11.1243,1014.82
39374,0.095648,9.79436,1.20038,1.61,-3.08,-0.98,-22.8271,-46.5839,11.3607,1014.82
39380,0.13869,9.74175,1.23386,1.61,-2.52,-0.07,-22.6818,-46.5531,11.6858,1014.85
39386,0.124342,9.76088,1.20516,1.26,-2.59,0.07,-22.9724,-47.9408,11.7301,1014.85
39392,0.124342,9.74653,1.23386,1.19,-2.87,-0.49,-22.5946,-47.725,10.9765,1014.82
39398,0.181731,9.73697,1.21951,1.47,-3.22,-0.35,-22.3622,-47.0465,11.9813,1014.82
39404,0.133907,9.74653,1.21951,1.4,-3.08,0.28,-22.0426,-47.8175,11.5381,1014.82
39410,0.148254,9.77044,1.20995,1.4,-3.08,-17.71,-22.9433,-47.8792,11.3755,1014.86
39416,0.143472,9.78001,1.1956,1.19,-2.73,0.42,-22.1878,-46.5839,11.1095,1014.86
39422,0.172166,9.69871,1.26255,1.26,-2.87,0.42,-21.8682,-46.7073,11.5972,1014.82
39428,0.133907,9.75131,1.26734,1.47,-3.01,-0.14,-22.246,-47.2932,11.3016,1014.82
39434,0.148254,9.74175,1.23864,1.89,-2.87,0.42,-21.8682,-47.0465,10.8731,1014.86
39440,0.191296,9.78001,1.18604,1.4,-2.38,0.42,-21.5486,-46.4605,11.0357,1014.86
39446,0.143472,9.78001,1.24342,2.17,-3.57,-0.14,-21.9263,-47.3549,10.415,1014.81
39452,0.196078,9.77523,1.20516,1.68,-2.8,-0.14,-22.3041,-48.1876,10.9913,1014.81
39458,0.200861,9.79914,1.21951,1.82,-2.66,0.35,-21.8101,-46.5531,12.7793,1014.83
39464,0.21999,9.78957,1.17169,1.47,-2.94,-0.21,-21.8973,-47.2315,11.671,1014.83
39470,0.21999,9.73218,1.20516,1.68,-2.94,-0.7,-22.1878,-48.3726,11.8927,1014.83
39476,0.157819,9.78957,1.21951,1.33,-2.87,-0.28,-21.7229,-46.954,11.5381,1014.85
39482,0.10043,9.74175,1.26734,1.54,-3.15,-0.63,-21.8392,-47.4474,11.5676,1014.85
39488,0.124342,9.78957,1.23864,1.82,-2.94,-0.07,-22.1878,-48.2184,9.97175,1014.82
39494,0.143472,9.78479,1.18604,1.61,-3.08,-0.49,-22.246,-47.0773,10.2968,1014.82
39500,0.153037,9.76566,1.23386,1.47,-2.73,-0.42,-21.3742,-47.1082,11.3755,1014.83
39506,0.109995,9.77044,1.21951,1.26,-2.94,0.07,-22.1007,-47.6633,11.1391,1014.83
39512,0.11956,9.7561,1.20995,1.61,-2.87,0.21,-22.3041,-47.91,10.548,1014.84
39518,0.10043,9.74653,1.21951,1.61,-2.8,0,-21.6648,-46.4605,11.9961,1014.84
39524,0.143472,9.74175,1.21473,1.82,-2.87,-0.56,-22.7109,-47.9717,12.0109,1014.84
39530,0.148254,9.72262,1.23864,1.68,-2.59,-0.21,-21.9263,-48.095,10.5776,1014.83
39536,0.143472,9.73218,1.24342,0.98,-2.73,-0.07,-22.3331,-46.7073,11.6563,1014.83
39542,0.153037,9.71305,1.22429,1.54,-3.01,0.07,-21.9263,-47.2624,11.5824,1014.84
39548,0.205643,9.76088,1.23386,1.75,-2.87,0.07,-22.3622,-48.6502,10.9174,1014.84
39554,0.157819,9.74653,1.24342,1.47,-2.87,-0.21,-22.0135,-47.4166,11.4051,1014.81
39560,0.210426,9.76566,1.21951,1.26,-2.24,-0.56,-22.275,-47.2315,10.7992,1014.81
39566,0.200861,9.77044,1.18604,1.26,-2.66,0.35,-21.781,-48.2801,11.5676,1014.85
39572,0.167384,9.74653,1.22429,1.47,-3.01,0,-21.3742,-47.8175,10.4298,1014.85
39578,0.11956,9.74653,1.20516,1.33,-3.01,-0.63,-21.8392,-47.2932,12.1439,1014.85
39584,0.181731,9.77523,1.21951,1.61,-2.45,-0.35,-21.9263,-48.5268,10.9174,1014.85
39590,0.167384,9.78001,1.20995,1.12,-2.24,-0.07,-22.3622,-48.4034,10.7845,1014.85
39596,0.186514,9.79914,1.21951,1.89,-2.45,-0.63,-22.246,-47.6324,12.4985,1014.84
39602,0.0860832,9.74653,1.23864,1.61,-2.31,-0.49,-21.3452,-47.6324,12.3064,1014.84
39608,0.095648,9.73218,1.22908,1.4,-2.87,0.21,-22.3041,-47.3857,11.7597,1014.83
39614,0.143472,9.7561,1.20995,1.4,-3.43,0.28,-21.6939,-47.4474,11.6858,1014.83
39620,0.13869,9.77523,1.20995,1.54,-3.43,0,-21.9554,-46.6147,11.7301,1014.83
39626,0.10043,9.76088,1.22908,2.03,-3.22,0.07,-22.0135,-48.6193,11.7597,1014.83
39632,0.129125,9.72262,1.21473,1.4,-2.66,0,-21.781,-47.8175,11.7301,1014.83
39638,0.133907,9.79436,1.20038,1.61,-2.87,0.42,-21.5195,-46.9231,12.4246,1014.83
39644,0.157819,9.7561,1.17169,1.47,-2.73,0.56,-21.1418,-47.139,11.5972,1014.83
39650,0.172166,9.75131,1.21473,1.54,-2.73,0.07,-22.3331,-47.6324,9.33637,1014.82
39656,0.176949,9.77044,1.21473,1.89,-2.59,-0.21,-21.4033,-46.6456,12.2473,1014.82
39662,0.167384,9.76088,1.24821,1.33,-2.94,-0.14,-21.8973,-47.1082,10.2968,1014.83
39668,0.205643,9.76088,1.24821,1.4,-3.08,0.63,-22.1297,-48.1259,10.5628,1014.83
39674,0.181731,9.74175,1.22908,1.61,-2.87,-0.35,-21.781,-47.725,10.9174,1014.81
39680,0.124342,9.7561,1.20038,1.89,-2.87,-0.42,-21.0256,-46.9848,12.3064,1014.81
39686,0.133907,9.75131,1.26734,1.47,-2.73,-0.07,-20.9384,-48.4034,10.5185,1014.81
39692,0.200861,9.77044,1.22429,1.33,-3.01,-0.21,-21.6358,-48.2492,11.6119,1014.81
39698,0.181731,9.79436,1.22429,1.75,-3.08,-0.21,-21.8682,-46.4297,12.5281,1014.81
39704,0.143472,9.76566,1.23864,1.47,-2.45,-0.21,-22.275,-47.7866,10.8436,1014.83
39710,0.124342,9.74175,1.22429,1.82,-2.87,-0.07,-22.4493,-48.1567,10.681,1014.83
39716,0.11956,9.75131,1.24821,1.75,-2.87,-0.21,-21.6358,-46.7073,11.2425,1014.81
39722,0.133907,9.76088,1.24342,1.68,-3.08,-0.35,-21.6939,-46.954,11.4642,1014.81
39728,0.148254,9.73218,1.24342,1.96,-2.66,0,-21.9844,-47.91,11.5233,1014.84
39734,0.162602,9.75131,1.23386,1.96,-2.87,0.14,-21.9263,-47.2624,11.5824,1014.84
39740,0.143472,9.75131,1.23864,1.96,-3.15,-0.42,-21.5776,-46.3989,13.06,1014.85
39746,0.143472,9.76088,1.21473,1.82,-2.8,0.35,-22.3331,-47.91,11.6858,1014.85
39752,0.162602,9.76566,1.20995,1.82,-2.59,0.49,-21.9554,-47.2007,11.9075,1014.8
39758,0.191296,9.78001,1.21473,1.68,-2.59,0.42,-21.4905,-47.4474,11.2869,1014.8
39764,0.176949,9.79436,1.21473,1.89,-3.22,-0.35,-21.752,-48.0334,10.0604,1014.8
39770,0.196078,9.7561,1.25299,1.68,-2.87,0.07,-21.8973,-47.7866,11.9961,1014.85
39776,0.172166,9.74653,1.25777,1.89,-2.87,0,-21.3742,-46.4297,12.4394,1014.85
39782,0.143472,9.76088,1.20516,2.1,-2.59,-0.28,-21.6358,-47.3857,12.3655,1014.82
39788,0.143472,9.77523,1.21473,1.68,-2.24,0.14,-22.3331,-48.0025,10.2525,1014.82
39794,0.124342,9.78001,1.21473,1.96,-3.08,-0.21,-22.5365,-46.7689,11.1095,1014.82
39800,0.133907,9.74653,1.24342,1.61,-2.59,-0.14,-21.9554,-46.7073,11.671,1014.82
39806,0.196078,9.74175,1.20995,1.54,-2.94,-0.07,-22.275,-47.3549,9.64667,1014.82
39812,0.13869,9.78001,1.23864,1.54,-2.8,0.07,-22.4784,-48.0334,12.1439,1014.82
39818,0.0860832,9.77044,1.25299,1.75,-2.73,0.21,-22.5365,-46.0596,11.5824,1014.82
39824,0.105213,9.75131,1.23386,1.75,-2.66,0,-22.4493,-47.324,11.1834,1014.85
39830,0.13869,9.78001,1.23864,1.68,-3.01,0,-22.5656,-47.8175,11.5528,1014.85
39836,0.153037,9.74653,1.25299,1.96,-3.08,0.07,-21.6939,-46.5839,11.937,1014.84
39842,0.157819,9.7274,1.23864,1.47,-2.59,0.07,-22.1297,-46.7073,11.8484,1014.84
39848,0.133907,9.75131,1.23864,2.1,-2.87,0.49,-21.9554,-48.0025,11.0209,1014.85
39854,0.172166,9.75131,1.23386,1.89,-2.87,0.42,-21.9554,-47.324,11.6563,1014.85
39860,0.181731,9.72262,1.22908,1.96,-2.94,-0.14,-22.3912,-45.9979,11.5233,1014.85
39866,0.23912,9.78001,1.20995,1.68,-2.66,0.21,-22.3041,-48.0025,11.3903,1014.85
39872,0.167384,9.78957,1.17647,1.96,-2.38,-0.35,-21.8682,-47.8483,10.5037,1014.85
39878,0.153037,9.74175,1.20995,1.75,-2.38,-0.49,-21.1418,-46.0905,12.07,1014.86
39884,0.143472,9.77523,1.21473,1.82,-2.87,0.21,-22.1297,-47.5091,11.9222,1014.86
39890,0.172166,9.78001,1.20038,1.61,-2.59,-0.28,-22.2169,-48.2492,11.2573,1014.84
39896,0.172166,9.78957,1.17647,1.68,-2.8,0.07,-21.8973,-46.9848,12.0996,1014.84
39902,0.11956,9.8087,1.1956,1.82,-2.8,-0.49,-22.769,-47.2932,10.4741,1014.82
39908,0.124342,9.78001,1.20038,1.82,-2.8,-0.42,-22.1297,-48.095,11.4642,1014.82
39914,0.129125,9.74175,1.20038,1.75,-2.38,0.28,-22.3912,-48.1259,12.203,1014.83
39920,0.133907,9.77044,1.1956,1.68,-2.73,0.07,-22.246,-47.2315,12.6463,1014.83
39926,0.124342,9.73697,1.20995,1.54,-2.66,-0.07,-22.1007,-47.9408,11.9813,1014.84
39932,0.143472,9.77044,1.18604,1.47,-3.01,0.07,-21.6358,-47.5708,10.9174,1014.84
39938,0.143472,9.77044,1.19082,1.61,-3.01,0.42,-21.6067,-47.1698,12.0552,1014.84
39944,0.133907,9.71305,1.1956,1.47,-3.15,0.49,-21.4324,-47.2007,10.9913,1014.83
39950,0.153037,9.73218,1.23864,1.61,-2.87,0.21,-22.1007,-48.2184,10.9913,1014.83
39956,0.13869,9.77523,1.20038,1.33,-3.01,0.49,-22.1588,-46.7381,12.1734,1014.84
39962,0.148254,9.77044,1.22429,1.75,-3.08,-17.64,-21.8682,-46.7998,11.5381,1014.84
39968,0.181731,9.74175,1.22429,1.89,-2.94,0.14,-21.6358,-48.3109,11.671,1014.83
39974,0.172166,9.77523,1.22429,1.75,-2.59,0.49,-22.275,-47.139,11.9813,1014.83
39980,0.162602,9.75131,1.25299,1.96,-3.15,0.21,-21.8973,-46.3989,12.2916,1014.86
39986,0.196078,9.77523,1.22429,1.54,-3.01,-0.35,-21.9263,-48.2492,10.3264,1014.86
39992,0.205643,9.78479,1.21473,1.89,-2.73,-0.21,-22.246,-47.0773,11.1834,1014.86
39998,0.181731,9.78001,1.24342,1.89,-2.73,0.07,-22.3331,-47.1698,11.5085,1014.85
40004,0.129125,9.74175,1.21951,1.4,-2.66,-0.42,-21.752,-47.7558,11.7301,1014.85
40010,0.124342,9.7561,1.22429,1.61,-2.8,-0.49,-22.1588,-48.0334,11.9961,1014.84
40016,0.157819,9.7561,1.19082,1.61,-2.87,0,-21.8392,-46.7381,12.7054,1014.84
40022,0.124342,9.74653,1.25299,1.4,-2.24,-0.14,-21.8101,-47.2007,12.5576,1014.85
40028,0.105213,9.74175,1.23386,1.89,-3.01,-0.28,-22.3912,-48.5268,11.3755,1014.85
40034,0.13869,9.74653,1.22908,1.82,-2.94,0.28,-22.6818,-47.1698,11.6858,1014.85
40040,0.124342,9.78001,1.22429,1.61,-3.01,-0.35,-22.3041,-47.3857,12.2916,1014.85
40046,0.105213,9.76566,1.23864,1.82,-2.94,-0.07,-22.0135,-48.6502,11.3903,1014.85
40052,0.172166,9.75131,1.22429,1.89,-2.8,0.63,-22.8271,-47.91,11.8927,1014.82
40058,0.124342,9.7561,1.22908,1.54,-3.22,0.35,-20.9093,-46.8615,12.7202,1014.82
40064,0.157819,9.77044,1.24342,1.82,-3.08,-0.07,-21.8682,-48.4034,10.0013,1014.81
40070,0.133907,9.74175,1.21473,1.54,-2.8,0.21,-22.1588,-48.2492,11.0357,1014.81
40076,0.176949,9.77523,1.23386,1.82,-2.87,0.42,-21.752,-46.6764,12.0848,1014.82
40082,0.186514,9.74653,1.21951,2.1,-2.66,-0.14,-21.6939,-46.6764,12.5133,1014.82
40088,0.153037,9.77523,1.23864,2.03,-2.94,0.14,-21.6067,-48.5576,10.1491,1014.87
40094,0.196078,9.78957,1.21473,2.45,-2.94,0.35,-21.6939,-46.6147,11.3312,1014.87
40100,0.148254,9.80392,1.20995,1.54,-2.8,17.85,-21.6067,-45.7821,11.9961,1014.87
40106,0.181731,9.78001,1.21473,1.75,-2.66,0.14,-21.6939,-48.095,11.4494,1014.87
40112,0.162602,9.80392,1.17169,1.68,-3.08,-0.07,-21.8973,-47.8483,12.336,1014.87
40118,0.176949,9.77523,1.26734,1.68,-3.22,-0.35,-22.3041,-46.3989,12.4542,1014.85
40124,0.186514,9.76566,1.23386,1.47,-3.08,-0.14,-22.0716,-47.8792,12.8532,1014.85
40130,0.181731,9.76566,1.23386,1.82,-2.87,0.21,-22.0426,-48.095,11.5676,1014.82
40136,0.143472,9.78001,1.20995,1.75,-2.87,-0.14,-21.781,-46.368,13.3703,1014.82
40142,0.129125,9.76566,1.20995,1.82,-3.01,-0.56,-21.8392,-47.6324,12.1291,1014.8
40148,0.172166,9.76566,1.24342,1.75,-2.87,-0.07,-22.3331,-47.4166,10.9765,1014.8
40154,0.167384,9.74175,1.24821,1.75,-2.87,0.28,-22.275,-47.3857,11.5381,1014.81
40160,0.133907,9.74175,1.20516,1.47,-2.94,0.28,-21.8101,-47.5091,11.5972,1014.81
40166,0.153037,9.7561,1.24342,1.96,-3.01,0.14,-20.8222,-48.8969,11.7597,1014.81
40172,0.124342,9.72262,1.22429,1.68,-2.59,-0.28,-21.9263,-48.0642,11.3312,1014.86
40178,0.167384,9.74175,1.20516,2.31,-2.73,-0.14,-21.4905,-46.954,12.1143,1014.86
40184,0.176949,9.75131,1.1956,1.54,-3.15,0.42,-20.9965,-47.3857,13.1782,1014.85
40190,0.181731,9.77523,1.20516,1.75,-3.08,0.28,-21.5195,-48.2801,11.9666,1014.85
40196,0.153037,9.76566,1.20995,2.03,-2.8,0.07,-22.0716,-46.8923,12.7497,1014.85
40202,0.162602,9.75131,1.20516,1.61,-2.73,0.21,-22.0135,-48.095,12.9566,1014.85
40208,0.167384,9.77523,1.22908,1.75,-2.66,0.21,-22.3331,-47.725,11.4346,1014.85
40214,0.162602,9.76088,1.17647,1.96,-3.08,-0.21,-21.8392,-47.2315,11.5824,1014.85
40220,0.162602,9.7561,1.18125,1.96,-2.8,-0.21,-21.4905,-46.5222,11.804,1014.85
40226,0.148254,9.75131,1.24342,1.61,-2.66,-0.14,-21.9554,-47.6941,10.4741,1014.8
40232,0.196078,9.76566,1.17647,1.82,-2.73,-0.28,-21.6939,-47.6016,11.8188,1014.8
40238,0.148254,9.74653,1.20516,1.82,-3.22,-0.35,-22.0135,-46.6456,12.1882,1014.86
40244,0.148254,9.7561,1.22908,1.54,-2.66,-0.35,-22.3331,-48.095,11.3903,1014.86
40250,0.148254,9.78001,1.23386,1.82,-2.94,-0.35,-22.8561,-48.3109,10.9765,1014.85
40256,0.133907,9.75131,1.22908,1.61,-2.8,-0.21,-22.4203,-47.3549,12.5133,1014.85
40262,0.148254,9.73218,1.23864,1.4,-3.36,0,-22.2169,-47.324,12.0109,1014.82
40268,0.124342,9.74653,1.24342,1.82,-3.22,0,-22.3912,-48.5268,11.2721,1014.82
40274,0.172166,9.74175,1.24821,1.68,-2.8,-0.35,-22.0135,-46.0596,11.7597,1014.8
40280,0.143472,9.7274,1.22429,1.26,-3.29,0.28,-23.0595,-46.9231,13.6067,1014.8
40286,0.13869,9.73218,1.22429,2.03,-3.15,0.28,-22.798,-47.725,11.5676,1014.8
40292,0.129125,9.74653,1.24821,1.61,-2.8,0,-22.3912,-47.5091,10.9765,1014.84
40298,0.148254,9.74175,1.25299,2.17,-2.59,0.35,-21.8682,-46.6764,12.4246,1014.84
40304,0.176949,9.75131,1.1956,1.61,-2.8,0.21,-22.1878,-48.1259,12.3212,1014.84
40310,0.153037,9.78001,1.22429,1.82,-2.73,0.42,-22.3912,-47.2007,10.3412,1014.84
40316,0.215208,9.77044,1.21951,1.75,-2.94,0.42,-21.781,-46.1213,11.6119,1014.83
40322,0.210426,9.78957,1.21473,2.1,-3.01,-0.35,-22.0135,-47.725,11.804,1014.83
40328,0.172166,9.78479,1.19082,1.75,-2.59,-0.28,-22.0426,-47.7866,10.947,1014.83
40334,0.148254,9.80392,1.20995,1.61,-2.45,0.14,-22.5946,-46.6147,12.5576,1014.83
40340,0.21999,9.78001,1.21951,1.47,-2.52,-0.07,-22.1297,-46.7689,12.0404,1014.83
40346,0.162602,9.77044,1.22429,1.82,-2.8,-0.7,-22.3041,-47.91,11.0357,1014.82
40352,0.124342,9.76088,1.29125,1.19,-2.52,-0.35,-22.3331,-47.3549,12.2473,1014.82
40358,0.129125,9.79914,1.26255,1.68,-3.01,-0.14,-22.0426,-46.4914,12.7497,1014.83
40364,0.129125,9.78001,1.22908,1.61,-3.22,-0.63,-22.8561,-47.1082,11.08,1014.83
40370,0.176949,9.74175,1.23386,1.75,-2.59,-0.7,-22.3912,-47.6633,12.2473,1014.84
40376,0.153037,9.79436,1.23864,1.68,-3.01,-0.56,-22.5946,-46.7073,12.9861,1014.84
40382,0.143472,9.75131,1.22429,1.54,-2.24,-0.42,-22.5656,-47.6016,12.469,1014.81
40388,0.129125,9.74653,1.24342,1.61,-2.94,0.21,-22.1297,-48.3109,11.804,1014.81
40394,0.148254,9.77044,1.20516,1.75,-3.01,0.07,-21.6648,-46.7998,12.1882,1014.84
40400,0.13869,9.7561,1.23386,1.61,-3.29,-0.35,-21.8101,-46.4297,13.3703,1014.84
40406,0.167384,9.74653,1.22429,1.68,-2.87,0,-22.8561,-47.8175,10.6367,1014.84
40412,0.167384,9.75131,1.24342,1.75,-2.94,0.21,-21.9844,-47.6633,11.5972,1014.8
40418,0.181731,9.76566,1.23386,1.75,-2.87,0.49,-21.6358,-46.7073,12.9566,1014.8
40424,0.162602,9.78479,1.24821,1.96,-2.73,0,-21.9554,-47.5399,11.7154,1014.81
40430,0.181731,9.78957,1.21951,1.89,-2.94,0.14,-22.246,-47.9717,11.3016,1014.81
40436,0.13869,9.77523,1.20516,1.75,-3.01,0.07,-22.1588,-46.5222,12.5576,1014.8
40442,0.172166,9.76088,1.22429,1.75,-2.87,-0.28,-22.5946,-46.5222,11.2573,1014.8
40448,0.172166,9.79436,1.22429,1.89,-2.52,0.42,-22.5075,-47.7866,11.8631,1014.81
40454,0.186514,9.78479,1.23864,1.89,-2.66,-0.56,-21.9554,-46.7998,10.7106,1014.81
40460,0.148254,9.73697,1.25299,1.82,-2.59,-0.35,-22.1878,-46.7073,12.5281,1014.81
40466,0.148254,9.76566,1.25299,1.61,-3.01,0.84,-21.781,-48.3418,11.2425,1014.85
40472,0.167384,9.75131,1.26255,1.61,-2.8,-0.35,-21.8973,-47.5399,12.4542,1014.85
40478,0.172166,9.77523,1.22429,1.89,-3.08,-0.91,-22.3331,-47.6016,12.4099,1014.82
40484,0.109995,9.77523,1.23386,1.05,-2.59,-0.21,-22.6527,-47.6941,11.7449,1014.82
40490,0.124342,9.73218,1.26255,2.38,-3.22,0,-21.7229,-48.095,12.1439,1014.83
40496,0.095648,9.72262,1.24821,1.47,-2.31,0.07,-21.8682,-47.139,11.8927,1014.83
40502,0.11956,9.76566,1.20995,1.47,-2.87,-0.42,-22.4493,-47.8792,12.7793,1014.83
40508,0.167384,9.74175,1.25777,1.82,-2.87,0.14,-22.0426,-47.8792,11.213,1014.83
40514,0.129125,9.74175,1.26734,1.61,-2.94,-0.21,-21.8973,-46.8306,10.8583,1014.83
40520,0.143472,9.74653,1.22429,1.82,-2.87,0.28,-21.5195,-46.7689,12.5872,1014.82
40526,0.148254,9.80392,1.21951,1.68,-2.94,0.21,-22.4784,-47.9717,11.7154,1014.82
40532,0.167384,9.76566,1.21473,1.54,-2.24,0,-21.9263,-48.1259,11.9075,1014.8
40538,0.153037,9.76088,1.22429,1.82,-2.8,-0.07,-22.246,-47.2624,13.6511,1014.8
40544,0.196078,9.75131,1.22908,1.68,-2.73,0.21,-21.9263,-48.0025,12.8679,1014.83
40550,0.196078,9.81349,1.21951,1.26,-2.52,-0.35,-22.8852,-49.0819,12.2473,1014.83
40556,0.167384,9.79436,1.24821,1.82,-3.15,-0.77,-22.1878,-47.2624,12.8975,1014.84
40562,0.153037,9.75131,1.25299,1.33,-2.45,-0.28,-21.4614,-47.3857,11.4642,1014.84
40568,0.129125,9.75131,1.26734,1.82,-2.8,0,-22.3622,-47.3857,11.8927,1014.84
40574,0.157819,9.74653,1.27212,1.33,-2.73,-0.07,-21.9844,-46.7689,11.5676,1014.84
40580,0.109995,9.76088,1.22908,1.75,-2.24,0.21,-23.3211,-47.91,10.8583,1014.84
40586,0.143472,9.74653,1.2769,2.24,-2.8,0,-21.6648,-48.496,12.3508,1014.82
40592,0.153037,9.71305,1.26734,2.24,-3.22,0.14,-22.1297,-47.139,12.0552,1014.82
40598,0.129125,9.73218,1.21951,1.96,-3.15,0.21,-21.8682,-46.954,12.5724,1014.83
40604,0.129125,9.75131,1.22908,1.96,-3.22,0.21,-21.6358,-48.3109,12.0404,1014.83
40610,0.143472,9.77523,1.22429,1.4,-3.15,0.07,-22.0426,-47.9717,11.346,1014.79
40616,0.153037,9.76566,1.20516,2.03,-3.15,0.35,-22.3041,-46.954,12.0404,1014.79
40622,0.133907,9.77044,1.22429,1.82,-2.66,0.28,-21.8973,-47.324,11.9518,1014.82
40628,0.157819,9.81827,1.25777,1.82,-2.94,0.14,-22.0716,-47.7558,11.0357,1014.82
40634,0.148254,9.74175,1.25777,1.54,-3.08,-0.07,-22.275,-46.0596,12.3803,1014.82
40640,0.167384,9.7561,1.24821,2.17,-2.52,-0.07,-22.4493,-46.7998,12.3508,1014.81
40646,0.234338,9.8087,1.21473,1.61,-2.59,0.28,-22.4203,-48.0642,11.4346,1014.81
40652,0.200861,9.77523,1.19082,2.03,-2.73,-0.14,-22.6818,-48.0334,10.1491,1014.84
40658,0.162602,9.78001,1.22908,1.96,-3.01,-0.21,-22.5365,-46.6764,12.0109,1014.84
40664,0.153037,9.78001,1.24821,1.82,-2.87,-0.56,-22.4784,-47.3857,10.9913,1014.81
40670,0.186514,9.76088,1.23864,1.75,-2.66,-0.49,-22.5946,-47.5399,11.4198,1014.81
40676,0.191296,9.77044,1.1956,1.82,-2.45,-0.07,-21.781,-46.5531,11.7597,1014.86
40682,0.157819,9.78957,1.25299,1.75,-2.52,-0.91,-22.4784,-46.7073,11.3312,1014.86
40688,0.10043,9.73697,1.28168,1.61,-2.73,-1.05,-22.1007,-48.6193,10.8583,1014.86
40694,0.105213,9.77523,1.22908,2.03,-2.59,0.28,-21.8973,-47.4474,11.804,1014.79
40700,0.129125,9.73218,1.25299,1.68,-3.15,0.14,-21.752,-46.6147,13.4294,1014.79
40706,0.114778,9.73697,1.22429,0.84,-2.94,-0.42,-22.4784,-48.7118,12.8088,1014.82
40712,0.157819,9.71784,1.23386,1.89,-2.8,-0.35,-22.0426,-47.1698,11.3755,1014.82
40718,0.11956,9.70827,1.25299,1.61,-2.66,0.42,-21.8682,-46.4914,11.9666,1014.82
40724,0.071736,9.7561,1.26255,1.33,-3.22,0.42,-22.0426,-47.8175,11.4051,1014.82
40730,0.167384,9.72262,1.23386,1.61,-2.59,0.49,-21.8682,-48.1567,11.1539,1014.84
40736,0.11956,9.76088,1.26734,1.75,-3.36,0.49,-22.5365,-46.0288,11.9075,1014.84
40742,0.153037,9.73697,1.26255,1.4,-3.15,0.56,-21.9554,-46.4914,12.0257,1014.84
40748,0.13869,9.7274,1.26255,1.75,-3.15,0.35,-22.1878,-48.4343,11.3903,1014.84
40754,0.157819,9.77523,1.24342,1.61,-3.01,0.14,-22.1297,-47.3549,12.6906,1014.84
40760,0.167384,9.74653,1.24342,2.1,-3.43,0.49,-22.1007,-46.8306,11.3607,1014.83
40766,0.181731,9.80392,1.24342,1.82,-3.15,0.21,-22.4493,-48.0642,11.8336,1014.83
40772,0.176949,9.77523,1.23386,2.1,-2.59,0.14,-21.6648,-47.8175,11.5233,1014.82
40778,0.176949,9.77523,1.20516,1.61,-3.15,-0.07,-22.246,-46.5222,11.1982,1014.82
40784,0.172166,9.78001,1.24342,2.1,-2.73,-0.21,-21.8682,-47.7558,10.947,1014.83
40790,0.162602,9.78001,1.23386,1.61,-2.66,-0.28,-21.9844,-48.8352,11.9222,1014.83
40796,0.186514,9.72262,1.25777,1.75,-2.87,-0.28,-21.8392,-46.183,12.336,1014.81
40802,0.13869,9.74175,1.27212,2.1,-2.87,0.14,-21.9263,-47.8483,11.9075,1014.81
40808,0.157819,9.77523,1.24342,1.54,-2.94,0.07,-22.3331,-48.1259,11.5085,1014.81
40814,0.133907,9.77523,1.25777,1.96,-2.94,0,-21.5486,-47.2315,11.7892,1014.83
40820,0.153037,9.74653,1.23864,1.89,-2.73,0.21,-21.4324,-46.6456,11.5676,1014.83
40826,0.143472,9.74175,1.21951,1.61,-3.15,-0.07,-22.275,-49.0202,11.2869,1014.85
40832,0.124342,9.76088,1.27212,1.82,-3.36,0.28,-22.2169,-47.91,11.4346,1014.85
40838,0.133907,9.71305,1.24342,2.17,-3.01,0.28,-21.8973,-45.9671,12.0552,1014.84
40844,0.143472,9.74175,1.24342,1.54,-2.87,0.49,-22.8852,-48.1259,11.7154,1014.84
40850,0.148254,9.76088,1.20995,1.75,-2.94,0,-21.5195,-48.095,10.8583,1014.83
40856,0.176949,9.76566,1.22908,1.75,-3.01,0.07,-21.752,-47.7866,12.5576,1014.83
40862,0.172166,9.73697,1.20516,2.03,-2.8,-0.14,-21.4614,-46.954,11.5676,1014.83
40868,0.129125,9.76566,1.23386,1.89,-3.08,0.28,-22.3041,-47.5708,10.6071,1014.85
40874,0.157819,9.75131,1.23386,1.75,-2.73,0.42,-21.6067,-47.1698,12.2178,1014.85
40880,0.167384,9.77044,1.20038,1.89,-2.66,0,-22.3622,-46.2447,10.5628,1014.82
40886,0.210426,9.76088,1.22429,1.54,-2.66,0,-22.9143,-48.7735,10.7401,1014.82
40892,0.176949,9.80392,1.20516,2.52,-2.66,-0.84,-21.3742,-47.6016,11.5676,1014.85
40898,0.133907,9.7561,1.20516,1.4,-2.87,0.14,-21.4324,-46.2447,12.0552,1014.85
40904,0.162602,9.76566,1.26255,1.47,-2.8,-0.14,-21.3161,-47.5091,10.548,1014.83
40910,0.153037,9.78479,1.21473,1.96,-2.73,-0.98,-21.6358,-47.324,10.6071,1014.83
40916,0.172166,9.77044,1.22908,2.1,-3.01,-0.7,-21.5195,-46.1521,11.937,1014.85
40922,0.148254,9.77523,1.22908,1.4,-2.59,0.21,-21.2871,-47.1082,11.2425,1014.85
40928,0.095648,9.7561,1.26734,1.89,-2.8,-0.07,-21.781,-48.1567,11.5676,1014.85
40934,0.109995,9.74653,1.26734,1.61,-3.22,0.21,-21.9844,-46.7073,11.9518,1014.86
40940,0.124342,9.74175,1.20995,1.75,-2.66,0.07,-21.8101,-47.6633,12.0257,1014.86
40946,0.114778,9.76566,1.22429,1.47,-2.66,0.21,-21.8682,-47.91,11.213,1014.81
40952,0.129125,9.76566,1.26255,1.75,-2.8,0.35,-22.0135,-47.2315,10.5628,1014.81
40958,0.181731,9.73697,1.20995,1.89,-3.08,-0.14,-22.1007,-46.1213,12.7202,1014.83
40964,0.143472,9.77044,1.23386,1.75,-3.08,-0.07,-21.5486,-47.139,11.6267,1014.83
40970,0.181731,9.7561,1.22908,1.68,-2.94,0.21,-21.9263,-48.0642,12.5576,1014.87
40976,0.167384,9.73697,1.25299,1.89,-3.08,0.35,-21.6358,-46.1521,11.7892,1014.87
40982,0.191296,9.76088,1.23864,2.03,-3.15,0.21,-21.781,-46.9848,10.947,1014.87
40988,0.13869,9.76088,1.23386,1.89,-3.01,0.07,-21.9263,-47.1698,12.1587,1014.81
40994,0.229555,9.79436,1.23864,1.47,-2.8,0.56,-21.0837,-47.5091,13.1043,1014.81
41000,0.205643,9.76566,1.22908,1.68,-2.38,0,-21.5195,-46.0596,12.5281,1014.81
41006,0.148254,9.78001,1.21473,1.4,-2.73,-0.07,-21.6067,-48.3418,11.1243,1014.81
41012,0.133907,9.78957,1.21473,1.75,-3.36,-0.14,-21.5486,-47.8792,12.1439,1014.82
41018,0.172166,9.76566,1.23386,1.4,-2.94,-0.21,-22.0135,-46.0905,12.9714,1014.82
41024,0.153037,9.74175,1.25777,1.4,-2.45,-0.07,-20.9093,-47.7558,12.0257,1014.82
41030,0.0908656,9.7561,1.23386,1.96,-3.08,-0.28,-21.752,-48.095,11.4198,1014.82
41036,0.105213,9.74653,1.24342,1.82,-3.29,-0.42,-21.5195,-46.5531,12.8679,1014.82
41042,0.143472,9.74653,1.24342,1.75,-2.8,-0.14,-21.1709,-47.9717,11.3903,1014.83
41048,0.114778,9.74653,1.25777,1.47,-2.73,0.21,-21.8101,-48.681,11.213,1014.83
41054,0.143472,9.76566,1.22908,2.1,-2.73,0.14,-21.1999,-46.1521,10.9913,1014.84
41060,0.13869,9.75131,1.24342,1.89,-2.8,-0.28,-21.8392,-46.9231,11.7449,1014.84
41066,0.133907,9.71784,1.22429,1.75,-3.29,0.49,-22.5365,-47.8175,10.8731,1014.86
41072,0.143472,9.76088,1.26255,1.75,-2.8,-0.21,-21.752,-47.3549,12.0257,1014.86
41078,0.162602,9.76088,1.22908,1.89,-3.22,0,-21.9263,-46.8306,13.9909,1014.84
41084,0.172166,9.74653,1.23386,1.75,-3.22,0.35,-21.5776,-47.5708,12.7793,1014.84
41090,0.172166,9.7274,1.23386,1.82,-3.43,-0.21,-22.6818,-48.681,11.4346,1014.82
41096,0.124342,9.79436,1.21473,1.61,-3.01,0.07,-22.3041,-45.9979,12.2916,1014.82
41102,0.157819,9.74175,1.24342,1.54,-3.22,0.35,-21.6648,-47.0465,12.1291,1014.82
41108,0.181731,9.73218,1.23386,1.82,-3.15,0,-21.6067,-48.095,11.3312,1014.83
41114,0.172166,9.75131,1.24821,1.96,-2.59,-0.63,-22.3912,-46.8923,11.9518,1014.83
41120,0.191296,9.76566,1.22908,1.75,-2.8,0,-21.7229,-47.2932,12.336,1014.83
41126,0.186514,9.74653,1.24342,1.61,-2.52,-0.35,-22.6237,-47.6941,11.213,1014.83
41132,0.162602,9.78479,1.23386,1.82,-2.73,-0.42,-21.9263,-46.2447,13.0009,1014.83
41138,0.11956,9.77044,1.27212,1.82,-2.8,-0.07,-21.3452,-47.0157,12.7349,1014.83
41144,0.13869,9.76566,1.21951,1.61,-2.59,-0.63,-22.1588,-47.6633,11.9666,1014.82
41150,0.129125,9.7561,1.22429,1.26,-2.94,-0.21,-21.8101,-47.324,12.4246,1014.82
41156,0.133907,9.77044,1.24342,1.68,-3.01,0,-21.9263,-46.6456,12.0404,1014.82
41162,0.143472,9.76088,1.24342,1.75,-3.01,0,-21.6358,-47.3549,11.5824,1014.87
41168,0.124342,9.73697,1.21473,1.82,-2.73,0,-22.0426,-47.8175,12.0848,1014.87
41174,0.11956,9.75131,1.22429,1.61,-3.08,-0.28,-21.8973,-46.7381,11.6119,1014.82
41180,0.153037,9.71305,1.22429,1.61,-3.01,0.63,-21.7229,-47.3549,12.5281,1014.82
41186,0.162602,9.73697,1.22908,1.82,-2.94,0,-21.8973,-48.6502,12.1587,1014.83
41192,0.167384,9.73697,1.25299,1.68,-3.01,-0.21,-21.4614,-47.8792,12.0848,1014.83
41198,0.143472,9.78001,1.22908,1.82,-2.59,0.21,-21.3161,-46.7998,11.9666,1014.83
41204,0.157819,9.77044,1.20995,2.52,-2.1,0.63,-22.1878,-47.1698,11.7597,1014.83
41210,0.176949,9.7561,1.21473,1.54,-3.57,0.7,-21.9554,-48.0025,11.1539,1014.82
41216,0.186514,9.78479,1.22429,1.75,-2.8,0,-21.781,-46.3063,12.5428,1014.82
41222,0.181731,9.78001,1.25777,1.75,-2.59,-0.63,-21.6067,-46.7998,12.4246,1014.82
41228,0.176949,9.77044,1.21473,1.54,-2.38,0,-21.9554,-47.6633,11.5528,1014.82
41234,0.148254,9.75131,1.25777,1.68,-2.94,-0.07,-22.3622,-46.6764,11.2573,1014.82
41240,0.148254,9.78001,1.26734,1.47,-3.01,-0.35,-21.9554,-46.7689,12.0404,1014.83
41246,0.191296,9.73218,1.26734,1.61,-1.68,-0.84,-22.7109,-47.8175,10.8731,1014.83
41252,0.167384,9.74653,1.25299,1.82,-1.75,-0.77,-23.1758,-47.5399,11.3164,1014.86
41258,0.124342,9.77523,1.25777,1.96,-2.73,-0.28,-22.3912,-47.1698,11.1391,1014.86
41264,0.143472,9.76088,1.23864,1.82,-3.36,-0.21,-21.9263,-48.095,10.7697,1014.85
41270,0.129125,9.76088,1.24342,1.54,-2.8,-0.42,-22.2169,-47.7558,11.5085,1014.85
41276,0.129125,9.77523,1.23864,2.03,-2.24,0.14,-22.3331,-47.3549,10.9913,1014.85
41282,0.11956,9.75131,1.23864,1.61,-3.15,-0.49,-22.3331,-46.9231,11.5824,1014.83
41288,0.148254,9.77044,1.23386,1.54,-3.36,0.14,-22.1878,-47.6633,11.6563,1014.83
41294,0.148254,9.74653,1.22908,1.89,-3.01,0.49,-21.5195,-47.1082,10.814,1014.83
41300,0.143472,9.74653,1.24342,1.82,-2.87,-0.35,-22.1297,-47.2007,12.1143,1014.83
41306,0.162602,9.75131,1.20995,1.47,-3.01,-0.56,-22.1588,-48.4651,11.0209,1014.81
41312,0.129125,9.76088,1.25777,1.68,-3.08,0.35,-21.752,-47.6016,10.5628,1014.81
41318,0.176949,9.77044,1.19082,1.68,-3.22,0.42,-21.5195,-46.954,10.8288,1014.84
41324,0.181731,9.80392,1.21473,1.82,-3.43,-0.42,-22.275,-47.8792,11.4494,1014.84
41330,0.205643,9.80392,1.23864,1.75,-2.87,-0.77,-22.246,-46.8306,11.1391,1014.84
41336,0.162602,9.78001,1.1956,1.33,-2.38,0.07,-21.7229,-46.7689,11.1982,1014.82
41342,0.176949,9.77044,1.22908,1.33,-2.66,-0.56,-22.1878,-47.5708,11.7745,1014.82
41348,0.157819,9.74653,1.23386,1.26,-2.8,-0.56,-21.8973,-48.3726,10.0309,1014.86
41354,0.186514,9.81827,1.15734,1.12,-3.57,-0.91,-21.6358,-46.8615,11.8188,1014.86
41360,0.172166,9.79436,1.16691,1.19,-3.08,-1.26,-21.8973,-47.0773,12.4542,1014.8
41366,0.162602,9.82783,1.20516,1.05,-3.36,-0.77,-21.4905,-48.681,10.7253,1014.8
41372,0.205643,9.6748,1.34385,0.84,-2.73,-1.26,-22.0135,-47.8792,12.1882,1014.82
41378,0.047824,9.68436,1.41559,1.82,-3.29,-1.12,-22.0716,-46.6456,12.3508,1014.82
41384,0.176949,9.71305,1.2769,1.75,-3.22,-1.05,-21.8392,-47.8792,11.4198,1014.84
41390,0.133907,9.74175,1.25299,2.03,-2.73,-0.56,-21.6648,-47.0157,11.5381,1014.84
41396,0.10043,9.77044,1.1956,1.4,-3.08,-0.98,-21.8392,-45.9363,11.7006,1014.84
41402,0.143472,9.7274,1.28647,1.82,-2.94,-0.84,-22.8561,-47.9408,11.7597,1014.81
41408,0.0765184,9.76088,1.25299,1.82,-2.87,-0.35,-21.8392,-48.0334,10.7549,1014.81
41414,0.13869,9.74175,1.24342,1.33,-2.52,-0.35,-21.5195,-47.9408,11.213,1014.82
41420,0.11956,9.82783,1.20995,1.61,-2.59,0.07,-21.9844,-47.139,11.1095,1014.82
41426,0.148254,9.73218,1.18125,1.61,-2.87,-0.77,-21.8101,-48.1567,10.8436,1014.82
41432,0.129125,9.78001,1.20516,1.54,-2.87,-1.19,-22.0426,-46.8615,12.2178,1014.82
41438,0.114778,9.76566,1.23386,1.19,-2.59,-0.35,-22.4203,-46.9231,11.6267,1014.87
41444,0.153037,9.76566,1.24342,1.54,-2.66,-0.63,-22.4784,-48.3418,11.7892,1014.87
41450,0.162602,9.77523,1.20516,1.4,-2.66,-1.4,-22.5946,-48.2801,12.4394,1014.87
41456,0.167384,9.79436,1.22908,1.47,-2.87,-0.84,-22.3041,-46.9231,11.8779,1014.8
41462,0.200861,9.76088,1.20516,1.12,-2.59,-1.12,-22.6527,-48.0025,12.2621,1014.8
41468,0.167384,9.76566,1.25299,1.61,-2.66,-1.47,-23.0014,-47.8792,10.2525,1014.86
41474,0.124342,9.80392,1.23864,1.05,-2.59,-0.98,-21.8392,-47.0465,11.4051,1014.86
41480,0.071736,9.73697,1.31038,1.47,-2.45,-1.12,-22.275,-46.9231,11.8779,1014.83
41486,0.0526064,9.73218,1.25777,1.47,-2.38,-1.12,-22.5656,-48.6193,11.1391,1014.83
41492,0.047824,9.72262,1.26734,1.19,-2.31,-0.49,-21.8101,-47.2315,11.1539,1014.86
41498,0.071736,9.7274,1.27212,1.33,-3.01,-0.49,-22.1878,-46.7998,10.9913,1014.86
41504,0.0573888,9.73218,1.2769,1.47,-3.01,-0.56,-22.1878,-48.1567,10.548,1014.86
41510,0.0765184,9.71784,1.27212,1.68,-2.73,-0.42,-22.0716,-47.6941,10.9765,1014.85
41516,0.0908656,9.78001,1.21951,1.33,-3.43,-0.28,-21.6358,-47.139,11.08,1014.85
41522,0.0813008,9.7274,1.27212,1.19,-3.15,0.28,-21.2871,-48.0642,10.0309,1014.8
41528,0.105213,9.76088,1.22908,1.82,-3.29,0.07,-21.5486,-46.9231,10.4003,1014.8
41534,0.11956,9.77044,1.20516,1.33,-2.94,-0.07,-21.4614,-46.5531,11.8188,1014.85
41540,0.114778,9.74175,1.25299,1.26,-3.01,0,-21.6939,-47.0465,11.671,1014.85
41546,0.162602,9.79436,1.22429,1.4,-2.87,0.07,-21.7229,-47.6324,10.548,1014.83
41552,0.167384,9.74653,1.23864,1.4,-2.94,-0.07,-21.4614,-46.7381,11.1834,1014.83
41558,0.153037,9.73218,1.22429,1.33,-2.66,-0.14,-21.8973,-46.2138,10.9618,1014.85
41564,0.129125,9.76566,1.22908,1.75,-2.8,-0.49,-21.1127,-47.0773,9.97175,1014.85
41570,0.105213,9.78957,1.23386,1.26,-2.73,-0.28,-21.8973,-47.4782,11.1686,1014.85
41576,0.148254,9.76566,1.22429,1.61,-3.15,-0.35,-21.4614,-46.2138,11.9222,1014.84
41582,0.114778,9.7274,1.26255,1.96,-3.01,-0.14,-21.4324,-47.5708,11.6267,1014.84
41588,0.0860832,9.74653,1.26255,1.61,-2.8,-0.14,-21.9554,-48.2801,11.937,1014.82
41594,0.109995,9.77523,1.28647,1.89,-3.01,0,-20.5316,-47.3549,10.947,1014.82
41600,0.143472,9.78479,1.25299,1.75,-3.08,-0.56,-21.6939,-47.2007,10.9027,1014.83
41606,0.133907,9.7561,1.20516,1.4,-2.52,-0.42,-21.6067,-47.8175,9.91265,1014.83
41612,0.0813008,9.77523,1.24821,1.75,-2.66,0.14,-21.4033,-47.0465,11.4051,1014.82
41618,0.095648,9.74653,1.25777,1.82,-2.94,0.35,-21.9844,-47.1082,10.2525,1014.82
41624,0.109995,9.73218,1.26255,1.54,-2.59,0.35,-22.1588,-48.4034,10.681,1014.82
41630,0.133907,9.73697,1.26255,2.03,-3.5,-0.21,-21.4905,-47.9717,11.5972,1014.83
41636,0.095648,9.76088,1.22429,1.96,-2.66,0.28,-21.3452,-46.7381,10.8731,1014.83
41642,0.105213,9.78479,1.22908,1.54,-3.01,0.49,-20.9965,-47.6633,11.0652,1014.83
41648,0.196078,9.74175,1.22908,1.54,-2.8,0.07,-21.781,-48.3726,11.0948,1014.83
41654,0.167384,9.75131,1.22908,1.61,-2.66,-0.28,-20.8803,-47.0465,12.1882,1014.82
41660,0.124342,9.76566,1.22429,1.82,-2.87,-0.14,-21.4033,-46.5222,10.1343,1014.82
41666,0.0908656,9.7274,1.24821,1.47,-3.08,-0.07,-21.5195,-48.8969,10.2377,1014.86
41672,0.129125,9.73697,1.25299,1.89,-3.22,-0.21,-22.1878,-47.5399,10.8731,1014.86
41678,0.167384,9.77044,1.23864,2.03,-2.31,0.07,-21.3742,-45.8437,11.5676,1014.86
41684,0.129125,9.7274,1.23386,1.75,-2.38,0,-22.1297,-47.8483,10.7401,1014.8
41690,0.095648,9.78001,1.23386,1.89,-2.38,0.14,-21.229,-48.3726,11.9666,1014.8
41696,0.133907,9.7561,1.2769,1.96,-2.8,-0.35,-21.8682,-46.6147,11.4346,1014.83
41702,0.124342,9.77523,1.22429,1.75,-2.8,-0.14,-21.9844,-47.6016,11.3755,1014.83
41708,0.124342,9.76566,1.26255,1.68,-2.94,-0.14,-22.8271,-48.7427,9.91265,1014.84
41714,0.071736,9.76088,1.24821,2.17,-3.22,0.14,-21.6648,-46.6456,10.4889,1014.84
41720,0.148254,9.73697,1.23864,1.33,-2.8,0,-22.0426,-46.7073,12.0257,1014.82
41726,0.095648,9.7561,1.25299,1.75,-3.01,0.21,-21.6067,-48.0025,10.2968,1014.82
41732,0.0860832,9.7561,1.25299,1.75,-3.08,0.07,-22.4493,-46.8306,9.73533,1014.84
41738,0.114778,9.73697,1.25777,2.03,-3.01,-0.14,-21.9844,-46.2447,11.0652,1014.84
41744,0.0908656,9.71784,1.28168,1.68,-3.08,0.28,-22.1588,-47.6016,9.83876,1014.84
41750,0.133907,9.73697,1.27212,2.1,-2.94,0.28,-22.1007,-47.6941,10.5628,1014.84
41756,0.114778,9.74653,1.22908,1.68,-2.45,0.35,-22.2169,-45.6895,11.9813,1014.84
41762,0.11956,9.7561,1.26734,2.03,-2.59,0.49,-22.3331,-47.4782,11.2573,1014.83
41768,0.148254,9.76088,1.23386,1.47,-2.66,0.28,-21.8973,-47.1082,10.9027,1014.83
41774,0.133907,9.73697,1.25777,1.82,-3.08,0.28,-21.4614,-45.6279,11.2573,1014.8
41780,0.157819,9.7561,1.21951,1.82,-3.15,0.21,-22.0716,-47.1082,10.3412,1014.8
41786,0.186514,9.76088,1.23386,1.96,-2.24,0.14,-21.5776,-47.5091,10.3116,1014.81
41792,0.133907,9.82783,1.25299,1.61,-2.73,-0.14,-21.4324,-47.2315,10.3559,1014.81
41798,0.148254,9.80392,1.21951,1.68,-2.31,-0.35,-21.7229,-46.2138,10.3559,1014.81
41804,0.114778,9.75131,1.2769,1.4,-2.31,0.07,-22.1007,-47.2624,8.9374,1014.8
41810,0.0765184,9.79436,1.28168,1.4,-2.59,0.14,-22.4203,-47.0773,9.82399,1014.8
41816,0.157819,9.75131,1.26255,1.4,-2.8,0.07,-21.229,-46.4914,11.2425,1014.83
41822,0.114778,9.76566,1.24342,1.54,-2.8,-0.35,-20.9093,-47.2932,9.88309,1014.83
41828,0.11956,9.73697,1.26734,1.75,-2.87,-0.28,-21.4905,-47.3549,10.1047,1014.85
41834,0.114778,9.69871,1.28647,1.54,-2.8,0,-21.6648,-47.0773,11.6858,1014.85
41840,0.095648,9.74175,1.26255,2.03,-2.73,0.42,-22.1297,-46.4914,10.7549,1014.84
41846,0.109995,9.74653,1.28168,1.54,-2.66,0.35,-21.8682,-47.7558,10.2377,1014.84
41852,0.105213,9.7561,1.2769,2.03,-2.73,0.28,-22.1007,-46.7381,10.3116,1014.84
41858,0.10043,9.7561,1.25777,1.47,-2.59,0.28,-21.3452,-46.7381,10.5924,1014.84
41864,0.109995,9.76566,1.23386,1.47,-2.87,0.28,-22.0135,-47.6633,10.5776,1014.84
41870,0.148254,9.76088,1.25299,2.03,-3.08,0.56,-21.6939,-47.1082,10.0161,1014.85
41876,0.153037,9.74175,1.24821,1.96,-2.87,0.35,-21.229,-46.8306,11.7006,1014.85
41882,0.13869,9.75131,1.25777,1.89,-2.87,0.49,-21.5486,-47.2624,11.4346,1014.83
41888,0.143472,9.75131,1.26734,1.89,-2.8,0.35,-21.4033,-48.095,10.7549,1014.83
41894,0.167384,9.78001,1.21951,1.89,-3.01,0.07,-21.229,-46.6147,11.4937,1014.86
41900,0.181731,9.77523,1.24821,1.68,-2.38,0.21,-21.4614,-47.4166,11.5824,1014.86
41906,0.162602,9.78001,1.25777,2.24,-2.1,-0.35,-21.7229,-48.0642,9.73533,1014.81
41912,0.124342,9.77044,1.26255,1.54,-2.45,-0.35,-21.9554,-47.0465,10.681,1014.81
41918,0.181731,9.76088,1.26255,2.1,-2.87,-0.28,-21.781,-47.2315,12.2178,1014.81
41924,0.143472,9.78957,1.28647,2.24,-2.66,-0.42,-22.246,-48.1876,12.1439,1014.81
41930,0.10043,9.76566,1.25299,1.96,-2.45,-0.35,-21.6939,-47.4474,11.3755,1014.81
41936,0.0813008,9.74175,1.28647,1.96,-2.94,-0.21,-21.6358,-46.0288,11.8779,1014.81
41942,0.0430416,9.7274,1.24342,2.1,-3.08,0.07,-21.3452,-47.3549,11.5085,1014.81
41948,0.11956,9.73697,1.26734,2.1,-2.59,-0.35,-21.9554,-47.725,11.3607,1014.8
41954,0.0813008,9.7561,1.23386,2.03,-2.94,0.42,-20.6769,-46.8923,11.2425,1014.8
41960,0.0860832,9.74175,1.22429,1.96,-3.01,0.63,-21.1999,-46.954,11.6858,1014.83
41966,0.10043,9.74653,1.24821,1.75,-2.94,0.35,-21.9554,-47.8792,10.7106,1014.83
41972,0.114778,9.76088,1.24342,1.4,-2.66,0.56,-21.6358,-46.8923,11.0948,1014.83
41978,0.105213,9.7561,1.25777,1.82,-3.01,-0.21,-21.1999,-46.5222,11.5233,1014.86
41984,0.129125,9.72262,1.23386,2.03,-2.8,0.28,-21.7229,-47.8792,10.415,1014.86
41990,0.133907,9.73697,1.24821,1.54,-3.22,0.98,-21.7229,-47.9408,11.1243,1014.85
41996,0.124342,9.74175,1.26255,1.89,-2.73,0.14,-22.0716,-45.8746,11.7006,1014.85
42002,0.153037,9.76566,1.28168,1.89,-2.59,-0.07,-21.4324,-46.9231,11.0652,1014.83
42008,0.133907,9.74175,1.28168,1.75,-2.59,0.07,-21.8101,-47.725,11.1982,1014.83
42014,0.109995,9.76088,1.28168,2.24,-3.57,0.35,-22.1007,-46.183,10.2082,1014.83
42020,0.148254,9.79914,1.25777,1.82,-2.45,0,-21.8101,-46.7689,10.7106,1014.83
42026,0.176949,9.78479,1.20038,2.24,-2.45,0.07,-21.6939,-48.2801,10.7992,1014.82
42032,0.11956,9.76088,1.27212,1.54,-2.59,-0.07,-21.6939,-46.7998,10.3559,1014.82
42038,0.11956,9.77044,1.24821,1.96,-2.87,-0.14,-22.1007,-46.4297,12.4099,1014.82
42044,0.114778,9.74653,1.24342,1.82,-3.08,-0.28,-22.4784,-47.4474,11.2277,1014.84
42050,0.114778,9.7561,1.3056,1.89,-2.94,-0.07,-22.769,-47.0773,10.814,1014.84
42056,0.0813008,9.75131,1.24821,2.17,-2.38,0.07,-22.3331,-46.1213,11.5972,1014.82
42062,0.109995,9.76088,1.25299,2.1,-2.94,0.14,-22.7399,-47.139,11.5528,1014.82
42068,0.095648,9.74175,1.2769,1.61,-3.29,-0.21,-22.4493,-47.6324,11.3755,1014.81
42074,0.114778,9.76088,1.25777,1.54,-2.59,0.07,-23.1177,-46.368,10.9765,1014.81
42080,0.133907,9.72262,1.26255,1.68,-3.15,0.63,-21.8392,-46.6147,11.0504,1014.83
42086,0.129125,9.7561,1.21951,1.61,-3.01,0.21,-22.3331,-47.6633,10.3559,1014.83
42092,0.124342,9.73697,1.24821,1.75,-3.01,0.21,-22.3041,-47.0465,11.08,1014.83
42098,0.124342,9.74175,1.26734,1.96,-2.73,0.35,-21.6358,-46.5839,11.2721,1014.84
42104,0.143472,9.76566,1.24342,2.24,-3.15,0.07,-21.9263,-47.324,10.7549,1014.84
42110,0.148254,9.7274,1.29125,2.31,-2.52,0.63,-22.0426,-47.5091,9.48413,1014.84
42116,0.11956,9.74653,1.28647,1.96,-2.73,0.49,-22.5656,-46.6147,12.2473,1014.84
42122,0.114778,9.8087,1.26255,1.82,-2.59,-0.07,-21.7229,-47.5399,11.5233,1014.81
42128,0.124342,9.78479,1.24821,1.89,-2.52,0.63,-22.0426,-47.7558,8.89307,1014.81
42134,0.105213,9.77523,1.25299,1.75,-3.01,0.42,-21.8101,-45.9671,10.7549,1014.8
42140,0.200861,9.76566,1.2769,2.03,-2.73,-0.07,-22.275,-46.8923,11.7154,1014.8
42146,0.105213,9.78001,1.22908,2.24,-2.94,-0.07,-22.3331,-48.2184,9.97175,1014.8
42152,0.105213,9.7561,1.24342,1.82,-3.01,0.07,-22.2169,-47.6941,10.947,1014.84
42158,0.105213,9.74175,1.23386,2.1,-2.73,0.84,-21.6939,-47.3549,11.4051,1014.84
42164,0.13869,9.75131,1.25777,1.89,-2.94,0.21,-21.8682,-47.6016,11.1539,1014.83
42170,0.167384,9.78001,1.21951,1.96,-2.73,0.14,-21.9263,-47.324,10.9322,1014.83
42176,0.172166,9.7561,1.24342,1.61,-3.01,0,-21.8682,-46.7689,11.804,1014.78
42182,0.13869,9.74175,1.22908,2.31,-2.66,0.42,-21.752,-47.5091,11.1982,1014.78
42188,0.13869,9.7561,1.21951,1.68,-2.59,0.21,-21.6358,-47.9408,11.804,1014.84
42194,0.114778,9.7561,1.23864,1.89,-3.08,0.56,-22.3041,-46.8923,11.9222,1014.84
42200,0.153037,9.75131,1.26255,2.24,-2.87,0.35,-21.5486,-46.8306,10.5628,1014.87
42206,0.11956,9.73218,1.23386,2.1,-2.59,0.42,-21.5486,-47.6324,11.08,1014.87
42212,0.124342,9.79436,1.25299,2.03,-3.01,0.35,-21.9263,-46.2447,10.1195,1014.87
42218,0.11956,9.74653,1.23864,1.75,-2.66,0.77,-21.8392,-46.4297,11.7892,1014.83
42224,0.153037,9.74175,1.20995,2.03,-3.01,0.35,-21.9263,-47.4166,9.33637,1014.83
42230,0.129125,9.77523,1.23864,1.82,-2.8,0.42,-22.4493,-46.6147,11.7892,1014.82
42236,0.13869,9.76088,1.22429,1.96,-3.08,0.35,-21.5486,-45.8129,11.1391,1014.82
42242,0.157819,9.76088,1.21473,1.75,-2.45,0.49,-21.229,-47.7558,9.98653,1014.81
42248,0.133907,9.76088,1.25299,1.68,-2.87,0.42,-21.752,-47.2315,9.9422,1014.81
42254,0.143472,9.7561,1.24342,2.1,-2.66,0.35,-21.6358,-46.7381,12.0552,1014.84
42260,0.148254,9.76088,1.22429,1.89,-2.73,0.35,-22.1878,-46.5839,11.6415,1014.84
42266,0.205643,9.76088,1.21473,1.82,-3.08,-0.07,-21.781,-47.2315,10.9913,1014.84
42272,0.167384,9.79436,1.23386,2.24,-3.29,0,-21.752,-46.4297,11.4346,1014.85
42278,0.13869,9.78479,1.23864,1.89,-2.38,0.07,-20.9384,-46.0288,11.5528,1014.85
42284,0.10043,9.77523,1.23864,1.33,-2.45,0.21,-22.1007,-47.6324,10.9913,1014.84
42290,0.11956,9.78001,1.25299,1.96,-3.22,0.35,-22.4493,-46.7073,11.213,1014.84
42296,0.11956,9.74175,1.24342,2.38,-3.22,0,-21.8973,-46.2447,11.4789,1014.84
42302,0.114778,9.73697,1.23386,2.31,-3.01,0.14,-21.0546,-47.6016,11.1391,1014.84
42308,0.114778,9.75131,1.23386,2.1,-2.94,0.21,-21.752,-48.0025,11.3164,1014.82
42314,0.13869,9.76088,1.22908,1.89,-2.87,0.35,-22.1007,-46.6764,11.5528,1014.82
42320,0.162602,9.76566,1.21473,1.89,-3.36,0.49,-21.781,-47.0773,11.4937,1014.82
42326,0.148254,9.77044,1.25777,2.45,-3.29,0.7,-22.1297,-48.2492,10.5628,1014.83
42332,0.114778,9.74653,1.22908,1.89,-3.08,0.42,-22.3041,-47.0773,12.0257,1014.83
42338,0.167384,9.74175,1.22429,1.68,-2.59,0.21,-22.0135,-46.4297,12.0996,1014.82
42344,0.181731,9.75131,1.23386,2.24,-3.15,0,-21.0546,-47.1698,10.7253,1014.82
42350,0.162602,9.75131,1.21951,1.96,-2.8,1.12,-22.3622,-47.9717,11.8188,1014.83
42356,0.162602,9.77523,1.24342,1.68,-2.87,0.63,-20.8803,-46.6147,11.2277,1014.83
42362,0.153037,9.76566,1.22429,1.96,-3.22,-0.07,-21.8973,-47.8483,11.7301,1014.85
42368,0.205643,9.78479,1.18604,1.96,-3.01,0.14,-22.1297,-47.1698,10.9913,1014.85
42374,0.114778,9.7274,1.31994,2.17,-2.38,0.7,-21.8101,-46.3989,13.1339,1014.82
42380,0.10043,9.76566,1.22429,2.1,-2.94,0.21,-21.0256,-46.5222,11.5528,1014.82
42386,0.210426,9.78957,1.12386,1.75,-2.87,0.14,-22.3622,-48.8044,11.0504,1014.82
42392,0.157819,9.76566,1.21473,1.96,-2.52,-0.49,-21.6939,-47.8483,11.2277,1014.83
42398,0.11956,9.76566,1.22908,2.1,-2.87,-0.14,-22.1297,-47.4166,11.8188,1014.83
42404,0.095648,9.7274,1.29603,1.68,-2.38,-0.07,-21.8101,-47.6633,10.2525,1014.86
42410,0.124342,9.7274,1.26255,1.61,-3.29,0.07,-21.9554,-47.7558,10.3116,1014.86
42416,0.133907,9.77523,1.22908,2.03,-3.29,0.35,-21.3742,-46.9231,12.794,1014.83
42422,0.129125,9.7561,1.19082,1.96,-2.94,0.14,-23.3501,-48.2184,10.4003,1014.83
42428,0.114778,9.7274,1.22429,1.82,-3.08,0.56,-21.752,-47.6016,9.61712,1014.86
42434,0.124342,9.7561,1.24821,1.82,-2.59,0.14,-21.4033,-46.5222,12.336,1014.86
42440,0.133907,9.7274,1.20038,1.89,-3.22,0.42,-21.1709,-47.4782,10.9174,1014.86
42446,0.153037,9.73697,1.23386,2.03,-2.73,-0.07,-21.3161,-47.9717,10.8731,1014.82
42452,0.157819,9.74653,1.20516,1.89,-2.94,0.56,-21.4033,-47.5399,11.1095,1014.82
42458,0.153037,9.72262,1.22908,2.03,-2.59,0.84,-21.5776,-46.2138,13.0157,1014.83
42464,0.157819,9.78001,1.22429,2.03,-3.15,0.21,-21.9263,-47.8792,11.1982,1014.83
42470,0.109995,9.74175,1.21473,2.03,-3.43,0.21,-21.1127,-47.5091,11.6563,1014.88
42476,0.133907,9.7561,1.21951,1.82,-2.8,0.7,-21.8973,-46.9848,12.8384,1014.88
42482,0.129125,9.76088,1.22908,2.1,-2.94,0.91,-21.5195,-47.0157,11.4198,1014.84
42488,0.181731,9.79436,1.22429,1.82,-3.15,0.14,-22.1878,-48.4343,11.6858,1014.84
42494,0.248685,9.78479,1.20516,2.45,-3.01,0.21,-21.8101,-47.4166,11.5676,1014.84
42500,0.157819,9.80392,1.20995,2.24,-2.59,0.14,-22.1588,-47.6941,11.3164,1014.83
42506,0.210426,9.81349,1.15256,1.68,-2.8,-0.56,-21.0837,-47.8792,11.8631,1014.83
42512,0.13869,9.78957,1.18604,1.68,-2.73,-0.07,-21.7229,-47.2315,12.1291,1014.86
42518,0.0860832,9.78957,1.22429,1.47,-2.87,-0.77,-21.3161,-46.4914,12.602,1014.86
42524,0.157819,9.7274,1.23386,1.75,-2.66,0.35,-22.1297,-47.4782,10.7697,1014.83
42530,0.153037,9.78001,1.23864,2.24,-3.57,0.35,-21.8973,-47.0157,10.548,1014.83
42536,0.13869,9.75131,1.21473,2.03,-2.94,-0.14,-21.7229,-45.8129,11.2277,1014.82
42542,0.133907,9.76088,1.22908,1.96,-3.08,-0.35,-21.8682,-47.1698,11.5676,1014.82
42548,0.176949,9.76566,1.22429,1.61,-3.15,0.42,-21.5195,-47.6324,10.8731,1014.85
42554,0.148254,9.76088,1.23386,1.75,-2.94,0.56,-21.5195,-46.3989,12.0552,1014.85
42560,0.157819,9.78001,1.20516,1.75,-2.66,0.07,-22.3041,-47.2315,12.3064,1014.85
42566,0.133907,9.7274,1.21473,1.89,-3.01,0.35,-21.9554,-47.8792,12.6167,1014.86
42572,0.129125,9.7274,1.22429,2.17,-3.15,0.28,-22.3912,-46.954,12.469,1014.86
42578,0.148254,9.76088,1.24342,1.96,-3.15,0.35,-22.1297,-46.6764,11.9961,1014.85
42584,0.162602,9.76088,1.22908,1.82,-3.43,0.07,-21.9844,-47.4782,11.08,1014.85
42590,0.181731,9.74175,1.23386,2.03,-3.29,0.28,-22.2169,-47.2315,11.7154,1014.86
42596,0.167384,9.77523,1.17647,2.17,-3.08,0.49,-22.0426,-46.3372,11.346,1014.86
42602,0.167384,9.75131,1.21951,1.68,-2.45,-0.14,-21.781,-47.5091,10.9765,1014.79
42608,0.162602,9.77044,1.18125,1.75,-3.15,0.21,-21.9263,-48.1567,10.7992,1014.79
42614,0.191296,9.76088,1.18125,1.33,-2.87,0.14,-21.7229,-46.2138,12.6758,1014.79
42620,0.186514,9.78957,1.24342,2.1,-2.87,-0.42,-21.7229,-47.2007,12.1882,1014.8
42626,0.157819,9.73697,1.24342,1.75,-2.66,-0.63,-22.1007,-47.3549,11.5528,1014.8
42632,0.191296,9.79914,1.23386,1.68,-2.8,-0.42,-22.1007,-46.8306,11.8484,1014.83
42638,0.162602,9.78001,1.22908,1.68,-2.73,0.28,-22.275,-46.6764,11.7006,1014.83
42644,0.143472,9.78479,1.20516,1.89,-2.73,-0.28,-22.4203,-47.2007,11.4789,1014.82
42650,0.114778,9.7561,1.23864,1.61,-2.73,-0.42,-22.246,-47.0773,11.7301,1014.82
42656,0.143472,9.71784,1.2769,2.17,-2.73,-0.14,-22.1297,-45.7512,12.6611,1014.83
42662,0.157819,9.76566,1.24342,1.75,-2.8,-0.35,-21.3742,-47.4474,12.2916,1014.83
42668,0.176949,9.75131,1.21473,2.03,-3.22,0,-21.4614,-47.0773,10.8288,1014.81
42674,0.129125,9.75131,1.20995,2.03,-2.94,0.42,-22.2169,-46.1521,12.8384,1014.81
42680,0.129125,9.74175,1.24821,1.68,-3.22,-0.28,-21.6358,-46.0905,12.1882,1014.81
42686,0.148254,9.75131,1.21951,1.75,-3.22,0.42,-22.5656,-47.3857,11.3903,1014.84
42692,0.148254,9.73697,1.20516,1.75,-3.08,0.7,-21.8973,-46.4297,12.4542,1014.84
42698,0.186514,9.76088,1.23386,1.61,-2.87,0.56,-21.8682,-46.4297,12.7054,1014.82
42704,0.153037,9.7274,1.21473,2.17,-3.01,0.28,-21.5486,-46.9231,10.7992,1014.82
42710,0.157819,9.76566,1.1956,1.89,-2.94,0.42,-22.4784,-47.0465,10.4889,1014.81
42716,0.181731,9.7561,1.21951,1.82,-3.01,0.07,-21.2871,-45.7204,12.3508,1014.81
42722,0.186514,9.77044,1.23386,1.82,-3.01,0.63,-21.7229,-47.5091,11.5085,1014.81
42728,0.176949,9.77044,1.22908,1.54,-2.38,-0.14,-22.3912,-48.3418,9.91265,1014.81
42734,0.210426,9.78001,1.22908,1.68,-2.52,0.14,-22.0135,-46.9231,11.9961,1014.81
42740,0.215208,9.77523,1.22908,2.17,-3.15,0.14,-21.1418,-46.6456,11.1095,1014.86
42746,0.215208,9.80392,1.18604,1.61,-2.59,0,-21.6648,-48.0025,10.5628,1014.86
42752,0.176949,9.78001,1.22908,1.33,-2.1,-0.42,-21.9263,-46.7073,13.0452,1014.85
42758,0.109995,9.78001,1.20038,1.33,-2.66,-0.49,-21.6067,-46.4914,12.3803,1014.85
42764,0.157819,9.75131,1.23386,1.68,-3.08,0.14,-21.8101,-47.8483,12.0848,1014.82
42770,0.172166,9.7561,1.22429,1.54,-2.94,-0.07,-22.3622,-46.8615,11.2277,1014.82
42776,0.11956,9.75131,1.24821,1.96,-2.66,-0.63,-20.9675,-46.4914,11.8484,1014.83
42782,0.0908656,9.73218,1.23386,1.61,-2.94,-0.49,-21.5195,-47.324,10.5185,1014.83
42788,0.105213,9.74175,1.24342,1.68,-3.08,0,-21.8973,-47.9408,10.8731,1014.83
42794,0.143472,9.71784,1.25299,1.54,-2.94,-0.28,-22.6527,-46.368,11.8484,1014.86
42800,0.133907,9.75131,1.1956,1.47,-2.94,0.21,-21.0256,-47.5091,12.3655,1014.86
42806,0.13869,9.73697,1.20516,1.26,-2.66,0.77,-21.3452,-48.1259,12.0257,1014.84
42812,0.114778,9.76088,1.23864,1.61,-3.36,0.21,-21.258,-46.1213,12.0404,1014.84
42818,0.167384,9.74175,1.21473,1.61,-3.29,-0.07,-21.6067,-46.6764,12.8236,1014.86
42824,0.143472,9.76566,1.22429,1.61,-2.38,0.49,-21.4324,-48.4343,12.5724,1014.86
42830,0.143472,9.73218,1.25777,2.17,-3.08,0.49,-21.8392,-47.2007,10.0752,1014.84
42836,0.143472,9.7561,1.23386,1.82,-2.8,-0.07,-21.4033,-45.9054,13.3851,1014.84
42842,0.148254,9.74175,1.21473,1.89,-2.45,0.35,-21.9844,-48.1567,11.6563,1014.84
42848,0.162602,9.78479,1.23386,1.75,-2.45,0.07,-22.1588,-47.324,12.3655,1014.84
42854,0.181731,9.76566,1.22908,2.03,-2.73,0.21,-21.3742,-46.8615,12.469,1014.84
42860,0.148254,9.78001,1.22429,2.03,-3.01,0.49,-21.6067,-46.9848,12.0848,1014.81
42866,0.176949,9.76566,1.25299,1.75,-2.8,0.35,-21.4905,-47.6941,11.3164,1014.81
42872,0.186514,9.75131,1.21951,1.89,-3.01,0.14,-21.1127,-47.2932,11.3164,1014.82
42878,0.162602,9.77044,1.18604,1.96,-2.87,-0.14,-21.6648,-46.7689,12.3951,1014.82
42884,0.157819,9.76088,1.21951,1.75,-3.01,-0.28,-21.4033,-48.1259,12.0109,1014.85
42890,0.162602,9.79914,1.23386,1.54,-2.73,-0.07,-21.5776,-47.2315,10.4446,1014.85
42896,0.172166,9.77523,1.22908,1.68,-2.94,0.07,-20.7641,-46.7689,12.2325,1014.83
42902,0.157819,9.74653,1.23864,1.33,-2.87,0,-21.9554,-47.6016,11.8779,1014.83
42908,0.13869,9.74653,1.24342,1.89,-3.29,-0.14,-21.6358,-48.0334,11.1982,1014.83
42914,0.129125,9.73697,1.21951,1.82,-3.01,0.49,-22.3912,-46.4297,11.3607,1014.85
42920,0.157819,9.74175,1.22908,1.82,-2.73,0.49,-21.6067,-46.9848,10.9913,1014.85
42926,0.153037,9.74653,1.25299,2.03,-3.01,0.28,-22.3622,-48.8352,11.3312,1014.78
42932,0.176949,9.74175,1.24342,1.89,-2.94,0.14,-22.3331,-47.0157,9.26248,1014.78
42938,0.157819,9.74653,1.20038,1.82,-2.59,0.49,-21.8101,-46.4605,11.4051,1014.81
42944,0.162602,9.75131,1.22429,1.96,-2.73,0.56,-21.752,-48.2184,11.4789,1014.81
42950,0.167384,9.78001,1.20516,2.03,-2.73,0,-22.2169,-47.3857,10.6367,1014.83
42956,0.167384,9.78479,1.26734,2.03,-2.8,0.14,-22.7109,-47.0157,11.0357,1014.83
42962,0.176949,9.74653,1.21951,2.1,-2.66,0.49,-22.1588,-47.324,11.8779,1014.83
42968,0.153037,9.76566,1.25299,1.96,-3.08,0.21,-22.1588,-47.4474,12.0404,1014.83
42974,0.129125,9.76566,1.23864,1.68,-3.08,0.28,-22.1007,-46.3989,11.671,1014.83
42980,0.172166,9.73697,1.25777,1.68,-3.08,0.49,-21.5776,-47.5708,11.8779,1014.84
42986,0.23912,9.8087,1.22429,2.17,-2.59,-0.07,-22.0716,-47.6016,10.5037,1014.84
42992,0.200861,9.77044,1.21951,1.68,-2.87,-0.21,-21.4614,-47.2624,11.5972,1014.84
42998,0.133907,9.75131,1.24821,1.54,-2.38,-0.07,-21.781,-46.4605,12.07,1014.84
43004,0.148254,9.77523,1.22429,1.33,-2.94,0.14,-22.1588,-47.1698,11.6267,1014.8
43010,0.21999,9.81349,1.18604,1.75,-3.08,-0.28,-22.1588,-47.0465,10.5185,1014.8
43016,0.224773,9.82783,1.22908,1.75,-2.8,-0.56,-21.7229,-47.0157,11.9813,1014.83
43022,0.157819,9.75131,1.23864,1.68,-2.38,-0.35,-23.0014,-47.7558,11.8336,1014.83
43028,0.0813008,9.74653,1.26734,1.68,-2.59,-0.35,-22.4203,-48.3109,10.1047,1014.83
43034,0.10043,9.73697,1.21473,1.82,-3.15,-0.21,-22.2169,-46.8306,10.9174,1014.88
43040,0.162602,9.77523,1.22429,2.1,-3.43,-0.63,-22.1588,-46.9848,10.3707,1014.88
43046,0.181731,9.7561,1.24342,1.47,-2.8,0.28,-22.2169,-48.6193,10.5037,1014.84
43052,0.109995,9.72262,1.23864,1.75,-3.01,0,-21.6358,-47.5708,11.1391,1014.84
43058,0.114778,9.76088,1.23386,1.82,-2.8,-0.49,-21.9554,-46.2447,12.0848,1014.84
43064,0.157819,9.7561,1.22908,1.96,-2.94,-0.14,-21.8101,-48.3726,11.0948,1014.84
43070,0.148254,9.76566,1.21951,1.12,-2.8,-0.49,-21.7229,-47.324,11.9813,1014.81
43076,0.167384,9.7561,1.20038,1.96,-3.08,0.07,-22.4203,-45.9671,11.804,1014.81
43082,0.167384,9.78001,1.21473,1.26,-3.15,0.63,-22.4203,-46.8923,11.5824,1014.81
43088,0.162602,9.76088,1.24342,1.75,-3.15,0.21,-22.5365,-47.1082,11.1243,1014.84
43094,0.176949,9.77044,1.20038,1.54,-3.08,-0.35,-21.5486,-46.183,12.3064,1014.84
43100,0.129125,9.79914,1.1956,1.68,-2.87,0.21,-21.3742,-46.5531,11.937,1014.82
43106,0.172166,9.76566,1.22908,1.75,-3.01,0.21,-22.4784,-48.095,9.98653,1014.82
43112,0.172166,9.73697,1.25777,1.33,-2.8,-0.49,-21.781,-46.5531,11.8779,1014.82
43118,0.148254,9.75131,1.20516,1.75,-2.66,0.35,-21.6358,-46.8306,11.2277,1014.82
43124,0.148254,9.78001,1.24342,1.47,-2.94,0.35,-22.7109,-48.0025,11.1686,1014.81
43130,0.162602,9.76566,1.24821,1.61,-2.87,0.07,-21.5776,-47.4166,11.1982,1014.81
43136,0.167384,9.74175,1.20995,1.75,-2.66,0.21,-22.3041,-46.7998,12.1143,1014.81
43142,0.205643,9.76088,1.20516,2.17,-2.45,0,-21.8682,-47.4782,11.8336,1014.81
43148,0.133907,9.76566,1.20516,1.82,-2.45,-0.56,-22.3331,-47.4474,11.8927,1014.81
43154,0.133907,9.75131,1.23386,1.68,-3.22,0.14,-21.8392,-46.9848,12.2473,1014.85
43160,0.148254,9.77523,1.22429,1.82,-3.22,0.14,-21.3742,-46.954,11.7597,1014.85
43166,0.186514,9.76566,1.22908,1.26,-2.87,-0.21,-21.3742,-48.0642,10.3707,1014.85
43172,0.172166,9.77523,1.23386,1.75,-2.59,-0.63,-22.0135,-46.368,11.8336,1014.85
43178,0.176949,9.76088,1.22908,1.47,-2.87,0.56,-21.2871,-46.5839,11.4789,1014.82
43184,0.153037,9.75131,1.26255,1.68,-3.08,-0.21,-21.6358,-47.5399,11.3164,1014.82
43190,0.133907,9.73697,1.21473,1.89,-2.87,-0.49,-21.8682,-46.9231,11.1391,1014.83
43196,0.148254,9.71305,1.22908,1.47,-2.31,-0.14,-21.1418,-45.9671,12.5576,1014.83
43202,0.181731,9.77044,1.22429,1.82,-3.01,0.21,-21.752,-47.6633,12.2325,1014.83
43208,0.153037,9.74175,1.21473,1.75,-2.8,0,-21.9844,-47.6633,11.8484,1014.82
43214,0.13869,9.76088,1.20995,2.24,-3.01,0.7,-21.9554,-46.1521,12.4542,1014.82
43220,0.167384,9.77523,1.20038,1.96,-2.73,-0.28,-21.8682,-46.6147,11.6119,1014.82
43226,0.148254,9.76566,1.22908,1.54,-3.22,-0.14,-22.8852,-47.5708,12.7497,1014.82
43232,0.148254,9.7561,1.21473,1.68,-3.22,0.21,-22.1588,-46.5839,10.5185,1014.79
43238,0.157819,9.78479,1.20038,2.17,-3.01,-0.21,-22.1588,-45.7821,10.8583,1014.79
43244,0.181731,9.78479,1.20516,1.47,-3.15,-0.49,-21.7229,-48.4034,10.1638,1014.83
43250,0.243902,9.78957,1.22908,1.68,-3.08,-0.35,-21.8392,-47.3549,10.9027,1014.83
43256,0.25825,9.80392,1.19082,1.68,-2.31,-0.42,-21.5776,-46.7073,12.3951,1014.83
43262,0.148254,9.81349,1.24821,1.61,-2.17,-0.42,-21.9844,-48.0334,11.4494,1014.84
43268,0.109995,9.82305,1.16691,1.61,-2.38,-0.63,-22.5946,-47.5091,10.6662,1014.84
43274,0.10043,9.76088,1.20995,1.47,-2.8,-0.28,-22.5365,-46.8306,12.2621,1014.83
43280,0.095648,9.70827,1.25299,1.61,-2.87,-0.84,-21.4905,-46.5839,11.1982,1014.83
43286,0.143472,9.7274,1.24342,2.24,-3.08,-0.42,-22.246,-47.8792,12.0109,1014.82
43292,0.114778,9.73697,1.20516,1.68,-2.59,-0.63,-21.6648,-46.7073,12.5724,1014.82
43298,0.109995,9.75131,1.18125,1.75,-2.73,-0.21,-21.3161,-47.1082,12.07,1014.83
43304,0.13869,9.73218,1.22908,1.82,-3.15,-0.35,-21.8973,-47.3857,10.7549,1014.83
43310,0.11956,9.7561,1.22429,1.54,-3.15,0.07,-21.5486,-47.1082,11.9222,1014.85
43316,0.11956,9.73697,1.25299,1.68,-2.87,-0.14,-21.2871,-46.6764,12.0109,1014.85
43322,0.153037,9.74175,1.24342,1.47,-2.66,-0.14,-22.3041,-47.7558,12.1587,1014.85
43328,0.129125,9.7274,1.22429,1.96,-2.94,0.42,-22.3041,-47.8175,11.5233,1014.86
43334,0.196078,9.74653,1.24821,1.54,-3.22,0,-21.8682,-47.2932,12.8236,1014.86
43340,0.157819,9.73697,1.22908,1.82,-3.01,0.07,-21.6648,-47.4474,12.6906,1014.82
43346,0.157819,9.76566,1.21951,2.1,-3.22,-0.42,-22.3331,-47.8792,11.6858,1014.82
43352,0.167384,9.76088,1.21473,1.19,-2.66,0.21,-21.0256,-46.7073,11.937,1014.82
43358,0.191296,9.78957,1.24342,1.4,-2.8,-0.14,-21.9263,-46.2755,12.1882,1014.82
43364,0.210426,9.78001,1.25299,1.82,-2.59,-0.56,-22.1878,-47.5399,10.7549,1014.84
43370,0.143472,9.77044,1.19082,1.54,-2.73,-0.35,-21.8682,-48.2184,11.6563,1014.84
43376,0.162602,9.78957,1.19082,1.4,-2.94,-0.42,-21.6939,-46.5839,11.8188,1014.84
43382,0.196078,9.78479,1.22429,1.47,-2.8,-0.98,-21.6648,-47.9717,11.4789,1014.84
43388,0.172166,9.77523,1.24821,1.89,-2.66,-0.77,-21.9263,-47.6016,11.213,1014.84
43394,0.143472,9.77523,1.22908,1.47,-3.08,-0.56,-21.6939,-46.954,12.6315,1014.86
43400,0.13869,9.76566,1.21473,1.12,-2.87,-0.42,-22.3041,-47.2007,10.5924,1014.86
43406,0.114778,9.76088,1.21473,1.4,-3.08,-0.77,-21.6648,-47.5708,10.415,1014.84
43412,0.143472,9.7561,1.22908,1.33,-2.38,-0.28,-21.3161,-46.6456,11.3016,1014.84
43418,0.129125,9.74653,1.24821,1.47,-2.73,-0.77,-22.7399,-46.8615,12.0257,1014.82
43424,0.129125,9.79436,1.20995,1.47,-3.15,-0.35,-21.4905,-47.9408,11.671,1014.82
43430,0.162602,9.67001,1.29603,1.68,-2.87,-0.56,-22.1007,-47.7866,10.9913,1014.82
43436,0.0621712,9.76088,1.26255,1.75,-2.73,-0.35,-22.1588,-46.2138,11.346,1014.83
43442,0.181731,9.73218,1.25299,1.75,-2.94,-0.07,-22.3041,-47.8792,11.6267,1014.83
43448,0.153037,9.78001,1.22429,1.96,-2.94,0.07,-21.9554,-48.4034,9.54324,1014.82
43454,0.133907,9.7561,1.23386,0.98,-2.52,0.35,-22.2169,-46.2755,11.8188,1014.82
43460,0.162602,9.7274,1.22429,1.75,-2.52,-0.07,-21.752,-47.0157,11.4494,1014.84
43466,0.176949,9.74653,1.20995,1.54,-3.22,-0.84,-21.229,-48.2184,11.9075,1014.84
43472,0.181731,9.78479,1.23386,1.61,-2.8,-0.21,-21.6067,-46.8306,13.0009,1014.82
43478,0.205643,9.76566,1.23386,1.54,-2.87,-0.28,-21.6939,-47.1082,12.7645,1014.82
43484,0.186514,9.79914,1.22908,1.4,-2.8,-0.35,-22.3912,-48.1876,11.6119,1014.86
43490,0.11956,9.77044,1.24821,1.54,-3.08,-0.49,-22.1007,-47.4474,12.0404,1014.86
43496,0.11956,9.77523,1.23864,1.47,-2.8,-1.05,-21.8973,-47.3549,12.7645,1014.86
43502,0.181731,9.8087,1.21951,1.12,-2.8,-0.7,-21.7229,-47.725,11.9961,1014.84
43508,0.157819,9.77523,1.24342,1.33,-2.66,-0.77,-21.8973,-48.4034,12.794,1014.84
43514,0.095648,9.74175,1.21951,1.33,-2.73,-0.84,-22.5365,-47.4474,10.9618,1014.82
43520,0.0813008,9.78001,1.28647,1.61,-3.29,-0.91,-22.0135,-47.8175,11.9518,1014.82
43526,0.0908656,9.73697,1.25777,1.61,-2.87,-0.56,-22.3912,-48.2492,11.4937,1014.83
43532,0.0813008,9.77523,1.20995,1.68,-3.15,-0.63,-21.6939,-47.1082,11.8779,1014.83
43538,0.114778,9.71305,1.26734,1.33,-2.03,0,-21.9844,-47.2932,10.7697,1014.81
43544,0.071736,9.71305,1.3056,1.75,-2.8,-0.07,-21.9844,-47.8483,11.8779,1014.81
43550,0.148254,9.68914,1.24342,1.47,-3.15,-0.07,-21.9844,-47.7866,12.6463,1014.81
43556,0.143472,9.70827,1.25777,1.68,-2.94,-0.14,-21.6648,-46.7998,11.3312,1014.83
43562,0.133907,9.73218,1.21951,1.75,-3.01,0.35,-21.4033,-48.0642,10.9174,1014.83
43568,0.172166,9.76088,1.23386,2.1,-2.59,0.42,-22.9724,-47.9408,10.0752,1014.84
43574,0.143472,9.73697,1.25299,1.75,-2.94,-0.49,-21.5195,-46.7073,11.0948,1014.84
43580,0.148254,9.77523,1.22429,1.61,-2.66,-0.21,-22.246,-47.5091,11.9075,1014.85
43586,0.153037,9.79914,1.22908,1.68,-2.87,0.07,-22.1007,-47.7558,10.6662,1014.85
43592,0.162602,9.79914,1.22908,1.82,-2.59,-0.07,-21.8682,-46.7689,12.3064,1014.86
43598,0.133907,9.7561,1.22429,1.54,-2.94,-0.42,-21.8101,-46.4914,10.9765,1014.86
43604,0.114778,9.71784,1.24821,1.54,-2.03,-0.14,-21.781,-47.6324,10.3855,1014.86
43610,0.13869,9.7561,1.26255,2.03,-3.01,-0.14,-22.1588,-47.3549,11.3755,1014.85
43616,0.13869,9.78479,1.23864,1.47,-3.08,-0.49,-21.1999,-46.368,11.8484,1014.85
43622,0.167384,9.76088,1.22908,1.75,-2.87,0.14,-21.5195,-47.324,10.8731,1014.83
43628,0.133907,9.77523,1.23864,1.89,-3.08,-0.21,-21.6358,-47.2932,11.4937,1014.83
43634,0.105213,9.7274,1.24821,1.61,-3.01,-0.07,-22.1588,-46.4914,12.1587,1014.82
43640,0.13869,9.74653,1.21473,1.75,-2.94,0.35,-21.8682,-48.0334,11.5233,1014.82
43646,0.114778,9.73697,1.26734,1.75,-2.87,0.07,-22.0716,-47.9717,11.7449,1014.8
43652,0.133907,9.76566,1.23864,2.03,-3.43,-0.21,-22.798,-47.4166,10.5628,1014.8
43658,0.176949,9.73697,1.23386,1.68,-3.15,0,-21.9844,-47.1082,12.3951,1014.84
43664,0.157819,9.75131,1.19082,1.89,-2.87,-0.07,-21.6939,-47.6941,11.2277,1014.84
43670,0.157819,9.7561,1.22908,1.61,-2.66,0.21,-21.6067,-47.9408,11.1539,1014.84
43676,0.157819,9.74653,1.22908,1.82,-2.8,0.14,-21.2871,-47.1698,11.9666,1014.83
43682,0.172166,9.78957,1.21951,2.03,-2.66,0.49,-21.7229,-48.095,10.9027,1014.83
43688,0.167384,9.78957,1.18604,1.26,-2.73,0,-22.4784,-47.7866,10.2525,1014.83
43694,0.200861,9.78479,1.24342,1.89,-2.52,0,-22.3041,-46.6147,12.0848,1014.83
43700,0.167384,9.74653,1.24821,1.89,-2.45,-0.56,-21.8392,-47.6324,10.3116,1014.83
43706,0.124342,9.76566,1.20995,1.68,-3.01,0,-22.0716,-48.1259,10.6958,1014.83
43712,0.167384,9.76566,1.21473,2.1,-2.94,-0.14,-22.275,-47.0157,11.5824,1014.84
43718,0.153037,9.77523,1.22429,1.89,-2.31,-0.21,-21.7229,-46.2755,10.6662,1014.84
43724,0.105213,9.75131,1.25299,1.54,-2.73,-0.21,-21.6939,-47.1698,10.6071,1014.84
43730,0.0860832,9.73697,1.24342,2.03,-2.94,-0.14,-22.2169,-46.9848,11.4789,1014.83
43736,0.0860832,9.75131,1.22908,1.68,-2.73,0.21,-21.752,-47.1698,11.7154,1014.83
43742,0.133907,9.73697,1.23864,1.26,-3.29,0.14,-22.3912,-48.4651,11.7154,1014.83
43748,0.105213,9.74175,1.21473,2.03,-3.29,-0.21,-22.4784,-47.8175,11.213,1014.83
43754,0.148254,9.76088,1.21951,1.61,-3.29,0.35,-22.8852,-46.954,11.2277,1014.84
43760,0.114778,9.76566,1.20995,1.4,-2.73,0.49,-22.246,-47.4782,11.1391,1014.84
43766,0.105213,9.73218,1.24342,1.68,-3.29,-0.07,-22.275,-48.8044,9.70578,1014.81
43772,0.13869,9.77523,1.21951,1.4,-3.36,0,-21.229,-47.139,12.5133,1014.81
43778,0.157819,9.7561,1.23386,1.96,-3.29,0,-21.8973,-47.0157,12.0109,1014.81
43784,0.157819,9.79436,1.26734,1.75,-2.73,0.14,-21.781,-48.2492,11.3312,1014.85
43790,0.153037,9.76088,1.25777,1.96,-2.59,0.07,-21.5486,-47.1698,11.0948,1014.85
43796,0.172166,9.77523,1.23386,1.89,-3.01,0.14,-21.5776,-46.4297,10.6958,1014.84
43802,0.200861,9.7561,1.24821,1.82,-2.94,-0.28,-22.0135,-46.6456,11.3016,1014.84
43808,0.124342,9.77044,1.23864,1.82,-2.8,-0.21,-22.0135,-47.3857,10.9174,1014.84
43814,0.124342,9.76566,1.26734,1.89,-2.87,-0.28,-22.1588,-46.1521,10.3116,1014.84
43820,0.11956,9.76088,1.24342,2.03,-2.59,-0.35,-21.8682,-47.7558,11.346,1014.85
43826,0.153037,9.78957,1.21473,1.47,-2.45,-0.56,-22.3331,-47.8792,10.2673,1014.85
43832,0.10043,9.7561,1.20516,1.61,-2.94,-0.07,-21.781,-46.7998,10.5037,1014.8
43838,0.095648,9.74653,1.21951,1.47,-2.87,-0.07,-21.6939,-46.7381,11.3607,1014.8
43844,0.109995,9.77044,1.25777,2.03,-2.94,-0.35,-21.8392,-47.6633,10.6071,1014.8
43850,0.124342,9.74653,1.23386,1.75,-2.94,-0.56,-21.6358,-46.9231,11.3312,1014.84
43856,0.162602,9.77523,1.25299,1.75,-2.66,0.49,-22.6818,-47.1698,11.6415,1014.84
43862,0.105213,9.76566,1.23864,1.68,-3.15,0.21,-22.4203,-48.095,10.6958,1014.85
43868,0.143472,9.77523,1.22908,1.89,-3.01,-0.63,-22.3331,-47.6324,11.2425,1014.85
43874,0.157819,9.74175,1.24821,1.33,-3.15,0.14,-21.4033,-46.9231,10.7845,1014.85
43880,0.176949,9.74653,1.25777,2.03,-2.87,-0.28,-22.3622,-47.2007,11.5085,1014.85
43886,0.148254,9.76566,1.26255,1.68,-2.45,-0.42,-21.9554,-48.3109,10.5776,1014.85
43892,0.133907,9.77523,1.21951,1.4,-3.08,-0.21,-22.3041,-46.9848,11.3164,1014.85
43898,0.148254,9.76088,1.21951,1.75,-3.43,-0.84,-22.0135,-48.0334,11.3164,1014.85
43904,0.143472,9.77523,1.18604,1.33,-2.66,-0.21,-21.8101,-47.5091,10.0604,1014.83
43910,0.186514,9.77044,1.23386,1.54,-2.73,0.21,-21.3452,-47.6016,10.1343,1014.83
43916,0.200861,9.78957,1.25777,1.47,-2.1,-0.49,-21.4905,-46.183,11.8779,1014.84
43922,0.0813008,9.77044,1.20516,1.33,-3.22,-0.91,-22.3041,-47.6633,12.2325,1014.84
43928,0.105213,9.73218,1.25777,1.19,-3.15,-0.49,-21.9554,-47.9717,12.203,1014.82
43934,0.114778,9.72262,1.25299,1.96,-2.52,-0.28,-21.781,-46.8306,11.6563,1014.82
43940,0.129125,9.76088,1.2769,1.75,-2.8,-0.63,-21.5195,-47.3549,12.7793,1014.85
43946,0.148254,9.77044,1.22908,1.82,-3.01,-0.35,-22.0135,-48.2492,11.4789,1014.85
43952,0.11956,9.72262,1.26255,1.75,-3.08,0,-21.6067,-47.324,10.9322,1014.84
43958,0.0430416,9.7561,1.26255,2.1,-2.94,0,-21.9844,-46.8615,11.08,1014.84
43964,0.114778,9.73218,1.22429,1.4,-3.01,0,-21.9263,-48.3109,10.9174,1014.84
43970,0.114778,9.77523,1.1956,1.89,-2.59,0.28,-21.8682,-47.3857,10.223,1014.85
43976,0.124342,9.7561,1.21951,1.75,-2.94,0.14,-22.1007,-46.5839,12.7645,1014.85
43982,0.13869,9.74653,1.23386,1.75,-3.08,0.14,-22.2169,-47.6016,12.0257,1014.83
43988,0.143472,9.75131,1.20995,1.96,-3.15,-0.07,-21.7229,-47.725,10.7992,1014.83
43994,0.148254,9.76566,1.22908,1.47,-3.15,0.28,-21.7229,-46.2755,12.4394,1014.81
44000,0.186514,9.77523,1.22908,1.75,-3.01,-0.07,-21.6067,-48.2801,12.2621,1014.81
44006,0.162602,9.76566,1.24821,1.89,-2.52,-0.14,-21.5486,-48.095,11.1391,1014.85
44012,0.133907,9.76566,1.22429,1.47,-2.17,-0.28,-22.1007,-47.3549,10.5037,1014.85
44018,0.0813008,9.76566,1.24821,1.82,-3.01,-0.21,-22.0716,-46.7073,10.7549,1014.85
44024,0.105213,9.73218,1.24342,1.96,-2.73,-0.49,-21.9844,-48.496,10.2525,1014.83
44030,0.13869,9.73218,1.25777,1.96,-2.94,-0.42,-21.5486,-46.7381,11.3312,1014.83
44036,0.153037,9.72262,1.25777,1.68,-2.31,0,-21.8682,-46.2755,12.794,1014.86
44042,0.11956,9.76088,1.24821,1.96,-2.73,-0.14,-22.3331,-47.324,12.3508,1014.86
44048,0.13869,9.79436,1.21473,1.82,-3.15,-0.21,-21.9844,-47.7558,11.4937,1014.87
44054,0.109995,9.78957,1.23386,1.54,-3.08,-0.35,-22.0426,-46.5531,11.7301,1014.87
44060,0.133907,9.74653,1.21951,2.1,-3.08,-0.42,-21.6939,-47.6941,11.0357,1014.84
44066,0.095648,9.74653,1.24821,1.75,-2.87,0,-21.6067,-47.7866,10.7106,1014.84
44072,0.109995,9.7561,1.22908,1.89,-3.01,-0.07,-21.781,-46.4297,11.5972,1014.84
44078,0.13869,9.71784,1.25777,1.75,-2.66,0.56,-22.0716,-47.2932,12.4246,1014.83
44084,0.10043,9.7561,1.26734,1.96,-2.66,-0.14,-21.4614,-49.1436,9.76488,1014.83
44090,0.167384,9.76088,1.27212,1.47,-2.87,-0.21,-21.1127,-47.4474,11.7892,1014.85
44096,0.13869,9.7274,1.26734,2.03,-3.01,0.35,-22.1588,-46.954,12.4394,1014.85
44102,0.157819,9.72262,1.23386,1.75,-2.66,-0.35,-21.7229,-47.8175,10.415,1014.85
44108,0.162602,9.75131,1.23386,1.89,-2.59,0.42,-21.8101,-48.0334,11.6119,1014.85
44114,0.210426,9.78001,1.21951,1.47,-2.38,-0.28,-21.4033,-46.4605,12.0257,1014.82
44120,0.162602,9.76566,1.21473,1.47,-2.8,-0.56,-21.2871,-47.139,12.4394,1014.82
44126,0.162602,9.77044,1.20995,1.75,-3.15,-0.07,-22.2169,-48.095,11.3755,1014.83
44132,0.148254,9.78957,1.25777,1.54,-2.66,-0.63,-21.6648,-47.3857,11.937,1014.83
44138,0.11956,9.78479,1.23864,1.61,-2.52,-0.77,-21.5486,-47.139,12.3655,1014.83
44144,0.105213,9.75131,1.22908,1.19,-2.38,-0.35,-22.0135,-48.9586,11.2277,1014.81
44150,0.0908656,9.70827,1.28168,1.61,-2.73,-0.7,-22.0135,-48.0334,10.8879,1014.81
44156,0.10043,9.78001,1.23386,2.03,-2.66,-0.49,-20.9675,-47.5091,12.8679,1014.83
44162,0.109995,9.75131,1.26734,1.33,-2.38,0.21,-21.4033,-48.0025,10.9322,1014.83
44168,0.10043,9.74175,1.25299,1.54,-2.66,-0.07,-21.5486,-48.1259,11.3755,1014.82
44174,0.10043,9.7561,1.23386,1.47,-3.15,0.28,-21.9263,-46.1213,11.6267,1014.82
44180,0.0669536,9.74653,1.24821,1.75,-2.87,-0.21,-21.752,-47.2624,12.07,1014.82
44186,0.105213,9.75131,1.21473,1.75,-2.8,0,-21.6939,-47.6941,12.0109,1014.82
44192,0.11956,9.73218,1.21951,1.12,-2.59,0.35,-21.8682,-46.7073,12.1587,1014.82
44198,0.105213,9.77523,1.21473,1.61,-2.94,0.42,-23.1758,-46.3989,11.3312,1014.85
44204,0.157819,9.80392,1.20995,1.89,-3.15,-0.07,-22.275,-48.1876,12.2916,1014.85
44210,0.167384,9.76566,1.21951,2.17,-3.22,0.14,-22.7109,-47.1082,11.9666,1014.84
44216,0.153037,9.77044,1.22908,2.17,-2.94,0.35,-22.6237,-46.7998,12.6758,1014.84
44222,0.095648,9.76088,1.27212,1.4,-2.8,0.21,-21.781,-47.6016,10.5185,1014.84
44228,0.143472,9.7274,1.24821,1.89,-2.52,0.28,-22.8852,-48.0334,11.4346,1014.84
44234,0.153037,9.75131,1.23864,1.89,-2.73,0,-22.1297,-47.4782,12.3212,1014.82
44240,0.114778,9.76088,1.27212,1.82,-2.94,0.07,-22.7109,-47.6324,11.671,1014.82
44246,0.095648,9.78957,1.25299,1.4,-2.8,0,-22.6237,-48.095,10.09,1014.82
44252,0.10043,9.7561,1.22908,2.03,-3.15,0.14,-21.5776,-47.324,11.9222,1014.82
44258,0.143472,9.76088,1.25299,1.61,-2.94,0.14,-22.4784,-47.2932,12.3508,1014.82
44264,0.109995,9.76088,1.24821,1.89,-2.17,0.07,-21.4033,-48.0642,10.4446,1014.85
44270,0.143472,9.7561,1.23386,2.03,-2.59,-0.42,-21.6939,-47.1698,10.6515,1014.85
44276,0.114778,9.77044,1.20995,1.96,-3.29,0.49,-22.3041,-46.2755,12.3508,1014.83
44282,0.11956,9.74653,1.27212,1.61,-2.66,0.42,-21.8392,-47.5091,11.5085,1014.83
44288,0.114778,9.75131,1.25299,1.82,-2.87,0.07,-21.8682,-47.8175,10.6958,1014.87
44294,0.11956,9.73218,1.26255,1.68,-3.08,0.21,-21.4614,-46.1521,11.4494,1014.87
44300,0.10043,9.7274,1.24342,2.1,-3.01,0.21,-22.5075,-47.4782,11.0948,1014.82
44306,0.13869,9.73697,1.25299,1.96,-3.08,0.21,-22.7109,-48.681,11.8336,1014.82
44312,0.148254,9.76088,1.23864,1.89,-3.15,-0.07,-22.0426,-47.2315,11.0061,1014.82
44318,0.153037,9.79436,1.23864,1.75,-2.59,0.14,-21.9554,-47.0157,11.2573,1014.85
44324,0.114778,9.78479,1.22429,1.68,-3.01,-0.21,-22.5075,-47.8792,9.64667,1014.85
44330,0.124342,9.78479,1.23864,1.96,-2.87,-0.07,-22.6527,-46.7073,11.2573,1014.82
44336,0.148254,9.7561,1.25777,1.75,-2.73,0.28,-22.1297,-46.3372,11.7301,1014.82
44342,0.129125,9.7561,1.22429,2.03,-3.08,-0.07,-22.3622,-48.3109,10.4594,1014.83
44348,0.143472,9.78957,1.24821,1.68,-2.73,-0.28,-21.752,-47.8483,11.4642,1014.83
44354,0.148254,9.76566,1.21951,2.1,-2.59,0.21,-21.6648,-46.8923,12.6315,1014.83
44360,0.095648,9.78957,1.22908,1.54,-2.94,0,-21.8101,-46.5531,10.4298,1014.83
44366,0.109995,9.75131,1.25777,1.96,-2.73,-0.14,-21.8682,-48.4343,10.9322,1014.83
44372,0.10043,9.75131,1.25299,1.96,-2.94,0.49,-21.9554,-46.7689,12.794,1014.84
44378,0.124342,9.73218,1.26255,1.96,-2.94,0.35,-22.1588,-47.4782,11.4051,1014.84
44384,0.0908656,9.76088,1.23864,2.31,-2.87,0.14,-22.1878,-47.3549,11.7449,1014.81
44390,0.124342,9.74175,1.24342,1.89,-3.22,-0.07,-21.752,-47.2315,12.2178,1014.81
44396,0.109995,9.74175,1.24821,1.61,-2.94,-0.07,-21.4033,-46.8615,12.6167,1014.83
44402,0.157819,9.75131,1.22429,2.1,-3.01,0.14,-22.0426,-48.2801,11.1095,1014.83
44408,0.148254,9.74175,1.25299,1.75,-2.94,0.56,-21.8973,-48.0642,12.0404,1014.81
44414,0.133907,9.76088,1.25777,1.54,-2.73,0.28,-22.1878,-46.8615,13.2521,1014.81
44420,0.172166,9.78001,1.21473,1.75,-3.01,-0.14,-21.7229,-48.0334,12.927,1014.81
44426,0.133907,9.77523,1.21473,1.82,-3.01,0.14,-22.1878,-48.6193,11.4937,1014.81
44432,0.148254,9.78001,1.20516,1.4,-3.08,0.07,-21.0837,-46.9848,11.7006,1014.81
44438,0.143472,9.79436,1.22429,1.4,-3.08,-0.42,-21.258,-47.324,12.203,1014.86
44444,0.129125,9.76088,1.20995,1.68,-2.45,-0.28,-21.6939,-48.5576,10.4741,1014.86
44450,0.109995,9.76566,1.26255,1.68,-3.08,-0.63,-22.2169,-47.8483,11.6858,1014.8
44456,0.133907,9.70827,1.24821,2.03,-2.73,-0.35,-21.6939,-46.5839,11.6563,1014.8
44462,0.0908656,9.73697,1.21473,1.4,-2.38,0.07,-21.6939,-48.3726,11.0061,1014.83
44468,0.105213,9.7561,1.23386,1.26,-2.52,-0.07,-22.0426,-49.1128,10.2821,1014.83
44474,0.071736,9.71305,1.24342,2.24,-3.36,0,-22.1007,-47.0773,10.9913,1014.82
44480,0.10043,9.69871,1.25299,1.75,-3.22,0.35,-22.246,-47.4166,12.1882,1014.82
44486,0.071736,9.73218,1.18604,1.75,-3.01,0.56,-22.4784,-47.9717,11.5676,1014.82
44492,0.105213,9.7561,1.21951,1.82,-3.22,0,-22.2169,-46.8923,11.3312,1014.84
44498,0.114778,9.77523,1.22908,2.24,-2.8,0.42,-21.9554,-47.324,11.7006,1014.84
44504,0.109995,9.75131,1.19082,1.61,-2.66,0.56,-22.2169,-48.5268,11.9075,1014.81
44510,0.109995,9.74653,1.22908,2.03,-3.01,0,-21.9554,-47.4474,11.2869,1014.81
44516,0.172166,9.78957,1.22908,1.54,-2.87,-0.07,-22.0426,-46.3989,13.3408,1014.83
44522,0.186514,9.78479,1.1956,1.96,-3.08,0,-21.9263,-47.0773,12.2621,1014.83
44528,0.148254,9.78957,1.20038,1.61,-2.24,0.14,-23.0595,-47.8792,11.671,1014.85
44534,0.133907,9.79436,1.22429,1.75,-3.08,-0.21,-22.4784,-46.5222,11.4346,1014.85
44540,0.124342,9.75131,1.20038,1.19,-3.15,0.07,-22.8271,-46.954,12.0404,1014.85
44546,0.143472,9.75131,1.21473,2.1,-2.73,-0.21,-22.1878,-47.5399,10.2968,1014.84
44552,0.148254,9.74653,1.24342,2.03,-2.73,-0.07,-22.6527,-45.7204,12.3508,1014.84
44558,0.0908656,9.74653,1.26734,1.68,-2.66,-0.35,-21.8101,-46.7073,11.6415,1014.83
44564,0.10043,9.74653,1.21473,1.61,-2.66,-0.07,-22.8561,-48.2801,11.4789,1014.83
44570,0.124342,9.76566,1.23386,1.75,-2.8,0.21,-21.8682,-46.8615,11.7154,1014.83
44576,0.129125,9.73697,1.21473,1.96,-3.71,0,-23.0886,-47.5708,11.213,1014.83
44582,0.129125,9.7561,1.23864,1.96,-3.01,17.43,-22.1007,-47.3549,10.6219,1014.86
44588,0.0813008,9.77044,1.20995,1.68,-2.66,-0.21,-22.1588,-47.8175,10.947,1014.86
44594,0.114778,9.76088,1.22429,1.68,-2.8,0.35,-22.0135,-46.4914,11.0652,1014.86
44600,0.162602,9.73218,1.25777,1.61,-2.8,0.77,-21.8682,-47.6633,11.9961,1014.82
44606,0.124342,9.7274,1.22429,1.75,-2.45,0.28,-21.6358,-48.095,11.0504,1014.82
44612,0.133907,9.72262,1.25777,1.96,-2.66,0.14,-21.9554,-46.8923,11.7301,1014.8
44618,0.129125,9.74653,1.25299,2.03,-3.08,0.35,-21.6648,-46.6764,13.2964,1014.8
44624,0.167384,9.7561,1.23864,1.75,-2.94,0.07,-22.0716,-47.9408,11.8336,1014.82
44630,0.200861,9.77044,1.20516,2.1,-2.94,-0.28,-22.3622,-47.3549,11.08,1014.82
44636,0.172166,9.79914,1.1956,1.75,-2.73,-0.28,-21.8682,-46.9231,11.5528,1014.83
44642,0.095648,9.76088,1.22429,1.61,-3.01,0,-21.6648,-47.9717,12.9714,1014.83
44648,0.148254,9.79914,1.22429,1.54,-3.01,-0.21,-22.1588,-47.725,12.2178,1014.83
44654,0.153037,9.76088,1.24821,1.82,-2.31,-0.35,-21.2871,-47.2007,11.671,1014.83
44660,0.114778,9.7561,1.24342,1.61,-2.87,-0.35,-21.8973,-46.8923,12.0404,1014.83
44666,0.109995,9.79914,1.23386,1.33,-3.08,-0.14,-22.0135,-47.4474,10.2082,1014.81
44672,0.095648,9.74175,1.21951,1.75,-2.94,-0.21,-22.6818,-47.2007,11.1243,1014.81
44678,0.105213,9.77044,1.20995,1.75,-2.59,-0.35,-22.4493,-46.5531,12.3655,1014.79
44684,0.13869,9.7561,1.21473,1.26,-2.66,-0.35,-22.7109,-47.8175,11.3607,1014.79
44690,0.0813008,9.76566,1.22908,1.54,-2.59,-0.35,-21.4905,-47.2624,12.4246,1014.83
44696,0.11956,9.76088,1.16212,1.54,-3.43,0.21,-21.5486,-46.4605,11.5085,1014.83
44702,0.129125,9.72262,1.25777,1.4,-2.59,-0.14,-21.4324,-47.8175,11.1982,1014.86
44708,0.0526064,9.72262,1.31516,2.03,-2.8,-0.28,-21.6648,-47.4782,12.0848,1014.86
44714,0.109995,9.76566,1.23864,1.82,-3.43,0.49,-21.5776,-46.4914,12.336,1014.86
44720,0.129125,9.76088,1.20995,1.96,-2.8,0.21,-21.3452,-47.2932,11.3312,1014.82
44726,0.114778,9.78957,1.22429,1.68,-3.01,0.49,-21.752,-47.6324,10.6958,1014.82
44732,0.200861,9.77044,1.22429,1.54,-2.59,-0.35,-21.6067,-46.6456,11.4937,1014.84
44738,0.114778,9.80392,1.20038,1.54,-3.08,-0.56,-21.781,-46.3063,12.8975,1014.84
44744,0.172166,9.7561,1.24821,1.26,-2.87,-0.14,-22.3041,-47.7866,11.0209,1014.82
44750,0.186514,9.76566,1.21473,2.03,-2.66,0.07,-22.5365,-46.4914,11.6267,1014.82
44756,0.162602,9.76566,1.21951,1.54,-2.52,-0.49,-22.3331,-46.4914,12.9566,1014.83
44762,0.186514,9.78479,1.21473,1.47,-2.52,-0.84,-22.1297,-47.1698,11.0061,1014.83
44768,0.10043,9.78957,1.23386,1.68,-2.52,-0.49,-22.5656,-47.2624,11.2573,1014.85
44774,0.109995,9.78001,1.24821,1.33,-2.52,-0.91,-22.0716,-46.5839,12.0404,1014.85
44780,0.172166,9.75131,1.26734,1.05,-3.22,-1.05,-23.0595,-47.8792,11.1095,1014.85
44786,0.148254,9.74175,1.24342,1.19,-2.94,-0.42,-21.6939,-47.6324,11.1539,1014.86
44792,0.143472,9.77523,1.1956,1.12,-2.59,-1.12,-21.9554,-47.6633,11.0209,1014.86
44798,0.0286944,9.7274,1.24342,1.12,-2.94,-0.14,-21.9263,-47.7558,11.08,1014.83
44804,0.133907,9.72262,1.26255,1.19,-2.94,-0.07,-21.6648,-48.7427,10.9027,1014.83
44810,0.0430416,9.77044,1.26734,1.12,-2.94,-0.63,-21.8392,-47.4782,12.4542,1014.82
44816,0.105213,9.68436,1.24342,1.4,-2.87,0.14,-21.6067,-46.7381,12.6611,1014.82
44822,0.0860832,9.73218,1.2769,2.03,-2.94,0,-21.6648,-47.8175,10.3855,1014.81
44828,0.114778,9.76088,1.24821,1.68,-2.8,-0.28,-22.4784,-47.8483,11.3903,1014.81
44834,0.109995,9.76088,1.24821,1.75,-2.59,-0.07,-21.6358,-46.6147,12.5428,1014.81
44840,0.0860832,9.74175,1.28647,1.47,-2.87,0,-21.8682,-47.2007,11.4198,1014.81
44846,0.129125,9.77044,1.23864,2.1,-2.8,-0.21,-21.6358,-47.6941,10.7845,1014.81
44852,0.153037,9.78001,1.21473,1.19,-3.15,-0.49,-21.9263,-46.2138,11.9222,1014.83
44858,0.124342,9.79914,1.18604,1.61,-2.66,-0.28,-21.9554,-47.2932,12.07,1014.83
44864,0.143472,9.78479,1.20038,1.19,-2.73,-0.35,-22.5365,-48.2184,11.9813,1014.84
44870,0.162602,9.73218,1.26734,1.4,-2.59,-0.42,-22.1878,-47.5399,11.5676,1014.84
44876,0.172166,9.75131,1.29125,1.47,-2.8,-0.42,-21.6067,-46.5531,11.6119,1014.82
44882,0.153037,9.78001,1.24342,1.4,-2.45,-0.84,-22.6237,-48.9894,10.0752,1014.82
44888,0.153037,9.78001,1.21951,1.12,-2.52,-1.05,-22.1878,-47.4474,10.223,1014.82
44894,0.105213,9.76566,1.28168,1.47,-2.59,-1.12,-22.6527,-47.1698,11.5972,1014.84
44900,0.0908656,9.7274,1.25777,1.26,-2.87,-1.05,-22.246,-47.6016,12.469,1014.84
44906,0.047824,9.78001,1.27212,1.33,-3.15,-0.14,-22.4493,-47.5708,11.6563,1014.84
44912,0.0813008,9.70349,1.26255,1.4,-3.08,-0.21,-21.9554,-47.0465,12.7054,1014.84
44918,0.0573888,9.73218,1.24342,1.47,-3.08,-0.28,-22.1878,-47.324,11.4494,1014.82
44924,0.047824,9.71784,1.28168,1.54,-2.94,-0.14,-21.9844,-48.2492,12.0109,1014.82
44930,0.0813008,9.74653,1.24821,2.03,-3.36,0.07,-22.1878,-47.2315,12.1143,1014.82
44936,0.0765184,9.74653,1.26734,1.96,-2.94,-0.07,-22.275,-46.8306,11.5233,1014.82
44942,0.11956,9.74175,1.28168,1.61,-3.22,0.07,-21.8101,-48.0334,10.4741,1014.86
44948,0.114778,9.7561,1.22908,1.54,-3.01,0.14,-21.9554,-48.2184,11.5381,1014.86
44954,0.129125,9.77044,1.20995,1.47,-2.66,0.21,-21.6358,-46.4914,11.7006,1014.86
44960,0.109995,9.75131,1.27212,1.89,-3.01,0,-21.9263,-47.0157,11.9222,1014.83
44966,0.124342,9.74175,1.20995,1.4,-2.59,-0.14,-22.2169,-47.9408,12.4837,1014.83
44972,0.181731,9.78001,1.18604,2.1,-2.73,0.21,-22.1297,-47.139,11.8927,1014.86
44978,0.153037,9.78479,1.19082,1.26,-2.66,-0.42,-22.1588,-46.7998,12.0109,1014.86
44984,0.109995,9.7561,1.25299,1.75,-2.52,-0.42,-22.246,-47.9717,11.7449,1014.81
44990,0.0526064,9.74653,1.29125,1.89,-2.59,-0.35,-21.0256,-47.6633,11.8631,1014.81
44996,0.11956,9.72262,1.25777,1.82,-2.73,17.71,-22.1297,-46.4297,13.3999,1014.84
45002,0.10043,9.76566,1.24821,1.89,-2.52,-0.14,-21.8101,-47.6633,12.2769,1014.84
45008,0.071736,9.74175,1.28647,1.61,-2.59,-0.14,-21.9263,-48.0025,12.5576,1014.84
45014,0.109995,9.73697,1.28647,1.68,-2.94,-0.07,-22.2169,-46.2755,12.0257,1014.83
45020,0.0813008,9.76088,1.21951,2.24,-3.08,0.21,-22.0716,-47.7866,12.9566,1014.83
45026,0.109995,9.78001,1.24821,1.89,-3.08,-0.56,-22.275,-48.3418,11.8336,1014.84
45032,0.071736,9.76566,1.24342,1.47,-3.01,0.07,-22.1297,-46.5222,12.6906,1014.84
45038,0.0860832,9.75131,1.25777,1.75,-3.22,0.84,-22.4493,-46.8923,11.7597,1014.82
45044,0.114778,9.74653,1.25777,2.1,-3.01,0.07,-21.9844,-48.5268,10.5924,1014.82
45050,0.114778,9.77044,1.24342,1.4,-2.66,-0.28,-21.9554,-47.3857,12.4394,1014.8
45056,0.143472,9.74175,1.24342,1.61,-2.59,0.35,-22.1588,-46.7689,12.203,1014.8
45062,0.109995,9.77523,1.24821,1.89,-3.08,0.49,-22.4784,-47.6941,12.2769,1014.8
45068,0.176949,9.75131,1.23864,1.47,-2.8,0.14,-22.5075,-47.2624,10.2082,1014.82
45074,0.148254,9.76088,1.25777,1.89,-2.52,0.07,-21.4614,-45.9671,11.8631,1014.82
45080,0.167384,9.78001,1.23864,1.54,-2.38,-0.42,-21.8682,-47.1082,10.9322,1014.83
45086,0.124342,9.76088,1.25777,1.75,-2.24,0,-22.3331,-48.7118,8.81919,1014.83
45092,0.11956,9.79436,1.25299,1.82,-2.73,0.21,-21.9263,-46.7073,11.1982,1014.81
45098,0.10043,9.76566,1.20516,1.54,-2.66,-0.14,-21.6939,-47.0465,12.0848,1014.81
45104,0.114778,9.78001,1.20995,1.4,-2.66,0,-21.4905,-48.1259,10.8879,1014.85
45110,0.109995,9.76088,1.25299,1.26,-2.8,0,-21.9844,-47.2315,11.4789,1014.85
45116,0.109995,9.77044,1.22908,1.61,-2.45,-0.35,-21.5195,-46.954,12.0109,1014.8
45122,0.0860832,9.71784,1.30081,1.54,-2.8,-0.35,-22.1878,-47.91,10.6367,1014.8
45128,0.0860832,9.7274,1.26255,1.12,-2.45,-0.49,-22.4493,-47.2007,10.5333,1014.8
45134,0.0813008,9.74175,1.29603,1.82,-3.22,17.64,-21.3161,-45.9979,11.8188,1014.83
45140,0.0908656,9.74653,1.24342,1.47,-3.22,-0.42,-22.3622,-47.0157,11.9075,1014.83
45146,0.105213,9.74653,1.26255,1.54,-3.15,0.28,-22.275,-48.0025,10.3707,1014.79
45152,0.10043,9.7561,1.25777,1.68,-2.87,0.35,-21.8392,-46.4297,12.5428,1014.79
45158,0.124342,9.76088,1.24342,1.47,-2.87,-0.14,-22.3331,-46.7073,12.5133,1014.82
45164,0.133907,9.74653,1.2769,1.54,-2.87,-0.07,-22.4203,-47.5708,10.3264,1014.82
45170,0.11956,9.7561,1.25777,1.82,-2.52,0.07,-21.2871,-46.7998,11.5824,1014.87
45176,0.124342,9.74175,1.29125,2.03,-3.01,0,-21.5776,-45.7821,12.2473,1014.87
45182,0.172166,9.77044,1.21951,1.61,-3.15,0.14,-22.3912,-47.4166,11.2573,1014.87
45188,0.157819,9.81349,1.24821,1.61,-3.64,-0.42,-22.1007,-47.139,11.213,1014.82
45194,0.13869,9.79914,1.23386,1.33,-2.73,0.14,-21.752,-46.3372,12.0552,1014.82
45200,0.13869,9.76566,1.25777,1.54,-2.87,-0.35,-22.8561,-48.1259,9.76488,1014.83
45206,0.114778,9.7561,1.24821,1.54,-3.01,-0.63,-21.752,-47.91,10.1343,1014.83
45212,0.10043,9.74175,1.24342,1.54,-2.52,-0.56,-21.8973,-46.3989,12.0257,1014.86
45218,0.109995,9.76088,1.28647,1.75,-2.73,0.21,-21.4614,-46.5531,12.1439,1014.86
45224,0.0765184,9.7561,1.25777,1.89,-2.59,-0.63,-22.3041,-47.6633,11.4346,1014.8
45230,0.0573888,9.75131,1.28647,1.19,-3.22,-0.35,-21.9844,-46.6764,11.8631,1014.8
45236,0.10043,9.76088,1.24821,1.68,-3.36,-0.07,-21.8682,-45.9671,12.2473,1014.8
45242,0.109995,9.74175,1.23386,1.96,-2.45,-0.14,-21.9263,-47.6016,10.9913,1014.85
45248,0.129125,9.77044,1.25299,1.4,-3.01,0.21,-21.3161,-47.7558,11.5972,1014.85
45254,0.0813008,9.73697,1.25299,1.54,-3.08,0.07,-21.1418,-46.4297,12.1291,1014.83
45260,0.109995,9.78479,1.23386,1.47,-3.15,0.14,-21.5195,-46.8306,10.1786,1014.83
45266,0.109995,9.77044,1.25299,1.89,-2.87,-0.07,-22.0135,-47.2624,11.1834,1014.82
45272,0.10043,9.74175,1.2769,1.4,-2.73,-0.07,-21.752,-46.6764,13.3112,1014.82
45278,0.11956,9.7561,1.28647,1.47,-3.15,-0.21,-21.4324,-47.139,11.7006,1014.84
45284,0.114778,9.77044,1.25777,1.47,-3.29,-0.14,-22.2169,-47.9408,10.1638,1014.84
45290,0.133907,9.77044,1.25777,1.47,-3.36,-0.21,-21.752,-46.4605,11.671,1014.85
45296,0.109995,9.75131,1.26255,2.03,-3.22,-0.35,-20.9675,-45.5353,12.9566,1014.85
45302,0.109995,9.75131,1.30081,1.61,-2.66,-0.35,-21.9263,-47.3857,11.4494,1014.85
45308,0.172166,9.78001,1.28168,1.96,-3.01,-0.14,-21.1709,-46.7689,11.1982,1014.84
45314,0.11956,9.79914,1.28168,1.68,-3.01,-0.63,-21.4905,-46.7689,12.6758,1014.84
45320,0.071736,9.7561,1.26255,1.54,-2.8,-0.28,-21.6648,-47.0773,11.6563,1014.85
45326,0.0526064,9.7561,1.25299,1.82,-3.22,-0.42,-21.752,-47.1082,10.4889,1014.85
45332,0.129125,9.74653,1.23864,1.47,-3.01,-0.77,-21.8101,-46.2138,11.3312,1014.85
45338,0.13869,9.78479,1.24821,1.19,-2.66,-0.91,-22.0135,-46.7381,11.1686,1014.85
45344,0.11956,9.76566,1.23386,1.4,-3.01,-0.56,-21.9554,-47.5399,10.2673,1014.85
45350,0.10043,9.76088,1.24821,1.54,-2.94,0.07,-22.275,-46.368,11.8484,1014.85
45356,0.0621712,9.71305,1.29603,1.33,-2.52,0.07,-22.3331,-46.7998,12.4542,1014.85
45362,0.109995,9.74175,1.25299,1.54,-2.59,0,-21.752,-47.2624,11.7301,1014.82
45368,0.0669536,9.7561,1.26734,1.75,-3.15,0.21,-21.5776,-46.8923,11.3755,1014.82
45374,0.095648,9.74653,1.25777,1.61,-2.59,-0.21,-20.9965,-46.3372,12.6463,1014.84
45380,0.0813008,9.73697,1.26734,1.47,-2.8,0.07,-21.1709,-48.3726,11.5381,1014.84
45386,0.10043,9.73218,1.23864,1.82,-2.94,0.28,-21.3742,-47.2624,12.5576,1014.86
45392,0.095648,9.7561,1.24342,1.68,-2.73,0.49,-22.3622,-47.1698,11.9961,1014.86
45398,0.13869,9.74653,1.2769,1.61,-2.94,-0.35,-21.9263,-47.0157,11.671,1014.83
45404,0.13869,9.78001,1.22429,1.68,-2.94,-0.28,-21.8392,-48.0334,11.2869,1014.83
45410,0.143472,9.77523,1.24821,1.47,-2.45,-17.71,-21.4033,-46.5222,12.6315,1014.85
45416,0.114778,9.7561,1.26255,1.75,-2.73,-0.28,-21.6648,-46.4297,11.6119,1014.85
45422,0.095648,9.78479,1.27212,1.47,-2.59,0.21,-21.8973,-48.1259,12.2178,1014.85
45428,0.124342,9.74175,1.26734,1.47,-2.8,-0.49,-22.246,-47.4474,12.1143,1014.82
45434,0.095648,9.78001,1.2769,1.68,-2.73,-0.56,-21.8101,-46.3989,13.3999,1014.82
45440,0.105213,9.75131,1.25299,1.75,-2.87,-0.07,-21.8392,-47.3857,11.6119,1014.8
45446,0.071736,9.77044,1.24821,1.68,-2.8,-0.14,-22.275,-47.5091,10.3707,1014.8
45452,0.0813008,9.73697,1.25299,1.33,-2.59,-0.7,-22.0426,-47.0465,10.4741,1014.86
45458,0.0669536,9.75131,1.25777,1.61,-2.87,-0.14,-21.4905,-46.954,12.2178,1014.86
45464,0.0813008,9.75131,1.26255,1.47,-2.38,0.28,-21.8101,-48.0025,11.804,1014.81
45470,0.0621712,9.77044,1.27212,1.68,-2.87,0.28,-21.6648,-46.5531,11.8631,1014.81
45476,0.095648,9.73697,1.24342,1.54,-2.94,-0.28,-21.8682,-46.7073,11.9518,1014.81
45482,0.10043,9.74175,1.28168,1.75,-2.52,0.21,-21.8682,-48.095,10.9765,1014.82
45488,0.0908656,9.7561,1.25299,1.82,-2.59,-0.14,-22.1588,-47.2007,11.1243,1014.82
45494,0.109995,9.73697,1.27212,1.89,-2.1,0.84,-22.246,-46.3063,12.0257,1014.86
45500,0.109995,9.75131,1.25299,1.61,-2.73,1.19,-21.4324,-47.324,10.9174,1014.86
45506,0.129125,9.75131,1.27212,1.47,-2.73,-0.21,-21.6939,-47.6324,11.6415,1014.84
45512,0.13869,9.7561,1.24821,1.82,-3.15,-0.84,-21.3452,-47.2007,11.1539,1014.84
45518,0.0860832,9.78001,1.25299,1.89,-2.8,0.28,-21.752,-47.0157,12.0552,1014.84
45524,0.162602,9.75131,1.28647,1.61,-2.38,0.56,-22.3622,-47.4474,10.6367,1014.84
45530,0.124342,9.77523,1.23864,1.54,-2.45,-0.91,-21.8682,-46.5839,11.3755,1014.84
45536,0.153037,9.74175,1.25777,1.47,-2.87,-0.56,-22.3331,-47.0465,12.0109,1014.81
45542,0.0813008,9.73697,1.26255,1.47,-2.87,0.21,-21.8392,-48.2184,12.07,1014.81
45548,0.0382592,9.75131,1.26734,1.68,-2.8,-17.85,-21.1418,-46.9848,11.1982,1014.81
45554,0.0860832,9.77523,1.26255,1.75,-2.87,0.56,-22.1878,-47.1698,12.9418,1014.81
45560,0.095648,9.74653,1.28168,1.26,-3.01,-0.07,-21.6939,-47.8175,11.7449,1014.88
45566,0.0765184,9.74175,1.26255,2.17,-2.87,-0.56,-22.1588,-48.1567,12.1882,1014.88
45572,0.071736,9.76566,1.24342,2.03,-2.87,-0.07,-21.8101,-46.7381,12.2325,1014.84
45578,0.0908656,9.76088,1.23864,1.68,-2.8,0.7,-22.3912,-47.4474,11.6415,1014.84
45584,0.0813008,9.7274,1.26255,1.4,-2.38,0.07,-22.3331,-48.0642,12.3655,1014.83
45590,0.105213,9.77044,1.24342,2.17,-2.94,0.14,-22.5365,-46.8306,12.0848,1014.83
45596,0.0908656,9.74175,1.26734,1.47,-2.59,0.63,-22.1007,-47.0773,13.2078,1014.83
45602,0.10043,9.74653,1.26255,1.61,-3.01,0.07,-22.3622,-47.5708,12.9123,1014.83
45608,0.109995,9.7561,1.28647,1.75,-3.01,-0.35,-21.5486,-46.9848,12.5724,1014.83
45614,0.105213,9.73697,1.25299,1.47,-2.87,0.91,-21.8973,-46.1213,12.469,1014.82
45620,0.129125,9.76566,1.29125,1.68,-2.73,-0.28,-21.6648,-47.324,11.7597,1014.82
45626,0.114778,9.7561,1.25299,1.61,-2.94,0.7,-21.4324,-47.139,11.8927,1014.83
45632,0.153037,9.78479,1.24342,1.75,-2.94,0.63,-21.4033,-46.0905,12.6315,1014.83
45638,0.11956,9.76566,1.2769,1.89,-2.8,-0.49,-21.3161,-47.4474,10.9027,1014.82
45644,0.124342,9.78957,1.26255,2.1,-3.08,-0.21,-21.5776,-47.8483,10.4741,1014.82
45650,0.105213,9.77044,1.26734,1.75,-2.66,0.21,-21.8392,-46.8615,12.3655,1014.82
45656,0.143472,9.79914,1.23386,1.54,-2.87,0.07,-22.1297,-46.7073,12.5281,1014.81
45662,0.109995,9.76088,1.24821,1.75,-3.01,-0.35,-21.781,-48.5885,11.7006,1014.81
45668,0.095648,9.7561,1.26734,1.96,-3.01,-0.14,-22.2169,-47.2624,11.0061,1014.85
45674,0.0573888,9.74175,1.28647,1.54,-2.94,0,-21.3161,-46.4605,12.7497,1014.85
45680,0.0813008,9.7561,1.24821,1.75,-2.87,-0.07,-22.4493,-47.4474,11.5085,1014.82
45686,0.0813008,9.76088,1.26255,1.89,-2.73,0,-21.6067,-47.3549,11.6563,1014.82
45692,0.095648,9.7561,1.28647,1.75,-2.8,0.14,-21.781,-46.3063,11.1391,1014.84
45698,0.0860832,9.75131,1.26255,1.75,-2.52,0.35,-22.4784,-47.8175,12.336,1014.84
45704,0.105213,9.78001,1.2769,1.61,-2.66,0.35,-21.8973,-47.9717,11.7597,1014.84
45710,0.071736,9.75131,1.23864,1.75,-2.73,0.07,-21.6358,-46.1213,11.7745,1014.84
45716,0.105213,9.76088,1.24821,1.54,-3.01,-0.49,-21.7229,-46.2447,13.0452,1014.84
45722,0.13869,9.76088,1.28647,1.68,-2.66,0.49,-21.6939,-47.8175,13.2226,1014.81
45728,0.153037,9.76088,1.27212,1.33,-3.15,0,-21.5195,-46.8923,11.5233,1014.81
45734,0.11956,9.74175,1.29603,1.68,-2.73,-0.42,-22.2169,-46.2138,13.2373,1014.84
45740,0.143472,9.75131,1.2769,2.03,-2.45,0.07,-22.0716,-46.7998,12.4542,1014.84
45746,0.11956,9.78001,1.24342,1.54,-2.66,0.07,-21.9554,-47.9717,12.1439,1014.85
45752,0.133907,9.76566,1.26734,1.47,-2.73,0.07,-21.6067,-46.9231,12.9714,1014.85
45758,0.0430416,9.73218,1.2769,2.1,-3.5,0,-21.6939,-46.8306,11.1834,1014.83
45764,0.0669536,9.75131,1.31038,1.54,-3.08,-0.21,-21.8973,-47.6633,11.3312,1014.83
45770,0.11956,9.74175,1.26734,1.82,-2.17,0,-22.1297,-46.368,13.1487,1014.83
45776,0.0860832,9.78001,1.24342,1.96,-2.73,-0.14,-22.246,-46.7689,12.3212,1014.84
45782,0.11956,9.74175,1.25299,1.68,-2.87,0.14,-22.1007,-47.7866,11.671,1014.84
45788,0.10043,9.7561,1.24821,1.47,-3.64,0.07,-21.9554,-47.1698,13.0157,1014.82
45794,0.129125,9.73218,1.25777,1.61,-2.45,0.21,-22.0716,-46.1521,13.326,1014.82
45800,0.105213,9.77523,1.26255,1.68,-3.15,0.21,-23.0595,-47.5708,12.0109,1014.84
45806,0.095648,9.76566,1.26255,1.54,-3.08,-0.07,-22.0135,-47.6324,12.2916,1014.84
45812,0.10043,9.74653,1.24821,1.61,-2.45,0.49,-21.3742,-45.9979,13.725,1014.82
45818,0.11956,9.73218,1.29125,1.82,-2.66,0.49,-22.6818,-46.2447,14.0205,1014.82
45824,0.11956,9.76088,1.24821,1.54,-2.8,0,-22.7399,-48.1876,12.1734,1014.82
45830,0.11956,9.76566,1.27212,1.33,-2.87,0.35,-22.3622,-47.3857,12.203,1014.82
45836,0.13869,9.75131,1.28647,1.68,-2.87,0.14,-22.6818,-47.2624,12.602,1014.82
45842,0.172166,9.7561,1.22908,1.75,-2.8,-0.14,-22.3331,-48.6193,12.5872,1014.83
45848,0.114778,9.76088,1.25777,1.54,-2.52,-0.07,-22.246,-46.9231,12.6611,1014.83
45854,0.11956,9.78001,1.24821,1.75,-2.73,0.07,-21.9554,-46.5222,13.193,1014.83
45860,0.0813008,9.7561,1.26255,1.96,-2.87,-0.35,-21.8682,-47.7558,12.2769,1014.83
45866,0.10043,9.70827,1.29125,1.89,-2.8,-0.42,-22.3041,-47.6941,11.3164,1014.86
45872,0.10043,9.74175,1.25299,1.61,-2.87,-0.14,-21.9844,-46.6456,12.5872,1014.86
45878,0.095648,9.77044,1.20038,1.75,-2.38,0.28,-21.0256,-46.368,11.3903,1014.86
45884,0.109995,9.75131,1.25299,1.75,-3.01,0.21,-21.9554,-48.4343,11.8188,1014.82
45890,0.114778,9.75131,1.24821,1.54,-2.73,0.14,-22.1297,-47.0157,12.9123,1014.82
45896,0.095648,9.74653,1.30081,1.4,-3.01,0.21,-21.5486,-46.7381,11.4051,1014.84
45902,0.109995,9.76088,1.24342,1.75,-2.17,0,-22.798,-49.0819,10.7992,1014.84
45908,0.11956,9.74653,1.25299,1.68,-2.94,-0.21,-21.9844,-47.4166,12.2621,1014.86
45914,0.11956,9.78001,1.26734,1.89,-2.87,0,-22.3041,-46.8615,11.6415,1014.86
45920,0.0813008,9.73218,1.28168,1.68,-2.8,0.07,-22.0426,-47.8175,11.7892,1014.82
45926,0.0908656,9.74175,1.27212,1.61,-3.22,0.14,-22.3622,-47.9717,11.1095,1014.82
45932,0.13869,9.74653,1.27212,1.75,-3.08,0.28,-21.5195,-46.3372,12.2473,1014.85
45938,0.0908656,9.76566,1.28647,1.68,-2.1,0.42,-21.5776,-47.3549,11.7597,1014.85
45944,0.167384,9.78957,1.22908,1.54,-2.59,0,-22.4493,-48.0334,10.0456,1014.85
45950,0.143472,9.77044,1.26734,1.47,-3.08,-0.07,-21.5195,-46.6456,12.3951,1014.86
45956,0.109995,9.76566,1.25299,1.89,-2.8,-0.14,-21.3161,-46.1521,12.7054,1014.86
45962,0.0908656,9.74653,1.28647,1.54,-2.73,-0.07,-21.9554,-48.2801,11.937,1014.82
45968,0.129125,9.78957,1.2769,1.54,-3.08,-0.07,-21.8973,-47.2624,11.804,1014.82
45974,0.109995,9.73697,1.3056,1.75,-2.73,-0.14,-21.6067,-46.9848,13.0305,1014.86
45980,0.105213,9.74653,1.29603,1.54,-2.8,0.07,-22.3041,-47.725,12.7202,1014.86
45986,0.0813008,9.77523,1.2769,1.68,-2.94,-0.07,-22.1878,-48.0025,11.1834,1014.86
45992,0.095648,9.74653,1.2769,1.61,-2.31,-0.07,-21.6358,-46.5839,12.2621,1014.86
45998,0.10043,9.73697,1.26734,2.03,-2.59,0,-21.752,-47.4166,11.5824,1014.86
46004,0.0765184,9.73218,1.31516,1.89,-3.29,0.56,-22.0135,-47.91,11.1095,1014.84
46010,0.095648,9.74653,1.26255,1.82,-3.01,0.21,-22.0716,-47.3857,13.0009,1014.84
46016,0.109995,9.75131,1.25299,1.96,-2.59,0.14,-21.5195,-47.139,12.7497,1014.84
46022,0.129125,9.76566,1.28168,1.26,-2.87,0.21,-21.5195,-48.1567,10.6662,1014.84
46028,0.124342,9.74653,1.28647,1.54,-3.36,0.28,-21.3452,-47.5399,12.0257,1014.83
46034,0.114778,9.77044,1.25299,1.96,-2.73,0.49,-21.5776,-46.2755,13.4294,1014.83
46040,0.13869,9.7561,1.28647,1.89,-3.08,0.35,-21.6067,-48.0025,12.6315,1014.86
46046,0.13869,9.74653,1.28168,2.31,-2.87,0,-21.752,-47.7866,11.5972,1014.86
46052,0.148254,9.75131,1.26734,1.54,-2.87,0,-21.8973,-47.2007,13.1191,1014.86
46058,0.167384,9.76566,1.27212,2.1,-3.08,0.07,-21.8682,-47.1082,12.5281,1014.83
46064,0.109995,9.76566,1.27212,2.1,-2.52,-0.49,-21.752,-48.3109,12.1734,1014.83
46070,0.0908656,9.78001,1.26734,1.75,-2.66,-0.49,-21.4614,-46.5222,11.8484,1014.85
46076,0.114778,9.74653,1.31038,1.68,-2.73,0.07,-21.8682,-46.8615,12.7645,1014.85
46082,0.0908656,9.77044,1.23386,1.82,-2.73,-0.49,-21.5776,-48.2801,10.8288,1014.85
46088,0.105213,9.76566,1.28168,2.17,-2.31,-0.49,-22.3622,-47.6324,11.7745,1014.85
46094,0.0860832,9.77044,1.29125,1.33,-2.38,-0.07,-21.8392,-46.4605,12.2916,1014.87
46100,0.114778,9.71784,1.24821,2.24,-3.08,-17.71,-22.0426,-48.3109,11.5381,1014.87
46106,0.10043,9.73697,1.29603,1.47,-2.87,0.28,-21.6067,-47.7866,10.9322,1014.85
46112,0.095648,9.75131,1.27212,1.4,-3.08,0.07,-21.5195,-46.1521,12.4394,1014.85
46118,0.143472,9.76566,1.24342,2.03,-3.01,-0.21,-21.5776,-47.9717,11.8779,1014.85
46124,0.10043,9.76566,1.24342,1.33,-2.94,0.07,-21.6358,-47.7558,10.0456,1014.84
46130,0.11956,9.76088,1.27212,1.61,-3.43,-0.07,-21.6067,-47.5708,10.5776,1014.84
46136,0.095648,9.73218,1.26734,1.61,-2.66,0,-21.4905,-46.7998,13.4294,1014.84
