Timestamp,AccX,AccY,AccZ,AngularVelX,AngularVelY,AngularVelZ,MagX,MagY,MagZ,AirPressure
25502,-0.435198,9.74653,1.13821,0.35,0.42,-0.42,-30.2506,-38.5317,-1.8281,1014.51
25508,-0.463893,9.76088,1.12865,0.77,0.35,-1.05,-30.3939,-39.1394,-1.64379,1014.51
25514,-0.521282,9.8087,1.09039,0.35,0.28,-0.7,-31.2246,-38.2712,-1.48785,1014.51
25520,-0.549976,9.79914,1.10473,0,-0.14,-0.28,-30.9382,-37.7214,-0.892406,1014.51
25526,-0.535629,9.80392,1.13821,0.28,0.35,-0.49,-30.623,-38.1844,-1.37443,1014.51
25532,-0.545194,9.79914,1.1143,0.14,-0.49,0.07,-31.8548,-39.4288,-3.03315,1014.51
25538,-0.516499,9.78957,1.15734,-0.14,-0.42,0.28,-30.222,-37.9529,-1.92734,1014.51
25544,-0.521282,9.79914,1.15256,0.28,-0.42,0.42,-30.7949,-37.8371,-1.37443,1014.53
25550,-0.473458,9.75131,1.15734,0.14,-1.05,0.49,-30.3652,-39.2262,-2.40936,1014.53
25556,-0.454328,9.73218,1.16691,0.35,-0.21,0.21,-30.9668,-37.7503,-1.95569,1014.53
25562,-0.420851,9.71784,1.18125,0.35,-0.42,0.49,-30.2793,-37.7503,-1.53038,1014.5
25568,-0.483022,9.66523,1.21473,0.42,0.07,0,-29.9069,-39.2841,-1.91316,1014.5
25574,-0.468675,9.73697,1.14778,0.28,0.42,-0.21,-29.5631,-38.1844,-1.24683,1014.56
25580,-0.425634,9.77044,1.1143,0.98,0.35,-0.14,-30.9954,-37.4609,-0.807343,1014.56
25586,-0.430416,9.73697,1.12386,0.42,0.21,-0.21,-31.11,-38.6474,-0.62304,1014.56
25592,-0.439981,9.74653,1.13821,0.7,-0.42,-0.35,-30.1933,-38.9947,-2.52278,1014.56
25598,-0.473458,9.7274,1.12386,0.56,0.28,-0.63,-30.1647,-37.5188,-1.48785,1014.53
25604,-0.45911,9.7561,1.14778,0.35,-0.14,-0.56,-30.4225,-38.358,-1.75721,1014.53
25610,-0.430416,9.74175,1.10473,0,-0.14,-0.56,-29.735,-39.6603,-3.01898,1014.52
25616,-0.483022,9.76566,1.12386,0.42,0.21,-0.49,-30.0788,-38.1555,-1.62962,1014.52
25622,-0.492587,9.78001,1.14778,0.49,-0.35,-0.98,-30.1647,-38.0686,-0.183549,1014.53
25628,-0.473458,9.7561,1.14778,-17.29,0.28,-0.84,-30.1933,-38.8211,-2.29594,1014.53
25634,-0.516499,9.78479,1.14778,0.49,-0.56,-0.98,-30.7663,-39.3709,-1.98405,1014.51
25640,-0.483022,9.75131,1.1143,0.35,0.77,-0.56,-30.6803,-37.6346,-0.552154,1014.51
25646,-0.49737,9.74175,1.12386,0.07,0.84,-0.21,-30.8809,-38.2133,-1.44531,1014.51
25652,-0.535629,9.73697,1.14299,-0.14,0.77,-0.35,-30.1647,-39.1973,-3.0048,1014.55
25658,-0.502152,9.7274,1.14299,0.28,0.21,-0.21,-31.11,-37.2294,-1.38861,1014.55
25664,-0.511717,9.7274,1.13343,0.07,-0.42,-0.21,-30.9095,-37.9239,-1.02,1014.53
25670,-0.47824,9.7561,1.15256,0.21,-0.35,-0.07,-30.3652,-38.7342,-1.71468,1014.53
25676,-0.502152,9.76088,1.14778,0.63,0.21,0,-30.9095,-37.3162,-1.50202,1014.54
25682,-0.47824,9.77523,1.13343,0.28,0.14,-0.28,-30.136,-37.5477,-0.438737,1014.54
25688,-0.483022,9.73697,1.1143,0.21,0.21,-0.07,-30.5371,-38.8789,-2.28177,1014.5
25694,-0.540411,9.76566,1.14299,0.49,0.21,0.07,-30.5657,-37.6635,-2.16835,1014.5
25700,-0.559541,9.78479,1.14299,17.78,-0.28,0.07,-30.8809,-36.9111,-1.55873,1014.57
25706,-0.45911,9.78479,1.13343,0,-0.35,-0.21,-30.8809,-38.8211,-1.95569,1014.57
25712,-0.454328,9.74653,1.14299,0.21,0.28,-0.14,-30.5371,-38.6764,-2.15417,1014.5
25718,-0.468675,9.74653,1.16212,0,0.42,-0.28,-30.9668,-37.2294,-1.50202,1014.5
25724,-0.473458,9.74653,1.14299,0.14,0.63,-0.28,-30.4225,-37.9818,-1.62962,1014.5
25730,-0.502152,9.75131,1.14778,0.42,0.7,0,-30.0501,-39.0236,-1.23266,1014.53
25736,-0.521282,9.76088,1.11908,0.49,-0.49,-0.14,-30.7376,-37.3741,0.114171,1014.53
25742,-0.492587,9.74175,1.12865,0.28,0.49,0,-30.4225,-36.7374,-1.09089,1014.51
25748,-0.468675,9.76088,1.13343,0.28,-0.42,-0.14,-29.4199,-39.2841,-2.31012,1014.51
25754,-0.454328,9.75131,1.16691,0.49,0.07,-0.28,-30.3079,-37.6346,-1.23266,1014.56
25760,-0.487805,9.74175,1.17169,0,-0.49,-0.28,-30.4798,-36.969,-0.72228,1014.56
25766,-0.521282,9.74653,1.15734,0.35,0.28,-0.21,-29.8496,-38.358,-1.36025,1014.54
25772,-0.492587,9.74175,1.13821,0.56,0.35,-0.14,-29.8782,-38.4448,-2.33847,1014.54
25778,-0.511717,9.75131,1.15256,0.35,-0.07,0.28,-30.136,-36.9111,-1.62962,1014.51
25784,-0.47824,9.75131,1.13343,0.35,0.35,-0.07,-30.0215,-37.7503,-1.00582,1014.51
25790,-0.511717,9.73697,1.15256,0.35,-0.07,-0.35,-30.5371,-38.5895,-2.26759,1014.51
25796,-0.511717,9.76566,1.14778,0.21,0.28,0,-30.5944,-37.6056,-0.62304,1014.51
25802,-0.511717,9.76088,1.14778,0.28,-0.42,-0.35,-31.1387,-38.0976,-1.5162,1014.51
25808,-0.516499,9.77044,1.13343,0.49,-0.14,-0.14,-30.5657,-40.3838,-3.88378,1014.54
25814,-0.487805,9.75131,1.12386,0.42,-0.28,-0.14,-29.8782,-38.9079,-3.54353,1014.54
25820,-0.49737,9.76088,1.12386,-0.21,-0.14,-0.21,-31.4251,-37.8371,-0.977469,1014.51
25826,-0.506934,9.73218,1.16691,0.49,0.28,0.14,-30.7376,-38.5027,-1.8281,1014.51
25832,-0.502152,9.73697,1.14778,0.49,0.07,-0.07,-30.5085,-38.2712,-1.85645,1014.48
25838,-0.516499,9.79914,1.13343,0.07,-0.14,-0.07,-30.3366,-37.3162,-0.5238,1014.48
25844,-0.483022,9.7561,1.13821,0.63,-0.42,0.49,-29.7063,-37.7214,-1.13342,1014.52
25850,-0.502152,9.7561,1.14299,0.14,0.28,0,-30.3652,-38.7632,-1.36025,1014.52
25856,-0.487805,9.78001,1.12865,0,-0.7,0,-30.2506,-36.7953,-0.0843086,1014.52
25862,-0.492587,9.72262,1.12865,0.42,-0.56,0.49,-30.2506,-37.8661,-0.608863,1014.52
25868,-0.463893,9.74653,1.17169,0.28,-0.56,-0.07,-29.8496,-39.0815,-1.78557,1014.52
25874,-0.502152,9.7274,1.16691,0.77,-0.63,0.21,-30.136,-37.8082,-1.62962,1014.52
25880,-0.47824,9.7561,1.13821,0,0.49,0.56,-30.4798,-37.5767,-1.79974,1014.54
25886,-0.463893,9.76566,1.1143,0.14,-0.07,0,-29.9355,-38.1265,-0.665572,1014.54
25892,-0.47824,9.79436,1.11908,0.35,0.56,0.49,-30.0501,-37.8371,-1.24683,1014.54
25898,-0.463893,9.73218,1.14778,0.07,-0.07,-0.14,-30.5371,-37.5477,-0.396206,1014.5
25904,-0.47824,9.74653,1.17647,0.28,0.35,0.07,-30.9668,-37.6346,-1.14759,1014.5
25910,-0.473458,9.7561,1.15734,0.49,-0.28,0.07,-29.7923,-38.9947,-2.70708,1014.55
25916,-0.492587,9.75131,1.16212,0.56,-0.35,0,-30.4798,-37.5767,-2.08329,1014.55
25922,-0.487805,9.73218,1.13821,0.42,-0.42,0.21,-30.4225,-37.2873,-1.89898,1014.53
25928,-0.487805,9.7561,1.13343,0.21,-0.14,-0.07,-30.0788,-38.6185,-2.39518,1014.53
25934,-0.502152,9.74653,1.14299,0.7,0.63,0,-29.9928,-38.358,-2.12582,1014.55
25940,-0.506934,9.76566,1.11908,0.56,0.28,0.35,-30.623,-36.7664,-1.55873,1014.55
25946,-0.502152,9.77044,1.14299,-0.07,-0.21,0.35,-30.4798,-38.5027,-1.94151,1014.51
25952,-0.545194,9.78479,1.12386,0.49,-0.91,0.14,-29.8209,-38.3001,-2.1967,1014.51
25958,-0.502152,9.74653,1.12386,0.35,-0.35,0.35,-29.8782,-37.4609,-1.62962,1014.52
25964,-0.511717,9.74653,1.15734,0.14,-0.63,0.28,-30.4798,-37.9239,-1.47367,1014.52
25970,-0.492587,9.75131,1.13343,0.14,-0.21,0.7,-30.2793,-39.1683,-2.38101,1014.52
25976,-0.516499,9.77523,1.15734,-0.14,-0.63,0.35,-29.9069,-37.2005,-2.70708,1014.51
25982,-0.487805,9.76566,1.11908,-0.28,0.14,0.7,-30.5085,-37.1426,-2.08329,1014.51
25988,-0.435198,9.74653,1.10952,0.28,-0.7,0.21,-30.5944,-39.3709,-2.91974,1014.56
25994,-0.483022,9.75131,1.16691,0,-0.07,0.63,-30.1933,-38.1265,-2.09746,1014.56
26000,-0.439981,9.73218,1.15256,0.14,-0.35,0.21,-30.5944,-36.94,-1.47367,1014.52
26006,-0.454328,9.71305,1.17647,0.49,-0.56,0.07,-30.5944,-38.1844,-2.45189,1014.52
26012,-0.435198,9.74175,1.17647,0.63,0,0.14,-30.3939,-39.0526,-2.57949,1014.52
26018,-0.435198,9.7274,1.15256,0.21,-0.07,-0.28,-30.5944,-37.7503,-1.58709,1014.52
26024,-0.468675,9.73218,1.14299,0.42,0.14,-0.07,-30.6803,-37.9529,-1.38861,1014.53
26030,-0.473458,9.77523,1.10952,0.56,-0.14,-0.21,-29.8209,-38.1555,-1.31772,1014.53
26036,-0.483022,9.76566,1.11908,0,0.56,-0.35,-30.4798,-37.1137,-1.79974,1014.52
26042,-0.506934,9.76088,1.15734,0.56,0.14,-0.07,-30.7949,-37.7214,-1.57291,1014.52
26048,-0.516499,9.76566,1.12865,0.21,0.49,0.21,-30.7949,-38.4738,-3.17493,1014.5
26054,-0.526064,9.78479,1.1143,-0.07,-0.28,-0.07,-30.7376,-38.0976,-2.31012,1014.5
26060,-0.468675,9.77044,1.13343,0.28,-0.91,0.35,-31.0814,-36.7664,-0.778989,1014.5
26066,-0.45911,9.75131,1.14778,0.07,-0.28,0.42,-30.1074,-38.9947,-2.13999,1014.51
26072,-0.473458,9.76088,1.13821,0,-0.63,-0.07,-30.6803,-39.2551,-2.06911,1014.51
26078,-0.463893,9.7561,1.13821,0.07,0.28,0.49,-30.6517,-37.1715,-1.04835,1014.51
26084,-0.492587,9.75131,1.15256,0.14,-0.14,0.07,-30.8236,-37.5188,-1.17595,1014.51
26090,-0.468675,9.74653,1.15734,0,0.56,0.07,-30.0501,-39.1394,-1.99822,1014.51
26096,-0.473458,9.76088,1.15734,0.42,0,0.21,-29.6204,-37.3162,-1.41696,1014.51
26102,-0.487805,9.74175,1.14778,0.42,0.35,0.07,-29.7636,-37.8661,-1.53038,1014.55
26108,-0.511717,9.76566,1.13821,0.07,0.28,-0.14,-30.6517,-39.342,-2.15417,1014.55
26114,-0.516499,9.73697,1.16691,0.49,-17.43,0.42,-30.623,-38.2712,-1.11924,1014.53
26120,-0.502152,9.7561,1.15256,0.28,-0.07,0.07,-30.9382,-36.7374,-0.665572,1014.53
26126,-0.506934,9.77044,1.10473,0,-0.56,0.49,-29.7063,-38.5895,-1.30354,1014.52
26132,-0.416069,9.74653,1.12865,0.49,-0.42,0.77,-30.4512,-38.2423,-0.778989,1014.52
26138,-0.406504,9.73218,1.13821,0.07,-0.49,-0.14,-31.0814,-36.9111,-1.78557,1014.52
26144,-0.449546,9.70827,1.18125,-0.07,-0.14,0.07,-29.7636,-37.4609,-1.95569,1014.53
26150,-0.454328,9.76088,1.12386,0.77,17.64,0.7,-30.7663,-39.342,-2.12582,1014.53
26156,-0.444763,9.76088,1.10952,-0.35,-0.07,-0.28,-30.4225,-37.4899,-1.24683,1014.51
26162,-0.492587,9.77044,1.10473,0.35,0.21,0.28,-30.709,-37.3741,-0.736457,1014.51
26168,-0.454328,9.73697,1.14299,-0.28,0.07,0.63,-30.3366,-38.9079,-1.87063,1014.53
26174,-0.463893,9.75131,1.16212,-0.14,0.35,0,-30.7376,-37.6346,-2.26759,1014.53
26180,-0.483022,9.74175,1.18604,0.28,0.35,0.56,-30.6517,-37.432,-1.27519,1014.57
26186,-0.492587,9.7561,1.14778,-0.14,-17.43,0,-30.1647,-38.6764,-2.08329,1014.57
26192,-0.492587,9.7561,1.16212,0.63,0.21,0.21,-30.2793,-38.1844,-1.07671,1014.5
26198,-0.526064,9.78479,1.14299,0.35,0,0.7,-30.8809,-37.3741,-0.467091,1014.5
26204,-0.516499,9.78479,1.13343,0.28,-17.92,0.28,-30.9382,-38.2423,-1.34607,1014.51
26210,-0.526064,9.79436,1.11908,0.63,-0.28,0.56,-29.8782,-38.8789,-2.25341,1014.51
26216,-0.511717,9.82305,1.1143,0.35,-0.35,0.56,-30.136,-37.403,-0.991646,1014.52
26222,-0.487805,9.76088,1.15256,-0.07,-0.56,0.42,-30.0788,-37.7503,-1.43114,1014.52
26228,-0.420851,9.7274,1.16212,0.63,-0.21,1.12,-30.4225,-38.9947,-1.60126,1014.52
26234,-0.430416,9.7274,1.18604,0.49,-0.07,0.49,-29.3626,-38.1844,-2.16835,1014.51
26240,-0.406504,9.73218,1.16212,0.56,-0.07,0.35,-30.6803,-37.1715,-0.991646,1014.51
26246,-0.411286,9.75131,1.15734,0.49,-0.14,0.56,-29.7063,-38.4738,-1.87063,1014.5
26252,-0.430416,9.71784,1.17647,0.77,-0.35,0.35,-30.1933,-38.0108,-1.75721,1014.5
26258,-0.449546,9.74175,1.12865,0.07,-0.28,0.14,-30.5085,-36.7664,-0.382029,1014.55
26264,-0.45911,9.77044,1.1143,0.21,-0.35,0.56,-30.5371,-37.7214,-1.2043,1014.55
26270,-0.506934,9.78479,1.11908,0.35,-0.14,0.56,-30.3652,-38.1844,-2.76379,1014.59
26276,-0.483022,9.79914,1.14299,0,-0.63,0.21,-30.709,-37.5188,-1.61544,1014.59
26282,-0.511717,9.78001,1.17169,-0.14,-0.49,0.98,-30.3939,-37.3741,-1.85645,1014.52
26288,-0.49737,9.77523,1.12865,0.07,-0.07,0.91,-30.623,-39.1394,-1.61544,1014.52
26294,-0.516499,9.77044,1.15256,-0.14,-0.7,0.84,-30.8236,-37.9239,-1.67215,1014.52
26300,-0.521282,9.78957,1.15256,-0.14,-0.63,1.05,-30.709,-37.5477,-0.552154,1014.52
26306,-0.463893,9.78957,1.14778,0.21,-0.49,0.84,-30.6803,-38.4159,-1.5162,1014.52
26312,-0.449546,9.76088,1.14299,-0.07,-0.28,0.7,-29.9928,-38.4448,-1.54455,1014.54
26318,-0.396939,9.73218,1.12386,0.07,-0.14,0.63,-30.7376,-36.969,-1.23266,1014.54
26324,-0.411286,9.72262,1.16691,0,-0.14,0.98,-29.9928,-37.432,-1.10506,1014.52
26330,-0.454328,9.7561,1.14299,0.28,-0.14,0.91,-30.6803,-38.2712,-2.16835,1014.52
26336,-0.47824,9.78957,1.12386,-0.42,-0.63,0.98,-30.6517,-36.7374,-2.43771,1014.51
26342,-0.444763,9.75131,1.11908,-0.28,-0.7,1.12,-31.0241,-36.8532,-0.778989,1014.51
26348,-0.45911,9.74653,1.14778,-0.49,-0.28,1.12,-30.7376,-38.0108,-1.21848,1014.52
26354,-0.47824,9.7561,1.16691,-0.28,-0.28,1.12,-30.7376,-37.9239,-1.96987,1014.52
26360,-0.468675,9.76566,1.15734,-0.35,-0.14,1.26,-30.623,-36.5928,-1.85645,1014.56
26366,-0.492587,9.7561,1.18125,-0.14,17.15,1.26,-31.11,-37.6924,-3.07569,1014.56
26372,-0.430416,9.76566,1.18125,-0.56,-0.14,1.19,-29.9928,-37.8661,-2.3243,1014.53
26378,-0.439981,9.74653,1.17647,-0.14,0,1.26,-30.8809,-37.2873,-0.0276001,1014.53
26384,-0.382592,9.73218,1.14299,-0.14,-17.64,0.98,-30.7376,-37.3741,-2.11164,1014.53
26390,-0.435198,9.73697,1.16212,-0.28,-0.28,0.91,-30.709,-38.0108,-2.53695,1014.52
26396,-0.401722,9.69871,1.18125,-0.07,0.07,0.7,-30.3652,-37.2584,-2.08329,1014.52
26402,-0.387374,9.69871,1.21951,0.07,0.14,0.56,-31.4251,-36.5349,-0.410383,1014.51
26408,-0.373027,9.69871,1.18604,0.07,0.42,0.7,-31.2246,-38.4738,-2.36683,1014.51
26414,-0.420851,9.75131,1.15256,0.14,0,0.14,-30.4512,-37.7793,-2.43771,1014.51
26420,-0.454328,9.78001,1.14299,0.35,0.21,0.35,-30.709,-37.3741,-1.21848,1014.51
26426,-0.502152,9.76088,1.13821,0.21,-0.49,0.35,-30.5657,-38.7053,-1.58709,1014.51
26432,-0.45911,9.78479,1.09995,0.42,-0.35,0.7,-30.3366,-37.9239,-2.62202,1014.51
26438,-0.49737,9.81827,1.10473,-0.42,-0.35,0.84,-30.3939,-37.4899,-0.552154,1014.55
26444,-0.468675,9.78479,1.14299,-0.42,-0.56,0.84,-30.222,-37.7503,-1.79974,1014.55
26450,-0.473458,9.78479,1.17169,-0.07,-0.21,0.91,-30.1647,-38.5027,-1.55873,1014.54
26456,-0.401722,9.75131,1.18125,-0.42,-0.7,0.84,-30.2793,-37.4899,-0.991646,1014.54
26462,-0.363462,9.69871,1.18604,-0.56,-0.07,0.84,-30.2506,-36.94,-1.5162,1014.51
26468,-0.37781,9.71305,1.20516,-0.56,-0.14,0.56,-30.2793,-38.6474,-2.90556,1014.51
26474,-0.392157,9.71784,1.20516,-0.07,-0.42,0.14,-30.8522,-38.358,-1.06253,1014.51
26480,-0.406504,9.76088,1.15256,-0.07,0.28,0.63,-30.5085,-36.8532,-1.00582,1014.54
26486,-0.420851,9.7561,1.18604,0.21,0.49,0.14,-31.0527,-38.3001,-2.09746,1014.54
26492,-0.406504,9.74175,1.15734,0.14,0.63,0.14,-29.9642,-38.358,-1.13342,1014.49
26498,-0.454328,9.75131,1.15734,-0.21,0.14,0.21,-31.2819,-37.3452,-0.240257,1014.49
26504,-0.439981,9.77523,1.17169,0.35,-0.42,0.63,-31.0527,-37.9239,-1.61544,1014.52
26510,-0.411286,9.74653,1.13821,0.07,0.21,0.35,-30.5944,-38.0686,-2.18253,1014.52
26516,-0.444763,9.78479,1.12386,-0.28,-0.21,0.77,-30.3652,-37.2005,-1.28937,1014.52
26522,-0.487805,9.81827,1.12386,-0.14,-0.56,0.84,-30.6803,-37.2873,-0.793166,1014.52
26528,-0.45911,9.79914,1.14778,-0.42,-0.49,0.98,-30.222,-39.2262,-2.48025,1014.54
26534,-0.411286,9.74653,1.15256,-0.21,-0.56,1.05,-30.623,-37.5188,-1.24683,1014.54
26540,-0.37781,9.7561,1.18125,-0.77,-0.14,0.56,-30.623,-36.4481,-0.764811,1014.55
26546,-0.363462,9.72262,1.17169,-0.35,-0.14,0.28,-30.4225,-37.6635,-1.78557,1014.55
26552,-0.37781,9.72262,1.19082,-0.49,0.42,0.7,-30.6517,-38.0686,-2.43771,1014.55
26558,-0.411286,9.7274,1.17647,-0.42,-0.21,0.21,-31.1673,-36.7374,-1.17595,1014.52
26564,-0.430416,9.69392,1.16691,0.42,0.42,0.42,-30.9668,-37.9239,-0.82152,1014.52
26570,-0.401722,9.7274,1.18125,-0.35,-0.14,0.42,-30.9954,-39.4288,-2.04075,1014.5
26576,-0.406504,9.71784,1.19082,-0.42,-0.77,0.21,-30.7663,-37.6346,-1.45949,1014.5
26582,-0.392157,9.72262,1.18604,0.21,-0.42,0.35,-30.3366,-37.1715,-0.906583,1014.51
26588,-0.425634,9.74175,1.17647,-0.21,-0.42,0.21,-31.196,-38.358,-1.92734,1014.51
26594,-0.454328,9.74653,1.19082,-0.14,-0.28,0.35,-30.3652,-37.7503,-1.43114,1014.52
26600,-0.396939,9.75131,1.18125,0,-0.49,0.42,-30.7376,-36.8243,-1.16177,1014.52
26606,-0.396939,9.73218,1.16212,0.49,0.14,0.21,-30.5085,-38.6185,-2.23923,1014.55
26612,-0.420851,9.7274,1.18604,-0.14,0.35,0.14,-30.5371,-38.1844,-1.65797,1014.55
26618,-0.454328,9.78479,1.15734,0.14,0.35,0.21,-30.7663,-37.1715,0.326829,1014.51
26624,-0.454328,9.79436,1.15734,-0.21,-0.14,0.21,-31.11,-37.7793,-1.92734,1014.51
26630,-0.368245,9.7561,1.1956,-0.49,-0.77,0.14,-30.1933,-38.6185,-1.84227,1014.51
26636,-0.373027,9.71784,1.20516,0.28,0.07,0.21,-30.8236,-37.3162,-0.736457,1014.53
26642,-0.396939,9.7274,1.20038,0.28,-0.35,0,-30.8809,-37.3741,-1.3319,1014.53
26648,-0.463893,9.78001,1.16212,-0.14,-0.77,0.07,-30.5085,-38.4738,-2.67873,1014.54
26654,-0.49737,9.78479,1.18125,0.21,-0.56,0.7,-29.9928,-37.8661,-2.26759,1014.54
26660,-0.425634,9.7561,1.1956,-0.49,-0.42,0.42,-31.0527,-36.8821,-1.7005,1014.53
26666,-0.382592,9.76566,1.21473,-0.35,-0.28,0.56,-30.9954,-38.5606,-2.11164,1014.53
26672,-0.368245,9.73697,1.18604,0.21,-0.49,0.28,-31.2533,-38.0397,-1.61544,1014.55
26678,-0.392157,9.73218,1.20038,0.21,0.28,0.28,-31.2819,-36.3323,-1.41696,1014.55
26684,-0.373027,9.72262,1.22908,-0.21,-0.42,0.21,-30.3652,-37.432,-1.91316,1014.5
26690,-0.325203,9.70349,1.23386,0.49,0,0,-30.1074,-38.0686,-2.05493,1014.5
26696,-0.315638,9.68436,1.21951,0.42,0.35,-0.35,-30.5944,-37.2584,-1.44531,1014.52
26702,-0.392157,9.73218,1.17169,0.28,-0.14,0,-31.3106,-38.0686,-1.89898,1014.52
26708,-0.387374,9.75131,1.16212,0.07,-0.14,17.78,-30.9954,-38.9657,-2.74961,1014.53
26714,-0.416069,9.78479,1.16691,0.28,-0.14,-0.21,-30.623,-37.2584,-2.49442,1014.53
26720,-0.439981,9.78001,1.15256,-0.07,-0.35,0.14,-31.2533,-37.3452,-1.57291,1014.53
26726,-0.382592,9.76088,1.13821,-0.7,-0.21,-17.78,-30.5657,-37.8371,-3.48682,1014.54
26732,-0.401722,9.77044,1.19082,-0.21,-0.14,-0.07,-30.5085,-37.3162,-2.53695,1014.54
26738,-0.416069,9.72262,1.17169,-0.28,0.07,-0.07,-30.6517,-37.3452,-1.21848,1014.56
26744,-0.492587,9.77523,1.21473,0.21,-0.14,17.85,-31.0241,-38.0976,-2.1967,1014.56
26750,-0.449546,9.79436,1.17169,-0.14,0.07,0.07,-30.5085,-38.4738,-2.0124,1014.53
26756,-0.373027,9.77044,1.15734,-0.42,-0.56,0,-31.7403,-37.7793,-2.42354,1014.53
26762,-0.401722,9.71784,1.21473,-0.21,0.07,0.07,-31.2533,-37.3452,-1.81392,1014.53
26768,-0.396939,9.71784,1.23864,-0.21,-0.42,-0.21,-30.8809,-38.4159,-2.21088,1014.53
26774,-0.444763,9.7561,1.18604,-0.28,-0.28,0.14,-31.0241,-37.432,-2.49442,1014.52
26780,-0.387374,9.74175,1.18125,0.14,-0.49,0.07,-30.7376,-37.9529,-0.864051,1014.52
26786,-0.387374,9.71305,1.21473,-0.21,-0.63,-0.35,-30.4798,-38.1555,-2.31012,1014.54
26792,-0.396939,9.74175,1.1956,0.14,0.21,0.28,-30.4798,-38.5317,-1.87063,1014.54
26798,-0.373027,9.7274,1.17169,0.14,-0.28,17.71,-31.0527,-37.3741,-1.2043,1014.54
26804,-0.387374,9.72262,1.21473,-0.28,0.14,-0.49,-31.8835,-37.6346,-1.96987,1014.52
26810,-0.392157,9.70349,1.20995,0.49,0.56,-0.14,-30.9954,-38.5606,-1.65797,1014.52
26816,-0.329986,9.7274,1.18125,0.49,0.35,-0.77,-30.5944,-37.4609,-0.963291,1014.53
26822,-0.411286,9.7561,1.20038,0.14,0.56,-0.42,-31.3106,-37.6635,-2.02658,1014.53
26828,-0.435198,9.78479,1.14778,0.28,-0.56,-0.35,-30.7663,-38.6764,-2.36683,1014.52
26834,-0.435198,9.78957,1.16212,0.7,0.28,-0.35,-30.1647,-37.403,-1.53038,1014.52
26840,-0.425634,9.77523,1.14778,-0.07,-0.42,-0.07,-31.2819,-37.0268,-1.57291,1014.54
26846,-0.454328,9.77523,1.18604,-0.42,-0.84,0,-31.3106,-38.9368,-1.28937,1014.54
26852,-0.516499,9.7561,1.20516,0.21,-0.84,0.21,-30.9382,-38.6764,-2.43771,1014.54
26858,-0.473458,9.75131,1.1956,-0.14,-1.12,0.21,-31.196,-36.6217,-0.5238,1014.54
26864,-0.368245,9.74175,1.20516,-0.21,-0.07,0.21,-30.8809,-37.9239,-1.58709,1014.53
26870,-0.353898,9.7561,1.20995,0.49,-0.28,0.07,-30.8522,-38.3001,-1.44531,1014.53
26876,-0.392157,9.71784,1.21951,0.42,0.21,0.07,-31.1387,-37.8661,-0.708103,1014.55
26882,-0.396939,9.70349,1.22429,0.28,0.14,-0.21,-31.2819,-37.3452,-1.28937,1014.55
26888,-0.35868,9.75131,1.21473,0.35,0.28,-0.07,-30.9095,-38.2133,-1.87063,1014.55
26894,-0.353898,9.71305,1.24342,0.35,0.49,-0.14,-31.4824,-37.3741,-1.95569,1014.53
26900,-0.37781,9.68914,1.21473,0.35,-0.21,-0.28,-31.1387,-36.7664,-1.79974,1014.53
26906,-0.416069,9.74175,1.18604,0.63,0.35,-0.21,-30.9954,-38.3291,-1.7005,1014.53
26912,-0.406504,9.73218,1.20995,0.63,0.07,-0.42,-31.1673,-38.5317,-1.65797,1014.53
26918,-0.463893,9.79436,1.17647,0.49,-0.14,-0.35,-31.4538,-37.3162,-1.00582,1014.52
26924,-0.425634,9.74175,1.18125,0.28,-0.07,-0.14,-31.2819,-37.7793,-0.991646,1014.52
26930,-0.420851,9.77044,1.20038,0.28,-0.28,0,-30.9668,-38.4738,-1.2043,1014.53
26936,-0.468675,9.77523,1.19082,0.91,0.07,-0.07,-30.7663,-37.1137,-0.183549,1014.53
26942,-0.468675,9.77044,1.20995,0.35,-0.49,-0.14,-31.5397,-36.8821,-1.19013,1014.51
26948,-0.363462,9.7561,1.20516,0.28,-0.35,0.28,-30.3366,-38.2133,-1.72886,1014.51
26954,-0.37781,9.74175,1.1956,0.56,0.28,0.28,-30.5944,-38.1265,-2.06911,1014.53
26960,-0.368245,9.73697,1.22429,0.07,0,0.14,-30.9095,-37.9239,-1.03418,1014.53
26966,-0.396939,9.75131,1.18604,0.21,0.28,0,-30.709,-38.7632,-2.08329,1014.53
26972,-0.406504,9.73697,1.23864,0.42,0.21,0.21,-29.8782,-38.7053,-2.43771,1014.53
26978,-0.368245,9.71784,1.22908,0.35,0.14,-0.42,-31.4251,-36.9111,-1.13342,1014.53
26984,-0.401722,9.71305,1.23864,0.7,-0.07,0,-31.0527,-37.895,-1.81392,1014.55
26990,-0.411286,9.78001,1.20038,0.77,-0.77,-0.14,-30.7663,-38.8789,-3.72783,1014.55
26996,-0.396939,9.75131,1.1956,0.21,-0.21,-0.21,-30.4225,-37.0558,-2.5086,1014.56
27002,-0.349115,9.73218,1.22908,0.42,-0.35,-0.14,-30.222,-36.4191,-2.33847,1014.56
27008,-0.344333,9.70349,1.1956,0.91,0.28,-0.56,-30.9382,-37.6056,-2.21088,1014.51
27014,-0.401722,9.69392,1.21473,0.84,-0.07,-0.42,-30.7376,-37.432,-1.91316,1014.51
27020,-0.411286,9.76566,1.16212,1.19,0.49,-0.56,-30.8522,-37.2584,-0.382029,1014.49
27026,-0.420851,9.75131,1.17169,0.91,0.63,-0.49,-30.0788,-38.358,-2.25341,1014.49
27032,-0.368245,9.74175,1.19082,0.77,0.63,-0.42,-31.1387,-38.9368,-1.30354,1014.54
27038,-0.387374,9.76566,1.17647,0.84,0.49,0,-31.3679,-36.8532,-0.467091,1014.54
27044,-0.47824,9.79914,1.17169,0.91,-0.7,-0.28,-30.709,-37.895,-1.5162,1014.54
27050,-0.449546,9.82783,1.12386,0.21,-0.42,0.42,-30.9668,-38.4738,-2.18253,1014.53
27056,-0.37781,9.79914,1.12865,0.07,-0.35,0.07,-30.6517,-37.4609,-1.74303,1014.53
27062,-0.363462,9.72262,1.22429,-0.07,0.42,0.07,-31.1387,-37.432,-1.44531,1014.53
27068,-0.382592,9.71784,1.20995,0.35,0.07,0.14,-31.4251,-39.2262,-1.84227,1014.53
27074,-0.425634,9.71784,1.21951,0.28,0.28,-0.28,-31.0814,-37.9239,-2.06911,1014.53
27080,-0.382592,9.7561,1.17169,0.56,0.07,-0.07,-30.1074,-37.403,-1.8281,1014.53
27086,-0.373027,9.7561,1.18604,0.28,0.21,-0.07,-30.4225,-38.7921,-1.89898,1014.53
27092,-0.349115,9.73218,1.25299,0.63,0.07,-0.49,-31.196,-38.5317,-1.36025,1014.53
27098,-0.382592,9.69871,1.24342,0.77,0.42,-0.21,-30.3652,-37.1426,-2.05493,1014.52
27104,-0.396939,9.71784,1.20995,0.84,0.28,-0.28,-30.3652,-37.8661,-2.57949,1014.52
27110,-0.396939,9.72262,1.20038,1.12,0.28,-0.63,-30.7663,-38.2712,-2.96227,1014.52
27116,-0.382592,9.72262,1.23386,1.4,0.14,-0.7,-31.5397,-36.9111,-0.849874,1014.52
27122,-0.373027,9.73218,1.20038,0.63,-0.07,-0.63,-30.5371,-37.8371,-2.0124,1014.54
27128,-0.401722,9.76088,1.16212,1.33,0,-0.56,-30.9954,-38.387,-1.64379,1014.54
27134,-0.454328,9.78957,1.16691,0.77,0.21,-0.49,-30.623,-37.432,-1.7005,1014.54
27140,-0.416069,9.78479,1.16691,0.56,0.56,-0.63,-30.9954,-36.6506,-0.665572,1014.53
27146,-0.396939,9.7561,1.17169,0.7,0.07,-0.49,-30.2506,-37.7503,-2.65037,1014.53
27152,-0.473458,9.79914,1.15256,0.49,-0.28,-0.21,-30.6803,-38.1265,-2.06911,1014.51
27158,-0.47824,9.81349,1.17169,0.28,-0.42,-0.07,-31.1387,-36.6506,-1.06253,1014.51
27164,-0.406504,9.79914,1.17169,0.07,-0.07,0,-30.1647,-37.9818,-1.67215,1014.56
27170,-0.411286,9.76566,1.19082,0.21,0,-0.07,-30.2506,-38.9657,-2.06911,1014.56
27176,-0.392157,9.77044,1.20038,0.21,0.28,0,-30.5944,-37.2294,-0.892406,1014.54
27182,-0.373027,9.75131,1.20516,0,0.07,-0.42,-30.623,-36.969,-2.02658,1014.54
27188,-0.349115,9.73218,1.20516,-0.21,0.14,0,-30.4798,-38.6185,-3.24581,1014.51
27194,-0.382592,9.71305,1.24342,0.91,0.14,-0.35,-30.4798,-38.6185,-0.991646,1014.51
27200,-0.387374,9.73218,1.20516,0.49,0.42,-0.49,-30.9095,-36.7374,-1.8281,1014.54
27206,-0.373027,9.72262,1.20038,0.63,0.42,-0.14,-29.9355,-38.9079,-2.43771,1014.54
27212,-0.373027,9.72262,1.18125,0.63,0.49,-0.56,-30.5944,-38.1265,-2.25341,1014.54
27218,-0.396939,9.7274,1.18125,0.35,0.07,-0.56,-30.7949,-36.6796,-1.10506,1014.53
27224,-0.368245,9.68914,1.21473,0.28,0,-0.49,-30.7376,-37.2005,-1.72886,1014.53
27230,-0.373027,9.71784,1.1956,1.05,0.07,-0.98,-30.2793,-37.4609,-2.12582,1014.56
27236,-0.392157,9.72262,1.20038,0.84,0.07,-0.91,-30.3079,-36.8243,-1.45949,1014.56
27242,-0.420851,9.7561,1.14299,0.14,0.77,-0.21,-29.7923,-36.9111,-1.91316,1014.55
27248,-0.430416,9.75131,1.14299,0.7,0.56,-0.56,-29.9069,-38.0686,-2.8205,1014.55
27254,-0.526064,9.8087,1.16212,0.91,0.14,-0.28,-31.0527,-37.4899,-0.906583,1014.51
27260,-0.487805,9.82783,1.15256,0.07,-0.28,-0.07,-30.7376,-36.4191,-0.82152,1014.51
27266,-0.45911,9.8087,1.16691,0.77,-0.49,-0.21,-29.9355,-38.5317,-1.58709,1014.53
27272,-0.416069,9.80392,1.14778,0.7,-0.21,0.14,-30.8809,-38.2133,-2.36683,1014.53
27278,-0.45911,9.78001,1.17169,0.14,-0.14,0.35,-30.8236,-37.1137,-0.878229,1014.54
27284,-0.392157,9.74653,1.1956,0.21,-0.07,0.49,-30.4512,-37.5188,-0.793166,1014.54
27290,-0.401722,9.74175,1.1956,0.56,-0.21,0.14,-30.5944,-38.2712,-1.78557,1014.55
27296,-0.33955,9.71784,1.19082,0.63,0.56,0.07,-30.9668,-36.969,-1.06253,1014.55
27302,-0.353898,9.69392,1.1956,0.28,0.42,0,-30.9668,-37.3741,-1.17595,1014.55
27308,-0.382592,9.69392,1.1956,0.91,0.49,-0.07,-30.7949,-38.7342,-2.02658,1014.53
27314,-0.368245,9.70349,1.1956,0.91,-0.21,-0.28,-30.3366,-38.0397,-1.68633,1014.53
27320,-0.349115,9.68436,1.21473,0.91,0.42,-0.35,-31.1673,-38.3291,-0.72228,1014.54
27326,-0.363462,9.73218,1.17647,1.12,-0.14,-0.56,-30.8236,-38.1844,-1.68633,1014.54
27332,-0.392157,9.73697,1.13821,1.12,0.42,-0.98,-31.1673,-37.9239,-1.87063,1014.52
27338,-0.416069,9.73697,1.13821,0.35,0.14,-0.63,-31.3106,-36.8243,-1.78557,1014.52
27344,-0.416069,9.77523,1.15734,0.84,0.56,-0.56,-31.0241,-37.7503,-2.38101,1014.53
27350,-0.430416,9.76088,1.16212,0.63,0.07,-0.77,-30.3939,-38.3001,-2.72126,1014.53
27356,-0.444763,9.76088,1.17647,0.7,0.63,-0.42,-29.9069,-37.2005,-1.14759,1014.51
27362,-0.425634,9.79914,1.16691,0.7,0.07,-0.49,-30.5085,-36.7085,-1.36025,1014.51
27368,-0.483022,9.79914,1.15734,0.14,-0.49,-0.56,-30.222,-38.5317,-3.3167,1014.54
27374,-0.463893,9.80392,1.16212,0.56,-0.7,0.14,-30.709,-38.0397,-1.89898,1014.54
27380,-0.483022,9.8087,1.16691,0.77,-0.56,0.21,-30.4512,-37.6924,-1.43114,1014.54
27386,-0.487805,9.77044,1.15734,0.14,0.28,-0.56,-31.3679,-39.2551,-3.38758,1014.54
27392,-0.401722,9.77523,1.15734,0.28,-0.14,0.42,-30.623,-38.6474,-2.3243,1014.54
27398,-0.382592,9.73697,1.18125,0.21,0.49,0.28,-30.5085,-36.5638,-0.580509,1014.5
27404,-0.392157,9.71784,1.20516,0.49,-0.07,0.07,-30.5371,-38.0976,-1.54455,1014.5
27410,-0.37781,9.74175,1.1956,0.28,-0.14,-0.07,-30.5371,-38.9368,-1.89898,1014.52
27416,-0.373027,9.73218,1.20516,0.49,-0.35,-0.21,-31.0241,-36.7953,-1.40278,1014.52
27422,-0.387374,9.75131,1.18125,0.14,0,-0.21,-31.0241,-37.5767,-1.28937,1014.5
27428,-0.368245,9.71305,1.16691,0.98,-0.42,-0.28,-30.5944,-38.3001,-1.43114,1014.5
27434,-0.349115,9.71784,1.16691,0.91,0.56,-0.63,-30.6803,-38.3001,-2.09746,1014.53
27440,-0.411286,9.73218,1.18604,0.77,0.84,-0.56,-30.709,-36.6506,-1.85645,1014.53
27446,-0.430416,9.7561,1.17169,0.42,0.21,-0.14,-31.0241,-37.9529,-3.04733,1014.51
27452,-0.511717,9.8087,1.13343,0.42,0.56,-0.14,-31.1387,-38.1844,-3.17493,1014.51
27458,-0.487805,9.82783,1.14299,0.07,-0.28,0,-30.709,-36.8243,-1.21848,1014.51
27464,-0.449546,9.85653,1.1143,0.28,0.28,0,-30.7663,-37.1715,-1.79974,1014.5
27470,-0.473458,9.77044,1.18604,0.21,-0.49,0,-30.7376,-38.4448,-1.84227,1014.5
27476,-0.425634,9.77044,1.20995,0.49,-0.77,0.21,-31.196,-36.7085,-0.864051,1014.53
27482,-0.502152,9.8087,1.16212,0.56,-0.21,0.77,-30.8809,-36.8532,-0.537977,1014.53
27488,-0.45911,9.81827,1.14299,-0.07,-0.77,0.56,-30.222,-37.9239,-1.78557,1014.49
27494,-0.334768,9.73697,1.17169,-0.7,-0.42,0.49,-30.4512,-37.1715,-0.949114,1014.49
27500,-0.33955,9.69871,1.23864,0.56,-1.05,0.7,-30.8522,-36.5928,-0.693926,1014.55
27506,-0.425634,9.70349,1.21951,0.28,0,0.21,-30.6803,-38.2712,-1.72886,1014.55
27512,-0.392157,9.76088,1.10952,-0.28,-0.07,0.28,-31.2819,-37.8371,-1.61544,1014.53
27518,-0.368245,9.77044,1.15734,0.21,0.14,0.28,-30.9954,-36.7664,-0.537977,1014.53
27524,-0.334768,9.69871,1.20516,0.28,-0.21,-0.21,-30.7376,-38.1844,-1.26101,1014.53
27530,-0.35868,9.6748,1.23864,0.07,0.14,0.07,-30.4225,-38.2133,-1.07671,1014.53
27536,-0.382592,9.68914,1.24821,0.63,-0.21,-0.63,-30.7663,-36.8821,-1.36025,1014.49
27542,-0.382592,9.70349,1.20995,0.42,0.14,-0.42,-31.3679,-37.1426,-1.07671,1014.49
27548,-0.37781,9.7274,1.16212,0.56,0.21,-0.07,-30.3079,-38.9657,-1.72886,1014.49
27554,-0.37781,9.73218,1.19082,0.98,0.14,-0.56,-30.136,-37.2584,-1.92734,1014.55
27560,-0.396939,9.79436,1.13343,0.35,0,-0.21,-30.4225,-36.5638,-1.47367,1014.55
27566,-0.468675,9.79914,1.11908,0.49,-0.21,0.07,-30.4798,-38.1555,-2.67873,1014.51
27572,-0.411286,9.85653,1.06169,0.14,-0.21,-0.35,-30.3079,-38.0976,-3.3167,1014.51
27578,-0.435198,9.79914,1.15256,-0.35,-0.21,0.21,-31.1387,-37.0558,-1.13342,1014.54
27584,-0.435198,9.78001,1.17647,-0.49,0.14,0.42,-30.6517,-37.8371,-2.23923,1014.54
27590,-0.435198,9.78479,1.1956,0.56,0,0,-30.3939,-38.7632,-1.8281,1014.55
27596,-0.468675,9.81349,1.15734,-0.14,-0.42,0.21,-31.3965,-37.1715,-1.57291,1014.55
27602,-0.444763,9.8087,1.12865,-0.42,-0.28,0.91,-30.9668,-37.8661,-1.67215,1014.52
27608,-0.406504,9.77044,1.14299,0,-0.35,0.63,-30.8522,-38.7053,-1.55873,1014.52
27614,-0.387374,9.74175,1.21473,0,0.07,0.77,-30.7376,-37.1426,-1.92734,1014.52
27620,-0.425634,9.76088,1.19082,-0.49,-0.14,0.77,-30.9668,-36.7374,-2.36683,1014.52
27626,-0.392157,9.69871,1.20516,0.21,-0.21,0.7,-30.9095,-38.1265,-2.11164,1014.52
27632,-0.33955,9.68436,1.21951,0.35,0,0.49,-30.3939,-38.1265,-2.26759,1014.51
27638,-0.37781,9.69392,1.22429,0.21,-0.21,0.63,-30.1933,-36.8532,-1.8281,1014.51
27644,-0.353898,9.71305,1.20995,0.42,-0.14,0.35,-31.3679,-38.6764,-2.21088,1014.52
27650,-0.320421,9.71784,1.20516,0.35,-0.14,0.14,-30.709,-38.4738,-2.35265,1014.52
27656,-0.353898,9.71305,1.22908,0.14,-0.14,0.14,-31.2246,-37.4899,-2.35265,1014.53
27662,-0.382592,9.72262,1.20038,0.77,0.07,0.07,-30.6517,-36.6796,-3.10404,1014.53
27668,-0.463893,9.8087,1.16212,0.56,0.28,0.21,-30.7949,-38.3001,-3.40176,1014.5
27674,-0.502152,9.82305,1.12865,0.14,-0.14,0.28,-31.3106,-36.94,-2.36683,1014.5
27680,-0.506934,9.84696,1.10473,0.14,-0.28,0.63,-31.2246,-37.4609,-1.43114,1014.51
27686,-0.368245,9.77044,1.16212,-0.49,-0.63,0.7,-30.7663,-38.8789,-1.62962,1014.51
27692,-0.411286,9.79914,1.18125,0.28,-0.14,0.63,-30.5657,-37.8082,-2.25341,1014.55
27698,-0.454328,9.79914,1.15256,-0.35,-0.28,0.56,-30.7949,-37.2294,-0.949114,1014.55
27704,-0.425634,9.82783,1.15256,-0.7,-0.28,0.91,-30.7663,-38.2712,-2.63619,1014.56
27710,-0.334768,9.74653,1.18604,-0.21,-0.7,0.77,-31.1387,-38.5027,-2.38101,1014.56
27716,-0.334768,9.70827,1.24342,-0.28,-0.35,0.63,-31.1673,-37.403,-1.41696,1014.56
27722,-0.349115,9.73697,1.21951,-0.35,-0.7,0.63,-30.623,-37.0268,-2.8205,1014.54
27728,-0.344333,9.76566,1.19082,-0.28,-0.35,0.63,-30.8236,-38.4738,-2.99062,1014.54
27734,-0.35868,9.71784,1.22908,-0.14,-0.7,0.42,-31.0527,-37.8661,-2.35265,1014.51
27740,-0.315638,9.71784,1.22429,0.28,-0.14,0.42,-30.9668,-37.7214,-1.85645,1014.51
27746,-0.320421,9.74653,1.18604,0.07,0.49,0.49,-29.9069,-38.5606,-2.86303,1014.5
27752,-0.301291,9.70827,1.19082,0.07,0.63,-0.35,-30.4798,-38.0108,-2.04075,1014.5
27758,-0.373027,9.70827,1.19082,0,0.84,0.28,-30.1647,-37.1137,-1.34607,1014.52
27764,-0.344333,9.71784,1.1956,0.42,-0.21,0.14,-30.0788,-37.9818,-2.22506,1014.52
27770,-0.449546,9.76566,1.18125,-0.14,0.49,-0.07,-31.0241,-38.5027,-2.73543,1014.54
27776,-0.483022,9.82305,1.15734,-0.28,-0.28,0.7,-31.4824,-37.1426,-1.03418,1014.54
27782,-0.435198,9.79914,1.15256,-0.14,-0.35,0.63,-30.5657,-37.9239,-2.1967,1014.55
27788,-0.435198,9.76566,1.21951,-0.63,-0.28,0.56,-31.3679,-39.7182,-3.24581,1014.55
27794,-0.392157,9.76088,1.20516,-0.14,-0.42,0.7,-31.196,-37.0558,-2.09746,1014.55
27800,-0.430416,9.79436,1.21473,-0.49,0,0.84,-31.0241,-37.1715,-1.09089,1014.5
27806,-0.416069,9.77044,1.21473,-0.77,-0.35,0.77,-31.2819,-39.1394,-2.22506,1014.5
27812,-0.353898,9.73697,1.23864,-0.98,0.21,0.56,-30.5085,-37.6056,-2.45189,1014.53
27818,-0.291726,9.72262,1.21951,-0.56,-0.21,0.77,-30.5371,-36.7953,-1.06253,1014.53
27824,-0.349115,9.7274,1.22908,0.42,0.35,0.63,-31.2533,-38.2133,-1.87063,1014.52
27830,-0.344333,9.7274,1.20516,0.14,-0.07,0.7,-31.5111,-38.7053,-2.96227,1014.52
27836,-0.344333,9.70827,1.21473,0.42,-0.14,0.77,-30.8522,-37.1137,-1.84227,1014.56
27842,-0.353898,9.71784,1.21473,-0.07,-0.07,0,-30.2506,-37.6346,-2.11164,1014.56
27848,-0.35868,9.7561,1.20038,0,-0.14,0.21,-30.9095,-38.9368,-2.52278,1014.55
27854,-0.387374,9.8087,1.12386,0.63,0.56,0.07,-30.7376,-37.3741,-1.94151,1014.55
27860,-0.416069,9.79436,1.12386,-0.7,0.21,0.21,-31.2819,-36.477,-2.11164,1014.52
27866,-0.425634,9.81827,1.18604,-0.56,0.63,0.49,-30.8522,-37.895,-2.60784,1014.52
27872,-0.444763,9.78479,1.1956,-0.49,-0.42,0.42,-30.5371,-37.8082,-1.38861,1014.52
27878,-0.368245,9.76566,1.20038,0.42,0,0.42,-31.0814,-36.014,-0.382029,1014.52
27884,-0.416069,9.74653,1.20516,-0.42,-0.77,0.84,-30.9668,-38.6474,-2.33847,1014.52
27890,-0.454328,9.76566,1.20995,-0.21,-0.07,0.98,-30.8522,-38.358,-2.02658,1014.54
27896,-0.406504,9.73218,1.24821,0.21,-0.35,1.19,-30.8236,-36.3902,-1.84227,1014.54
27902,-0.334768,9.74175,1.22429,0.28,0.49,1.26,-30.9954,-36.969,-2.3243,1014.51
27908,-0.373027,9.76088,1.22908,0,-0.35,0.7,-30.9954,-38.1844,-1.77139,1014.51
27914,-0.363462,9.77523,1.1956,0.35,0.07,1.19,-31.1387,-36.2744,-1.10506,1014.51
27920,-0.349115,9.77523,1.17647,0.14,-0.56,0.7,-30.9095,-36.7953,-2.0124,1014.51
27926,-0.282162,9.7274,1.17647,0.07,-0.56,1.05,-30.623,-38.7342,-1.84227,1014.5
27932,-0.363462,9.77523,1.17169,-0.21,-0.84,0.77,-30.4512,-38.7632,-2.36683,1014.5
27938,-0.320421,9.71784,1.18125,0.14,-0.63,0.63,-30.7376,-36.3323,-1.98405,1014.52
27944,-0.286944,9.71784,1.21473,0.14,0.42,0.63,-30.4225,-38.1844,-1.36025,1014.52
27950,-0.310856,9.66523,1.26255,-0.07,0,0.35,-30.7949,-38.1555,-2.53695,1014.53
27956,-0.315638,9.68914,1.20995,0.14,0.21,0.14,-31.3679,-37.4899,-1.13342,1014.53
27962,-0.33955,9.73218,1.20038,0.49,-0.21,0.21,-31.683,-37.3452,-2.33847,1014.53
27968,-0.387374,9.74175,1.21473,-0.49,0.42,0.07,-31.0241,-38.0397,-2.87721,1014.53
27974,-0.396939,9.76566,1.16212,-0.42,-0.42,0.35,-31.0814,-36.6506,-1.60126,1014.53
27980,-0.435198,9.81827,1.16212,-0.07,-0.42,0.56,-30.9668,-36.3612,-1.54455,1014.53
27986,-0.411286,9.87087,1.13821,-0.21,-0.49,0.56,-32.0554,-38.5606,-2.05493,1014.53
27992,-0.382592,9.78479,1.1956,-0.91,0.07,0.56,-30.9095,-37.432,-2.45189,1014.5
27998,-0.387374,9.77523,1.21951,-0.63,-0.21,0.98,-31.8548,-37.0558,-0.467091,1014.5
28004,-0.353898,9.73697,1.26734,-0.56,-0.21,0.63,-31.196,-37.7793,-2.67873,1014.51
28010,-0.382592,9.75131,1.27212,-0.49,0.14,1.12,-30.4798,-38.1265,-2.97645,1014.51
28016,-0.315638,9.67958,1.25777,0.49,-0.35,0.77,-30.7949,-37.0268,-1.31772,1014.52
28022,-0.243902,9.68436,1.26255,-0.21,0.7,0.56,-30.9095,-37.7214,-0.92076,1014.52
28028,-0.334768,9.68436,1.26734,0.35,0,0.56,-30.3079,-38.1555,-2.94809,1014.51
28034,-0.272597,9.73697,1.23864,0.35,-0.7,0.14,-30.709,-36.5349,-1.77139,1014.51
28040,-0.286944,9.73697,1.1956,0.35,-0.21,0.28,-30.5371,-36.6506,-1.26101,1014.51
28046,-0.306074,9.74653,1.1956,0.56,-0.28,-0.07,-30.7376,-37.7214,-0.92076,1014.52
28052,-0.35868,9.76088,1.15256,-0.28,0.42,0.28,-30.6517,-38.3291,-2.21088,1014.52
28058,-0.392157,9.78957,1.17647,0.21,-0.28,-0.07,-30.7376,-36.0719,-0.835697,1014.53
28064,-0.373027,9.82783,1.14778,0.14,0.35,0.63,-31.3679,-37.7503,-1.74303,1014.53
28070,-0.387374,9.81349,1.14778,-0.63,0.21,0.56,-31.2819,-37.7503,-2.79214,1014.53
28076,-0.349115,9.77044,1.1956,-0.28,-0.21,0.28,-30.5085,-36.8532,-0.367851,1014.53
28082,-0.35868,9.7561,1.1956,-1.05,0.14,0.21,-31.196,-37.2005,-1.47367,1014.53
28088,-0.368245,9.73218,1.20516,-0.91,-0.28,0.63,-30.9668,-39.4577,-2.5086,1014.53
28094,-0.396939,9.76566,1.22908,-0.14,-0.21,0.91,-30.5944,-36.94,-1.43114,1014.51
28100,-0.382592,9.76088,1.21473,-0.84,-0.49,0.91,-31.3392,-36.9111,-1.10506,1014.51
28106,-0.387374,9.76566,1.21951,-0.56,-0.91,0.7,-31.1387,-38.0686,-1.91316,1014.54
28112,-0.363462,9.81349,1.20995,-0.91,-0.91,1.12,-30.7663,-37.9529,-1.87063,1014.54
28118,-0.301291,9.74653,1.26255,-0.56,-0.7,0.7,-30.4512,-36.5928,-0.977469,1014.54
28124,-0.301291,9.68914,1.25299,-0.14,0,1.19,-31.11,-38.387,-1.57291,1014.48
28130,-0.329986,9.69871,1.26734,-0.56,-0.56,0.7,-30.709,-37.6346,-1.94151,1014.48
28136,-0.306074,9.69871,1.22429,-0.28,-0.28,0.49,-31.597,-36.3323,-0.793166,1014.53
28142,-0.267814,9.70827,1.22429,0.42,-0.77,0.35,-30.5657,-37.5767,-1.31772,1014.53
28148,-0.310856,9.71784,1.25299,0.7,-0.28,0.07,-30.8236,-38.6474,-1.92734,1014.53
28154,-0.315638,9.74175,1.23386,0.07,-0.35,0.14,-31.2246,-37.1137,-1.79974,1014.53
28160,-0.368245,9.79914,1.15256,0,-0.14,0.28,-30.709,-37.1715,-1.27519,1014.55
28166,-0.382592,9.84218,1.14778,-0.21,-0.42,0.28,-31.2819,-38.1265,-2.11164,1014.55
28172,-0.349115,9.78479,1.20516,-0.77,-0.28,0.77,-31.3392,-37.9529,-3.03315,1014.54
28178,-0.33955,9.74653,1.20516,-0.56,-0.28,0.63,-31.2533,-36.969,-1.14759,1014.54
28184,-0.368245,9.77523,1.24821,-0.42,-0.91,0.56,-31.1673,-37.8371,-1.10506,1014.51
28190,-0.387374,9.74175,1.23386,-0.42,-0.49,0.63,-32.17,-39.2551,-3.21746,1014.51
28196,-0.315638,9.76566,1.22429,-0.28,-0.21,0.49,-30.8236,-36.9111,-2.23923,1014.52
28202,-0.296509,9.7274,1.26734,-0.14,0,0.77,-31.5397,-37.4609,-1.91316,1014.52
28208,-0.349115,9.71784,1.2769,0.14,0,0.63,-31.2533,-38.7632,-2.73543,1014.52
28214,-0.382592,9.7274,1.26255,0.42,-0.63,0.7,-31.1387,-37.9239,-3.08986,1014.53
28220,-0.334768,9.77523,1.20516,0.28,0.07,0.77,-31.0241,-36.9111,-0.934937,1014.53
28226,-0.320421,9.77044,1.20995,0.07,-1.19,0.84,-30.9668,-38.4448,-2.67873,1014.52
28232,-0.272597,9.69871,1.22908,0.21,-0.14,1.05,-31.3392,-37.7503,-1.64379,1014.52
28238,-0.286944,9.68914,1.31994,0.21,-0.49,0.28,-31.7116,-36.4191,-1.87063,1014.54
28244,-0.263032,9.70349,1.22429,0.07,0.35,0.35,-31.8262,-37.8082,-2.06911,1014.54
28250,-0.320421,9.7274,1.23386,0.49,0.07,0.63,-31.3392,-38.0108,-1.92734,1014.51
28256,-0.310856,9.74175,1.20516,0.28,0.28,-0.14,-31.5111,-37.2005,-2.11164,1014.51
28262,-0.310856,9.76088,1.17169,-0.07,-0.56,0,-31.3392,-37.8082,-1.67215,1014.51
28268,-0.25825,9.72262,1.20038,0.14,-0.21,-0.14,-30.9668,-38.4159,-2.56531,1014.51
28274,-0.344333,9.78001,1.16691,-0.21,-0.84,-0.21,-31.597,-37.1715,-2.56531,1014.53
28280,-0.296509,9.7274,1.20995,-0.07,0.07,0.35,-31.2246,-36.4191,-1.16177,1014.53
28286,-0.387374,9.76566,1.24342,-0.07,0.14,0.21,-30.709,-38.3291,-2.48025,1014.53
28292,-0.344333,9.77044,1.1956,-0.35,-0.07,0.28,-32.2559,-39.3709,-3.45847,1014.5
28298,-0.387374,9.78479,1.22429,-0.49,-0.07,0.14,-31.4824,-36.6796,-1.57291,1014.5
28304,-0.306074,9.77523,1.21473,-0.28,0.14,0.7,-31.2246,-37.9818,-2.46607,1014.49
28310,-0.382592,9.7561,1.27212,-0.28,-0.07,0.49,-31.11,-38.5317,-1.94151,1014.49
28316,-0.329986,9.71305,1.29603,0.35,0.07,0.77,-31.0527,-36.8243,-2.05493,1014.52
28322,-0.315638,9.74175,1.24342,0.42,-0.28,0.77,-31.4538,-37.1426,-1.65797,1014.52
28328,-0.267814,9.70827,1.23386,0.49,0.14,0.35,-30.6517,-38.5606,-2.72126,1014.5
28334,-0.272597,9.66523,1.26734,0.14,-0.14,0.14,-31.0527,-37.5188,-1.74303,1014.5
28340,-0.248685,9.67958,1.28168,0.42,0.28,0.07,-31.11,-36.8243,-2.28177,1014.53
28346,-0.267814,9.68914,1.26734,1.33,0,-0.42,-30.3366,-37.6635,-2.48025,1014.53
28352,-0.263032,9.72262,1.19082,1.05,0.42,-0.28,-31.3965,-37.6346,-2.63619,1014.52
28358,-0.296509,9.78001,1.17169,0.42,0.35,-0.28,-31.1387,-36.6796,-0.864051,1014.52
28364,-0.315638,9.76566,1.17647,0.84,0.14,-0.42,-31.5111,-38.3001,-2.29594,1014.52
28370,-0.37781,9.81827,1.15734,0.35,0.35,-0.42,-30.2793,-38.2712,-2.59366,1014.52
28376,-0.420851,9.84218,1.16212,0.28,-0.28,-0.21,-30.7376,-36.8532,-1.37443,1014.52
28382,-0.373027,9.82305,1.17647,-0.56,-0.35,-0.07,-30.6803,-37.9239,-2.13999,1014.54
28388,-0.315638,9.74175,1.23864,-0.49,-0.07,0,-31.3106,-38.0397,-1.85645,1014.54
28394,-0.368245,9.76566,1.23386,0.35,0.14,0.35,-31.3392,-37.6346,-2.90556,1014.55
28400,-0.349115,9.81827,1.22429,-0.49,0.07,0.21,-30.8522,-36.9111,-1.61544,1014.55
28406,-0.306074,9.75131,1.25299,-0.56,-0.14,0.42,-30.1933,-38.5606,-2.77797,1014.51
28412,-0.282162,9.70827,1.2769,0.14,0,0.49,-30.709,-37.403,-1.14759,1014.51
28418,-0.301291,9.71305,1.26734,-0.14,-0.35,0.07,-31.1387,-37.2584,-0.396206,1014.51
28424,-0.286944,9.71305,1.25777,0.35,0.07,0.42,-31.6257,-38.3001,-2.48025,1014.51
28430,-0.286944,9.73218,1.24821,0.35,0.28,0.21,-30.8809,-38.1555,-1.50202,1014.51
28436,-0.272597,9.7274,1.22908,0.84,0.14,-0.07,-31.5684,-36.6796,-2.40936,1014.51
28442,-0.272597,9.70827,1.23864,0.49,0.14,0.07,-30.8236,-37.6635,-1.84227,1014.55
28448,-0.320421,9.73218,1.26255,0.35,-0.14,-0.21,-30.5657,-38.0686,-2.48025,1014.55
28454,-0.320421,9.72262,1.24821,0.91,-0.21,-0.42,-31.196,-38.1265,-1.60126,1014.55
28460,-0.315638,9.75131,1.20516,0.28,-0.28,-0.28,-31.0241,-36.94,-2.49442,1014.54
28466,-0.291726,9.75131,1.22429,0.42,0,-0.21,-30.9668,-38.5606,-2.42354,1014.54
28472,-0.291726,9.7274,1.21473,0.63,-0.35,-0.84,-31.0814,-38.2712,-3.06151,1014.54
28478,-0.373027,9.81827,1.1956,0.42,0.21,-0.42,-30.709,-36.7953,-2.43771,1014.54
28484,-0.425634,9.82783,1.18604,0.28,-0.14,0,-31.3392,-38.7342,-2.33847,1014.53
28490,-0.363462,9.82305,1.20038,0.42,-0.07,-0.14,-31.2819,-38.7053,-3.06151,1014.53
28496,-0.401722,9.78957,1.23864,0,0.07,0.56,-30.5371,-37.0558,-1.72886,1014.53
28502,-0.334768,9.78479,1.18604,-0.35,-0.56,0.21,-30.7949,-37.1137,-1.36025,1014.53
28508,-0.382592,9.8087,1.22908,-0.14,-0.14,0.56,-29.7923,-38.6474,-1.58709,1014.56
28514,-0.334768,9.77044,1.26734,0,-0.7,0.21,-31.0241,-37.403,-1.44531,1014.56
28520,-0.320421,9.66523,1.31994,0.35,-0.49,0.21,-30.7663,-37.895,-1.31772,1014.51
28526,-0.253467,9.69392,1.28647,0.63,-0.07,0.35,-31.3965,-37.4899,-2.25341,1014.51
28532,-0.349115,9.74175,1.25777,0.35,-0.07,0.21,-30.6517,-38.2712,-1.34607,1014.51
28538,-0.224773,9.70349,1.27212,0.42,0.35,0.14,-31.1673,-36.7664,-1.74303,1014.55
28544,-0.329986,9.7274,1.24821,0.7,-0.14,0.14,-31.1673,-37.3452,-2.23923,1014.55
28550,-0.234338,9.7274,1.17169,0.7,0.14,-0.21,-30.136,-38.1555,-2.65037,1014.53
28556,-0.325203,9.73697,1.19082,0.42,0.07,0,-31.0814,-36.5928,-1.36025,1014.53
28562,-0.277379,9.78001,1.18125,0.84,0.28,0.14,-31.2533,-37.0268,-1.48785,1014.51
28568,-0.325203,9.7274,1.25299,0.77,0,-0.42,-31.6257,-38.358,-3.04733,1014.51
28574,-0.306074,9.71305,1.22429,0.49,0.21,0,-31.196,-36.8821,-1.19013,1014.51
28580,-0.353898,9.77523,1.23864,0.49,0.07,0.07,-30.9095,-37.2873,-1.38861,1014.51
28586,-0.320421,9.79436,1.19082,0,-0.28,-0.49,-30.1074,-38.4738,-2.93391,1014.52
28592,-0.334768,9.81349,1.17169,-0.14,0.07,-0.07,-30.8236,-37.1137,-2.86303,1014.52
28598,-0.353898,9.81349,1.1956,0.07,0.07,0.21,-30.4225,-36.6796,-1.30354,1014.54
28604,-0.382592,9.78001,1.21951,0.28,0.14,0.35,-31.2533,-38.1555,-2.89138,1014.54
28610,-0.344333,9.79436,1.20516,-0.35,-0.28,0.63,-30.9954,-37.7793,-3.40176,1014.51
28616,-0.320421,9.74653,1.24342,-0.28,0.21,0.63,-30.9668,-37.1137,-2.40936,1014.51
28622,-0.277379,9.73218,1.27212,-0.35,-0.28,0.63,-31.9694,-37.5188,-2.11164,1014.51
28628,-0.353898,9.69871,1.28168,0.28,-0.28,0.98,-30.9382,-38.9079,-2.8205,1014.55
28634,-0.253467,9.6748,1.22908,0.21,-0.28,0.07,-30.623,-36.8532,-1.8281,1014.55
28640,-0.291726,9.7274,1.23386,-0.42,0.07,0.21,-30.9095,-36.3034,-0.268611,1014.56
28646,-0.277379,9.68914,1.25777,0,0.21,0.07,-30.2793,-38.0108,-2.21088,1014.56
28652,-0.286944,9.7274,1.22429,0.7,0.07,-0.21,-30.9954,-37.2873,-2.13999,1014.55
28658,-0.272597,9.71784,1.26734,0.49,0.21,-0.63,-30.9668,-37.0847,-1.99822,1014.55
28664,-0.296509,9.70827,1.24821,0.42,0.14,-0.21,-30.8236,-37.3741,-0.864051,1014.49
28670,-0.272597,9.72262,1.25299,0.7,0.42,-0.42,-30.9095,-38.0976,-3.03315,1014.49
28676,-0.334768,9.77523,1.1956,0.63,0,-0.35,-31.5111,-36.94,-1.14759,1014.54
28682,-0.349115,9.79436,1.20516,0.35,0.42,0,-30.8522,-37.432,-1.68633,1014.54
28688,-0.37781,9.77044,1.20995,0.7,-0.14,0,-31.0814,-38.9657,-2.42354,1014.54
28694,-0.325203,9.79914,1.20516,0.07,0.42,0.28,-30.2506,-37.6346,-1.87063,1014.54
28700,-0.373027,9.78001,1.23386,0.14,-0.35,0.21,-31.8262,-37.5767,-1.45949,1014.54
28706,-0.315638,9.8087,1.20995,0,-0.42,0.42,-31.5684,-38.0976,-3.16075,1014.55
28712,-0.320421,9.76088,1.22429,0.07,-0.28,0.28,-31.11,-37.7503,-1.23266,1014.55
28718,-0.320421,9.74175,1.25777,0.42,-0.14,0.56,-30.9668,-36.969,-1.19013,1014.52
28724,-0.325203,9.7561,1.24342,0.07,-0.49,0.42,-31.2533,-38.8211,-1.04835,1014.52
28730,-0.291726,9.74175,1.24821,0.28,0.07,0.42,-30.9382,-38.9368,-2.09746,1014.51
28736,-0.282162,9.73218,1.23386,0.42,0.07,0.56,-31.0527,-37.0268,-1.65797,1014.51
28742,-0.277379,9.71784,1.25777,0.49,0.28,0.07,-31.5111,-37.0268,-1.87063,1014.52
28748,-0.277379,9.68436,1.29125,0.42,-0.42,0.35,-29.5918,-38.3291,-1.44531,1014.52
28754,-0.306074,9.69392,1.27212,0.49,-0.35,0.28,-30.0215,-36.969,-1.07671,1014.53
28760,-0.272597,9.73218,1.25299,0.7,-0.14,-0.21,-29.735,-37.5477,-0.665572,1014.53
28766,-0.267814,9.70827,1.25299,0.7,-0.28,-0.21,-31.1673,-38.4738,-2.53695,1014.55
28772,-0.315638,9.77044,1.20038,0.77,0.21,-0.07,-30.6517,-37.432,-2.15417,1014.55
28778,-0.33955,9.76566,1.22908,0.56,-0.14,-0.07,-30.7376,-36.7085,-1.13342,1014.52
28784,-0.296509,9.79436,1.22908,0.63,0,0.14,-30.9668,-37.9818,-2.57949,1014.52
28790,-0.349115,9.77523,1.20995,0.56,-0.07,0.21,-30.3079,-38.9657,-2.26759,1014.52
28796,-0.363462,9.76088,1.25299,0.28,-0.21,0.21,-31.1673,-36.969,-1.2043,1014.51
28802,-0.315638,9.75131,1.24821,0.21,-0.21,0.35,-31.2533,-38.2423,-2.28177,1014.51
28808,-0.320421,9.74653,1.23864,0.42,0.07,0.21,-30.4225,-38.1265,-2.70708,1014.51
28814,-0.301291,9.76566,1.18604,0.28,0,0.42,-30.8809,-36.94,-1.74303,1014.51
28820,-0.37781,9.78001,1.20995,0.42,-0.14,0.56,-30.5085,-36.9979,-1.24683,1014.5
28826,-0.306074,9.81349,1.1956,0,-0.63,0.7,-30.2793,-37.8082,-2.45189,1014.5
28832,-0.291726,9.75131,1.23386,0.21,-0.35,0.56,-30.9668,-37.5477,-2.33847,1014.53
28838,-0.229555,9.73218,1.22908,-0.14,-0.07,0.49,-31.11,-36.6217,-0.82152,1014.53
28844,-0.277379,9.67001,1.3056,0.07,-0.07,0.42,-31.1387,-37.6924,-3.01898,1014.52
28850,-0.248685,9.69392,1.27212,0.49,0,0.35,-31.11,-37.9239,-2.46607,1014.52
28856,-0.334768,9.74653,1.24342,0.49,-0.42,0.07,-30.3079,-36.1297,-1.60126,1014.53
28862,-0.21999,9.68436,1.27212,0.49,0.42,0.21,-31.4538,-36.9979,-1.67215,1014.53
28868,-0.296509,9.72262,1.27212,0.91,0,0.14,-31.2819,-38.7053,-2.26759,1014.53
28874,-0.243902,9.71305,1.25777,0.7,0.7,0,-31.1387,-36.8821,-2.39518,1014.53
28880,-0.334768,9.76566,1.21473,0.91,-0.07,-0.14,-31.7976,-36.477,-1.17595,1014.53
28886,-0.325203,9.75131,1.21473,0.77,0.21,-0.21,-31.0241,-38.0397,-2.89138,1014.53
28892,-0.334768,9.76088,1.26255,0.91,0,0.07,-31.0241,-37.432,-2.56531,1014.53
28898,-0.35868,9.81349,1.19082,0.84,0.14,-0.21,-31.5111,-36.9111,-2.16835,1014.48
28904,-0.296509,9.81349,1.16691,0.77,-0.28,0.56,-30.8522,-38.0976,-1.78557,1014.48
28910,-0.33955,9.80392,1.19082,-0.07,0.21,0.07,-31.4251,-38.0976,-3.16075,1014.49
28916,-0.353898,9.77044,1.25299,-0.21,-0.14,0.28,-31.7116,-37.0847,-2.12582,1014.49
28922,-0.315638,9.7561,1.31038,0.84,-0.21,0.84,-31.1387,-37.9529,-1.8281,1014.51
28928,-0.282162,9.75131,1.23386,0.77,-0.56,0.42,-31.2533,-38.3001,-2.62202,1014.51
28934,-0.325203,9.77044,1.17647,-0.07,-0.07,0.49,-30.8522,-36.7953,-2.5086,1014.5
28940,-0.320421,9.78957,1.18125,0.56,-0.49,0.49,-31.2819,-36.8821,-0.949114,1014.5
28946,-0.291726,9.77044,1.19082,0.07,0.14,0.42,-31.0241,-38.7053,-2.83467,1014.5
28952,-0.253467,9.73218,1.25777,0.28,-0.35,0.35,-30.8522,-38.1555,-2.55113,1014.52
28958,-0.215208,9.68914,1.28647,0.42,0.21,0.42,-31.3965,-36.8821,-1.96987,1014.52
28964,-0.291726,9.69392,1.25299,0.49,-0.35,-0.14,-31.7116,-37.8082,-2.13999,1014.51
28970,-0.286944,9.73218,1.22429,0.56,0.14,0.21,-31.5111,-37.8661,-2.57949,1014.51
28976,-0.353898,9.79914,1.20995,0.63,-0.42,0.14,-30.2793,-35.6957,-1.61544,1014.5
28982,-0.272597,9.78001,1.18125,0.21,0.35,0.21,-31.3679,-37.432,-2.21088,1014.5
28988,-0.267814,9.74653,1.20995,0.28,-0.49,-0.07,-30.3939,-37.7503,-2.39518,1014.55
28994,-0.315638,9.73218,1.23864,0.14,0.21,0.28,-30.9668,-37.0268,-2.0124,1014.55
29000,-0.325203,9.76566,1.23864,0.56,-0.35,0.21,-31.3392,-37.0268,-2.08329,1014.52
29006,-0.267814,9.77523,1.1956,0.28,-0.42,0.35,-30.9382,-38.7632,-2.83467,1014.52
29012,-0.25825,9.74653,1.23864,0.28,-0.7,0.14,-31.11,-38.3001,-1.99822,1014.5
29018,-0.310856,9.74175,1.2769,0.35,0.07,0.21,-31.0814,-36.8532,-2.0124,1014.5
29024,-0.373027,9.8087,1.21951,0.07,0.07,0.91,-31.3965,-38.0976,-2.56531,1014.54
29030,-0.306074,9.80392,1.20516,0.07,0,0.21,-30.8809,-38.387,-3.1891,1014.54
29036,-0.23912,9.72262,1.25777,0.07,0.07,0.28,-32.0554,-36.9979,-1.14759,1014.54
29042,-0.291726,9.71305,1.2769,0.49,-0.49,0.7,-31.196,-37.432,-2.09746,1014.52
29048,-0.310856,9.75131,1.23386,0,0,0.49,-31.5111,-38.0397,-1.96987,1014.52
29054,-0.277379,9.78479,1.17169,0.42,-0.7,0.63,-30.6517,-37.3162,-0.878229,1014.5
29060,-0.23912,9.7274,1.19082,0,-0.21,0.7,-31.2246,-37.0847,-1.7005,1014.5
29066,-0.23912,9.73218,1.24821,0.07,-0.42,0.35,-30.9382,-38.2133,-3.20328,1014.53
29072,-0.272597,9.71305,1.26255,0.21,0.07,0.07,-30.4225,-37.6056,-2.28177,1014.53
29078,-0.272597,9.7274,1.25299,0,0.56,0.42,-30.5944,-36.7953,-1.96987,1014.54
29084,-0.253467,9.69871,1.24342,0.14,0.42,-0.07,-30.6803,-37.403,-2.63619,1014.54
29090,-0.272597,9.70827,1.25777,0.35,0.77,-0.07,-31.0814,-38.7342,-3.41594,1014.54
29096,-0.306074,9.74175,1.24342,0.49,0.21,0.07,-31.196,-36.9111,-1.88481,1014.54
29102,-0.329986,9.77523,1.20995,-0.21,0.21,-0.07,-30.5944,-37.2005,-2.28177,1014.51
29108,-0.282162,9.74653,1.22429,0.21,-0.14,-0.14,-31.0527,-38.6474,-2.93391,1014.51
29114,-0.267814,9.76566,1.20995,0.49,-0.7,0.14,-31.9981,-36.4481,-2.93391,1014.51
29120,-0.286944,9.76088,1.23386,0.14,0.07,0.28,-31.2246,-36.8821,-2.55113,1014.53
29126,-0.296509,9.78479,1.22429,0.35,-0.84,0.07,-30.7663,-38.0976,-2.66455,1014.53
29132,-0.296509,9.78957,1.22908,0.56,-0.49,0.35,-31.3106,-37.8082,-1.5162,1014.53
29138,-0.243902,9.77044,1.1956,0.07,-0.49,0.28,-31.3392,-37.1426,-1.84227,1014.53
29144,-0.277379,9.75131,1.24821,0.07,-0.14,0.42,-31.5684,-37.6635,-1.74303,1014.5
29150,-0.25825,9.73697,1.25299,0.56,0.21,0.14,-31.4824,-37.9818,-3.06151,1014.5
29156,-0.25825,9.7274,1.21951,0.21,0.28,0.14,-31.4251,-36.4191,-1.55873,1014.51
29162,-0.286944,9.74175,1.22908,-0.35,0.28,-0.07,-30.9095,-37.5477,-1.81392,1014.51
29168,-0.234338,9.73218,1.23386,0.28,-0.21,0.21,-31.3392,-37.432,-1.95569,1014.51
29174,-0.263032,9.73697,1.23386,0.07,0.07,-0.14,-30.7949,-37.0558,-1.44531,1014.51
29180,-0.277379,9.76088,1.21473,-0.35,-0.35,-0.35,-31.3392,-37.2005,-1.96987,1014.53
29186,-0.306074,9.78957,1.22908,-0.07,0.28,0.07,-31.11,-38.1265,-0.708103,1014.53
29192,-0.301291,9.78479,1.20995,0.07,-0.42,-0.14,-31.5397,-37.6056,-1.94151,1014.53
29198,-0.272597,9.70827,1.25299,-0.49,0.63,0.28,-30.9668,-36.94,-2.33847,1014.53
29204,-0.272597,9.73218,1.25777,0.21,-0.07,0.07,-30.9095,-37.7214,-2.21088,1014.53
29210,-0.334768,9.77523,1.21951,-0.21,-0.07,-0.21,-31.4824,-37.6635,-2.21088,1014.51
29216,-0.267814,9.78001,1.24342,-0.42,-0.42,0.07,-31.7689,-36.4481,-1.99822,1014.51
29222,-0.267814,9.73697,1.22908,-0.07,0.21,0.56,-31.5397,-37.2584,-2.28177,1014.55
29228,-0.248685,9.7561,1.23864,0.21,-0.07,-0.07,-31.4824,-38.0976,-3.27417,1014.55
29234,-0.296509,9.7274,1.25777,0.07,0.21,0.35,-31.11,-37.2294,-2.26759,1014.53
29240,-0.286944,9.71784,1.25777,-0.14,-0.14,0.42,-31.7116,-37.3162,-1.85645,1014.53
29246,-0.224773,9.76088,1.19082,0.56,0.21,0,-30.6803,-38.3001,-1.91316,1014.52
29252,-0.25825,9.74653,1.20516,0.56,-0.07,-0.14,-31.3392,-37.6056,-2.28177,1014.52
29258,-0.272597,9.7274,1.22429,-0.28,-0.63,-0.07,-31.2533,-36.7085,-2.49442,1014.53
29264,-0.248685,9.70349,1.28647,0.35,-0.42,-0.21,-31.196,-37.8661,-2.25341,1014.53
29270,-0.243902,9.71305,1.29603,0.28,-0.28,-0.49,-30.6803,-37.2873,-2.11164,1014.53
29276,-0.248685,9.7561,1.22429,0.49,0.35,-0.28,-30.8236,-36.6796,-2.3243,1014.53
29282,-0.301291,9.76566,1.22908,0.21,-0.07,-0.35,-31.7403,-36.7085,-1.5162,1014.53
29288,-0.291726,9.78957,1.24342,0.28,0.7,-0.21,-31.11,-38.0976,-2.21088,1014.52
29294,-0.33955,9.78957,1.21951,0.49,-0.21,0,-31.1387,-37.2584,-1.54455,1014.52
29300,-0.368245,9.8374,1.20995,-0.07,0.14,-0.07,-31.8262,-36.7953,-2.48025,1014.54
29306,-0.310856,9.81827,1.22429,-0.21,-0.28,0.49,-31.0241,-38.1265,-1.81392,1014.54
29312,-0.253467,9.78479,1.18125,-0.07,-0.35,0.35,-30.5944,-37.3452,-2.77797,1014.52
29318,-0.253467,9.74175,1.26734,-0.14,0,-0.07,-31.7116,-36.94,-1.07671,1014.52
29324,-0.253467,9.7561,1.22908,0.42,-0.28,0.28,-31.3106,-38.0686,-2.23923,1014.53
29330,-0.301291,9.80392,1.20038,0,0.63,0.35,-31.11,-38.0976,-3.03315,1014.53
29336,-0.23912,9.82783,1.19082,-0.35,-0.07,-0.28,-31.2533,-36.6506,-1.28937,1014.56
29342,-0.253467,9.72262,1.30081,-0.21,0.35,0.07,-30.5657,-37.3452,-1.95569,1014.56
29348,-0.215208,9.7274,1.20516,-0.49,0.21,-0.14,-30.5944,-38.7053,-3.10404,1014.51
29354,-0.286944,9.67001,1.29125,0,0.42,-0.28,-31.7116,-37.2873,-0.849874,1014.51
29360,-0.243902,9.74175,1.22429,-0.14,-0.35,0.28,-30.8809,-37.9529,-1.71468,1014.53
29366,-0.25825,9.73218,1.26734,0.63,-0.21,-0.42,-31.4538,-38.85,-2.49442,1014.53
29372,-0.200861,9.69871,1.29603,0.21,-0.35,-0.14,-32.084,-37.6924,-1.98405,1014.53
29378,-0.21999,9.67958,1.28168,0.49,0.07,-0.35,-31.2533,-36.6796,-0.679749,1014.51
29384,-0.243902,9.71784,1.21951,0.42,0.49,-0.35,-31.7976,-38.0397,-3.06151,1014.51
29390,-0.277379,9.73218,1.20516,0.77,0.42,-0.21,-31.5397,-37.7503,-3.13239,1014.52
29396,-0.33955,9.76566,1.21473,0.07,0.7,0,-31.6543,-36.3612,-1.17595,1014.52
29402,-0.310856,9.76088,1.22908,0.21,0,-0.42,-31.5684,-37.2873,-2.8205,1014.54
29408,-0.25825,9.8087,1.21473,0.42,0.35,-0.28,-31.0241,-38.1555,-3.06151,1014.54
29414,-0.286944,9.76088,1.24342,0.21,-0.35,-0.21,-31.9694,-36.6506,-1.92734,1014.5
29420,-0.286944,9.73697,1.27212,0.28,-0.21,-0.21,-32.3132,-37.6346,-2.97645,1014.5
29426,-0.296509,9.78957,1.1956,-0.07,-0.35,-0.07,-31.2246,-38.1555,-2.28177,1014.55
29432,-0.23912,9.7274,1.23386,0.07,-0.07,0.14,-31.196,-37.2005,-1.54455,1014.55
29438,-0.224773,9.73697,1.23864,0.21,-0.14,-0.35,-31.8262,-37.0558,-1.85645,1014.52
29444,-0.243902,9.71305,1.26255,0.07,-0.14,-0.07,-31.4538,-37.9529,-2.89138,1014.52
29450,-0.23912,9.69392,1.28647,0.49,-0.28,-0.7,-30.3366,-37.895,-2.93391,1014.52
29456,-0.25825,9.71784,1.25777,-0.21,0.28,-0.21,-31.0814,-36.9111,-1.96987,1014.49
29462,-0.25825,9.71305,1.24821,0.35,-0.28,-0.49,-31.6543,-37.3741,-2.66455,1014.49
29468,-0.291726,9.73218,1.27212,0.28,0.35,-0.42,-31.11,-37.5188,-1.84227,1014.51
29474,-0.272597,9.7561,1.23386,0.35,0.35,-0.49,-30.3366,-36.3902,-1.43114,1014.51
29480,-0.310856,9.78479,1.24342,0.63,0.07,-0.35,-30.6803,-36.9979,-2.29594,1014.54
29486,-0.306074,9.76088,1.25777,0.42,-0.14,-0.42,-30.8236,-37.7214,-1.74303,1014.54
29492,-0.329986,9.76566,1.24342,0.14,0.21,-0.21,-30.8522,-37.432,-2.38101,1014.54
29498,-0.306074,9.77044,1.2769,0.42,-0.07,-0.28,-31.196,-36.1587,-2.45189,1014.54
29504,-0.315638,9.79914,1.22429,0.35,-0.28,-0.28,-31.2246,-37.432,-2.83467,1014.51
29510,-0.33955,9.78957,1.23864,0.49,-0.56,-0.14,-31.2246,-37.0847,-2.40936,1014.51
29516,-0.277379,9.78957,1.24821,0.28,-0.35,-0.07,-30.8809,-36.4191,-1.98405,1014.53
29522,-0.248685,9.77523,1.24821,0,-0.63,0.14,-31.5684,-37.2005,-2.1967,1014.53
29528,-0.253467,9.74653,1.24342,0.14,-0.07,0,-30.8236,-37.5188,-2.6929,1014.53
29534,-0.224773,9.71305,1.24821,0.49,-0.14,-0.21,-31.3392,-36.3902,-2.86303,1014.55
29540,-0.23912,9.68914,1.2769,-0.21,0.28,-0.49,-31.4824,-36.7374,-1.57291,1014.55
29546,-0.243902,9.70827,1.25777,0.14,0.21,-0.21,-30.709,-37.5767,-2.09746,1014.53
29552,-0.263032,9.72262,1.2769,0.28,0.14,-0.49,-30.9954,-36.8243,-2.76379,1014.53
29558,-0.229555,9.7274,1.25777,0.7,-0.28,-0.49,-31.4538,-35.8114,-0.793166,1014.51
29564,-0.248685,9.7274,1.24342,0.49,0.07,-0.7,-30.709,-37.8082,-1.94151,1014.51
29570,-0.306074,9.7561,1.20038,0.63,0,-0.42,-30.9954,-37.8661,-2.21088,1014.51
29576,-0.301291,9.78957,1.23386,0.49,0.42,-0.63,-30.9095,-36.1587,-1.2043,1014.51
29582,-0.334768,9.76088,1.22908,0.49,0.35,-0.49,-30.8236,-37.3741,-1.45949,1014.48
29588,-0.320421,9.77044,1.21473,0.84,0.49,-0.28,-31.4538,-38.1555,-1.91316,1014.48
29594,-0.306074,9.77523,1.23864,0.7,-0.14,-0.42,-30.9668,-36.5349,-1.92734,1014.51
29600,-0.344333,9.79436,1.20995,0.14,-0.56,-0.35,-31.5111,-37.7214,-1.14759,1014.51
29606,-0.35868,9.81827,1.24821,0.63,0,0,-30.7663,-38.1555,-1.85645,1014.54
29612,-0.277379,9.77044,1.21473,0.28,-0.35,0.07,-31.1387,-36.7085,-1.40278,1014.54
29618,-0.248685,9.71784,1.25299,0.42,-0.14,-0.28,-30.9668,-36.5059,-0.82152,1014.54
29624,-0.25825,9.71305,1.29603,0.7,-0.42,0,-31.2819,-38.1844,-2.11164,1014.53
29630,-0.277379,9.74175,1.29125,0.77,0.14,-0.35,-31.7403,-38.1265,-2.18253,1014.53
29636,-0.263032,9.70349,1.27212,0.56,0,-0.49,-31.5111,-36.8532,-0.864051,1014.52
29642,-0.253467,9.71305,1.21473,1.26,0.35,-0.07,-30.4225,-37.5767,-1.28937,1014.52
29648,-0.224773,9.71784,1.24342,0.91,0.07,-0.91,-31.11,-38.2423,-2.40936,1014.52
29654,-0.243902,9.69392,1.23864,0.35,0,-0.63,-31.1673,-36.6796,-1.06253,1014.52
29660,-0.263032,9.70827,1.25777,1.05,0.21,-0.77,-30.7663,-37.4899,-1.30354,1014.53
29666,-0.210426,9.70827,1.22908,0.98,0,-0.84,-30.8236,-38.3291,-2.63619,1014.53
29672,-0.23912,9.74175,1.20038,1.12,-0.07,-0.63,-31.2533,-36.969,-1.91316,1014.53
29678,-0.282162,9.7561,1.19082,0.42,0,-0.91,-31.7403,-36.9111,-1.71468,1014.53
29684,-0.306074,9.75131,1.20516,0.63,0.28,-1.12,-30.6803,-38.0686,-3.16075,1014.51
29690,-0.33955,9.77523,1.20516,0.7,0.35,-0.63,-30.7949,-37.5477,-2.42354,1014.51
29696,-0.329986,9.82305,1.23386,0.35,0,-0.7,-31.0814,-36.0719,-1.24683,1014.51
29702,-0.310856,9.74653,1.24821,0.14,0.21,-0.63,-31.3392,-37.3452,-2.13999,1014.49
29708,-0.306074,9.73218,1.29603,0.63,0.42,-0.35,-30.9095,-38.6764,-2.45189,1014.49
29714,-0.310856,9.74653,1.23386,0.14,0.21,-0.42,-30.5657,-36.7953,-1.64379,1014.53
29720,-0.310856,9.79436,1.1956,0.91,-0.07,-0.49,-31.196,-36.6796,-1.07671,1014.53
29726,-0.296509,9.78479,1.24821,1.05,-0.42,-0.21,-31.5684,-38.0686,-1.54455,1014.49
29732,-0.291726,9.74175,1.24821,0.63,-0.14,-0.35,-30.7949,-37.3162,-1.00582,1014.49
29738,-0.248685,9.76088,1.23864,0.42,-0.21,-0.28,-31.7116,-36.5638,-1.21848,1014.56
29744,-0.267814,9.74175,1.22908,0.77,-0.35,-0.21,-31.2246,-38.7053,-1.74303,1014.56
29750,-0.277379,9.74653,1.24821,0.42,-0.28,-0.42,-31.0527,-38.1844,-1.47367,1014.53
29756,-0.253467,9.71784,1.27212,0.91,-0.35,-0.35,-31.11,-36.3323,-0.679749,1014.53
29762,-0.282162,9.73218,1.23864,0.7,0.42,-0.84,-30.9095,-37.1137,-1.72886,1014.52
29768,-0.253467,9.73218,1.21473,0.7,0.07,-0.77,-31.2819,-38.0976,-2.06911,1014.52
29774,-0.263032,9.75131,1.24342,0.49,0.63,-0.56,-31.7403,-36.7085,-1.02,1014.52
29780,-0.25825,9.70349,1.24342,1.05,0.49,-1.05,-30.8522,-36.477,-1.34607,1014.52
29786,-0.272597,9.76088,1.24342,0.28,0.77,-1.05,-31.11,-38.5027,-3.60024,1014.52
29792,-0.301291,9.73697,1.23386,0.63,-0.21,-0.7,-31.11,-37.1137,-3.0048,1014.52
29798,-0.344333,9.77523,1.22429,0.84,-0.42,-0.7,-31.4824,-36.0719,-1.72886,1014.52
29804,-0.33955,9.78479,1.21473,0.49,-0.35,-0.63,-30.623,-37.4609,-1.48785,1014.52
29810,-0.325203,9.79914,1.22908,0.42,-0.35,-0.63,-30.7663,-37.6056,-2.11164,1014.52
29816,-0.37781,9.79436,1.22908,0.28,0.14,-0.35,-30.7376,-35.8403,-1.94151,1014.54
29822,-0.344333,9.79914,1.22908,0.21,-0.35,-0.35,-31.2819,-37.3741,-2.25341,1014.54
29828,-0.243902,9.73697,1.22908,0.77,-0.21,-0.28,-31.2819,-39.3709,-3.84125,1014.53
29834,-0.277379,9.7561,1.22429,0.63,-0.14,-0.14,-30.8522,-36.8821,-2.43771,1014.53
29840,-0.267814,9.70349,1.26255,0.35,0,-0.42,-30.623,-37.1137,-1.61544,1014.5
29846,-0.306074,9.73218,1.25777,0.91,-0.07,-0.56,-30.4512,-38.358,-2.28177,1014.5
29852,-0.272597,9.74175,1.23864,0.7,-0.14,-0.49,-31.4538,-37.3162,-1.96987,1014.52
29858,-0.272597,9.74653,1.20038,0.7,0.07,-0.42,-31.3392,-36.5638,-2.22506,1014.52
29864,-0.282162,9.73697,1.24821,0.49,-0.07,-0.49,-31.196,-38.0976,-1.78557,1014.52
29870,-0.267814,9.73218,1.23386,0.35,0.35,-0.84,-30.9668,-37.7793,-2.06911,1014.52
29876,-0.25825,9.7274,1.25777,0.84,0,-0.56,-31.7976,-36.014,-1.58709,1014.52
29882,-0.25825,9.71305,1.20995,0.84,0.56,-1.05,-31.0241,-37.9239,-2.06911,1014.52
29888,-0.286944,9.73697,1.20995,0.63,0.14,-0.91,-31.2819,-38.1265,-2.25341,1014.52
29894,-0.344333,9.77044,1.20038,0.42,0.07,-0.49,-30.8236,-36.7953,-1.58709,1014.53
29900,-0.325203,9.78479,1.23864,0.21,-0.42,-0.91,-30.4798,-36.8532,-1.7005,1014.53
29906,-0.329986,9.77044,1.20995,0.7,0.21,-0.7,-30.136,-37.7214,-2.36683,1014.53
29912,-0.277379,9.76566,1.23386,0.07,-0.28,-0.98,-30.2506,-37.1715,-2.1967,1014.53
29918,-0.306074,9.73218,1.23386,0.35,0.14,-0.84,-31.11,-35.551,-1.8281,1014.51
29924,-0.301291,9.7561,1.24821,0.49,0.14,-0.56,-30.7376,-37.403,-2.79214,1014.51
29930,-0.33955,9.78479,1.21951,0.63,0.21,-0.63,-30.623,-37.1426,-2.77797,1014.52
29936,-0.325203,9.77044,1.20995,0.28,-0.35,-0.7,-31.11,-35.8403,-1.16177,1014.52
29942,-0.296509,9.79436,1.20038,0.14,0,-0.42,-30.8236,-36.7953,-2.40936,1014.52
29948,-0.291726,9.7561,1.20516,0.35,-0.28,-0.49,-30.3366,-37.8082,-3.0048,1014.52
29954,-0.325203,9.75131,1.26255,0.28,-0.21,-0.35,-30.2506,-37.2005,-2.74961,1014.52
29960,-0.272597,9.73697,1.23386,0.49,0.28,-0.63,-30.9954,-36.1587,-0.637217,1014.53
29966,-0.306074,9.71305,1.26734,0.56,-0.28,-0.56,-30.7376,-38.1844,-2.79214,1014.53
29972,-0.325203,9.74175,1.24342,0.35,0.42,-0.56,-31.3679,-36.4191,-2.33847,1014.52
29978,-0.334768,9.74175,1.22908,0.21,0.42,-0.84,-30.4512,-37.2005,-0.82152,1014.52
29984,-0.325203,9.78479,1.23864,0.84,0.56,-0.56,-30.5944,-37.9818,-2.89138,1014.53
29990,-0.368245,9.81349,1.1956,0.49,-0.21,-0.28,-30.8236,-37.7793,-2.23923,1014.53
29996,-0.329986,9.81827,1.19082,-0.07,-0.14,-0.35,-31.2246,-36.7664,-1.28937,1014.54
30002,-0.315638,9.77044,1.21951,0.63,-0.14,-0.42,-30.7663,-37.432,-2.99062,1014.54
30008,-0.334768,9.79436,1.21473,0.28,-0.56,-0.28,-30.7949,-38.0686,-2.87721,1014.55
30014,-0.320421,9.74175,1.23386,0.56,-0.35,-0.21,-31.4824,-37.0268,-2.09746,1014.55
30020,-0.353898,9.78001,1.23386,0.49,-0.21,-0.14,-31.1673,-36.7374,-1.78557,1014.54
30026,-0.363462,9.8087,1.20038,0.63,-0.28,0.07,-30.6517,-38.0397,-2.35265,1014.54
30032,-0.282162,9.7561,1.21473,0.21,0.21,0.07,-30.5371,-37.1715,-3.14657,1014.54
30038,-0.282162,9.74175,1.23864,0.07,0,-0.07,-30.7663,-36.4481,-1.94151,1014.49
30044,-0.325203,9.7274,1.24342,0.07,0.35,-0.14,-30.7376,-37.895,-2.09746,1014.49
30050,-0.306074,9.73697,1.20995,0.84,-0.35,0.07,-31.11,-38.1844,-2.05493,1014.5
30056,-0.306074,9.76088,1.1956,-0.21,0.28,-0.28,-30.7949,-37.5188,-0.665572,1014.5
30062,-0.272597,9.78001,1.21951,-0.28,-0.07,0.42,-31.6257,-37.7214,-2.59366,1014.54
30068,-0.272597,9.71305,1.21951,-0.14,-0.28,0,-30.623,-37.9818,-2.42354,1014.54
30074,-0.282162,9.70349,1.26734,0.35,-0.14,-0.35,-30.8236,-36.9111,-2.97645,1014.55
30080,-0.291726,9.7274,1.23386,0.35,0.14,0.07,-31.11,-36.7953,-2.21088,1014.55
30086,-0.291726,9.73218,2.43902,0.35,0.07,-0.49,-30.8809,-38.2712,-2.16835,1014.52
30092,-0.277379,9.72262,1.26255,0.35,-0.07,-0.28,-30.7376,-37.7793,-1.74303,1014.52
30098,-0.325203,9.74175,1.25777,0.42,0.42,-0.21,-30.7376,-37.1715,-1.37443,1014.52
30104,-0.310856,9.76088,1.20995,0.28,0.14,-0.35,-30.5944,-37.5767,-2.02658,1014.52
30110,-0.315638,9.74653,1.19082,0.28,0.35,-0.07,-30.5371,-38.0108,-1.77139,1014.52
30116,-0.363462,9.74653,1.23386,0.63,-0.21,-0.14,-30.7376,-36.5928,-1.23266,1014.52
30122,-0.349115,9.78001,1.23386,0.49,-0.35,0.14,-30.6517,-37.0268,-2.06911,1014.52
30128,-0.344333,9.7561,1.22908,0.42,-0.49,0,-30.8522,-38.387,-2.36683,1014.53
30134,-0.33955,9.77044,1.22908,0.28,0.21,0,-31.1673,-36.7953,-2.18253,1014.53
30140,-0.329986,9.77523,1.21951,0.21,0.07,0.14,-31.4824,-37.2005,-3.06151,1014.49
30146,-0.325203,9.74653,1.23864,0.42,-0.07,0.07,-30.7949,-37.9818,-1.81392,1014.49
30152,-0.315638,9.78001,1.18604,0.14,-0.49,-0.21,-31.1673,-37.7503,-2.15417,1014.54
30158,-0.296509,9.79436,1.19082,0.14,0.07,0,-30.7949,-36.7953,-1.84227,1014.54
30164,-0.291726,9.74175,1.23386,-0.07,0,0,-30.0501,-37.4899,-2.53695,1014.51
30170,-0.296509,9.74175,1.22429,0.21,-0.21,0.21,-30.709,-37.6056,-1.02,1014.51
30176,-0.282162,9.76088,1.20038,0.21,-0.56,0,-30.3939,-36.8532,-1.41696,1014.52
30182,-0.306074,9.75131,1.1956,0.35,0,0.21,-30.4798,-38.0108,-2.09746,1014.52
30188,-0.329986,9.7274,1.21951,-0.42,0.07,0,-31.0241,-38.2133,-3.37341,1014.53
30194,-0.315638,9.76088,1.24821,-0.42,0.14,0,-32.4851,-37.7793,-2.65037,1014.53
30200,-0.310856,9.7561,1.22908,0.42,0.07,0.21,-30.9954,-37.5188,-1.91316,1014.53
30206,-0.25825,9.70827,1.24821,0.7,-0.63,0.14,-31.8548,-39.0815,-2.57949,1014.51
30212,-0.234338,9.72262,1.25299,-0.28,0,-0.21,-30.8236,-37.5188,-1.60126,1014.51
30218,-0.25825,9.69392,1.29125,1.26,-0.35,0.14,-32.0554,-37.5767,-2.74961,1014.52
30224,-0.320421,9.70349,1.25299,0.7,0.21,-0.42,-30.6517,-37.1715,-2.16835,1014.52
30230,-0.334768,9.73218,1.24821,0.49,0.14,-0.56,-31.0527,-38.2712,-3.37341,1014.57
30236,-0.325203,9.80392,1.22429,0.56,0.21,0.21,-30.9382,-37.1426,-1.95569,1014.57
30242,-0.334768,9.74653,1.20995,0.21,-0.14,-0.56,-30.5944,-37.8082,-2.28177,1014.52
30248,-0.310856,9.77523,1.22429,0.21,-0.21,-0.42,-30.222,-37.7214,-2.33847,1014.52
30254,-0.373027,9.8087,1.22429,-0.14,-0.42,0.07,-30.5944,-37.1715,-1.60126,1014.51
30260,-0.320421,9.76566,1.24821,-0.21,-0.21,0.07,-30.623,-36.9979,-2.40936,1014.51
30266,-0.286944,9.77523,1.20038,0,0.14,0.07,-30.1933,-38.387,-2.73543,1014.49
30272,-0.277379,9.77044,1.23386,-0.35,0.42,-0.07,-30.3366,-37.3162,-1.84227,1014.49
30278,-0.277379,9.71784,1.2769,-0.28,0.21,-0.28,-30.709,-37.2294,-1.85645,1014.49
30284,-0.306074,9.73218,1.22908,0.14,-0.49,0.07,-29.735,-37.7214,-2.11164,1014.5
30290,-0.33955,9.77523,1.22908,0.49,0.21,-0.14,-30.8236,-38.2133,-3.03315,1014.5
30296,-0.301291,9.76566,1.21473,-0.14,-0.7,-0.14,-30.5944,-36.8821,-0.62304,1014.51
30302,-0.310856,9.7561,1.23386,0,0.07,0.07,-30.709,-37.8082,-2.22506,1014.51
30308,-0.329986,9.77044,1.22429,0.49,-0.63,-0.14,-30.4798,-37.9818,-2.06911,1014.55
30314,-0.320421,9.75131,1.24821,0.07,0.14,0.14,-30.709,-36.5349,-1.99822,1014.55
30320,-0.301291,9.77044,1.24342,-0.21,0.35,-0.14,-31.2246,-37.0268,-3.10404,1014.54
30326,-0.325203,9.78001,1.20995,0.35,0.28,-0.07,-31.196,-38.2423,-2.70708,1014.54
30332,-0.349115,9.76088,1.15256,-0.42,0.14,0.28,-30.1933,-36.8821,-2.5086,1014.54
30338,-0.344333,9.74653,1.23386,0.07,-0.84,0.56,-31.11,-37.0847,-2.13999,1014.54
30344,-0.373027,9.78479,1.24342,-0.35,-0.21,0.14,-30.623,-38.4159,-2.96227,1014.54
30350,-0.320421,9.78957,1.22429,-0.14,-0.91,1.05,-30.0501,-38.2712,-3.54353,1014.54
30356,-0.315638,9.78957,1.20516,0.14,-0.35,0.77,-30.623,-36.3323,-2.28177,1014.54
30362,-0.37781,9.76566,1.24342,-0.56,-0.91,0.63,-30.9382,-37.4899,-2.90556,1014.48
30368,-0.320421,9.76088,1.25777,0,-0.56,1.19,-30.7663,-38.3291,-2.56531,1014.48
30374,-0.25825,9.73218,1.24821,0.14,0.28,1.12,-30.7663,-37.1426,-1.09089,1014.52
30380,-0.23912,9.75131,1.23864,-0.56,0,0.91,-30.623,-37.403,-1.50202,1014.52
30386,-0.277379,9.73697,1.23864,-0.28,0.42,1.12,-30.9095,-37.7214,-2.60784,1014.5
30392,-0.306074,9.74653,1.23864,-0.14,-0.49,0.7,-30.8522,-37.3162,-2.3243,1014.5
30398,-0.267814,9.75131,1.24342,-0.49,0.07,0.84,-30.9095,-36.1876,-0.892406,1014.57
30404,-0.243902,9.75131,1.22429,0.07,-0.35,0.91,-31.0527,-37.2294,-2.1967,1014.57
30410,-0.272597,9.73697,1.23864,-0.07,-0.14,0.56,-30.8809,-37.8661,-2.76379,1014.53
30416,-0.272597,9.72262,1.22429,-0.49,-0.7,0.56,-31.5111,-36.014,-2.09746,1014.53
30422,-0.23912,9.73697,1.26734,-0.21,0.21,0.35,-31.4538,-37.3741,-2.04075,1014.56
30428,-0.272597,9.71305,1.27212,0.21,0.28,0.21,-31.0241,-37.895,-2.62202,1014.56
30434,-0.253467,9.73218,1.24821,-0.49,0,0.49,-32.1127,-36.3034,-0.92076,1014.49
30440,-0.296509,9.75131,1.23386,-0.35,-0.07,0.56,-31.0527,-36.969,-0.864051,1014.49
30446,-0.325203,9.77044,1.26734,-0.28,-0.7,0.28,-31.5684,-37.5477,-2.53695,1014.49
30452,-0.315638,9.78001,1.21473,-0.28,-0.28,0.77,-31.5684,-37.5767,-2.04075,1014.52
30458,-0.320421,9.77044,1.26255,-0.14,-0.56,0.56,-31.6257,-36.7664,-1.81392,1014.52
30464,-0.267814,9.76566,1.24342,-0.14,0,0.49,-31.1673,-37.8661,-1.94151,1014.51
30470,-0.382592,9.7561,1.31994,-0.14,-0.7,1.33,-30.6803,-37.895,-1.50202,1014.51
30476,-0.21999,9.79436,1.20995,-0.14,-0.42,1.05,-31.1673,-37.2005,-1.36025,1014.55
30482,-0.224773,9.68914,1.29603,0.21,-0.21,0.91,-30.7949,-37.2294,-2.02658,1014.55
30488,-0.282162,9.75131,1.25299,-0.21,-0.21,0.77,-30.9954,-38.4738,-2.52278,1014.54
30494,-0.243902,9.71784,1.29125,0.07,-0.49,0.42,-31.7689,-36.94,-2.55113,1014.54
30500,-0.181731,9.71784,1.24821,0.14,0.14,0.35,-31.0814,-37.1715,-1.14759,1014.53
30506,-0.277379,9.75131,1.21473,-0.21,-0.42,0.56,-30.9382,-38.0976,-2.13999,1014.53
30512,-0.148254,9.6461,1.28168,0.7,0.35,0.14,-31.2533,-37.2873,-1.91316,1014.51
30518,-0.282162,9.72262,1.26734,0.14,-0.56,-0.07,-30.7949,-36.6796,-1.40278,1014.51
30524,-0.191296,9.68914,1.27212,-0.07,0.7,-0.07,-31.3106,-37.8082,-2.35265,1014.51
30530,-0.291726,9.67958,1.29603,0.42,0.07,-0.35,-31.11,-37.4609,-1.91316,1014.53
30536,-0.277379,9.73697,1.21951,0.63,-0.21,-0.07,-30.7376,-36.2165,-0.963291,1014.53
30542,-0.286944,9.76566,1.25299,0.21,-0.14,-0.28,-31.3106,-36.9111,-2.12582,1014.51
30548,-0.253467,9.76088,1.26734,-0.14,-0.14,-0.14,-30.9382,-38.1265,-2.63619,1014.51
30554,-0.282162,9.70827,1.30081,0.21,0.7,-0.35,-31.196,-36.9111,-2.02658,1014.53
30560,-0.277379,9.75131,1.31038,0.21,0.91,-0.21,-31.597,-36.8243,-1.62962,1014.53
30566,-0.353898,9.74175,1.28168,0.63,0.28,-0.28,-30.9954,-38.4159,-3.07569,1014.51
30572,-0.306074,9.77523,1.23386,0.84,0.14,0.21,-30.9954,-36.7085,-1.92734,1014.51
30578,-0.315638,9.74175,1.2769,0.07,-0.21,-0.21,-31.4251,-36.7374,-1.89898,1014.51
30584,-0.253467,9.74653,1.24342,0.49,-0.49,0,-30.6803,-37.8371,-2.35265,1014.51
30590,-0.329986,9.76566,1.27212,0.56,0.07,0.56,-31.3965,-37.2584,-2.45189,1014.53
30596,-0.306074,9.78479,1.23386,0.49,-0.28,0.49,-31.0814,-36.3612,-1.72886,1014.53
30602,-0.306074,9.7561,1.20516,0.07,0.14,0.35,-31.3965,-37.4899,-3.13239,1014.49
30608,-0.215208,9.73697,1.20038,0,0.21,0.28,-30.5657,-37.895,-3.54353,1014.49
30614,-0.253467,9.76566,1.21951,-0.07,0.28,0,-30.9095,-37.2005,-1.21848,1014.49
30620,-0.248685,9.74653,1.25777,0,0,0.07,-31.4251,-37.2294,-1.54455,1014.49
30626,-0.277379,9.73697,1.28168,-0.07,-0.42,0,-30.0501,-37.8661,-3.0048,1014.49
30632,-0.277379,9.70827,1.31038,-0.07,-0.35,0.14,-30.9382,-37.6056,-1.72886,1014.49
30638,-0.282162,9.74653,1.26255,0.07,-0.28,-0.21,-31.597,-36.8532,-1.44531,1014.49
30644,-0.243902,9.73697,1.22908,-0.21,0.49,0.07,-30.9954,-37.2584,-1.87063,1014.54
30650,-0.243902,9.72262,1.24821,0.21,0.28,0.07,-31.1673,-37.7793,-1.79974,1014.54
30656,-0.224773,9.7274,1.30081,0.42,0.56,-0.14,-31.6257,-36.4191,-2.56531,1014.52
30662,-0.243902,9.68436,1.31516,0.77,0.14,0,-30.9668,-37.4899,-2.80632,1014.52
30668,-0.267814,9.70349,1.33907,1.05,0.07,-0.14,-30.6803,-37.9529,-2.22506,1014.5
30674,-0.286944,9.76088,1.25777,1.33,0.21,-0.07,-31.2533,-36.0429,-1.34607,1014.5
30680,-0.344333,9.81349,1.18604,0.63,-0.07,-0.21,-30.7376,-36.8243,-1.23266,1014.5
30686,-0.296509,9.8087,1.21951,0.7,0.14,0.42,-31.196,-38.6185,-2.46607,1014.5
30692,-0.253467,9.71305,1.2769,0.63,0,0.07,-31.4251,-36.7085,-2.23923,1014.5
30698,-0.243902,9.73218,1.24342,0.77,0,0.14,-31.7403,-35.5799,-0.62304,1014.52
30704,-0.306074,9.78001,1.24342,0.91,-0.14,0.56,-30.7376,-37.6056,-2.55113,1014.52
30710,-0.277379,9.81349,1.22908,0.49,-0.28,0.35,-30.9668,-37.9239,-3.35923,1014.53
30716,-0.234338,9.76088,1.24342,0.63,0.35,0.35,-31.4824,-36.9111,-1.71468,1014.53
30722,-0.229555,9.69871,1.25777,0.91,0.14,0,-30.9382,-37.9818,-1.47367,1014.51
30728,-0.229555,9.74653,1.23386,0.7,0.49,-0.28,-30.9954,-38.4738,-2.77797,1014.51
30734,-0.248685,9.74175,1.23386,0.77,0.28,0.07,-31.8262,-37.0558,-1.09089,1014.52
30740,-0.253467,9.7274,1.27212,0.7,0.42,-0.21,-30.6803,-37.1426,-2.22506,1014.52
30746,-0.229555,9.72262,1.27212,0.84,-0.49,-0.49,-31.3679,-38.1844,-2.73543,1014.52
30752,-0.248685,9.68436,1.29603,1.12,0.14,-0.14,-30.5371,-37.6056,-2.67873,1014.52
30758,-0.248685,9.71305,1.2769,0.84,-0.21,-0.56,-30.9382,-36.1297,-1.79974,1014.52
30764,-0.267814,9.73218,1.27212,1.12,0.28,-0.35,-31.2819,-37.9529,-2.5086,1014.52
30770,-0.301291,9.77044,1.21473,1.12,0.63,-0.56,-30.5657,-37.9239,-2.74961,1014.5
30776,-0.243902,9.8087,1.16691,0.14,0.7,0,-31.3392,-36.2455,-2.66455,1014.5
30782,-0.277379,9.78001,1.18125,0.42,0.14,-0.28,-32.0554,-37.5477,-2.77797,1014.5
30788,-0.277379,9.77044,1.20995,0.49,-0.56,-0.21,-31.5684,-38.4159,-2.5086,1014.51
30794,-0.234338,9.75131,1.25777,0.14,-0.42,-0.14,-31.4824,-36.9111,-2.04075,1014.51
30800,-0.286944,9.72262,1.24342,0.35,-0.28,0,-31.8262,-37.0268,-0.778989,1014.49
30806,-0.267814,9.75131,1.22429,0.28,0.14,-0.35,-31.0241,-38.5606,-2.86303,1014.49
30812,-0.253467,9.67958,1.31516,0.35,0.21,-0.07,-31.3392,-37.432,-1.45949,1014.52
30818,-0.263032,9.68914,1.31994,0.49,0.07,-0.35,-31.1387,-37.403,-1.58709,1014.52
30824,-0.23912,9.67958,1.28168,0.56,-0.42,-0.63,-30.5944,-38.2712,-2.46607,1014.5
30830,-0.25825,9.72262,1.29125,0.84,0.07,-0.56,-31.1673,-37.1715,-2.77797,1014.5
30836,-0.25825,9.72262,1.24342,0.91,-0.28,-0.56,-31.0527,-37.1137,-2.26759,1014.48
30842,-0.253467,9.75131,1.24342,1.12,0.14,-1.05,-30.5657,-37.3741,-2.57949,1014.48
30848,-0.234338,9.76088,1.23386,0.63,0,-0.77,-31.1387,-37.6635,-3.08986,1014.53
30854,-0.291726,9.79436,1.22429,0.56,0.35,-0.91,-32.0554,-37.8082,-3.20328,1014.53
30860,-0.277379,9.78001,1.23864,0.77,0.28,-0.63,-30.7949,-37.2584,-2.43771,1014.53
30866,-0.282162,9.79436,1.20516,0.77,0.7,-0.49,-31.0241,-37.895,-2.5086,1014.51
30872,-0.282162,9.78001,1.20038,0.56,0.21,-0.56,-31.5397,-36.9111,-3.33087,1014.51
30878,-0.310856,9.76566,1.20516,0.49,-0.49,-0.21,-31.1387,-36.477,-1.79974,1014.52
30884,-0.37781,9.8374,1.21473,0.28,-0.49,-0.21,-31.3679,-38.0397,-3.25999,1014.52
30890,-0.37781,9.80392,1.21951,0,-0.77,-0.07,-30.9668,-37.8371,-3.23163,1014.48
30896,-0.224773,9.77523,1.23864,0.42,0.07,-0.14,-31.2246,-36.8243,-0.807343,1014.48
30902,-0.296509,9.74653,1.25777,0.28,-0.28,0.07,-31.3965,-38.1844,-2.16835,1014.51
30908,-0.243902,9.71305,1.3056,0.49,0.35,0,-31.2246,-37.7503,-2.48025,1014.51
30914,-0.272597,9.71305,1.2769,0.35,0,-0.28,-30.8522,-36.6506,-1.89898,1014.5
30920,-0.286944,9.70827,1.29603,0.84,0.21,-0.07,-31.597,-37.2005,-2.26759,1014.5
30926,-0.234338,9.73218,1.22908,0.84,-0.56,-0.56,-30.8522,-38.1844,-2.06911,1014.51
30932,-0.253467,9.74653,1.22908,0.77,-0.07,-0.28,-31.1673,-37.1715,-0.268611,1014.51
30938,-0.234338,9.78001,1.20038,0.98,-0.63,-0.63,-31.1673,-36.5059,-1.06253,1014.51
30944,-0.243902,9.75131,1.19082,0.7,0.07,-0.7,-31.4251,-37.9529,-3.01898,1014.53
30950,-0.253467,9.7561,1.22429,0.42,0.56,-0.35,-31.2533,-37.6924,-2.36683,1014.53
30956,-0.267814,9.73697,1.21951,0.14,0.63,-0.56,-31.7976,-37.432,-2.45189,1014.48
30962,-0.253467,9.71784,1.22908,0.63,0.35,-0.7,-30.4225,-37.403,-2.26759,1014.48
30968,-0.301291,9.73697,1.25299,0.49,-0.14,-0.63,-30.5944,-37.8082,-2.6929,1014.51
30974,-0.325203,9.76088,1.27212,0.07,0.42,-0.77,-30.9095,-36.4191,-2.72126,1014.51
30980,-0.315638,9.77044,1.27212,0.14,-0.35,-0.49,-31.0814,-36.7664,-2.76379,1014.55
30986,-0.315638,9.79914,1.24342,0.42,-0.14,-0.28,-31.196,-36.969,-2.04075,1014.55
30992,-0.310856,9.79914,1.22429,0.56,-0.28,0,-30.3939,-36.2165,-0.977469,1014.5
30998,-0.306074,9.76088,1.26255,0.21,0.07,0,-31.9694,-35.9272,-1.53038,1014.5
31004,-0.320421,9.7561,1.28168,0.49,0.14,0.35,-30.8809,-36.969,-2.62202,1014.51
31010,-0.334768,9.80392,1.23864,0.49,-0.07,0.07,-31.4538,-37.9818,-2.06911,1014.51
31016,-0.286944,9.78479,1.24821,0.35,-0.28,0.49,-31.7116,-36.8532,-1.62962,1014.5
31022,-0.25825,9.72262,1.29603,0.7,-0.63,0.14,-31.3392,-37.8661,-2.73543,1014.5
31028,-0.25825,9.76088,1.21951,0.42,-0.49,0.14,-30.9382,-38.3001,-3.06151,1014.5
31034,-0.272597,9.73697,1.21473,0.63,-0.56,0.35,-31.7403,-36.5638,-1.89898,1014.54
31040,-0.277379,9.77523,1.23386,0.56,0.21,0.49,-31.4251,-37.3741,-1.43114,1014.54
31046,-0.296509,9.80392,1.17647,0.35,0,0.56,-31.0814,-37.895,-2.60784,1014.48
31052,-0.23912,9.78479,1.20995,0.35,0.42,0.28,-30.8809,-36.6796,-2.55113,1014.48
31058,-0.23912,9.76088,1.21473,0.56,-0.28,0.49,-32.3705,-36.9979,-2.1967,1014.52
31064,-0.282162,9.7274,1.23386,0.14,-0.14,0.49,-30.9095,-37.3741,-2.08329,1014.52
31070,-0.267814,9.71784,1.24342,0.21,-0.49,0.42,-30.9954,-37.5767,-2.04075,1014.52
31076,-0.301291,9.71784,1.2769,0.35,-0.63,0.35,-30.709,-36.3034,-2.0124,1014.52
31082,-0.267814,9.73218,1.2769,-0.28,-0.77,0.07,-31.1387,-37.895,-1.99822,1014.51
31088,-0.267814,9.72262,1.25777,0.28,-0.49,0.35,-31.2246,-38.6764,-3.28834,1014.51
31094,-0.306074,9.74175,1.21951,0.49,0.56,0.28,-31.3965,-36.8821,-0.764811,1014.54
31100,-0.296509,9.81827,1.19082,0.21,0.14,0.35,-31.1387,-37.1715,-1.3319,1014.54
31106,-0.363462,9.83261,1.27212,-0.14,0.35,0.7,-31.5684,-37.8371,-2.60784,1014.54
31112,-0.416069,9.84696,1.24342,0.28,-0.7,1.26,-31.3106,-37.0268,-1.84227,1014.5
31118,-0.35868,9.86609,1.21951,-0.14,-0.49,1.4,-32.2272,-36.2455,-1.37443,1014.5
31124,-0.301291,9.89,1.16212,-0.49,-0.7,1.47,-31.5684,-38.4159,-2.05493,1014.53
31130,-0.286944,9.77044,1.18125,-0.49,-0.98,1.82,-31.5111,-38.5027,-2.15417,1014.53
31136,-0.23912,9.77044,1.25777,-0.77,-0.7,1.54,-31.1387,-35.522,-0.878229,1014.54
31142,-0.267814,9.69871,1.37255,-0.07,-0.77,1.75,-30.7663,-37.0268,-1.72886,1014.54
31148,-0.263032,9.70827,1.31516,0.42,0.14,1.54,-31.0241,-38.2423,-2.06911,1014.53
31154,-0.224773,9.74175,1.23864,-0.07,-0.35,1.61,-30.3652,-36.477,-1.36025,1014.53
31160,-0.210426,9.72262,1.24342,-0.35,-0.56,1.61,-32.0267,-36.1876,-1.23266,1014.54
31166,-0.248685,9.70827,1.28647,0.56,-0.21,1.26,-30.7949,-38.1555,-2.40936,1014.54
31172,-0.234338,9.71784,1.30081,0.14,-0.49,0.77,-30.9095,-36.3902,-1.85645,1014.51
31178,-0.229555,9.6748,1.28168,0.49,-0.28,0.84,-31.2533,-36.7374,-1.41696,1014.51
31184,-0.23912,9.76088,1.24342,0.77,-0.14,1.05,-31.6543,-38.0976,-2.66455,1014.51
31190,-0.234338,9.75131,1.15734,0.35,-0.28,0.84,-31.2246,-37.403,-1.77139,1014.51
31196,-0.263032,9.77044,1.18604,0.07,-0.56,0.91,-31.1673,-37.1715,-1.26101,1014.51
31202,-0.215208,9.7274,1.17647,-17.78,-0.49,1.19,-30.5085,-37.7503,-2.33847,1014.51
31208,-0.248685,9.73218,1.26255,0.28,-0.49,0.84,-31.2819,-38.4159,-1.62962,1014.51
31214,-0.267814,9.75131,1.24342,0.21,-0.63,0.91,-31.6543,-37.0847,-1.54455,1014.52
31220,-0.282162,9.80392,1.23386,-17.71,-0.49,1.05,-31.4251,-37.0847,-1.44531,1014.52
31226,-0.23912,9.8087,1.15256,-0.56,-0.21,1.05,-31.0527,-38.358,-2.62202,1014.53
31232,-0.21999,9.76088,1.20516,-0.77,-0.28,1.19,-31.3106,-36.477,-1.91316,1014.53
31238,-0.224773,9.74175,1.3056,-0.28,0,1.19,-31.9694,-37.1715,-1.44531,1014.52
31244,-0.210426,9.72262,1.29125,0.07,-0.21,0.63,-31.196,-37.4609,-2.67873,1014.52
31250,-0.234338,9.7274,1.24821,-0.07,-0.28,0.77,-31.7403,-37.3741,-2.16835,1014.51
31256,-0.267814,9.69871,1.32951,-17.71,-0.63,1.05,-31.5397,-36.3034,-0.0559544,1014.51
31262,-0.234338,9.70349,1.31038,0.21,0,0.77,-32.7715,-39.0236,-3.11822,1014.52
31268,-0.253467,9.81349,1.21473,0.63,-0.77,0.98,-31.7976,-38.2423,-2.13999,1014.52
31274,-0.253467,9.81349,1.15256,0,-0.35,1.26,-31.8548,-36.9111,-1.78557,1014.52
31280,-0.181731,9.74653,1.21473,-0.28,-0.28,0.84,-31.6543,-37.1715,-1.36025,1014.51
31286,-0.21999,9.67958,1.32472,-0.07,-0.56,0.49,-30.9382,-37.9818,-2.6929,1014.51
31292,-0.143472,9.69392,1.26734,0.42,-0.07,0.56,-30.5944,-37.4899,-1.37443,1014.53
31298,-0.21999,9.71784,1.26255,0.21,0.14,0.21,-31.4824,-36.3323,-0.452914,1014.53
31304,-0.21999,9.73218,1.21951,0.14,0,0.28,-31.7116,-37.5767,-2.48025,1014.51
31310,-0.210426,9.79914,1.17169,-17.78,-0.21,0.7,-31.3965,-37.8661,-2.66455,1014.51
31316,-0.234338,9.78479,1.1956,-0.63,-0.21,0.21,-31.7689,-36.0719,-0.949114,1014.52
31322,-0.205643,9.78479,1.17647,-0.7,0.07,0.28,-31.7403,-37.7214,-2.23923,1014.52
31328,-0.253467,9.7274,1.28168,-0.21,0.21,0.49,-31.0814,-37.9239,-1.8281,1014.52
31334,-0.23912,9.72262,1.27212,0.21,-0.21,0.42,-31.597,-36.1008,-0.339497,1014.52
31340,-0.234338,9.73218,1.30081,-0.42,0.14,0.63,-32.17,-36.477,-2.23923,1014.56
31346,-0.191296,9.71305,1.26734,-0.35,-0.42,0.98,-31.0527,-37.5477,-3.95467,1014.56
31352,-0.21999,9.77044,1.2769,0.07,-0.35,0.49,-31.597,-36.3612,-2.21088,1014.56
31358,-0.243902,9.71305,1.2769,0.28,-0.49,0.91,-31.5397,-35.8693,-1.37443,1014.53
31364,-0.215208,9.73218,1.21473,17.5,0.49,0.49,-30.6803,-37.3452,-4.20986,1014.53
31370,-0.186514,9.71305,1.23864,-0.56,0.07,0.56,-31.3679,-37.0558,-2.36683,1014.54
31376,-0.21999,9.70349,1.28647,0.14,-0.35,0.28,-31.5397,-37.0268,-1.99822,1014.54
31382,-0.167384,9.70349,1.31038,0.21,-0.07,0.07,-31.196,-37.8082,-2.67873,1014.55
31388,-0.196078,9.71784,1.25777,0.49,-0.14,0.14,-31.0814,-38.1844,-2.60784,1014.55
31394,-0.172166,9.70349,1.2769,0.42,0.28,0,-31.1387,-36.477,-1.75721,1014.54
31400,-0.196078,9.67001,1.31038,0.35,-0.07,-0.42,-31.196,-37.3452,-2.04075,1014.54
31406,-0.167384,9.70827,1.2769,0.98,0.28,-0.28,-31.7976,-38.1844,-2.60784,1014.52
31412,-0.200861,9.77523,1.20995,0.49,-0.14,-0.35,-31.7403,-36.6506,-2.05493,1014.52
31418,-0.196078,9.78957,1.20995,0.28,0.07,-0.35,-31.2819,-36.4481,-1.74303,1014.49
31424,-0.21999,9.75131,1.25299,0.42,-0.07,-0.07,-31.683,-37.9818,-1.95569,1014.49
31430,-0.248685,9.74175,1.26734,0.56,0.14,-0.28,-31.0814,-37.1137,-2.62202,1014.53
31436,-0.21999,9.70827,1.2769,-0.14,0.56,-0.7,-31.3679,-37.2005,-1.2043,1014.53
31442,-0.21999,9.72262,1.26734,0.7,0.42,-0.42,-31.2246,-37.5188,-2.70708,1014.53
31448,-0.21999,9.76566,1.25777,0.49,0.28,-0.42,-30.7663,-38.0397,-2.83467,1014.54
31454,-0.176949,9.74175,1.2769,0.28,-0.56,-0.77,-30.9954,-36.9979,-1.61544,1014.54
31460,-0.210426,9.72262,1.28168,0.49,-0.42,-0.56,-31.2819,-37.4899,-2.09746,1014.5
31466,-0.196078,9.71784,1.2769,0.35,-0.56,-1.05,-30.7663,-38.0108,-2.39518,1014.5
31472,-0.181731,9.68436,1.25777,0.35,0.7,-1.19,-31.597,-37.4609,-2.89138,1014.53
31478,-0.210426,9.7274,1.29603,0.77,0.07,-0.77,-31.2819,-36.3034,-1.68633,1014.53
31484,-0.301291,9.77523,1.27212,0.63,0.7,-0.77,-30.8522,-37.3452,-1.87063,1014.5
31490,-0.315638,9.78957,1.27212,0.84,0.28,-0.77,-30.8522,-37.8371,-1.99822,1014.5
31496,-0.25825,9.78957,1.24821,0.56,0.84,-0.35,-30.8236,-36.6796,-1.41696,1014.52
31502,-0.301291,9.84218,1.22908,0.28,-0.21,-0.42,-31.196,-37.6635,-1.88481,1014.52
31508,-0.325203,9.87566,1.1956,0.49,-0.98,0.21,-30.5944,-37.7793,-1.87063,1014.51
31514,-0.243902,9.83261,1.21473,-0.07,-0.77,-0.14,-31.5111,-37.5767,-1.84227,1014.51
31520,-0.243902,9.75131,1.2769,0.14,-0.56,0.21,-31.1387,-37.1426,-1.91316,1014.51
31526,-0.234338,9.71305,1.31516,0.07,0.49,0.14,-30.9954,-38.3291,-1.8281,1014.5
31532,-0.215208,9.73218,1.26734,-0.07,0.21,0.07,-31.11,-36.7374,-2.38101,1014.5
31538,-0.210426,9.73697,1.3056,0.35,0.63,-0.14,-31.8835,-36.3323,-1.84227,1014.51
31544,-0.200861,9.70827,1.29603,0,-0.28,0.07,-31.5684,-37.6924,-3.48682,1014.51
31550,-0.191296,9.7274,1.26734,0.63,0.14,-0.35,-31.6257,-36.94,-2.94809,1014.54
31556,-0.186514,9.71305,1.27212,0.98,-0.28,-0.35,-31.6543,-36.0429,-2.33847,1014.54
31562,-0.172166,9.71305,1.24821,0.42,0.07,-0.42,-31.683,-37.0558,-2.91974,1014.52
31568,-0.167384,9.71784,1.2769,0.14,0.14,-0.7,-31.3679,-37.403,-2.38101,1014.52
31574,-0.186514,9.72262,1.24342,0.49,0.28,-0.49,-30.623,-36.5638,-1.64379,1014.52
31580,-0.23912,9.73697,1.22908,0.56,-0.07,-0.56,-31.2246,-36.6217,-1.27519,1014.52
31586,-0.234338,9.7561,1.23386,0.35,0.07,-0.49,-30.0501,-38.4738,-2.23923,1014.52
31592,-0.229555,9.74175,1.21473,0.07,0.07,-0.77,-30.1933,-37.3741,-1.07671,1014.52
31598,-0.286944,9.71305,1.29125,0.56,0.14,-0.42,-29.7923,-36.0429,-1.28937,1014.5
31604,-0.301291,9.75131,1.29603,0.63,0,-0.42,-30.5371,-37.895,-2.3243,1014.5
31610,-0.25825,9.81827,1.22429,0,-0.28,-0.28,-30.5944,-36.7374,-2.55113,1014.5
31616,-0.277379,9.8374,1.23386,0.28,-0.35,0.07,-31.1387,-36.1008,-1.7005,1014.51
31622,-0.267814,9.80392,1.22908,0.21,-0.56,-0.07,-30.3939,-37.2584,-2.70708,1014.51
31628,-0.23912,9.74175,1.26734,0.28,-0.14,0.14,-30.7949,-37.2873,-3.55771,1014.52
31634,-0.229555,9.69871,1.28168,0.42,-0.14,-0.14,-30.7949,-36.5349,-1.55873,1014.52
31640,-0.200861,9.73218,1.25299,0.49,0.07,-0.07,-30.623,-36.7085,-3.20328,1014.5
31646,-0.200861,9.68914,1.31994,0.77,-0.14,-0.28,-30.2793,-38.4738,-2.89138,1014.5
31652,-0.21999,9.66045,1.32951,0.98,-17.71,0.07,-31.1673,-36.7664,-3.24581,1014.53
31658,-0.186514,9.71784,1.28647,0.42,-0.14,-0.42,-31.3392,-36.9979,-0.509623,1014.53
31664,-0.162602,9.72262,1.21473,0.84,-0.21,-0.28,-31.3392,-37.9818,-2.12582,1014.5
31670,-0.191296,9.74653,1.22429,0.7,-17.78,-0.56,-30.7376,-37.1426,-1.28937,1014.5
31676,-0.181731,9.74175,1.20995,0.7,-0.21,-0.35,-30.9095,-36.7374,-2.46607,1014.52
31682,-0.215208,9.7561,1.22429,0.42,-0.14,-0.42,-31.196,-37.1715,-2.0124,1014.52
31688,-0.25825,9.73697,1.21951,0.49,0.56,-0.49,-30.222,-37.8661,-1.94151,1014.52
31694,-0.263032,9.78479,1.25777,0.42,0.63,-0.35,-31.1673,-36.8821,-0.0134229,1014.49
31700,-0.282162,9.81827,1.24342,0.14,0.42,-0.14,-30.7949,-37.0268,-1.2043,1014.49
31706,-0.334768,9.81349,1.22908,0.77,-17.78,0.14,-30.7376,-38.3291,-1.71468,1014.53
31712,-0.334768,9.81827,1.24821,0.42,-0.42,0.28,-30.4798,-36.1587,-1.21848,1014.53
31718,-0.277379,9.82783,1.24342,0.21,-0.63,0.49,-31.3679,-36.9979,-0.934937,1014.54
31724,-0.301291,9.77523,1.30081,0.7,-0.35,0.91,-31.1673,-37.2005,-1.68633,1014.54
31730,-0.315638,9.83261,1.22908,0.14,-0.84,0.91,-30.9668,-37.6056,-2.80632,1014.49
31736,-0.263032,9.85174,1.21951,0,-0.49,0.84,-31.7116,-36.7374,-0.991646,1014.49
31742,-0.196078,9.78479,1.22429,-0.07,17.64,1.05,-30.9095,-37.432,-1.47367,1014.51
31760,-0.191296,9.70827,1.2769,0.49,-17.36,0.7,-31.1673,-36.4481,-0.892406,1014.52
31766,-0.167384,9.72262,1.28647,0.35,-0.28,0.7,-30.9095,-38.1265,-2.91974,1014.52
31772,-0.148254,9.67958,1.24821,0.49,-0.21,0.28,-31.2819,-37.1137,-2.11164,1014.54
31778,-0.124342,9.67958,1.25777,0.28,17.85,0.35,-31.3965,-36.0719,-2.09746,1014.54
31784,-0.186514,9.66045,1.30081,0.49,-0.28,0.21,-31.3106,-37.6056,-2.08329,1014.53
31790,-0.210426,9.69392,1.2769,0.77,0.56,-0.14,-31.0527,-37.403,-1.64379,1014.53
31796,-0.229555,9.73697,1.24342,1.05,-17.57,-0.07,-31.5684,-36.0719,-1.10506,1014.52
31802,-0.205643,9.77523,1.1956,0.7,0.21,0.14,-32.0554,-37.6056,-1.91316,1014.52
31808,-0.21999,9.78957,1.21951,0.56,-0.14,0.07,-30.623,-38.0686,-3.04733,1014.51
31814,-0.248685,9.74653,1.22429,0.63,17.78,0.21,-31.3965,-36.0719,-1.48785,1014.51
31820,-0.272597,9.85653,1.15734,0.21,0.14,0.21,-31.6257,-37.3452,-1.94151,1014.54
31826,-0.291726,9.86131,1.16212,0.14,0,0.49,-31.0241,-37.4899,-2.52278,1014.54
31832,-0.234338,9.82783,1.18604,-0.56,-0.07,0.56,-31.597,-36.8821,-1.5162,1014.54
31838,-0.205643,9.76088,1.24342,-0.49,0.28,0.77,-30.8236,-36.3612,-1.37443,1014.54
31844,-0.243902,9.73697,1.30081,-0.21,0.28,0.63,-31.11,-37.6635,-2.87721,1014.48
31850,-0.267814,9.7274,1.30081,-0.28,-0.21,0.42,-31.4251,-37.6346,-2.43771,1014.48
31856,-0.224773,9.75131,1.31516,-0.07,0,0.77,-31.5111,-36.2455,-0.82152,1014.48
31862,-0.205643,9.72262,1.28168,0.14,-0.14,0.28,-31.3106,-37.3741,-2.13999,1014.51
31868,-0.167384,9.75131,1.28647,0,0.28,0.56,-31.2246,-37.432,-2.28177,1014.51
31874,-0.196078,9.70349,1.30081,0.28,-0.14,0.42,-31.4538,-35.9561,-0.835697,1014.55
31880,-0.148254,9.74175,1.28647,0.07,-0.14,0.21,-31.5684,-36.5638,-1.77139,1014.55
31886,-0.200861,9.68914,1.32951,0.98,-0.28,0.49,-30.9668,-37.0558,-3.30252,1014.53
31892,-0.124342,9.67958,1.32951,0.7,-0.42,-0.21,-31.3392,-36.6217,-2.36683,1014.53
31898,-0.176949,9.67001,1.29603,1.12,-0.28,-0.28,-30.6803,-36.6217,-0.608863,1014.48
31904,-0.186514,9.71305,1.21951,0.98,17.36,-0.35,-30.9954,-37.4899,-2.09746,1014.48
31910,-0.196078,9.76566,1.18604,0.7,0.35,-0.35,-31.3106,-37.7793,-1.60126,1014.51
31916,-0.243902,9.8087,1.16691,0.91,0.42,-0.07,-31.3392,-36.1876,-1.2043,1014.51
31922,-0.243902,9.81349,1.20038,-0.14,0.21,-0.28,-30.9668,-37.2584,-2.04075,1014.53
31928,-0.191296,9.80392,1.20038,0,0.28,-0.14,-30.709,-37.2005,-1.7005,1014.53
31934,-0.23912,9.76566,1.21473,-0.14,-0.28,0,-31.1387,-35.6088,-1.60126,1014.53
31940,-0.224773,9.80392,1.22429,-0.49,0.21,0,-31.8262,-36.8532,-1.06253,1014.52
31946,-0.296509,9.78479,1.31038,-0.35,-0.21,0,-32.0554,-38.1844,-2.8205,1014.52
31952,-0.191296,9.72262,1.31516,-0.21,-0.56,-0.07,-30.9382,-36.2165,-1.84227,1014.52
31958,-0.124342,9.70827,1.30081,0.49,0,0.07,-31.196,-36.7374,-1.55873,1014.52
31964,-0.196078,9.7274,1.26734,0.35,-0.42,-0.21,-30.7663,-37.4899,-2.08329,1014.52
31970,-0.215208,9.71784,1.31038,0.07,-0.28,-0.28,-30.9382,-37.4899,-2.23923,1014.52
31976,-0.186514,9.70827,1.28168,1.05,-0.49,-0.42,-31.4538,-35.9561,-2.21088,1014.53
31982,-0.167384,9.7274,1.26255,0.42,0,-0.28,-31.6257,-36.9979,-2.15417,1014.53
31988,-0.210426,9.7561,1.22908,0.21,0.63,-0.42,-31.0527,-38.2423,-2.76379,1014.51
31994,-0.167384,9.71784,1.23386,0.49,0.49,-0.63,-30.4512,-35.9561,-1.64379,1014.51
32000,-0.243902,9.72262,1.29125,0.91,0.14,-0.7,-31.3392,-37.2873,-2.02658,1014.5
32006,-0.267814,9.74175,1.28168,0.42,-0.28,-0.56,-30.7376,-37.1715,-1.61544,1014.5
32012,-0.248685,9.83261,1.1956,1.12,-0.14,-0.28,-31.4251,-36.5928,-2.02658,1014.53
32018,-0.229555,9.80392,1.21951,0.63,-0.42,-0.28,-30.9954,-37.1426,-2.36683,1014.53
32024,-0.215208,9.8087,1.21473,0.77,0.28,-0.35,-31.683,-37.5477,-1.60126,1014.53
32030,-0.263032,9.83261,1.20516,-0.21,0,-17.71,-30.9668,-36.969,-2.62202,1014.52
32036,-0.25825,9.77044,1.25299,-0.14,0,0.07,-32.1127,-36.7953,-1.50202,1014.52
32042,-0.234338,9.77044,1.25777,0.14,-0.49,0.28,-31.3106,-37.5188,-1.89898,1014.54
32048,-0.176949,9.74175,1.29603,0.21,-0.14,0.56,-30.4225,-37.8661,-2.73543,1014.54
32054,-0.200861,9.70827,1.35342,0.35,-0.42,0.21,-30.8522,-36.8821,-1.23266,1014.53
32060,-0.186514,9.71305,1.27212,0.21,0.42,0.42,-30.4225,-36.3612,-2.23923,1014.53
32066,-0.205643,9.72262,1.2769,0.7,0.07,0.14,-30.5944,-37.8661,-3.41594,1014.52
32072,-0.224773,9.7274,1.27212,0.84,0.07,0.07,-31.3965,-36.7664,-2.46607,1014.52
32078,-0.176949,9.70827,1.2769,0.7,0,-0.07,-31.597,-36.1587,-1.43114,1014.53
32084,-0.181731,9.73218,1.26734,1.12,0.56,0.07,-31.5111,-37.3741,-3.51518,1014.53
32090,-0.143472,9.68436,1.26255,1.26,0.21,-0.21,-31.0814,-37.5767,-1.8281,1014.54
32096,-0.21999,9.68914,1.27212,0.91,-0.7,-0.63,-31.4824,-36.5349,-1.41696,1014.54
32102,-0.205643,9.70827,1.27212,1.19,-0.21,-0.42,-30.9382,-37.1426,-2.96227,1014.54
32108,-0.248685,9.74175,1.20516,0.91,-0.42,0.07,-31.0241,-37.895,-3.3167,1014.5
32114,-0.229555,9.78957,1.20995,0.98,0.35,-0.28,-30.9668,-36.3902,-1.71468,1014.5
32120,-0.200861,9.77044,1.22429,0.56,-0.07,-0.21,-31.7403,-37.1715,-1.87063,1014.52
32126,-0.200861,9.74175,1.26255,0.42,0.56,-0.21,-31.2246,-37.6924,-2.62202,1014.52
32132,-0.253467,9.78957,1.29125,0.56,0.21,-0.07,-31.3679,-36.3612,-2.16835,1014.47
32138,-0.196078,9.78957,1.27212,0.7,0.07,17.5,-31.2533,-36.4191,-1.88481,1014.47
32144,-0.162602,9.79914,1.1956,0.35,-0.14,0,-30.709,-37.4609,-2.83467,1014.52
32150,-0.162602,9.7561,1.27212,0.21,0.14,-0.21,-30.8522,-37.2005,-3.1891,1014.52
32156,-0.291726,9.73218,1.31994,0.49,-0.49,-17.92,-31.597,-36.477,-2.66455,1014.54
32162,-0.181731,9.8087,1.16212,0.42,0.28,-0.21,-30.3939,-36.94,-3.06151,1014.54
32168,-0.205643,9.78957,1.18125,0.21,0.63,-0.35,-31.3106,-37.403,-3.06151,1014.52
32174,-0.196078,9.74175,1.23386,-0.07,0.84,0,-31.0241,-35.985,-2.66455,1014.52
32180,-0.243902,9.70827,1.3056,0.14,0.42,0,-31.6257,-36.9111,-2.1967,1014.52
32186,-0.172166,9.70349,1.29603,0.84,-0.42,-0.84,-30.4512,-38.2133,-3.13239,1014.52
32192,-0.191296,9.7561,1.24342,0.14,-0.14,-0.42,-30.8522,-37.2873,-2.83467,1014.52
32198,-0.172166,9.70349,1.28647,0.42,0.07,-0.56,-31.3679,-36.5349,-2.59366,1014.51
32204,-0.215208,9.7561,1.30081,0.42,0.35,-0.35,-31.6543,-37.9529,-3.3167,1014.51
32210,-0.205643,9.74175,1.24821,0.56,-0.14,-0.63,-31.1387,-36.969,-2.91974,1014.5
32216,-0.234338,9.77523,1.23386,0.28,0.49,-0.77,-31.5397,-36.3612,-2.87721,1014.5
32222,-0.243902,9.76566,1.23864,0.28,0.07,-0.28,-31.2533,-36.94,-3.21746,1014.48
32228,-0.21999,9.7561,1.30081,0.14,0.14,-0.49,-32.0554,-36.8532,-3.06151,1014.48
32234,-0.243902,9.78001,1.30081,0.49,0.07,-0.63,-31.9121,-36.3034,-2.31012,1014.54
32240,-0.23912,9.7561,1.30081,0.63,-0.56,0,-31.0527,-36.3034,-2.67873,1014.54
32246,-0.210426,9.77523,1.24821,0.49,-0.14,17.71,-30.8809,-37.5477,-3.0048,1014.53
32252,-0.21999,9.76088,1.1956,0.56,-0.63,-0.21,-30.5657,-36.94,-2.91974,1014.53
32258,-0.205643,9.8087,1.18604,0.28,-0.49,0.21,-31.5111,-36.0719,-1.87063,1014.51
32264,-0.191296,9.76088,1.21473,-0.35,-0.63,17.78,-30.9954,-38.1265,-3.501,1014.51
32270,-0.21999,9.70349,1.28168,0.21,0.14,-0.07,-30.5944,-37.2873,-2.79214,1014.51
32276,-0.224773,9.68436,1.31038,0.35,0.35,-0.07,-30.9095,-36.5059,-1.43114,1014.51
32282,-0.200861,9.7274,1.27212,0.77,0.28,-17.78,-31.1387,-37.432,-2.38101,1014.51
32288,-0.205643,9.74175,1.26255,0.35,0.84,0.14,-31.2246,-37.6635,-2.1967,1014.49
32294,-0.215208,9.75131,1.31516,0.56,-0.14,-0.07,-32.6856,-36.7953,-2.97645,1014.49
32300,-0.224773,9.74653,1.24342,0.7,0.56,17.71,-31.11,-36.9111,-1.65797,1014.51
32306,-0.234338,9.74653,1.28168,0.35,-0.28,0.07,-30.8522,-38.3001,-3.10404,1014.51
32312,-0.196078,9.73218,1.26734,0.7,-0.91,-0.14,-30.8809,-36.5059,-2.28177,1014.52
32318,-0.229555,9.74653,1.25777,0.21,-0.84,-0.14,-31.2819,-35.8693,-1.34607,1014.52
32324,-0.229555,9.7274,1.28647,0.56,-0.49,0.21,-31.3679,-37.8661,-2.25341,1014.53
32330,-0.176949,9.7561,1.24342,0.98,0.63,-0.28,-31.6543,-37.5188,-2.49442,1014.53
32336,-0.200861,9.72262,1.26734,1.05,-0.07,17.57,-31.3965,-36.1297,-1.89898,1014.52
32342,-0.191296,9.78479,1.23386,0.7,0.49,-0.07,-31.4538,-37.0558,-2.38101,1014.52
32348,-0.205643,9.81349,1.18125,0.35,0.07,0.21,-31.3392,-36.8243,-2.96227,1014.52
32354,-0.200861,9.79436,1.1956,0.49,0.56,-0.07,-31.6257,-36.014,-1.50202,1014.55
32360,-0.133907,9.66045,1.30081,0.91,0.07,0,-31.9408,-36.8821,-1.8281,1014.55
32366,-0.186514,9.7561,1.17647,0,-0.98,-0.42,-30.5085,-37.7214,-3.64277,1014.55
32372,-0.176949,9.76088,1.26734,0.07,-0.49,-0.28,-31.1387,-36.5928,-2.29594,1014.55
32378,-0.172166,9.73697,1.25777,0.07,-0.77,-0.21,-31.11,-36.5928,-2.67873,1014.55
32384,-0.215208,9.70349,1.26734,0.35,0.35,0,-30.3939,-37.8661,-2.02658,1014.55
32390,-0.205643,9.71784,1.29125,0.56,-0.56,-0.35,-31.0527,-37.3741,-1.8281,1014.54
32396,-0.205643,9.72262,1.25299,0.35,0.49,-0.35,-30.623,-36.9111,-0.637217,1014.54
32402,-0.200861,9.73218,1.26734,0.35,0.7,-0.35,-31.4538,-37.403,-3.0048,1014.54
32408,-0.200861,9.73697,1.24821,0.42,0,-0.77,-30.8809,-38.0686,-2.59366,1014.54
32414,-0.224773,9.7561,1.24342,0.56,0.35,-0.42,-31.196,-36.8821,-1.68633,1014.53
32420,-0.263032,9.81827,1.22429,0.49,-0.07,-0.07,-30.9954,-37.4609,-2.0124,1014.53
32426,-0.248685,9.77523,1.24821,0,0.42,-0.28,-31.4251,-38.5027,-2.94809,1014.51
32432,-0.224773,9.7561,1.2769,0.07,-0.35,-0.35,-31.8835,-36.8821,-1.96987,1014.51
32438,-0.205643,9.75131,1.23864,0.35,-0.63,0.07,-31.2819,-36.6796,-0.778989,1014.51
32444,-0.229555,9.80392,1.20516,0.35,-0.07,-0.35,-30.709,-37.2294,-2.53695,1014.5
32450,-0.291726,9.84696,1.22908,0.63,-0.77,-0.07,-31.5684,-38.358,-2.60784,1014.5
32456,-0.263032,9.77044,1.28168,0.28,-0.21,0.14,-31.2819,-36.9979,-1.44531,1014.48
32462,-0.23912,9.79914,1.24342,-0.07,-0.77,0.21,-31.4251,-37.5188,-2.12582,1014.48
32468,-0.210426,9.77523,1.21951,0.14,-0.07,0,-30.5371,-38.1844,-2.46607,1014.53
32474,-0.229555,9.79914,1.23386,0,-0.07,0.28,-30.709,-35.8114,-2.29594,1014.53
32480,-0.210426,9.7561,1.25299,-0.07,-0.07,0.07,-30.9095,-37.1137,-1.21848,1014.49
32486,-0.21999,9.74653,1.25299,0.21,-0.28,0.07,-30.7663,-38.85,-2.91974,1014.49
32492,-0.176949,9.70827,1.26734,0.35,0.14,0,-30.7376,-35.9272,-2.87721,1014.52
32498,-0.181731,9.7274,1.25777,-0.21,0.49,0.21,-31.2819,-37.2005,-1.78557,1014.52
32504,-0.186514,9.71784,1.26255,0.07,0.21,-0.07,-30.4798,-37.9239,-3.20328,1014.54
32510,-0.191296,9.71305,1.28168,0.28,-0.07,-0.07,-30.5657,-37.3741,-2.62202,1014.54
32516,-0.210426,9.71784,1.2769,0.21,-0.28,-0.42,-31.3965,-36.6217,-1.54455,1014.54
32522,-0.196078,9.71784,1.24342,0.42,-0.07,-0.21,-31.5684,-37.3162,-2.57949,1014.54
32528,-0.215208,9.79914,1.20038,0.56,0.21,-0.14,-31.3392,-37.2584,-3.84125,1014.54
32534,-0.210426,9.80392,1.20038,0.07,0.14,-0.49,-31.2533,-36.0719,-1.91316,1014.51
32540,-0.243902,9.78479,1.21951,-0.35,0.21,0.07,-30.8522,-36.6217,-2.53695,1014.51
32546,-0.215208,9.79436,1.21951,0,-0.21,0.14,-31.0814,-37.9818,-3.41594,1014.51
32552,-0.263032,9.79436,1.28168,-0.07,-0.21,-0.28,-31.11,-36.969,-1.74303,1014.51
32558,-0.248685,9.78001,1.27212,0,-0.35,0.14,-31.3392,-36.4481,-2.59366,1014.49
32564,-0.191296,9.77523,1.28168,0.21,-0.14,-0.14,-31.3106,-38.0108,-3.03315,1014.49
32570,-0.23912,9.7561,1.28647,0,-0.21,0.28,-31.2246,-36.8821,-2.35265,1014.55
32576,-0.191296,9.77523,1.27212,0.35,0.21,0.14,-31.5111,-35.9561,-1.98405,1014.55
32582,-0.215208,9.73697,1.29125,0.49,0.21,0.49,-31.3679,-37.8661,-2.42354,1014.54
32588,-0.172166,9.74175,1.26255,0.28,0.28,-0.07,-31.0241,-38.1555,-2.87721,1014.54
32594,-0.176949,9.71784,1.23864,0.77,-0.49,0.21,-32.5997,-36.1876,-2.79214,1014.5
32600,-0.162602,9.74653,1.23864,0.63,-0.14,0,-31.6257,-36.5059,-2.08329,1014.5
32606,-0.167384,9.73218,1.25777,0.14,-0.49,0.14,-30.222,-37.8661,-3.04733,1014.5
32612,-0.205643,9.70827,1.29603,0.84,0.21,0,-32.0267,-36.3612,-1.68633,1014.54
32618,-0.191296,9.69871,1.25299,0.21,0.42,-0.35,-31.8548,-36.7664,-1.72886,1014.54
32624,-0.224773,9.73697,1.24342,0.28,0.21,0.07,-31.4251,-38.387,-2.48025,1014.5
32630,-0.229555,9.76088,1.24342,0.63,0.07,-0.28,-31.6257,-37.0268,-3.01898,1014.5
32636,-0.248685,9.77044,1.22908,0.42,-0.21,-0.56,-31.5397,-36.7374,-2.16835,1014.53
32642,-0.248685,9.76566,1.24342,0.28,-0.28,0,-30.7376,-37.7503,-2.87721,1014.53
32648,-0.200861,9.76566,1.26734,0.63,-0.63,-0.35,-31.3679,-37.6056,-3.21746,1014.5
32654,-0.291726,9.78479,1.21473,0.42,0.07,-0.07,-31.683,-36.4481,-1.61544,1014.5
32660,-0.234338,9.79914,1.23864,0.21,-0.21,0.35,-31.6257,-36.9111,-2.62202,1014.49
32666,-0.186514,9.77044,1.24821,0.42,0.28,0.14,-31.1387,-38.0397,-3.43011,1014.49
32672,-0.205643,9.78001,1.25299,0.28,-0.28,-0.14,-31.7689,-36.3902,-1.78557,1014.56
32678,-0.200861,9.77523,1.24342,-0.07,0.35,0.21,-31.5684,-36.5059,-0.72228,1014.56
32684,-0.205643,9.71305,1.28168,-0.28,-0.21,0.14,-30.9668,-38.387,-2.60784,1014.56
32690,-0.191296,9.68914,1.31994,0.42,-0.35,-0.14,-31.8548,-37.2584,-1.64379,1014.52
32696,-0.181731,9.74653,1.27212,0.49,-0.56,-0.14,-32.6283,-36.7664,-2.91974,1014.52
32702,-0.200861,9.75131,1.23864,0.49,-0.28,0,-31.7689,-37.1426,-3.51518,1014.52
32708,-0.205643,9.72262,1.24821,0.56,-0.07,-0.07,-31.0527,-37.9818,-2.70708,1014.52
32714,-0.181731,9.72262,1.28647,0.14,-0.28,-0.14,-30.9382,-35.6957,-1.07671,1014.49
32720,-0.191296,9.73218,1.2769,0.28,0.21,0,-32.0554,-37.3741,-0.934937,1014.49
32726,-0.224773,9.76566,1.24821,0.28,0,-0.07,-31.1673,-38.3001,-1.98405,1014.5
32732,-0.224773,9.76566,1.24342,0.63,0.35,-0.21,-30.9095,-36.3612,-1.81392,1014.5
32738,-0.234338,9.77044,1.26255,0.28,-0.14,-0.14,-31.8548,-36.5928,-1.7005,1014.53
32744,-0.200861,9.74653,1.25777,0.28,0.07,0,-30.9095,-37.6346,-3.01898,1014.53
32750,-0.23912,9.78957,1.25299,0.35,-0.21,-0.07,-31.6543,-37.2294,-2.45189,1014.53
32756,-0.234338,9.78001,1.25299,0.28,0.14,0.07,-31.4824,-36.0719,-0.807343,1014.53
32762,-0.200861,9.78479,1.2769,0.07,-0.35,0.21,-31.0814,-37.3452,-1.14759,1014.53
32768,-0.186514,9.75131,1.23864,0.49,0,-0.07,-31.196,-37.3741,-1.7005,1014.53
32774,-0.215208,9.76566,1.23386,0.35,-0.35,0.49,-31.7116,-35.5799,-0.991646,1014.53
32780,-0.215208,9.78957,1.24342,0,-0.63,0.14,-31.0814,-37.5477,-1.72886,1014.52
32786,-0.181731,9.7561,1.21951,0.14,-0.84,0.21,-31.0814,-37.8661,-2.16835,1014.52
32792,-0.157819,9.70827,1.26734,0,-0.21,-0.14,-32.0267,-36.1587,-0.339497,1014.52
32798,-0.157819,9.72262,1.26734,0,0.56,-0.28,-32.1413,-37.7214,-2.43771,1014.52
32804,-0.200861,9.70349,1.31516,-0.07,0.14,-0.21,-31.597,-37.7214,-2.55113,1014.51
32810,-0.176949,9.69871,1.27212,0.28,0.49,-0.35,-31.5397,-37.1715,-2.11164,1014.51
32816,-0.200861,9.71305,1.29603,0.7,-0.28,-0.49,-32.084,-36.1587,-0.835697,1014.51
32822,-0.205643,9.74653,1.29125,0.49,0.28,-0.07,-30.5085,-37.432,-2.04075,1014.51
32828,-0.234338,9.73697,1.32951,0.28,-0.07,-0.07,-30.9954,-37.9818,-2.46607,1014.51
32834,-0.215208,9.76088,1.32472,0.91,-0.28,-0.21,-31.7403,-36.1587,-1.61544,1014.51
32840,-0.23912,9.78479,1.23386,0.35,-0.77,-0.35,-30.9095,-37.0847,-2.1967,1014.55
32846,-0.25825,9.78479,1.25777,0.35,0,0,-31.196,-38.6185,-2.87721,1014.55
32852,-0.282162,9.77044,1.25777,0.77,0.28,0.14,-31.4251,-36.7085,-2.3243,1014.55
32858,-0.234338,9.79914,1.1956,-0.28,0.14,-0.21,-30.9954,-36.5349,-1.75721,1014.54
32864,-0.215208,9.79914,1.20995,0.07,-0.07,-0.07,-31.0527,-37.895,-2.62202,1014.54
32870,-0.234338,9.74175,1.26255,0.28,0,0.07,-31.196,-36.1587,-1.74303,1014.53
32876,-0.191296,9.74653,1.27212,0.28,0,0,-31.7403,-36.3323,-1.02,1014.53
32882,-0.196078,9.7274,1.26734,-0.07,0,0.21,-31.4538,-37.7793,-2.36683,1014.52
32888,-0.157819,9.73697,1.25777,0,0,-0.28,-31.3106,-37.895,-2.16835,1014.52
32894,-0.172166,9.70827,1.28168,0.56,0,-0.28,-31.1673,-37.4609,-2.02658,1014.51
32900,-0.172166,9.69871,1.31038,0.42,0.28,-0.49,-31.4824,-38.0686,-2.60784,1014.51
32906,-0.196078,9.70827,1.26734,0.49,0.21,-0.42,-31.683,-38.3001,-2.26759,1014.53
32912,-0.186514,9.75131,1.27212,0.28,0.49,-0.56,-31.7689,-37.2873,-2.05493,1014.53
32918,-0.229555,9.7561,1.25777,0.28,-0.42,-0.49,-31.2819,-36.7374,-1.47367,1014.54
32924,-0.21999,9.78001,1.21473,0.28,-0.07,-0.35,-31.0241,-37.4899,-3.06151,1014.54
32930,-0.215208,9.77044,1.23386,0.35,-0.35,-0.56,-31.2533,-37.2294,-1.65797,1014.54
32936,-0.224773,9.79914,1.25299,0.14,-0.07,-0.07,-31.597,-36.1587,-1.19013,1014.5
32942,-0.267814,9.81827,1.19082,0.56,0.28,-0.14,-31.0241,-37.4899,-3.57189,1014.5
32948,-0.263032,9.79914,1.20516,-0.49,0.14,0.42,-31.2533,-37.4609,-2.28177,1014.52
32954,-0.181731,9.76566,1.28168,-0.56,0.49,-0.14,-31.2819,-36.3902,-1.77139,1014.52
32960,-0.200861,9.73697,1.29603,0,0,0.07,-31.7403,-37.2873,-2.36683,1014.53
32966,-0.186514,9.73218,1.26734,-0.07,0.49,0.14,-30.9954,-37.8371,-3.01898,1014.53
32972,-0.196078,9.74175,1.25777,-0.21,-0.35,-0.21,-31.7976,-36.7374,-1.54455,1014.5
32978,-0.153037,9.73697,1.26734,-0.42,0.07,0,-31.5684,-37.1137,-2.21088,1014.5
32984,-0.196078,9.69392,1.31994,0.63,-0.28,0.07,-30.9668,-38.1265,-3.77037,1014.5
32990,-0.191296,9.7274,1.23864,0.21,0.07,-0.21,-31.0527,-37.5188,-2.79214,1014.5
32996,-0.234338,9.72262,1.29603,-0.49,0.28,0,-31.3392,-36.8821,-2.76379,1014.53
33002,-0.196078,9.71305,1.29603,0.77,0.14,-0.42,-31.11,-37.9239,-3.25999,1014.53
33008,-0.200861,9.73697,1.24342,0.14,0,-0.21,-30.7949,-38.0686,-1.99822,1014.54
33014,-0.215208,9.80392,1.20995,-0.21,-0.42,0.07,-31.1387,-36.1587,-1.43114,1014.54
33020,-0.229555,9.74653,1.27212,0.14,-0.28,-0.21,-31.2533,-37.8082,-1.13342,1014.54
33026,-0.205643,9.75131,1.30081,0.07,-0.14,-0.28,-31.3965,-37.6635,-3.3167,1014.51
33032,-0.21999,9.76566,1.26255,0.21,0.21,-0.14,-30.5944,-36.5638,-1.26101,1014.51
33038,-0.215208,9.77523,1.23386,0.21,0.07,0,-31.3392,-36.7374,-1.54455,1014.52
33044,-0.186514,9.7274,1.27212,-0.07,0.42,-0.14,-31.196,-38.3001,-2.80632,1014.52
33050,-0.21999,9.70349,1.28647,0.14,-0.21,0,-31.1673,-37.1137,-2.09746,1014.51
33056,-0.215208,9.76088,1.29125,0.07,0,-0.14,-31.4538,-36.5928,-2.04075,1014.51
33062,-0.200861,9.74653,1.28647,0.07,-0.21,-0.28,-31.5111,-36.5928,-1.99822,1014.5
33068,-0.205643,9.71784,1.26734,-0.14,0.07,0.14,-30.9954,-37.5767,-1.98405,1014.5
33074,-0.191296,9.74653,1.28168,0.42,-0.14,-0.14,-31.8835,-36.5059,-1.72886,1014.53
33080,-0.181731,9.72262,1.29125,0,0,-0.28,-31.3106,-37.3452,-1.44531,1014.53
33086,-0.205643,9.74175,1.26255,0.14,-0.49,0.14,-31.0814,-37.5767,-2.55113,1014.56
33092,-0.191296,9.69392,1.32472,0.35,-0.42,-0.63,-31.196,-37.8371,-2.22506,1014.56
33098,-0.234338,9.72262,1.30081,0.91,-0.42,-0.28,-31.5397,-36.7664,-1.79974,1014.56
33104,-0.196078,9.79914,1.22908,0.42,-0.28,-0.14,-31.5684,-38.7342,-3.10404,1014.52
33110,-0.215208,9.77523,1.19082,-0.14,-0.84,-0.84,-31.1387,-36.8821,-1.89898,1014.52
33116,-0.23912,9.8087,1.21951,-0.07,-0.28,-0.49,-32.1127,-36.6217,-1.78557,1014.5
33122,-0.248685,9.73218,1.25299,0,0.35,0.07,-31.9694,-37.1137,-1.65797,1014.5
33128,-0.215208,9.76088,1.25299,0.14,0.42,-0.07,-31.4538,-37.0558,-2.45189,1014.51
33134,-0.229555,9.80392,1.22908,-0.7,-0.07,-0.07,-32.1127,-36.8532,-1.57291,1014.51
33140,-0.191296,9.71305,1.3056,-0.35,-0.49,-0.21,-32.5424,-37.0558,-1.67215,1014.51
33146,-0.272597,9.74653,1.31038,0.14,-0.49,-0.42,-31.6257,-37.5767,-2.38101,1014.51
33152,-0.234338,9.71305,1.31038,0.14,-0.7,0.14,-31.7976,-36.6506,-1.50202,1014.54
33158,-0.186514,9.75131,1.24821,0.14,-0.35,0.35,-31.196,-36.8821,-1.54455,1014.54
33164,-0.176949,9.74175,1.23864,-0.14,-0.63,0,-31.3679,-37.9529,-3.04733,1014.49
33170,-0.200861,9.70349,1.3056,0.42,-0.21,0,-31.3106,-36.8243,-2.35265,1014.49
33176,-0.224773,9.71305,1.31994,0.28,0.35,0,-31.7403,-35.7246,-2.22506,1014.48
33182,-0.200861,9.75131,1.28647,0.77,0.14,-0.35,-31.8835,-37.8661,-1.78557,1014.48
33188,-0.200861,9.77044,1.22908,0.07,-0.14,0.14,-31.9981,-37.7503,-1.28937,1014.48
33194,-0.186514,9.7561,1.28647,0.35,-0.28,-0.14,-31.5111,-35.7535,-2.77797,1014.51
33200,-0.205643,9.74653,1.29125,0.14,-0.35,-0.28,-31.3392,-37.1715,-2.29594,1014.51
33206,-0.224773,9.77044,1.22908,0.35,-0.56,-0.14,-31.5684,-37.8661,-2.53695,1014.51
33212,-0.191296,9.78001,1.23386,0.28,0.21,-0.28,-31.196,-36.8821,-2.42354,1014.51
33218,-0.23912,9.7561,1.24821,-0.28,0.21,-0.07,-30.8522,-36.7953,-3.20328,1014.53
33224,-0.229555,9.72262,1.27212,0.07,-0.21,0,-31.9694,-37.9239,-2.46607,1014.53
33230,-0.176949,9.73218,1.28168,-0.14,-0.28,0.07,-31.5397,-36.477,-1.99822,1014.51
33236,-0.210426,9.7274,1.28647,0,-0.35,0,-31.7116,-37.0558,-2.39518,1014.51
33242,-0.21999,9.76088,1.28168,0.28,-0.14,-0.07,-31.3392,-37.2005,-2.31012,1014.53
33248,-0.200861,9.74175,1.28168,0.21,0.35,-0.21,-31.1387,-37.1715,-3.34505,1014.53
33254,-0.25825,9.78957,1.25777,0.21,0.42,-0.28,-31.5684,-35.6088,-0.963291,1014.49
33260,-0.200861,9.7561,1.24821,0.14,-0.28,-0.35,-31.597,-37.2294,-1.81392,1014.49
33266,-0.200861,9.75131,1.25777,0.14,-0.56,-0.28,-31.683,-38.0108,-2.96227,1014.49
33272,-0.191296,9.73218,1.26734,0.56,-0.49,-0.21,-31.597,-36.7664,-1.5162,1014.52
33278,-0.196078,9.71784,1.27212,0,0,-0.21,-31.2819,-36.477,-2.45189,1014.52
33284,-0.23912,9.7561,1.27212,-0.35,0,-0.07,-30.8522,-38.358,-2.6929,1014.52
33290,-0.210426,9.73697,1.26734,0.7,0,-0.35,-30.709,-37.4899,-2.56531,1014.52
33296,-0.205643,9.73697,1.28168,0.14,-0.63,-0.56,-31.8548,-35.8982,-0.282789,1014.52
33302,-0.191296,9.72262,1.30081,-0.21,0.07,-0.21,-31.2533,-36.3612,-2.42354,1014.52
33308,-0.21999,9.71784,1.26255,0.35,0.14,0,-31.196,-37.4609,-2.57949,1014.53
33314,-0.21999,9.74653,1.2769,0.77,0.14,-0.35,-31.0527,-35.9272,-1.68633,1014.53
33320,-0.234338,9.76088,1.28168,0,-0.35,-0.42,-31.5111,-36.6796,-1.61544,1014.5
33326,-0.215208,9.75131,1.26255,0.21,-0.21,-0.14,-31.196,-37.9239,-2.26759,1014.5
33332,-0.210426,9.75131,1.25777,0.07,0,-0.14,-31.4824,-36.4481,-2.28177,1014.51
33338,-0.200861,9.7561,1.25299,0.35,-0.07,0.07,-30.9382,-36.7085,-1.77139,1014.51
33344,-0.229555,9.78001,1.26255,-0.63,-0.21,-0.14,-30.7663,-37.7503,-2.33847,1014.51
33350,-0.167384,9.73697,1.28168,-0.28,0.07,-0.21,-30.9668,-37.3741,-2.36683,1014.53
33356,-0.21999,9.71305,1.32951,0.84,-0.28,0,-31.4824,-36.1297,-2.3243,1014.53
33362,-0.176949,9.70827,1.3056,0,0.21,-0.28,-31.0814,-37.6924,-2.86303,1014.53
33368,-0.181731,9.69871,1.27212,0.49,0.07,-0.21,-30.6803,-37.3162,-2.49442,1014.53
33374,-0.21999,9.70349,1.2769,0.14,0,-0.21,-31.0814,-35.985,-2.05493,1014.51
33380,-0.200861,9.71305,1.27212,0,0.07,-0.56,-31.3679,-36.7664,-1.92734,1014.51
33386,-0.21999,9.69871,1.29125,0.35,-0.35,-0.77,-31.0527,-37.3741,-2.89138,1014.52
33392,-0.215208,9.75131,1.31038,0.56,-0.14,-0.42,-31.1387,-36.7085,-2.36683,1014.52
33398,-0.205643,9.72262,1.28647,0.07,-0.07,-0.35,-31.7403,-36.3902,-2.36683,1014.54
33404,-0.215208,9.7561,1.2769,0.63,0.28,0,-31.4824,-37.6056,-2.06911,1014.54
33410,-0.215208,9.78479,1.24821,0.49,-0.35,-0.49,-31.2533,-36.8821,-2.89138,1014.52
33416,-0.234338,9.7274,1.24342,0.28,-0.14,-0.35,-32.17,-36.2744,-1.53038,1014.52
33422,-0.263032,9.78001,1.23864,0.7,-0.56,0.14,-31.196,-37.2294,-1.60126,1014.52
33428,-0.248685,9.87566,1.17647,0,0.07,0.21,-30.5657,-37.9239,-1.48785,1014.52
33434,-0.215208,9.85174,1.18125,-0.21,-0.14,0.07,-31.2819,-35.9272,-0.892406,1014.52
33440,-0.215208,9.77044,1.25299,-0.49,-0.07,0.42,-31.2819,-36.5349,-1.11924,1014.56
33446,-0.205643,9.75131,1.31516,-0.49,-0.14,-0.07,-30.8236,-37.1426,-2.5086,1014.56
33452,-0.186514,9.74653,1.31516,-0.77,-0.14,0.49,-31.3679,-35.985,-1.89898,1014.54
33458,-0.23912,9.74175,1.32472,0.42,0,0.28,-31.196,-36.1587,-1.57291,1014.54
33464,-0.21999,9.71784,1.31994,0.21,0.07,0,-31.4824,-37.8661,-3.07569,1014.53
33470,-0.210426,9.70827,1.30081,-0.14,-0.07,0.42,-31.2246,-37.1426,-2.87721,1014.53
33476,-0.172166,9.69392,1.33907,-0.14,0.14,-0.07,-31.8835,-35.7825,-1.68633,1014.53
33482,-0.229555,9.67958,1.3582,0.56,0.07,0,-31.7116,-37.432,-1.85645,1014.53
33488,-0.143472,9.76088,1.24821,0.07,0.07,-0.28,-31.5684,-37.5188,-3.11822,1014.51
33494,-0.176949,9.71784,1.31516,0.35,0.07,-0.42,-31.8835,-36.3323,-2.05493,1014.51
33500,-0.191296,9.72262,1.26734,0.63,-0.21,-0.35,-31.7976,-36.1297,-2.13999,1014.49
33506,-0.191296,9.76566,1.22908,-0.21,0.14,-0.21,-30.7376,-38.0686,-2.80632,1014.49
33512,-0.23912,9.75131,1.2769,0.14,0.21,-0.42,-31.597,-36.477,-1.88481,1014.49
33518,-0.181731,9.77044,1.21951,-0.21,0.14,-0.35,-31.3679,-35.8693,-1.34607,1014.53
33524,-0.277379,9.79436,1.25777,-0.42,0.14,-0.21,-30.9954,-37.5477,-1.74303,1014.53
33530,-0.191296,9.78001,1.25777,-0.63,0,-0.28,-30.9668,-37.1137,-2.05493,1014.49
33536,-0.267814,9.76566,1.29125,-0.7,-0.28,0.14,-31.3679,-36.5349,-1.44531,1014.49
33542,-0.21999,9.74175,1.3056,-0.35,-0.07,-0.07,-31.11,-37.2873,-2.25341,1014.53
33548,-0.224773,9.77044,1.25777,-0.42,-0.21,-0.14,-31.3679,-38.0686,-1.64379,1014.53
33554,-0.243902,9.77523,1.3056,-0.42,-0.07,0.21,-31.7976,-36.6506,-1.48785,1014.54
33560,-0.200861,9.73697,1.32472,-0.42,-0.07,0.14,-31.5111,-36.94,-2.43771,1014.54
33566,-0.181731,9.70827,1.36298,-0.35,0.49,-0.07,-31.7976,-38.0397,-3.37341,1014.5
33572,-0.229555,9.7561,1.32472,-0.07,0.07,0.28,-31.4251,-35.985,-2.13999,1014.5
33578,-0.21999,9.73697,1.33907,0,0.7,0.07,-31.3392,-35.522,-2.55113,1014.53
33584,-0.162602,9.71784,1.32472,0.14,-0.49,-0.14,-31.8548,-37.6346,-2.38101,1014.53
33590,-0.191296,9.76088,1.26734,0.07,-0.42,0.21,-32.17,-37.1137,-2.87721,1014.52
33596,-0.167384,9.70827,1.27212,0.07,-0.42,-0.35,-31.6257,-36.7374,-1.55873,1014.52
33602,-0.181731,9.72262,1.29125,0.35,-0.35,0.07,-32.17,-37.1715,-2.39518,1014.52
33608,-0.200861,9.7274,1.31516,0.35,0.63,-0.07,-31.7976,-37.2873,-2.90556,1014.55
33614,-0.196078,9.73218,1.28168,0.28,0.07,-0.21,-32.3418,-35.9272,-3.30252,1014.55
33620,-0.186514,9.7274,1.30081,0.14,0.49,-0.07,-30.8236,-37.1137,-2.39518,1014.52
33626,-0.205643,9.7274,1.2769,0.42,-0.49,0,-31.597,-37.0847,-2.84885,1014.52
33632,-0.25825,9.78479,1.28647,-0.07,0.07,-0.07,-31.4824,-35.8693,-1.8281,1014.51
33638,-0.25825,9.77523,1.31038,0,-0.49,0.21,-30.9095,-36.1008,-2.90556,1014.51
33644,-0.229555,9.77523,1.24821,-0.28,-0.07,0.14,-31.3679,-37.7793,-3.78454,1014.51
33650,-0.186514,9.78479,1.2769,0.35,-0.7,0.07,-31.0527,-36.5349,-3.16075,1014.51
33656,-0.224773,9.77523,1.28647,0.14,0.14,0.21,-31.4538,-36.1876,-3.51518,1014.51
33662,-0.21999,9.74175,1.31994,0.42,-0.14,0,-31.3679,-36.5349,-3.08986,1014.51
33668,-0.181731,9.76088,1.3056,-0.28,0.14,0.07,-31.1673,-37.6346,-3.60024,1014.52
33674,-0.172166,9.71784,1.32951,0.21,0.07,0.14,-31.4251,-36.014,-2.63619,1014.52
33680,-0.176949,9.70827,1.32472,0.56,-0.14,0.35,-31.2819,-36.7664,-2.38101,1014.52
33686,-0.157819,9.69871,1.32951,0.07,-0.42,0.07,-31.4824,-37.1715,-2.84885,1014.5
33692,-0.172166,9.7274,1.31038,0.35,-0.07,0,-31.3679,-36.1587,-2.31012,1014.5
33698,-0.200861,9.70349,1.31994,0.84,0.35,-0.07,-32.4278,-35.551,-1.62962,1014.54
33704,-0.181731,9.7561,1.32472,0.28,0.35,-0.21,-31.6257,-36.6217,-3.17493,1014.54
33710,-0.200861,9.70827,1.31038,0.42,0.14,-0.28,-31.2819,-36.2744,-3.20328,1014.52
33716,-0.191296,9.76088,1.2769,0.7,-0.07,-0.21,-32.2559,-35.9272,-2.3243,1014.52
33722,-0.215208,9.74653,1.29603,0.28,-0.07,-0.28,-32.3991,-37.403,-2.94809,1014.52
33728,-0.267814,9.74653,1.31994,0.49,-0.7,-0.21,-30.9382,-37.6635,-2.8205,1014.52
33734,-0.229555,9.76566,1.29603,0.63,-0.35,-0.28,-31.8835,-35.0879,-2.63619,1014.52
33740,-0.21999,9.74653,1.23386,0.56,-0.56,-0.07,-31.6257,-36.94,-2.79214,1014.52
33746,-0.200861,9.77044,1.25777,0.28,0,0,-31.2246,-37.432,-2.93391,1014.5
33752,-0.25825,9.76088,1.28168,0,0.56,0.07,-31.8548,-36.3902,-2.08329,1014.5
33758,-0.267814,9.78957,1.31516,0.7,-0.35,0.07,-31.1387,-36.6796,-2.62202,1014.5
33764,-0.176949,9.77044,1.25777,0.42,0.28,0.35,-30.8522,-38.0397,-2.94809,1014.53
33770,-0.172166,9.75131,1.30081,0.42,-0.14,-0.21,-30.9095,-36.6796,-2.48025,1014.53
33776,-0.181731,9.70349,1.35342,0.28,0.14,0.07,-31.5684,-36.3034,-1.79974,1014.52
33782,-0.234338,9.73218,1.32951,0.49,-0.77,-0.07,-31.6543,-37.6635,-2.59366,1014.52
33788,-0.205643,9.7274,1.28647,0.63,-0.49,0.14,-31.11,-38.0397,-3.54353,1014.51
33794,-0.162602,9.73218,1.28647,0.35,-0.63,-0.07,-31.7116,-35.2326,-1.55873,1014.51
33800,-0.148254,9.71784,1.30081,0.42,-0.21,-0.21,-31.597,-36.6796,-1.37443,1014.53
33806,-0.167384,9.71784,1.3056,0.35,0.56,0.07,-31.4824,-37.6924,-1.92734,1014.53
33812,-0.172166,9.68436,1.3056,0.63,0.14,-0.42,-32.0554,-36.477,-1.67215,1014.52
33818,-0.200861,9.7274,1.2769,0.7,0.14,-0.07,-31.8548,-35.9272,-2.62202,1014.52
33824,-0.186514,9.7274,1.28168,0.56,-0.49,-0.28,-31.9694,-38.2133,-4.1815,1014.52
33830,-0.186514,9.7274,1.25777,0.14,-0.14,-0.49,-31.3679,-37.2005,-1.68633,1014.52
33836,-0.215208,9.71784,1.28647,0.35,-0.28,-0.35,-31.9121,-36.2165,-3.17493,1014.5
33842,-0.210426,9.74175,1.28647,0.49,0.07,-0.21,-32.4564,-37.4609,-2.66455,1014.5
33848,-0.243902,9.76566,1.2769,0.28,-0.56,-0.07,-31.7116,-37.2584,-3.17493,1014.5
33854,-0.21999,9.77044,1.28168,0.56,-0.07,-0.35,-31.7116,-36.1008,-1.87063,1014.5
33860,-0.21999,9.79436,1.28647,0.28,-0.07,-0.35,-31.7403,-37.0847,-3.07569,1014.5
33866,-0.234338,9.79914,1.26255,0.28,-0.14,-0.28,-31.8835,-36.94,-2.52278,1014.52
33872,-0.229555,9.78957,1.3056,0.14,0.28,0.14,-30.6803,-35.4641,-1.64379,1014.52
33878,-0.191296,9.73218,1.32472,0.35,-0.56,-0.07,-31.7689,-35.7825,-2.97645,1014.49
33884,-0.191296,9.70827,1.36298,0.98,0,0,-30.9954,-37.8371,-3.8129,1014.49
33890,-0.191296,9.68914,1.34864,0.84,-0.7,-0.21,-31.7689,-36.8532,-2.45189,1014.51
33896,-0.172166,9.70827,1.33429,0.7,0.21,-0.35,-31.6543,-36.3034,-1.31772,1014.51
33902,-0.162602,9.70349,1.33907,1.61,-0.28,-0.28,-31.0241,-36.8821,-2.22506,1014.51
33908,-0.153037,9.73697,1.31994,1.05,0.21,-0.63,-32.1986,-37.2584,-3.01898,1014.51
33914,-0.172166,9.7274,1.29125,1.05,0.91,-0.63,-31.9408,-35.2326,-1.58709,1014.52
33920,-0.200861,9.76088,1.26734,1.33,0.56,-0.49,-31.4251,-36.4481,-1.30354,1014.52
33926,-0.200861,9.78957,1.21951,1.05,0.21,-0.35,-31.5111,-37.6056,-2.76379,1014.52
33932,-0.215208,9.73218,1.26255,1.05,-0.56,-0.63,-31.5111,-36.3902,-2.8205,1014.55
33938,-0.205643,9.74175,1.29603,0.84,-0.14,-0.84,-31.9121,-36.0719,-1.26101,1014.55
33944,-0.200861,9.73218,1.26255,0.77,-0.35,-0.84,-31.2819,-37.3162,-2.83467,1014.53
33950,-0.234338,9.74175,1.27212,1.12,0.35,-0.42,-31.3106,-36.5059,-2.25341,1014.53
33956,-0.263032,9.73697,1.28168,1.05,-0.35,-0.7,-31.6543,-35.8403,-1.79974,1014.5
33962,-0.200861,9.7561,1.29603,1.19,0.49,-0.28,-31.5111,-36.9111,-2.96227,1014.5
33968,-0.21999,9.76566,1.30081,0.84,0.14,-0.21,-31.3679,-36.8243,-2.35265,1014.53
33974,-0.215208,9.74653,1.31516,1.05,0.07,-0.49,-31.196,-35.985,-2.02658,1014.53
33980,-0.23912,9.76566,1.30081,1.12,-0.14,-0.21,-31.5684,-37.0268,-3.17493,1014.54
33986,-0.248685,9.77523,1.31038,1.33,-0.28,-0.28,-30.3939,-37.6346,-3.91214,1014.54
33992,-0.215208,9.75131,1.28168,0.91,-0.28,-0.35,-31.3392,-37.0847,-2.06911,1014.53
33998,-0.186514,9.70827,1.31516,0.77,0.07,-0.7,-31.9694,-36.5349,-2.13999,1014.53
34004,-0.176949,9.72262,1.27212,1.12,0.21,-0.14,-31.2819,-38.1844,-3.17493,1014.52
34010,-0.181731,9.73697,1.26255,1.61,0.28,-0.98,-31.0527,-37.1715,-1.88481,1014.52
34016,-0.172166,9.70349,1.31516,1.4,0,-0.7,-31.5684,-36.8243,-1.23266,1014.52
34022,-0.176949,9.71784,1.3056,1.61,-0.28,-0.35,-31.9121,-37.2584,-2.79214,1014.53
34028,-0.215208,9.70827,1.31516,1.4,-0.35,-1.12,-31.0527,-38.2423,-3.58606,1014.53
34034,-0.210426,9.79914,1.18604,1.19,0.28,-0.42,-31.11,-36.1297,-2.12582,1014.49
34040,-0.263032,9.81827,1.20038,1.12,0.35,-0.35,-30.8809,-37.4609,-2.05493,1014.49
34046,-0.23912,9.77044,1.23386,1.47,0.42,-0.56,-31.4251,-37.3452,-3.01898,1014.5
34052,-0.253467,9.79914,1.23386,1.05,-0.14,-0.42,-30.5371,-36.7953,-1.85645,1014.5
34058,-0.248685,9.81349,1.21951,0.91,-0.42,-0.42,-31.2819,-36.3323,-2.40936,1014.54
34064,-0.21999,9.78957,1.20516,0.49,-0.35,-0.63,-31.2533,-37.7793,-3.20328,1014.54
34070,-0.23912,9.73697,1.28168,0.7,-0.14,-0.35,-31.683,-36.969,-3.20328,1014.52
34076,-0.243902,9.76566,1.26255,0.63,0.35,-0.21,-30.8236,-36.5059,-1.40278,1014.52
34082,-0.234338,9.76566,1.25299,0.63,0,0,-31.4251,-37.8371,-2.90556,1014.52
34088,-0.200861,9.78001,1.21473,0.7,0.07,-0.07,-30.6803,-37.3741,-2.05493,1014.52
34094,-0.191296,9.75131,1.26734,0.28,0.07,-0.28,-30.5657,-36.1297,-2.40936,1014.52
34100,-0.196078,9.70827,1.33429,0.7,0.56,-0.35,-31.1673,-36.3034,-2.72126,1014.51
34106,-0.21999,9.71305,1.30081,0.42,-0.49,0,-31.5111,-37.7503,-3.64277,1014.51
34112,-0.205643,9.73218,1.29125,0.7,-0.28,-0.63,-31.1673,-36.2165,-1.61544,1014.54
34118,-0.200861,9.73218,1.28647,0.7,-0.63,-0.28,-32.5997,-36.4191,-1.60126,1014.54
34124,-0.215208,9.69392,1.31994,0.91,0.28,-0.7,-31.3392,-37.403,-3.54353,1014.52
34130,-0.215208,9.69392,1.31516,1.54,0.56,-0.91,-32.3705,-37.7214,-3.60024,1014.52
34136,-0.248685,9.78479,1.24342,0.84,0.28,-0.49,-31.11,-35.6957,-1.85645,1014.52
34142,-0.21999,9.78479,1.23386,0.91,0,-0.63,-31.6257,-38.358,-2.77797,1014.52
34148,-0.229555,9.77044,1.24342,0.77,-0.14,-0.77,-31.597,-37.9529,-2.0124,1014.48
34154,-0.277379,9.79914,1.23386,1.12,0,-0.28,-31.3392,-36.6796,-2.16835,1014.48
34160,-0.296509,9.78479,1.22908,0.7,-0.14,0.07,-31.9408,-36.8243,-1.64379,1014.53
34166,-0.210426,9.79914,1.20038,0.07,-0.07,-0.35,-31.8548,-37.9529,-2.90556,1014.53
34172,-0.21999,9.7561,1.23864,0.56,0,0.07,-31.2246,-36.5059,-2.72126,1014.5
34178,-0.21999,9.71784,1.29603,0.7,-0.14,-0.56,-32.0267,-36.477,-2.93391,1014.5
34184,-0.215208,9.7274,1.29125,0.35,-0.28,-0.42,-31.0241,-37.7214,-2.0124,1014.5
34190,-0.196078,9.76566,1.26255,0.77,-0.07,-0.21,-31.0527,-37.2873,-1.89898,1014.49
34196,-0.215208,9.74653,1.28168,1.05,-0.63,-0.49,-32.2272,-36.3612,-1.50202,1014.49
34202,-0.196078,9.72262,1.31038,0.7,0.28,-0.56,-31.1673,-37.5477,-2.55113,1014.5
34208,-0.196078,9.73697,1.28168,0.91,0.07,-0.63,-30.9382,-36.9979,-2.72126,1014.5
34214,-0.196078,9.72262,1.29603,0.91,0.07,-1.05,-31.8548,-36.1008,-1.62962,1014.47
34220,-0.229555,9.70349,1.29603,1.05,0.07,-0.91,-31.2819,-37.1137,-2.79214,1014.47
34226,-0.215208,9.73218,1.25299,1.05,0,-0.84,-31.1673,-38.0686,-2.45189,1014.53
34232,-0.200861,9.75131,1.24821,0.98,0.14,-1.19,-32.0267,-37.0847,-2.94809,1014.53
34238,-0.200861,9.75131,1.24342,0.7,0.21,-0.91,-30.7663,-35.522,-2.38101,1014.51
34244,-0.21999,9.73218,1.23864,0.49,0.42,-1.19,-31.3679,-37.2294,-3.04733,1014.51
34250,-0.229555,9.7561,1.22908,0.14,-0.21,-0.77,-30.7663,-35.8982,-2.38101,1014.52
34256,-0.21999,9.78479,1.20038,0.84,-0.35,-0.98,-31.3106,-35.4641,-2.36683,1014.52
34262,-0.234338,9.74175,1.21951,0.63,-0.35,-1.19,-31.1673,-37.9239,-3.07569,1014.52
34268,-0.23912,9.76566,1.24821,0.42,0.21,-0.98,-30.623,-37.2294,-2.79214,1014.51
34274,-0.243902,9.74175,1.25777,0.63,0.21,-0.91,-30.9382,-36.1297,-2.73543,1014.51
34280,-0.23912,9.72262,1.27212,0.14,0.07,-1.05,-31.2246,-37.2294,-2.76379,1014.52
34286,-0.200861,9.72262,1.24342,0.7,0.28,-1.05,-30.5085,-37.3162,-3.43011,1014.52
34292,-0.243902,9.71305,1.31038,0.91,-0.14,-0.7,-31.6257,-35.4641,-2.43771,1014.51
