Timestamp,AccX,AccY,AccZ,AngularVelX,AngularVelY,AngularVelZ,MagX,MagY,MagZ,AirPressure
171032,0.0286944,9.7561,1.48733,1.96,-3.36,0.07,-20.5607,-48.681,10.6071,1014.68
171038,0.0286944,9.74653,1.52559,2.17,-4.13,-0.14,-21.1418,-47.2315,11.2869,1014.68
171044,0.0430416,9.73697,1.51124,2.03,-3.85,0.28,-20.9384,-48.4651,11.1095,1014.73
171050,0.0430416,9.71305,1.48733,2.38,-3.57,0.21,-20.7059,-49.4212,11.0652,1014.73
171056,0.0334768,9.69392,1.52559,2.52,-3.64,0.49,-20.9093,-47.8792,11.1391,1014.71
171062,0.023912,9.68436,1.53037,2.66,-3.64,0.84,-19.718,-48.2184,11.0209,1014.71
171068,-0.0095648,9.68436,1.51124,2.73,-3.78,0.7,-21.0837,-49.452,11.1391,1014.71
171074,0.0334768,9.69392,1.50167,3.08,-4.06,0.91,-20.8222,-48.8352,11.0504,1014.71
171080,0.071736,9.68436,1.4682,2.73,-4.27,0.91,-20.3863,-47.725,11.8188,1014.71
171086,0.124342,9.71784,1.47776,3.01,-3.92,1.12,-20.0376,-49.5753,10.9322,1014.71
171092,0.129125,9.77523,1.41081,3.15,-3.78,1.05,-20.212,-48.866,12.1587,1014.71
171098,0.162602,9.78957,1.3869,2.59,-3.92,0.28,-20.4154,-48.0642,12.0257,1014.72
171104,0.234338,9.85653,1.37733,2.24,-4.06,-0.07,-20.1539,-48.0642,11.8927,1014.72
171110,0.229555,9.87087,1.36777,2.1,-3.71,-0.35,-19.7761,-49.2669,11.2869,1014.72
171116,0.143472,9.87087,1.3582,1.47,-3.64,-0.14,-19.8633,-47.5399,11.3016,1014.72
171122,0.0526064,9.82305,1.42994,1.26,-3.08,-0.91,-20.4444,-47.6324,11.0504,1014.71
171128,0.0860832,9.73218,1.51124,1.19,-3.08,-0.7,-19.8633,-49.6062,12.0257,1014.71
171134,0.124342,9.72262,1.52559,1.68,-3.64,-0.7,-20.6769,-48.3726,11.937,1014.71
171140,0.0860832,9.7274,1.50646,1.96,-3.29,-0.91,-21.4905,-48.8969,10.6958,1014.71
171146,0.0430416,9.72262,1.53993,1.68,-3.5,-0.56,-19.6308,-49.6062,12.2325,1014.71
171152,0.0430416,9.68436,1.53037,2.52,-3.64,-0.63,-20.3573,-49.0202,11.1243,1014.69
171158,0.0526064,9.70349,1.53993,2.31,-3.71,-0.42,-20.6769,-47.9717,11.7892,1014.69
171164,0.0143472,9.70827,1.53037,2.66,-3.43,-0.14,-20.2701,-48.8969,10.7106,1014.73
171170,0.0382592,9.68436,1.51602,2.8,-3.64,0.49,-20.3282,-48.6502,11.8188,1014.73
171176,0.071736,9.71305,1.51124,2.87,-3.64,0.49,-20.9965,-47.91,11.1834,1014.71
171182,0.0621712,9.70349,1.49211,2.94,-3.85,0.42,-20.8803,-48.3418,12.0404,1014.71
171188,0.0669536,9.7274,1.45863,3.01,-3.71,0.49,-21.229,-49.2669,11.5085,1014.72
171194,0.109995,9.77044,1.43472,3.15,-3.85,0.56,-21.258,-49.3903,11.3755,1014.72
171200,0.133907,9.78957,1.39646,2.38,-3.57,0.07,-20.6478,-48.1567,11.8631,1014.72
171206,0.167384,9.83261,1.36777,2.45,-3.64,-0.42,-21.8101,-49.1128,11.7892,1014.72
171212,0.191296,9.80392,1.38211,2.1,-3.15,-0.35,-20.6188,-48.9277,10.6662,1014.72
171218,0.162602,9.80392,1.42994,1.75,-3.5,-0.91,-19.9214,-47.3857,11.1686,1014.72
171224,0.109995,9.78479,1.44907,2.03,-3.64,-0.91,-20.5607,-48.9894,11.5676,1014.72
171230,0.105213,9.78001,1.44428,1.47,-3.22,-0.77,-20.0086,-49.6987,11.4789,1014.69
171236,0.129125,9.7561,1.51124,1.96,-3.22,-1.05,-19.4856,-48.6502,12.0552,1014.69
171242,0.0813008,9.74653,1.50167,1.96,-2.87,-1.54,-20.1539,-47.8792,11.804,1014.68
171248,0.0047824,9.75131,1.43472,1.96,-3.15,-1.05,-21.0256,-49.5445,10.2082,1014.68
171254,0.0334768,9.70827,1.50646,2.1,-3.71,-0.98,-19.9795,-48.4343,11.5381,1014.68
171260,0.047824,9.71784,1.51602,2.03,-3.57,-0.42,-20.0958,-47.6633,13.2078,1014.71
171266,0.0573888,9.68914,1.47776,2.52,-3.57,0.07,-19.8924,-49.2053,11.7006,1014.71
171272,0.0382592,9.71305,1.47298,2.52,-3.15,-0.42,-20.5607,-49.5137,10.5185,1014.7
171278,0.0430416,9.72262,1.43472,2.59,-3.15,-0.14,-19.9505,-48.1567,12.5872,1014.7
171284,0.0047824,9.6748,1.4682,3.08,-3.57,0.42,-19.718,-48.7427,12.8679,1014.72
171290,0.0143472,9.6748,1.48733,3.01,-3.57,0.91,-20.8222,-49.5137,11.6415,1014.72
171296,0.0621712,9.67958,1.47298,2.66,-3.15,0.49,-19.8924,-48.8969,13.0896,1014.69
171302,0.109995,9.7561,1.42994,2.66,-3.78,0.28,-19.9505,-48.4034,12.5428,1014.69
171308,0.133907,9.78957,1.37255,2.45,-3.36,0.42,-20.7059,-49.1128,12.2178,1014.72
171314,0.0908656,9.79914,1.3869,2.45,-3.92,0.63,-21.1127,-49.2361,12.9418,1014.72
171320,0.095648,9.79436,1.41559,2.03,-3.29,0.7,-20.5607,-47.8792,13.4442,1014.72
171326,0.172166,9.80392,1.43472,2.24,-3.64,0.21,-20.6188,-48.8352,12.8236,1014.7
171332,0.148254,9.77044,1.41081,2.17,-3.36,-0.63,-21.0256,-48.9894,12.07,1014.7
171338,0.047824,9.75131,1.42516,2.17,-3.15,-0.07,-20.1829,-47.6633,12.4837,1014.73
171344,0.071736,9.7274,1.49211,1.68,-3.64,-0.21,-21.0546,-49.4212,12.4394,1014.73
171350,0.13869,9.77523,1.45385,2.17,-3.92,-0.98,-20.9093,-49.4828,11.7154,1014.74
171356,0.13869,9.79914,1.42516,1.96,-3.64,-0.56,-20.7931,-48.4034,11.9075,1014.74
171362,0.0908656,9.78001,1.45863,1.61,-3.36,-0.14,-19.8924,-48.496,12.8679,1014.7
171368,-0.0047824,9.69392,1.50646,2.24,-3.5,-0.56,-20.3573,-49.5137,10.4741,1014.7
171374,0.047824,9.73218,1.48733,1.75,-3.5,-0.14,-20.3863,-48.7735,11.8188,1014.7
171380,0.10043,9.68436,1.46341,2.45,-3.29,0,-20.5025,-48.3418,11.5824,1014.74
171386,0.0573888,9.69871,1.47776,2.73,-3.64,-0.28,-20.735,-49.3286,12.1587,1014.74
171392,0.0573888,9.71305,1.45863,2.73,-3.43,0.77,-20.212,-49.452,11.6858,1014.69
171398,0.0621712,9.73697,1.4682,2.52,-3.64,0.14,-20.5316,-48.4343,12.1587,1014.69
171404,0.0813008,9.69392,1.44907,2.94,-3.36,-0.07,-19.8342,-48.2184,10.5037,1014.69
171410,0.0669536,9.71305,1.44907,2.73,-3.5,0.56,-21.5776,-49.5445,10.2082,1014.69
171416,0.129125,9.74653,1.40603,2.66,-3.5,0.42,-20.7931,-48.2801,11.5676,1014.71
171422,0.0908656,9.76088,1.38211,2.66,-3.36,0.21,-20.5607,-48.2492,11.4789,1014.71
171428,0.0669536,9.76566,1.41081,2.38,-3.22,0.14,-20.8222,-49.637,11.4198,1014.71
171434,0.0860832,9.7561,1.41081,2.1,-3.85,0.28,-20.0667,-49.2978,13.2078,1014.67
171440,0.129125,9.74653,1.42037,2.17,-3.78,0.28,-20.241,-47.4166,12.4985,1014.67
171446,0.176949,9.76088,1.42994,2.24,-3.36,-0.14,-20.1248,-48.7118,10.6662,1014.71
171452,0.0526064,9.78479,1.42994,2.1,-3.43,17.36,-20.4154,-48.4651,12.0404,1014.71
171458,0.0430416,9.76566,1.42516,2.31,-3.92,0.07,-19.9214,-47.7866,11.9518,1014.69
171464,0.10043,9.7561,1.48733,2.45,-3.99,-0.21,-20.5316,-49.0819,12.927,1014.69
171470,0.109995,9.74653,1.46341,2.17,-3.43,-0.07,-20.0958,-49.5753,11.1982,1014.71
171476,0.0669536,9.7274,1.47298,2.24,-3.22,0.07,-19.8924,-47.7558,12.5133,1014.71
171482,0.0095648,9.7561,1.4395,2.31,-3.36,0.42,-20.9093,-48.095,12.0109,1014.69
171488,0.0621712,9.71784,1.4682,2.31,-3.64,0.14,-20.4154,-49.5445,11.6415,1014.69
171494,0.0813008,9.77044,1.4395,2.52,-3.85,0,-21.229,-49.1744,12.8532,1014.69
171500,0.0765184,9.76088,1.41559,2.1,-3.57,0.63,-20.3573,-48.0025,13.0748,1014.72
171506,0.0813008,9.77044,1.41081,2.59,-3.43,0.14,-20.4154,-49.1436,12.5281,1014.72
171512,0.114778,9.7274,1.45385,2.38,-3.78,-0.42,-20.241,-49.6062,12.5872,1014.7
171518,0.0860832,9.71305,1.45863,2.66,-3.29,0.77,-20.3573,-47.8175,12.8384,1014.7
171524,0.0860832,9.73218,1.46341,2.73,-3.01,0.28,-20.5607,-48.2801,12.8236,1014.71
171530,0.133907,9.77523,1.42037,2.1,-3.01,0.77,-19.9505,-49.1436,11.5381,1014.71
171536,0.153037,9.78957,1.42516,2.38,-3.43,0,-20.4735,-48.3109,13.5329,1014.73
171542,0.109995,9.77044,1.45385,2.17,-3.64,-0.28,-20.0667,-48.866,12.2621,1014.73
171548,0.129125,9.77044,1.39168,2.45,-3.85,-0.14,-20.2701,-49.3903,10.6662,1014.73
171554,0.176949,9.78957,1.38211,1.75,-3.29,-0.07,-19.718,-48.7118,12.07,1014.73
171560,0.143472,9.79914,1.41081,1.75,-3.08,-0.21,-20.4154,-47.8483,13.1487,1014.73
171566,0.0813008,9.74653,1.46341,1.68,-3.15,-0.84,-20.0667,-48.3109,12.1734,1014.7
171572,0.0573888,9.72262,1.51124,2.1,-3.36,-0.56,-20.9384,-48.8352,12.336,1014.7
171578,0.0669536,9.73697,1.50646,2.38,-3.78,-0.14,-19.7471,-47.2932,13.0305,1014.66
171584,0.10043,9.72262,1.50167,2.17,-3.57,-0.07,-20.735,-49.0511,12.6315,1014.66
171590,0.071736,9.73218,1.4395,2.03,-3.36,-0.42,-20.5897,-49.4212,12.336,1014.68
171596,0.095648,9.74175,1.4395,2.31,-3.29,0.14,-21.1418,-48.0025,11.6267,1014.68
171602,0.095648,9.73697,1.47298,2.59,-3.5,-0.35,-20.3863,-48.3726,11.7597,1014.68
171608,0.0813008,9.73697,1.47298,2.59,-3.64,-0.07,-20.4735,-49.4828,11.1095,1014.68
171614,0.0430416,9.71784,1.42516,2.73,-3.29,0.56,-20.7641,-48.5268,12.5281,1014.68
171620,0.0908656,9.7561,1.40603,2.8,-3.36,0.35,-20.241,-48.1876,12.5281,1014.73
171626,0.124342,9.7274,1.39168,2.03,-3.43,0.14,-21.0546,-49.2053,11.7006,1014.73
171632,0.105213,9.77523,1.41559,2.45,-3.5,0.07,-21.0256,-49.637,11.7006,1014.71
171638,0.095648,9.73697,1.42516,2.31,-3.71,0.35,-20.5025,-47.2932,13.326,1014.71
171644,0.129125,9.75131,1.41559,2.38,-3.5,-0.07,-20.2991,-48.866,11.9666,1014.72
171650,0.21999,9.79914,1.38211,2.1,-3.57,-0.42,-20.735,-49.452,9.33637,1014.72
171656,0.167384,9.8087,1.39168,2.03,-3.08,-0.49,-19.6018,-48.6502,11.1243,1014.72
171662,0.0908656,9.77044,1.41081,1.89,-2.59,0.07,-20.0376,-48.1876,12.1734,1014.72
171668,0.0765184,9.78479,1.44428,1.96,-3.15,-0.84,-19.718,-49.9763,10.9322,1014.72
171674,0.0860832,9.74653,1.42994,1.75,-3.15,-0.35,-19.9795,-48.866,13.4442,1014.7
171680,0.109995,9.74175,1.45385,2.1,-3.36,0.14,-19.718,-47.5399,13.3555,1014.7
171686,0.071736,9.76088,1.4395,2.1,-3.64,-0.7,-20.3863,-49.5137,12.5133,1014.69
171692,0.0526064,9.73218,1.43472,1.75,-3.71,-0.42,-20.5025,-49.0202,12.0552,1014.69
171698,0.0621712,9.71305,1.4395,1.75,-3.36,0.21,-20.4735,-47.9408,13.9466,1014.67
171704,0.0382592,9.70827,1.45863,2.24,-3.08,0.42,-20.4154,-48.8044,11.4642,1014.67
171710,0.0621712,9.72262,1.43472,2.24,-3.71,-0.42,-20.7641,-49.8837,11.8779,1014.67
171716,0.0526064,9.70827,1.41081,2.38,-3.78,0,-20.9675,-47.8792,12.5872,1014.67
171722,0.0765184,9.72262,1.42516,2.24,-3.57,0.77,-19.8342,-47.5091,12.5428,1014.67
171728,0.0908656,9.7274,1.42994,2.45,-3.22,0.07,-19.8633,-48.4343,11.4937,1014.7
171734,0.10043,9.77044,1.43472,2.1,-3.5,0.35,-20.241,-47.8483,13.1635,1014.7
171740,0.109995,9.75131,1.42037,2.17,-3.43,0.35,-19.6599,-47.91,12.9418,1014.7
171746,0.095648,9.74175,1.39168,2.1,-3.5,-0.21,-20.5025,-49.0511,11.3016,1014.7
171752,0.129125,9.75131,1.41559,2.17,-3.85,0.14,-20.8512,-49.4828,11.9518,1014.7
171758,0.129125,9.74175,1.4682,2.1,-3.78,0.35,-20.4735,-47.725,12.8384,1014.7
171764,0.191296,9.78479,1.4395,2.17,-3.64,-0.35,-20.8803,-48.5576,12.1439,1014.71
171770,0.181731,9.77523,1.40603,1.89,-2.94,-0.28,-20.5025,-48.8352,12.1291,1014.71
171776,0.095648,9.81349,1.41081,1.89,-3.22,-0.21,-20.6188,-47.91,12.6463,1014.72
171782,0.105213,9.74175,1.44428,1.61,-3.43,-0.77,-20.3282,-47.9408,13.3999,1014.72
171788,0.0765184,9.70827,1.50167,1.89,-3.5,-0.42,-20.2701,-48.9586,11.9222,1014.72
171794,0.071736,9.74175,1.43472,2.24,-3.64,-17.71,-19.9214,-48.1259,11.3312,1014.7
171800,0.0334768,9.72262,1.47298,2.17,-3.43,0,-20.241,-47.0157,13.3112,1014.7
171806,0.0908656,9.71784,1.45863,2.59,-3.64,0,-20.5607,-48.3726,12.8827,1014.71
171812,0.0334768,9.74175,1.4682,2.45,-3.71,-0.42,-20.5025,-48.8352,11.6858,1014.71
171818,0.0860832,9.72262,1.44428,2.59,-3.85,-0.28,-20.5607,-47.8483,13.2521,1014.69
171824,0.0813008,9.73697,1.39646,2.1,-3.36,0.42,-20.2701,-48.7735,12.2916,1014.69
171830,0.105213,9.75131,1.40603,2.59,-3.08,-0.21,-20.9093,-49.4212,12.5133,1014.71
171836,0.0860832,9.7561,1.40603,1.75,-3.36,-0.42,-20.1539,-48.7427,12.203,1014.71
171842,0.162602,9.7561,1.40603,2.17,-3.36,0.14,-20.4154,-48.0642,13.1191,1014.71
171848,0.133907,9.8087,1.37733,2.45,-3.29,0.21,-20.7931,-49.2053,11.8336,1014.72
171854,0.0669536,9.78479,1.40124,1.89,-3.64,-0.35,-19.8342,-48.3726,11.346,1014.72
171860,0.109995,9.78957,1.39168,1.61,-3.29,-0.21,-21.0256,-47.7558,12.6315,1014.71
171866,0.124342,9.76566,1.41081,1.61,-3.43,-0.56,-20.7059,-48.866,13.0748,1014.71
171872,0.143472,9.78479,1.41081,1.82,-3.15,-0.14,-20.7641,-48.866,11.9666,1014.68
171878,0.105213,9.78479,1.4395,1.82,-3.22,-0.14,-20.1539,-47.2932,13.4147,1014.68
171884,0.0765184,9.7561,1.41559,1.75,-3.43,-0.84,-19.718,-48.681,11.8927,1014.72
171890,0.047824,9.7274,1.42037,1.61,-3.64,-0.21,-20.3573,-49.6679,12.469,1014.72
171896,0.129125,9.74653,1.45385,2.1,-3.36,-0.49,-20.4444,-47.91,12.8975,1014.72
171902,0.11956,9.74653,1.40603,1.82,-3.5,-0.28,-20.6769,-48.3109,13.7693,1014.69
171908,0.0621712,9.71784,1.44428,1.68,-3.29,-0.35,-20.4735,-49.3595,11.6858,1014.69
171914,0.0382592,9.7274,1.48254,1.82,-3.43,-0.07,-20.3863,-48.5576,12.3508,1014.71
171920,0.0382592,9.70827,1.4395,2.24,-3.5,-0.07,-19.8342,-48.5268,13.193,1014.71
171926,0.0573888,9.75131,1.45385,2.38,-3.08,0.21,-21.1127,-49.8529,11.0061,1014.72
171932,0.0430416,9.74653,1.39646,2.38,-3.43,0.28,-20.4735,-49.2053,11.0061,1014.72
171938,0.0813008,9.7274,1.42037,2.17,-3.22,0.21,-20.0667,-48.3726,12.3212,1014.71
171944,0.10043,9.7561,1.37733,2.24,-3.78,0.07,-20.1829,-48.4343,12.7054,1014.71
171950,0.10043,9.74653,1.40124,2.1,-3.22,0.07,-20.8512,-49.4828,10.3707,1014.71
171956,0.157819,9.78479,1.40603,2.31,-3.43,-0.28,-19.689,-48.6193,11.671,1014.71
171962,0.148254,9.74653,1.40603,2.1,-3.71,-0.35,-20.2701,-48.4651,10.9322,1014.71
171968,0.129125,9.76088,1.46341,1.82,-3.22,0.14,-20.7059,-50.6239,10.6662,1014.71
171974,0.0908656,9.77044,1.44428,1.68,-3.01,0,-20.212,-49.1128,11.8484,1014.71
171980,0.071736,9.77523,1.42994,1.82,-3.29,-0.28,-20.6188,-48.0334,12.336,1014.69
171986,0.133907,9.78957,1.42516,2.03,-3.43,-0.21,-20.0958,-49.0511,12.4246,1014.69
171992,0.071736,9.74175,1.44428,1.68,-3.64,-0.28,-20.0958,-49.0202,11.4494,1014.7
171998,0.0669536,9.76088,1.43472,2.1,-3.29,-0.28,-19.9505,-48.2801,12.6611,1014.7
172004,0.0669536,9.74175,1.4682,2.45,-3.71,-0.42,-19.8052,-48.2801,11.1834,1014.72
172010,0.0813008,9.7274,1.4395,1.82,-3.5,-0.56,-20.3282,-49.2361,11.213,1014.72
172016,0.0813008,9.72262,1.43472,2.03,-3.22,0.07,-20.6478,-47.8483,12.4985,1014.72
172022,0.0669536,9.7274,1.42994,2.1,-3.22,0.49,-19.2822,-47.9408,10.415,1014.7
172028,0.0860832,9.72262,1.42516,2.03,-3.57,-0.42,-20.0086,-49.6987,10.4594,1014.7
172034,0.0669536,9.7274,1.39168,2.1,-3.64,-0.14,-19.3984,-47.8792,11.346,1014.71
172040,0.0621712,9.73218,1.42037,2.38,-3.57,0.63,-20.1829,-47.8175,13.1191,1014.71
172046,0.109995,9.7561,1.40603,2.45,-3.36,0.28,-20.212,-49.2669,11.8336,1014.68
172052,0.114778,9.78957,1.40124,2.24,-3.5,0,-20.4735,-49.6062,10.2377,1014.68
172058,0.186514,9.78479,1.40603,1.82,-3.57,-0.42,-20.0086,-47.91,12.6758,1014.67
172064,0.11956,9.82305,1.40124,1.89,-3.22,0,-20.212,-48.2492,11.5381,1014.67
172070,0.109995,9.78479,1.39168,1.54,-2.73,-0.21,-20.9093,-49.0202,10.5333,1014.67
172076,0.13869,9.80392,1.42037,1.75,-3.15,-0.35,-21.0256,-48.4343,11.9961,1014.71
172082,0.124342,9.78001,1.48254,1.68,-3.57,-1.12,-20.7931,-48.3726,12.6611,1014.71
172088,0.109995,9.76566,1.47298,1.96,-3.15,-0.7,-20.4154,-49.8837,12.1291,1014.7
172094,0.114778,9.78957,1.41559,1.61,-3.36,-0.42,-20.5897,-48.3418,11.3312,1014.7
172100,0.0765184,9.75131,1.42037,1.4,-2.87,-1.05,-20.8222,-47.8483,12.602,1014.73
172106,0.0382592,9.74653,1.44907,1.68,-3.22,-0.77,-20.3573,-49.6679,10.2525,1014.73
172112,0.0813008,9.68914,1.47776,1.68,-3.15,-0.56,-20.5607,-49.5445,10.8583,1014.72
172118,0.0430416,9.71784,1.47298,1.96,-3.57,-0.49,-19.5146,-47.725,12.1291,1014.72
172124,0.0860832,9.68436,1.45385,1.96,-3.43,-0.14,-20.2701,-49.6062,11.3903,1014.66
172130,0.0669536,9.69392,1.44907,2.17,-3.15,0.21,-20.6188,-49.8529,10.5037,1014.66
172136,0.0191296,9.70349,1.44907,2.24,-3.64,0.07,-20.2701,-48.5885,12.9418,1014.66
172142,0.0334768,9.68914,1.45863,2.66,-3.57,0.7,-20.0667,-49.1436,12.8679,1014.74
172148,0.0382592,9.71784,1.3869,2.31,-3.29,0.42,-20.241,-50.2538,12.1882,1014.74
172154,0.10043,9.72262,1.39168,2.31,-3.71,0.28,-20.0376,-48.496,11.346,1014.72
172160,0.11956,9.75131,1.40124,2.38,-3.64,0,-19.4565,-48.0642,12.336,1014.72
172166,0.10043,9.7274,1.40603,1.89,-3.5,-0.28,-19.8342,-49.0202,11.9075,1014.69
172172,0.0430416,9.76566,1.39646,2.59,-3.78,0.07,-20.1539,-48.7735,11.5972,1014.69
172178,0.124342,9.74653,1.40124,1.82,-3.15,0.84,-20.6478,-48.095,12.6167,1014.67
172184,0.167384,9.77523,1.40603,1.89,-3.22,0.14,-20.5607,-48.4034,11.6415,1014.67
172190,0.124342,9.74653,1.42516,2.03,-3.5,-0.28,-20.8222,-49.9454,12.3064,1014.67
172196,0.0765184,9.78479,1.4395,1.75,-3.71,0.49,-20.6478,-48.4034,12.2473,1014.75
172202,0.133907,9.76088,1.47298,1.96,-3.5,0,-20.4444,-48.4651,12.1143,1014.75
172208,0.11956,9.73218,1.47776,2.17,-3.15,0.07,-20.212,-49.3595,11.0209,1014.68
172214,0.095648,9.75131,1.44907,2.38,-3.5,0.28,-20.9384,-49.2978,11.6415,1014.68
172220,0.0526064,9.74175,1.42994,2.31,-3.36,0.14,-20.5025,-48.0334,11.7449,1014.71
172226,0.0191296,9.74653,1.48254,1.96,-3.43,0.28,-20.735,-49.0511,11.5381,1014.71
172232,0.0573888,9.73218,1.4682,2.1,-3.15,0.49,-20.212,-48.5268,11.6119,1014.71
172238,0.105213,9.70827,1.45863,2.38,-3.36,0.35,-20.7931,-48.0334,12.0404,1014.71
172244,0.105213,9.72262,1.4395,2.17,-3.08,0.42,-20.5316,-49.5753,11.346,1014.71
172250,0.071736,9.74175,1.41559,2.31,-3.57,0.35,-20.4154,-49.4212,11.3755,1014.71
172256,0.0860832,9.7561,1.4395,2.31,-3.57,0.21,-19.7471,-48.4034,11.5824,1014.71
172262,0.0860832,9.7274,1.41559,2.31,-3.57,0.21,-20.0958,-48.3418,12.9418,1014.7
172268,0.10043,9.7561,1.38211,2.38,-3.71,1.26,-20.5607,-49.6062,11.1539,1014.7
172274,0.0908656,9.74653,1.39168,2.66,-3.99,0.77,-20.7641,-48.7118,12.6315,1014.73
172280,0.13869,9.73218,1.43472,2.31,-3.64,0.77,-20.3573,-49.1436,12.0552,1014.73
172286,0.11956,9.78957,1.37255,1.89,-3.15,0.49,-20.9384,-49.9763,11.6563,1014.7
172292,0.124342,9.78479,1.40603,2.1,-3.08,0.42,-20.0086,-50.1921,11.9518,1014.7
172298,0.0382592,9.74653,1.44907,1.61,-3.22,0.84,-19.9505,-48.681,11.4642,1014.72
172304,0.109995,9.74175,1.44428,2.31,-3.78,0.28,-19.8342,-49.2361,11.6119,1014.72
172310,0.176949,9.78479,1.40603,1.82,-3.5,-0.14,-20.9093,-49.7295,13.459,1014.72
172316,0.162602,9.78957,1.3582,1.33,-3.36,0.42,-20.1248,-48.8352,12.469,1014.73
172322,0.0765184,9.74653,1.43472,2.17,-3.15,0.42,-20.5025,-48.2492,13.4738,1014.73
172328,0.0669536,9.72262,1.45385,1.82,-3.57,-0.14,-20.1248,-49.7604,11.5824,1014.7
172334,0.129125,9.70827,1.46341,1.68,-3.36,0.35,-20.6769,-48.8044,12.6463,1014.7
172340,0.0765184,9.71305,1.44907,2.1,-3.99,0.56,-20.9675,-48.4034,13.2817,1014.71
172346,0.0813008,9.74175,1.43472,2.24,-3.08,0.07,-20.6769,-49.5137,10.9174,1014.71
172352,0.071736,9.71784,1.45385,2.59,-3.15,0.77,-20.6769,-49.5753,12.6315,1014.7
172358,0.071736,9.69871,1.42037,2.17,-3.71,0.42,-19.9214,-47.8483,10.7697,1014.7
172364,0.105213,9.72262,1.4395,2.31,-3.5,0.63,-20.2701,-48.0642,12.2473,1014.7
172370,0.114778,9.73697,1.42037,2.59,-3.43,0.98,-20.3282,-49.2669,11.1982,1014.69
172376,0.0908656,9.78001,1.40603,2.03,-3.29,1.05,-20.7931,-48.1876,12.07,1014.69
172382,0.0860832,9.7561,1.41559,2.66,-3.64,0.21,-20.9093,-48.4651,12.8088,1014.71
172388,0.10043,9.7561,1.41081,2.03,-3.15,0.84,-20.8803,-48.8044,11.7006,1014.71
172394,0.124342,9.76566,1.40603,2.38,-3.29,1.12,-20.7641,-48.3109,11.0061,1014.72
172400,0.114778,9.76088,1.42994,2.24,-3.01,0.56,-19.9505,-47.8483,13.0748,1014.72
172406,0.095648,9.70349,1.46341,2.24,-3.43,0.56,-19.8924,-49.0511,11.4642,1014.69
172412,0.162602,9.74175,1.42516,2.45,-3.36,0.21,-20.2701,-49.8529,10.9618,1014.69
172418,0.167384,9.73697,1.42037,2.24,-3.85,0.07,-20.0667,-47.5708,12.794,1014.69
172424,0.191296,9.78479,1.3582,2.24,-3.36,0.35,-19.5727,-48.4343,11.3016,1014.72
172430,0.196078,9.82305,1.3869,1.61,-3.01,-0.07,-20.7641,-48.5576,11.3016,1014.72
172436,0.172166,9.76088,1.40603,2.1,-3.08,-0.07,-20.1248,-48.3726,12.1291,1014.75
172442,0.133907,9.78001,1.40124,1.89,-3.08,-0.35,-19.1369,-48.1259,12.8384,1014.75
172448,0.0765184,9.76566,1.47298,1.82,-3.01,-0.07,-20.4735,-49.7295,11.4494,1014.72
172454,0.105213,9.74175,1.44428,1.96,-3.01,0.63,-20.1539,-48.4343,10.7845,1014.72
172460,0.0908656,9.70349,1.47298,1.89,-3.29,-0.07,-20.7059,-48.2492,11.5233,1014.73
172466,0.0765184,9.73697,1.44907,2.03,-3.5,-0.84,-20.241,-49.0511,11.3016,1014.73
172472,0.095648,9.7274,1.44428,2.38,-3.57,0.21,-20.0086,-49.2361,11.0357,1014.7
172478,0.105213,9.73218,1.41559,2.31,-3.08,0.35,-19.3984,-47.1698,12.7202,1014.7
172484,0.0908656,9.75131,1.39168,2.38,-3.92,0.49,-20.241,-48.6502,11.9518,1014.7
172490,0.0813008,9.74175,1.38211,1.96,-3.36,0.42,-20.735,-49.6062,10.947,1014.71
172496,0.109995,9.72262,1.40124,2.31,-3.43,0.7,-20.1829,-47.6016,12.1587,1014.71
172502,0.095648,9.7561,1.41081,1.89,-3.57,0.28,-19.689,-48.2184,11.6858,1014.69
172508,0.10043,9.72262,1.37255,2.24,-3.29,0.56,-20.5607,-49.9763,10.3707,1014.69
172514,0.109995,9.75131,1.42516,2.17,-3.36,0.42,-19.7471,-48.9277,12.6167,1014.67
172520,0.129125,9.7561,1.37733,2.03,-3.15,0.77,-19.5727,-48.9586,12.9123,1014.67
172526,0.124342,9.75131,1.42994,1.68,-3.08,0.21,-20.241,-49.4212,10.6219,1014.7
172532,0.095648,9.7274,1.43472,1.89,-3.29,0.21,-20.4154,-48.9277,11.346,1014.7
172538,0.153037,9.74653,1.42037,2.17,-3.99,0.49,-19.8342,-48.1259,12.4099,1014.7
172544,0.172166,9.78479,1.40603,1.96,-3.15,0.21,-20.7059,-49.1128,11.671,1014.69
172550,0.157819,9.75131,1.41559,1.96,-3.36,0.49,-20.8803,-49.6679,11.3607,1014.69
172556,0.095648,9.74175,1.42037,1.82,-3.29,0.14,-20.9384,-48.1567,11.7597,1014.71
172562,0.162602,9.76566,1.41559,2.17,-3.43,0.21,-20.9093,-48.2492,10.7106,1014.71
172568,0.157819,9.76566,1.41081,1.75,-3.01,0.07,-20.8803,-50.0996,10.5037,1014.72
172574,0.148254,9.76566,1.41081,2.03,-3.36,-0.14,-20.3282,-48.0025,12.4246,1014.72
172580,0.0908656,9.77044,1.40603,1.89,-3.08,-0.07,-20.0086,-48.2184,10.3559,1014.72
172586,0.095648,9.69392,1.47298,2.1,-3.29,0.14,-21.0546,-49.9454,12.2178,1014.72
172592,0.105213,9.73218,1.45863,2.03,-3.5,0.35,-20.7931,-49.3903,12.4246,1014.72
172598,0.095648,9.72262,1.45863,2.17,-3.57,0.49,-20.2701,-47.8483,13.6806,1014.69
172604,0.109995,9.73697,1.42037,2.31,-3.78,0.56,-20.4735,-48.6502,12.0848,1014.69
172610,0.124342,9.71784,1.42037,1.96,-3.22,0.7,-20.8803,-49.8529,11.3164,1014.68
172616,0.124342,9.74653,1.39646,2.31,-3.29,0.49,-20.735,-48.095,12.336,1014.68
172622,0.109995,9.76088,1.42516,1.96,-3.5,0.35,-20.0667,-48.5576,11.6858,1014.68
172628,0.13869,9.7274,1.40603,2.24,-3.43,0.84,-20.5897,-49.4828,10.6515,1014.68
172634,0.124342,9.79914,1.40124,2.45,-3.71,0.56,-20.8803,-48.7118,11.5972,1014.66
172640,0.153037,9.77044,1.38211,2.1,-2.94,0.14,-20.8222,-47.3857,12.5724,1014.66
172646,0.205643,9.80392,1.3869,2.03,-2.94,-0.07,-20.6188,-49.5445,11.4642,1014.7
172652,0.162602,9.78479,1.37255,1.68,-3.29,0.21,-21.1418,-48.9277,11.5528,1014.7
172658,0.229555,9.8087,1.36298,1.75,-3.36,-0.35,-21.0546,-47.0157,12.1291,1014.7
172664,0.167384,9.77523,1.40603,1.61,-2.94,-0.35,-21.1418,-48.7427,11.4198,1014.68
172670,0.105213,9.77044,1.42994,1.61,-3.29,-0.21,-20.7931,-49.0819,11.4789,1014.68
172676,0.114778,9.74653,1.47776,1.68,-3.29,0,-21.4905,-47.5091,11.7892,1014.68
172682,0.0765184,9.71784,1.4682,1.82,-3.36,-0.42,-20.9384,-47.4166,11.7154,1014.68
172688,0.10043,9.71305,1.46341,1.96,-3.36,0.14,-21.1127,-49.3903,11.3164,1014.7
172694,0.13869,9.72262,1.39168,2.52,-3.57,-0.07,-21.1127,-47.6941,12.6906,1014.7
172700,0.105213,9.70349,1.42516,2.38,-3.29,-0.07,-20.2701,-47.6016,12.0257,1014.7
172706,0.0621712,9.69871,1.44907,2.73,-3.43,0.35,-21.3161,-49.0819,11.3607,1014.7
172712,0.0908656,9.73218,1.40124,2.31,-3.29,0.28,-20.3863,-48.4651,11.8927,1014.7
172718,0.11956,9.74175,1.39168,2.31,-3.57,0.28,-20.4735,-48.3418,12.4246,1014.7
172724,0.095648,9.7274,1.41081,2.45,-3.29,0.7,-20.735,-48.2184,10.1638,1014.7
172730,0.105213,9.78001,1.40603,2.38,-3.99,0.91,-20.5025,-48.9586,9.9422,1014.71
172736,0.11956,9.74653,1.42994,2.31,-3.5,0.7,-20.3863,-47.1082,12.927,1014.71
172742,0.148254,9.74653,1.4395,2.45,-3.15,0.28,-20.8512,-47.4782,11.7006,1014.69
172748,0.186514,9.78479,1.40603,2.52,-3.57,0.7,-19.9505,-48.5885,11.2425,1014.69
172754,0.315638,9.82783,1.35342,2.1,-3.29,0.14,-20.5025,-48.1259,11.5528,1014.72
172760,0.272597,9.85653,1.33907,1.75,-2.66,-0.28,-20.4735,-47.2315,12.336,1014.72
172766,0.167384,9.77044,1.39168,2.17,-2.94,-0.49,-20.7641,-48.866,10.7549,1014.72
172772,0.133907,9.79436,1.42994,1.47,-3.08,-0.42,-21.229,-48.9277,12.203,1014.7
172778,0.162602,9.77044,1.44428,1.33,-3.22,-0.63,-20.6478,-48.095,13.0305,1014.7
172784,0.124342,9.70827,1.43472,1.75,-3.5,-0.98,-20.9965,-48.9586,11.4346,1014.73
172790,0.13869,9.7274,1.43472,1.33,-3.64,-0.56,-21.0546,-49.1436,11.08,1014.73
172796,0.095648,9.74175,1.44428,1.75,-3.08,-0.49,-20.8222,-48.5268,11.1391,1014.72
172802,0.13869,9.69871,1.45863,1.75,-3.29,-0.49,-20.9675,-48.2801,12.5576,1014.72
172808,0.105213,9.71784,1.43472,2.24,-3.57,-0.07,-21.0546,-49.7295,11.5676,1014.7
172814,0.095648,9.73218,1.40603,2.1,-3.22,0.28,-20.5316,-47.8792,12.8679,1014.7
172820,0.124342,9.71305,1.40124,2.17,-3.5,17.78,-20.5025,-47.7866,12.07,1014.7
172826,0.133907,9.71784,1.42994,2.17,-3.29,0.35,-20.212,-48.5885,11.0948,1014.7
172832,0.114778,9.7561,1.42516,2.24,-3.36,0.35,-20.2991,-48.5885,10.6367,1014.7
172838,0.133907,9.76088,1.40603,2.17,-2.73,-0.07,-20.241,-47.6324,12.0257,1014.71
172844,0.109995,9.76566,1.42037,2.24,-3.15,0.42,-20.5025,-48.3418,12.3655,1014.71
172850,0.129125,9.76088,1.41559,2.03,-3.36,0.84,-20.4154,-48.8352,10.9618,1014.7
172856,0.153037,9.7561,1.41081,2.73,-4.06,0.35,-20.2701,-47.3549,12.9566,1014.7
172862,0.153037,9.74175,1.3869,1.82,-3.29,0.56,-20.1539,-48.7735,12.8827,1014.68
172868,0.143472,9.74653,1.42037,2.17,-3.78,0.56,-19.6018,-48.4651,11.1686,1014.68
172874,0.167384,9.7561,1.42516,2.1,-3.5,0,-19.4274,-47.9717,11.5528,1014.7
172880,0.243902,9.74653,1.40124,2.31,-3.92,-0.14,-19.6308,-47.6633,12.7202,1014.7
172886,0.210426,9.77044,1.39168,2.24,-3.43,-0.14,-20.241,-48.4651,11.937,1014.7
172892,0.172166,9.78957,1.3869,1.47,-3.5,-0.77,-20.4154,-48.8044,11.346,1014.71
172898,0.105213,9.74175,1.40603,1.89,-3.57,-0.21,-20.212,-47.2932,12.2178,1014.71
172904,0.205643,9.78957,1.42037,1.82,-3.43,0.28,-20.8803,-48.3726,11.8779,1014.7
172910,0.224773,9.81349,1.40603,1.75,-3.08,-0.77,-20.212,-49.0202,11.804,1014.7
172916,0.181731,9.79914,1.32472,1.26,-3.01,-1.12,-20.8222,-47.7866,13.0452,1014.72
172922,0.0669536,9.78479,1.43472,1.75,-3.36,-0.42,-20.8222,-48.0334,12.6315,1014.72
172928,0.0860832,9.69871,1.4682,1.75,-3.29,0,-20.7641,-49.5753,10.8879,1014.7
172934,0.0908656,9.71305,1.44907,1.82,-3.43,-0.14,-20.1539,-47.9408,11.8631,1014.7
172940,0.124342,9.76088,1.42037,1.82,-3.71,-0.56,-20.1248,-47.8175,11.7301,1014.7
172946,0.129125,9.79436,1.3869,1.75,-3.36,-0.28,-20.6478,-48.681,10.3707,1014.68
172952,0.095648,9.74175,1.39646,1.82,-3.5,-0.07,-20.735,-48.3726,11.4494,1014.68
172958,0.10043,9.71305,1.41559,1.33,-3.43,0.14,-20.7931,-47.8792,12.6611,1014.72
172964,0.109995,9.73218,1.3869,1.26,-2.94,0.28,-20.1539,-48.1259,12.2769,1014.72
172970,0.129125,9.73697,1.3869,1.61,-3.57,0.14,-20.8803,-48.7118,10.3855,1014.73
172976,0.157819,9.73218,1.39168,1.82,-3.5,0.14,-20.5607,-47.8175,11.937,1014.73
172982,0.148254,9.69392,1.42037,1.4,-3.85,0.21,-20.212,-48.7735,12.9123,1014.69
172988,0.133907,9.70349,1.46341,1.96,-3.64,0.07,-21.4033,-47.9408,9.63189,1014.69
172994,0.129125,9.7274,1.44428,2.24,-3.78,-0.07,-20.5025,-48.2492,11.3312,1014.67
173000,0.186514,9.80392,1.37255,1.82,-3.78,0.21,-20.6478,-47.6633,12.9861,1014.67
173006,0.253467,9.79914,1.39646,1.82,-3.15,-0.21,-20.5897,-49.2361,11.1539,1014.67
173012,0.181731,9.7561,1.39646,1.26,-3.29,-0.49,-20.8512,-48.8044,10.3116,1014.7
173018,0.191296,9.81827,1.43472,1.61,-3.29,-0.42,-20.0376,-47.7558,11.0357,1014.7
173024,0.157819,9.78479,1.41081,1.4,-3.22,-0.56,-20.4154,-48.3418,12.0848,1014.71
173030,0.172166,9.74175,1.42516,1.54,-3.29,-0.7,-20.8803,-49.3286,11.9222,1014.71
173036,0.162602,9.76566,1.44907,1.75,-3.29,-1.19,-20.7641,-47.8175,11.2277,1014.72
173042,0.143472,9.73218,1.45863,1.61,-3.22,-0.49,-20.0958,-48.1259,12.9418,1014.72
173048,0.0908656,9.71305,1.42994,1.68,-3.64,-0.42,-20.4444,-49.0511,10.9913,1014.72
173054,0.0813008,9.71784,1.44428,2.03,-3.71,-1.05,-20.5025,-48.2492,12.3951,1014.72
173060,0.095648,9.72262,1.46341,1.96,-3.43,-0.63,-20.3573,-47.8483,11.346,1014.72
173066,0.114778,9.7274,1.41559,1.68,-3.36,0.07,-21.229,-49.2669,12.1143,1014.7
173072,0.109995,9.75131,1.37733,2.17,-3.71,-0.21,-20.241,-48.496,12.1143,1014.7
173078,0.13869,9.71305,1.41559,2.03,-3.71,-0.49,-20.7641,-47.8483,11.5676,1014.7
173084,0.0860832,9.76088,1.39646,2.31,-2.94,0.21,-20.2701,-48.9277,11.7449,1014.7
173090,0.114778,9.74653,1.39168,1.82,-2.8,-0.14,-20.6478,-48.7118,10.6958,1014.69
173096,0.114778,9.75131,1.40603,1.89,-3.64,0.28,-20.2701,-47.324,12.2178,1014.69
173102,0.157819,9.74653,1.40603,1.89,-3.64,0.07,-20.735,-48.6193,11.1834,1014.7
173108,0.133907,9.74653,1.42994,1.47,-3.29,-0.07,-20.2991,-49.5753,11.7449,1014.7
173114,0.105213,9.70827,1.4395,1.82,-3.43,0.21,-20.4444,-47.9408,11.8779,1014.7
173120,0.143472,9.74175,1.45385,1.82,-3.57,0.21,-20.1248,-47.8175,12.6611,1014.75
173126,0.234338,9.78957,1.3869,1.61,-3.36,-0.42,-20.5897,-48.5885,11.7892,1014.75
173132,0.320421,9.83261,1.34385,1.75,-3.57,-0.56,-20.9675,-48.0642,12.0996,1014.7
173138,0.200861,9.79914,1.3582,1.33,-3.5,-0.84,-20.7059,-47.2315,11.8927,1014.7
173144,0.129125,9.76566,1.39646,1.68,-3.22,-1.12,-20.735,-48.1876,11.8484,1014.71
173150,0.095648,9.77044,1.43472,1.4,-3.15,-0.98,-20.9675,-49.2978,11.7892,1014.71
173156,0.11956,9.73218,1.48254,1.33,-3.29,-0.77,-20.9675,-47.91,12.2473,1014.73
173162,0.157819,9.7274,1.45385,1.96,-3.29,-0.98,-20.5025,-48.1567,12.7202,1014.73
173168,0.0334768,9.73218,1.4682,1.4,-3.36,-0.91,-19.9505,-49.1436,11.0061,1014.71
173174,0.0621712,9.69392,1.43472,1.89,-3.43,-0.42,-20.5025,-48.1876,11.0652,1014.71
173180,0.0908656,9.68914,1.45863,2.03,-3.78,0,-20.6188,-47.4166,11.8336,1014.71
173186,0.095648,9.73697,1.41559,1.96,-3.43,-0.56,-20.8512,-48.5885,10.4298,1014.69
173192,0.0908656,9.76566,1.42994,2.1,-3.36,-0.35,-20.4154,-48.8969,11.8484,1014.69
173198,0.0908656,9.76566,1.39646,1.82,-3.29,-0.49,-21.0837,-47.4474,11.5972,1014.71
173204,0.105213,9.75131,1.47298,1.96,-3.43,0.49,-20.212,-48.3418,11.6267,1014.71
173210,0.10043,9.7274,1.42516,2.24,-3.71,0.42,-20.8512,-48.6502,10.4298,1014.71
173216,0.143472,9.74653,1.41559,2.1,-3.64,0.07,-20.0376,-47.725,11.7006,1014.71
173222,0.133907,9.75131,1.41559,1.68,-3.57,0.21,-20.3573,-47.7558,12.5872,1014.69
173228,0.13869,9.73697,1.42037,1.61,-3.71,0.42,-20.4444,-48.681,11.7449,1014.69
173234,0.143472,9.71784,1.45385,2.1,-3.57,0.28,-19.7471,-47.8483,11.5381,1014.69
173240,0.181731,9.74653,1.42994,2.03,-3.64,0.07,-20.3282,-47.2007,11.4494,1014.71
173246,0.224773,9.73697,1.42516,1.89,-3.64,0.14,-20.4735,-48.7735,11.3312,1014.71
173252,0.181731,9.76566,1.4395,1.82,-3.57,-0.28,-20.9675,-48.681,11.4198,1014.72
173258,0.191296,9.75131,1.42516,2.03,-3.5,-0.14,-19.8633,-47.6016,13.6511,1014.72
173264,0.143472,9.73218,1.45385,2.31,-3.36,-0.28,-20.3282,-48.7118,10.7106,1014.72
173270,0.148254,9.78957,1.42994,2.17,-3.29,-0.21,-21.0546,-49.1436,11.8188,1014.72
173276,0.200861,9.7561,1.42516,2.31,-3.43,-0.63,-20.212,-48.4034,11.5528,1014.72
173282,0.176949,9.81349,1.39646,1.89,-3.71,-0.63,-20.1248,-47.8792,12.2473,1014.72
173288,0.133907,9.78479,1.39168,1.26,-3.01,-0.07,-20.1829,-49.1128,10.3855,1014.72
173294,0.10043,9.76566,1.42994,2.1,-3.85,-0.28,-19.9505,-48.2492,12.4394,1014.69
173300,0.109995,9.73218,1.42994,1.33,-3.15,0,-20.241,-47.9408,12.4542,1014.69
173306,0.109995,9.73697,1.44907,1.61,-4.06,-0.42,-20.7931,-49.0202,11.5528,1014.7
173312,0.129125,9.73697,1.42037,1.96,-3.5,0.07,-20.9965,-49.3595,11.4346,1014.7
173318,0.129125,9.73697,1.42037,1.75,-3.57,0.35,-19.8052,-47.5091,10.8583,1014.69
173324,0.124342,9.7274,1.42516,1.68,-3.5,0.42,-20.4154,-48.1876,12.469,1014.69
173330,0.133907,9.73218,1.44428,2.38,-3.29,0.14,-19.9505,-49.1128,11.3607,1014.7
173336,0.109995,9.73697,1.40603,2.24,-3.43,0.07,-20.2701,-47.2624,11.9518,1014.7
173342,0.105213,9.76088,1.42037,2.31,-3.5,0.7,-19.7471,-48.3726,11.7597,1014.7
173348,0.176949,9.76566,1.41559,1.82,-3.36,0.28,-20.0086,-48.095,11.5233,1014.7
173354,0.143472,9.74175,1.45863,2.17,-3.57,-0.56,-19.7471,-47.4166,11.6858,1014.7
173360,0.181731,9.76566,1.42516,2.03,-3.36,-0.42,-19.9795,-47.6941,11.2425,1014.73
173366,0.229555,9.76566,1.42994,1.82,-3.5,-0.07,-20.9675,-49.1744,11.2277,1014.73
173372,0.176949,9.7561,1.39168,1.89,-3.71,-0.77,-20.212,-48.681,12.1291,1014.73
173378,0.143472,9.78957,1.41081,1.75,-3.22,0.07,-19.8342,-48.0642,12.6758,1014.73
173384,0.105213,9.74653,1.42994,1.75,-3.36,-0.7,-20.7931,-49.0819,11.9961,1014.7
173390,0.095648,9.75131,1.42516,1.47,-3.64,-0.77,-20.4735,-48.8352,11.5972,1014.7
173396,0.0908656,9.73218,1.4395,1.75,-3.5,-0.07,-20.5607,-47.6016,12.3064,1014.7
173402,0.124342,9.71305,1.44428,1.54,-3.64,0,-20.8512,-47.8792,11.5233,1014.7
173408,0.114778,9.75131,1.42994,1.89,-3.36,-0.56,-20.8512,-48.7427,10.5924,1014.7
173414,0.0813008,9.75131,1.39168,1.19,-2.94,-0.14,-20.5607,-47.8175,12.0996,1014.73
173420,0.095648,9.7274,1.43472,1.82,-3.64,0.14,-19.5437,-46.9231,11.6563,1014.73
173426,0.0860832,9.72262,1.42994,1.89,-3.71,-0.07,-19.9214,-49.5137,10.814,1014.69
173432,0.10043,9.7274,1.45385,1.96,-3.64,0.42,-20.3573,-48.5576,10.7992,1014.69
173438,0.13869,9.7274,1.45863,1.89,-3.5,-0.07,-19.8342,-47.2007,12.0996,1014.74
173444,0.143472,9.74653,1.44907,1.96,-3.64,0,-20.0376,-49.1128,11.8779,1014.74
173450,0.13869,9.74175,1.43472,2.24,-3.71,0.42,-20.4154,-49.1128,11.7597,1014.74
173456,0.191296,9.74175,1.40603,2.17,-3.71,0.07,-20.3863,-47.4474,11.7006,1014.74
173462,0.224773,9.74175,1.44907,1.75,-3.22,0.14,-20.8512,-49.3903,12.2178,1014.74
173468,0.210426,9.77523,1.42037,1.82,-3.36,-0.77,-19.9795,-48.8352,11.9961,1014.71
173474,0.191296,9.78957,1.42037,1.96,-3.36,-0.42,-19.9214,-47.8483,12.3508,1014.71
173480,0.13869,9.76088,1.42516,1.82,-3.43,-0.14,-20.1829,-46.9231,11.9961,1014.68
173486,0.181731,9.76566,1.42037,1.61,-3.22,-0.42,-20.2991,-48.2492,11.3755,1014.68
173492,0.167384,9.73218,1.45385,1.68,-3.5,-0.35,-20.1829,-48.1259,10.9322,1014.71
173498,0.124342,9.76088,1.45385,2.59,-3.43,-0.63,-19.9795,-47.324,11.346,1014.71
173504,0.105213,9.80392,1.37733,1.89,-3.36,-0.63,-20.4154,-48.8352,10.415,1014.7
173510,0.0908656,9.74653,1.40124,1.26,-3.29,0,-20.2701,-48.095,10.8583,1014.7
173516,0.0908656,9.74175,1.45385,1.68,-3.64,-0.49,-20.0086,-47.2007,11.7892,1014.68
173522,0.105213,9.69871,1.44428,2.24,-3.71,-0.28,-20.4735,-47.3549,11.0209,1014.68
173528,0.0908656,9.73697,1.42994,1.75,-3.43,0,-20.735,-48.8352,11.0504,1014.68
173534,0.133907,9.74653,1.3869,2.1,-3.15,0.42,-20.3863,-47.7558,11.3903,1014.7
173540,0.0573888,9.75131,1.42516,1.96,-3.57,0,-20.2991,-46.7998,11.346,1014.7
173546,0.095648,9.73697,1.44428,1.82,-3.57,0.21,-20.7641,-48.3109,10.3116,1014.73
173552,0.133907,9.7274,1.42037,2.38,-3.22,0.07,-20.5316,-48.0642,10.5924,1014.73
173558,0.124342,9.72262,1.45385,2.1,-3.01,0.35,-20.5897,-48.0642,12.336,1014.73
173564,0.129125,9.74175,1.42994,2.1,-3.36,-0.14,-20.0376,-48.7735,10.7992,1014.73
173570,0.167384,9.71305,1.47776,2.03,-3.15,0.21,-20.8512,-48.3726,10.7992,1014.67
173576,0.248685,9.80392,1.36298,2.38,-3.36,-0.42,-20.735,-48.7118,13.2669,1014.67
173582,0.25825,9.77523,1.3869,2.31,-2.73,-0.28,-20.4444,-47.7866,12.3508,1014.67
173588,0.11956,9.78001,1.40603,2.03,-2.94,-0.21,-20.2701,-48.9894,10.7697,1014.71
173594,0.124342,9.78957,1.42994,1.75,-3.22,-0.56,-20.5897,-47.8792,11.8631,1014.71
173600,0.148254,9.79436,1.41081,1.96,-3.71,-0.84,-19.6018,-47.5708,11.5233,1014.71
173606,0.148254,9.76088,1.39646,1.68,-3.22,-0.14,-20.7059,-49.1128,10.9174,1014.71
173612,0.143472,9.74653,1.43472,1.82,-3.36,-0.63,-19.9505,-47.5399,12.2325,1014.7
173618,0.0860832,9.7561,1.45385,1.68,-3.36,-0.91,-20.4154,-47.2624,12.6315,1014.7
173624,0.047824,9.75131,1.42516,2.03,-3.71,-0.7,-20.4735,-48.3726,12.2769,1014.7
173630,0.114778,9.74653,1.42516,1.75,-3.64,-0.42,-21.3161,-48.4034,11.4642,1014.7
173636,0.148254,9.75131,1.41081,1.96,-3.08,0.14,-19.7471,-47.5708,11.4494,1014.7
173642,0.11956,9.71784,1.42994,2.24,-3.43,-0.21,-19.5727,-48.5268,12.203,1014.71
173648,0.095648,9.70349,1.42994,2.17,-3.36,0.21,-20.1829,-49.7295,11.1391,1014.71
173654,0.095648,9.71305,1.44907,1.82,-3.29,0,-20.5607,-48.0334,11.7449,1014.7
173660,0.105213,9.70827,1.39646,2.1,-3.57,-0.07,-20.1248,-48.0642,11.4937,1014.7
173666,0.13869,9.71784,1.41081,1.89,-3.29,0.56,-20.1248,-48.7735,10.2673,1014.7
173672,0.133907,9.72262,1.41559,2.31,-3.43,0.63,-19.8342,-48.2801,11.671,1014.7
173678,0.143472,9.73218,1.40124,2.24,-3.29,0.14,-20.3282,-47.1698,12.4099,1014.69
173684,0.148254,9.7274,1.42994,2.1,-3.92,0,-20.212,-48.2184,11.5676,1014.69
173690,0.105213,9.73218,1.48733,2.03,-3.64,-0.14,-20.3863,-49.1436,11.6563,1014.71
173696,0.172166,9.7561,1.42994,1.82,-3.29,0.28,-19.689,-47.2624,12.4837,1014.71
173702,0.21999,9.80392,1.41559,1.96,-3.57,-0.07,-20.4735,-49.3903,10.8436,1014.71
173708,0.229555,9.77523,1.41559,1.82,-3.22,-0.42,-20.9965,-48.866,10.8731,1014.73
173714,0.0908656,9.81349,1.42037,1.54,-3.5,-0.56,-20.3282,-48.0334,11.9518,1014.73
173720,0.095648,9.7274,1.44907,2.03,-3.15,-0.56,-20.1829,-47.4474,12.6611,1014.72
173726,0.13869,9.76566,1.42994,1.61,-3.22,-0.14,-20.5025,-48.681,11.4346,1014.72
173732,0.143472,9.74653,1.40124,1.89,-3.78,-0.21,-20.212,-48.0025,11.7006,1014.68
173738,0.133907,9.72262,1.42516,1.89,-3.57,-0.28,-19.6599,-47.6016,11.8188,1014.68
173744,0.11956,9.69871,1.48254,2.1,-3.29,-0.56,-20.1539,-48.8969,11.4642,1014.68
173750,0.0908656,9.71305,1.4395,1.68,-3.5,-0.42,-20.6188,-49.1436,10.8436,1014.68
173756,0.0860832,9.75131,1.45385,2.31,-3.78,-0.07,-19.8052,-46.7073,11.937,1014.68
173762,0.124342,9.72262,1.43472,2.1,-2.94,0.21,-20.241,-48.095,11.8779,1014.69
173768,0.10043,9.75131,1.3869,1.96,-3.29,0.07,-20.4444,-49.1744,12.1587,1014.69
173774,0.114778,9.76088,1.38211,2.03,-3.43,0.21,-20.4444,-48.1876,12.4246,1014.7
173780,0.124342,9.74175,1.43472,2.45,-3.29,0.56,-19.8342,-46.8306,11.6563,1014.7
173786,0.095648,9.76088,1.41559,1.96,-3.85,0.07,-21.1127,-48.6193,11.4937,1014.69
173792,0.143472,9.74653,1.41559,2.1,-3.64,0,-20.4444,-47.5091,12.0257,1014.69
173798,0.133907,9.73697,1.3869,1.82,-3.29,0.14,-19.9505,-47.0773,13.1191,1014.75
173804,0.167384,9.75131,1.44428,2.17,-3.36,0.07,-20.6478,-47.5708,11.2573,1014.75
173810,0.186514,9.79436,1.38211,1.68,-3.78,-0.21,-20.9675,-48.1876,11.6563,1014.75
173816,0.191296,9.74653,1.42516,1.61,-3.78,-0.63,-19.6599,-47.2315,12.6906,1014.7
173822,0.186514,9.77044,1.39168,1.89,-3.08,-0.28,-20.0958,-47.2315,12.4246,1014.7
173828,0.157819,9.75131,1.43472,1.82,-3.08,-0.56,-19.8924,-49.2053,11.0504,1014.76
173834,0.11956,9.74175,1.4395,1.96,-3.15,-1.19,-20.0667,-48.2184,11.7006,1014.76
173840,0.105213,9.76088,1.51124,1.96,-3.15,-0.56,-20.7641,-46.9848,13.1782,1014.68
173846,0.162602,9.71784,1.42516,2.24,-3.64,-0.77,-20.0376,-48.3418,11.3312,1014.68
173852,0.0908656,9.76088,1.41081,2.1,-3.92,-0.56,-20.7641,-47.8483,11.1834,1014.7
173858,0.0669536,9.73218,1.4395,2.17,-3.5,-0.35,-19.8633,-47.2007,13.0305,1014.7
173864,0.0430416,9.71784,1.4395,2.03,-3.5,-0.21,-20.7931,-48.5576,12.5724,1014.72
173870,0.109995,9.72262,1.42037,1.82,-3.92,-0.07,-20.5316,-47.9408,12.0404,1014.72
173876,0.11956,9.70827,1.41081,1.89,-3.15,0.42,-20.3863,-47.0157,13.2521,1014.72
173882,0.10043,9.73697,1.40603,2.1,-3.08,0.28,-20.9093,-48.2492,12.6758,1014.7
173888,0.0908656,9.73697,1.44428,2.31,-3.15,0.35,-21.4614,-48.9894,11.5824,1014.7
173894,0.109995,9.70827,1.44907,1.96,-3.29,0.35,-20.5316,-47.6324,12.5428,1014.69
173900,0.11956,9.73218,1.41081,2.52,-3.29,0.14,-20.9965,-48.0642,12.7202,1014.69
173906,0.11956,9.76088,1.43472,2.1,-3.29,0.21,-20.4735,-49.0202,11.4642,1014.71
173912,0.129125,9.76566,1.39646,2.1,-3.57,0.56,-19.9795,-48.681,12.469,1014.71
173918,0.129125,9.78479,1.41559,1.82,-3.08,0.07,-20.4444,-47.2007,11.4346,1014.72
173924,0.148254,9.7561,1.42516,2.17,-3.78,0.63,-21.0256,-48.6502,12.07,1014.72
173930,0.172166,9.73697,1.4395,2.1,-3.36,0.21,-21.6067,-48.3418,12.1439,1014.72
173936,0.21999,9.78001,1.41559,2.17,-3.29,-0.77,-20.9965,-47.91,11.1391,1014.71
173942,0.129125,9.78957,1.41081,1.47,-3.29,-0.63,-20.3863,-47.8175,12.9714,1014.71
173948,0.114778,9.79436,1.42994,1.68,-3.29,-0.21,-19.9795,-48.4343,11.3312,1014.71
173954,0.133907,9.69392,1.47776,2.1,-3.43,-0.49,-19.718,-48.1567,11.9518,1014.71
173960,0.186514,9.73697,1.44428,2.31,-3.43,-0.7,-20.6188,-47.725,13.06,1014.74
173966,0.167384,9.74653,1.44907,1.96,-3.29,-0.63,-20.0376,-49.4212,11.2425,1014.74
173972,0.105213,9.77044,1.41559,1.96,-3.36,-0.28,-20.1248,-48.5885,11.2869,1014.7
173978,0.0573888,9.76566,1.43472,2.38,-3.29,-0.7,-19.689,-47.6941,13.9171,1014.7
173984,0.095648,9.72262,1.45385,2.24,-3.08,0,-20.3863,-48.8352,11.3312,1014.7
173990,0.10043,9.73697,1.48254,2.38,-3.5,-0.49,-20.5607,-49.2053,11.7597,1014.71
173996,0.105213,9.71305,1.40603,2.1,-3.22,0.21,-20.4154,-47.139,13.193,1014.71
174002,0.105213,9.7274,1.39646,2.45,-3.43,0,-20.3573,-47.3549,10.9618,1014.68
174008,0.0908656,9.74175,1.41081,2.17,-3.15,0,-20.735,-48.4034,9.91265,1014.68
174014,0.0860832,9.76566,1.38211,2.1,-3.85,-0.14,-20.7931,-47.7866,12.1439,1014.69
174020,0.0860832,9.75131,1.40124,2.24,-3.92,0.63,-20.0086,-46.9848,12.2473,1014.69
174026,0.0813008,9.66045,1.48254,2.24,-3.29,1.05,-20.3282,-48.3726,12.8827,1014.69
174032,0.0430416,9.76088,1.4395,2.03,-3.64,0.07,-19.8924,-48.4034,12.4246,1014.69
174038,0.162602,9.74175,1.41559,2.1,-3.5,0.42,-20.8222,-46.8306,11.3903,1014.69
174044,0.148254,9.8087,1.39168,2.52,-3.36,0.56,-20.1539,-48.7118,10.9913,1014.69
174050,0.167384,9.77044,1.42516,1.96,-3.15,0.56,-21.1127,-48.3726,11.2721,1014.69
174056,0.11956,9.76088,1.42037,2.03,-3.64,0.91,-20.241,-47.324,11.8188,1014.7
174062,0.205643,9.74653,1.42037,1.75,-3.57,0.63,-20.5607,-47.5399,12.5872,1014.7
174068,0.215208,9.76088,1.42994,1.96,-3.29,-0.07,-21.0546,-48.8352,10.1786,1014.7
174074,0.153037,9.7561,1.41559,2.31,-3.5,-0.14,-20.8222,-47.6633,11.5085,1014.7
174080,0.105213,9.74175,1.45385,2.45,-3.43,0.21,-19.5727,-48.2492,11.9961,1014.69
174086,0.124342,9.7274,1.42516,2.1,-3.92,-0.14,-20.1539,-49.1436,12.5428,1014.69
174092,0.172166,9.7561,1.43472,2.59,-3.78,-0.14,-19.8633,-47.9408,11.4937,1014.7
174098,0.181731,9.75131,1.41081,2.17,-3.01,-0.21,-20.1248,-48.0334,12.4542,1014.7
174104,0.133907,9.7561,1.40124,2.52,-3.15,0.07,-21.0837,-49.5753,11.8779,1014.7
174110,0.095648,9.7561,1.42516,2.52,-3.36,-0.14,-20.7931,-48.8044,11.9666,1014.69
174116,0.105213,9.71305,1.43472,2.38,-3.22,-0.49,-20.5607,-48.1259,14.4933,1014.69
174122,0.153037,9.73218,1.41559,2.17,-3.01,0.28,-20.2701,-47.8792,12.9566,1014.69
174128,0.148254,9.73697,1.42994,2.52,-3.22,0.21,-20.6478,-49.0202,12.7054,1014.69
174134,0.0860832,9.73218,1.41081,2.73,-3.57,-0.07,-20.7641,-48.1259,13.7397,1014.7
174140,0.109995,9.73218,1.43472,2.66,-3.5,0.07,-20.2701,-47.4782,13.0157,1014.7
174146,0.129125,9.76088,1.42037,2.24,-2.94,0.07,-21.1999,-49.5753,12.6463,1014.71
174152,0.095648,9.7274,1.3869,2.45,-3.29,0.14,-21.3452,-49.3595,12.5133,1014.71
174158,0.13869,9.73697,1.40124,2.52,-3.5,0.07,-20.3573,-47.8792,13.193,1014.71
174164,0.143472,9.77523,1.39168,2.17,-3.85,0.35,-20.5607,-49.3903,12.1143,1014.74
174170,0.196078,9.77044,1.41081,2.52,-3.43,-0.14,-20.7059,-49.0202,11.5676,1014.74
174176,0.21999,9.79914,1.39168,2.1,-3.5,-0.21,-19.4856,-46.8615,13.0009,1014.71
174182,0.196078,9.82783,1.3582,1.89,-3.36,-0.7,-20.9093,-48.2492,13.4442,1014.71
174188,0.210426,9.84696,1.36298,2.1,-3.29,-0.63,-20.7641,-48.8352,11.6415,1014.7
174194,0.129125,9.79914,1.40603,1.68,-2.94,-0.21,-20.2991,-47.7866,12.6906,1014.7
174200,0.0860832,9.77044,1.41081,1.96,-3.15,-0.35,-20.1829,-47.324,12.1291,1014.69
174206,0.105213,9.70827,1.45385,2.03,-3.29,-0.7,-21.0546,-49.1128,12.6906,1014.69
174212,0.109995,9.7274,1.47298,2.1,-3.57,-0.56,-21.1418,-48.4034,11.4051,1014.73
174218,0.10043,9.70827,1.45385,1.96,-3.29,-0.35,-20.5607,-47.324,13.725,1014.73
174224,0.095648,9.68436,1.4682,2.31,-3.29,0.28,-20.4735,-48.8969,12.0552,1014.73
174230,0.0908656,9.73697,1.4395,2.38,-3.85,-0.28,-20.4444,-48.9894,10.814,1014.7
174236,0.071736,9.71305,1.42994,2.38,-3.29,0.21,-20.1539,-47.7866,13.4294,1014.7
174242,0.109995,9.75131,1.36777,2.45,-3.36,0.49,-20.6769,-47.7558,13.2373,1014.71
174248,0.124342,9.75131,1.42994,2.45,-3.57,0,-20.4154,-49.0819,11.671,1014.71
174254,0.129125,9.72262,1.43472,3.01,-3.43,-0.21,-20.4154,-47.4474,12.927,1014.75
174260,0.105213,9.70349,1.40603,2.31,-3.92,-0.21,-20.4735,-48.0334,12.8384,1014.75
174266,0.143472,9.74175,1.40124,2.73,-3.85,0.21,-20.0667,-49.5445,12.0848,1014.71
174272,0.124342,9.74175,1.40124,2.59,-3.29,0.91,-20.2701,-48.2184,12.0404,1014.71
174278,0.133907,9.77523,1.41559,2.38,-3.08,0.49,-19.7761,-47.3857,12.0996,1014.71
174284,0.167384,9.7561,1.43472,2.38,-3.64,-0.28,-20.8222,-48.5885,13.2521,1014.72
174290,0.133907,9.80392,1.36298,2.73,-3.43,0.42,-20.0958,-48.7427,11.8188,1014.72
174296,0.205643,9.81827,1.34385,2.1,-4.13,0.14,-21.1999,-46.8923,13.0896,1014.71
174302,0.21999,9.80392,1.36777,1.75,-3.15,-0.42,-21.0546,-48.3418,13.0305,1014.71
174308,0.200861,9.81827,1.35342,2.24,-3.43,-0.84,-20.9093,-49.2669,10.7697,1014.69
174314,0.129125,9.78479,1.3869,1.47,-3.29,-0.28,-20.7931,-48.1567,12.7497,1014.69
174320,0.109995,9.76566,1.40124,1.96,-3.64,-0.35,-20.7931,-48.0025,14.0353,1014.71
174326,0.133907,9.72262,1.39168,1.82,-3.29,-0.42,-20.2991,-49.9454,11.937,1014.71
174332,0.11956,9.73697,1.42994,1.61,-3.57,0.07,-20.0958,-48.0642,11.7301,1014.71
174338,0.129125,9.71305,1.4395,2.17,-3.29,-0.42,-20.1248,-48.0642,12.8679,1014.69
174344,0.109995,9.7274,1.41559,1.75,-3.29,-0.35,-20.5607,-49.1436,12.3508,1014.69
174350,0.167384,9.74653,1.41559,1.89,-3.01,0.14,-20.4735,-48.8969,11.2425,1014.71
174356,0.109995,9.7274,1.42994,2.03,-3.22,0.14,-20.3282,-46.8923,13.0452,1014.71
174362,0.11956,9.72262,1.40603,2.17,-3.15,-0.21,-20.8512,-48.9277,13.3408,1014.69
174368,0.0765184,9.72262,1.44428,1.82,-3.29,0.28,-21.258,-49.7604,12.6167,1014.69
174374,0.124342,9.74175,1.42516,2.1,-3.43,0.14,-19.8052,-47.91,12.2621,1014.69
174380,0.105213,9.73218,1.42037,2.66,-3.5,0.28,-20.1539,-47.0465,13.1043,1014.69
174386,0.10043,9.74175,1.41559,2.1,-3.36,-0.07,-20.4735,-48.7735,12.1291,1014.7
174392,0.13869,9.70349,1.42037,2.17,-3.57,0.42,-20.5897,-48.8969,11.937,1014.7
174398,0.124342,9.75131,1.42037,2.24,-3.22,0.35,-20.2701,-48.2184,13.2817,1014.7
174404,0.153037,9.77044,1.39168,2.17,-3.15,0,-20.6188,-48.8969,11.8336,1014.68
174410,0.172166,9.77523,1.40124,2.24,-3.22,0.35,-20.6188,-48.7735,10.8436,1014.68
174416,0.186514,9.82305,1.37255,1.75,-3.57,0.07,-21.3452,-48.0642,13.3851,1014.68
174422,0.21999,9.78001,1.36777,1.54,-3.64,-0.28,-20.8803,-48.3109,11.3164,1014.68
174428,0.157819,9.89479,1.30081,1.33,-3.5,-0.56,-20.1539,-49.6987,11.1834,1014.7
174434,0.181731,9.78957,1.39646,1.33,-2.87,-0.77,-20.1539,-48.4651,12.1587,1014.7
174440,0.114778,9.7561,1.49689,1.33,-3.71,-0.7,-20.0376,-48.2184,11.9813,1014.71
174446,0.243902,9.68914,1.47298,1.61,-3.15,-0.91,-20.5607,-49.7604,12.469,1014.71
174452,0.0765184,9.79914,1.40603,1.75,-3.43,-0.49,-20.3282,-49.0819,12.469,1014.71
174458,0.0813008,9.75131,1.41081,1.89,-3.22,-0.56,-20.1248,-48.8044,12.6463,1014.68
174464,0.105213,9.71305,1.47776,1.75,-3.5,-0.35,-20.7931,-49.2361,11.7006,1014.68
174470,0.0908656,9.70349,1.45385,2.17,-2.94,-0.35,-20.6478,-49.0819,11.1982,1014.7
174476,0.11956,9.69871,1.47776,2.45,-2.94,-0.07,-19.9505,-47.6016,11.8336,1014.7
174482,0.0669536,9.73697,1.39646,2.31,-3.64,-0.14,-20.8512,-48.5268,12.3508,1014.7
174488,0.095648,9.73697,1.3869,2.1,-3.5,0,-20.3573,-48.5885,12.469,1014.7
174494,0.0860832,9.71305,1.39168,2.1,-3.99,0.28,-20.0958,-47.9717,11.9813,1014.74
174500,0.105213,9.75131,1.42037,2.24,-3.71,0.14,-20.2991,-48.3109,12.5724,1014.74
174506,0.114778,9.75131,1.40124,2.38,-3.15,0.21,-20.7059,-49.7295,11.7006,1014.74
174512,0.157819,9.73218,1.39646,2.17,-2.94,0.42,-19.9214,-48.7735,12.7054,1014.74
174518,0.157819,9.79914,1.39646,2.31,-3.01,0.98,-20.6188,-48.1259,11.3903,1014.74
174524,0.143472,9.7561,1.36777,2.73,-4.06,0.42,-19.8924,-49.3903,11.5676,1014.7
174530,0.186514,9.79914,1.35342,1.96,-3.01,17.71,-20.1829,-49.2053,11.4789,1014.7
174536,0.162602,9.80392,1.3869,2.17,-3.57,-0.14,-19.9505,-47.6941,12.8975,1014.71
174542,0.186514,9.79436,1.42037,1.68,-3.08,-0.28,-20.2991,-48.6193,11.5676,1014.71
174548,0.191296,9.78001,1.41081,1.54,-3.15,-0.49,-20.5897,-49.6679,11.5381,1014.71
174554,0.191296,9.76566,1.42994,2.31,-3.43,-0.77,-20.1829,-48.5268,11.5085,1014.71
174560,0.124342,9.80392,1.45385,1.4,-3.29,-0.21,-19.9505,-48.3418,13.1635,1014.73
174566,0.133907,9.74653,1.46341,2.1,-3.57,-0.84,-21.1418,-48.2801,11.4642,1014.73
174572,0.157819,9.75131,1.42994,2.1,-3.22,-0.56,-20.4444,-47.6016,12.07,1014.73
174578,0.124342,9.77523,1.43472,2.1,-3.01,-0.56,-20.5025,-47.5399,13.6215,1014.7
174584,0.129125,9.75131,1.41559,1.96,-3.15,-0.49,-20.4154,-48.4034,12.4837,1014.7
174590,0.11956,9.76566,1.40124,2.1,-3.15,-0.42,-20.4154,-49.4212,12.6315,1014.69
174596,0.129125,9.73218,1.39168,1.96,-2.73,-0.07,-20.0086,-48.1259,13.5329,1014.69
174602,0.095648,9.74653,1.40603,1.89,-3.43,-0.49,-20.6769,-48.681,12.0848,1014.71
174608,0.0860832,9.73697,1.41081,1.96,-3.43,-0.07,-20.5025,-49.2361,11.4051,1014.71
174614,0.109995,9.74653,1.40124,1.96,-3.22,-0.35,-21.0546,-48.3109,11.1982,1014.71
174620,0.105213,9.70827,1.40124,1.96,-3.08,-0.07,-21.1418,-49.5445,10.7992,1014.71
174626,0.143472,9.7274,1.43472,2.38,-3.43,0.14,-20.4444,-49.2053,11.2277,1014.71
174632,0.0908656,9.73218,1.40603,2.03,-3.36,0.63,-21.0837,-48.2492,12.7793,1014.68
174638,0.148254,9.74175,1.41559,2.03,-3.5,0.14,-20.0667,-48.2184,13.0009,1014.68
174644,0.157819,9.70827,1.40603,1.68,-3.64,0.07,-20.5607,-48.6502,11.6119,1014.72
174650,0.129125,9.68436,1.44907,1.68,-3.08,0.49,-20.4444,-48.3109,11.0357,1014.72
174656,0.10043,9.73218,1.41559,1.82,-3.71,0.21,-21.2871,-47.4782,12.469,1014.71
174662,0.124342,9.7274,1.41559,1.89,-3.99,0,-19.9214,-48.866,12.07,1014.71
174668,0.210426,9.74653,1.39646,2.1,-3.43,17.71,-20.6769,-49.3903,11.2869,1014.66
174674,0.25825,9.78957,1.3869,1.82,-3.5,-0.28,-20.735,-48.4343,11.6858,1014.66
174680,0.282162,9.81349,1.3582,2.17,-3.01,-0.56,-20.2701,-48.5268,11.3903,1014.66
174686,0.191296,9.80392,1.36777,1.26,-2.73,-0.98,-20.7641,-48.9894,12.1587,1014.7
174692,0.105213,9.79436,1.40124,1.47,-3.08,-0.91,-20.6769,-48.3418,12.4246,1014.7
174698,0.047824,9.75131,1.44907,1.54,-3.43,-0.63,-20.3863,-47.8792,12.7349,1014.69
174704,0.133907,9.73218,1.44428,1.05,-2.66,0.07,-21.0837,-48.9894,12.5428,1014.69
174710,0.133907,9.72262,1.42516,2.1,-3.01,-0.56,-21.1709,-49.4828,12.1291,1014.67
174716,0.105213,9.75131,1.43472,1.47,-3.08,-0.49,-21.6067,-48.2184,12.9714,1014.67
174722,0.0669536,9.7274,1.41559,1.89,-3.64,-0.84,-20.8803,-48.6502,10.3855,1014.68
174728,0.095648,9.71784,1.44428,1.54,-3.43,-0.21,-20.4444,-49.2978,11.1539,1014.68
174734,0.11956,9.72262,1.44428,1.89,-3.15,0.14,-20.241,-48.1876,14.1683,1014.7
174740,0.095648,9.71784,1.45863,2.59,-3.36,-0.28,-20.9384,-48.3109,13.6954,1014.7
174746,0.0908656,9.69871,1.44428,2.17,-2.87,0.35,-20.0086,-49.1436,12.4837,1014.7
174752,0.148254,9.7274,1.42516,2.52,-3.57,0.14,-19.6308,-48.496,13.3703,1014.71
174758,0.13869,9.73218,1.39646,2.17,-3.5,-0.07,-20.9384,-47.5708,12.3655,1014.71
174764,0.133907,9.7561,1.3869,2.03,-3.29,0.14,-20.4735,-49.1128,11.9222,1014.69
174770,0.0908656,9.75131,1.42037,2.17,-3.01,0.49,-20.7059,-49.0819,12.0109,1014.69
174776,0.11956,9.76566,1.41559,1.75,-3.36,0.28,-20.4444,-47.8483,12.2473,1014.68
174782,0.11956,9.77044,1.40603,2.03,-3.43,0.28,-20.3573,-48.3726,11.937,1014.68
174788,0.176949,9.78001,1.38211,2.03,-3.5,0.42,-20.4444,-49.3903,13.0748,1014.71
174794,0.272597,9.81349,1.37733,1.75,-3.57,-0.21,-20.4444,-47.6633,11.2869,1014.71
174800,0.224773,9.81827,1.35342,1.54,-3.01,-0.42,-20.3573,-48.8352,12.8679,1014.71
174806,0.133907,9.82305,1.3582,1.61,-3.36,-0.7,-20.5897,-48.6502,12.3655,1014.69
174812,0.105213,9.76088,1.39168,1.68,-3.15,-0.56,-19.7471,-48.6193,11.8336,1014.69
174818,0.11956,9.75131,1.41081,1.54,-3.36,-0.28,-19.8342,-47.7558,13.9762,1014.69
174824,0.143472,9.7274,1.43472,1.19,-2.73,-0.35,-20.8222,-49.7295,10.7401,1014.69
174830,0.129125,9.7274,1.41559,1.33,-3.57,-0.56,-21.0546,-48.5885,11.9222,1014.71
174836,0.0860832,9.74175,1.45385,1.61,-3.64,-0.21,-20.0376,-47.91,13.3112,1014.71
174842,0.129125,9.70349,1.45385,2.38,-3.15,-0.49,-20.0086,-48.6502,13.2521,1014.71
174848,0.0860832,9.69871,1.4682,1.54,-3.22,0.21,-20.0086,-48.9277,11.1834,1014.71
174854,0.11956,9.68914,1.44428,2.31,-3.15,0.07,-20.212,-47.6633,12.0552,1014.71
174860,0.095648,9.73697,1.42516,2.66,-3.5,0.07,-20.5897,-48.095,12.5872,1014.68
174866,0.124342,9.73697,1.40124,1.89,-3.01,0.21,-20.2991,-49.6987,11.1095,1014.68
174872,0.114778,9.75131,1.40603,2.31,-3.08,0.7,-20.1248,-48.4034,12.5428,1014.69
174878,0.124342,9.77044,1.42516,2.17,-3.29,0.28,-20.3282,-47.9408,12.6611,1014.69
174884,0.13869,9.77044,1.3869,2.24,-3.64,0.28,-20.1248,-48.4343,12.203,1014.69
174890,0.133907,9.73697,1.41559,1.82,-2.8,0.28,-20.8512,-49.5445,11.8631,1014.69
174896,0.148254,9.76566,1.41081,1.82,-3.22,0.56,-20.5316,-47.725,13.3999,1014.7
174902,0.191296,9.77523,1.39168,2.38,-3.5,-0.21,-20.3863,-48.5576,12.9123,1014.7
174908,0.210426,9.80392,1.35342,1.89,-3.57,-0.42,-21.0546,-49.4212,12.7054,1014.69
174914,0.172166,9.77523,1.37733,1.89,-3.5,-0.49,-20.1248,-47.91,12.3803,1014.69
174920,0.162602,9.74175,1.44907,2.1,-3.36,-0.42,-19.5437,-48.496,12.4542,1014.69
174926,0.153037,9.7561,1.44428,1.82,-3.22,-0.35,-22.1007,-49.637,11.4642,1014.7
174932,0.105213,9.78001,1.41081,1.61,-3.15,0,-20.1829,-48.5268,11.3164,1014.7
174938,0.0621712,9.7561,1.39646,1.96,-3.22,-0.21,-20.5607,-47.5708,12.8088,1014.7
174944,0.095648,9.74653,1.4395,1.4,-3.5,0.14,-20.3863,-49.2361,12.1882,1014.7
174950,0.105213,9.73218,1.42994,2.24,-3.5,0,-21.0546,-48.866,12.9861,1014.7
174956,0.11956,9.72262,1.41081,2.03,-3.08,-0.35,-20.2701,-47.2315,13.1635,1014.7
174962,0.109995,9.72262,1.41559,2.1,-3.71,0.35,-20.9093,-48.5885,12.07,1014.71
174968,0.095648,9.73697,1.42994,2.1,-3.57,0.56,-20.7641,-48.866,11.1686,1014.71
174974,0.105213,9.70349,1.45863,2.38,-3.71,0.14,-20.4444,-47.9717,12.602,1014.71
174980,0.143472,9.7274,1.3869,2.31,-3.22,0.42,-20.1539,-48.0025,12.6611,1014.69
174986,0.124342,9.71305,1.40124,2.38,-3.5,0.49,-20.9675,-48.9894,11.9518,1014.69
174992,0.148254,9.72262,1.39646,2.24,-3.5,0.14,-20.6769,-47.9717,12.6758,1014.7
174998,0.13869,9.77523,1.40603,2.59,-3.43,0.35,-21.0837,-47.5399,11.9666,1014.7
175004,0.176949,9.78001,1.36298,2.59,-3.36,0.21,-20.7931,-48.4343,11.937,1014.71
175010,0.176949,9.78479,1.36298,2.52,-3.57,17.85,-21.3161,-48.681,11.6563,1014.71
175016,0.215208,9.80392,1.31994,1.96,-3.43,0.21,-20.4444,-48.0642,12.0404,1014.73
175022,0.272597,9.78001,1.39168,1.75,-3.57,-0.49,-20.3863,-48.5885,11.5528,1014.73
175028,0.162602,9.77044,1.45385,1.54,-3.15,-0.77,-21.2871,-49.0202,12.5428,1014.73
175034,0.0334768,9.85653,1.33907,1.96,-3.15,-0.14,-20.9965,-48.0642,12.8975,1014.71
175040,0.167384,9.77044,1.35342,1.47,-3.36,-0.63,-21.0546,-47.8792,11.8927,1014.71
175046,0.114778,9.79436,1.45385,1.19,-3.29,-0.56,-21.6358,-49.3286,11.6415,1014.69
175052,0.157819,9.6748,1.48733,1.75,-3.43,-0.49,-21.3452,-47.7866,12.6611,1014.69
175058,0.105213,9.69871,1.47298,2.1,-3.5,-0.07,-20.6188,-47.0465,13.4885,1014.72
175064,0.0669536,9.69871,1.42516,2.03,-3.36,-0.35,-20.7059,-49.2053,12.6167,1014.72
175070,0.0813008,9.71784,1.40603,1.82,-3.43,-0.14,-20.9675,-48.4343,12.9714,1014.69
175076,0.10043,9.73697,1.40603,2.24,-2.87,0.21,-21.1127,-47.2932,12.6315,1014.69
175082,0.129125,9.71784,1.41081,1.61,-3.57,-0.28,-21.0256,-48.2184,11.7006,1014.72
175088,0.133907,9.7274,1.39646,2.31,-3.08,0.49,-20.5025,-49.0202,11.9222,1014.72
175094,0.124342,9.76088,1.42994,1.96,-3.08,0.14,-21.1418,-47.8175,12.3064,1014.72
175100,0.129125,9.72262,1.41559,2.17,-3.64,0,-20.5607,-47.5708,12.3655,1014.75
175106,0.157819,9.7274,1.39646,2.31,-3.36,0.56,-19.9795,-49.2361,12.7202,1014.75
175112,0.153037,9.72262,1.42516,2.24,-3.15,0.28,-20.8222,-48.0334,12.0257,1014.72
175118,0.167384,9.78001,1.36777,2.31,-3.15,0.07,-21.5195,-47.5091,12.0996,1014.72
175124,0.191296,9.76088,1.32951,1.96,-3.64,0,-20.3863,-48.7118,11.6267,1014.69
175130,0.157819,9.81827,1.36777,1.75,-3.71,0.42,-20.5316,-48.496,11.1539,1014.69
175136,0.172166,9.78479,1.34385,2.03,-3.5,-0.28,-19.689,-46.9231,12.5872,1014.71
175142,0.229555,9.82305,1.40124,1.33,-3.22,-0.21,-20.4735,-49.1436,11.4198,1014.71
175148,0.191296,9.78957,1.42516,1.61,-3.01,-0.63,-19.9795,-49.6062,11.7006,1014.71
175154,0.129125,9.74653,1.39646,1.61,-3.36,-0.84,-20.1248,-47.3857,12.7349,1014.7
175160,0.0908656,9.72262,1.42994,1.33,-3.57,-0.21,-19.9505,-47.8175,13.9318,1014.7
175166,0.124342,9.70827,1.44907,1.82,-3.36,0.14,-19.9795,-49.3286,12.6611,1014.72
175172,0.129125,9.72262,1.42037,2.31,-3.64,-0.49,-20.5897,-48.2492,11.2869,1014.72
175178,0.143472,9.70349,1.43472,1.89,-3.29,-0.42,-20.0958,-47.6941,13.5033,1014.7
175184,0.11956,9.68914,1.42037,2.17,-3.5,0.14,-20.6769,-49.2978,11.9813,1014.7
175190,0.114778,9.7274,1.40603,2.03,-3.36,0.07,-20.4444,-48.7427,11.804,1014.7
175196,0.143472,9.75131,1.40124,2.66,-3.5,0.49,-20.3573,-47.8792,13.2226,1014.7
175202,0.114778,9.77523,1.38211,1.89,-3.36,0.21,-20.0086,-48.9894,11.7301,1014.7
175208,0.13869,9.73218,1.36298,1.54,-3.29,0.42,-20.8512,-49.637,12.2769,1014.71
175214,0.124342,9.7561,1.39168,2.52,-3.57,0.35,-20.5316,-47.7866,12.8827,1014.71
175220,0.167384,9.76088,1.40603,2.31,-3.78,0.28,-20.4735,-48.1876,12.5724,1014.71
175226,0.133907,9.7561,1.39168,1.89,-2.94,0.21,-20.3863,-49.3595,13.2669,1014.71
175232,0.176949,9.75131,1.3582,1.68,-3.15,0.07,-19.4565,-48.4343,12.6167,1014.72
175238,0.186514,9.77044,1.3582,2.03,-3.71,-0.21,-19.9214,-47.0465,12.9714,1014.72
175244,0.181731,9.76088,1.39168,1.68,-3.85,-0.14,-19.3112,-48.681,12.3803,1014.73
175250,0.162602,9.77523,1.42037,2.17,-3.22,0.42,-20.1829,-48.681,12.2769,1014.73
175256,0.234338,9.82783,1.39646,1.75,-2.94,-0.84,-19.5146,-47.8483,13.193,1014.7
175262,0.253467,9.81827,1.36777,2.24,-3.57,-1.4,-19.9505,-48.9277,11.804,1014.7
175268,0.114778,9.81827,1.38211,1.61,-2.87,-0.56,-20.6769,-48.9277,11.4051,1014.7
175274,0.114778,9.76566,1.42516,1.61,-3.01,-0.28,-19.8342,-48.5268,12.9123,1014.68
175280,0.10043,9.73697,1.44428,2.1,-3.08,-1.19,-20.4154,-48.3726,12.9123,1014.68
175286,0.109995,9.71784,1.40603,2.31,-3.64,0,-20.4444,-49.5137,10.814,1014.69
175292,0.109995,9.76088,1.37733,2.24,-3.78,-1.05,-20.735,-48.9277,12.7349,1014.69
175298,0.114778,9.68436,1.3869,1.82,-3.15,0.07,-19.8924,-48.0642,12.2621,1014.72
175304,0.10043,9.71784,1.44428,2.03,-3.64,0.28,-20.0958,-49.7604,10.814,1014.72
175310,0.10043,9.68914,1.39168,2.1,-3.29,0.07,-20.4154,-48.1876,12.1143,1014.71
175316,0.109995,9.73218,1.39646,1.96,-3.5,0.21,-20.0667,-48.4651,12.6315,1014.71
175322,0.109995,9.70349,1.39168,1.75,-3.08,0.91,-20.9675,-48.5885,10.9322,1014.71
175328,0.148254,9.73697,1.39646,2.24,-3.15,0.14,-20.2701,-48.6193,11.6267,1014.7
175334,0.129125,9.73697,1.42516,1.68,-3.71,0.42,-20.1248,-48.4343,11.2869,1014.7
175340,0.172166,9.74653,1.38211,1.75,-3.57,0.77,-20.212,-48.1567,10.548,1014.71
175346,0.176949,9.7561,1.40603,1.75,-3.5,0.35,-21.4905,-48.681,11.08,1014.71
175352,0.153037,9.77044,1.40603,1.75,-3.22,-17.57,-20.6188,-48.1259,12.0848,1014.71
175358,0.13869,9.78957,1.40124,1.82,-3.29,0.14,-20.4735,-46.8615,12.5872,1014.71
175364,0.253467,9.75131,1.41559,2.17,-2.94,-0.07,-20.7059,-47.8792,10.7697,1014.7
175370,0.215208,9.8087,1.36777,1.68,-2.87,-0.35,-20.1829,-48.681,11.7449,1014.7
175376,0.129125,9.77523,1.39646,1.4,-3.43,-0.35,-20.5316,-48.0334,11.5233,1014.7
175382,0.071736,9.74653,1.4395,1.75,-3.57,-0.07,-20.6478,-48.4651,12.0552,1014.72
175388,0.095648,9.71784,1.47298,2.31,-3.64,-0.14,-20.5607,-48.8969,12.336,1014.72
175394,0.133907,9.70827,1.42994,2.17,-3.36,0.21,-20.6188,-47.91,11.7892,1014.73
175400,0.13869,9.76566,1.41081,1.96,-2.87,0.49,-20.9093,-48.681,11.9518,1014.73
175406,0.167384,9.78001,1.40124,2.1,-3.22,0.07,-21.4905,-49.3286,11.9222,1014.71
175412,0.129125,9.78479,1.37733,2.38,-3.64,-0.14,-20.5025,-47.9717,12.6611,1014.71
175418,0.162602,9.76088,1.39646,1.89,-3.29,0.42,-19.9214,-47.725,12.9861,1014.69
175424,0.162602,9.7561,1.41081,2.38,-3.29,0.35,-21.258,-48.5885,11.9222,1014.69
175430,0.124342,9.74653,1.40124,1.82,-3.64,0.49,-20.4154,-48.4034,11.8631,1014.7
175436,0.176949,9.74653,1.40124,1.96,-3.22,0.07,-21.3161,-48.496,13.6659,1014.7
175442,0.176949,9.73697,1.39168,2.52,-3.43,0.49,-21.258,-49.8221,12.5428,1014.7
175448,0.186514,9.76088,1.42037,1.82,-3.01,0,-21.8973,-49.1436,11.8336,1014.71
175454,0.196078,9.71305,1.45385,2.17,-3.22,0.49,-21.0546,-48.0642,12.6463,1014.71
175460,0.186514,9.77044,1.39168,2.24,-3.29,-0.14,-20.8803,-48.2492,13.9909,1014.71
175466,0.200861,9.82305,1.34385,1.82,-3.57,-0.28,-21.3742,-48.7118,10.6071,1014.71
175472,0.277379,9.79914,1.35342,1.75,-3.36,-0.14,-21.3452,-47.6016,12.5428,1014.7
175478,0.162602,9.81349,1.36777,1.47,-2.94,-0.49,-21.3452,-47.8483,12.4837,1014.7
175484,0.10043,9.73697,1.42037,1.68,-2.38,-0.56,-20.7931,-48.866,11.9075,1014.7
175490,0.10043,9.78001,1.4395,1.61,-3.15,-0.42,-21.1418,-48.6193,10.6219,1014.7
175496,0.105213,9.7274,1.40603,1.54,-3.29,-0.28,-20.7641,-47.2315,12.9566,1014.7
175502,0.129125,9.74175,1.41559,1.54,-3.22,-0.28,-20.7641,-48.2184,12.2916,1014.68
175508,0.114778,9.7274,1.44907,1.89,-3.78,-0.14,-20.8512,-49.2361,12.1882,1014.68
175514,0.143472,9.70827,1.43472,1.82,-3.29,-0.14,-21.1418,-48.1567,13.5033,1014.68
175520,0.11956,9.71784,1.42037,1.61,-3.01,-0.21,-20.7931,-48.1876,12.7793,1014.68
175526,0.129125,9.70349,1.41081,1.89,-3.29,-0.14,-20.2701,-49.2978,11.4937,1014.68
175532,0.124342,9.7561,1.41559,2.03,-3.22,0.49,-21.3452,-48.0642,11.5381,1014.68
175538,0.124342,9.76088,1.41559,2.24,-3.43,0,-20.0958,-48.3726,13.1043,1014.68
175544,0.133907,9.71784,1.42037,1.89,-3.08,0.42,-20.735,-49.1744,12.8679,1014.68
175550,0.153037,9.71305,1.3869,2.38,-3.22,0.21,-20.5025,-48.5885,11.7154,1014.68
175556,0.148254,9.72262,1.42516,1.96,-3.29,0.42,-20.3282,-47.5708,13.6067,1014.68
175562,0.148254,9.75131,1.41559,2.24,-3.15,0.35,-20.0086,-48.4034,12.469,1014.68
175568,0.186514,9.75131,1.40603,2.45,-3.36,0.49,-20.7931,-49.2361,11.2573,1014.72
175574,0.210426,9.77044,1.40124,2.03,-3.57,-0.07,-20.8512,-48.7427,11.4494,1014.72
175580,0.210426,9.80392,1.38211,1.96,-3.36,0,-21.1127,-48.2492,11.9075,1014.7
175586,0.176949,9.81827,1.34864,1.89,-3.15,-0.07,-20.7931,-49.5445,11.2573,1014.7
175592,0.215208,9.86131,1.36777,1.4,-3.36,-0.21,-19.9214,-47.6016,12.5281,1014.73
175598,0.25825,9.77044,1.39168,1.47,-3.36,-0.56,-20.0958,-47.6016,13.6215,1014.73
175604,0.200861,9.78479,1.37733,1.4,-2.87,-0.77,-21.1418,-48.6502,12.7349,1014.73
175610,0.0765184,9.77044,1.41559,1.12,-3.5,-0.77,-21.229,-48.6502,11.6267,1014.73
175616,0.11956,9.74175,1.47298,1.47,-3.43,-0.77,-20.7059,-47.2007,12.8088,1014.73
175622,0.162602,9.7561,1.45863,1.4,-3.64,-0.35,-20.9384,-48.4034,12.5133,1014.7
175628,0.143472,9.74653,1.42994,1.89,-3.22,-0.14,-19.9505,-48.8044,12.7497,1014.7
175634,0.129125,9.73697,1.42037,1.75,-2.73,-0.07,-20.9675,-48.2801,12.4985,1014.7
175640,0.105213,9.74175,1.42037,1.82,-3.36,-0.07,-21.0546,-48.0025,12.2178,1014.7
175646,0.11956,9.71784,1.42037,2.03,-3.36,0,-20.8222,-49.4828,12.6906,1014.69
175652,0.133907,9.72262,1.42037,1.89,-3.5,0.35,-21.1418,-48.7735,11.3755,1014.69
175658,0.133907,9.71784,1.3869,2.1,-3.57,-0.14,-20.0086,-47.91,14.0648,1014.72
175664,0.13869,9.68914,1.42994,2.31,-3.78,0,-20.7641,-49.1744,12.0552,1014.72
175670,0.153037,9.73218,1.43472,2.03,-3.01,0.7,-20.5025,-48.5885,10.5037,1014.72
175676,0.143472,9.7561,1.42994,2.45,-3.15,-0.07,-19.9795,-47.7558,13.193,1014.7
175682,0.143472,9.73697,1.39646,2.24,-3.71,0.07,-19.8052,-48.6193,11.3312,1014.7
175688,0.148254,9.73218,1.39646,2.1,-3.71,0.49,-20.735,-48.7118,11.4494,1014.67
175694,0.176949,9.73697,1.40603,2.03,-3.08,0.49,-19.5727,-47.6016,13.0748,1014.67
175700,0.167384,9.74175,1.38211,2.17,-2.94,0.63,-20.8222,-47.5708,11.8336,1014.7
175706,0.196078,9.78479,1.3869,1.68,-2.38,-0.21,-20.5607,-49.1436,12.5281,1014.7
175712,0.23912,9.85174,1.36777,1.61,-3.43,-0.28,-19.9795,-47.8175,12.7497,1014.7
175718,0.25825,9.8374,1.33907,1.33,-3.43,-0.07,-20.5607,-47.5708,12.7497,1014.7
175724,0.172166,9.82783,1.36777,1.61,-3.29,-0.56,-19.689,-48.8969,12.6611,1014.7
175730,0.13869,9.76566,1.42516,1.26,-2.94,-0.84,-20.0958,-48.2801,11.671,1014.71
175736,0.143472,9.71305,1.44907,1.33,-3.43,-0.84,-20.212,-47.1698,12.9861,1014.71
175742,0.124342,9.73218,1.40124,1.54,-3.08,-0.42,-20.3573,-48.6502,12.1587,1014.67
175748,0.13869,9.73697,1.39168,1.61,-3.57,-1.05,-20.8803,-48.9277,11.8779,1014.67
175754,0.109995,9.7274,1.42037,1.33,-3.29,-0.98,-20.2991,-47.8792,12.0257,1014.73
175760,0.10043,9.68436,1.4395,1.68,-3.36,0.28,-20.6769,-47.4782,12.3064,1014.73
175766,0.095648,9.68914,1.42994,1.96,-3.71,-0.28,-19.8924,-48.681,11.6119,1014.7
175772,0.124342,9.71784,1.3869,1.68,-3.64,0.42,-20.8803,-47.725,13.1782,1014.7
175778,0.109995,9.71784,1.39168,2.1,-3.01,-0.21,-20.1248,-47.6633,12.07,1014.69
175784,0.129125,9.73218,1.41081,2.1,-3.43,-0.28,-20.0086,-48.866,12.0257,1014.69
175790,0.148254,9.72262,1.42516,1.96,-3.57,0.28,-20.9965,-48.496,11.0209,1014.69
175796,0.133907,9.74653,1.41081,2.17,-3.5,0.56,-20.7059,-47.2932,12.927,1014.72
175802,0.167384,9.73218,1.37255,1.68,-3.43,-0.21,-20.5316,-48.866,12.602,1014.72
175808,0.157819,9.78479,1.38211,1.82,-3.85,0,-20.5607,-48.8969,12.5428,1014.67
175814,0.157819,9.78957,1.3869,1.54,-3.57,0.35,-21.0837,-47.2932,13.3112,1014.67
175820,0.176949,9.77523,1.3869,1.68,-3.78,-0.35,-20.6769,-47.7866,13.4442,1014.7
175826,0.176949,9.77523,1.42037,1.89,-3.5,-0.28,-20.9675,-48.9586,11.4494,1014.7
175832,0.181731,9.73697,1.40124,1.54,-3.08,-0.42,-20.5897,-48.8044,12.1143,1014.67
175838,0.167384,9.75131,1.43472,1.68,-3.57,-0.21,-20.4154,-48.2184,12.9123,1014.67
175844,0.200861,9.7274,1.47298,2.1,-3.71,-0.49,-20.3282,-48.1567,11.8188,1014.67
175850,0.172166,9.86609,1.31038,1.61,-3.36,-0.49,-20.5025,-48.3726,11.4937,1014.7
175856,0.277379,9.82305,1.32472,1.47,-3.29,-1.4,-20.8222,-47.4166,12.8088,1014.7
175862,0.0813008,9.78479,1.37733,1.4,-2.94,-1.4,-20.5025,-49.2053,12.6463,1014.69
175868,0.0669536,9.73218,1.45863,1.47,-3.15,-0.63,-20.2701,-49.3286,12.1587,1014.69
175874,0.0860832,9.70349,1.51124,1.54,-2.59,-0.56,-20.3573,-47.6016,12.4246,1014.7
175880,0.0621712,9.74175,1.42994,2.1,-3.5,-0.91,-20.5897,-48.2492,12.0404,1014.7
175886,0.133907,9.74175,1.3869,1.89,-3.08,-0.7,-20.1829,-48.2184,12.1291,1014.71
175892,0.124342,9.74653,1.42516,1.68,-3.22,-0.21,-20.3282,-48.1876,12.3655,1014.71
175898,0.0908656,9.7274,1.4395,2.17,-3.43,-0.14,-20.1539,-47.4782,13.2226,1014.71
175904,0.13869,9.69871,1.42994,2.03,-3.22,-0.21,-20.6188,-48.6502,11.8336,1014.73
175910,0.124342,9.73218,1.41081,2.17,-3.78,0.14,-20.5607,-48.9586,12.4099,1014.73
175916,0.114778,9.73218,1.3869,1.96,-3.5,0.14,-20.4154,-46.5222,13.4442,1014.72
175922,0.172166,9.72262,1.43472,1.82,-3.36,-0.14,-20.4444,-47.5091,11.4346,1014.72
175928,0.124342,9.74653,1.43472,2.1,-3.5,-0.07,-20.5607,-49.2978,12.1143,1014.7
175934,0.133907,9.73218,1.44428,2.45,-3.57,0.21,-20.2991,-47.6016,12.5428,1014.7
175940,0.105213,9.74653,1.44428,1.96,-3.36,0.14,-20.3282,-47.1082,13.0157,1014.72
175946,0.162602,9.7274,1.40603,1.61,-3.29,0.14,-20.5316,-49.0202,11.4346,1014.72
175952,0.205643,9.73218,1.40124,1.82,-3.08,0.21,-20.6188,-48.1567,11.1539,1014.71
175958,0.248685,9.84218,1.3582,1.33,-3.57,0,-20.1539,-46.954,13.2964,1014.71
175964,0.277379,9.80392,1.33907,1.89,-2.94,-0.77,-20.7641,-48.7427,11.9518,1014.71
175970,0.11956,9.83261,1.34385,1.05,-3.15,-0.42,-20.241,-48.3726,12.3803,1014.74
175976,0.0526064,9.7561,1.44907,1.54,-3.29,-0.56,-20.5316,-47.0465,12.9123,1014.74
175982,0.095648,9.6748,1.50646,1.61,-3.5,-0.77,-20.9093,-48.5885,12.0257,1014.7
175988,0.167384,9.73697,1.42516,1.47,-3.36,-0.49,-21.2871,-48.3418,11.5528,1014.7
175994,0.148254,9.70349,1.44907,1.82,-3.22,-0.49,-20.0958,-47.2624,12.8827,1014.7
176000,0.124342,9.74175,1.41559,1.54,-3.29,-0.56,-20.3282,-47.6941,13.1339,1014.7
176006,0.0765184,9.70349,1.44907,2.03,-3.36,0.07,-20.0667,-49.2978,12.927,1014.69
176012,0.114778,9.70349,1.44428,1.54,-3.08,0.21,-20.2701,-47.8483,12.8088,1014.69
176018,0.124342,9.73697,1.41081,2.38,-3.57,0,-20.1829,-47.2624,12.4246,1014.69
176024,0.124342,9.7561,1.42994,1.89,-3.5,0.42,-20.241,-49.5137,11.7597,1014.69
176030,0.10043,9.74175,1.40124,2.59,-3.64,0.28,-21.0546,-48.866,12.1587,1014.69
176036,0.109995,9.7561,1.41559,1.75,-3.43,0,-21.0546,-47.0157,12.2916,1014.69
176042,0.153037,9.74175,1.41081,1.96,-3.64,0.49,-20.3863,-48.9894,11.8336,1014.69
176048,0.13869,9.78957,1.37255,2.03,-3.36,-0.07,-20.9965,-48.5576,12.0109,1014.7
176054,0.162602,9.7561,1.40124,1.68,-3.64,-0.07,-20.3863,-48.0642,12.9861,1014.7
176060,0.129125,9.77044,1.39646,1.68,-3.36,0.14,-20.6769,-48.3726,13.1487,1014.71
176066,0.162602,9.75131,1.40603,1.33,-3.22,0.28,-20.5607,-48.681,12.2916,1014.71
176072,0.205643,9.74175,1.43472,1.61,-3.08,-0.35,-21.1127,-48.3726,12.5133,1014.71
176078,0.229555,9.78001,1.41081,1.54,-3.29,-0.63,-20.6478,-47.2007,12.469,1014.71
176084,0.196078,9.8087,1.41081,1.54,-3.15,-0.42,-20.5897,-48.9277,11.9961,1014.71
176090,0.133907,9.78957,1.38211,1.33,-3.43,-0.7,-20.6478,-49.2053,11.5528,1014.7
176096,0.172166,9.74175,1.49689,1.89,-3.29,-1.26,-20.9093,-47.4782,13.326,1014.7
176102,0.129125,9.79436,1.40124,1.75,-3.43,-1.12,-20.5025,-48.5268,12.2769,1014.72
176108,0.205643,9.74175,1.34385,1.61,-2.87,-0.84,-20.6769,-48.3726,12.1587,1014.72
176114,0.0669536,9.73218,1.44907,1.33,-3.08,-0.98,-20.2701,-47.91,12.3655,1014.68
176120,0.0860832,9.65088,1.48254,1.47,-3.08,-0.49,-20.3573,-47.9408,12.2916,1014.68
176126,0.10043,9.70349,1.4682,1.75,-3.43,-0.56,-20.7059,-48.7735,11.4642,1014.71
176132,0.095648,9.74653,1.42516,1.96,-3.36,-0.21,-20.0086,-48.1259,12.8236,1014.71
176138,0.0908656,9.75131,1.41081,2.1,-3.22,-0.21,-20.3573,-47.7866,11.8336,1014.71
176144,0.095648,9.71784,1.4395,1.82,-3.57,0,-20.4735,-49.5753,11.8188,1014.71
176150,0.10043,9.7274,1.4395,1.89,-3.29,0.28,-20.4735,-48.5885,12.3655,1014.71
176156,0.10043,9.70349,1.45385,2.1,-3.5,0.42,-20.4735,-48.0025,11.3755,1014.69
176162,0.143472,9.7561,1.41081,1.68,-3.64,-0.07,-20.8512,-48.4034,11.5528,1014.69
176168,0.133907,9.73697,1.4395,1.96,-3.92,0.28,-20.9093,-48.8352,12.2473,1014.7
176174,0.13869,9.74653,1.41081,2.03,-3.78,-0.28,-21.258,-47.5708,13.326,1014.7
176180,0.13869,9.76088,1.40603,1.61,-3.15,0.56,-20.212,-47.6324,12.7202,1014.7
176186,0.143472,9.73697,1.42994,2.1,-3.57,0.21,-20.6478,-49.1436,11.9518,1014.7
176192,0.13869,9.76566,1.42516,1.61,-3.64,-0.42,-20.5316,-47.7558,12.7793,1014.7
176198,0.162602,9.76566,1.4395,2.1,-3.64,0.07,-20.5607,-48.2184,11.7449,1014.69
176204,0.176949,9.78001,1.42037,2.03,-3.22,-0.21,-21.0256,-49.0819,11.7301,1014.69
176210,0.148254,9.77523,1.41081,1.54,-3.36,-0.28,-21.1418,-47.91,12.1734,1014.71
176216,0.186514,9.78957,1.40603,1.4,-3.43,-0.14,-20.3573,-47.4166,12.1882,1014.71
176222,0.196078,9.74653,1.42994,1.75,-3.29,0,-20.9965,-47.9717,12.7349,1014.71
176228,0.196078,9.76566,1.41559,1.47,-3.5,-0.28,-20.0376,-49.0202,12.0996,1014.71
176234,0.196078,9.74175,1.47776,1.96,-3.08,-0.63,-19.9795,-47.4474,10.8879,1014.72
176240,0.129125,9.75131,1.45385,1.96,-3.64,-0.63,-20.3573,-48.7735,11.4198,1014.72
176246,0.157819,9.73697,1.41559,2.03,-3.64,-0.49,-21.229,-49.3286,11.2425,1014.72
176252,0.095648,9.71305,1.44907,2.03,-3.22,-0.42,-20.8512,-48.7118,13.2521,1014.67
176258,0.129125,9.71784,1.4682,2.24,-3.36,-0.07,-20.7641,-49.4212,11.7449,1014.67
176264,0.124342,9.71784,1.45385,2.1,-3.29,0.21,-21.752,-48.0642,11.5972,1014.71
176270,0.109995,9.71784,1.43472,2.31,-3.78,-0.42,-21.1709,-48.8044,11.3607,1014.71
176276,0.13869,9.7274,1.42994,2.31,-3.36,-0.56,-20.8512,-48.4343,11.7892,1014.74
176282,0.105213,9.73697,1.40603,2.1,-3.5,0.56,-20.4735,-49.0819,11.8779,1014.74
176288,0.148254,9.74653,1.41559,2.17,-3.43,0.07,-20.241,-49.3903,10.7253,1014.7
176294,0.114778,9.74653,1.40124,1.89,-2.94,-0.21,-20.6478,-48.6193,12.1143,1014.7
176300,0.133907,9.76088,1.37733,2.1,-3.29,0.21,-20.5607,-48.5268,11.0209,1014.71
176306,0.11956,9.73218,1.41559,1.68,-3.57,0.07,-20.6188,-49.5753,11.5528,1014.71
176312,0.157819,9.74175,1.44428,1.96,-3.15,0.42,-20.8512,-47.5091,11.7745,1014.71
176318,0.157819,9.76566,1.45863,1.75,-3.85,-0.07,-20.6188,-48.2492,12.0552,1014.73
176324,0.176949,9.75131,1.41081,2.03,-3.36,-0.42,-20.735,-49.2053,10.8879,1014.73
176330,0.124342,9.78001,1.42516,1.47,-3.22,-0.07,-21.0256,-48.8352,11.3903,1014.71
176336,0.210426,9.78001,1.40124,2.1,-3.36,-0.56,-20.3573,-47.7558,13.7397,1014.71
176342,0.167384,9.79436,1.43472,1.75,-3.43,-0.63,-20.8512,-48.8969,13.0452,1014.68
176348,0.114778,9.74175,1.45385,1.54,-3.08,-0.21,-20.8222,-48.8352,11.8484,1014.68
176354,0.0908656,9.73697,1.44907,1.96,-3.64,-0.63,-20.735,-47.324,12.3508,1014.68
176360,0.13869,9.7274,1.48254,2.03,-3.43,-0.42,-20.5316,-48.866,13.8875,1014.68
176366,0.143472,9.7274,1.49689,2.59,-2.73,-0.49,-20.7931,-49.9763,10.6515,1014.68
176372,0.148254,9.73697,1.44428,2.45,-3.22,-0.56,-20.6769,-48.3726,12.4542,1014.72
176378,0.047824,9.74653,1.39168,2.38,-3.78,-0.28,-20.8222,-47.2315,12.1882,1014.72
176384,0.109995,9.72262,1.4395,2.1,-3.5,-0.21,-20.8803,-48.7118,12.4837,1014.71
176390,0.129125,9.73218,1.42994,2.38,-3.43,0,-20.5025,-47.7558,12.5428,1014.71
176396,0.133907,9.74175,1.44907,2.17,-3.29,-0.28,-19.9214,-47.8792,14.0205,1014.73
176402,0.13869,9.73218,1.41559,1.75,-3.08,0.14,-19.6599,-47.8483,12.0848,1014.73
176408,0.11956,9.7274,1.40603,2.03,-3.43,0,-20.241,-48.4034,10.223,1014.7
176414,0.133907,9.72262,1.4395,2.1,-3.22,0.14,-20.4735,-47.5091,12.6758,1014.7
176420,0.148254,9.70827,1.45385,2.38,-3.43,0.35,-20.0376,-48.0334,12.6167,1014.7
176426,0.133907,9.73697,1.44907,1.96,-3.29,-0.07,-20.735,-48.9894,12.1882,1014.7
176432,0.148254,9.7274,1.45385,2.59,-3.85,0.14,-20.4735,-47.5091,13.592,1014.7
176438,0.153037,9.7561,1.41559,1.89,-3.29,0.21,-20.4735,-47.2007,12.9714,1014.71
176444,0.13869,9.73697,1.41559,1.68,-3.29,0.21,-21.229,-48.6193,11.9075,1014.71
176450,0.200861,9.77523,1.41559,1.96,-3.43,0.07,-20.4444,-47.9717,10.7697,1014.73
176456,0.234338,9.78001,1.41081,1.54,-3.64,-0.42,-21.1709,-47.0465,13.326,1014.73
176462,0.234338,9.78001,1.3869,1.68,-2.87,-0.63,-20.212,-48.9894,9.92742,1014.73
176468,0.186514,9.80392,1.41081,1.82,-2.66,-0.77,-21.258,-48.8352,10.7845,1014.73
176474,0.105213,9.76566,1.44907,1.47,-3.22,-0.63,-20.6769,-47.4474,11.9813,1014.73
176480,0.109995,9.74653,1.4395,1.47,-3.22,-0.77,-20.7641,-48.0642,12.1587,1014.71
176486,0.109995,9.72262,1.47298,1.82,-3.43,-0.77,-20.7931,-49.4212,10.8288,1014.71
176492,0.105213,9.77044,1.4395,2.1,-3.36,-0.35,-20.2991,-48.1876,11.8779,1014.69
176498,0.071736,9.73218,1.44428,2.03,-3.78,-0.77,-20.9675,-47.91,13.2521,1014.69
176504,0.0813008,9.7274,1.44907,2.24,-3.36,-0.49,-20.7931,-48.681,12.4246,1014.71
176510,0.0813008,9.73697,1.43472,2.45,-3.78,-0.07,-20.735,-47.6941,12.8679,1014.71
176516,0.10043,9.69871,1.41559,1.47,-3.29,-0.14,-19.6599,-46.9848,12.4099,1014.73
176522,0.129125,9.70349,1.4395,1.61,-3.15,0.49,-20.3282,-48.681,13.6067,1014.73
176528,0.095648,9.73697,1.42516,1.75,-3.57,-0.42,-21.0256,-48.9277,11.7006,1014.7
176534,0.114778,9.72262,1.4395,1.89,-3.5,-0.14,-21.1999,-47.7866,12.8236,1014.7
176540,0.129125,9.7274,1.41081,1.82,-3.22,0.49,-20.735,-47.5708,13.3112,1014.7
176546,0.105213,9.73697,1.45863,1.75,-3.43,0.14,-21.258,-49.1128,11.4494,1014.71
176552,0.143472,9.7274,1.44428,1.75,-3.71,0.07,-20.9965,-48.0642,11.8484,1014.71
176558,0.181731,9.7274,1.45863,2.1,-3.57,0,-20.4154,-47.5399,12.6167,1014.74
176564,0.186514,9.74175,1.46341,2.31,-3.36,-0.07,-20.8512,-48.8044,10.7106,1014.74
176570,0.162602,9.73218,1.41559,1.96,-3.43,-0.56,-20.9384,-48.4034,12.6758,1014.7
176576,0.200861,9.74653,1.3869,2.1,-3.92,-0.42,-20.5897,-47.2007,13.0157,1014.7
176582,0.191296,9.84218,1.43472,2.1,-3.36,-0.84,-21.1709,-48.0334,12.5872,1014.72
176588,0.162602,9.8087,1.38211,1.75,-2.8,-0.77,-20.5607,-48.2801,11.0948,1014.72
176594,0.10043,9.82783,1.38211,1.19,-3.01,-0.98,-20.9384,-47.4166,11.8779,1014.72
176600,0.10043,9.74653,1.45863,1.54,-3.43,-0.7,-20.0086,-47.6633,12.9418,1014.66
176606,0.095648,9.70349,1.49211,1.54,-3.01,-0.63,-20.5025,-48.9586,12.1587,1014.66
176612,0.109995,9.68914,1.4395,2.1,-2.87,-0.35,-21.1418,-46.8923,13.2669,1014.71
176618,0.095648,9.73697,1.44907,1.96,-3.5,-0.49,-20.6769,-47.2932,12.6758,1014.71
176624,0.0860832,9.72262,1.4395,1.89,-3.22,0,-20.4444,-49.7295,11.5381,1014.7
176630,0.0765184,9.70349,1.46341,2.03,-3.64,0.07,-20.5607,-48.9894,10.7992,1014.7
176636,0.109995,9.71305,1.4682,1.89,-3.01,0.14,-21.1127,-47.9408,12.3064,1014.73
176642,0.11956,9.74175,1.41081,2.17,-3.01,-0.14,-20.7641,-48.7427,10.8731,1014.73
176648,0.105213,9.70827,1.44428,2.31,-3.01,0,-20.8803,-49.3903,12.07,1014.7
176654,0.109995,9.75131,1.45385,2.45,-3.36,0.42,-20.3573,-47.6016,11.9075,1014.7
176660,0.148254,9.73697,1.41081,1.89,-3.01,0.56,-20.0376,-47.8792,11.0504,1014.7
176666,0.124342,9.75131,1.42037,1.61,-3.29,0.42,-21.3452,-48.7735,11.937,1014.72
176672,0.11956,9.77044,1.44428,2.59,-3.5,0.14,-20.5025,-47.8175,12.1587,1014.72
176678,0.153037,9.79914,1.40124,1.89,-3.08,0.07,-21.0837,-47.8792,12.2769,1014.69
176684,0.148254,9.76088,1.41081,2.1,-3.08,0.07,-21.5195,-49.3286,11.213,1014.69
176690,0.129125,9.78957,1.39168,1.89,-3.36,0.56,-20.9965,-49.0819,10.7697,1014.72
176696,0.172166,9.77523,1.4395,1.96,-3.5,0,-20.5607,-47.324,13.4885,1014.72
176702,0.157819,9.76566,1.45863,2.24,-3.43,-0.63,-20.5897,-48.7735,10.8436,1014.71
176708,0.205643,9.78479,1.42037,1.89,-3.5,-0.14,-20.0667,-49.0819,12.3803,1014.71
176714,0.13869,9.76088,1.44907,1.54,-3.36,-0.42,-19.5437,-47.91,13.0157,1014.71
176720,0.105213,9.75131,1.43472,2.45,-3.01,16.8,-19.7471,-48.3726,11.8779,1014.7
176726,0.11956,9.7561,1.45385,2.03,-3.57,-0.28,-20.6478,-50.5622,12.0109,1014.7
176732,0.114778,9.72262,1.45385,2.17,-3.64,-0.49,-20.8222,-48.8969,11.9222,1014.7
176738,0.10043,9.73697,1.42994,2.17,-3.57,0,-19.8924,-48.7118,12.7497,1014.7
176744,0.105213,9.74653,1.45385,2.1,-3.29,-0.21,-21.0837,-49.2361,12.0996,1014.67
176750,0.0908656,9.75131,1.4395,2.24,-3.5,-0.07,-20.8803,-48.2184,11.2869,1014.67
176756,0.124342,9.74175,1.42994,2.45,-3.22,-0.28,-20.0667,-48.0334,12.6758,1014.71
176762,0.095648,9.72262,1.42994,2.03,-3.15,-0.21,-19.8052,-48.9277,11.9075,1014.71
176768,0.109995,9.73697,1.40603,2.31,-3.5,0,-20.4154,-49.0819,12.3951,1014.71
176774,0.114778,9.73697,1.42994,1.96,-3.64,-0.07,-20.7931,-47.3549,12.7349,1014.69
176780,0.114778,9.74653,1.42037,2.1,-3.64,-0.14,-20.3863,-48.7735,13.326,1014.69
176786,0.11956,9.74175,1.44428,2.17,-3.5,0.42,-21.2871,-49.7295,10.7549,1014.71
176792,0.13869,9.74175,1.41559,2.17,-3.85,0,-20.5316,-48.5576,12.0848,1014.71
176798,0.148254,9.77044,1.41559,1.96,-3.36,0.35,-20.241,-49.1436,12.6315,1014.7
176804,0.095648,9.7274,1.42994,1.96,-3.43,0.28,-20.5025,-49.6062,12.3064,1014.7
176810,0.176949,9.76088,1.40603,2.03,-3.01,0.35,-19.9505,-49.2053,11.0652,1014.72
176816,0.234338,9.79436,1.42037,2.24,-3.57,-0.42,-21.0546,-47.4474,12.5428,1014.72
176822,0.25825,9.73697,1.37255,2.24,-3.22,-0.7,-20.2991,-48.5885,12.0404,1014.69
176828,0.095648,9.81827,1.41081,1.68,-3.43,-0.63,-20.735,-49.3595,12.1143,1014.69
176834,0.0765184,9.76088,1.40124,1.96,-3.71,-0.28,-20.7641,-47.8483,12.469,1014.69
176840,0.129125,9.73218,1.47298,2.03,-3.08,-0.14,-20.2991,-48.0025,12.2325,1014.72
176846,0.0765184,9.73218,1.43472,2.1,-3.29,-0.42,-20.6769,-49.5445,11.2721,1014.72
176852,0.13869,9.7274,1.46341,2.1,-3.71,-0.35,-21.1418,-48.5268,13.2964,1014.7
176858,0.105213,9.71305,1.45385,2.03,-3.78,0,-20.8803,-48.0642,12.5133,1014.7
176864,0.11956,9.73218,1.42994,2.45,-3.57,0.07,-20.7641,-49.452,10.5628,1014.69
176870,0.105213,9.70349,1.42037,2.24,-3.43,0.49,-20.5607,-49.6679,12.2769,1014.69
176876,0.105213,9.75131,1.37255,1.96,-3.57,0,-20.6769,-48.5576,11.7449,1014.69
176882,0.095648,9.74653,1.45385,1.61,-2.94,0,-20.8222,-48.5268,12.3803,1014.69
176888,0.133907,9.7274,1.40603,2.17,-3.85,0.49,-21.0837,-48.9894,12.7054,1014.69
176894,0.133907,9.74175,1.42994,1.96,-3.43,0.21,-20.9093,-47.6633,12.7645,1014.71
176900,0.133907,9.71784,1.41081,2.24,-3.5,0,-20.7641,-48.8044,12.9861,1014.71
176906,0.162602,9.71784,1.41559,2.03,-3.71,0.21,-20.4444,-48.7427,12.8088,1014.7
176912,0.167384,9.7561,1.44907,2.45,-3.78,0.35,-20.3282,-48.2492,12.4837,1014.7
176918,0.172166,9.74653,1.41559,2.03,-3.22,0.07,-20.2991,-48.0025,12.2916,1014.7
176924,0.196078,9.78479,1.39646,2.1,-3.5,-0.42,-20.3573,-49.0819,11.4642,1014.7
176930,0.210426,9.8087,1.36777,2.03,-3.15,-0.35,-20.6769,-48.4651,12.7054,1014.73
176936,0.21999,9.77523,1.36777,1.61,-3.36,-0.63,-20.735,-47.725,14.0057,1014.73
176942,0.11956,9.77523,1.40124,1.89,-3.22,-0.42,-20.4154,-48.5885,11.7301,1014.73
176948,0.10043,9.76566,1.42037,1.96,-3.22,-0.21,-20.4735,-49.1436,12.2916,1014.73
176954,0.124342,9.73697,1.48733,1.75,-3.5,-0.7,-20.4154,-47.4782,12.2325,1014.73
176960,0.13869,9.73697,1.45863,2.03,-3.64,-0.7,-20.5897,-48.3109,12.5133,1014.71
176966,0.0908656,9.72262,1.42516,2.1,-3.78,-0.56,-20.7641,-48.9894,12.7349,1014.71
176972,0.109995,9.74175,1.41559,1.89,-3.36,-0.14,-20.4735,-48.2801,12.1734,1014.7
176978,0.0860832,9.74175,1.39168,2.17,-3.43,-0.49,-20.1248,-46.954,13.2817,1014.7
176984,0.114778,9.73218,1.4395,1.96,-3.08,-0.07,-20.9384,-49.6679,12.602,1014.71
176990,0.10043,9.67958,1.41081,2.24,-3.36,0.42,-20.5607,-49.1128,13.4442,1014.71
176996,0.109995,9.71305,1.43472,1.68,-3.08,-0.42,-19.8924,-48.1567,12.9123,1014.72
177002,0.11956,9.76088,1.40603,2.24,-3.43,0.49,-20.212,-49.7604,12.9566,1014.72
177008,0.143472,9.74653,1.42037,1.75,-3.57,0.56,-20.7641,-49.2361,12.2621,1014.72
177014,0.148254,9.73697,1.42994,2.1,-2.94,-0.07,-20.6188,-47.8792,13.3851,1014.67
177020,0.124342,9.74175,1.43472,1.96,-3.64,0.42,-20.0958,-48.3109,12.5281,1014.67
177026,0.162602,9.75131,1.42037,2.24,-3.43,0.28,-20.6769,-49.2669,13.3703,1014.71
177032,0.167384,9.7561,1.43472,2.17,-3.29,0.07,-20.735,-47.9717,14.2717,1014.71
177038,0.186514,9.76088,1.42516,2.17,-3.5,-0.63,-19.9214,-47.5091,13.3408,1014.7
177044,0.13869,9.77044,1.42037,1.89,-3.29,0.42,-20.735,-49.2978,11.671,1014.7
177050,0.205643,9.76088,1.4682,2.1,-3.71,0,-21.0256,-48.4343,12.8236,1014.71
177056,0.186514,9.76566,1.42037,1.96,-3.22,-0.49,-20.735,-47.4474,12.1882,1014.71
177062,0.133907,9.77044,1.43472,1.82,-3.29,-0.84,-20.241,-48.9586,12.4246,1014.71
177068,0.143472,9.75131,1.41559,1.96,-3.36,-0.21,-21.229,-48.8044,12.1882,1014.7
177074,0.095648,9.78479,1.42516,2.03,-3.57,-0.42,-20.2701,-47.6016,12.8679,1014.7
177080,0.11956,9.74175,1.42037,2.1,-3.5,-0.49,-20.1829,-48.681,11.8188,1014.73
177086,0.124342,9.71305,1.45863,2.1,-3.57,-0.49,-20.9093,-48.866,11.7301,1014.73
177092,0.129125,9.74653,1.44907,2.24,-3.15,0.14,-20.5316,-48.3726,12.8384,1014.72
177098,0.095648,9.75131,1.43472,1.82,-3.08,-0.14,-20.8512,-48.0025,13.1339,1014.72
177104,0.129125,9.71305,1.42994,2.31,-3.57,-0.28,-20.7931,-49.0202,12.8384,1014.72
177110,0.0860832,9.72262,1.4395,2.17,-3.78,0.35,-20.8803,-48.6502,13.2078,1014.72
177116,0.13869,9.71784,1.42037,2.17,-3.64,0.21,-20.7641,-47.6941,13.5033,1014.72
177122,0.13869,9.7274,1.41081,2.31,-3.5,0.28,-20.9093,-48.7118,11.4494,1014.7
177128,0.11956,9.74175,1.42516,2.38,-3.36,0.35,-20.3863,-48.8969,12.1734,1014.7
177134,0.13869,9.76088,1.41559,2.38,-3.71,0.14,-19.9795,-48.0642,11.8927,1014.69
177140,0.162602,9.7561,1.38211,2.1,-3.29,0.07,-20.4735,-47.8175,12.6758,1014.69
177146,0.176949,9.77044,1.37733,2.24,-3.36,-0.07,-20.9965,-49.1744,10.415,1014.71
177152,0.224773,9.80392,1.40603,1.82,-3.08,0.21,-20.9675,-48.0334,12.6315,1014.71
177158,0.181731,9.78001,1.3869,1.89,-2.66,-0.14,-20.7931,-48.4034,12.8975,1014.71
177164,0.186514,9.78001,1.43472,1.96,-3.5,-0.77,-20.5897,-48.6502,11.6858,1014.71
177170,0.200861,9.79914,1.42994,1.68,-3.43,-0.56,-20.2991,-47.6324,11.804,1014.71
177176,0.153037,9.77523,1.41081,1.82,-3.5,-0.84,-20.2701,-47.324,12.4542,1014.69
177182,0.124342,9.78001,1.42516,2.1,-2.59,-0.63,-21.2871,-49.0511,10.7845,1014.69
177188,0.109995,9.74653,1.4395,1.4,-2.94,-0.91,-21.0546,-48.7735,12.336,1014.71
177194,0.0860832,9.7274,1.46341,1.68,-3.08,-0.35,-20.5025,-47.7866,12.1291,1014.71
177200,0.105213,9.72262,1.45863,2.1,-3.5,-17.85,-20.6188,-48.9586,11.213,1014.7
177206,0.129125,9.7274,1.41559,1.96,-3.64,-0.21,-20.5897,-49.1744,12.0257,1014.7
177212,0.105213,9.73218,1.43472,2.1,-3.57,0.07,-20.0958,-47.7558,12.8827,1014.7
177218,0.0908656,9.71305,1.45385,2.03,-3.36,-0.14,-20.5607,-47.9717,12.6167,1014.7
177224,0.11956,9.7274,1.42516,2.1,-3.36,-0.21,-20.4154,-49.3286,11.4198,1014.7
177230,0.10043,9.72262,1.41081,2.38,-3.29,0,-20.6188,-48.7427,11.937,1014.7
177236,0.13869,9.75131,1.38211,2.17,-3.36,0,-20.4735,-48.3418,12.2621,1014.7
177242,0.13869,9.73697,1.37255,2.1,-3.43,0.21,-19.718,-49.6987,11.9813,1014.68
177248,0.143472,9.74175,1.40603,2.17,-3.85,0.14,-21.1418,-48.8969,13.0305,1014.68
177254,0.124342,9.78957,1.40603,2.1,-3.78,-0.14,-20.9965,-47.6633,13.0009,1014.7
177260,0.157819,9.77523,1.40603,1.47,-3.15,0.07,-20.6188,-48.2492,11.5972,1014.7
177266,0.148254,9.73218,1.40124,1.75,-3.99,0.21,-20.3282,-50.0379,11.7597,1014.71
177272,0.153037,9.76088,1.40603,2.17,-3.43,-0.07,-20.2991,-48.0025,12.6315,1014.71
177278,0.162602,9.76566,1.4395,2.03,-3.43,-0.07,-20.3573,-47.7558,12.9714,1014.69
177284,0.23912,9.77044,1.40124,1.54,-3.08,-0.84,-20.8222,-49.1744,12.1439,1014.69
177290,0.167384,9.78957,1.40603,1.89,-3.43,-0.21,-21.1127,-48.1567,12.5133,1014.69
177296,0.0860832,9.76088,1.41559,1.75,-3.57,0.07,-20.1248,-47.5091,13.6363,1014.71
177302,0.0860832,9.74175,1.4395,1.61,-3.57,-0.56,-21.4905,-48.5885,13.2669,1014.71
177308,0.176949,9.76088,1.45385,1.89,-3.43,-0.28,-20.9965,-48.8352,11.9813,1014.71
177314,0.210426,9.78001,1.41081,1.75,-3.22,-0.28,-20.4444,-47.5708,13.0452,1014.71
177320,0.114778,9.74175,1.44907,2.17,-3.5,-0.7,-20.8803,-48.8352,12.0996,1014.74
177326,0.071736,9.73697,1.44907,2.24,-3.29,-0.35,-20.7931,-48.9277,11.8336,1014.74
177332,0.095648,9.73218,1.42994,2.38,-3.5,0,-20.5316,-48.095,13.1043,1014.69
177338,0.143472,9.7274,1.42037,2.17,-3.43,-0.21,-20.5025,-48.095,12.1143,1014.69
177344,0.114778,9.69392,1.44907,2.17,-3.5,0.07,-20.735,-48.8352,11.5676,1014.69
177350,0.095648,9.7274,1.40124,2.17,-3.22,-0.21,-20.5897,-48.3726,12.469,1014.74
177356,0.124342,9.7561,1.42516,2.59,-3.15,-0.14,-20.4154,-48.1567,12.602,1014.74
177362,0.105213,9.73218,1.40603,1.89,-3.29,0.49,-20.3282,-48.866,12.0109,1014.73
177368,0.153037,9.77523,1.39646,2.1,-3.71,0.21,-20.9675,-48.0642,11.9075,1014.73
177374,0.162602,9.7561,1.42037,1.68,-2.59,0.07,-20.0958,-47.6633,13.0009,1014.72
177380,0.162602,9.75131,1.40124,1.82,-3.15,-0.14,-20.6188,-47.8792,12.8679,1014.72
177386,0.13869,9.78479,1.39168,1.47,-3.5,0.14,-20.8512,-48.9894,12.7202,1014.7
177392,0.129125,9.75131,1.42516,1.61,-3.57,0.07,-19.5437,-47.4782,12.7054,1014.7
177398,0.167384,9.75131,1.45863,2.1,-3.22,-0.56,-20.1829,-48.1876,12.5576,1014.72
177404,0.157819,9.76566,1.44907,1.61,-3.64,-0.28,-20.5607,-49.6062,10.5037,1014.72
177410,0.186514,9.74653,1.45385,1.68,-3.22,-0.28,-20.212,-48.2801,11.671,1014.72
177416,0.109995,9.74653,1.40603,1.68,-3.71,-0.21,-19.8633,-47.3549,13.1339,1014.72
177422,0.0765184,9.74653,1.4682,1.82,-3.57,-0.21,-20.8803,-47.7558,12.2178,1014.72
177428,0.153037,9.74653,1.42037,1.68,-3.57,-0.21,-20.6478,-49.3595,11.7006,1014.7
177434,0.200861,9.75131,1.42516,1.47,-3.36,-0.49,-20.8222,-47.6324,13.0157,1014.7
177440,0.11956,9.76566,1.40603,1.96,-2.87,-0.77,-20.6478,-48.1876,11.7006,1014.71
177446,0.0860832,9.77523,1.42516,2.03,-3.01,-0.28,-20.735,-49.1744,11.9961,1014.71
177452,0.0860832,9.73218,1.44428,1.89,-3.71,-0.42,-20.6769,-48.3418,12.4099,1014.68
177458,0.11956,9.73218,1.4395,2.17,-3.71,-0.28,-20.3863,-47.91,13.2669,1014.68
177464,0.157819,9.75131,1.45863,1.82,-3.29,-0.14,-20.4735,-48.5268,10.4298,1014.68
177470,0.095648,9.73697,1.40603,2.38,-3.57,0,-20.2991,-48.0642,11.0948,1014.73
177476,0.11956,9.73697,1.41081,1.75,-3.08,0.28,-20.5607,-47.5091,12.336,1014.73
177482,0.133907,9.7561,1.41559,1.68,-3.15,-0.07,-20.2701,-48.5576,10.7106,1014.73
177488,0.13869,9.7274,1.42994,1.54,-3.15,0.42,-20.5607,-49.9763,11.213,1014.73
177494,0.148254,9.76566,1.39646,2.1,-3.29,0.21,-19.8342,-47.725,11.4789,1014.73
177500,0.153037,9.74175,1.41081,1.75,-3.43,-0.77,-21.0837,-48.6193,12.8975,1014.73
177506,0.13869,9.76566,1.41559,2.03,-3.43,0.14,-20.212,-50.3772,14.1091,1014.71
177512,0.109995,9.7561,1.44428,1.82,-3.01,0.07,-20.5897,-48.5268,11.6415,1014.71
177518,0.13869,9.7561,1.42037,1.82,-3.36,-0.21,-20.3573,-48.2492,13.459,1014.71
177524,0.153037,9.77044,1.40124,1.61,-3.36,-0.42,-20.4444,-49.8529,12.927,1014.7
177530,0.162602,9.7561,1.42037,1.89,-3.22,-0.07,-20.0958,-48.496,12.8088,1014.7
177536,0.124342,9.74175,1.42037,1.89,-3.43,0,-20.4154,-47.725,12.203,1014.67
177542,0.167384,9.7561,1.46341,1.82,-3.22,-0.42,-20.4735,-49.0511,13.06,1014.67
177548,0.21999,9.77523,1.39168,1.89,-3.29,-0.49,-20.6188,-48.8044,12.2916,1014.69
177554,0.143472,9.77044,1.40124,1.68,-3.36,-0.49,-20.6478,-46.9231,12.4542,1014.69
177560,0.10043,9.76566,1.45863,2.03,-3.22,-0.56,-20.8222,-48.8969,12.2325,1014.69
177566,0.109995,9.70827,1.44907,1.68,-3.5,-0.7,-20.7931,-48.7735,11.8927,1014.69
177572,0.109995,9.71784,1.45863,2.31,-3.22,-0.14,-20.5025,-47.725,12.4246,1014.66
177578,0.105213,9.72262,1.44907,1.89,-3.43,-0.21,-19.7471,-48.3109,12.8532,1014.66
177584,0.109995,9.72262,1.4395,2.03,-3.08,-0.42,-20.1539,-49.1744,12.3508,1014.66
177590,0.114778,9.7274,1.41081,2.73,-3.29,0.07,-20.0086,-49.3903,11.0209,1014.67
177596,0.095648,9.74175,1.41559,2.17,-3.29,-0.35,-20.1829,-48.095,11.7154,1014.67
177602,0.124342,9.7561,1.42037,1.96,-2.94,-0.42,-20.8512,-48.9586,10.6367,1014.72
177608,0.157819,9.74175,1.41559,2.03,-3.78,0,-20.7059,-48.9277,11.4051,1014.72
177614,0.124342,9.77044,1.42994,2.17,-3.36,-0.49,-20.7931,-47.6324,12.6315,1014.7
177620,0.153037,9.73697,1.42037,1.89,-3.36,0.35,-20.212,-48.5576,12.8088,1014.7
177626,0.11956,9.74653,1.42516,1.82,-3.29,-0.49,-20.3573,-49.4828,12.6167,1014.71
177632,0.133907,9.73697,1.37733,2.1,-3.78,-0.56,-20.6478,-48.2801,12.8679,1014.71
177638,0.210426,9.78479,1.41559,1.61,-3.15,-0.28,-20.2991,-47.5091,12.5576,1014.71
177644,0.162602,9.74653,1.42994,1.61,-2.73,0,-21.3161,-49.8221,11.7154,1014.72
177650,0.13869,9.77523,1.40603,1.75,-3.36,-0.63,-20.7641,-48.7735,13.06,1014.72
177656,0.11956,9.77044,1.42516,1.54,-3.57,-0.42,-20.5025,-47.4782,13.1635,1014.72
177662,0.124342,9.7561,1.45863,1.54,-3.36,-0.21,-20.212,-48.3418,12.3655,1014.72
177668,0.167384,9.72262,1.45385,1.33,-3.15,-0.28,-20.5897,-48.8044,11.8927,1014.68
177674,0.129125,9.76088,1.45385,1.68,-3.22,-0.91,-20.1539,-47.8792,12.6167,1014.68
177680,0.0908656,9.73697,1.46341,2.24,-3.78,-0.07,-20.2991,-48.0334,10.9322,1014.71
177686,0.095648,9.69871,1.4395,2.17,-3.43,-0.84,-20.6478,-49.0511,12.2916,1014.71
177692,0.11956,9.74175,1.42994,1.54,-3.36,-0.14,-20.4444,-48.1259,11.8927,1014.71
177698,0.133907,9.7274,1.4395,1.96,-3.57,0.28,-20.2701,-48.3418,12.0552,1014.68
177704,0.0860832,9.74175,1.42037,2.17,-3.57,-0.21,-20.8512,-49.2978,11.8484,1014.68
177710,0.095648,9.69392,1.44428,1.89,-3.15,-0.7,-20.7059,-48.3109,12.1734,1014.68
177716,0.11956,9.73218,1.40124,2.1,-3.15,0.28,-20.8222,-47.5399,13.459,1014.68
177722,0.133907,9.75131,1.4395,1.96,-3.43,0.63,-21.1127,-49.2669,12.3212,1014.69
177728,0.143472,9.74175,1.41081,2.1,-3.5,-0.14,-20.7931,-48.3109,10.9174,1014.69
177734,0.143472,9.7561,1.42037,2.03,-3.71,-0.42,-20.212,-47.7558,13.2373,1014.71
177740,0.148254,9.77523,1.41559,1.96,-3.64,0.28,-20.4154,-48.3418,11.937,1014.71
177746,0.196078,9.76088,1.42037,2.03,-3.22,0.28,-20.4735,-49.0202,12.4837,1014.68
177752,0.167384,9.78001,1.4395,1.89,-3.29,-0.28,-20.3863,-48.2184,12.602,1014.68
177758,0.167384,9.78479,1.42516,1.96,-3.08,0.14,-20.8512,-47.7558,12.2769,1014.68
177764,0.114778,9.76088,1.40124,1.54,-3.29,-0.77,-20.9093,-49.5137,11.9961,1014.68
177770,0.11956,9.75131,1.42994,1.75,-3.64,-0.63,-20.5025,-49.0819,12.2473,1014.68
177776,0.153037,9.74175,1.43472,1.82,-3.36,0.07,-20.9965,-47.8483,14.0353,1014.73
177782,0.157819,9.74175,1.43472,1.47,-3.15,-0.28,-20.5025,-49.1436,10.7106,1014.73
177788,0.0573888,9.7561,1.42994,1.54,-3.5,-0.77,-20.5607,-49.2669,11.6415,1014.71
177794,0.095648,9.73218,1.45863,1.75,-3.15,-0.7,-20.5316,-47.6941,13.1191,1014.71
177800,0.10043,9.74175,1.45863,1.96,-3.22,0.56,-19.9795,-48.8044,11.6563,1014.71
177806,0.13869,9.70827,1.41559,1.75,-3.22,0,-19.9505,-48.9586,13.326,1014.71
177812,0.095648,9.70827,1.42516,2.45,-3.57,-0.7,-20.0958,-48.1567,12.0996,1014.71
177818,0.105213,9.7274,1.4395,1.82,-3.43,-0.49,-20.4154,-48.0642,12.2325,1014.7
177824,0.095648,9.72262,1.41081,1.96,-3.71,-0.07,-20.7641,-49.5753,12.4099,1014.7
177830,0.109995,9.73697,1.41081,2.45,-3.64,0.42,-20.4154,-48.095,12.6167,1014.69
177836,0.114778,9.73697,1.40124,2.1,-3.29,0.35,-20.8222,-47.1082,12.8827,1014.69
177842,0.153037,9.75131,1.42994,2.1,-3.57,-0.35,-20.4735,-49.1436,12.2325,1014.7
177848,0.191296,9.78001,1.40124,2.03,-3.36,0.21,-20.9093,-49.452,11.9075,1014.7
177854,0.148254,9.78479,1.37733,2.03,-3.15,0.14,-20.0086,-47.2932,11.6415,1014.69
177860,0.153037,9.7561,1.42516,1.54,-3.99,-0.07,-21.0546,-48.3109,12.2916,1014.69
177866,0.186514,9.7274,1.44907,2.1,-3.71,-0.42,-21.3161,-49.3903,11.1539,1014.69
177872,0.186514,9.74653,1.44428,1.68,-3.15,-0.14,-20.3573,-47.9717,12.4985,1014.72
177878,0.172166,9.74653,1.42037,2.1,-2.94,-0.35,-20.3863,-47.6633,11.7449,1014.72
177884,0.205643,9.78001,1.42037,1.82,-3.01,-0.7,-20.5316,-49.4212,11.3164,1014.72
177890,0.129125,9.8087,1.37255,1.89,-3.43,-0.63,-20.6769,-48.7427,11.4198,1014.72
177896,0.095648,9.76566,1.4395,1.4,-3.36,-0.35,-20.9384,-48.1567,11.804,1014.68
177902,0.0813008,9.74653,1.4682,2.17,-3.5,-0.63,-20.9675,-48.866,10.223,1014.68
177908,0.11956,9.73697,1.41559,1.75,-3.08,-0.21,-20.3573,-48.9894,11.2277,1014.69
177914,0.124342,9.73697,1.39646,1.96,-3.36,-0.28,-20.5025,-47.139,11.5233,1014.69
177920,0.10043,9.74653,1.44907,2.1,-3.08,-0.42,-21.0546,-48.7427,10.5924,1014.67
177926,0.0908656,9.70349,1.46341,2.31,-3.5,-0.21,-20.7641,-48.8044,12.1291,1014.67
177932,0.114778,9.73697,1.43472,1.68,-3.15,-0.21,-21.0546,-48.1259,10.8583,1014.67
177938,0.105213,9.71784,1.44428,2.31,-3.57,-0.07,-21.1418,-48.0642,11.937,1014.71
177944,0.129125,9.73697,1.41081,1.82,-3.57,0.35,-21.2871,-49.1744,11.1982,1014.71
177950,0.11956,9.75131,1.42516,2.24,-3.29,-0.14,-20.5607,-48.2184,10.7845,1014.7
177956,0.148254,9.78957,1.42516,1.61,-3.29,0.14,-20.3863,-48.3418,11.4198,1014.7
177962,0.157819,9.77523,1.41081,2.1,-3.22,-0.14,-21.0256,-48.9277,11.9961,1014.7
177968,0.129125,9.76088,1.42037,1.96,-3.29,-0.21,-21.2871,-48.9894,10.2968,1014.7
177974,0.148254,9.77044,1.42037,1.89,-3.43,-0.42,-20.9965,-48.0025,11.5085,1014.7
177980,0.181731,9.78957,1.43472,1.82,-3.5,-0.49,-20.9093,-48.3109,10.8583,1014.7
177986,0.229555,9.78957,1.37733,1.26,-3.36,-0.63,-21.2871,-48.681,10.2821,1014.7
177992,0.162602,9.78479,1.41081,1.89,-3.57,-0.98,-21.2871,-47.8483,12.7054,1014.71
177998,0.0813008,9.76088,1.40603,1.54,-3.08,-0.91,-21.1999,-47.8175,11.671,1014.71
178004,0.0526064,9.73697,1.47298,1.12,-3.22,-0.42,-20.9965,-48.9586,11.7301,1014.73
178010,0.0908656,9.70827,1.46341,1.68,-3.22,-0.28,-21.3161,-49.0511,12.3212,1014.73
178016,0.10043,9.7274,1.48733,1.61,-3.15,-0.77,-20.7641,-48.0025,10.9913,1014.7
178022,0.095648,9.72262,1.47776,2.17,-3.57,-0.21,-20.6478,-49.3286,11.0504,1014.7
178028,0.114778,9.7561,1.4395,1.96,-3.29,-0.42,-21.1418,-48.2801,12.5281,1014.7
178034,0.071736,9.71784,1.43472,2.45,-3.64,-0.14,-20.6769,-47.4782,13.326,1014.7
178040,0.071736,9.72262,1.41559,1.89,-3.43,0.28,-21.3452,-48.1567,11.3903,1014.7
178046,0.071736,9.73218,1.42516,2.31,-3.78,-0.14,-21.1418,-48.681,11.5824,1014.68
178052,0.129125,9.74653,1.4395,1.82,-3.57,-0.14,-20.0667,-47.2624,12.2916,1014.68
178058,0.13869,9.73218,1.4395,1.68,-3.43,0.14,-20.8222,-47.4782,12.203,1014.69
178064,0.162602,9.73697,1.38211,1.89,-3.57,0.21,-20.6478,-49.6987,10.947,1014.69
178070,0.133907,9.75131,1.39168,1.33,-2.94,0.14,-21.229,-48.2184,12.336,1014.71
178076,0.148254,9.80392,1.34864,1.54,-3.64,-0.14,-20.4444,-47.8175,12.8384,1014.71
178082,0.191296,9.76088,1.39646,1.75,-3.22,-0.63,-20.5025,-49.2978,11.9666,1014.73
178088,0.167384,9.74175,1.47298,1.75,-2.87,-0.42,-20.2701,-49.6679,11.804,1014.73
178094,0.157819,9.78957,1.42994,1.61,-3.29,-0.63,-20.0376,-48.2184,13.2226,1014.69
178100,0.210426,9.77044,1.44428,1.68,-3.15,-0.63,-20.9965,-47.6941,12.0404,1014.69
178106,0.124342,9.76566,1.42994,1.61,-3.01,-0.63,-20.241,-49.6062,10.9618,1014.69
178112,0.0813008,9.7274,1.47776,1.82,-3.08,-0.63,-20.6188,-48.0025,13.1043,1014.72
178118,0.0765184,9.69392,1.50646,1.68,-3.29,-0.56,-20.6188,-48.3418,13.193,1014.72
178124,0.0621712,9.70827,1.48254,1.61,-3.43,-0.49,-19.8924,-49.2361,10.4446,1014.7
178130,0.114778,9.74175,1.46341,2.31,-3.71,-0.35,-20.3282,-48.0334,11.6119,1014.7
178136,0.0860832,9.7274,1.4395,1.89,-3.29,-0.14,-20.0667,-48.3109,13.8579,1014.71
178142,0.0813008,9.72262,1.42994,2.38,-3.01,-0.07,-20.0376,-48.8969,11.3312,1014.71
178148,0.071736,9.72262,1.43472,1.75,-3.5,-0.07,-20.0958,-48.6502,11.2277,1014.7
178154,0.0813008,9.72262,1.42516,2.1,-3.78,0,-20.4154,-48.3726,12.927,1014.7
178160,0.109995,9.73697,1.39168,2.24,-3.43,0.07,-19.5146,-48.7427,12.4985,1014.7
178166,0.143472,9.73697,1.37733,1.89,-3.5,0.07,-20.7931,-48.6502,12.3212,1014.71
178172,0.109995,9.74653,1.39168,2.1,-3.36,0.28,-20.5025,-48.0642,11.9813,1014.71
178178,0.13869,9.77044,1.40603,1.82,-3.78,0.07,-19.8633,-48.8352,11.6267,1014.7
178184,0.133907,9.76566,1.38211,2.1,-3.36,0,-20.212,-48.681,11.8336,1014.7
178190,0.13869,9.78479,1.39646,1.82,-3.15,0,-20.1829,-48.5268,11.5233,1014.71
178196,0.176949,9.75131,1.4395,1.61,-3.43,-0.07,-20.2991,-47.8175,12.6758,1014.71
178202,0.133907,9.76088,1.43472,1.82,-3.22,-0.28,-20.6769,-49.1744,11.4789,1014.69
178208,0.176949,9.77044,1.44428,1.82,-3.08,-0.14,-20.9675,-48.7427,11.8927,1014.69
178214,0.143472,9.76566,1.40603,1.47,-3.22,-0.49,-20.8512,-47.725,12.2325,1014.69
178220,0.0813008,9.76566,1.45863,1.47,-3.43,-0.49,-20.2701,-48.0642,10.9913,1014.71
178226,0.114778,9.76088,1.4682,1.82,-3.5,-0.07,-20.5897,-49.3286,11.4494,1014.71
178232,0.124342,9.7274,1.45863,2.1,-3.22,-0.14,-20.241,-48.0642,11.7449,1014.69
178238,0.0765184,9.71305,1.43472,2.17,-3.15,-0.49,-20.241,-47.7558,11.4346,1014.69
178244,0.124342,9.74175,1.44907,1.96,-3.78,-0.42,-21.1127,-49.2053,11.3607,1014.69
178250,0.0860832,9.73697,1.41081,1.96,-3.78,-0.14,-21.0256,-47.6324,12.0996,1014.69
178256,0.10043,9.72262,1.40603,2.31,-3.43,-0.14,-20.0958,-48.5268,12.0109,1014.69
178262,0.0813008,9.71784,1.44428,2.03,-3.29,-0.42,-20.6478,-49.5445,11.4346,1014.69
178268,0.105213,9.71784,1.41081,2.1,-3.43,0.28,-20.2991,-49.8529,10.8731,1014.68
178274,0.0860832,9.70827,1.43472,1.96,-3.64,0.14,-20.5025,-47.8175,12.8679,1014.68
178280,0.124342,9.76566,1.42994,2.45,-3.29,-0.21,-19.7471,-48.9894,11.7597,1014.68
178286,0.13869,9.73218,1.42037,1.89,-3.57,0.07,-21.1709,-49.2361,10.4446,1014.7
178292,0.133907,9.74653,1.4395,1.82,-3.29,0.21,-20.5316,-48.496,11.4937,1014.7
178298,0.143472,9.74175,1.42994,2.1,-3.43,0,-20.3282,-48.3418,12.2916,1014.7
178304,0.129125,9.76088,1.42516,2.38,-3.15,-0.28,-20.6188,-49.3286,11.8484,1014.7
178310,0.114778,9.74653,1.43472,2.03,-3.36,0.07,-20.6478,-47.7866,12.1734,1014.71
178316,0.167384,9.73697,1.45385,1.89,-2.94,0.07,-20.2991,-47.9717,12.1439,1014.71
178322,0.109995,9.82783,1.44428,1.96,-3.43,-0.28,-19.7471,-49.0202,11.8188,1014.71
178328,0.243902,9.7561,1.4395,2.03,-3.43,-0.07,-20.212,-48.3726,11.4789,1014.71
178334,0.0860832,9.81827,1.42037,1.96,-3.08,-0.21,-20.5607,-47.3857,11.7301,1014.71
178340,0.10043,9.77044,1.41559,1.68,-3.71,-0.42,-20.6188,-48.9894,13.0305,1014.75
178346,0.0908656,9.7274,1.46341,1.75,-3.43,-0.7,-20.9965,-48.5885,10.7992,1014.75
178352,0.109995,9.70827,1.42994,1.61,-3.01,-0.14,-20.2701,-47.4166,11.4642,1014.7
178358,0.11956,9.73218,1.45385,1.61,-3.22,-0.21,-19.8052,-47.6941,12.4542,1014.7
178364,0.0908656,9.71784,1.44428,2.17,-3.64,-0.07,-20.8222,-49.2053,12.203,1014.7
178370,0.105213,9.73218,1.42516,2.31,-3.71,0,-21.1709,-47.9717,12.6315,1014.7
178376,0.124342,9.71305,1.42994,2.87,-3.71,-0.07,-19.7471,-47.3549,11.7892,1014.7
178382,0.0860832,9.70349,1.42516,2.38,-3.15,-0.07,-20.0376,-48.7118,11.7154,1014.7
178388,0.0860832,9.73697,1.42516,1.89,-3.43,0.49,-20.1829,-48.8044,12.203,1014.7
178394,0.114778,9.73697,1.42516,2.1,-3.15,0.14,-20.2991,-46.5222,11.7745,1014.71
178400,0.0765184,9.74175,1.42994,1.89,-3.22,0.28,-20.241,-48.6193,11.5824,1014.71
178406,0.153037,9.74175,1.42994,2.45,-3.08,-0.14,-20.5316,-48.8044,11.4346,1014.67
178412,0.133907,9.7561,1.41081,1.75,-3.85,0,-20.7931,-48.2184,12.4246,1014.67
178418,0.153037,9.77523,1.44907,1.89,-3.64,-0.21,-20.6188,-48.2492,12.1439,1014.72
178424,0.181731,9.78479,1.41559,2.24,-3.71,-0.42,-20.5316,-48.6193,11.4789,1014.72
178430,0.162602,9.79436,1.41081,1.75,-3.43,-0.49,-20.8803,-47.8483,13.193,1014.71
178436,0.181731,9.75131,1.44907,1.96,-3.01,-0.63,-20.5025,-47.5399,11.7154,1014.71
178442,0.11956,9.76088,1.45385,1.19,-3.43,-0.35,-20.241,-48.496,11.7597,1014.7
178448,0.13869,9.74175,1.47298,2.17,-3.29,-0.28,-20.8512,-48.8352,11.0357,1014.7
178454,0.105213,9.75131,1.42516,1.61,-3.22,-0.84,-21.4324,-47.8792,11.4789,1014.7
178460,0.162602,9.74175,1.43472,1.82,-2.94,-0.77,-20.7931,-48.5885,11.0357,1014.71
178466,0.095648,9.73697,1.43472,1.68,-3.29,-0.07,-20.9384,-49.7912,11.5381,1014.71
178472,0.0334768,9.69871,1.46341,2.17,-3.5,-0.63,-20.4154,-48.095,12.469,1014.75
178478,0.0813008,9.70349,1.44907,1.96,-3.36,-0.07,-19.8924,-48.6193,11.7301,1014.75
178484,0.0908656,9.7274,1.43472,2.17,-3.29,-0.14,-20.8512,-49.7912,10.9765,1014.73
178490,0.0860832,9.73697,1.4395,2.31,-3.78,-0.14,-20.5316,-48.3109,12.4394,1014.73
178496,0.095648,9.72262,1.43472,2.1,-3.29,0.35,-20.8222,-48.0025,11.4789,1014.69
178502,0.109995,9.72262,1.44428,2.1,-3.36,-0.14,-20.8222,-49.1128,12.3803,1014.69
178508,0.095648,9.69871,1.46341,2.31,-3.22,0.14,-20.7931,-48.7427,10.9913,1014.69
178514,0.129125,9.7561,1.42994,2.1,-3.36,0.42,-20.2701,-47.8175,12.0404,1014.72
178520,0.157819,9.74175,1.41081,2.03,-3.36,0,-20.9965,-48.681,12.3508,1014.72
178526,0.133907,9.7274,1.39168,1.89,-3.43,0.07,-20.8222,-48.7735,12.5872,1014.7
178532,0.133907,9.73697,1.44907,2.03,-3.57,-0.07,-20.241,-47.9408,11.7597,1014.7
178538,0.176949,9.74653,1.44428,2.1,-3.43,0,-20.7931,-48.0642,11.3755,1014.69
178544,0.176949,9.77523,1.42516,2.1,-3.29,-0.28,-20.5025,-49.3286,12.0404,1014.69
178550,0.13869,9.76088,1.41559,1.75,-3.01,-0.14,-20.3573,-48.5885,12.7054,1014.72
178556,0.105213,9.77523,1.43472,1.82,-3.5,-0.42,-19.689,-47.6941,12.4542,1014.72
178562,0.095648,9.7561,1.45863,1.96,-2.94,-0.42,-20.6188,-49.637,10.6958,1014.72
178568,0.095648,9.77044,1.46341,2.03,-3.43,-0.21,-20.9384,-48.5885,12.1882,1014.73
178574,0.105213,9.75131,1.44428,2.03,-3.43,0.14,-20.7931,-46.8615,12.0996,1014.73
178580,0.095648,9.73218,1.46341,1.75,-3.5,0.07,-20.5897,-48.8044,10.4298,1014.73
178586,0.0908656,9.70349,1.45385,2.52,-4.06,0.07,-21.3452,-49.0202,10.4298,1014.73
178592,0.124342,9.7274,1.42516,2.24,-3.64,-0.21,-20.5316,-48.3418,11.0948,1014.73
178598,0.133907,9.7561,1.43472,2.52,-3.22,0.35,-20.8222,-48.1567,12.1734,1014.73
178604,0.129125,9.77523,1.41081,2.24,-3.36,0.56,-21.0837,-49.0819,11.7006,1014.7
178610,0.10043,9.73697,1.46341,2.52,-3.36,-0.14,-20.9675,-48.3726,11.2277,1014.7
178616,0.10043,9.72262,1.4395,2.52,-3.36,-0.21,-20.2991,-48.0025,11.8484,1014.74
178622,0.176949,9.75131,1.41559,2.31,-3.43,0.63,-20.3573,-48.9894,12.0848,1014.74
178628,0.205643,9.8087,1.36777,1.96,-3.43,-0.07,-20.4154,-49.1128,11.2721,1014.74
178634,0.200861,9.8087,1.34864,2.1,-3.01,-0.84,-20.3282,-46.5839,11.2721,1014.72
178640,0.133907,9.8087,1.40603,1.75,-3.08,-0.28,-20.8222,-48.866,11.3755,1014.72
178646,0.21999,9.74653,1.44907,1.96,-3.08,-1.4,-20.7641,-49.0819,10.7253,1014.69
178652,0.167384,9.78001,1.42994,1.4,-2.66,-0.77,-20.4444,-47.8792,12.3951,1014.69
178658,0.105213,9.77044,1.42037,1.82,-3.36,-0.77,-20.6769,-47.8175,12.2178,1014.71
178664,0.0860832,9.78001,1.40603,1.89,-3.15,-1.05,-20.9093,-49.1744,11.08,1014.71
178670,0.0621712,9.74653,1.44428,2.03,-3.36,-0.84,-20.6478,-48.3418,11.1391,1014.7
178676,0.13869,9.7274,1.45385,1.19,-3.29,-0.42,-20.1248,-47.6324,11.8631,1014.7
178682,0.105213,9.75131,1.47298,2.03,-3.22,-0.28,-20.0958,-48.6502,10.4446,1014.7
178688,0.0813008,9.73218,1.42037,1.4,-3.71,-0.7,-19.8633,-49.3595,12.469,1014.71
178694,0.0430416,9.70827,1.44907,1.61,-3.22,-0.14,-20.0376,-47.6633,12.7497,1014.71
178700,0.0908656,9.70827,1.42037,1.4,-3.36,0.21,-20.9675,-49.2669,12.5428,1014.7
178706,0.10043,9.86609,1.26255,1.61,-3.71,-0.14,-20.5316,-49.6679,10.7253,1014.7
178712,0.196078,9.79436,1.43472,0.84,-2.94,0.07,-20.2991,-47.9408,11.9518,1014.7
178718,-0.0908656,9.62697,1.6308,2.45,-3.36,0.07,-20.212,-46.6764,12.07,1014.7
178724,0.153037,9.56002,1.53037,2.45,-3.57,0.35,-20.5607,-49.452,11.3312,1014.71
178730,0.11956,9.81827,1.35342,2.59,-3.43,0.49,-20.9384,-48.681,11.6267,1014.71
178736,0.200861,9.78957,1.32472,2.17,-3.36,0,-20.3282,-48.095,11.804,1014.71
178742,0.13869,9.7561,1.38211,2.03,-2.94,-0.21,-20.8512,-49.4828,10.8731,1014.69
178748,0.11956,9.73697,1.42994,1.89,-3.57,0.56,-20.9965,-48.9277,10.7992,1014.69
178754,0.205643,9.81349,1.42516,2.24,-3.85,-0.21,-21.3161,-48.1567,11.1095,1014.72
178760,0.153037,9.76566,1.3582,1.96,-3.71,-0.56,-20.9093,-48.5576,10.5628,1014.72
178766,0.148254,9.79914,1.37733,1.54,-3.01,-0.14,-20.735,-49.8837,10.2673,1014.72
178772,0.0860832,9.78001,1.45385,1.19,-3.5,-0.42,-20.7059,-47.6324,11.0357,1014.72
178778,0.129125,9.74175,1.4395,1.75,-3.22,-0.49,-20.4154,-48.2184,11.4937,1014.68
178784,0.13869,9.81349,1.41559,1.4,-3.22,-0.63,-21.4033,-49.7604,12.5133,1014.68
178790,0.143472,9.77523,1.42994,1.26,-3.71,-1.19,-20.1248,-48.4034,11.3016,1014.67
178796,0.114778,9.65567,1.51602,1.89,-2.87,-0.98,-20.5607,-48.1567,12.1291,1014.67
178802,0.0334768,9.76566,1.45385,1.68,-3.57,-0.21,-20.8803,-48.6193,10.9765,1014.67
178808,0.153037,9.64132,1.46341,2.03,-2.94,-0.42,-20.6478,-49.1128,10.2673,1014.69
178814,-0.023912,9.79914,1.42994,1.54,-4.2,-0.84,-20.0086,-48.1259,11.4642,1014.69
178820,0.157819,9.62219,1.47298,2.38,-3.01,0.35,-20.0667,-48.9894,11.4051,1014.7
178826,0.0191296,9.7561,1.44907,2.24,-3.43,-0.28,-20.9965,-48.7118,10.9618,1014.7
178832,0.129125,9.68914,1.47776,2.03,-3.15,-0.63,-21.1999,-47.324,12.0848,1014.7
178838,0.0908656,9.75131,1.42037,2.1,-3.08,0.49,-20.735,-48.2184,10.5776,1014.7
178844,0.109995,9.74653,1.43472,1.96,-3.5,-0.14,-20.9675,-49.3286,10.3559,1014.7
178850,0.109995,9.7561,1.41559,2.1,-3.57,0.21,-20.1539,-48.1567,10.223,1014.7
178856,0.124342,9.76088,1.40603,1.75,-3.22,0.14,-20.9384,-47.4166,10.7549,1014.7
178862,0.11956,9.76566,1.41559,2.24,-3.57,-0.49,-20.7641,-50.0071,9.24771,1014.69
178868,0.10043,9.74653,1.45863,1.61,-3.57,-0.28,-20.9965,-49.2669,11.1982,1014.69
178874,0.13869,9.74175,1.43472,1.61,-3.5,-0.14,-20.0086,-48.2184,13.2669,1014.7
178880,0.210426,9.73697,1.44907,1.82,-3.36,-0.77,-21.0837,-48.3109,10.2377,1014.7
178886,0.215208,9.79436,1.41081,1.89,-3.08,-0.77,-20.1539,-49.6987,11.5085,1014.71
178892,0.129125,9.78957,1.43472,1.26,-2.8,-0.91,-20.6188,-47.9408,11.9518,1014.71
178898,0.0382592,9.77044,1.42037,1.47,-3.08,-0.28,-20.5607,-48.6193,12.7202,1014.71
178904,0.095648,9.79436,1.39646,1.12,-3.36,-0.98,-19.8924,-49.3595,10.3855,1014.71
178910,0.210426,9.78001,1.44907,1.19,-3.57,-1.33,-20.6769,-48.3418,10.8879,1014.71
178916,0.133907,9.79914,1.42516,1.4,-2.94,-1.12,-19.8342,-48.4651,12.7497,1014.67
178922,0.10043,9.78001,1.45863,1.26,-3.43,-0.91,-20.1248,-49.9763,9.36592,1014.67
178928,0.0813008,9.76566,1.42037,1.26,-2.66,-0.35,-20.5316,-48.681,11.6267,1014.69
178934,0.0765184,9.68914,1.50167,1.33,-2.94,-1.33,-20.4444,-47.7558,11.6267,1014.69
178940,0.0095648,9.70827,1.46341,1.54,-3.15,-1.05,-20.6769,-48.9277,11.7006,1014.7
178946,0.133907,9.71305,1.45385,1.68,-3.29,-0.35,-20.6188,-49.6062,9.97175,1014.7
178952,0.071736,9.71305,1.45863,1.68,-2.8,-0.28,-20.5025,-48.2184,11.6563,1014.68
178958,0.109995,9.73218,1.43472,2.1,-3.36,-0.7,-20.5316,-49.0819,10.7549,1014.68
178964,0.0765184,9.7274,1.47776,1.82,-3.57,-0.21,-20.4444,-49.8221,12.203,1014.74
178970,0.095648,9.73218,1.43472,2.1,-3.5,-0.14,-20.9965,-47.7558,11.6415,1014.74
178976,0.0908656,9.73218,1.41559,1.68,-3.15,-0.35,-20.3573,-48.2184,12.0404,1014.74
178982,0.095648,9.70827,1.45863,1.68,-3.22,0.28,-20.7931,-48.7427,10.6662,1014.73
178988,0.129125,9.73697,1.43472,1.12,-3.15,-0.56,-20.7931,-48.3726,11.0357,1014.73
178994,0.162602,9.73697,1.4395,1.33,-3.22,-0.28,-20.2991,-47.8483,11.5381,1014.71
179000,0.129125,9.78001,1.39646,1.89,-3.36,-0.63,-20.5607,-48.866,11.3312,1014.71
179006,0.095648,9.78001,1.45385,1.26,-3.22,-0.56,-20.9675,-48.9586,10.5924,1014.72
179012,0.148254,9.76088,1.42994,1.26,-3.22,-0.84,-21.0546,-48.0025,12.2916,1014.72
179018,0.13869,9.73218,1.45385,1.4,-3.36,-0.91,-20.7641,-48.4343,12.336,1014.71
179024,0.124342,9.71784,1.42037,1.33,-3.22,-0.7,-20.7931,-50.1613,9.48413,1014.71
179030,0.0765184,9.7561,1.44428,1.47,-3.15,-0.28,-20.3573,-48.7118,11.7449,1014.71
179036,0.0095648,9.71305,1.50167,1.26,-3.43,-0.7,-20.7059,-47.8792,13.6659,1014.69
179042,0.0526064,9.68436,1.52559,1.47,-3.29,-0.35,-20.3863,-49.2978,10.5924,1014.69
179048,0.0860832,9.70827,1.45385,1.96,-3.22,-0.56,-20.6769,-48.6502,10.9618,1014.71
179054,0.0430416,9.69392,1.48733,1.89,-3.64,-0.14,-20.9675,-47.6633,12.3064,1014.71
179060,0.0526064,9.7274,1.44428,1.75,-3.5,-0.21,-20.9965,-48.5885,12.2473,1014.71
179066,0.0573888,9.7274,1.4395,1.96,-3.71,0.07,-21.229,-48.8969,10.3412,1014.71
179072,0.0621712,9.71305,1.44907,2.1,-3.29,0.42,-20.4444,-48.3109,11.8631,1014.71
179078,0.071736,9.73218,1.41081,1.82,-3.15,0.42,-20.8803,-48.1567,11.6119,1014.71
179084,0.0860832,9.71784,1.4395,1.82,-3.22,0.35,-20.735,-48.8352,11.5528,1014.71
179090,0.095648,9.76566,1.43472,2.1,-3.57,0.07,-20.9965,-47.9408,12.3508,1014.7
179096,0.114778,9.7561,1.42037,2.1,-3.29,0.42,-20.1248,-47.2007,12.9418,1014.7
179102,0.129125,9.76566,1.42037,1.54,-3.43,0.42,-20.6478,-48.9894,11.6267,1014.68
179108,0.167384,9.79914,1.42037,1.47,-3.57,-0.35,-20.7059,-48.5885,12.1439,1014.68
179114,0.21999,9.80392,1.41559,1.75,-3.57,-0.49,-20.3863,-48.1876,11.8631,1014.7
179120,0.167384,9.8087,1.42516,1.12,-3.78,-1.19,-20.2701,-49.3595,11.4789,1014.7
179126,0.0908656,9.8087,1.46341,1.05,-3.5,-0.84,-21.258,-49.7604,11.5233,1014.69
179132,0.0621712,9.74653,1.48733,1.26,-2.66,-0.42,-20.7931,-48.3726,12.469,1014.69
179138,0.0860832,9.69871,1.53037,1.54,-3.5,-1.12,-20.7059,-48.7427,11.2721,1014.69
179144,0.0860832,9.74175,1.51602,1.61,-3.5,-0.49,-21.3161,-49.1128,11.6415,1014.69
179150,0.0813008,9.70827,1.50646,1.89,-3.78,-0.21,-21.258,-48.1259,11.8188,1014.69
179156,0.0669536,9.73697,1.47776,2.24,-3.85,-0.56,-20.3573,-48.095,11.1539,1014.66
179162,0.0382592,9.72262,1.50646,2.24,-3.01,-0.77,-20.3282,-48.4034,11.5972,1014.66
179168,0.0669536,9.69871,1.48733,2.38,-3.15,0,-20.5607,-49.1128,11.5676,1014.71
179174,0.0526064,9.73697,1.44907,2.03,-3.15,0.21,-19.8633,-47.5399,12.3508,1014.71
179180,0.0621712,9.74175,1.42037,2.31,-3.71,-0.56,-20.9965,-48.9277,13.1487,1014.72
179186,0.0860832,9.78001,1.4395,1.96,-3.57,0,-20.2701,-49.3595,11.6267,1014.72
179192,0.0908656,9.75131,1.40124,1.54,-3.15,-0.35,-20.6478,-47.5399,12.3655,1014.69
179198,0.114778,9.78479,1.41081,1.82,-3.92,-0.14,-20.8512,-48.4034,13.0305,1014.69
179204,0.0813008,9.74175,1.42994,1.61,-3.92,0.14,-20.6769,-49.8529,11.3903,1014.69
179210,0.095648,9.77523,1.46341,1.75,-3.64,0.28,-20.7931,-48.4034,11.4494,1014.72
179216,0.23912,9.77044,1.42994,1.61,-2.73,-0.56,-20.5607,-47.8175,13.1635,1014.72
179222,0.129125,9.78957,1.45385,1.19,-3.22,-0.35,-20.7931,-49.4828,11.7006,1014.69
179228,0.10043,9.75131,1.43472,1.68,-3.15,-0.14,-20.4735,-49.3595,12.1143,1014.69
179234,0.105213,9.77044,1.50167,1.89,-3.43,-1.12,-20.9093,-48.4034,11.4937,1014.7
179240,0.109995,9.74653,1.47298,1.61,-3.15,-0.77,-20.8512,-48.2184,11.0061,1014.7
179246,0.10043,9.73697,1.48254,1.54,-2.94,-0.42,-20.5025,-49.2053,12.2916,1014.71
179252,0.0191296,9.7561,1.47776,1.82,-3.29,-0.84,-20.0086,-48.0642,11.9075,1014.71
179258,0.0382592,9.67958,1.53515,1.54,-3.36,-0.35,-20.6478,-48.6502,12.0109,1014.71
179264,0.0621712,9.67958,1.45385,1.75,-3.43,-0.42,-20.9093,-50.3155,11.2721,1014.72
179270,0.0860832,9.70827,1.43472,1.61,-3.22,-0.42,-20.8222,-48.6502,12.1587,1014.72
179276,0.0334768,9.76088,1.39646,1.68,-3.36,-0.14,-20.5897,-48.5885,10.4446,1014.7
179282,0.0908656,9.88522,1.31038,1.96,-3.92,-0.35,-20.6188,-49.8221,10.6219,1014.7
179288,0.215208,9.75131,1.51124,0.7,-3.08,-0.56,-20.9093,-49.6987,12.1143,1014.73
179294,-0.0382592,9.50741,1.66428,2.52,-3.22,0.35,-20.2701,-48.6502,12.8088,1014.73
179300,0.11956,9.69871,1.42037,1.75,-4.41,0.35,-21.258,-49.0819,10.6958,1014.73
179306,0.210426,9.73218,1.3869,2.17,-3.15,0.21,-20.3863,-49.3595,10.8879,1014.73
179312,0.0860832,9.82305,1.38211,1.47,-3.5,0.14,-19.8924,-48.5576,10.6367,1014.7
179318,0.172166,9.71784,1.45385,1.68,-2.94,-0.07,-20.212,-48.9586,12.203,1014.7
179324,0.0765184,9.78001,1.41559,1.75,-3.22,-0.21,-20.3282,-49.8837,10.7549,1014.7
179330,0.157819,9.7561,1.43472,1.19,-3.22,-0.21,-20.7931,-49.7912,10.1934,1014.7
179336,0.124342,9.7561,1.44428,1.96,-3.01,-0.98,-19.9505,-48.3726,11.0948,1014.7
179342,0.162602,9.78479,1.44428,1.33,-3.57,-1.19,-20.7641,-49.6679,10.1638,1014.69
179348,0.0860832,9.8374,1.38211,1.4,-3.36,-1.33,-20.9384,-49.5137,11.3312,1014.69
179354,0.105213,9.78479,1.41081,1.12,-3.22,-0.98,-20.0376,-47.6941,12.0848,1014.71
179360,0.114778,9.7561,1.46341,1.12,-3.36,-1.54,-19.2531,-48.1876,10.7992,1014.71
179366,0.143472,9.75131,1.48254,0.7,-3.43,-1.26,-19.7761,-49.3903,11.7745,1014.69
179372,0.105213,9.78957,1.41081,1.26,-3.01,-1.47,-20.735,-47.91,11.9813,1014.69
179378,0.0143472,9.81827,1.39168,0.77,-4.2,-1.33,-19.9214,-48.866,10.5776,1014.69
179384,0.0669536,9.66045,1.51124,0.84,-2.87,-1.26,-20.4154,-49.4212,9.55801,1014.69
179390,-0.0430416,9.65088,1.58297,1.26,-3.36,-1.12,-21.229,-48.7735,11.08,1014.69
179396,0.0621712,9.62697,1.51602,1.75,-3.22,-1.12,-21.0546,-47.4782,11.5085,1014.68
179402,-0.0095648,9.67958,1.47298,1.75,-2.94,-0.28,-20.9675,-49.2978,10.8731,1014.68
179408,0.0382592,9.70349,1.46341,1.68,-3.43,-0.21,-20.3573,-48.8969,11.4346,1014.69
179414,0.0430416,9.73697,1.45385,1.89,-2.94,-0.28,-20.1539,-48.6193,12.0257,1014.69
179420,0.0669536,9.71305,1.46341,1.54,-3.85,-0.42,-20.2991,-49.452,11.4789,1014.69
179426,0.148254,9.77523,1.39646,2.03,-3.22,-0.42,-20.8512,-49.2669,10.4446,1014.69
179432,0.095648,9.79436,1.35342,1.89,-3.08,-0.49,-20.5316,-48.496,10.0309,1014.69
179438,0.095648,9.79914,1.41559,1.19,-2.8,-0.98,-20.3863,-48.1567,11.8336,1014.72
179444,0.0573888,9.74175,1.45385,1.47,-3.64,-0.98,-21.0837,-50.223,11.9961,1014.72
179450,0.0813008,9.78001,1.42516,0.91,-3.43,-0.77,-20.7059,-48.0025,12.5576,1014.69
179456,0.176949,9.78479,1.42516,1.12,-3.08,-0.98,-20.9093,-48.2184,12.2473,1014.69
179462,0.13869,9.77044,1.43472,1.19,-3.08,-1.05,-20.735,-50.1613,10.6071,1014.7
179468,0.095648,9.76566,1.4682,0.84,-3.22,-1.47,-20.7059,-48.5576,11.2869,1014.7
179474,0.0382592,9.72262,1.45385,1.19,-3.64,-1.19,-20.7059,-48.7118,12.0109,1014.72
179480,0.0573888,9.7561,1.48254,1.19,-3.01,-0.98,-20.9965,-48.9277,12.0257,1014.72
179486,0.0860832,9.7274,1.46341,1.26,-3.15,-0.84,-20.8222,-49.0202,11.9666,1014.7
179492,0.0765184,9.74653,1.45863,1.19,-3.43,-1.19,-19.8924,-48.4343,11.7301,1014.7
179498,0.0382592,9.70349,1.53037,1.19,-3.01,-1.05,-20.0376,-49.2361,12.1439,1014.7
179504,-0.0191296,9.69392,1.50646,1.68,-3.01,-0.56,-19.9505,-49.9763,9.64667,1014.72
179510,0.0143472,9.7274,1.44428,1.47,-3.5,-0.56,-21.1127,-47.9717,11.1982,1014.72
179516,0.0382592,9.7561,1.45385,1.68,-3.5,-0.77,-20.6478,-48.1567,12.3064,1014.68
179522,0.0430416,9.71305,1.47298,1.47,-2.94,-0.28,-20.1539,-49.1744,11.2869,1014.68
179528,0.0095648,9.72262,1.44428,1.12,-2.94,-0.35,-20.9093,-48.8969,12.5133,1014.69
179534,0.0813008,9.73218,1.44907,1.75,-3.08,0,-20.735,-48.4343,12.3508,1014.69
179540,0.105213,9.76566,1.45863,1.26,-3.08,-0.56,-20.6769,-48.5576,11.8188,1014.71
179546,0.109995,9.76088,1.4682,1.54,-3.15,-0.42,-20.5025,-49.1744,10.9322,1014.71
179552,0.0813008,9.75131,1.44428,1.82,-3.15,-0.63,-20.6478,-48.5576,11.9961,1014.71
179558,0.13869,9.79914,1.45385,0.91,-2.66,-0.84,-20.5897,-49.2053,10.4298,1014.7
179564,0.143472,9.78001,1.47298,0.91,-3.22,-0.98,-20.7059,-49.7295,10.9618,1014.7
179570,0.13869,9.78001,1.50167,1.47,-3.29,-1.68,-20.3863,-48.1876,12.2178,1014.72
179576,0.0813008,9.78001,1.50167,0.98,-2.87,-1.54,-20.4735,-48.2801,12.0404,1014.72
179582,0.0382592,9.78001,1.46341,1.47,-3.01,-1.33,-20.4444,-49.4212,10.2525,1014.71
179588,0.0573888,9.73697,1.5208,0.98,-3.36,-1.33,-20.6478,-49.0819,11.2573,1014.71
179594,0.0430416,9.7274,1.45385,1.26,-3.08,-1.12,-19.7471,-48.6193,12.7793,1014.69
179600,0.0095648,9.72262,1.57341,1.26,-2.8,-1.12,-20.5897,-49.3595,12.2178,1014.69
179606,-0.0382592,9.61741,1.51602,1.68,-3.08,-1.05,-20.0086,-49.5137,10.6662,1014.69
179612,-0.0143472,9.72262,1.4395,1.33,-3.08,-0.42,-20.1539,-47.9717,12.5133,1014.71
179618,-0.023912,9.69871,1.47298,2.1,-3.78,-0.21,-19.9214,-48.4034,12.1439,1014.71
179624,-0.0095648,9.69392,1.49211,1.82,-3.36,-0.49,-20.5316,-49.2978,12.1291,1014.7
179630,-0.0047824,9.70349,1.49689,1.75,-3.29,-0.42,-20.5025,-48.2184,11.671,1014.7
179636,-0.0191296,9.72262,1.45863,1.47,-3.22,0.35,-20.241,-48.0334,11.6858,1014.68
179642,0.0526064,9.7561,1.41559,1.61,-3.43,0.21,-20.3863,-49.637,9.72055,1014.68
179648,0.095648,9.77523,1.40124,1.33,-3.22,-0.63,-19.8633,-48.2492,11.5824,1014.7
179654,0.105213,9.78479,1.44428,1.26,-2.8,-0.7,-20.0667,-48.1259,11.804,1014.7
179660,0.0526064,9.74175,1.44907,0.91,-3.01,-0.21,-19.8342,-48.7427,11.4789,1014.69
179666,0.109995,9.76566,1.44428,0.98,-3.85,-0.63,-20.5607,-49.2361,10.0309,1014.69
179672,0.153037,9.74175,1.47776,1.19,-3.08,-0.56,-19.9795,-48.2184,11.3607,1014.69
179678,0.148254,9.76088,1.53037,1.4,-3.22,-1.05,-20.241,-49.5753,12.1587,1014.69
179684,0.0908656,9.78957,1.51602,0.84,-3.29,-1.4,-20.9384,-49.6987,10.5776,1014.69
179690,-0.0286944,9.74653,1.49689,1.75,-3.5,-1.26,-20.0376,-48.6193,10.3116,1014.72
179696,-0.0191296,9.73697,1.54472,1.26,-3.08,-0.98,-19.9505,-48.4034,11.5233,1014.72
179702,0.0430416,9.7274,1.56863,1.19,-3.29,-0.98,-19.9795,-49.9146,9.9422,1014.71
179708,0.023912,9.78001,1.47776,1.4,-3.08,-0.49,-19.7761,-48.4651,10.7697,1014.71
179714,0,9.72262,1.49689,1.47,-3.15,-0.7,-20.1248,-48.3418,11.2425,1014.71
179720,-0.0765184,9.71784,1.53515,1.54,-3.22,-0.42,-19.9795,-48.5268,10.0752,1014.71
179726,0.0430416,9.6748,1.53037,1.54,-3.36,-0.42,-20.0667,-49.0819,9.67622,1014.71
179732,-0.0526064,9.68914,1.54472,1.89,-3.85,0.07,-19.8342,-48.8044,11.5085,1014.7
179738,-0.0095648,9.67001,1.53037,2.03,-3.85,0.56,-20.0667,-47.725,10.223,1014.7
179744,0.0143472,9.68914,1.51124,2.1,-3.22,0.21,-20.6478,-49.5137,9.77966,1014.71
179750,0.047824,9.72262,1.47776,2.24,-2.94,0.21,-19.5727,-47.7558,11.7597,1014.71
179756,0.095648,9.76566,1.44907,1.82,-3.57,0.35,-20.0376,-48.0334,11.4346,1014.72
179762,0.114778,9.79436,1.46341,1.75,-3.57,0,-20.0667,-49.5445,9.85354,1014.72
179768,0.095648,9.78001,1.47776,1.47,-3.57,-0.63,-19.6308,-48.5576,10.5628,1014.7
179774,0.143472,9.80392,1.45385,2.03,-2.94,-1.05,-20.0086,-47.8483,10.1047,1014.7
179780,0.124342,9.76566,1.44428,1.75,-3.08,-0.42,-20.6188,-48.4343,10.9027,1014.7
179786,0.0526064,9.78001,1.45385,1.33,-3.08,-0.49,-20.5025,-48.8969,9.98653,1014.71
179792,0.0382592,9.77044,1.50646,1.4,-2.59,-1.54,-19.689,-47.6941,11.3903,1014.71
179798,0.0334768,9.70349,1.55906,1.19,-2.87,-0.98,-20.5025,-47.6324,10.6219,1014.71
179804,0.095648,9.69392,1.55906,1.75,-2.8,-1.19,-20.6478,-49.6987,10.5628,1014.71
179810,0.0334768,9.78957,1.44907,1.47,-3.01,-1.19,-19.718,-48.1259,10.9322,1014.71
179816,-0.0286944,9.76566,1.47298,1.26,-2.66,-0.49,-20.1829,-47.6324,10.2673,1014.71
179822,-0.047824,9.70349,1.51602,1.33,-3.15,-0.84,-20.6188,-49.6062,10.09,1014.71
179828,-0.0143472,9.71305,1.5495,1.68,-3.08,-0.49,-20.212,-48.8969,9.98653,1014.71
179834,0.0095648,9.69392,1.51124,1.61,-3.22,-0.56,-20.5897,-48.9586,10.5776,1014.67
179840,-0.0573888,9.68436,1.48254,1.89,-3.08,-0.07,-20.735,-48.8352,10.4594,1014.67
179846,-0.0191296,9.68914,1.47776,1.96,-3.57,-0.56,-20.1829,-49.3595,10.4003,1014.67
179852,0.0191296,9.71305,1.51602,1.96,-3.43,0.42,-19.8924,-47.5708,12.1587,1014.68
