Timestamp,AccX,AccY,AccZ,AngularVelX,AngularVelY,AngularVelZ,MagX,MagY,MagZ,AirPressure
376682,0.368245,9.7274,0.942133,1.68,-3.78,0.49,-23.5826,-45.7512,12.1734,1014.85
376688,0.382592,9.76566,0.942133,2.1,-3.36,0,-23.8731,-47.0157,10.4889,1014.85
376694,0.382592,9.77044,0.932568,1.75,-3.43,-0.14,-23.7569,-47.4166,11.4789,1014.82
376700,0.363462,9.76088,0.942133,2.24,-3.01,0.42,-24.1346,-46.4605,12.7497,1014.82
376706,0.416069,9.78957,0.927786,1.96,-3.08,0.56,-23.6116,-46.0596,12.794,1014.82
376712,0.401722,9.78957,0.903874,2.17,-3.29,0.14,-24.9192,-48.0025,12.2621,1014.86
376718,0.406504,9.79914,0.946915,2.31,-3.36,0.07,-23.8731,-46.3063,13.1635,1014.86
376724,0.392157,9.76566,0.913438,2.1,-3.15,0.35,-23.5535,-46.5839,11.3607,1014.83
376730,0.416069,9.81349,0.913438,2.03,-3.29,0.14,-24.4252,-47.725,11.7301,1014.83
376736,0.392157,9.81827,0.889526,1.82,-3.22,0,-23.9022,-47.3857,10.9322,1014.83
376742,0.382592,9.79914,0.908656,1.68,-3.29,0.07,-24.1056,-46.183,12.2769,1014.83
376748,0.37781,9.8087,0.93735,1.89,-3.71,0,-23.6116,-46.8615,12.07,1014.8
376754,0.382592,9.78001,0.927786,1.75,-3.01,0.07,-24.3671,-48.2184,10.7845,1014.8
376760,0.411286,9.78957,0.966045,1.96,-3.57,0.07,-23.7569,-45.5045,11.9222,1014.83
376766,0.396939,9.78479,0.913438,1.75,-3.08,0.28,-23.786,-46.6764,11.1243,1014.83
376772,0.349115,9.78479,0.932568,2.17,-3.01,0.21,-24.7448,-47.7558,11.7006,1014.83
376778,0.396939,9.78479,0.927786,1.68,-3.43,-0.14,-23.8441,-46.368,11.4937,1014.83
376784,0.396939,9.76566,0.946915,1.96,-3.43,0.07,-24.7158,-46.183,12.5872,1014.83
376790,0.406504,9.75131,0.923003,1.82,-2.66,0.7,-24.2799,-47.2624,10.8288,1014.83
376796,0.387374,9.7561,0.932568,2.1,-3.15,0.21,-23.815,-47.5708,11.9813,1014.83
376802,0.411286,9.79436,0.93735,2.17,-3.15,-0.35,-23.6988,-46.8615,11.937,1014.82
376808,0.373027,9.79436,0.951698,2.31,-3.64,0.7,-23.7569,-47.6016,11.4789,1014.82
376814,0.382592,9.79914,0.95648,2.31,-3.5,0.77,-24.0765,-48.3726,11.7745,1014.83
376820,0.420851,9.79914,0.918221,2.17,-3.36,0.7,-23.7569,-46.0905,12.2325,1014.83
376826,0.401722,9.78957,0.908656,1.75,-3.22,0.49,-23.786,-46.5531,11.0209,1014.83
376832,0.392157,9.79436,0.932568,2.24,-3.57,0.42,-23.9894,-47.6941,12.1439,1014.86
376838,0.401722,9.77523,0.942133,2.03,-3.36,0.63,-24.3671,-46.3372,11.0948,1014.86
376844,0.392157,9.77044,0.946915,2.03,-3.29,0.77,-23.8731,-45.597,11.346,1014.8
376850,0.425634,9.81349,0.932568,1.61,-3.29,0.63,-23.6116,-47.0465,11.1539,1014.8
376856,0.396939,9.79436,0.927786,2.24,-3.43,0.35,-24.4833,-46.9848,11.3164,1014.82
376862,0.430416,9.7561,0.908656,2.1,-3.85,0.28,-23.6988,-45.0419,12.6906,1014.82
376868,0.425634,9.78957,0.913438,2.1,-3.22,0.63,-24.5705,-46.8615,12.2325,1014.82
376874,0.401722,9.76566,0.932568,1.96,-3.57,0.77,-24.0184,-47.725,12.1882,1014.82
376880,0.37781,9.75131,0.95648,2.1,-2.87,0.7,-24.1346,-46.4914,12.5281,1014.82
376886,0.396939,9.7561,0.93735,2.24,-3.43,0.84,-23.6988,-46.1213,11.5972,1014.83
376892,0.396939,9.76088,0.946915,2.38,-2.94,0.28,-24.4833,-48.1259,11.804,1014.83
376898,0.425634,9.78957,0.951698,2.03,-3.43,0.21,-23.2048,-46.8306,12.4985,1014.86
376904,0.425634,9.78957,0.923003,2.03,-3.57,0.84,-24.1637,-45.7204,12.6463,1014.86
376910,0.406504,9.81827,0.951698,2.38,-3.99,0.21,-23.7278,-46.3989,11.5972,1014.84
376916,0.416069,9.80392,0.932568,2.38,-3.36,0.56,-24.4833,-47.139,13.0452,1014.84
376922,0.45911,9.76088,0.908656,1.96,-3.43,0.42,-23.9022,-46.4605,11.5972,1014.79
376928,0.411286,9.78001,0.899091,2.24,-3.57,0.21,-24.1637,-47.2007,11.7006,1014.79
376934,0.430416,9.78479,0.913438,2.31,-3.08,0.14,-24.1056,-47.8175,11.1539,1014.82
376940,0.430416,9.79436,0.927786,1.75,-3.29,0,-23.9022,-46.4605,13.3408,1014.82
376946,0.435198,9.79436,0.946915,1.75,-3.29,0.07,-24.1637,-46.2447,11.6119,1014.82
376952,0.37781,9.77523,0.946915,2.17,-3.5,0.49,-24.6286,-48.1567,11.6267,1014.83
376958,0.416069,9.78479,0.932568,1.89,-3.43,0.28,-24.0475,-46.6764,12.3951,1014.83
376964,0.416069,9.78479,0.918221,1.61,-2.8,0.21,-24.2218,-46.0905,13.3555,1014.8
376970,0.435198,9.81827,0.93735,1.82,-2.73,-0.07,-24.4543,-47.5708,12.336,1014.8
376976,0.396939,9.80392,0.923003,1.47,-2.94,0.42,-24.1928,-47.2007,12.1143,1014.82
376982,0.396939,9.79914,0.923003,1.54,-3.29,0.77,-24.2218,-45.4737,12.5133,1014.82
376988,0.430416,9.78479,0.961262,1.82,-3.36,0.35,-23.5826,-46.1213,11.3755,1014.82
376994,0.435198,9.76088,0.966045,1.54,-3.36,-0.07,-24.1056,-47.139,11.5233,1014.82
377000,0.45911,9.80392,0.923003,1.54,-3.36,0.49,-24.1346,-46.0288,12.6167,1014.82
377006,0.439981,9.79914,0.942133,1.82,-3.29,0.35,-23.815,-46.3372,12.4985,1014.81
377012,0.406504,9.79436,0.927786,1.89,-3.36,-0.14,-24.309,-46.8306,10.1491,1014.81
377018,0.406504,9.78957,0.942133,1.96,-3.15,-0.21,-24.1928,-46.3989,11.9666,1014.82
377024,0.435198,9.76088,0.93735,1.61,-3.01,0.14,-23.4373,-45.412,13.1782,1014.82
377030,0.449546,9.79436,0.923003,1.4,-3.29,-0.42,-23.3792,-46.6456,11.3312,1014.83
377036,0.37781,9.79914,0.923003,1.96,-2.94,0,-23.815,-46.7689,13.3408,1014.83
377042,0.353898,9.78957,0.927786,1.68,-3.22,0,-23.9022,-45.1344,12.7054,1014.8
377048,0.387374,9.78479,0.942133,1.89,-2.8,0.14,-24.4252,-46.3372,13.2964,1014.8
377054,0.435198,9.79914,0.903874,1.75,-3.43,0.14,-24.1056,-47.0465,12.9861,1014.85
377060,0.439981,9.79436,0.942133,1.89,-3.5,0.07,-23.4954,-46.3372,12.2178,1014.85
377066,0.449546,9.79914,0.913438,1.61,-3.15,-0.14,-24.3671,-46.7073,10.1195,1014.85
377072,0.425634,9.79914,0.913438,1.61,-2.94,0,-23.9022,-46.8923,9.89787,1014.84
377078,0.406504,9.7561,0.951698,1.68,-3.01,0,-23.9894,-46.4297,12.9861,1014.84
377084,0.401722,9.79436,0.932568,1.47,-2.94,-0.07,-24.1637,-45.5045,11.4198,1014.84
377090,0.444763,9.77523,0.923003,1.61,-2.94,-0.14,-24.0765,-47.0157,10.9765,1014.84
377096,0.425634,9.78479,0.927786,1.54,-3.29,-0.14,-24.1637,-46.6456,12.4985,1014.81
377102,0.430416,9.78957,0.946915,1.82,-3.29,-0.07,-23.4082,-45.6895,12.4837,1014.81
377108,0.416069,9.79914,0.889526,1.61,-2.87,-0.35,-23.9894,-46.5222,11.804,1014.81
377114,0.420851,9.79436,0.951698,1.54,-3.08,-0.28,-24.2218,-47.0465,11.0061,1014.81
377120,0.392157,9.78479,0.927786,1.82,-3.08,-0.28,-24.7158,-45.6279,13.3112,1014.81
377126,0.382592,9.77044,0.970827,1.54,-2.87,-0.28,-24.338,-46.0596,13.2226,1014.84
377132,0.411286,9.77044,0.951698,1.54,-3.15,0.21,-23.9603,-47.4166,11.2277,1014.84
377138,0.420851,9.79436,0.927786,1.68,-3.36,0.21,-23.8731,-46.3989,11.9813,1014.81
377144,0.368245,9.78957,0.932568,1.61,-2.87,-0.21,-23.815,-45.8129,14.5968,1014.81
377150,0.425634,9.79914,0.951698,1.82,-2.66,0,-24.0475,-46.7381,12.3803,1014.81
377156,0.396939,9.80392,0.927786,1.54,-3.15,0.14,-23.815,-47.2932,11.7597,1014.81
377162,0.425634,9.78001,0.918221,1.68,-3.08,0,-23.7278,-45.9671,12.8236,1014.81
377168,0.416069,9.78001,0.918221,1.54,-3.15,0.28,-24.2218,-46.6764,12.203,1014.81
377174,0.425634,9.78001,0.93735,1.96,-3.15,0.14,-23.7569,-47.2007,11.8631,1014.81
377180,0.439981,9.78479,0.918221,1.75,-2.94,-0.07,-24.8029,-45.6895,12.7349,1014.81
377186,0.425634,9.78479,0.899091,1.82,-3.29,0.07,-24.0184,-45.6279,12.7054,1014.81
377192,0.387374,9.77523,0.95648,2.03,-3.92,-0.49,-23.5244,-47.3857,12.5872,1014.83
377198,0.406504,9.79914,0.95648,1.75,-2.94,0.35,-24.0184,-46.1521,12.5281,1014.83
377204,0.411286,9.78957,0.966045,1.61,-2.94,-0.07,-23.6697,-46.2138,12.4099,1014.83
377210,0.382592,9.78479,0.927786,1.96,-2.94,-0.21,-23.7278,-47.0773,12.8236,1014.83
377216,0.439981,9.79914,0.961262,1.82,-3.29,-0.07,-23.9894,-47.0465,12.8975,1014.81
377222,0.425634,9.79436,0.932568,1.75,-3.22,0.07,-23.6116,-45.8437,13.0305,1014.81
377228,0.420851,9.76088,0.951698,1.96,-3.43,17.85,-23.9312,-46.2447,12.6463,1014.82
377234,0.406504,9.79436,0.903874,1.47,-3.01,0.14,-23.5535,-47.2315,11.1095,1014.82
377240,0.420851,9.82783,0.923003,1.61,-3.43,0.42,-23.6988,-45.7204,11.8484,1014.82
377246,0.454328,9.8087,0.93735,1.82,-3.22,0.14,-23.4082,-46.1521,11.7597,1014.84
377252,0.454328,9.79436,0.923003,2.17,-3.01,-0.07,-23.1177,-47.4782,11.7154,1014.84
377258,0.435198,9.78957,0.951698,1.68,-3.15,-0.35,-23.815,-46.6147,12.0552,1014.82
377264,0.382592,9.78479,0.908656,1.68,-3.43,-0.14,-23.4663,-46.3063,11.8188,1014.82
377270,0.373027,9.78479,0.932568,1.61,-3.78,-0.07,-24.5414,-47.725,9.9422,1014.8
377276,0.435198,9.78479,0.908656,1.82,-3.08,-0.28,-23.4082,-46.5222,10.9027,1014.8
377282,0.382592,9.78479,0.93735,1.54,-2.87,-0.21,-23.5535,-45.7821,12.2916,1014.8
377288,0.435198,9.74175,0.932568,2.17,-3.01,0,-24.0475,-46.5222,11.7449,1014.8
377294,0.387374,9.78001,0.932568,1.68,-3.36,0.07,-23.9312,-47.1698,11.4642,1014.8
377300,0.396939,9.76088,0.923003,1.61,-3.08,0.35,-23.6697,-46.2447,12.1734,1014.85
377306,0.416069,9.7561,0.93735,1.68,-2.94,0.14,-23.6407,-46.3063,12.7793,1014.85
377312,0.449546,9.78001,0.946915,1.47,-3.15,-0.35,-24.1056,-47.0157,10.5185,1014.8
377318,0.468675,9.78001,0.903874,1.75,-2.87,-0.21,-23.4373,-46.5531,12.2621,1014.8
377324,0.420851,9.74653,0.946915,1.68,-3.01,0.07,-23.9022,-46.368,12.5428,1014.82
377330,0.420851,9.76088,0.942133,1.75,-2.87,0,-23.4373,-47.2932,11.1391,1014.82
377336,0.416069,9.78957,0.927786,1.96,-3.01,-0.91,-23.9894,-47.4474,11.2425,1014.82
377342,0.396939,9.7561,0.946915,1.89,-3.15,0.14,-23.6697,-46.2755,11.9961,1014.82
377348,0.416069,9.77523,0.93735,1.68,-3.01,0.07,-24.338,-47.4474,11.4494,1014.82
377354,0.396939,9.78957,0.946915,1.47,-2.8,-0.21,-23.815,-47.9717,11.2573,1014.82
377360,0.401722,9.80392,0.966045,1.4,-3.22,-0.14,-23.6697,-47.3549,12.2473,1014.82
377366,0.425634,9.82783,0.932568,1.68,-3.15,-0.42,-24.0184,-46.4914,12.7793,1014.82
377372,0.449546,9.78957,0.884744,1.54,-3.5,-0.7,-23.7278,-47.6941,11.0652,1014.82
377378,0.420851,9.82783,0.946915,1.33,-3.22,-0.07,-24.3671,-47.4166,12.0848,1014.82
377384,0.439981,9.77523,0.946915,1.68,-3.08,-0.35,-23.0595,-46.368,11.9813,1014.82
377390,0.47824,9.79436,0.932568,1.61,-3.01,-0.49,-24.4252,-48.1567,12.1734,1014.81
377396,0.430416,9.77044,0.95648,1.75,-3.15,-0.42,-24.5124,-47.7866,12.602,1014.81
377402,0.473458,9.78479,0.951698,1.47,-3.08,-0.42,-23.4082,-46.2755,12.8236,1014.81
377408,0.416069,9.78957,0.932568,1.68,-2.94,-0.42,-23.5535,-46.7998,12.2473,1014.81
377414,0.401722,9.78479,0.918221,1.54,-3.01,-0.7,-24.1346,-46.8615,10.947,1014.81
377420,0.387374,9.80392,0.913438,1.68,-3.57,-0.77,-23.9603,-46.7381,12.6167,1014.84
377426,0.435198,9.78001,0.93735,1.33,-3.43,-0.21,-23.4082,-46.0596,11.9075,1014.84
377432,0.425634,9.79914,0.951698,1.4,-3.22,-0.77,-24.338,-46.8923,11.3164,1014.84
377438,0.435198,9.78001,0.951698,1.68,-2.87,-0.49,-24.1928,-46.6764,12.9123,1014.84
377444,0.392157,9.82305,0.908656,1.47,-3.15,-0.63,-23.6988,-45.9979,12.4394,1014.81
377450,0.387374,9.79436,0.942133,1.05,-3.01,-0.63,-24.3961,-46.9231,12.2178,1014.81
377456,0.420851,9.76088,0.951698,1.05,-2.94,-0.7,-23.2048,-46.7689,12.6167,1014.82
377462,0.392157,9.76088,0.93735,1.33,-2.87,-0.63,-23.2048,-45.9054,11.7449,1014.82
377468,0.425634,9.7561,0.966045,1.61,-3.01,-0.28,-23.786,-46.3989,11.1391,1014.82
377474,0.37781,9.78001,0.942133,1.33,-2.66,0,-24.2799,-47.725,11.8779,1014.83
377480,0.401722,9.7274,1.0043,1.54,-2.94,-0.56,-23.8731,-45.9979,10.7992,1014.83
377486,0.392157,9.74653,0.946915,1.68,-3.22,-0.49,-23.2339,-46.3063,11.9222,1014.83
377492,0.353898,9.76088,0.970827,1.96,-3.08,0,-23.8731,-46.8306,11.213,1014.83
377498,0.411286,9.77523,0.942133,1.96,-3.01,-0.35,-23.4663,-46.2755,12.1439,1014.82
377504,0.387374,9.78479,0.946915,1.75,-2.8,-0.14,-23.2629,-45.5353,12.0848,1014.82
377510,0.416069,9.8087,0.942133,1.54,-3.01,0,-23.4373,-46.7998,11.6563,1014.82
377516,0.420851,9.79436,0.946915,1.89,-3.15,-0.63,-23.4082,-46.2447,11.9518,1014.82
377522,0.47824,9.79436,0.923003,1.4,-2.59,-0.14,-23.9022,-45.0419,13.4147,1014.82
377528,0.430416,9.80392,0.913438,1.54,-2.73,-0.28,-23.8441,-46.6147,11.7301,1014.83
377534,0.387374,9.81349,0.951698,1.89,-2.94,-0.35,-23.5826,-47.2315,11.7449,1014.83
377540,0.392157,9.80392,0.980392,1.33,-2.73,-0.49,-23.6407,-45.8746,13.0748,1014.79
377546,0.401722,9.76088,0.970827,1.47,-3.08,-0.56,-23.1177,-45.7204,12.3655,1014.79
377552,0.406504,9.78001,0.961262,2.1,-3.64,-0.49,-24.0475,-47.5708,11.2869,1014.8
377558,0.425634,9.76566,0.985174,1.82,-3.15,-0.63,-23.292,-46.954,12.5281,1014.8
377564,0.396939,9.78957,0.946915,1.82,-2.87,-0.42,-23.5535,-46.3989,13.3112,1014.8
377570,0.387374,9.78957,0.942133,1.82,-3.08,-0.56,-23.7278,-47.5399,11.6119,1014.8
377576,0.37781,9.76088,0.932568,1.89,-3.36,-0.49,-24.2509,-46.8923,12.1587,1014.82
377582,0.401722,9.77044,0.932568,1.82,-3.15,-0.28,-23.1758,-45.6587,12.1291,1014.82
377588,0.411286,9.75131,0.95648,1.82,-2.8,-0.21,-23.6697,-46.3063,12.6906,1014.82
377594,0.387374,9.78957,0.942133,1.54,-3.01,0.07,-22.9724,-46.7998,10.814,1014.83
377600,0.396939,9.81349,0.942133,1.54,-3.78,-0.14,-23.6407,-45.597,13.0157,1014.83
377606,0.435198,9.80392,0.946915,1.19,-3.15,-0.63,-22.9433,-46.0905,12.8975,1014.79
377612,0.425634,9.83261,0.875179,1.82,-3.22,-0.42,-23.815,-46.7689,11.7449,1014.79
377618,0.37781,9.82305,0.93735,1.61,-3.22,-0.42,-22.9433,-46.2138,12.4542,1014.83
377624,0.37781,9.79914,0.97561,1.26,-3.22,-0.35,-22.5075,-46.2755,12.1734,1014.83
377630,0.373027,9.77523,0.970827,1.54,-2.94,-0.28,-23.3211,-46.7381,11.5528,1014.81
377636,0.406504,9.77523,0.961262,1.47,-3.01,-0.14,-23.1177,-46.8923,11.5676,1014.81
377642,0.468675,9.78001,0.95648,1.54,-3.29,-0.35,-23.8731,-45.6895,12.5576,1014.81
377648,0.416069,9.77523,0.980392,1.75,-3.15,-0.42,-23.3501,-46.7381,10.8583,1014.82
377654,0.430416,9.78479,0.985174,1.89,-3.64,-0.84,-23.5826,-47.2007,11.8927,1014.82
377660,0.406504,9.78479,0.961262,1.54,-3.01,-0.49,-23.4373,-46.0905,11.8927,1014.8
377666,0.425634,9.77523,0.961262,2.17,-3.01,-0.49,-23.3501,-46.4297,12.1882,1014.8
377672,0.387374,9.77044,0.970827,1.75,-3.57,-0.98,-23.292,-47.324,11.8631,1014.82
377678,0.368245,9.77523,0.966045,1.61,-3.36,-0.49,-24.1346,-47.9717,10.2082,1014.82
377684,0.406504,9.78957,0.961262,1.82,-3.5,-0.49,-23.5535,-45.3503,12.5872,1014.82
377690,0.382592,9.74653,0.97561,1.96,-3.43,-0.77,-23.6407,-47.0773,12.1291,1014.82
377696,0.411286,9.76566,0.966045,1.96,-2.8,-0.42,-23.9603,-46.8306,11.6563,1014.82
377702,0.37781,9.78957,0.93735,1.68,-3.01,-0.21,-23.9603,-45.8437,11.7301,1014.8
377708,0.387374,9.78001,0.970827,1.47,-2.94,-0.42,-23.786,-47.2007,12.4985,1014.8
377714,0.392157,9.8087,0.932568,1.75,-2.94,-0.42,-23.6116,-47.0773,11.804,1014.82
377720,0.353898,9.78479,0.95648,1.47,-3.22,-0.28,-23.1177,-46.3372,12.2325,1014.82
377726,0.396939,9.79914,0.97561,1.47,-3.29,-0.28,-23.4954,-46.2447,12.2916,1014.81
377732,0.387374,9.76566,0.980392,1.4,-2.73,-0.63,-23.4663,-47.1082,11.7154,1014.81
377738,0.420851,9.76566,0.999522,1.96,-3.64,-0.28,-23.9894,-45.8129,12.7793,1014.82
377744,0.37781,9.76566,0.961262,1.54,-3.08,-0.07,-23.0305,-45.7204,12.927,1014.82
377750,0.387374,9.78001,0.985174,2.31,-3.36,-0.28,-23.2339,-46.7073,11.5972,1014.8
377756,0.392157,9.78479,0.985174,2.17,-3.08,-0.49,-23.8731,-46.8306,11.8188,1014.8
377762,0.387374,9.78001,0.966045,1.75,-2.66,-0.07,-23.815,-46.3372,12.0404,1014.8
377768,0.439981,9.78957,0.980392,2.1,-3.29,-0.14,-24.1346,-46.3989,12.5872,1014.86
377774,0.416069,9.80392,0.951698,1.82,-2.8,-0.7,-23.2339,-47.0157,11.1391,1014.86
377780,0.37781,9.79436,1.0043,2.17,-3.43,-0.56,-23.292,-46.0596,12.1882,1014.84
377786,0.416069,9.79436,0.95648,2.52,-3.36,-0.28,-23.0305,-46.3372,11.8188,1014.84
377792,0.420851,9.78957,0.95648,1.68,-3.08,-0.49,-24.2799,-47.6016,12.5428,1014.85
377798,0.430416,9.81349,0.93735,1.89,-2.66,-0.77,-23.5826,-46.1521,12.5724,1014.85
377804,0.411286,9.80392,0.932568,1.47,-2.8,-0.63,-23.2629,-46.2138,13.3851,1014.85
377810,0.37781,9.79914,0.946915,1.4,-2.94,-0.42,-23.3792,-47.5708,13.5181,1014.85
377816,0.368245,9.8087,0.932568,1.47,-3.01,-0.07,-24.1056,-47.2932,12.4246,1014.85
377822,0.382592,9.78479,0.913438,1.19,-3.08,-0.84,-23.292,-46.1213,12.2621,1014.87
377828,0.401722,9.77044,0.966045,1.33,-2.87,-0.63,-23.4663,-46.9231,12.1734,1014.87
377834,0.401722,9.77044,0.994739,1.68,-3.29,-0.35,-23.786,-47.2932,12.4837,1014.83
377840,0.368245,9.78957,0.970827,1.33,-3.01,-0.35,-23.8441,-45.9054,12.9566,1014.83
377846,0.396939,9.79436,0.951698,1.82,-2.87,-0.35,-23.4663,-46.4605,12.4837,1014.82
377852,0.344333,9.78479,0.97561,1.89,-2.59,-0.35,-23.786,-47.5708,12.336,1014.82
377858,0.406504,9.77044,0.942133,1.61,-2.8,-0.21,-23.7569,-45.9979,11.9813,1014.82
377864,0.396939,9.79436,0.961262,1.82,-3.15,-0.56,-23.4954,-46.1521,11.346,1014.82
377870,0.392157,9.79914,0.946915,1.89,-3.22,-0.35,-22.769,-47.0465,11.0948,1014.82
377876,0.382592,9.78957,0.95648,1.54,-2.73,-0.56,-23.4373,-47.4474,11.937,1014.85
377882,0.430416,9.79914,0.95648,1.12,-3.29,-0.77,-24.2799,-46.3063,10.2525,1014.85
377888,0.416069,9.79914,0.97561,1.89,-3.36,-0.21,-23.4373,-46.368,11.2573,1014.82
377894,0.37781,9.77044,0.994739,1.4,-3.15,-0.56,-23.292,-46.3989,12.0996,1014.82
377900,0.363462,9.78479,0.999522,1.47,-3.43,-0.77,-23.2339,-46.2138,12.602,1014.78
377906,0.406504,9.74175,0.961262,1.12,-3.36,0.14,-22.9143,-46.954,12.0404,1014.78
377912,0.430416,9.76088,0.95648,2.31,-3.36,-0.35,-22.9143,-47.4474,11.3755,1014.81
377918,0.392157,9.77523,0.980392,1.75,-3.15,0,-23.6116,-46.0905,11.8336,1014.81
377924,0.387374,9.77523,0.970827,1.89,-2.73,-0.21,-23.1177,-45.597,12.7202,1014.85
377930,0.387374,9.79436,0.946915,1.26,-2.66,-0.63,-23.292,-46.0288,12.9418,1014.85
377936,0.401722,9.78001,0.961262,1.47,-3.22,-0.56,-23.0305,-46.8615,10.9322,1014.85
377942,0.420851,9.77523,0.980392,1.96,-3.29,-0.14,-22.9724,-45.8746,12.9418,1014.85
377948,0.353898,9.77044,0.927786,1.54,-3.22,-0.7,-23.4954,-46.9848,11.4051,1014.85
377954,0.387374,9.78957,0.966045,1.54,-3.15,-0.91,-23.4373,-47.3857,10.4741,1014.82
377960,0.392157,9.75131,1.0043,1.61,-3.29,-0.35,-22.6237,-45.6895,12.1587,1014.82
377966,0.382592,9.78001,0.942133,1.47,-3.01,-0.07,-24.0765,-45.9979,11.9961,1014.82
377972,0.363462,9.79914,0.951698,1.82,-3.08,-0.35,-23.9022,-46.4297,11.3312,1014.82
377978,0.411286,9.78479,0.93735,1.47,-3.22,-0.7,-24.5705,-46.6764,13.1191,1014.82
377984,0.411286,9.78479,0.961262,1.47,-3.36,-0.42,-23.5244,-45.5045,11.9075,1014.82
377990,0.439981,9.79436,0.93735,1.61,-3.08,-0.91,-24.309,-47.3857,12.0996,1014.82
377996,0.411286,9.79436,0.93735,1.26,-2.73,-0.63,-24.4833,-46.8306,11.1686,1014.85
378002,0.334768,9.79914,0.93735,1.68,-2.94,-0.63,-22.9724,-46.1213,13.4885,1014.85
378008,0.37781,9.78001,0.951698,1.96,-3.71,-1.05,-23.1177,-46.8923,12.1291,1014.82
378014,0.373027,9.78001,1.0043,1.12,-3.08,-0.98,-23.6116,-47.139,10.5924,1014.82
378020,0.37781,9.77523,0.985174,1.47,-2.45,-0.35,-23.7278,-45.4428,12.6315,1014.81
378026,0.353898,9.76088,0.980392,1.47,-3.22,-0.84,-23.6988,-45.5353,12.0257,1014.81
378032,0.368245,9.75131,0.994739,1.61,-3.43,-1.12,-23.4954,-47.3549,11.2573,1014.82
378038,0.35868,9.7274,1.01865,1.96,-3.01,-0.77,-23.3792,-46.6147,12.4394,1014.82
378044,0.349115,9.77523,1.01387,1.82,-2.59,-0.14,-23.4663,-45.9363,12.336,1014.82
378050,0.33955,9.78001,0.980392,1.82,-3.15,-0.98,-23.6407,-46.5531,11.7154,1014.84
378056,0.396939,9.78479,0.942133,2.03,-3.29,-0.77,-23.3211,-46.7073,12.3508,1014.84
378062,0.37781,9.77523,0.913438,1.96,-3.15,-0.63,-23.5535,-45.6587,13.7397,1014.81
378068,0.382592,9.79436,0.942133,1.68,-2.94,-0.56,-23.4663,-46.9231,12.5872,1014.81
378074,0.334768,9.79914,0.97561,1.75,-3.08,-0.14,-23.786,-46.5839,11.0652,1014.84
378080,0.368245,9.78001,0.951698,1.89,-3.36,-0.77,-23.5244,-46.1213,11.671,1014.84
378086,0.382592,9.79914,0.93735,1.75,-3.08,-0.77,-23.2048,-45.412,11.3607,1014.79
378092,0.401722,9.81827,0.927786,1.33,-2.8,-0.56,-23.6116,-46.5839,11.4198,1014.79
378098,0.37781,9.81827,0.918221,1.12,-3.08,-0.91,-23.7569,-47.1082,12.5281,1014.82
378104,0.334768,9.80392,0.932568,1.54,-3.15,-1.12,-23.6988,-45.5045,12.9123,1014.82
378110,0.35868,9.74653,0.989957,1.68,-3.15,-0.7,-23.3792,-47.2932,11.937,1014.82
378116,0.392157,9.78479,0.961262,1.05,-2.94,-1.12,-23.8441,-46.7073,11.8336,1014.84
378122,0.430416,9.8087,0.927786,1.19,-2.94,-0.91,-22.6237,-45.6895,12.3212,1014.84
378128,0.363462,9.80392,0.951698,0.49,-3.01,-1.4,-23.815,-46.7381,11.8631,1014.83
378134,0.387374,11.0139,0.985174,1.61,-3.29,-1.19,-23.5244,-47.5399,11.2721,1014.83
378140,0.406504,9.78957,0.966045,0.77,-2.38,-0.98,-22.7109,-45.9054,11.7597,1014.8
378146,0.363462,9.84696,0.961262,1.26,-2.8,-1.61,-23.3792,-45.6895,12.9714,1014.8
378152,0.320421,9.82783,0.932568,0.91,-3.22,-1.12,-24.1637,-47.2315,11.3607,1014.83
378158,0.334768,9.75131,0.966045,0.98,-3.22,-0.98,-23.4954,-46.5839,11.7745,1014.83
378164,0.301291,9.77044,1.01865,0.7,-3.01,-1.26,-23.2339,-45.8746,13.2373,1014.83
378170,0.310856,9.77523,0.985174,0.84,-2.73,-1.19,-23.8441,-47.5708,12.0848,1014.83
378176,0.363462,9.79914,0.985174,1.33,-3.43,-1.05,-23.4373,-46.6764,10.9765,1014.83
378182,0.344333,9.78001,0.946915,1.19,-3.43,-1.05,-23.3792,-46.0596,12.5872,1014.84
378188,0.349115,9.81349,0.980392,0.84,-3.22,-0.7,-23.0886,-46.5531,11.6858,1014.84
378194,0.325203,9.78479,0.95648,0.84,-3.36,-1.12,-23.4954,-47.6941,11.6119,1014.83
378200,0.373027,9.76088,0.961262,0.63,-3.22,-0.63,-23.0595,-45.7821,12.2916,1014.83
378206,0.382592,9.77523,1.0043,0.77,-3.36,-0.91,-23.4663,-46.368,12.7497,1014.86
378212,0.349115,9.77523,1.00909,0.77,-3.01,-0.98,-23.6116,-47.3549,11.3607,1014.86
378218,0.349115,9.78001,0.999522,0.77,-2.66,-0.84,-22.798,-46.6147,12.5576,1014.86
378224,0.310856,9.76088,0.994739,0.7,-3.08,-0.63,-23.4663,-45.4737,11.8631,1014.85
378230,0.286944,9.79914,0.985174,1.05,-2.87,-0.63,-23.3792,-47.4474,11.0357,1014.85
378236,0.344333,9.73697,1.01865,0.63,-3.08,-0.56,-23.3211,-48.1259,11.5233,1014.83
378242,0.315638,9.79436,1.04735,1.26,-3.5,-0.7,-23.4082,-45.6895,13.193,1014.83
378248,0.310856,9.74175,1.04256,0.91,-3.29,-0.35,-23.8731,-46.6764,12.4542,1014.81
378254,0.329986,9.78001,0.989957,1.26,-3.43,-0.63,-23.4954,-46.7381,12.7497,1014.81
378260,0.306074,9.76566,1.0043,1.05,-3.43,-0.35,-23.4373,-46.4914,13.0748,1014.82
378266,0.334768,9.78479,0.999522,1.61,-3.08,-0.28,-22.8271,-46.2138,11.3903,1014.82
378272,0.35868,9.75131,0.999522,1.26,-3.15,-0.07,-23.4373,-47.6324,9.70578,1014.79
378278,0.353898,9.77523,1.04735,1.61,-3.5,-0.49,-23.9312,-46.7381,10.947,1014.79
378284,0.35868,9.78479,0.999522,1.61,-2.94,-0.42,-23.0305,-46.0905,12.1734,1014.79
378290,0.349115,9.7561,1.0043,1.75,-3.29,-0.35,-23.2629,-46.8923,9.95698,1014.83
378296,0.325203,9.78957,1.02343,2.03,-2.94,-0.21,-23.6116,-47.2624,10.9027,1014.83
378302,0.315638,9.81827,1.0043,1.82,-3.15,-0.14,-23.2048,-46.2447,12.6463,1014.82
378308,0.353898,9.7561,1.01387,2.17,-2.8,-0.21,-23.4373,-46.8615,11.6563,1014.82
378314,0.387374,9.77523,1.00909,1.96,-3.01,-0.21,-23.4082,-47.6324,11.5528,1014.84
378320,0.334768,9.81349,0.980392,2.24,-3.29,-0.14,-23.7278,-46.0905,13.193,1014.84
378326,0.33955,9.79914,0.961262,1.96,-3.29,-0.14,-23.292,-46.5839,13.0157,1014.84
378332,0.320421,9.81349,1.033,1.75,-2.94,0.21,-23.6407,-47.4166,10.9913,1014.84
378338,0.373027,9.78957,1.01387,1.89,-2.87,-0.77,-23.9022,-46.6147,11.1982,1014.84
378344,0.329986,9.76566,1.02343,1.61,-3.01,-0.28,-23.7278,-45.7821,11.8927,1014.79
378350,0.320421,9.78957,0.985174,2.24,-3.5,-0.07,-23.4954,-47.0157,12.3951,1014.79
378356,0.382592,9.78957,0.980392,2.24,-2.94,-0.63,-23.0305,-47.6633,11.213,1014.83
378362,0.439981,9.80392,0.999522,2.03,-3.01,-0.77,-23.7278,-45.9363,12.3803,1014.83
378368,0.430416,9.79436,0.97561,1.75,-3.08,-0.98,-23.9894,-46.7998,12.1439,1014.84
378374,0.363462,9.8374,0.985174,1.68,-3.08,-0.49,-24.2509,-47.8483,11.8779,1014.84
378380,0.315638,9.8374,0.946915,1.4,-2.73,-1.19,-23.5826,-46.2447,11.2721,1014.83
378386,0.282162,9.78001,1.0043,1.12,-2.94,-0.84,-23.2629,-45.8129,13.7693,1014.83
378392,0.37781,9.78479,1.00909,1.89,-3.01,-0.98,-23.9312,-47.5399,11.3164,1014.83
378398,0.325203,9.8087,0.93735,1.33,-3.01,-0.7,-23.5826,-46.2138,10.7697,1014.82
378404,0.315638,9.76566,0.989957,1.68,-2.94,-0.77,-23.9603,-46.1213,12.9861,1014.82
378410,0.282162,9.75131,1.02343,1.33,-2.73,-1.33,-23.7569,-48.0025,10.0456,1014.85
378416,0.282162,9.71305,1.07126,1.54,-3.08,-0.98,-23.4954,-46.7998,10.947,1014.85
378422,0.291726,9.7274,1.03778,1.89,-3.08,0.14,-23.4954,-46.368,11.2869,1014.85
378428,0.296509,9.77044,1.00909,2.24,-3.29,-0.14,-23.6988,-46.954,12.8679,1014.85
378434,0.282162,9.77523,1.01865,2.03,-3.15,-0.49,-24.1346,-47.7866,11.6415,1014.83
378440,0.349115,9.77523,0.970827,1.75,-3.57,0.14,-23.815,-46.4297,12.6463,1014.83
378446,0.416069,9.78001,0.966045,1.89,-3.01,-0.14,-23.6988,-46.3989,11.2277,1014.82
378452,0.411286,9.82305,0.942133,1.89,-2.59,-0.91,-24.309,-47.4166,11.4494,1014.82
378458,0.420851,9.8087,0.927786,1.26,-2.38,-0.56,-24.5124,-46.9848,12.4542,1014.82
378464,0.382592,9.82783,0.966045,1.54,-3.15,-0.91,-23.4082,-45.7204,13.1339,1014.85
378470,0.425634,9.82305,0.93735,0.84,-2.66,-0.84,-22.9433,-47.0773,11.4789,1014.85
378476,0.420851,9.79914,1.03778,0.98,-2.73,-1.19,-23.4954,-48.3109,11.804,1014.83
378482,0.382592,9.84218,0.97561,0.91,-2.24,-1.61,-23.292,-46.954,11.5233,1014.83
378488,0.363462,9.83261,1.0043,0.49,-2.66,-1.96,-23.3501,-46.954,12.6315,1014.82
378494,0.272597,9.83261,1.01387,0.98,-2.94,-1.82,-23.1177,-47.4782,10.814,1014.82
378500,0.315638,9.76566,1.04735,0.63,-2.66,-2.24,-23.2629,-45.7821,11.5381,1014.88
378506,0.277379,9.78957,1.04256,1.26,-3.15,-1.68,-23.7278,-47.1698,12.4985,1014.88
378512,0.248685,9.84218,1.02343,0.98,-2.94,-1.19,-23.8441,-48.4343,12.7793,1014.88
378518,0.263032,9.78001,1.033,1.12,-2.87,-1.47,-23.3211,-47.0157,10.2377,1014.83
378524,0.282162,9.78001,1.03778,1.61,-3.29,-1.33,-23.4373,-45.597,13.0157,1014.83
378530,0.267814,9.78957,0.989957,1.19,-3.5,-0.98,-22.7399,-47.5399,12.0848,1014.82
378536,0.277379,9.76566,1.00909,1.05,-3.64,-0.63,-23.5826,-47.2624,10.223,1014.82
378542,0.267814,9.75131,1.01865,1.19,-3.08,-0.28,-23.4663,-46.8306,11.9518,1014.8
378548,0.263032,9.7561,1.02343,1.47,-3.29,-0.91,-23.6697,-47.4166,11.1834,1014.8
378554,0.315638,9.77044,1.02822,1.4,-3.43,-0.91,-23.6407,-47.2624,10.7992,1014.82
378560,0.344333,9.75131,1.02343,1.26,-3.92,-0.35,-22.798,-46.5222,13.2373,1014.82
378566,0.329986,9.75131,0.999522,1.54,-3.85,-0.35,-23.4663,-46.6764,11.6415,1014.82
378572,0.33955,9.78001,1.01865,1.89,-2.73,-0.56,-23.786,-48.095,12.0257,1014.82
378578,0.315638,9.77523,1.02343,1.33,-3.08,-0.42,-24.0765,-46.4914,12.3655,1014.82
378584,0.320421,9.77044,1.033,1.75,-3.64,-0.35,-23.0886,-46.1521,13.4147,1014.81
378590,0.444763,9.83261,0.994739,1.61,-3.15,-0.7,-23.3501,-47.2932,12.4246,1014.81
378596,0.521282,9.88522,0.913438,1.12,-3.15,-1.96,-23.9603,-47.4474,11.4789,1014.82
378602,0.430416,9.84696,0.93735,1.4,-3.15,-2.17,-23.0886,-46.4914,12.3655,1014.82
378608,0.25825,9.81827,1.04735,0.98,-3.22,-1.96,-23.4082,-46.3372,11.2425,1014.85
378614,0.248685,9.73218,1.11908,1.19,-3.08,-1.75,-23.2629,-47.4474,10.8879,1014.85
378620,0.25825,9.71305,1.1143,1.75,-3.5,-1.54,-23.5535,-46.2138,11.937,1014.85
378626,0.301291,9.76566,1.04256,1.82,-3.15,-1.54,-22.8561,-45.8129,11.0209,1014.85
378632,0.310856,9.80392,0.970827,1.89,-3.57,-1.96,-23.4663,-47.6941,11.5085,1014.85
378638,0.272597,9.78479,1.0043,2.1,-3.29,-1.33,-23.0014,-46.8615,11.7892,1014.82
378644,0.23912,9.7274,1.0856,1.82,-3.5,-1.47,-23.3211,-46.7381,11.7745,1014.82
378650,0.272597,9.70349,1.0856,1.68,-3.5,-1.19,-22.769,-47.8792,11.213,1014.84
378656,0.243902,9.70349,1.09039,2.1,-3.57,-0.77,-23.292,-47.3549,10.4298,1014.84
378662,0.272597,9.68914,1.04735,3.08,-3.5,-0.84,-22.9143,-45.9054,11.3312,1014.83
378668,0.310856,9.77044,1.03778,2.73,-3.15,-0.28,-23.5535,-47.3549,9.92742,1014.83
378674,0.329986,9.78479,0.951698,2.87,-3.15,-0.84,-23.7278,-47.4782,11.1539,1014.83
378680,0.430416,9.84218,0.95648,2.31,-2.8,-0.84,-22.8561,-46.5531,11.5972,1014.83
378686,0.396939,9.90913,0.870397,1.75,-2.59,-1.12,-22.7109,-46.7381,11.8779,1014.83
378692,0.334768,9.87566,0.923003,1.4,-2.45,-1.19,-23.786,-47.1082,8.98173,1014.81
378698,0.23912,9.82305,0.985174,1.54,-2.45,-1.33,-23.5826,-46.5531,11.8779,1014.81
378704,0.224773,9.81349,1.01387,1.26,-2.59,-1.82,-23.8731,-47.2624,9.97175,1014.82
378710,0.286944,9.74653,1.06648,1.61,-2.45,-1.12,-22.8561,-47.6016,9.83876,1014.82
378716,0.234338,9.78001,1.07126,1.54,-2.66,-1.19,-23.5535,-46.8923,10.3264,1014.82
378722,0.263032,9.76088,1.07604,1.68,-3.22,-1.47,-22.8271,-46.2755,11.4051,1014.82
378728,0.291726,9.76088,1.02822,1.89,-2.87,-0.56,-23.5244,-47.139,10.2968,1014.81
378734,0.291726,9.73218,1.09517,2.17,-2.8,-0.91,-23.9603,-47.7866,11.2721,1014.81
378740,0.253467,9.75131,1.07126,2.31,-2.8,-0.77,-23.3792,-46.9231,10.4003,1014.81
378746,0.229555,9.77044,1.0043,2.45,-2.52,-0.77,-23.2339,-46.4914,11.937,1014.81
378752,0.263032,9.76566,1.02822,2.17,-2.59,-0.63,-23.6988,-48.3109,11.1686,1014.81
378758,0.248685,9.75131,0.999522,2.03,-3.08,-0.49,-23.8441,-47.2007,11.7597,1014.82
378764,0.243902,9.76566,0.989957,2.59,-3.15,-0.42,-23.0595,-46.7998,11.0504,1014.82
378770,0.234338,9.78957,0.999522,2.17,-2.66,-0.07,-22.8561,-47.9717,10.7549,1014.84
378776,0.224773,9.76088,1.04256,2.31,-3.5,0,-23.6697,-48.0025,10.7845,1014.84
378782,0.286944,9.76088,0.970827,1.89,-3.15,0.28,-23.2048,-46.3063,11.4051,1014.81
378788,0.272597,9.78957,1.01865,2.45,-3.01,0.35,-23.2629,-46.9848,11.6119,1014.81
378794,0.325203,9.8087,0.994739,2.24,-3.01,-0.07,-24.338,-48.3109,10.8436,1014.82
378800,0.382592,9.8087,0.961262,2.45,-3.5,-0.77,-23.3211,-46.8615,10.9174,1014.82
378806,0.353898,9.85174,0.951698,1.75,-2.94,-0.63,-22.9724,-47.1698,11.6858,1014.82
378812,0.353898,9.84218,0.961262,1.96,-3.01,-0.77,-23.8731,-47.9408,10.5185,1014.83
378818,0.325203,9.83261,0.985174,1.54,-3.01,-1.26,-23.6697,-47.3549,12.0257,1014.83
378824,0.320421,9.85653,0.946915,1.26,-3.08,-1.61,-23.7278,-47.3549,11.3016,1014.82
378830,0.25825,9.81827,0.989957,1.47,-2.87,-1.82,-22.8561,-47.7558,11.5233,1014.82
378836,0.23912,9.77523,1.10952,1.75,-3.01,-1.54,-23.4663,-47.4782,11.2425,1014.81
378842,0.248685,9.74653,1.06648,2.03,-3.22,-1.4,-23.3501,-46.1521,12.4837,1014.81
378848,0.25825,9.75131,1.07126,2.03,-3.5,-1.26,-23.3501,-47.139,11.5085,1014.82
378854,0.224773,9.8087,1.02822,1.89,-3.29,-0.84,-23.4663,-48.3418,10.3412,1014.82
378860,0.263032,9.78479,0.989957,2.31,-3.43,-0.63,-23.2339,-47.3549,10.6662,1014.82
378866,0.301291,9.83261,0.97561,1.82,-3.29,-1.33,-22.7399,-47.5708,12.4985,1014.82
378872,0.263032,9.81349,0.97561,1.96,-3.43,-1.12,-22.9724,-48.0025,11.1982,1014.82
378878,0.263032,9.7561,1.03778,1.89,-3.43,-0.91,-22.6527,-47.5708,10.814,1014.83
378884,0.282162,9.74175,1.01865,2.17,-4.27,-1.12,-22.9724,-46.9848,12.0109,1014.83
378890,0.306074,9.78479,0.985174,2.17,-3.43,-1.12,-23.0014,-47.4782,10.9913,1014.81
378896,0.277379,9.77523,0.970827,2.1,-3.36,-1.26,-23.292,-48.0334,11.7892,1014.81
378902,0.263032,9.77523,1.02822,2.03,-3.43,-0.98,-23.0886,-46.2755,11.1539,1014.84
378908,0.25825,9.77523,1.06648,2.24,-3.78,-1.05,-23.4373,-46.7381,11.7745,1014.84
378914,0.286944,9.78479,1.01387,2.31,-3.5,-1.4,-22.9433,-47.6324,11.4789,1014.84
378920,0.368245,9.90435,0.923003,1.82,-3.64,-1.47,-23.0305,-46.7689,11.4789,1014.78
378926,0.387374,9.89,0.889526,1.4,-3.15,-1.96,-22.3622,-47.6941,11.6415,1014.78
378932,0.329986,9.86609,0.894309,1.19,-3.36,-2.73,-22.9143,-47.4166,10.8288,1014.8
378938,0.35868,9.8087,0.985174,0.49,-3.29,-2.73,-23.4663,-46.6764,11.5381,1014.8
378944,0.291726,9.77523,1.01387,1.05,-3.36,-3.15,-22.5365,-46.3063,12.203,1014.83
378950,0.282162,9.76088,1.05691,0.98,-3.01,-2.66,-22.8561,-47.3549,10.8879,1014.83
378956,0.210426,9.8087,1.02822,0.91,-3.22,-2.52,-23.4663,-48.5268,11.213,1014.84
378962,0.200861,9.78479,1.05691,0.91,-3.01,-2.59,-22.7109,-46.7073,10.9765,1014.84
378968,0.21999,9.78957,1.02822,1.12,-3.22,-2.8,-23.6116,-47.4166,11.8927,1014.82
378974,0.263032,9.85174,0.946915,1.12,-3.15,-2.45,-23.3211,-48.3109,11.4494,1014.82
378980,0.253467,9.79436,0.961262,1.12,-3.08,-2.8,-23.7278,-47.0465,11.0357,1014.82
378986,0.21999,9.77523,1.033,1.05,-3.15,-3.01,-23.2339,-47.1698,11.0652,1014.84
378992,0.205643,9.77523,1.05691,0.7,-3.22,-2.8,-22.9724,-48.2492,10.814,1014.84
378998,0.23912,9.74175,1.05213,1.47,-3.71,-2.24,-23.0014,-48.0334,11.0357,1014.83
379004,0.25825,9.73697,1.03778,1.19,-3.08,-2.03,-23.3792,-46.5222,11.8927,1014.83
379010,0.210426,9.85174,0.951698,1.12,-2.8,-2.52,-23.786,-47.9717,11.1391,1014.8
379016,0.224773,9.78957,1.02822,0.84,-3.29,-2.24,-22.5946,-48.095,11.1539,1014.8
379022,0.234338,9.78957,1.02822,0.63,-3.43,-2.52,-22.5946,-46.5839,11.8779,1014.81
379028,0.263032,9.8374,0.989957,0.56,-2.87,-2.59,-22.1878,-47.5091,11.2277,1014.81
379034,0.286944,9.79914,0.961262,0.42,-2.73,-2.17,-22.5075,-48.1567,11.1834,1014.81
379040,0.248685,9.82783,1.033,0.63,-3.08,-2.73,-22.9433,-47.0773,11.6119,1014.82
379046,0.267814,9.76088,1.0856,0.49,-2.87,-3.36,-23.2048,-46.7998,10.9322,1014.82
379052,0.200861,9.81349,1.07126,1.26,-2.8,-2.73,-23.6988,-48.3418,10.7697,1014.83
379058,0.200861,9.81827,1.06169,0.63,-3.01,-2.52,-23.3792,-46.7689,10.7401,1014.83
379064,0.186514,9.8374,1.03778,0.84,-3.08,-3.01,-23.3792,-46.3989,11.2573,1014.81
379070,0.21999,9.82783,0.989957,1.05,-2.8,-2.87,-22.6237,-47.3857,10.415,1014.81
379076,0.153037,9.81349,1.0043,0.49,-2.59,-2.24,-22.3041,-47.91,9.70578,1014.86
379082,0.148254,9.82783,1.02822,0.35,-2.52,-2.03,-22.7399,-46.5531,10.7992,1014.86
379088,0.105213,9.77523,1.03778,0.21,-2.66,-1.82,-22.0426,-48.1567,10.8583,1014.86
379094,0.129125,9.78957,1.02822,0.42,-3.22,-2.24,-22.7109,-48.5268,10.1343,1014.85
379100,0.109995,9.74653,1.0856,0.91,-3.29,-2.03,-23.1177,-47.1082,11.8336,1014.85
379106,0.109995,9.74175,1.06648,0.63,-3.22,-1.19,-22.5656,-46.3372,11.5233,1014.81
379112,0.148254,9.68436,1.12865,0.77,-2.66,-0.7,-23.5826,-49.2361,12.1291,1014.81
379118,0.148254,9.67958,1.18125,1.4,-3.36,-1.26,-23.0014,-47.1698,10.3116,1014.81
379124,0.186514,9.74653,1.14299,1.47,-3.36,-1.33,-22.8561,-47.139,12.4837,1014.81
379130,0.21999,9.74653,1.06169,1.68,-3.29,-0.56,-22.8852,-48.5576,10.6662,1014.84
379136,0.196078,9.78957,0.985174,1.68,-2.94,-1.05,-23.2339,-48.8969,11.08,1014.84
379142,0.263032,9.8374,0.980392,1.68,-3.43,-1.68,-22.4784,-46.8306,12.0257,1014.83
379148,0.291726,9.86131,1.00909,1.61,-2.73,-1.96,-21.9263,-47.5399,10.0604,1014.83
379154,0.253467,9.86131,0.942133,0.98,-2.31,-2.66,-22.6818,-49.1744,11.5085,1014.83
379160,0.114778,9.83261,1.00909,0.91,-2.73,-1.75,-22.8561,-46.9848,11.4937,1014.83
379166,0.11956,9.78957,1.04256,0.63,-2.8,-1.47,-22.6527,-47.7558,10.5037,1014.83
379172,0.191296,9.78957,1.05213,0.98,-3.15,-1.54,-22.7109,-49.0511,10.7697,1014.84
379178,0.157819,9.80392,1.04256,0.42,-2.73,-1.82,-22.4493,-48.1876,10.814,1014.84
379184,0.143472,9.77044,1.05213,0.63,-2.8,-1.33,-22.5946,-47.5091,11.5824,1014.84
379190,0.109995,9.70349,1.09995,1.19,-3.01,-0.91,-22.2169,-48.5268,10.0161,1014.84
379196,0.10043,9.69871,1.13343,1.33,-3.22,-1.12,-22.246,-48.4034,10.9027,1014.79
379202,0.0860832,9.70349,1.09517,1.47,-3.36,-0.98,-22.3041,-46.5222,11.6415,1014.79
379208,0.10043,9.7561,1.04256,1.68,-3.15,-0.21,-22.8271,-48.1876,12.07,1014.79
379214,0.13869,9.77044,1.07126,1.4,-3.64,-0.63,-22.5365,-49.0511,9.48413,1014.82
379220,0.162602,9.76088,1.07126,1.68,-3.36,-0.14,-22.5946,-47.2007,11.5528,1014.82
379226,0.181731,9.78957,1.04735,1.96,-3.01,-0.77,-22.0135,-48.0334,10.1786,1014.77
379232,0.248685,9.77044,1.033,1.96,-3.57,-0.42,-23.0014,-49.0819,10.5333,1014.77
379238,0.210426,9.78479,1.06169,1.61,-3.5,0,-22.3912,-46.7998,12.4837,1014.81
379244,0.200861,9.81349,1.0043,2.03,-3.15,-0.91,-22.9433,-46.5222,11.8484,1014.81
379250,0.224773,9.81827,0.994739,1.61,-2.94,-1.54,-22.7399,-47.6324,10.7253,1014.84
379256,0.215208,9.83261,0.970827,1.4,-2.87,-0.77,-22.6527,-48.1567,10.5185,1014.84
379262,0.105213,9.83261,1.00909,1.19,-2.66,-0.56,-22.275,-47.0773,11.0061,1014.85
379268,0.10043,9.80392,1.033,1.05,-2.87,-1.33,-22.6237,-48.095,10.2082,1014.85
379274,0.109995,9.79436,1.07126,0.98,-3.01,-0.98,-22.798,-48.7427,10.4446,1014.85
379280,0.129125,9.78957,1.02343,1.05,-3.08,-0.35,-22.6527,-47.6016,11.3755,1014.8
379286,0.153037,9.81349,1.02343,0.7,-2.52,-1.05,-22.4784,-46.7073,10.8583,1014.8
379292,0.11956,9.78001,1.04256,0.98,-2.87,-0.28,-23.3211,-49.0202,10.5628,1014.86
379298,0.10043,9.7561,1.04735,1.05,-3.01,-0.21,-22.7399,-47.9408,11.3903,1014.86
379304,0.095648,9.75131,1.06169,0.77,-2.8,-0.49,-22.6237,-47.2932,11.5528,1014.81
379310,0.105213,9.74653,1.08082,1.12,-3.71,-0.07,-22.9143,-48.1259,11.0061,1014.81
379316,0.105213,9.75131,1.10473,1.26,-3.08,0.35,-23.292,-48.4343,9.55801,1014.85
379322,0.133907,9.71784,1.08082,1.75,-2.73,0.35,-22.7109,-47.0465,11.1686,1014.85
379328,0.124342,9.73218,1.10473,1.4,-3.15,0.21,-22.4493,-48.3418,10.1786,1014.85
379334,0.172166,9.7561,1.0856,1.61,-2.94,0.42,-22.9433,-48.2492,9.33637,1014.83
379340,0.229555,9.78479,1.07604,1.96,-3.01,0.14,-22.6527,-47.2007,13.1487,1014.83
379346,0.243902,9.86131,0.994739,1.4,-2.94,-0.14,-22.798,-47.4166,11.9075,1014.82
379352,0.229555,9.87566,0.942133,1.68,-3.08,-0.63,-22.5656,-48.1876,11.2277,1014.82
379358,0.181731,9.86131,1.03778,1.61,-2.87,-0.49,-22.8561,-48.0334,10.9765,1014.86
379364,0.153037,9.85653,1.02343,1.26,-3.22,-0.77,-22.3041,-47.0157,11.5233,1014.86
379370,0.153037,9.79436,1.07604,0.63,-2.94,-0.35,-22.9433,-48.2801,11.0209,1014.81
379376,0.13869,9.79436,1.04735,0.63,-2.87,-0.77,-22.8852,-47.4782,11.6267,1014.81
379382,0.0908656,9.78957,1.06648,0.98,-3.08,-0.49,-22.2169,-47.3857,11.9075,1014.81
379388,0.11956,9.77044,1.07126,0.7,-2.59,-0.28,-22.8271,-47.3857,11.0948,1014.84
379394,0.148254,9.78001,1.07126,0.91,-2.66,-0.28,-22.1588,-48.3418,10.4594,1014.84
379400,0.095648,9.76088,1.10473,0.63,-3.08,0.14,-22.5365,-46.5222,11.4937,1014.82
379406,0.0908656,9.74653,1.07604,1.4,-3.36,0.28,-21.781,-47.2624,11.9222,1014.82
379412,0.105213,9.75131,1.0856,1.05,-3.08,0.07,-22.4784,-48.0334,11.8336,1014.83
379418,0.105213,9.7561,1.06169,1.4,-2.87,0.28,-22.1297,-47.9408,9.75011,1014.83
379424,0.143472,9.67958,1.13343,1.68,-2.66,0.14,-22.6237,-46.7689,12.0109,1014.8
379430,0.109995,9.72262,1.11908,1.89,-3.22,0.91,-22.6818,-47.6016,12.203,1014.8
379436,0.21999,9.8087,1.09517,1.82,-3.36,0.77,-22.8561,-47.3857,10.0604,1014.82
379442,0.248685,9.78001,1.033,1.96,-2.87,0,-22.4784,-45.9363,11.9961,1014.82
379448,0.243902,9.85174,0.970827,1.54,-3.15,-0.7,-22.3331,-47.0773,10.7106,1014.82
379454,0.172166,9.8087,1.03778,1.47,-3.08,-0.07,-22.5946,-48.2801,10.5924,1014.85
379460,0.153037,9.83261,1.08082,1.4,-2.94,0,-22.8561,-46.7689,11.3903,1014.85
379466,0.215208,9.86131,1.04256,1.33,-2.94,-0.77,-22.6818,-47.2932,11.4789,1014.8
379472,0.11956,9.82305,1.05691,1.12,-2.94,-0.63,-22.6527,-48.8044,10.1047,1014.8
379478,0.129125,9.82305,1.03778,1.19,-3.22,-0.56,-22.246,-47.5399,10.415,1014.82
379484,0.11956,9.7561,1.08082,1.19,-3.08,-0.42,-22.0135,-46.5531,10.8436,1014.82
379490,0.109995,9.7274,1.15734,1.05,-3.01,17.64,-22.5946,-47.9408,10.415,1014.85
379496,0.162602,9.71784,1.12865,1.54,-3.01,-0.28,-22.8852,-47.91,9.76488,1014.85
379502,0.133907,9.73697,1.09517,1.4,-2.8,-0.28,-22.5656,-46.2755,10.9913,1014.85
379508,0.095648,9.73697,1.12865,1.75,-3.01,0.28,-22.5365,-47.5091,10.947,1014.84
379514,0.095648,9.76566,1.09039,1.82,-3.15,0.63,-23.3211,-47.8483,11.1095,1014.84
379520,0.133907,9.7274,1.0856,2.31,-3.01,0.42,-23.0014,-47.91,9.48413,1014.83
379526,0.143472,9.7561,1.07126,2.1,-2.94,0.7,-23.1467,-47.5399,10.681,1014.83
379532,0.133907,9.76566,1.05213,2.1,-3.43,0.14,-23.292,-48.5268,10.2673,1014.83
379538,0.191296,9.79914,1.05691,1.96,-3.01,0.77,-23.3501,-47.6016,12.3803,1014.83
379544,0.224773,9.82305,1.04735,1.89,-3.36,0.35,-22.798,-46.8615,11.4642,1014.84
379550,0.263032,9.89479,0.970827,1.4,-3.22,-0.49,-23.4373,-48.4034,11.3903,1014.84
379556,0.253467,9.87087,0.989957,1.26,-3.15,-0.35,-22.7109,-48.095,10.5628,1014.84
379562,0.191296,9.83261,1.04256,0.91,-2.59,-0.7,-23.0305,-46.9848,11.4789,1014.81
379568,0.153037,9.85174,1.07604,0.35,-2.87,-0.49,-23.1758,-47.9408,10.9027,1014.81
379574,0.157819,9.81349,1.09517,0.56,-2.87,-0.28,-22.798,-47.6324,9.08517,1014.83
379580,0.200861,9.81827,1.07604,1.05,-3.29,-0.91,-22.6527,-46.9848,10.3559,1014.83
379586,0.11956,9.79914,1.10473,0.49,-2.73,-0.56,-22.8561,-46.7381,11.4346,1014.8
379592,0.124342,9.76566,1.09995,0.63,-2.8,0,-23.0305,-48.2184,9.36592,1014.8
379598,0.11956,9.78479,1.12386,0.77,-3.08,0.07,-22.5656,-46.7381,11.2573,1014.82
379604,0.129125,9.78001,1.09995,1.05,-3.29,-0.35,-22.6237,-46.7073,10.947,1014.82
379610,0.124342,9.7561,1.0856,1.4,-3.29,-0.07,-22.769,-47.8175,10.8731,1014.81
379616,0.114778,9.71305,1.14778,0.98,-3.01,0.14,-22.9143,-47.5091,10.0309,1014.81
379622,0.105213,9.75131,1.15734,1.61,-2.66,0.07,-22.8561,-46.3063,11.1095,1014.81
379628,0.105213,9.73697,1.11908,1.4,-2.87,0.49,-22.769,-47.2315,9.46935,1014.85
379634,0.191296,9.76088,1.12865,1.4,-2.8,0.28,-22.9724,-47.6941,10.3707,1014.85
379640,0.157819,9.81827,1.033,1.26,-2.73,0.35,-22.4784,-46.7073,12.0257,1014.83
379646,0.172166,9.79436,1.06648,1.12,-3.22,0.63,-22.4493,-46.4914,11.7006,1014.83
379652,0.162602,9.82305,1.03778,1.47,-3.71,0.14,-22.3041,-47.7558,9.61712,1014.83
379658,0.181731,9.85653,1.01387,0.98,-3.08,0,-22.3331,-47.0773,10.3855,1014.83
379664,0.291726,9.83261,1.06648,0.84,-2.8,-0.14,-23.0014,-46.8306,10.415,1014.82
379670,0.248685,9.8374,1.0043,0.42,-2.66,-0.63,-22.5946,-47.5091,10.0604,1014.82
379676,0.129125,9.87087,1.03778,0.49,-2.87,-0.7,-23.1177,-47.2007,10.3559,1014.82
379682,0.071736,9.8374,1.05213,-0.21,-2.8,-0.63,-22.0716,-46.0288,12.2178,1014.84
379688,0.172166,9.75131,1.13343,0.07,-3.08,-0.35,-23.0014,-47.725,11.3755,1014.84
379694,0.153037,9.77523,1.17647,0.14,-2.31,-0.56,-22.798,-48.5576,10.6367,1014.82
379700,0.157819,9.73218,1.14778,0.63,-3.36,0.07,-22.4784,-47.2932,12.1734,1014.82
379706,0.124342,9.78479,1.16212,0.63,-2.59,-0.21,-22.3041,-46.5222,11.2869,1014.83
379712,0.133907,9.70349,1.15734,0.77,-3.08,-0.42,-22.6527,-47.8792,11.3016,1014.83
379718,0.105213,9.71305,1.15256,0.63,-3.43,0.42,-23.0305,-47.3857,11.08,1014.85
379724,0.109995,9.76088,1.10952,1.33,-3.43,0.35,-22.3912,-46.8615,10.1343,1014.85
379730,0.11956,9.75131,1.16691,1.26,-2.87,0.14,-23.0305,-47.7866,11.1834,1014.85
379736,0.124342,9.7561,1.13821,1.47,-3.22,0.35,-23.0014,-48.2801,11.7449,1014.81
379742,0.13869,9.75131,1.09039,1.61,-3.36,0.49,-22.0716,-46.0905,11.5972,1014.81
379748,0.176949,9.74175,1.12386,1.61,-3.15,0.56,-22.9724,-47.2315,11.2277,1014.82
379754,0.162602,9.78479,1.09039,1.26,-2.59,0.49,-23.4082,-47.2315,9.9422,1014.82
379760,0.133907,9.73697,1.11908,1.12,-3.22,0.42,-22.3041,-46.9231,12.0109,1014.84
379766,0.200861,9.77523,1.13821,1.4,-2.59,0.56,-22.1588,-47.6016,11.6119,1014.84
379772,0.210426,9.77523,1.1143,1.4,-2.87,0.07,-22.3331,-48.1876,9.98653,1014.82
379778,0.148254,9.79914,1.11908,1.68,-2.94,0.28,-22.6818,-46.7073,10.7549,1014.82
379784,0.162602,9.83261,1.07126,1.33,-2.94,0.35,-22.9724,-46.7381,11.7154,1014.81
379790,0.148254,9.8087,1.10952,1.19,-3.36,-0.14,-23.2048,-48.2184,11.0652,1014.81
379796,0.167384,9.79436,1.0856,1.33,-2.94,0,-23.4663,-47.5091,9.88309,1014.81
379802,0.200861,9.80392,1.09039,0.91,-2.52,0.35,-22.9433,-46.7073,10.8436,1014.85
379808,0.200861,9.83261,1.07604,0.91,-3.15,-0.28,-23.2339,-47.2932,11.3607,1014.85
379814,0.157819,9.8087,1.04735,0.56,-3.15,-0.14,-22.4784,-47.8175,10.6219,1014.84
379820,0.11956,9.76566,1.09517,0.56,-2.8,-0.14,-22.4784,-46.3372,11.804,1014.84
379826,0.129125,9.74653,1.15734,0.7,-3.08,0.14,-22.9433,-46.9848,10.7106,1014.82
379832,0.186514,9.77523,1.10952,0.42,-3.22,0.21,-22.4493,-48.0334,11.1539,1014.82
379838,0.13869,9.77044,1.13821,0.56,-3.22,0.21,-22.8271,-47.0465,10.5185,1014.83
379844,0.133907,9.75131,1.1143,0.91,-3.15,0.35,-23.3792,-46.2138,10.6958,1014.83
379850,0.10043,9.77044,1.14299,1.33,-3.64,-0.56,-23.6116,-47.5399,10.3264,1014.83
379856,0.167384,9.7561,1.16212,1.12,-2.94,-0.14,-22.0426,-47.6324,11.2721,1014.86
379862,0.124342,9.7274,1.18604,1.75,-3.43,0.28,-22.6527,-46.1213,10.3855,1014.86
379868,0.10043,9.68914,1.22429,1.96,-3.5,0.07,-22.2169,-47.5399,10.8583,1014.79
379874,0.210426,9.77523,1.13343,1.68,-3.29,-0.28,-22.0135,-48.5576,11.213,1014.79
379880,0.315638,9.82783,1.0043,1.75,-2.38,-0.42,-22.3622,-47.2624,11.0209,1014.82
379886,0.13869,9.8087,1.14299,0.91,-2.24,-0.49,-22.1297,-46.3989,9.83876,1014.82
379892,0.071736,9.81349,1.06169,0.77,-2.45,-0.14,-22.798,-48.1876,10.1786,1014.81
379898,0.200861,9.82783,1.10473,0.28,-2.38,-0.63,-22.5365,-47.2007,11.0948,1014.81
379904,0.267814,9.91392,0.865614,-0.28,-1.26,-0.49,-21.8682,-47.2007,11.7006,1014.81
379910,0.11956,9.79436,0.994739,-2.94,-0.42,-1.19,-22.1297,-47.7558,10.09,1014.84
379916,0.172166,9.82783,0.989957,-1.82,-0.42,-0.56,-22.4493,-48.1259,9.58757,1014.84
379922,0.13869,9.7274,1.18125,-1.4,-0.63,-0.56,-21.4324,-46.1213,10.548,1014.85
379928,0.047824,9.71305,1.23864,-1.54,-0.28,0,-22.0716,-46.954,9.1886,1014.85
379934,0,9.76088,1.1143,-1.54,-1.05,0.35,-22.7109,-48.095,9.35114,1014.86
379940,0.153037,9.73697,1.10473,-1.47,0.21,0.63,-22.5656,-46.7998,11.1391,1014.86
379946,0.0191296,9.72262,1.20995,-1.33,-0.21,0.49,-22.6237,-46.4297,10.2082,1014.82
379952,0.153037,9.67001,1.25777,-0.98,-0.63,0.84,-22.6818,-48.4651,9.73533,1014.82
379958,0.129125,9.67001,1.24821,-0.42,-1.05,1.33,-22.1878,-47.3857,9.09995,1014.81
379964,0.148254,9.70349,1.25299,-0.28,-1.05,1.05,-22.6237,-46.183,10.1195,1014.81
379970,0.23912,9.7274,1.23386,0.14,-1.61,0.84,-22.4493,-47.8175,10.1491,1014.81
379976,0.263032,9.78479,1.16691,0.56,-1.19,0.07,-22.8271,-47.9717,10.4889,1014.83
379982,0.277379,9.80392,1.10952,0.28,-1.68,0.14,-22.3912,-46.8615,10.3412,1014.83
379988,0.253467,9.89479,1.11908,0.21,-1.26,0,-22.7399,-47.324,9.35114,1014.83
379994,0.310856,9.85653,1.18604,0.14,-1.96,-1.19,-23.5535,-48.5576,9.98653,1014.83
380000,0.325203,9.90913,1.09039,-0.07,-1.68,-1.47,-23.1177,-47.1082,10.1195,1014.81
380006,0.215208,9.9187,1.05213,-0.35,-1.82,-1.12,-22.3041,-46.4914,10.8583,1014.81
380012,0.153037,9.77044,1.20995,-0.56,-1.68,-1.47,-23.3792,-48.4034,9.76488,1014.84
380018,0.153037,9.80392,1.21951,0,-2.31,-1.82,-22.6237,-47.4782,10.2821,1014.84
380024,0.253467,9.78479,1.1956,-0.14,-2.94,-2.31,-22.6527,-47.139,11.5676,1014.84
380030,0.200861,9.77044,1.24342,0.49,-3.15,-2.1,-22.4203,-48.7118,9.3807,1014.84
380036,0.176949,9.73218,1.19082,0.49,-3.08,-2.1,-22.5656,-48.2801,8.90785,1014.84
380042,0.133907,9.71305,1.29125,0.77,-2.94,-2.52,-22.8561,-46.6456,11.1243,1014.84
380048,0.162602,9.6748,1.35342,1.82,-3.78,-2.31,-22.8271,-47.1698,9.30681,1014.84
380054,0.13869,9.7274,1.26734,2.1,-3.92,-2.03,-22.5656,-47.6324,9.73533,1014.82
380060,0.0765184,9.76088,1.20038,2.8,-4.06,-2.45,-22.9724,-47.6941,10.3707,1014.82
380066,0.0334768,9.75131,1.19082,2.66,-4.13,-2.17,-22.0426,-46.7073,10.0752,1014.81
380072,0.047824,9.74175,1.1956,2.31,-4.55,-1.61,-22.769,-48.2492,8.03604,1014.81
380078,-0.0047824,9.7561,1.19082,3.08,-4.48,-0.7,-22.1878,-47.324,10.223,1014.81
380084,0.047824,9.76088,1.12386,2.31,-4.41,-0.56,-22.7109,-46.5531,10.9027,1014.83
380090,0.0430416,9.71784,1.15256,2.45,-4.55,-1.12,-22.5656,-47.6324,10.4446,1014.83
380096,0.0286944,9.72262,1.22429,2.52,-4.97,-0.42,-22.7109,-48.1259,10.09,1014.83
380102,0.0621712,9.76566,1.15256,2.66,-4.34,0.21,-22.4784,-46.4914,10.7549,1014.83
380108,0.0143472,9.70349,1.24821,2.8,-4.2,0.7,-22.5946,-47.6633,10.4446,1014.83
380114,0.047824,9.7561,1.17647,2.8,-4.2,0.91,-23.0595,-48.5268,10.0604,1014.83
380120,0.0382592,9.7561,1.18604,2.66,-4.34,0.56,-22.9433,-47.2315,9.97175,1014.82
380126,0.114778,9.74175,1.17647,2.59,-4.55,0.84,-21.8101,-46.4605,10.0013,1014.82
380132,0.162602,9.77044,1.12386,2.66,-4.13,0.98,-22.7109,-48.3109,10.681,1014.82
380138,0.129125,9.75131,1.19082,2.87,-3.71,1.12,-22.4493,-47.324,9.70578,1014.82
380144,0.11956,9.73697,1.18125,2.59,-4.41,0.84,-22.769,-47.7558,10.7401,1014.82
380150,0.234338,9.78479,1.14299,2.52,-4.34,0.35,-22.798,-47.8792,10.2673,1014.84
380156,0.234338,9.82305,1.15734,2.38,-4.13,0.28,-23.4373,-47.8483,8.84875,1014.84
380162,0.200861,9.86609,1.07604,2.31,-3.57,0.56,-22.9433,-46.3063,11.213,1014.8
380168,0.186514,9.84218,1.09995,1.82,-3.57,0,-22.6527,-46.8306,10.9765,1014.8
380174,0.210426,9.84696,1.15734,1.75,-3.01,-0.49,-22.7109,-47.7866,9.60234,1014.84
380180,0.191296,9.81349,1.15734,1.75,-3.15,-0.35,-22.3622,-46.8923,9.51368,1014.84
380186,0.200861,9.79914,1.17647,1.68,-3.01,-0.84,-21.781,-46.7381,9.89787,1014.82
380192,0.095648,9.79914,1.21951,1.47,-3.22,-0.49,-22.769,-47.9717,9.45458,1014.82
380198,0.095648,9.7274,1.22429,1.68,-3.64,-0.35,-22.769,-47.0465,9.77966,1014.82
380204,0.0860832,9.7274,1.21473,1.82,-3.64,-0.28,-22.3912,-46.7689,11.7745,1014.83
380210,0.11956,9.74175,1.18604,2.31,-3.01,-0.28,-23.0014,-48.2801,10.9027,1014.83
380216,0.114778,9.77044,1.17169,1.89,-2.8,0.14,-23.2339,-47.4474,10.9027,1014.81
380222,0.124342,9.78001,1.15734,2.17,-3.15,-0.14,-22.9724,-46.8615,12.1734,1014.81
380228,0.124342,9.77523,1.14778,2.03,-2.94,0,-22.6818,-47.2932,10.3412,1014.84
380234,0.071736,9.71784,1.20038,2.24,-3.08,0.56,-23.5826,-47.8792,9.14427,1014.84
380240,0.124342,9.74175,1.16212,1.61,-3.36,0.56,-22.5656,-45.9054,10.7845,1014.84
380246,0.114778,9.7561,1.1956,2.1,-3.22,0.28,-23.0305,-46.6147,10.6367,1014.84
380252,0.167384,9.81827,1.17647,1.96,-3.15,0.7,-23.4663,-47.7866,9.36592,1014.84
380258,0.153037,9.77523,1.16212,2.31,-2.52,1.12,-22.8561,-48.2184,10.2082,1014.82
380264,0.13869,9.79914,1.11908,1.96,-2.87,0.14,-22.5946,-46.7689,11.5824,1014.82
380270,0.176949,9.78001,1.18604,1.61,-3.43,0.21,-22.7399,-47.91,10.3116,1014.84
380276,0.205643,9.78001,1.14778,2.24,-3.43,0.35,-22.5946,-47.8792,8.92263,1014.84
380282,0.191296,9.81827,1.13821,1.89,-2.73,-0.35,-22.6237,-46.4914,11.1686,1014.83
380288,0.181731,9.80392,1.13821,1.68,-2.87,-0.14,-22.5365,-47.324,9.27726,1014.83
380294,0.095648,9.79436,1.18604,1.4,-3.29,0.14,-23.3501,-48.3109,9.4398,1014.8
380300,0.095648,9.76088,1.17169,1.05,-3.29,0.07,-22.9724,-46.6764,10.7845,1014.8
380306,0.109995,9.71784,1.21951,1.4,-3.15,-0.07,-22.9433,-46.6764,10.681,1014.83
380312,0.148254,9.76088,1.22908,1.47,-3.43,0.42,-22.769,-48.2801,10.6071,1014.83
380318,0.143472,9.73697,1.24342,1.96,-3.57,-0.21,-22.6237,-47.9717,10.1786,1014.83
380324,0.105213,9.73697,1.21473,2.31,-3.64,0.7,-22.6237,-46.6456,9.57279,1014.81
380330,0.114778,9.70827,1.22429,2.24,-3.64,0.56,-22.8561,-47.6941,9.77966,1014.81
380336,0.114778,9.75131,1.20038,2.31,-3.36,0.7,-23.5535,-47.2624,9.89787,1014.82
380342,0.129125,9.76088,1.17169,2.17,-2.59,1.05,-23.5826,-47.0773,9.35114,1014.82
380348,0.11956,9.76088,1.1956,2.52,-3.01,1.33,-23.1467,-47.324,11.0061,1014.82
380354,0.124342,9.77523,1.17169,2.66,-3.08,0.77,-23.2339,-48.496,9.36592,1014.82
380360,0.172166,9.77044,1.1956,2.17,-3.29,0.91,-23.0595,-46.7998,10.7549,1014.83
380366,0.181731,9.79436,1.13821,2.24,-3.08,1.19,-22.1297,-47.5708,11.08,1014.83
380372,0.148254,9.80392,1.12865,2.17,-2.73,0.77,-23.0886,-48.3418,9.76488,1014.83
380378,0.167384,9.78001,1.16691,1.75,-2.73,0.7,-23.1758,-47.0157,10.9027,1014.83
380384,0.167384,9.80392,1.1956,2.24,-2.94,0.28,-23.0305,-46.7381,11.3607,1014.83
380390,0.200861,9.84218,1.15734,2.1,-3.22,0.35,-22.769,-47.8792,10.6515,1014.83
380396,0.21999,9.8087,1.12386,1.96,-2.66,0.56,-23.4954,-48.3109,9.51368,1014.83
380402,0.13869,9.79914,1.15734,1.89,-2.8,0.21,-22.9143,-46.7998,11.5381,1014.81
380408,0.148254,9.77523,1.20516,2.31,-2.94,0.35,-22.8561,-47.2932,9.41025,1014.81
380414,0.162602,9.78001,1.1956,1.82,-2.87,0.21,-23.0014,-48.2184,11.7745,1014.85
380420,0.153037,9.77523,1.21951,2.31,-2.73,0.7,-23.1758,-47.1082,12.2325,1014.85
380426,0.162602,9.75131,1.19082,2.03,-2.73,0.77,-22.4203,-46.7998,11.8484,1014.85
380432,0.162602,9.74653,1.18604,2.24,-3.57,0.21,-23.6988,-48.1567,10.4889,1014.81
380438,0.129125,9.77523,1.21473,1.89,-3.36,0.35,-22.9724,-47.139,10.4003,1014.81
380444,0.162602,9.73697,1.18125,2.66,-3.01,0.91,-22.8271,-47.6016,9.60234,1014.84
380450,0.124342,9.74653,1.18125,2.24,-3.22,0.56,-22.6818,-48.4034,9.55801,1014.84
380456,0.167384,9.74653,1.19082,2.52,-2.8,0.98,-22.798,-48.7735,10.947,1014.83
380462,0.153037,9.78001,1.16691,1.89,-2.8,0.91,-22.6527,-47.1698,10.6958,1014.83
380468,0.200861,9.78001,1.13821,2.45,-2.94,1.05,-22.3041,-47.6941,10.9765,1014.84
380474,0.229555,9.77523,1.15256,2.59,-3.01,0.63,-23.4373,-48.2184,9.95698,1014.84
380480,0.176949,9.82305,1.14299,1.68,-2.66,0.56,-22.6527,-46.4914,11.0061,1014.84
380486,0.176949,9.80392,1.14299,2.24,-2.94,0.7,-22.798,-46.8923,10.4889,1014.84
380492,0.172166,9.77523,1.16691,1.4,-2.73,0.63,-22.7109,-48.0025,11.1982,1014.84
380498,0.167384,9.78001,1.13343,1.68,-3.08,0.35,-22.9724,-47.324,11.1243,1014.82
380504,0.157819,9.80392,1.16691,1.89,-3.15,0.21,-23.1177,-46.368,10.6367,1014.82
380510,0.133907,9.76088,1.17169,1.54,-2.87,0.63,-22.8852,-47.2007,10.3116,1014.82
380516,0.13869,9.78001,1.18125,1.75,-3.36,0.7,-22.6527,-47.9717,10.5628,1014.82
380522,0.148254,9.75131,1.19082,1.61,-2.94,0.84,-23.0305,-46.3989,11.8336,1014.84
380528,0.162602,9.71784,1.23386,1.96,-2.73,0.56,-23.9894,-47.4166,11.3755,1014.84
380534,0.172166,9.74653,1.20516,1.89,-3.36,0.98,-23.4082,-47.3549,10.09,1014.82
380540,0.162602,9.7561,1.19082,2.17,-2.94,1.05,-23.3211,-46.8306,10.223,1014.82
380546,0.13869,9.75131,1.20038,1.96,-2.52,1.05,-23.3792,-47.0465,10.8436,1014.82
380552,0.124342,9.7561,1.21473,2.24,-3.43,1.33,-23.2048,-48.8969,10.2968,1014.82
380558,0.148254,9.71784,1.19082,2.8,-3.5,1.05,-23.6697,-48.1259,10.1491,1014.82
380564,0.133907,9.73218,1.20516,2.87,-3.15,1.26,-23.1177,-46.4914,12.2325,1014.81
380570,0.210426,9.78479,1.17647,2.73,-3.36,1.47,-23.6407,-47.8792,9.26248,1014.81
380576,0.272597,9.86131,1.05691,2.59,-2.87,1.19,-22.9724,-47.4474,10.4446,1014.83
380582,0.291726,9.84218,1.09517,2.24,-2.66,0.77,-22.8561,-45.6279,10.9027,1014.83
380588,0.176949,9.79914,1.13343,1.89,-3.01,0.91,-23.0014,-47.4166,11.2721,1014.8
380594,0.196078,9.81349,1.13343,1.96,-3.08,0.56,-23.8731,-48.496,9.61712,1014.8
380600,0.263032,9.82783,1.13343,1.89,-2.87,0.35,-23.9312,-46.954,9.97175,1014.8
380606,0.172166,9.82783,1.07604,1.54,-2.66,0.42,-23.4663,-46.3372,10.4741,1014.85
380612,0.148254,9.7561,1.12865,1.68,-3.15,0.77,-23.815,-47.7866,9.14427,1014.85
380618,0.10043,9.7274,1.18604,1.75,-3.15,0.07,-23.7278,-47.0773,9.73533,1014.82
380624,0.143472,9.73697,1.18604,1.75,-2.94,0.49,-23.6407,-46.5531,10.5628,1014.82
380630,0.157819,9.71305,1.20038,2.31,-3.64,0.77,-23.2339,-47.2007,11.1834,1014.81
380636,0.148254,9.71305,1.21473,1.96,-3.43,0.98,-23.1467,-47.5399,9.77966,1014.81
380642,0.191296,9.73697,1.20516,2.38,-3.15,0.7,-22.5075,-46.4297,11.1243,1014.82
380648,0.143472,9.74175,1.18125,2.66,-2.94,0.98,-23.9894,-48.5268,8.64188,1014.82
380654,0.162602,9.74653,1.17647,2.24,-3.01,1.61,-22.5946,-47.6633,9.17383,1014.81
380660,0.167384,9.74175,1.16212,2.17,-3.22,1.68,-22.9143,-47.2932,10.9174,1014.81
380666,0.21999,9.79436,1.15256,2.73,-3.57,1.68,-22.5656,-46.9231,11.0504,1014.81
380672,0.23912,9.79914,1.09039,2.24,-3.08,1.05,-22.9724,-48.2184,11.8484,1014.81
380678,0.229555,9.83261,1.08082,2.24,-3.36,0.98,-23.2048,-47.2007,12.0996,1014.81
380684,0.320421,9.85653,1.07604,1.61,-3.29,0.63,-22.8852,-45.8437,10.681,1014.79
380690,0.310856,9.86609,1.04735,1.89,-2.8,0.56,-23.1758,-48.0025,10.7549,1014.79
380696,0.224773,9.8374,1.09517,1.26,-2.94,0.14,-23.0595,-48.2184,9.83876,1014.81
380702,0.157819,9.79914,1.14778,1.47,-3.22,0.07,-22.3912,-46.5839,10.5333,1014.81
380708,0.205643,9.78001,1.15256,1.26,-2.94,0.56,-22.9724,-47.4166,10.1934,1014.82
380714,0.23912,9.77523,1.15256,1.54,-2.8,-0.07,-23.0014,-48.3418,10.4594,1014.82
380720,0.162602,9.77523,1.15256,1.4,-3.5,-0.07,-22.5656,-47.2624,10.3264,1014.82
380726,0.21999,9.77044,1.17169,1.26,-3.01,-0.07,-22.6818,-46.2447,11.1391,1014.81
380732,0.148254,9.75131,1.1956,1.75,-3.57,0.21,-23.3211,-47.8792,11.4346,1014.81
380738,0.143472,9.69871,1.18125,1.75,-3.29,0.91,-23.2048,-46.8923,11.0061,1014.79
380744,0.172166,9.72262,1.18125,1.89,-3.22,0.28,-22.7399,-46.5839,11.7892,1014.79
380750,0.172166,9.70827,1.20038,1.75,-3.15,0.35,-23.0886,-47.4782,10.415,1014.84
380756,0.21999,9.72262,1.18125,1.96,-3.36,0.91,-22.6818,-47.5399,9.66145,1014.84
380762,0.191296,9.75131,1.13343,2.03,-3.29,0.77,-22.8561,-46.0905,11.4789,1014.82
380768,0.229555,9.78001,1.13821,2.38,-3.29,0.35,-23.5244,-47.2624,10.3559,1014.82
380774,0.234338,9.76088,1.10473,1.82,-3.01,0.28,-23.3211,-47.4166,9.92742,1014.82
380780,0.253467,9.8374,1.13343,1.75,-2.59,0.77,-22.769,-47.4166,9.80921,1014.82
380786,0.296509,9.83261,1.09517,1.82,-2.59,-0.42,-22.9724,-46.9848,11.4494,1014.82
380792,0.215208,9.82783,1.12386,1.68,-3.5,17.64,-23.1177,-48.3109,10.6367,1014.82
380798,0.210426,9.79914,1.13343,2.1,-3.22,-0.42,-22.6237,-47.1082,10.8436,1014.82
380804,0.229555,9.79436,1.12386,1.54,-3.08,-0.63,-23.2048,-46.5839,12.3803,1014.77
380810,0.215208,9.79436,1.11908,1.47,-3.15,0.21,-22.798,-47.2624,11.3164,1014.77
380816,0.200861,9.78957,1.14778,0.7,-2.66,0.14,-22.7109,-47.6016,9.55801,1014.79
380822,0.129125,9.76566,1.17169,1.54,-2.94,-0.42,-22.3912,-46.1213,11.5972,1014.79
380828,0.143472,9.76088,1.18125,1.05,-2.94,0,-22.8561,-46.7689,10.4446,1014.81
380834,0.143472,9.7561,1.21951,1.61,-3.08,0.14,-23.1177,-48.7118,10.3116,1014.81
380840,0.172166,9.73697,1.14778,1.54,-2.73,0.21,-22.6818,-46.7073,10.1195,1014.81
380846,0.172166,9.73697,1.18125,1.19,-3.15,0.35,-23.4663,-47.0773,10.9765,1014.82
380852,0.196078,9.73218,1.16212,2.17,-3.64,0.42,-23.3792,-48.2801,10.548,1014.82
380858,0.176949,9.7274,1.16212,1.61,-2.87,0.77,-22.8852,-47.4166,11.4789,1014.81
380864,0.181731,9.74653,1.16212,1.89,-3.43,0.63,-22.5075,-45.8437,10.6367,1014.81
380870,0.186514,9.73218,1.12865,2.03,-3.5,0.91,-22.3912,-47.139,10.8731,1014.83
380876,0.21999,9.76088,1.18125,2.03,-3.36,0.42,-22.798,-47.7866,9.35114,1014.83
380882,0.25825,9.78957,1.13343,2.45,-3.08,0.42,-22.6237,-46.1521,11.4937,1014.8
380888,0.248685,9.79914,1.15734,1.89,-3.15,0.63,-23.4663,-46.8923,11.6415,1014.8
380894,0.23912,9.78957,1.12865,1.89,-3.29,0.7,-23.0305,-47.1698,11.2869,1014.8
380900,0.23912,9.79436,1.15734,2.03,-2.94,-0.07,-22.5656,-46.3372,10.6219,1014.81
380906,0.286944,9.81827,1.13343,1.47,-3.01,0,-22.4493,-46.1213,11.213,1014.81
380912,0.296509,9.80392,1.10952,1.26,-2.87,0.35,-23.292,-47.5399,9.79444,1014.84
380918,0.234338,9.80392,1.16691,2.03,-3.29,-0.14,-22.5365,-46.7998,10.5185,1014.84
380924,0.205643,9.79914,1.15256,1.82,-2.94,-0.07,-23.1467,-45.9979,11.4494,1014.84
380930,0.25825,9.82305,1.13821,1.47,-2.94,-0.7,-22.4203,-47.3857,11.3164,1014.84
380936,0.272597,9.81349,1.13821,1.61,-2.73,-0.42,-23.2629,-47.4782,10.5185,1014.8
380942,0.205643,9.78479,1.13343,1.05,-2.52,-0.42,-23.0014,-46.6764,10.1343,1014.8
380948,0.124342,9.74653,1.16212,1.68,-3.22,-0.49,-23.3501,-47.6633,11.3312,1014.8
380954,0.167384,9.73218,1.17647,1.68,-2.73,-0.21,-23.292,-47.3549,10.4594,1014.82
380960,0.205643,9.76088,1.20516,1.4,-2.8,-0.49,-23.2629,-46.8615,10.7106,1014.82
380966,0.181731,9.73697,1.17647,1.75,-3.36,-0.21,-22.2169,-47.0773,9.91265,1014.82
380972,0.210426,9.7561,1.18125,2.03,-3.29,-0.14,-23.2048,-47.9408,9.76488,1014.82
380978,0.133907,9.73218,1.20995,1.68,-3.22,-0.14,-22.798,-47.6016,11.6858,1014.83
380984,0.200861,9.72262,1.15256,1.68,-2.94,-0.07,-22.9724,-46.8615,11.5528,1014.83
380990,0.181731,9.75131,1.15734,1.82,-3.36,0,-22.8271,-48.095,10.7106,1014.82
380996,0.191296,9.7274,1.17647,1.75,-3.5,0.56,-23.0886,-47.6633,10.1934,1014.82
381002,0.196078,9.76566,1.16691,2.1,-2.87,0.28,-22.5946,-47.5399,11.1982,1014.84
381008,0.234338,9.76088,1.16212,1.82,-2.8,0.28,-22.769,-47.2315,11.1539,1014.84
381014,0.186514,9.78957,1.12865,1.75,-3.29,0.35,-23.2048,-47.9408,9.82399,1014.84
381020,0.253467,9.76566,1.18604,1.75,-3.29,0.14,-22.769,-47.1082,11.2721,1014.82
381026,0.253467,9.78957,1.15734,2.38,-3.08,0.07,-22.7109,-46.7381,11.5824,1014.82
381032,0.200861,9.76566,1.13343,1.4,-3.22,0.14,-23.6988,-48.3418,11.4494,1014.83
381038,0.234338,9.76566,1.19082,1.96,-3.36,0.21,-22.3041,-47.2007,11.4937,1014.83
381044,0.229555,9.78001,1.15734,2.03,-3.29,0.07,-22.6818,-46.2447,12.6758,1014.85
381050,0.253467,9.79436,1.15256,1.68,-3.01,-0.14,-22.6527,-47.8792,10.4003,1014.85
381056,0.229555,9.7561,1.17169,1.82,-3.22,-0.07,-22.5365,-47.725,10.0604,1014.81
381062,0.172166,9.75131,1.17647,2.24,-2.8,0.28,-21.9263,-47.1082,12.2178,1014.81
381068,0.157819,9.75131,1.18125,1.96,-3.15,0.14,-22.9433,-47.0157,9.77966,1014.81
381074,0.196078,9.7561,1.15256,2.17,-3.22,0.42,-23.2048,-47.4782,10.0752,1014.83
381080,0.234338,9.77044,1.15256,2.17,-3.22,0.35,-22.3912,-46.7998,11.5381,1014.83
381086,0.234338,9.77044,1.13821,1.89,-3.36,0.07,-22.8271,-46.7998,11.3755,1014.79
381092,0.162602,9.76566,1.12386,2.03,-3.22,0.42,-23.0014,-48.3109,10.1491,1014.79
381098,0.191296,9.79436,1.12386,1.61,-3.15,0.28,-22.769,-46.8615,10.9765,1014.81
381104,0.215208,9.78957,1.17647,1.96,-3.15,0.35,-22.4493,-46.5531,10.3559,1014.81
381110,0.224773,9.77044,1.17647,1.4,-2.94,0.42,-23.815,-48.6193,9.79444,1014.84
381116,0.21999,9.78001,1.14778,2.38,-2.8,0.63,-23.2339,-47.8792,9.83876,1014.84
381122,0.229555,9.78957,1.16691,1.75,-3.08,0.14,-22.5946,-46.3989,11.4198,1014.84
381128,0.277379,9.83261,1.10952,1.4,-3.64,-0.21,-23.3792,-47.139,10.2821,1014.81
381134,0.263032,9.80392,1.14299,1.75,-2.8,-0.14,-23.1758,-47.7866,8.81919,1014.81
381140,0.263032,9.77523,1.16691,1.89,-3.29,0.14,-22.8852,-46.6147,11.0061,1014.8
381146,0.253467,9.79436,1.15734,1.75,-3.08,-0.63,-22.9724,-46.6456,11.213,1014.8
381152,0.263032,9.79914,1.15734,1.89,-2.94,-0.77,-22.9433,-47.2007,10.5628,1014.83
381158,0.215208,9.76088,1.1956,1.33,-2.87,-0.7,-22.769,-46.2447,10.6515,1014.83
381164,0.191296,9.78001,1.16212,1.61,-2.73,-0.56,-22.9433,-46.4297,10.3855,1014.83
381170,0.186514,9.7561,1.16212,1.96,-3.57,-0.56,-23.6988,-47.7558,11.1095,1014.83
381176,0.200861,9.74653,1.17647,2.03,-3.29,-0.7,-23.5535,-47.6324,10.3855,1014.8
381182,0.205643,9.7561,1.17647,1.61,-3.01,-0.42,-23.0305,-45.7512,10.9913,1014.8
381188,0.162602,9.7274,1.15734,2.45,-3.29,0,-22.8561,-47.1698,9.95698,1014.8
381194,0.167384,9.74175,1.18604,1.68,-3.15,0.14,-22.769,-48.0334,8.99651,1014.82
381200,0.157819,9.77044,1.15256,2.03,-3.29,-0.7,-22.8271,-46.7689,10.7845,1014.82
381206,0.200861,9.75131,1.18125,1.47,-3.15,-0.42,-22.769,-47.0157,10.5924,1014.82
381212,0.172166,9.75131,1.18125,1.54,-2.94,-0.21,-23.2048,-47.2007,10.1343,1014.82
381218,0.205643,9.77044,1.15734,2.59,-2.59,0.56,-23.4082,-47.6633,11.5972,1014.81
381224,0.200861,9.75131,1.15256,1.54,-3.15,0.42,-23.5244,-46.0288,10.9027,1014.81
381230,0.248685,9.78001,1.16691,1.75,-3.22,0,-23.3501,-47.6016,10.223,1014.81
381236,0.248685,9.81349,1.13343,1.75,-3.22,0.42,-22.798,-47.6016,9.66145,1014.81
381242,0.277379,9.78957,1.13343,1.82,-3.08,0.21,-22.8271,-46.1521,10.1491,1014.81
381248,0.267814,9.78957,1.15734,1.75,-2.8,-0.63,-22.7109,-46.4914,10.1786,1014.84
381254,0.23912,9.81827,1.14778,1.61,-2.8,-0.91,-23.5535,-48.5576,10.1638,1014.84
381260,0.215208,9.8087,1.12865,1.68,-3.08,-0.77,-22.9143,-46.5531,10.0752,1014.83
381266,0.200861,9.80392,1.14299,1.05,-2.31,-0.07,-23.0014,-46.7381,10.5924,1014.83
381272,0.191296,9.74653,1.20038,1.89,-2.87,-0.77,-23.6116,-48.681,10.0013,1014.82
381278,0.181731,9.75131,1.18604,1.68,-3.15,-0.28,-23.0595,-47.324,11.1539,1014.82
381284,0.196078,9.76566,1.18125,1.82,-3.22,-0.98,-23.0305,-46.3372,12.6167,1014.83
381290,0.181731,9.74653,1.17169,1.75,-3.5,-0.63,-22.769,-47.0465,11.0504,1014.83
381296,0.200861,9.75131,1.18125,1.54,-3.15,0.28,-23.0014,-47.3549,10.3855,1014.83
381302,0.176949,9.74175,1.1956,1.89,-3.36,0,-22.4784,-46.5531,11.3607,1014.82
381308,0.162602,9.7561,1.20038,1.96,-3.22,0,-22.769,-47.2932,11.6267,1014.82
381314,0.215208,9.78479,1.16691,2.03,-3.15,0,-22.9724,-48.4034,11.4789,1014.8
381320,0.181731,9.73697,1.16212,1.68,-3.29,0.77,-22.798,-46.7073,10.5776,1014.8
381326,0.205643,9.76088,1.12386,1.96,-3.01,0.07,-23.0886,-46.9848,11.3016,1014.78
381332,0.215208,9.7561,1.13821,2.03,-3.22,0.28,-23.4082,-48.0334,10.2821,1014.78
381338,0.224773,9.74653,1.15734,1.61,-3.29,0.35,-23.8731,-47.4782,11.1243,1014.84
381344,0.243902,9.78001,1.18125,1.82,-2.94,0.21,-23.4082,-46.4297,10.1047,1014.84
381350,0.21999,9.79436,1.15734,1.61,-3.08,0.07,-23.1177,-47.4474,9.85354,1014.82
381356,0.243902,9.76088,1.17169,1.33,-3.29,0.14,-22.8561,-48.2801,12.0552,1014.82
381362,0.21999,9.77044,1.14299,1.89,-2.8,0.07,-22.9724,-46.5531,12.5133,1014.82
381368,0.25825,9.81349,1.16212,1.96,-3.64,-0.14,-22.3622,-47.4166,11.9075,1014.8
381374,0.286944,9.79914,1.15256,1.82,-3.57,-0.35,-23.0886,-47.9408,10.3412,1014.8
381380,0.253467,9.80392,1.1956,1.61,-3.15,-0.77,-22.5365,-47.1698,10.8583,1014.84
381386,0.196078,9.80392,1.16691,1.68,-2.45,-0.56,-22.9143,-47.0157,11.2573,1014.84
381392,0.129125,9.77044,1.16212,1.47,-3.22,-0.42,-23.3792,-48.2184,9.04084,1014.85
381398,0.196078,9.78479,1.20995,1.82,-3.57,-0.35,-22.769,-47.7558,10.9174,1014.85
381404,0.191296,9.73697,1.17647,2.03,-3.71,-0.21,-22.275,-46.3063,11.5381,1014.82
381410,0.215208,9.76088,1.14778,1.82,-3.01,-0.42,-22.5075,-47.5399,10.1343,1014.82
381416,0.200861,9.78957,1.1956,2.03,-3.43,0.35,-22.1297,-47.6324,10.3116,1014.82
381422,0.176949,9.77044,1.19082,1.82,-3.01,-0.14,-22.0135,-46.3063,10.3559,1014.84
381428,0.200861,9.75131,1.20038,2.03,-3.29,-0.28,-23.0014,-47.0773,10.7992,1014.84
381434,0.196078,9.77044,1.18604,2.31,-3.29,0,-23.0595,-47.8792,10.7549,1014.81
381440,0.200861,9.75131,1.14778,1.96,-3.29,0.14,-23.3211,-46.1213,9.89787,1014.81
381446,0.210426,9.78001,1.14299,1.89,-3.36,-0.07,-23.0886,-46.5531,11.08,1014.82
381452,0.21999,9.75131,1.18125,2.31,-3.43,-0.35,-23.2048,-47.5708,9.30681,1014.82
381458,0.215208,9.76566,1.16691,2.24,-2.94,0,-23.6407,-46.8306,10.09,1014.84
381464,0.229555,9.77523,1.14299,1.96,-3.43,-0.14,-22.4493,-46.4297,10.9913,1014.84
381470,0.282162,9.77044,1.11908,1.96,-3.57,0.07,-22.9143,-47.9408,10.4003,1014.84
381476,0.25825,9.78479,1.17169,2.24,-3.29,-0.77,-22.6527,-47.5708,10.0161,1014.81
381482,0.248685,9.80392,1.14778,1.82,-3.01,-0.91,-22.3041,-46.4297,10.9765,1014.81
381488,0.282162,9.78001,1.14778,1.82,-3.15,-0.91,-22.4203,-46.8923,11.1391,1014.82
381494,0.25825,9.82783,1.14778,1.54,-3.01,-0.49,-22.4203,-47.2624,10.5185,1014.82
381500,0.21999,9.81827,1.17169,1.4,-3.36,-1.19,-22.7109,-46.5222,10.0604,1014.81
381506,0.205643,9.79436,1.18125,1.4,-3.29,-0.98,-22.5656,-47.0773,11.1391,1014.81
381512,0.186514,9.78001,1.1956,1.75,-3.15,-0.28,-23.0886,-48.0334,9.04084,1014.81
381518,0.191296,9.77044,1.17169,1.68,-3.64,-0.63,-23.1758,-46.5839,11.0652,1014.81
381524,0.196078,9.72262,1.1956,1.75,-3.01,-0.56,-22.9724,-46.4605,10.7401,1014.83
381530,0.176949,9.73218,1.21473,1.89,-3.15,-0.28,-22.4784,-47.3549,9.57279,1014.83
381536,0.167384,9.7561,1.17169,1.47,-3.5,-0.28,-23.5826,-47.6633,9.91265,1014.83
381542,0.162602,9.70349,1.18125,1.82,-2.94,-0.28,-22.3622,-45.8437,11.9075,1014.83
381548,0.133907,9.72262,1.22908,2.1,-3.08,0,-22.6237,-47.1082,10.2377,1014.83
381554,0.124342,9.7274,1.16212,2.31,-2.94,0.28,-23.2048,-47.4474,10.1786,1014.8
381560,0.186514,9.73218,1.14299,2.66,-2.94,0.35,-22.798,-45.9671,9.691,1014.8
381566,0.200861,9.77523,1.13821,1.89,-3.08,0.14,-22.5946,-46.4297,11.5824,1014.84
381572,0.205643,9.78957,1.14778,1.96,-3.08,0.49,-23.2629,-47.8175,10.2082,1014.84
381578,0.23912,9.8087,1.10952,1.82,-3.01,-0.42,-22.9433,-47.1698,10.7697,1014.8
381584,0.272597,9.81349,1.17169,1.61,-3.01,-0.42,-22.5946,-46.5531,10.0161,1014.8
381590,0.272597,9.84218,1.13821,1.33,-3.08,-0.49,-22.769,-47.2007,11.2277,1014.8
381596,0.296509,9.78001,1.12386,1.75,-3.15,-0.7,-22.798,-47.1082,9.1295,1014.85
381602,0.23912,9.78479,1.17647,1.54,-3.29,-0.98,-23.1177,-46.7381,10.3559,1014.85
381608,0.205643,9.78957,1.1956,1.47,-2.87,-0.91,-22.7399,-46.7073,10.5333,1014.82
381614,0.21999,9.78001,1.1956,1.54,-3.01,-1.19,-22.7399,-47.139,8.67143,1014.82
381620,0.181731,9.77044,1.18604,1.19,-3.01,-0.49,-22.8852,-46.9231,10.6515,1014.86
381626,0.200861,9.79436,1.17169,1.68,-2.94,-0.98,-22.3041,-46.1213,10.7106,1014.86
381632,0.186514,9.81349,1.15256,1.54,-3.01,-0.91,-22.9143,-47.8175,9.86832,1014.82
381638,0.21999,9.80392,1.11908,1.33,-3.71,-0.63,-23.1758,-46.9848,9.9422,1014.82
381644,0.11956,9.77044,1.24342,1.47,-3.71,-0.77,-22.9724,-46.368,10.3559,1014.82
381650,0.13869,9.68914,1.22429,1.68,-2.94,-0.77,-23.2048,-47.0773,9.41025,1014.86
381656,0.124342,9.69871,1.20516,1.89,-3.15,0.07,-22.6237,-47.4782,8.76009,1014.86
381662,0.172166,9.70827,1.18125,1.82,-3.08,0.28,-22.5365,-45.8746,10.4003,1014.83
381668,0.157819,9.74653,1.16691,2.17,-3.78,-0.28,-22.4203,-46.7381,10.6662,1014.83
381674,0.210426,9.74175,1.16212,1.82,-3.5,-0.7,-22.4784,-47.6016,9.02606,1014.85
381680,0.243902,9.78957,1.14778,1.75,-3.71,0.28,-22.5365,-46.0288,9.9422,1014.85
381686,0.248685,9.81827,1.1143,1.61,-3.64,-0.49,-22.769,-45.7821,11.1982,1014.83
381692,0.267814,9.80392,1.0856,1.26,-3.22,0.14,-22.7399,-47.5399,10.4003,1014.83
381698,0.282162,9.78479,1.17169,1.89,-2.94,-0.14,-23.1467,-47.3857,9.95698,1014.81
381704,0.229555,9.79436,1.19082,1.12,-3.01,-0.84,-22.7399,-45.8437,11.3903,1014.81
381710,0.267814,9.79914,1.18604,1.33,-3.22,-0.91,-23.0014,-46.3063,10.6515,1014.81
381716,0.253467,9.81827,1.12865,1.54,-3.29,-0.84,-23.1758,-47.3857,10.2821,1014.82
381722,0.167384,9.78001,1.18125,1.61,-3.01,-1.12,-23.1177,-45.9979,11.5676,1014.82
381728,0.167384,9.78479,1.20516,1.19,-3.43,-1.68,-23.2048,-47.3857,11.0652,1014.79
381734,0.200861,9.76088,1.15734,1.4,-3.78,-0.91,-22.9143,-47.4782,10.223,1014.79
381740,0.234338,9.80392,1.15256,1.47,-3.43,-0.91,-22.8852,-46.1521,10.9027,1014.8
381746,0.176949,9.8087,1.14778,1.26,-2.87,-1.4,-22.7109,-46.9231,10.8436,1014.8
381752,0.167384,9.77523,1.16691,1.12,-3.29,-1.19,-22.4784,-47.2624,9.95698,1014.82
381758,0.133907,9.70349,1.24821,1.47,-3.43,-1.26,-22.4493,-46.6147,11.5085,1014.82
381764,0.157819,9.70827,1.23386,1.61,-2.94,-1.19,-23.0014,-45.8129,11.5824,1014.82
381770,0.176949,9.74653,1.16691,2.38,-3.5,-0.7,-22.8852,-46.9848,9.30681,1014.84
381776,0.181731,9.7561,1.14299,1.68,-3.5,-0.63,-23.0014,-47.6016,8.89307,1014.84
381782,0.176949,9.77523,1.14778,1.61,-3.5,-0.56,-23.3211,-45.6895,10.8731,1014.79
381788,0.157819,9.76566,1.20516,1.68,-3.36,-0.49,-22.4493,-47.6633,9.63189,1014.79
381794,0.263032,9.8087,1.13821,1.47,-2.8,-0.42,-23.5826,-47.6016,10.7106,1014.83
381800,0.267814,9.8374,1.09039,1.68,-3.01,-1.12,-22.5075,-46.1521,10.2821,1014.83
381806,0.23912,9.80392,1.09039,1.33,-3.08,-1.33,-22.0716,-46.3063,11.4346,1014.83
381812,0.148254,9.79436,1.17169,0.98,-3.5,-1.4,-22.8271,-47.725,10.6071,1014.83
381818,0.243902,9.76566,1.20516,0.98,-3.22,-1.4,-22.5365,-47.2624,10.9027,1014.8
381824,0.243902,9.8087,1.15734,0.56,-3.5,-1.82,-23.2629,-46.3989,9.3807,1014.8
381830,0.224773,9.82305,1.0856,0.77,-3.15,-2.03,-22.8271,-47.9717,11.0504,1014.8
381836,0.133907,9.8087,1.13343,0.35,-3.01,-2.38,-22.8852,-48.0025,9.15905,1014.84
381842,0.071736,9.77044,1.21473,0.42,-3.5,-1.68,-22.798,-45.9363,10.7106,1014.84
381848,0.153037,9.69871,1.24821,0.77,-3.01,-1.96,-22.6818,-47.9717,9.67622,1014.83
381854,0.133907,9.71305,1.23864,0.77,-3.29,-1.47,-23.0595,-48.1876,9.64667,1014.83
381860,0.095648,9.72262,1.26734,1.19,-3.36,-0.98,-22.6818,-47.0157,10.3116,1014.86
381866,0.157819,9.74175,1.1956,1.54,-3.92,-1.05,-22.5365,-46.6147,10.3855,1014.86
381872,0.0669536,9.73218,1.18604,0.91,-3.43,-0.56,-23.815,-48.5576,9.9422,1014.85
381878,0.105213,9.7274,1.21473,1.19,-4.2,-0.63,-23.0886,-47.3549,10.1195,1014.85
381884,0.129125,9.73218,1.20038,1.47,-3.64,-0.7,-22.769,-46.2138,11.0504,1014.85
381890,0.162602,9.73218,1.1956,1.54,-3.15,-0.77,-23.1177,-47.2315,8.65665,1014.82
381896,0.181731,9.77044,1.15256,1.68,-3.36,-0.84,-22.6818,-48.4034,9.04084,1014.82
381902,0.196078,9.78479,1.18125,1.75,-3.22,-0.63,-22.3912,-46.3989,9.79444,1014.81
381908,0.200861,9.76566,1.18125,1.75,-3.64,-0.35,-22.5656,-47.2624,11.4494,1014.81
381914,0.23912,9.78479,1.16691,1.75,-3.01,-0.7,-22.3912,-48.0334,10.6515,1014.81
381920,0.243902,9.78001,1.16212,1.75,-3.01,-1.26,-22.4784,-47.6016,10.5185,1014.81
381926,0.21999,9.85174,1.15256,1.47,-2.8,-1.12,-22.246,-47.3857,10.6071,1014.79
381932,0.234338,9.89479,1.15256,0.98,-3.22,-1.54,-23.4373,-48.3109,9.36592,1014.79
381938,0.205643,9.80392,1.12386,1.05,-2.94,-1.4,-23.0305,-47.5091,10.2821,1014.79
381944,0.133907,9.77044,1.20038,1.12,-3.01,-2.17,-22.0716,-46.6456,11.2721,1014.86
381950,0.0860832,9.80392,1.17647,0.35,-3.08,-1.47,-22.1588,-47.8792,9.48413,1014.86
381956,0.157819,9.73218,1.16691,1.05,-3.08,-1.33,-21.9844,-47.6941,9.02606,1014.85
381962,0.0765184,9.75131,1.26734,1.33,-3.29,-0.98,-22.1007,-45.5662,11.7449,1014.85
381968,0.10043,9.71305,1.22429,0.84,-3.01,-1.12,-23.0886,-47.4474,10.0309,1014.83
381974,0.10043,9.70349,1.20516,1.4,-3.15,-0.56,-22.0426,-47.4474,10.223,1014.83
381980,0.071736,9.73697,1.24821,1.54,-2.73,-0.77,-23.5244,-47.3857,8.58277,1014.82
381986,0.0621712,9.68436,1.23386,1.33,-3.22,-0.56,-22.1007,-47.0157,10.814,1014.82
381992,0.071736,9.69871,1.26255,1.82,-3.08,0.35,-23.2048,-48.2801,9.64667,1014.85
381998,0.133907,9.71305,1.21473,1.47,-3.29,0.49,-22.6237,-46.7998,10.6367,1014.85
382004,0.167384,9.76566,1.1956,1.96,-3.22,-0.07,-22.246,-46.183,10.1934,1014.85
382010,0.148254,9.77523,1.17169,2.17,-2.73,0.14,-22.4493,-47.91,10.3412,1014.81
382016,0.157819,9.78479,1.15734,1.89,-3.15,0.28,-22.1007,-47.6941,9.9422,1014.81
382022,0.176949,9.78479,1.15734,1.75,-3.22,-0.07,-21.9554,-46.2138,10.9618,1014.81
382028,0.205643,9.8087,1.16691,1.61,-3.08,-0.07,-22.4203,-47.6324,10.2673,1014.81
382034,0.172166,9.79914,1.15256,1.96,-3.15,-0.56,-23.1467,-47.6324,9.92742,1014.82
382040,0.176949,9.77523,1.20038,1.68,-3.01,-0.63,-21.8101,-46.7998,9.46935,1014.82
382046,0.13869,9.7561,1.22908,1.89,-3.29,-0.14,-22.275,-46.6764,10.1343,1014.83
382052,0.143472,9.75131,1.21951,1.75,-3.29,-0.49,-22.275,-48.0025,9.86832,1014.83
382058,0.10043,9.76566,1.1956,2.03,-3.08,-0.28,-22.4493,-47.3857,11.3607,1014.83
382064,0.133907,9.7561,1.18125,1.61,-2.94,-0.14,-21.781,-47.0157,10.7253,1014.83
382070,0.105213,9.72262,1.23864,1.82,-3.22,0.49,-22.8271,-48.095,10.6662,1014.83
382076,0.11956,9.74653,1.22908,2.24,-3.29,0.07,-22.5946,-48.8352,10.814,1014.83
382082,0.114778,9.7274,1.18604,2.24,-2.94,0.42,-22.5946,-47.3857,10.1195,1014.83
382088,0.148254,9.75131,1.20516,1.82,-2.8,0.14,-22.3041,-47.6324,10.3707,1014.85
382094,0.114778,9.73218,1.16691,1.89,-3.36,0.84,-22.769,-48.1876,10.947,1014.85
382100,0.124342,9.71784,1.24821,2.03,-3.08,0.42,-22.3622,-47.2624,10.947,1014.82
382106,0.172166,9.75131,1.18125,2.17,-2.87,0.63,-22.3912,-47.4166,11.1686,1014.82
382112,0.224773,9.78001,1.18604,2.59,-3.15,0.77,-22.3622,-47.8483,9.73533,1014.82
382118,0.248685,9.84696,1.1143,1.96,-2.87,0.42,-22.0716,-47.5708,10.4446,1014.82
382124,0.243902,9.85174,1.14299,1.96,-3.01,-0.35,-22.1297,-46.5839,9.02606,1014.82
382130,0.191296,9.8374,1.16691,1.96,-3.22,-0.14,-22.5365,-47.8483,8.81919,1014.82
382136,0.176949,9.78957,1.1956,1.96,-2.8,-0.07,-22.1007,-48.3418,9.41025,1014.82
382142,0.129125,9.80392,1.19082,1.61,-3.01,-0.35,-21.8682,-46.3989,10.2821,1014.81
382148,0.153037,9.79914,1.17647,1.96,-3.08,-0.49,-22.6818,-47.6633,10.0161,1014.81
382154,0.157819,9.7561,1.21951,1.96,-3.08,-0.35,-22.4493,-47.9408,8.9374,1014.85
382160,0.11956,9.74653,1.23386,2.17,-3.36,-0.35,-22.5656,-47.1698,9.691,1014.85
382166,0.148254,9.74653,1.14778,1.75,-3.01,0,-23.0305,-47.0773,10.4594,1014.83
382172,0.11956,9.78001,1.20516,1.82,-3.08,-0.21,-23.4082,-47.7558,8.80442,1014.83
382178,0.143472,9.77044,1.17647,2.17,-3.08,0.49,-22.5365,-48.0025,10.3855,1014.83
382184,0.148254,9.80392,1.17647,2.17,-3.29,0.28,-22.5365,-46.7073,10.8731,1014.81
382190,0.129125,9.7274,1.20516,2.17,-3.29,0.49,-22.0135,-47.6941,9.04084,1014.81
382196,0.11956,9.72262,1.20516,2.03,-3.36,0.77,-22.7399,-47.5708,9.67622,1014.85
382202,0.129125,9.74653,1.1956,2.24,-3.22,0.91,-22.1007,-46.4297,10.3264,1014.85
382208,0.143472,9.74175,1.16691,2.17,-3.5,0.84,-22.769,-47.6016,8.96696,1014.82
382214,0.148254,9.76566,1.17169,2.45,-3.22,0.63,-22.798,-48.1876,7.88828,1014.82
382220,0.272597,9.81349,1.12386,2.66,-2.87,0.42,-21.8682,-47.324,9.70578,1014.79
382226,0.200861,9.79914,1.19082,2.17,-2.94,0.21,-22.275,-46.4605,10.09,1014.79
382232,0.186514,9.80392,1.18604,2.1,-2.73,17.78,-22.9724,-47.324,10.0456,1014.79
382238,0.162602,9.78001,1.20995,2.24,-3.43,0.14,-22.1878,-47.2932,10.1491,1014.85
382244,0.157819,9.79914,1.1956,2.17,-3.57,-0.28,-23.2048,-47.2932,10.3412,1014.85
382250,0.176949,9.7274,1.20516,2.03,-3.22,0.07,-22.1297,-47.6633,9.29204,1014.82
382256,0.13869,9.74653,1.24342,2.38,-2.66,0.49,-22.5946,-47.1698,8.70098,1014.82
382262,0.11956,9.78001,1.1956,2.1,-3.36,-0.28,-22.7399,-46.5531,9.86832,1014.83
382268,0.143472,9.74653,1.18125,2.03,-3.08,0.07,-23.2048,-47.0157,11.5381,1014.83
382274,0.124342,9.77044,1.21473,2.17,-2.66,0.35,-23.1467,-48.5576,9.15905,1014.82
382280,0.124342,9.78001,1.19082,2.17,-2.87,0.56,-22.7109,-47.1082,9.21815,1014.82
382286,0.124342,9.78001,1.15734,2.03,-3.57,0.21,-22.4784,-46.4605,9.49891,1014.82
382292,0.162602,9.78001,1.16691,1.89,-3.29,0.35,-23.2048,-47.5708,8.64188,1014.86
382298,0.133907,9.78001,1.16691,2.38,-3.29,1.26,-22.2169,-46.9848,9.73533,1014.86
382304,0.162602,9.76088,1.20038,2.17,-3.01,0.98,-22.5946,-46.0288,9.79444,1014.86
382310,0.148254,9.71305,1.23386,2.24,-2.73,1.26,-22.4784,-47.4166,9.49891,1014.86
382316,0.148254,9.73218,1.23864,2.31,-3.29,0.14,-22.7399,-47.7558,11.0209,1014.8
382322,0.153037,9.76088,1.17647,2.38,-2.94,0.7,-21.9263,-46.4605,9.72055,1014.8
382328,0.267814,9.78957,1.14299,2.66,-3.01,0.84,-22.5656,-47.3857,10.0161,1014.84
382334,0.143472,9.78001,1.1956,2.45,-3.43,0.63,-23.1467,-48.5268,9.14427,1014.84
382340,0.210426,9.77523,1.19082,2.59,-3.15,0.63,-22.6818,-46.6764,11.1243,1014.83
382346,0.210426,9.81827,1.21951,2.52,-3.08,0.42,-22.1588,-46.3372,10.6071,1014.83
382352,0.210426,9.76566,1.1956,2.31,-2.8,0.42,-22.769,-47.725,8.81919,1014.83
382358,0.181731,9.77523,1.1956,2.66,-3.08,0.21,-22.5946,-47.1698,9.36592,1014.82
382364,0.148254,9.79914,1.1956,2.73,-3.15,0.35,-21.6358,-46.0288,11.1539,1014.82
382370,0.162602,9.78001,1.14778,2.52,-3.01,0.21,-21.8682,-48.1876,9.08517,1014.83
382376,0.143472,9.7561,1.19082,2.31,-2.87,0.49,-22.0716,-47.4474,10.2082,1014.83
382382,0.11956,9.78957,1.20995,2.17,-2.87,0.63,-22.5075,-47.139,10.5185,1014.83
382388,0.133907,9.77523,1.18125,2.38,-2.87,0.28,-22.4203,-46.5222,10.1638,1014.83
382394,0.148254,9.75131,1.23386,2.31,-3.5,0.49,-22.1297,-48.4343,10.1195,1014.84
382400,0.172166,9.77523,1.16212,2.59,-3.36,0.77,-22.5946,-46.3989,9.82399,1014.84
382406,0.114778,9.75131,1.18604,2.52,-2.8,1.4,-22.7399,-46.7998,10.3116,1014.84
382412,0.191296,9.76088,1.17169,2.66,-2.87,1.05,-22.7399,-48.1876,9.80921,1014.81
382418,0.167384,9.73697,1.20038,3.01,-2.73,0.56,-22.1297,-47.8792,9.64667,1014.81
382424,0.162602,9.76088,1.15734,2.24,-2.94,1.33,-22.4784,-46.2138,11.1982,1014.83
382430,0.196078,9.78001,1.17169,2.52,-3.22,0.91,-22.0716,-47.6941,10.7106,1014.83
382436,0.200861,9.78001,1.16691,2.87,-3.22,0.7,-22.6237,-48.095,9.24771,1014.83
382442,0.253467,9.80392,1.14299,2.17,-3.15,0.49,-22.1878,-46.7073,10.7845,1014.83
382448,0.224773,9.80392,1.10952,2.8,-2.73,0.63,-22.3331,-47.8483,10.223,1014.84
382454,0.205643,9.81349,1.13821,2.31,-3.15,0.35,-22.3622,-48.1567,8.84875,1014.84
382460,0.215208,9.81349,1.17169,2.03,-3.36,0.42,-22.5075,-46.954,11.8188,1014.84
382466,0.224773,9.79914,1.17169,1.96,-2.73,0.14,-22.769,-46.7073,11.3164,1014.81
382472,0.210426,9.80392,1.13343,2.03,-3.01,0.14,-22.6818,-48.3726,9.92742,1014.81
382478,0.143472,9.79436,1.13821,2.31,-3.08,-0.07,-22.4203,-48.0642,10.7106,1014.81
382484,0.157819,9.76088,1.17647,1.82,-2.87,0.14,-22.4784,-47.139,11.1391,1014.81
382490,0.157819,9.76088,1.19082,1.68,-3.15,0.35,-22.7399,-48.0642,10.6367,1014.82
382496,0.162602,9.75131,1.15734,2.24,-3.85,0.14,-23.0305,-47.4166,9.02606,1014.82
382502,0.181731,9.75131,1.17647,1.96,-3.08,0.63,-22.1878,-46.2138,10.1934,1014.83
382508,0.191296,9.78479,1.15256,2.38,-3.5,0.63,-21.7229,-47.4782,10.0309,1014.83
382514,0.157819,9.74175,1.1956,2.38,-3.64,0.84,-22.6237,-48.1567,9.79444,1014.85
382520,0.172166,9.73697,1.18604,2.1,-3.22,0.56,-22.8852,-47.725,10.5628,1014.85
382526,0.200861,9.75131,1.17647,2.24,-2.94,0.35,-22.5365,-46.368,11.5381,1014.85
382532,0.205643,9.76566,1.15734,1.96,-3.08,0.07,-22.0716,-48.3726,9.67622,1014.8
382538,0.176949,9.77523,1.14778,3.15,-3.43,0.56,-22.3041,-47.4782,11.0209,1014.8
382544,0.181731,9.80392,1.15256,2.38,-3.15,0.63,-22.1007,-46.4605,10.3559,1014.87
382550,0.215208,9.82305,1.15256,2.1,-3.08,0.07,-22.9143,-48.0642,9.86832,1014.87
382556,0.229555,9.8087,1.13343,2.1,-3.36,-0.14,-21.6067,-47.6941,10.1195,1014.82
382562,0.229555,9.78479,1.17169,2.52,-3.29,0.35,-22.0135,-46.1213,11.08,1014.82
382568,0.253467,9.80392,1.13821,1.47,-2.94,-0.07,-21.9263,-46.9848,9.66145,1014.79
382574,0.248685,9.78957,1.14778,2.03,-2.73,-0.28,-21.8682,-48.2184,9.07039,1014.79
382580,0.176949,9.79436,1.13343,1.89,-3.29,-0.35,-21.781,-46.7073,10.2377,1014.79
382586,0.148254,9.80392,1.18125,2.03,-3.08,-0.77,-21.8392,-45.9979,9.63189,1014.82
382592,0.176949,9.79436,1.14299,2.1,-2.73,-0.35,-23.1758,-48.3109,8.1247,1014.82
382598,0.210426,9.78001,1.12865,1.54,-2.8,-0.49,-22.8852,-46.5531,11.213,1014.79
382604,0.153037,9.78001,1.15256,1.89,-3.36,-0.77,-22.5365,-46.5222,11.0061,1014.79
382610,0.181731,9.76088,1.1956,1.96,-3.15,-0.7,-21.7229,-46.954,10.9913,1014.81
382616,0.13869,9.77044,1.22429,1.75,-2.94,-0.07,-22.6818,-48.0642,10.3116,1014.81
382622,0.191296,9.72262,1.20516,1.96,-3.29,0.07,-22.8561,-45.9979,10.5185,1014.81
382628,0.181731,9.7561,1.17169,2.17,-3.71,-0.42,-22.7109,-47.2315,10.1491,1014.81
382634,0.200861,9.77044,1.19082,2.31,-3.08,-0.42,-22.275,-48.0334,10.1638,1014.81
382640,0.21999,9.77044,1.19082,2.31,-3.01,-0.28,-22.3331,-47.2932,11.4789,1014.82
382646,0.172166,9.79436,1.14778,2.1,-2.73,-0.49,-22.6237,-46.2755,10.7845,1014.82
382652,0.25825,9.82783,1.11908,1.96,-3.15,-0.49,-23.0595,-48.0334,10.1195,1014.84
382658,0.263032,9.81349,1.12386,1.82,-2.94,-0.77,-22.6237,-46.7073,10.9618,1014.84
382664,0.234338,9.81827,1.15734,1.96,-3.29,-1.05,-22.3041,-46.4297,11.3903,1014.82
382670,0.196078,9.81349,1.11908,1.54,-2.8,-0.98,-22.8561,-48.095,9.01129,1014.82
382676,0.186514,9.79914,1.11908,1.61,-3.15,-1.33,-23.0305,-48.1259,9.57279,1014.84
382682,0.162602,9.79436,1.11908,1.89,-3.36,-1.05,-22.3622,-46.6147,10.4446,1014.84
382688,0.205643,9.76088,1.13821,1.75,-3.5,-1.05,-22.2169,-46.5222,10.1195,1014.84
382694,0.162602,9.79914,1.17647,1.4,-3.43,-0.98,-23.0886,-47.9408,9.61712,1014.84
382700,0.114778,9.75131,1.16212,1.61,-2.94,-0.63,-23.2048,-46.7689,12.1439,1014.84
382706,0.11956,9.77044,1.17647,1.4,-3.29,-0.7,-23.0305,-46.2755,10.1343,1014.83
382712,0.133907,9.70827,1.20995,2.17,-3.08,-0.28,-22.5946,-47.3549,9.72055,1014.83
382718,0.148254,9.72262,1.18125,1.68,-3.22,-0.42,-21.9844,-47.2315,9.49891,1014.83
382724,0.133907,9.74653,1.16691,2.03,-3.43,-0.21,-22.5656,-46.7381,10.7401,1014.83
382730,0.105213,9.76566,1.13821,1.96,-3.22,0.07,-22.1878,-47.6941,10.2673,1014.81
382736,0.162602,9.78957,1.11908,2.03,-3.5,0.28,-22.9724,-47.7866,10.6958,1014.81
382742,0.176949,9.78957,1.11908,1.68,-2.94,-0.14,-22.3041,-46.6456,11.2721,1014.81
382748,0.181731,9.78957,1.14778,1.89,-3.08,-0.21,-22.1297,-46.5839,11.5676,1014.81
382754,0.172166,9.79436,1.14299,1.54,-3.22,-0.35,-23.3792,-48.5268,10.9174,1014.81
382760,0.205643,9.75131,1.15734,1.4,-3.15,-0.28,-22.7109,-46.1213,11.2721,1014.86
382766,0.248685,9.77523,1.14778,1.75,-3.36,-0.28,-23.4663,-45.9363,10.947,1014.86
382772,0.229555,9.79436,1.15256,1.33,-3.08,-0.98,-22.769,-47.139,11.1095,1014.82
382778,0.153037,9.8087,1.13821,1.47,-2.66,-1.12,-22.9143,-47.1082,12.6611,1014.82
382784,0.124342,9.76088,1.17169,1.96,-3.08,-0.77,-22.769,-45.7821,11.5381,1014.85
382790,0.162602,9.73218,1.1956,1.89,-3.08,-0.77,-22.6818,-46.9231,10.7106,1014.85
382796,0.200861,9.75131,1.1956,1.61,-3.29,-0.28,-22.5946,-46.954,9.85354,1014.84
382802,0.148254,9.78957,1.14778,1.82,-2.8,0.21,-22.3622,-46.3372,10.6367,1014.84
382808,0.13869,9.76566,1.15734,1.89,-2.94,-0.21,-22.769,-47.0465,10.9027,1014.84
382814,0.109995,9.73697,1.17169,1.54,-3.29,-0.56,-22.5946,-46.9848,9.05562,1014.82
382820,0.114778,9.77044,1.22908,1.68,-3.36,0.14,-22.246,-46.7998,11.5824,1014.82
382826,0.143472,9.75131,1.16691,2.38,-3.57,0.49,-22.4784,-46.5839,9.691,1014.81
382832,0.11956,9.78001,1.13821,1.96,-3.57,-0.49,-23.1758,-47.5091,10.2082,1014.81
382838,0.176949,9.76088,1.16691,1.89,-3.15,-0.35,-22.1588,-46.8615,9.79444,1014.79
382844,0.162602,9.76566,1.13343,1.96,-3.57,0.21,-22.7399,-47.3549,11.3755,1014.79
382850,0.210426,9.78957,1.1143,1.33,-3.36,-0.28,-21.4324,-48.0025,11.2573,1014.86
382856,0.215208,9.80392,1.13343,1.75,-3.08,-0.07,-23.2339,-47.6633,11.2573,1014.86
382862,0.205643,9.83261,1.10473,1.89,-2.94,-0.56,-21.5776,-46.4297,12.3212,1014.84
382868,0.243902,9.81349,1.12386,1.4,-3.36,-0.63,-22.7109,-47.1082,11.5233,1014.84
382874,0.157819,9.81349,1.16691,1.05,-3.08,-0.84,-22.5946,-47.324,10.8879,1014.84
382880,0.205643,9.77523,1.17169,1.61,-3.43,-0.56,-22.1878,-46.6764,11.2721,1014.81
382886,0.196078,9.81349,1.20038,1.4,-3.22,-0.63,-22.1878,-46.3989,11.5972,1014.81
382892,0.167384,9.79914,1.18604,1.26,-3.64,-1.05,-21.6648,-47.7866,10.4594,1014.82
382898,0.133907,9.78001,1.19082,1.19,-2.73,-0.7,-22.7109,-47.0773,10.1491,1014.82
382904,0.114778,9.78001,1.1956,1.33,-3.01,-0.56,-22.1588,-46.4914,11.804,1014.84
382910,0.114778,9.73697,1.20516,1.54,-3.71,-0.49,-22.3331,-48.2492,10.814,1014.84
382916,0.148254,9.75131,1.20516,1.68,-3.57,-0.49,-22.6818,-48.0025,8.84875,1014.82
382922,0.124342,9.74653,1.20038,1.75,-3.57,0,-22.2169,-47.0157,11.1243,1014.82
382928,0.129125,9.71305,1.17169,2.03,-3.36,0.07,-21.8101,-47.8792,10.3707,1014.82
382934,0.124342,9.74653,1.17169,1.75,-3.5,0.14,-22.798,-48.095,10.1491,1014.86
382940,0.133907,9.74653,1.16691,1.75,-3.36,0.28,-22.6237,-47.3549,10.8583,1014.86
382946,0.167384,9.73218,1.15734,1.96,-3.43,-0.14,-22.6527,-46.5839,11.4937,1014.84
382952,0.200861,9.74653,1.14778,2.03,-2.87,-0.21,-23.1758,-48.866,9.63189,1014.84
382958,0.210426,9.79436,1.13343,2.24,-3.57,0.35,-22.7109,-47.6633,11.0948,1014.82
382964,0.267814,9.80392,1.09039,1.82,-3.29,-0.07,-22.5075,-47.0773,11.2721,1014.82
382970,0.200861,9.79914,1.15256,2.31,-3.57,-0.84,-22.2169,-47.8792,10.6219,1014.84
382976,0.196078,9.8087,1.13821,1.75,-3.01,-0.49,-23.1177,-48.1567,9.75011,1014.84
382982,0.186514,9.82783,1.16212,1.54,-3.08,-0.28,-23.0595,-46.7381,10.9765,1014.84
382988,0.162602,9.79436,1.15734,1.33,-2.94,-0.7,-23.3792,-47.2624,10.9027,1014.8
382994,0.133907,9.78001,1.16691,1.82,-3.36,0.07,-22.9143,-48.4034,9.76488,1014.8
383000,0.0908656,9.76566,1.21473,1.82,-3.08,-0.42,-22.798,-47.5091,11.1539,1014.82
383006,0.124342,9.76088,1.16691,1.68,-3.29,-0.77,-21.8101,-46.5222,11.4051,1014.82
383012,0.133907,9.76088,1.17169,1.96,-3.5,0.42,-23.3792,-48.2184,9.51368,1014.84
383018,0.13869,9.74653,1.20516,2.1,-3.15,0.28,-22.5365,-47.5708,10.6071,1014.84
383024,0.148254,9.73697,1.21951,2.24,-3.22,-0.07,-22.275,-46.7381,11.0061,1014.82
383030,0.143472,9.74653,1.17647,1.96,-3.43,0.35,-22.7399,-47.5708,11.7154,1014.82
383036,0.129125,9.7274,1.18125,2.24,-3.57,0.42,-22.275,-47.6324,10.5628,1014.86
383042,0.176949,9.7561,1.16691,2.17,-3.15,0.49,-22.9724,-46.8306,11.3607,1014.86
383048,0.143472,9.77044,1.16691,2.38,-2.94,0.35,-23.292,-47.9408,11.7745,1014.86
383054,0.196078,9.76088,1.13343,2.24,-3.15,0.28,-22.9724,-47.9408,10.4594,1014.83
383060,0.176949,9.78957,1.10952,2.31,-3.15,0.49,-22.8561,-47.0465,10.4741,1014.83
383066,0.191296,9.79436,1.10952,2.24,-3.43,-0.21,-22.7399,-47.0773,11.804,1014.81
383072,0.229555,9.81827,1.10952,1.96,-3.57,0.21,-22.3912,-48.866,9.91265,1014.81
383078,0.224773,9.77523,1.09517,1.89,-2.94,-0.21,-22.4493,-47.7558,10.6958,1014.81
383084,0.129125,9.80392,1.17169,1.82,-3.29,-0.07,-22.5365,-47.3857,10.6219,1014.81
383090,0.196078,9.77523,1.14778,1.75,-2.66,0.21,-22.798,-47.6633,11.5381,1014.82
383096,0.114778,9.78957,1.14778,1.89,-3.01,-0.21,-22.3912,-47.8792,10.9618,1014.82
383102,0.13869,9.77523,1.18125,1.75,-3.29,-0.28,-22.5075,-45.8746,9.82399,1014.82
383108,0.172166,9.77044,1.17647,1.68,-3.36,0.42,-22.7109,-47.0157,10.947,1014.82
383114,0.13869,9.77044,1.20038,2.17,-3.15,0.14,-22.1878,-48.3109,9.51368,1014.82
383120,0.11956,9.7561,1.18125,1.89,-2.8,0.14,-22.3331,-46.7689,10.9174,1014.81
383126,0.143472,9.76088,1.18125,2.38,-2.66,0.21,-22.2169,-46.8306,11.3016,1014.81
383132,0.162602,9.74653,1.14299,2.24,-3.22,-0.21,-21.4324,-47.9717,10.5333,1014.85
383138,0.167384,9.74175,1.15734,2.03,-3.22,0.21,-22.2169,-47.725,10.4298,1014.85
383144,0.167384,9.75131,1.16212,2.17,-2.94,0.84,-22.0426,-45.8129,10.09,1014.79
383150,0.143472,9.74175,1.16691,2.1,-2.94,0.49,-22.275,-46.6764,10.0013,1014.79
383156,0.148254,9.78479,1.14299,1.68,-2.94,0.63,-22.2169,-47.725,10.5628,1014.79
383162,0.172166,9.76088,1.12386,2.31,-3.5,0.49,-22.1297,-46.183,10.2377,1014.83
383168,0.191296,9.78479,1.16212,2.03,-3.36,0.49,-22.6818,-46.6764,10.5037,1014.83
383174,0.263032,9.78479,1.1143,2.17,-3.15,0.07,-22.8271,-47.9717,10.548,1014.81
383180,0.167384,9.85653,1.13343,2.1,-3.57,-0.42,-22.5946,-47.4166,10.548,1014.81
383186,0.191296,9.8087,1.18604,1.54,-3.01,0.42,-22.8271,-45.6279,12.203,1014.82
383192,0.167384,9.78479,1.17169,2.03,-2.94,-0.07,-22.1588,-48.1567,9.4398,1014.82
383198,0.186514,9.78001,1.20995,2.1,-3.01,0.35,-22.1007,-47.4782,9.15905,1014.78
383204,0.148254,9.7561,1.18125,2.31,-2.73,-0.35,-23.0305,-46.2755,9.76488,1014.78
383210,0.129125,9.78479,1.14778,2.17,-3.29,-0.35,-21.9263,-47.6941,9.89787,1014.81
383216,0.13869,9.74175,1.1956,2.24,-3.08,0.35,-22.275,-47.324,9.1886,1014.81
383222,0.143472,9.71784,1.22908,2.31,-3.22,0,-21.752,-45.9363,11.7154,1014.81
383228,0.11956,9.7274,1.1956,2.59,-3.01,0,-22.4203,-47.5399,9.9422,1014.83
383234,0.153037,9.74653,1.14299,2.94,-3.08,0.35,-22.7399,-47.8792,10.8288,1014.83
383240,0.13869,9.7561,1.13821,2.45,-3.22,0.7,-22.0716,-47.0773,10.1786,1014.81
383246,0.109995,9.76088,1.16691,2.8,-3.36,0.21,-21.6067,-46.5531,11.0948,1014.81
383252,0.196078,9.71305,1.14299,2.52,-3.57,0.63,-22.6237,-47.9408,8.64188,1014.86
383258,0.153037,9.73697,1.13821,2.8,-3.08,1.19,-22.8852,-48.0642,10.9027,1014.86
383264,0.25825,9.77523,1.13821,2.73,-3.43,0.77,-22.6237,-46.4297,10.1195,1014.83
383270,0.224773,9.78957,1.12386,2.45,-2.31,0.42,-22.1297,-46.7689,11.3903,1014.83
383276,0.23912,9.82783,1.09995,2.31,-2.94,0.14,-22.3331,-47.1698,10.0309,1014.83
383282,0.23912,9.8374,1.09517,2.1,-3.15,0,-22.1297,-46.368,10.6071,1014.82
383288,0.191296,9.78957,1.12865,2.59,-2.73,0.28,-22.5946,-47.2932,11.4789,1014.82
383294,0.143472,9.80392,1.14299,1.68,-2.8,-0.14,-22.3331,-47.4474,9.67622,1014.84
383300,0.153037,9.78001,1.14778,1.89,-3.15,0.07,-22.246,-46.8615,11.1686,1014.84
383306,0.172166,9.77523,1.16691,2.59,-2.87,0,-22.8271,-47.0773,12.6463,1014.83
383312,0.200861,9.71784,1.15734,2.31,-3.01,-0.07,-22.1588,-47.7866,11.3016,1014.83
383318,0.148254,9.75131,1.16691,2.1,-3.15,-0.07,-22.3622,-47.139,10.9322,1014.82
383324,0.13869,9.76088,1.16691,2.59,-3.22,-0.07,-22.8271,-47.2932,9.64667,1014.82
383330,0.129125,9.75131,1.16691,2.03,-3.08,0.42,-22.1588,-48.4651,10.5628,1014.82
383336,0.148254,9.70827,1.17647,2.24,-3.15,0.35,-22.7109,-46.7381,9.1886,1014.82
383342,0.176949,9.71305,1.15256,2.38,-2.45,0.42,-22.1878,-46.0596,9.92742,1014.82
383348,0.191296,9.71784,1.17169,2.52,-3.08,0.56,-22.0716,-46.2138,10.0309,1014.82
383354,0.148254,9.7561,1.16212,3.01,-3.36,0.56,-22.5075,-48.095,10.3559,1014.82
383360,0.181731,9.74175,1.15734,3.08,-3.57,0.56,-22.3622,-46.7381,9.61712,1014.83
383366,0.21999,9.78957,1.13821,2.52,-2.8,0.91,-22.275,-45.8129,10.9027,1014.83
383372,0.200861,9.7561,1.15734,3.36,-3.15,0.49,-22.4493,-47.6016,10.681,1014.83
383378,0.200861,9.80392,1.12386,3.29,-3.01,0.56,-22.7399,-47.4782,10.4298,1014.83
383384,0.196078,9.7561,1.16212,3.36,-3.01,0.77,-22.798,-45.7821,11.671,1014.84
383390,0.263032,9.80392,1.11908,2.87,-3.29,0.42,-22.6237,-47.8483,10.4003,1014.84
383396,0.234338,9.82783,1.08082,3.22,-3.29,17.78,-22.9724,-47.725,9.75011,1014.84
383402,0.205643,9.79436,1.14778,3.01,-3.15,-0.28,-22.246,-46.6456,9.63189,1014.82
383408,0.148254,9.78957,1.17169,3.15,-3.57,-0.07,-22.9724,-47.6633,10.1047,1014.82
383414,0.153037,9.83261,1.10952,2.66,-3.36,0.28,-23.0886,-47.9717,9.23293,1014.82
383420,0.23912,9.84696,1.06169,2.73,-3.64,-0.21,-22.6527,-46.6456,11.1539,1014.82
383426,0.200861,9.84218,1.02343,2.24,-3.5,-0.49,-22.4784,-46.4605,9.60234,1014.82
383432,0.153037,9.82305,1.08082,2.1,-3.36,-0.35,-22.6818,-48.0642,9.73533,1014.82
383438,0.124342,9.78479,1.1143,1.89,-2.94,0.42,-23.4082,-46.9231,9.4398,1014.84
383444,0.133907,9.76088,1.09517,1.61,-2.94,-0.21,-22.7399,-45.7512,10.6071,1014.84
383450,0.148254,9.68914,1.22908,2.59,-3.64,-0.07,-22.8852,-47.5091,9.51368,1014.84
383456,0.157819,9.67001,1.24342,2.31,-3.15,0.35,-22.6527,-47.139,10.5185,1014.81
383462,0.153037,9.61741,1.24342,3.01,-3.15,0.7,-22.1878,-46.0905,10.4446,1014.81
383468,0.124342,9.66523,1.25299,3.71,-3.36,0.84,-22.6527,-46.6764,9.45458,1014.82
383474,0.153037,9.66045,1.26734,4.2,-3.43,0.98,-23.0886,-47.2007,8.21336,1014.82
383480,0.167384,9.70827,1.17647,4.27,-3.36,0.98,-22.8561,-46.4297,10.3855,1014.82
383486,0.172166,9.77523,1.11908,4.48,-3.43,0.7,-22.3331,-46.368,10.2525,1014.82
383492,0.23912,9.8087,1.05691,4.27,-3.29,1.05,-22.0426,-48.0334,9.15905,1014.84
383498,0.23912,9.87566,1.033,4.06,-3.43,0.56,-22.3041,-47.6941,8.9374,1014.84
383504,0.25825,9.84218,1.01387,3.78,-2.73,0.35,-22.2169,-46.3989,10.2377,1014.84
383510,0.263032,9.9187,0.999522,3.22,-3.22,-0.07,-22.1588,-47.4474,10.1786,1014.83
383516,0.243902,9.86609,1.033,2.8,-2.87,0.21,-22.6527,-47.4782,9.88309,1014.83
383522,0.224773,9.89479,0.97561,2.31,-3.15,0.42,-22.5946,-46.4605,9.05562,1014.82
383528,0.200861,9.87087,0.994739,1.89,-3.29,-0.63,-22.9433,-46.7998,9.08517,1014.82
383534,0.13869,9.80392,1.07126,1.47,-2.94,-0.28,-22.5656,-48.1567,9.89787,1014.81
383540,0.129125,9.7561,1.1143,1.47,-3.15,-0.28,-23.3211,-46.954,9.98653,1014.81
383546,0.148254,9.70349,1.18125,2.24,-3.5,-0.21,-23.2629,-46.8923,10.4298,1014.85
383552,0.191296,9.72262,1.19082,2.94,-3.43,0.14,-22.6237,-47.5708,10.415,1014.85
383558,0.13869,9.7274,1.16212,2.73,-3.15,0.49,-22.8271,-46.5531,10.1786,1014.8
383564,0.157819,9.71784,1.15734,2.8,-3.01,0,-22.3622,-46.4914,11.3755,1014.8
383570,0.176949,9.73697,1.09517,3.08,-3.15,0.42,-21.9554,-46.6456,10.2968,1014.8
383576,0.196078,9.77044,1.12386,2.8,-2.94,0.91,-23.0595,-47.2932,10.7697,1014.83
383582,0.205643,9.77523,1.0856,2.66,-2.94,0.42,-22.2169,-46.0288,10.681,1014.83
383588,0.200861,9.79914,1.09995,2.94,-3.29,0.35,-22.0716,-46.6456,9.88309,1014.81
383594,0.215208,9.79436,1.07604,3.08,-3.29,0.77,-22.0716,-48.1567,10.223,1014.81
383600,0.23912,9.84218,1.03778,2.87,-3.64,0.7,-23.4373,-46.3063,10.0013,1014.82
383606,0.23912,9.84696,1.02822,2.38,-3.08,0.49,-22.6527,-46.183,9.91265,1014.82
383612,0.205643,9.84218,1.02343,1.89,-2.52,0.56,-22.9724,-47.8175,9.36592,1014.84
383618,0.263032,9.82305,1.04735,2.17,-2.52,-0.14,-22.6237,-47.2932,9.60234,1014.84
383624,0.229555,9.85653,1.05691,2.24,-2.52,-0.21,-22.3041,-46.2755,11.4642,1014.84
383630,0.23912,9.87566,1.0043,1.47,-2.52,-0.28,-23.0595,-47.6941,11.5381,1014.83
383636,0.196078,9.85653,1.01865,1.33,-2.8,0.07,-22.275,-47.5091,11.5676,1014.83
383642,0.181731,9.81827,1.06169,1.19,-3.15,-0.42,-22.5946,-46.7689,11.5824,1014.8
383648,0.229555,9.78957,1.09995,0.98,-2.94,-0.28,-23.0014,-46.7998,11.1095,1014.8
383654,0.210426,9.81349,1.06648,1.19,-3.01,-0.28,-22.5946,-47.725,10.0456,1014.81
383660,0.162602,9.79436,1.13821,1.26,-3.22,-0.35,-23.0595,-46.2447,9.86832,1014.81
383666,0.143472,9.79436,1.0856,1.61,-2.87,0,-22.6527,-46.8615,11.0652,1014.82
383672,0.186514,9.7561,1.15256,1.68,-3.5,0.07,-22.9143,-47.6633,9.86832,1014.82
383678,0.157819,9.77523,1.11908,1.05,-2.73,0.77,-22.1588,-47.2932,10.9618,1014.82
383684,0.181731,9.73218,1.06648,1.4,-3.15,-0.49,-22.6237,-46.183,11.0061,1014.83
383690,0.162602,9.78479,1.0856,1.47,-3.15,-0.14,-22.7109,-47.7866,10.1343,1014.83
383696,0.205643,9.78001,1.03778,0.98,-2.66,0.98,-22.0426,-48.1567,9.66145,1014.81
383702,0.205643,9.82305,1.02343,1.19,-2.94,-0.21,-22.8561,-46.2755,10.8879,1014.81
383708,0.186514,9.8087,1.04735,0.7,-3.01,-0.28,-22.3622,-47.4474,10.8288,1014.85
383714,0.196078,9.8087,1.06169,0.63,-2.94,0,-22.798,-47.6633,9.46935,1014.85
383720,0.229555,9.80392,1.09995,0.56,-2.87,0.28,-23.0014,-46.9848,11.804,1014.86
383726,0.248685,9.8087,1.13821,0.49,-2.73,-0.49,-22.8852,-46.7073,11.1095,1014.86
383732,0.243902,9.79914,1.09517,0.7,-2.87,-0.35,-23.3501,-47.2624,9.35114,1014.85
383738,0.234338,9.81827,1.06648,0.42,-2.73,-0.35,-22.9433,-46.4914,11.3164,1014.85
383744,0.234338,9.82783,1.1143,0.63,-2.73,-0.7,-22.246,-46.2447,10.2377,1014.85
383750,0.181731,9.78001,1.16212,0.35,-2.38,-0.35,-22.798,-47.9408,9.73533,1014.83
383756,0.157819,9.72262,1.18125,0.63,-2.66,-0.7,-23.7278,-48.0334,9.32159,1014.83
383762,0.148254,9.73218,1.18125,0.7,-3.15,-0.56,-22.9724,-46.7998,10.4594,1014.82
383768,0.162602,9.76566,1.13821,1.05,-3.29,-0.21,-22.7109,-46.7073,10.6958,1014.82
383774,0.167384,9.7561,1.13343,0.98,-3.01,-0.49,-22.6818,-48.2801,8.98173,1014.83
383780,0.191296,9.78001,1.09995,0.91,-3.08,-0.42,-23.2048,-46.5531,9.63189,1014.83
383786,0.153037,9.73218,1.12386,1.05,-3.43,0.35,-22.9724,-46.368,10.0752,1014.86
383792,0.186514,9.77044,1.11908,0.84,-3.29,0.14,-22.9433,-48.1259,9.27726,1014.86
383798,0.181731,9.75131,1.09517,1.12,-3.01,-0.42,-23.3211,-47.0773,9.75011,1014.86
383804,0.215208,9.7561,1.12386,1.12,-3.36,0.07,-22.6818,-45.5662,11.2573,1014.82
383810,0.205643,9.7561,1.1143,1.12,-2.94,-0.28,-22.8852,-47.2624,9.88309,1014.82
383816,0.186514,9.74653,1.13821,1.19,-2.87,0.21,-21.8973,-47.8792,10.0309,1014.8
383822,0.210426,9.77044,1.12865,1.19,-3.36,0.49,-23.2629,-46.1521,9.24771,1014.8
383828,0.229555,9.77044,1.09517,0.98,-3.08,-0.42,-23.0595,-46.1213,9.57279,1014.82
383834,0.23912,9.77523,1.1143,1.12,-3.29,-0.49,-23.2629,-47.9717,9.45458,1014.82
383840,0.21999,9.82783,1.09039,0.91,-2.8,0.63,-22.798,-45.8746,11.213,1014.83
383846,0.23912,9.78957,1.07126,0.7,-2.52,-0.77,-22.3912,-45.9363,10.6958,1014.83
383852,0.210426,9.77523,1.09995,0.63,-2.94,-0.84,-22.6527,-47.6941,9.79444,1014.83
383858,0.210426,9.78479,1.13343,0.7,-3.08,-0.21,-22.5946,-46.3989,10.0013,1014.82
383864,0.210426,9.76566,1.15734,0.91,-2.24,-0.35,-22.4493,-45.4428,9.72055,1014.82
383870,0.224773,9.77523,1.13343,1.19,-3.08,-0.91,-22.3041,-47.324,9.91265,1014.81
383876,0.167384,9.7561,1.15256,0.77,-2.73,-0.63,-22.1588,-47.725,10.0013,1014.81
383882,0.172166,9.78001,1.17169,1.12,-3.08,-0.77,-22.3622,-46.0905,10.0604,1014.82
383888,0.172166,9.74653,1.17647,1.12,-2.94,-0.21,-22.6237,-46.4914,10.1195,1014.82
383894,0.172166,9.76088,1.14299,1.33,-3.15,0.21,-23.1758,-47.2315,9.3807,1014.83
383900,0.172166,9.7561,1.13821,1.12,-2.87,-0.21,-21.752,-46.4297,10.7401,1014.83
383906,0.176949,9.74653,1.12386,1.33,-2.94,-0.42,-23.0595,-46.1521,9.4398,1014.81
383912,0.148254,9.75131,1.12865,1.54,-3.43,0.21,-23.0886,-47.6633,9.32159,1014.81
383918,0.13869,9.7561,1.13821,1.33,-3.01,0.14,-22.9433,-46.7689,8.8783,1014.81
383924,0.181731,9.74653,1.09995,1.4,-2.87,-0.21,-23.4373,-46.7381,9.02606,1014.82
383930,0.200861,9.75131,1.14778,1.47,-2.8,-0.14,-22.6818,-47.8792,9.09995,1014.82
383936,0.176949,9.7561,1.11908,1.54,-3.01,0.21,-22.6237,-47.2315,9.05562,1014.83
383942,0.210426,9.82783,1.10952,1.12,-2.94,0.14,-23.0886,-46.1213,11.3164,1014.83
383948,0.196078,9.8087,1.13821,1.61,-2.73,0.07,-21.8973,-47.2932,10.4446,1014.81
383954,0.253467,9.76566,1.10473,1.4,-3.22,-0.21,-23.3792,-48.4034,9.24771,1014.81
383960,0.215208,9.78479,1.15734,1.12,-2.73,-0.56,-22.3912,-46.368,9.92742,1014.83
383966,0.23912,9.76088,1.10952,1.4,-2.66,-0.28,-21.8101,-46.5222,10.4594,1014.83
383972,0.143472,9.81349,1.12386,1.05,-2.8,-0.7,-22.9143,-47.139,10.09,1014.83
383978,0.157819,9.78957,1.07126,0.98,-3.01,-0.21,-22.7399,-46.8306,9.23293,1014.83
383984,0.176949,9.74653,1.15256,0.98,-2.94,-0.63,-22.5365,-46.3372,10.0752,1014.83
383990,0.157819,9.7561,1.16212,1.26,-3.5,-0.42,-22.5075,-47.2932,9.92742,1014.83
383996,0.200861,9.72262,1.13343,1.12,-3.22,-0.28,-22.9143,-47.4474,9.45458,1014.83
384002,0.167384,9.76566,1.17169,1.54,-2.66,-0.49,-22.9724,-46.5531,9.70578,1014.82
384008,0.124342,9.7561,1.18125,1.4,-3.01,0.07,-22.5365,-47.2624,10.681,1014.82
384014,0.148254,9.74653,1.16212,0.77,-2.8,0,-22.6527,-47.5399,10.5776,1014.8
384020,0.157819,9.73218,1.17647,1.12,-3.22,0.07,-22.2169,-46.7381,9.26248,1014.8
384026,0.162602,9.75131,1.18125,1.4,-3.71,-0.14,-23.0305,-47.2315,10.1047,1014.8
384032,0.191296,9.77044,1.13821,1.61,-3.29,0.21,-22.9143,-48.1567,9.08517,1014.82
384038,0.186514,9.78001,1.12865,1.33,-3.01,0.42,-22.5075,-46.9231,10.5333,1014.82
384044,0.229555,9.76088,1.12386,1.12,-3.01,0,-22.1007,-46.183,10.223,1014.8
384050,0.200861,9.76566,1.13821,1.05,-3.29,0.14,-22.5656,-46.9848,9.26248,1014.8
384056,0.200861,9.74653,1.16212,1.61,-3.36,-0.07,-22.6527,-48.0334,10.548,1014.85
384062,0.215208,9.78957,1.17169,1.47,-2.8,-0.14,-21.8973,-46.2447,10.8288,1014.85
384068,0.253467,9.78479,1.13821,1.19,-2.66,-0.21,-22.3331,-46.7073,10.1934,1014.84
384074,0.229555,9.81827,1.0856,1.33,-2.8,-0.07,-22.8561,-47.6324,8.98173,1014.84
384080,0.186514,9.8087,1.10952,1.33,-3.08,0,-22.5946,-46.5222,9.4398,1014.84
384086,0.200861,9.77044,1.12865,1.4,-2.66,-0.07,-22.6527,-46.5222,10.9027,1014.84
384092,0.186514,9.73218,1.13821,1.12,-2.8,0.07,-22.5946,-47.6324,10.6958,1014.84
384098,0.191296,9.81349,1.13343,1.12,-3.36,-0.28,-21.9554,-47.2624,9.75011,1014.85
384104,0.210426,9.79914,1.16212,1.54,-3.01,-0.56,-22.1588,-46.3372,10.3116,1014.85
384110,0.176949,9.81349,1.12386,0.91,-2.73,-0.21,-23.1177,-46.5531,10.9765,1014.82
384116,0.105213,9.74653,1.17169,0.91,-3.5,-0.28,-23.0305,-47.6324,9.85354,1014.82
384122,0.167384,9.76566,1.17647,1.05,-3.15,-0.14,-22.1007,-45.8437,9.30681,1014.83
384128,0.157819,9.7274,1.17647,1.12,-3.29,-0.14,-22.5946,-46.8923,9.33637,1014.83
384134,0.167384,9.73218,1.19082,1.75,-3.01,0.21,-22.6237,-48.496,9.55801,1014.81
384140,0.172166,9.7561,1.16691,0.91,-2.94,0.14,-23.2629,-46.7998,10.4298,1014.81
384146,0.176949,9.74653,1.13821,1.68,-3.5,0.21,-21.8973,-47.0465,9.97175,1014.81
384152,0.200861,9.76088,1.16212,1.47,-3.5,0.07,-22.6527,-48.3726,9.97175,1014.83
384158,0.215208,9.79436,1.14299,1.61,-2.66,-0.14,-22.8852,-47.6324,10.1491,1014.83
384164,0.205643,9.74653,1.16212,1.4,-3.01,0.35,-22.4784,-46.183,11.0948,1014.84
384170,0.191296,9.74175,1.15734,1.89,-3.15,-0.14,-22.4203,-47.6324,10.5628,1014.84
384176,0.176949,9.76088,1.15734,1.47,-3.29,0.21,-23.1177,-48.0334,9.72055,1014.83
384182,0.243902,9.8087,1.17169,1.75,-3.08,-0.07,-23.1177,-46.2447,11.1834,1014.83
384188,0.181731,9.78479,1.18125,1.33,-3.15,0.14,-22.798,-46.5531,10.4446,1014.82
384194,0.224773,9.78957,1.12865,1.54,-3.15,0,-22.8561,-48.1567,9.42502,1014.82
384200,0.186514,9.77523,1.18125,1.75,-3.08,-0.21,-22.9143,-46.8923,10.5037,1014.82
384206,0.124342,9.74653,1.16212,1.4,-3.01,-0.56,-23.5535,-46.6456,10.1047,1014.82
384212,0.181731,9.77044,1.12865,1.19,-3.15,0.7,-23.1177,-47.9408,10.1343,1014.82
384218,0.186514,9.7561,1.16691,1.75,-3.01,0.42,-22.9143,-47.6016,9.66145,1014.84
384224,0.172166,9.75131,1.18604,1.4,-3.5,0.21,-22.8271,-46.4605,9.80921,1014.84
384230,0.186514,9.73697,1.18604,1.47,-2.73,0.49,-22.769,-46.7381,9.63189,1014.85
384236,0.167384,9.73218,1.19082,1.82,-3.22,-0.63,-23.3501,-48.2184,10.548,1014.85
384242,0.176949,9.7561,1.17169,1.61,-3.29,0.49,-23.0014,-46.0288,9.48413,1014.78
384248,0.186514,9.79914,1.16691,1.82,-3.22,0.7,-22.4493,-47.139,9.89787,1014.78
384254,0.200861,9.74653,1.13343,2.03,-3.08,0.35,-22.8271,-46.954,9.15905,1014.82
384260,0.296509,9.8087,1.1143,1.54,-3.01,-0.56,-22.8271,-46.2447,10.0604,1014.82
384266,0.234338,9.83261,1.13821,1.82,-3.29,0.42,-22.3912,-45.9363,10.4446,1014.82
384272,0.21999,9.82305,1.12865,1.47,-2.52,0.07,-22.8852,-47.5708,10.0456,1014.82
384278,0.253467,9.81349,1.09517,1.54,-3.01,-0.84,-23.1758,-47.2624,10.09,1014.82
384284,0.234338,9.83261,1.12865,0.98,-2.45,-0.63,-23.292,-46.1521,11.7745,1014.84
384290,0.196078,9.79436,1.13343,1.89,-2.66,-1.19,-22.4493,-47.2932,10.3264,1014.84
384296,0.153037,9.78001,1.13343,1.54,-2.87,-0.35,-23.1758,-47.0773,10.0752,1014.82
384302,0.143472,9.78957,1.15256,1.19,-2.73,-0.7,-22.3331,-46.183,11.1834,1014.82
384308,0.162602,9.73218,1.1956,1.05,-3.01,-1.05,-22.3912,-47.2315,9.95698,1014.81
384314,0.162602,9.76566,1.16212,1.12,-3.15,-0.42,-22.5365,-48.1567,9.75011,1014.81
384320,0.153037,9.76088,1.18604,0.91,-3.22,-0.14,-22.6527,-46.8923,8.70098,1014.81
384326,0.148254,9.75131,1.15734,1.05,-2.31,-0.21,-22.5656,-46.8306,9.64667,1014.83
384332,0.148254,9.75131,1.21473,0.98,-3.01,-0.49,-23.0305,-47.6941,9.04084,1014.83
384338,0.157819,9.73697,1.20038,1.47,-3.71,0.28,-23.1467,-47.4166,9.11472,1014.85
384344,0.157819,9.73697,1.18604,1.54,-3.43,0.21,-22.6237,-46.1213,9.4398,1014.85
384350,0.133907,9.73697,1.16212,1.47,-3.08,0,-23.3501,-48.0025,10.3412,1014.83
384356,0.176949,9.75131,1.20516,1.61,-2.87,0.28,-23.0014,-48.095,9.41025,1014.83
384362,0.181731,9.75131,1.20516,1.75,-2.87,0.07,-23.1467,-46.5839,9.4398,1014.82
384368,0.157819,9.7274,1.16691,1.54,-2.87,0.21,-22.9433,-47.324,9.89787,1014.82
384374,0.13869,9.68914,1.20038,1.61,-3.08,0.28,-23.0014,-48.6193,8.98173,1014.82
384380,0.229555,9.77523,1.09039,1.96,-2.87,0.98,-22.5075,-47.0465,10.0752,1014.82
384386,0.205643,9.75131,1.18604,2.03,-2.94,0.28,-22.0716,-46.7998,9.9422,1014.82
384392,0.196078,9.82783,1.14299,1.54,-2.66,0.42,-22.4203,-47.3549,9.88309,1014.84
384398,0.267814,9.81827,1.13821,1.54,-2.52,0.28,-22.246,-47.0773,9.63189,1014.84
384404,0.215208,9.85174,1.13343,1.4,-2.73,-0.28,-22.1878,-46.6456,10.3116,1014.81
384410,0.210426,9.80392,1.10952,1.12,-2.94,-0.21,-22.5656,-46.7998,9.58757,1014.81
384416,0.196078,9.78957,1.20995,0.98,-3.01,-0.21,-23.2629,-47.8483,9.35114,1014.85
384422,0.172166,9.77523,1.16212,1.12,-2.8,-0.49,-22.8271,-46.3989,10.1491,1014.85
384428,0.148254,9.79436,1.19082,1.4,-3.08,-0.28,-23.2629,-47.139,9.51368,1014.84
384434,0.13869,9.74653,1.15734,1.61,-3.29,-0.07,-22.6527,-47.2624,9.52846,1014.84
384440,0.181731,9.75131,1.20516,1.68,-3.15,-0.28,-22.3912,-46.6147,10.0161,1014.84
384446,0.181731,9.73697,1.22908,1.61,-2.8,0.28,-23.0014,-46.4297,10.2082,1014.81
384452,0.143472,9.7561,1.20995,1.4,-3.01,0.7,-23.3792,-48.4651,8.96696,1014.81
384458,0.167384,9.7561,1.1956,1.47,-3.5,0.21,-23.1758,-47.3857,9.35114,1014.85
384464,0.205643,9.77523,1.15256,1.75,-3.36,0.14,-23.292,-46.7073,10.4741,1014.85
384470,0.176949,9.77044,1.16691,1.82,-2.87,0.77,-23.5535,-48.1567,9.67622,1014.83
384476,0.196078,9.8087,1.12386,1.47,-2.66,0.49,-22.1588,-47.0773,8.68621,1014.83
384482,0.186514,9.77523,1.13343,1.82,-3.29,-0.21,-23.2339,-46.183,10.1638,1014.88
384488,0.21999,9.77044,1.17169,1.47,-3.08,0.63,-22.7109,-46.7381,9.61712,1014.88
384494,0.210426,9.77044,1.17169,1.47,-3.29,0.14,-23.2048,-47.5091,8.92263,1014.88
384500,0.224773,9.81349,1.17169,1.54,-3.01,0.84,-22.6237,-46.6456,9.52846,1014.82
384506,0.243902,9.76566,1.16212,1.33,-2.87,0.28,-22.798,-46.1213,8.98173,1014.82
384512,0.210426,9.78957,1.14299,1.61,-3.36,-0.14,-22.275,-47.5091,8.84875,1014.81
384518,0.162602,9.8087,1.18604,1.61,-3.22,0.21,-22.5946,-47.3857,10.0161,1014.81
384524,0.215208,9.81349,1.1956,1.19,-3.08,0,-23.1467,-46.4297,9.92742,1014.83
384530,0.21999,9.81349,1.1956,1.4,-2.87,-0.35,-22.9143,-47.5708,9.39547,1014.83
384536,0.25825,9.79436,1.17647,1.75,-2.73,-0.35,-23.292,-48.0334,9.04084,1014.82
384542,0.248685,9.77523,1.16212,0.98,-3.43,-0.21,-22.5656,-46.3989,10.9913,1014.82
384548,0.200861,9.82783,1.1956,1.26,-3.36,-0.98,-22.1878,-47.8483,9.60234,1014.84
384554,0.200861,9.78479,1.17169,1.4,-3.08,-0.14,-23.2339,-48.2492,8.83397,1014.84
384560,0.172166,9.80392,1.14778,1.47,-2.52,-0.42,-23.2629,-46.7381,10.2821,1014.84
384566,0.21999,9.76566,1.17169,1.54,-3.57,-0.77,-23.3501,-47.0157,10.0161,1014.79
384572,0.176949,9.77044,1.16691,1.05,-2.8,-0.07,-22.6237,-47.139,10.2377,1014.79
384578,0.153037,9.74175,1.18604,1.54,-2.94,-0.49,-22.5946,-47.3549,10.0604,1014.81
384584,0.176949,9.74175,1.20995,1.75,-3.36,0,-22.7109,-46.1521,10.6515,1014.81
384590,0.172166,9.77523,1.16691,1.82,-3.29,-0.49,-23.2339,-48.0025,9.05562,1014.81
384596,0.176949,9.77044,1.18125,1.19,-2.87,0.35,-22.9724,-48.0025,10.5924,1014.81
384602,0.210426,9.76088,1.1956,1.4,-2.8,0.07,-22.8852,-47.1698,11.7597,1014.84
384608,0.191296,9.80392,1.17169,1.19,-2.8,0.28,-22.7399,-47.0157,10.1786,1014.84
384614,0.205643,9.77044,1.18125,1.61,-2.87,0.21,-22.6527,-48.095,8.55322,1014.84
384620,0.229555,9.81827,1.13821,1.12,-3.01,-0.07,-22.4203,-46.3063,9.79444,1014.83
384626,0.210426,9.81827,1.12386,1.54,-3.08,-0.42,-22.8561,-46.2138,9.4398,1014.83
384632,0.224773,9.75131,1.20038,0.91,-2.8,-0.42,-22.3622,-47.1082,8.71576,1014.81
384638,0.224773,9.73218,1.22429,1.61,-3.29,-0.42,-23.5826,-47.1082,10.0456,1014.81
384644,0.21999,9.75131,1.18604,1.05,-3.01,-0.21,-22.9724,-46.2138,10.3116,1014.82
384650,0.186514,9.79436,1.16691,1.4,-3.08,-0.49,-22.0426,-47.5399,9.46935,1014.82
384656,0.186514,9.7274,1.20038,1.26,-3.01,-0.28,-23.1758,-47.8175,9.85354,1014.8
384662,0.143472,9.70827,1.28168,1.33,-3.08,-0.35,-23.2629,-46.8306,11.1834,1014.8
384668,0.186514,9.69392,1.23386,1.54,-3.15,-0.28,-22.3041,-47.0773,10.6071,1014.8
384674,0.148254,9.71305,1.20995,1.75,-2.87,-0.14,-22.0716,-48.3109,9.86832,1014.83
384680,0.176949,9.74653,1.16212,1.68,-3.36,0.14,-22.5075,-46.4605,10.4003,1014.83
384686,0.162602,9.74653,1.15256,1.82,-2.87,-0.28,-22.3912,-46.5839,11.1982,1014.81
384692,0.157819,9.73697,1.1956,1.26,-2.8,0.35,-22.3331,-47.8175,9.79444,1014.81
384698,0.176949,9.73218,1.20995,1.75,-3.22,0.56,-23.3211,-46.368,9.07039,1014.86
384704,0.172166,9.73697,1.1956,1.54,-3.08,0.49,-22.6237,-46.1521,9.61712,1014.86
384710,0.205643,9.74653,1.16212,2.03,-2.94,0.49,-22.9724,-47.6324,10.8731,1014.83
384716,0.148254,9.77523,1.19082,1.61,-2.59,0.84,-22.769,-47.5399,9.9422,1014.83
384722,0.229555,9.77044,1.18604,1.33,-3.01,0.91,-22.1007,-46.6456,9.80921,1014.86
384728,0.21999,9.82305,1.17647,1.75,-3.43,0.21,-22.8561,-46.7998,11.0209,1014.86
384734,0.25825,9.8087,1.14299,1.47,-2.8,0,-22.8271,-47.6324,11.1982,1014.86
384740,0.263032,9.80392,1.14299,1.33,-2.94,0.07,-22.3041,-47.1698,10.8583,1014.85
384746,0.215208,9.77523,1.18604,1.4,-3.36,-0.42,-22.3912,-46.4914,10.814,1014.85
384752,0.191296,9.7561,1.21951,1.82,-3.15,-0.28,-22.3622,-48.1259,10.6662,1014.85
384758,0.157819,9.77044,1.21951,2.03,-3.08,0.21,-22.6818,-47.6324,10.814,1014.85
384764,0.157819,9.76566,1.23386,1.68,-3.22,0.14,-22.8561,-47.1082,10.8731,1014.82
384770,0.124342,9.72262,1.20038,2.1,-3.22,0.21,-22.3912,-47.8792,9.42502,1014.82
384776,0.200861,9.7561,1.16691,1.68,-3.08,0.21,-22.6818,-46.9231,10.2082,1014.82
384782,0.13869,9.73218,1.21473,2.03,-2.87,0.28,-22.6527,-46.5839,10.8731,1014.82
384788,0.196078,9.76088,1.19082,1.61,-3.08,0.77,-23.3501,-47.2007,9.85354,1014.82
384794,0.153037,9.7561,1.16691,1.61,-3.08,0.28,-22.9143,-47.6941,9.14427,1014.81
384800,0.186514,9.73218,1.19082,1.61,-3.22,0.42,-23.1758,-47.3857,10.2968,1014.81
384806,0.215208,9.78479,1.17169,1.54,-2.59,0.77,-23.1177,-45.9979,10.8731,1014.84
384812,0.191296,9.75131,1.15256,1.61,-3.29,0.98,-23.0305,-47.9717,9.48413,1014.84
384818,0.234338,9.74175,1.17647,1.89,-3.22,0.42,-22.6818,-47.139,9.70578,1014.81
384824,0.172166,9.74653,1.22908,1.82,-3.15,0.63,-22.769,-46.7689,9.55801,1014.81
384830,0.21999,9.72262,1.22908,1.68,-2.94,0.7,-22.5656,-47.3549,10.7992,1014.82
384836,0.196078,9.74653,1.1956,1.68,-3.36,0.98,-22.3041,-47.8483,9.73533,1014.82
384842,0.248685,9.73218,1.25777,1.96,-3.29,0.49,-22.6818,-47.0773,10.7549,1014.82
384848,0.229555,9.74653,1.22429,2.73,-3.29,0.28,-22.8271,-48.0334,8.22814,1014.81
384854,0.21999,9.72262,1.18604,2.03,-3.01,-0.07,-23.3792,-48.2801,9.75011,1014.81
384860,0.229555,9.79436,1.18125,1.89,-2.45,0.28,-23.0014,-46.7689,9.98653,1014.84
384866,0.205643,9.78479,1.17647,2.24,-3.36,0.56,-22.3041,-46.368,10.0604,1014.84
384872,0.229555,9.81827,1.15256,1.75,-3.29,-0.28,-22.7109,-47.6324,9.95698,1014.81
384878,0.200861,9.81827,1.16691,2.1,-2.94,-0.07,-23.0305,-47.4474,10.1047,1014.81
384884,0.210426,9.79436,1.15734,1.54,-2.8,0.7,-23.292,-46.3372,10.223,1014.82
384890,0.210426,9.81349,1.15256,1.4,-3.57,0.35,-23.0595,-47.725,10.681,1014.82
384896,0.210426,9.78001,1.18125,1.61,-3.36,-0.42,-23.4082,-47.6016,9.85354,1014.8
384902,0.181731,9.77044,1.17169,1.33,-3.01,0.14,-22.0135,-46.1521,10.6662,1014.8
384908,0.205643,9.70827,1.19082,0.91,-3.01,0,-22.0716,-47.1698,10.2673,1014.8
384914,0.167384,9.71784,1.21951,1.33,-3.22,0.42,-23.1758,-48.6193,9.83876,1014.84
384920,0.200861,9.77523,1.20038,1.33,-3.5,0.84,-22.5365,-46.8923,10.548,1014.84
384926,0.196078,9.74653,1.17169,1.54,-3.08,0.07,-22.4203,-46.954,10.5628,1014.83
384932,0.210426,9.74653,1.16691,1.26,-2.94,0.35,-22.4493,-48.1876,9.79444,1014.83
384938,0.253467,9.73697,1.23386,1.75,-3.29,0.49,-22.6237,-48.1567,9.49891,1014.83
384944,0.267814,9.76566,1.19082,1.82,-3.36,-0.14,-22.5656,-46.6147,10.681,1014.83
384950,0.253467,9.77044,1.20516,1.4,-3.78,-0.28,-22.5656,-48.095,8.71576,1014.81
384956,0.23912,9.81827,1.17647,1.47,-3.01,-0.14,-22.6237,-48.1259,11.0652,1014.81
384962,0.181731,9.79436,1.15256,1.33,-3.5,0.14,-22.5365,-46.7689,9.91265,1014.81
384968,0.277379,9.79914,1.13821,1.26,-2.8,-0.98,-22.3331,-47.2315,11.1686,1014.83
384974,0.253467,9.79436,1.17647,1.33,-3.15,-0.35,-22.5075,-48.1567,10.9765,1014.83
384980,0.162602,9.80392,1.14778,1.12,-2.94,-1.05,-21.6648,-47.0157,9.91265,1014.81
384986,0.114778,9.79914,1.18604,0.91,-3.22,-0.84,-22.4784,-47.6324,9.51368,1014.81
384992,0.167384,9.7274,1.20038,1.05,-3.64,-0.49,-22.798,-48.0025,11.2869,1014.85
384998,0.191296,9.77044,1.18604,0.91,-3.08,-0.21,-22.1878,-47.5399,9.89787,1014.85
385004,0.176949,9.74653,1.17647,1.05,-3.01,-0.56,-22.6237,-46.0905,11.1095,1014.81
385010,0.186514,9.74175,1.20038,0.98,-3.08,-0.14,-22.5656,-47.2624,9.9422,1014.81
385016,0.176949,9.72262,1.24342,0.91,-3.08,0.07,-23.0305,-47.5708,8.86352,1014.81
385022,0.191296,9.75131,1.24342,1.54,-3.36,0,-22.5365,-46.3372,10.223,1014.82
385028,0.167384,9.7274,1.24342,1.05,-2.87,0,-22.5365,-46.6147,9.54324,1014.82
385034,0.215208,9.76566,1.20995,1.54,-3.15,0.77,-22.5946,-47.7866,9.08517,1014.82
385040,0.215208,9.73697,1.23386,1.54,-3.36,0.35,-22.1878,-47.0157,9.92742,1014.82
385046,0.229555,9.77044,1.21951,1.47,-3.36,0.91,-22.1878,-46.4605,12.3212,1014.82
385052,0.205643,9.75131,1.20038,2.03,-3.71,-0.14,-22.7109,-48.6502,8.90785,1014.82
385058,0.157819,9.78001,1.20038,1.89,-3.5,0.07,-22.0426,-47.6941,10.1934,1014.82
385064,0.205643,9.7561,1.20038,1.75,-3.01,0.35,-21.9554,-45.6895,10.7992,1014.82
385070,0.263032,9.77044,1.18604,1.4,-3.08,-0.07,-22.275,-47.4166,10.8879,1014.85
385076,0.234338,9.77523,1.17169,1.47,-3.43,-0.14,-21.9263,-47.6633,9.45458,1014.85
385082,0.277379,9.86131,1.14299,1.54,-3.43,-0.42,-21.8392,-47.1082,10.3559,1014.85
385088,0.272597,9.85653,1.12865,1.26,-3.15,-0.77,-22.3912,-46.6764,9.76488,1014.84
385094,0.263032,9.84696,1.15256,1.12,-3.01,-0.98,-22.769,-48.2492,9.24771,1014.84
385100,0.224773,9.85653,1.12865,0.56,-3.64,-0.91,-22.7109,-47.139,11.7006,1014.81
385106,0.148254,9.79914,1.21473,0.77,-2.87,-0.98,-22.0426,-46.8306,11.9666,1014.81
385112,0.162602,9.74175,1.24342,0.56,-2.73,-0.63,-22.0716,-47.3857,10.0456,1014.83
385118,0.157819,9.7561,1.20995,0.84,-3.43,-0.7,-21.4033,-47.725,9.63189,1014.83
385124,0.196078,9.7561,1.17169,0.49,-3.29,-0.35,-22.769,-47.0773,11.1095,1014.79
385130,0.167384,9.78479,1.1956,0.63,-3.01,-0.77,-22.246,-48.3726,10.2525,1014.79
385136,0.210426,9.73218,1.21951,0.56,-3.5,-0.77,-21.8682,-48.496,10.4889,1014.79
385142,0.181731,9.7561,1.24821,1.05,-3.5,-0.63,-22.275,-46.6456,11.0061,1014.82
385148,0.162602,9.74175,1.21473,0.28,-3.22,-0.28,-22.3041,-46.9848,11.2425,1014.82
385154,0.148254,9.73218,1.26734,0.77,-3.08,-0.07,-21.781,-49.452,8.67143,1014.83
385160,0.157819,9.68914,1.26255,1.05,-4.13,-0.21,-22.6237,-47.4166,10.7106,1014.83
385166,-0.143472,9.62219,1.6308,0.91,-6.23,0.07,-21.9844,-47.0465,11.0209,1014.82
385172,0.344333,9.7561,1.16691,1.12,-2.31,0.28,-22.5365,-48.1259,11.346,1014.82
385178,0.10043,9.76088,1.28647,1.12,-3.71,-0.35,-22.5656,-48.2801,10.7253,1014.84
385184,0.186514,9.74175,1.28647,1.26,-3.15,0,-22.1878,-46.3063,11.7449,1014.84
385190,0.181731,9.74175,1.21473,1.54,-3.08,0.28,-21.8101,-47.6324,10.8288,1014.84
385196,0.272597,9.80392,1.25777,1.4,-3.08,-0.14,-22.6818,-48.1567,11.0357,1014.81
385202,0.267814,9.80392,1.18125,0.91,-3.01,-0.56,-21.781,-47.0773,11.0652,1014.81
385208,0.200861,9.8374,1.18604,0.84,-3.01,-0.7,-23.0886,-46.7998,9.26248,1014.84
385214,0.157819,9.82305,1.17647,1.26,-2.87,-0.63,-22.798,-47.2315,11.08,1014.84
385220,0.109995,9.76566,1.23386,0.91,-3.36,-0.56,-22.9724,-47.0157,10.5185,1014.82
385226,0.191296,9.78479,1.23386,0.63,-3.5,-0.14,-23.0014,-45.9671,9.88309,1014.82
385232,0.191296,9.8087,1.21951,0.91,-3.36,-0.49,-22.798,-48.1567,9.79444,1014.81
385238,0.205643,9.78957,1.19082,0.7,-3.36,-0.77,-22.3041,-47.0157,10.3412,1014.81
385244,0.13869,9.78479,1.23864,0.63,-3.57,-0.49,-22.6818,-46.3372,10.415,1014.83
385250,0.167384,9.71784,1.24821,0.49,-3.64,-0.35,-23.4663,-47.8792,9.83876,1014.83
385256,0.167384,9.76566,1.3056,1.26,-3.64,-0.35,-23.1758,-48.5885,9.95698,1014.83
385262,0.277379,8.6131,1.20995,1.12,-4.41,-0.14,-22.3331,-46.368,9.57279,1014.81
385268,0.215208,9.73218,1.3056,1.47,-3.15,-0.14,-22.5075,-46.9848,9.83876,1014.81
385274,0.148254,9.7561,1.1956,1.26,-3.57,0.28,-22.3912,-47.4166,10.0013,1014.82
385280,0.157819,9.66045,1.30081,1.61,-3.15,0.49,-21.8392,-46.7381,10.1491,1014.82
385286,0.124342,9.66523,1.31516,1.82,-2.87,0.42,-22.275,-45.9979,9.29204,1014.83
385292,0.105213,9.64132,1.32472,1.68,-3.22,0.63,-23.0595,-48.2801,10.2673,1014.83
385298,0.109995,9.66523,1.33907,2.8,-3.5,1.68,-22.7399,-47.1698,9.89787,1014.83
385304,0.0191296,9.69871,1.37733,2.73,-3.36,2.24,-22.246,-47.2007,10.8879,1014.83
385310,0.109995,9.62697,1.33907,3.01,-2.73,1.96,-23.0305,-47.5399,9.86832,1014.83
385316,0.109995,9.63654,1.32951,3.15,-2.94,2.66,-22.4203,-48.095,8.43501,1014.81
385322,0.114778,9.65567,1.31994,3.71,-3.01,2.59,-22.5075,-47.6633,10.8288,1014.81
385328,0.124342,9.69871,1.26255,3.99,-2.94,3.71,-22.3041,-47.725,9.17383,1014.81
385334,0.095648,9.67958,1.3056,4.62,-2.87,3.71,-22.798,-48.2184,8.21336,1014.81
385340,0.0765184,9.68914,1.29603,4.34,-2.45,4.2,-22.3041,-46.5531,9.67622,1014.83
385346,0.176949,9.63175,1.32951,4.55,-3.01,4.41,-22.3041,-46.2447,10.7697,1014.83
385352,0.234338,9.65567,1.35342,5.18,-2.66,4.48,-22.6527,-47.2624,8.86352,1014.83
385358,0.382592,9.7274,1.23386,4.9,-2.66,4.2,-23.0014,-47.9408,8.55322,1014.83
385364,0.473458,9.8374,1.18604,4.97,-2.66,3.43,-23.1177,-46.1213,10.7401,1014.83
385370,0.47824,10.0239,0.966045,4.48,-2.45,2.38,-22.246,-48.0025,9.82399,1014.86
385376,0.406504,9.99522,0.95648,3.64,-1.82,1.82,-22.4203,-47.3549,9.67622,1014.86
385382,0.282162,10.0239,0.994739,2.87,-2.1,0.77,-22.0716,-46.4605,10.0604,1014.84
385388,0.243902,9.98565,1.01387,1.54,-2.17,0.98,-22.5075,-46.954,10.5333,1014.84
385394,0.23912,9.83261,1.12865,1.47,-2.24,0.98,-23.4082,-48.2184,10.2968,1014.82
385400,0.234338,9.88044,1.17169,1.19,-1.89,1.68,-22.3041,-47.5091,10.5628,1014.82
385406,0.186514,9.85653,1.15734,0.98,-1.75,1.75,-23.1467,-46.3989,9.98653,1014.8
385412,0.23912,9.8374,1.19082,0.77,-1.75,1.26,-22.798,-48.0334,9.48413,1014.8
385418,0.21999,9.81349,1.21951,0,-1.4,2.45,-23.0886,-47.2315,9.88309,1014.82
385424,0.205643,9.79436,1.22429,0.49,-1.4,2.31,-22.6527,-46.3063,12.1291,1014.82
385430,0.224773,9.85174,1.21473,0.7,-2.1,1.89,-22.4784,-46.9848,9.82399,1014.82
385436,0.282162,9.91392,1.12865,-0.07,-2.03,1.68,-22.246,-48.0334,10.1934,1014.87
385442,0.325203,9.93304,1.13343,0.21,-1.89,1.89,-22.8852,-46.2755,10.8288,1014.87
385448,0.37781,9.98565,1.11908,-0.49,-1.96,1.54,-22.3622,-46.9848,10.9174,1014.82
385454,0.425634,10.0909,0.927786,-1.75,-1.33,1.05,-22.798,-47.324,9.33637,1014.82
385460,0.392157,10.1626,0.985174,-1.96,-1.47,0.07,-23.4082,-47.139,9.35114,1014.81
385466,0.731707,10.2917,0.942133,-3.99,-1.19,-1.19,-22.6818,-46.2447,10.09,1014.81
385472,0.81779,10.5261,0.664754,-5.95,-1.4,-2.52,-23.2629,-48.0334,10.1934,1014.83
385478,0.583453,10.5882,1.03778,-6.23,-2.17,-5.11,-23.3501,-47.9408,10.09,1014.83
