Timestamp,AccX,AccY,AccZ,AngularVelX,AngularVelY,AngularVelZ,MagX,MagY,MagZ,AirPressure
18812,0.0813008,9.81349,1.13343,1.75,-3.08,-0.35,23.4603,-46.6147,-22.9648,1014.81
18818,0.047824,9.76088,1.1956,1.82,-3.08,-0.49,22.24,-45.0419,-23.7332,1014.81
18824,0.0143472,9.75131,1.21473,1.19,-2.94,-0.42,22.7049,-44.8569,-24.3834,1014.81
18830,0.0382592,9.76088,1.21473,1.47,-3.15,-0.35,23.1698,-46.5531,-22.9501,1014.81
18836,0.0573888,9.7274,1.19082,1.89,-2.8,-0.21,23.5766,-45.9671,-24.4129,1014.88
18842,-0.0286944,9.7561,1.22429,1.47,-2.73,0,23.286,-44.5176,-24.0288,1014.88
18848,0.0286944,9.7561,1.20995,1.89,-3.22,-0.07,22.8502,-45.6279,-23.7923,1014.88
18854,0.023912,9.76566,1.20038,2.1,-3.29,17.85,23.6347,-46.8923,-24.4277,1014.83
18860,0.0191296,9.74175,1.18125,1.89,-3.36,0.07,22.9954,-45.3503,-24.5459,1014.83
18866,0.0191296,9.7561,1.20516,2.52,-3.15,0.28,22.8792,-45.2886,-24.0583,1014.84
18872,0.071736,9.78479,1.21473,2.24,-3.43,0.07,23.1698,-46.8923,-23.6002,1014.84
18878,0.0382592,9.77044,1.20516,1.96,-3.15,0.56,22.8502,-45.1036,-24.4573,1014.83
18884,0.0334768,9.76566,1.17647,2.17,-3.15,0.63,23.286,-44.9494,-23.5411,1014.83
18890,0.0765184,9.78957,1.15734,2.1,-3.22,0.28,23.4894,-46.368,-24.5903,1014.82
18896,0.0621712,9.76566,1.15256,2.03,-3.43,0,22.763,-46.5839,-23.1569,1014.82
18902,0.0621712,9.79436,1.15256,1.61,-3.29,0.63,23.809,-45.3811,-23.7184,1014.83
18908,0.129125,9.77044,1.20038,1.89,-3.36,0,23.6056,-45.5045,-24.3686,1014.83
18914,0.0334768,9.80392,1.15256,1.68,-2.87,-0.21,23.6347,-47.0773,-23.0978,1014.83
18920,0.0669536,9.76088,1.1956,1.75,-3.22,-0.21,23.3151,-45.1036,-23.6593,1014.82
18926,0.105213,9.77044,1.16691,1.61,-2.45,-0.28,22.6468,-45.597,-23.9549,1014.82
18932,0.109995,9.78957,1.15734,1.61,-3.15,-0.14,23.9834,-47.0465,-23.0978,1014.83
18938,0.0286944,9.78479,1.20516,1.61,-3.22,-0.07,23.809,-45.8746,-23.9844,1014.83
18944,0.0143472,9.74653,1.20516,2.1,-3.01,-0.28,23.4313,-44.8877,-25.0483,1014.86
18950,0.0669536,9.77523,1.21473,1.61,-2.8,-0.21,23.4894,-46.4605,-23.4377,1014.86
18956,0.0573888,9.74175,1.18604,2.1,-3.15,-0.14,23.8962,-45.1653,-24.6346,1014.83
18962,0,9.79914,1.16212,1.82,-3.15,0,23.3441,-44.0859,-24.1913,1014.83
18968,0.0621712,9.75131,1.15256,2.38,-2.73,-0.21,23.5475,-46.9231,-23.5116,1014.83
18974,0.0334768,9.75131,1.21951,1.75,-2.8,0.49,23.286,-46.6147,-24.605,1014.83
18980,0.023912,9.7274,1.20038,2.31,-3.01,0.77,23.1988,-45.1653,-24.4573,1014.83
18986,0.0286944,9.76566,1.17169,2.45,-3.43,0.42,22.8211,-45.6279,-23.5707,1014.85
18992,0.0526064,9.79436,1.16212,1.96,-3.22,0.56,23.0826,-47.6016,-23.9401,1014.85
18998,0.047824,9.7561,1.17647,1.96,-3.22,0.14,23.3151,-45.3811,-24.2799,1014.84
19004,0.0765184,9.75131,1.20516,2.03,-3.01,0.42,22.6177,-44.6101,-23.8662,1014.84
19010,0.0430416,9.78479,1.16212,2.03,-3.22,0.21,23.4894,-46.7381,-24.871,1014.83
19016,0.0621712,9.7561,1.16212,1.82,-2.94,0.7,23.6637,-47.0773,-23.5559,1014.83
19022,0.0669536,9.82305,1.10952,1.82,-3.08,0.42,22.8792,-44.826,-23.5707,1014.83
19028,0.105213,9.78957,1.16212,1.54,-3.01,-0.21,22.8502,-46.1213,-24.0731,1014.83
19034,0.114778,9.8087,1.19082,1.75,-2.59,0,24.0996,-46.2755,-24.3686,1014.83
19040,0.0526064,9.78479,1.17169,1.47,-2.31,-0.28,22.5886,-44.9494,-23.6593,1014.88
19046,0.071736,9.78479,1.18604,1.19,-2.45,-0.42,23.809,-45.1036,-24.5311,1014.88
19052,0.0430416,9.77044,1.21473,1.54,-3.22,0.14,23.8962,-46.7073,-23.3195,1014.85
19058,0.071736,9.76566,1.20038,1.68,-3.01,-0.28,23.257,-45.7204,-24.4425,1014.85
19064,0.0669536,9.77044,1.18604,1.47,-2.52,0,22.9373,-44.7952,-24.5311,1014.84
19070,0.0191296,9.78957,1.12386,1.68,-2.52,-0.14,23.7509,-47.0465,-22.6693,1014.84
19076,0,9.78479,1.15256,1.54,-3.43,0.07,23.1117,-47.139,-24.1913,1014.83
19082,0.0430416,9.70349,1.25299,1.89,-2.59,-0.14,23.7509,-44.9494,-23.5264,1014.83
19088,0,9.77523,1.20516,1.75,-2.94,0,22.9954,-46.6147,-23.9549,1014.83
19094,0.0765184,9.77044,1.16691,1.75,-2.8,0.14,23.1988,-47.2315,-22.2999,1014.81
19100,0.0334768,9.77044,1.16691,2.31,-2.87,0.35,22.7049,-45.0111,-24.4425,1014.81
19106,0.0095648,9.76088,1.20995,2.1,-3.08,0.14,23.1698,-45.6895,-23.7037,1014.84
19112,0.0526064,9.73697,1.18125,1.82,-3.15,-0.07,23.8381,-46.8306,-24.7085,1014.84
19118,0.0573888,9.79436,1.16691,1.47,-3.08,0.42,23.3441,-45.8437,-23.7923,1014.84
19124,0.0526064,9.78957,1.16691,1.61,-3.08,-0.07,23.1988,-44.7643,-24.7528,1014.84
19130,0.071736,9.80392,1.15256,1.96,-2.52,0.14,22.9664,-47.2932,-24.014,1014.82
19136,0.0526064,9.74653,1.20038,1.47,-2.87,0.14,23.3732,-45.3503,-24.2356,1014.82
19142,0.0669536,9.77523,1.16212,1.68,-3.15,-0.28,23.257,-44.4868,-24.8267,1014.82
19148,0.0908656,9.77523,1.18125,1.4,-2.94,0.07,23.6928,-45.9363,-22.7284,1014.83
19154,0.0621712,9.79436,1.18125,1.47,-3.08,-0.28,23.9543,-46.1521,-23.5116,1014.83
19160,0.071736,9.76088,1.19082,1.82,-2.66,-0.14,22.6468,-45.6279,-23.3343,1014.8
19166,0.0908656,9.78001,1.19082,1.61,-2.66,-0.07,22.5886,-45.5662,-23.7184,1014.8
19172,0.0908656,9.78001,1.19082,1.19,-3.08,-0.63,23.0826,-47.2624,-23.1126,1014.83
19178,0.0813008,9.77523,1.21473,1.68,-3.36,-0.35,23.809,-45.6279,-24.9744,1014.83
19184,0.071736,9.76566,1.21473,1.19,-2.24,0,22.8502,-45.2886,-25.3734,1014.84
19190,0.071736,9.78001,1.17647,1.61,-2.45,-0.84,23.6347,-46.5531,-24.147,1014.84
19196,0.0334768,9.7561,1.20038,1.96,-3.01,-0.49,24.0705,-46.0596,-24.1913,1014.84
19202,0.0143472,9.73218,1.1956,1.89,-3.36,-0.49,22.9373,-44.3326,-23.7332,1014.86
19208,0.0430416,9.74175,1.22908,1.75,-3.01,0,23.1117,-46.6456,-24.4868,1014.86
19214,0.0095648,9.77044,1.17647,1.82,-2.8,-0.07,23.809,-47.2007,-24.3538,1014.87
19220,0.0382592,9.76566,1.20038,1.68,-3.15,-0.42,22.792,-45.2886,-23.5411,1014.87
19226,0.0573888,9.79914,1.18604,1.82,-3.5,-0.07,22.0366,-45.7821,-24.6494,1014.83
19232,0.023912,9.77523,1.21951,1.89,-3.22,-0.21,22.8211,-47.2315,-23.6889,1014.83
19238,0.0382592,9.78001,1.15734,1.54,-2.87,0.21,22.792,-45.1961,-24.3982,1014.82
19244,0.0621712,9.78957,1.18125,1.54,-3.29,-0.07,23.1698,-44.7027,-23.8662,1014.82
19250,0.0621712,9.81827,1.16212,1.82,-3.08,0.14,23.3151,-46.7073,-25.2256,1014.84
19256,0.0573888,9.78957,1.17647,1.75,-2.73,-0.14,23.1988,-45.8129,-24.3686,1014.84
19262,0.0382592,9.77044,1.1956,1.61,-3.36,-0.35,22.9664,-44.5793,-25.3586,1014.84
19268,0.109995,9.76566,1.13821,1.75,-3.01,-0.49,22.8211,-46.5531,-23.5707,1014.83
19274,0.0430416,9.79436,1.15734,1.26,-3.22,-0.56,23.3441,-46.2755,-24.0583,1014.83
19280,0.0286944,9.76088,1.17169,1.26,-3.15,-0.28,22.792,-45.0727,-24.4425,1014.85
19286,0.0334768,9.75131,1.20995,1.19,-2.38,-0.21,22.2981,-45.5045,-25.2404,1014.85
19292,0.105213,9.79914,1.17647,1.47,-2.73,-0.42,23.1988,-46.7073,-24.6198,1014.86
19298,0.109995,9.78957,1.17169,0.98,-3.08,0,22.9083,-45.5662,-25.0335,1014.86
19304,0.0334768,9.77523,1.20038,1.61,-3.01,-0.56,22.7339,-44.9185,-25.3882,1014.84
19310,0.0143472,9.7561,1.25299,0.84,-2.59,-0.84,23.6056,-46.3989,-24.1026,1014.84
19316,0.0143472,9.77044,1.20038,1.4,-3.29,-0.28,23.4313,-46.2138,-23.7923,1014.84
19322,0.0382592,9.77044,1.18125,1.96,-3.29,-0.35,22.4724,-44.4559,-23.1274,1014.81
19328,0.0334768,9.75131,1.18125,1.82,-2.94,-0.21,22.9954,-46.1521,-23.4672,1014.81
19334,0.0191296,9.79436,1.18604,1.47,-2.73,-0.49,23.4313,-46.8615,-23.7184,1014.85
19340,0.047824,9.78001,1.19082,1.4,-2.66,-0.07,23.8671,-45.3503,-24.6346,1014.85
19346,0.0047824,9.76088,1.1956,2.03,-2.52,-0.07,22.792,-46.5531,-24.7085,1014.83
19352,0.0047824,9.75131,1.17169,1.89,-2.94,0.14,23.9253,-47.6324,-23.2456,1014.83
19358,0.0526064,9.79436,1.16691,1.4,-2.59,0.49,23.5766,-45.8129,-24.8562,1014.82
19364,0.0860832,9.80392,1.15256,1.19,-2.87,0,22.9664,-44.3018,-24.2504,1014.82
19370,0.124342,9.81349,1.15734,1.68,-3.08,-0.35,23.1117,-45.8437,-23.3343,1014.8
19376,0.0430416,9.79436,1.15256,1.54,-2.94,-0.77,23.7219,-45.6587,-24.5755,1014.8
19382,0.0382592,9.78001,1.22429,0.91,-2.8,-0.35,22.8502,-44.2092,-23.8514,1014.8
19388,0.0526064,9.79436,1.22429,1.33,-2.94,-0.98,23.6347,-45.5353,-25.137,1014.83
19394,0.071736,9.77044,1.20516,1.4,-3.22,-1.05,23.8962,-46.4605,-23.6298,1014.83
19400,0.0382592,9.78957,1.18604,1.26,-2.59,-0.35,23.0536,-45.4428,-24.9744,1014.86
19406,0.047824,9.78001,1.17647,1.12,-3.01,-0.63,23.0536,-45.1344,-24.4277,1014.86
19412,0.023912,9.7561,1.22429,1.33,-2.73,-0.28,23.5766,-46.5222,-24.2504,1014.82
19418,0,9.78001,1.22908,1.05,-2.59,0,23.5475,-44.9185,-24.7232,1014.82
19424,0.0143472,9.78001,1.20995,1.47,-2.87,-0.28,22.9083,-44.5176,-23.9549,1014.85
19430,0.0382592,9.74653,1.17647,1.4,-3.08,-0.56,23.4603,-46.8306,-23.3638,1014.85
19436,0.0382592,9.77044,1.19082,1.33,-3.36,-0.28,23.3732,-46.4297,-24.738,1014.85
19442,0.0191296,9.76088,1.18604,1.33,-2.8,-0.21,22.8211,-44.0859,-24.6198,1014.83
19448,0,9.73218,1.17647,1.75,-2.87,-0.35,23.0245,-46.9231,-24.5311,1014.83
19454,0.0573888,9.78001,1.22429,1.33,-3.29,-0.35,23.3732,-46.7689,-24.472,1014.82
19460,0.0334768,9.74653,1.22429,1.68,-3.57,-0.07,23.1698,-45.8746,-23.2604,1014.82
19466,0.047824,9.7561,1.21951,1.82,-3.08,-0.14,23.8962,-45.6279,-24.7971,1014.84
19472,0.0813008,9.78001,1.20995,1.26,-2.87,-17.78,24.0996,-46.5222,-24.6937,1014.84
19478,0.109995,9.78001,1.1956,1.61,-2.94,-0.56,23.0826,-45.3503,-23.7184,1014.81
19484,0.0813008,9.78957,1.20038,1.68,-2.8,-0.14,23.8962,-44.5176,-25.3586,1014.81
19490,0.047824,9.80392,1.20038,1.61,-3.29,-0.35,23.0826,-45.9363,-23.9844,1014.81
19496,0.0813008,9.82305,1.15734,1.68,-3.29,-0.35,23.2279,-45.7204,-25.2847,1014.82
19502,0.0286944,9.76088,1.15256,1.05,-2.8,-0.77,23.4894,-44.5176,-25.2847,1014.82
19508,0.0286944,9.75131,1.19082,1.47,-2.59,-0.7,23.7509,-46.4914,-22.9796,1014.84
19514,0.0430416,9.76566,1.23864,1.47,-2.8,-0.63,23.3441,-47.0465,-23.6889,1014.84
19520,-0.0191296,9.77523,1.18604,1.75,-2.66,-0.42,24.0415,-44.9494,-24.9449,1014.84
19526,0.0286944,9.77523,1.20995,1.19,-2.66,-0.56,23.9253,-45.2578,-23.9401,1014.84
19532,0.0191296,9.78001,1.22908,1.33,-3.08,-0.42,23.5185,-46.5839,-24.0583,1014.84
19538,0.0430416,9.75131,1.20995,1.75,-3.01,-0.14,23.6056,-45.1653,-24.5016,1014.84
19544,-0.0143472,9.76566,1.22429,1.61,-2.94,-0.28,23.4313,-45.1344,-23.8514,1014.81
19550,0.0191296,9.77044,1.15256,1.54,-2.59,0.28,23.5475,-47.0465,-23.3934,1014.81
19556,0.0095648,9.76566,1.1956,1.68,-2.8,-0.28,23.4603,-46.2755,-23.8662,1014.81
19562,0,9.87087,1.04735,1.33,-4.13,-0.42,23.6928,-44.3326,-24.0731,1014.83
19568,0.124342,9.59828,1.29125,1.47,-2.66,-0.07,23.1407,-45.8129,-23.8958,1014.83
19574,-0.047824,9.7561,1.28168,1.26,-3.22,0.49,23.3732,-46.2138,-24.6198,1014.82
19580,0.153037,9.70349,1.18125,1.61,-3.15,0,22.8792,-45.412,-24.5311,1014.82
19586,0.124342,9.87087,1.10952,0.98,-2.52,-0.49,23.5766,-45.9363,-24.2356,1014.84
19592,0.133907,9.80392,1.18125,0.84,-2.24,-0.14,23.7219,-46.7998,-23.8071,1014.84
19598,0.11956,9.80392,1.19082,1.19,-2.38,-0.42,23.4022,-46.0288,-24.2947,1014.84
19604,0.0669536,9.79914,1.15256,0.84,-2.8,-1.12,23.4313,-44.9185,-24.9153,1014.84
19610,0.095648,9.80392,1.20516,0.91,-2.94,-0.84,23.4603,-46.4297,-25.5507,1014.84
19616,0.0047824,9.74175,1.23864,1.19,-2.87,-1.12,23.4022,-46.3989,-25.5212,1014.82
19622,1.20995,9.78479,1.24342,1.33,-3.01,-0.42,22.8211,-45.3811,-24.4868,1014.82
19628,0,9.69871,1.29125,1.47,-2.66,-0.56,23.4022,-45.6895,-23.8367,1014.85
19634,0.023912,9.73218,1.26255,1.47,-2.87,-0.42,23.1407,-46.3063,-23.8662,1014.85
19640,0.0143472,9.73218,1.21951,1.26,-3.01,-0.91,23.5766,-45.6895,-24.6494,1014.83
19646,0.0047824,9.76088,1.22429,2.03,-3.15,-0.56,22.8502,-45.0419,-24.3538,1014.83
19652,0.0191296,9.74653,1.22908,1.61,-3.36,-0.07,23.6928,-46.6456,-24.3538,1014.81
19658,-0.023912,9.74653,1.22908,1.89,-3.15,-0.7,23.4313,-45.8437,-23.9696,1014.81
19664,0.0047824,9.72262,1.21473,1.96,-2.8,0.14,23.6928,-45.2578,-24.4573,1014.81
19670,0.0191296,9.76566,1.20995,1.54,-2.8,0.42,23.5185,-47.324,-24.3391,1014.83
19676,0.0526064,9.77523,1.20038,1.4,-2.94,-0.35,24.1868,-46.2447,-25.0335,1014.83
19682,0.0334768,9.80392,1.16212,1.54,-3.08,0.28,23.0826,-45.3503,-24.2652,1014.83
19688,0.095648,9.84218,1.14778,1.54,-2.87,-0.49,23.4603,-46.5222,-25.9645,1014.83
19694,0.143472,9.79436,1.16691,0.84,-2.52,-0.77,23.78,-46.6147,-24.871,1014.83
19700,0.0573888,9.81827,1.21951,1.33,-2.38,-0.91,22.9083,-45.6587,-25.1074,1014.83
19706,0.0765184,9.8087,1.1956,0.63,-2.8,-1.26,23.1117,-45.7512,-24.8119,1014.82
19712,0.0765184,9.78001,1.20995,0.98,-2.66,-1.19,23.3441,-46.5839,-23.4968,1014.82
19718,0.0526064,9.75131,1.25299,0.91,-2.87,-1.26,23.809,-45.9054,-23.8958,1014.8
19724,0.023912,9.75131,1.25299,0.56,-2.45,-0.98,23.0536,-45.0419,-24.4868,1014.8
19730,-0.0047824,9.77523,1.25777,1.12,-2.94,-1.54,23.1407,-46.6147,-24.6346,1014.8
19736,0.0430416,9.74175,1.23386,1.33,-2.59,-0.91,23.5185,-45.0111,-24.9744,1014.85
19742,-0.0334768,9.77044,1.24342,1.19,-2.73,-1.12,22.5596,-44.7643,-25.4177,1014.85
19748,-0.0191296,9.76566,1.20038,0.98,-3.01,-1.12,23.3732,-46.4914,-25.1665,1014.81
19754,-0.0286944,9.7561,1.28647,1.33,-3.22,-0.56,23.5766,-46.5222,-25.2109,1014.81
19760,-0.0143472,9.71784,1.26734,1.61,-2.8,-0.49,22.763,-44.9802,-24.1174,1014.83
19766,-0.0286944,9.7561,1.27212,1.75,-2.73,-0.28,23.7509,-45.7512,-24.6198,1014.83
19772,-0.0191296,9.71784,1.2769,2.17,-3.08,-0.42,23.5475,-46.8923,-23.482,1014.82
19778,0.0095648,9.74653,1.23386,1.89,-3.43,-0.35,22.7049,-45.5045,-23.8071,1014.82
19784,0.0143472,9.76566,1.21951,2.17,-3.43,0.07,22.9664,-44.8877,-24.9892,1014.82
19790,0.0334768,9.79914,1.20038,2.24,-3.15,0.14,24.0124,-46.6456,-24.2504,1014.82
19796,0.0813008,9.82783,1.13343,1.47,-3.08,-1.05,23.8381,-45.8437,-23.9549,1014.82
19802,0.0765184,9.83261,1.13821,1.12,-3.29,-0.63,23.257,-44.7952,-25.5655,1014.83
19808,0.071736,9.81349,1.17647,1.12,-2.94,-0.49,23.7509,-47.139,-25.2109,1014.83
19814,0.0669536,9.87087,1.11908,0.35,-3.22,-1.26,23.1407,-46.3063,-23.9401,1014.82
19820,0.095648,9.86609,1.13343,0.42,-2.87,-1.12,23.6637,-45.2886,-24.7085,1014.82
19826,0.10043,9.78957,1.20516,0.07,-3.15,-1.47,23.1698,-44.9494,-24.2356,1014.84
19832,0.0908656,9.75131,1.3056,0.84,-3.01,-1.82,23.4603,-46.4297,-23.6298,1014.84
19838,-0.0143472,9.78957,1.35342,0.91,-2.94,-1.75,23.6637,-45.4737,-26.0827,1014.84
19844,0.0191296,9.72262,1.28168,1.54,-2.94,-2.03,23.3151,-44.4868,-24.7823,1014.82
19850,0.0191296,9.82783,1.20995,0.91,-3.08,-1.47,23.7509,-46.4297,-23.0978,1014.82
19856,0.0095648,9.77523,1.29603,1.47,-3.22,-1.68,23.5185,-46.5839,-24.0879,1014.82
19862,-0.0191296,9.73218,1.28647,1.47,-2.8,-1.61,22.9083,-45.8437,-24.7232,1014.82
19868,-0.0621712,9.72262,1.28647,1.61,-3.08,-1.47,23.3441,-46.6147,-24.014,1014.82
19874,-0.0526064,9.7274,1.27212,2.38,-3.22,-0.84,23.9253,-47.324,-24.8119,1014.82
19880,-0.0430416,9.71305,1.25299,1.75,-3.01,-0.84,23.1407,-46.1213,-24.9744,1014.82
19886,-0.0573888,9.71305,1.20995,2.31,-3.15,-0.56,23.1988,-45.597,-24.3686,1014.82
19892,-0.0191296,9.73697,1.20038,2.24,-3.22,-0.28,23.5766,-46.8306,-23.5264,1014.85
19898,0,9.76088,1.20038,1.89,-3.22,-0.49,23.3732,-45.412,-23.5855,1014.85
19904,0.0095648,9.77044,1.18604,1.68,-2.8,-0.35,23.0536,-45.6279,-26.2748,1014.85
19910,0.0191296,9.82783,1.20038,1.4,-2.73,-0.28,23.4894,-46.0288,-24.1913,1014.82
19916,0.0669536,9.8087,1.19082,1.75,-3.08,-0.07,23.4603,-46.2755,-23.4525,1014.82
19922,0.0813008,9.88522,1.17169,1.47,-3.15,-0.91,23.7509,-45.1036,-24.9597,1014.81
19928,0.0813008,9.85174,1.19082,0.7,-2.52,-1.26,24.0124,-45.7821,-24.6641,1014.81
19934,-0.023912,9.80392,1.25777,1.05,-2.87,-0.84,23.4894,-45.6895,-22.9501,1014.85
19940,-0.0430416,9.7561,1.26734,0.7,-3.08,-0.56,23.1988,-44.4559,-24.7971,1014.85
19946,-0.0047824,9.76566,1.26734,1.26,-3.01,-1.26,23.8381,-45.1653,-24.472,1014.86
19952,-0.0095648,9.75131,1.3056,1.61,-3.08,-1.33,23.8671,-46.0596,-23.4081,1014.86
19958,-0.0860832,9.73218,1.30081,1.61,-2.87,-0.91,24.0415,-45.0419,-23.7628,1014.86
19964,-0.0573888,9.74175,1.26734,1.61,-2.87,-0.98,23.4313,-44.9494,-24.9006,1014.86
19970,-0.0382592,9.79436,1.20995,1.4,-3.01,0,23.6056,-46.4605,-23.1717,1014.86
19976,-0.071736,9.81349,1.13821,1.26,-3.5,-0.7,23.78,-45.5353,-23.1865,1014.83
19982,-0.047824,9.60306,1.31038,1.47,-2.59,-0.28,22.9083,-45.1344,-24.4573,1014.83
19988,-0.129125,9.74653,1.3056,1.19,-3.64,-0.28,23.6928,-46.1213,-23.9844,1014.86
19994,-0.0095648,9.71305,1.21951,1.61,-3.22,0.35,23.286,-46.8615,-24.9153,1014.86
20000,-0.0621712,9.79436,1.23864,1.05,-3.01,-0.07,22.3852,-45.1036,-24.9892,1014.85
20006,0,9.75131,1.22429,2.03,-3.15,0.14,23.5475,-45.5353,-23.9992,1014.85
20012,0,9.76088,1.23386,1.12,-3.36,0.21,23.6928,-46.6456,-23.3786,1014.85
20018,0.0430416,9.75131,1.25299,1.68,-3.29,0.07,22.792,-45.5045,-24.2356,1014.81
20024,0.0382592,9.81827,1.19082,1.54,-2.45,-0.14,23.286,-45.3195,-23.5559,1014.81
20030,0.0860832,9.8087,1.20038,1.82,-2.8,-0.49,23.4894,-45.6587,-23.3786,1014.85
20036,0.023912,9.85174,1.24342,1.19,-2.66,-0.84,23.1117,-45.6895,-22.6693,1014.85
20042,0.0095648,9.81827,1.25299,0.7,-2.73,-0.77,22.9954,-45.2269,-22.5068,1014.81
20048,-0.0047824,9.78479,1.29603,1.61,-2.73,-0.7,22.9664,-46.0596,-22.8319,1014.81
20054,-0.0573888,9.75131,1.27212,0.98,-2.73,-0.7,23.78,-46.6147,-24.1617,1014.83
20060,-0.0191296,9.7561,1.31516,1.12,-2.87,-0.91,23.257,-44.8877,-23.881,1014.83
20066,-0.0334768,9.72262,1.29125,1.47,-2.87,-0.63,23.9253,-44.9494,-24.2947,1014.82
20072,-0.0860832,9.75131,1.24342,1.96,-2.66,-0.63,24.1868,-46.5839,-24.2652,1014.82
20078,-0.0908656,9.71305,1.30081,1.61,-2.73,-0.49,23.1988,-45.6895,-23.1569,1014.82
20084,-0.0621712,9.72262,1.2769,2.03,-3.01,-0.42,23.5766,-44.7952,-24.3538,1014.82
20090,-0.0573888,9.7561,1.26734,2.1,-3.29,-0.14,23.8381,-46.0288,-24.1174,1014.82
20096,-0.047824,9.74653,1.23386,1.68,-2.94,0.42,24.3611,-45.5045,-23.8219,1014.81
20102,-0.0669536,9.7561,1.20516,1.54,-3.85,0.42,23.3151,-45.1036,-25.5655,1014.81
20108,-0.0334768,9.65088,1.30081,1.82,-2.8,0.56,24.0705,-45.597,-22.3295,1014.81
20114,-0.0860832,9.74653,1.29603,1.68,-2.94,0.56,23.3732,-46.2138,-23.615,1014.81
20120,0.0191296,9.74653,1.21473,2.03,-3.36,0.35,24.3611,-44.7027,-24.1913,1014.83
20126,0.0047824,9.83261,1.14778,1.61,-3.08,0.35,23.4022,-45.412,-24.014,1014.83
20132,0.0430416,9.78957,1.22908,1.54,-2.59,0.28,23.78,-45.7821,-24.0435,1014.83
20138,0.0813008,9.84218,1.23386,1.19,-2.52,-0.07,23.3732,-45.2578,-22.8762,1014.85
20144,0.047824,9.8087,1.22908,1.33,-2.17,-0.28,23.257,-45.6895,-24.5311,1014.85
20150,-0.0430416,9.78001,1.28168,1.54,-2.38,0.07,23.4313,-46.9231,-23.5411,1014.84
20156,-0.0765184,9.77523,1.31516,1.19,-2.38,-0.21,22.9664,-46.183,-23.2308,1014.84
20162,-0.0095648,9.76566,1.31516,1.68,-2.73,-0.28,23.4313,-44.9185,-23.9253,1014.82
20168,-0.0382592,9.76566,1.28647,1.82,-3.01,-0.21,23.3151,-46.5222,-23.9105,1014.82
20174,-0.0526064,9.75131,1.2769,2.03,-2.73,0.14,23.9543,-46.7998,-23.8071,1014.82
20180,-0.0573888,9.75131,1.23386,1.82,-2.52,0.21,23.5766,-44.7027,-23.9401,1014.82
20186,-0.0765184,9.7274,1.30081,1.68,-2.8,0.35,23.9834,-45.9363,-23.5855,1014.82
20192,-0.0573888,9.74175,1.25777,1.61,-2.94,0.21,23.9253,-46.5531,-22.8171,1014.81
20198,-0.0573888,9.76566,1.21473,1.96,-3.43,0.42,23.3732,-45.9054,-23.2013,1014.81
20204,-0.047824,9.73697,1.23386,2.03,-2.66,0.7,22.7339,-45.9671,-24.2356,1014.85
20210,-0.023912,9.73697,1.25777,1.75,-2.8,0.91,23.286,-46.3063,-23.6298,1014.85
20216,-0.0143472,9.74653,1.25299,2.1,-2.94,0.35,23.1988,-46.2447,-23.1865,1014.84
20222,0,9.74653,1.25777,1.82,-3.15,0.42,23.809,-44.641,-24.6198,1014.84
20228,0.0430416,9.78479,1.25299,2.03,-3.5,0.21,23.257,-46.2755,-23.9401,1014.86
20234,0.0382592,9.81349,1.21951,1.82,-2.87,0.63,24.4773,-46.7073,-23.2752,1014.86
20240,0.047824,9.82783,1.20038,1.47,-2.66,0.49,23.4022,-44.6101,-24.4277,1014.82
20246,0.0286944,9.78957,1.24821,1.82,-2.94,0,23.809,-45.9363,-24.147,1014.82
20252,-0.0286944,9.8087,1.2769,1.96,-2.94,-0.28,23.4894,-47.2007,-23.1865,1014.82
20258,0.0143472,9.76566,1.3056,1.61,-2.52,-0.21,23.2279,-45.5045,-23.5559,1014.84
20264,0.0191296,9.76566,1.31038,1.96,-2.45,0,23.286,-45.1036,-24.5311,1014.84
20270,-0.0860832,9.78001,1.25299,1.82,-2.94,-0.14,23.5766,-47.3549,-22.359,1014.83
20276,-0.0382592,9.78479,1.27212,1.75,-2.94,0.14,23.1698,-45.5045,-22.9648,1014.83
20282,-0.0382592,9.73218,1.25299,1.82,-3.01,0,23.4313,-45.0419,-25.2847,1014.81
20288,-0.0334768,9.78479,1.26734,1.96,-3.08,0.56,23.0536,-47.3549,-23.6002,1014.81
20294,0.0191296,9.73697,1.20995,1.54,-2.38,0.35,23.1407,-46.2755,-23.3195,1014.83
20300,-0.0191296,9.76088,1.28168,1.82,-2.8,0.42,22.792,-45.2886,-23.2899,1014.83
20306,-0.0286944,9.75131,1.24342,2.03,-2.31,0.7,22.6177,-46.6764,-24.5459,1014.83
20312,-0.0430416,9.71305,1.26734,1.4,-2.59,0.42,23.4313,-46.9848,-23.3786,1014.79
20318,-0.0191296,9.75131,1.22908,2.17,-3.15,0.56,23.3732,-45.6279,-23.0683,1014.79
20324,-0.0382592,9.7561,1.23386,1.12,-2.87,0.91,23.5185,-44.9185,-24.7085,1014.84
20330,0.0143472,9.68436,1.31516,2.17,-2.73,0.7,23.7509,-46.7381,-23.5559,1014.84
20336,-0.0047824,9.77523,1.26734,1.54,-3.71,0.49,23.7509,-46.2447,-24.4425,1014.84
20342,0.095648,9.79436,1.1956,2.03,-3.22,0.56,23.286,-44.7643,-24.9301,1014.84
20348,0.0860832,9.81349,1.20516,1.68,-2.45,0.63,23.3151,-46.4297,-24.2061,1014.83
20354,0.047824,9.82305,1.21473,1.61,-2.66,-0.14,24.3902,-46.9848,-24.5903,1014.83
20360,-0.0047824,9.81827,1.24342,1.54,-2.59,-0.07,23.0245,-45.1036,-24.6346,1014.81
20366,0.0047824,9.79914,1.28647,1.4,-2.94,0.21,23.0245,-45.597,-24.2652,1014.81
20372,-0.0526064,9.78001,1.31994,1.47,-2.66,0.07,23.7219,-47.5708,-23.4081,1014.81
20378,-0.047824,9.7561,1.31994,1.61,-3.01,0.28,23.6347,-46.183,-25.4768,1014.8
20384,-0.0286944,9.75131,1.2769,1.75,-3.22,0.28,23.78,-45.4737,-23.7923,1014.8
20390,-0.0621712,9.77044,1.30081,1.82,-3.01,-0.07,24.6807,-47.3549,-23.3638,1014.85
20396,0.0095648,9.73697,1.2769,1.61,-2.8,0.28,23.5185,-46.5222,-23.8367,1014.85
20402,-0.0095648,9.74175,1.25777,1.61,-2.73,0.56,23.78,-45.1344,-24.5459,1014.84
20408,0.0047824,9.74653,1.3056,1.96,-2.73,0.91,23.0536,-46.7998,-23.2456,1014.84
20414,-0.0191296,9.76566,1.2769,2.03,-3.08,0.63,23.257,-47.0773,-22.891,1014.8
20420,-0.0095648,9.7561,1.23864,1.75,-2.94,0.28,23.5766,-45.5353,-24.738,1014.8
20426,0.0047824,9.74175,1.24342,2.1,-3.01,0.63,22.7049,-45.3503,-24.3243,1014.8
20432,-0.0095648,9.75131,1.21951,1.75,-3.08,0.77,23.4894,-46.6764,-23.6002,1014.85
20438,0.0191296,9.78957,1.23864,2.03,-3.01,0.49,22.7049,-45.1344,-24.4425,1014.85
20444,0.0430416,9.79436,1.22908,2.03,-3.22,0.77,22.8792,-44.9802,-24.9006,1014.84
20450,0.0573888,9.80392,1.26255,1.89,-3.08,0.07,23.1988,-46.5531,-23.3195,1014.84
20456,0.0382592,9.80392,1.20516,1.54,-2.73,-0.21,23.0826,-45.6587,-23.0535,1014.84
20462,0.0382592,9.79436,1.21473,1.96,-3.01,0.28,22.763,-45.0419,-24.9892,1014.84
20468,0.0430416,9.78957,1.25777,1.89,-2.38,-0.28,23.1698,-46.2138,-24.9006,1014.85
20474,0.0382592,9.78479,1.27212,1.82,-2.66,-0.7,23.3732,-46.9848,-23.6593,1014.85
20480,0.0095648,9.78001,1.23864,1.96,-2.73,-0.35,23.1407,-45.2578,-24.2208,1014.85
20486,-0.0191296,9.77523,1.29125,1.96,-3.15,0.14,23.5185,-46.1213,-25.0779,1014.84
20492,0.0286944,9.76088,1.26255,1.96,-2.59,-0.56,23.4603,-46.5531,-24.147,1014.84
20498,-0.023912,9.7561,1.24342,1.96,-2.94,-0.35,22.4434,-45.0727,-24.9006,1014.81
20504,-0.0286944,9.77523,1.25777,2.03,-2.66,0.28,22.6177,-45.3811,-23.7628,1014.81
20510,0,9.76566,1.24342,1.89,-3.43,-0.14,23.4894,-47.5399,-25.7133,1014.85
20516,-0.023912,9.78479,1.21473,2.17,-3.08,0.42,22.7049,-46.2755,-25.2404,1014.85
20522,-0.0191296,9.7561,1.23864,1.75,-2.8,0.35,22.5305,-44.7643,-23.3047,1014.86
20528,-0.0286944,9.73697,1.26734,1.68,-2.59,0.07,23.3151,-46.9848,-24.8858,1014.86
20534,-0.023912,9.75131,1.25299,2.03,-2.8,0.56,23.6056,-46.183,-24.5607,1014.89
20540,-0.0143472,9.7561,1.25299,1.89,-3.22,0.35,23.5185,-44.7643,-25.3291,1014.89
20546,0.023912,9.77044,1.23386,1.89,-2.8,0,22.8792,-46.2755,-24.5164,1014.89
20552,0.0095648,9.76088,1.26255,1.75,-2.94,0.14,23.5475,-47.324,-24.3834,1014.82
20558,0.0095648,9.78957,1.23864,2.1,-2.73,0.28,23.0245,-45.3503,-24.2208,1014.82
20564,0.0382592,9.77523,1.24821,1.82,-2.94,0.28,23.0536,-46.0905,-24.5903,1014.85
20570,0.0621712,9.78001,1.26255,1.75,-2.52,17.71,24.1868,-47.2932,-24.147,1014.85
20576,0,9.76566,1.23864,1.4,-2.73,-0.14,22.8502,-46.2755,-23.8662,1014.86
20582,-0.0526064,9.74653,1.29603,2.1,-3.01,-0.14,22.5015,-45.412,-25.4473,1014.86
20588,0,9.75131,1.31516,2.03,-3.22,0.28,23.4603,-47.0157,-24.5459,1014.82
20594,-0.0191296,9.75131,1.25299,2.1,-3.01,0.28,23.7219,-46.6764,-24.4573,1014.82
20600,-0.0191296,9.79436,1.22429,1.68,-2.94,0.28,23.5766,-44.8569,-25.6394,1014.82
20606,-0.0095648,9.79914,1.25777,1.75,-2.8,0.42,23.8962,-45.9363,-25.6689,1014.82
20612,-0.0143472,9.77523,1.25777,1.89,-3.15,0.77,23.2279,-46.4605,-24.0288,1014.82
20618,0.0095648,9.7561,1.20516,1.75,-3.01,-0.07,22.8211,-45.5662,-24.2799,1014.83
20624,-0.0047824,9.84696,1.15734,1.89,-3.01,0.21,22.9954,-45.2886,-25.3882,1014.83
20630,0.0143472,9.81349,1.18125,1.33,-3.43,0.35,22.9083,-47.0157,-24.9597,1014.84
20636,-0.0430416,9.61262,1.40124,2.17,-2.8,0.98,22.6758,-45.597,-24.3243,1014.84
20642,-0.0765184,9.77044,1.32472,1.89,-3.5,1.05,23.0245,-44.7952,-23.3195,1014.8
20648,0.071736,9.7561,1.23864,2.45,-3.15,0.84,22.9954,-46.0288,-24.147,1014.8
20654,-0.0191296,9.8087,1.22908,1.89,-3.29,0.42,23.1117,-46.3372,-23.3047,1014.8
20660,0.0573888,9.73218,1.24821,2.59,-3.22,0.7,22.9373,-45.412,-25.1813,1014.83
20666,0.0143472,9.77523,1.29603,2.17,-2.59,0.42,22.792,-45.7821,-25.0779,1014.83
20672,0.0573888,9.77523,1.26734,1.89,-3.22,0.63,22.9954,-46.4605,-24.6937,1014.83
20678,0.0621712,9.79914,1.24342,1.75,-3.01,0.42,23.4894,-45.6587,-23.9844,1014.83
20684,0.0382592,9.78479,1.22429,1.96,-2.87,0.07,22.7049,-44.6718,-24.6641,1014.83
20690,0.0382592,9.80392,1.1956,1.96,-3.01,-0.14,23.257,-46.1213,-23.7628,1014.83
20696,0.0095648,9.8087,1.21473,1.68,-3.22,-0.07,23.1988,-45.4428,-22.5511,1014.85
20702,-0.0191296,9.78479,1.23864,1.89,-2.94,0.49,22.9083,-44.5793,-24.5903,1014.85
20708,0.0095648,9.76088,1.25299,1.54,-3.01,0.07,23.3151,-46.4297,-24.5016,1014.83
20714,0.0047824,9.76088,1.2769,2.03,-3.29,0.49,22.8211,-47.2932,-25.728,1014.83
20720,0.0334768,9.7561,1.28168,2.1,-3.29,-0.07,23.3151,-44.2092,-25.403,1014.83
20726,-0.0095648,9.76088,1.29125,1.4,-3.29,-0.42,23.2279,-45.412,-25.0188,1014.83
20732,-0.0191296,9.77044,1.24821,1.75,-3.08,0.21,23.5475,-46.7689,-23.8367,1014.83
20738,0.0143472,9.79914,1.24821,1.68,-2.8,0.56,23.3732,-45.7204,-23.8071,1014.8
20744,0,9.76088,1.24342,1.47,-3.22,-0.28,23.4022,-45.2886,-24.7528,1014.8
20750,0.0047824,9.76566,1.23386,1.68,-3.29,0.21,23.8962,-46.5531,-24.3686,1014.83
20756,0.023912,9.7274,1.24342,1.96,-3.36,0.49,22.8211,-45.7512,-25.0631,1014.83
20762,0.0573888,9.74653,1.24821,1.75,-3.08,0,23.1988,-44.826,-25.0631,1014.85
20768,0.0669536,9.77523,1.26734,1.54,-3.01,0,23.6347,-47.2315,-24.9006,1014.85
20774,0.0526064,9.77044,1.22908,1.4,-3.5,0.28,23.0826,-46.9848,-24.5016,1014.85
20780,0.0334768,9.76566,1.26734,1.75,-2.8,-0.07,22.9373,-45.0419,-25.27,1014.85
20786,0.0334768,9.79436,1.26255,1.68,-3.01,-0.21,22.7339,-45.8746,-25.004,1014.85
20792,0.0621712,9.80392,1.26255,1.54,-3.01,-0.28,23.5475,-47.5091,-25.1518,1014.85
20798,0.0765184,9.78001,1.26734,1.61,-2.87,-0.21,23.6347,-45.8129,-24.2947,1014.85
20804,0.0191296,9.81827,1.25777,1.4,-2.66,-0.14,23.257,-45.1653,-24.7971,1014.84
20810,-0.0286944,9.78479,1.21951,1.61,-2.8,-0.14,23.4313,-46.3989,-24.7085,1014.84
20816,0.0143472,9.78957,1.24342,1.61,-2.87,-0.21,23.0245,-46.6147,-25.8906,1014.81
20822,0.0573888,9.78957,1.20516,1.61,-3.43,-0.98,23.3151,-45.412,-24.1765,1014.81
20828,0.0430416,9.8087,1.23386,1.12,-2.87,-0.21,23.286,-46.6764,-24.9597,1014.81
20834,-0.0095648,9.74653,1.29603,1.4,-2.73,-0.56,23.3441,-47.0157,-24.5016,1014.82
20840,0.0095648,9.78479,1.25777,1.19,-3.08,-0.77,23.3732,-45.1344,-24.4277,1014.82
20846,-0.0095648,9.76566,1.29125,1.19,-3.29,-0.56,23.5185,-45.9979,-23.6446,1014.83
20852,0.0382592,9.76566,1.22908,0.91,-2.8,-0.14,23.5475,-46.183,-25.0927,1014.83
20858,0.0143472,9.77523,1.22908,1.75,-3.01,-0.14,22.8792,-45.412,-24.2208,1014.84
20864,-0.0191296,9.74653,1.28647,1.68,-3.08,-0.14,22.8502,-44.9494,-24.1765,1014.84
20870,-0.0095648,9.73697,1.28168,1.68,-3.01,0.07,23.0245,-46.7689,-24.472,1014.86
20876,0.0143472,9.77044,1.28168,1.89,-3.08,0,22.6177,-45.9671,-24.9301,1014.86
20882,0.0430416,9.75131,1.24821,2.24,-3.22,-0.49,22.9083,-44.7952,-24.5311,1014.82
20888,0.0621712,9.81349,1.23386,1.96,-3.01,-0.21,23.8962,-46.3063,-24.014,1014.82
20894,0.0430416,9.78957,1.21473,1.68,-3.36,-0.07,22.8502,-46.4914,-23.2899,1014.82
20900,0.0765184,9.85653,1.22908,1.68,-3.08,-0.49,23.4894,-45.2269,-24.4425,1014.85
20906,0.0526064,9.82783,1.18604,1.26,-2.87,-0.7,23.2279,-45.2578,-22.3886,1014.85
20912,0.0191296,9.77044,1.20995,1.19,-3.01,-0.84,24.0124,-46.3372,-23.1717,1014.82
20918,0.0047824,9.78957,1.27212,1.33,-3.01,-1.26,23.4894,-44.9185,-24.3982,1014.82
20924,0.071736,9.81349,1.22908,1.05,-3.08,-1.05,23.5185,-44.9185,-24.3982,1014.86
20930,0.047824,9.80392,1.25777,1.33,-3.01,-1.54,23.1407,-46.8923,-25.3291,1014.86
20936,0,9.76566,1.24342,1.12,-3.01,-1.61,23.1407,-45.7821,-24.871,1014.83
20942,0,9.80392,1.24342,0.7,-3.22,-1.33,22.7339,-45.0111,-25.5212,1014.83
20948,0,9.75131,1.25777,1.12,-3.15,-1.4,22.9373,-46.4914,-25.3586,1014.83
20954,-0.0334768,9.72262,1.31038,1.26,-3.01,-1.05,22.8211,-47.1082,-25.0483,1014.81
20960,-0.0286944,9.72262,1.32951,1.33,-2.52,-0.98,22.5596,-45.9363,-25.5359,1014.81
20966,-0.0095648,9.72262,1.26734,1.82,-3.29,-1.26,23.1117,-46.6147,-24.6198,1014.84
20972,-0.0382592,9.75131,1.26734,1.89,-2.94,-0.91,23.5475,-47.5091,-24.4277,1014.84
20978,-0.0191296,9.76566,1.23864,2.1,-2.66,-0.84,23.4603,-45.4428,-25.3586,1014.86
20984,-0.0573888,9.74175,1.25777,1.47,-2.87,-0.56,23.3441,-45.597,-25.4325,1014.86
20990,-0.0143472,9.78957,1.29603,1.89,-2.94,-0.42,23.5766,-47.3857,-24.6937,1014.82
20996,0.0143472,9.79436,1.21473,1.12,-3.15,-0.49,23.3441,-45.4737,-24.1913,1014.82
21002,0.0621712,9.77523,1.24821,1.82,-3.15,-0.56,22.8792,-45.4737,-25.0779,1014.82
21008,0.0573888,9.76088,1.28647,1.19,-3.01,-1.05,23.5185,-46.5839,-24.6198,1014.83
21014,0.109995,9.92348,1.09995,1.12,-2.94,-1.61,23.809,-46.4605,-25.5064,1014.83
21020,0.10043,9.78479,1.26255,1.05,-3.22,-1.05,22.9083,-45.0419,-25.5359,1014.84
21026,0.0286944,9.8374,1.23864,1.05,-3.08,-1.89,22.8792,-46.3063,-24.5755,1014.84
21032,0.0286944,9.79436,1.2769,0.63,-2.59,-1.68,23.5185,-47.0157,-24.147,1014.82
21038,-0.0765184,9.79914,1.31038,0.42,-2.94,-1.75,23.8962,-45.1036,-24.7528,1014.82
21044,0.0334768,9.78001,1.23864,0.63,-2.66,-1.75,23.4894,-45.7204,-26.1713,1014.85
21050,0.0047824,9.84218,1.22908,0.77,-2.59,-1.89,24.2739,-47.1082,-25.2552,1014.85
21056,-0.0765184,9.77044,1.30081,0.63,-2.66,-2.1,23.1988,-45.5662,-25.3734,1014.84
21062,-0.071736,9.74653,1.31516,1.12,-3.36,-1.89,23.6637,-44.9494,-24.1913,1014.84
21068,-0.0334768,9.71784,1.3056,0.98,-2.45,-1.33,23.9834,-46.368,-23.9696,1014.84
21074,-0.0047824,9.71784,1.28647,1.68,-2.94,-1.4,23.4894,-46.5839,-25.0188,1014.87
21080,-0.0382592,9.72262,1.28647,1.89,-3.01,-1.47,23.5766,-44.5485,-24.4277,1014.87
21086,-0.0573888,9.73218,1.26734,1.54,-3.01,-1.12,23.6056,-45.6895,-24.9153,1014.83
21092,-0.0860832,9.7274,1.31516,1.68,-3.01,-0.84,23.257,-46.5839,-25.4916,1014.83
21098,-0.0573888,9.76088,1.21473,1.89,-3.22,-1.05,23.257,-44.9802,-24.472,1014.84
21104,-0.071736,9.78001,1.26255,1.68,-2.73,-1.12,23.0826,-45.5045,-24.9006,1014.84
21110,0.023912,9.78479,1.21951,1.61,-2.8,-0.42,23.3441,-46.5531,-24.8562,1014.82
21116,0.0669536,9.8087,1.22429,1.54,-2.38,-1.12,22.8502,-46.6147,-24.7085,1014.82
21122,0.0765184,9.84218,1.16212,0.98,-2.17,-1.33,23.0536,-45.2269,-25.6837,1014.82
21128,0.023912,9.84696,1.20516,1.05,-2.1,-1.26,23.2279,-46.3372,-24.1026,1014.82
21134,-0.0047824,9.81827,1.21473,0.56,-2.38,-2.1,24.1577,-46.1521,-25.2847,1014.82
21140,0,9.78001,1.26734,0.49,-2.66,-2.45,23.5185,-44.6101,-23.9549,1014.8
21146,-0.0047824,9.81349,1.21951,0.77,-2.59,-2.17,23.6637,-47.1082,-24.1913,1014.8
21152,-0.0908656,9.78479,1.31038,0.42,-1.96,-2.03,23.6928,-47.2624,-24.0583,1014.85
21158,-0.0860832,9.71305,1.35342,0.56,-2.45,-2.1,23.3441,-46.3989,-24.3538,1014.85
21164,-0.133907,9.69392,1.35342,0.98,-3.15,-2.17,23.6928,-46.1521,-23.9105,1014.84
21170,-0.0908656,9.69871,1.35342,1.26,-2.52,-1.82,24.0124,-46.9231,-23.5411,1014.84
21176,-0.129125,9.7274,1.29125,0.7,-2.31,-0.98,24.1577,-45.7204,-23.6446,1014.84
21182,-0.0908656,9.72262,1.32472,1.4,-2.8,-1.33,23.2279,-45.7204,-25.1074,1014.83
21188,-0.109995,9.70827,1.34385,1.61,-3.01,-0.91,23.8381,-47.2315,-24.5311,1014.83
21194,-0.153037,9.70827,1.34864,1.47,-2.8,-0.7,24.6226,-47.0773,-23.8514,1014.86
21200,-0.114778,9.76566,1.2769,1.96,-3.22,-0.56,23.6056,-45.2269,-23.2308,1014.86
21206,-0.0860832,9.70349,1.31038,1.75,-3.08,-0.49,23.7219,-45.8746,-23.9253,1014.81
21212,-0.11956,9.71784,1.29603,1.61,-3.36,-0.07,23.7509,-47.2624,-23.2013,1014.81
21218,-0.0765184,9.76088,1.26255,1.68,-2.94,-0.21,23.5766,-45.412,-23.2308,1014.84
21224,-0.0095648,9.80392,1.23386,1.4,-2.66,-0.14,23.7219,-45.412,-24.014,1014.84
21230,-0.023912,9.79436,1.19082,1.4,-3.15,-0.63,24.0124,-46.5531,-24.3243,1014.86
21236,-0.0143472,9.83261,1.16212,0.77,-3.22,-0.84,23.3732,-45.1653,-24.6641,1014.86
21242,0.0765184,9.89,1.20995,0.98,-2.87,-1.33,23.5185,-44.9185,-24.7971,1014.86
21248,0.047824,9.81827,1.30081,0.49,-2.94,-1.19,24.1287,-46.3372,-25.1665,1014.85
21254,-0.0047824,9.81349,1.26734,0.56,-2.87,-2.1,24.303,-46.8923,-25.0483,1014.85
21260,-0.023912,9.79914,1.28168,0.42,-3.01,-1.68,23.1407,-45.0419,-25.1222,1014.83
21266,-0.023912,9.81827,1.2769,0.84,-2.59,-1.75,23.5185,-46.5839,-24.1322,1014.83
21272,-0.124342,9.72262,1.38211,0.91,-2.87,-1.47,24.0415,-47.3549,-24.0583,1014.85
21278,-0.186514,9.68436,1.44428,0.91,-2.87,-1.12,23.8962,-44.641,-25.0927,1014.85
21284,-0.0813008,9.70827,1.35342,1.12,-3.43,-1.47,23.6347,-44.826,-23.3786,1014.85
21290,-0.114778,9.72262,1.33429,1.68,-3.36,-0.98,23.5766,-46.6764,-23.7776,1014.85
21296,-0.11956,9.7274,1.32472,1.47,-2.87,-0.63,23.6928,-45.6895,-24.1765,1014.85
21302,-0.186514,9.67001,1.44428,1.68,-3.29,-0.7,23.7219,-45.5662,-24.472,1014.84
21308,-0.114778,9.66045,1.34864,1.82,-2.8,-0.07,23.9834,-46.3063,-24.2061,1014.84
21314,-0.11956,9.76088,1.33907,2.17,-3.29,0,23.6637,-46.0905,-24.1617,1014.81
21320,-0.071736,9.74175,1.25777,2.03,-2.8,-0.42,23.7219,-44.7643,-23.7332,1014.81
21326,-0.0286944,9.80392,1.19082,1.4,-3.01,-17.85,23.4603,-46.0288,-23.8958,1014.82
21332,-0.0334768,9.81349,1.23864,1.33,-3.29,0.28,24.0415,-46.6147,-23.216,1014.82
21338,-0.0382592,9.79914,1.23386,1.33,-2.87,-0.21,23.6637,-45.1344,-24.0731,1014.83
21344,0.0047824,9.82305,1.21951,1.05,-3.08,-1.12,23.8962,-45.0727,-24.738,1014.83
21350,0.0047824,9.79436,1.28168,0.56,-2.94,-0.28,23.78,-47.0157,-24.1617,1014.84
21356,-0.0430416,9.78001,1.3056,0.84,-3.01,-0.63,23.5766,-45.7512,-23.9401,1014.84
21362,-0.0430416,9.77523,1.31038,1.19,-2.87,-1.61,24.2158,-44.7027,-24.8267,1014.84
21368,-0.0286944,9.77523,1.33907,1.19,-2.73,-1.47,24.2739,-46.5531,-24.3391,1014.84
21374,-0.133907,9.77044,1.37255,1.54,-2.45,-0.63,23.4022,-45.9979,-24.3243,1014.84
21380,-0.157819,9.71305,1.35342,1.05,-2.73,-1.19,23.1407,-45.1036,-24.5311,1014.87
21386,-0.196078,9.65088,1.5208,1.68,-3.43,-1.26,23.6928,-46.1521,-23.6593,1014.87
21392,-0.071736,9.73697,1.28168,1.61,-2.24,-0.42,23.9543,-46.1521,-23.8219,1014.84
21398,-0.11956,9.75131,1.32951,1.54,-2.87,-0.49,23.78,-44.7643,-24.6494,1014.84
21404,-0.13869,9.68436,1.34864,1.89,-2.87,-0.21,23.6347,-45.2578,-24.3686,1014.87
21410,-0.157819,9.72262,1.3056,1.82,-3.36,0,23.9253,-46.3063,-23.8514,1014.87
21416,-0.11956,9.74653,1.31516,2.1,-3.5,-0.21,23.2279,-45.1653,-25.5064,1014.87
21422,-0.0860832,9.78001,1.25299,1.75,-2.94,-0.14,23.7219,-44.4868,-25.4473,1014.81
21428,-0.133907,9.74653,1.26255,1.75,-2.94,0.21,24.3902,-45.7512,-25.4177,1014.81
21434,-0.10043,9.78957,1.32951,1.61,-3.22,0.28,24.5645,-45.5045,-24.0879,1014.86
21440,-0.0286944,9.78957,1.2769,1.61,-3.01,0,23.78,-44.5176,-23.7923,1014.86
21446,0,9.82305,1.26255,1.61,-3.01,-0.56,24.2158,-45.7204,-23.6741,1014.82
21452,-0.023912,9.82305,1.29125,1.4,-2.94,-0.35,24.0124,-46.2755,-24.6641,1014.82
21458,-0.023912,9.85174,1.26255,1.33,-2.59,-0.84,24.826,-44.6101,-24.6494,1014.85
21464,-0.047824,9.74653,1.34864,1.26,-2.17,-0.63,23.7219,-45.1036,-24.3982,1014.85
21470,-0.0908656,9.75131,1.37255,1.68,-2.94,-0.84,24.2449,-46.7073,-23.7037,1014.85
21476,-0.0526064,9.74653,1.37733,1.26,-2.59,-1.05,24.0996,-45.0111,-24.5164,1014.84
21482,-0.047824,9.74175,1.34385,1.68,-3.15,-1.05,24.6517,-44.2709,-24.5607,1014.84
21488,-0.109995,9.78479,1.2769,1.4,-2.52,-0.7,24.0124,-45.5045,-24.4129,1014.83
21494,-0.200861,9.6748,1.42994,1.61,-2.8,-0.42,24.4483,-46.3063,-24.3095,1014.83
21500,-0.109995,9.71305,1.31038,1.75,-2.8,-0.63,23.5185,-44.1784,-24.2356,1014.83
21506,-0.153037,9.71305,1.31994,1.89,-2.87,-0.14,24.0124,-45.1961,-25.5359,1014.83
21512,-0.133907,9.72262,1.29603,2.17,-2.87,0,24.9132,-46.0596,-24.0879,1014.8
21518,-0.105213,9.75131,1.32472,1.75,-3.08,0.14,23.6637,-44.7643,-24.4425,1014.8
21524,-0.143472,9.73697,1.29603,1.96,-3.36,0.21,23.4022,-45.8437,-24.3538,1014.83
21530,-0.10043,9.7561,1.2769,1.61,-2.94,0.07,24.4773,-46.1213,-23.9253,1014.83
21536,-0.129125,9.7561,1.22429,1.61,-3.57,-0.21,24.1577,-45.3811,-24.9597,1014.83
21542,-0.109995,9.74653,1.29603,1.89,-2.94,0.7,23.8381,-44.055,-24.4129,1014.84
21548,-0.0430416,9.82305,1.25299,1.12,-3.15,0.7,23.6056,-45.9054,-24.5311,1014.84
21554,-0.047824,9.81349,1.23864,1.05,-3.29,0.07,24.6226,-46.0288,-24.0288,1014.83
21560,-0.0047824,9.81349,1.26255,1.05,-3.22,-0.21,23.7219,-44.4868,-25.2995,1014.83
21566,-0.0143472,9.8087,1.31038,0.91,-2.66,0.21,24.4192,-44.641,-25.1961,1014.84
21572,-0.0765184,9.78479,1.30081,0.98,-2.8,-0.07,24.3902,-45.9979,-23.6002,1014.84
21578,-0.0143472,9.79914,1.36777,1.33,-3.15,-0.98,23.8381,-44.7027,-24.6789,1014.83
21584,-0.0382592,9.76088,1.3869,1.26,-2.87,-0.91,23.8962,-45.2578,-24.2947,1014.83
21590,-0.095648,9.7274,1.40124,1.33,-2.52,-0.35,24.5064,-46.2755,-23.8662,1014.83
21596,-0.105213,9.74653,1.36777,1.89,-3.22,-0.91,22.9664,-45.597,-23.6002,1014.8
21602,-0.11956,9.75131,1.33907,1.75,-2.73,-0.21,23.4894,-44.5485,-23.7628,1014.8
21608,-0.10043,9.76088,1.33429,2.17,-3.01,-0.77,23.8381,-45.9054,-23.9549,1014.85
21614,-0.129125,9.7561,1.31516,1.75,-3.22,-0.63,23.8962,-45.1344,-24.0583,1014.85
21620,-0.148254,9.73697,1.34385,1.96,-2.94,0,23.8962,-44.7027,-23.5264,1014.85
21626,-0.114778,9.75131,1.29603,1.75,-3.36,0,23.7219,-46.5531,-24.4425,1014.85
21632,-0.11956,9.74175,1.3056,1.68,-2.87,-0.63,23.7219,-46.7073,-23.2899,1014.84
21638,-0.10043,9.72262,1.32472,1.61,-3.01,-0.56,23.8962,-45.3503,-25.2995,1014.84
21644,-0.105213,9.76566,1.28168,1.4,-2.94,0.49,23.5185,-45.5353,-24.4129,1014.84
21650,-0.124342,9.76566,1.25777,1.75,-3.29,0.7,24.1868,-46.4605,-24.147,1014.83
21656,-0.0860832,9.7274,1.27212,1.33,-2.52,-0.28,24.1577,-45.7512,-24.5755,1014.83
21662,-0.0573888,9.75131,1.30081,1.19,-2.73,0,23.1117,-44.6718,-24.4425,1014.83
21668,-0.0286944,9.74653,1.29125,1.61,-3.43,0.35,23.6637,-46.5222,-23.2752,1014.83
21674,-0.0669536,9.76566,1.31994,1.4,-2.59,-0.14,23.9834,-45.9363,-24.014,1014.86
21680,-0.0191296,9.77044,1.33907,1.54,-2.8,0,23.6637,-44.055,-24.6198,1014.86
21686,-0.0621712,9.7274,1.32472,1.68,-2.31,-0.28,22.763,-45.9671,-25.004,1014.85
21692,-0.0765184,9.75131,1.3869,1.61,-2.66,-0.63,24.0415,-46.8615,-24.8415,1014.85
21698,-0.0573888,9.74653,1.34864,1.89,-2.94,-0.56,23.7509,-45.7821,-24.7528,1014.84
21704,-0.0765184,9.74175,1.31516,1.82,-2.94,0.07,23.8381,-45.4737,-22.8614,1014.84
21710,-0.0813008,9.77523,1.29603,1.75,-2.45,-0.35,23.7219,-46.9231,-24.6641,1014.84
21716,-0.172166,9.78479,1.3056,1.82,-2.8,-0.77,23.6637,-45.2578,-24.2652,1014.84
21722,-0.133907,9.71305,1.33429,1.89,-3.15,-0.14,23.2279,-44.6101,-24.6641,1014.84
21728,-0.0908656,9.76088,1.29603,1.75,-3.15,0.07,24.0705,-46.4914,-24.1174,1014.84
21734,-0.124342,9.7561,1.30081,1.96,-2.73,0,23.4894,-45.9671,-23.615,1014.84
21740,-0.124342,9.77523,1.2769,1.19,-3.01,0,23.3732,-44.641,-25.3439,1014.84
21746,-0.129125,9.75131,1.30081,1.19,-3.15,0.35,23.5475,-45.8437,-23.615,1014.84
21752,-0.124342,9.73697,1.31994,1.54,-3.29,0,23.8671,-47.0773,-22.758,1014.79
21758,-0.124342,9.74653,1.31994,1.26,-3.08,0.56,23.9543,-44.3634,-24.3834,1014.79
21764,-0.0813008,9.7561,1.3056,0.91,-2.94,0.28,23.5475,-45.8746,-25.1813,1014.79
21770,-0.0334768,9.78957,1.26734,1.05,-3.29,0.21,23.3732,-46.4914,-23.5411,1014.83
21776,-0.0382592,9.80392,1.34864,1.26,-3.08,-0.14,24.1577,-45.8437,-24.6937,1014.83
21782,-0.071736,9.76566,1.33429,1.4,-2.87,-0.07,23.9253,-45.0727,-24.7232,1014.81
21788,-0.023912,9.79436,1.34385,1.26,-2.94,-0.28,23.1698,-46.3989,-23.4377,1014.81
21794,-0.0191296,9.76566,1.36298,1.26,-2.8,-0.42,24.4483,-45.4428,-23.9696,1014.82
21800,-0.0573888,9.76566,1.35342,2.03,-2.66,-0.49,24.5936,-44.1784,-24.3095,1014.82
21806,-0.109995,9.7561,1.3582,1.82,-2.52,-0.49,23.809,-46.3063,-23.9253,1014.82
21812,-0.129125,9.74653,1.33429,1.54,-2.8,-0.35,23.9834,-46.3372,-23.7184,1014.82
21818,-0.13869,9.75131,1.32951,1.61,-2.94,0.07,23.4603,-45.1653,-25.0335,1014.82
21824,-0.095648,9.76566,1.32951,1.82,-3.08,-0.42,23.8962,-46.1213,-24.6346,1014.79
21830,-0.13869,9.76566,1.30081,1.82,-2.8,-0.21,23.6637,-46.954,-24.0879,1014.79
21836,-0.105213,9.78001,1.31038,1.4,-2.94,0,24.0996,-45.5353,-25.1074,1014.81
21842,-0.11956,9.75131,1.29603,1.61,-3.29,-0.35,23.2279,-45.5662,-26.2157,1014.81
21848,-0.129125,9.77523,1.31038,2.1,-2.87,0.42,24.2739,-46.7998,-23.9992,1014.8
21854,-0.11956,9.73697,1.33429,1.47,-3.08,0.35,24.2158,-46.3372,-24.3834,1014.8
21860,-0.10043,9.74653,1.32472,1.61,-3.22,0.07,23.9543,-44.5176,-24.8415,1014.84
21866,-0.0765184,9.74653,1.31038,1.33,-3.57,0.14,24.2449,-45.1344,-24.4425,1014.84
21872,-0.0573888,9.74653,1.33429,1.47,-3.08,0.35,23.5185,-46.4914,-24.0731,1014.84
21878,-0.0191296,9.78479,1.26734,1.61,-3.01,0.35,23.9543,-45.3195,-23.9401,1014.84
21884,0,9.78957,1.31038,1.47,-3.01,-0.28,23.8671,-45.2578,-24.5016,1014.84
21890,-0.0191296,9.78479,1.33907,1.26,-2.73,-1.05,23.78,-47.1698,-23.8662,1014.86
21896,-0.10043,9.78957,1.3582,1.82,-3.15,-0.56,23.9543,-45.9054,-24.9892,1014.86
21902,-0.0526064,9.77523,1.31994,1.61,-2.59,-0.49,23.5185,-44.7952,-24.9597,1014.85
21908,-0.0621712,9.78001,1.34385,1.54,-2.59,-0.56,23.5185,-46.3372,-22.6398,1014.85
21914,-0.109995,9.75131,1.36777,1.96,-3.22,-0.91,23.5766,-45.9054,-25.1961,1014.86
21920,-0.105213,9.73218,1.34385,1.61,-2.87,-0.35,23.2279,-44.9802,-24.0731,1014.86
21926,-0.114778,9.71784,1.3582,2.03,-2.66,-0.42,23.809,-45.7204,-24.5016,1014.85
21932,-0.148254,9.76566,1.32472,1.54,-2.59,-0.63,24.5645,-46.7998,-24.4573,1014.85
21938,-0.11956,9.73697,1.29125,1.47,-3.08,-0.63,24.3611,-45.2269,-24.6346,1014.85
21944,-0.133907,9.77044,1.32951,1.47,-2.59,-17.92,22.6758,-45.9979,-24.147,1014.82
21950,-0.133907,9.7561,1.33429,1.75,-2.87,0.21,23.286,-46.9231,-24.3243,1014.82
21956,-0.124342,9.76088,1.35342,1.61,-2.66,0.35,22.8502,-46.2138,-24.0435,1014.81
21962,-0.0908656,9.72262,1.33907,1.96,-3.22,0,23.4313,-45.2269,-24.8858,1014.81
21968,-0.124342,9.73697,1.32951,1.68,-2.8,0.21,23.286,-46.5839,-24.4573,1014.82
21974,-0.10043,9.76566,1.31516,2.1,-3.01,0.35,23.4022,-46.2138,-24.8858,1014.82
21980,-0.0334768,9.75131,1.29603,1.82,-3.08,0.42,23.286,-44.3943,-24.7971,1014.83
21986,-0.071736,9.76566,1.31994,2.03,-3.43,-0.21,24.0124,-46.368,-24.2208,1014.83
21992,-0.0765184,9.76566,1.32472,1.68,-3.57,0.14,24.2739,-46.6147,-23.024,1014.83
21998,-0.105213,9.75131,1.31994,1.54,-2.94,0.63,23.5185,-44.641,-23.7923,1014.87
22004,-0.0621712,9.75131,1.31038,1.96,-3.08,-0.07,23.4022,-44.3634,-23.3047,1014.87
22010,-0.0286944,9.74653,1.32951,1.61,-2.66,-0.35,24.0415,-46.6456,-24.2652,1014.84
22016,-0.071736,9.78957,1.33429,1.75,-2.59,-0.35,23.257,-44.641,-23.2456,1014.84
22022,-0.0813008,9.77044,1.31038,1.68,-2.66,-0.07,23.4603,-45.0419,-24.3686,1014.81
22028,-0.0573888,9.78001,1.34385,1.82,-2.52,-0.42,23.4313,-45.9054,-24.3686,1014.81
22034,-0.0813008,9.78957,1.35342,1.12,-2.31,-0.63,23.6637,-45.1653,-24.2652,1014.81
22040,-0.095648,9.76088,1.33429,1.54,-2.8,-0.56,23.7509,-44.7335,-24.1617,1014.81
22046,-0.109995,9.77044,1.31038,1.47,-3.36,-0.49,23.1698,-46.4605,-24.8267,1014.85
22052,-0.124342,9.78001,1.3582,2.24,-3.15,-0.28,23.4022,-46.183,-24.605,1014.85
22058,-0.129125,9.73697,1.31994,1.68,-3.36,-0.28,23.4894,-44.4559,-24.0288,1014.85
22064,-0.114778,9.73218,1.34385,1.75,-3.01,-0.42,23.0245,-44.641,-24.5903,1014.81
22070,-0.124342,9.74175,1.33907,1.82,-2.66,-0.07,23.7509,-45.9363,-23.6741,1014.81
22076,-0.124342,9.75131,1.34864,1.12,-2.38,0.56,23.4313,-44.9494,-24.2504,1014.81
22082,-0.0765184,9.72262,1.34385,1.82,-3.36,0.21,23.6347,-44.2401,-25.3143,1014.81
22088,-0.095648,9.74175,1.32472,1.75,-3.01,0.63,23.0826,-46.2447,-24.7528,1014.83
22094,-0.095648,9.71305,1.36777,1.89,-2.59,0.28,23.5766,-45.8129,-24.0583,1014.83
22100,-0.105213,9.76088,1.29125,1.89,-2.59,0.28,23.6056,-44.0859,-25.27,1014.85
22106,-0.10043,9.77044,1.34385,1.75,-3.22,0,23.4022,-45.5662,-23.881,1014.85
22112,-0.0621712,9.76566,1.32472,1.61,-2.8,0.35,23.809,-46.2447,-23.4968,1014.85
22118,-0.095648,9.77523,1.33429,1.61,-2.59,0.42,24.1287,-44.3326,-23.2899,1014.84
22124,-0.0621712,9.77523,1.32472,2.03,-2.59,0,23.5766,-44.5793,-25.3291,1014.84
22130,-0.0143472,9.82783,1.33429,1.61,-2.8,-0.14,23.6347,-46.6456,-23.6593,1014.81
22136,-0.0430416,9.76566,1.31994,1.33,-3.15,0.14,23.9834,-44.8569,-24.0435,1014.81
22142,-0.0526064,9.77044,1.35342,1.54,-2.59,-0.14,24.4192,-44.5793,-25.4473,1014.81
22148,-0.0908656,9.77044,1.36777,1.89,-2.8,0,23.3732,-46.1213,-23.1865,1014.81
22154,-0.11956,9.73218,1.36777,1.47,-3.08,-0.63,23.6637,-46.368,-23.7332,1014.83
22160,-0.114778,9.76088,1.34864,1.61,-2.87,-0.28,23.3441,-44.1784,-24.2504,1014.83
22166,-0.124342,9.74175,1.37733,2.38,-2.87,0,23.7219,-46.0288,-23.9696,1014.8
22172,-0.0813008,9.75131,1.31516,2.03,-2.59,0.07,24.3321,-46.0596,-22.6693,1014.8
22178,-0.133907,9.78001,1.30081,1.75,-2.52,0.28,23.6928,-43.685,-23.6298,1014.8
22184,-0.129125,9.74175,1.32951,2.1,-2.87,0.07,23.809,-45.0111,-24.5607,1014.84
22190,-0.071736,9.71305,1.33429,2.03,-3.15,0.14,23.6056,-46.0288,-23.5855,1014.84
22196,-0.109995,9.73218,1.31516,1.82,-2.94,0.21,23.8962,-45.4737,-23.9253,1014.83
22202,-0.095648,9.76088,1.32472,1.75,-3.01,0.35,23.0536,-44.5485,-23.8662,1014.83
22208,-0.0860832,9.77044,1.28647,1.68,-2.8,0.63,24.2158,-46.3372,-23.8219,1014.82
22214,-0.047824,9.77523,1.32951,1.47,-2.73,0.7,23.7509,-46.0905,-23.6298,1014.82
22220,-0.0765184,9.78479,1.31516,1.19,-2.8,0.56,23.5766,-44.5176,-24.9892,1014.84
22226,-0.0526064,9.76566,1.32951,1.4,-2.8,0.49,23.78,-45.597,-23.1865,1014.84
22232,-0.0430416,9.82305,1.33429,1.68,-3.36,-0.14,24.0124,-46.5839,-24.5311,1014.84
22238,-0.0382592,9.78479,1.32951,1.4,-3.29,0.07,23.1988,-44.826,-24.0435,1014.86
22244,-0.0669536,9.76088,1.32951,1.26,-2.38,0,23.8671,-44.7027,-24.3095,1014.86
22250,-0.071736,9.78479,1.34864,1.68,-3.01,-0.14,24.2449,-45.9363,-24.3982,1014.82
22256,-0.0813008,9.78957,1.29603,1.82,-3.15,-0.35,24.0124,-44.7643,-24.2208,1014.82
22262,-0.095648,9.78479,1.29603,1.68,-2.59,-0.35,23.6056,-44.9802,-23.5707,1014.84
22268,-0.153037,9.7274,1.31994,1.68,-2.66,-0.21,24.7679,-46.0288,-23.8219,1014.84
22274,-0.095648,9.72262,1.35342,1.26,-2.52,-0.28,24.826,-45.1653,-24.014,1014.83
22280,-0.109995,9.74175,1.3582,1.68,-3.29,-0.35,23.7509,-43.87,-24.4277,1014.83
22286,-0.109995,9.7274,1.31516,1.61,-3.01,0.14,24.0705,-45.7821,-23.881,1014.83
22292,-0.114778,9.74653,1.26734,1.68,-3.29,0.21,24.5936,-45.8129,-24.3834,1014.86
22298,-0.114778,9.76088,1.29125,1.61,-3.01,0.42,23.6347,-44.7027,-23.7776,1014.86
22304,-0.105213,9.7274,1.34864,1.68,-3.15,0,22.9373,-45.412,-25.7724,1014.82
22310,-0.114778,9.71784,1.35342,1.82,-3.29,0.56,23.4894,-47.2007,-24.2356,1014.82
22316,-0.129125,9.7561,1.30081,1.82,-3.22,0.49,22.8502,-45.3195,-24.5903,1014.84
22322,-0.095648,9.73697,1.33429,1.61,-3.08,0.49,23.0536,-44.641,-23.8071,1014.84
22328,-0.114778,9.73697,1.32951,1.68,-2.94,0.42,23.4313,-46.0596,-24.3982,1014.81
22334,-0.0621712,9.78479,1.32951,1.75,-3.15,0.35,23.286,-46.4297,-23.8367,1014.81
22340,-0.0191296,9.82305,1.2769,1.68,-2.73,-0.07,23.1407,-44.0859,-24.3095,1014.83
22346,0.0047824,9.83261,1.30081,1.33,-3.01,-0.07,23.286,-46.2138,-24.9153,1014.83
22352,-0.0143472,9.79436,1.28647,1.26,-2.8,-0.84,23.4313,-46.368,-25.5064,1014.83
22358,-0.0430416,9.78957,1.32951,1.54,-2.8,-0.63,23.6637,-44.5793,-23.9696,1014.84
22364,-0.0860832,9.83261,1.29125,1.19,-2.87,-1.26,22.763,-45.0419,-24.2208,1014.84
22370,-0.071736,9.81349,1.31994,1.68,-2.94,-1.19,24.1868,-46.7998,-24.8415,1014.8
22376,-0.023912,9.80392,1.31994,1.26,-2.45,-0.91,23.5185,-44.641,-23.5855,1014.8
22382,-0.11956,9.75131,1.36777,1.75,-2.87,-1.12,24.2739,-45.2269,-24.605,1014.84
22388,-0.148254,9.70827,1.32951,1.4,-2.52,-0.77,23.9834,-46.6147,-24.6789,1014.84
22394,-0.0573888,9.73697,1.31516,1.4,-3.08,-0.7,23.78,-45.8746,-24.2061,1014.81
22400,-0.148254,9.65567,1.41559,1.61,-2.66,-0.21,23.257,-44.2401,-24.7971,1014.81
22406,-0.153037,9.73218,1.35342,1.82,-2.73,0,24.4483,-45.6587,-24.7676,1014.81
22412,-0.148254,9.6748,1.38211,1.89,-2.52,0.28,23.8381,-46.2755,-23.0387,1014.83
22418,-0.162602,9.73218,1.33429,1.89,-3.08,-0.07,23.5185,-44.4868,-24.871,1014.83
22424,-0.114778,9.69871,1.29125,1.68,-3.29,0.14,24.3321,-44.826,-24.1322,1014.8
22430,-0.129125,9.67958,1.36298,2.1,-3.08,0.35,24.6807,-45.6587,-22.9944,1014.8
22436,-0.0765184,9.75131,1.34385,2.03,-2.73,0.7,23.7219,-44.7952,-23.9696,1014.86
22442,-0.071736,9.8087,1.28647,2.03,-2.8,0.42,23.8962,-44.4251,-24.1174,1014.86
22448,-0.0621712,9.79914,1.27212,1.61,-3.08,-0.28,23.7509,-45.6587,-24.7676,1014.82
22454,-0.0430416,9.84218,1.31994,1.4,-2.8,-0.28,24.6226,-45.7204,-24.8858,1014.82
22460,-0.0143472,9.8087,1.31516,1.47,-2.94,0.14,24.2739,-44.2709,-24.1617,1014.82
22466,0.0382592,9.84696,1.34385,1.26,-2.52,-0.28,23.9834,-45.6279,-24.1617,1014.82
22472,-0.0095648,9.8087,1.32951,1.47,-2.38,-1.47,24.2739,-46.6764,-22.1965,1014.82
22478,-0.095648,9.82783,1.31994,1.54,-2.73,-1.19,24.1577,-44.3943,-24.3982,1014.84
22484,-0.10043,9.78957,1.32951,1.68,-2.66,-0.42,23.3151,-44.2709,-24.472,1014.84
22490,-0.0430416,9.87566,1.24821,1.12,-3.01,-1.47,23.9543,-46.0596,-23.6741,1014.81
22496,-0.109995,9.73218,1.33907,1.26,-2.8,-0.98,23.9543,-45.4428,-23.0092,1014.81
22502,-0.167384,9.73218,1.3869,1.12,-2.66,-1.47,23.4313,-44.2401,-24.8119,1014.83
22508,-0.105213,9.70827,1.39168,1.89,-2.8,-1.26,24.1868,-46.5839,-23.3786,1014.83
22514,-0.153037,9.72262,1.34385,1.47,-2.52,-0.84,24.3611,-46.0596,-24.2061,1014.83
22520,-0.109995,9.68436,1.40124,2.38,-3.5,-0.49,23.8962,-44.4868,-24.2504,1014.83
22526,-0.172166,9.70827,1.34385,1.68,-2.87,-0.49,23.7509,-45.412,-24.5164,1014.83
22532,-0.167384,9.70349,1.31516,2.03,-2.73,-0.63,24.7679,-46.0905,-24.4425,1014.83
22538,-0.205643,9.68914,1.34385,2.03,-2.8,-0.21,24.0124,-45.1036,-22.6545,1014.83
22544,-0.191296,9.70827,1.31994,1.89,-2.8,-0.07,24.0705,-44.7643,-24.3391,1014.82
22550,-0.143472,9.70827,1.31516,2.03,-2.87,0.28,24.5936,-45.7821,-24.6346,1014.82
22556,-0.105213,9.70827,1.3056,2.31,-3.29,0.63,24.1577,-45.1961,-24.7823,1014.82
22562,-0.10043,9.77523,1.30081,1.82,-3.01,0.35,23.9543,-43.7466,-24.2061,1014.82
22568,-0.0908656,9.78001,1.30081,1.68,-3.01,0.49,23.6928,-45.597,-24.1322,1014.81
22574,-0.0573888,9.84696,1.26734,1.26,-3.22,0.07,23.7509,-45.2269,-23.6002,1014.81
22580,-0.0095648,9.77523,1.34385,1.82,-3.15,-0.35,23.8381,-44.5176,-23.7923,1014.81
22586,-0.0526064,9.86609,1.25777,1.4,-2.66,-0.42,23.809,-45.8129,-23.7332,1014.84
22592,-0.047824,9.8087,1.31994,1.4,-3.36,-0.91,24.4773,-46.368,-23.3343,1014.84
22598,-0.047824,9.78957,1.37255,1.26,-3.01,-0.77,23.6637,-44.9185,-23.9105,1014.81
22604,-0.0286944,9.82783,1.38211,1.54,-3.22,-0.84,23.3151,-44.7952,-24.8119,1014.81
22610,0.0286944,9.85174,1.3056,1.54,-2.45,-1.12,23.8962,-46.183,-23.6593,1014.84
22616,-0.109995,9.79914,1.33429,1.12,-3.08,-1.33,23.6347,-44.7027,-23.3343,1014.84
22622,-0.186514,9.70827,1.46341,1.75,-3.08,-1.05,23.8671,-44.1784,-24.6346,1014.83
22628,-0.153037,9.69392,1.43472,2.03,-2.8,-0.77,24.0996,-45.4428,-23.1422,1014.83
22634,-0.133907,9.70827,1.35342,2.24,-3.01,-0.49,24.0124,-45.8129,-24.472,1014.83
22640,-0.143472,9.7274,1.3582,2.45,-2.59,-0.77,23.78,-45.1344,-25.2847,1014.83
22646,-0.167384,9.75131,1.29603,2.03,-2.31,-0.49,24.0124,-45.6279,-23.9992,1014.83
22652,-0.167384,9.72262,1.31994,2.45,-3.22,-0.28,24.0705,-45.9363,-23.9401,1014.82
22658,-0.172166,9.74175,1.28168,2.45,-2.94,0,23.9543,-44.9185,-24.5016,1014.82
22664,-0.133907,9.72262,1.26255,2.03,-3.43,0.35,23.7219,-44.6718,-24.8415,1014.82
22670,-0.133907,9.78001,1.28168,2.31,-3.22,0.21,24.3321,-45.9363,-24.871,1014.82
22676,-0.0860832,9.79436,1.25777,2.03,-2.66,-0.28,23.9543,-44.9185,-23.5559,1014.84
22682,-0.0573888,9.78479,1.2769,1.75,-2.8,-0.07,23.9543,-44.2401,-24.1617,1014.84
22688,-0.0765184,9.79914,1.25777,1.54,-2.87,-0.07,23.8962,-45.2578,-24.472,1014.8
22694,-0.10043,9.79436,1.28168,1.33,-3.22,-0.42,23.8962,-45.5662,-23.8071,1014.8
22700,-0.0573888,9.76088,1.31038,1.19,-2.94,-0.84,23.8671,-44.7952,-24.5755,1014.8
22706,-0.129125,9.74653,1.36777,1.75,-2.87,-0.7,23.5185,-45.6587,-25.1665,1014.85
22712,-0.105213,9.70827,1.37255,2.03,-2.8,-0.56,23.5185,-46.3372,-24.2947,1014.85
22718,-0.143472,9.76088,1.39646,2.1,-2.94,-0.56,23.8381,-45.1036,-24.5755,1014.82
22724,-0.13869,9.73218,1.36777,2.24,-3.01,-0.21,23.5185,-45.1961,-25.0779,1014.82
22730,-0.162602,9.70827,1.31516,2.52,-2.59,-0.35,24.2158,-46.2138,-24.2504,1014.83
22736,-0.186514,9.7274,1.33429,2.31,-2.59,0,24.0415,-44.3943,-24.3095,1014.83
22742,-0.148254,9.7274,1.37255,2.59,-3.64,0.28,24.0415,-44.3326,-24.2208,1014.84
22748,-0.129125,9.72262,1.31994,2.38,-2.8,0.49,24.2449,-46.3063,-24.4868,1014.84
22754,-0.181731,9.7274,1.29603,2.31,-3.01,0.28,24.1287,-45.2578,-24.9892,1014.84
22760,-0.176949,9.74175,1.28168,2.1,-3.64,0.49,23.6056,-43.685,-24.6198,1014.82
22766,-0.13869,9.74653,1.28168,2.1,-3.36,1.33,23.8962,-45.9054,-24.1026,1014.82
22772,-0.11956,9.72262,1.29125,2.03,-3.78,0.77,24.0705,-45.7821,-23.6593,1014.8
22778,-0.0908656,9.78479,1.31038,2.03,-3.22,1.12,24.0415,-44.9802,-24.1913,1014.8
22784,0.0143472,9.85653,1.21473,1.61,-3.01,0.35,24.0124,-44.9802,-24.0583,1014.82
22790,-0.0286944,9.83261,1.24342,1.68,-2.87,-0.07,24.0124,-46.7998,-23.6446,1014.82
22796,-0.109995,9.81349,1.27212,1.33,-3.29,0.28,23.6637,-44.4559,-24.7232,1014.86
22802,-0.105213,9.77523,1.31038,1.19,-2.94,0.14,23.8962,-44.5793,-24.5311,1014.86
22808,-0.047824,9.78001,1.3582,1.19,-3.15,-0.56,23.809,-45.8746,-24.2799,1014.86
22814,-0.0334768,9.7561,1.36777,1.4,-3.22,-0.35,24.1868,-46.183,-24.5164,1014.82
22820,-0.0669536,9.78001,1.34864,1.75,-2.8,0.14,23.7219,-43.9317,-25.4768,1014.82
22826,-0.13869,9.74175,1.37733,1.82,-2.8,-0.35,23.6056,-46.0596,-24.9153,1014.82
22832,-0.176949,9.7274,1.34864,1.75,-2.73,-0.49,23.3732,-46.6456,-23.4229,1014.82
22838,-0.153037,9.71784,1.36298,2.24,-3.43,-0.49,23.4313,-44.7335,-24.6937,1014.79
22844,-0.124342,9.78479,1.31994,1.54,-2.87,-0.14,23.4603,-45.0727,-24.5311,1014.79
22850,-0.148254,9.73697,1.31994,1.96,-2.87,0.56,24.2449,-46.9231,-24.7823,1014.82
22856,-0.148254,9.75131,1.30081,1.96,-2.87,0.63,23.1117,-44.8877,-23.9992,1014.82
22862,-0.133907,9.75131,1.29603,1.68,-2.94,0.21,23.7219,-44.2092,-25.2847,1014.85
22868,-0.153037,9.73218,1.28647,1.75,-3.01,0.63,23.3732,-45.9671,-24.8119,1014.85
22874,-0.133907,9.74653,1.30081,1.96,-2.94,1.54,23.4894,-46.0288,-25.1074,1014.85
22880,-0.105213,9.72262,1.30081,1.33,-3.36,0.63,23.6347,-44.5176,-26.1418,1014.87
22886,-0.109995,9.74175,1.32951,1.68,-3.43,0.63,23.1698,-45.2886,-25.004,1014.87
22892,-0.095648,9.74653,1.31516,1.68,-2.66,0.98,24.0124,-46.2447,-25.2404,1014.81
22898,-0.109995,9.79914,1.32472,1.75,-3.08,0.7,23.9253,-44.4868,-24.7676,1014.81
22904,-0.0573888,9.75131,1.3056,1.75,-3.29,0.42,23.6056,-45.2269,-23.7037,1014.81
22910,-0.071736,9.76566,1.31994,1.82,-3.15,0.42,24.2158,-46.5222,-23.5116,1014.81
22916,-0.0286944,9.77523,1.31038,1.26,-3.36,0.35,23.7219,-45.0727,-24.6346,1014.84
22922,-0.0908656,9.77523,1.33429,1.96,-3.36,0.35,24.0415,-44.5485,-24.9744,1014.84
22928,-0.10043,9.81349,1.33429,2.03,-3.08,0.14,24.3321,-45.5662,-24.8267,1014.84
22934,-0.10043,9.78001,1.3056,1.96,-2.8,0.21,24.2739,-45.1961,-23.9401,1014.83
22940,-0.0526064,9.77044,1.32472,2.03,-2.94,0.21,23.3732,-43.7158,-24.6937,1014.83
22946,-0.095648,9.76566,1.32951,1.61,-2.66,0.14,23.3151,-45.5353,-23.0978,1014.81
22952,-0.105213,9.78001,1.28647,1.75,-2.73,-0.07,24.3611,-46.5222,-24.6198,1014.81
22958,-0.109995,9.77523,1.3056,1.96,-3.36,0.14,23.0536,-44.3018,-24.871,1014.82
22964,-0.129125,9.7274,1.32951,2.1,-3.29,0.21,23.809,-45.412,-24.9153,1014.82
22970,-0.124342,9.73218,1.31994,1.61,-3.15,-0.07,24.4483,-46.9231,-24.5311,1014.82
22976,-0.109995,9.73697,1.32951,1.33,-3.01,0,23.8962,-45.6587,-24.5755,1014.82
22982,-0.129125,9.74175,1.31038,1.89,-2.94,0,24.2158,-44.1476,-24.3834,1014.82
22988,-0.143472,9.7274,1.31516,2.03,-3.15,0.84,23.7219,-46.0905,-24.6494,1014.85
22994,-0.124342,9.71305,1.31994,1.96,-3.08,0.84,24.0124,-45.8746,-24.9744,1014.85
23000,-0.129125,9.69392,1.32951,2.17,-2.8,0.7,23.0536,-43.6541,-25.1961,1014.83
23006,-0.10043,9.7561,1.30081,1.68,-2.94,0.98,23.9543,-45.7204,-24.4129,1014.83
23012,-0.0765184,9.73697,1.34385,2.31,-3.29,0.84,24.7388,-46.368,-24.7676,1014.83
23018,-0.13869,9.78001,1.31038,2.52,-3.22,0.63,23.4894,-44.8569,-25.0927,1014.83
23024,-0.0430416,9.78001,1.29603,2.17,-3.08,0.56,23.6637,-44.6101,-23.2456,1014.83
23030,-0.109995,9.79914,1.2769,2.31,-3.29,0.56,23.8671,-46.2755,-22.492,1014.83
23036,-0.071736,9.77044,1.2769,2.17,-2.94,0.84,24.4483,-45.2886,-23.3638,1014.83
23042,-0.105213,9.77044,1.31516,1.54,-2.8,0.98,23.5185,-45.5045,-24.3982,1014.83
23048,-0.047824,9.76088,1.29603,2.03,-2.94,0.63,23.78,-46.2138,-23.0831,1014.83
23054,-0.114778,9.78957,1.31516,2.1,-3.08,0.56,23.809,-45.2578,-24.3834,1014.8
23060,-0.148254,9.73218,1.34385,2.1,-3.29,0.77,23.78,-45.2578,-24.6641,1014.8
23066,-0.0908656,9.74653,1.31994,2.17,-2.87,1.26,23.4603,-45.9054,-23.8958,1014.84
23072,-0.0813008,9.76566,1.33907,2.24,-2.73,0.49,23.9834,-46.183,-23.6593,1014.84
23078,-0.13869,9.72262,1.30081,2.24,-3.22,1.05,23.1698,-44.1167,-23.9844,1014.86
23084,-0.13869,9.73218,1.30081,2.59,-3.15,1.05,23.6347,-44.6718,-24.738,1014.86
23090,-0.105213,9.76088,1.32472,2.73,-3.08,0.77,24.5936,-46.4914,-24.3095,1014.8
23096,-0.105213,9.71784,1.30081,2.59,-2.94,1.12,23.8671,-43.8083,-23.615,1014.8
23102,-0.124342,9.72262,1.33429,2.59,-3.01,1.05,23.4603,-44.1784,-24.8119,1014.8
23108,-0.095648,9.76566,1.33907,2.66,-3.5,0.98,23.6928,-46.368,-24.2652,1014.78
23114,-0.0526064,9.77044,1.28647,2.45,-3.08,1.26,22.9373,-45.8437,-24.4573,1014.78
23120,-0.023912,9.83261,1.25299,2.59,-3.01,0.7,23.257,-44.9185,-24.8562,1014.82
23126,-0.0095648,9.81827,1.25777,2.17,-3.01,0.49,23.4313,-46.1213,-24.871,1014.82
23132,-0.105213,9.78479,1.26734,2.38,-3.29,0.98,23.5766,-46.3372,-23.9844,1014.81
23138,-0.071736,9.78001,1.31516,2.03,-3.36,0.91,24.0705,-44.8569,-24.7971,1014.81
23144,-0.0908656,9.75131,1.31516,1.89,-2.87,0.35,24.0996,-45.7204,-24.6641,1014.81
23150,-0.0860832,9.79436,1.28647,2.1,-3.15,0.63,23.8962,-46.6764,-24.8415,1014.81
23156,-0.095648,9.76566,1.28168,1.89,-3.08,0.84,24.0124,-44.3634,-25.2847,1014.81
23162,-0.0621712,9.75131,1.28168,2.38,-3.22,0.98,23.4022,-44.4251,-23.6446,1014.85
23168,-0.105213,9.7274,1.32472,1.75,-3.15,0.49,23.8962,-46.1521,-23.6298,1014.85
23174,-0.0526064,9.71305,1.31994,2.1,-3.43,0.77,23.4603,-45.5353,-22.7432,1014.83
23180,-0.114778,9.77523,1.31994,2.38,-3.85,0.98,22.9954,-44.3018,-24.3834,1014.83
23186,-0.0908656,9.74175,1.32951,2.31,-3.43,0.91,22.8502,-45.6587,-25.6689,1014.86
23192,-0.0908656,9.72262,1.32472,2.45,-3.29,1.33,23.4022,-45.9363,-25.0779,1014.86
23198,-0.10043,9.77044,1.29603,2.17,-3.71,1.26,23.0826,-43.9625,-24.2799,1014.84
23204,-0.0382592,9.75131,1.31516,2.59,-3.78,1.26,22.8792,-45.7204,-24.9597,1014.84
23210,-0.109995,9.7274,1.32951,2.94,-3.22,1.47,23.3151,-45.9054,-24.472,1014.85
23216,-0.0526064,9.8087,1.31516,2.1,-3.29,1.33,22.8211,-44.641,-24.6494,1014.85
23222,0.0286944,9.79914,1.22429,2.38,-3.5,0.7,22.7339,-45.1036,-24.4129,1014.85
23228,0.0047824,9.83261,1.23864,2.24,-3.5,0.7,23.1117,-45.9671,-25.27,1014.82
23234,0.0334768,9.8374,1.2769,2.24,-3.01,0.56,22.8211,-45.7204,-24.1174,1014.82
23240,0.0526064,9.79914,1.25299,2.03,-2.87,0.35,23.3151,-44.2092,-24.5903,1014.82
23246,-0.0286944,9.77523,1.28647,1.75,-2.94,-0.14,23.0245,-46.4914,-24.5459,1014.82
23252,-0.071736,9.84218,1.23864,1.82,-3.01,0,22.8792,-46.2138,-24.2504,1014.83
23258,-0.047824,9.74653,1.34864,1.75,-3.01,0.14,23.0245,-45.5662,-23.482,1014.83
23264,-0.0286944,9.78479,1.32472,2.59,-2.8,-0.07,23.1698,-45.1036,-25.5212,1014.83
23270,-0.0095648,9.76088,1.31516,2.24,-2.8,-0.07,24.1287,-46.3372,-24.8119,1014.83
23276,-0.0765184,9.75131,1.3056,2.03,-2.94,-0.14,23.3441,-45.5662,-24.9597,1014.83
23282,-0.0669536,9.73218,1.31038,2.03,-2.87,-0.14,22.9664,-44.7027,-25.1665,1014.82
23288,-0.105213,9.74175,1.3582,2.17,-3.43,0.14,23.4603,-46.183,-25.7724,1014.82
23294,-0.0573888,9.71784,1.33907,2.24,-3.15,0.35,22.8502,-45.5353,-24.7528,1014.82
23300,-0.109995,9.74653,1.31994,2.31,-3.57,0.28,23.4313,-44.6718,-25.0927,1014.82
23306,-0.105213,9.71305,1.32472,2.24,-3.01,0.07,23.8381,-45.8437,-24.7971,1014.86
23312,-0.105213,9.76566,1.31516,2.31,-3.43,0.77,24.0996,-46.8923,-24.1617,1014.86
23318,-0.0621712,9.75131,1.31994,2.66,-3.71,0.49,23.1988,-45.1961,-25.1074,1014.83
23324,-0.0621712,9.76088,1.29603,2.45,-3.36,0.28,23.4313,-45.7204,-24.9744,1014.83
23330,-0.023912,9.80392,1.25777,2.24,-3.43,0.07,24.4483,-46.6456,-24.5607,1014.82
23336,0.0095648,9.8087,1.21473,2.03,-3.36,0,23.6347,-45.0419,-25.2109,1014.82
23342,0.0047824,9.79914,1.27212,1.96,-3.08,0.14,23.3151,-44.055,-25.3439,1014.82
23348,0.0047824,9.8087,1.26734,1.68,-3.15,-0.35,23.1988,-45.9054,-24.7971,1014.83
23354,-0.0382592,9.79436,1.29125,1.82,-2.87,-0.21,23.2279,-45.7821,-24.9744,1014.83
23360,0.0286944,9.81349,1.24821,1.89,-2.87,-0.21,22.763,-44.3634,-24.5311,1014.81
23366,-0.0382592,9.81827,1.24821,1.89,-2.66,-0.98,23.0826,-45.9979,-24.3834,1014.81
23372,-0.0526064,9.78001,1.28647,1.33,-2.59,-0.98,24.1577,-46.3372,-25.2404,1014.83
23378,-0.124342,9.78957,1.26734,1.89,-3.43,-0.56,22.6758,-45.5353,-25.137,1014.83
23384,-0.0860832,9.72262,1.3582,1.19,-3.08,-0.21,23.4603,-44.9802,-24.9153,1014.81
23390,-0.0765184,9.7274,1.34385,1.54,-2.87,-0.28,23.8962,-46.1213,-24.6346,1014.81
23396,-0.0765184,9.70349,1.36298,1.61,-3.08,-0.49,23.2279,-44.7643,-24.5903,1014.81
23402,-0.0813008,9.69871,1.33907,2.03,-3.08,-0.56,23.3151,-45.2886,-25.9054,1014.85
23408,-0.109995,9.69392,1.31994,2.38,-3.22,-0.42,23.1988,-46.7998,-25.0927,1014.85
23414,-0.047824,9.72262,1.29125,2.1,-2.8,-0.14,23.6637,-45.8746,-24.9153,1014.84
23420,-0.0908656,9.72262,1.34385,1.96,-2.87,0.56,23.3732,-44.9185,-25.728,1014.84
23426,-0.071736,9.75131,1.29125,2.1,-2.87,0.21,23.8381,-46.0905,-24.9006,1014.8
23432,-0.0573888,9.75131,1.30081,2.24,-2.94,-0.14,24.2158,-46.2138,-24.738,1014.8
23438,0,9.81349,1.26734,1.96,-2.87,0,23.8381,-44.7643,-25.4177,1014.8
23444,-0.023912,9.81349,1.24342,1.89,-3.29,0,24.3321,-45.8746,-25.2404,1014.8
23450,0.0143472,9.81827,1.23864,1.54,-2.52,-0.35,23.3732,-46.2138,-23.5264,1014.8
23456,0.0334768,9.85174,1.26255,1.61,-2.8,-0.84,23.6056,-45.7821,-25.9201,1014.81
23462,0.0334768,9.83261,1.24821,1.82,-2.87,-1.33,23.0245,-45.3503,-24.2947,1014.81
23468,-0.0334768,9.80392,1.23386,1.19,-2.94,-1.54,23.1988,-45.7204,-23.9696,1014.85
23474,-0.0526064,9.7274,1.37255,1.26,-2.87,-1.12,23.4603,-45.2578,-25.0927,1014.85
23480,-0.0526064,9.7561,1.37255,1.68,-2.73,-1.12,23.8381,-44.0242,-25.5212,1014.86
23486,-0.0286944,9.77523,1.27212,1.47,-2.38,-0.98,22.9664,-46.3989,-24.5459,1014.86
23492,-0.11956,9.78957,1.27212,1.47,-2.59,-1.26,23.6056,-46.0596,-24.605,1014.81
23498,-0.11956,9.71784,1.34385,1.75,-2.94,-0.98,23.6928,-44.826,-25.4177,1014.81
23504,-0.11956,9.71784,1.37733,1.96,-3.08,-0.63,23.3441,-45.8129,-24.9153,1014.81
23510,-0.071736,9.7561,1.26255,1.4,-2.8,-0.84,23.1698,-46.183,-25.5212,1014.81
23516,-0.095648,9.74175,1.31994,1.68,-3.08,-0.63,23.3441,-45.0727,-25.1518,1014.81
23522,-0.167384,9.68436,1.37733,2.17,-3.43,-0.7,23.4603,-44.7952,-24.871,1014.82
23528,-0.133907,9.70349,1.33429,2.38,-3.22,0.35,23.8381,-46.4914,-23.6889,1014.82
23534,-0.095648,9.73697,1.28647,2.1,-2.66,-0.21,24.0705,-45.2578,-25.4916,1014.8
23540,-0.071736,9.76566,1.23386,1.89,-3.08,0.07,23.809,-44.5793,-25.6246,1014.8
23546,-0.0573888,9.73697,1.28647,1.75,-3.43,0.49,24.0705,-46.0905,-25.3586,1014.85
23552,-0.0621712,9.78001,1.3056,1.96,-3.22,-0.21,23.4022,-46.368,-24.5607,1014.85
23558,-0.023912,9.78001,1.21951,1.75,-3.01,-0.21,23.0245,-44.2709,-24.4277,1014.82
23564,-0.0143472,9.80392,1.21951,1.33,-3.22,0.07,23.5766,-44.9494,-25.403,1014.82
23570,0,9.79436,1.31038,1.26,-3.08,0,23.8962,-46.4914,-24.8562,1014.82
23576,-0.0191296,9.77523,1.31038,1.47,-2.94,-0.91,23.3441,-44.7335,-25.1518,1014.83
23582,-0.0573888,9.73697,1.33907,1.61,-3.36,-0.7,22.9954,-45.6895,-24.6346,1014.83
23588,-0.047824,9.76088,1.35342,1.54,-3.36,-0.98,23.7219,-46.183,-25.6985,1014.84
23594,0.023912,9.78001,1.33429,1.68,-2.94,-0.84,23.4022,-45.3503,-25.1813,1014.84
23600,0.0382592,9.8087,1.29125,1.68,-2.59,-1.26,23.4022,-44.9494,-24.5903,1014.83
23606,-0.10043,9.82305,1.29603,2.1,-2.87,-0.91,23.0826,-46.1521,-24.4129,1014.83
23612,-0.105213,9.77044,1.28647,1.61,-2.73,-0.49,23.3732,-46.2755,-24.3538,1014.83
23618,-0.143472,9.72262,1.31516,1.61,-2.73,-0.63,24.1577,-44.0859,-25.4621,1014.83
23624,-0.105213,9.74175,1.3056,1.68,-2.87,-0.77,23.0536,-45.2269,-24.0731,1014.83
23630,-0.124342,9.71784,1.32951,2.03,-3.29,-0.7,23.5475,-45.9979,-24.0731,1014.81
23636,-0.114778,9.76566,1.28168,1.96,-2.94,-0.28,23.5185,-45.1961,-24.605,1014.81
23642,-0.162602,9.7274,1.28647,1.89,-3.29,-0.42,23.4313,-45.0727,-25.0779,1014.85
23648,-0.11956,9.77523,1.26734,1.89,-3.22,-0.07,24.4192,-46.3063,-24.6346,1014.85
23654,-0.0813008,9.74653,1.25777,1.82,-3.29,-0.28,23.1407,-45.7512,-24.7676,1014.83
23660,-0.0908656,9.75131,1.26255,1.68,-3.08,-0.07,23.809,-44.9494,-24.1174,1014.83
23666,-0.047824,9.79914,1.26255,1.26,-3.36,-0.35,23.9543,-46.0288,-25.2109,1014.85
23672,-0.0334768,9.8087,1.2769,1.4,-3.5,-0.56,23.78,-46.1521,-24.8119,1014.85
23678,0.0143472,9.82305,1.26255,1.33,-3.15,-1.05,23.9834,-44.0242,-26.1418,1014.84
23684,-0.0286944,9.73697,1.37255,0.91,-3.36,-1.05,23.1407,-47.2007,-25.8758,1014.84
23690,-0.0143472,9.76088,1.32951,1.54,-3.43,-0.56,23.9253,-46.0596,-24.5016,1014.84
23696,0.0526064,9.76088,1.34864,1.54,-2.73,-1.19,23.809,-44.4868,-24.5311,1014.82
23702,0.0191296,9.83261,1.24821,1.89,-2.52,-1.68,23.9543,-45.5662,-24.3982,1014.82
23708,-0.0860832,9.77044,1.31038,1.26,-2.8,-1.61,24.1287,-46.1213,-24.0583,1014.81
23714,-0.071736,9.76088,1.33429,1.33,-3.29,-1.19,24.2158,-44.641,-24.472,1014.81
23720,-0.0430416,9.73218,1.31994,1.96,-2.87,-1.89,23.78,-44.641,-25.6246,1014.83
23726,-0.0669536,9.73697,1.35342,1.68,-2.66,-1.96,23.809,-45.4737,-24.1174,1014.83
23732,-0.0860832,9.77523,1.25299,1.61,-2.87,-1.82,24.2449,-45.8129,-23.6298,1014.82
23738,-0.109995,9.73697,1.3056,1.54,-3.15,-1.61,23.6056,-45.1036,-25.8315,1014.82
23744,-0.157819,9.77044,1.26255,1.47,-2.8,-1.26,24.1287,-45.6279,-23.3195,1014.82
23750,-0.167384,9.68436,1.31516,1.96,-2.8,-1.12,24.4483,-46.9848,-24.0731,1014.85
23756,-0.13869,9.73697,1.29125,1.47,-2.8,-0.77,23.8671,-45.2886,-23.7037,1014.85
23762,-0.157819,9.73697,1.29125,1.68,-2.87,-0.42,22.9373,-44.7952,-23.9844,1014.81
23768,-0.167384,9.69392,1.25299,1.82,-2.87,-0.56,23.5766,-46.183,-23.881,1014.81
23774,-0.124342,9.75131,1.26734,2.1,-3.29,-0.63,23.3151,-45.8129,-24.0879,1014.8
23780,-0.071736,9.75131,1.2769,1.61,-2.73,-0.14,22.763,-44.9185,-25.1518,1014.8
23786,-0.0860832,9.77044,1.25299,1.54,-2.8,-0.42,22.792,-46.2138,-24.605,1014.82
23792,-0.109995,9.79436,1.22429,1.75,-2.94,-0.28,23.9253,-46.0288,-23.3786,1014.82
23798,-0.095648,9.74653,1.29603,1.54,-3.5,-0.42,22.9954,-45.0419,-24.2504,1014.82
23804,-0.0908656,9.7561,1.26734,1.68,-3.01,-0.42,23.8671,-45.9979,-23.3047,1014.84
23810,-0.0143472,9.80392,1.25299,0.7,-2.73,-0.77,24.303,-46.4914,-24.9597,1014.84
23816,-0.10043,9.81349,1.2769,1.47,-2.87,-1.19,23.1698,-45.2886,-25.2256,1014.83
23822,-0.133907,9.77523,1.3056,1.12,-2.8,-0.77,23.4313,-45.4428,-25.1518,1014.83
23828,-0.133907,9.75131,1.3056,1.19,-2.8,-0.77,23.5766,-46.1213,-24.6346,1014.8
23834,-0.157819,9.76566,1.35342,1.47,-2.52,-0.49,23.5766,-44.9802,-25.0631,1014.8
23840,-0.105213,9.72262,1.34864,1.33,-3.08,-0.42,23.5475,-44.0242,-23.9105,1014.84
23846,-0.133907,9.69392,1.36777,1.82,-2.87,-0.07,23.6347,-45.7512,-23.9992,1014.84
23852,-0.191296,9.70349,1.34385,2.1,-3.36,-0.42,23.8671,-46.0288,-23.9105,1014.84
23858,-0.157819,9.69871,1.34385,1.89,-3.15,-0.14,23.1117,-44.4251,-24.738,1014.84
23864,-0.133907,9.7274,1.3056,2.03,-3.08,0.42,23.809,-45.8746,-23.7923,1014.84
23870,-0.124342,9.71784,1.28647,1.47,-2.87,0.21,24.2739,-46.1521,-23.748,1014.84
23876,-0.129125,9.76088,1.27212,1.82,-3.5,0.21,23.2279,-45.3503,-24.1765,1014.84
23882,-0.109995,9.79914,1.22429,1.26,-3.29,0.42,22.6468,-45.0419,-24.3834,1014.83
23888,-0.0143472,9.82305,1.23386,1.19,-3.36,0.07,23.6347,-46.7381,-24.2356,1014.83
23894,-0.0095648,9.81349,1.24821,1.47,-2.8,-0.14,23.3151,-45.7821,-24.7823,1014.83
23900,-0.0191296,9.78001,1.31038,1.12,-2.73,-0.49,23.4894,-44.4251,-24.6198,1014.83
23906,-0.071736,9.76566,1.2769,1.61,-2.94,-0.63,23.3151,-45.9979,-24.7528,1014.81
23912,-0.0860832,9.79436,1.2769,1.33,-2.8,-0.35,23.8671,-46.183,-24.5755,1014.81
23918,-0.105213,9.75131,1.28647,1.47,-2.52,-0.42,23.5475,-44.6101,-24.3095,1014.81
23924,-0.13869,9.68914,1.34385,1.4,-2.45,-0.56,23.4603,-45.6895,-23.9696,1014.82
23930,-0.153037,9.7561,1.31994,1.47,-3.15,-0.7,23.9253,-46.954,-25.004,1014.82
23936,-0.105213,9.70827,1.32472,2.03,-2.94,-0.49,23.78,-44.8569,-24.5016,1014.81
23942,-0.13869,9.75131,1.28647,1.75,-2.8,-0.21,23.4894,-44.9802,-24.147,1014.81
23948,-0.167384,9.76088,1.31994,1.75,-2.8,0.21,23.1117,-46.7381,-23.6298,1014.84
23954,-0.11956,9.73218,1.25777,1.33,-3.01,-0.07,24.0124,-45.6895,-24.8267,1014.84
23960,-0.167384,9.73218,1.29125,1.82,-3.43,-0.21,23.6637,-44.7027,-24.4573,1014.83
23966,-0.157819,9.76566,1.2769,1.54,-2.87,0.28,23.9253,-46.0596,-24.0288,1014.83
23972,-0.148254,9.7274,1.29125,1.19,-2.87,0.77,24.303,-45.9054,-23.349,1014.83
23978,-0.114778,9.74653,1.28168,2.1,-3.22,0.7,23.5185,-44.6101,-24.5311,1014.86
23984,-0.133907,9.7274,1.29125,1.33,-2.87,0.35,23.809,-44.9802,-24.1174,1014.86
23990,-0.13869,9.76088,1.25777,1.75,-2.8,0.98,24.0705,-46.0288,-24.2947,1014.84
23996,-0.0908656,9.78001,1.26734,1.33,-3.43,0.42,23.8381,-45.4737,-24.3982,1014.84
24002,-0.047824,9.81349,1.21951,1.26,-3.36,0.56,23.286,-44.7643,-24.1322,1014.85
24008,-0.047824,9.78001,1.28647,1.26,-2.8,0,24.0124,-46.0905,-23.6889,1014.85
24014,-0.0621712,9.76088,1.30081,1.61,-2.87,0.14,23.809,-46.183,-23.1274,1014.83
24020,-0.0765184,9.77044,1.36777,1.54,-3.15,0.21,22.9664,-44.4251,-24.0288,1014.83
24026,-0.0669536,9.7561,1.31038,1.68,-2.73,0,23.5185,-45.8746,-23.482,1014.8
24032,-0.105213,9.7561,1.31516,1.33,-2.94,-0.28,24.2449,-46.1521,-23.7776,1014.8
24038,-0.0669536,9.77523,1.29125,1.68,-3.01,-0.49,23.809,-43.9317,-25.2109,1014.8
24044,-0.0621712,9.77523,1.25299,1.61,-2.66,0,23.4894,-44.826,-24.5164,1014.83
24050,-0.0908656,9.78957,1.29125,1.54,-2.8,-0.14,24.3611,-45.9671,-23.7923,1014.83
24056,-0.167384,9.78001,1.2769,1.47,-3.22,-0.35,24.303,-45.3195,-24.5164,1014.84
24062,-0.0813008,9.74653,1.22908,1.4,-2.52,0,23.9834,-45.3195,-25.2404,1014.84
24068,-0.13869,9.74653,1.28647,0.91,-2.94,0.42,24.2158,-46.7073,-23.9696,1014.81
24074,-0.157819,9.64132,1.37255,1.61,-2.8,0.07,23.8381,-45.8437,-24.2652,1014.81
24080,-0.172166,9.72262,1.33429,2.03,-3.78,0.21,23.9543,-44.9802,-24.8562,1014.81
24086,-0.105213,9.7274,1.28168,1.96,-2.52,0.42,24.5354,-45.8129,-24.7085,1014.81
24092,-0.205643,9.74653,1.29603,1.33,-3.15,0.7,23.6928,-45.412,-23.3638,1014.81
24098,-0.0860832,9.71784,1.28168,2.17,-2.87,1.05,24.2739,-44.5485,-25.2552,1014.82
24104,-0.0621712,9.77523,1.25299,1.05,-2.8,0.49,23.8671,-45.5045,-24.7676,1014.82
24110,-0.0621712,9.76088,1.31038,1.82,-3.01,0,23.7219,-46.4914,-24.472,1014.84
24116,-0.0621712,9.76566,1.29125,1.75,-2.87,0.49,23.1117,-45.1036,-23.7628,1014.84
24122,-0.0860832,9.76566,1.24821,1.33,-2.73,0.35,24.2739,-45.5045,-24.0288,1014.83
24128,-0.0573888,9.79914,1.2769,1.4,-2.73,-0.14,23.8962,-46.5839,-24.2208,1014.83
24134,-0.095648,9.7561,1.30081,1.68,-2.59,-0.21,24.3321,-45.2269,-24.8562,1014.79
24140,-0.109995,9.7561,1.31994,1.75,-2.66,0.35,23.5766,-44.3943,-23.748,1014.79
24146,-0.133907,9.71784,1.34385,1.47,-2.8,0.14,24.3902,-45.3195,-23.4672,1014.85
24152,-0.0573888,9.74653,1.30081,1.75,-2.59,0.14,24.2449,-45.7821,-24.1913,1014.85
24158,-0.114778,9.7274,1.34385,2.1,-2.59,0.14,23.78,-43.4999,-24.9153,1014.85
24164,-0.124342,9.7274,1.31038,2.1,-2.52,0.14,23.8381,-45.1653,-23.5411,1014.8
24170,-0.11956,9.72262,1.3056,2.17,-2.87,0.56,23.9543,-45.1653,-24.1765,1014.8
24176,-0.129125,9.76088,1.27212,2.1,-3.08,0.49,23.7219,-45.3195,-22.9501,1014.84
24182,-0.11956,9.70827,1.26255,2.31,-3.15,0.14,23.0536,-44.4868,-23.4229,1014.84
24188,-0.105213,9.7561,1.26734,2.31,-2.94,0.63,24.5354,-45.6587,-23.9401,1014.82
24194,-0.133907,9.74653,1.24821,2.17,-3.08,0.42,24.0996,-44.9802,-23.7184,1014.82
24200,-0.10043,9.77044,1.27212,1.68,-3.22,0.49,23.6637,-44.3326,-24.472,1014.81
24206,-0.0430416,9.77523,1.26734,1.89,-3.29,0.77,24.3902,-45.9363,-23.5411,1014.81
24212,-0.0382592,9.79914,1.2769,1.96,-2.94,0.7,23.7219,-45.9979,-23.5855,1014.81
24218,-0.0334768,9.78479,1.26734,1.75,-2.87,0.42,23.3151,-43.8392,-23.9401,1014.8
24224,-0.0430416,9.81349,1.23386,1.54,-2.66,-0.07,23.4894,-44.9185,-23.2308,1014.8
24230,-0.0813008,9.78479,1.26734,1.68,-2.59,0.07,24.797,-45.9363,-23.615,1014.84
24236,-0.0526064,9.78479,1.27212,1.61,-2.38,0.07,24.1287,-44.5793,-24.1322,1014.84
24242,-0.0765184,9.73218,1.32472,1.4,-2.59,-0.56,23.809,-44.3634,-23.8071,1014.82
24248,-0.114778,9.73218,1.31516,1.68,-3.08,-0.35,23.78,-46.183,-23.2604,1014.82
24254,-0.153037,9.7561,1.3056,2.03,-2.8,0.28,23.4894,-45.2886,-23.9844,1014.85
24260,-0.133907,9.71305,1.28168,2.03,-2.66,-0.14,22.8502,-44.1784,-25.2552,1014.85
24266,-0.11956,9.7561,1.31516,1.68,-2.8,-0.21,24.0996,-45.8746,-24.8415,1014.85
24272,-0.114778,9.73697,1.31994,2.17,-2.87,0.07,24.1577,-46.0288,-23.5411,1014.81
24278,-0.109995,9.7561,1.28168,2.1,-3.15,0.35,23.1117,-44.4251,-24.1617,1014.81
24284,-0.143472,9.73218,1.29125,2.03,-2.73,0.42,24.2158,-45.0727,-24.7823,1014.81
24290,-0.133907,9.7561,1.27212,1.89,-3.15,0.35,24.0705,-46.6764,-24.6641,1014.81
24296,-0.0860832,9.74653,1.26734,2.24,-3.15,0.42,24.1577,-44.1167,-24.1765,1014.83
24302,-0.13869,9.72262,1.27212,1.89,-2.94,0.84,23.0536,-44.055,-24.1322,1014.83
24308,-0.114778,9.75131,1.27212,1.89,-2.73,0.63,23.8381,-46.3063,-24.2208,1014.82
24314,-0.109995,9.77523,1.26255,1.89,-3.22,0.35,24.1287,-45.0419,-23.3195,1014.82
24320,-0.023912,9.75131,1.23864,1.4,-3.15,0.63,24.1868,-44.8877,-24.1026,1014.84
24326,-0.071736,9.78001,1.2769,1.68,-2.94,0.42,23.9543,-45.8129,-25.4325,1014.84
24332,-0.0047824,9.77523,1.28647,1.75,-2.52,-0.21,24.4773,-45.8746,-24.871,1014.84
24338,-0.0143472,9.82305,1.23864,1.47,-2.73,-0.21,24.0996,-44.2709,-25.1961,1014.83
24344,-0.0286944,9.76088,1.24342,1.61,-2.94,-0.07,23.5475,-45.0727,-24.2356,1014.83
24350,-0.0334768,9.79436,1.27212,1.47,-2.8,-0.56,24.4773,-45.9054,-23.9401,1014.83
24356,-0.0573888,9.78957,1.2769,1.75,-2.8,-0.56,23.4603,-43.5616,-24.0288,1014.83
24362,-0.0765184,9.76088,1.3056,1.61,-2.87,-0.7,23.4603,-44.0859,-24.9744,1014.83
24368,-0.095648,9.77523,1.31038,1.68,-3.01,-0.56,23.286,-45.5662,-23.4968,1014.83
24374,-0.10043,9.74653,1.27212,1.68,-2.87,-0.77,23.5766,-44.3943,-24.3834,1014.86
24380,-0.10043,9.77523,1.29125,2.1,-2.8,-0.49,23.4603,-44.1784,-25.2109,1014.86
24386,-0.0908656,9.73697,1.31038,1.68,-2.73,-0.21,23.8381,-45.5045,-24.6346,1014.86
24392,-0.114778,9.74653,1.30081,2.1,-3.43,-0.28,23.6056,-45.6587,-23.6593,1014.82
24398,-0.11956,9.73218,1.27212,1.4,-2.8,-0.14,23.6347,-43.9317,-25.0779,1014.82
24404,-0.095648,9.7561,1.29125,1.68,-3.43,-0.28,24.303,-45.3811,-25.1813,1014.8
24410,-0.109995,9.77044,1.20516,1.47,-3.43,0.21,24.0705,-45.5662,-24.9744,1014.8
24416,-0.11956,9.7561,1.23864,1.89,-3.22,-0.07,23.0536,-45.4428,-24.9597,1014.84
24422,-0.0669536,9.77044,1.25777,1.33,-3.29,-0.28,23.8671,-44.4251,-25.728,1014.84
24428,-0.0526064,9.76088,1.21473,1.4,-2.94,-0.14,24.5354,-47.4782,-24.8119,1014.81
24434,-0.0526064,9.77523,1.22908,1.05,-2.87,-0.98,23.3441,-45.5045,-24.2356,1014.81
24440,-0.0526064,9.81349,1.28168,1.33,-3.15,-0.84,23.0245,-43.685,-24.6937,1014.81
24446,0.0047824,9.78479,1.25299,1.19,-2.52,-0.7,24.0124,-45.8746,-24.7823,1014.82
24452,-0.0095648,9.79436,1.28168,1.4,-2.24,-0.91,23.6347,-46.5839,-24.4129,1014.82
24458,-0.0573888,9.77044,1.31994,1.47,-2.8,-1.68,23.6928,-44.3634,-25.4916,1014.83
24464,-0.071736,9.81349,1.28168,1.19,-2.8,-1.75,23.9253,-46.0905,-24.2799,1014.83
24470,-0.114778,9.78957,1.30081,1.47,-2.73,-1.47,24.6226,-46.4605,-24.6198,1014.84
24476,-0.13869,9.73218,1.28647,1.54,-2.52,-1.33,23.3151,-44.3943,-24.1617,1014.84
24482,-0.129125,9.75131,1.26734,1.4,-2.73,-1.68,23.809,-44.3943,-24.5903,1014.83
24488,-0.157819,9.77044,1.27212,1.61,-2.73,-0.98,24.2158,-46.3989,-23.7184,1014.83
24494,-0.153037,9.7274,1.29125,1.26,-2.38,-1.33,23.78,-45.3195,-24.738,1014.78
24500,-0.172166,9.74175,1.31516,1.68,-2.8,-0.91,23.6637,-44.4559,-25.3734,1014.78
24506,-0.13869,9.71305,1.31038,1.47,-2.52,-0.63,23.78,-46.3989,-24.5459,1014.78
24512,-0.129125,9.73697,1.2769,1.54,-2.94,-0.77,23.8381,-45.1344,-24.1174,1014.81
24518,-0.143472,9.75131,1.22429,1.4,-3.29,-0.98,23.8381,-44.1784,-25.4473,1014.81
24524,-0.105213,9.68436,1.34864,1.4,-2.73,-0.63,23.78,-45.0419,-24.3834,1014.84
24530,-0.172166,9.60306,1.40603,2.03,-2.52,0.07,24.1868,-45.6587,-23.2456,1014.84
24536,-0.0908656,9.7274,1.25777,1.89,-3.15,-0.42,23.809,-44.2709,-24.3391,1014.85
24542,-0.071736,9.77044,1.22908,1.61,-2.87,-0.56,23.9834,-44.1476,-24.5459,1014.85
24548,-0.10043,9.77044,1.22908,1.68,-2.73,-0.42,24.7679,-46.1213,-23.1422,1014.82
24554,-0.0908656,9.7274,1.24821,1.19,-3.01,-0.63,24.1577,-45.6895,-23.9992,1014.82
24560,-0.109995,9.76566,1.28647,1.33,-2.52,-0.42,23.8381,-44.1167,-24.8267,1014.82
24566,-0.071736,9.76566,1.23386,1.4,-2.45,-0.49,24.7098,-45.8437,-25.2847,1014.84
24572,-0.0813008,9.77044,1.26255,1.47,-2.87,-1.12,23.9543,-46.183,-24.3982,1014.84
24578,-0.0813008,9.74175,1.32951,1.19,-2.66,-1.4,23.3732,-44.1784,-25.0335,1014.85
24584,-0.167384,9.73218,1.34385,1.4,-2.59,-0.56,23.286,-44.8569,-25.3586,1014.85
24590,-0.105213,9.77044,1.32951,1.4,-2.66,-1.19,24.5936,-46.4914,-25.6246,1014.82
24596,-0.114778,9.71305,1.30081,1.82,-2.31,-1.12,24.3902,-44.3943,-25.3291,1014.82
24602,-0.0813008,9.77523,1.26734,1.12,-2.38,-0.77,23.9543,-44.3634,-24.9449,1014.8
24608,-0.215208,9.7274,1.37255,1.68,-1.96,-0.91,23.6637,-45.9979,-23.748,1014.8
24614,-0.157819,9.70827,1.31994,1.96,-2.24,-1.26,23.809,-44.6718,-24.147,1014.8
24620,-0.234338,9.75131,1.33429,1.82,-2.31,-0.63,23.5185,-44.3326,-24.2208,1014.83
24626,-0.162602,9.67958,1.32472,2.38,-2.8,-0.84,23.3732,-46.6456,-25.2109,1014.83
24632,-0.172166,9.75131,1.3056,2.1,-2.94,-0.07,24.6517,-45.3811,-24.7528,1014.84
24638,-0.153037,9.70827,1.29125,1.75,-3.01,-0.07,23.78,-43.7158,-25.1813,1014.84
24644,-0.153037,9.73697,1.24342,2.1,-2.94,-0.49,24.0996,-45.6895,-24.7823,1014.85
24650,-0.109995,9.76566,1.22908,1.54,-2.94,-0.28,24.6807,-46.6456,-24.2061,1014.85
24656,-0.0860832,9.75131,1.26255,1.75,-2.87,-0.07,24.2449,-44.4559,-24.871,1014.84
24662,-0.0526064,9.76088,1.26255,1.61,-2.87,-0.56,23.5475,-44.7643,-24.0288,1014.84
24668,-0.0908656,9.79914,1.25777,1.82,-3.01,-1.12,24.1577,-46.2138,-25.0335,1014.82
24674,-0.0669536,9.79914,1.26255,1.61,-2.52,-0.63,23.809,-45.2886,-24.7971,1014.82
24680,-0.11956,9.80392,1.25777,0.84,-2.73,-0.98,23.7509,-44.641,-26.0383,1014.82
24686,-0.143472,9.73697,1.3056,1.61,-2.45,-1.19,24.0415,-45.2886,-23.9549,1014.84
24692,-0.157819,9.73697,1.33907,1.4,-2.31,-0.63,24.0124,-45.412,-23.3786,1014.84
24698,-0.153037,9.71784,1.33907,1.4,-2.73,-0.77,23.6637,-44.8569,-25.0927,1014.86
24704,-0.157819,9.71305,1.33429,1.54,-2.52,-0.35,24.0415,-45.8437,-24.3391,1014.86
24710,-0.167384,9.71784,1.35342,2.17,-3.29,-0.49,24.1287,-46.5531,-25.5212,1014.85
24716,-0.167384,9.70349,1.36298,1.82,-3.08,-0.56,24.303,-45.0727,-25.0927,1014.85
24722,-0.172166,9.74653,1.31516,1.68,-2.66,0.07,23.7509,-44.6718,-23.6741,1014.84
24728,-0.210426,9.73697,1.34385,2.1,-3.36,0.7,24.0124,-46.4914,-23.6298,1014.84
24734,-0.176949,9.71784,1.29125,2.03,-3.22,-0.28,23.4022,-44.3943,-24.2652,1014.84
24740,-0.162602,9.74175,1.2769,2.1,-3.08,0,24.1868,-43.7775,-25.1961,1014.79
24746,-0.162602,9.7561,1.23864,1.75,-2.73,0.56,23.7509,-45.8437,-24.2652,1014.79
24752,-0.114778,9.74653,1.26734,1.75,-3.36,0.28,24.1577,-46.2138,-25.1813,1014.82
24758,-0.133907,9.74175,1.26255,2.1,-3.22,-0.21,24.2739,-45.2269,-24.0879,1014.82
24764,-0.0813008,9.73697,1.26255,1.54,-3.08,0,23.9834,-45.5662,-24.6789,1014.82
24770,-0.0526064,9.78001,1.29125,1.96,-3.08,0,24.0415,-47.0465,-23.9844,1014.82
24776,-0.0813008,9.78479,1.2769,1.75,-2.52,0.21,23.7219,-44.641,-24.7085,1014.84
24782,-0.10043,9.77523,1.31994,1.82,-3.15,-0.56,23.809,-44.6718,-25.2847,1014.84
24788,-0.133907,9.76566,1.28168,1.82,-2.59,-0.77,24.1287,-47.2624,-25.0631,1014.84
24794,-0.153037,9.78479,1.3056,1.54,-2.8,-0.21,23.6056,-45.1961,-25.8462,1014.81
24800,-0.13869,9.70349,1.32472,1.54,-3.08,-0.42,23.5766,-45.1653,-25.4768,1014.81
24806,-0.162602,9.73218,1.36777,2.03,-3.43,-0.77,24.3321,-45.7512,-24.7823,1014.85
24812,-0.143472,9.74175,1.33429,1.82,-2.73,-0.28,24.1868,-46.4297,-24.6346,1014.85
24818,-0.196078,9.72262,1.2769,1.96,-2.73,0.14,23.8962,-44.5176,-24.8562,1014.84
24824,-0.186514,9.73218,1.33429,1.61,-3.22,0,24.3321,-45.5045,-24.3982,1014.84
24830,-0.13869,9.74175,1.26255,1.89,-2.94,0.21,24.0415,-46.7689,-24.4868,1014.82
24836,-0.153037,9.76566,1.21473,1.82,-3.64,0.14,23.5475,-45.1344,-25.2847,1014.82
24842,-0.176949,9.71305,1.37733,1.82,-3.15,0.49,23.78,-45.1036,-24.3982,1014.85
24848,-0.224773,9.79436,1.32472,1.68,-3.64,0.63,23.5475,-46.3063,-24.4129,1014.85
24854,-0.0621712,9.74175,1.22908,1.68,-3.29,0.07,23.6347,-45.4428,-25.994,1014.85
24860,-0.095648,9.82783,1.20038,1.12,-3.5,0.07,23.4313,-43.5308,-24.9892,1014.85
24866,-0.0813008,9.74175,1.25299,1.47,-2.52,0.42,23.8962,-45.2578,-24.1617,1014.85
24872,-0.109995,9.76088,1.26734,1.26,-2.45,0.14,24.7388,-46.5839,-25.4621,1014.86
24878,-0.0382592,9.77044,1.33429,1.4,-2.73,0.21,23.8671,-43.5924,-25.1813,1014.86
24884,-0.0669536,9.74175,1.33907,1.19,-2.17,-0.14,24.3611,-45.7204,-25.4325,1014.83
24890,-0.0813008,9.7561,1.29603,1.89,-2.66,-0.35,24.0996,-46.2447,-24.1765,1014.83
24896,-0.129125,9.78479,1.33429,1.33,-2.59,-0.56,24.4773,-44.1784,-24.2947,1014.84
24902,-0.157819,9.71784,1.35342,1.96,-2.66,-0.21,23.4603,-44.6718,-24.9153,1014.84
24908,-0.129125,9.70827,1.33429,2.1,-3.15,-0.56,24.1577,-45.9363,-24.8858,1014.84
24914,-0.153037,9.7561,1.2769,2.1,-2.38,-0.07,23.4894,-45.7821,-24.2208,1014.83
24920,-0.129125,9.73218,1.3056,1.89,-2.59,-0.42,24.0705,-43.9008,-24.4277,1014.83
24926,-0.148254,9.73218,1.3056,1.89,-3.29,-0.28,23.4603,-45.8129,-24.2652,1014.81
24932,-0.133907,9.74175,1.35342,2.03,-3.29,0.21,23.809,-45.3195,-24.5903,1014.81
24938,-0.114778,9.7561,1.29603,2.31,-2.87,-0.21,23.6637,-45.1344,-24.9006,1014.85
24944,-0.143472,9.8087,1.24821,2.03,-3.01,0,23.6637,-45.1961,-25.0779,1014.85
24950,-0.148254,9.73697,1.29603,1.82,-3.22,0.21,23.5475,-45.9671,-24.6789,1014.84
24956,-0.133907,9.73697,1.31038,1.89,-2.87,0.21,24.0705,-43.7775,-24.1322,1014.84
24962,-0.105213,9.78479,1.28647,1.54,-2.8,0.28,23.0536,-43.9317,-25.5507,1014.84
24968,-0.109995,9.8087,1.26255,1.26,-2.94,0.07,23.78,-45.6279,-23.9844,1014.84
24974,-0.129125,9.78957,1.24342,1.12,-2.94,0.07,23.6347,-44.4251,-23.4672,1014.84
24980,-0.114778,9.73697,1.29603,1.54,-3.01,0.42,24.5354,-43.9625,-24.9153,1014.82
24986,-0.133907,9.7561,1.3056,1.33,-3.15,0.35,23.5185,-45.9979,-24.8562,1014.82
24992,-0.071736,9.74653,1.30081,1.47,-2.03,-0.21,24.0705,-45.0419,-23.3786,1014.81
24998,-0.095648,9.78479,1.28168,1.26,-2.8,-0.07,23.6928,-44.3018,-25.2256,1014.81
25004,-0.105213,9.76088,1.33907,1.61,-2.94,-0.14,23.4313,-44.7335,-23.7332,1014.83
25010,-0.071736,9.78001,1.3056,1.47,-2.45,-0.56,23.8381,-45.2886,-24.4129,1014.83
25016,-0.0860832,9.75131,1.33907,1.61,-2.66,-0.35,23.257,-45.3811,-24.1913,1014.81
25022,-0.167384,9.72262,1.3056,1.54,-2.94,-0.07,23.6928,-43.6233,-25.1518,1014.81
25028,-0.176949,9.76088,1.32951,1.68,-3.15,0.21,23.4022,-45.9363,-24.8119,1014.81
25034,-0.133907,9.71784,1.37255,1.89,-3.15,17.29,23.1698,-44.9185,-24.6937,1014.82
25040,-0.13869,9.7274,1.34385,2.03,-3.08,0,23.4022,-44.6101,-25.3586,1014.82
25046,-0.129125,9.74175,1.31516,1.89,-3.22,-0.21,24.1287,-45.0727,-25.3734,1014.86
25052,-0.148254,9.77523,1.2769,1.75,-3.08,-0.35,23.9253,-46.183,-23.5264,1014.86
25058,-0.176949,9.78479,1.31994,2.45,-3.01,-0.07,24.4192,-43.5924,-24.5311,1014.81
25064,-0.13869,9.77523,1.28168,1.33,-2.8,0.07,23.7509,-44.6718,-24.0583,1014.81
25070,-0.157819,9.78001,1.28647,2.1,-3.15,-0.42,23.9543,-45.8129,-23.7923,1014.79
25076,-0.148254,9.76566,1.29603,1.61,-3.22,-0.07,24.0705,-44.3634,-24.8415,1014.79
25082,-0.114778,9.74653,1.28647,1.89,-3.01,0.21,23.6637,-43.87,-24.3538,1014.79
25088,-0.124342,9.75131,1.2769,1.61,-3.01,0,23.9834,-45.8746,-24.9744,1014.81
25094,-0.114778,9.8087,1.29125,1.33,-3.01,-0.35,23.4894,-44.055,-23.7332,1014.81
25100,-0.0430416,9.78479,1.2769,1.68,-2.73,-0.21,23.4894,-43.9008,-25.3291,1014.83
25106,-0.0669536,9.78957,1.28168,1.61,-2.73,-0.56,23.1698,-45.0727,-25.2995,1014.83
25112,-0.0813008,9.76566,1.31516,1.54,-2.8,-0.49,23.8381,-44.826,-24.8119,1014.82
25118,-0.114778,9.78957,1.3056,1.47,-2.8,-0.98,23.257,-43.9317,-24.8415,1014.82
25124,-0.11956,9.74653,1.30081,1.4,-2.52,-0.14,24.0705,-45.3811,-25.0335,1014.81
25130,-0.157819,9.69871,1.36298,1.89,-2.45,-0.77,23.9253,-45.7512,-23.3343,1014.81
25136,-0.11956,9.74175,1.34864,1.54,-2.87,-1.12,24.0415,-44.641,-25.1961,1014.84
25142,-0.124342,9.76088,1.26734,1.61,-2.8,-0.63,23.3151,-44.7952,-24.2504,1014.84
25148,-0.224773,9.74175,1.3056,1.47,-3.29,-0.07,23.2279,-45.8129,-23.7332,1014.84
25154,-0.172166,9.68914,1.36298,1.96,-3.08,-0.42,23.5185,-45.5045,-24.3834,1014.85
25160,-0.191296,9.75131,1.33907,1.47,-2.66,0.07,23.7509,-44.1167,-24.9449,1014.85
25166,-0.157819,9.74175,1.32472,1.96,-2.8,-0.21,24.303,-45.5353,-23.9696,1014.81
25172,-0.172166,9.78001,1.28168,1.82,-2.8,17.71,24.0124,-45.8437,-23.7184,1014.81
25178,-0.200861,9.73218,1.32472,2.17,-2.73,0.21,22.9954,-43.4074,-25.2847,1014.8
25184,-0.143472,9.73697,1.3056,1.75,-2.8,-0.21,24.0415,-44.826,-24.4425,1014.8
25190,-0.157819,9.74175,1.29603,1.96,-3.08,0.35,24.4192,-45.4737,-23.9844,1014.83
25196,-0.143472,9.76566,1.30081,1.26,-3.22,0.35,23.6928,-44.1476,-25.1074,1014.83
25202,-0.109995,9.79914,1.27212,1.61,-3.01,-0.35,23.1698,-44.3634,-24.9597,1014.83
25208,-0.071736,9.78001,1.26734,1.26,-2.94,-0.21,24.2739,-45.8129,-24.2208,1014.83
25214,-0.11956,9.73697,1.31516,1.61,-3.08,0,23.8381,-44.7335,-24.6789,1014.83
25220,-0.143472,9.78957,1.3056,1.12,-2.8,0.07,23.286,-43.5924,-25.4177,1014.81
25226,-0.153037,9.73218,1.37255,1.54,-2.66,-0.07,24.5064,-45.5353,-24.5903,1014.81
25232,-0.124342,9.71784,1.33907,1.54,-3.01,-0.35,24.4483,-45.2578,-24.9301,1014.85
25238,-0.153037,9.69871,1.36777,1.96,-2.87,-0.28,23.6347,-44.2401,-25.2552,1014.85
25244,-0.143472,9.71784,1.36777,2.1,-2.87,-0.42,23.5185,-44.9802,-24.1026,1014.82
25250,-0.176949,9.74175,1.31038,1.89,-2.66,-0.28,24.3321,-46.4297,-24.0879,1014.82
25256,-0.13869,9.72262,1.32951,2.1,-2.87,0.14,23.78,-44.8877,-24.6346,1014.82
25262,-0.162602,9.74175,1.32951,1.96,-2.8,0.07,24.1868,-44.3634,-24.6641,1014.81
25268,-0.186514,9.73697,1.31038,1.75,-2.59,0.28,23.7509,-45.7821,-23.5116,1014.81
25274,-0.157819,9.74175,1.32951,2.1,-2.8,-0.07,23.809,-44.3326,-24.1617,1014.82
25280,-0.167384,9.74653,1.30081,1.61,-3.01,0.07,23.3732,-44.2709,-25.1074,1014.82
25286,-0.172166,9.74175,1.24821,1.82,-3.85,0,23.9543,-45.1344,-23.3343,1014.87
25292,-0.143472,9.74175,1.30081,1.68,-3.29,0.42,23.9253,-45.5045,-24.8562,1014.87
25298,-0.153037,9.7561,1.26255,1.47,-2.73,0.21,24.4773,-44.0242,-25.6394,1014.84
25304,-0.0813008,9.7561,1.24342,1.26,-2.87,-0.28,24.1868,-46.1521,-23.7628,1014.84
25310,-0.109995,9.76566,1.3056,1.19,-3.15,0,24.2158,-45.7821,-23.4377,1014.83
25316,-0.13869,9.7561,1.28647,1.26,-3.15,-0.21,24.1287,-44.9185,-24.5607,1014.83
25322,-0.13869,9.73218,1.38211,1.4,-3.08,0.21,24.303,-44.7952,-26.2009,1014.83
25328,-0.10043,9.77523,1.35342,1.54,-2.66,0.14,23.809,-45.6587,-24.0879,1014.82
25334,-0.0669536,9.75131,1.33429,1.47,-2.45,-0.14,24.6517,-44.5176,-24.3538,1014.82
25340,-0.11956,9.7561,1.34385,1.68,-3.01,-0.21,24.2739,-44.0242,-25.2995,1014.87
25346,-0.143472,9.7561,1.32951,2.24,-2.8,0.21,24.5064,-45.6279,-24.4868,1014.87
25352,-0.133907,9.7561,1.28168,1.68,-2.52,-0.28,24.1287,-45.2578,-23.881,1014.83
25358,-0.162602,9.74175,1.31516,2.1,-3.08,-0.42,24.0124,-44.055,-24.5755,1014.83
25364,-0.13869,9.78479,1.28168,2.1,-3.08,0.07,24.5064,-45.5662,-24.2208,1014.84
25370,-0.148254,9.76088,1.32472,2.03,-3.08,0.14,24.6807,-46.2447,-23.3343,1014.84
25376,-0.162602,9.77044,1.31038,1.89,-3.43,-0.07,24.0996,-45.1653,-24.1617,1014.84
25382,-0.176949,9.72262,1.2769,1.75,-2.8,0,23.8381,-44.7335,-23.0978,1014.85
25388,-0.191296,9.72262,1.33429,1.54,-3.43,0,24.0996,-46.1213,-23.9549,1014.85
25394,-0.176949,9.68914,1.3582,1.54,-2.94,0.84,24.826,-44.9185,-24.4573,1014.82
25400,-0.133907,9.81827,1.26255,1.68,-3.36,0.7,23.6347,-44.4251,-24.7971,1014.82
25406,-0.0382592,9.76566,1.28168,1.54,-2.94,-0.21,24.1577,-45.9979,-23.3195,1014.82
25412,-0.10043,9.84218,1.27212,1.26,-3.43,-0.14,24.1577,-46.0905,-23.482,1014.82
25418,-0.129125,9.72262,1.3869,1.54,-2.31,0.28,23.4022,-44.4559,-24.9892,1014.83
25424,-0.0908656,9.7561,1.32472,1.75,-2.8,-0.21,24.2449,-44.8877,-24.2799,1014.83
25430,-0.109995,9.78001,1.34385,1.19,-3.22,-0.42,24.2449,-45.6587,-23.6593,1014.83
25436,-0.124342,9.8087,1.31038,1.68,-2.45,-0.42,23.6347,-43.9934,-23.3934,1014.82
25442,-0.13869,9.77523,1.34385,2.17,-2.59,-0.42,23.3732,-44.4251,-23.4081,1014.82
25448,-0.148254,9.76088,1.33429,1.75,-2.52,0.14,24.826,-46.2447,-23.4229,1014.83
25454,-0.162602,9.73218,1.31516,1.82,-2.73,-0.49,24.0996,-44.7643,-23.0683,1014.83
25460,-0.157819,9.74175,1.33907,2.17,-3.29,-0.21,23.9253,-44.3018,-23.2013,1014.8
25466,-0.186514,9.73697,1.34864,2.03,-3.01,-0.14,24.0705,-45.7204,-23.5116,1014.8
25472,-0.196078,9.73218,1.3582,1.47,-2.59,0.28,24.2449,-45.3811,-24.605,1014.83
25478,-0.172166,9.74653,1.26734,2.1,-2.87,0.07,23.8381,-44.0859,-24.9006,1014.83
25484,-0.162602,9.73218,1.31516,1.68,-3.36,0,23.9253,-45.2886,-24.3834,1014.84
25490,-0.186514,9.72262,1.32472,1.96,-3.5,0.21,24.1577,-45.6279,-23.9992,1014.84
25496,-0.143472,9.71305,1.29603,1.96,-2.87,0.91,23.6347,-45.3811,-24.4868,1014.84
25502,-0.124342,9.70827,1.36298,1.96,-3.43,0.49,23.3441,-44.2401,-24.147,1014.81
25508,-0.124342,9.70827,1.29603,2.03,-3.29,0.42,24.1868,-46.5531,-23.9253,1014.81
25514,-0.0334768,9.78479,1.22908,1.61,-3.15,0.28,24.2449,-45.2578,-25.2256,1014.85
25520,-0.10043,9.78001,1.29603,1.89,-3.01,0.14,23.6347,-44.5176,-24.4868,1014.85
25526,-0.133907,9.76088,1.28647,1.68,-2.94,0.21,23.8962,-45.5353,-24.2356,1014.85
25532,-0.0669536,9.79436,1.32951,1.68,-3.08,-0.21,24.2449,-45.597,-24.472,1014.85
25538,-0.10043,9.74175,1.32472,1.33,-3.01,0.35,24.4483,-44.5485,-23.9844,1014.83
25544,-0.143472,9.75131,1.32472,1.96,-2.73,-0.56,23.5766,-45.0727,-22.6841,1014.83
25550,-0.148254,9.76088,1.31516,1.68,-3.15,-0.42,24.303,-46.4914,-23.6593,1014.83
25556,-0.167384,9.72262,1.31516,1.68,-2.94,-0.07,24.9713,-45.0419,-24.5755,1014.81
25562,-0.167384,9.7274,1.3582,1.82,-3.22,0.21,23.6347,-45.0727,-25.3586,1014.81
25568,-0.124342,9.73697,1.34864,1.96,-2.8,0,23.5185,-46.5531,-24.8119,1014.82
25574,-0.133907,9.71305,1.33429,1.54,-2.87,0.07,23.8381,-45.3195,-24.014,1014.82
25580,-0.162602,9.76088,1.25777,1.61,-3.22,0.14,23.3732,-44.641,-23.6298,1014.83
25586,-0.124342,9.7561,1.29603,1.89,-2.73,0.42,23.5185,-45.7821,-23.9844,1014.83
25592,-0.095648,9.73697,1.30081,1.75,-3.29,0.77,23.7219,-45.9054,-24.014,1014.8
25598,-0.153037,9.7561,1.31994,1.96,-3.08,0.42,24.0415,-44.5176,-25.6837,1014.8
25604,-0.133907,9.7561,1.28168,1.61,-3.08,0.42,24.0124,-45.7821,-25.2552,1014.8
25610,-0.157819,9.75131,1.28168,1.89,-3.01,0.42,24.3902,-46.0288,-22.8614,1014.82
25616,-0.0621712,9.72262,1.30081,1.61,-3.08,0.07,23.257,-44.9802,-23.6298,1014.82
25622,-0.0860832,9.74653,1.40603,2.03,-3.36,0.28,23.6347,-45.1961,-24.1026,1014.84
25628,-0.047824,9.70827,1.34385,2.1,-2.94,0.14,23.6347,-46.9848,-23.3343,1014.84
25634,-0.0860832,9.89957,1.25777,1.96,-2.8,-0.35,23.5185,-44.3326,-24.9006,1014.84
25640,-0.047824,9.74653,1.33429,2.24,-2.66,-0.56,22.9954,-45.1344,-24.2947,1014.84
25646,-0.114778,9.88044,1.26255,1.47,-2.66,-0.56,23.9253,-46.4914,-24.2208,1014.83
25652,-0.0813008,9.70827,1.36298,1.96,-3.01,-0.28,23.1988,-45.4737,-25.3439,1014.83
25658,-0.229555,9.74175,1.32951,1.75,-2.94,-0.28,22.5596,-44.4868,-24.6641,1014.84
25664,-0.133907,9.72262,1.29125,2.1,-3.5,-0.49,23.9834,-45.1344,-24.7971,1014.84
25670,-0.186514,9.73697,1.33429,1.33,-2.87,-0.56,24.0415,-46.4605,-23.3786,1014.84
25676,-0.148254,9.73218,1.31994,1.61,-3.5,-0.63,23.7509,-43.9934,-22.8614,1014.83
25682,-0.200861,9.74653,1.28647,1.75,-3.22,-0.21,23.8381,-44.4559,-23.9549,1014.83
25688,-0.191296,9.69871,1.28647,1.75,-3.15,0.28,23.4894,-45.9671,-23.0683,1014.82
25694,-0.157819,9.73218,1.30081,1.47,-2.73,0.35,23.6637,-45.0727,-23.6446,1014.82
25700,-0.162602,9.7274,1.3056,1.68,-3.71,0.14,23.4603,-43.9625,-24.5903,1014.86
25706,-0.133907,9.70349,1.3056,1.96,-3.15,0.35,24.0415,-46.2447,-23.216,1014.86
25712,-0.176949,9.76088,1.32951,1.75,-3.01,0.77,23.7509,-45.8129,-23.1126,1014.82
25718,-0.124342,9.76566,1.26734,1.89,-3.01,0.49,23.7219,-43.0682,-24.2356,1014.82
25724,-0.114778,9.7561,1.29125,1.12,-3.29,0.42,23.5185,-44.3634,-24.6494,1014.82
25730,-0.0765184,9.71305,1.28647,1.54,-3.08,0.28,23.8381,-45.597,-23.4377,1014.83
25736,-0.095648,9.7561,1.3582,1.54,-3.43,0.35,23.4313,-44.0242,-23.5411,1014.83
25742,-0.0813008,9.74653,1.3056,2.03,-3.01,-0.14,23.3441,-44.3018,-24.0583,1014.82
25748,-0.105213,9.74653,1.29125,1.96,-2.8,0,24.1577,-46.3063,-23.349,1014.82
25754,-0.0813008,9.79436,1.34864,2.03,-2.8,0.28,23.3441,-45.0111,-24.4868,1014.85
25760,-0.0621712,9.78479,1.3056,2.1,-2.94,-0.49,23.6056,-44.641,-23.6889,1014.85
25766,-0.11956,9.74653,1.32951,1.75,-2.66,-0.28,24.3321,-46.183,-23.3786,1014.84
25772,-0.13869,9.79914,1.29603,1.68,-3.01,0.28,24.0705,-46.0596,-23.3638,1014.84
25778,-0.176949,9.73218,1.31994,2.1,-2.66,-0.35,23.7509,-43.9317,-23.7628,1014.84
25784,-0.153037,9.73218,1.32951,2.03,-3.29,-0.42,23.4603,-44.7952,-22.891,1014.81
25790,-0.13869,9.7561,1.32951,1.96,-2.8,-17.43,24.0996,-45.5045,-23.8662,1014.81
25796,-0.129125,9.74653,1.31038,2.03,-2.94,-0.35,23.8381,-44.6101,-25.6098,1014.86
25802,-0.148254,9.73697,1.31994,1.75,-3.08,0.42,23.4022,-45.0727,-25.2256,1014.86
25808,-0.157819,9.78001,1.28168,1.61,-3.15,0.21,23.6928,-46.0905,-23.8514,1014.86
25814,-0.124342,9.73697,1.31516,1.54,-3.08,0.28,23.6056,-45.4428,-24.6494,1014.86
25820,-0.0908656,9.77044,1.31994,1.75,-3.22,0.14,23.1117,-44.5176,-24.9892,1014.82
25826,-0.11956,9.72262,1.32951,2.1,-2.94,0.49,23.8671,-46.7998,-23.7184,1014.82
25832,-0.11956,9.76088,1.30081,1.75,-2.52,0,24.0415,-46.1521,-24.0879,1014.84
25838,-0.0860832,9.76088,1.31516,1.68,-2.8,0.42,24.0996,-43.7158,-25.1665,1014.84
25844,-0.0860832,9.73697,1.32472,1.75,-3.29,-0.14,24.0124,-44.9802,-24.5459,1014.84
25850,-0.047824,9.76088,1.35342,1.96,-2.8,-0.07,24.797,-45.2886,-24.2947,1014.83
25856,-0.109995,9.76566,1.33907,1.89,-2.87,-0.14,23.9834,-43.8392,-25.5655,1014.83
25862,-0.105213,9.76566,1.3056,1.68,-2.87,-0.77,23.4894,-44.5793,-24.9006,1014.8
25868,-0.0860832,9.76566,1.28647,1.4,-2.94,-0.35,23.9834,-45.6587,-23.3638,1014.8
25874,-0.0813008,9.76566,1.31994,2.1,-2.94,-0.35,23.9543,-44.6101,-24.6789,1014.79
25880,-0.162602,9.77044,1.36777,1.75,-2.87,-0.63,23.4313,-44.8569,-25.4916,1014.79
25886,-0.157819,9.74653,1.32472,2.24,-2.52,-0.42,24.0124,-45.5045,-23.6298,1014.83
25892,-0.13869,9.77523,1.29603,1.61,-2.66,0,24.1287,-45.2269,-24.3243,1014.83
25898,-0.143472,9.71784,1.30081,1.75,-2.66,-0.14,23.8962,-43.7158,-23.1865,1014.83
25904,-0.157819,9.72262,1.33907,1.82,-3.01,0.07,23.3151,-44.9802,-24.4277,1014.82
25910,-0.13869,9.75131,1.32951,1.47,-3.01,0.07,24.2158,-46.0596,-24.6198,1014.82
25916,-0.157819,9.74175,1.27212,1.89,-3.08,0,23.3732,-44.2092,-25.8315,1014.83
25922,-0.148254,9.74175,1.29603,2.38,-3.08,0,23.6347,-44.3943,-24.4573,1014.83
25928,-0.167384,9.75131,1.3056,1.47,-2.94,-0.28,24.5354,-46.368,-23.6741,1014.84
25934,-0.148254,9.76088,1.2769,1.61,-2.8,0.28,23.8671,-44.641,-24.147,1014.84
25940,-0.105213,9.7274,1.32472,1.75,-3.71,0.14,23.6637,-44.7027,-25.1222,1014.82
25946,-0.105213,9.74175,1.29603,1.47,-3.71,0.28,24.5354,-45.597,-23.6446,1014.82
25952,-0.095648,9.77523,1.31516,1.82,-2.94,0.35,23.9834,-45.6279,-24.3686,1014.79
25958,-0.0526064,9.78001,1.33907,1.75,-2.73,-0.21,23.9834,-44.5485,-23.8662,1014.79
25964,-0.0430416,9.78957,1.29125,1.47,-2.66,0.35,23.2279,-45.3811,-25.6542,1014.79
25970,-0.0908656,9.83261,1.31994,1.68,-3.22,-0.21,24.0415,-45.7204,-23.6741,1014.85
25976,-0.13869,9.76566,1.31994,1.82,-3.08,-0.49,23.5766,-43.7158,-24.738,1014.85
25982,-0.148254,9.73697,1.35342,1.61,-2.52,-0.28,23.4894,-44.0242,-24.1617,1014.82
25988,-0.11956,9.74175,1.38211,1.75,-3.36,-0.07,24.2739,-45.5353,-23.615,1014.82
25994,-0.124342,9.74175,1.32951,1.96,-3.5,-0.35,23.6637,-44.5176,-23.6889,1014.85
26000,-0.143472,9.77044,1.32951,1.89,-2.87,-0.07,23.6928,-43.87,-25.0779,1014.85
26006,-0.162602,9.77044,1.32472,2.24,-3.22,-0.63,23.78,-45.9671,-23.7628,1014.82
26012,-0.181731,9.7274,1.33429,1.61,-3.01,-0.07,23.4313,-45.8129,-24.5016,1014.82
26018,-0.148254,9.7274,1.31516,2.03,-3.5,-0.21,23.3151,-44.055,-24.3243,1014.82
26024,-0.157819,9.74175,1.31516,1.61,-2.87,0.21,24.0415,-46.183,-24.7971,1014.86
26030,-0.176949,9.77523,1.28168,2.17,-2.87,0.21,23.9543,-45.7512,-24.3243,1014.86
26036,-0.133907,9.73218,1.3056,1.68,-2.87,0.49,23.6056,-44.055,-25.2109,1014.86
26042,-0.143472,9.73697,1.29125,1.96,-3.08,0.35,23.4022,-45.0111,-24.2061,1014.86
26048,-0.157819,9.73697,1.32951,1.82,-3.22,0.77,24.0705,-46.0905,-23.482,1014.85
26054,-0.124342,9.76566,1.30081,1.82,-3.64,-0.35,22.8502,-44.5176,-23.4968,1014.85
26060,-0.0908656,9.77523,1.2769,1.89,-3.78,-0.07,23.0245,-44.2709,-23.7332,1014.82
26066,-0.105213,9.76566,1.3056,1.68,-3.08,-0.28,23.3151,-46.0905,-23.9401,1014.82
26072,-0.105213,9.77523,1.31516,1.75,-3.36,0,23.6928,-45.7821,-23.9253,1014.82
26078,-0.0382592,9.77044,1.31038,1.82,-3.08,-0.14,23.6928,-44.1784,-24.9597,1014.84
26084,-0.0908656,9.78479,1.31994,1.61,-2.66,-0.84,24.1577,-45.3811,-24.147,1014.84
26090,-0.124342,9.79436,1.29603,1.61,-2.87,-0.49,24.1577,-45.5662,-23.881,1014.82
26096,-0.167384,9.7561,1.31994,1.75,-2.8,-0.14,23.809,-44.4868,-24.738,1014.82
26102,-0.157819,9.73697,1.39168,1.75,-2.94,-0.35,23.2279,-44.5485,-24.4129,1014.85
26108,-0.157819,9.71784,1.38211,1.96,-3.01,-0.7,23.6347,-46.0288,-24.3982,1014.85
26114,-0.148254,9.74175,1.34864,1.89,-3.08,-0.35,23.1407,-45.0111,-25.0631,1014.85
26120,-0.157819,9.7274,1.34864,2.38,-3.29,-0.07,24.1577,-44.3018,-24.7528,1014.85
26126,-0.205643,9.70349,1.34864,2.03,-3.15,0.21,24.303,-46.0905,-23.9401,1014.83
26132,-0.148254,9.7561,1.31038,2.31,-3.57,-0.42,23.8381,-44.9802,-24.9301,1014.83
26138,-0.153037,9.72262,1.3056,2.17,-2.94,0.21,24.4483,-43.87,-24.1617,1014.83
26144,-0.153037,9.72262,1.3056,2.31,-2.94,0.21,23.78,-45.4428,-24.3686,1014.83
26150,-0.143472,9.73218,1.32951,2.03,-2.66,0.49,23.5766,-46.0905,-23.9105,1014.83
26156,-0.148254,9.71784,1.30081,1.68,-3.22,0.28,22.7339,-44.1476,-23.7776,1014.83
26162,-0.114778,9.71305,1.32951,2.1,-3.57,0.14,22.763,-44.5793,-24.4277,1014.83
26168,-0.13869,9.76566,1.28647,2.17,-3.08,0.77,23.0826,-45.9363,-23.1274,1014.83
26174,-0.0860832,9.78479,1.28168,1.47,-3.08,0.56,23.257,-44.6101,-24.8267,1014.83
26180,-0.105213,9.81349,1.3056,1.4,-2.87,0.14,23.3441,-44.4559,-24.6641,1014.83
26186,-0.0526064,9.79436,1.31994,1.96,-2.94,0.21,24.0124,-46.0596,-24.4573,1014.83
26192,-0.109995,9.77523,1.33429,1.61,-2.94,0,24.2158,-46.1521,-24.5903,1014.83
26198,-0.095648,9.8087,1.31994,1.54,-2.38,-0.49,23.2279,-43.87,-24.0879,1014.82
26204,-0.114778,9.75131,1.33907,1.4,-2.59,-0.56,23.6928,-45.3811,-25.4177,1014.82
26210,-0.148254,9.73697,1.31516,1.47,-2.8,-0.28,23.9253,-46.2447,-24.3686,1014.84
26216,-0.167384,9.74175,1.3582,1.61,-3.01,0.21,23.3732,-44.1476,-24.6641,1014.84
26222,-0.13869,9.72262,1.37255,2.03,-3.01,0.21,23.0536,-44.8877,-24.9301,1014.83
26228,-0.133907,9.7274,1.40603,2.24,-3.29,-0.63,23.5185,-45.8746,-23.3786,1014.83
26234,-0.148254,9.72262,1.37733,1.89,-2.94,0.42,23.1407,-44.7335,-25.1518,1014.82
26240,-0.114778,9.73218,1.36298,2.59,-3.15,0.7,23.5766,-43.685,-24.9744,1014.82
26246,-0.153037,9.73697,1.36298,2.31,-3.29,0.14,23.1988,-45.0111,-23.2013,1014.82
26252,-0.11956,9.72262,1.30081,2.52,-3.22,0.14,24.2158,-45.3503,-23.8514,1014.8
26258,-0.0908656,9.76088,1.32472,2.17,-3.22,0.21,23.9253,-43.4691,-24.6346,1014.8
26264,-0.11956,9.76088,1.28647,2.59,-3.57,0.21,24.2739,-45.0419,-23.2899,1014.84
26270,-0.10043,9.77523,1.32472,2.03,-3.01,0.42,24.2739,-45.1653,-24.3834,1014.84
26276,-0.10043,9.7561,1.31516,2.45,-2.8,0.07,23.6347,-43.6541,-23.6298,1014.83
26282,-0.0334768,9.81349,1.26734,1.89,-3.01,-0.49,23.4603,-44.4251,-23.216,1014.83
26288,-0.047824,9.79914,1.26734,1.47,-2.8,-0.28,24.5064,-46.3989,-24.2504,1014.85
26294,-0.153037,9.78001,1.29125,1.68,-3.15,-0.42,23.6928,-44.4251,-23.9401,1014.85
26300,-0.13869,9.7561,1.32472,1.54,-2.94,-0.28,23.257,-44.2401,-23.1865,1014.79
26306,-0.0813008,9.76566,1.37255,2.03,-2.73,-0.7,24.0996,-46.0905,-24.5607,1014.79
26312,-0.124342,9.77044,1.34385,2.03,-2.94,-0.49,23.9834,-45.3811,-23.8514,1014.79
26318,-0.162602,9.74653,1.34385,2.31,-2.73,-0.56,24.4192,-43.9317,-23.8219,1014.85
26324,-0.186514,9.73697,1.34385,1.82,-2.73,-0.7,24.5354,-44.5793,-24.9744,1014.85
26330,-0.129125,9.71305,1.39168,2.24,-3.22,-0.28,24.3611,-46.0288,-24.147,1014.84
26336,-0.129125,9.7274,1.32472,2.1,-2.94,0.21,24.5645,-44.055,-24.8562,1014.84
26342,-0.124342,9.73697,1.30081,2.17,-3.5,-0.21,23.3151,-44.3943,-23.9549,1014.82
26348,-0.143472,9.70349,1.32951,2.1,-3.36,0.21,23.1117,-46.7381,-24.3095,1014.82
26354,-0.153037,9.73218,1.31516,2.45,-2.73,0.35,23.3151,-45.0419,-23.9549,1014.8
26360,-0.157819,9.73218,1.28168,2.1,-3.08,0.07,23.3732,-44.7952,-24.3391,1014.8
26366,-0.148254,9.76088,1.28647,2.45,-3.5,0.21,24.3611,-46.3063,-25.0631,1014.8
26372,-0.129125,9.77044,1.27212,1.96,-2.87,0.14,23.8381,-45.0419,-24.1174,1014.83
26378,-0.0908656,9.76566,1.28168,1.75,-3.15,0.35,24.0415,-43.8083,-23.8514,1014.83
26384,-0.129125,9.75131,1.27212,1.82,-3.5,0,23.7509,-46.183,-24.5311,1014.81
26390,-0.10043,9.78001,1.2769,2.03,-3.01,0.21,23.7509,-45.9363,-24.6494,1014.81
26396,-0.0382592,9.78957,1.29603,1.82,-2.59,0,23.3151,-44.6101,-23.881,1014.81
26402,-0.0669536,9.78479,1.31038,1.68,-2.8,-0.07,23.7219,-44.8877,-24.2356,1014.81
26408,-0.109995,9.80392,1.32472,1.68,-3.01,-0.35,23.8381,-46.7689,-24.7232,1014.82
26414,-0.109995,9.78001,1.31994,1.4,-2.59,-0.35,22.5886,-44.7952,-24.5016,1014.82
26420,-0.124342,9.73697,1.36298,1.96,-3.15,-0.49,22.8792,-43.7775,-25.3439,1014.82
26426,-0.109995,9.71784,1.39168,1.96,-3.08,-0.49,23.1698,-45.7512,-24.6937,1014.8
26432,-0.143472,9.73697,1.35342,2.1,-3.15,-0.42,24.0415,-44.7952,-24.4573,1014.8
26438,-0.172166,9.77044,1.37733,2.24,-3.08,-0.28,23.5185,-43.87,-24.9744,1014.87
26444,-0.181731,9.73218,1.36298,2.31,-2.52,-0.28,23.6347,-45.5662,-23.7923,1014.87
26450,-0.172166,9.7274,1.34864,1.96,-3.08,-0.14,23.5475,-45.3811,-24.0288,1014.81
26456,-0.148254,9.7561,1.33429,2.03,-3.01,0.07,23.3732,-43.5924,-24.8267,1014.81
26462,-0.153037,9.75131,1.31038,2.1,-2.52,-0.42,22.8792,-44.6101,-23.5855,1014.82
26468,-0.148254,9.76088,1.32951,1.96,-3.57,0.56,23.6637,-46.183,-23.0831,1014.82
26474,-0.143472,9.70827,1.31038,1.82,-3.43,0.91,23.8962,-44.3634,-24.4573,1014.85
26480,-0.129125,9.72262,1.30081,2.1,-3.5,0.42,23.6637,-44.1167,-24.8267,1014.85
26486,-0.129125,9.74653,1.3056,2.03,-3.36,0.56,24.1577,-45.3811,-24.0288,1014.85
26492,-0.105213,9.77523,1.26255,2.17,-3.64,0,23.4603,-45.5662,-23.6889,1014.84
26498,-0.0908656,9.78001,1.3056,1.54,-3.36,0.14,23.1117,-44.2401,-24.2652,1014.84
26504,-0.10043,9.76088,1.29603,1.96,-3.57,0.42,23.5475,-45.5662,-24.7823,1014.86
26510,-0.11956,9.76088,1.35342,1.82,-3.01,-0.14,24.0124,-46.183,-23.3786,1014.86
26516,-0.047824,9.74653,1.3582,1.33,-2.94,-0.21,23.5185,-44.7335,-25.3586,1014.83
26522,-0.11956,9.76566,1.34864,1.47,-3.08,-0.14,23.1698,-45.8129,-24.4868,1014.83
26528,-0.109995,9.77044,1.34864,1.54,-2.8,-0.28,23.4022,-46.0596,-24.5164,1014.83
26534,-0.105213,9.7561,1.32951,1.75,-2.66,-0.35,22.9954,-45.2886,-24.5755,1014.83
26540,-0.13869,9.73218,1.34385,1.26,-2.31,0,23.1407,-44.5793,-23.7037,1014.83
26546,-0.0908656,9.73218,1.33907,2.03,-3.01,-0.35,23.0245,-45.9363,-23.4081,1014.83
26552,-0.11956,9.73218,1.3582,2.1,-2.45,0.14,22.6468,-45.5662,-24.4129,1014.83
26558,-0.167384,9.70827,1.32951,2.24,-3.01,-0.07,23.0826,-44.055,-23.0683,1014.82
26564,-0.162602,9.7561,1.30081,2.1,-3.22,-0.28,23.6056,-45.1344,-24.2652,1014.82
26570,-0.148254,9.78957,1.31516,1.75,-3.36,0,23.4894,-45.6587,-23.9992,1014.84
26576,-0.11956,9.72262,1.32472,2.03,-3.15,0.21,23.809,-43.9317,-23.5707,1014.84
26582,-0.105213,9.7561,1.31038,1.96,-3.08,0,23.3732,-44.9494,-25.0631,1014.82
26588,-0.133907,9.77044,1.32472,2.1,-2.8,0.42,23.9543,-45.9054,-23.3786,1014.82
26594,-0.0908656,9.7561,1.31038,1.54,-3.43,0.35,23.6056,-44.6718,-24.2356,1014.82
26600,-0.0908656,9.76088,1.31994,1.96,-3.29,0,23.5766,-44.5793,-23.7776,1014.81
26606,-0.0908656,9.7561,1.34385,1.82,-2.66,0.28,23.7509,-45.9979,-24.7232,1014.81
26612,-0.0908656,9.76566,1.33429,1.75,-2.73,0.07,23.4603,-45.0419,-23.4081,1014.85
26618,-0.0382592,9.78001,1.34385,1.96,-2.87,0,23.8962,-44.1167,-23.615,1014.85
26624,0.0191296,9.77044,1.31516,1.89,-2.66,-0.35,23.3441,-45.8129,-23.8219,1014.85
26630,-0.114778,9.8087,1.30081,1.75,-2.8,-0.7,23.6928,-45.5353,-24.5459,1014.85
26636,-0.148254,9.77044,1.34864,1.61,-3.01,-0.28,23.3441,-43.4999,-25.0631,1014.82
26642,-0.167384,9.73218,1.33429,1.54,-2.87,-0.49,23.4022,-43.8392,-24.2208,1014.82
26648,-0.11956,9.72262,1.36777,1.61,-3.01,-0.35,23.4894,-45.5353,-23.6593,1014.84
26654,-0.153037,9.77523,1.3869,2.17,-3.29,-0.14,23.6928,-45.412,-25.9792,1014.84
26660,-0.162602,9.75131,1.31038,2.1,-3.15,-0.84,23.6928,-44.4868,-25.4473,1014.84
26666,-0.200861,9.74653,1.31038,1.89,-3.15,0.07,23.257,-45.2578,-25.2847,1014.83
26672,-0.133907,9.74653,1.36777,2.03,-3.22,0.49,23.286,-44.9185,-24.2504,1014.83
26678,-0.153037,9.74175,1.29125,2.38,-3.01,0,23.3732,-44.055,-24.6198,1014.81
26684,-0.143472,9.73697,1.3056,1.96,-3.29,0.63,23.1117,-45.7821,-24.5755,1014.81
26690,-0.13869,9.71784,1.32472,1.96,-2.87,-0.14,22.9954,-45.8437,-25.0927,1014.84
26696,-0.148254,9.72262,1.32951,1.75,-3.15,0.07,23.9834,-44.3943,-24.6346,1014.84
26702,-0.105213,9.74175,1.31516,1.89,-3.43,0.42,22.9664,-44.9185,-24.7528,1014.85
26708,-0.114778,9.7561,1.31516,1.89,-3.29,0,23.78,-46.6764,-24.3834,1014.85
26714,-0.0908656,9.78001,1.29125,1.61,-3.08,0.07,23.9543,-45.9054,-24.8858,1014.85
26720,-0.0765184,9.77523,1.32472,1.47,-2.94,0.21,23.3151,-44.2092,-24.605,1014.84
26726,-0.0908656,9.77044,1.33907,1.89,-3.22,0.28,23.809,-46.3063,-24.4573,1014.84
26732,-0.047824,9.77523,1.3582,1.4,-2.73,-0.42,23.257,-45.8129,-24.4425,1014.83
26738,-0.0526064,9.78479,1.3869,2.17,-2.87,-0.77,23.809,-45.0111,-24.7232,1014.83
26744,-0.11956,9.78957,1.3056,1.96,-2.8,-0.07,23.3441,-45.8746,-24.2208,1014.84
26750,-0.11956,9.78479,1.29125,2.31,-2.8,-0.14,23.6928,-46.3063,-24.5607,1014.84
26756,-0.11956,9.73697,1.34385,1.75,-3.15,-0.49,23.3441,-44.7643,-26.659,1014.86
26762,-0.181731,9.75131,1.31994,1.96,-3.22,-0.35,23.3441,-45.1344,-24.4129,1014.86
26768,-0.143472,9.7561,1.31994,1.61,-2.94,-0.7,23.809,-46.3372,-24.3243,1014.82
26774,-0.109995,9.76566,1.34385,1.68,-3.43,-0.63,22.8211,-44.826,-25.3291,1014.82
26780,-0.095648,9.76566,1.33907,2.1,-2.8,-0.56,23.5475,-44.2401,-24.5903,1014.82
26786,-0.148254,9.84218,1.18604,1.33,-3.5,-0.77,24.303,-46.6147,-24.7232,1014.84
26792,-0.10043,9.69871,1.32951,0.98,-2.66,-0.07,23.9253,-45.4737,-24.3982,1014.84
26798,-0.277379,9.78479,1.4395,2.17,-3.15,-0.28,23.4894,-44.1476,-24.2356,1014.83
26804,-0.095648,9.64132,1.34385,2.03,-2.94,-0.14,23.6637,-45.7204,-23.9992,1014.83
26810,-0.167384,9.84218,1.22429,2.03,-3.08,0.21,23.8381,-45.8746,-23.8071,1014.83
26816,-0.143472,9.73218,1.28647,1.82,-3.15,0.14,23.7509,-44.7952,-23.7037,1014.83
26822,-0.11956,9.71784,1.3582,2.24,-2.94,0.7,23.7219,-45.3503,-24.0288,1014.8
26828,-0.162602,9.76088,1.32472,1.68,-3.22,0.21,23.9543,-46.3989,-24.147,1014.8
26834,-0.114778,9.77523,1.29603,1.96,-2.8,-0.07,23.286,-45.1653,-25.5212,1014.8
26840,-0.0813008,9.76088,1.31038,1.68,-3.22,0,23.4313,-44.641,-25.004,1014.82
26846,-0.0382592,9.81349,1.27212,1.47,-3.5,0.07,24.0705,-46.3372,-23.2456,1014.82
26852,-0.095648,9.82305,1.26255,1.61,-3.08,-0.14,22.8792,-44.826,-23.7332,1014.8
26858,-0.10043,9.78479,1.32472,1.61,-2.66,-0.63,23.7509,-45.5353,-26.26,1014.8
26864,-0.0669536,9.77523,1.33429,1.12,-2.66,-1.19,23.6928,-45.1961,-24.3834,1014.86
26870,-0.129125,9.78957,1.31516,1.61,-2.87,-0.98,23.3441,-46.4914,-23.8662,1014.86
26876,-0.0621712,9.78001,1.34385,1.47,-3.64,-1.05,23.1117,-44.7335,-24.1913,1014.86
26882,-0.186514,9.79436,1.31516,1.19,-2.87,-0.56,23.0536,-45.2886,-24.3095,1014.86
26888,-0.13869,9.72262,1.34864,1.68,-3.08,-0.84,24.0705,-45.9054,-24.0879,1014.86
26894,-0.186514,9.76566,1.30081,1.89,-3.71,-0.98,23.9253,-44.826,-23.349,1014.84
26900,-0.105213,9.7274,1.44428,1.82,-3.22,-1.05,23.4022,-44.5176,-25.1222,1014.84
26906,-0.21999,9.7274,1.3869,2.1,-2.94,-0.56,24.0705,-46.3063,-25.27,1014.82
26912,-0.162602,9.70827,1.31994,1.96,-3.22,-0.63,23.5766,-45.3811,-24.4129,1014.82
26918,-0.196078,9.75131,1.26734,1.89,-3.43,-0.56,23.6056,-43.9008,-25.0779,1014.82
26924,-0.162602,9.78001,1.31516,1.96,-3.01,-0.35,24.303,-44.9494,-25.403,1014.82
26930,-0.162602,9.76088,1.29125,1.75,-2.73,0.07,23.8671,-44.7952,-24.738,1014.81
26936,-0.105213,9.73218,1.25299,1.82,-3.22,-0.28,23.3151,-44.055,-24.9153,1014.81
26942,-0.11956,9.74653,1.3056,1.61,-2.94,-0.56,23.3441,-45.0111,-24.0583,1014.82
26948,-0.10043,9.75131,1.28647,1.33,-3.08,-0.07,23.809,-45.7512,-25.9054,1014.82
26954,-0.0813008,9.78001,1.29603,1.4,-3.15,-0.42,23.8962,-44.2401,-24.7823,1014.82
26960,-0.0430416,9.78001,1.29603,1.89,-3.01,-0.49,24.2158,-45.2269,-25.5803,1014.84
26966,-0.0765184,9.79436,1.31038,1.75,-3.22,-0.84,23.9253,-46.1213,-24.0583,1014.84
26972,-0.143472,9.77523,1.30081,1.61,-3.01,-1.47,23.7219,-46.368,-25.0779,1014.84
26978,-0.162602,9.73697,1.33429,1.75,-3.22,-0.84,23.3441,-44.1476,-25.3882,1014.84
26984,-0.143472,9.72262,1.33907,1.54,-3.29,-0.28,23.3732,-45.5662,-24.147,1014.84
26990,-0.129125,9.73697,1.34864,1.96,-3.5,-0.77,23.809,-45.7512,-24.871,1014.84
26996,-0.143472,9.77523,1.28647,1.89,-2.8,-0.98,23.4894,-44.4251,-24.9449,1014.8
27002,-0.23912,9.73697,1.34385,1.82,-2.94,-0.28,23.8381,-44.9802,-23.8958,1014.8
27008,-0.243902,9.62697,1.34385,1.68,-2.8,0.28,24.8551,-45.7512,-25.2404,1014.8
27014,-0.248685,9.75131,1.31038,1.89,-3.36,-0.35,24.1577,-44.826,-25.4473,1014.83
27020,-0.172166,9.70349,1.31994,2.17,-3.01,0.35,23.9834,-44.9802,-24.8562,1014.83
27026,-0.176949,9.76088,1.29125,1.89,-3.22,17.71,23.9253,-45.9054,-24.147,1014.85
27032,-0.167384,9.73218,1.31994,1.75,-2.8,0.28,23.7219,-45.412,-24.4129,1014.85
27038,-0.172166,9.71784,1.28647,1.96,-3.22,0.35,23.3732,-45.1036,-25.403,1014.85
27044,-0.133907,9.74653,1.28647,1.75,-3.43,0.49,23.3441,-45.6587,-24.3538,1014.85
27050,-0.124342,9.7561,1.27212,1.96,-3.22,0.77,24.0415,-46.6764,-25.137,1014.82
27056,-0.109995,9.76088,1.32951,1.96,-3.15,0.14,23.5475,-44.5793,-24.1026,1014.82
27062,-0.0908656,9.75131,1.30081,1.61,-3.43,0.35,22.9083,-44.7952,-23.7923,1014.82
27068,-0.0813008,9.77523,1.29125,1.61,-2.8,-0.07,23.5766,-45.6895,-24.5164,1014.85
27074,-0.0813008,9.78479,1.31038,1.47,-2.8,0.14,23.3732,-44.4868,-24.6198,1014.85
27080,-0.095648,9.78001,1.29125,1.54,-2.94,0.21,23.5185,-44.9494,-23.7923,1014.85
27086,-0.129125,9.78479,1.33907,1.68,-3.22,-0.42,23.6928,-46.0905,-24.6641,1014.85
27092,-0.172166,9.76566,1.34385,1.61,-2.94,-0.63,23.1407,-46.5531,-25.2404,1014.84
27098,-0.181731,9.74653,1.35342,1.75,-2.8,-0.14,23.1117,-44.1167,-24.2061,1014.84
27104,-0.153037,9.74175,1.34385,1.96,-2.59,-0.35,22.8792,-45.7512,-23.7184,1014.81
27110,-0.162602,9.74653,1.33907,2.1,-3.08,0.14,23.3732,-46.0905,-25.1961,1014.81
27116,-0.133907,9.74175,1.36777,2.03,-3.22,0.21,23.6928,-44.5793,-23.1865,1014.82
27122,-0.176949,9.72262,1.32472,1.82,-2.94,-0.07,23.6928,-45.4737,-24.4868,1014.82
27128,-0.148254,9.75131,1.33429,1.96,-3.01,-0.07,23.5475,-46.7073,-24.9301,1014.82
27134,-0.172166,9.76088,1.32951,1.82,-3.36,0.42,22.9373,-44.2401,-23.4968,1014.82
27140,-0.114778,9.74175,1.30081,2.38,-3.15,0.28,22.7049,-44.3018,-24.5755,1014.82
27146,-0.133907,9.7274,1.36777,2.1,-2.8,-0.07,23.4894,-45.5045,-22.9648,1014.82
27152,-0.129125,9.75131,1.35342,1.82,-2.73,0.35,24.2739,-45.3811,-24.5016,1014.82
27158,-0.114778,9.72262,1.36298,2.66,-3.36,0.49,23.1988,-43.9317,-25.137,1014.83
27164,-0.11956,9.77523,1.3056,2.52,-2.87,0.42,23.5475,-45.4428,-24.4277,1014.83
27170,-0.0669536,9.78479,1.25299,1.82,-3.15,-0.21,24.4483,-46.0288,-24.6641,1014.81
27176,-0.0573888,9.81349,1.28647,2.17,-3.01,-0.14,23.1988,-44.7335,-23.5855,1014.81
27182,-0.105213,9.77523,1.29603,1.47,-2.59,0.21,23.2279,-44.3943,-24.6789,1014.81
27188,-0.133907,9.79436,1.3056,2.03,-2.8,-0.07,24.0415,-46.368,-22.5216,1014.83
27194,-0.133907,9.77523,1.29603,1.61,-2.87,-0.35,23.6347,-44.5793,-24.4425,1014.83
27200,-0.114778,9.76566,1.33907,1.47,-3.08,0,23.4022,-44.1784,-25.004,1014.83
27206,-0.133907,9.77044,1.32951,1.54,-2.31,-0.14,23.5766,-45.5045,-24.3686,1014.83
27212,-0.148254,9.77523,1.29603,1.75,-2.66,-0.14,24.0705,-45.0419,-23.7923,1014.82
27218,-0.181731,9.76088,1.33429,1.68,-2.87,-0.21,23.4603,-44.6718,-24.147,1014.82
27224,-0.162602,9.7274,1.32951,1.26,-3.29,0.14,23.3732,-45.5045,-23.8958,1014.85
27230,-0.162602,9.70349,1.31516,1.54,-3.08,0.49,23.809,-45.8746,-24.5164,1014.85
27236,-0.157819,9.73218,1.3056,1.89,-3.15,0.35,23.1698,-44.0859,-24.6789,1014.85
27242,-0.176949,9.70827,1.32472,2.03,-2.8,0.21,23.809,-45.1036,-23.9696,1014.81
27248,-0.162602,9.71784,1.34864,1.75,-2.94,0.77,23.1698,-46.0905,-23.881,1014.81
27254,-0.176949,9.73218,1.31994,1.89,-2.87,0.7,23.2279,-44.826,-23.9696,1014.83
27260,-0.162602,9.73697,1.3056,1.89,-3.15,0.77,23.257,-44.7643,-24.9006,1014.83
27266,-0.210426,9.71784,1.26734,1.4,-3.36,1.12,23.1117,-47.1082,-23.5559,1014.8
27272,-0.0860832,9.7561,1.29603,1.47,-2.8,0.84,22.9954,-44.9802,-23.216,1014.8
27278,-0.0765184,9.79436,1.30081,1.75,-3.57,0.7,22.9373,-44.1476,-24.6494,1014.81
27284,-0.0908656,9.77523,1.29603,1.4,-2.8,0.42,23.286,-45.2578,-23.9105,1014.81
27290,-0.10043,9.77044,1.3056,1.47,-2.73,0.63,23.4894,-45.7204,-23.8071,1014.83
27296,-0.095648,9.74653,1.34385,1.54,-2.94,0.56,22.792,-44.5485,-24.9449,1014.83
27302,-0.0908656,9.74653,1.32951,1.75,-3.29,0.35,23.1988,-45.3195,-23.4229,1014.83
27308,-0.0813008,9.81827,1.25777,1.54,-2.8,0.35,23.4313,-46.6764,-22.8614,1014.8
27314,-0.172166,9.78479,1.3056,1.68,-2.8,0.07,23.286,-44.7335,-23.482,1014.8
27320,-0.124342,9.73218,1.37255,1.54,-2.87,0.14,23.1407,-44.3018,-24.014,1014.82
27326,-0.153037,9.73697,1.37255,1.75,-3.01,0.35,23.3732,-46.1213,-23.0683,1014.82
27332,-0.13869,9.73697,1.35342,1.75,-3.36,0.63,23.3732,-44.9802,-24.9006,1014.81
27338,-0.109995,9.72262,1.29603,1.96,-2.87,0.42,23.8962,-44.6718,-25.403,1014.81
27344,-0.172166,9.71305,1.31994,1.61,-3.15,0.56,23.7509,-46.2447,-24.4573,1014.87
27350,-0.143472,9.67001,1.3582,1.61,-3.36,0.35,24.1577,-46.2138,-23.7923,1014.87
27356,-0.133907,9.68914,1.3582,2.17,-3.64,0.98,22.9664,-44.5176,-23.4525,1014.87
27362,-0.129125,9.7274,1.32951,1.96,-3.29,0.63,23.5185,-44.9802,-24.2799,1014.82
27368,-0.0908656,9.75131,1.31038,1.68,-3.15,0.56,22.792,-46.5222,-24.5903,1014.82
27374,-0.133907,9.74175,1.33907,1.96,-3.22,0.98,22.8502,-45.2269,-23.2308,1014.84
27380,-0.124342,9.76566,1.34385,1.47,-3.36,1.12,23.0536,-44.7952,-25.6985,1014.84
27386,-0.10043,9.76566,1.28168,1.89,-2.87,0.49,23.8671,-46.0288,-23.2604,1014.83
27392,-0.0765184,9.78957,1.30081,1.4,-2.94,0.77,23.5185,-44.7952,-23.7184,1014.83
27398,-0.0860832,9.78001,1.28168,1.68,-3.36,0.28,23.0536,-43.9317,-24.4868,1014.82
27404,-0.047824,9.81349,1.26734,1.54,-3.15,0,23.8671,-45.4428,-23.9844,1014.82
27410,-0.0526064,9.74175,1.32472,1.61,-2.8,0.14,23.78,-45.8437,-23.2013,1014.82
27416,-0.129125,9.74175,1.3869,1.68,-3.01,0.35,23.9253,-44.5176,-25.27,1014.8
27422,-0.0813008,9.73218,1.3056,1.82,-2.94,0.21,23.4022,-45.1036,-24.1026,1014.8
27428,-0.10043,9.73218,1.33907,1.75,-2.73,-0.07,23.9253,-45.9054,-24.3243,1014.87
27434,-0.162602,9.75131,1.31994,1.75,-2.45,-0.28,23.5185,-44.3326,-24.0879,1014.87
27440,-0.148254,9.73218,1.31994,1.82,-2.8,0.42,22.8792,-44.3943,-24.9006,1014.86
27446,-0.162602,9.73697,1.35342,1.68,-3.15,0.56,23.9253,-46.5222,-24.5903,1014.86
27452,-0.124342,9.74653,1.33907,2.03,-3.15,0.35,23.1698,-45.2578,-24.1026,1014.81
27458,-0.124342,9.71305,1.33429,2.1,-2.66,-0.07,23.4894,-43.3457,-24.5311,1014.81
27464,-0.157819,9.70349,1.34864,2.24,-2.59,0.63,23.9253,-45.2886,-24.0879,1014.85
27470,-0.157819,9.72262,1.32951,2.17,-3.22,0.56,24.4192,-45.2269,-23.5116,1014.85
27476,-0.167384,9.7274,1.33429,2.17,-3.29,0.56,23.7509,-43.099,-25.2552,1014.85
27482,-0.167384,9.78479,1.29603,2.31,-3.43,0.84,23.3732,-45.3195,-23.9105,1014.81
27488,-0.10043,9.75131,1.24342,1.82,-3.15,0.84,23.6637,-45.3503,-24.2652,1014.81
27494,-0.10043,9.76566,1.24342,2.03,-3.22,0.7,23.286,-45.0111,-23.8071,1014.84
27500,-0.0286944,9.80392,1.26255,1.89,-3.29,0.84,23.0826,-44.2401,-24.5755,1014.84
27506,-0.105213,9.7561,1.34385,1.47,-3.5,0.49,23.4894,-45.9671,-23.9253,1014.83
27512,-0.047824,9.76566,1.26734,1.54,-2.94,0.35,23.78,-44.9185,-23.5264,1014.83
27518,-0.0669536,9.7561,1.32951,1.61,-3.29,0,23.1988,-44.4251,-24.3391,1014.85
27524,-0.023912,9.79914,1.31994,1.47,-3.15,0.56,23.9253,-45.7204,-24.2799,1014.85
27530,-0.0621712,9.78957,1.32472,1.75,-2.52,0.28,23.4022,-45.597,-23.9253,1014.85
27536,-0.071736,9.7274,1.32951,1.54,-2.8,-0.07,23.8381,-44.2092,-23.2604,1014.81
27542,-0.148254,9.8087,1.32472,1.12,-2.8,0.28,23.8381,-45.4737,-24.1026,1014.81
27548,-0.023912,9.68436,1.36298,2.03,-3.01,0.42,23.8962,-46.0288,-23.8071,1014.85
27554,-0.129125,9.70349,1.33429,1.89,-3.36,0.14,23.1407,-44.7643,-23.4672,1014.85
27560,-0.133907,9.66045,1.39168,2.38,-3.36,0.42,23.0826,-44.1476,-24.1617,1014.83
27566,-0.13869,9.70827,1.33907,1.89,-3.36,0.07,23.78,-45.7512,-23.7184,1014.83
27572,-0.148254,9.71305,1.33429,2.38,-3.29,0.7,23.9253,-44.5793,-24.0879,1014.85
27578,-0.11956,9.75131,1.3056,2.38,-3.08,0.14,23.0245,-44.4868,-24.1765,1014.85
27584,-0.124342,9.76566,1.3056,2.45,-2.59,0.77,23.8962,-45.5353,-23.9992,1014.81
27590,-0.13869,10.9852,1.2769,2.17,-3.01,1.26,23.3732,-45.2269,-23.2456,1014.81
27596,-0.0908656,9.74653,1.28647,2.03,-3.5,0.84,22.8792,-44.3943,-24.8119,1014.81
27602,-0.105213,9.76566,1.29603,2.17,-2.73,0.77,23.6347,-44.7952,-24.9006,1014.85
27608,-0.129125,9.7561,1.28647,1.89,-2.73,1.33,23.6056,-45.8129,-24.738,1014.85
27614,-0.071736,9.73697,1.31994,1.54,-3.08,0.63,23.9253,-44.9185,-24.3686,1014.81
27620,-0.0382592,9.80392,1.25777,1.96,-2.87,0.7,23.4022,-43.9934,-24.1617,1014.81
27626,-0.071736,9.77523,1.31038,1.89,-3.08,0.56,23.2279,-45.7821,-23.8514,1014.85
