Timestamp,AccX,AccY,AccZ,AngularVelX,AngularVelY,AngularVelZ,MagX,MagY,MagZ,AirPressure
95792,0.463893,4.46198,8.72788,-0.07,-0.63,-0.21,0.744983,7.53908,-43.5798,1014.54
95798,0.511717,4.47633,8.69919,-0.07,-0.21,-0.21,1.11739,7.79953,-44.076,1014.54
95804,0.473458,4.43328,8.72788,0.21,-0.7,-0.84,1.4898,7.94422,-44.317,1014.54
95810,0.492587,4.41416,8.71832,0,0.07,-0.63,1.40385,7.10499,-44.6856,1014.54
95816,0.487805,4.44285,8.72788,-0.07,0.14,0,1.34656,7.4812,-45.1676,1014.54
95822,0.454328,4.43807,8.7231,0.14,0.42,-0.21,2.14867,7.82847,-43.8066,1014.54
95828,0.47824,4.44763,8.71832,0.07,-0.14,-0.49,1.08874,7.91528,-44.9124,1014.54
95834,0.492587,4.4572,8.7231,0.28,-0.49,-0.14,1.0028,7.77059,-44.6714,1014.55
95840,0.473458,4.46676,8.69919,0.49,-0.49,-0.35,0.573104,7.82847,-43.438,1014.55
95846,0.49737,4.42372,8.70397,0.14,-0.14,-0.35,1.17468,7.62589,-44.2886,1014.55
95852,0.492587,4.46198,8.70875,0.21,0.42,-0.56,1.20333,7.74165,-44.4162,1014.55
95858,0.49737,4.46198,8.74223,0.35,-0.07,-0.35,1.20333,7.01818,-44.8132,1014.57
95864,0.45911,4.42372,8.70397,0.07,0.21,-0.56,1.03145,7.71271,-44.4446,1014.57
95870,0.483022,4.41894,8.70397,0.07,-0.35,-0.49,1.83355,7.53908,-43.7641,1014.52
95876,0.483022,4.43328,8.70875,-0.07,-0.14,-0.21,1.26062,7.79953,-43.9909,1014.52
95882,0.47824,4.4572,8.71832,0.07,-0.42,-0.35,1.11739,7.39438,-44.9124,1014.51
95888,0.483022,4.43807,8.70397,0,-0.7,-0.49,1.20333,7.71271,-45.3803,1014.51
95894,0.47824,4.46198,8.70875,-0.35,-0.35,-0.21,1.51844,7.56802,-43.9484,1014.59
95900,0.483022,4.4285,8.7231,0,-0.28,-0.49,0.945509,7.4812,-44.8415,1014.59
95906,0.492587,4.45241,8.7231,-0.14,-0.07,0.14,0.830924,7.97316,-44.1185,1014.59
95912,0.468675,4.44763,8.69919,-0.28,0,-0.49,1.23198,7.94422,-44.0476,1014.56
95918,0.483022,4.44285,8.70875,-0.14,0.35,-0.21,0.888217,7.77059,-43.8491,1014.56
95924,0.439981,4.4572,8.71832,-0.21,0.42,-0.42,1.26062,7.62589,-44.1469,1014.55
95930,0.492587,4.4285,8.68484,-0.49,0.28,-0.56,2.37784,8.23361,-44.3595,1014.55
95936,0.473458,4.47154,8.7231,-0.7,-0.35,-0.35,2.60701,8.08892,-43.6507,1014.54
95942,0.487805,4.42372,8.72788,-0.07,-0.35,-0.14,1.63303,8.58088,-43.594,1014.54
95948,0.468675,4.41894,8.72788,-0.42,-0.21,-0.7,0.515811,7.88635,-43.9909,1014.54
95954,0.473458,4.44763,8.74223,0.21,-0.49,-0.14,1.54709,7.94422,-43.3388,1014.54
95960,0.473458,4.44285,8.68962,0.07,-0.28,-0.21,1.0028,7.74165,-44.3312,1014.54
95966,0.506934,4.4572,8.73744,0.14,-0.07,-0.21,1.31792,7.88635,-44.3737,1014.54
95972,0.492587,4.43807,8.71353,0,-0.14,-0.14,1.91949,7.22075,-43.9767,1014.52
95978,0.487805,4.40937,8.70875,0.42,-0.49,-0.35,1.57574,8.05998,-44.4588,1014.52
95984,0.483022,4.41416,8.69919,0.14,-0.42,-0.28,0.515811,7.85741,-43.6365,1014.52
95990,0.487805,4.40459,8.69919,0,0.14,-0.35,1.37521,7.77059,-43.8208,1014.52
95996,0.483022,4.43328,8.71832,-0.21,-0.35,-0.49,1.54709,7.94422,-44.1894,1014.52
96002,0.535629,4.39503,8.71832,0.14,-0.28,-0.56,1.80491,8.03104,-44.0902,1014.56
96008,0.511717,4.44763,8.70397,0.42,-0.63,-0.56,0.544457,7.91528,-43.8208,1014.56
96014,0.487805,4.41894,8.75657,0,-0.14,-0.7,1.89085,7.68377,-43.7074,1014.54
96020,0.444763,4.44285,8.71353,0.07,-0.28,-0.63,1.89085,8.1468,-44.8699,1014.54
96026,0.449546,4.45241,8.74223,0.21,-0.07,-0.42,1.23198,8.6677,-43.3388,1014.57
96032,0.47824,4.4285,8.70875,0.21,0,-0.49,1.14604,7.53908,-44.2886,1014.57
96038,0.473458,4.4285,8.70397,0.56,0.14,-0.35,1.8622,7.94422,-43.7641,1014.55
96044,0.483022,4.44763,8.71832,0.21,-0.35,-0.14,0.945509,7.42332,-43.4238,1014.55
96050,0.47824,4.43807,8.69919,0.21,-0.14,-0.35,1.0601,7.74165,-43.7783,1014.56
96056,0.502152,4.46198,8.70397,0.14,-0.07,-0.35,1.4898,7.94422,-43.3246,1014.56
96062,0.483022,4.41416,8.75179,0.35,-0.28,-0.21,1.63303,7.04712,-44.2461,1014.56
96068,0.463893,4.4285,8.71832,0.21,-0.49,-0.35,1.4325,7.91528,-43.6648,1014.52
96074,0.47824,4.43328,8.73744,0.21,-0.42,-0.35,1.74761,7.82847,-43.8633,1014.52
96080,0.463893,4.43328,8.73266,0.28,-0.49,-0.28,1.66167,8.05998,-44.8699,1014.51
96086,0.47824,4.45241,8.69919,0.28,-0.56,-0.35,0.85957,8.29149,-44.1185,1014.51
96092,0.45911,4.43807,8.74223,0.56,-0.49,-0.56,1.23198,7.65483,-43.1545,1014.53
96098,0.49737,4.4285,8.71832,0.14,-0.49,-0.28,1.66167,7.51014,-44.714,1014.53
96104,0.483022,4.39503,8.72788,0.07,-0.07,-0.28,1.74761,7.88635,-43.0269,1014.54
96110,0.502152,4.39024,8.7231,0.49,-0.07,-0.07,1.31792,7.74165,-44.3595,1014.54
96116,0.473458,4.40937,8.71353,0.56,0.21,-0.56,1.0028,7.30757,-43.9626,1014.55
96122,0.473458,4.42372,8.71353,0.28,-0.14,-0.14,1.66167,7.88635,-43.6081,1014.55
96128,0.45911,4.40459,8.70875,0.56,-0.21,-0.7,1.20333,7.36544,-43.3955,1014.53
96134,0.483022,4.41894,8.6944,0.28,-0.84,-0.63,1.23198,7.68377,-44.1469,1014.53
96140,0.502152,4.41894,8.72788,0.42,-0.07,-0.35,0.458518,7.88635,-44.7707,1014.53
96146,0.468675,4.44285,8.69919,0,-0.28,-0.84,0.659044,7.59696,-44.3879,1014.53
96152,0.45911,4.41894,8.7231,0.14,0.21,-0.49,0.85957,7.74165,-44.1043,1014.53
96158,0.487805,4.47154,8.72788,0.42,-0.35,-0.14,1.4325,7.42332,-44.6289,1014.53
96164,0.473458,4.39503,8.74701,-0.49,-0.21,-0.77,0.916864,7.56802,-44.2178,1014.53
96170,0.468675,4.43328,8.68484,-0.28,-0.28,-0.28,1.89085,7.33651,-44.7707,1014.48
96176,0.468675,4.41416,8.73266,0.21,-0.07,-0.14,2.32055,8.05998,-44.3312,1014.48
96182,0.473458,4.4285,8.7231,0.14,-0.21,-0.56,1.4325,8.32043,-43.7499,1014.53
96188,0.502152,4.42372,8.72788,0,-0.28,-0.28,1.63303,7.77059,-44.1185,1014.53
96194,0.506934,4.43807,8.71832,-0.28,-0.42,-0.14,2.37784,7.24969,-44.9833,1014.55
96200,0.492587,4.43807,8.71353,0.77,-0.35,-0.28,2.12002,7.62589,-45.1109,1014.55
96206,0.492587,4.40937,8.73744,0.28,-0.63,-0.28,1.57574,6.98924,-44.4729,1014.56
96212,0.463893,4.41416,8.73744,-0.49,-0.21,-0.21,1.71897,7.39438,-43.7357,1014.56
96218,0.487805,4.4285,8.68962,0.28,-0.21,-0.28,1.0601,6.84454,-44.2036,1014.56
96224,0.511717,4.41894,8.73266,0.21,0,-0.56,1.46115,6.75773,-43.8775,1014.56
96230,0.502152,4.39981,8.73266,-0.21,0,-0.28,1.11739,7.22075,-43.835,1014.56
96236,0.49737,4.3759,8.75179,0.42,-0.14,-0.56,1.69032,7.71271,-44.1043,1014.55
96242,0.492587,4.38068,8.72788,0.14,0,-0.63,1.89085,7.56802,-43.8208,1014.55
96248,0.511717,4.42372,8.73266,0.28,-0.28,0.07,1.37521,8.05998,-44.714,1014.52
96254,0.468675,4.43807,8.72788,0.21,-0.07,-0.49,1.57574,8.03104,-44.5864,1014.52
96260,0.439981,4.43807,8.72788,0.21,-0.49,-0.42,1.80491,7.59696,-44.7281,1014.54
96266,0.492587,4.41416,8.71353,0.42,-0.42,-0.49,2.20596,7.4812,-44.6005,1014.54
96272,0.473458,4.4572,8.70397,0.28,-0.35,-0.28,1.60438,7.65483,-44.6572,1014.49
96278,0.487805,4.42372,8.7231,0.28,-0.14,-0.14,1.66167,7.27863,-44.5013,1014.49
96284,0.483022,4.41894,8.73744,0.07,-0.7,-0.21,0.143405,6.81561,-44.6005,1014.57
96290,0.45911,4.41894,8.7231,0.28,-0.49,-0.42,1.17468,7.74165,-43.4664,1014.57
96296,0.492587,4.41416,8.7231,-0.07,-0.07,-0.14,1.51844,8.29149,-43.8491,1014.57
96302,0.49737,4.4285,8.70875,-0.21,-0.28,-0.63,1.4325,7.97316,-44.714,1014.57
96308,0.468675,4.41894,8.7231,0,0.28,-0.07,1.03145,7.51014,-44.4162,1014.59
96314,0.483022,4.41894,8.72788,0,-0.35,-0.14,0.830924,7.94422,-44.3028,1014.59
96320,0.468675,4.41894,8.72788,0.21,-0.77,-0.35,1.28927,7.74165,-45.2527,1014.59
96326,0.468675,4.42372,8.73744,0.42,-0.77,-0.42,0.830924,7.74165,-43.3671,1014.57
96332,0.530846,4.4285,8.73266,0.21,-0.21,-0.28,0.945509,8.0021,-44.4304,1014.57
96338,0.502152,4.40937,8.71832,0.49,0.07,-0.7,1.20333,8.26255,-44.4588,1014.53
96344,0.47824,4.44285,8.70875,0.42,0.07,-0.21,1.08874,7.59696,-44.3879,1014.53
96350,0.502152,4.45241,8.71353,0.49,-0.14,-0.21,1.63303,8.03104,-44.1327,1014.52
96356,0.492587,4.40937,8.69919,0.35,-0.42,-0.07,1.69032,7.4812,-44.1752,1014.52
96362,0.47824,4.42372,8.73744,0.14,-0.42,-0.35,1.4325,7.97316,-44.0334,1014.56
96368,0.487805,4.42372,8.7231,0.21,-0.14,-0.21,1.26062,7.82847,-45.3803,1014.56
96374,0.47824,4.42372,8.73266,0.14,0.21,-0.7,1.4325,7.91528,-45.7064,1014.56
96380,0.492587,4.40459,8.7231,0.35,0,-0.28,1.60438,8.72557,-44.4021,1014.56
96386,0.449546,4.43807,8.7231,0.07,0.28,-0.42,1.40385,8.23361,-45.4937,1014.53
96392,0.492587,4.40937,8.73266,0.21,-0.35,-0.49,1.31792,8.1468,-45.1109,1014.53
96398,0.492587,4.41894,8.7231,0.35,-0.28,-0.21,2.03408,8.34937,-45.3236,1014.53
96404,0.483022,4.4285,8.7231,0.07,-0.07,-0.35,1.14604,7.91528,-44.799,1014.53
96410,0.492587,4.41894,8.71832,0.28,-0.21,-0.28,1.28927,8.37831,-45.1676,1014.53
96416,0.483022,4.41416,8.73744,0.63,-0.35,-0.56,1.89085,7.22075,-44.5296,1014.52
96422,0.463893,4.39503,8.7231,0.14,-0.35,-0.21,1.20333,8.1468,-45.5929,1014.52
96428,0.492587,4.40459,8.72788,0.42,-0.63,-0.42,1.69032,7.82847,-44.6005,1014.56
96434,0.492587,4.44285,8.73744,0.07,-0.98,-0.63,1.37521,7.39438,-43.7924,1014.56
96440,0.506934,4.41416,8.73266,0.35,-0.56,-0.56,1.89085,7.59696,-44.4588,1014.54
96446,0.511717,4.40937,8.72788,0.42,0.21,-0.07,1.46115,7.16287,-44.9975,1014.54
96452,0.492587,4.4285,8.72788,0.42,0.14,-0.63,1.31792,7.65483,-44.2745,1014.55
96458,0.492587,4.41416,8.72788,0.28,0,-0.49,1.17468,7.88635,-43.8066,1014.55
96464,0.487805,4.44285,8.73266,0.49,-0.49,-0.63,1.4898,7.68377,-44.8132,1014.52
96470,0.483022,4.42372,8.73266,0.21,-0.28,-0.63,1.83355,6.90242,-44.6856,1014.52
96476,0.468675,4.39024,8.72788,0.28,-0.42,-0.49,1.51844,8.17573,-45.6496,1014.52
96482,0.468675,4.40937,8.74223,0.35,-0.21,-0.28,1.4898,8.03104,-46.4436,1014.53
96488,0.47824,4.44763,8.73266,0.28,-0.14,-0.42,1.69032,7.62589,-44.0902,1014.53
96494,0.47824,4.42372,8.73266,0.91,0.14,-0.21,0.000171967,7.13393,-45.8765,1014.54
96500,0.492587,4.43807,8.73744,17.85,-0.63,-0.28,2.2919,8.11786,-45.0258,1014.54
96506,0.502152,4.40459,8.70875,-0.14,-0.07,-0.63,1.14604,7.59696,-44.4446,1014.55
96512,0.454328,4.41894,8.71832,0.35,-0.49,0,1.46115,7.74165,-44.3312,1014.55
96518,0.49737,4.39981,8.73266,0.07,0.14,-0.35,2.06273,7.94422,-44.3595,1014.55
96524,0.483022,4.39503,8.71832,-0.07,0.07,-0.35,1.89085,7.51014,-44.7707,1014.55
96530,0.487805,4.42372,8.70397,0.21,0.14,-0.14,1.31792,7.77059,-44.4304,1014.53
96536,0.483022,4.41894,8.6944,0.14,-0.42,-0.49,2.20596,7.27863,-44.317,1014.53
96542,0.487805,4.44285,8.70875,0.35,-0.42,-0.56,1.83355,7.74165,-44.0051,1014.54
96548,0.506934,4.45241,8.7231,0.07,-0.7,-0.63,1.91949,7.13393,-45.3377,1014.54
96554,0.463893,4.42372,8.71832,0.28,-0.21,-0.49,1.34656,8.11786,-44.4021,1014.56
96560,0.49737,4.40937,8.73266,0.42,-0.56,-0.21,1.51844,7.4812,-45.9048,1014.56
96566,0.45911,4.41894,8.72788,0.07,0,-0.35,0.744983,7.97316,-45.4653,1014.56
96572,0.463893,4.41416,8.7231,0.63,-0.56,-0.28,0.85957,8.49406,-44.714,1014.53
96578,0.483022,4.38068,8.7231,0.07,-0.63,-0.21,1.4325,7.59696,-45.2243,1014.53
96584,0.516499,4.43328,8.68962,-0.07,-0.21,-0.42,1.11739,7.56802,-44.8557,1014.55
96590,0.49737,4.44763,8.72788,0.21,0,-0.28,-0.515466,6.93136,-44.7565,1014.55
96596,0.502152,4.43328,8.6944,0.14,0.28,-0.56,0.916864,7.68377,-45.2527,1014.6
96602,0.492587,4.40459,8.70875,-0.14,-0.07,-0.49,0.77363,7.85741,-44.5722,1014.6
96608,0.45911,4.42372,8.7231,0.63,-0.28,-0.28,1.51844,8.40724,-44.7565,1014.56
96614,0.492587,4.40937,8.72788,0,-0.42,-0.42,1.51844,7.91528,-44.9266,1014.56
96620,0.492587,4.41416,8.71353,-0.07,0,-0.42,0.945509,7.91528,-45.2952,1014.57
96626,0.454328,4.40937,8.70875,0.42,0,-0.35,0.974157,8.32043,-44.9833,1014.57
96632,0.468675,4.39503,8.75179,0.28,-0.07,-0.21,1.34656,7.65483,-44.2603,1014.57
96638,0.511717,4.40459,8.72788,0,-0.49,-0.56,1.57574,8.17573,-44.8415,1014.57
96644,0.454328,4.43328,8.72788,0.07,0.07,-0.35,1.83355,7.27863,-43.5514,1014.57
96650,0.492587,4.42372,8.7231,0.35,-0.49,-0.56,1.83355,7.74165,-44.9266,1014.56
96656,0.492587,4.42372,8.75179,0.14,0.14,-0.42,1.51844,7.59696,-44.3028,1014.56
96662,0.49737,4.44763,8.73266,0.21,-0.14,-0.35,1.66167,8.17573,-44.0334,1014.55
96668,0.473458,4.41894,8.71353,-0.28,0.07,-0.49,0.77363,7.71271,-43.9626,1014.55
96674,0.468675,4.39024,8.71832,-0.35,-0.42,-0.42,1.23198,7.79953,-44.0193,1014.55
96680,0.487805,4.39503,8.73744,0.35,-0.63,-0.14,1.40385,7.65483,-44.0193,1014.55
96686,0.47824,4.40937,8.74223,-0.07,-0.56,-0.63,1.08874,7.59696,-44.6147,1014.59
96692,0.506934,4.38546,8.71832,0,-0.49,-0.56,1.0028,7.45226,-45.1109,1014.59
96698,0.511717,4.41416,8.73744,0.63,0.07,-0.35,0.945509,7.79953,-44.4729,1014.56
96704,0.487805,4.41894,8.71353,0.07,0,-0.07,1.69032,7.56802,-43.5514,1014.56
96710,0.463893,4.40937,8.71353,0.14,0.07,-0.28,1.54709,8.11786,-44.6856,1014.56
96716,0.483022,4.4285,8.74223,0.56,0.07,-0.49,1.80491,8.11786,-43.5089,1014.56
96722,0.511717,4.41416,8.7231,0.21,-0.21,-0.49,0.68769,8.17573,-44.1894,1014.58
96728,0.468675,4.43328,8.70875,0.21,0.21,-0.07,0.630398,8.26255,-44.2036,1014.58
96734,0.502152,4.4572,8.70397,0.42,0.28,-0.63,0.200699,7.97316,-44.4021,1014.58
96740,0.49737,4.4285,8.75179,0.14,0.21,-0.35,1.37521,8.11786,-44.6147,1014.55
96746,0.49737,4.42372,8.72788,0.07,-0.21,-0.21,0.573104,8.11786,-44.4588,1014.55
96752,0.506934,4.40459,8.7231,0.21,-0.35,-0.49,1.4898,7.85741,-43.3104,1014.54
96758,0.516499,4.43807,8.75179,0.28,-0.07,-0.35,1.4898,8.32043,-44.6431,1014.54
96764,0.473458,4.41416,8.7231,0.14,-0.14,-0.28,0.945509,8.23361,-44.8132,1014.52
96770,0.506934,4.40937,8.75657,0.56,0.14,-0.35,1.46115,7.4812,-44.2319,1014.52
96776,0.483022,4.39981,8.73744,0.28,-0.14,-0.21,1.28927,7.85741,-44.7423,1014.54
96782,0.47824,4.39024,8.74223,0.7,-0.28,-0.49,1.77626,7.94422,-44.6856,1014.54
96788,0.487805,4.40937,8.69919,0.07,-0.56,-0.56,1.40385,6.87348,-44.7423,1014.54
96794,0.492587,4.42372,8.74223,0.07,-0.42,-0.14,0.830924,6.38152,-45.3236,1014.54
96800,0.516499,4.41416,8.73266,-0.07,-0.35,-0.28,0.888217,7.74165,-44.6856,1014.54
96806,0.47824,4.38546,8.71832,0.21,-0.42,-0.63,1.08874,8.08892,-44.6572,1014.54
96812,0.502152,4.42372,8.75657,-0.14,-0.28,-0.07,1.23198,7.04712,-45.2527,1014.54
96818,0.463893,4.42372,8.71832,0.07,-0.21,-0.49,1.69032,7.51014,-45.5504,1014.55
96824,0.487805,4.4285,8.73744,0.07,0.14,-0.28,1.69032,7.82847,-44.9975,1014.55
96830,0.492587,4.40937,8.70397,0.07,-0.28,-0.35,1.60438,8.55194,-44.8415,1014.58
96836,0.506934,4.41416,8.7231,0.63,0,-0.14,1.71897,7.36544,-44.7707,1014.58
96842,0.487805,4.39503,8.75179,0.07,-0.49,-0.42,0.68769,7.30757,-45.2243,1014.56
96848,0.468675,4.42372,8.74701,0,-0.42,-0.21,1.23198,7.22075,-44.8841,1014.56
96854,0.492587,4.41416,8.73266,-0.14,0,-0.42,1.77626,7.59696,-44.9691,1014.54
96860,0.47824,4.41894,8.7231,0.56,0.28,-0.28,0.716337,7.4812,-43.3955,1014.54
96866,0.492587,4.41894,8.73744,0.28,0.28,-0.56,0.630398,7.04712,-44.2745,1014.51
96872,0.483022,4.42372,8.7231,0,-0.07,-0.14,1.26062,7.62589,-44.8132,1014.51
96878,0.487805,4.43328,8.7231,0.63,-17.85,-0.63,0.573104,7.30757,-44.1469,1014.5
96884,0.468675,4.41416,8.71832,0.42,-0.63,-0.21,1.4898,7.65483,-44.3595,1014.5
96890,0.516499,4.39981,8.72788,-0.21,-0.49,-0.42,0.802277,7.88635,-44.7565,1014.5
96896,0.487805,4.4285,8.71832,0.63,17.5,-0.49,1.03145,7.85741,-44.9266,1014.56
96902,0.49737,4.39981,8.73744,0.49,-0.63,-0.28,1.31792,8.49406,-43.6081,1014.56
96908,0.47824,4.41416,8.73266,0.14,-0.14,-0.56,0.659044,7.45226,-45.0117,1014.57
96914,0.47824,4.38068,8.72788,0.42,-0.35,-0.63,1.37521,7.4812,-45.0542,1014.57
96920,0.49737,4.38546,8.74223,0.42,-0.35,-0.07,1.0601,7.13393,-44.161,1014.53
96926,0.516499,4.39503,8.74223,0.77,-0.42,-0.35,1.0601,7.56802,-45.1676,1014.53
96932,0.502152,4.38546,8.7231,0.7,-0.21,-0.56,1.80491,7.16287,-44.3312,1014.55
96938,0.483022,4.41416,8.71832,0.63,-0.14,-0.42,1.20333,7.27863,-43.8208,1014.55
96944,0.526064,4.41894,8.74701,0.28,-0.07,-0.49,1.20333,8.05998,-44.2178,1014.54
96950,0.492587,4.41894,8.72788,0.49,-0.42,-0.21,2.09137,6.93136,-44.5438,1014.54
96956,0.47824,4.39981,8.72788,0.14,-0.56,-0.49,0.573104,7.56802,-45.1109,1014.56
96962,0.463893,4.4285,8.73266,0.35,0.42,-0.42,1.60438,7.77059,-43.7924,1014.56
96968,0.468675,4.43328,8.73266,0.35,0.07,-0.28,1.51844,7.65483,-44.3028,1014.56
96974,0.492587,4.39981,8.74223,-0.14,0.14,-0.14,1.20333,7.10499,-44.2036,1014.56
96980,0.487805,4.42372,8.74223,0.21,-0.42,-0.21,0.68769,7.94422,-43.9909,1014.56
96986,0.49737,4.41416,8.74701,0,-0.63,-0.07,1.0601,6.93136,-43.8917,1014.54
96992,0.454328,4.41894,8.73744,-0.42,-0.35,-0.35,1.46115,7.39438,-43.9626,1014.54
96998,0.502152,4.41416,8.73266,0.49,-0.28,-0.28,1.23198,7.65483,-46.0041,1014.51
97004,0.506934,4.4285,8.74223,0.35,-17.64,-0.49,1.4898,7.16287,-44.4304,1014.51
97010,0.473458,4.44763,8.71353,0.07,-0.42,-0.42,0.974157,6.87348,-44.4871,1014.54
97016,0.487805,4.41894,8.73744,0.07,-0.07,-0.21,0.716337,7.39438,-45.3094,1014.54
97022,0.468675,4.42372,8.7231,0.21,-0.14,-0.42,1.03145,8.03104,-44.714,1014.54
97028,0.487805,4.40937,8.73744,0.07,-0.14,-0.21,0.744983,6.98924,-45.1818,1014.54
97034,0.511717,4.3759,8.71353,0,-0.35,-0.42,1.11739,6.98924,-44.5296,1014.55
97040,0.516499,4.42372,8.75657,0.91,17.22,-0.35,1.23198,7.4812,-45.3519,1014.55
97046,0.483022,4.40459,8.76136,0.42,-0.42,-0.49,0.945509,8.11786,-45.5788,1014.55
97052,0.502152,4.38068,8.72788,0.21,0.14,-0.21,0.888217,7.30757,-44.7281,1014.55
97058,0.506934,4.39024,8.72788,0.35,17.85,0,0.85957,6.98924,-44.3737,1014.55
97064,0.483022,4.40459,8.73266,0.14,0,-0.14,1.97679,7.22075,-45.1109,1014.57
97070,0.492587,4.41416,8.74701,0.35,-0.07,-0.07,1.57574,7.45226,-44.2886,1014.57
97076,0.506934,4.40459,8.71832,0.21,-17.92,-0.21,1.23198,7.42332,-44.1752,1014.57
97082,0.483022,4.40937,8.73266,0.42,-0.07,-0.42,0.888217,7.65483,-45.2527,1014.57
97088,0.483022,4.41894,8.74701,0.49,0.07,-0.28,1.31792,6.75773,-43.7357,1014.57
97094,0.516499,4.40937,8.7231,0.63,-0.14,-0.35,0.830924,7.19181,-43.594,1014.57
97100,0.49737,4.41894,8.73266,0.14,-0.28,-0.42,1.0601,6.69985,-44.799,1014.59
97106,0.502152,4.40937,8.72788,0.42,-0.14,0,0.515811,6.84454,-44.8415,1014.59
97112,0.463893,4.41894,8.73744,-0.21,-0.35,-0.21,1.40385,7.01818,-44.9124,1014.56
97118,0.473458,4.43807,8.73266,-0.07,-0.14,-0.28,1.0028,6.64197,-44.7423,1014.56
97124,0.521282,4.38068,8.73266,0.98,0,-0.21,0.200699,7.27863,-45.5362,1014.55
97130,0.483022,4.38546,8.73744,-0.35,-0.28,-0.21,0.60175,7.33651,-43.8491,1014.55
97136,0.483022,4.42372,8.72788,0.21,-0.14,0.07,0.830924,7.36544,-45.2669,1014.57
97142,0.487805,4.42372,8.71832,0.84,-0.21,-0.14,0.744983,7.39438,-44.6431,1014.57
97148,0.463893,4.40459,8.71832,-0.07,-0.07,-0.7,-0.171707,7.74165,-44.6856,1014.57
97154,0.468675,4.40937,8.72788,0.56,-0.21,-0.14,0.716337,7.71271,-44.8557,1014.54
97160,0.49737,4.40459,8.74223,0.49,0,-0.07,0.916864,7.62589,-44.0902,1014.54
97166,0.483022,4.41416,8.73266,0.07,-0.07,-0.7,1.51844,7.65483,-44.3737,1014.54
97172,0.47824,4.38546,8.72788,0.42,0.07,-0.14,1.4325,7.45226,-44.8983,1014.54
97178,0.47824,4.41416,8.71353,0.42,-0.35,-0.49,0.716337,7.77059,-45.1251,1014.59
97184,0.492587,4.41416,8.73744,0.56,-0.14,-0.49,0.487164,7.51014,-44.7707,1014.59
97190,0.49737,4.40937,8.7231,0.7,-0.42,-0.07,1.26062,8.29149,-45.3377,1014.54
97196,0.502152,4.39981,8.73266,0.21,0.21,-0.35,0.974157,7.71271,-44.0193,1014.54
97202,0.506934,4.39981,8.75657,0.42,0.14,-0.28,1.37521,7.33651,-44.5155,1014.55
97208,0.487805,4.41894,8.73744,0.28,0.28,-0.07,1.14604,7.19181,-46.3443,1014.55
97214,0.483022,4.42372,8.73744,0.49,-0.21,-0.14,1.66167,7.65483,-44.7848,1014.55
97220,0.487805,4.40459,8.73744,0.07,-0.28,-0.42,1.46115,7.68377,-44.799,1014.55
97226,0.473458,4.41416,8.71832,0.28,-0.21,-0.21,0.315285,7.13393,-45.8198,1014.55
97232,0.502152,4.38546,8.71353,0.35,-0.21,0,1.0028,7.74165,-44.6005,1014.55
97238,0.47824,4.41416,8.76136,0.35,-0.35,-0.21,1.40385,7.19181,-44.3312,1014.55
97244,0.506934,4.40459,8.74223,0.07,-0.21,-0.28,1.63303,7.77059,-44.2319,1014.59
97250,0.487805,4.40937,8.74223,0.42,-0.91,-0.35,1.14604,8.32043,-44.5722,1014.59
97256,0.506934,4.39981,8.73744,0.28,-0.49,-0.21,1.11739,7.77059,-44.8557,1014.55
97262,0.492587,4.4285,8.70397,0.42,0.07,-0.07,1.03145,7.62589,-44.558,1014.55
97268,0.487805,4.38546,8.72788,0.07,0.07,-0.07,0.830924,7.77059,-44.4162,1014.55
97274,0.492587,4.40937,8.74223,0.49,0.14,-0.21,2.00543,7.19181,-45.2243,1014.55
97280,0.506934,4.38068,8.74701,0.07,-0.28,-0.21,1.17468,7.77059,-44.5864,1014.55
97286,0.502152,4.39024,8.74223,0.56,-0.21,-0.14,1.97679,7.51014,-45.3661,1014.55
97292,0.511717,4.42372,8.72788,0.21,0.35,-0.35,1.26062,7.65483,-45.4228,1014.55
97298,0.492587,4.41416,8.71832,0.7,0.07,-0.28,1.63303,7.53908,-45.0542,1014.55
97304,0.492587,4.41894,8.7231,0.07,-0.21,-0.35,1.0028,8.46512,-44.1327,1014.55
97310,0.483022,4.40937,8.70875,0.49,-0.35,-0.28,0.830924,7.51014,-45.04,1014.53
97316,0.483022,4.40459,8.7231,0.21,-0.14,-0.28,0.945509,8.23361,-44.8983,1014.53
97322,0.47824,4.41416,8.72788,0.56,-0.07,-0.21,0.744983,8.49406,-43.6223,1014.56
97328,0.473458,4.3759,8.73744,0.35,-0.28,-0.35,1.37521,8.26255,-44.6005,1014.56
97334,0.492587,4.39503,8.72788,0.49,-0.14,-0.21,1.03145,7.79953,-44.3028,1014.55
97340,0.487805,4.4285,8.72788,0.28,0.14,-0.21,1.37521,7.88635,-44.317,1014.55
97346,0.506934,4.38546,8.71353,0.21,-0.07,-0.63,1.11739,8.11786,-44.5013,1014.54
97352,0.502152,4.39503,8.74223,0.42,-0.14,-0.21,1.08874,8.58088,-44.5013,1014.54
97358,0.463893,4.40937,8.74223,0.84,-0.14,-0.07,1.74761,7.10499,-44.5864,1014.55
97364,0.506934,4.39503,8.74701,0.07,-0.42,-0.42,0.974157,7.94422,-45.2952,1014.55
97370,0.492587,4.39981,8.71353,0.63,-0.21,-0.14,1.08874,7.62589,-45.2385,1014.54
97376,0.492587,4.42372,8.70875,0.21,0,-0.28,0.945509,8.58088,-45.8339,1014.54
97382,0.521282,4.40937,8.71832,0.49,-0.35,-0.28,0.60175,8.29149,-45.1251,1014.57
97388,0.483022,4.39981,8.74701,0.42,0.07,-0.21,1.0601,7.4812,-45.1676,1014.57
97394,0.473458,4.39024,8.71832,0.35,0.07,-0.63,1.03145,7.65483,-44.7423,1014.57
97400,0.487805,4.39981,8.70875,0.28,0,-0.21,0.974157,8.72557,-44.955,1014.56
97406,0.473458,4.41416,8.72788,0.63,0.07,0,1.63303,7.74165,-44.3595,1014.56
97412,0.47824,4.39981,8.73744,0.14,-0.28,-0.7,1.4325,7.33651,-45.8339,1014.55
97418,0.483022,4.39503,8.7231,0.7,-0.28,-0.21,1.11739,7.07606,-45.7347,1014.55
97424,0.487805,4.41416,8.7231,0,-0.35,-0.21,1.14604,7.68377,-44.4162,1014.55
97430,0.468675,4.38068,8.7231,0.21,-0.56,-0.63,1.60438,7.62589,-45.1676,1014.55
97436,0.502152,4.38546,8.74223,0.63,-0.42,-0.21,1.20333,7.68377,-43.6648,1014.53
97442,0.516499,4.39503,8.74701,0.35,0,-0.21,1.74761,7.19181,-44.5155,1014.53
97448,0.483022,4.41894,8.70397,0.28,0.14,-0.35,0.630398,8.37831,-43.7074,1014.56
97454,0.521282,4.41416,8.73744,0,-0.14,-0.07,0.573104,8.32043,-45.3519,1014.56
97460,0.49737,4.39024,8.74223,0.07,0.28,-0.42,1.11739,7.59696,-43.9059,1014.54
97466,0.506934,4.41416,8.73266,0.49,-0.42,-0.14,2.06273,7.71271,-44.6431,1014.54
97472,0.516499,4.40459,8.74701,0.14,0.21,-0.28,0.974157,7.62589,-44.5864,1014.54
97478,0.49737,4.39503,8.74701,0.14,-0.35,-0.21,1.69032,7.82847,-44.8274,1014.54
97484,0.483022,4.39981,8.74223,0.7,-0.21,-0.21,0.945509,7.85741,-44.8699,1014.54
97490,0.473458,4.42372,8.74223,0.07,-0.42,-0.49,1.23198,7.33651,-45.5504,1014.53
97496,0.49737,4.41894,8.73744,0.14,0.28,-0.35,0.85957,8.26255,-44.3453,1014.53
97502,0.49737,4.39981,8.73744,0,0.21,-0.14,1.28927,8.29149,-43.7783,1014.54
97508,0.463893,4.40937,8.7231,0.42,0.28,-0.21,0.945509,7.88635,-44.0051,1014.54
97514,0.473458,4.4285,8.70875,-0.07,-0.35,-0.49,1.0028,7.94422,-44.6289,1014.54
97520,0.483022,4.40459,8.72788,0,-0.49,-0.35,1.03145,8.05998,-44.1894,1014.54
97526,0.463893,4.41416,8.75179,0.28,-0.35,-0.42,0.974157,7.82847,-44.3312,1014.5
97532,0.487805,4.39503,8.72788,-0.07,-0.35,0,0.85957,8.29149,-44.0193,1014.5
97538,0.492587,4.43328,8.73266,0,0.28,-0.28,0.888217,8.40724,-43.4947,1014.57
97544,0.49737,4.39503,8.74223,0.21,0,-0.21,0.85957,7.39438,-43.1261,1014.57
97550,0.502152,4.40459,8.75179,0.07,-0.14,-0.21,0.802277,6.90242,-44.6005,1014.56
97556,0.483022,4.35677,8.72788,-0.35,-0.07,-0.21,0.85957,7.04712,-44.4304,1014.56
97562,0.502152,4.39024,8.72788,0.63,-0.28,-0.35,0.945509,7.74165,-43.7783,1014.56
97568,0.49737,4.40937,8.73266,0.21,-0.14,-0.35,0.945509,7.71271,-43.6507,1014.56
97574,0.483022,4.42372,8.71832,0.42,0.07,-0.14,0.85957,7.79953,-43.9626,1014.56
97580,0.473458,4.42372,8.73266,0.56,-0.21,-0.42,0.888217,7.91528,-44.076,1014.56
97586,0.468675,4.41416,8.74223,0.35,-0.35,-0.14,1.14604,8.17573,-43.7074,1014.56
97592,0.483022,4.42372,8.73744,0.35,0.14,0.21,1.46115,7.62589,-43.4522,1014.53
97598,0.502152,4.41416,8.70397,0.49,-0.07,-0.35,1.4898,7.77059,-44.7848,1014.53
97604,0.45911,4.39503,8.71832,0.07,0,-0.28,1.4325,8.20467,-44.6431,1014.56
97610,0.463893,4.40459,8.72788,0.28,-0.49,-0.14,1.34656,8.08892,-44.9691,1014.56
97616,0.511717,4.42372,8.70875,0.42,-0.49,-0.21,1.17468,8.08892,-45.2669,1014.53
97622,0.45911,4.39503,8.71353,0.42,-0.14,-0.14,1.46115,8.26255,-44.6856,1014.53
97628,0.487805,4.42372,8.72788,-0.35,-0.21,-0.35,2.00543,7.56802,-44.6714,1014.55
97634,0.483022,4.41894,8.71832,0.28,-0.28,-0.07,1.03145,8.03104,-44.5864,1014.55
97640,0.492587,4.41894,8.7231,-0.07,-0.21,-0.07,1.20333,7.42332,-44.6714,1014.55
97646,0.502152,4.39503,8.71832,0.14,0.14,-0.21,1.28927,7.79953,-44.8132,1014.56
97652,0.473458,4.36633,8.74223,0.14,0.14,-0.42,1.17468,7.4812,-44.1469,1014.56
97658,0.49737,4.40937,8.75657,-0.14,-0.49,-0.35,0.487164,7.53908,-45.678,1014.51
97664,0.506934,4.37111,8.73744,0.21,-0.14,-0.42,1.26062,7.42332,-43.5514,1014.51
97670,0.506934,4.40937,8.75657,0.42,-0.28,-0.35,1.11739,7.56802,-43.594,1014.55
97676,0.516499,4.41894,8.72788,-0.28,0.21,-0.49,1.77626,7.51014,-45.1818,1014.55
97682,0.502152,4.39503,8.72788,0.07,-0.14,-0.07,-0.0284745,7.62589,-43.9059,1014.57
97688,0.483022,4.41894,8.72788,0.56,-0.07,-0.35,1.57574,8.03104,-44.1185,1014.57
97694,0.487805,4.3759,8.73266,0.07,0.28,-0.28,1.20333,7.51014,-43.92,1014.52
97700,0.49737,4.41416,8.73744,0.49,0.35,-0.07,0.716337,7.97316,-44.0476,1014.52
97706,0.502152,4.39981,8.7231,0.42,0.07,-0.63,0.630398,8.17573,-43.9484,1014.51
97712,0.516499,4.42372,8.75179,0.28,0.21,-0.35,1.03145,8.0021,-44.8415,1014.51
97718,0.516499,4.36155,8.71832,0.42,-0.14,0.07,1.14604,7.79953,-43.041,1014.55
97724,0.502152,4.39024,8.73744,0,-0.21,-0.7,1.34656,7.82847,-43.7783,1014.55
97730,0.492587,4.39981,8.74223,0.56,0.35,0,1.08874,7.85741,-43.6932,1014.55
97736,0.45911,4.4285,8.75179,0.49,0.14,-0.07,1.4898,7.33651,-44.3028,1014.55
97742,0.454328,4.37111,8.75179,0.07,-0.07,-0.21,1.0601,8.0021,-44.4021,1014.55
97748,0.468675,4.40937,8.75179,0.28,-0.35,-0.21,1.31792,7.74165,-44.8557,1014.53
97754,0.506934,4.39024,8.7231,0.49,-0.21,-0.14,0.974157,8.05998,-43.7357,1014.53
97760,0.506934,4.37111,8.70397,0.77,-0.42,0.07,0.372579,8.03104,-44.1894,1014.52
97766,0.49737,4.41416,8.73744,0.21,-0.63,0.07,0.85957,7.65483,-44.1752,1014.52
97772,0.502152,4.39024,8.74223,-0.28,-0.14,0,1.03145,7.39438,-43.92,1014.57
97778,0.506934,4.39024,8.74701,0.42,0.07,-0.42,1.34656,7.85741,-44.0051,1014.57
97784,0.483022,4.39981,8.74223,0.14,0.21,0,1.08874,8.29149,-44.2603,1014.5
97790,0.487805,4.39981,8.72788,0.21,-0.56,-0.28,0.85957,7.16287,-45.3661,1014.5
97796,0.468675,4.38068,8.74701,0.07,-0.28,-0.28,1.23198,7.91528,-44.6998,1014.56
97802,0.49737,4.38546,8.74701,0.42,-0.28,-0.21,1.0028,7.27863,-46.0182,1014.56
97808,0.473458,4.39503,8.75657,0.7,0.21,-0.21,1.03145,7.56802,-45.7347,1014.56
97814,0.473458,4.41894,8.70397,0.49,0.14,-0.49,0.573104,7.42332,-43.6081,1014.53
97820,0.502152,4.39981,8.7231,0.28,0.07,-0.28,0.372579,7.07606,-44.1185,1014.53
97826,0.502152,4.39981,8.74701,0.56,-0.28,0,1.4325,7.56802,-44.2461,1014.53
97832,0.463893,4.42372,8.73266,0.14,-0.35,0,1.34656,7.79953,-44.3737,1014.53
97838,0.483022,4.41894,8.73266,0.21,-0.21,0.21,0.916864,8.0021,-45.0258,1014.52
97844,0.487805,4.42372,8.74701,0.21,-0.21,-0.14,1.83355,7.74165,-44.076,1014.52
97850,0.487805,4.39024,8.73744,0.35,-0.42,-0.49,0.916864,7.56802,-44.2036,1014.54
97856,0.483022,4.40937,8.73266,0.21,-0.42,-0.35,1.0028,7.82847,-44.5438,1014.54
97862,0.49737,4.4285,8.73266,0.14,-0.7,-0.14,0.286638,7.82847,-44.4729,1014.53
97868,0.506934,4.39024,8.74701,0.28,-0.7,0,0.802277,8.11786,-45.2527,1014.53
97874,0.511717,4.40459,8.72788,0.49,-0.84,-0.14,1.0601,7.82847,-45.7631,1014.51
97880,0.483022,4.39503,8.74223,0.84,-0.07,-0.07,0.487164,7.51014,-43.8775,1014.51
97886,0.492587,4.39981,8.7231,0.21,-0.49,-0.35,1.20333,7.42332,-43.7641,1014.51
97892,0.526064,4.36633,8.74223,0.56,0.35,-0.28,1.4898,7.45226,-44.2603,1014.54
97898,0.526064,4.38546,8.72788,0.56,0.49,-0.63,1.54709,7.56802,-44.6856,1014.54
97904,0.49737,4.4285,8.75179,0.35,0.49,-0.21,1.14604,7.59696,-43.8633,1014.56
97910,0.47824,4.38546,8.7231,0.7,0,-0.35,0.60175,7.79953,-43.4238,1014.56
97916,0.473458,4.42372,8.72788,0.56,-0.77,-0.21,0.401224,7.79953,-44.9124,1014.54
97922,0.47824,4.40459,8.75657,0.42,-0.35,-0.14,1.28927,8.03104,-44.9833,1014.54
97928,0.49737,4.41894,8.72788,0.63,0,0.07,1.26062,7.85741,-44.8983,1014.54
97934,0.47824,4.39503,8.74701,0.28,0.21,-0.35,0.544457,7.79953,-45.0826,1014.54
97940,0.487805,4.3759,8.74701,0.42,0.07,0,0.945509,7.45226,-44.4021,1014.53
97946,0.49737,4.39024,8.7231,0.28,0,-0.14,0.544457,7.56802,-45.5362,1014.53
97952,0.473458,4.39024,8.72788,0.21,-0.91,-0.35,0.945509,7.77059,-44.4729,1014.54
97958,0.487805,4.40937,8.70397,-0.07,-0.63,0,0.974157,8.17573,-44.0051,1014.54
97964,0.49737,4.40937,8.75179,0.42,-0.7,0,0.716337,7.65483,-43.5373,1014.54
97970,0.483022,4.39503,8.74701,0.63,0.14,-0.49,0.888217,8.03104,-43.9909,1014.54
97976,0.483022,4.41894,8.76136,0.14,-0.28,-0.49,1.28927,8.63876,-44.5013,1014.54
97982,0.511717,4.41894,8.72788,0.21,0.28,-0.28,0.744983,7.77059,-44.3595,1014.53
97988,0.487805,4.40459,8.75657,0.63,-0.28,-0.42,1.0028,7.91528,-43.7357,1014.53
97994,0.502152,4.39981,8.72788,0.49,0.28,-0.28,1.0028,8.05998,-43.6365,1014.56
98000,0.492587,4.38546,8.74701,-0.07,-0.35,-0.21,1.31792,8.1468,-43.7074,1014.56
98006,0.487805,4.40937,8.7231,0.28,-0.21,-0.14,1.03145,7.16287,-44.4446,1014.54
98012,0.483022,4.42372,8.73744,0.21,-0.49,0,1.74761,7.79953,-44.2745,1014.54
98018,0.506934,4.39981,8.74223,0.35,-0.14,-0.42,1.46115,8.03104,-43.9626,1014.53
98024,0.483022,4.39024,8.76614,0.35,0.28,0,-0.801932,5.7738,-44.7707,1014.53
98030,0.473458,4.4285,8.73266,0.63,-0.14,-0.21,1.17468,6.67091,-44.2036,1014.53
98036,0.483022,4.41894,8.75657,0.7,-0.07,-0.28,0.458518,7.16287,-44.3879,1014.53
98042,0.502152,4.43807,8.73266,0.42,-1.05,-0.21,0.888217,7.79953,-43.9059,1014.58
98048,0.45911,4.41416,8.73744,-0.14,-0.42,-0.14,1.26062,7.77059,-44.2036,1014.58
98054,0.506934,4.39503,8.72788,0.42,-0.91,-0.21,0.744983,7.19181,-45.0117,1014.58
98060,0.487805,4.39024,8.74701,0.77,-0.07,-0.14,0.830924,7.4812,-44.3453,1014.55
98066,0.492587,4.40459,8.75657,-0.14,-0.63,-0.14,0.974157,8.23361,-44.1327,1014.55
98072,0.511717,4.39024,8.73266,0.14,0.63,0,0.916864,7.36544,-44.3879,1014.54
98078,0.502152,4.40459,8.7231,0.28,0,-0.28,0.630398,8.26255,-44.8699,1014.54
98084,0.516499,4.40937,8.73266,-0.07,0.49,-0.14,0.544457,7.82847,-45.1393,1014.53
98090,0.521282,4.3759,8.7231,0.14,-0.21,-0.63,1.17468,7.27863,-43.679,1014.53
98096,0.511717,4.39981,8.73744,0.35,-0.28,-0.21,0.744983,7.65483,-44.3028,1014.56
98102,0.526064,4.38068,8.7757,0.35,0.14,-0.14,1.17468,8.20467,-44.0193,1014.56
98108,0.473458,4.39503,8.72788,0.49,0.07,-0.14,1.03145,7.71271,-43.0127,1014.52
98114,0.47824,4.42372,8.71832,0.42,0.28,0,1.08874,7.94422,-43.4238,1014.52
98120,0.473458,4.42372,8.74223,0.77,-0.21,-0.35,0.85957,7.56802,-44.558,1014.51
98126,0.487805,4.4285,8.7231,0.35,0.07,-0.14,0.000171967,6.49728,-44.4162,1014.51
98132,0.463893,4.42372,8.73744,0.56,-0.07,-0.21,0.659044,8.0021,-44.0618,1014.56
98138,0.439981,4.41416,8.74701,0.21,-0.35,-0.42,1.31792,8.03104,-42.1621,1014.56
98144,0.502152,4.40937,8.74701,0.14,0,-0.14,1.11739,7.79953,-43.1403,1014.56
98150,0.506934,4.3759,8.72788,0.28,0.35,0,1.03145,7.71271,-43.594,1014.55
98156,0.473458,4.39981,8.71832,0.49,-0.07,-0.21,1.28927,7.4812,-43.3388,1014.55
98162,0.535629,4.39981,8.74701,0.35,-0.14,-0.21,1.57574,8.72557,-43.4522,1014.55
98168,0.49737,4.40459,8.70397,0.42,-0.7,-0.28,1.03145,7.94422,-43.6932,1014.55
98174,0.502152,4.41894,8.74223,0.49,0.21,-0.28,0.85957,7.82847,-43.8633,1014.56
98180,0.506934,4.38546,8.73266,0.28,-0.35,-0.14,0.916864,8.23361,-45.196,1014.56
98186,0.487805,4.39024,8.77092,0.77,-0.21,-0.56,0.85957,7.45226,-44.2461,1014.54
98192,0.487805,4.3759,8.73266,-0.07,-0.56,-0.21,1.20333,7.13393,-43.8775,1014.54
98198,0.511717,4.3759,8.75179,0.7,0.07,-0.21,1.0601,7.94422,-44.1752,1014.6
98204,0.49737,4.40459,8.73744,0.49,-0.14,-0.21,1.57574,7.30757,-43.9767,1014.6
98210,0.521282,4.3759,8.72788,0.35,0.28,-0.28,1.31792,7.39438,-44.1043,1014.55
98216,0.516499,4.40459,8.70875,0.56,-0.14,-0.07,1.23198,7.85741,-43.2537,1014.55
98222,0.511717,4.38068,8.7231,0.35,-0.14,-0.28,0.916864,7.62589,-43.4522,1014.55
98228,0.530846,4.4285,8.73266,-0.07,-0.28,-0.28,0.487164,6.32364,-45.2669,1014.53
98234,0.506934,4.40459,8.73744,0.14,0.14,-0.21,0.916864,6.84454,-44.2745,1014.53
98240,0.506934,4.40459,8.74223,0.21,0.28,0.07,1.17468,7.53908,-44.2319,1014.53
98246,0.487805,4.41416,8.74223,-0.21,0.21,-0.28,1.28927,7.30757,-43.9626,1014.53
98252,0.47824,4.39981,8.70397,0.14,0.21,0.14,1.0601,7.68377,-43.7074,1014.5
98258,0.487805,4.40937,8.73744,0.35,-0.14,-0.21,0.544457,7.68377,-44.1043,1014.5
98264,0.521282,4.41894,8.72788,-0.28,-0.49,-0.42,0.458518,8.05998,-44.1469,1014.55
98270,0.492587,4.38068,8.73744,-0.28,-0.84,-0.07,0.716337,8.11786,-45.2952,1014.55
98276,0.502152,4.41416,8.73266,0.28,-0.35,-0.21,1.40385,7.77059,-44.5155,1014.54
98282,0.516499,4.44763,8.72788,0.14,-0.63,0.07,0.315285,7.62589,-45.2527,1014.54
98288,0.487805,4.42372,8.76136,0.07,0.21,-0.14,1.40385,8.0021,-44.4021,1014.52
98294,0.526064,4.38546,8.76614,0,-0.07,-0.07,1.0028,7.82847,-43.9767,1014.52
98300,0.506934,4.40459,8.74701,0.7,0.28,-0.14,0.77363,7.62589,-45.3094,1014.52
98306,0.454328,4.39981,8.73744,0.21,-0.14,-0.28,1.26062,7.74165,-46.2167,1014.53
98312,0.521282,4.40937,8.73744,0.21,-0.14,-0.14,1.60438,8.05998,-44.1752,1014.53
98318,0.49737,4.4285,8.73266,0.63,-0.28,-0.21,1.28927,8.34937,-44.5438,1014.55
98324,0.506934,4.39024,8.7231,0.28,0.21,-0.28,1.23198,7.82847,-44.8841,1014.55
98330,0.502152,4.41894,8.74223,0.21,0.21,-0.28,0.429872,7.04712,-45.6213,1014.52
98336,0.502152,4.40937,8.74223,0.7,0.14,-0.28,0.888217,8.03104,-43.6081,1014.52
98342,0.506934,4.38546,8.75657,0.42,-0.07,-0.28,1.77626,8.37831,-44.3028,1014.55
98348,0.473458,4.40459,8.70875,0.35,0.21,-0.35,1.8622,7.62589,-44.3879,1014.55
98354,0.502152,4.42372,8.74701,0.21,0,-0.28,1.74761,8.05998,-44.076,1014.55
98360,0.483022,4.38546,8.74223,0.63,-0.21,-0.35,1.11739,7.88635,-44.8983,1014.55
98366,0.49737,4.39981,8.69919,0.28,-0.28,-0.14,1.40385,7.59696,-43.8491,1014.56
98372,0.516499,4.40937,8.71832,0.28,-0.42,0,0.945509,7.97316,-43.9909,1014.56
98378,0.483022,4.38068,8.73744,0,-0.14,-0.21,1.23198,7.82847,-44.6431,1014.53
98384,0.463893,4.39503,8.73266,0.07,-0.21,-0.49,1.4898,7.19181,-45.522,1014.53
98390,0.506934,4.44285,8.70875,0.84,-0.07,-0.28,1.4325,7.36544,-44.8557,1014.53
98396,0.521282,4.43328,8.72788,0.35,-0.07,-0.49,1.4325,7.45226,-44.0902,1014.58
98402,0.487805,4.38546,8.72788,0.21,0,-0.21,1.74761,7.42332,-44.4871,1014.58
98408,0.49737,4.39981,8.74701,0.56,0.28,-0.14,1.03145,6.98924,-44.161,1014.54
98414,0.487805,4.39503,8.72788,0.42,-0.28,-0.28,2.09137,7.33651,-44.8699,1014.54
98420,0.49737,4.35677,8.71353,0.77,-0.21,-0.14,1.4325,7.79953,-45.8198,1014.53
98426,0.535629,4.40459,8.75657,0.07,-0.28,-0.35,1.23198,7.65483,-44.4588,1014.53
98432,0.502152,4.3759,8.74223,0.07,-0.07,-0.21,0.573104,6.49728,-45.5362,1014.54
98438,0.487805,4.3759,8.74223,0.21,0.35,-0.07,0.515811,8.17573,-45.4653,1014.54
98444,0.492587,4.39981,8.72788,0.21,-0.28,-0.49,1.63303,7.91528,-44.6431,1014.51
98450,0.526064,4.42372,8.75179,-0.14,-0.14,-0.35,1.26062,7.53908,-44.3028,1014.51
98456,0.487805,4.41894,8.72788,0,-0.35,0.21,0.744983,7.53908,-44.799,1014.55
98462,0.473458,4.38546,8.72788,0,-0.56,-0.56,0.573104,7.53908,-44.2036,1014.55
98468,0.492587,4.3759,8.71832,-0.35,-0.28,0.07,0.573104,7.97316,-44.8699,1014.55
98474,0.47824,4.39981,8.71832,0.07,-0.21,0.35,0.85957,7.22075,-44.2036,1014.53
98480,0.492587,4.38546,8.73744,0.28,0.14,-0.49,0.888217,7.42332,-44.076,1014.53
98486,0.468675,4.42372,8.73266,0.42,0,0.14,0.945509,7.53908,-45.0967,1014.51
98492,0.521282,4.38546,8.72788,0.35,-0.49,0,0.802277,8.32043,-44.6998,1014.51
98498,0.506934,4.3759,8.74701,0.63,-0.14,-0.42,1.0601,8.1468,-43.8775,1014.54
98504,0.468675,4.37111,8.72788,0.35,-0.07,-0.21,1.0028,7.77059,-44.7848,1014.54
98510,0.502152,4.40937,8.71832,0.21,0,-0.42,1.03145,8.29149,-44.317,1014.53
98516,0.502152,4.37111,8.75179,0.77,-0.07,-0.35,0.573104,7.68377,-44.4304,1014.53
98522,0.487805,4.40459,8.73266,0.7,-0.21,-0.28,1.20333,7.97316,-44.2036,1014.55
98528,0.511717,4.40459,8.73266,0.42,-0.42,-0.28,0.659044,8.32043,-44.9833,1014.55
98534,0.49737,4.41416,8.73266,0.7,-0.28,-0.07,0.945509,7.59696,-46.2025,1014.52
98540,0.516499,4.39981,8.73266,0.56,0.07,0,0.916864,7.62589,-44.2886,1014.52
98546,0.483022,4.40937,8.71353,0.63,0.07,-0.07,1.57574,7.88635,-44.1043,1014.55
98552,0.502152,4.39024,8.73266,0.21,-0.14,-0.35,1.31792,8.11786,-44.0334,1014.55
98558,0.502152,4.40459,8.7231,0.91,-0.28,0.14,0.68769,8.32043,-43.5089,1014.55
98564,0.473458,4.39024,8.73744,0.77,0.07,-0.21,0.286638,8.55194,-44.1327,1014.52
98570,0.516499,4.3759,8.74701,-0.14,0.07,-0.07,1.14604,8.23361,-42.7575,1014.52
98576,0.502152,4.40937,8.75179,-0.21,-0.07,0,-0.630053,6.98924,-44.6289,1014.53
98582,0.49737,4.39981,8.75179,0.77,0,-0.35,0.68769,7.30757,-43.835,1014.53
98588,0.49737,4.39024,8.7231,0.84,-0.14,0,0.458518,6.46834,-46.5712,1014.51
98594,0.492587,4.39024,8.75179,0,0,0.49,-0.630053,7.07606,-43.7783,1014.51
98600,0.506934,4.38546,8.73744,0.84,-0.28,-0.42,0.916864,7.79953,-43.8917,1014.53
98606,0.506934,4.39503,8.73744,0.28,-0.21,0.21,1.03145,7.59696,-44.2745,1014.53
98612,0.511717,4.3759,8.73266,0.63,0.07,-0.07,1.31792,7.51014,-44.1469,1014.53
98618,0.526064,4.3759,8.72788,0.42,0.07,-0.07,1.51844,8.03104,-43.594,1014.53
98624,0.511717,4.39024,8.73266,0.56,0,-0.35,1.20333,8.26255,-43.835,1014.52
98630,0.492587,4.41894,8.7231,0.42,0.14,-0.28,0.916864,7.10499,-44.6147,1014.52
98636,0.511717,4.41894,8.71353,-0.21,-0.07,-0.42,1.0028,8.03104,-44.0476,1014.52
98642,0.492587,4.41894,8.73744,0.14,-0.21,-0.42,0.802277,7.42332,-44.076,1014.56
98648,0.47824,4.38546,8.74223,0,0,-0.14,0.716337,7.56802,-44.317,1014.56
98654,0.468675,4.39981,8.75179,0.35,-0.28,0,0.916864,7.45226,-43.6507,1014.56
98660,0.506934,4.40459,8.76136,0.77,-0.07,-0.07,0.916864,7.53908,-44.4588,1014.56
98666,0.45911,4.42372,8.75657,0.21,0,0,0.888217,7.19181,-43.2962,1014.57
98672,0.47824,4.40937,8.72788,0.07,-0.07,-0.21,0.974157,7.68377,-43.8917,1014.57
98678,0.492587,4.39503,8.7231,0.56,0,-0.14,1.26062,8.23361,-44.3028,1014.54
98684,0.506934,4.39981,8.72788,0.35,-0.07,-0.35,0.458518,8.32043,-43.7216,1014.54
98690,0.506934,4.39024,8.74701,0.56,0,-0.35,0.60175,7.79953,-43.0694,1014.57
98696,0.487805,4.35677,8.71353,0.63,0.21,-0.14,1.03145,8.11786,-43.3104,1014.57
98702,0.549976,4.39981,8.72788,0.63,-0.7,-0.77,0.916864,7.74165,-43.6507,1014.52
98708,1.61645,4.72023,6.59015,-2.03,-1.19,-9.31,0.60175,7.97316,-43.835,1014.52
98714,2.51554,4.38068,5.83453,-11.97,4.9,-18.9,0.487164,7.77059,-44.4446,1014.56
98720,1.54472,4.30894,7.97226,-23.52,9.45,-25.76,0.974157,7.82847,-43.6932,1014.56
98726,1.10473,3.99809,8.30225,-30.17,25.2,-24.99,1.11739,7.91528,-44.2036,1014.56
98732,1.2769,4.48111,9.09134,-28.42,35.7,-15.96,1.4325,8.84133,-43.9059,1014.55
98738,2.37685,4.35677,8.79483,-22.4,52.71,-13.37,1.69032,8.0021,-44.8841,1014.55
98744,2.19512,4.05548,9.17743,-6.44,66.78,-15.96,2.69295,8.1468,-44.6572,1014.51
98750,1.70253,3.97896,9.30655,-0.14,80.57,-15.89,1.97679,7.82847,-43.5656,1014.51
98756,1.72645,3.93113,9.1583,5.88,105.91,-3.92,2.06273,8.63876,-43.9626,1014.52
98762,1.16212,4.1033,9.14395,9.59,126.14,22.47,2.60701,8.60982,-43.2679,1014.52
98768,1.06648,4.16547,9.78957,14.28,130.83,49.77,4.06799,8.55194,-43.9909,1014.53
98774,1.31994,4.57197,9.92826,14.77,134.89,73.01,4.95603,8.60982,-43.0836,1014.53
98780,-13.1038,5.98757,17.7523,-22.54,9.24,13.16,4.15393,8.17573,-43.0127,1014.53
98786,-5.23673,6.13104,6.48015,13.37,39.34,-33.67,5.55761,8.17573,-44.1185,1014.53
98792,-3.4768,10.8369,10.593,-21,41.16,-23.24,6.07325,7.91528,-43.594,1014.55
98798,-3.39072,9.95218,10.0096,-49.21,33.67,-4.69,5.78678,7.97316,-44.0618,1014.55
98804,-2.95074,9.08178,8.51745,-66.36,29.47,6.79,5.95866,8.40724,-43.8917,1014.55
98810,-1.17169,7.07795,9.11525,-79.94,28.91,21.14,6.15919,9.27541,-44.7281,1014.55
98816,-0.731707,6.44189,8.79962,-99.12,34.58,44.03,6.84671,8.69663,-43.835,1014.55
98822,0.655189,4.7011,8.03443,-125.93,46.9,54.46,6.18784,10.1146,-42.8709,1014.53
98828,0.980392,3.21377,10.1722,-144.2,43.82,49.91,7.10453,10.2304,-43.7641,1014.53
98834,0.750837,2.43424,10.6791,-158.06,32.9,37.38,6.1019,11.3011,-43.7216,1014.55
98840,1.49211,1.956,10.3443,-165.2,24.92,11.2,7.07588,11.5037,-43.6648,1014.55
98846,0.808226,2.34338,10.4974,-188.65,9.52,-12.95,6.84671,13.0085,-42.9418,1014.5
98852,1.12865,2.76423,8.6944,-225.96,9.31,-40.18,6.67483,13.3269,-42.5732,1014.5
98858,1.75992,2.53467,10,-235.97,18.06,-63.77,6.904,15.3815,-42.3322,1014.53
98864,1.05213,4.72979,9.32568,-249.41,19.74,-74.06,6.87536,16.5391,-41.2973,1014.53
98870,0.923003,4.99761,10.153,-255.08,20.51,-78.54,6.78942,17.2336,-41.9352,1014.57
98876,0.683883,5.32281,9.92826,-279.37,12.53,-81.06,6.904,19.2015,-40.9995,1014.57
98882,0.57867,4.5385,9.35916,-305.41,20.09,-81.48,6.30242,20.1564,-40.6876,1014.57
98888,0.722142,3.93113,9.59828,-323.12,28.49,-80.99,7.04723,22.3558,-40.6593,1014.51
98894,0.49737,2.88379,10.4687,-339.15,34.09,-84.35,6.38836,24.0053,-39.4259,1014.51
98900,0.707795,2.2286,11.0234,-350.63,45.36,-92.05,7.07588,24.8156,-39.6385,1014.55
98906,-0.13869,1.92731,12.2047,-361.48,47.6,-96.6,6.38836,27.3333,-37.6679,1014.55
98912,0.363462,1.26255,11.5399,-371.28,58.03,-99.75,6.44566,29.1854,-37.3844,1014.56
98918,-0.502152,1.80775,11.626,-391.72,59.64,-86.87,5.98731,31.24,-36.0234,1014.56
98924,-0.989957,0.985174,12.3195,-405.44,56.56,-68.32,6.07325,32.1661,-33.9677,1014.49
98930,-1.80296,0.306074,13.2999,-405.16,41.58,-44.73,6.4743,33.613,-34.4355,1014.49
98936,-1.59732,-0.97561,12.4582,-412.16,20.79,-24.71,6.21648,36.0439,-32.2522,1014.55
98942,-1.52559,-2.33859,12.4725,-395.85,7.63,-5.88,6.50295,36.6516,-30.0406,1014.55
98948,-1.01387,-3.4242,12.2956,-374.43,-3.92,1.4,6.07325,37.8381,-28.6371,1014.56
98954,-0.741272,-4.51459,11.7504,-342.44,-4.48,7.7,5.90137,39.2272,-27.4604,1014.56
98960,-1.05691,-4.36633,11.1,-315.91,-0.98,9.52,6.70347,40.7609,-26.4963,1014.51
98966,-0.918221,-3.93113,9.22047,-298.83,12.74,10.15,6.27378,41.0503,-25.2629,1014.51
98972,-0.846485,-3.90244,8.70875,-296.24,29.33,8.75,6.67483,43.0761,-24.3981,1014.51
98978,-0.798661,-4.58154,9.68914,-283.71,46.9,8.89,6.5316,43.6548,-23.2923,1014.51
98984,-1.37733,-4.32329,10.2152,-287.07,45.78,13.65,6.15919,44.1757,-22.5409,1014.51
98990,-0.83692,-4.39024,10.2535,-297.5,32.2,14.56,7.53423,44.7835,-20.1733,1014.52
98996,-0.234338,-5.17934,10.0717,-314.86,12.11,15.68,7.3337,45.7384,-19.2376,1014.52
99002,-0.325203,-5.71019,10.2152,-325.64,-8.26,14.35,6.67483,46.2883,-18.3161,1014.5
99008,0.109995,-6.51363,9.51698,-332.29,-27.3,4.27,6.64618,46.7224,-16.5581,1014.5
99014,-0.267814,-7.15925,8.84744,-333.9,-43.33,-3.36,6.87536,47.5037,-15.2255,1014.52
99020,-0.506934,-7.79053,8.41702,-325.78,-59.64,-6.65,6.41701,49.0375,-14.5308,1014.52
99026,-1.15734,-8.27355,7.91009,-304.29,-73.78,-9.52,6.87536,49.5005,-12.2199,1014.5
99032,-1.41081,-8.49354,7.83357,-286.09,-86.87,-13.09,6.73212,49.6452,-10.9156,1014.5
99038,-1.39646,-9.01961,7.30751,-258.16,-91.35,-16.38,6.33107,49.7031,-9.79565,1014.57
99044,-1.76471,-8.34051,6.78623,-241.01,-90.72,-15.75,6.0446,50.8317,-8.81743,1014.57
99050,-1.86514,-7.79531,6.32233,-232.54,-84.07,-9.73,6.18784,50.8896,-7.71161,1014.57
99056,-1.73601,-7.6901,5.978,-222.95,-74.2,-7.91,6.07325,51.2658,-6.05289,1014.51
99062,-2.33381,-7.53228,5.93018,-209.72,-65.24,-3.85,5.6722,51.9603,-5.21643,1014.51
99068,-2.02774,-7.52272,5.14108,-203.28,-50.26,-3.22,5.41438,51.5552,-4.47922,1014.54
99074,-1.56384,-7.92444,5.09804,-186.76,-33.81,-5.18,5.55761,51.8445,-3.65695,1014.54
99080,-1.5495,-7.81922,6.07843,-149.24,-18.76,-9.45,5.6149,50.8606,-4.11062,1014.55
99086,-2.24773,-6.77188,5.60976,-134.33,-13.58,1.26,5.75814,52.7417,-2.35265,1014.55
99092,-0.946915,-7.00622,4.75371,-119.91,-0.56,2.87,5.6149,51.9603,-1.28937,1014.54
99098,-0.396939,-7.51793,5.12195,-95.41,16.17,1.05,5.72949,52.3944,0.114171,1014.54
99104,-0.693448,-6.95839,5.33238,-77.84,26.18,5.32,5.18521,51.4105,-0.736457,1014.52
99110,-0.196078,-7.14491,5.01674,-62.23,35.84,4.97,6.15919,52.2786,0.312651,1014.52
99116,-0.0621712,-7.28838,5.17934,-34.16,50.47,1.68,5.47167,52.568,0.908091,1014.5
99122,-0.416069,-7.00143,5.01674,-7.07,61.04,1.05,5.41438,52.5391,0.553663,1014.5
99128,-0.0095648,-7.3649,4.30894,12.39,72.73,-8.19,5.41438,52.2786,-0.12684,1014.53
99134,-0.109995,-7.13534,4.41894,25.62,64.33,-11.2,5.47167,52.597,0.227588,1014.53
99140,3.37637,-6.2219,7.011,36.96,14.14,-21.07,5.27114,52.6838,0.624548,1014.53
99146,2.29555,-6.56145,6.35103,33.53,-0.77,-34.02,5.52897,52.5391,0.128348,1014.55
99152,0.636059,-6.65232,4.62458,11.97,-7.91,-43.54,5.07062,51.6709,-0.566332,1014.55
99158,0.439981,-6.43233,4.3472,-6.37,-3.36,-51.45,5.35709,52.5101,-0.580509,1014.52
99164,-0.0286944,-6.53276,4.25155,-16.45,6.37,-62.37,4.41175,52.7417,-0.467091,1014.52
99170,-1.09517,-6.87709,3.88809,-28.14,14.77,-63.07,3.9534,52.7706,-0.637217,1014.52
99176,-1.61167,-6.86274,3.58202,-38.22,21.35,-56.35,4.26851,52.7417,-0.481269,1014.52
99182,-1.88905,-7.18795,3.87374,-40.04,29.33,-47.67,3.1513,53.0889,0.582017,1014.52
99188,-1.80296,-7.14969,4.04113,-42.28,38.71,-32.55,1.94814,52.5391,-0.254434,1014.52
99194,-1.64515,-6.59015,3.51985,-55.51,43.47,-15.96,3.1513,54.0728,0.241766,1014.5
99200,-0.47824,-7.71401,3.42898,-62.79,54.81,-12.88,2.83618,52.9442,0.681257,1014.5
99206,-0.291726,-7.8814,3.53419,-70.42,68.18,-12.39,2.20596,52.9153,1.53189,1014.54
99212,-0.420851,-7.68053,3.72071,-81.55,73.57,-10.85,3.26588,53.3494,2.72277,1014.54
99218,-0.382592,-7.91009,3.79244,-89.32,72.1,-10.85,2.54972,53.2336,3.1339,1014.54
99224,-0.803443,-7.64706,3.55332,-98.56,63.7,-10.22,3.17994,53.0021,2.90707,1014.55
99230,-0.889526,-7.75227,3.3429,-103.18,52.99,-13.02,3.29453,52.597,2.97795,1014.55
99236,-0.860832,-7.80488,3.03204,-105.21,47.18,-17.29,1.8622,52.568,3.89947,1014.52
99242,-0.808226,-7.76662,2.1999,-110.53,48.44,-20.51,2.86483,53.3783,4.08377,1014.52
99248,-0.693448,-8.21616,1.84601,-114.31,55.79,-25.76,1.83355,53.3783,4.90604,1014.51
99254,-1.12386,-8.43137,2.4725,-118.23,56.77,-31.99,1.71897,53.0021,4.92022,1014.51
99260,-1.82209,-8.37398,3.03682,-125.02,47.46,-35.77,2.00543,52.7127,6.45135,1014.55
99266,-3.35724,-5.27977,-7.0923,-236.53,-167.65,-57.4,1.37521,52.8863,7.01844,1014.55
99272,5.43281,-9.92348,-2.44859,-275.1,-15.89,-76.58,1.4898,53.2336,9.64121,1014.51
99278,-0.0813008,-9.7561,2.65901,-275.38,88.34,-84.91,0.830924,52.6548,9.13083,1014.51
99284,-4.56241,-8.85222,6.72405,-240.38,76.65,-64.68,0.143405,52.7127,11.6544,1014.53
99290,-3.84983,-8.79483,6.28407,-217.28,56.77,-26.81,0.515811,52.6548,12.7035,1014.53
99296,-1.62602,-8.86179,3.86896,-182.35,46.06,-1.19,-0.458173,52.4523,13.8944,1014.53
99302,-1.02343,-8.4792,2.74032,-160.16,56.91,18.83,-0.31494,52.1339,15.1419,1014.54
99308,-0.5978,-8.44572,2.21903,-159.11,70.14,27.02,-0.114415,52.105,14.9435,1014.54
99314,-0.416069,-8.68962,1.80775,-158.27,80.78,25.13,0.114759,51.613,16.2478,1014.55
99320,-0.363462,-8.52702,1.67862,-161.35,79.73,20.37,0.114759,50.687,16.3186,1014.55
99326,-0.109995,-7.65184,1.0856,-177.45,70.07,14.49,0.172052,51.0632,18.2326,1014.52
99332,0.726925,-8.78049,1.58297,-182.84,56.77,3.36,-0.429527,51.0053,19.2675,1014.52
99338,-0.688666,-8.33572,2.63032,-181.02,28.63,-1.47,-0.773286,50.4555,19.31,1014.53
99344,-0.511717,-9.22525,2.49163,-183.05,3.71,-10.01,-0.200354,49.8767,19.2108,1014.53
99350,-0.363462,-9.97609,2.00383,-184.59,-13.72,-28.77,-0.630053,49.3847,21.4649,1014.53
99356,-0.401722,-9.82305,1.66428,-186.69,-20.44,-43.82,-1.83321,48.2561,20.2741,1014.53
99362,-0.683883,-9.79436,1.50167,-190.4,-26.11,-49.42,-0.458173,48.8638,23.0811,1014.54
99368,-0.851267,-9.63175,1.30081,-196,-30.73,-54.81,-0.630053,48.6902,23.9459,1014.54
99374,-0.750837,-9.30177,1.1956,-200.27,-31.71,-55.51,-0.515466,47.7931,23.5915,1014.51
99380,-2.5825,-7.75227,0.13869,-215.39,-23.45,-37.73,-1.40351,46.8092,24.91,1014.51
99386,-2.36251,-7.19273,-3.48159,-236.6,12.95,-9.38,-1.9478,46.9249,26.5545,1014.51
99392,-1.85557,-9.07221,-0.81779,-234.92,32.97,9.38,-1.68998,46.8671,27.2492,1014.52
99398,-1.81731,-9.56958,2.61597,-220.78,36.05,29.89,-2.63531,45.3044,27.8872,1014.52
99404,-0.645624,-8.98135,0.908656,-223.86,29.82,43.47,-2.00509,45.015,28.8654,1014.51
99410,0.779531,-9.8374,-1.32951,-238.7,26.74,42,-1.28892,43.8285,30.0563,1014.51
99416,0.454328,-10.2487,-0.765184,-243.74,33.32,39.48,-1.37486,43.6548,30.8219,1014.53
99422,0.483022,-10.4304,-0.483022,-243.18,42.49,30.94,-0.916519,42.8735,32.1262,1014.53
99428,0.989957,-10.4926,-0.157819,-236.74,35.07,17.08,-1.4608,41.1661,33.1753,1014.53
99434,1.75992,-10.1769,-0.636059,-231.14,23.45,4.48,-1.11705,42.1211,34.4229,1014.53
99440,1.61167,-10.2965,0.487805,-222.6,8.96,-12.53,-1.80456,40.5584,34.7347,1014.51
99446,1.48733,-10.3013,0.25825,-216.72,2.73,-36.75,-1.54674,40.8478,35.6279,1014.51
99452,0.803443,-10.0383,-0.306074,-211.96,-6.23,-50.68,-1.23163,39.2561,37.0314,1014.51
99458,0.502152,-10.0813,-1.37733,-215.32,-14.84,-65.17,-1.60404,38.4169,37.556,1014.51
99464,0.25825,-9.5648,-1.99904,-220.08,-14.42,-70.07,-1.48945,37.404,38.4066,1014.51
99470,-0.186514,-8.94787,-1.94165,-221.13,-4.76,-70.56,-2.95043,36.6516,38.8745,1014.52
99476,-1.19082,-8.72788,-1.34385,-216.23,-2.45,-64.82,-2.83584,35.986,39.7393,1014.52
99482,-1.57819,-8.4505,-1.5495,-205.24,-0.21,-54.74,-2.26291,36.1597,40.2071,1014.49
99488,-1.13343,-8.87613,-0.583453,-182.28,-0.35,-43.96,-2.83584,34.7995,41.8091,1014.49
99494,-1.04735,-9.07699,0.0382592,-142.24,-5.11,-31.78,-2.86449,33.613,40.4198,1014.53
99500,-0.602582,-9.11047,-0.306074,-100.03,-9.66,-16.45,-2.97907,32.8896,42.5464,1014.53
99506,-0.521282,-8.4792,-0.899091,-75.32,-7.14,-6.79,-3.35148,33.2947,42.277,1014.55
99512,-1.04256,-8.11095,-1.13343,-48.3,-16.94,1.26,-2.60667,31.1243,42.3621,1014.55
99518,-1.02343,-7.17838,-2.00383,-49.91,-23.66,9.73,-2.09103,32.0503,42.6881,1014.54
99524,-0.636059,-5.98757,-2.44381,-73.08,-26.46,19.32,-2.72125,31.9056,42.3479,1014.54
99530,0.602582,-4.52893,-4.0746,-122.01,-21.84,35.28,-2.66396,31.7899,42.2061,1014.5
99536,1.12386,-4.77284,-4.76327,-169.33,-14.77,53.55,-2.20562,31.4716,42.3479,1014.5
99542,1.46341,-6.31755,-5.17934,-199.57,-10.71,53.41,-2.14832,29.2143,44.4036,1014.5
99548,1.66906,-8.07269,-4.68675,-222.74,-8.4,36.26,-0.973812,28.4619,43.6947,1014.52
99554,1.6308,-8.16356,-6.95839,-233.94,2.31,14.49,-1.71862,27.6227,45.9772,1014.52
99560,1.16691,-6.85796,-9.46437,-246.68,27.72,-2.59,-2.66396,25.7706,44.5312,1014.53
99566,-0.143472,-7.15447,-9.70349,-247.03,51.94,-21.56,-1.43216,25.4523,45.1266,1014.53
99572,-0.961262,-7.97704,-8.4792,-230.16,65.24,-35.42,-2.3202,24.5262,45.6086,1014.52
99578,-1.23386,-7.65662,-7.80009,-213.85,74.97,-37.73,-2.7499,23.1082,46.4167,1014.52
99584,-1.09517,-8.43137,-5.87279,-195.58,73.64,-38.15,-3.40877,22.0953,46.4309,1014.51
99590,-0.760402,-8.95265,-4.89718,-172.34,68.6,-31.85,-3.38013,21.314,47.083,1014.51
99596,-0.0813008,-8.7231,-4.8924,-147.77,68.53,-24.43,-3.58065,19.8671,46.6719,1014.54
99602,0.133907,-7.94357,-5.5715,-123.48,68.18,-17.71,-3.78118,20.6484,47.6643,1014.54
99608,0.301291,-8.17312,-5.16977,-97.09,77.77,-20.65,-4.49734,19.7224,47.9195,1014.5
99614,-0.71736,-7.84792,-5.38498,-75.81,73.15,-21.77,-4.4687,19.2304,47.6218,1014.5
99620,-0.607365,-8.2066,-5.12195,-46.69,61.04,-17.15,-5.04163,18.8253,48.3448,1014.5
99626,-0.329986,-8.56528,-5.58106,-13.09,50.26,-15.26,-5.38539,19.2593,48.7843,1014.5
99632,0.0621712,-7.65184,-5.92539,9.24,39.69,-13.51,-6.33072,18.449,48.0896,1014.5
99638,0.133907,-7.934,-6.088,30.59,32.48,-13.93,-5.78644,19.2015,48.2172,1014.51
99644,-0.13869,-7.83835,-6.14538,46.48,24.64,-14.07,-6.01561,19.9828,47.3241,1014.51
99650,-0.263032,-7.97704,-6.43233,52.78,7.07,-15.96,-6.10155,18.7963,48.3732,1014.51
99656,0.181731,-8.94309,-8.11573,55.86,-7.21,-15.47,-6.5599,20.1275,48.5149,1014.51
99662,1.06648,-9.69392,-8.45528,63.84,-6.09,-15.33,-5.61456,20.3301,46.8846,1014.55
99668,1.51602,-9.6748,-8.42659,72.8,2.38,-13.86,-6.61719,19.9828,47.2532,1014.55
99674,1.09995,-8.967,-7.5801,80.92,7,-12.95,-6.76042,20.5616,47.5934,1014.53
99680,0.85605,-8.70875,-7.28838,88.13,12.18,-15.54,-6.38802,20.6484,47.083,1014.53
99686,0.473458,-8.74223,-6.96796,98.42,19.67,-20.86,-6.5599,21.6902,47.0547,1014.49
99692,0.0334768,-8.77092,-6.45624,111.72,23.38,-20.3,-7.21877,22.24,46.9129,1014.49
99698,0.162602,-9.34003,-5.67671,138.6,27.93,-12.25,-7.24742,22.4137,47.5509,1014.5
99704,-0.10043,-9.62697,-4.99283,166.25,29.89,-1.75,-7.10418,24.15,47.5792,1014.5
99710,-0.301291,-9.66523,-4.43807,198.31,28.07,11.69,-7.33336,25.1339,46.7428,1014.5
99716,-0.325203,-9.66045,-4.5385,228.2,26.67,21.91,-7.33336,25.7995,46.1899,1014.54
99722,-0.157819,-9.12004,-4.95457,249.76,26.18,28.49,-7.64847,26.1757,45.0841,1014.54
99728,0.396939,-9.2396,-5.43281,266.84,28.28,28.56,-7.50524,27.2175,45.0699,1014.54
99734,0.526064,-8.98613,-5.55237,292.04,36.33,28.77,-7.87764,28.9539,44.3327,1014.54
99740,0.420851,-8.51745,-5.31325,321.79,41.72,35.14,-8.02087,30.4298,43.482,1014.51
99746,0.913438,-9.14873,-4.12243,361.13,43.33,35.84,-7.90629,32.2529,42.8299,1014.51
99752,0.899091,-8.34529,-4.4572,386.68,44.66,43.33,-6.90366,33.2947,41.157,1014.49
99758,1.77905,-7.08752,-4.45241,389.55,45.22,47.95,-8.25005,35.6388,40.0654,1014.49
99764,2.18556,-6.03061,-4.38068,381.22,43.47,56.56,-8.59381,37.0857,39.4416,1014.51
99770,0.167384,-7.97226,-2.94596,398.16,28.07,51.31,-9.53914,37.2304,37.4142,1014.51
99776,-0.153037,-10.4304,-2.85988,427.98,15.68,45.78,-8.59381,40.5584,36.1666,1014.53
99782,-0.282162,-9.88044,-3.48637,432.39,12.53,33.74,-8.39328,40.8767,33.6856,1014.53
99788,-0.0191296,-11.7312,-2.21425,443.52,13.09,26.6,-7.76305,42.2079,32.8917,1014.52
99794,0.57867,-11.2052,-2.75466,460.25,21.91,21.28,-8.07817,44.031,30.7226,1014.52
99800,0.277379,-10.4495,-1.74079,472.78,11.97,15.61,-7.90629,45.2175,30.2406,1014.52
99806,0.664754,-10.1196,-2.33381,479.29,7.21,8.61,-7.67711,47.1275,26.512,1014.49
99812,0.420851,-10.1722,-1.23864,482.58,0.14,3.85,-7.93494,48.2272,24.3996,1014.49
99818,-0.023912,-9.07221,-0.784314,490.35,-6.44,1.96,-7.67711,49.6162,22.0179,1014.53
99824,-0.21999,-8.90005,-0.0669536,502.25,-15.75,-3.64,-7.84899,50.3397,19.948,1014.53
99830,-0.277379,-7.64228,-0.023912,506.94,-10.29,0.91,-7.67711,51.2079,18.2042,1014.52
99836,-0.186514,-8.36442,0.755619,525.07,1.05,15.61,-7.73441,51.3236,15.3262,1014.52
99842,-0.0382592,-7.58967,2.43424,552.79,15.68,33.32,-7.39065,52.5391,12.7744,1014.51
99848,-0.200861,-7.4175,2.29077,562.8,26.95,43.96,-7.362,53.0021,10.5202,1014.51
99854,-0.153037,-7.99139,2.83118,575.82,49.42,55.37,-6.70313,53.4941,7.14603,1014.52
99860,0.430416,-8.75179,2.81205,591.71,67.34,59.57,-6.41666,53.523,3.64428,1014.52
99866,1.15256,-9.26351,3.16595,593.18,66.01,55.65,-6.38802,52.9732,0.482777,1014.5
99872,0.679101,-8.77092,4.36155,578.9,52.99,50.89,-6.58854,52.6548,-2.16835,1014.5
99878,0.81779,-8.35007,4.6724,557.06,43.96,44.8,-6.53125,53.0021,-5.65593,1014.5
99884,1.36298,-8.82353,4.87327,528.64,35.91,35.77,-5.49997,52.6838,-8.80325,1014.51
99890,0.502152,-8.20182,5.92539,499.24,29.61,29.33,-6.38802,51.3815,-11.341,1014.51
99896,-0.61693,-7.95313,6.91057,492.59,31.36,37.31,-4.86975,50.8896,-12.6311,1014.51
99902,-0.540411,-6.15973,6.83883,472.92,30.66,43.33,-4.98434,50.4265,-16.2037,1014.51
99908,0.181731,-4.41416,6.20756,430.78,32.27,32.48,-4.49734,49.5005,-18.4721,1014.49
99914,-0.325203,-4.31851,8.57484,418.46,28.7,34.44,-4.32546,48.1693,-20.5845,1014.49
99920,-0.334768,-4.46676,8.90961,404.6,24.36,42,-3.92441,47.851,-20.8538,1014.57
99926,-0.435198,-3.22812,8.93831,380.66,24.78,50.61,-3.29419,46.6066,-23.4624,1014.57
99932,-0.353898,-3.01291,10.0909,363.79,26.6,53.62,-3.09366,44.7835,-24.4123,1014.55
99938,-0.282162,-2.83118,9.06265,340.76,29.19,48.16,-3.03637,44.3783,-25.7875,1014.55
99944,-0.588235,-2.57293,8.8857,320.39,27.09,40.95,-2.97907,42.9314,-27.7864,1014.55
99950,-1.12386,-3.10378,9.1583,306.67,21,35.91,-2.52073,42.9314,-28.2968,1014.55
99956,-1.0856,-2.44859,8.89526,297.15,14.49,30.87,-2.80719,41.2529,-30.6928,1014.55
99962,-1.09039,-2.85509,8.82353,305.27,13.44,23.45,-2.66396,39.806,-31.5576,1014.52
99968,-1.0043,-2.89335,8.6418,310.66,19.88,20.93,-2.29156,39.4876,-32.1672,1014.52
99974,-1.17169,-2.60641,10.6313,316.4,15.12,24.01,-3.66659,38.0696,-33.5707,1014.52
99980,-0.846485,-4.03635,10.9421,334.81,8.61,10.71,-1.83321,36.478,-34.0953,1014.52
99986,0.0908656,-4.9737,11.0617,373.94,1.75,-4.9,-2.11968,34.7127,-35.7256,1014.48
99992,0.143472,-5.25108,10.99,408.03,-5.18,-19.6,-2.34885,34.0761,-36.4061,1014.48
99998,-1.26734,-4.35198,10.2535,437.15,-24.64,-31.22,-1.77592,30.9796,-37.6537,1014.51
100004,-0.793878,-3.00813,10.1052,464.66,-33.81,-48.3,-2.7499,29.4748,-39.0573,1014.51
100010,-1.0043,-1.64036,9.23481,474.04,-41.79,-58.38,-2.43479,27.5937,-40.5317,1014.53
100016,-1.12386,0.913438,8.66093,462.35,-55.3,-63.21,-3.55201,25.1339,-41.4532,1014.53
100022,-0.363462,1.956,7.51793,432.32,-55.51,-69.72,-3.09366,23.1661,-42.4598,1014.48
100028,0.23912,2.73553,6.70493,391.93,-44.87,-75.46,-3.69524,21.5744,-42.6583,1014.48
100034,1.3056,3.13725,6.88187,345.31,-37.17,-89.25,-3.9817,19.0278,-43.9909,1014.53
100040,-0.047824,2.47728,6.95361,303.87,-13.02,-89.32,-4.09629,18.6227,-43.835,1014.53
100046,-0.468675,5.30846,6.32712,255.92,21.7,-72.31,-4.69787,16.1339,-44.6572,1014.53
100052,-0.310856,4.28503,7.71879,227.78,60.76,-72.73,-4.26817,15.0632,-44.7565,1014.52
100058,-2.54424,4.9737,9.17743,207.41,91.63,-70.7,-4.15358,14.2818,-45.6071,1014.52
100064,-2.92683,5.75323,9.85174,193.9,113.89,-63.91,-2.92178,12.6902,-44.9691,1014.5
100070,-3.45289,6.62362,11.3965,182.21,124.53,-60.76,-3.09366,12.0825,-44.4021,1014.5
100076,-3.62028,6.9297,11.4634,157.15,121.94,-62.93,-2.23426,11.0117,-46.0041,1014.5
100082,-3.53419,6.7384,11.5543,132.09,115.64,-65.73,-2.09103,9.91207,-45.4653,1014.5
100088,0.172166,3.87374,10.067,211.26,40.6,24.78,-0.715993,9.13072,-45.2102,1014.53
100094,1.10473,1.50167,11.1095,269.5,0.56,8.75,-1.23163,7.45226,-45.6213,1014.53
100100,1.96078,2.74988,10.9469,248.85,2.52,-17.78,-1.05975,6.58409,-45.678,1014.49
100106,-1.32951,3.97896,8.88092,277.48,-8.05,-18.2,-1.14569,5.19503,-45.2102,1014.49
100112,-2.54902,4.38546,8.39311,309.68,-38.57,-17.92,-0.429527,3.8349,-45.7064,1014.52
100118,-1.66906,5.20803,7.57532,312.48,-66.22,-26.04,-1.60404,2.35901,-45.3236,1014.52
100124,-1.0856,5.79627,7.00622,307.16,-87.5,-52.29,-1.8905,0.506923,-45.9757,1014.52
100130,-1.19082,5.24151,7.20708,302.75,-83.86,-60.2,-2.26291,-0.968961,-45.4512,1014.5
100136,-0.554758,5.96844,6.77666,288.68,-62.51,-52.01,-2.29156,-1.95288,-45.4086,1014.5
100142,-0.511717,6.58536,6.71927,245.7,-52.08,-54.53,-3.40877,-4.23906,-44.8557,1014.51
100148,-0.153037,5.76757,4.52415,228.06,-18.55,-60.34,-3.06501,-4.99147,-44.5438,1014.51
100154,-1.48254,6.02104,5.73888,218.19,-14.07,-59.64,-2.23426,-5.80176,-44.2886,1014.47
100160,-2.84075,7.29316,5.52367,181.58,-25.13,-69.3,-3.09366,-7.30658,-44.4729,1014.47
100166,-3.43376,7.41272,5.2989,146.65,-24.64,-66.29,-3.40877,-7.50915,-44.4162,1014.47
100172,-3.55811,7.22142,5.88713,130.06,-25.41,-51.59,-2.89313,-8.37732,-44.1327,1014.47
100178,-3.29029,7.01578,6.29364,106.96,-30.24,-43.26,-3.00772,-9.70851,-43.8208,1014.53
100184,-2.88379,6.79579,6.04974,86.17,-25.62,-35.7,-3.32283,-9.96896,-43.0836,1014.53
100190,-1.60689,6.06887,5.74366,76.79,-6.51,-29.19,-3.00772,-9.88214,-43.4238,1014.47
100196,-0.894309,5.31803,5.11239,52.71,14.42,-33.11,-3.35148,-10.2873,-42.7292,1014.47
100202,-2.02774,5.1076,5.27021,35.98,33.6,-32.62,-3.06501,-11.6764,-42.3605,1014.52
100208,-3.74462,6.52319,6.19799,41.44,40.95,-11.9,-3.43742,-11.358,-43.0836,1014.52
100214,-4.91152,7.74749,6.54711,63.28,47.67,27.51,-2.83584,-11.358,-42.8426,1014.52
100220,-4.22764,9.20612,6.88187,92.61,51.31,74.06,-2.72125,-12.313,-42.8284,1014.51
100226,-3.33333,9.94261,7.50837,121.17,52.85,106.68,-2.14832,-12.1973,-42.6441,1014.51
100232,-3.16595,10.2965,8.26399,148.61,51.17,134.96,-2.7499,-13.4127,-42.7859,1014.53
100238,-3.52463,9.99522,8.40268,182.84,41.44,156.45,-2.92178,-14.6571,-41.9778,1014.53
100244,-2.90292,7.95313,11.1813,196.56,14.56,152.81,-2.60667,-15.3516,-42.1621,1014.51
100250,-1.31038,8.09182,5.79627,210.77,21.49,151.34,-3.20825,-15.6699,-41.8643,1014.51
100256,-1.28168,7.14969,8.4505,267.89,23.03,157.43,-2.57802,-17.0011,-40.8578,1014.5
100262,-1.65949,4.945,10.0813,310.31,8.33,150.08,-4.21088,-18.4481,-40.4466,1014.5
100268,-0.813008,5.31325,5.88235,329,27.23,155.89,-3.32283,-20.1555,-39.5251,1014.54
100274,-0.329986,4.98326,6.7671,346.64,41.58,154.42,-3.75253,-21.8339,-38.958,1014.54
100280,-0.133907,4.27547,7.02535,358.68,44.31,139.93,-3.06501,-23.7149,-38.3626,1014.54
100286,-0.425634,4.69153,5.55715,365.47,54.53,125.51,-4.01035,-24.8725,-36.2644,1014.54
100292,-0.267814,5.868,5.08847,362.32,54.39,106.82,-3.43742,-26.0301,-35.995,1014.54
100298,-0.124342,6.43233,4.37111,359.31,51.8,89.53,-4.52599,-27.5349,-34.8041,1014.52
100304,0.35868,8.30225,3.81636,353.99,47.46,79.52,-4.32546,-28.8661,-33.67,1014.52
100310,1.08082,8.98613,3.3955,354.13,36.4,70.14,-4.78381,-30.5156,-32.0396,1014.49
100316,1.90818,9.00048,2.17121,359.24,29.82,59.36,-4.55464,-31.7021,-30.9479,1014.49
100322,2.04208,10.6121,0.779531,363.16,28.14,52.15,-4.8411,-32.7439,-29.2467,1014.51
100328,1.99904,10.11,0.0430416,358.75,31.85,51.38,-4.86975,-34.4223,-27.5454,1014.51
100334,1.26734,9.91392,-1.09995,337.12,17.92,52.15,-4.55464,-35.3194,-26.6665,1014.52
100340,0.999522,9.69871,-2.20469,323.26,27.09,60.62,-4.66922,-36.2165,-26.4254,1014.52
100346,1.63558,8.78049,1.29125,345.24,22.82,57.61,-4.78381,-37.1715,-25.2346,1014.51
100352,1.73123,8.55093,0.511717,383.46,34.86,59.29,-5.15621,-38.9368,-22.1581,1014.51
100358,1.68819,8.2066,0.420851,407.19,28.7,59.01,-5.24215,-39.8339,-20.2584,1014.52
100364,3.36681,6.54232,-0.315638,426.44,12.81,43.68,-5.87238,-40.4127,-19.351,1014.52
100370,3.04161,6.78144,-1.81731,434.42,0.21,33.6,-5.38539,-41.5992,-16.7425,1014.52
100376,2.43424,7.47489,-2.46294,442.26,-4.48,30.52,-6.53125,-42.1201,-15.1404,1014.49
100382,2.879,7.43663,-3.51985,445.13,-1.82,31.5,-7.10418,-42.7278,-13.8078,1014.49
100388,3.16595,8.10139,-5.51411,426.23,2.03,35.42,-6.70313,-43.567,-10.0367,1014.53
100394,2.34338,9.03395,-7.1736,395.08,-3.15,40.88,-6.5599,-44.2326,-9.49793,1014.53
100400,2.08034,9.41176,-7.53706,348.04,-14.07,41.44,-7.47659,-44.1458,-6.63415,1014.55
100406,2.05643,10.8704,-9.5648,293.02,-4.69,53.13,-6.64584,-44.2616,-4.97542,1014.55
100412,1.88427,10.923,-7.49402,257.74,-13.37,54.25,-7.10418,-45.477,-4.01138,1014.5
100418,1.20995,9.98087,-6.98709,234.85,-26.04,54.81,-7.84899,-44.8693,-3.04733,1014.5
100424,0.095648,9.77523,-8.18269,210.84,-25.97,64.96,-8.2214,-45.1008,-2.36683,1014.49
100430,0.387374,9.3209,-6.95839,202.16,-5.39,78.89,-8.47922,-45.014,-1.06253,1014.49
100436,2.42946,8.38355,-5.85366,211.75,7.28,83.37,-9.02351,-44.985,-0.552154,1014.51
100442,2.58728,7.58489,-6.23147,217,15.12,82.04,-10.1121,-44.8693,1.39011,1014.51
100448,3.40985,7.46054,-5.83453,221.9,16.31,77.77,-10.198,-44.8114,2.33998,1014.52
100454,3.18986,7.63749,-6.28407,231.35,18.27,76.3,-10.1121,-44.6956,3.84276,1014.52
100460,2.51554,7.79531,-7.26925,234.08,24.85,76.65,-11.2006,-44.9272,3.74352,1014.52
100466,1.80775,8.10139,-6.65232,236.67,25.2,78.4,-11.4012,-44.6378,5.2463,1014.49
100472,2.3099,7.67575,-6.84361,238.98,27.86,76.16,-11.6303,-44.2037,7.42958,1014.49
100478,2.14252,7.2836,-6.88187,231.28,28.56,71.89,-12.1746,-44.0879,7.81236,1014.51
100484,2.12339,6.83405,-6.53276,223.09,27.86,69.3,-12.4325,-43.7985,8.4078,1014.51
100490,2.27164,6.48972,-6.93448,215.39,30.87,69.44,-12.6043,-43.3934,9.59868,1014.51
100496,2.36251,6.47537,-7.6088,208.88,38.64,72.31,-12.7476,-43.7696,10.265,1014.51
100502,2.36729,6.88666,-8.22095,175,58.03,77.91,-13.3205,-42.9014,11.9237,1014.54
100508,1.69297,5.90626,-8.54137,177.38,70.49,84.35,-14.3804,-42.4674,13.8518,1014.54
100514,1.47298,7.11621,-8.3692,152.32,77.35,97.09,-14.1512,-42.2937,14.7733,1014.53
100520,3.58202,6.35581,-9.09613,112,91.49,80.43,-15.1252,-42.178,14.4473,1014.53
100526,0.659971,6.50885,-6.44189,122.57,98.42,79.59,-15.7841,-41.686,15.5389,1014.49
100532,-0.769966,6.31277,-5.25586,121.45,81.06,78.96,-16.5289,-41.2809,15.8508,1014.49
100538,0.923003,6.00191,-5.27499,108.57,59.85,63.98,-16.6149,-40.9047,16.0067,1014.49
100544,0.234338,6.37972,-3.40029,76.58,20.02,53.9,-17.6175,-40.9336,17.226,1014.5
100550,-0.363462,6.8484,-4.28981,44.66,-6.16,45.5,-17.2451,-41.1072,16.7865,1014.5
100556,-0.549976,7.23099,-5.28455,27.23,-16.24,39.27,-17.2737,-40.6731,17.1693,1014.52
100562,-0.368245,7.75705,-6.4132,9.94,-14.21,30.59,-17.9612,-40.6442,16.6447,1014.52
100568,0.301291,8.0966,-6.2219,10.43,-8.05,19.6,-18.0185,-40.7889,16.3328,1014.52
100574,0.296509,7.56576,-7.18317,12.18,6.86,11.34,-17.2737,-40.4416,17.3961,1014.52
100580,0.679101,8.19703,-6.92492,8.89,14.14,5.67,-17.6748,-40.5574,16.829,1014.53
100586,1.85079,7.82401,-6.41798,4.41,20.16,5.46,-17.9039,-41.0204,16.3754,1014.53
100592,3.21856,6.92492,-5.91583,4.27,20.09,-1.19,-16.9013,-40.8757,16.5171,1014.49
100598,2.6638,7.07795,-5.7341,13.51,-0.7,-8.75,-17.818,-40.2969,16.2761,1014.49
100604,2.5012,6.18843,-6.31755,22.82,-11.48,-5.88,-17.9039,-39.9497,16.8432,1014.55
100610,3.24725,5.55237,-6.27451,27.02,-25.48,-7.63,-17.5315,-39.8629,17.1267,1014.55
100616,3.62028,5.70062,-7.02056,22.75,-33.53,-3.5,-17.7034,-40.0944,17.4386,1014.53
100622,4.022,5.20325,-7.9627,20.51,-29.47,4.34,-17.8467,-40.2101,17.5946,1014.53
100628,3.68723,5.23195,-7.88618,18.34,-20.93,16.17,-17.5315,-39.5735,17.3252,1014.53
100634,3.48637,4.88761,-7.47011,17.85,-15.12,27.23,-17.9612,-40.1522,17.3252,1014.51
100640,3.3955,5.0263,-7.87183,19.46,-8.68,34.37,-18.4482,-40.1812,17.5095,1014.51
100646,3.56767,5.27499,-8.57963,14.77,-2.31,38.64,-18.9066,-40.0944,17.6513,1014.52
100652,2.88379,6.11669,-8.90483,-4.62,4.2,47.88,-18.0185,-40.0654,18.7288,1014.52
100658,2.63988,6.88187,-8.91439,-33.81,7,53.69,-18.6488,-39.776,18.7996,1014.5
100664,1.83644,6.4945,-9.43568,-69.65,-0.91,61.46,-18.7061,-39.8629,18.5303,1014.5
100670,2.22382,6.53276,-9.55045,-81.69,-22.19,63.49,-19.2503,-40.0365,17.3819,1014.5
100676,3.22334,6.7384,-10.4495,-82.25,-19.11,58.1,-19.0212,-39.342,16.6589,1014.5
100682,3.81157,7.79531,-9.04352,-79.52,-9.31,65.17,-19.7373,-39.8918,16.2619,1014.53
100688,3.64897,6.44189,-9.06743,-66.15,11.06,61.32,-19.9951,-39.2841,16.7723,1014.53
100694,3.03204,5.55715,-5.71019,-52.08,18.13,62.37,-20.7113,-39.5445,15.2695,1014.52
100700,3.54376,4.28981,-4.85892,-32.62,15.96,50.96,-20.654,-38.8211,15.709,1014.52
100706,3.59636,3.8307,-4.38068,-15.96,1.05,32.55,-21.0551,-39.1104,16.5313,1014.52
100712,3.03204,3.12769,-3.66332,3.57,-21.56,11.83,-20.5394,-39.313,15.1419,1014.49
100718,3.33812,3.33333,-4.22764,20.3,-39.9,-7.49,-20.8259,-39.8339,16.0209,1014.49
100724,3.49593,3.9933,-5.52845,24.78,-51.73,-22.47,-20.5108,-40.3259,16.4746,1014.48
100730,3.57245,4.61502,-6.11669,20.09,-61.67,-27.79,-20.0811,-40.4127,15.8366,1014.48
100736,3.36681,5.24629,-7.11143,2.38,-70.28,-30.8,-20.9691,-40.0365,16.0209,1014.5
100742,2.88379,5.66236,-7.25968,-15.26,-76.23,-30.03,-20.74,-40.0944,15.8792,1014.5
100748,2.16643,5.91583,-7.39359,-22.68,-75.95,-25.55,-20.1097,-40.3548,15.6807,1014.49
100754,1.90818,6.12147,-7.08273,-22.75,-74.97,-18.48,-19.5082,-39.6024,15.9642,1014.49
100760,2.45815,6.21234,-7.3649,-26.25,-69.51,-20.79,-18.5055,-40.0654,16.0067,1014.49
100766,0.612147,6.19321,-6.67145,-9.38,-75.04,-25.55,-18.7347,-39.9207,15.5531,1014.49
100772,1.10952,6.54232,-7.47011,2.94,-79.24,-26.81,-18.8206,-40.731,16.7298,1014.55
100778,1.53993,6.7384,-7.21186,19.46,-73.71,-25.62,-18.0185,-40.76,16.2903,1014.55
100784,1.36777,7.24055,-7.32185,27.23,-61.95,-26.74,-17.8467,-41.0493,15.8083,1014.55
100790,0.5978,7.18317,-6.37972,27.16,-57.47,-31.22,-18.1904,-40.5863,16.588,1014.52
100796,0.593018,7.48924,-6.17408,28.77,-41.79,-24.15,-18.1618,-40.7021,17.8356,1014.52
100802,1.05691,7.29316,-6.80057,21.42,-22.12,-18.83,-17.7607,-40.2969,17.7505,1014.52
100808,2.5012,7.30273,-8.2592,8.61,-3.57,-12.67,-17.4743,-40.4995,17.6513,1014.52
100814,2.34338,7.80966,-9.08178,0,1.19,-0.42,-17.5602,-40.0075,17.6796,1014.5
100820,1.88905,7.06839,-9.16308,-5.11,-1.68,-3.57,-17.3024,-40.0944,18.5161,1014.5
100826,1.18125,8.0966,-8.10617,-10.29,-4.34,-1.4,-17.7894,-39.6603,18.5728,1014.49
100832,1.32951,6.96796,-8.40268,0.35,-4.62,-3.57,-18.1045,-40.8757,18.3318,1014.49
100838,2.60163,6.55667,-8.82353,34.86,-1.47,0.77,-17.9039,-41.0204,17.8356,1014.51
100844,2.37685,6.37972,-8.86179,45.08,10.22,-1.68,-17.417,-40.731,18.2042,1014.51
100850,1.20995,6.31277,-8.33572,64.4,19.04,-5.25,-16.9873,-40.7889,18.1191,1014.53
100856,1.14778,7.26925,-7.68532,79.38,21.35,-4.27,-17.9039,-40.76,18.1191,1014.53
100862,1.95122,6.55667,-8.15399,94.08,23.03,-4.55,-17.9039,-40.76,18.9698,1014.55
100868,2.09947,5.92539,-8.57484,107.8,38.22,6.86,-17.4743,-39.7182,19.1257,1014.55
100874,2.34816,5.75801,-8.43615,110.53,45.85,10.99,-18.1904,-39.2262,19.5936,1014.55
100880,2.3912,5.69584,-8.05834,99.26,42,8.68,-18.3623,-39.6892,19.5085,1014.53
100886,2.68293,5.36107,-8.48398,97.09,41.44,8.75,-18.5628,-38.85,19.4376,1014.53
100892,2.96509,5.09804,-8.967,110.53,46.83,15.54,-18.9639,-39.342,20.6994,1014.5
100898,3.44333,4.5911,-8.74223,124.6,46.62,22.26,-18.5342,-39.3709,20.6568,1014.5
100904,3.89766,4.28025,-8.58441,134.12,41.09,21.56,-18.4196,-38.5895,21.6209,1014.49
100910,4.03635,4.41894,-8.76614,135.87,41.16,25.2,-19.1071,-38.3001,22.6416,1014.49
100916,3.98374,4.00765,-8.85701,125.23,40.18,24.64,-18.7061,-37.5477,22.8827,1014.5
100922,3.54376,4.28503,-8.91918,106.26,43.89,32.48,-19.3649,-38.0397,23.6624,1014.5
100928,3.41942,4.17025,-8.5318,84.35,49.63,39.27,-19.3936,-37.1715,22.9677,1014.51
100934,3.14682,3.60115,-8.38355,57.61,52.43,42.84,-19.5941,-36.8821,23.6908,1014.51
100940,3.45768,3.44333,-7.76662,54.04,57.89,46.13,-19.4795,-37.1426,23.393,1014.52
100946,3.53898,3.30464,-8.01052,52.57,60.83,45.08,-20.5108,-36.0719,23.3363,1014.52
100952,3.64897,3.65854,-7.90531,52.57,59.29,44.31,-20.8545,-36.1297,25.151,1014.52
100958,3.40507,3.54854,-8.40746,47.04,59.43,44.94,-20.4535,-35.6667,24.4989,1014.51
100964,3.32377,3.76853,-8.31181,35.14,58.17,47.04,-21.3129,-35.8982,24.4138,1014.51
100970,3.40507,3.57245,-8.02009,13.86,51.24,45.15,-22.4015,-35.7246,24.2578,1014.53
100976,3.51985,3.07987,-7.52272,3.43,36.47,34.65,-22.115,-35.522,24.2578,1014.53
100982,3.73984,3.38116,-6.88666,7.77,22.05,28.49,-21.9718,-35.3484,24.4705,1014.49
100988,3.95504,3.66332,-7.16404,17.71,12.11,26.32,-22.3442,-36.1876,24.8816,1014.49
100994,3.30464,3.73027,-7.84314,27.79,14.14,21.56,-21.6567,-35.6957,25.7039,1014.5
101000,2.65423,5.35151,-8.8044,32.76,30.45,28.07,-22.7166,-34.9143,24.2862,1014.5
101006,1.99426,5.81062,-8.03921,48.79,40.81,25.41,-22.8312,-35.3773,24.6264,1014.52
101012,1.93209,6.39407,-8.16834,55.02,46.48,17.99,-22.602,-34.9722,25.1368,1014.52
101018,1.87948,5.75323,-7.88618,53.06,45.36,17.57,-23.2036,-34.6538,24.428,1014.52
101024,2.81205,5.21282,-8.34051,44.17,40.88,12.81,-23.0603,-34.4802,24.9242,1014.52
101030,2.82162,4.55285,-7.83357,28.98,35.14,2.1,-23.1463,-34.567,26.1859,1014.52
101036,2.89335,4.63893,-7.44141,24.85,32.55,1.4,-23.3468,-34.0172,25.5196,1014.52
101042,3.13725,4.13678,-8.00574,25.13,33.11,-6.86,-23.6046,-34.6249,25.7606,1014.52
101048,3.00335,4.64849,-7.87183,20.72,32.34,-6.93,-24.1776,-34.1329,24.9525,1014.5
101054,3.20899,3.92635,-7.18795,29.61,29.47,-4.34,-23.8911,-34.8564,24.6832,1014.5
101060,3.75897,4.08417,-7.56097,47.95,24.64,-1.47,-23.8338,-34.2487,25.151,1014.52
101066,3.95026,4.32329,-8.31659,69.37,22.82,3.64,-23.9484,-33.7567,26.2285,1014.52
101072,3.60115,4.72023,-9.31612,74.06,23.8,7.42,-23.9197,-32.9754,25.1794,1014.52
101078,3.59636,4.39503,-9.26829,85.61,28.07,18.76,-24.8364,-33.9883,25.4629,1014.52
101084,3.55332,4.04591,-9.39742,98.21,36.19,30.59,-24.0916,-33.178,25.6897,1014.51
101090,3.82114,3.60593,-9.25394,101.85,42.21,36.96,-23.7479,-33.3516,26.0725,1014.51
101096,4.20851,3.14682,-8.79005,98.84,48.09,35.14,-25.4667,-33.7857,24.8675,1014.52
101102,3.99809,3.37637,-9.00526,80.78,54.18,36.47,-24.8937,-31.7021,26.0442,1014.52
101108,4.14156,2.81205,-8.8044,72.24,59.64,36.89,-25.1229,-31.5574,27.7312,1014.52
101114,4.05548,3.03204,-9.13917,70.56,66.43,39.2,-25.7245,-31.2101,26.6396,1014.52
101120,4.06982,3.05117,-9.44524,74.41,76.58,38.71,-26.4979,-31.2101,26.7247,1014.52
101126,4.23242,3.25681,-9.3209,82.46,87.5,39.69,-26.5839,-30.805,27.7596,1014.52
101132,4.45241,3.38594,-9.75131,86.66,104.58,44.31,-27.2714,-30.7471,27.3626,1014.52
101138,4.39024,3.10378,-10.0335,82.6,118.44,46.83,-27.9876,-30.5445,27.4335,1014.52
101144,4.47633,3.2329,-9.36394,70,126.7,50.54,-27.5292,-30.5445,27.9864,1014.52
101150,4.07939,2.77857,-8.71353,51.94,127.47,53.9,-28.9329,-29.1844,26.8806,1014.53
101156,4.51459,2.8264,-8.37877,38.71,140.56,54.25,-29.8209,-28.5188,27.1925,1014.53
101162,4.71066,3.18986,-8.30225,24.22,154.14,58.59,-30.3366,-28.5477,28.1424,1014.49
101168,5.09326,2.86944,-8.57963,12.39,163.1,66.01,-30.0788,-28.7214,25.7606,1014.49
101174,5.22238,2.40076,-8.55571,1.75,165.76,70.21,-30.8236,-27.2744,25.633,1014.48
101180,5.43759,2.42468,-8.29268,-4.62,158.97,74.9,-31.2819,-28.1137,25.392,1014.48
101186,6.1693,2.45337,-8.19225,-13.23,158.13,77.42,-32.084,-27.2165,24.7966,1014.5
101192,6.59015,2.60163,-8.66093,-21.84,159.81,85.68,-33.3445,-27.1008,23.8184,1014.5
101198,6.07843,2.34816,-8.41702,-25.97,161,94.99,-33.5736,-26.6667,24.3571,1014.5
101204,5.6241,2.30033,-7.80966,-33.53,151.41,108.5,-34.3471,-26.6956,23.0103,1014.51
101210,5.72932,2.34816,-7.55141,-31.78,136.22,119.77,-35.1778,-26.4641,23.2513,1014.51
101216,6.2219,1.88905,-6.91057,-13.93,124.25,121.52,-36.0086,-26.6088,23.1662,1014.49
101222,6.32233,1.65471,-6.68101,3.29,110.6,116.97,-36.8393,-25.6828,21.6918,1014.49
101228,6.36059,1.64993,-6.62362,16.38,99.33,108.99,-37.0685,-25.2198,22.1313,1014.48
101234,6.50885,1.69297,-6.70971,29.68,93.94,101.99,-37.6701,-24.5542,20.7419,1014.48
101240,6.36537,2.27642,-7.43663,36.33,92.82,98.91,-38.4436,-24.5542,20.7277,1014.51
101246,6.34146,2.72119,-8.12052,35.63,102.76,103.6,-38.9306,-23.4545,20.6994,1014.51
101252,6.27929,3.06074,-8.25442,37.03,119.84,115.71,-38.7587,-23.2519,20.8128,1014.5
101258,6.22669,2.98422,-8.29746,37.03,144.27,131.88,-40.1051,-22.2969,21.2239,1014.5
101264,6.14538,3.06074,-8.14443,33.25,172.48,152.25,-40.1624,-21.6603,20.7277,1014.48
101270,6.28886,3.17073,-7.934,29.68,201.95,170.87,-41.8239,-21.342,20.4584,1014.48
101276,6.0593,2.69249,-7.47011,23.45,230.79,186.41,-42.9697,-20.1555,19.5369,1014.5
101282,5.65758,2.6638,-7.08273,12.53,248.85,204.26,-43.027,-19.5188,18.2467,1014.5
101288,5.65758,2.35294,-6.07843,4.83,244.58,220.15,-44.6885,-18.4481,17.5946,1014.5
101294,7.08273,1.05213,-4.87327,6.58,216.86,220.57,-44.9177,-17.1458,16.7298,1014.49
101300,8.48398,-2.78336,-2.67814,26.67,164.78,183.75,-46.4646,-15.9883,14.8442,1014.49
101306,9.01482,-4.6724,-2.23338,42.98,107.38,127.33,-48.298,-16.1329,15.0569,1014.5
101312,9.4835,-4.69632,-2.57771,60.06,51.38,70.07,-46.6938,-14.7728,14.6032,1014.5
101318,9.61262,-3.38594,-3.14682,66.57,13.44,38.5,-47.4099,-15.3227,14.0503,1014.52
101324,8.9957,-2.2812,-4.10808,62.93,-7.07,24.57,-47.5245,-14.3966,15.8792,1014.52
101330,8.6944,-1.64515,-5.34194,47.88,-24.43,21.14,-47.1808,-13.8468,14.6599,1014.5
101336,8.63223,-1.41081,-5.71497,33.39,-33.53,21.84,-46.7224,-13.731,13.9085,1014.5
101342,8.68006,-0.640842,-6.48015,28,-27.3,28.49,-47.3526,-13.8757,14.0503,1014.45
101348,8.43137,0.253467,-6.43233,28.07,-6.37,46.34,-47.5532,-13.5574,15.3546,1014.45
101354,7.77618,0.750837,-6.0593,35.21,15.61,68.74,-47.7537,-12.8629,15.1419,1014.46
101360,7.40316,0.306074,-5.92061,42.63,31.5,84.35,-47.9542,-12.7471,15.5673,1014.46
101366,7.53228,0.176949,-6.18843,46.2,48.37,96.6,-47.8683,-12.5156,14.83,1014.46
101372,7.8527,0.349115,-6.15973,42.77,63.84,109.2,-48.3266,-11.6185,15.5105,1014.53
101378,7.92922,0,-6.08321,41.51,78.26,115.08,-48.4699,-11.1555,14.7592,1014.53
101384,7.86705,-0.0860832,-5.96844,34.51,95.97,122.43,-49.0142,-10.895,14.5181,1014.5
101390,7.55619,1.6308,-3.79244,28.84,104.65,134.75,-49.7876,-10.0847,14.0078,1014.5
101396,7.48924,-1.45863,-7.36968,21.42,124.88,139.86,-49.8735,-8.72459,14.107,1014.5
101402,7.5801,-0.483022,-5.93018,38.15,141.54,156.52,-49.7303,-8.34838,13.4265,1014.5
101408,7.61836,-0.224773,-5.94931,40.81,156.94,171.36,-50.3319,-7.56703,12.6468,1014.5
101414,8.30703,0.129125,-4.60545,47.67,150.5,183.68,-50.8189,-6.95931,10.3642,1014.5
101420,8.43137,-0.951698,-4.82544,63.49,129.36,185.99,-51.7069,-5.42555,11.0731,1014.51
101426,8.87135,-1.23386,-3.86418,77.42,127.54,185.92,-51.8502,-4.70208,10.662,1014.51
101432,9.62219,-3.06074,-3.40507,77.28,108.29,168.56,-52.022,-4.03648,10.2083,1014.49
101438,9.63175,-5.06934,-2.48685,67.97,59.85,135.87,-52.3658,-3.28407,10.4493,1014.49
101444,9.69392,-5.51889,-2.61597,55.37,23.03,105.91,-53.2538,-2.47378,10.0949,1014.5
101450,9.26351,-4.6198,-3.28073,49.91,10.22,96.74,-52.7382,-1.40304,9.62703,1014.5
101456,8.99091,-3.96939,-3.74462,44.31,-5.11,94.5,-54.2565,-0.650632,10.1232,1014.5
101462,8.95744,-3.37159,-3.84027,44.17,-15.54,92.12,-53.5976,-0.621694,10.6761,1014.5
101468,9.25394,-3.01291,-3.87853,45.15,-17.71,98.63,-53.0533,-0.332304,10.5202,1014.5
101474,8.36442,-2.34816,-4.04113,46.83,-23.87,109.69,-53.1966,0.36223,10.5485,1014.52
101480,7.63271,-2.68771,-4.58632,56.77,-26.67,120.96,-53.6835,1.02782,10.3075,1014.52
101486,7.99139,-2.2286,-3.65854,64.26,-22.12,124.11,-54.056,1.89599,9.8964,1014.51
101492,8.43615,-2.88379,-3.56767,65.52,-24.5,115.08,-53.569,2.38795,10.7612,1014.51
101498,7.72836,-3.05595,-3.03682,66.78,-44.38,107.38,-53.5117,2.70628,11.3141,1014.51
101504,5.5428,-4.6198,0.769966,125.65,-91.63,102.55,-54.7435,2.06962,10.5627,1014.51
101510,5.63367,-3.35724,-4.13199,154.49,-84,75.25,-54.056,3.92172,12.023,1014.49
101516,3.29507,-3.18986,-5.44237,130.34,-106.61,89.18,-53.3111,4.06641,12.4199,1014.49
101522,6.28407,-4.3759,-4.30894,104.65,-120.26,62.44,-53.5117,5.33972,13.0295,1014.52
101528,9.99522,-5.055,-0.779531,133.07,-112.56,-4.48,-52.8528,5.45548,13.5541,1014.52
101534,7.90053,-4.81109,-1.88427,146.86,-118.23,-40.67,-52.8528,5.05033,14.2771,1014.52
101540,5.14586,-5.27977,-2.68771,139.16,-149.52,-42,-53.082,5.16609,14.7166,1014.54
101546,6.32712,-5.56193,-3.56767,117.67,-170.24,-47.25,-52.6809,5.48442,14.6316,1014.54
101552,7.76662,-5.80583,-3.04161,96.53,-181.44,-61.74,-51.8788,4.81882,17.0559,1014.53
101558,7.99139,-5.98278,-3.82114,77.14,-185.64,-75.25,-52.1366,5.05033,16.8148,1014.53
101564,7.14012,-5.84888,-3.05595,69.37,-188.58,-73.5,-51.7929,4.70307,17.8072,1014.48
101570,6.02104,-5.1076,-3.63941,79.17,-185.71,-58.52,-51.134,4.732,19.069,1014.48
101576,4.31851,-3.49593,-4.25634,68.18,-187.32,-39.27,-51.2772,4.15323,19.1541,1014.48
101582,5.29412,-4.5911,-4.50502,53.06,-180.11,-33.04,-50.8475,4.47155,21.1389,1014.48
101588,7.23577,-4.64849,-5.1076,47.11,-170.8,-46.69,-50.8762,3.89278,20.6285,1014.53
101594,6.64275,-4.17982,-4.21808,48.09,-177.31,-52.92,-49.8449,3.80596,22.4999,1014.53
101600,5.23673,-4.07939,-4.32329,44.17,-193.97,-57.47,-49.4439,3.74808,24.1161,1014.54
101606,5.7341,-4.6724,-5.48063,26.32,-205.87,-70.56,-48.6417,3.34294,24.1586,1014.54
101612,5.52845,-4.45241,-4.73458,29.68,-222.39,-92.47,-48.1548,3.11143,25.2786,1014.5
101618,6.51363,-3.76375,-2.76423,53.62,-250.25,-124.53,-47.4099,3.08249,25.9875,1014.5
101624,6.34624,-2.59684,-2.63032,50.96,-289.1,-145.74,-46.837,1.72236,27.391,1014.5
101630,7.29316,-3.40507,-6.38929,38.08,-282.1,-166.18,-46.1495,1.34615,29.0497,1014.5
101636,6.00669,-2.85988,-7.27403,25.62,-265.02,-161.77,-44.6026,1.0857,30.1272,1014.5
101642,4.7011,-2.43424,-7.04926,16.52,-263.62,-137.48,-43.2848,0.651617,30.5808,1014.49
101648,5.25108,-2.03252,-8.42659,2.8,-261.8,-120.12,-43.3135,-0.18761,32.3388,1014.49
101654,6.21712,-2.41033,-9.2109,-10.36,-249.48,-102.41,-42.053,-0.882144,32.6932,1014.52
101660,5.20803,-0.564323,-12.3529,-17.71,-203.98,-73.01,-42.1103,-1.1426,32.9343,1014.52
101666,4.3472,0.961262,-17.6471,6.51,-113.4,-31.99,-39.9045,-1.37411,34.2953,1014.5
101672,4.58632,2.89813,-16.6523,30.45,-62.44,11.41,-39.9332,-1.34517,34.352,1014.5
101678,6.60449,3.74462,-14.6676,18.55,-40.6,16.17,-40.1337,-1.43198,34.8907,1014.49
101684,6.42276,1.3869,-11.9177,21.77,-54.53,5.32,-40.1337,-1.80819,34.8765,1014.49
101690,4.80153,-2.97944,-7.70445,33.81,-87.29,-1.82,-38.816,-1.40304,34.2953,1014.51
101696,5.30368,-3.75418,-6.62841,26.04,-116.2,-12.18,-39.4748,-1.34517,35.5996,1014.51
101702,6.09278,-3.24725,-5.49498,4.48,-127.89,-20.65,-39.217,-1.25835,36.4927,1014.51
101708,4.66762,-3.12769,-5.14586,-17.5,-146.79,-27.09,-38.1857,-1.86607,36.6628,1014.53
101714,4.12721,-3.07987,-5.91105,-38.22,-158.69,-24.22,-37.8993,-1.75031,37.2158,1014.53
101720,5.14586,-3.54854,-6.53754,-53.97,-154.7,-18.06,-36.868,-2.96575,38.279,1014.52
101726,5.75801,-3.4768,-6.48493,-58.87,-143.29,-12.6,-35.7221,-2.18439,38.4633,1014.52
101732,5.5715,-3.22812,-6.8484,-61.04,-130.13,-8.89,-35.7221,-2.58954,38.6902,1014.5
101738,5.05978,-2.7451,-7.50359,-69.44,-111.23,0.84,-35.407,-2.53166,38.8745,1014.5
101744,7.16404,-2.53945,-7.48446,-73.85,-85.33,8.26,-34.8054,-3.37089,39.2714,1014.49
101750,5.43759,-4.24677,-7.07317,-68.6,-77.49,-0.07,-35.3497,-3.45771,38.6902,1014.49
101756,3.67288,-4.64371,-8.01052,-72.31,-70.63,5.67,-34.3471,-4.21012,38.8461,1014.49
101762,5.11717,-3.68245,-12.4821,-78.47,-33.46,21.35,-33.8601,-4.32587,40.2355,1014.49
101768,6.06887,-4.86848,-14.4572,-84.98,20.93,24.85,-34.8054,-4.99147,39.6542,1014.53
101774,6.36059,-6.26016,-13.5964,-87.92,64.26,23.1,-34.8627,-4.09436,38.5626,1014.53
101780,6.86274,-6.4945,-12.0373,-82.88,92.12,12.04,-34.92,-4.21012,39.314,1014.53
101786,7.06839,-5.90148,-9.73697,-54.46,96.46,-3.78,-35.7221,-5.39661,38.4208,1014.53
101792,7.13056,-5.39933,-6.79579,-53.55,83.23,-9.94,-35.8654,-6.2069,38.0806,1014.53
101798,6.07365,-4.12243,-5.96844,-36.75,66.15,3.57,-36.6675,-5.97539,37.9104,1014.5
101804,5.93974,-2.54902,-5.75323,-34.58,47.53,27.79,-36.2664,-4.96253,38.2649,1014.5
101810,5.90626,-2.72597,-5.3802,-32.34,24.64,40.81,-36.9539,-5.91751,37.4568,1014.52
101816,4.37111,-8.23529,-3.84027,-17.71,-11.41,-4.27,-36.381,-5.62813,37.7545,1014.52
101822,3.00813,-6.02104,-6.71449,-8.89,-13.23,-54.25,-36.8393,-5.51237,38.4208,1014.52
101828,1.97991,-1.82209,-9.67001,-5.39,12.25,-58.38,-35.9799,-5.85963,36.9322,1014.52
101834,1.58297,0.353898,-10.0383,-2.73,30.1,-46.69,-36.6388,-6.2069,37.4993,1014.53
101840,2.88857,-0.659971,-9.23003,-3.85,27.79,-37.24,-37.1545,-6.49629,37.2441,1014.53
101846,5.42324,-2.0373,-7.03013,-12.46,13.16,-38.15,-35.8654,-6.40947,36.5494,1014.51
101852,5.96844,-2.19512,-6.58058,-18.76,-8.96,-39.13,-36.2664,-6.06221,36.9464,1014.51
101858,5.79627,-2.20947,-6.76231,-21.28,-29.19,-38.29,-36.2378,-6.81462,37.6552,1014.51
101864,5.25108,-2.90292,-6.75753,-15.82,-43.61,-37.8,-36.0945,-7.48021,37.074,1014.51
101870,5.22238,-3.62028,-6.72405,-7.28,-56.35,-41.16,-36.3524,-7.3934,37.1874,1014.51
101876,6.088,-3.51985,-7.26447,2.03,-64.82,-37.87,-36.1518,-7.13295,38.3925,1014.51
101882,6.2506,-2.71162,-7.47967,18.13,-71.68,-28.84,-35.493,-7.42234,38.3783,1014.51
101888,5.17456,-3.09421,-7.14491,43.12,-81.97,-14.42,-34.8341,-7.50915,37.6269,1014.51
101894,4.71066,-2.85988,-7.55141,55.72,-90.23,-13.65,-33.946,-7.82748,38.1656,1014.51
101900,3.20899,-2.81683,-7.14012,65.1,-103.04,-11.83,-33.9747,-7.01719,38.3499,1014.53
101906,2.90292,-2.60163,-7.13056,65.1,-108.5,-7.07,-33.7169,-7.21977,39.4841,1014.53
101912,3.28073,-1.92731,-7.35533,58.31,-100.38,-1.96,-32.8288,-6.81462,40.3347,1014.54
101918,3.35246,-1.34385,-6.84361,50.19,-92.89,6.79,-34.0033,-6.75674,39.5692,1014.54
101924,3.01769,-0.994739,-6.42276,45.57,-89.39,24.36,-32.9148,-6.66993,40.76,1014.5
101930,3.43376,-1.73601,-6.2219,56.91,-87.08,40.32,-31.7976,-5.36768,39.8243,1014.5
101936,2.09469,-2.03252,-6.03539,70,-102.41,53.34,-32.2272,-6.55417,41.795,1014.52
101942,0.626494,-2.14252,-5.79149,82.11,-135.03,70.84,-31.7403,-5.04935,41.9367,1014.52
101948,-0.631277,-2.53945,-5.60019,90.02,-168.28,91.49,-31.4824,-4.61526,41.4264,1014.52
101954,-0.37781,-3.11812,-5.89192,92.19,-197.05,103.6,-30.623,-4.1233,42.9433,1014.55
101960,2.80727,-4.83501,-7.63271,101.71,-189.14,102.06,-29.9069,-3.45771,43.7798,1014.55
101966,4.68675,-5.00239,-9.82783,110.39,-141.89,94.43,-28.9902,-2.06864,44.3043,1014.49
101972,4.17504,-5.5428,-9.89479,124.25,-116.48,93.66,-28.1594,-1.46092,44.0633,1014.49
101978,4.36155,-4.74892,-10.0096,119.56,-113.54,98.84,-28.6464,-1.48986,44.5737,1014.5
101984,4.00765,-4.39981,-9.52176,123.55,-123.2,101.99,-27.6151,-0.795328,45.1549,1014.5
101990,3.1516,-4.11765,-9.20612,127.96,-134.05,99.89,-26.4693,0.0728402,43.7656,1014.54
101996,3.17073,-3.86418,-9.88044,118.44,-119.98,97.23,-26.4693,1.6066,45.1124,1014.54
102002,3.46724,-4.59589,-9.96652,101.57,-108.29,85.96,-25.3234,1.7513,45.7504,1014.54
102008,2.24773,-5.16977,-8.30703,83.93,-122.43,76.16,-25.3807,2.53265,46.7853,1014.54
102014,1.92252,-5.27977,-9.01004,70.21,-145.18,61.53,-24.5213,2.82204,46.3175,1014.5
102020,2.18556,-3.62984,-10.3587,62.44,-126.07,45.01,-24.0343,2.56159,47.2673,1014.5
102026,3.09421,-4.92109,-9.32568,61.81,-89.18,18.76,-23.5187,2.96673,47.6927,1014.5
102032,2.40555,-4.72501,-7.47011,80.43,-49.28,2.87,-23.3755,3.60339,46.9554,1014.5
102038,2.51554,-4.91631,-6.56145,98.14,-41.86,-5.6,-24.4067,3.86384,46.7853,1014.5
102044,3.01291,-4.7011,-6.67623,103.25,-50.54,-19.6,-23.2036,4.90564,46.7286,1014.51
102050,3.21856,-3.87853,-7.18317,104.51,-59.15,-23.59,-22.5447,5.3976,47.2248,1014.51
102056,3.32377,-4.00765,-7.32664,113.54,-57.47,-23.17,-21.9145,5.2529,47.5651,1014.5
102062,2.89335,-3.60593,-8.27833,94.5,-57.05,-26.46,-21.7426,5.97638,48.0329,1014.5
102068,2.05643,-3.65854,-8.44094,74.48,-50.12,-23.1,-21.3415,6.15001,47.5084,1014.5
102074,1.01865,-4.16069,-7.76662,74.55,-52.15,-17.08,-20.7973,6.46834,47.5509,1014.5
102080,0.162602,-5.60976,-5.87279,74.9,-73.92,-23.59,-20.9691,6.38152,46.516,1014.52
102086,-0.10043,-5.84888,-6.0593,64.96,-105.98,-39.97,-20.9405,6.38152,47.3382,1014.52
102092,0.0191296,-5.13152,-7.67575,60.62,-120.12,-40.74,-19.2503,7.77059,48.4582,1014.53
102098,0.129125,-5.05021,-8.044,76.65,-116.34,-26.95,-18.9639,7.94422,48.2597,1014.53
102104,0.21999,-6.58058,-7.62315,118.72,-109.06,-9.87,-18.6774,8.0021,48.1889,1014.52
102110,0.669536,-4.08895,-8.32616,123.06,-100.17,2.73,-17.9039,8.34937,48.9544,1014.52
102116,1.0856,-6.44189,-8.25442,127.75,-99.54,-2.94,-17.0446,9.44905,48.1463,1014.52
102122,0.468675,-5.91105,-8.69919,126.14,-82.67,-4.62,-16.5003,9.62268,47.8628,1014.51
102128,-0.215208,-5.68627,-7.48446,92.47,-103.11,-5.74,-16.0133,9.59374,48.3448,1014.51
102134,1.42994,-4.96891,-6.80536,117.32,-125.51,17.71,-15.9846,9.94101,47.9904,1014.53
102140,1.81731,-3.38594,-9.62697,86.24,-125.51,32.97,-15.5263,10.4908,48.2314,1014.53
102146,1.97035,-3.80679,-9.57915,62.51,-117.04,37.73,-14.2085,10.7224,49.2805,1014.51
102152,2.38642,-5.96844,-10.3013,41.02,-115.92,22.96,-13.8648,11.5326,49.8476,1014.51
102158,2.30033,-6.7671,-10.8082,28.49,-104.58,7.28,-13.5497,11.5037,50.2162,1014.53
102164,1.55906,-6.84361,-10.3682,25.76,-91.07,-5.39,-12.9194,11.4169,49.72,1014.53
102170,0.903874,-6.30799,-10.0096,13.37,-80.57,-8.19,-12.4897,11.9089,48.7134,1014.52
102176,6.77666,-3.06074,-12.3195,-18.76,-7,-3.57,-12.9481,11.2143,48.7985,1014.52
102182,3.26638,-6.35581,-9.00048,-24.29,10.5,-31.71,-12.8335,11.2722,49.2238,1014.51
102188,0.129125,-8.48398,-6.37016,5.11,-13.86,-48.23,-12.547,11.6484,48.2314,1014.51
102194,-1.1143,-6.07843,-6.17408,20.58,-26.53,-41.72,-12.4897,12.3429,49.2663,1014.51
102200,-2.39598,-4.50502,-7.08752,20.86,-41.16,-22.26,-12.7476,11.5616,49.323,1014.55
102206,-2.35294,-5.02152,-7.34577,20.72,-61.88,-7.84,-11.8309,11.4458,48.5858,1014.55
102212,-1.33907,-6.13582,-7.47011,23.31,-64.54,0.28,-11.4012,12.1693,49.2805,1014.5
102218,-0.13869,-6.901,-8.24008,24.01,-51.03,0.7,-10.7423,11.7642,50.2162,1014.5
102224,0.306074,-6.92013,-8.20182,30.8,-41.86,0.7,-9.91155,13.0375,48.5291,1014.49
102230,0.224773,-6.54232,-7.96748,37.8,-41.23,4.06,-10.3126,11.7931,49.2947,1014.49
102236,0.0334768,-6.40842,-7.34577,43.19,-46.62,6.09,-11.0861,12.7481,49.961,1014.53
102242,0.047824,-6.3845,-7.40316,48.79,-49.77,6.09,-9.96884,11.822,50.2729,1014.53
102248,0.215208,-6.40842,-7.69488,53.83,-43.19,3.78,-9.59644,12.3429,50.202,1014.52
102254,0.0813008,-6.53276,-7.86227,58.59,-33.95,-1.19,-9.02351,13.24,50.0886,1014.52
102260,-0.449546,-7.08273,-9.07221,60.9,-11.55,-10.64,-8.88027,13.8188,48.9261,1014.53
102266,-2.23816,-7.47489,-7.57532,57.54,-13.58,-15.26,-9.42456,13.5294,49.564,1014.53
102272,-3.18986,-7.30273,-6.43233,53.41,-36.75,-8.33,-9.5105,13.732,50.117,1014.53
102278,-3.35724,-7.4175,-6.9823,53.55,-53.48,2.73,-9.59644,14.687,49.5073,1014.53
102284,-2.89335,-7.41272,-7.4988,56.21,-53.41,16.73,-8.42193,14.0793,50.1595,1014.53
102290,-2.5012,-7.50359,-7.56576,60.41,-48.3,30.1,-8.85163,15.0632,48.444,1014.53
102296,-2.42468,-7.74749,-7.44141,65.45,-46.34,40.74,-9.36726,14.7738,49.2521,1014.53
102302,-2.42946,-7.76184,-7.80009,64.12,-48.23,48.51,-8.56516,15.6998,49.7483,1014.5
102308,-2.23338,-7.53706,-8.35485,56.63,-41.16,54.32,-7.44794,15.9892,49.1387,1014.5
102314,-1.88905,-7.65662,-8.8044,41.72,-17.29,53.83,-7.47659,15.4973,48.7843,1014.49
102320,5.90148,-5.23195,-8.08704,8.47,56.14,69.44,-7.59118,15.8156,49.4506,1014.49
102326,-0.564323,-6.2219,-5.28455,-2.17,98.49,75.11,-9.30997,15.2079,48.7701,1014.5
102332,-3.70636,-6.07843,-5.03108,17.08,53.83,65.1,-7.99223,16.4233,49.3797,1014.5
102338,-1.00909,-6.63797,-2.90292,77.28,42.14,48.58,-8.07817,16.6548,48.8268,1014.51
102344,-1.18604,-6.42276,-7.80488,78.54,15.19,48.86,-8.33599,16.9442,49.0962,1014.51
102350,0.329986,-6.33668,-9.39742,25.9,7.28,41.65,-8.25005,17.4651,47.9337,1014.52
102356,-0.655189,-6.39407,-7.06839,4.69,6.86,57.12,-8.6511,17.2626,48.6,1014.52
102362,-0.023912,-6.74318,-5.77714,12.53,6.86,57.12,-8.13546,16.7416,48.5149,1014.52
102368,0.765184,-6.76231,-5.61454,27.3,5.6,41.02,-8.70839,17.6677,49.0253,1014.49
102374,1.36298,-6.84361,-5.64323,43.96,-6.65,14.84,-8.19275,17.3494,48.5858,1014.49
102380,-0.0334768,-6.97274,-6.82449,52.22,-21,4.13,-7.82035,18.2465,47.4233,1014.55
102386,-0.157819,-8.79962,-7.0923,52.29,-37.31,-8.54,-8.59381,18.3622,48.0471,1014.55
102392,0.588235,-9.89479,-7.56097,47.46,-40.32,-33.32,-8.45057,18.6227,48.7418,1014.54
102398,0.411286,-9.77523,-6.93926,49.42,-37.45,-50.54,-7.99223,19.1146,48.2881,1014.54
102404,0.468675,-8.30225,-7.48924,29.54,-23.1,-55.58,-7.27606,19.3462,48.8694,1014.51
102410,0.0765184,-7.08752,-7.18795,14.56,-18.97,-48.51,-7.96358,19.5487,47.7919,1014.51
102416,0.353898,-7.00143,-6.45624,6.51,-23.94,-42.91,-8.6511,19.3462,48.7843,1014.52
102422,-0.640842,-6.72884,-6.90579,-12.39,-28.56,-36.26,-7.99223,18.9699,48.5291,1014.52
102428,-1.02822,-7.011,-7.17838,-28.63,-31.85,-37.87,-8.39328,18.449,48.3873,1014.51
102434,-1.80775,-7.11621,-7.934,-40.81,-27.72,-35.84,-7.21877,18.5648,49.3089,1014.51
102440,-3.06552,-7.46054,-7.41272,-45.78,-32.76,-27.65,-7.01824,18.7384,48.5575,1014.54
102446,-2.80727,-7.53706,-8.16356,-53.62,-36.96,-23.66,-6.84636,18.5069,48.8977,1014.54
102452,-3.07508,-7.56097,-9.08178,-66.01,-41.37,-27.23,-6.90366,17.8124,49.4932,1014.54
102458,-3.04639,-7.78575,-8.73744,-73.78,-47.32,-31.01,-6.9896,17.031,49.5357,1014.53
102464,-2.23338,-7.99617,-8.99091,-74.41,-49.77,-36.82,-6.96095,16.2786,48.8694,1014.53
102470,-2.02296,-7.63271,-8.89048,-66.92,-49,-41.02,-6.84636,16.1629,49.6775,1014.53
102476,-1.68819,-7.34098,-8.16356,-47.18,-48.51,-47.95,-6.61719,16.4812,48.7134,1014.53
102482,-0.263032,-7.02056,-7.48446,-23.87,-53.69,-70.21,-6.84636,15.8735,48.9686,1014.53
102488,2.06121,-4.73936,-8.15877,-18.41,-26.6,-116.27,-6.53125,16.1918,49.6916,1014.53
102494,0.593018,-2.40555,-8.8857,-17.99,-7.7,-129.78,-5.95832,15.9892,49.082,1014.53
102500,0.961262,-2.64467,-8.33572,-22.47,8.47,-134.4,-6.1302,15.5841,49.9185,1014.53
102506,0.23912,-3.07508,-6.37972,-16.45,10.01,-126.7,-5.90103,15.8445,48.997,1014.54
102512,-0.798661,-3.62506,-5.39455,-12.39,4.2,-114.1,-6.33072,15.2368,48.7559,1014.54
102518,-0.516499,-4.6724,-4.32329,7.84,2.45,-105.7,-6.53125,15.0053,48.6992,1014.52
102524,-0.248685,-5.48541,-6.29364,26.11,6.65,-92.12,-7.27606,15.0921,49.1104,1014.52
102530,-1.16691,-5.92539,-6.901,53.76,-1.47,-82.39,-7.90629,14.3976,48.5149,1014.52
102536,-0.889526,-6.78144,-6.73362,91.42,-13.79,-83.37,-6.90366,15.9892,49.564,1014.5
102542,-0.875179,-6.54232,-7.61836,111.16,-15.12,-77.98,-7.30471,16.4523,48.7843,1014.5
102548,-1.32951,-6.74318,-7.17838,123.97,-23.38,-75.81,-7.10418,16.5391,49.2947,1014.5
102554,-1.11908,-7.09708,-7.23577,129.99,-23.03,-69.79,-7.27606,17.8413,48.5716,1014.5
102560,-0.774749,-7.87183,-7.011,132.02,-22.89,-63.77,-7.07554,18.941,48.5149,1014.52
102566,-0.664754,-9.8374,-6.42276,134.96,-25.55,-59.43,-7.30471,19.433,47.7777,1014.52
102572,-0.33955,-10.153,-6.63797,133.28,-15.96,-55.72,-7.07554,20.2143,47.7352,1014.52
102578,0.282162,-10.7843,-6.58058,132.09,-9.94,-56.91,-6.38802,20.1275,48.1038,1014.52
102584,0.109995,-11.4012,-6.62362,132.16,-10.78,-64.54,-6.44531,21.4587,48.1038,1014.51
102590,0.655189,-11.8077,-6.40363,145.11,-13.3,-87.78,-6.84636,21.8349,48.0613,1014.51
102596,0.636059,-10.9517,-5.1363,160.86,-21.91,-110.81,-7.30471,21.7481,46.6577,1014.51
102602,0.468675,-10.2678,-5.46628,170.66,-34.65,-136.99,-7.19012,23.5134,47.0972,1014.51
102608,1.26734,-9.91392,-4.98804,191.52,-38.29,-172.55,-7.59118,23.4555,46.1615,1014.56
102614,1.6021,-9.34003,-4.75371,224.42,-34.58,-199.43,-7.82035,24.4105,45.4385,1014.56
102620,1.70732,-8.46007,-5.52367,235.55,-21.91,-199.92,-7.13283,25.4523,45.2684,1014.56
102626,11.913,4.56719,-3.60115,153.3,16.94,-177.31,-8.30734,26.3783,45.5377,1014.51
102632,0.746054,-6.88187,-5.07891,129.36,29.54,-156.94,-9.22403,27.449,44.8431,1014.51
102638,-0.95648,-11.0473,-5.94452,142.94,28.49,-147.28,-9.56779,28.2593,44.3043,1014.51
102644,-0.765184,-10.153,-3.70158,159.81,1.96,-151.76,-10.2553,29.5905,43.9499,1014.51
102650,0.483022,-9.24916,-2.07556,151.06,-28.07,-160.09,-10.6564,29.0986,44.6871,1014.55
102656,1.53037,-9.54089,-5.55237,137.97,-31.15,-160.09,-9.82561,29.6484,43.7514,1014.55
102662,1.58776,-10.3587,-4.79197,168.07,-20.37,-138.11,-10.685,30.3719,44.035,1014.54
102668,1.23864,-10.22,-3.98852,170.38,-22.19,-134.54,-11.3152,31.2111,43.2694,1014.54
102674,1.46341,-11.0904,-1.98948,195.72,-27.65,-126.21,-11.7449,31.5584,42.5322,1014.5
102680,2.43424,-9.86609,-3.63941,206.29,-22.61,-119.84,-11.8595,32.9764,41.8517,1014.5
102686,3.07508,-10.3252,-2.7451,235.48,-7.35,-102.69,-12.06,33.6709,41.3271,1014.52
102692,2.92205,-10.3587,-1.96557,273.14,4.62,-94.99,-12.8621,34.568,40.6183,1014.52
102698,2.00383,-9.63654,-2.13773,291.34,0.91,-87.85,-12.9481,35.2047,39.073,1014.52
102704,3.26638,-12.4008,-0.511717,335.02,3.92,-101.36,-12.5757,36.2465,38.5909,1014.56
102710,1.73601,-12.1043,-0.894309,427.49,-9.1,-95.76,-13.12,38.2143,36.9606,1014.56
102716,1.3869,-12.6447,0.382592,499.94,-22.26,-73.92,-13.7502,39.4298,35.9398,1014.53
102722,0.564323,-10.5261,0.205643,478.59,-32.27,-83.72,-14.2658,41.1661,33.6998,1014.53
102728,3.60593,-9.63654,-4.3759,434.91,-27.09,-78.47,-14.0653,42.642,33.1186,1014.53
102734,3.93592,-9.71784,-3.52941,397.39,-40.32,-95.48,-14.7242,43.568,30.3115,1014.53
102740,3.9407,-9.22525,0.272597,354.76,-46.62,-124.88,-14.7528,44.9571,28.9788,1014.53
102746,4.14156,-8.71832,-0.664754,320.6,-28.07,-97.16,-15.6409,45.449,27.2917,1014.53
102752,4.00765,-9.78001,2.51076,319.69,-13.44,-101.29,-16.0706,46.1725,27.4761,1014.51
102758,5.53324,-8.84266,1.0043,318.5,4.97,-77.91,-16.4716,46.9249,25.6614,1014.51
102764,4.95935,-9.14873,2.12339,306.67,9.38,-79.1,-16.357,48.3429,22.8118,1014.56
102770,5.20803,-8.46007,2.16643,297.22,16.66,-72.24,-16.5003,49.1532,22.2305,1014.56
102776,5.66236,-8.40268,1.3056,286.86,30.03,-65.8,-17.0732,49.0954,21.4082,1014.56
102782,4.64849,-9.63654,3.27594,279.58,39.34,-83.16,-17.8467,49.7031,19.6928,1014.53
102788,3.56767,-8.32138,3.09421,270.2,37.1,-77.35,-17.417,49.9056,18.3743,1014.53
102794,4.03156,-8.54137,2.21903,270.83,46.55,-61.11,-19.193,50.4555,16.8857,1014.51
102800,3.21856,-8.14443,2.18556,267.12,57.19,-46.06,-19.5368,51.1211,14.7875,1014.51
102806,3.1803,-8.04878,1.65471,260.89,70.63,-39.97,-19.3363,51.1789,13.5825,1014.55
102812,2.45815,-7.58489,2.1186,252.63,71.4,-40.32,-19.7946,51.4683,12.8878,1014.55
102818,2.59206,-7.10186,1.85079,233.59,64.61,-42.91,-19.4795,52.5101,11.0589,1014.51
102824,2.7451,-6.60449,1.23386,207.76,64.26,-44.17,-19.3076,51.9892,10.4351,1014.51
102830,3.42898,-4.94978,-0.124342,157.64,80.36,-42.42,-20.74,52.3365,9.2726,1014.53
102836,3.42898,-5.58584,0.841702,98.91,102.62,-43.26,-20.0811,51.9892,8.88982,1014.53
102842,4.0746,-6.77188,1.36777,56.42,124.11,-52.99,-21.5134,52.4523,7.54299,1014.54
102848,5.40411,-7.98661,1.57819,23.59,146.65,-67.13,-20.9405,52.0182,7.88324,1014.54
102854,5.10282,-8.24486,3.53419,2.1,155.05,-71.96,-21.227,51.5552,7.13186,1014.49
102860,4.81109,-7.73314,4.64371,-11.62,157.29,-74.48,-22.0864,51.642,7.48629,1014.49
102866,4.7824,-7.16404,5.23195,-7.42,159.25,-80.15,-22.5447,52.0761,7.40122,1014.49
102872,4.05548,-7.22621,5.73888,2.24,159.6,-81.62,-22.6593,52.4233,7.2311,1014.51
102878,3.51985,-8.34529,5.89192,23.24,159.39,-81.97,-23.3182,51.2079,6.21034,1014.51
102884,1.44907,-7.14012,3.8594,35.49,146.72,-69.37,-24.0916,51.4394,6.46553,1014.51
102890,1.23386,-9.14395,3.31899,43.68,135.24,-52.08,-23.8338,51.3526,5.85591,1014.51
102896,-0.267814,-8.86179,3.52941,55.3,87.57,-38.01,-23.6619,52.2786,5.69997,1014.46
102902,0.071736,-8.17312,3.14204,56.77,59.36,-27.16,-24.8651,51.4973,4.36731,1014.46
102908,0.870397,-8.22573,4.54806,61.74,33.6,-15.75,-25.2948,50.9185,4.40985,1014.53
102914,0.951698,-7.46533,2.73553,52.71,14.56,-12.39,-24.8078,50.7738,4.16883,1014.53
102920,1.68819,-7.78575,3.75418,53.27,3.99,-17.57,-26.0109,52.0182,4.6225,1014.53
102926,3.23768,-7.05882,4.13199,51.31,9.8,-15.47,-24.951,51.4683,4.40985,1014.53
102932,4.00765,-6.15973,3.89766,57.54,15.96,-18.76,-24.8078,51.6709,3.38909,1014.53
102938,3.68245,-5.87757,3.3142,43.4,14.49,0.35,-25.7245,51.5262,3.23314,1014.53
102944,5.27499,-7.56576,1.31038,31.22,31.57,8.4,-25.3807,51.4973,2.48175,1014.53
102950,4.92587,-8.22095,1.89383,15.47,22.47,2.45,-25.2948,51.0632,1.90049,1014.49
102956,5.30368,-9.01004,4.73458,8.82,32.2,-12.39,-25.1229,51.7288,3.34656,1014.49
102962,4.38546,-8.20182,7.40794,7.28,42.42,-22.89,-25.8391,51.8445,3.11973,1014.51
102968,4.24199,-8.6944,7.86227,10.57,29.12,-33.46,-25.5239,51.4683,2.86454,1014.51
102974,4.31851,-8.59397,7.43185,17.57,13.51,-44.52,-25.8964,51.3236,2.55264,1014.53
102980,4.06504,-8.58441,7.21186,22.19,-7.35,-57.82,-26.5839,51.0053,2.66606,1014.53
102986,-0.196078,-7.95791,8.03921,23.8,-42.91,-39.9,-25.9823,50.6291,1.70201,1014.54
102992,3.22334,-8.80918,1.66428,19.81,-14.77,-50.12,-26.9563,51.3815,1.09239,1014.54
102998,2.12817,-7.71401,4.85414,30.59,-16.59,-55.23,-27.2141,51.3236,2.04226,1014.53
103004,1.21473,-7.02535,5.18412,41.72,-25.13,-46.83,-26.813,50.9474,2.11315,1014.53
103010,1.14778,-6.64754,5.30846,52.36,-33.67,-35.98,-26.899,50.6002,1.37594,1014.52
103016,2.49641,-6.85318,4.45241,60.2,-36.12,-34.93,-27.4433,50.4555,1.30505,1014.52
103022,3.00335,-6.36537,4.22286,59.57,-38.85,-33.53,-27.5292,51.2658,1.23417,1014.52
103028,4.03635,-6.31755,4.49067,57.75,-35.56,-28.63,-27.0995,51.4105,1.57442,1014.52
103034,4.88761,-6.4132,4.55285,60.69,-24.01,-24.85,-28.3027,49.9056,0.851383,1014.52
103040,4.73458,-5.98278,5.5715,68.95,-10.85,-14.84,-28.4459,50.1371,1.61695,1014.53
103046,4.52893,-5.86322,6.11669,76.65,-4.97,-4.69,-28.2167,50.3976,0.737966,1014.53
103052,4.57197,-6.28407,6.23147,82.39,1.54,0.84,-27.4146,49.8767,0.0291085,1014.51
103058,4.86848,-6.54232,6.2506,80.22,0.77,1.68,-26.9563,50.3108,-0.12684,1014.51
103064,5.14586,-6.58536,6.23625,79.45,0.84,-0.35,-28.0162,50.3108,-2.08329,1014.49
103070,4.99283,-6.31277,6.02582,70.07,1.12,-4.83,-27.5292,50.4844,-0.665572,1014.49
103076,4.83022,-6.30799,6.088,59.15,1.75,-12.67,-27.8157,50.6002,-0.467091,1014.52
103082,4.62936,-6.42276,5.83453,54.53,5.39,-14.7,-28.0448,50.1371,-0.764811,1014.52
103088,4.17504,-6.48015,5.47107,49.77,11.27,-12.18,-27.4719,49.5584,-1.92734,1014.54
103094,3.58202,-6.70014,5.89192,49.21,14,-9.24,-27.9016,50.0503,-2.49442,1014.54
103100,3.00813,-6.99665,6.21234,52.78,14.63,-6.09,-28.4173,49.4426,-0.934937,1014.54
103106,2.96987,-7.13534,6.36537,55.02,16.8,-4.83,-28.2454,50.5134,-3.01898,1014.54
103112,3.20421,-6.91535,6.31277,50.26,15.54,-5.11,-27.9589,49.7899,-3.91214,1014.54
103118,3.3429,-6.95361,6.48493,40.95,13.44,-5.18,-27.8157,50.3397,-3.11822,1014.49
103124,3.57724,-6.89144,6.57102,30.66,9.73,-12.46,-28.0735,49.9056,-3.17493,1014.49
103130,3.79244,-6.6858,6.63797,22.4,8.47,-24.71,-28.274,49.3269,-3.75619,1014.52
103136,3.67767,-6.04017,6.59493,10.29,4.83,-32.48,-28.6178,50.4844,-3.24581,1014.52
103142,4.3472,-6.00191,5.99713,-7.35,3.99,-41.23,-28.5032,49.0954,-3.48682,1014.52
103148,4.5385,-6.10234,5.92061,-19.25,7,-50.54,-29.6204,48.7191,-4.12479,1014.52
103154,4.68675,-6.06887,5.95887,-24.92,5.11,-56.35,-28.9329,49.3269,-3.64277,1014.51
103160,4.84935,-6.27451,5.77714,-28.7,4.83,-59.85,-29.735,48.8928,-4.08226,1014.51
103166,4.5098,-6.05452,5.66236,-30.66,5.81,-56.21,-29.3912,48.806,-3.44429,1014.52
103172,4.6724,-6.70493,5.46628,-28.84,7.14,-48.65,-30.136,49.5005,-2.6929,1014.52
103178,4.69632,-6.7384,5.68149,-25.62,10.92,-36.82,-29.9355,49.5005,-2.49442,1014.52
103184,4.2659,-6.46102,5.75323,-22.82,16.66,-21,-30.222,49.8767,-3.11822,1014.52
103190,3.68245,-5.60019,6.11669,-23.45,21.91,-4.27,-29.248,49.7031,-3.85543,1014.52
103196,3.6681,-5.60976,6.28407,-24.22,31.08,9.59,-30.1074,48.777,-2.39518,1014.52
103202,3.67288,-6.13104,6.49928,-24.78,39.76,14.49,-29.8496,49.1532,-1.07671,1014.52
103208,3.65854,-6.10234,6.6858,-27.09,48.65,14.84,-29.5631,49.4716,-2.73543,1014.52
103214,3.9407,-6.19321,6.79579,-30.31,54.46,12.67,-29.7063,49.3269,-2.36683,1014.52
103220,4.11765,-6.29364,6.60928,-35.21,57.82,10.71,-30.4225,48.6613,-2.49442,1014.53
103226,4.27547,-6.41798,6.44189,-40.32,55.86,10.29,-30.1647,49.2979,-2.6929,1014.53
103232,4.50024,-6.36537,6.15973,-45.22,50.19,10.43,-29.6777,49.5294,-2.15417,1014.52
103238,4.2946,-6.48015,6.19799,-49.7,44.03,7.49,-29.9069,49.7899,-2.16835,1014.52
103244,4.14156,-6.97274,6.11669,-55.51,41.58,-4.2,-29.5058,49.8188,-2.09746,1014.52
103250,3.85461,-6.66667,6.29842,-69.44,42.14,-25.41,-29.6491,49.5294,-2.06911,1014.52
103256,3.51506,-6.41798,7.04448,-93.1,43.54,-46.83,-30.0215,49.2111,-1.27519,1014.52
103262,3.52941,-6.2506,7.09708,-121.87,38.22,-57.4,-29.5345,49.2979,-1.02,1014.52
103268,3.55811,-6.01626,6.50885,-151.55,21.14,-49.07,-30.5657,48.8638,-0.32532,1014.54
103274,4.80153,-6.73362,5.45672,-163.38,5.95,-28,-30.9095,49.0664,0.0716399,1014.54
103280,5.055,-7.18317,5.24151,-162.47,10.5,-7.07,-30.222,48.8928,1.26252,1014.54
103286,3.49593,-7.02535,5.98278,-155.89,20.58,16.03,-30.1933,49.0664,0.851383,1014.54
103292,2.48685,-7.09708,6.67623,-147.21,18.48,38.5,-31.11,49.1243,1.60277,1014.54
103298,1.96557,-7.21664,6.95361,-135.59,5.53,56.07,-29.6204,49.6162,2.24074,1014.55
103304,2.15686,-7.50359,6.54232,-124.74,-8.47,66.29,-30.623,49.6741,2.72277,1014.55
103310,2.46772,-7.65662,5.93974,-119.7,-22.89,65.87,-29.1334,49.7899,3.2615,1014.54
103316,3.09421,-8.5605,5.4902,-104.79,-33.11,55.58,-29.9642,49.3269,4.99111,1014.54
103322,3.77331,-8.92874,5.24629,-92.4,-36.47,41.86,-29.3912,50.1661,4.59415,1014.52
103328,4.04113,-9.09134,5.09326,-88.41,-32.69,26.11,-29.2194,50.4555,5.57237,1014.52
103334,4.52415,-9.3735,4.98804,-82.67,-26.18,10.85,-28.5032,50.3397,5.23212,1014.53
103340,4.47633,-9.22525,4.72023,-84.14,-23.52,-1.4,-29.5058,49.7031,5.94098,1014.53
103346,4.66284,-9.07221,4.50502,-88.62,-17.22,-11.83,-29.7063,50.0214,6.2954,1014.52
103352,4.35677,-8.71353,4.33285,-93.59,-10.15,-16.24,-28.4745,49.5584,7.50046,1014.52
103358,3.81157,-8.35964,4.16547,-105.07,-6.51,-12.88,-29.1334,49.6741,8.29438,1014.52
103364,3.46724,-7.87183,4.01243,-118.3,-4.62,-5.32,-28.2167,49.8188,8.30856,1014.52
103370,3.11812,-7.35533,4.27547,-128.38,-7.77,0.91,-28.7324,49.5584,7.85489,1014.52
103376,3.18986,-6.90579,3.98852,-149.45,-11.2,8.89,-29.2766,49.269,10.1516,1014.51
103382,3.76375,-7.66141,4.15112,-172.76,-6.58,10.99,-29.3053,49.4716,10.5485,1014.51
103388,4.01243,-7.91487,3.56289,-201.46,-4.06,9.03,-28.761,49.0954,11.385,1014.53
103394,4.33764,-8.2066,3.93113,-233.24,-0.56,3.08,-29.1334,49.0954,11.8812,1014.53
103400,4.60545,-8.16834,3.97896,-268.73,3.64,-2.59,-28.7324,48.5455,13.5116,1014.52
103406,4.60545,-8.44572,3.79244,-298.62,4.2,-5.67,-28.7897,48.6323,14.589,1014.52
103412,5.01196,-8.70875,3.33812,-338.31,5.39,-8.19,-29.4772,47.9957,15.8792,1014.54
103418,4.51937,-9.10091,2.58728,-375.2,3.85,-13.58,-28.9902,47.0117,16.4604,1014.54
103424,4.49546,-9.56002,1.94644,-406.21,3.64,-20.93,-28.6178,46.3172,18.672,1014.55
103430,3.88809,-9.65088,1.39646,-444.78,-1.05,-32.06,-29.4772,45.449,20.2599,1014.55
103436,3.3955,-9.63175,1.29125,-463.26,-10.08,-45.64,-29.8496,44.3204,22.0179,1014.54
103442,3.50072,-9.89479,0.492587,-483.07,-22.47,-59.99,-29.3912,43.8285,24.9242,1014.54
103448,3.21377,-10.4304,-0.215208,-487.34,-27.93,-75.53,-30.2793,42.5262,26.2426,1014.54
103454,3.71592,-9.77523,-1.24821,-482.44,-30.94,-91.21,-30.2506,40.4426,27.873,1014.51
103460,3.73505,-9.80392,-1.91774,-481.53,-25.62,-102.97,-30.9095,39.6323,30.1272,1014.51
103466,3.9407,-9.89957,-1.55428,-478.8,-9.24,-104.37,-30.9095,37.7802,31.8143,1014.5
103472,3.93113,-9.24916,-1.42037,-465.99,-4.9,-106.61,-30.5085,36.2175,31.8851,1014.5
103478,4.14156,-8.60832,-1.83166,-447.16,3.29,-103.18,-30.7376,34.2786,33.6856,1014.53
103484,4.43807,-8.31181,-2.60163,-419.51,10.5,-102.2,-31.597,32.658,35.3302,1014.53
103490,4.81588,-7.40794,-3.65854,-402.43,11.55,-88.13,-30.8809,30.1404,35.5003,1014.53
103496,5.60497,-7.11621,-3.56289,-385,15.26,-74.41,-32.1127,28.8092,36.7479,1014.53
103502,6.00191,-7.02056,-3.28551,-349.65,9.38,-59.22,-32.5424,26.6098,37.8679,1014.52
103508,5.61454,-6.8197,-3.89287,-310.52,0.7,-36.61,-32.0554,26.3783,38.0947,1014.52
103514,5.25586,-6.15973,-4.79197,-276.78,-7,-21.49,-32.1413,24.4394,38.2649,1014.53
103520,4.39981,-9.24438,-4.97848,-187.25,-17.08,-23.38,-31.6543,23.6002,38.9737,1014.53
103526,4.59589,-8.35485,-4.90196,-112.77,-16.87,-39.48,-31.6257,23.195,39.399,1014.53
103532,6.04017,-6.47537,-5.51411,-89.95,-1.26,-32.13,-31.4824,23.0793,39.399,1014.53
103538,6.30799,-6.4945,-4.91631,-105.07,8.12,-20.3,-32.6283,21.9217,39.7818,1014.53
103544,5.72453,-7.14969,-3.50072,-118.79,3.36,-21,-32.084,21.5166,40.193,1014.53
103550,5.90148,-7.79531,-3.44811,-114.52,-6.93,-43.47,-31.9408,20.7063,40.5474,1014.53
103556,3.85461,-7.31229,-5.28933,-108.57,-9.59,-40.53,-31.4251,20.5616,40.4623,1014.55
103562,4.12243,-6.37016,-5.48541,-95.97,4.62,-34.3,-32.9148,19.4619,39.314,1014.55
103568,3.84027,-6.52319,-4.08417,-62.86,0.77,-25.06,-32.9721,19.5487,41.3555,1014.55
103574,2.38164,-6.02582,-1.63558,-20.02,-29.61,-6.51,-32.4564,19.1725,40.4481,1014.55
103580,3.45768,-5.39933,-1.67384,6.09,-54.88,18.62,-31.9694,19.2883,41.2846,1014.52
103586,5.36107,-5.868,-2.44381,23.73,-56.84,30.17,-32.3991,19.0568,40.2922,1014.52
103592,5.80583,-5.978,-4.13199,33.18,-53.69,30.17,-31.6257,19.433,41.1712,1014.52
103598,5.25108,-5.67193,-4.94978,37.59,-58.1,31.71,-31.196,19.3462,41.554,1014.52
103604,5.91583,-6.43233,-5.12673,33.95,-67.2,18.34,-30.9095,19.7513,41.639,1014.48
103610,6.85796,-9.16786,-4.01722,58.38,-54.53,-3.43,-30.136,20.0407,41.2421,1014.48
103616,5.74844,-8.57963,-4.91631,103.11,-28.63,-5.74,-30.5944,20.7063,41.3271,1014.48
103622,4.54328,-8.07269,-4.57676,127.54,-29.05,-5.04,-30.4512,21.0535,42.0927,1014.49
103628,4.49067,-6.45624,-4.55285,155.54,-35.56,-11.55,-29.9069,21.4587,41.88,1014.49
103634,4.83501,-7.62793,-5.16021,169.26,-51.59,-13.65,-29.8496,22.4716,41.3697,1014.51
103640,5.11717,-8.46963,-4.43807,177.1,-51.87,-17.64,-30.3652,23.1661,41.2421,1014.51
103646,5.15064,-9.69392,-4.92587,188.86,-44.87,-20.72,-29.248,22.9925,40.3489,1014.53
103652,4.73458,-9.2396,-4.41894,189.35,-40.6,-30.52,-29.7063,23.687,40.2497,1014.53
103658,5.61932,-10.1769,-3.56767,201.18,-33.04,-60.55,-29.5918,24.9024,40.0228,1014.52
103664,5.54758,-8.31659,-5.40889,199.08,-16.66,-87.57,-29.9928,25.5101,39.8527,1014.52
103670,5.04543,-7.95313,-4.38068,191.24,-16.17,-102.69,-29.8496,26.06,39.2289,1014.49
103676,4.77762,-7.27403,-2.5825,190.89,-23.59,-105.98,-30.4798,27.1307,40.1221,1014.49
103682,4.46676,-6.34146,-2.89813,168.49,-24.71,-89.67,-30.0501,26.5809,40.4623,1014.51
103688,3.45768,-6.39407,-2.13773,138.46,-27.51,-70.35,-29.7636,27.1886,39.158,1014.51
103694,2.6351,-5.77236,-2.02774,95.55,-35.84,-58.45,-30.0215,27.1018,38.7611,1014.51
103700,2.86944,-6.21712,-2.75944,45.29,-45.78,-45.43,-30.4512,28.3462,38.52,1014.51
103706,4.48111,-7.92922,-3.11812,-6.93,-51.38,-49.56,-29.6204,27.7674,38.4775,1014.51
103712,5.10282,-8.58441,-4.19416,-51.1,-48.72,-67.41,-30.1647,27.4201,39.1297,1014.53
103718,5.15543,-8.74223,-5.56671,-124.53,-63.77,-79.1,-30.136,27.3044,38.9312,1014.53
103724,6.06408,-8.46007,-5.68149,-196.77,-75.39,-84.56,-29.5058,25.8863,39.9945,1014.49
103730,6.83883,-8.62267,-5.4902,-227.5,-72.87,-81.48,-30.9095,24.3236,41.0294,1014.49
103736,7.25012,-8.50311,-3.61071,-218.82,-65.1,-93.24,-29.9069,23.4265,41.2279,1014.51
103742,7.02535,-7.26447,-3.04161,-179.55,-49.42,-113.61,-29.9069,21.777,40.3347,1014.51
103748,6.07843,-5.48541,-3.099,-142.66,-35.98,-122.78,-30.4512,21.6034,42.5605,1014.49
103754,3.56289,-5.09326,-1.85079,-101.43,-26.39,-103.95,-29.9355,20.388,41.795,1014.49
103760,2.59206,-5.79627,-2.11382,-89.88,-22.75,-48.86,-30.1074,20.0117,41.9367,1014.49
103766,3.51506,-7.02056,-3.35724,-116.69,-25.62,-16.66,-30.222,19.8381,42.915,1014.49
103772,3.88809,-8.52702,-4.42372,-136.85,-21.77,3.43,-28.4745,18.8831,42.8866,1014.49
103778,4.69153,-7.42229,-4.23242,-135.52,-24.92,0.42,-29.4772,18.0728,44.7296,1014.55
103784,5.27021,-6.87709,-4.30894,-129.36,-20.23,-9.87,-29.3339,16.9153,43.0709,1014.55
103790,5.47585,-5.64323,-4.52415,-126.07,-14.28,-19.95,-29.6491,16.6259,43.1134,1014.49
103796,5.68627,-5.92061,-3.78288,-111.93,-5.46,-19.81,-29.5058,16.1339,43.1701,1014.49
103802,4.88761,-5.15064,-3.60593,-92.4,-10.08,-11.69,-29.0188,15.4973,43.7798,1014.54
103808,4.28025,-4.58632,-3.8307,-70.63,-31.36,6.79,-29.735,15.4683,43.7514,1014.54
103814,6.44189,-6.33668,-4.32329,-38.5,-25.76,19.74,-29.1621,14.9764,44.2901,1014.54
103820,5.96365,-6.56145,-4.27068,-9.24,-19.11,24.85,-28.9615,15.0921,43.9641,1014.54
103826,4.32807,-6.24103,-4.50502,15.19,-18.83,26.46,-28.8183,15.1211,44.3752,1014.48
103832,4.15112,-5.64801,-5.24629,25.76,-20.44,28.35,-29.0188,14.9764,43.3545,1014.48
103838,4.57676,-5.7867,-6.51363,2.24,-39.69,37.87,-28.2167,15.4394,42.5464,1014.53
103844,6.4945,-7.22621,-5.28933,-26.11,-37.38,22.19,-28.7037,15.7288,43.1134,1014.53
103850,6.28407,-6.37016,-6.31755,-57.89,-32.2,11.76,-27.7297,15.4973,43.8507,1014.53
103856,6.43233,-5.76757,-5.58584,-63.63,-19.81,1.47,-28.0735,14.6002,44.758,1014.53
103862,6.75753,-4.93544,-4.77762,-38.64,-9.59,-20.23,-27.6724,14.7738,43.4962,1014.53
103868,5.20325,-3.14204,-5.19847,-25.2,-12.11,-31.01,-27.9016,14.2818,44.4744,1014.54
103874,5.6241,-3.22334,-3.95983,-8.19,-13.3,-27.44,-27.4719,14.687,45.1124,1014.54
103880,5.47585,-6.07365,-4.91152,24.01,-12.32,-24.15,-27.873,14.8317,44.517,1014.5
103886,5.39455,-6.37016,-4.68675,47.11,-15.26,2.17,-27.3,14.1082,43.879,1014.5
103892,4.63893,-6.44668,-5.95887,45.71,-23.73,18.34,-27.5579,14.8896,44.8572,1014.52
103898,5.71497,-6.97274,-6.39407,27.44,-27.93,15.96,-27.5865,15.2368,44.5028,1014.52
103904,5.16977,-6.93448,-6.44189,12.67,-18.76,14.21,-27.6151,14.658,43.9782,1014.51
103910,4.72501,-6.95361,-6.55189,0.98,-17.57,17.08,-26.9849,15.2079,45.1691,1014.51
103916,4.55285,-6.66667,-6.12625,-24.85,-23.73,35.21,-26.9849,15.4105,44.3894,1014.51
103922,3.31899,-3.73027,-5.60976,-50.75,-23.8,58.31,-26.8703,15.3815,44.3894,1014.51
103928,2.83118,-4.71066,-4.35198,-60.9,-31.64,61.53,-26.899,14.8317,44.2051,1014.51
103934,2.19034,-7.66141,-1.70253,-38.43,-33.04,49.49,-26.2974,14.658,45.1833,1014.51
103940,3.25203,-6.18843,-4.02678,-5.18,-4.41,25.2,-26.8417,15.0343,44.276,1014.51
103946,6.50406,-4.66762,-6.02582,17.71,50.47,60.55,-25.8964,15.1211,44.3752,1014.53
103952,4.87327,-6.89622,-7.02056,10.57,47.81,86.03,-26.1828,14.7159,44.2618,1014.53
103958,3.93113,-6.43233,-7.05882,-5.32,28.7,95.76,-26.2115,15.2079,45.3534,1014.51
103964,5.46628,-5.31803,-7.59923,-28,20.93,92.19,-27.3573,14.6002,43.9074,1014.51
103970,6.91057,-5.68149,-7.13534,-57.82,17.22,78.89,-26.6698,15.15,44.0775,1014.51
103976,6.15017,-6.78623,-5.11239,-68.53,6.65,63.42,-26.4693,15.9603,44.7438,1014.51
103982,5.87757,-6.53754,-5.58584,-72.1,5.32,53.27,-26.3547,15.7288,44.7722,1014.48
103988,5.72453,-6.63797,-5.82018,-69.02,8.4,49.7,-25.6958,15.0921,44.0208,1014.48
103994,5.60019,-6.58058,-5.83453,-64.33,11.41,43.47,-26.9563,14.5423,43.8932,1014.53
104000,4.91152,-6.57102,-5.12673,-59.01,4.27,39.2,-26.6412,13.9925,44.0775,1014.53
104006,5.0263,-6.57102,-4.68675,-46.48,0.7,37.24,-26.7844,14.0214,43.7939,1014.53
104012,5.2176,-6.31277,-4.60545,-35.28,-3.64,33.6,-26.1255,14.2529,44.8431,1014.53
104018,4.95935,-6.48972,-3.9407,-17.85,-14.35,26.88,-26.326,14.4265,45.1266,1014.54
104024,5.19847,-6.48493,-4.92109,0.14,-12.67,15.89,-25.5526,13.9635,45.1833,1014.54
104030,5.12673,-6.84361,-5.16021,20.23,0.07,-4.2,-25.4953,14.224,44.7155,1014.54
104036,7.98661,-6.48972,-10.1387,-3.5,5.88,-38.43,-26.6985,14.9185,44.7155,1014.51
104042,3.44811,-7.47967,-4.98804,-4.41,-15.19,-31.22,-25.9823,15.1211,44.6729,1014.51
104048,3.62984,-4.22764,-5.84409,13.51,-12.6,-24.08,-26.1542,14.8027,45.5377,1014.52
104054,4.72023,-3.5055,-6.27451,-18.2,-3.15,-12.46,-26.7557,14.5712,45.1691,1014.52
104060,5.46628,-4.49546,-6.47059,-60.76,9.17,-11.27,-26.9563,13.9056,44.361,1014.51
104066,7.05882,-4.38068,-8.1779,-105.28,33.67,-12.95,-26.5266,14.4844,45.0274,1014.51
104072,7.16404,-4.35677,-8.58919,-162.4,43.82,-12.67,-26.813,12.9796,44.4319,1014.48
104078,5.99235,-4.48111,-7.8527,-221.62,44.66,-10.5,-27.0709,11.7063,44.9706,1014.48
104084,5.53802,-5.05978,-7.1736,-249.62,33.04,6.02,-27.2141,10.7802,44.1058,1014.52
104090,5.51411,-5.14586,-7.3362,-267.33,20.02,28.35,-26.6412,9.53586,44.3894,1014.52
104096,5.49976,-5.04543,-6.7384,-273.07,2.24,52.22,-27.0422,8.87027,45.0699,1014.49
104102,5.34194,-5.35629,-6.61406,-263.69,-16.73,66.71,-26.9849,7.59696,44.8856,1014.49
104108,4.95457,-4.99283,-7.43663,-262.08,-27.44,73.36,-26.5266,6.12107,44.2193,1014.49
104114,4.8637,-4.85892,-7.37924,-265.02,-34.37,69.16,-27.0136,4.732,45.3818,1014.51
104120,4.20373,-4.91631,-7.03013,-266.28,-39.62,64.33,-26.813,3.89278,45.1124,1014.51
104126,4.30416,-5.35151,-6.39407,-250.39,-34.93,60.34,-25.8677,2.35901,45.6795,1014.51
104132,4.32807,-5.30368,-6.66667,-228.48,-25.55,57.89,-26.1828,1.78024,44.5028,1014.51
104138,5.45672,-9.56002,-5.67193,-132.65,20.86,32.62,-26.4693,1.51978,44.5028,1014.51
104144,1.86992,-8.4792,-5.95887,-31.01,35.56,24.29,-26.0969,0.477985,44.7013,1014.51
104150,0.61693,-6.24581,-5.73888,23.94,-5.6,14.63,-26.326,0.477985,44.9706,1014.5
104156,1.05691,-3.89287,-8.51267,-0.77,-40.67,10.15,-25.8964,0.709497,43.9782,1014.5
104162,5.48541,-5.1076,-9.89957,-39.55,-13.16,12.46,-26.3547,0.477985,44.8005,1014.53
104168,9.43568,-6.94883,-9.45002,-62.3,33.53,0.63,-27.6438,-0.824266,43.8507,1014.53
104174,6.26016,-4.27068,-9.74653,-72.59,46.62,-23.24,-26.412,0.130718,44.5879,1014.51
104180,5.09326,-3.60593,-8.11095,-75.6,37.59,-35.14,-26.4406,-0.0718545,44.6729,1014.51
104186,5.28455,-3.63941,-7.05404,-72.87,18.06,-34.23,-26.3547,-0.245489,44.8856,1014.52
104192,4.65806,-3.43855,-6.11191,-66.36,-6.44,-29.26,-26.7271,-0.592756,45.4385,1014.52
104198,4.06026,-2.98422,-5.59063,-54.18,-32.34,-14.77,-26.6412,-0.940021,44.6304,1014.52
104204,5.63367,-4.87805,-4.47154,-17.29,-32.62,-0.28,-26.1542,-1.63456,45.3676,1014.52
104210,3.20899,-2.85509,-6.99187,-9.52,-60.06,0.77,-26.1255,-1.92394,45.722,1014.52
104216,3.18508,-4.10808,-7.51315,4.55,-67.76,8.47,-26.326,-2.44484,45.5519,1014.51
104222,3.02726,-4.14634,-7.41272,1.75,-65.1,19.74,-26.0969,-1.43198,45.24,1014.51
104228,3.40029,-4.47154,-7.4462,-6.16,-56,31.64,-25.6099,-1.08472,45.396,1014.51
104234,3.04161,-4.20373,-7.88618,-12.88,-46.41,38.08,-25.3234,-1.92394,44.3185,1014.51
104240,3.95026,-4.3472,-7.69966,-11.13,-28.35,33.67,-25.0656,-1.80819,46.4451,1014.52
104246,3.83548,-3.41942,-8.24008,-29.05,-26.53,29.19,-25.2375,-1.5188,45.9347,1014.52
104252,4.30416,-3.75897,-7.62793,-14.49,-24.36,5.04,-24.8078,-1.11366,45.3393,1014.47
104258,4.81109,-3.81157,-7.72358,-9.52,-14.49,-7.77,-24.8651,-1.66349,45.3109,1014.47
104264,5.70062,-3.68723,-7.67097,-8.61,-17.43,-1.96,-24.2635,-0.997901,45.2542,1014.52
104270,4.80631,-3.98852,-8.30703,2.1,-38.08,-0.98,-24.4354,-1.895,45.9914,1014.52
104276,4.92587,-4.75849,-8.07747,18.41,-61.74,2.87,-24.4067,-1.17153,45.637,1014.52
104282,4.66762,-4.28981,-8.94309,18.55,-73.78,13.72,-24.2921,-1.11366,46.4876,1014.5
104288,4.28025,-4.10808,-9.78957,11.76,-77.42,8.4,-23.3182,-1.17153,45.3393,1014.5
104294,3.7781,-4.17025,-10.3348,-8.61,-77.63,-1.47,-23.6619,-1.20047,46.4167,1014.5
104300,3.36203,-3.28551,-10.373,-35.63,-72.38,6.93,-23.576,-1.86607,46.6861,1014.5
104306,3.34768,-5.6528,-9.10091,-26.32,-56.91,11.2,-22.8598,-1.80819,46.3742,1014.51
104312,3.25681,-6.08321,-8.76136,-31.57,-56.77,13.37,-22.1436,-2.0397,45.7362,1014.51
104318,2.97465,-4.40937,-9.10569,-25.34,-60.55,4.48,-22.4588,-1.895,45.8213,1014.51
104324,3.67767,-3.81636,-9.00048,-20.93,-45.78,-13.37,-21.2842,-1.37411,46.1332,1014.51
104330,3.61071,-3.71592,-9.10569,-40.18,-24.36,-19.25,-21.0551,-2.38697,47.0263,1014.55
104336,5.19847,-7.10665,-8.68006,-49.7,-11.27,-24.64,-21.227,-2.84999,46.4876,1014.55
104342,3.6968,-6.39885,-7.14012,-40.6,-11.76,-21.42,-21.3988,-2.99468,47.1681,1014.53
104348,1.42994,-3.45289,-8.00574,-37.66,-26.88,-11.13,-21.7139,-2.90787,46.6436,1014.53
104354,1.57341,-4.48589,-7.72836,-23.59,-52.43,-15.61,-21.4275,-3.13938,46.6152,1014.53
104360,2.49163,-4.61023,-8.73744,-27.37,-57.33,-14.7,-20.7113,-3.11044,47.083,1014.53
104366,2.1999,-4.33764,-9.06265,-39.62,-45.85,-14.28,-20.5967,-3.45771,46.8987,1014.53
104372,2.18556,-4.2659,-8.91918,-46.55,-36.54,-15.96,-21.141,-4.73102,45.4385,1014.51
104378,1.84122,-3.41463,-8.65614,-51.17,-32.9,-5.46,-20.5108,-3.28407,46.1899,1014.51
104384,2.88857,-3.40985,-7.97704,-49,-32.2,-3.71,-19.9951,-3.83391,47.0263,1014.54
104390,2.4725,-2.28599,-8.54615,-55.44,-20.58,3.57,-19.8519,-4.21012,47.5792,1014.54
104396,2.98422,-1.64515,-8.70875,-57.75,-6.65,4.13,-20.253,-4.87571,46.6294,1014.51
104402,3.3955,-1.6834,-9.0483,-61.81,14.21,4.83,-20.0238,-4.38375,46.3317,1014.51
104408,3.5868,-2.17121,-8.42659,-58.31,21.49,9.31,-19.9951,-5.51237,45.6228,1014.54
104414,3.14682,-2.15686,-8.31181,-48.79,23.8,10.85,-20.0238,-6.00433,45.5661,1014.54
104420,3.77331,-3.65375,-7.31707,-36.05,14.35,-1.54,-19.766,-5.85963,45.7646,1014.51
104426,4.5385,-3.35246,-7.91965,-34.16,4.83,-26.18,-20.4248,-5.91751,45.3109,1014.51
104432,5.27499,-3.14204,-8.59397,-31.92,5.25,-44.87,-19.9092,-6.40947,45.4527,1014.52
104438,5.71019,-3.05595,-8.13008,-11.9,25.41,-23.73,-19.68,-6.75674,46.2749,1014.52
104444,3.12769,-1.59254,-7.4988,-14.28,3.85,-16.17,-20.4821,-6.46735,45.2258,1014.52
104450,3.00335,-2.52511,-7.44141,-29.12,-12.95,-21.21,-20.1384,-7.36446,45.0699,1014.52
