Timestamp,AccX,AccY,AccZ,AngularVelX,AngularVelY,AngularVelZ,MagX,MagY,MagZ,AirPressure
25472,0.0621712,6.57102,7.22621,0,0,-0.21,40.9934,-13.3259,-72.1042,1011.98
25478,0.0621712,6.59015,7.25012,0.77,-0.49,-0.07,42.0247,-13.6153,-71.9057,1011.93
25484,0.0621712,6.56624,7.22142,-0.42,-0.21,-0.35,40.7356,-13.1233,-71.4379,1011.93
25490,0.0813008,6.56624,7.21664,0.63,0.14,0.07,40.9934,-13.3548,-70.9984,1011.95
25496,0.0430416,6.56145,7.21186,0.42,0.21,0,40.8216,-12.9497,-70.9417,1011.95
25502,0.047824,6.56145,7.21664,-0.14,-0.28,0,41.6523,-13.1233,-72.3452,1011.95
25508,0.0669536,6.58058,7.22142,0.56,0.21,0,41.4518,-13.4995,-71.3244,1011.94
25514,0.0621712,6.59015,7.21186,0.98,0.14,0.14,41.9101,-13.9047,-71.7781,1011.94
25520,0.0908656,6.56145,7.25012,0,0.21,-0.21,41.2226,-12.5735,-71.1543,1011.95
25526,0.0669536,6.56624,7.23099,0.42,-0.14,-0.21,40.7356,-13.8468,-71.5796,1011.95
25532,0.0621712,6.58536,7.21186,0.77,-0.42,-0.07,41.2799,-13.4995,-72.0617,1011.96
25538,0.0813008,6.5758,7.22621,0.63,-0.63,-0.42,41.8528,-13.1812,-72.3168,1011.96
25544,0.0526064,6.59015,7.24055,0.56,-0.35,-0.21,41.8242,-12.8339,-70.3746,1011.98
25550,0.0860832,6.59015,7.22142,-0.21,0.21,-0.28,40.9075,-13.3838,-71.608,1011.98
25556,0.0526064,6.58058,7.21664,0.98,0.14,-0.07,41.2226,-13.6153,-71.608,1011.96
25562,0.071736,6.56145,7.19751,0.84,0,0.07,40.9075,-13.268,-71.7639,1011.96
25568,0.071736,6.57102,7.22621,-17.36,-0.35,-0.21,41.3945,-13.2391,-70.4738,1011.94
25574,0.0526064,6.55667,7.23577,0.77,-0.28,-0.07,41.2226,-13.0365,-70.9984,1011.94
25580,0.0860832,6.5758,7.23099,0.77,0,-0.07,41.8242,-13.6731,-71.7356,1011.96
25586,0.0573888,6.56624,7.24055,0.14,0,-0.21,41.6523,-12.805,-70.2612,1011.96
25592,0.0573888,6.59015,7.21186,0.42,-0.07,0.07,40.9362,-12.8629,-70.332,1011.96
25598,0.0621712,6.58536,7.24055,0.7,0.07,-0.07,41.2799,-13.4995,-71.8915,1011.94
25604,0.047824,6.58058,7.23099,0.28,-0.28,-0.21,40.8216,-12.4288,-71.3386,1011.94
25610,0.0765184,6.56624,7.19751,0.21,-0.14,-0.28,41.0507,-12.9207,-71.3386,1011.95
25616,0.047824,6.59971,7.21664,0,-0.21,-0.35,41.0221,-12.3709,-71.8065,1011.95
25622,0.0430416,6.5758,7.22621,0.56,-0.35,0,41.0221,-13.4416,-71.0267,1011.97
25628,0.0621712,6.56624,7.24055,0.28,0,-0.35,40.9362,-13.2391,-72.0191,1011.97
25634,0.0430416,6.59971,7.23099,0.21,-0.14,-0.14,40.2773,-13.3838,-71.452,1011.96
25640,0.0573888,6.55667,7.20708,0,-0.07,17.57,41.2226,-12.805,-71.4946,1011.96
25646,0.0526064,6.56624,7.21664,-0.07,-0.14,-0.14,41.4518,-12.7182,-72.0191,1011.95
25652,0.0765184,6.55189,7.21664,-0.14,-0.14,0.14,41.108,-12.2262,-71.6222,1011.95
25658,0.0860832,6.58058,7.21186,0.7,-0.14,-0.28,41.6237,-12.8918,-70.9133,1011.97
25664,0.0573888,6.57102,7.21664,0.84,0,-0.42,41.7669,-13.3259,-70.8991,1011.97
25670,0.0621712,6.58536,7.22142,0.7,0,-0.56,41.2226,-13.1522,-71.7498,1011.93
25676,0.0573888,6.5758,7.23577,-0.07,-0.07,-0.07,40.9648,-12.6313,-71.7498,1011.93
25682,0.047824,6.5758,7.21186,-0.07,0.07,-0.35,41.3086,-13.3548,-71.7072,1011.93
25688,0.0813008,6.55667,7.22142,0.07,-0.07,-0.28,41.108,-13.268,-71.3953,1011.93
25694,0.0621712,6.56624,7.21664,0.7,0.28,-0.28,41.1367,-12.8339,-72.0758,1011.93
25700,0.0860832,6.59015,7.19751,0.35,0,-0.07,41.3372,-13.1233,-71.7498,1011.93
25706,0.0621712,6.59015,7.22621,-0.14,-0.21,-0.28,40.8502,-12.5735,-72.2885,1011.93
25712,0.071736,6.56145,7.22621,1.05,0.14,-0.07,41.0507,-13.268,-72.1325,1011.94
25718,0.047824,6.56624,7.22621,0.91,0.07,-0.21,40.9934,-13.0944,-71.3812,1011.94
25724,0.0526064,6.56145,7.22621,0.56,-0.14,-0.42,41.7096,-13.3838,-71.7923,1011.95
25730,0.047824,6.5758,7.25012,-0.14,-0.14,-0.21,40.8789,-13.0075,-71.6363,1011.95
25736,0.0573888,6.54711,7.24055,-0.28,0,-0.35,40.9648,-13.1812,-72.6571,1011.95
25742,0.0765184,6.5758,7.24534,-0.14,0,-0.35,41.5091,-13.6153,-71.6789,1011.95
25748,0.0430416,6.55189,7.23577,0.42,-0.14,0.14,41.4804,-13.3548,-71.211,1011.96
25754,0.0430416,6.56145,7.22142,0.35,-0.28,0.07,40.621,-13.3838,-71.8206,1011.96
25760,0.0621712,6.58536,7.23099,0.14,-0.21,-0.21,41.2226,-13.7889,-72.0617,1011.96
25766,0.0813008,6.60928,7.2549,0.7,-0.35,-0.07,41.108,-13.4706,-71.2961,1011.95
25772,0.0621712,6.56145,7.23099,0.84,-0.07,-0.42,41.194,-13.4706,-72.1042,1011.95
25778,0.0908656,6.55667,7.22142,0.56,-0.21,-0.56,41.5377,-13.4706,-71.0409,1011.95
25784,0.0382592,6.5758,7.22142,0.28,0.07,-0.07,41.3659,-13.0075,-71.452,1011.95
25790,0.0526064,6.59015,7.23099,0.42,-0.14,-0.07,40.707,-13.2391,-71.2394,1011.92
25796,0.0669536,6.56145,7.22621,0.98,0.14,-0.14,41.194,-11.9368,-71.8915,1011.92
25802,0.0621712,6.5758,7.23577,0.07,-0.14,0,41.5664,-13.5284,-71.3244,1011.92
25808,0.0669536,6.56624,7.20708,0.42,-0.28,0,41.8242,-13.2969,-71.8065,1011.92
25814,0.0526064,6.55667,7.21664,0,0.07,-0.21,41.3372,-12.6313,-71.9908,1011.92
25820,0.0765184,6.56624,7.22621,0.77,0,0,41.4804,-12.1104,-71.2677,1011.92
25826,0.0765184,6.56145,7.24534,1.33,-0.21,0,41.3945,-12.7471,-72.246,1011.96
25832,0.071736,6.58536,7.20229,0.56,0.14,-0.35,41.3659,-12.7471,-70.7574,1011.96
25838,0.047824,6.59971,7.25012,0.28,0,-0.07,41.108,-12.6024,-71.8774,1011.93
25844,0.0334768,6.57102,7.20708,0.7,-0.07,0.21,41.4804,-13.3838,-70.9984,1011.93
25850,0.0669536,6.60449,7.21186,0.91,-0.35,-0.56,41.8528,-13.2101,-71.9482,1011.93
25856,0.0430416,6.55189,7.23577,0.21,-0.21,0,40.7929,-13.1812,-72.3452,1011.95
25862,0.0813008,6.57102,7.24534,-0.49,-0.21,-0.35,41.8815,-13.5284,-72.0333,1011.95
25868,0.0382592,6.5758,7.22621,0.35,-0.28,-0.14,41.6523,-13.5574,-71.3953,1011.97
25874,0.047824,6.55189,7.23099,0.63,-0.28,-0.21,40.9362,-13.6442,-71.2677,1011.97
25880,0.0573888,6.56145,7.21664,0,-0.14,0.14,41.3659,-13.0654,-71.2536,1011.96
25886,0.0334768,6.5758,7.22142,0.35,0.14,-0.14,41.2513,-13.0365,-71.452,1011.96
25892,0.0430416,6.60449,7.22142,0.49,-0.21,-0.07,41.4518,-14.5413,-71.126,1011.94
25898,0.0765184,6.58536,7.23099,0.49,0.07,0,41.5664,-13.2391,-71.9624,1011.94
25904,0.0669536,6.58536,7.24534,0.7,-0.42,-0.35,40.7356,-13.2969,-71.849,1011.96
25910,0.0813008,6.58058,7.20708,0.14,-0.07,0,41.2799,-13.6442,-71.8915,1011.96
25916,0.0573888,6.58536,7.23099,0,-0.28,-0.35,40.9934,-12.6603,-71.6363,1011.97
25922,0.0286944,6.56624,7.22621,0.07,0,-0.07,41.9674,-13.2969,-70.97,1011.97
25928,0.0526064,6.56624,7.21186,0.21,-0.07,-0.07,41.2799,-13.268,-71.608,1011.98
25934,0.071736,6.56624,7.20708,-0.35,-0.14,-0.35,40.7643,-13.4706,-71.211,1011.98
25940,0.0908656,6.55667,7.23577,-0.07,0.07,-0.35,40.7643,-13.2969,-71.4237,1011.98
25946,0.047824,6.58058,7.22621,0.42,-0.07,-0.28,41.4518,-12.8339,-71.0551,1011.96
25952,0.105213,6.58058,7.20229,-0.49,0,-0.42,41.2226,-12.9786,-71.4662,1011.96
25958,0.071736,6.59015,7.23099,1.05,-0.14,-0.07,41.5377,-13.7889,-70.9417,1011.95
25964,0.0573888,6.5758,7.22621,-0.42,-0.21,-0.42,41.4804,-13.0075,-71.0976,1011.95
25970,0.0526064,6.58058,7.22142,0.14,-0.07,-0.35,41.0221,-13.2969,-71.452,1011.96
25976,0.0813008,6.58058,7.23577,0.35,0,-0.14,41.194,-13.2101,-71.2536,1011.96
25982,0.0621712,6.58058,7.21664,-0.21,-0.35,-0.56,41.1653,-12.4866,-71.4379,1011.94
25988,0.071736,6.5758,7.24534,-0.14,-0.14,-0.28,40.9075,-12.8339,-71.9766,1011.94
25994,0.0573888,6.58536,7.22621,0.77,17.78,0.14,41.2799,-13.0944,-71.7498,1011.93
26000,0.095648,6.56624,7.20708,0.56,0,-0.77,41.8815,-12.8918,-71.452,1011.93
26006,0.047824,6.58536,7.24534,0.14,0,-0.49,41.5377,-12.0526,-71.9341,1011.98
26012,0.047824,6.56145,7.23099,0.35,0,0.14,41.3659,-12.8918,-71.5513,1011.98
26018,0.0669536,6.58058,7.23099,0.84,-0.28,-0.35,40.7643,-13.268,-73.2525,1011.94
26024,0.071736,6.5758,7.19751,0.91,-0.28,-0.28,41.3086,-12.7471,-71.4946,1011.94
26030,0.0765184,6.55189,7.21186,-0.21,-0.07,-0.14,41.681,-12.9207,-71.3244,1011.94
26036,0.0669536,6.57102,7.24534,0.42,-0.14,-0.28,41.0794,-12.5445,-71.9908,1011.95
26042,0.0382592,6.56145,7.21664,0.91,0,-0.14,41.8528,-12.9207,-71.849,1011.95
26048,0.0621712,6.53754,7.23577,0,-0.14,-0.21,41.8242,-13.4416,-71.8065,1011.96
26054,0.047824,6.57102,7.24534,0.7,0,0,40.8789,-13.4416,-72.0475,1011.96
26060,0.0669536,6.58058,7.24055,0.7,-0.07,-0.35,41.3372,-12.8918,-71.6789,1011.96
26066,0.0621712,6.59971,7.22142,-0.21,-0.14,-0.07,41.4804,-13.1522,-71.8348,1011.96
26072,0.0669536,6.58058,7.22142,0.7,-0.07,-0.21,41.194,-12.8918,-71.9057,1011.95
26078,0.0573888,6.59015,7.23577,0.84,-0.07,-0.14,41.3372,-13.4416,-71.5796,1011.95
26084,0.071736,6.58058,7.22621,0.28,0.14,0,41.5664,-13.2391,-72.3452,1011.96
26090,0.0669536,6.58536,7.23577,0.35,-0.21,-0.21,41.4231,-13.0075,-71.452,1011.96
26096,0.0669536,6.54232,7.21186,1.12,-0.35,-0.21,41.5664,-12.8629,-71.5655,1011.95
26102,0.071736,6.57102,7.22621,-0.84,0.14,-0.35,42.0534,-13.0654,-71.8065,1011.95
26108,0.0669536,6.58536,7.20708,0.21,-0.14,0.14,41.6523,-12.9497,-71.4237,1011.95
26114,0.0621712,6.57102,7.21664,1.12,-0.28,-0.07,41.3659,-13.5574,-72.0617,1011.97
26120,0.0573888,6.58058,7.24534,-0.14,-0.35,-0.35,41.1653,-14.1651,-71.8065,1011.97
26126,0.0765184,6.59493,7.21186,-0.56,-0.28,0,41.3372,-13.4706,-71.9624,1011.94
26132,0.0621712,6.54711,7.2549,0.56,0.07,0,41.3086,-13.0654,-72.5012,1011.94
26138,0.071736,6.61406,7.22621,0.21,-0.21,-0.63,41.4231,-12.7471,-71.6363,1011.95
26144,0.0573888,6.5758,7.21186,-0.63,-0.28,0,41.2799,-13.4127,-72.1467,1011.95
26150,0.0669536,6.55189,7.24055,-0.14,0.07,0.21,41.2799,-13.0654,-71.6647,1011.95
26156,0.071736,6.59015,7.19751,0.49,0.21,-0.56,41.3372,-12.5735,-71.849,1011.95
26162,0.0430416,6.56624,7.20708,0.28,0.07,-0.49,41.4518,-13.6153,-72.8839,1011.96
26168,0.0430416,6.58536,7.21186,0.14,-0.35,0.07,41.6523,-13.3838,-72.7138,1011.96
26174,0.0526064,6.57102,7.22621,0.49,-0.14,-0.63,41.3945,-13.1522,-72.1042,1011.97
26180,0.105213,6.58058,7.25012,0.63,-0.07,-0.49,41.4804,-13.731,-71.6222,1011.97
26186,0.0765184,6.54711,7.21664,1.12,0.07,-0.07,41.4804,-13.4127,-72.4019,1011.94
26192,0.0526064,6.58536,7.21664,0.07,0.07,-0.35,42.2825,-12.776,-71.452,1011.94
26198,0.0669536,6.55667,7.24534,-0.07,-0.28,-0.14,41.0507,-13.268,-72.2601,1011.94
26204,0.0334768,6.58058,7.22621,0.49,0.07,0.35,41.194,-13.1522,-71.7356,1011.97
26210,0.0334768,6.55667,7.21186,-0.35,-0.07,-0.21,41.194,-13.3838,-71.5087,1011.97
26216,0.0669536,6.58536,7.19751,-0.28,-0.07,-0.07,41.5377,-13.1812,-72.005,1011.95
26222,0.0765184,6.5758,7.23099,0.49,-0.07,0.14,41.7956,-13.0075,-71.4237,1011.95
26228,0.0669536,6.58536,7.20708,-0.07,0,-0.42,41.6523,-13.6153,-71.1401,1011.93
26234,0.0669536,6.57102,7.2549,-0.42,-0.49,-0.21,41.5377,-13.268,-70.2045,1011.93
26240,0.0669536,6.58536,7.21664,0.63,0.07,-0.07,41.5091,-13.8468,-72.3736,1011.95
26246,0.047824,6.56145,7.23577,0.56,-0.14,-0.35,41.3372,-13.8468,-71.5796,1011.95
26252,0.071736,6.56145,7.21664,-0.84,0.07,-0.42,41.2513,-13.5284,-72.8272,1011.95
26258,0.0573888,6.58058,7.23577,0.14,-0.14,0,41.0507,-13.4127,-71.7923,1011.95
26264,0.095648,6.5758,7.22621,0.91,-0.28,-0.49,40.707,-13.1233,-70.9275,1011.98
26270,0.0621712,6.60928,7.22142,0.49,-0.07,-0.35,41.4231,-13.3838,-72.3736,1011.98
26276,0.0573888,6.54232,7.22621,0.49,0.07,-0.35,41.595,-13.2101,-71.3953,1011.96
26282,0.0573888,6.5758,7.20229,0.63,-0.14,-0.42,40.5638,-13.6153,-72.1042,1011.96
26288,0.047824,6.59015,7.22621,1.19,0,-0.35,42.1107,-12.776,-71.4946,1011.96
26294,0.0621712,6.52798,7.19751,0.56,0,-0.42,41.194,-13.0654,-71.4379,1011.93
26300,0.0430416,6.56145,7.21664,0.35,0.21,0.14,41.681,-13.76,-71.5371,1011.93
26306,0.071736,6.55189,7.20708,0.63,-0.42,-0.21,41.5664,-13.4127,-70.2895,1011.93
26312,0.0573888,6.56145,7.20229,1.05,0,-0.56,41.0794,-13.3259,-70.7999,1011.93
26318,0.0860832,6.5758,7.21664,-0.56,-0.21,-0.07,41.0507,-13.4995,-71.6363,1011.95
26324,0.0526064,6.56624,7.21664,-0.35,-0.07,-0.21,41.7096,-13.1812,-72.2176,1011.95
26330,0.0669536,6.56624,7.20708,0.49,-0.35,-0.07,41.194,-13.1522,-70.9417,1011.92
26336,0.0621712,6.59971,7.21186,0.14,-0.28,-0.14,41.0507,-13.2969,-71.6505,1011.92
26342,0.0526064,6.59971,7.20229,-0.49,-0.35,-0.14,41.3945,-13.2969,-71.5229,1011.98
26348,0.071736,6.56145,7.22142,0.91,-0.14,-0.07,40.5065,-13.1522,-72.3594,1011.98
26354,0.0573888,6.58058,7.22621,0.07,-0.14,-0.28,40.7929,-12.8339,-72.1184,1011.94
26360,0.0765184,6.55667,7.21186,-0.42,-0.28,-0.21,42.2539,-13.0365,-70.8566,1011.94
26366,0.0765184,6.57102,7.22621,0.7,-0.07,0.07,41.1367,-13.2969,-72.1467,1011.94
26372,0.071736,6.56145,7.25012,0.07,-0.42,-0.42,40.9648,-13.4127,-71.4804,1011.94
26378,0.0621712,6.55189,7.21664,-0.07,0,-0.28,41.4231,-13.4995,-72.2034,1011.94
26384,0.0669536,6.56624,7.21186,0.28,17.71,0.21,41.1367,-13.1812,-71.7781,1011.94
26390,0.0765184,6.56624,7.24534,-0.56,-0.21,-0.84,41.3659,-13.268,-71.9482,1011.94
26396,0.0573888,6.56145,7.24055,0.35,-0.35,-0.42,41.108,-13.3838,-71.6647,1011.95
26402,0.0526064,6.5758,7.20229,0.56,-0.14,0.42,41.4231,-13.1522,-71.9624,1011.95
26408,0.047824,6.5758,7.22621,-0.14,-0.07,-0.7,40.5924,-12.805,-70.7715,1011.97
26414,0.0860832,6.59493,7.21664,-0.07,-0.14,-0.21,41.108,-13.6731,-71.0976,1011.97
26420,0.071736,6.55667,7.21664,0.42,0,17.29,41.0221,-13.3548,-70.885,1011.94
26426,0.0765184,6.57102,7.21664,0.84,0.28,-0.63,41.9674,-13.2101,-71.5513,1011.94
26432,0.0621712,6.61884,7.21186,0.28,-0.21,0,41.3372,-13.0365,-72.4303,1011.96
26438,0.071736,6.58536,7.22621,0.63,-0.21,-0.14,40.6497,-13.0075,-71.9766,1011.96
26444,0.0526064,6.5758,7.24534,0.7,-0.35,-0.63,41.0507,-13.7889,-71.1401,1011.94
26450,0.047824,6.58536,7.22142,1.33,0,-0.07,40.9648,-12.4577,-71.3528,1011.94
26456,0.0573888,6.58536,7.21664,-0.63,-0.21,-0.42,41.1367,-12.8629,-71.452,1011.94
26462,0.0669536,6.58536,7.21664,-0.35,-0.28,-0.49,40.9362,-12.9207,-72.7422,1011.96
26468,0.0813008,6.56145,7.21186,0.42,-0.28,-0.07,40.9934,-13.3548,-70.7574,1011.96
26474,0.0813008,6.58058,7.23099,0.42,-0.14,-0.42,41.9674,-13.2101,-72.0333,1011.96
26480,0.0573888,6.55667,7.20708,0.28,0,-0.35,41.3945,-13.1522,-71.1827,1011.96
26486,0.0669536,6.56624,7.21186,-0.63,-0.21,-0.07,41.681,-13.5863,-71.367,1011.95
26492,0.0765184,6.60449,7.22621,1.33,-0.14,-0.07,41.681,-13.731,-70.9558,1011.95
26498,0.0813008,6.53754,7.23577,1.12,-0.21,-0.35,41.3086,-12.9786,-72.2601,1011.93
26504,0.0334768,6.5758,7.23577,0.35,-0.35,-0.14,41.5664,-13.5574,-72.6146,1011.93
26510,0.0430416,6.56624,7.20229,0.98,-0.07,-0.35,41.4804,-13.1233,-71.8632,1011.96
26516,0.0908656,6.56624,7.21664,1.26,-0.21,-0.28,41.1653,-13.2969,-71.2819,1011.96
26522,0.0669536,6.5758,7.22621,0.98,0,-0.35,41.6237,-12.6024,-70.885,1011.92
26528,0.0860832,6.59493,7.22142,-0.49,-0.28,-0.35,41.3086,-13.0944,-71.7072,1011.92
26534,0.0813008,6.59015,7.21664,0.35,-0.07,-0.28,41.1653,-13.9336,-71.1968,1011.92
26540,0.0908656,6.57102,7.19751,0.42,-0.14,-0.35,41.0507,-13.4995,-72.4728,1011.92
26546,0.0573888,6.55667,7.22142,0.07,0.07,-0.28,41.0794,-12.9497,-73.0966,1011.92
26552,0.0526064,6.58058,7.19751,0.28,0,-0.14,39.5611,-14.4834,-72.0333,1011.95
26558,0.0621712,6.57102,7.19751,0.49,-0.49,-0.7,41.194,-13.1233,-71.6505,1011.95
26564,0.0526064,6.56624,7.24055,0.42,-0.28,-0.14,41.2226,-12.9786,-71.9766,1011.96
26570,0.0430416,6.5758,7.22142,1.19,-0.21,-0.21,41.2226,-13.268,-71.211,1011.96
26576,0.0621712,6.5758,7.23577,0.77,0.21,0,41.0794,-13.7889,-71.4946,1011.95
26582,0.0526064,6.59015,7.23577,-0.28,0.21,-0.21,40.8789,-13.2391,-71.1968,1011.95
26588,0.0765184,6.5758,7.22142,0.14,-0.28,0,41.1367,-13.5863,-71.7498,1011.94
26594,0.0430416,6.58058,7.22621,0.56,-0.42,-0.42,41.3945,-12.6313,-71.5796,1011.94
26600,0.0430416,6.55667,7.23099,0.21,-0.14,-0.07,41.4804,-12.2551,-71.6931,1011.93
26606,0.0526064,6.55189,7.20708,-0.14,0.28,0.07,41.6237,-13.268,-71.4804,1011.93
26612,0.0621712,6.5758,7.23099,0.07,-0.14,0,41.595,-13.76,-71.3244,1011.93
26618,0.0526064,6.56145,7.21664,1.05,-0.07,-0.35,41.4804,-13.3548,-71.6647,1011.93
26624,0.095648,6.57102,7.23577,0.7,0.14,-0.07,41.2513,-13.5574,-71.4662,1011.95
26630,0.0669536,6.59493,7.21186,0,-0.42,-0.42,41.595,-13.3259,-72.2034,1011.95
26636,0.0430416,6.56145,7.23577,0.7,-0.07,-0.14,41.2799,-13.7021,-70.729,1011.95
26642,0.0669536,6.56145,7.22142,1.05,-0.14,-0.21,40.9362,-13.0944,-72.246,1011.94
26648,0.0669536,6.57102,7.23577,0.42,0.21,-0.21,41.0221,-13.4416,-71.367,1011.94
26654,0.0621712,6.59971,7.22621,-0.07,-0.63,-0.35,41.3372,-13.2391,-71.7356,1011.95
26660,0.0765184,6.58058,7.21186,0.7,0.07,-0.28,41.0794,-13.3259,-71.8774,1011.95
26666,0.0860832,6.60928,7.23577,1.4,0.07,-0.42,40.6783,-13.3548,-70.6439,1011.93
26672,0.0526064,6.58058,7.23577,-0.77,-0.14,-0.07,40.7929,-12.7182,-70.6298,1011.93
26678,0.0334768,6.59015,7.21186,-0.42,-0.35,0,40.5638,-13.5863,-72.3168,1011.93
26684,0.0382592,6.58058,7.21186,0.7,-0.07,0.07,41.7956,-13.5863,-70.4455,1011.93
26690,0.0669536,6.59493,7.22142,0.14,-0.28,-0.14,41.7383,-13.5284,-72.0617,1011.97
26696,0.0286944,6.59493,7.21186,-0.56,-0.21,-0.21,41.3372,-13.0944,-71.0267,1011.97
26702,0.0669536,6.56624,7.22621,0,-0.07,-0.07,41.6523,-12.9497,-71.3528,1011.94
26708,0.0334768,6.56624,7.23099,0.28,-0.07,-0.42,41.8528,-13.0365,-71.6789,1011.94
26714,0.071736,6.5758,7.21664,0.42,-0.07,-0.28,41.681,-13.0365,-72.5437,1011.94
26720,0.0621712,6.56145,7.19751,-0.42,-0.28,-0.28,41.9388,-13.2391,-71.5513,1011.94
26726,0.0813008,6.5758,7.24534,1.33,0.07,-0.35,42.0534,-12.1394,-72.969,1011.94
26732,0.0573888,6.57102,7.21186,0.77,-0.28,-0.14,40.6783,-12.9207,-72.1892,1011.91
26738,0.0908656,6.57102,7.20708,0,-0.07,-0.21,41.595,-13.9625,-71.211,1011.91
26744,0.0621712,6.55667,7.22142,0.35,-0.21,-0.35,41.595,-12.776,-70.5305,1011.94
26750,0.105213,6.58058,7.21664,0.35,-0.21,-0.28,41.4518,-13.1812,-71.3103,1011.94
26756,0.0334768,6.56624,7.21664,0.7,0.14,-0.14,41.2799,-13.2101,-70.9417,1011.92
26762,0.0526064,6.57102,7.21186,0.14,0.07,-0.07,41.7956,-12.6024,-71.126,1011.92
26768,0.071736,6.55189,7.21186,0,-0.35,0,41.9961,-13.0075,-71.7781,1011.95
26774,0.0573888,6.56145,7.22621,0.56,-0.35,-0.28,41.7383,-13.0654,-72.5295,1011.95
26780,0.0526064,6.54711,7.22621,1.4,-0.14,0,42.4544,-13.0075,-72.572,1011.95
26786,0.047824,6.58536,7.22621,1.05,0.07,-0.07,41.681,-12.6313,-71.6789,1011.95
26792,0.047824,6.58058,7.20708,-0.28,-17.92,-0.42,40.9075,-13.4416,-71.6647,1011.97
26798,0.047824,6.58536,7.23577,0.7,0.07,-0.14,41.8815,-13.3259,-71.6505,1011.97
26804,0.0621712,6.58058,7.22142,1.82,0.07,-0.14,41.7383,-13.0075,-71.1543,1011.97
26810,0.0621712,6.5758,7.22621,-0.63,-0.14,-0.42,41.595,-13.2391,-71.5371,1011.91
26816,0.047824,6.55189,7.21186,-0.14,-0.28,0.14,41.5377,-13.0075,-72.4161,1011.91
26822,0.0621712,6.56624,7.24534,0.77,-0.28,0,41.9961,-13.5863,-72.1467,1011.96
26828,0.0430416,6.56145,7.23099,-0.14,-0.28,-0.14,41.1653,-12.5156,-71.849,1011.96
26834,0.0765184,6.5758,7.20708,-0.63,-0.07,-0.07,41.4231,-12.9786,-72.0475,1011.95
26840,0.0526064,6.57102,7.21186,-0.21,-0.21,-0.28,40.8216,-13.3548,-71.5371,1011.95
26846,0.071736,6.5758,7.22621,1.12,0.07,-0.28,41.681,-12.8629,-71.1685,1012.02
26852,0.0765184,6.59493,7.19751,0.35,-0.07,-0.28,41.194,-12.8918,-71.6789,1012.02
26858,0.0526064,6.56145,7.20708,0.42,-0.07,0,41.0221,-13.2391,-71.9482,1011.97
26864,0.0286944,6.56624,7.22142,0.28,-0.21,-0.28,41.5377,-12.9497,-70.6156,1011.97
26870,0.0526064,6.5758,7.22142,0.21,-0.42,-0.14,40.7356,-14.1072,-70.5447,1011.97
26876,0.0669536,6.58058,7.21664,0.49,-0.14,-0.14,40.8789,-13.5284,-70.7715,1011.97
26882,0.0765184,6.56145,7.20708,0.21,-0.56,-0.56,41.5664,-12.3709,-71.1968,1011.95
26888,0.0765184,6.58058,7.22621,-0.28,-0.21,-0.21,41.8815,-12.7182,-71.5087,1011.95
26894,0.0621712,6.56624,7.22621,0.07,-0.42,0,41.4804,-13.0654,-70.091,1011.95
26900,0.071736,6.56624,7.20229,0.77,-0.28,-0.42,41.2226,-12.5156,-70.5872,1011.97
26906,0.071736,6.58058,7.21186,0.35,0.14,-0.28,41.5377,-12.8918,-71.608,1011.97
26912,0.0526064,6.55667,7.21664,0.14,-0.07,-0.28,41.3086,-12.9786,-70.9275,1011.94
26918,0.0573888,6.56145,7.20708,0.35,-0.14,-0.21,41.2513,-13.76,-71.3953,1011.94
26924,0.071736,6.55189,7.19751,0.07,-0.21,-0.42,41.4804,-13.4127,-70.9984,1011.96
26930,0.0526064,6.55189,7.22621,0,-0.14,-0.42,40.8502,-13.76,-71.4095,1011.96
26936,0.095648,6.57102,7.20229,0.91,-0.21,-0.14,41.7383,-12.9207,-71.0693,1011.94
26942,0.071736,6.59493,7.24055,0.7,-0.21,-0.21,41.9961,-12.7182,-71.6647,1011.94
26948,0.0573888,6.56624,7.21664,0.77,-0.21,-0.42,40.621,-12.6024,-71.2677,1011.92
26954,0.0526064,6.57102,7.23099,0.35,-0.21,0.07,41.3659,-12.776,-72.1751,1011.92
26960,0.0669536,6.59015,7.24055,0,-0.14,-0.56,42.2253,-12.5156,-70.6581,1011.96
26966,0.047824,6.60449,7.22142,-0.77,0.07,-0.56,41.1367,-13.268,-71.1118,1011.96
26972,0.0430416,6.5758,7.22621,1.33,-0.28,0.35,42.082,-13.2391,-71.3103,1011.96
26978,0.0765184,6.5758,7.21186,-0.28,0.14,-0.56,41.8242,-13.4706,-71.2394,1011.96
26984,0.0621712,6.55667,7.20229,-0.42,0.07,-0.56,41.194,-13.3548,-71.3812,1011.96
26990,0.0526064,6.59015,7.21186,0.98,0.35,-0.28,40.707,-13.5574,-71.2394,1011.96
26996,0.047824,6.55667,7.23099,0.56,0,-0.7,41.4804,-13.0654,-71.1401,1011.96
27002,0.0669536,6.59015,7.21186,0.56,-0.35,-0.35,40.3632,-13.5863,-72.7138,1011.92
27008,0.071736,6.58536,7.20229,0.35,-0.56,0.14,40.9362,-13.5574,-71.6505,1011.92
27014,0.071736,6.5758,7.20708,0,-0.28,-0.21,41.9961,-12.5445,-72.0333,1011.97
27020,0.0669536,6.57102,7.19751,0.7,-0.14,-0.49,41.5377,-13.1522,-71.4804,1011.97
27026,0.0573888,6.58536,7.20708,-0.42,-0.28,-0.14,41.4231,-12.6892,-73.2242,1011.94
27032,0.095648,6.55667,7.22142,-0.14,-0.07,-0.14,41.2226,-14.2519,-71.9908,1011.94
27038,0.0765184,6.56624,7.21664,-0.77,-0.21,-0.21,41.4804,-13.0365,-71.4095,1011.95
27044,0.0526064,6.58536,7.20229,1.26,-0.14,-0.28,42.1393,-12.8339,-70.729,1011.95
27050,0.0813008,6.55189,7.20708,0.07,-0.21,-0.28,41.6523,-13.2101,-71.367,1011.96
27056,0.0765184,6.58058,7.22142,-0.49,-0.21,-0.56,41.7383,-12.9786,-71.1685,1011.96
27062,0.0526064,6.58536,7.20229,1.12,-0.21,-0.07,41.6523,-13.1812,-71.5655,1011.96
27068,0.0669536,6.55189,7.21664,0.7,0,-0.49,41.3659,-13.0654,-72.331,1011.95
27074,0.0908656,6.54232,7.19273,-0.07,-0.28,-0.49,42.0247,-13.8178,-71.6505,1011.95
27080,0.071736,6.58536,7.24534,1.12,0.21,0.07,41.595,-13.2101,-71.7781,1011.95
27086,0.047824,6.56624,7.24055,1.26,0.07,-0.42,41.2799,-13.0944,-71.211,1011.95
27092,0.0669536,6.57102,7.20708,0.42,0,-0.28,41.6523,-13.0654,-72.3877,1011.95
27098,0.0573888,6.5758,7.22142,0.49,-0.28,0.21,41.4518,-12.8918,-71.4946,1011.95
27104,0.0382592,6.5758,7.20708,1.12,-0.42,-0.21,41.2513,-13.3259,-72.1751,1011.93
27110,0.071736,6.59493,7.19273,0.84,-0.07,-0.28,41.3945,-13.0654,-71.3953,1011.93
27116,0.0813008,6.5758,7.21186,-0.14,-0.28,0.14,41.108,-13.1233,-71.849,1011.97
27122,0.047824,6.58536,7.20229,-0.07,0,-0.07,41.3945,-12.6603,-71.2252,1011.97
27128,0.0573888,6.58536,7.21664,0.56,-0.07,-0.42,42.0534,-13.5863,-72.6571,1011.95
27134,0.071736,6.58058,7.21186,0,0.07,0.42,42.0247,-13.268,-71.0267,1011.95
27140,0.0526064,6.56624,7.20229,0.42,-0.28,-0.14,41.4804,-13.0365,-72.3452,1011.95
27146,0.0813008,6.57102,7.21664,0.56,-0.28,-0.42,41.7096,-12.8629,-71.3528,1011.95
27152,0.0621712,6.58536,7.21186,0.14,-0.42,-0.07,40.7643,-12.6603,-72.1609,1011.95
27158,0.0526064,6.59015,7.22621,0.21,0.21,-0.21,42.168,-13.1233,-72.7705,1011.93
27164,0.0430416,6.59493,7.21664,0.49,-0.07,-0.42,42.1107,-12.6313,-71.0551,1011.93
27170,0.0813008,6.56145,7.21664,0.56,0.07,-0.42,41.4518,-13.5284,-71.7923,1011.93
27176,0.0430416,6.57102,7.20229,0.35,-0.14,0.21,41.7383,-12.776,-72.4161,1011.93
27182,0.0526064,6.59493,7.21664,-0.14,-0.14,-0.14,41.6237,-12.805,-72.3877,1011.94
27188,0.0765184,6.55189,7.21664,0.21,-0.07,-0.14,41.3659,-12.9786,-72.3452,1011.94
27194,0.0813008,6.56145,7.23099,1.12,-0.28,-0.35,41.108,-13.3259,-71.7923,1011.96
27200,0.0573888,6.60449,7.23099,0.07,-0.42,-0.28,40.621,-13.0365,-71.849,1011.96
27206,0.095648,6.55667,7.22142,-0.07,-0.14,-0.14,40.3346,-12.8918,-72.331,1011.96
27212,0.0526064,6.56624,7.23099,0.77,0,0.28,41.194,-12.6892,-71.8206,1011.96
27218,0.047824,6.57102,7.19751,0,-0.28,-0.49,41.3945,-13.6442,-73.1249,1011.94
27224,0.0669536,6.57102,7.22621,0.14,-0.42,0,41.4231,-13.4127,-72.5437,1011.94
27230,0.071736,6.56624,7.21664,0.14,-0.28,0.14,41.7383,-12.776,-71.7923,1011.93
27236,0.0526064,6.60449,7.19273,0.42,-0.35,-0.42,41.7096,-13.0944,-71.7072,1011.93
27242,0.0860832,6.56624,7.21186,-0.28,-0.35,0,40.7929,-12.776,-71.4946,1011.93
27248,0.047824,6.59015,7.21664,-0.14,0.07,-0.07,41.3659,-13.5574,-72.8839,1011.93
27254,0.0813008,6.5758,7.22142,0.84,0,-0.21,41.3372,-13.1812,-71.9908,1011.93
27260,0.0621712,6.54711,7.22621,0.7,0,-0.07,40.5351,-13.1522,-71.9057,1011.94
27266,0.0860832,6.58058,7.21664,0.56,0.21,0.07,41.4518,-13.0654,-72.5579,1011.94
27272,0.0813008,6.56145,7.21664,0.56,-0.07,-0.21,39.8476,-13.3838,-71.367,1011.93
27278,0.071736,6.59015,7.23099,0.28,-0.21,-0.49,41.595,-12.5445,-71.7356,1011.93
27284,0.0669536,6.55189,7.23099,-0.07,-0.35,-0.35,41.681,-13.2101,-71.7498,1011.93
27290,0.0573888,6.56624,7.21186,0.98,-0.28,-0.28,40.621,-13.0654,-72.3452,1011.93
27296,0.0334768,6.54232,7.23099,0.07,-0.28,-0.28,41.7383,-13.9625,-71.8065,1011.95
27302,0.0860832,6.57102,7.21664,-0.42,-0.21,-0.14,42.1966,-13.268,-71.8632,1011.95
27308,0.0813008,6.54711,7.22621,1.4,-0.35,0,41.3372,-13.4706,-71.1827,1011.94
27314,0.0813008,6.59015,7.20708,0.84,-0.14,-0.49,40.8789,-12.8339,-71.8348,1011.94
27320,0.0765184,6.56145,7.22142,0.63,0.07,-0.49,41.0507,-13.1233,-71.5796,1011.94
27326,0.0908656,6.55189,7.19751,-0.42,-0.07,-0.14,41.7383,-13.6442,-71.6931,1011.95
27332,0.0669536,6.56624,7.21186,0.28,0,-0.07,41.2226,-12.4288,-71.211,1011.95
27338,0.071736,6.59971,7.22621,0.77,0.07,-0.42,41.5091,-12.805,-71.6931,1011.93
27344,0.0526064,6.57102,7.21186,-0.14,0.07,-0.14,41.2226,-13.1233,-71.6363,1011.93
27350,0.0621712,6.58536,7.19751,0.42,-0.49,0.14,41.595,-12.7182,-70.9558,1011.96
27356,0.0334768,6.56624,7.24055,0.49,-0.21,-0.14,41.4804,-12.8918,-71.5513,1011.96
27362,0.047824,6.5758,7.22142,0.07,-0.14,0.14,41.4804,-13.0944,-71.9908,1011.94
27368,0.0621712,6.57102,7.21186,0.42,-0.07,-0.07,40.9075,-12.776,-71.7923,1011.94
27374,0.0765184,6.59015,7.19751,0.84,-0.35,-0.35,40.4778,-13.8468,-72.8981,1011.93
27380,0.0669536,6.57102,7.22621,0.35,-0.28,-0.21,41.6237,-13.268,-71.1827,1011.93
27386,0.0669536,6.54232,7.22621,-0.07,0,-0.07,41.1653,-13.0075,-72.09,1011.94
27392,0.0526064,6.59015,7.21664,0.28,0,-0.28,41.3945,-13.4995,-71.4095,1011.94
27398,0.0813008,6.56624,7.20708,0.7,-0.21,-0.14,41.7096,-13.7021,-71.849,1011.92
27404,0.071736,6.56145,7.20708,0.91,0.21,-0.07,41.4231,-13.2969,-72.1467,1011.92
27410,0.0430416,6.54711,7.22621,0.77,-0.28,-0.28,41.4231,-13.0365,-71.4946,1011.92
27416,0.0765184,6.54711,7.20708,-0.07,-0.35,-0.42,41.5664,-13.2101,-71.4379,1011.97
27422,0.0382592,6.5758,7.20708,0.91,-0.28,0.07,41.7383,-13.2969,-71.7356,1011.97
27428,0.071736,6.5758,7.22621,1.12,-0.07,-0.14,41.3086,-13.1812,-71.4804,1011.98
27434,0.0669536,6.59015,7.21664,0.28,0.14,0,41.6523,-13.4127,-71.0267,1011.98
27440,0.0813008,6.59493,7.22621,-0.07,-0.07,-0.14,41.2226,-12.9207,-70.9558,1011.94
27446,0.0813008,6.55189,7.21664,0.21,0,-0.21,41.2799,-13.268,-71.9624,1011.94
27452,0.0573888,6.58536,7.22142,0.91,0.14,0.14,41.3659,-12.805,-71.7781,1011.94
27458,0.0621712,6.58536,7.21664,0.91,0,0,40.5924,-12.9207,-71.6931,1011.94
27464,0.0765184,6.58058,7.22142,0.49,-0.56,-0.21,40.7643,-13.6442,-71.0834,1011.96
27470,0.0908656,6.54711,7.21664,0.21,-0.07,-0.07,41.108,-13.4416,-71.7781,1011.96
27476,0.0526064,6.54711,7.21664,0.49,0.07,0.14,41.3086,-12.9497,-71.7356,1011.95
27482,0.0860832,6.5758,7.23099,0.42,-0.28,-0.49,41.3659,-13.2101,-71.5655,1011.95
27488,0.0765184,6.55667,7.21186,0.07,-0.42,0,41.3945,-13.4416,-72.0617,1011.95
27494,0.0526064,6.54232,7.24055,0.07,0.07,-0.35,40.9648,-12.6313,-71.3386,1011.95
27500,0.0669536,6.57102,7.23099,0.49,0.49,-0.21,41.194,-12.313,-71.6789,1011.95
27506,0.0765184,6.5758,7.24055,0.21,0.14,-0.28,41.9101,-12.7182,-71.6505,1011.94
27512,0.0669536,6.56145,7.22621,-0.42,-0.21,-0.07,41.0794,-13.4706,-70.5872,1011.94
27518,0.047824,6.54232,7.23577,-0.21,-0.35,-0.21,40.8216,-13.1812,-71.8915,1011.96
27524,0.0621712,6.58536,7.21186,0.63,-0.28,-0.42,41.3659,-13.3548,-71.2252,1011.96
27530,0.0669536,6.57102,7.21664,0.7,-0.14,-0.49,41.1653,-12.7182,-71.4662,1011.93
27536,0.0908656,6.60928,7.22621,0.35,-0.07,-0.21,41.5091,-13.2391,-71.8348,1011.93
27542,0.0765184,6.56145,7.20708,0.91,-0.28,-0.21,40.8216,-13.2969,-71.4379,1011.99
27548,0.0813008,6.56624,7.23577,0.63,-0.21,-0.28,41.108,-13.3548,-72.1325,1011.99
27554,0.0573888,6.5758,7.20708,0.21,0.07,-0.21,41.0794,-12.8918,-72.2885,1011.94
27560,0.0813008,6.59971,7.20708,0.56,-0.07,-0.07,40.9362,-13.3259,-71.3103,1011.94
27566,0.071736,6.54232,7.21186,1.26,-0.14,-0.49,40.6497,-13.2969,-71.4379,1011.97
27572,0.0526064,6.56624,7.21186,-0.21,17.85,-0.35,40.4778,-13.0654,-71.8632,1011.97
27578,0.071736,6.59015,7.22142,-0.21,0.21,0.14,41.0221,-13.2101,-71.4095,1011.95
27584,0.0430416,6.60449,7.20708,0.63,-0.07,-0.63,40.3346,-12.776,-70.1336,1011.95
27590,0.0573888,6.55667,7.22621,0.14,-0.14,-0.35,40.5924,-13.0944,-70.9417,1011.95
27596,0.0765184,6.58536,7.20229,0.7,0.07,0,41.0794,-12.1973,-70.8424,1011.95
27602,0.0573888,6.56624,7.20229,1.12,-0.28,-0.21,40.7356,-13.4706,-72.4303,1011.95
27608,0.0430416,6.58536,7.21664,0.14,-0.21,-0.28,41.0794,-13.268,-71.9766,1011.98
27614,0.0813008,6.5758,7.22142,0.7,-0.28,0.07,41.595,-12.8918,-71.1968,1011.98
27620,0.0526064,6.59015,7.21186,0.7,0,-0.21,41.3372,-12.9207,-70.7857,1011.93
27626,0.0908656,6.55667,7.21664,-0.28,-0.21,0.14,41.0794,-12.9497,-72.005,1011.93
27632,0.071736,6.57102,7.22621,0.35,0.14,0.21,41.0221,-13.4706,-72.1042,1011.94
27638,0.071736,6.59015,7.20708,0.91,-0.21,-0.21,41.194,-13.3259,-72.5012,1011.94
27644,0.0669536,6.56145,7.20708,-0.28,-0.14,-0.07,41.2799,-13.5284,-71.9341,1011.95
27650,0.0526064,6.57102,7.21664,0.56,-0.28,0,41.1653,-13.1233,-71.8632,1011.95
27656,0.0573888,6.57102,7.19751,0.91,-0.42,-0.42,41.5377,-12.9786,-71.5796,1011.95
27662,0.0765184,6.58536,7.21186,-0.49,-0.35,-0.42,41.4231,-12.3998,-71.7072,1011.95
27668,0.0621712,6.57102,7.22142,0.56,-0.14,0,41.2799,-12.4577,-72.4728,1011.95
27674,0.0621712,6.56624,7.21664,1.12,0.14,0.56,41.2226,-13.1812,-71.7923,1011.96
27680,0.0526064,6.57102,7.22142,-0.56,0.14,-0.35,41.7096,-13.0075,-71.9199,1011.96
27686,0.0430416,6.5758,7.22621,0.56,0.14,0.49,41.8815,-13.5284,-72.1892,1011.97
27692,0.0526064,6.56624,7.23099,0.77,-0.07,0.42,41.3659,-13.5284,-72.4303,1011.97
27698,0.0765184,6.54711,7.23099,0.14,-0.14,-0.21,40.6497,-13.4416,-71.7923,1011.95
27704,0.0765184,6.59015,7.19751,0.49,-0.28,0.35,40.9648,-13.3548,-72.0758,1011.95
27710,0.0813008,6.56624,7.20708,0.42,-0.07,0.21,41.0507,-13.0654,-71.8065,1011.95
27716,0.047824,6.57102,7.20708,0.35,-0.42,-0.28,41.3372,-12.7182,-71.1401,1011.95
27722,0.0860832,6.54711,7.22142,0.28,0.14,-0.21,40.5351,-12.4577,-71.608,1011.99
27728,0.0813008,6.5758,7.24055,-0.07,0.28,-0.14,41.0794,-13.1812,-72.005,1011.99
27734,0.0621712,6.59015,7.20229,0.14,-0.28,-0.35,41.108,-12.6313,-71.9766,1011.95
27740,0.0813008,6.59971,7.23099,0.07,0.07,-0.07,40.8502,-13.2391,-71.8774,1011.95
27746,0.047824,6.59015,7.22142,0.14,-0.49,-0.07,41.0794,-12.9207,-71.608,1011.92
27752,0.0526064,6.56145,7.19751,0.28,-0.14,-0.49,41.108,-13.3838,-71.8065,1011.92
27758,0.0669536,6.56145,7.18795,0.21,-0.56,-0.28,41.1653,-12.9786,-71.6505,1011.92
27764,0.071736,6.5758,7.20708,0.28,0,-0.21,40.5924,-12.4288,-71.8065,1011.96
27770,0.0573888,6.58058,7.22142,0.21,-0.49,-0.21,40.4778,-13.3548,-70.9558,1011.96
27776,0.095648,6.5758,7.22621,0.56,0.07,-0.14,40.8502,-13.3838,-70.8566,1011.92
27782,0.0621712,6.55667,7.22142,0.42,0.21,-0.14,40.1627,-13.0075,-72.0191,1011.92
27788,0.071736,6.57102,7.20229,-0.14,-0.14,-0.49,40.9362,-13.6731,-71.0834,1011.99
27794,0.047824,6.56624,7.19273,0.7,0.07,-0.28,40.6783,-13.3838,-71.3244,1011.99
27800,0.0813008,6.55667,7.21186,0.56,-0.35,0.14,41.3659,-12.9497,-71.9199,1011.94
27806,0.0621712,6.56624,7.20708,0.14,-0.07,-0.14,41.3372,-13.0944,-71.0409,1011.94
27812,0.0813008,6.55667,7.21664,0.91,-0.42,-0.28,40.621,-12.6024,-71.9341,1011.9
27818,0.0621712,6.59015,7.19751,0.07,-0.28,0,41.194,-12.6603,-71.5513,1011.9
27824,0.0669536,6.59493,7.18795,0.84,-0.14,-0.14,41.1367,-12.7471,-71.5229,1011.97
27830,0.0573888,6.59015,7.22142,0.63,-0.21,-0.21,41.3945,-13.0075,-70.4313,1011.97
27836,0.0526064,6.58536,7.22621,0.21,-0.07,0,41.2513,-12.6603,-71.7923,1011.91
27842,0.047824,6.55189,7.20229,0.7,-0.07,-0.21,41.595,-12.6892,-69.8784,1011.91
27848,0.0813008,6.55667,7.21186,0.07,-0.21,-0.28,40.707,-12.6603,-72.0191,1011.91
27854,0.047824,6.58536,7.22621,-0.07,-0.21,-0.35,41.3659,-12.0815,-71.4379,1011.96
27860,0.0813008,6.58058,7.19751,0.28,-0.07,-0.42,41.0221,-13.1812,-70.729,1011.96
27866,0.071736,6.5758,7.21186,-0.49,-0.14,-0.49,41.7096,-12.7471,-71.4804,1011.92
27872,0.0621712,6.56624,7.19751,-0.49,-0.28,-0.28,40.7929,-12.3998,-71.7781,1011.92
27878,0.0621712,6.58058,7.22142,0.91,0.07,-0.35,40.7643,-12.8918,-71.6222,1011.93
27884,0.0573888,6.57102,7.21186,0.21,-0.63,-0.49,40.9075,-13.4416,-70.4029,1011.93
27890,0.0813008,6.59015,7.22621,-0.07,-0.35,-0.14,41.5664,-13.3548,-71.6505,1011.96
27896,0.0669536,6.58058,7.21664,1.05,-0.35,-0.35,41.3372,-13.3838,-71.0126,1011.96
27902,0.071736,6.58058,7.20708,0.91,0,-0.28,40.707,-12.4866,-70.7857,1011.95
27908,0.071736,6.57102,7.21186,0.35,-0.07,-0.35,41.194,-12.5735,-71.0551,1011.95
27914,0.0908656,6.56624,7.22621,0.28,0.14,-0.07,41.108,-12.2262,-71.0126,1011.97
27920,0.0860832,6.5758,7.19273,1.61,0.14,-0.49,40.6497,-12.3419,-71.3812,1011.97
27926,0.0430416,6.5758,7.20708,17.64,-0.49,-0.28,40.9362,-12.7471,-70.7715,1011.96
27932,0.071736,6.56145,7.24534,0.77,0,0,41.0221,-13.1522,-71.9482,1011.96
27938,0.071736,6.5758,7.20708,1.54,-0.21,-0.35,41.0507,-13.4706,-70.6439,1011.96
27944,0.071736,6.58536,7.22142,-0.35,-0.28,-0.49,41.1653,-13.1233,-72.09,1011.98
27950,0.0526064,6.59493,7.20708,0.7,-0.28,-0.21,41.2513,-12.7471,-71.9624,1011.98
27956,0.0430416,6.55667,7.21186,0.98,-0.07,-0.07,40.6783,-12.9207,-71.2961,1011.95
27962,0.0526064,6.59971,7.22142,0.28,-17.57,-0.14,41.3086,-13.1812,-71.2819,1011.95
27968,0.047824,6.5758,7.22142,0.49,-0.21,0.14,41.4518,-12.8918,-71.1543,1011.96
27974,0.0621712,6.56624,7.21664,0.7,0.35,0.21,41.6237,-13.4127,-72.6146,1011.96
27980,0.0430416,6.58536,7.22621,0.07,-0.07,-0.21,41.3086,-12.6024,-71.6363,1011.98
27986,0.0621712,6.60449,7.24055,0.35,-0.21,0.07,40.0195,-13.6153,-71.2394,1011.98
27992,0.0669536,6.58536,7.20708,0.35,-0.21,0.07,41.1653,-13.268,-72.0617,1011.92
27998,0.0526064,6.58536,7.23577,0.56,-0.14,17.36,41.5664,-12.4577,-72.09,1011.92
28004,0.0382592,6.56145,7.23099,-0.21,-0.07,-0.07,41.3086,-13.268,-72.2176,1011.93
28010,0.0621712,6.57102,7.21664,0.14,-0.14,-0.35,40.4778,-12.6603,-71.0693,1011.93
28016,0.071736,6.5758,7.22621,0.84,-0.07,-0.7,40.7356,-12.3419,-70.5163,1011.93
28022,0.0765184,6.57102,7.24055,-0.63,-0.56,-0.28,41.681,-12.6024,-71.4804,1011.93
28028,0.0526064,6.55189,7.23577,0.42,-0.35,0.07,41.194,-12.8339,-71.8348,1011.93
28034,0.071736,6.56145,7.23577,0,-0.63,-0.49,41.6237,-12.7471,-71.6789,1011.94
28040,0.0765184,6.58058,7.21664,-0.28,-0.21,-0.28,41.4231,-12.4866,-72.4586,1011.94
28046,0.0765184,6.55667,7.21664,-0.21,0.14,0,40.6783,-13.5284,-71.3812,1011.96
28052,0.0382592,6.5758,7.22142,0.98,0.35,-0.35,41.2513,-12.3709,-71.8915,1011.96
28058,0.0669536,6.54232,7.22142,-0.42,0.28,-0.42,41.4804,-12.5735,-72.0333,1011.98
28064,0.0526064,6.56145,7.21186,-0.7,-0.07,0,41.3086,-13.2391,-71.367,1011.98
28070,0.047824,6.57102,7.22142,1.4,0.21,-0.35,41.7096,-13.1522,-71.6222,1011.95
28076,0.047824,6.55667,7.23099,0.49,-0.42,-0.84,41.194,-11.9368,-71.5796,1011.95
28082,0.0526064,6.58058,7.21186,-0.63,-0.77,-0.35,41.3945,-13.5574,-71.0126,1011.93
28088,0.0669536,6.56145,7.23099,0.77,-0.49,-0.35,41.3659,-12.0815,-70.7715,1011.93
28094,0.0573888,6.57102,7.21664,-0.14,-0.21,-0.56,40.9934,-12.8918,-72.0758,1011.96
28100,0.047824,6.5758,7.22621,0.21,0.21,-0.42,41.6237,-12.9497,-71.9057,1011.96
28106,0.0813008,6.58536,7.22621,0.07,-0.07,-0.42,41.7669,-13.0944,-71.849,1011.96
28112,0.0669536,6.59015,7.21186,-0.07,-0.14,-0.56,41.3086,-12.8629,-72.5153,1011.92
28118,0.0573888,6.58536,7.22142,-0.21,-0.35,-0.49,41.2513,-12.4288,-72.1325,1011.92
28124,0.071736,6.58536,7.22142,0.49,-0.21,-0.14,41.5664,-13.1233,-72.005,1011.95
28130,0.0860832,6.58536,7.23099,-0.56,-0.14,-0.49,41.194,-12.7471,-71.4662,1011.95
28136,0.0813008,6.60449,7.20229,0.63,-0.07,-0.21,41.7956,-12.3998,-72.4728,1011.94
28142,0.0813008,6.59493,7.18317,-0.28,-0.28,-0.21,41.5091,-12.7471,-71.1401,1011.94
28148,0.0860832,6.56145,7.21664,0.21,-0.07,-0.49,41.3945,-13.0075,-71.4804,1011.96
28154,0.0573888,6.58536,7.20229,0.77,-0.14,-0.07,40.707,-13.2101,-71.0976,1011.96
28160,0.047824,6.5758,7.23099,-0.42,-0.28,-0.56,41.0794,-13.4706,-71.2819,1011.97
28166,0.0382592,6.58058,7.22142,0.42,0.07,-0.21,40.8789,-12.805,-71.6931,1011.97
28172,0.0526064,6.56624,7.22621,1.19,-0.28,0.07,40.3919,-12.6603,-72.246,1011.95
28178,0.0526064,6.58058,7.22621,0.14,0.14,-0.28,41.0221,-13.0075,-70.7007,1011.95
28184,0.0286944,6.57102,7.20708,0.21,-0.28,0.21,41.3659,-12.805,-71.5513,1011.94
28190,0.047824,6.57102,7.22142,0.77,0.07,0.07,41.3945,-13.2391,-72.0191,1011.94
28196,0.0813008,6.5758,7.21186,0.49,-0.21,-0.21,40.9648,-12.7182,-71.9341,1011.94
28202,0.0669536,6.58536,7.23577,0.7,-0.49,0.07,41.2226,-13.0365,-71.6505,1011.95
28208,0.071736,6.55667,7.23099,0.21,-0.14,-0.07,41.4518,-13.268,-71.8915,1011.95
28214,0.0621712,6.55667,7.20708,0.35,-0.21,-0.35,41.7669,-13.1812,-72.1042,1011.95
28220,0.0860832,6.55667,7.22621,0.14,-0.07,-0.14,41.4231,-13.0365,-71.7214,1011.95
28226,0.0669536,6.57102,7.23577,0.49,0,-0.07,40.9934,-12.3419,-71.1968,1011.93
28232,0.071736,6.57102,7.20229,0.28,-0.28,-0.14,40.6497,-13.4995,-72.0617,1011.93
28238,0.0621712,6.57102,7.21186,0,-0.28,-0.56,41.4231,-12.9497,-71.9341,1011.94
28244,0.0573888,6.59493,7.23577,0.21,-0.21,-0.07,40.6497,-13.0365,-71.8915,1011.94
28250,0.047824,6.56624,7.20708,-0.14,-0.07,-0.49,40.8789,-13.8757,-71.4662,1011.92
28256,0.0430416,6.57102,7.20708,-0.14,-0.28,-0.14,40.707,-12.776,-72.4728,1011.92
28262,0.071736,6.59015,7.20229,0.28,-0.21,0.07,41.108,-12.8918,-71.1401,1011.95
28268,0.0430416,6.5758,7.22621,0,-0.28,-0.63,40.8216,-13.2101,-71.8774,1011.95
28274,0.0669536,6.5758,7.22142,-0.56,-0.28,-0.28,41.3945,-13.2101,-71.8065,1011.95
28280,0.0765184,6.53754,7.23099,0.28,-0.21,0.28,40.9075,-13.1233,-71.1543,1011.97
28286,0.071736,6.54711,7.21186,0.07,-0.35,-0.7,41.2513,-12.776,-72.4161,1011.97
28292,0.0908656,6.58058,7.23099,-0.35,0.21,-0.28,41.108,-13.1233,-71.7781,1011.97
28298,0.0621712,6.57102,7.22142,-0.21,0.07,0.35,41.5664,-12.805,-71.5513,1011.97
28304,0.047824,6.58536,7.22621,0.07,0.21,-0.77,40.8216,-12.5735,-71.4662,1011.95
28310,0.0573888,6.56624,7.22621,-0.49,0.14,-0.49,41.5664,-12.7182,-71.608,1011.95
28316,0.0669536,6.56145,7.22142,-16.8,-0.49,0.14,41.6523,-13.1233,-71.6647,1011.94
28322,0.0669536,6.58536,7.21186,1.19,-0.56,-0.7,41.108,-13.3259,-71.608,1011.94
28328,0.0669536,6.56624,7.23577,0.42,-0.28,-0.35,40.8502,-13.4127,-70.5447,1011.96
28334,0.0573888,6.55189,7.23099,-17.36,0.14,0.07,40.5065,-12.8629,-71.6222,1011.96
28340,0.0621712,6.56624,7.21664,1.19,-0.07,-0.63,41.8242,-12.6892,-71.8915,1011.95
28346,0.0860832,6.55189,7.22142,1.19,0.07,-0.77,40.7643,-12.6892,-70.9558,1011.95
28352,0.071736,6.58536,7.24055,-0.07,-17.78,-0.49,40.9648,-12.9207,-71.3386,1011.94
28358,0.047824,6.57102,7.23099,0.7,-0.07,-0.21,41.5377,-13.4416,-70.9558,1011.94
28364,0.0813008,6.55667,7.22142,1.26,-0.7,-0.56,41.108,-13.2101,-71.7072,1011.94
28370,0.0621712,6.55667,7.21664,-0.98,-0.28,-0.14,41.3372,-13.4995,-70.9275,1011.93
28376,0.0526064,6.59493,7.22142,0.63,-0.21,-0.07,40.8216,-12.9207,-71.4946,1011.93
28382,0.0621712,6.56145,7.22621,0.91,0.07,-0.14,40.3346,-12.5445,-71.6505,1011.95
28388,0.0860832,6.59971,7.22142,-0.49,-0.21,-0.28,41.8242,-12.6892,-70.97,1011.95
28394,0.0573888,6.59493,7.21664,-0.35,-0.21,-0.07,42.168,-13.0075,-71.452,1011.94
28400,0.0669536,6.56145,7.22621,0.91,0,-0.14,40.9362,-12.3709,-71.6789,1011.94
28406,0.071736,6.57102,7.21186,-0.07,-0.21,-0.14,41.0794,-13.0944,-70.5731,1011.94
28412,0.0908656,6.59015,7.21664,0.42,0.07,0.28,41.0507,-12.8339,-71.4379,1011.94
28418,0.0669536,6.55189,7.22142,0.56,-0.14,-0.28,40.707,-12.776,-72.0333,1011.94
28424,0.047824,6.59015,7.23099,-0.07,-0.21,-0.35,41.2513,-12.5445,-71.6647,1011.94
28430,0.0526064,6.59015,7.23099,0.21,-0.07,0.35,40.0768,-12.8339,-71.0834,1011.95
28436,0.0669536,6.59493,7.20708,0.91,-0.21,-0.07,41.1367,-12.6892,-70.3037,1011.95
28442,0.0669536,6.5758,7.22142,0,-0.42,-0.14,40.8502,-12.6892,-71.2252,1011.96
28448,0.0813008,6.58536,7.22142,-0.07,0.07,0,41.5377,-12.6892,-71.4379,1011.96
28454,0.0765184,6.57102,7.24055,-0.21,0.14,-0.14,41.4804,-12.3998,-71.6222,1011.96
28460,0.0143472,6.58058,7.21186,0.91,0,0.07,40.9934,-13.5284,-71.4662,1011.93
28466,0.0765184,6.54711,7.20229,0,-0.14,-0.35,41.3945,-13.0365,-71.9199,1011.93
28472,0.047824,6.59015,7.21186,-0.28,-0.07,-0.14,40.4492,-12.6024,-72.1042,1011.91
28478,0.0813008,6.58536,7.22142,1.33,0.14,-0.49,40.6783,-12.1683,-71.452,1011.91
28484,0.0573888,6.57102,7.21186,0.63,-0.21,-0.49,40.5065,-13.0654,-71.2536,1011.93
28490,0.0430416,6.5758,7.24534,0.14,-0.07,-0.21,40.7643,-13.1233,-72.5579,1011.93
28496,0.0669536,6.58058,7.23577,0.63,-0.07,-0.35,40.5638,-12.8918,-71.7214,1011.97
28502,0.047824,6.59493,7.22142,0.49,-0.42,-0.7,42.0534,-12.6603,-72.4728,1011.97
28508,0.071736,6.5758,7.23577,0.21,-0.49,-0.35,40.8216,-13.0944,-72.246,1011.97
28514,0.0813008,6.58536,7.22621,0.98,-0.14,-0.21,40.9075,-13.0365,-71.8774,1011.97
28520,0.0669536,6.5758,7.25012,0.7,-0.21,-0.35,40.7356,-12.6892,-72.5295,1011.93
28526,0.0908656,6.58058,7.22142,0.56,0.14,-0.35,41.4804,-12.5735,-71.9482,1011.93
28532,0.0860832,6.59015,7.21664,-0.21,-0.07,0.07,41.8815,-13.0075,-71.7923,1011.97
28538,0.0669536,6.57102,7.24055,0.14,0,-0.56,41.681,-12.805,-72.0758,1011.97
28544,0.0669536,6.59015,7.23099,-0.35,-0.14,-0.42,41.2799,-12.8918,-71.9341,1011.97
28550,0.071736,6.58536,7.23099,0.84,-0.07,-0.35,40.9648,-13.0944,-70.488,1011.93
28556,0.0621712,6.57102,7.24534,0.49,-0.28,-0.35,41.5377,-13.7889,-71.3953,1011.93
28562,0.0669536,6.56624,7.22621,0.21,0.21,-0.42,41.681,-12.805,-72.8839,1011.98
28568,0.0813008,6.55189,7.21664,-0.14,-0.07,0.21,41.2226,-13.1522,-71.8632,1011.98
28574,0.0382592,6.56145,7.21186,-0.28,-0.14,-0.63,41.2226,-12.8339,-72.6429,1011.94
28580,0.0573888,6.57102,7.23099,0.49,0.21,-0.28,41.0794,-12.8918,-71.7072,1011.94
28586,0.0382592,6.59015,7.23099,0.42,0.28,-0.14,40.5065,-12.776,-71.8065,1011.94
28592,0.0573888,6.60449,7.20708,-0.42,-0.28,-0.49,41.595,-12.7471,-72.1042,1011.94
28598,0.047824,6.56624,7.23099,0.49,-0.21,-0.21,41.1653,-13.4416,-71.6363,1011.95
28604,0.0621712,6.59015,7.24055,0.07,-0.07,-0.14,40.5638,-12.5445,-71.5796,1011.95
28610,0.0382592,6.55667,7.22142,0,-0.07,-0.07,40.6497,-13.1522,-72.1892,1011.92
28616,0.0573888,6.55667,7.22621,0.07,-0.28,-0.35,40.5065,-12.8339,-71.367,1011.92
28622,0.047824,6.58536,7.23099,0.84,-0.07,-0.14,40.4492,-13.0365,-71.1543,1011.92
28628,0.0526064,6.55189,7.22142,0.7,0.14,-0.14,40.9648,-13.268,-70.8566,1011.94
28634,0.0526064,6.52319,7.21664,0.28,0,-0.07,40.707,-12.8339,-71.2677,1011.94
28640,0.0573888,6.55667,7.21186,0.42,-0.28,-0.07,40.8789,-12.8629,-70.8424,1011.94
28646,0.071736,6.58058,7.23099,0.35,0.21,0.07,40.7643,-12.8629,-70.9984,1011.94
28652,0.047824,6.5758,7.22142,0.56,0,-0.21,40.9075,-13.0944,-71.6505,1011.93
28658,0.0908656,6.58058,7.20708,0.28,-0.07,-0.42,40.9934,-12.8339,-70.8566,1011.93
28664,0.0669536,6.58058,7.22621,0.56,0.07,-0.07,40.8216,-13.268,-72.4019,1011.94
28670,0.0143472,6.53754,7.23099,0.98,0,-0.14,41.0507,-13.2101,-72.4728,1011.94
28676,0.0621712,6.56145,7.24055,0.07,-0.42,-0.35,40.621,-13.2969,-71.5938,1011.94
28682,0.0621712,6.60928,7.21664,0.35,-0.28,0,41.4231,-13.0075,-71.1401,1011.94
28688,0.071736,6.61406,7.22142,0.77,0.14,0.07,41.4231,-13.0944,-71.5087,1011.95
28694,0.0430416,6.58536,7.23577,0.21,-0.14,-0.49,41.3659,-13.268,-71.6222,1011.95
28700,0.0765184,6.57102,7.23099,0.21,0.07,0.07,41.5091,-12.4577,-71.8065,1011.95
28706,0.0573888,6.56145,7.23099,0.35,-0.07,0.14,41.0794,-13.1233,-72.0475,1011.95
28712,0.0669536,6.54711,7.24055,-0.21,-0.42,-0.49,40.7929,-12.6024,-71.8774,1011.95
28718,0.095648,6.58536,7.22621,0.49,0,-0.07,41.5377,-12.776,-70.7574,1011.97
28724,0.0669536,6.5758,7.24534,0.21,-0.28,0.07,40.8502,-13.0944,-70.9984,1011.97
28730,0.0621712,6.58536,7.23099,0.42,-0.35,-0.28,41.2226,-13.3838,-71.2819,1011.97
28736,0.071736,6.58536,7.23099,1.05,-0.14,-0.07,40.5351,-13.0654,-71.5371,1011.97
28742,0.071736,6.57102,7.23099,-0.21,0,-0.42,40.9362,-13.268,-71.849,1011.94
28748,0.047824,6.53754,7.21664,0.49,-0.35,-0.28,41.3086,-13.3259,-72.331,1011.94
28754,0.0621712,6.56624,7.22621,0.35,-0.07,0.28,40.3632,-13.4127,-71.7498,1011.94
28760,0.0908656,6.58536,7.24534,0.28,-0.28,0,41.2226,-12.6024,-71.452,1011.94
28766,0.0669536,6.58536,7.22142,0.28,-0.07,-0.07,40.7356,-12.7471,-71.6222,1011.97
28772,0.0526064,6.58536,7.22142,0.42,-0.42,0,40.22,-12.6313,-71.8206,1011.97
28778,0.047824,6.57102,7.19751,0.77,-0.42,-0.42,41.5377,-13.4995,-71.7923,1011.98
28784,0.0573888,6.57102,7.21186,0.77,-0.07,0.21,40.5351,-13.2101,-70.2186,1011.98
28790,0.0526064,6.58058,7.23099,0.35,0.28,-0.21,40.9934,-13.1233,-71.5087,1011.93
28796,0.0430416,6.59015,7.22142,0.35,-0.14,-0.21,41.3372,-12.5445,-71.849,1011.93
28802,0.0765184,6.58536,7.22142,0.98,-0.21,-0.28,41.1367,-13.1812,-72.4303,1011.93
28808,0.071736,6.55189,7.23577,0.56,0,-0.35,40.5924,-13.268,-71.2961,1011.94
28814,0.0382592,6.59493,7.22142,0.49,0.07,0,40.8216,-12.9497,-71.0834,1011.94
28820,0.0860832,6.58058,7.21664,0.91,0,0.21,40.3919,-13.3548,-71.7214,1011.97
28826,0.0430416,6.56145,7.23099,0.91,-0.35,0.07,41.1653,-13.0654,-71.3812,1011.97
28832,0.0908656,6.56145,7.19751,0.28,-0.14,0,40.9648,-12.8339,-71.9482,1011.92
28838,0.0526064,6.53754,7.24055,0.28,-0.35,0.21,40.8502,-13.731,-71.8915,1011.92
28844,0.0669536,6.58536,7.21664,-0.49,-0.14,-0.14,40.4492,-13.0365,-71.0551,1011.92
28850,0.0621712,6.5758,7.20708,1.19,-0.28,0.14,40.8789,-13.268,-71.3812,1011.92
28856,0.0430416,6.56145,7.23577,1.26,-0.07,-0.14,40.4492,-12.9786,-71.608,1011.94
28862,0.0765184,6.56624,7.20708,-0.07,0.21,-0.49,41.2226,-13.0365,-70.9417,1011.94
28868,0.0526064,6.56624,7.22142,0.28,-0.28,0.35,40.7643,-12.4288,-71.7498,1011.94
28874,0.0669536,6.56624,7.22142,0.84,-0.21,-0.07,41.595,-13.3259,-71.4946,1011.94
28880,0.0669536,6.57102,7.20229,1.12,0.35,-0.28,41.3372,-12.3709,-71.1968,1011.95
28886,0.0669536,6.61406,7.18795,-0.56,-0.07,0.21,41.7383,-13.5574,-72.3168,1011.95
28892,0.0526064,6.58058,7.24055,0.28,-0.21,-0.07,41.108,-13.3548,-71.0834,1011.95
28898,0.0621712,6.59971,7.21664,0.28,-0.28,-0.14,41.5664,-12.9207,-71.7781,1011.94
28904,0.0813008,6.57102,7.22621,0.56,-0.21,-0.28,41.3659,-13.7021,-71.7356,1011.94
28910,0.0765184,6.58536,7.20708,-0.14,-0.07,0.21,40.8216,-13.3259,-71.6931,1011.94
28916,0.0621712,6.58058,7.19273,0.35,-0.14,0.14,41.194,-13.5284,-71.3953,1011.94
28922,0.0908656,6.56624,7.19751,0.28,-0.42,-0.42,41.3086,-13.5284,-72.246,1011.94
28928,0.0860832,6.56145,7.20229,0.49,0.07,-0.28,40.7356,-13.4416,-71.7356,1011.94
28934,0.0573888,6.59493,7.23577,0.14,-0.14,-0.49,40.7356,-13.3838,-72.5153,1011.94
28940,0.0573888,6.58058,7.20708,0.49,0,-0.28,41.4518,-13.2969,-72.5295,1011.94
28946,0.0621712,6.57102,7.20229,0.35,-0.07,-0.56,41.1653,-13.3259,-71.3953,1011.93
28952,0.0526064,6.55667,7.20708,0.42,-0.28,-0.35,41.2799,-13.6153,-71.2252,1011.93
28958,0.0813008,6.54711,7.22621,0.77,-0.07,-0.35,40.6783,-13.4416,-71.1827,1011.94
28964,0.0573888,6.5758,7.22142,1.47,-0.07,-0.07,41.5664,-13.5284,-71.0693,1011.94
28970,0.0621712,6.56624,7.20229,0.42,0.14,0,41.3372,-13.3259,-71.7639,1011.94
28976,0.047824,6.59015,7.23577,0.28,-0.21,-0.14,40.8789,-12.4577,-72.2034,1011.94
28982,0.0334768,6.57102,7.22621,1.4,0,0,41.6237,-13.6153,-71.7781,1011.94
28988,0.0669536,6.58536,7.21664,1.05,-0.28,-0.14,41.3372,-13.4416,-71.7498,1011.93
28994,0.0765184,6.59493,7.23577,-0.28,-0.14,0.14,40.8216,-12.9786,-70.885,1011.93
29000,0.0765184,6.61406,7.22621,0,0,-0.07,41.2513,-13.5574,-71.3528,1011.95
29006,0.0573888,6.59493,7.18795,0.14,-0.07,-0.21,41.5377,-13.0654,-70.8282,1011.95
29012,0.071736,6.58058,7.23577,1.12,-0.21,0.07,40.0768,-13.0365,-72.2885,1011.94
29018,0.0573888,6.57102,7.18795,0.63,0.14,0.14,41.6523,-13.1522,-71.2677,1011.94
29024,0.071736,6.58058,7.21186,0.21,-0.07,-0.56,41.8242,-13.4995,-71.2394,1011.93
29030,0.0526064,6.59015,7.22621,0.21,-0.28,-0.07,41.5664,-13.4995,-71.2394,1011.93
29036,0.0573888,6.58058,7.20708,0.56,0.14,0,41.4804,-13.6153,-70.8991,1011.97
29042,0.0765184,6.58058,7.23099,0.28,-0.07,-0.49,41.2513,-13.5284,-71.126,1011.97
29048,0.0573888,6.61406,7.21664,0.28,-0.21,0.14,41.5377,-13.2101,-71.0409,1011.96
29054,0.0334768,6.5758,7.21186,0.28,-0.14,-0.35,40.707,-12.8339,-71.6222,1011.96
29060,0.0669536,6.59015,7.21186,-0.21,-0.42,-0.35,41.5377,-12.8339,-71.3528,1011.96
29066,0.0621712,6.5758,7.21664,1.05,-0.35,-0.28,41.7669,-13.6153,-71.1401,1011.97
29072,0.071736,6.54232,7.21186,0.28,0,-0.35,41.2226,-12.4866,-70.7857,1011.97
29078,0.0621712,6.58058,7.21186,0.84,0,-0.21,40.8502,-12.9786,-72.572,1011.96
29084,0.0860832,6.58058,7.22621,0,-0.21,-0.28,41.4804,-12.8629,-71.0551,1011.96
29090,0.0860832,6.56624,7.21664,-0.07,-0.14,0,40.7356,-13.1812,-70.9275,1011.94
29096,0.0669536,6.56145,7.22621,0.63,0.07,-0.14,41.194,-13.2969,-71.6931,1011.94
29102,0.0526064,6.58058,7.21664,0.56,-0.14,-0.35,41.4231,-12.6313,-72.1892,1011.96
29108,0.047824,6.56624,7.21186,0.35,-0.21,-0.14,41.3945,-12.776,-71.8065,1011.96
29114,0.0813008,6.58536,7.24055,-17.43,-0.07,-0.49,41.3945,-13.4127,-71.2677,1011.95
29120,0.0526064,6.56145,7.21186,1.12,0,-0.35,41.3086,-13.2391,-72.3736,1011.95
29126,0.071736,6.5758,7.25012,1.05,0,-0.14,41.3372,-13.4416,-71.3953,1011.96
29132,0.0621712,6.55189,7.22142,0.07,-17.92,-0.28,41.2226,-13.0654,-71.2252,1011.96
29138,0.0573888,6.5758,7.22621,0.14,-0.14,-0.07,41.7956,-12.8629,-71.9624,1011.96
29144,0.0860832,6.56624,7.22142,0.7,-0.21,-0.14,41.3086,-13.0365,-71.6931,1011.96
29150,0.071736,6.57102,7.23099,0.14,-17.92,-0.35,40.8216,-11.85,-71.3812,1011.96
29156,0.0765184,6.56145,7.23577,0.63,-0.35,0.21,40.9648,-12.805,-72.1609,1011.93
29162,0.047824,6.57102,7.21186,0.28,0.07,-0.35,41.3372,-11.7921,-71.5087,1011.93
29168,0.0813008,6.59015,7.23099,0.7,-0.14,-0.28,41.681,-12.8629,-71.4946,1011.95
29174,0.0621712,6.56624,7.23577,0.49,-0.21,-0.21,41.194,-13.0365,-71.7639,1011.95
29180,0.0669536,6.59493,7.23099,-0.49,-0.07,-0.35,41.3086,-12.9497,-72.5579,1011.95
29186,0.047824,6.57102,7.21186,1.19,-0.14,0,40.9362,-12.8918,-70.885,1011.95
29192,0.071736,6.58058,7.21664,0.91,-0.21,0.07,40.9648,-13.6731,-71.7356,1011.92
29198,0.0765184,6.56624,7.22142,0.77,0.21,-0.21,41.3372,-12.9207,-71.5371,1011.92
29204,0.0765184,6.60449,7.23099,0,-0.28,0,40.707,-13.0654,-71.9624,1011.99
29210,0.071736,6.57102,7.22621,0.35,-0.07,-0.14,40.9648,-12.805,-72.3594,1011.99
29216,0.0573888,6.55667,7.22621,0.63,-0.21,0.14,41.0221,-12.8629,-72.2601,1011.92
29222,0.0621712,6.58058,7.23099,0.07,0,-0.28,40.7929,-12.9497,-70.97,1011.92
29228,0.071736,6.55667,7.23099,-0.21,-0.14,-0.21,40.7356,-12.805,-70.9417,1011.96
29234,0.0669536,6.58058,7.22621,0.63,-0.14,-0.49,40.4492,-12.6892,-71.5371,1011.96
29240,0.095648,6.57102,7.23577,0.21,-0.49,-0.28,40.9362,-13.1233,-70.4738,1011.96
29246,0.0765184,6.58536,7.22142,-0.07,0.07,-0.14,40.5924,-13.5284,-70.5872,1011.96
29252,0.0669536,6.59493,7.20708,-0.21,-0.14,-0.14,40.7643,-13.5284,-71.7072,1011.96
29258,0.0334768,6.56145,7.23099,0.84,-0.14,-0.42,41.4804,-13.6731,-71.4379,1011.99
29264,0.047824,6.58058,7.20708,0.14,-0.07,-0.07,42.1966,-12.7182,-71.5796,1011.99
29270,0.071736,6.5758,7.24055,0.7,-0.56,-0.07,41.2799,-13.4995,-71.8774,1011.93
29276,0.071736,6.5758,7.22142,0.63,-0.14,-0.42,40.9648,-13.2391,-72.3877,1011.93
29282,0.0526064,6.60449,7.21664,1.05,-0.07,-0.14,41.7669,-13.5863,-71.8348,1011.92
29288,0.0765184,6.57102,7.22621,1.33,-0.07,0,41.108,-13.2391,-72.3736,1011.92
29294,0.0621712,6.58536,7.23577,-0.07,-0.07,-0.49,41.0794,-12.7182,-71.5229,1011.93
29300,0.0669536,6.56624,7.21186,0.14,-0.14,-0.14,40.8502,-13.2391,-72.6004,1011.93
29306,0.0334768,6.59493,7.22142,0.28,0.14,-0.07,41.6237,-13.0944,-72.2176,1011.92
29312,0.0621712,6.5758,7.22621,0.28,0.07,0.07,41.3659,-13.0654,-71.1968,1011.92
29318,0.0621712,6.58536,7.21664,0.14,0.14,0.07,40.0481,-13.2391,-71.608,1011.92
29324,0.0908656,6.56145,7.21186,0.14,-0.28,0.14,41.2226,-13.4416,-70.7432,1011.94
29330,0.0573888,6.59015,7.20708,0.28,-0.28,-0.28,41.4804,-12.6603,-71.5371,1011.94
29336,0.095648,6.59015,7.24055,0.63,-0.49,-0.07,41.7383,-12.6892,-72.3736,1011.95
29342,0.0573888,6.56145,7.24055,0.77,-0.21,-0.21,41.7383,-13.4995,-71.5938,1011.95
29348,0.0382592,6.58058,7.22142,0.56,-0.21,-0.28,41.0507,-13.0365,-71.4804,1011.97
29354,0.0573888,6.55667,7.24055,0.28,0.21,0,41.7096,-12.9207,-72.1751,1011.97
29360,0.0573888,6.5758,7.21664,0.63,-0.14,-0.14,41.5377,-13.0654,-71.5796,1011.95
29366,0.0573888,6.59015,7.24055,0.21,-0.35,-0.35,41.7956,-13.2101,-71.8632,1011.95
29372,0.071736,6.55189,7.23099,0.63,-0.42,-0.07,41.4231,-13.3548,-71.211,1011.95
29378,0.0621712,6.58536,7.23099,0.91,-0.14,0,40.9934,-13.4416,-71.6222,1011.95
29384,0.0813008,6.58058,7.21664,-0.35,-0.56,-0.56,41.0221,-13.2391,-70.7432,1011.95
29390,0.0765184,6.59971,7.22621,0.56,-0.49,-0.14,41.2226,-13.7021,-71.3103,1011.95
29396,0.0573888,6.59493,7.22621,1.26,0.07,0.14,40.5924,-13.5284,-71.1685,1011.94
29402,0.0669536,6.59015,7.24534,-0.35,-0.07,-0.49,41.3372,-13.1812,-71.2677,1011.94
29408,0.0286944,6.56624,7.23577,-0.28,0.14,-0.14,41.681,-13.6731,-70.1903,1011.94
29414,0.0573888,6.56624,7.21664,0.21,-0.07,0.07,40.6783,-12.5735,-71.367,1011.99
29420,0.0573888,6.59493,7.22621,0.35,0,-0.35,40.9934,-14.4545,-72.6713,1011.99
29426,0.0286944,6.5758,7.22621,-0.28,-0.28,-0.07,41.7383,-13.8757,-72.1892,1011.98
29432,0.0765184,6.5758,7.21664,-0.21,-0.07,0,42.7122,-12.8339,-71.3244,1011.98
29438,0.0573888,6.55189,7.24055,0.84,-0.42,-0.56,41.681,-13.4995,-71.9482,1011.98
29444,0.0621712,6.59971,7.22621,0.56,-0.21,-0.21,41.9388,-13.0944,-72.6429,1011.98
29450,0.0526064,6.5758,7.22142,0.28,-0.07,-0.21,41.3659,-13.3838,-71.1543,1011.98
29456,0.0573888,6.5758,7.22142,-0.07,-0.35,-0.21,41.2513,-13.8757,-71.4662,1011.98
29462,0.047824,6.53754,7.23577,-0.14,-0.21,-0.35,41.5377,-13.7889,-71.2677,1011.94
29468,0.0382592,6.58058,7.21664,-0.07,-0.14,0.14,41.681,-12.9207,-71.608,1011.94
29474,0.0669536,6.58058,7.23577,0.7,-0.21,-0.42,41.1367,-13.6731,-72.09,1011.94
29480,0.10043,6.5758,7.23577,0.56,-0.07,-0.56,41.2226,-12.6024,-71.2536,1011.94
29486,0.0813008,6.55667,7.21186,0.14,-0.28,-0.07,41.3372,-12.7182,-71.7356,1011.96
29492,0.0621712,6.56145,7.24534,0.35,-0.14,-0.56,41.0794,-12.5735,-71.0267,1011.96
29498,0.0382592,6.56624,7.23577,0.56,-0.49,-0.35,41.2226,-13.731,-71.2677,1011.96
29504,0.0813008,6.58058,7.23577,0.28,-0.28,-0.07,41.4518,-12.9207,-72.2176,1011.91
29510,0.0669536,6.58536,7.24055,0,-0.35,-0.35,41.108,-13.3548,-71.0551,1011.91
29516,0.0382592,6.56145,7.24055,0.63,-0.21,-0.42,41.6237,-13.3838,-71.4662,1011.95
29522,0.0621712,6.58058,7.21186,-0.07,0.21,0.21,41.681,-13.7021,-71.367,1011.95
29528,0.0669536,6.56624,7.21664,0.35,0.28,-0.56,40.8216,-12.776,-71.5796,1011.91
29534,0.0526064,6.56145,7.22142,0.49,0.28,-0.35,41.0794,-13.3548,-72.2743,1011.91
29540,0.0430416,6.56624,7.22621,0.7,-17.64,-0.14,41.2799,-12.9207,-72.1892,1011.99
29546,0.0526064,6.56145,7.24055,0.42,0.21,-0.14,41.1367,-13.2969,-70.1903,1011.99
29552,0.0669536,6.57102,7.23099,0.7,-0.35,-0.07,41.3086,-13.2101,-71.5229,1011.97
29558,0.0526064,6.57102,7.22142,-0.21,-0.56,-0.14,41.5091,-13.3838,-70.3179,1011.97
29564,0.071736,6.59971,7.21186,0.91,-0.56,-0.35,41.1367,-13.268,-71.8065,1011.97
29570,0.0621712,6.58536,7.20229,0.7,0.07,-0.42,40.9934,-13.0654,-72.0758,1011.97
29576,0.047824,6.56624,7.24534,0.28,-0.07,-0.28,41.4231,-13.6153,-71.6647,1011.96
29582,0.071736,6.5758,7.22142,0.42,-0.28,-0.35,40.9362,-13.3259,-71.5087,1011.96
29588,0.0860832,6.59015,7.21186,0.91,0.07,-0.28,40.6783,-13.3838,-71.7498,1011.96
29594,0.0860832,6.56624,7.23099,0.21,-0.28,-0.21,41.2513,-13.6731,-72.3027,1011.96
29600,0.0621712,6.57102,7.23099,0.35,-0.21,-0.28,41.1653,-13.1233,-72.7563,1011.96
29606,0.0573888,6.56145,7.22621,0,0.07,-0.14,41.7096,-12.9786,-71.2961,1011.96
29612,0.0526064,6.5758,7.22621,0.28,-0.14,-0.21,40.9075,-13.2969,-71.2819,1011.96
29618,0.0621712,6.58058,7.23099,0,-0.07,-0.42,41.108,-13.7021,-71.7923,1011.95
29624,0.0908656,6.56624,7.22142,0.07,0.07,-0.21,40.7643,-13.3259,-71.5938,1011.95
29630,0.0860832,6.56624,7.22621,1.12,-0.07,-0.21,40.9362,-12.9207,-71.4946,1011.93
29636,0.0526064,6.56624,7.22621,0.63,-0.14,-0.49,41.5377,-12.5735,-71.7498,1011.93
29642,0.0573888,6.5758,7.23099,0.14,-0.35,-0.49,41.4804,-13.6731,-72.1042,1011.95
29648,0.047824,6.57102,7.23099,1.12,-0.07,-0.21,41.5377,-12.3419,-70.97,1011.95
29654,0.0765184,6.56624,7.24055,0.42,-0.28,-0.28,41.0507,-13.1812,-70.6014,1011.98
29660,0.0526064,6.56624,7.21186,0.56,-0.28,-0.14,41.3945,-12.8339,-71.126,1011.98
29666,0.047824,6.5758,7.25012,0,-0.42,-0.42,40.4205,-13.2391,-72.6004,1011.98
29672,0.0621712,6.59493,7.22142,-0.07,-0.14,-0.49,41.6523,-12.9207,-72.6713,1011.92
29678,0.0621712,6.56624,7.23099,0.14,-0.21,0.21,41.5377,-13.3259,-71.4095,1011.92
29684,0.0765184,6.59493,7.22621,0.28,0.07,-0.56,40.7356,-12.805,-72.2034,1011.95
29690,0.0621712,6.55667,7.21664,-0.28,-0.35,-0.35,40.8502,-13.0365,-71.4095,1011.95
29696,0.0669536,6.5758,7.21186,0.28,-0.07,-0.14,41.5664,-12.313,-72.0617,1011.95
29702,0.0669536,6.58536,7.23099,0.49,-0.42,-0.42,41.194,-13.0654,-71.8632,1011.95
29708,0.0573888,6.58058,7.22142,-0.07,0.07,-0.42,41.595,-12.8339,-73.0115,1011.94
29714,0.0621712,6.56624,7.22142,0.63,-0.14,0,40.8789,-12.805,-71.6647,1011.94
29720,0.0813008,6.5758,7.23099,0,0,-0.28,40.7929,-13.3838,-70.7432,1011.96
29726,0.0526064,6.59015,7.22621,0,-0.21,-0.49,41.4231,-12.4866,-72.2318,1011.96
29732,0.0765184,6.57102,7.22142,-0.21,-0.56,-0.14,41.595,-13.5284,-73.6495,1011.92
29738,0.0526064,6.58058,7.21186,1.33,-0.21,-0.35,40.9075,-12.8918,-71.8915,1011.92
29744,0.0669536,6.60928,7.22142,1.26,-0.21,-0.21,41.3659,-12.6603,-72.4444,1011.99
29750,0.0621712,6.56624,7.22142,0.84,0.21,-0.28,40.5924,-13.0944,-71.7498,1011.99
29756,0.0669536,6.59493,7.22142,-0.07,-0.14,-0.35,41.0507,-12.7471,-72.3877,1011.99
29762,0.0573888,6.55189,7.23577,0,-0.07,-0.35,40.8502,-13.2969,-71.7072,1011.94
29768,0.0860832,6.59493,7.22142,0.07,0,-0.56,40.6783,-13.3838,-71.0693,1011.94
29774,0.047824,6.57102,7.19751,0.56,0,-0.28,41.108,-12.8339,-71.849,1011.94
29780,0.047824,6.59015,7.22142,0.7,0.07,-0.21,41.7956,-12.8629,-71.608,1011.94
29786,0.0813008,6.58058,7.21664,0.35,-0.07,-0.21,41.4231,-13.2391,-72.1184,1011.96
29792,0.0621712,6.58058,7.22142,0.28,-0.42,-0.21,40.5638,-12.7471,-71.4095,1011.96
29798,0.0765184,6.58536,7.23577,0.35,-0.35,-0.07,41.4231,-13.1233,-72.331,1011.92
29804,0.0765184,6.57102,7.20229,0.77,0.07,-0.35,41.2799,-12.9786,-71.8065,1011.92
29810,0.0765184,6.58536,7.24534,0.7,-0.28,0.07,41.7956,-12.1683,-71.2252,1011.96
29816,0.0382592,6.58058,7.20229,0.07,0,-0.28,41.2513,-13.4416,-70.332,1011.96
29822,0.0573888,6.59493,7.24055,-0.42,0.07,-0.28,41.0794,-12.8339,-72.0475,1011.94
29828,0.071736,6.5758,7.23099,0.77,0,-0.28,40.7643,-12.776,-71.3103,1011.94
29834,0.0908656,6.56624,7.22621,0.91,0.35,-0.14,41.2799,-13.76,-72.1467,1011.91
29840,0.0573888,6.58058,7.21186,0.35,0.14,-0.35,41.6237,-12.9207,-70.3604,1011.91
29846,0.0765184,6.54711,7.23099,0.14,0,0.07,41.0507,-12.4866,-71.2394,1011.91
29852,0.0573888,6.56624,7.22621,0.07,-0.14,-0.35,40.9362,-12.2551,-71.1968,1011.98
29858,0.0573888,6.55667,7.2549,0.14,0.14,-0.56,40.9075,-12.776,-71.3244,1011.98
29864,0.0526064,6.58536,7.22621,0.21,-0.21,-0.49,40.8502,-13.8468,-70.9558,1012
29870,0.0573888,6.5758,7.21186,0.07,0.07,-0.14,41.4231,-12.7471,-71.8915,1012
29876,0.071736,6.60449,7.21186,0.63,-0.07,-0.07,41.108,-12.313,-70.5447,1011.97
29882,0.071736,6.59015,7.21664,0.56,-0.21,-0.42,41.3086,-12.6313,-71.1543,1011.97
29888,0.0621712,6.56624,7.23577,0.49,-0.14,-0.07,41.5091,-12.8339,-71.7072,1011.96
29894,0.0813008,6.59015,7.24055,0.07,0.07,0,40.707,-12.9207,-72.969,1011.96
29900,0.0765184,6.56145,7.22621,-0.14,-0.49,-0.21,41.0221,-12.7471,-70.5731,1011.92
29906,0.071736,6.5758,7.22621,0.7,0.28,0.07,40.5351,-12.6892,-71.5796,1011.92
29912,0.0908656,6.5758,7.26447,-0.21,-0.07,-0.07,40.8216,-12.3709,-71.1401,1011.94
29918,0.0813008,6.56624,7.23099,-0.21,0.07,-0.35,40.9934,-12.4866,-71.452,1011.94
29924,0.0430416,6.57102,7.21664,-0.42,0.07,-0.07,41.2513,-12.2262,-72.4586,1011.94
29930,0.047824,6.58536,7.23577,0.91,17.64,0,40.6497,-13.2101,-71.5087,1011.92
29936,0.095648,6.59493,7.2549,1.05,-0.14,-0.28,41.4804,-12.8918,-71.7639,1011.92
29942,0.0669536,6.59493,7.24055,1.05,0.07,0,41.194,-13.0075,-70.7432,1011.95
29948,0.0765184,6.56145,7.23577,-0.28,-0.14,0,41.0794,-12.776,-71.367,1011.95
29954,0.0573888,6.56624,7.20708,0.84,0.28,-0.14,40.5351,-12.8629,-72.1184,1011.94
29960,0.0573888,6.58536,7.23099,1.26,-0.07,0,41.0507,-13.1233,-71.9766,1011.94
29966,0.0573888,6.5758,7.20708,0.21,-0.21,17.5,41.2799,-13.6153,-72.3877,1011.95
29972,0.0430416,6.56145,7.23099,0.21,-0.21,-0.35,41.194,-12.9786,-71.8065,1011.95
29978,0.0860832,6.58536,7.22621,0.42,0,-0.14,41.4518,-12.1683,-70.8141,1011.97
29984,0.0573888,6.59493,7.22142,0.56,-0.07,-0.35,40.9648,-12.6024,-71.7498,1011.97
29990,0.0526064,6.59493,7.22621,0.35,-0.14,-0.07,41.194,-12.6892,-72.1325,1011.94
29996,0.105213,6.58058,7.24534,0.63,-0.14,-0.42,41.0221,-12.9786,-72.09,1011.94
30002,0.0573888,6.5758,7.19751,-0.28,-0.14,-0.21,41.2513,-13.3259,-72.2743,1011.93
30008,0.0573888,6.59015,7.21664,0.49,-0.21,-0.14,40.9648,-13.2101,-71.0834,1011.93
30014,0.105213,6.58536,7.24055,0.84,0.14,-0.14,41.2513,-13.3259,-72.0758,1011.93
30020,0.0526064,6.55189,7.23577,0.07,-0.42,-0.49,41.5091,-13.3259,-72.0758,1011.97
30026,0.047824,6.58058,7.22142,-0.28,-0.21,-0.21,41.6237,-13.6153,-70.9984,1011.97
30032,0.0526064,6.57102,7.22621,0.56,0.14,0,40.9648,-13.4127,-71.7214,1011.96
30038,0.0908656,6.61406,7.23577,0,-0.28,-0.35,41.2799,-13.0075,-71.8915,1011.96
30044,0.0382592,6.59493,7.22621,0.14,0,0.21,41.1653,-13.5284,-71.8206,1011.96
30050,0.0765184,6.5758,7.23099,0.49,-0.21,0,41.8242,-13.4416,-71.608,1011.96
30056,0.0526064,6.60449,7.24055,0.14,0.28,-0.56,41.194,-13.0654,-70.5589,1011.97
30062,0.105213,6.58058,7.21186,0.42,-0.07,-0.07,41.6237,-13.2101,-70.8991,1011.97
30068,0.0669536,6.57102,7.20708,0.56,-0.21,0,40.8789,-13.5863,-71.6505,1011.96
30074,0.114778,6.59015,7.23577,0,-0.14,-0.42,41.7383,-12.9207,-70.97,1011.96
30080,0.0669536,6.58536,7.20708,0.07,-0.07,-0.21,41.5091,-13.2391,-71.367,1011.96
30086,0.0526064,6.60449,7.22621,-0.21,-0.14,-0.21,41.2513,-13.3259,-71.5087,1011.96
30092,0.0573888,6.58058,7.25968,0.7,-0.14,-0.42,41.7096,-13.2969,-71.3812,1011.94
30098,0.0765184,6.57102,7.21664,0.7,-0.07,-0.35,40.7643,-13.0075,-71.5371,1011.94
30104,0.0813008,6.55667,7.22621,-0.14,0.21,0.07,40.9934,-13.1522,-71.1685,1011.94
30110,0.071736,6.59493,7.21664,0.56,0,-0.28,41.4518,-12.7471,-71.0551,1011.93
30116,0.0908656,6.58058,7.22142,0.28,-0.21,-0.07,41.2799,-12.7182,-71.8065,1011.93
30122,0.10043,6.54711,7.24055,0.07,-0.21,-0.28,41.6523,-12.6024,-71.4946,1011.93
30128,0.0573888,6.58058,7.21664,0.98,-0.14,-0.42,41.3945,-12.2841,-71.2819,1011.93
30134,0.0765184,6.59015,7.2549,0.63,-0.28,-0.49,41.1653,-12.9497,-70.8424,1011.94
30140,0.0526064,6.59015,7.21664,0.35,-0.07,-0.35,41.5377,-13.0654,-70.6439,1011.94
30146,0.0573888,6.56145,7.24055,1.26,-0.07,-0.21,41.7669,-13.0075,-71.8915,1011.96
30152,0.0908656,6.58536,7.22621,0.77,-0.35,-0.28,40.707,-12.5735,-71.4379,1011.96
30158,0.0765184,6.56145,7.20229,0.28,-0.35,-0.56,41.681,-13.1522,-71.5087,1011.93
30164,0.0573888,6.58058,7.23577,0.56,-0.28,0.21,41.3945,-12.4577,-71.0126,1011.93
30170,0.0526064,6.56145,7.25012,0.14,-0.21,-0.21,41.1653,-12.9207,-72.5153,1011.95
30176,0.0573888,6.5758,7.21664,-0.14,0,-0.49,41.4231,-13.1522,-70.7432,1011.95
30182,0.0669536,6.5758,7.22621,0.35,0,-0.07,41.1653,-12.7471,-71.4662,1011.96
30188,0.0621712,6.59493,7.24534,0.14,0.28,-0.21,40.9934,-12.9207,-71.5087,1011.96
30194,0.071736,6.56624,7.22142,-0.21,-0.21,-0.21,40.9648,-13.0944,-71.4379,1011.96
30200,0.0860832,6.5758,7.24534,0.77,0.07,-0.07,41.7669,-12.7471,-70.9984,1011.96
30206,0.0526064,6.5758,7.23577,0.35,-0.28,-0.21,41.3086,-12.1394,-70.6865,1011.96
30212,0.0765184,6.54232,7.22621,0.7,-0.35,-0.49,41.2226,-13.5284,-70.1903,1011.95
30218,0.0286944,6.56145,7.21186,-0.07,-0.14,-0.21,41.0794,-13.9336,-71.6363,1011.95
30224,0.0765184,6.57102,7.23577,0,-0.14,-0.21,40.7929,-13.4416,-71.1118,1011.93
30230,0.0526064,6.59015,7.22142,0.42,0,-0.21,41.4804,-13.1233,-71.6505,1011.93
30236,0.0765184,6.55189,7.24534,0.42,-0.14,-0.28,41.1367,-12.6024,-71.3103,1011.93
30242,0.0621712,6.59971,7.25012,0.35,0.28,0.21,40.9934,-12.8339,-72.0333,1011.93
30248,0.0573888,6.5758,7.22621,0.35,-0.07,-0.35,42.0247,-13.4416,-70.8708,1011.97
30254,0.0573888,6.58536,7.22142,0.14,0,-0.14,41.1653,-13.5863,-70.9842,1011.97
30260,0.0908656,6.56624,7.25012,0.14,-0.14,-0.14,41.7096,-12.8918,-71.0126,1011.96
30266,0.0526064,6.59015,7.21186,0.07,-0.21,-0.35,41.3372,-13.2969,-71.3953,1011.96
30272,0.0765184,6.56145,7.20229,0.14,-0.56,-0.49,41.3372,-13.76,-70.885,1011.96
30278,0.0669536,6.57102,7.22621,0.21,-0.21,-0.35,41.194,-13.4995,-70.9842,1011.95
30284,0.0669536,6.54232,7.21186,0.63,-0.28,-0.28,41.3659,-13.2101,-71.6647,1011.95
30290,0.0908656,6.58536,7.24534,0.21,-0.14,-0.35,41.194,-13.0075,-72.3594,1011.95
30296,0.0813008,6.5758,7.20229,-0.7,-0.07,-0.07,41.2799,-13.5863,-70.6723,1011.95
30302,0.047824,6.56624,7.25012,1.19,-0.07,0.07,41.5377,-12.9497,-72.0191,1011.94
30308,0.0765184,6.5758,7.24055,1.61,0,-0.28,41.2513,-12.9497,-71.5371,1011.94
30314,0.0669536,6.59971,7.22621,0.49,0.07,-0.35,41.5664,-13.0075,-72.246,1011.93
30320,0.0573888,6.58058,7.24534,0.42,-17.92,-0.14,40.9648,-12.5156,-70.8141,1011.93
30326,0.0526064,6.59493,7.24534,1.05,0.07,-0.07,41.3945,-13.3838,-71.3244,1011.95
30332,0.0430416,6.5758,7.24534,1.26,-0.35,-0.49,40.9362,-13.4416,-71.1968,1011.95
30338,0.0765184,6.58536,7.23099,0.21,-0.28,-0.21,40.5638,-13.2391,-71.9341,1011.96
30344,0.0765184,6.59015,7.21664,-0.49,-0.49,-0.07,41.5664,-12.8629,-71.2252,1011.96
30350,0.0526064,6.5758,7.24055,0.42,-0.14,-0.35,41.4231,-13.0075,-72.0617,1011.94
30356,0.0765184,6.58536,7.20708,0.49,-0.21,-0.21,41.5091,-13.4706,-71.8348,1011.94
30362,0.0813008,6.5758,7.20708,0.21,0.14,-0.49,41.5091,-13.3838,-72.331,1011.94
30368,0.047824,6.5758,7.20708,-0.21,0,0.07,40.5065,-13.0654,-71.6505,1011.93
30374,0.0669536,6.58058,7.23577,0.84,0.07,-0.07,41.0507,-13.9047,-71.2252,1011.93
30380,0.071736,6.56624,7.24055,0.84,0.07,-0.28,41.5091,-13.4995,-70.9984,1011.98
30386,0.0573888,6.55667,7.19751,0.49,-0.35,-0.28,40.5924,-13.3548,-71.4804,1011.98
30392,0.0430416,6.59015,7.23577,0,0.21,-0.21,40.7643,-13.6442,-70.9275,1011.95
30398,0.0765184,6.59493,7.21186,0,-0.35,-0.35,41.595,-12.9207,-71.6647,1011.95
30404,0.0813008,6.58536,7.22142,0.77,0.14,-0.28,40.7929,-13.0365,-71.0409,1011.98
30410,0.0526064,6.59493,7.22621,-0.14,-0.42,-0.28,40.7356,-12.776,-72.2601,1011.98
30416,0.0526064,6.59015,7.24534,-0.28,-0.21,-0.14,41.2226,-13.3838,-71.2252,1011.98
30422,0.0526064,6.57102,7.23099,-0.42,0.07,-0.21,41.4231,-13.1812,-71.126,1011.98
30428,0.0765184,6.59971,7.24534,0.98,-0.07,-0.21,41.4231,-12.6603,-71.1685,1011.94
30434,0.071736,6.57102,7.21664,0.7,0.35,-0.42,41.7956,-12.9207,-71.2961,1011.94
30440,0.047824,6.56145,7.21186,0.14,-0.07,-0.28,41.595,-13.5574,-72.2176,1011.96
30446,0.0765184,6.56145,7.21186,0.49,0.07,-0.14,42.3971,-13.4995,-70.6865,1011.96
30452,0.047824,6.56145,7.23099,0.49,0.07,-0.35,41.8242,-13.3259,-71.3812,1011.96
30458,0.0813008,6.62362,7.22142,0.77,-0.21,-0.21,41.6523,-13.4706,-70.9558,1011.96
30464,0.0669536,6.58058,7.22621,-0.07,-0.07,-0.35,41.5664,-13.4706,-71.5371,1011.96
30470,0.0669536,6.59015,7.23577,-0.35,-0.07,-0.28,41.3659,-13.4416,-70.8282,1011.99
30476,0.0621712,6.56145,7.23099,-0.14,0.07,-0.21,40.8216,-13.268,-70.3887,1011.99
30482,0.0765184,6.55189,7.23577,0.49,-0.28,-0.35,41.9961,-12.9207,-71.5087,1011.94
30488,0.0526064,6.58536,7.23099,0.07,0.07,-0.35,41.6523,-12.6603,-72.572,1011.94
30494,0.0621712,6.58058,7.21664,0.21,0,-0.07,41.9101,-13.0944,-71.5087,1011.93
30500,0.0573888,6.56624,7.23577,0.35,-0.07,-0.42,42.0534,-12.805,-70.6723,1011.93
30506,0.0765184,6.59971,7.23577,0.07,-0.35,-0.07,41.2513,-13.0944,-71.4662,1011.93
30512,0.071736,6.56145,7.21664,0.14,-0.28,-0.07,41.108,-13.1522,-71.0267,1011.93
30518,0.0621712,6.58536,7.23577,0.28,0.14,-0.35,41.595,-13.4127,-71.7356,1011.93
30524,0.071736,6.58536,7.22621,0.49,-0.42,-0.14,40.9934,-13.0365,-71.0267,1011.93
30530,0.0382592,6.5758,7.23099,0.84,-0.21,-0.28,41.4804,-13.0654,-71.9057,1011.97
30536,0.0573888,6.57102,7.22142,-0.7,-0.49,-0.28,41.5664,-13.6731,-70.6581,1011.97
30542,0.0526064,6.5758,7.23099,0.56,-0.07,-0.14,41.595,-13.5574,-71.6647,1011.97
30548,0.0430416,6.57102,7.24534,1.05,0.21,-0.21,41.2799,-13.1812,-71.4095,1011.96
30554,0.114778,6.57102,7.22142,0.14,0.21,-0.28,41.7383,-13.5863,-69.9776,1011.96
30560,0.0526064,6.57102,7.23099,-0.21,-0.35,-0.21,41.0221,-13.731,-72.3736,1011.96
30566,0.047824,6.56624,7.21186,-0.49,-0.42,-0.28,41.7669,-12.8339,-71.849,1011.96
30572,0.0334768,6.58536,7.24055,0.63,-0.07,-0.14,41.3945,-13.1812,-72.1325,1011.96
30578,0.0669536,6.59493,7.22621,-0.07,-0.49,-0.56,41.2799,-13.0075,-71.6789,1011.96
30584,0.0908656,6.57102,7.25012,0.21,-0.14,-0.35,41.194,-12.9497,-71.2961,1011.93
30590,0.071736,6.56624,7.23577,0.21,-0.28,-0.42,41.3372,-13.2391,-72.1751,1011.93
30596,0.0813008,6.56145,7.22142,0.21,-0.49,-0.07,41.5091,-13.4127,-71.8348,1011.95
30602,0.0908656,6.57102,7.23577,0,-0.21,-0.42,41.9388,-13.0365,-71.211,1011.95
30608,0.0573888,6.5758,7.22621,0.42,-0.28,-0.49,41.7096,-13.3259,-71.6931,1011.92
30614,0.0382592,6.58058,7.22142,0.42,0,-0.49,41.3659,-12.6892,-70.6723,1011.92
30620,0.0765184,6.58058,7.23099,0.14,-0.28,-0.14,41.5091,-13.2101,-71.5655,1011.92
30626,0.0669536,6.59015,7.22621,0.63,-0.28,-0.49,40.707,-13.1522,-71.8632,1011.94
30632,0.0573888,6.57102,7.22621,0.7,-0.28,-0.42,41.108,-13.0365,-71.211,1011.94
30638,0.0430416,6.57102,7.25012,1.19,-0.07,-0.35,41.5091,-13.2969,-72.0475,1011.95
30644,0.0526064,6.5758,7.23577,0.07,0.21,-0.21,41.2513,-13.1233,-71.6647,1011.95
30650,0.0621712,6.59493,7.22142,0.49,-0.35,0,40.0195,-14.2519,-72.2743,1011.97
30656,0.047824,6.55189,7.23099,0.14,-0.28,-0.28,41.6523,-12.6603,-70.1052,1011.97
30662,0.047824,6.59015,7.20229,0.35,-0.07,-0.07,41.0794,-13.3259,-71.9908,1011.94
30668,0.047824,6.58536,7.23577,0.84,0.14,-0.21,41.4804,-12.3709,-71.849,1011.94
30674,0.0526064,6.55189,7.22142,17.5,-0.28,-0.14,41.3945,-13.5574,-71.7498,1011.9
30680,0.0813008,6.58536,7.21186,0.21,0,-0.14,41.0794,-12.5156,-71.7639,1011.9
30686,0.0669536,6.57102,7.22621,0.98,-0.42,0.07,42.0247,-12.776,-72.2601,1011.95
30692,0.095648,6.57102,7.22142,-0.21,0,-0.28,41.2513,-13.3838,-72.246,1011.95
30698,0.0573888,6.56624,7.21664,-0.42,-0.28,-0.14,41.1367,-12.7471,-70.9275,1011.98
30704,0.0573888,6.57102,7.21186,0.07,-0.14,-0.14,41.3945,-13.0944,-70.2612,1011.98
30710,0.105213,6.55667,7.21186,0.7,17.78,-0.35,41.1653,-12.1683,-71.5229,1011.98
30716,0.0382592,6.59015,7.23099,0.28,-0.28,-0.21,40.8789,-13.1812,-71.2677,1011.94
30722,0.0573888,6.59971,7.23577,0.28,-0.21,-0.28,41.7669,-12.4288,-71.0267,1011.94
30728,0.0669536,6.59015,7.21664,0.42,17.71,0.07,41.4518,-12.5156,-70.6014,1011.94
30734,0.0621712,6.58536,7.23099,0.84,0,-0.35,41.4804,-13.6442,-71.1543,1011.94
30740,0.0573888,6.56624,7.21664,0.7,0.14,0,41.0221,-13.6153,-71.211,1011.95
30746,0.0286944,6.58058,7.22142,-0.07,0,-0.42,41.0221,-13.6731,-70.8708,1011.95
30752,0.0430416,6.58058,7.25968,0.28,-0.21,-0.28,41.0794,-12.9786,-71.211,1011.96
30758,0.047824,6.58058,7.21186,0.35,-0.14,0.07,41.0221,-13.8468,-70.9984,1011.96
30764,0.0430416,6.57102,7.21186,0.07,-0.42,-0.49,40.5065,-13.6153,-71.367,1011.91
30770,0.0908656,6.5758,7.21186,-0.14,-0.42,-0.49,40.5924,-13.268,-71.2677,1011.91
30776,0.0621712,6.56624,7.22621,-0.21,0.07,-0.28,41.3086,-13.0365,-70.8991,1011.95
30782,0.071736,6.55189,7.23099,1.12,-0.14,-0.49,41.3945,-13.268,-71.0834,1011.95
30788,0.105213,6.59493,7.21186,0.7,0.42,-0.56,41.6523,-12.6603,-71.5796,1011.91
30794,0.0765184,6.55189,7.23099,0,0,-0.14,41.6523,-13.3548,-71.0976,1011.91
30800,0.0621712,6.55189,7.24534,0.49,0.14,-0.07,41.3659,-13.0365,-71.0551,1011.91
30806,0.0669536,6.5758,7.22142,0.84,-0.35,-0.28,41.5664,-13.0944,-70.885,1011.93
30812,0.0573888,6.56624,7.22621,0.77,-0.28,-0.21,41.0221,-13.1522,-71.4662,1011.93
30818,0.023912,6.5758,7.23577,0,-0.07,0,41.0507,-12.7182,-70.8141,1011.94
30824,0.0430416,6.59015,7.23099,0.14,-0.42,-0.21,40.5924,-13.2969,-70.7574,1011.94
30830,0.0526064,6.58058,7.22621,0.7,-0.42,0.14,41.108,-12.8629,-71.1685,1011.95
30836,0.0382592,6.59971,7.23577,0,-0.49,-0.21,40.8502,-13.5863,-71.5938,1011.95
30842,0.0430416,6.60449,7.21664,-0.14,-0.14,-0.28,41.1653,-13.6153,-71.1685,1011.93
30848,0.071736,6.58058,7.23099,-0.49,-0.14,-0.21,40.1341,-12.6024,-70.9417,1011.93
30854,0.0669536,6.58058,7.24055,0.7,0,-0.07,41.0221,-14.5124,-72.1325,1011.96
30860,0.071736,6.60449,7.22142,0.56,-0.14,-0.28,40.7356,-12.805,-70.7574,1011.96
30866,0.0573888,6.59493,7.23577,-0.21,-0.28,-0.56,41.7096,-13.5574,-71.0126,1011.97
30872,0.071736,6.58536,7.22621,1.61,0.21,0.07,40.7356,-13.8468,-70.9984,1011.97
30878,0.0908656,6.56145,7.24055,0.56,-0.21,-0.42,41.3372,-13.4995,-70.7715,1011.97
30884,0.071736,6.56145,7.21186,0,-0.14,-0.28,41.0221,-12.8918,-71.9624,1011.95
30890,0.0669536,6.60449,7.22621,0.56,-0.35,-0.14,40.8502,-12.8629,-70.9275,1011.95
30896,0.0573888,6.59493,7.23099,0.49,-0.14,-0.28,41.194,-13.0075,-71.7923,1011.97
30902,0.0813008,6.57102,7.22621,0.56,0,-0.21,40.7643,-13.4127,-70.9558,1011.97
30908,0.0669536,6.58536,7.23577,0.07,-0.07,0,41.595,-13.2391,-71.0126,1011.95
30914,0.0621712,6.57102,7.22142,0.21,0,-0.21,41.194,-12.3998,-71.4237,1011.95
30920,0.0526064,6.60449,7.22621,0,-0.35,-0.42,41.5664,-12.9786,-71.8348,1011.95
30926,0.0669536,6.57102,7.25012,0.49,-0.14,0,41.3086,-13.4995,-70.9417,1011.95
30932,0.0526064,6.5758,7.22142,0,-0.21,-0.28,40.6497,-13.2969,-70.5022,1011.96
30938,0.0860832,6.56145,7.2549,-0.21,0,-0.07,41.2226,-12.776,-71.211,1011.96
30944,0.0621712,6.58058,7.22621,0.91,-0.35,-0.35,41.1653,-12.5156,-70.7007,1011.92
30950,0.0526064,6.58536,7.21664,0.28,0,-0.07,41.9101,-13.0365,-71.367,1011.92
30956,0.0430416,6.5758,7.22142,0.56,0,-0.07,40.9934,-12.3709,-71.1827,1011.95
30962,0.071736,6.5758,7.24534,0.21,0,-0.07,41.0507,-13.3838,-72.246,1011.95
30968,0.0765184,6.55189,7.22621,0.28,-0.21,-0.14,41.5377,-12.9207,-72.0191,1011.95
30974,0.071736,6.58058,7.24534,0,-0.28,0,41.1653,-12.805,-71.2819,1011.95
30980,0.0669536,6.57102,7.22621,0.42,-0.14,-0.35,40.7929,-13.5863,-71.7639,1011.95
30986,0.0813008,6.59971,7.23099,0.49,-0.21,-0.28,41.3945,-12.6313,-70.8141,1011.97
30992,0.071736,6.58058,7.23099,0.77,-0.07,0,41.0221,-13.1233,-71.7356,1011.97
30998,0.0526064,6.54711,7.23099,0.35,0,-0.28,40.9075,-13.3548,-70.9275,1011.95
31004,0.0621712,6.59971,7.24055,1.05,-0.49,-0.07,41.0507,-12.3419,-72.1042,1011.95
31010,0.0382592,6.56624,7.22621,1.47,-0.21,-0.42,41.0507,-13.1522,-71.1401,1011.94
31016,0.0765184,6.59015,7.24055,-0.21,0,-0.35,40.6497,-12.5735,-72.1042,1011.94
31022,0.071736,6.5758,7.24534,0.49,-0.42,0.14,41.194,-12.5445,-71.5513,1011.95
31028,0.0765184,6.58058,7.22142,0.28,-0.07,-0.35,40.621,-12.9207,-71.6363,1011.95
31034,0.0334768,6.55189,7.22142,0.49,-0.07,0.07,41.108,-12.7471,-70.9842,1011.93
31040,0.0860832,6.57102,7.23099,0.49,-0.49,0.21,40.707,-12.9786,-72.2176,1011.93
31046,0.0669536,6.55667,7.21186,1.05,-0.21,-0.14,40.707,-13.3548,-71.3528,1011.98
31052,0.047824,6.55667,7.22142,0.42,-0.28,0,41.0794,-12.5156,-72.1325,1011.98
31058,0.105213,6.56145,7.23577,0.21,0.07,0.14,40.7356,-12.5156,-71.608,1011.98
31064,0.0382592,6.57102,7.23577,-17.43,-0.14,-0.28,40.9362,-13.2101,-71.608,1011.97
31070,0.0765184,6.59971,7.21186,0.49,-0.21,0.14,41.1367,-12.9786,-70.9275,1011.97
31076,0.071736,6.57102,7.24055,0.77,-0.07,0.07,41.3086,-13.0654,-71.6222,1011.94
31082,0.0573888,6.5758,7.23099,0.28,-0.07,-0.35,41.194,-12.9786,-71.7072,1011.94
31088,0.0526064,6.56624,7.2549,0.91,0.07,-0.28,41.7096,-12.776,-70.7999,1011.98
31094,0.0573888,6.58536,7.25012,0.49,-0.28,0.07,41.3372,-12.9207,-71.3812,1011.98
31100,0.047824,6.56624,7.23577,0.42,-17.92,-0.21,40.8502,-13.5863,-70.9558,1011.95
31106,0.0526064,6.58058,7.22621,0.84,-0.14,-0.07,41.3659,-13.7021,-71.3528,1011.95
31112,0.071736,6.5758,7.23577,0.7,0.21,-0.21,41.194,-13.2969,-72.1325,1011.92
31118,0.0860832,6.58058,7.23099,-0.28,-0.28,-0.07,40.5351,-13.5284,-70.3179,1011.92
31124,0.0669536,6.58536,7.22621,0.35,-0.07,-0.42,41.0507,-13.1522,-71.126,1011.95
31130,0.0860832,6.57102,7.22142,0.07,-0.14,-0.21,40.4205,-13.2969,-71.6931,1011.95
31136,0.0621712,6.58058,7.24534,0.07,-0.28,17.43,41.3659,-13.4127,-71.3103,1011.93
31142,0.0526064,6.59971,7.22621,-0.07,-0.14,-0.14,41.0221,-13.1812,-71.5371,1011.93
31148,0.0573888,6.5758,7.21664,0.21,-0.35,-0.35,40.4778,-13.0075,-71.0834,1011.93
31154,0.0908656,6.56624,7.24055,0.7,-0.14,-0.35,40.5924,-12.7471,-71.1968,1011.97
31160,0.0621712,6.59015,7.25012,0.07,-0.07,-0.21,40.5924,-13.5574,-72.5295,1011.97
31166,0.0621712,6.56624,7.23099,-0.28,-0.21,-0.14,41.0794,-12.1104,-71.0409,1011.9
31172,0.0573888,6.58536,7.24055,1.12,-0.14,-0.35,40.8502,-12.8629,-71.3812,1011.9
31178,0.0669536,6.55667,7.23577,1.4,-0.07,-0.21,41.2226,-13.0075,-71.0976,1011.96
31184,0.095648,6.55667,7.23577,0.7,-0.35,-0.21,41.0507,-12.805,-72.0475,1011.96
31190,0.0765184,6.57102,7.26447,0.35,-0.35,-0.07,40.7643,-12.3709,-71.5087,1011.93
31196,0.0573888,6.58058,7.2549,0,-0.35,0,40.9648,-13.1812,-71.4804,1011.93
31202,0.0573888,6.55667,7.22142,0.49,0.28,-0.14,41.3372,-12.776,-73.1958,1011.95
31208,0.0621712,6.58536,7.21664,0.14,0.07,-0.14,40.6497,-13.0075,-71.3528,1011.95
31214,0.0430416,6.54711,7.22142,0.49,0.14,0.07,40.3919,-12.9497,-71.4379,1011.93
31220,0.047824,6.57102,7.23577,0.7,-0.21,0,40.9075,-13.2391,-70.5163,1011.93
31226,0.0813008,6.54232,7.22142,-0.21,0.14,-0.14,40.9934,-13.2101,-70.4313,1011.93
31232,0.0573888,6.59971,7.23099,0.14,-0.14,-0.28,41.3372,-13.3259,-71.5513,1011.93
31238,0.0430416,6.57102,7.22621,0.35,-0.28,-0.21,40.0195,-13.1233,-70.2612,1011.93
31244,0.071736,6.57102,7.22621,0.28,0,-0.35,41.5664,-12.7182,-70.8282,1011.96
31250,0.0430416,6.59015,7.23577,0.07,-0.28,-0.21,41.2799,-13.1812,-70.9417,1011.96
31256,0.0813008,6.5758,7.21664,0.49,0.07,0,41.2226,-12.9497,-71.6931,1012
31262,0.0526064,6.5758,7.22621,0.35,0.28,-0.28,40.4492,-13.76,-72.8698,1012
31268,0.0526064,6.57102,7.21186,0.56,0.14,0,40.9362,-12.5735,-70.5022,1011.91
31274,0.0430416,6.57102,7.24055,0.49,-0.28,-0.14,41.0794,-12.4866,-71.3103,1011.91
31280,0.071736,6.56145,7.23577,0,-0.07,-0.42,41.5377,-12.9207,-70.5022,1011.95
31286,0.0765184,6.59971,7.21186,0.28,-0.21,-0.21,41.4231,-13.1812,-70.9558,1011.95
31292,0.0573888,6.55189,7.25012,0.42,-0.14,0.07,40.4778,-12.8339,-70.8991,1011.94
31298,0.0526064,6.58058,7.24534,0.56,-0.35,-0.21,41.194,-13.5284,-71.1543,1011.94
31304,0.0669536,6.57102,7.22621,0.98,-0.14,-0.14,41.3659,-13.4995,-71.0551,1011.92
31310,0.0669536,6.58058,7.22621,0.63,0.07,-0.56,41.194,-12.8629,-71.7356,1011.92
31316,0.0765184,6.59493,7.22621,0.14,-0.28,-0.14,40.8216,-13.5284,-70.4455,1011.92
31322,0.047824,6.56624,7.22621,0.7,0,-0.49,40.8502,-12.6603,-71.9057,1011.94
31328,0.0621712,6.57102,7.22621,0.77,-0.35,-0.07,40.3919,-13.3259,-71.8632,1011.94
31334,0.0430416,6.59015,7.21186,0.42,-0.14,-0.28,40.8789,-12.8629,-70.4455,1011.95
31340,0.0860832,6.57102,7.23099,0.14,-0.14,-0.14,40.3059,-11.7632,-71.5513,1011.95
31346,0.0430416,6.59015,7.21664,-0.42,-0.42,0.07,40.5638,-13.0654,-70.9417,1011.92
31352,0.071736,6.57102,7.24055,0.84,-0.21,-0.28,40.9648,-13.3259,-71.1685,1011.92
31358,0.0621712,6.59493,7.22142,0.63,-0.14,-0.35,40.9075,-13.0654,-71.2819,1011.94
31364,0.0813008,6.5758,7.22621,0.07,-0.07,-0.42,40.9934,-13.2391,-71.3103,1011.94
31370,0.0573888,6.56624,7.23099,0.84,-0.07,-0.42,40.621,-13.4706,-71.0267,1011.97
31376,0.0669536,6.58536,7.24055,0.35,-0.21,-0.49,41.7956,-13.7021,-70.9133,1011.97
31382,0.0860832,6.56624,7.20708,0.14,0.28,-0.49,41.1367,-13.3838,-71.3812,1011.96
31388,0.0382592,6.5758,7.24055,0.7,0,-0.07,41.2799,-13.0075,-70.7148,1011.96
31394,0.0813008,6.59015,7.24534,0.56,0.07,-0.21,40.5351,-13.2391,-72.1467,1011.95
31400,0.0526064,6.58536,7.23099,0.35,-0.28,-0.21,40.9362,-13.9625,-71.5087,1011.95
31406,0.0765184,6.55189,7.21664,0.07,-0.14,-0.21,41.3945,-13.0944,-70.9133,1011.95
31412,0.0860832,6.5758,7.25012,0.49,-0.07,-0.14,41.2799,-14.0204,-70.7148,1011.95
31418,0.0765184,6.56624,7.24055,0.56,0,-0.35,40.7929,-13.0365,-71.7072,1011.95
31424,0.0669536,6.58058,7.24055,-0.07,-0.07,-0.07,40.5351,-13.5863,-71.9057,1011.95
31430,0.047824,6.56624,7.23099,0.42,0.07,-0.35,40.9934,-13.1233,-71.5938,1011.95
31436,0.0382592,6.58536,7.22142,0.35,-0.07,-0.21,40.9075,-13.2969,-71.5087,1011.93
31442,0.0573888,6.58058,7.21186,0.49,0.07,-0.14,41.4518,-12.5735,-71.367,1011.93
31448,0.0908656,6.57102,7.23099,0.28,-0.14,0,40.8502,-13.1812,-71.3812,1011.9
31454,0.0621712,6.59971,7.21664,0.07,-0.21,-0.07,41.0507,-13.4127,-72.2034,1011.9
31460,0.071736,6.55189,7.23099,0.77,-0.21,-0.21,40.9075,-12.7471,-70.9842,1011.93
31466,0.0526064,6.56624,7.22621,0.42,-0.21,-0.21,40.3346,-13.3259,-70.5305,1011.93
31472,0.0526064,6.57102,7.24055,17.85,-0.21,-0.63,40.4492,-13.3838,-71.1401,1011.94
31478,0.0621712,6.59015,7.23099,-0.07,-0.42,-0.49,41.0221,-13.2969,-71.4237,1011.94
31484,0.0526064,6.58536,7.22142,0,-0.21,-0.56,40.6783,-12.5445,-71.1968,1011.96
31490,0.0573888,6.5758,7.24534,0.98,-17.92,-0.21,40.22,-13.1522,-71.4095,1011.96
31496,0.047824,6.58536,7.22142,0.49,-0.07,-0.28,40.6497,-12.6603,-70.6581,1011.96
31502,0.0621712,6.55667,7.21664,0.21,-0.07,-0.21,40.3059,-12.1973,-71.0551,1011.91
31508,0.0669536,6.59971,7.22621,0.28,17.85,-0.14,40.4492,-12.9497,-71.5371,1011.91
31514,0.0382592,6.58058,7.21664,-0.07,0,-0.49,40.7643,-13.4995,-71.608,1011.93
31520,0.071736,6.58536,7.22142,-0.56,0.14,-0.28,40.7356,-13.1522,-71.9908,1011.93
31526,0.0382592,6.58058,7.23099,1.33,0.14,-0.14,40.7929,-12.8918,-71.1827,1011.94
31532,0.0765184,6.54711,7.20229,1.12,-0.07,-0.35,40.6783,-13.4995,-70.7999,1011.94
31538,0.0765184,6.56624,7.2549,-0.07,-0.35,-0.56,40.9362,-13.1812,-70.5447,1011.95
31544,0.071736,6.5758,7.19273,0.7,-0.28,-0.21,41.3372,-12.6603,-71.3528,1011.95
31550,0.0526064,6.5758,7.19751,0.63,-0.14,-0.21,40.9648,-12.8918,-71.5371,1011.94
31556,0.0573888,6.59493,7.21186,0.14,-0.14,-0.49,40.7356,-13.4995,-70.7574,1011.94
31562,0.0430416,6.54711,7.21664,0.63,-0.42,0.07,41.3086,-13.6442,-71.5513,1011.94
31568,0.0669536,6.58058,7.22621,0.7,0,-0.21,40.5924,-13.2101,-70.8566,1011.94
31574,0.0526064,6.56624,7.21664,0.63,-0.35,-0.42,41.194,-13.6442,-70.7432,1011.94
31580,0.0621712,6.58058,7.19751,0.35,0.14,0,40.6783,-13.731,-71.3103,1011.97
31586,0.071736,6.56145,7.21186,0.07,-0.07,-0.07,40.8216,-13.4416,-71.8206,1011.97
31592,0.071736,6.54711,7.21664,-0.14,-0.35,-0.77,40.7929,-13.1812,-72.3452,1011.92
31598,0.0573888,6.57102,7.19751,0.63,-0.14,0,41.7669,-13.268,-71.0267,1011.92
31604,0.0382592,6.59493,7.21186,0.7,0,-0.21,40.9075,-13.4995,-71.7072,1011.93
31610,0.0669536,6.58058,7.20229,0.07,-0.14,-0.63,41.1367,-13.0075,-71.5796,1011.93
31616,0.0813008,6.56624,7.23099,0.91,-0.07,0.21,41.0507,-13.5863,-70.5022,1011.97
31622,0.0621712,6.56624,7.20229,0.91,-0.07,-0.07,41.6523,-12.8629,-71.4237,1011.97
31628,0.0621712,6.54711,7.21664,0.28,-0.28,-0.7,41.0221,-12.9497,-71.4237,1011.92
31634,0.0334768,6.55189,7.23099,0.14,-0.35,-0.07,40.9362,-12.6892,-72.572,1011.92
31640,0.0621712,6.56624,7.22142,0.77,-0.14,-0.35,41.4231,-13.1233,-71.1118,1011.96
31646,0.0573888,6.55667,7.20708,0.84,0.07,-0.42,40.8502,-12.8339,-71.1685,1011.96
31652,0.071736,6.5758,7.20708,-0.07,-0.14,0,40.6497,-13.0944,-70.9984,1011.92
31658,0.0526064,6.5758,7.23577,0.07,0.14,0,41.194,-13.3838,-71.4946,1011.92
31664,0.071736,6.58058,7.20229,0.49,-0.07,-0.14,40.6783,-13.0365,-70.6156,1011.92
31670,0.047824,6.56145,7.22621,-0.07,-0.28,0.14,40.4778,-12.3709,-71.7923,1011.92
31676,0.0669536,6.57102,7.22142,-0.28,-0.21,0.14,41.2226,-13.5863,-71.2819,1011.92
31682,0.0669536,6.59493,7.21664,0.07,0,0.07,40.621,-12.6603,-71.2961,1011.96
31688,0.0382592,6.57102,7.20708,0.7,-0.35,-0.28,40.9648,-13.0944,-71.4946,1011.96
31694,0.0430416,6.5758,7.20708,0.49,-0.07,-0.07,40.621,-13.4127,-70.5872,1011.97
31700,0.0382592,6.58058,7.19751,-0.28,-0.07,-0.28,41.4518,-13.1522,-70.3462,1011.97
31706,0.0621712,6.56624,7.21186,0.77,-0.07,-0.21,41.0794,-13.0365,-70.6723,1011.95
31712,0.0526064,6.56624,7.22142,0.84,-0.42,0.14,41.3945,-12.313,-71.1543,1011.95
31718,0.0669536,6.57102,7.22621,1.12,0.07,-0.21,41.4231,-13.8178,-71.5655,1011.94
31724,0.047824,6.5758,7.21664,-0.49,-0.07,-0.07,41.194,-13.0654,-71.6363,1011.94
31730,0.0382592,6.58536,7.21186,-0.07,-0.35,0.14,40.9362,-13.5284,-71.1827,1011.95
31736,0.023912,6.55189,7.22142,0.42,-0.21,0.21,40.7643,-12.6313,-71.6363,1011.95
31742,0.0669536,6.57102,7.20229,-0.28,-0.49,-0.35,40.8216,-12.2841,-71.9057,1011.99
31748,0.0669536,6.55667,7.19751,-0.42,-0.07,-0.21,40.8789,-12.8629,-71.9908,1011.99
31754,0.0669536,6.58536,7.20229,0.07,-0.28,-0.07,40.4492,-13.4706,-72.1467,1011.99
31760,0.047824,6.5758,7.22142,1.12,0.28,-0.28,40.9648,-12.8339,-71.0409,1011.96
31766,0.0430416,6.59015,7.21186,0.14,-0.28,-0.42,41.3086,-13.0944,-70.8566,1011.96
31772,0.0430416,6.58536,7.20708,-0.28,-0.42,-0.14,40.5638,-13.5284,-71.2536,1011.96
31778,0.071736,6.5758,7.23099,0.49,-0.49,-0.42,40.1054,-13.9336,-71.5655,1011.96
31784,0.0526064,6.5758,7.22142,-0.28,-0.21,-0.84,40.4492,-13.4416,-71.2961,1011.97
31790,0.071736,6.5758,7.19751,-0.35,-0.28,-0.35,40.5638,-13.3838,-71.849,1011.97
31796,0.0382592,6.5758,7.22621,1.4,-0.07,-0.49,40.22,-13.4706,-71.9341,1011.96
31802,0.0669536,6.55189,7.21664,0.56,0.21,-0.42,40.8789,-13.3838,-72.2034,1011.96
31808,0.047824,6.58536,7.22142,0.42,-0.07,-0.21,40.9075,-13.8178,-70.9133,1011.92
31814,0.047824,6.5758,7.19751,0.63,-0.21,-0.35,41.1367,-12.9786,-71.3953,1011.92
31820,0.0860832,6.58536,7.20229,0.56,-0.28,-0.49,41.3086,-12.6313,-71.9199,1011.97
31826,0.0765184,6.56624,7.20708,0.21,-0.35,-0.35,40.8789,-12.6313,-71.4804,1011.97
31832,0.0526064,6.5758,7.22142,0.14,-0.07,-0.21,40.6497,-12.805,-71.5938,1011.92
31838,0.0813008,6.57102,7.22142,-0.35,0,-0.42,40.3632,-13.4995,-71.8065,1011.92
31844,0.0382592,6.58058,7.21186,0.21,-0.35,-0.63,40.4492,-13.6442,-71.367,1011.92
31850,0.0430416,6.55667,7.22142,0.84,-0.14,-0.21,40.3632,-13.4127,-70.4455,1011.93
31856,0.0621712,6.56145,7.20229,0.49,-0.21,-0.63,41.0507,-13.6153,-71.7923,1011.93
31862,0.0573888,6.5758,7.21664,0.49,0.07,-0.35,40.7929,-13.5863,-71.849,1011.93
31868,0.071736,6.54711,7.21664,0.35,-0.14,-0.21,40.9362,-12.776,-72.1467,1011.93
31874,0.0526064,6.5758,7.23099,0.77,0.35,-0.63,41.5377,-13.8757,-72.2034,1011.92
31880,0.0430416,6.56145,7.19751,0.07,0.07,-0.21,40.707,-13.2391,-72.331,1011.92
31886,0.0526064,6.56145,7.22142,-0.63,0,-0.07,41.2513,-12.8339,-72.4019,1011.97
31892,0.10043,6.59971,7.22142,-0.14,-0.14,-0.42,40.5065,-12.7471,-71.7781,1011.97
31898,0.071736,6.55667,7.22142,0.49,-17.78,-0.14,41.2799,-12.7182,-71.2961,1011.97
31904,0.071736,6.59015,7.21664,0.28,-0.49,-0.49,40.9934,-13.6442,-71.608,1011.97
31910,0.047824,6.58536,7.21664,-0.14,-0.63,-0.49,40.3632,-12.4577,-71.5513,1011.92
31916,0.047824,6.56145,7.19273,0.91,-0.21,-0.35,40.8216,-13.1522,-71.0976,1011.92
31922,0.0430416,6.5758,7.22142,0.77,-0.21,-0.21,40.6783,-12.8629,-72.2743,1011.92
31928,0.0621712,6.5758,7.22142,-0.49,-0.07,-0.49,41.0507,-13.2969,-72.1184,1011.92
31934,0.0621712,6.57102,7.21664,1.54,0.21,-17.85,40.621,-12.6024,-71.9908,1011.92
31940,0.0765184,6.5758,7.21186,1.68,-0.14,-0.28,41.4231,-13.4706,-71.5796,1011.96
31946,0.0813008,6.5758,7.22621,0.63,-0.14,-0.49,40.9362,-13.5863,-71.2819,1011.96
31952,0.0669536,6.57102,7.21664,-0.14,-0.42,0,41.0507,-12.8629,-72.2318,1011.96
31958,0.0908656,6.54711,7.20229,0.35,-0.14,-0.28,41.5377,-13.1522,-72.09,1011.96
31964,0.071736,6.59493,7.21186,1.12,0,-0.56,40.9075,-13.1812,-72.4019,1011.92
31982,0.0526064,6.55667,7.20229,-0.14,0,-0.35,41.2513,-13.4127,-71.4946,1011.92
31988,0.0286944,6.5758,7.19273,0.35,-0.21,-0.35,41.2799,-13.0944,-73.0682,1011.98
31994,0.0382592,6.59971,7.20229,-0.56,-0.14,-0.77,41.3372,-12.7471,-71.7356,1011.98
32000,0.0526064,6.57102,7.23099,-0.56,-0.21,0.21,41.108,-13.0075,-71.8065,1011.95
32006,0.0526064,6.59493,7.22621,0.98,-0.07,-0.35,41.8528,-13.1812,-71.4662,1011.95
32012,0.0669536,6.58058,7.23099,0.63,-0.21,-0.56,40.1054,-13.9336,-72.4303,1011.95
32018,0.0669536,6.58058,7.20708,0.42,-0.35,-0.21,41.108,-13.3838,-71.5229,1011.98
32024,0.047824,6.58058,7.23577,0.84,-0.42,-0.14,39.8476,-12.776,-72.2601,1011.98
32030,0.0860832,6.5758,7.21186,1.19,0.07,-0.35,41.4804,-13.1522,-72.728,1011.93
32036,0.0669536,6.54711,7.21664,1.54,0.21,-0.07,40.9075,-13.0365,-72.3594,1011.93
32042,0.071736,6.56624,7.23099,-0.49,-0.21,-0.14,39.6184,-13.4127,-73.8196,1011.94
32048,0.0334768,6.55189,7.20708,0.56,-0.28,-0.21,41.5091,-13.2969,-72.2176,1011.94
32054,0.047824,6.58058,7.22142,0.7,-0.07,0,40.9362,-12.8629,-71.2536,1011.94
32060,0.0573888,6.59015,7.22142,-0.28,-0.07,-0.35,40.1341,-13.1522,-71.6931,1011.94
32066,0.0573888,6.58536,7.21664,-0.07,-0.14,-0.35,41.5664,-13.5574,-71.3528,1011.92
32072,0.071736,6.60449,7.23577,0.7,-0.07,-0.14,41.3945,-13.2969,-71.7639,1011.92
32078,0.0573888,6.55189,7.22142,-0.28,-0.42,-0.35,41.0221,-13.2101,-72.5437,1011.91
32084,0.0621712,6.58058,7.19751,0.28,-0.35,-0.42,41.0507,-13.2969,-70.729,1011.91
32090,0.0573888,6.5758,7.20229,0.77,-0.07,-0.28,41.2513,-12.9207,-70.9842,1011.94
32096,0.0621712,6.57102,7.21186,-0.21,-0.21,-0.14,41.2799,-12.805,-72.4161,1011.94
32102,0.0669536,6.57102,7.22142,-0.21,0.07,-0.42,41.4518,-13.3548,-72.0333,1011.94
32108,0.0765184,6.60449,7.21186,0,-0.14,-0.14,41.3372,-12.4288,-72.09,1011.94
32114,0.0669536,6.58536,7.20708,0.98,0,-0.21,40.8216,-12.7471,-71.3244,1011.94
32120,0.047824,6.56145,7.22621,0.35,-0.35,-0.21,40.5065,-12.4577,-72.1042,1011.96
32126,0.0334768,6.56145,7.22142,-0.21,-0.28,-0.21,41.1653,-13.3838,-70.8424,1011.96
32132,0.0669536,6.59015,7.24055,0.77,-0.21,-0.49,41.2799,-13.1812,-72.5153,1011.95
32138,0.0334768,6.56145,7.23099,0.49,-0.21,-0.56,41.2226,-12.8629,-71.4095,1011.95
32144,0.071736,6.56624,7.22142,0.42,0.14,-0.14,40.6783,-13.2101,-72.3877,1011.94
32150,0.0573888,6.55189,7.21664,0.14,0.07,-0.21,41.6523,-12.776,-72.0758,1011.94
32156,0.0526064,6.5758,7.19751,-0.28,0,-0.42,41.0221,-13.1812,-71.7072,1011.95
32162,0.071736,6.58058,7.23577,0.07,0.07,-0.14,41.2799,-13.0365,-72.3736,1011.95
32168,0.0526064,6.5758,7.22142,0.35,-0.07,-0.56,41.5664,-12.6024,-71.7923,1011.96
32174,0.0669536,6.56145,7.22621,0.49,-0.21,-0.42,41.2226,-13.2969,-72.5579,1011.96
32180,0.0860832,6.58058,7.24055,0.7,0,0,41.0507,-13.2101,-71.8915,1011.96
32186,0.0765184,6.55667,7.22142,0,-0.21,-0.56,41.3372,-12.8629,-71.6789,1011.93
32192,0.0860832,6.57102,7.22142,0.21,0.07,-0.35,41.5091,-12.4577,-71.6505,1011.93
32198,0.095648,6.57102,7.21664,0.7,-0.35,0,41.0221,-12.5445,-70.9133,1011.94
32204,0.0286944,6.58058,7.21186,0,-0.07,-0.56,40.5351,-13.0654,-72.1892,1011.94
32210,0.10043,6.55189,7.20708,-0.21,-0.28,-0.28,40.3059,-12.9207,-72.0475,1011.94
32216,0.0669536,6.57102,7.19273,0.49,-0.21,0.21,40.621,-12.5156,-71.6789,1011.94
32222,0.0573888,6.59493,7.23099,0.35,-0.21,-0.49,40.5638,-12.2551,-72.1325,1011.94
32228,0.0573888,6.58536,7.19273,0.28,0.07,-0.14,40.7929,-13.1812,-71.1401,1011.94
32234,0.10043,6.5758,7.22142,0.28,-0.21,0.07,40.4205,-13.9336,-71.9199,1011.89
32240,0.0573888,6.59493,7.23099,0.42,-0.14,-0.49,40.8216,-12.8918,-72.005,1011.89
32246,0.071736,6.55667,7.19751,0.7,-0.21,-0.28,40.7643,-13.4416,-71.8915,1011.93
32252,0.0669536,6.58536,7.21664,0.14,0.07,-0.07,40.6783,-13.4995,-72.2318,1011.93
32258,0.0813008,6.59015,7.22142,-0.07,-0.07,-0.56,41.3659,-13.6442,-72.2318,1011.94
32264,0.071736,6.58536,7.23099,0.14,-0.21,-0.28,41.2226,-12.8629,-72.09,1011.94
32270,0.0860832,6.56624,7.21186,0.84,0.07,-0.07,41.5091,-13.268,-72.246,1011.94
32276,0.0382592,6.59493,7.24055,0,-0.21,-0.63,41.8242,-13.0075,-72.4019,1011.95
32282,0.047824,6.56624,7.21664,0,-0.07,-0.07,41.3086,-12.6603,-71.608,1011.95
32288,0.0526064,6.57102,7.20708,0.91,-0.28,0.14,41.8242,-13.6442,-72.2743,1011.94
32294,0.0573888,6.5758,7.21186,1.05,0.14,-0.28,41.1367,-12.776,-72.0333,1011.94
32300,0.0573888,6.58536,7.20708,0.91,0.14,-0.42,41.0794,-12.3709,-72.6287,1011.94
32306,0.0765184,6.55667,7.20229,-0.07,-17.71,0,41.5091,-13.3259,-72.1609,1011.94
32312,0.0765184,6.59015,7.20708,0.42,-0.35,-0.21,40.8502,-12.8918,-72.7422,1011.95
32318,0.0573888,6.53754,7.21664,0.28,-0.42,-0.14,41.0794,-13.1522,-72.2176,1011.95
32324,0.0573888,6.59015,7.22142,0.21,-0.42,17.71,40.9648,-12.2551,-72.4444,1011.93
32330,0.0765184,6.56624,7.21186,0.35,-0.07,-0.7,40.5065,-13.4706,-71.9624,1011.93
32336,0.0621712,6.5758,7.19273,0.07,0.28,-0.28,40.9362,-13.2391,-72.1325,1011.96
32342,0.0669536,6.58058,7.23099,0.56,0.28,-0.42,41.7383,-13.0654,-71.2819,1011.96
32348,0.0813008,6.58058,7.21664,0.91,0.28,-0.49,40.9934,-13.0075,-71.8774,1011.93
32354,0.0526064,6.57102,7.23577,0.77,-0.35,-0.49,40.8502,-13.76,-72.7989,1011.93
32360,0.0526064,6.58536,7.19273,0.14,-0.07,-0.42,40.3919,-12.9497,-70.9275,1011.93
32366,0.047824,6.56624,7.20229,0.84,-0.21,-0.35,40.5924,-13.3259,-71.9199,1011.94
32372,0.0669536,6.59015,7.21186,1.05,-0.07,-0.21,40.0195,-12.3998,-70.7857,1011.94
32378,0.0334768,6.56624,7.19751,-0.35,-0.21,-0.14,40.9075,-13.7889,-71.849,1011.93
32384,0.071736,6.60449,7.21664,-0.07,-0.28,-0.07,40.5065,-13.4127,-72.6004,1011.93
32390,0.0813008,6.5758,7.19751,0.35,0.28,-0.42,40.6783,-13.2391,-72.3027,1011.99
32396,0.0765184,6.59493,7.20708,0.28,0.07,-0.35,38.9882,-13.9336,-72.1609,1011.99
32402,0.0526064,6.55667,7.18795,-0.35,-0.28,-0.07,40.8216,-13.4127,-71.4946,1011.96
32408,0.0526064,6.58536,7.20708,-0.77,-0.28,-0.14,40.2773,-13.1233,-72.1325,1011.96
32414,0.0382592,6.56145,7.20708,0.91,-0.35,-0.07,40.9362,-13.2969,-70.6439,1011.95
32420,0.0765184,6.59015,7.19751,0.21,-0.42,-0.21,41.3659,-13.0654,-70.8282,1011.95
32426,0.0813008,6.56624,7.21664,-0.63,0.14,-0.35,41.5091,-13.0075,-71.3528,1011.98
32432,0.0813008,6.58058,7.17838,1.05,0.35,-0.42,40.4492,-13.1812,-71.2252,1011.98
32438,0.0765184,6.59015,7.21664,1.12,-0.07,-0.14,41.2513,-13.2969,-72.005,1011.96
32444,0.0765184,6.59493,7.20708,0.63,0.28,-0.42,41.3372,-12.776,-71.9341,1011.96
32450,0.047824,6.56145,7.21664,0.21,-0.21,-0.28,41.1367,-13.2391,-72.0758,1011.96
32456,0.0813008,6.60928,7.20708,0.84,-0.14,-0.63,40.9648,-12.3998,-71.849,1011.96
32462,0.0573888,6.5758,7.21664,0.42,-0.28,-0.56,40.7929,-13.4416,-71.6647,1011.96
32468,0.0573888,6.57102,7.21186,1.05,0,-0.35,40.8216,-12.9497,-71.2536,1011.91
32474,0.047824,6.5758,7.21186,0.84,-0.42,-0.56,41.4804,-12.7471,-71.4946,1011.91
32480,0.0621712,6.55189,7.19273,0.49,0,-0.21,41.7096,-13.3548,-72.005,1011.94
32486,0.047824,6.56145,7.19273,0.35,-0.28,-0.21,40.8216,-13.1233,-71.5229,1011.94
32492,0.071736,6.57102,7.21186,0.7,-0.21,-0.28,40.3059,-13.6731,-73.5077,1011.93
32498,0.0334768,6.56624,7.19751,1.12,0.07,-0.14,41.4231,-13.731,-70.9558,1011.93
32504,0.0669536,6.56145,7.21186,-0.42,-0.35,-0.35,41.194,-13.1233,-71.7356,1011.92
32510,0.0765184,6.56145,7.19751,0.07,-0.35,-0.28,40.8216,-13.2969,-71.1685,1011.92
32516,0.0430416,6.58058,7.20708,0,0,0.07,40.7356,-13.7021,-71.4095,1011.96
32522,0.071736,6.59015,7.20229,0.7,-0.07,-0.28,40.2773,-13.7889,-72.9548,1011.96
32528,0.0765184,6.5758,7.22621,0.07,-0.07,-0.14,40.7643,-12.776,-72.0475,1011.96
32534,0.047824,6.57102,7.20229,-0.07,-0.14,-0.14,40.4492,-12.6892,-70.8282,1011.93
32540,0.0526064,6.59015,7.21186,1.05,0,-0.63,41.108,-12.9497,-71.2819,1011.93
32546,0.0573888,6.58536,7.23099,0.77,-0.14,-0.28,41.3372,-13.6153,-71.4237,1011.99
32552,0.0573888,6.55189,7.20229,0.84,0,-0.42,41.3372,-13.0654,-70.8566,1011.99
32558,0.0813008,6.55667,7.22621,0.21,-0.14,-0.14,41.108,-12.7471,-72.1184,1011.93
32564,0.047824,6.59015,7.23577,0.63,-0.14,-0.14,40.9075,-12.9786,-71.5371,1011.93
32570,0.0573888,6.54232,7.19273,1.05,-0.14,-0.35,40.7929,-13.0075,-71.7356,1011.94
32576,0.047824,6.59015,7.21186,-0.14,-0.28,-0.28,41.0794,-13.0944,-72.2885,1011.94
32582,0.0382592,6.58536,7.20708,0.42,-0.21,-0.14,41.7956,-12.805,-71.6647,1011.97
32588,0.0669536,6.5758,7.20229,0.35,0.14,-0.21,40.9648,-13.5284,-71.8915,1011.97
32594,0.0860832,6.56624,7.21186,0.77,-0.14,-0.21,40.9075,-12.9786,-71.9766,1011.95
32600,0.0669536,6.59015,7.20229,0.49,0,-0.07,41.0507,-13.0654,-72.005,1011.95
32606,0.0526064,6.5758,7.20229,0.63,-0.14,0,39.4465,-14.0204,-72.4019,1011.95
32612,0.071736,6.58536,7.22621,-0.14,-0.28,-0.14,40.2773,-13.7889,-71.2536,1011.95
32618,0.0382592,6.55189,7.19751,0.63,0.07,-0.35,41.2226,-13.7889,-71.849,1011.95
32624,0.0669536,6.5758,7.23099,1.05,0.21,-0.21,40.1054,-13.4706,-72.6146,1011.94
32630,0.0813008,6.5758,7.22621,-0.07,-0.49,-0.28,40.7929,-13.4416,-71.9482,1011.94
32636,0.0908656,6.55667,7.19751,0,0.28,-0.07,40.4492,-13.1522,-71.5513,1011.93
32642,0.0526064,6.57102,7.19751,0.49,0.21,0,41.0221,-13.4127,-71.5371,1011.93
32648,0.0669536,6.57102,7.20708,-0.07,0.14,-0.28,41.4804,-12.9207,-72.3736,1011.94
32654,0.0908656,6.59971,7.19273,-0.28,-0.35,-0.42,40.3919,-12.313,-72.1751,1011.94
32660,0.0621712,6.55667,7.20229,0.49,-0.49,-0.07,41.3945,-13.268,-72.1184,1011.95
32666,0.0669536,6.55667,7.20229,0.98,-0.14,-0.21,40.8789,-13.2391,-72.4444,1011.95
32672,0.0526064,6.58058,7.21186,0.56,-0.21,-0.14,41.2226,-13.7021,-72.3027,1011.93
32678,0.047824,6.58536,7.21664,0.14,17.85,0,41.2226,-13.3548,-71.5655,1011.93
32684,0.0621712,6.57102,7.21664,0.49,0.21,-0.21,40.8789,-13.0944,-70.4029,1011.95
32690,0.0669536,6.57102,7.19273,0.63,0.14,-0.07,40.7643,-13.5574,-71.5513,1011.95
32696,0.0526064,6.58058,7.22142,-0.07,-0.07,-0.28,40.5351,-13.3259,-71.2536,1011.96
32702,0.0382592,6.5758,7.24055,0.21,-0.28,0,40.5351,-12.8339,-70.488,1011.96
32708,0.0573888,6.57102,7.21664,-0.35,-0.28,-0.21,40.3059,-13.1522,-70.97,1011.96
32714,0.0573888,6.5758,7.21664,0.7,0,-0.07,40.5638,-12.4866,-70.885,1011.97
32720,0.0573888,6.58058,7.21664,0,0.07,-0.35,40.8502,-12.4288,-71.1401,1011.97
32726,0.0573888,6.54232,7.23577,-0.49,-0.07,-0.21,40.3919,-13.4995,-70.9842,1011.94
32732,0.071736,6.60449,7.21186,0.91,-0.28,-0.07,40.7929,-12.8629,-70.6865,1011.94
32738,0.0669536,6.57102,7.20708,0.56,-0.42,-0.21,41.0794,-13.4995,-70.8708,1011.91
32744,0.0669536,6.59015,7.19751,0.63,-0.07,-0.21,40.4778,-12.4866,-71.6931,1011.91
32750,0.0526064,6.58058,7.22142,-0.07,-0.14,0,40.9362,-13.3838,-71.0693,1011.9
32756,0.0765184,6.57102,7.20229,0.7,0.28,-0.21,40.4778,-13.3838,-71.367,1011.9
32762,0.0621712,6.56624,7.20708,1.19,-0.28,0,41.0794,-12.9786,-72.7563,1011.93
32768,0.0573888,6.5758,7.23577,-0.14,0.07,-0.07,40.5351,-12.5156,-70.2186,1011.93
32774,0.0908656,6.57102,7.21664,-0.28,-0.07,-0.14,40.7356,-12.6603,-72.0191,1011.95
32780,0.0430416,6.57102,7.20229,0.14,-0.28,0.07,41.0221,-12.6603,-71.5796,1011.95
32786,0.0621712,6.60449,7.20229,0.21,-0.07,-0.49,40.5638,-12.9207,-71.3528,1011.94
32792,0.0334768,6.55667,7.21186,-0.21,0.21,-0.42,41.108,-11.7921,-70.7574,1011.94
32798,0.0573888,6.58536,7.21186,-0.56,0.14,-0.21,40.3059,-13.4127,-71.7356,1011.94
32804,0.071736,6.58536,7.23099,0.7,0.07,-0.35,40.707,-13.4995,-71.2394,1011.96
32810,0.0621712,6.57102,7.19751,0.35,0.14,-0.28,40.8216,-13.3548,-71.5229,1011.96
32816,0.114778,6.55667,7.21664,-0.07,0.21,0.07,40.7929,-13.6442,-71.8632,1011.97
32822,0.0765184,6.5758,7.20708,0.7,0.14,-0.63,40.7356,-13.3259,-71.8632,1011.97
32828,0.0526064,6.59971,7.21186,0.91,-0.07,-0.35,40.7643,-12.9207,-71.5796,1011.95
32834,0.0573888,6.60449,7.21186,0.49,0,-0.07,41.108,-13.1233,-71.6505,1011.95
32840,0.047824,6.57102,7.18795,0.07,-0.21,-0.14,40.7356,-13.7889,-71.5513,1011.93
32846,0.071736,6.5758,7.22621,0.35,-0.07,-0.28,41.2799,-13.268,-71.849,1011.93
32852,0.0430416,6.54232,7.19273,0.77,-0.14,-0.21,40.5638,-13.5574,-72.331,1011.93
32858,0.0526064,6.58536,7.21664,0.14,-0.28,-0.07,40.9648,-13.2101,-70.8141,1011.93
32864,0.047824,6.57102,7.19751,0,0,-0.21,41.1653,-13.5863,-71.367,1011.96
32870,0.0621712,6.59015,7.19751,0.14,-0.21,-0.21,40.8789,-13.2969,-71.8065,1011.96
32876,0.0669536,6.59015,7.20708,0.56,-0.28,-0.35,41.595,-13.6731,-71.0693,1011.96
32882,0.0669536,6.5758,7.22621,0.14,-0.56,-0.28,41.2226,-13.4416,-71.3953,1011.97
32888,0.0526064,6.58058,7.20708,-0.56,-0.07,0,40.5351,-13.1233,-72.1184,1011.97
32894,0.047824,6.56624,7.1736,1.12,0.14,-0.21,40.3632,-12.6603,-70.7999,1011.95
32900,0.0526064,6.56624,7.20229,0.84,0.07,0,41.108,-12.9786,-71.4095,1011.95
32906,0.0621712,6.58058,7.21664,0.42,-0.28,-0.14,40.7929,-13.3548,-71.4804,1011.97
32912,0.0669536,6.55667,7.22142,0.77,-0.14,-0.21,41.0507,-13.0365,-71.5655,1011.97
32918,0.095648,6.57102,7.21664,0.98,-0.56,-0.56,40.4492,-13.2101,-71.4804,1011.93
32924,0.023912,6.56624,7.19751,0.77,-0.21,-0.49,40.5638,-13.731,-72.9406,1011.93
32930,0.0813008,6.58536,7.22621,-0.56,-0.42,-0.28,40.4778,-13.6153,-70.9558,1011.92
32936,0.0765184,6.57102,7.18317,-0.56,0.14,0,40.9362,-13.0365,-71.1968,1011.92
32942,0.0526064,6.56145,7.19751,0.42,-0.14,-0.14,40.5065,-13.1233,-71.1827,1011.95
32948,0.0573888,6.57102,7.21186,0.35,0.21,-0.21,40.6497,-13.2391,-71.126,1011.95
32954,0.0669536,6.58058,7.19751,-0.07,-0.07,-0.21,41.3945,-13.4706,-71.7214,1011.94
32960,0.071736,6.59493,7.18317,-0.49,-0.07,0,40.8502,-13.0944,-71.452,1011.94
32966,0.0526064,6.56145,7.19273,1.05,-0.07,-0.28,40.9934,-12.6024,-71.7072,1011.94
32972,0.0573888,6.5758,7.21186,0.98,0.07,-0.35,40.6497,-13.2969,-71.1827,1011.94
32978,0.0621712,6.59493,7.22142,1.05,-0.28,-0.28,40.22,-13.0365,-71.7214,1011.94
32984,0.0191296,6.58536,7.21186,-0.14,-0.35,-0.14,40.9934,-13.4127,-71.3103,1011.96
32990,0.0765184,6.58536,7.18795,0.21,0.07,-0.21,41.0794,-13.3838,-71.6505,1011.96
32996,0.047824,6.55189,7.23099,0.77,-0.14,-0.42,40.8502,-13.5863,-71.7923,1011.89
33002,0.0765184,6.55667,7.23099,-0.42,-0.28,-0.35,41.4518,-13.0365,-72.5862,1011.89
33008,0.0621712,6.55667,7.22142,-0.07,-0.14,0.14,40.8216,-13.1233,-71.7356,1011.94
33014,0.047824,6.58536,7.20229,0.49,-0.28,-0.21,41.2513,-13.4416,-71.452,1011.94
33020,0.0621712,6.60449,7.22142,0.21,-0.21,-0.42,40.9075,-12.9207,-71.0693,1011.95
33026,0.071736,6.55189,7.21186,0.35,0,0.07,40.621,-13.3838,-71.211,1011.95
33032,0.0860832,6.53276,7.20229,0.14,0.14,-0.07,40.6497,-12.805,-71.5796,1011.95
33038,0.0765184,6.58536,7.20229,0.63,-0.07,-0.7,40.621,-13.1812,-71.2961,1011.95
33044,0.0526064,6.55667,7.23099,0.49,0.21,-0.14,40.5351,-12.8918,-72.0617,1011.93
33050,0.0573888,6.57102,7.19273,0.42,-0.21,-0.28,41.0507,-13.4995,-71.9199,1011.93
33056,0.0669536,6.58536,7.22142,0.63,-0.07,-0.35,41.5091,-13.5574,-71.8065,1011.93
33062,0.0621712,6.5758,7.20229,0.49,-0.21,-0.56,40.5065,-13.2391,-71.9624,1011.92
33068,0.0813008,6.54711,7.20229,0.7,-0.28,-0.35,40.4205,-13.5574,-71.5513,1011.92
33074,0.0526064,6.5758,7.21664,0.28,-0.07,-0.21,41.595,-13.4706,-71.7781,1011.95
33080,0.0765184,6.55667,7.21186,-0.14,0.14,-0.35,40.4492,-12.776,-71.6931,1011.95
33086,0.0669536,6.58536,7.21664,0.84,-0.28,-0.21,40.5351,-13.5863,-72.1751,1011.95
33092,0.0765184,6.57102,7.20229,0.21,-0.07,0.07,40.9648,-13.0365,-71.1968,1011.95
33098,0.0621712,6.5758,7.23099,0.07,-0.14,-0.35,41.2513,-13.3548,-72.9123,1011.96
33104,0.0526064,6.58536,7.23099,0.77,-0.07,-0.35,41.4518,-13.3838,-71.8632,1011.96
33110,0.0621712,6.55189,7.19751,0,-0.35,-0.42,40.9648,-13.4706,-72.2601,1011.96
33116,0.0813008,6.57102,7.22142,0.28,0.07,-0.49,41.1653,-13.4706,-71.9624,1011.96
33122,0.0573888,6.59493,7.20708,0,-0.21,-0.21,41.0794,-12.8918,-73.1675,1011.92
33128,0.0382592,6.59015,7.20229,0.56,-0.21,-0.42,41.3945,-13.1522,-72.7138,1011.92
33134,0.0860832,6.5758,7.20229,0.49,-0.07,-0.42,40.9362,-13.0075,-71.6647,1011.97
33140,0.0813008,6.58536,7.20229,0.7,0.07,-0.07,40.8216,-12.9207,-72.2176,1011.97
33146,0.0430416,6.59015,7.20229,-0.14,-0.28,-0.14,40.5924,-13.6442,-72.1892,1011.97
33152,0.0669536,6.57102,7.18795,0,-0.35,-0.28,40.9075,-12.3998,-71.7923,1011.94
33158,0.0382592,6.55667,7.18317,0.49,0,-0.07,40.9362,-12.4288,-72.6571,1011.94
33164,0.0765184,6.56624,7.21664,0.14,-0.21,-0.21,40.9648,-12.9497,-73.0115,1011.94
33170,0.0573888,6.56145,7.21664,0.07,0,-0.07,40.707,-12.8629,-71.9057,1011.94
33176,0.071736,6.54711,7.20708,0.7,-0.07,0,40.9648,-13.268,-71.8774,1011.94
33182,0.0573888,6.56145,7.20229,1.47,-0.28,-0.56,39.7903,-13.1812,-72.3168,1011.94
33188,0.0669536,6.59015,7.20708,0.49,0,-0.14,40.9648,-13.3838,-72.0758,1011.98
33194,0.0573888,6.58536,7.19751,0.7,0.07,0.28,41.3945,-13.1233,-71.9766,1011.98
33200,0.0669536,6.54232,7.21186,0.63,0,-0.14,41.1367,-13.4416,-71.849,1011.94
33206,0.0669536,6.55667,7.22142,0.42,0,-0.28,40.9075,-13.0075,-71.3528,1011.94
33212,0.0573888,6.58536,7.23099,-0.49,0.07,-0.07,40.9362,-13.3548,-71.452,1011.95
33218,0.0526064,6.58536,7.20708,0.63,-0.28,0,41.3659,-13.0654,-72.1467,1011.95
33224,0.0526064,6.55189,7.19751,1.12,-0.14,-0.21,41.1367,-12.9786,-70.8566,1011.95
33230,0.0669536,6.57102,7.19751,0.14,0,-0.21,40.5351,-13.4995,-71.9908,1011.96
33236,0.0765184,6.56624,7.23577,-0.07,-0.21,-0.28,41.2799,-13.0944,-71.8206,1011.96
33242,0.047824,6.5758,7.22142,0.28,-0.14,-0.35,40.707,-13.5284,-71.7072,1011.92
33248,0.0621712,6.57102,7.23099,0.28,-0.21,-0.07,40.3919,-13.2391,-72.005,1011.92
33254,0.0669536,6.56145,7.21664,0.21,0,0.28,41.2226,-12.2841,-72.0617,1011.95
33260,0.0765184,6.5758,7.21664,0.28,-0.42,-0.42,41.8815,-12.9786,-70.7999,1011.95
33266,0.047824,6.55667,7.20229,0.28,-0.14,-0.21,41.2226,-12.8918,-70.885,1011.95
33272,0.0765184,6.56145,7.21664,0.56,0,0.07,40.9648,-13.4995,-72.1042,1011.95
33278,0.047824,6.58536,7.21664,0.7,-0.14,-0.21,41.3086,-13.0944,-71.3953,1011.94
33284,0.0621712,6.5758,7.21186,0.56,-0.21,-0.42,41.3086,-12.6603,-71.849,1011.94
33290,0.0526064,6.59971,7.21664,0.49,-0.07,0.07,40.8789,-12.8629,-72.3027,1011.95
33296,0.109995,6.57102,7.20229,0,-0.21,-0.21,41.108,-12.8918,-71.8065,1011.95
33302,0.0526064,6.59971,7.19751,0.84,0,-0.28,40.7643,-13.9915,-71.6222,1011.96
33308,0.071736,6.5758,7.22142,0.63,-0.42,-0.35,40.621,-12.8918,-72.2034,1011.96
33314,0.0765184,6.59493,7.20229,-0.07,-0.28,-0.28,41.2226,-13.2969,-72.1467,1011.96
33320,0.0669536,6.54711,7.20708,0.77,-0.14,-0.14,40.5065,-13.2391,-72.4303,1011.96
33326,0.0765184,6.58536,7.18317,0.49,-0.14,-0.63,40.6497,-13.9047,-71.9482,1011.96
33332,0.0621712,6.59493,7.21186,0.42,-0.07,-0.42,40.8502,-12.9207,-72.7563,1011.96
33338,0.0526064,6.58058,7.21664,-0.28,-0.14,-0.35,41.2513,-12.9786,-72.7989,1011.96
33344,0.071736,6.56624,7.22142,0.7,0.07,-0.07,41.0794,-13.2391,-71.7498,1011.97
33350,0.047824,6.58536,7.21664,0.91,-0.14,-0.28,40.9075,-12.8918,-71.9908,1011.97
33356,0.0813008,6.54232,7.1736,0.35,-0.21,-0.14,41.2799,-12.8629,-72.3452,1011.95
33362,0.0382592,6.5758,7.21186,0.49,-0.07,-0.28,40.7643,-12.6892,-70.9133,1011.95
33368,0.0621712,6.55667,7.20708,-0.07,-0.07,-0.21,40.9648,-12.4288,-71.1543,1011.94
33374,0.0573888,6.56145,7.19273,0.56,-0.28,-0.28,41.3086,-12.5445,-71.4095,1011.94
33380,0.0573888,6.55667,7.19273,0.49,0.14,-0.21,41.8242,-12.6313,-71.2677,1011.96
33386,0.0669536,6.57102,7.18317,-0.14,-0.21,-0.14,41.4518,-12.6024,-70.3179,1011.96
33392,0.0526064,6.5758,7.19751,0.21,0,-0.21,41.108,-13.5863,-71.4804,1011.96
33398,0.0573888,6.56145,7.22142,0.56,0,-0.28,40.9648,-13.0365,-71.7214,1011.96
33404,0.0286944,6.58058,7.21186,1.12,-0.14,-0.21,41.5091,-13.0365,-71.2536,1011.96
33410,0.0526064,6.55667,7.20229,0.07,-0.42,-0.28,40.8789,-13.4416,-72.5579,1011.94
33416,0.0430416,6.59015,7.20229,0.21,0,-0.42,41.3945,-14.2809,-72.9548,1011.94
33422,0.071736,6.58058,7.19751,0.77,-0.14,-0.14,40.8789,-13.5863,-71.9624,1011.95
33428,0.047824,6.58058,7.20708,-0.21,-0.14,-0.42,40.5065,-12.2841,-72.572,1011.95
33434,0.0286944,6.55667,7.18795,-0.56,-0.49,-0.21,40.1054,-13.2391,-71.5938,1011.95
33440,0.047824,6.55667,7.20708,1.05,-0.21,-0.42,40.707,-12.1104,-71.5655,1011.95
33446,0.0334768,6.5758,7.19273,0.63,-0.42,-0.28,40.7643,-12.805,-72.09,1011.93
33452,0.0669536,6.59015,7.19273,-0.63,0,-0.14,40.22,-13.2969,-71.211,1011.93
33458,0.0669536,6.58058,7.18795,1.47,-0.14,-0.28,40.5924,-13.4995,-71.608,1011.97
33464,0.0573888,6.58058,7.19751,0.7,0.14,-0.35,40.9075,-13.5284,-71.367,1011.97
33470,0.0765184,6.56624,7.19273,0.42,0.21,-0.49,40.3059,-13.5863,-71.3812,1011.97
33476,0.0813008,6.5758,7.19751,0.91,-17.92,-0.21,41.1367,-12.8918,-71.7639,1011.97
33482,0.0669536,6.56624,7.19273,1.05,0,-0.35,40.8789,-13.6153,-73.0824,1011.97
33488,0.071736,6.60449,7.19273,0.7,-0.21,-0.35,41.3945,-12.6892,-71.7214,1011.96
33494,0.047824,6.58058,7.21186,0.28,-0.42,-0.14,41.3659,-13.0365,-71.5655,1011.96
33500,0.047824,6.58058,7.16882,0.49,-0.28,-0.49,41.3945,-12.3998,-72.3027,1011.93
33506,0.0669536,6.5758,7.20708,0.56,0.28,-0.28,41.3086,-12.8918,-71.1118,1011.93
33512,0.0526064,6.57102,7.20708,0.35,-0.42,-17.78,40.9362,-13.268,-71.7214,1011.97
33518,0.0669536,6.57102,7.20229,0.91,0.21,-0.07,40.9648,-12.6313,-69.9776,1011.97
33524,0.047824,6.5758,7.22142,1.12,0.07,-0.21,41.8242,-12.805,-71.0976,1011.94
33530,0.0621712,6.55667,7.20708,-0.21,0.28,-0.42,41.5091,-13.1812,-71.4662,1011.94
33536,0.0430416,6.56624,7.19751,0,-0.07,-0.14,41.6237,-12.9786,-71.6647,1011.94
33542,0.023912,6.57102,7.20229,-0.07,-0.42,-0.42,40.8789,-13.0944,-72.0475,1011.94
33548,0.071736,6.5758,7.18795,0.91,-0.14,-0.14,40.5924,-12.9207,-71.1543,1011.96
33554,0.0526064,6.58058,7.19273,0.56,0.07,-0.56,41.194,-13.0365,-71.2394,1011.96
33560,0.0382592,6.58536,7.20229,-0.42,0.07,-0.07,41.108,-12.6603,-72.331,1011.94
33566,0.0621712,6.55667,7.19273,1.05,0.07,-0.14,41.4231,-13.4127,-72.3877,1011.94
33572,0.0669536,6.58058,7.18795,1.05,0.21,-0.42,40.9934,-13.8468,-71.7214,1011.94
33578,0.0669536,6.61406,7.20708,1.33,-0.28,-0.49,40.5638,-12.7471,-71.6647,1011.92
33584,0.0526064,6.5758,7.18795,-0.63,-0.28,-0.07,40.9075,-12.4288,-71.9341,1011.92
33590,0.0765184,6.56624,7.19751,0.21,-0.49,-0.42,40.6497,-12.805,-72.4586,1011.95
33596,0.0621712,6.5758,7.18317,0.28,0,-0.42,41.3372,-13.3838,-71.5938,1011.95
33602,0.071736,6.56624,7.20229,0.21,-0.21,-0.21,40.4778,-13.5863,-72.4019,1011.93
33608,0.0573888,6.5758,7.22142,-0.35,0,-0.35,40.7643,-12.1683,-72.3168,1011.93
33614,0.0526064,6.56145,7.19273,-0.07,-0.07,-0.35,40.8789,-13.4706,-72.0475,1011.96
33620,0.0669536,6.59493,7.21664,0.91,-0.35,-0.21,41.2226,-13.2101,-73.0399,1011.96
33626,0.047824,6.55667,7.18317,0.35,-0.7,-0.56,41.1367,-13.1233,-72.2743,1011.92
33632,0.0621712,6.55189,7.20708,0.35,0.21,-0.42,40.621,-13.268,-72.246,1011.92
33638,0.0621712,6.5758,7.16882,0.35,0.07,-0.07,41.3086,-12.2262,-72.1892,1011.95
33644,0.0430416,6.5758,7.20708,-0.49,0,-0.42,41.1367,-12.2551,-71.2961,1011.95
33650,0.071736,6.58058,7.21186,-0.35,-0.21,-0.28,40.5351,-13.4127,-71.9482,1011.95
33656,0.047824,6.56624,7.21186,1.4,0.28,0,41.1367,-13.4706,-72.5579,1011.95
33662,0.0526064,6.56145,7.21186,0.98,-0.42,-0.63,41.0794,-12.9497,-72.4019,1011.95
33668,0.0669536,6.56624,7.19751,-0.07,-0.21,-0.49,40.5065,-13.1812,-72.6429,1012
33674,0.0621712,6.59015,7.21664,0.98,-0.42,-0.07,41.0221,-12.313,-72.1751,1012
33680,0.0621712,6.5758,7.22621,1.33,0.21,-0.14,40.7356,-12.9497,-72.3594,1011.95
33686,0.0286944,6.53754,7.19751,1.19,0.07,-0.35,40.6783,-13.0654,-71.9341,1011.95
33692,0.0765184,6.58058,7.21664,-0.35,-0.14,0.14,40.3919,-12.8339,-71.452,1011.94
33698,0.0813008,6.57102,7.22142,0.49,-0.42,-0.35,40.9362,-12.7471,-71.8774,1011.94
33704,0.0765184,6.57102,7.20708,0.77,-0.07,-0.35,40.6497,-12.8629,-71.1827,1011.97
33710,0.0526064,6.59015,7.21186,-0.07,0.07,0.07,40.9934,-12.6892,-72.1467,1011.97
33716,0.0526064,6.57102,7.21664,0.49,-0.14,-0.14,40.9075,-12.9497,-71.8915,1011.96
33722,0.0908656,6.59015,7.18317,0.42,-0.21,-0.21,41.0221,-12.7471,-72.1467,1011.96
33728,0.0860832,6.5758,7.21664,-0.07,-0.14,-0.21,40.5924,-12.3709,-72.7989,1011.94
33734,0.0765184,6.57102,7.21664,-0.42,-0.42,-0.35,41.4231,-12.8629,-72.2318,1011.94
33740,0.0526064,6.57102,7.19273,-0.56,-0.28,-0.14,40.9075,-12.4866,-71.2252,1011.98
33746,0.047824,6.57102,7.20229,0.77,-0.28,-0.21,40.9934,-12.4288,-71.1968,1011.98
33752,0.0573888,6.54232,7.19751,0.91,0.07,-0.42,40.8216,-13.5863,-71.6505,1011.98
33758,0.0526064,6.55667,7.18795,-0.14,-0.07,-0.21,41.3372,-12.6313,-72.3027,1011.94
33764,0.047824,6.58536,7.20229,0.84,0.21,0.07,40.8216,-12.8339,-70.9417,1011.94
33770,0.0621712,6.58536,7.20708,0.98,0,-0.07,41.4518,-13.0365,-71.7923,1011.97
33776,0.0573888,6.56624,7.23577,0.91,-0.21,-0.28,40.5924,-13.5574,-72.3452,1011.97
33782,0.0573888,6.59493,7.21664,0.21,0.14,-0.14,41.1367,-12.3419,-71.7923,1011.91
33788,0.0430416,6.59493,7.20708,0.91,-0.35,-0.28,40.7929,-12.5735,-71.8915,1011.91
33794,0.0621712,6.58058,7.22142,1.26,0,-0.21,41.0794,-12.8918,-70.9133,1011.96
33800,0.071736,6.55667,7.22621,-0.14,-0.28,-0.07,41.4231,-12.9497,-70.9133,1011.96
33806,0.0526064,6.55667,7.20229,-0.28,-0.28,0,40.8789,-11.7632,-71.2819,1011.94
33812,0.0765184,6.58536,7.20708,0.07,0,-0.21,40.9648,-12.6024,-71.9908,1011.94
33818,0.0860832,6.58058,7.18795,1.05,-0.28,0.14,41.2226,-13.0654,-71.0409,1011.99
33824,0.071736,6.59015,7.20708,0.21,0.35,-0.14,41.7383,-12.5735,-70.9275,1011.99
33830,0.0813008,6.55667,7.20229,-0.28,-0.21,-0.21,41.2513,-12.8629,-70.9842,1011.99
33836,0.071736,6.57102,7.19273,0.49,-0.28,-0.14,41.0794,-12.4577,-71.8065,1011.96
33842,0.0908656,6.57102,7.23577,0.28,-0.07,0.14,40.7929,-13.2969,-71.9341,1011.96
33848,0.047824,6.58536,7.21186,17.36,0,-0.49,40.7929,-12.8629,-70.3887,1011.95
33854,0.0765184,6.55667,7.18795,-0.28,0.14,-0.21,40.7643,-12.1683,-72.3027,1011.95
33860,0.0621712,6.55667,7.22142,0.91,0.42,0.07,39.7903,-13.6731,-70.9133,1011.96
33866,0.071736,6.56145,7.22142,0.63,-0.21,-0.21,41.2799,-13.4706,-71.9057,1011.96
33872,0.0526064,6.53754,7.22142,0,0.14,-0.14,41.2799,-12.9497,-71.5796,1011.94
33878,0.071736,6.55667,7.22621,-0.63,-0.42,-0.42,41.4231,-12.6892,-72.246,1011.94
33884,0.0573888,6.56145,7.19751,1.33,-17.5,-0.21,40.7356,-13.0365,-73.2384,1011.95
33890,0.047824,6.5758,7.20229,0.35,0,-0.56,39.1028,-13.5574,-73.21,1011.95
33896,0.0430416,6.58536,7.23099,-0.35,-0.49,-0.49,40.5065,-12.9207,-71.2961,1011.95
33902,0.0765184,6.5758,7.18317,1.33,0,-0.28,40.4492,-12.6892,-71.7214,1011.95
33908,0.047824,6.59493,7.19751,0.07,-0.28,-0.49,40.4778,-12.4866,-71.1543,1011.97
33914,0.0669536,6.56145,7.18317,-0.42,-0.07,-0.14,40.5065,-13.1812,-71.5229,1011.97
33920,0.0813008,6.55667,7.20229,1.12,-0.07,-0.21,41.194,-12.4288,-71.9341,1011.97
33926,0.0669536,6.55667,7.19273,0.35,-0.07,-0.49,41.7096,-12.6603,-73.2242,1011.94
33932,0.071736,6.58536,7.21186,-0.7,-0.07,-0.49,41.5091,-11.9368,-71.8632,1011.94
33938,0.0669536,6.58536,7.22142,1.12,-0.07,-0.07,41.681,-12.8339,-72.3877,1011.93
33944,0.0526064,6.56624,7.20708,0.91,0.28,-0.14,40.8789,-12.776,-71.4804,1011.93
33950,0.0669536,6.56624,7.24055,0.7,-0.07,-0.21,40.9934,-13.2391,-72.4728,1011.95
33956,0.0621712,6.54711,7.22621,0.07,0.14,-0.21,41.3945,-13.0075,-73.2384,1011.95
33962,0.0526064,6.55667,7.20229,0.07,-0.42,-0.56,41.5377,-12.9497,-71.5796,1011.95
33968,0.0765184,6.58058,7.22142,0.42,-0.42,-0.77,41.108,-12.0526,-71.9057,1011.95
33974,0.0908656,6.5758,7.22142,0.07,-0.49,-0.14,40.7643,-12.1973,-72.005,1011.92
33980,0.0765184,6.53276,7.22142,0.7,0,-0.35,41.108,-12.5156,-72.1751,1011.92
33986,0.0669536,6.56145,7.20708,0.28,-0.07,-0.21,41.2799,-12.5735,-71.8206,1011.96
33992,0.0573888,6.58058,7.21664,0.7,0.14,-0.42,40.5638,-13.4706,-72.6996,1011.96
33998,0.0526064,6.55667,7.20708,0,-0.35,-0.35,41.5377,-12.6892,-71.5087,1011.95
34004,0.047824,6.55667,7.20229,0.35,-0.14,-0.35,41.3086,-13.0075,-72.2885,1011.95
34010,0.0573888,6.59493,7.21186,0.14,-0.14,0,40.3059,-12.4577,-71.4662,1011.95
34016,0.0573888,6.57102,7.19751,-0.21,0,-0.35,40.9075,-13.0075,-72.1325,1011.98
34022,0.0573888,6.55667,7.23099,0.35,-0.14,-0.07,41.5664,-12.4577,-71.8774,1011.98
34028,0.0669536,6.56624,7.20229,0,0,-0.63,39.9049,-13.6153,-72.728,1011.95
34034,0.0621712,6.5758,7.21186,-0.21,-0.07,-0.49,40.9648,-12.4577,-71.7781,1011.95
34040,0.0621712,6.57102,7.20708,-0.28,-0.21,0.07,40.9934,-12.6024,-71.7356,1011.97
34046,0.071736,6.5758,7.23577,0.35,-0.42,-0.49,41.4231,-12.9786,-72.0617,1011.97
34052,0.0860832,6.56624,7.22621,0.07,-0.21,-0.63,40.9075,-12.6603,-71.1685,1011.96
34058,0.071736,6.5758,7.21186,1.26,-0.14,0,42.0534,-12.2262,-72.246,1011.96
34064,0.0573888,6.5758,7.21664,-0.21,0,-0.7,40.707,-12.5735,-72.5295,1011.95
34070,0.0573888,6.59015,7.22142,-0.28,-0.56,-0.35,40.6783,-12.805,-71.8915,1011.95
34076,0.0526064,6.56624,7.21664,-0.28,-0.28,0,40.7929,-12.1104,-71.9341,1012
34082,0.0573888,6.53754,7.22142,1.19,-0.49,-0.49,40.9362,-12.7471,-72.331,1012
34088,0.0526064,6.59015,7.22621,0.63,-0.07,-0.7,41.595,-12.1683,-72.1325,1012
34094,0.0669536,6.53276,7.18795,0.14,0.21,0,41.1653,-13.2101,-71.9908,1011.97
34100,0.071736,6.58536,7.21664,1.05,-0.07,-0.49,40.7356,-12.805,-71.9766,1011.97
34106,0.0573888,6.57102,7.22621,1.26,0.14,-0.63,41.4231,-13.0654,-71.9199,1011.95
34112,0.0765184,6.59015,7.19751,0.77,0.21,-0.14,41.0794,-12.6603,-71.3386,1011.95
34118,0.0908656,6.58536,7.21186,0.63,0.28,0,42.1393,-13.1233,-70.9133,1011.94
34124,0.0813008,6.57102,7.21186,1.47,-0.07,-0.14,41.3659,-13.2969,-70.8141,1011.94
34130,0.0765184,6.56145,7.20708,1.75,0,-0.21,39.8762,-13.9047,-71.9908,1011.96
34136,0.0860832,6.56624,7.23099,-0.07,-0.07,-0.35,41.0221,-13.2969,-71.9199,1011.96
34142,0.0621712,6.59493,7.19751,-0.07,-0.49,-0.07,40.3632,-12.8629,-71.1543,1011.94
34148,0.0908656,6.60928,7.22621,0,-0.14,-0.28,41.0794,-12.6024,-71.7639,1011.94
34154,0.0573888,6.56145,7.24055,0.63,-0.07,0.28,40.9362,-13.3838,-71.9766,1011.95
34160,0.0526064,6.56624,7.21186,0,0,-0.07,40.8502,-12.7471,-71.4804,1011.95
34166,0.047824,6.58058,7.20708,0.14,0.14,-0.49,41.7383,-13.1812,-72.3168,1011.97
34172,0.0526064,6.57102,7.20708,0.42,0.35,-0.07,41.2799,-12.6024,-71.8915,1011.97
34178,0.0669536,6.5758,7.22621,-0.42,-0.14,-0.21,40.3919,-13.1233,-72.4728,1011.97
34184,0.0621712,6.58536,7.21186,-0.28,-0.21,-0.28,40.7643,-12.6892,-71.0551,1011.99
34190,0.0526064,6.5758,7.23099,1.05,-0.07,0,41.595,-12.5735,-72.4019,1011.99
34196,0.0573888,6.55667,7.20708,-0.07,-0.28,-0.35,40.7643,-12.4866,-71.7498,1011.93
34202,0.023912,6.55667,7.21186,-0.7,0.07,-0.14,40.7643,-12.7182,-71.3103,1011.93
34208,0.0669536,6.55667,7.22621,1.19,-0.14,0.07,40.5351,-12.8629,-72.0191,1011.94
34214,0.0765184,6.55189,7.21186,0.77,-0.21,-0.28,41.3659,-12.9207,-72.2885,1011.94
34220,0.0621712,6.5758,7.19751,0.28,-0.28,-0.56,41.5377,-13.76,-71.9341,1011.91
34226,0.0621712,6.56624,7.21664,0.56,-0.35,-0.07,40.9648,-12.805,-72.0333,1011.91
34232,0.0669536,6.57102,7.21664,0.63,0.21,-0.21,40.8789,-13.268,-71.9199,1011.94
34238,0.071736,6.59015,7.19751,0,0,-0.63,41.0221,-12.5445,-71.6505,1011.94
34244,0.0382592,6.58536,7.23099,-0.28,-0.28,0,40.1054,-13.8468,-72.8698,1011.96
34250,0.0813008,6.58536,7.24055,0.7,-0.42,-0.14,41.0507,-12.6313,-72.1184,1011.96
34256,0.0573888,6.56145,7.22142,-0.21,0,-0.14,41.0221,-12.6313,-71.7356,1011.96
34262,0.0621712,6.59015,7.19751,-0.21,-0.21,-0.35,40.6497,-12.9207,-71.1685,1011.96
34268,0.0573888,6.56145,7.19751,0.07,-0.07,0.14,41.7096,-12.6892,-70.6865,1011.96
34274,0.0621712,6.56624,7.23099,0.28,17.78,-0.07,41.5091,-12.9497,-72.1042,1011.96
34280,0.0573888,6.58058,7.21186,-0.63,-0.07,-0.21,40.7356,-13.4127,-70.885,1011.96
34286,0.0621712,6.58058,7.20708,-0.63,-0.07,-0.21,40.5924,-13.1812,-72.0191,1011.93
34292,0.0334768,6.55667,7.22142,0.63,0.14,0,40.9648,-13.0654,-72.09,1011.93
34298,0.0765184,6.5758,7.20708,-0.21,-0.14,-0.35,41.1367,-13.2969,-71.8915,1011.93
34304,0.0669536,6.58058,7.20229,-0.56,-0.21,-0.14,40.621,-13.0654,-71.8065,1011.93
34310,0.047824,6.5758,7.20708,1.26,-0.35,17.29,41.2799,-12.1104,-72.331,1011.96
34316,0.047824,6.5758,7.24534,1.47,-0.35,-0.35,40.1627,-12.9786,-71.6363,1011.96
34322,0.0765184,6.58058,7.22621,0,-0.28,-0.14,41.108,-12.6024,-70.7007,1011.96
34328,0.0813008,6.59015,7.22142,0.56,-0.42,0.07,40.6497,-13.1522,-71.8774,1011.96
