Timestamp,AccX,AccY,AccZ,AngularVelX,AngularVelY,AngularVelZ,MagX,MagY,MagZ,AirPressure
15392,0.224773,9.78957,1.05691,1.82,-3.85,0.21,22.269,-47.3549,-23.2752,1014.8
15398,0.196078,9.81349,1.08082,2.45,-3.71,-0.14,22.4434,-47.2007,-23.4377,1014.8
15404,0.224773,9.77523,1.07604,1.75,-3.08,-0.28,22.0656,-46.3989,-22.7137,1014.76
15410,0.191296,9.79436,1.07126,1.68,-3.57,-0.07,21.3392,-47.139,-22.7728,1014.76
15416,0.210426,9.77044,1.09995,1.68,-3.29,-0.07,21.8041,-47.6633,-23.482,1014.78
15422,0.196078,9.78001,1.07604,2.31,-3.5,-0.21,22.2109,-47.6324,-22.5363,1014.78
15428,0.253467,9.77523,1.09517,1.47,-3.08,-0.42,21.8041,-47.324,-22.2408,1014.78
15434,0.205643,9.78957,1.07126,2.03,-3.43,-0.28,21.5426,-46.954,-23.8514,1014.83
15440,0.210426,9.79436,1.06648,1.96,-3.01,0.07,21.2811,-46.2447,-21.6645,1014.83
15446,0.191296,9.76088,1.04735,2.03,-3.5,-0.56,22.1237,-46.5531,-23.0978,1014.81
15452,0.181731,9.78001,1.09995,1.4,-3.29,-0.21,21.9785,-45.9979,-23.2308,1014.81
15458,0.196078,9.77523,1.09995,1.47,-3.43,-0.42,22.5305,-47.0157,-22.3147,1014.8
15464,0.191296,9.78957,1.09039,2.03,-3.57,-0.28,22.6758,-46.8306,-22.7137,1014.8
15470,0.176949,9.77523,1.0856,2.24,-3.29,0.07,22.4434,-46.4605,-22.3442,1014.79
15476,0.200861,9.77523,1.11908,1.89,-3.57,-0.21,22.3852,-47.4166,-22.3442,1014.79
15482,0.210426,9.76088,1.05213,1.82,-3.22,-0.14,22.4434,-46.5839,-22.6841,1014.79
15488,0.196078,9.78957,1.07604,1.89,-3.43,-0.28,22.1818,-46.4605,-21.7532,1014.79
15494,0.162602,9.76088,1.07126,1.89,-3.92,0.21,21.9494,-47.7558,-22.8614,1014.79
15500,0.186514,9.76566,1.10952,1.68,-3.57,-0.56,22.0947,-46.954,-22.359,1014.82
15506,0.167384,9.77044,1.08082,1.54,-3.22,-0.07,22.3852,-46.5531,-22.3886,1014.82
15512,0.234338,9.78479,1.06169,1.96,-3.5,0.28,22.0656,-47.324,-22.6398,1014.78
15518,0.21999,9.76088,1.09517,1.33,-2.94,-0.21,22.5015,-46.5222,-22.5954,1014.78
15524,0.215208,9.76566,1.06648,1.54,-3.29,-0.14,22.9954,-46.2755,-22.9648,1014.8
15530,0.253467,9.7561,1.07126,2.1,-3.64,-0.42,22.5596,-46.7689,-22.6841,1014.8
15536,0.248685,9.77044,1.09995,1.82,-3.29,-0.28,22.6468,-46.9848,-22.9205,1014.79
15542,0.215208,9.78957,1.06648,2.17,-3.29,0.07,22.3562,-46.6147,-22.9057,1014.79
15548,0.186514,9.78001,1.07126,1.54,-3.29,-0.07,22.2109,-46.9848,-22.9944,1014.79
15554,0.181731,9.78001,1.05691,1.33,-3.5,-0.42,22.0366,-47.0157,-22.9353,1014.79
15560,0.200861,9.75131,1.0856,2.1,-3.22,-0.35,21.8332,-45.9979,-23.4081,1014.79
15566,0.172166,9.75131,1.09517,1.68,-2.66,0.07,23.0826,-46.5531,-23.1422,1014.8
15572,0.162602,9.77044,1.09039,1.61,-3.29,-0.14,22.2109,-46.3063,-23.6002,1014.8
15578,0.157819,9.76566,1.09039,1.89,-3.85,0,21.8622,-46.6456,-22.9944,1014.78
15584,0.176949,9.76088,1.07604,2.03,-3.36,-0.21,22.0075,-46.6147,-22.8171,1014.78
15590,0.210426,9.78001,1.07126,2.03,-3.64,0.07,21.7169,-46.7689,-22.6693,1014.79
15596,0.191296,9.73697,1.07126,2.1,-3.36,-0.28,22.1818,-47.0157,-22.758,1014.79
15602,0.181731,9.79914,1.06648,1.82,-3.08,0.49,22.6177,-46.7998,-22.6693,1014.79
15608,0.210426,9.76566,1.05691,1.68,-3.5,-0.21,22.5596,-46.7381,-23.3195,1014.78
15614,0.200861,9.79436,1.05691,2.03,-3.64,-0.07,22.0366,-46.1213,-22.6693,1014.78
15620,0.205643,9.79436,1.06648,1.61,-3.08,0.21,21.5135,-46.7381,-23.9696,1014.81
15626,0.253467,9.78957,1.08082,1.75,-3.57,0.35,22.6758,-46.1521,-22.7432,1014.81
15632,0.215208,9.79436,1.07604,1.82,-3.08,-0.49,22.2981,-46.4605,-23.0535,1014.83
15638,0.21999,9.79436,1.07604,1.61,-3.15,-0.14,21.9203,-46.4914,-22.6545,1014.83
15644,0.229555,9.76566,1.07126,1.68,-3.57,-0.49,21.7751,-46.1521,-23.6446,1014.79
15650,0.210426,9.78001,1.0856,1.82,-3.43,0,22.1528,-46.6764,-23.748,1014.79
15656,0.167384,9.76566,1.09039,1.96,-3.43,-0.28,22.269,-46.6147,-22.7875,1014.79
15662,0.186514,9.78957,1.07604,1.68,-3.29,-0.07,21.7751,-46.2755,-23.482,1014.79
15668,0.200861,9.77044,1.05691,2.03,-3.5,-0.28,21.8622,-46.0596,-23.7923,1014.79
15674,0.157819,9.79436,1.09995,1.82,-3.64,-0.7,22.7049,-46.3989,-23.4081,1014.79
15680,0.21999,9.78957,1.09517,1.89,-3.29,0.14,22.9664,-47.4166,-23.7923,1014.79
15686,0.196078,9.7561,1.09517,1.96,-3.43,0,22.3562,-46.7689,-23.9105,1014.78
15692,0.172166,9.78479,1.10473,1.47,-3.29,-0.35,21.9785,-46.2755,-23.5559,1014.78
15698,0.205643,9.79914,1.09039,1.61,-2.94,0.35,22.0075,-46.2755,-23.024,1014.8
15704,0.215208,9.78957,1.07604,1.96,-3.29,0.28,21.8332,-47.139,-22.0339,1014.8
15710,0.172166,9.78001,1.01865,1.75,-3.08,-0.21,22.3271,-46.7073,-22.0044,1014.77
15716,0.215208,9.79436,1.09039,1.26,-3.64,-0.14,22.5015,-46.7381,-23.4081,1014.77
15722,0.229555,9.78001,1.07604,1.82,-4.13,-17.64,22.0366,-46.6764,-23.0092,1014.77
15728,0.253467,9.79914,1.04256,1.68,-3.08,0,22.3852,-47.4166,-22.6989,1014.8
15734,0.215208,9.79914,1.06648,1.96,-3.71,0,22.2981,-46.9231,-23.3638,1014.8
15740,0.224773,9.77044,1.07126,1.4,-3.22,-0.42,22.4724,-47.1082,-23.0535,1014.79
15746,0.224773,9.78001,1.09039,1.68,-3.71,-0.63,22.7049,-47.1082,-23.9992,1014.79
15752,0.210426,9.77044,1.10473,1.61,-3.64,-0.14,22.1818,-47.139,-23.4672,1014.79
15758,0.148254,9.76566,1.10952,2.03,-3.22,-0.14,22.0947,-46.8615,-22.7875,1014.79
15764,0.181731,9.77044,1.13343,1.61,-2.94,-0.35,21.9203,-46.7689,-23.5264,1014.78
15770,0.205643,9.76566,1.0856,1.82,-3.29,-0.42,21.9785,-46.1521,-23.1274,1014.78
15776,0.200861,9.74175,1.09039,2.1,-3.5,0,21.3101,-46.1521,-22.7875,1014.78
15782,0.162602,9.77523,1.09995,1.54,-3.08,-0.21,22.5015,-46.183,-22.6693,1014.75
15788,0.162602,9.75131,1.08082,1.96,-3.5,-0.21,21.5426,-45.7821,-22.8171,1014.75
15794,0.200861,9.78001,1.07604,1.82,-3.64,-0.07,22.3271,-46.9848,-23.4377,1014.79
15800,0.186514,9.77523,1.09039,1.33,-3.29,0.14,20.9324,-47.2932,-23.6298,1014.79
15806,0.210426,9.75131,1.07126,2.03,-3.57,0.14,21.4554,-45.9671,-23.0831,1014.8
15812,0.148254,9.78001,1.10952,1.82,-3.29,0.14,22.5305,-45.7821,-21.4429,1014.8
15818,0.215208,9.77044,1.07604,1.68,-3.5,-0.07,21.6588,-46.9848,-23.2604,1014.81
15824,0.224773,9.79914,1.11908,2.1,-3.57,0.21,22.2981,-47.0773,-22.2408,1014.81
15830,0.243902,9.77044,1.14299,1.96,-3.43,-0.14,21.9785,-46.6456,-21.4429,1014.81
15836,0.243902,9.8087,1.07604,1.82,-3.64,-0.56,21.1939,-46.4914,-23.1126,1014.8
15842,0.243902,9.80392,1.0856,1.75,-3.5,-0.28,22.0947,-46.6764,-22.4181,1014.8
15848,0.196078,9.78479,1.07604,1.54,-2.8,-0.14,22.7339,-46.3372,-22.093,1014.8
15854,0.229555,9.81827,1.1143,1.75,-3.15,-0.7,22.8502,-46.5531,-22.5807,1014.8
15860,0.162602,9.73218,1.10473,1.82,-3.64,-0.07,22.3562,-46.8306,-22.0487,1014.78
15866,0.191296,9.7274,1.09039,1.82,-3.57,0,22.24,-46.5531,-22.4772,1014.78
15872,0.196078,9.77044,1.09039,1.96,-3.78,0,22.1237,-46.9231,-23.0535,1014.78
15878,0.215208,9.7561,1.04735,1.89,-3.08,-0.28,22.1237,-46.7998,-23.349,1014.78
15884,0.162602,9.76088,1.09995,2.1,-3.29,0.21,21.5135,-46.8923,-24.2947,1014.79
15890,0.181731,9.7561,1.06648,2.1,-3.57,0.14,21.6879,-46.5222,-22.758,1014.79
15896,0.186514,9.78957,1.09995,1.89,-3.64,0.21,22.2109,-46.7998,-23.6593,1014.79
15902,0.191296,9.74653,1.09517,2.1,-3.78,0.35,21.9785,-47.7866,-24.2061,1014.81
15908,0.21999,9.79436,1.07126,1.68,-3.64,0.28,21.9785,-46.3989,-23.0092,1014.81
15914,0.224773,9.7561,1.09517,2.31,-3.71,0.07,22.0656,-47.1082,-23.8662,1014.81
15920,0.186514,9.76088,1.10473,2.52,-3.5,0.21,22.1818,-46.7381,-23.482,1014.81
15926,0.224773,9.78001,1.1143,1.96,-3.08,0.28,22.1818,-45.9363,-23.4081,1014.78
15932,0.243902,9.79914,1.07604,2.17,-3.5,0.07,20.9615,-46.8615,-22.6693,1014.78
15938,0.277379,9.79914,1.0856,1.96,-3.22,0.21,21.5426,-46.4914,-23.1717,1014.82
15944,0.215208,9.79436,1.09517,2.31,-3.36,-0.14,21.9494,-46.5839,-22.2113,1014.82
15950,0.186514,9.76566,1.09517,2.38,-3.29,0,22.1818,-47.324,-22.891,1014.82
15956,0.229555,9.77523,1.07604,2.17,-3.22,0,22.0366,-46.4914,-22.7137,1014.78
15962,0.224773,9.73697,1.11908,1.82,-3.43,-0.56,21.6007,-46.4605,-23.6298,1014.78
15968,0.205643,9.77523,1.06648,2.38,-3.64,-0.35,22.7049,-46.3372,-23.1422,1014.81
15974,0.210426,9.8087,1.09517,2.17,-3.5,-0.21,21.9203,-47.0157,-22.4625,1014.81
15980,0.186514,9.79436,1.10952,2.1,-3.43,0.35,21.4264,-46.0596,-22.9205,1014.81
15986,0.148254,9.76566,1.07126,1.96,-3.36,-0.14,22.1237,-46.4605,-23.4377,1014.81
15992,0.200861,9.82305,1.05213,1.89,-3.08,-0.28,22.0656,-46.5531,-23.0092,1014.8
15998,0.172166,9.82305,1.05213,1.75,-3.22,-0.35,21.4554,-46.8615,-23.2308,1014.8
16004,0.21999,9.71784,1.10952,2.03,-3.22,0,21.746,-47.0465,-22.0783,1014.8
16010,0.196078,9.7561,1.08082,2.17,-3.99,0,21.3683,-46.368,-22.9353,1014.8
16016,0.133907,9.69392,1.18125,2.66,-3.29,0.56,21.746,-47.2624,-23.1569,1014.8
16022,0.172166,9.78001,1.08082,2.24,-3.57,0.14,22.2981,-46.6764,-23.0535,1014.81
16028,0.253467,9.7561,1.04735,2.52,-3.71,0.28,22.0366,-46.9848,-23.6741,1014.81
16034,0.21999,9.76088,1.07604,2.24,-3.78,0.49,22.1818,-47.0773,-24.6494,1014.8
16040,0.243902,9.78479,1.08082,2.17,-3.43,0.21,21.9494,-47.2624,-23.748,1014.8
16046,0.263032,9.80392,1.07604,1.96,-3.22,0,22.7339,-46.7073,-23.0978,1014.78
16052,0.282162,9.81349,1.05691,2.03,-3.36,0,21.6588,-46.8306,-23.2899,1014.78
16058,0.191296,9.77523,1.12386,1.75,-3.43,0,22.0656,-46.1521,-23.8219,1014.77
16064,0.200861,9.76566,1.11908,1.82,-3.85,-0.42,22.0366,-46.8306,-24.2652,1014.77
16070,0.248685,9.76566,1.10473,1.68,-3.15,-0.49,21.6007,-46.2138,-23.6741,1014.77
16076,0.21999,9.73697,1.09995,2.1,-3.15,-0.07,22.269,-46.2755,-23.9253,1014.78
16082,0.167384,9.78957,1.07126,1.75,-3.15,-0.14,21.9203,-45.9671,-23.4377,1014.78
16088,0.215208,9.76566,1.1143,1.47,-3.15,0.14,21.5717,-46.7689,-22.9353,1014.79
16094,0.224773,9.7561,1.09039,2.45,-3.85,-0.49,21.5426,-47.2007,-23.9992,1014.79
16100,0.191296,9.76088,1.09995,1.68,-2.94,-0.49,21.223,-46.6764,-23.6741,1014.8
16106,0.215208,9.77044,1.10952,1.82,-3.15,0.07,22.1818,-47.5091,-24.0879,1014.8
16112,0.181731,9.76088,1.07604,2.17,-3.92,0,21.8622,-47.0773,-23.482,1014.82
16118,0.215208,9.78001,1.10952,1.96,-3.15,0.28,20.9324,-46.8615,-23.1717,1014.82
16124,0.215208,9.79436,1.06169,1.82,-3.15,0.07,22.3852,-47.3857,-22.4772,1014.82
16130,0.25825,9.79914,1.0856,2.17,-3.36,-0.07,21.6007,-46.8615,-22.6398,1014.78
16136,0.224773,9.75131,1.06169,1.75,-3.71,0.14,21.9785,-47.4782,-23.7332,1014.78
16142,0.263032,9.76566,1.10952,1.96,-3.43,-0.21,22.0656,-46.6147,-23.4672,1014.79
16148,0.282162,9.77523,1.08082,1.96,-3.29,-0.49,22.1528,-46.4914,-23.2013,1014.79
16154,0.267814,9.82783,1.07604,1.33,-3.08,-0.21,21.6879,-47.139,-22.2408,1014.78
16160,0.205643,9.76566,1.0856,2.03,-3.43,-0.63,21.3973,-46.5222,-22.9648,1014.78
16166,0.181731,9.76566,1.09517,1.82,-3.22,-0.63,21.9785,-46.5222,-23.7628,1014.77
16172,0.248685,9.76088,1.1143,1.61,-3.36,-0.07,21.0777,-47.0157,-22.0783,1014.77
16178,0.253467,9.76088,1.12865,1.75,-3.29,-0.77,21.2811,-46.6456,-23.0683,1014.77
16184,0.186514,9.77523,1.1143,1.96,-3.36,-0.35,21.7169,-46.4914,-23.216,1014.8
16190,0.176949,9.7561,1.09517,1.54,-3.57,-0.7,22.2109,-47.2007,-22.0783,1014.8
16196,0.181731,9.74175,1.12865,2.17,-3.78,-0.21,23.0245,-46.9848,-23.216,1014.78
16202,0.205643,9.75131,1.07126,2.1,-3.64,-0.21,21.746,-46.6147,-21.9896,1014.78
16208,0.229555,9.77523,1.09039,1.82,-3.64,-0.42,22.3852,-47.0465,-23.6446,1014.79
16214,0.205643,9.75131,1.07604,2.31,-3.64,-0.28,21.7169,-47.2932,-23.3786,1014.79
16220,0.243902,9.77044,1.07126,1.96,-3.71,0.07,22.9664,-47.2315,-22.8023,1014.79
16226,0.191296,9.81827,1.08082,2.03,-3.64,0.28,21.7751,-46.6147,-22.5954,1014.79
16232,0.186514,9.77044,1.0856,2.03,-3.78,-0.56,22.5305,-46.954,-22.9501,1014.79
16238,0.200861,9.78479,1.1143,2.24,-3.64,-0.14,22.2109,-46.7381,-23.6446,1014.79
16244,0.191296,9.76566,1.0856,2.03,-4.27,0.49,21.5717,-46.7689,-22.8762,1014.79
16250,0.205643,9.77523,1.10473,1.61,-3.64,0.07,21.4554,-46.7689,-22.2556,1014.79
16256,0.23912,9.77044,1.07126,2.38,-3.36,-0.28,21.746,-46.9848,-22.5511,1014.79
16262,0.224773,9.82305,1.10473,2.03,-3.29,-0.07,22.4143,-47.0157,-23.2604,1014.78
16268,0.234338,9.78957,1.09039,2.1,-3.5,-0.14,21.7169,-47.1082,-22.492,1014.78
16274,0.263032,9.78001,1.10473,1.89,-3.57,-0.21,22.0075,-46.6456,-23.3638,1014.79
16280,0.263032,9.77523,1.10473,1.82,-3.36,-0.21,21.5135,-46.7689,-22.3295,1014.79
16286,0.181731,9.78479,1.09517,1.61,-2.87,-0.56,21.8041,-46.7073,-22.1817,1014.77
16292,0.162602,9.8087,1.12386,2.03,-3.08,-0.42,22.9664,-47.0465,-22.1226,1014.77
16298,0.181731,9.78957,1.1143,1.75,-3.43,0.07,21.6298,-46.7998,-22.2704,1014.77
16304,0.186514,9.78001,1.10473,2.17,-3.5,-0.28,21.7169,-46.3989,-21.8714,1014.78
16310,0.167384,9.77523,1.10473,1.75,-3.29,-0.7,22.0656,-46.2447,-22.9944,1014.78
16316,0.157819,9.80392,1.06648,1.61,-3.36,-0.35,20.6709,-47.2624,-22.3738,1014.81
16322,0.172166,9.74175,1.0856,1.89,-3.57,0.42,21.7169,-47.139,-23.1274,1014.81
16328,0.200861,9.7561,1.08082,1.89,-3.85,0,21.6007,-47.91,-22.9205,1014.81
16334,0.200861,9.7274,1.11908,1.75,-3.99,-0.49,22.0947,-47.324,-22.7432,1014.81
16340,0.172166,9.76088,1.0856,1.89,-3.5,-0.07,22.0947,-46.7073,-22.8319,1014.81
16346,0.186514,9.7561,1.09517,1.54,-3.5,-0.21,22.2981,-46.9231,-22.492,1014.81
16352,0.191296,9.77044,1.10473,2.03,-3.78,0.63,22.24,-46.6456,-23.2013,1014.81
16358,0.205643,9.78001,1.07604,1.96,-3.99,0.42,22.1818,-47.1698,-23.3786,1014.79
16364,0.224773,9.7561,1.10952,1.96,-3.29,-0.35,22.792,-46.368,-22.3295,1014.79
16370,0.25825,9.78479,1.09517,1.96,-3.36,-0.07,22.0075,-46.5531,-22.6545,1014.79
16376,0.234338,9.79436,1.09039,2.03,-4.06,-0.07,22.4434,-46.3063,-23.5411,1014.79
16382,0.215208,9.76566,1.08082,2.1,-3.57,0.35,22.24,-46.6764,-21.5759,1014.8
16388,0.205643,9.76566,1.09039,1.82,-3.01,0,21.8041,-47.5708,-22.625,1014.8
16394,0.25825,9.78479,1.09039,1.75,-3.43,0.07,22.0366,-46.5531,-22.2851,1014.79
16400,0.224773,9.77523,1.09517,2.17,-3.85,-0.35,22.0656,-46.7073,-22.3738,1014.79
16406,0.210426,9.78479,1.10473,2.03,-3.15,-0.14,22.2981,-46.7073,-22.1374,1014.79
16412,0.196078,9.77044,1.06648,1.4,-2.94,0.21,21.9494,-46.368,-23.0831,1014.79
16418,0.224773,9.78479,1.08082,2.24,-3.64,-0.14,22.5305,-47.1082,-23.3934,1014.79
16424,0.196078,9.75131,1.10952,1.96,-3.36,-0.14,22.5596,-47.2007,-22.3147,1014.78
16430,0.205643,9.7561,1.11908,1.96,-3.43,-0.14,22.0947,-47.2007,-22.7284,1014.78
16436,0.172166,9.7561,1.09517,1.96,-3.57,-0.07,22.3562,-47.2007,-22.3147,1014.82
16442,0.181731,9.77044,1.09517,2.31,-3.92,-0.49,21.6007,-47.1698,-23.0683,1014.82
16448,0.191296,9.7561,1.11908,2.24,-3.85,-0.07,21.5717,-47.7558,-22.9648,1014.78
16454,0.176949,9.78001,1.10952,2.1,-3.64,0.28,21.5717,-46.4605,-22.2113,1014.78
16460,0.210426,9.77523,1.09039,2.1,-3.64,-0.07,22.0656,-47.0773,-22.492,1014.78
16466,0.21999,9.76566,1.09039,2.1,-3.43,0.35,21.9203,-47.2007,-21.5168,1014.78
16472,0.215208,9.77523,1.09039,2.1,-3.22,0.63,21.252,-46.2755,-22.2556,1014.78
16478,0.23912,9.78479,1.07604,2.03,-3.15,0.49,22.0947,-47.2624,-23.4081,1014.75
16484,0.253467,9.79436,1.0856,2.38,-3.71,0.07,21.9785,-46.2138,-22.7284,1014.75
16490,0.25825,9.76088,1.10952,1.89,-3.64,-0.21,21.7169,-46.8615,-23.9105,1014.81
16496,0.253467,9.8087,1.08082,2.1,-3.85,-0.49,22.269,-46.1213,-22.093,1014.81
16502,0.277379,9.79914,1.0856,2.1,-3.15,-0.28,21.9203,-46.8615,-22.5511,1014.81
16508,0.186514,9.80392,1.0856,1.96,-2.94,-0.7,21.8622,-46.7381,-23.0535,1014.81
16514,0.205643,9.79914,1.09517,2.03,-3.64,-0.49,21.6588,-46.954,-23.024,1014.77
16520,0.186514,9.7561,1.13821,2.24,-3.64,-0.84,22.7049,-46.9848,-23.0535,1014.77
16526,0.23912,9.74653,1.12865,2.17,-3.15,-0.42,21.8913,-46.7689,-23.8219,1014.77
16532,0.224773,9.78957,1.06648,1.96,-3.01,0.28,21.6879,-46.8306,-23.0831,1014.81
16538,0.186514,9.81827,1.08082,2.03,-3.92,-0.42,21.6879,-46.8923,-21.8418,1014.81
16544,0.143472,9.7274,1.14299,1.82,-3.36,-0.42,22.0947,-47.139,-22.6989,1014.82
16550,0.124342,9.71784,1.14778,2.45,-3.78,-0.21,22.0366,-46.7689,-22.9796,1014.82
16556,0.205643,9.74175,1.1143,2.38,-3.57,0.07,21.5717,-46.6456,-22.8023,1014.78
16562,0.167384,9.71305,1.09039,2.31,-3.43,0.28,21.2811,-47.0773,-22.0487,1014.78
16568,0.153037,9.79436,1.11908,2.03,-3.71,0.14,22.6468,-46.4605,-22.6841,1014.77
16574,0.21999,9.76088,1.11908,2.17,-3.78,0.28,21.7169,-46.954,-22.9796,1014.77
16580,0.243902,9.81827,1.06169,2.17,-3.57,0,21.8913,-46.954,-22.3442,1014.8
16586,0.234338,9.78957,1.07126,2.1,-3.57,0.21,22.1528,-47.6941,-22.3295,1014.8
16592,0.272597,9.78957,1.04735,2.17,-3.5,0,21.6588,-46.7381,-22.6841,1014.8
16598,0.263032,9.78957,1.05691,2.03,-3.15,0.14,21.8041,-46.5531,-22.3295,1014.79
16604,0.272597,9.79914,1.0856,1.68,-3.22,-0.14,21.7169,-46.4914,-22.5659,1014.79
16610,0.234338,9.82305,1.05213,1.96,-3.64,-0.56,21.4554,-46.3989,-22.5807,1014.78
16616,0.267814,9.79914,1.0856,2.24,-3.22,-0.07,21.223,-46.7998,-22.4625,1014.78
16622,0.23912,9.76088,1.09517,2.03,-3.01,-1.05,21.8041,-47.0773,-23.0535,1014.8
16628,0.215208,9.78001,1.10473,1.96,-3.15,-0.42,22.0366,-46.6456,-23.4672,1014.8
16634,0.234338,9.79914,1.08082,1.75,-3.64,-0.49,21.6588,-46.5531,-22.9944,1014.79
16640,0.191296,9.76088,1.07126,1.89,-3.57,-0.56,21.9785,-46.5531,-22.7875,1014.79
16646,0.148254,9.77523,1.0856,1.89,-3.08,-0.49,22.269,-46.6147,-22.4181,1014.79
16652,0.196078,9.80392,1.06169,1.47,-3.5,-0.21,22.0366,-45.8437,-22.8023,1014.82
16658,0.186514,9.74653,1.15256,1.82,-3.92,-0.21,22.24,-46.5222,-23.6741,1014.82
16664,0.224773,9.76566,1.0856,2.24,-3.92,-0.35,22.0366,-45.8437,-21.2065,1014.78
16670,0.196078,9.7561,1.10473,1.89,-3.36,-0.21,22.4724,-45.9671,-22.3295,1014.78
16676,0.200861,9.74653,1.12386,2.03,-3.71,0.28,22.6758,-46.2447,-22.3147,1014.82
16682,0.191296,9.76088,1.11908,2.03,-3.78,-17.64,22.1237,-46.2447,-22.6989,1014.82
16688,0.172166,9.78001,1.11908,2.24,-3.85,0.07,21.8041,-46.2138,-23.1865,1014.79
16694,0.296509,9.77044,1.06169,2.1,-3.5,0,21.1358,-45.9671,-22.8319,1014.79
16700,0.286944,9.78001,1.09995,2.31,-3.57,-0.42,21.4554,-46.0288,-24.3538,1014.79
16706,0.263032,9.82783,1.06169,2.31,-3.36,-0.35,22.2109,-46.4297,-23.5411,1014.79
16712,0.253467,9.8087,1.05691,1.82,-2.87,-0.56,22.5305,-45.9363,-23.9549,1014.79
16718,0.267814,9.79436,1.10473,2.1,-3.5,-0.77,22.1818,-46.5839,-23.6446,1014.79
16724,0.23912,9.79436,1.08082,1.89,-3.01,-0.63,21.4264,-46.7073,-23.0683,1014.79
16730,0.23912,9.79436,1.13821,2.17,-3.57,-0.84,21.8622,-47.324,-22.6841,1014.79
16736,0.229555,9.82305,1.0856,1.82,-3.57,-1.47,21.5717,-46.7998,-22.8466,1014.79
16742,0.191296,9.81349,1.07126,1.68,-3.01,-0.77,22.3562,-46.4297,-23.8958,1014.79
16748,0.143472,9.77523,1.07604,1.61,-3.57,-1.05,21.6588,-46.3989,-22.2851,1014.79
16754,0.148254,9.7274,1.18604,2.17,-3.36,-0.35,22.2981,-45.5662,-22.5511,1014.8
16760,0.176949,9.76566,1.13343,2.17,-3.85,-0.63,22.3852,-46.7998,-23.6298,1014.8
16766,0.181731,9.76088,1.13821,2.1,-3.5,-0.7,22.0366,-46.4914,-22.2408,1014.8
16772,0.162602,9.74653,1.13343,2.1,-3.29,0.35,21.9785,-46.8923,-22.9648,1014.8
16778,0.186514,9.74175,1.09039,1.75,-3.43,0.42,21.6879,-46.0596,-22.7728,1014.8
16784,0.133907,9.73697,1.1143,2.24,-3.92,0,22.6758,-47.0465,-22.226,1014.8
16790,0.205643,9.75131,1.0856,2.52,-3.64,-0.21,22.0366,-46.6147,-23.0092,1014.8
16796,0.176949,9.77044,1.06169,2.24,-3.85,0,21.7169,-47.0465,-22.7432,1014.77
16802,0.243902,9.75131,1.08082,1.89,-3.43,0.63,21.8041,-46.6147,-22.1078,1014.77
16808,0.229555,9.8087,1.03778,2.52,-3.57,0,21.9203,-47.1698,-22.9648,1014.8
16814,0.25825,9.77523,1.09517,1.61,-3.15,-0.21,22.6758,-46.6147,-23.3343,1014.8
16820,0.23912,9.79914,1.07604,1.68,-3.08,-0.21,22.4724,-46.6764,-22.3147,1014.8
16826,0.286944,9.82783,1.06648,1.89,-3.64,-0.56,22.0947,-46.7073,-22.9057,1014.77
16832,0.253467,9.81827,1.09995,1.61,-3.43,-0.63,21.5717,-46.8306,-22.9796,1014.77
16838,0.224773,9.79914,1.0856,1.82,-3.29,-0.49,22.4434,-46.7381,-22.7137,1014.8
16844,0.167384,9.78001,1.09517,1.75,-2.87,-0.7,21.9785,-46.7381,-22.3442,1014.8
16850,0.23912,9.76566,1.12386,1.89,-3.36,-0.98,22.3271,-47.3857,-22.758,1014.8
16856,0.191296,9.78957,1.09995,2.24,-3.43,-0.91,22.1528,-47.0773,-22.359,1014.8
16862,0.181731,9.77523,1.08082,1.89,-3.29,-0.77,21.9203,-46.7381,-21.4133,1014.81
16868,0.148254,9.71305,1.13343,1.75,-3.57,-0.56,22.24,-46.6456,-23.216,1014.81
16874,0.172166,9.78957,1.05691,1.61,-3.57,-0.42,21.5135,-46.4914,-21.502,1014.81
16880,0.200861,9.79914,1.07604,2.03,-3.5,-0.56,21.6588,-46.954,-22.8171,1014.78
16886,0.167384,9.74653,1.09039,1.68,-3.22,-0.35,22.269,-46.0288,-22.8171,1014.78
16892,0.153037,9.75131,1.09995,1.68,-2.87,0.07,21.9203,-46.0596,-23.482,1014.79
16898,0.186514,9.7561,1.10473,1.68,-3.29,-0.49,21.9494,-46.954,-21.4577,1014.79
16904,0.157819,9.74653,1.12386,2.31,-4.2,-0.35,21.7169,-46.5839,-23.1126,1014.81
16910,0.267814,9.78479,1.07126,1.89,-3.43,0.35,21.9494,-46.6764,-21.502,1014.81
16916,0.234338,9.78479,1.09039,1.89,-3.57,-0.21,22.1237,-46.3989,-21.5168,1014.82
16922,0.25825,9.78957,1.1143,2.03,-3.43,-0.63,22.1237,-46.954,-22.2704,1014.82
16928,0.277379,9.81827,1.09039,2.1,-3.22,-0.49,21.9494,-46.8615,-21.9453,1014.77
16934,0.286944,9.84218,1.05691,1.89,-3.08,-0.84,21.6588,-46.8615,-21.768,1014.77
16940,0.277379,9.8087,1.1143,1.82,-2.87,-1.89,21.9203,-46.9848,-22.7432,1014.77
16946,0.13869,9.82305,1.07604,1.4,-3.29,-1.47,21.8041,-47.4166,-22.9501,1014.78
16952,0.186514,9.78001,1.09517,1.82,-3.01,-0.77,22.1818,-46.4914,-23.5116,1014.78
16958,0.25825,9.78957,1.10473,1.19,-3.29,-1.33,21.6298,-46.5839,-22.7728,1014.77
16964,0.23912,9.78479,1.07604,1.61,-3.08,-1.19,22.2981,-46.7689,-22.891,1014.77
16970,0.148254,9.80392,1.0856,1.33,-3.01,-1.82,21.9785,-46.8615,-22.3738,1014.79
16976,0.133907,9.71784,1.15256,1.68,-3.71,-1.33,22.2109,-47.0157,-22.8171,1014.79
16982,0.176949,9.74653,1.14299,1.82,-3.08,-1.05,21.5135,-47.4782,-22.5068,1014.79
16988,0.196078,9.74653,1.11908,2.1,-2.66,-0.91,22.4143,-46.6147,-22.8319,1014.79
16994,0.205643,9.78957,1.08082,1.33,-3.22,-1.19,21.8913,-46.7073,-22.0044,1014.79
17000,0.153037,9.78957,1.09995,1.96,-3.78,-0.84,22.1528,-46.3063,-22.8762,1014.8
17006,0.143472,9.78479,1.1143,1.33,-3.15,-0.77,21.9203,-46.5531,-22.4625,1014.8
17012,0.109995,9.71305,1.16212,1.75,-2.94,-0.28,21.7169,-46.1213,-22.8466,1014.77
17018,0.133907,9.73218,1.15256,2.1,-3.15,-0.21,21.3392,-46.2755,-23.2013,1014.77
17024,0.181731,9.74175,1.10952,2.31,-3.29,17.43,21.4554,-47.2624,-22.7137,1014.83
17030,0.205643,9.78001,1.04256,1.89,-3.43,-0.42,22.4143,-46.5531,-22.1521,1014.83
17036,0.23912,9.79914,1.08082,2.1,-3.43,-0.35,22.4434,-47.0465,-23.7776,1014.79
17042,0.21999,9.81349,1.0856,1.75,-3.43,-0.56,22.3852,-47.1698,-23.2899,1014.79
17048,0.253467,9.82305,1.06648,1.68,-2.94,-0.28,22.2109,-46.6764,-22.3442,1014.79
17054,0.23912,9.82783,1.06169,1.89,-3.57,-1.05,22.6468,-46.7689,-23.2456,1014.78
17060,0.23912,9.84696,1.07126,1.96,-3.22,-0.84,21.8041,-46.4297,-22.492,1014.78
17066,0.215208,9.85174,1.05691,1.47,-3.29,-1.12,21.1358,-47.0157,-22.0783,1014.8
17072,0.167384,9.76088,1.09517,1.75,-3.08,-0.7,22.0366,-45.9363,-21.5315,1014.8
17078,0.13869,9.76088,1.12865,1.89,-3.22,-0.77,22.5015,-46.0596,-22.0635,1014.76
17084,0.186514,9.77044,1.11908,1.19,-3.08,-0.91,22.2981,-46.183,-22.1374,1014.76
17090,0.196078,9.76566,1.14299,1.96,-3.57,-0.63,21.6007,-46.5222,-22.8319,1014.79
17096,0.172166,9.76566,1.09995,1.82,-3.29,-1.05,22.0656,-46.7689,-22.5068,1014.79
17102,0.143472,9.77044,1.05691,1.33,-3.29,-0.56,21.9494,-46.7381,-22.625,1014.8
17108,0.162602,9.75131,1.13343,1.96,-3.57,-1.19,21.6298,-46.6147,-22.2408,1014.8
17114,0.148254,9.77044,1.14299,1.68,-3.29,-0.91,21.6298,-47.1082,-22.7432,1014.8
17120,0.13869,9.73218,1.14778,2.03,-3.36,-0.21,21.6298,-46.7689,-22.2999,1014.8
17126,0.124342,9.76566,1.1143,1.96,-3.5,-0.35,22.1528,-46.7381,-22.1521,1014.8
17132,0.176949,9.73697,1.13343,2.38,-3.57,-0.56,21.0777,-46.6147,-22.6989,1014.8
17138,0.196078,9.7561,1.08082,2.03,-3.01,-0.35,21.8622,-47.139,-22.7728,1014.8
17144,0.196078,9.78957,1.12865,2.24,-3.64,-0.07,21.6879,-46.6764,-22.9648,1014.77
17150,0.267814,9.82783,1.04735,2.59,-2.87,-0.7,21.4264,-46.5531,-23.5411,1014.77
17156,0.210426,9.86131,1.03778,1.82,-3.22,-0.98,22.0656,-46.8923,-23.6446,1014.81
17162,0.162602,9.81349,1.06648,2.03,-3.15,-1.12,21.9203,-46.4605,-22.3886,1014.81
17168,0.224773,9.84696,1.04735,1.4,-3.29,-0.91,21.8913,-46.6764,-24.0731,1014.81
17174,0.186514,9.78957,1.10473,1.4,-2.73,-0.84,21.0777,-46.8306,-23.2752,1014.76
17180,0.172166,9.79436,1.09995,1.61,-2.66,-0.98,21.8041,-46.2447,-22.9353,1014.76
17186,0.143472,9.73697,1.15734,1.82,-3.36,-0.98,21.4264,-46.3063,-22.8319,1014.83
17192,0.109995,9.73218,1.17647,1.75,-3.29,-0.63,21.5426,-46.6147,-22.2113,1014.83
17198,0.153037,9.76566,1.13821,2.24,-3.43,-0.7,21.6298,-46.4914,-22.7137,1014.82
17204,0.129125,9.7561,1.16212,1.4,-2.8,-0.35,21.1649,-46.6456,-23.2604,1014.82
17210,0.153037,9.78001,1.09517,2.03,-3.57,-0.42,22.0947,-46.4297,-22.0192,1014.8
17216,0.143472,9.74175,1.0856,2.03,-3.64,-0.35,21.2811,-46.4605,-23.0535,1014.8
17222,0.124342,9.76566,1.14299,2.17,-3.43,0,22.1818,-46.4605,-24.0435,1014.8
17228,0.129125,9.74653,1.10952,2.1,-3.78,-0.21,22.1528,-47.1698,-22.7284,1014.81
17234,0.153037,9.75131,1.11908,2.1,-4.06,0.07,20.9905,-46.6764,-22.0635,1014.81
17240,0.148254,9.78957,1.0856,2.59,-3.5,0.56,22.1528,-46.2447,-22.226,1014.78
17246,0.210426,9.8087,1.06648,2.24,-3.71,-0.21,22.4434,-46.1213,-22.6398,1014.78
17252,0.243902,9.82783,1.02343,2.1,-3.78,-0.49,22.0366,-46.4605,-23.482,1014.78
17258,0.25825,9.85174,1.05213,1.75,-3.36,-0.21,21.8332,-47.1698,-22.9057,1014.78
17264,0.234338,9.82783,1.05691,1.47,-3.36,-0.63,21.5717,-47.0773,-22.5659,1014.8
17270,0.210426,9.79914,1.0856,1.54,-3.36,-1.26,21.5717,-46.9231,-23.0978,1014.8
17276,0.167384,9.78479,1.08082,1.68,-3.22,-0.91,21.8622,-46.6456,-22.4033,1014.78
17282,0.0669536,9.74175,1.26255,2.03,-3.29,-1.12,22.0366,-46.3989,-22.8319,1014.78
17288,0.215208,9.78957,1.08082,1.89,-2.66,-1.12,21.7169,-46.3372,-23.2604,1014.78
17294,0.167384,9.80392,1.09039,1.96,-2.94,-1.19,21.4845,-46.4914,-23.2752,1014.77
17300,0.133907,9.7561,1.09995,2.03,-2.73,-1.12,21.746,-46.954,-23.2752,1014.77
17306,0.133907,9.73218,1.12865,1.96,-3.22,-0.98,22.5305,-47.2624,-22.2556,1014.81
17312,0.10043,9.77044,1.10952,2.38,-3.36,-0.77,22.3852,-47.139,-21.9453,1014.81
17318,0.13869,9.77523,1.07604,2.1,-3.57,-0.28,22.1818,-46.4605,-22.0192,1014.8
17324,0.0669536,9.7561,1.06648,1.89,-3.43,-0.35,21.7751,-46.6456,-23.4081,1014.8
17330,0.11956,9.76566,1.1143,2.17,-3.57,-0.28,21.9203,-46.2138,-22.5807,1014.79
17336,0.133907,9.7561,1.08082,2.17,-3.57,-0.42,21.5426,-46.8923,-22.1374,1014.79
17342,0.133907,9.76088,1.06169,2.17,-3.5,-0.07,21.6007,-46.7073,-22.226,1014.79
17348,0.148254,9.76566,1.09517,1.82,-3.36,0.07,21.3973,-47.0773,-22.3442,1014.77
17354,0.200861,9.78001,1.08082,2.17,-3.71,0,22.1818,-46.8306,-22.5511,1014.77
17360,0.224773,9.82305,1.07126,1.75,-3.71,-0.07,21.4554,-47.2007,-23.5116,1014.82
17366,0.234338,9.78957,1.0856,1.96,-3.22,17.22,21.8913,-46.7689,-23.216,1014.82
17372,0.196078,9.8374,1.12386,1.75,-3.15,-0.56,22.0366,-46.954,-22.2704,1014.83
17378,0.253467,9.79914,1.09995,1.82,-3.22,-1.05,21.9494,-46.5839,-22.891,1014.83
17384,0.186514,9.81827,1.06648,1.54,-2.94,-0.63,22.0947,-47.3857,-22.758,1014.78
17390,0.129125,9.77523,1.13343,1.82,-3.15,-0.63,21.8332,-46.7998,-22.7284,1014.78
17396,0.143472,9.76088,1.16212,2.24,-3.5,-1.12,21.7169,-47.4474,-23.2308,1014.78
17402,0.162602,9.74653,1.15256,1.75,-3.5,-0.84,22.1237,-46.954,-22.8466,1014.82
17408,0.162602,9.78001,1.11908,2.24,-2.94,-0.42,21.8913,-47.0465,-22.4477,1014.82
17414,0.10043,9.77044,1.0856,2.38,-3.5,-0.91,22.1528,-47.1698,-21.9601,1014.79
17420,0.124342,9.76566,1.09995,1.96,-3.57,-0.35,22.1818,-46.4605,-22.1669,1014.79
17426,0.13869,9.77523,1.09995,2.17,-3.71,-0.21,21.9494,-47.0773,-22.5807,1014.8
17432,0.148254,9.72262,1.06648,2.17,-3.5,-0.07,22.2109,-46.6147,-23.6298,1014.8
17438,0.133907,9.75131,1.12386,1.96,-3.22,0.28,21.3973,-47.1698,-24.1913,1014.82
17444,0.109995,9.76088,1.0856,2.38,-3.43,-0.21,22.24,-46.3063,-23.6298,1014.82
17450,0.133907,9.76566,1.10952,2.24,-3.5,0.07,22.269,-46.5222,-22.9057,1014.83
17456,0.153037,9.74653,1.1143,2.31,-3.85,0.14,21.6298,-46.6147,-23.1865,1014.83
17462,0.162602,9.77044,1.10952,2.38,-3.78,0.49,22.0075,-46.5531,-22.9205,1014.83
17468,0.21999,9.78479,1.10473,2.17,-3.08,0.21,21.8622,-46.2138,-23.1717,1014.81
17474,0.224773,9.79914,1.0856,2.1,-3.22,-0.07,22.5596,-47.3857,-22.2113,1014.81
17480,0.148254,9.82305,1.05691,2.03,-3.29,-0.28,21.6588,-46.6147,-21.7975,1014.78
17486,0.210426,9.79914,1.09995,1.96,-3.78,-0.42,23.2279,-46.8923,-21.9009,1014.78
17492,0.229555,9.82783,1.11908,1.75,-3.71,-0.77,22.6468,-46.7689,-22.9944,1014.82
17498,0.162602,9.82305,1.10473,1.89,-3.43,-0.28,21.9494,-47.6941,-22.7137,1014.82
17504,0.13869,9.85174,1.0856,1.89,-3.22,-0.49,22.3562,-47.2315,-22.5216,1014.8
17510,0.133907,9.76566,1.13821,2.24,-3.92,-0.14,22.2981,-46.6764,-22.2556,1014.8
17516,0.167384,9.76088,1.12386,2.31,-3.43,-0.28,22.5015,-46.5531,-22.6398,1014.8
17522,0.153037,9.77044,1.12386,2.1,-3.78,-0.63,21.8622,-46.3989,-22.0635,1014.8
17528,0.11956,9.75131,1.13821,2.66,-3.78,-0.42,21.4554,-46.5839,-21.5168,1014.8
17534,0.124342,9.74653,1.11908,2.45,-3.78,0,22.1818,-47.3857,-22.0635,1014.75
17540,0.143472,9.76566,1.09995,2.8,-3.57,-0.21,21.8332,-46.4914,-22.758,1014.75
17546,0.153037,9.7561,1.06648,2.45,-3.64,-0.21,21.8332,-46.7689,-22.4625,1014.8
17552,0.124342,9.77044,1.07604,2.1,-3.71,0.35,21.5426,-46.7689,-22.4625,1014.8
17558,0.181731,9.78001,1.07126,2.45,-3.99,0.28,20.8452,-46.9848,-23.0535,1014.79
17564,0.176949,9.79436,1.033,2.1,-4.06,0,21.8041,-46.5222,-22.5659,1014.79
17570,0.229555,9.84696,1.01865,1.96,-3.29,-0.07,21.5717,-46.5222,-22.6398,1014.79
17576,0.200861,9.80392,1.09517,2.03,-3.99,-0.21,22.2981,-46.5222,-23.0683,1014.76
17582,0.191296,9.84218,1.06648,1.61,-3.36,-0.07,22.5015,-46.5531,-22.0192,1014.76
17588,0.243902,9.83261,1.09517,1.89,-2.59,-0.35,22.763,-46.5839,-22.6841,1014.79
17594,0.25825,9.8087,1.08082,1.75,-3.08,-0.98,22.0947,-46.954,-22.359,1014.79
17600,0.191296,9.81349,1.1143,1.12,-3.29,-0.84,22.4143,-46.3063,-21.6793,1014.8
17606,0.176949,9.81349,1.10952,1.82,-3.22,-0.77,22.5015,-46.5222,-22.7728,1014.8
17612,0.148254,9.76566,1.17647,1.4,-3.22,-0.98,21.6298,-46.8923,-22.4181,1014.77
17618,0.0860832,9.73697,1.14778,1.89,-3.71,-0.56,21.7751,-46.5222,-22.0487,1014.77
17624,0.148254,9.77044,1.12386,2.45,-3.5,-0.42,22.0656,-46.6456,-23.3638,1014.79
17630,0.143472,9.73697,1.09995,2.03,-3.57,-0.91,21.8913,-46.7998,-22.3442,1014.79
17636,0.095648,9.78001,1.09517,2.03,-3.29,-0.21,21.6879,-47.0157,-22.8762,1014.79
17642,0.148254,9.76088,1.09995,1.82,-3.43,-0.42,21.5135,-47.4782,-24.7528,1014.81
17648,0.114778,9.77523,1.06648,1.68,-3.36,-0.49,21.4264,-47.0157,-22.7137,1014.81
17654,0.105213,9.78957,1.10952,2.1,-3.43,-0.14,21.746,-47.139,-22.3442,1014.79
17660,0.095648,9.69871,1.17647,2.1,-3.57,-0.14,21.746,-46.4914,-21.0882,1014.79
17666,0.10043,9.75131,1.10952,2.24,-3.78,0,22.269,-47.2007,-22.0339,1014.8
17672,0.191296,9.77523,1.05691,2.45,-3.64,0.28,21.8913,-46.8615,-23.1717,1014.8
17678,0.181731,9.84696,1.033,2.17,-3.64,0.21,22.24,-47.0773,-22.7432,1014.81
17684,0.200861,9.82783,1.04735,1.89,-3.78,-0.49,21.7751,-46.9231,-23.4525,1014.81
17690,0.186514,9.76088,1.10473,1.89,-4.13,-0.28,21.746,-47.2624,-22.1078,1014.81
17696,0.224773,9.78957,1.0856,1.61,-3.64,-0.42,22.2981,-46.8306,-23.5264,1014.81
17702,0.243902,9.80392,1.09517,1.61,-3.43,-0.77,21.6879,-46.9231,-23.024,1014.81
17708,0.224773,9.78479,1.0856,1.26,-3.5,-0.77,21.7169,-46.5531,-23.3343,1014.8
17714,0.205643,9.8087,1.13821,1.47,-3.22,-1.33,21.746,-47.0157,-22.226,1014.8
17720,0.181731,9.78001,1.12865,1.75,-3.36,-1.05,21.9785,-46.7073,-23.1274,1014.81
17726,0.153037,9.78479,1.09517,1.68,-3.08,-0.84,21.5135,-46.2447,-22.9057,1014.81
17732,0.162602,9.83261,1.06648,1.75,-3.08,-1.26,21.6007,-47.2315,-22.5216,1014.79
17738,0.0813008,9.71305,1.15256,1.4,-3.78,-0.91,21.9494,-46.4914,-22.5068,1014.79
17744,0.114778,9.76088,1.09517,1.54,-3.85,-0.98,22.0075,-46.954,-22.5511,1014.79
17750,0.143472,9.70349,1.16212,1.82,-4.2,-0.77,21.3683,-47.0157,-23.5411,1014.77
17756,0.047824,9.69871,1.19082,2.52,-3.78,-0.35,21.5717,-46.2138,-21.8271,1014.77
17762,0.114778,9.71305,1.09995,1.82,-3.78,-0.21,22.2109,-46.6147,-21.7532,1014.78
17768,0.109995,9.73218,1.1143,2.24,-3.64,0.28,21.5717,-47.5091,-22.9796,1014.78
17774,0.095648,9.73697,1.1143,2.45,-3.43,0,22.1818,-46.5839,-21.8566,1014.79
17780,0.133907,9.74653,1.09517,1.89,-3.64,0.35,22.3271,-47.2624,-22.8762,1014.79
17786,0.176949,9.79914,1.07126,1.89,-3.43,0.7,22.5886,-46.7998,-22.5068,1014.78
17792,0.215208,9.83261,1.04256,2.1,-3.92,0.21,21.8622,-46.7998,-23.0978,1014.78
17798,0.210426,9.78957,1.05213,2.03,-3.29,0.14,22.0366,-46.6764,-23.4525,1014.79
17804,0.234338,9.84696,1.02822,2.1,-3.64,-0.42,21.8332,-46.954,-24.014,1014.79
17810,0.263032,9.82783,1.05213,1.4,-3.36,-0.56,21.7751,-46.7689,-22.5068,1014.79
17816,0.196078,9.78479,1.12386,1.54,-3.57,-1.05,21.6879,-47.725,-23.1569,1014.83
17822,0.196078,9.79436,1.16212,1.82,-3.5,-0.77,22.0075,-47.4474,-22.5659,1014.83
17828,0.215208,9.78957,1.16212,1.96,-3.29,-0.91,21.8332,-47.3549,-23.6002,1014.79
17834,0.210426,9.7561,1.10473,1.89,-3.15,-1.05,22.2109,-46.8615,-23.1274,1014.79
17840,0.215208,9.84696,1.033,2.17,-3.29,-1.26,21.5717,-47.324,-22.5363,1014.79
17846,0.047824,9.73697,1.13343,1.33,-2.94,-0.91,21.3683,-46.8615,-22.7137,1014.79
17852,0.0860832,9.71784,1.13821,1.82,-2.52,-0.49,21.6879,-46.5839,-23.216,1014.8
17858,0.129125,9.71305,1.18604,2.38,-3.15,-1.12,21.7751,-46.8923,-22.1669,1014.8
17864,0.0908656,9.73697,1.12865,2.17,-3.43,-0.56,22.0656,-47.3857,-22.1078,1014.8
17870,0.133907,9.74653,1.09995,2.66,-3.5,-0.35,21.9785,-47.2007,-22.8171,1014.81
17876,0.109995,9.77044,1.13343,2.24,-3.29,0.14,21.9203,-46.8923,-22.3886,1014.81
17882,0.071736,9.73697,1.15734,2.24,-2.8,-0.49,22.3852,-47.0773,-23.1569,1014.79
17888,0.0621712,9.73697,1.14299,2.45,-3.15,0,22.24,-46.6764,-22.9944,1014.79
17894,0.124342,9.74653,1.08082,2.8,-3.71,0.84,21.3392,-47.3857,-24.2061,1014.78
17900,0.196078,9.81349,1.033,2.24,-3.57,0.07,22.4143,-47.5091,-23.7037,1014.78
17906,0.200861,9.78479,1.01387,2.45,-3.92,-0.49,22.5596,-47.0465,-23.6298,1014.8
17912,0.191296,9.8087,1.06648,1.82,-3.08,0.21,22.0947,-47.139,-23.1865,1014.8
17918,0.172166,9.8087,1.05691,1.89,-3.29,-0.35,22.5886,-46.4605,-23.4525,1014.77
17924,0.172166,9.85174,1.07126,1.96,-3.29,0.07,22.0075,-46.6147,-22.6545,1014.77
17930,0.224773,9.84218,1.06648,1.19,-3.29,-0.63,21.9785,-47.0157,-22.6841,1014.77
17936,0.200861,9.81349,1.08082,1.4,-3.78,-1.05,21.8913,-46.4914,-22.3886,1014.8
17942,0.109995,9.77523,1.12865,1.19,-3.43,-0.63,21.9494,-46.7381,-21.9305,1014.8
17948,0.10043,9.76566,1.13343,1.96,-3.29,-0.35,22.3852,-47.0773,-23.3786,1014.82
17954,0.0908656,9.7561,1.10952,1.54,-3.57,-1.19,21.8041,-46.954,-22.9944,1014.82
17960,0.095648,9.75131,1.13343,1.54,-3.92,-0.56,21.9203,-46.3989,-21.6941,1014.79
17966,0.124342,9.74175,1.10952,2.03,-2.87,-0.14,22.2981,-47.4474,-21.7827,1014.79
17972,0.095648,9.78001,1.14299,1.89,-3.15,0,21.4554,-46.4914,-22.3886,1014.81
17978,0.11956,9.7561,1.09517,2.1,-3.78,-0.35,22.269,-46.6456,-21.9896,1014.81
17984,0.109995,9.74653,1.1143,2.1,-4.06,17.78,21.6588,-46.8615,-23.5855,1014.81
17990,0.11956,9.74175,1.10473,1.89,-3.78,-0.21,22.269,-47.139,-21.7975,1014.79
17996,0.153037,9.7561,1.12386,2.59,-3.57,0,22.2109,-47.1698,-22.1669,1014.79
18002,0.143472,9.78479,1.09039,1.82,-3.64,0.56,21.8913,-47.0773,-23.5411,1014.79
18008,0.196078,9.78001,1.08082,1.4,-3.57,-0.28,21.0486,-46.3989,-23.1422,1014.79
18014,0.329986,9.86609,1.05691,2.38,-3.08,-0.77,22.269,-46.5839,-23.5559,1014.78
18020,0.21999,9.85174,1.06648,1.61,-2.87,-0.84,22.5305,-47.0773,-23.2604,1014.78
18026,0.196078,9.85653,1.05691,1.33,-3.22,-1.12,22.8792,-46.5222,-23.3343,1014.81
18032,0.172166,9.84218,1.07126,1.26,-3.29,-1.75,21.5426,-45.5045,-22.9057,1014.81
18038,0.205643,9.80392,1.11908,1.12,-2.59,-1.47,22.7339,-46.7381,-22.4477,1014.81
18044,0.143472,9.80392,1.10952,1.05,-2.87,-1.26,21.9494,-46.5839,-22.8466,1014.78
18050,0.0860832,9.71784,1.17169,1.12,-3.29,-1.54,22.2109,-46.368,-23.3343,1014.78
18056,0.10043,9.75131,1.14299,1.19,-3.15,-0.77,22.4434,-46.4605,-22.0783,1014.81
18062,0.0621712,9.70349,1.17169,1.82,-3.29,-1.05,21.9494,-47.2315,-22.5954,1014.81
18068,0.114778,9.77044,1.04256,1.75,-3.36,-1.05,21.4845,-46.4605,-22.093,1014.8
18074,0.105213,9.77523,1.0856,1.33,-3.43,-0.84,22.3852,-46.4605,-22.5659,1014.8
18080,0.0860832,9.7561,1.12865,1.33,-3.78,-0.42,22.0947,-46.5531,-22.1817,1014.82
18086,0.0813008,9.74653,1.12386,1.33,-3.36,-0.56,22.4143,-46.954,-22.4772,1014.82
18092,0.0908656,9.73697,1.09995,1.33,-3.29,-0.28,21.9494,-47.7866,-22.4772,1014.8
18098,0.0621712,9.75131,1.11908,1.68,-3.15,-0.21,22.1818,-46.9848,-22.2408,1014.8
18104,0.11956,9.73218,1.14299,1.68,-3.71,-0.28,22.2981,-47.0465,-22.9205,1014.8
18110,0.13869,9.76566,1.14778,1.75,-3.36,0,21.7751,-46.8923,-22.2408,1014.78
18116,0.162602,9.80392,1.04735,1.47,-3.36,-0.07,22.5015,-47.3549,-22.1226,1014.78
18122,0.224773,9.8087,1.07604,1.54,-3.43,-0.14,22.5886,-46.8615,-21.9601,1014.8
18128,0.162602,9.8374,1.09995,1.61,-3.36,-0.91,22.2981,-46.4914,-22.3886,1014.8
18134,0.157819,9.81827,1.06648,1.47,-3.57,-0.56,23.0536,-47.0465,-22.1226,1014.83
18140,0.13869,9.80392,1.08082,1.26,-3.36,-0.77,21.8332,-47.2624,-21.6497,1014.83
18146,0.13869,9.79914,1.14299,1.33,-3.22,-0.91,21.8041,-46.9231,-23.3934,1014.79
18152,0.105213,9.80392,1.1143,1.19,-3.71,-0.98,22.24,-47.0465,-23.0092,1014.79
18158,0.13869,9.77523,1.13821,1.19,-3.08,-0.77,22.4434,-46.5839,-21.7384,1014.79
18164,0.0621712,9.78479,1.12865,1.26,-3.22,-0.63,22.763,-46.4605,-22.758,1014.77
18170,0.0860832,9.75131,1.15734,1.33,-3.43,-0.77,22.6177,-45.6895,-22.5807,1014.77
18176,0.0813008,9.73697,1.18125,1.82,-3.36,-0.84,22.5015,-45.4428,-22.0635,1014.79
18182,0.0765184,9.74653,1.16691,1.68,-3.08,-0.14,22.5305,-46.2138,-22.7137,1014.79
18188,0.11956,9.77044,1.09039,1.68,-3.29,-0.42,22.7049,-46.7073,-22.3886,1014.77
18194,0.0860832,9.7561,1.10473,1.75,-3.15,0.14,22.269,-46.8306,-21.6054,1014.77
18200,0.0765184,9.77523,1.12865,1.47,-3.36,-0.63,21.7169,-46.4605,-22.6545,1014.76
18206,0.114778,9.7561,1.11908,2.17,-3.99,-0.28,21.4264,-46.7998,-22.6989,1014.76
18212,0.157819,9.7561,1.10473,1.61,-3.15,0.21,22.6177,-46.7689,-22.758,1014.76
18218,0.167384,9.76566,1.14778,1.54,-3.57,-0.21,22.4724,-46.5531,-22.9205,1014.79
18224,0.176949,9.82783,1.09517,1.33,-3.43,-0.07,21.9785,-47.5091,-22.8762,1014.79
18230,0.11956,9.78957,1.12865,2.03,-3.43,-0.21,21.8913,-47.0157,-23.3195,1014.78
18236,0.234338,9.85174,1.05213,1.33,-3.22,-0.84,22.1818,-46.4605,-22.8762,1014.78
18242,0.167384,9.8374,1.10473,1.33,-3.57,-0.7,22.4434,-47.0465,-23.2899,1014.81
18248,0.105213,9.78479,1.11908,1.12,-3.5,-0.77,22.0656,-46.3063,-22.5807,1014.81
18254,0.114778,9.76088,1.17169,1.26,-3.57,-1.19,21.9494,-46.9848,-22.9944,1014.8
18260,0.143472,9.78479,1.14299,1.33,-3.57,-0.84,22.269,-45.6895,-23.3047,1014.8
18266,0.0621712,9.74175,1.15734,1.33,-3.43,-0.42,21.7169,-46.183,-22.6841,1014.81
18272,0.0813008,9.76088,1.18125,1.47,-3.71,-0.21,22.0366,-46.3063,-24.3834,1014.81
18278,0.0813008,9.74653,1.1143,1.89,-3.5,-0.35,21.746,-46.6456,-22.9057,1014.81
18284,0.162602,9.80392,1.0856,1.96,-3.01,-0.49,22.9083,-46.1521,-23.0683,1014.79
18290,0.0382592,9.79914,1.12386,1.12,-3.57,-0.21,21.7169,-46.7073,-21.9748,1014.79
18296,0.10043,9.74175,1.09517,1.61,-3.64,-0.28,22.7049,-47.3549,-22.6545,1014.78
18302,0.071736,9.74653,1.12865,1.4,-3.57,-0.35,22.8211,-46.9848,-23.5855,1014.78
18308,0.095648,9.75131,1.1143,1.54,-3.5,0.35,21.7751,-47.0465,-22.758,1014.79
18314,0.129125,9.73218,1.14299,1.68,-3.57,0.42,22.6468,-46.7689,-23.2456,1014.79
18320,0.11956,9.73697,1.1956,2.03,-3.92,0.14,22.3852,-46.7073,-22.1374,1014.8
18326,0.0669536,9.7274,1.18604,1.89,-3.22,0.14,22.8792,-46.7998,-22.1965,1014.8
18332,0.234338,9.84218,1.0856,1.82,-3.08,0.07,22.3562,-46.5222,-22.1965,1014.8
18338,0.205643,9.85174,1.10952,1.89,-3.36,-0.28,22.5886,-46.5222,-22.1226,1014.77
18344,0.0860832,9.79914,1.08082,1.54,-3.64,-0.35,22.6177,-47.324,-22.6693,1014.77
18350,0.176949,9.8087,1.13821,1.33,-3.5,-0.56,22.6177,-46.0905,-22.758,1014.78
18356,0.181731,9.87087,1.15256,1.61,-3.22,-0.49,22.6758,-45.8437,-22.5363,1014.78
18362,0.13869,9.81827,1.1143,1.75,-3.15,-0.91,22.6758,-45.9054,-22.1965,1014.82
18368,0.0813008,9.79436,1.13821,1.12,-3.43,-1.19,23.0536,-45.7512,-22.6398,1014.82
18374,0.105213,9.7561,1.16212,1.19,-3.29,-0.63,22.5015,-45.8129,-23.7923,1014.81
18380,0.0621712,9.71784,1.17647,1.47,-3.01,-0.7,21.9494,-46.0288,-22.4181,1014.81
18386,0.0765184,9.75131,1.16212,1.47,-3.78,-0.84,22.3852,-46.6456,-22.1817,1014.81
18392,0.105213,9.76566,1.16691,1.47,-2.94,-0.42,22.4143,-46.2755,-21.9748,1014.81
18398,0.0813008,9.74653,1.14299,1.82,-3.22,-0.49,23.3151,-46.183,-22.9057,1014.81
18404,0.105213,9.78479,1.13343,1.61,-2.73,-0.07,23.0245,-45.7821,-22.6102,1014.82
18410,0.10043,9.75131,1.15256,1.33,-3.29,-0.35,22.4724,-46.3372,-23.2752,1014.82
18416,0.0860832,9.77044,1.13821,1.54,-3.43,-0.35,22.8211,-46.0905,-23.9549,1014.81
18422,0.114778,9.77523,1.15734,1.68,-3.22,-0.14,21.8332,-47.1698,-22.5807,1014.81
18428,0.109995,9.76088,1.10952,1.47,-3.57,0.28,22.2981,-46.0288,-23.5559,1014.82
18434,0.0860832,9.72262,1.16691,1.82,-3.64,-0.42,21.9203,-46.2447,-23.4968,1014.82
18440,0.176949,9.78479,1.09517,1.68,-3.85,-0.07,21.9494,-45.5662,-22.9944,1014.8
18446,0.124342,9.77523,1.09995,1.68,-3.22,-0.28,22.2981,-46.1213,-22.5659,1014.8
18452,0.153037,9.81827,1.09995,1.89,-3.29,-0.7,22.4724,-46.4914,-22.8762,1014.8
18458,0.162602,9.81349,1.10473,1.54,-3.29,-0.77,22.24,-46.4605,-22.3442,1014.77
18464,0.153037,9.78957,1.1143,1.05,-3.08,-0.35,22.0075,-46.1213,-22.6989,1014.77
18470,0.153037,9.80392,1.18604,1.61,-3.01,-0.35,23.1407,-45.7512,-23.2456,1014.8
18476,0.114778,9.79436,1.15734,1.47,-3.36,-0.7,22.24,-46.1213,-23.7923,1014.8
18482,0.0908656,9.78001,1.14778,0.98,-3.43,-0.77,22.5886,-46.0288,-23.748,1014.8
18488,0.0813008,9.74175,1.18125,1.47,-3.43,-0.91,21.6588,-45.7821,-22.891,1014.8
18494,0.0860832,9.7561,1.16691,1.82,-3.57,-0.7,22.0366,-46.4605,-22.6693,1014.78
18500,0.0908656,9.78001,1.15256,1.61,-3.08,-0.35,22.24,-46.5839,-22.6398,1014.78
18506,0.0765184,9.73697,1.13343,1.68,-3.29,-0.63,22.4724,-46.5839,-23.4229,1014.78
18512,0.0765184,9.7561,1.12865,1.68,-3.78,-0.56,22.4724,-46.2755,-23.881,1014.78
18518,0.0813008,9.74653,1.14299,1.68,-3.29,-0.21,23.0536,-45.9054,-23.024,1014.78
18524,0.0908656,9.74653,1.16212,1.47,-3.01,0.21,22.5886,-46.2138,-23.9401,1014.79
18530,0.105213,9.73697,1.12865,1.61,-3.5,-0.14,23.0826,-45.7204,-23.2899,1014.79
18536,0.0573888,9.73697,1.14778,2.03,-3.15,0.21,22.1528,-46.6456,-22.7875,1014.78
18542,0.109995,9.78479,1.13821,2.03,-3.36,-0.21,22.5886,-45.5662,-23.3638,1014.78
18548,0.124342,9.78479,1.12386,2.1,-3.99,0.21,21.9494,-46.4605,-22.7875,1014.78
18554,0.181731,9.79436,1.1143,1.68,-3.22,-0.14,22.5015,-46.5839,-24.3095,1014.78
18560,0.124342,9.78957,1.12386,1.96,-3.22,-0.42,22.3562,-47.0157,-23.4968,1014.78
18566,0.0813008,9.81827,1.1143,1.47,-2.59,-0.21,22.0075,-47.6016,-23.0387,1014.76
18572,0.133907,9.76566,1.15734,1.61,-2.8,-0.21,22.0075,-46.183,-22.9648,1014.76
18578,0.196078,9.78479,1.16691,1.4,-3.43,-0.7,22.269,-46.3063,-23.8367,1014.8
18584,0.13869,9.78957,1.14778,1.4,-2.8,-0.63,22.4724,-46.3372,-23.1126,1014.8
18590,0.0669536,9.77523,1.13821,1.82,-3.43,-0.84,22.2109,-46.7381,-23.2013,1014.8
18596,0.047824,9.76566,1.16212,1.54,-3.64,-0.35,22.9373,-46.4914,-22.4329,1014.8
18602,0.0908656,9.73218,1.20038,1.89,-3.15,-0.63,21.9785,-45.9671,-22.9944,1014.82
18608,0.10043,9.75131,1.17647,1.96,-3.29,-0.21,22.6468,-46.0905,-21.1917,1014.82
18614,0.0765184,9.77044,1.14778,1.89,-3.78,0.14,22.4434,-46.2138,-23.6446,1014.81
18620,0.095648,9.76566,1.14299,2.24,-3.36,-0.56,22.4724,-46.5222,-22.7137,1014.81
18626,0.0813008,9.76088,1.16691,1.54,-3.08,0.42,22.4434,-45.7512,-24.0435,1014.81
18632,0.0526064,9.77523,1.13343,2.1,-3.57,0.49,22.6758,-45.5662,-23.5855,1014.79
18638,0.0813008,9.76566,1.13821,1.68,-3.15,0.21,22.2109,-46.3989,-23.5707,1014.79
18644,0.114778,9.79436,1.13343,2.03,-3.36,0.42,22.24,-46.1213,-22.9205,1014.79
18650,0.0813008,9.79436,1.13343,1.47,-3.5,0.07,21.4845,-46.0905,-22.2999,1014.79
18656,0.143472,9.80392,1.12865,1.4,-3.92,0.14,22.5305,-45.9671,-23.7332,1014.81
18662,0.176949,9.78479,1.1143,1.4,-3.22,-0.28,22.5015,-47.1082,-22.6545,1014.81
18668,0.11956,9.8087,1.1143,1.61,-2.87,-0.07,22.2981,-46.2138,-23.3786,1014.78
18674,0.148254,9.8087,1.14778,1.82,-3.43,-0.07,22.6177,-46.6456,-23.0387,1014.78
18680,0.176949,9.83261,1.13343,1.82,-3.78,-0.98,22.0656,-46.9848,-22.7137,1014.78
18686,0.162602,9.82305,1.12386,1.47,-3.5,-1.19,22.6177,-46.8306,-22.7728,1014.8
18692,0.0765184,9.78001,1.16212,1.19,-3.01,-0.56,22.763,-46.7998,-23.0535,1014.8
18698,0.0573888,9.75131,1.20516,1.68,-3.71,-0.42,22.5305,-46.7381,-23.4081,1014.79
18704,0.109995,9.77044,1.16691,1.61,-3.78,-0.98,22.792,-46.3372,-23.1865,1014.79
18710,0.11956,9.76088,1.12386,1.54,-3.36,-0.63,21.9494,-46.8615,-23.1569,1014.81
18716,0.071736,9.77044,1.12865,1.19,-3.15,-0.63,22.3271,-46.5531,-22.8023,1014.81
18722,0.0765184,9.75131,1.14299,1.61,-3.08,-0.7,22.3562,-47.324,-23.6298,1014.81
18728,0.0860832,9.76088,1.12386,1.4,-3.57,-0.7,22.7049,-47.5091,-22.1374,1014.81
18734,0.047824,9.75131,1.12865,1.75,-2.94,-0.63,22.4724,-46.368,-21.8714,1014.81
18740,0.0430416,9.71784,1.17647,1.4,-3.01,-0.14,22.4724,-46.954,-22.2408,1014.81
18746,0.047824,9.73218,1.17169,1.82,-3.08,-0.49,22.24,-46.5839,-22.5659,1014.81
18752,0.0621712,9.74175,1.16212,1.19,-3.29,0.07,22.7049,-47.324,-23.9401,1014.78
18758,0.0621712,9.7274,1.14778,1.54,-3.22,0.21,23.6637,-46.5531,-23.3047,1014.78
18764,0.124342,9.78479,1.19082,1.82,-3.5,-0.21,23.1698,-46.5839,-22.758,1014.76
18770,0.124342,9.78001,1.12386,1.82,-3.85,-0.63,21.8913,-47.2932,-23.881,1014.76
18776,0.143472,9.78957,1.11908,1.26,-3.29,0,22.7049,-46.5531,-22.625,1014.77
18782,0.162602,9.80392,1.14299,1.54,-3.5,-0.49,23.1988,-46.2138,-23.0831,1014.77
18788,0.200861,9.82305,1.10952,1.4,-3.5,-0.91,23.0245,-46.954,-23.2456,1014.8
18794,0.167384,9.82783,1.14299,1.19,-3.64,-1.05,22.5886,-46.8306,-22.4625,1014.8
18800,0.095648,9.82783,1.1956,1.54,-3.64,-1.12,22.8502,-46.7381,-22.758,1014.8
18806,0.114778,9.81827,1.17169,1.47,-3.36,-1.26,23.0536,-46.5531,-22.8319,1014.77
18812,0.143472,9.84218,1.12386,1.19,-3.08,-0.98,23.1698,-46.1521,-23.7776,1014.77
18818,0.191296,9.81827,1.14299,0.7,-3.08,-1.26,23.2279,-46.6764,-22.7728,1014.76
18824,0.11956,9.87087,1.08082,0.77,-3.08,-1.54,23.1698,-46.7073,-23.7332,1014.76
18830,-0.0047824,9.71784,1.27212,1.33,-3.71,-1.68,22.2981,-46.7381,-23.3934,1014.78
18836,-0.0430416,9.71784,1.20995,1.19,-3.15,-1.33,22.4724,-46.6147,-23.9253,1014.78
18842,0.0908656,9.71305,1.23864,1.05,-3.08,-1.12,22.7049,-45.9671,-23.1569,1014.81
18848,0.0334768,9.73218,1.23386,1.82,-3.22,-0.84,22.4143,-46.2138,-21.9896,1014.81
18854,0.0286944,9.74653,1.18604,1.4,-3.08,-1.05,23.1988,-46.2447,-22.359,1014.81
18860,0.0526064,9.74175,1.12865,1.47,-3.5,-0.77,22.792,-46.1521,-22.5363,1014.81
18866,0,9.70349,1.20516,1.54,-3.92,-0.21,22.5015,-46.2755,-21.9748,1014.81
18872,0.0047824,9.71305,1.1956,1.68,-3.99,-0.42,22.2109,-47.5399,-22.3442,1014.78
18878,0.0765184,9.71305,1.13821,2.24,-3.57,0,22.9664,-45.8746,-22.9057,1014.78
18884,0.124342,9.75131,1.16691,2.03,-3.29,0.42,22.8792,-46.4914,-22.8466,1014.8
18890,0.124342,9.78001,1.12386,2.03,-3.22,-0.07,22.9664,-46.3989,-22.2113,1014.8
18896,0.114778,9.79436,1.09995,1.61,-3.15,-0.35,22.3852,-45.7204,-23.6446,1014.78
18902,0.167384,9.85653,1.12386,1.75,-3.43,-0.7,22.3271,-46.5839,-23.1717,1014.78
18908,0.176949,9.81349,1.12865,1.33,-3.01,-0.42,22.0656,-46.368,-22.9205,1014.78
18914,0.148254,9.84218,1.12386,1.26,-2.94,-1.12,22.5305,-46.368,-24.1174,1014.77
18920,0.0765184,9.79914,1.14778,1.05,-3.5,-1.19,22.6758,-46.1521,-23.5707,1014.77
18926,0.0573888,9.74175,1.20038,1.4,-3.57,-0.84,22.8792,-47.0157,-24.0583,1014.76
18932,0.105213,9.77044,1.17647,1.47,-3.29,-0.91,22.9083,-45.9979,-23.5264,1014.76
18938,0.0860832,9.85653,1.1143,0.91,-3.15,-0.77,22.7339,-46.5222,-23.0387,1014.81
18944,0.0669536,9.74175,1.22908,1.4,-3.64,-0.7,22.3271,-45.8437,-23.3786,1014.81
18950,0.0143472,9.66045,1.22908,1.61,-3.43,-0.56,22.7339,-46.2755,-24.2208,1014.8
18956,0.0286944,9.6748,1.2769,1.96,-3.29,-0.21,22.7049,-47.139,-23.881,1014.8
18962,0.0621712,9.71784,1.1956,1.75,-3.36,0.21,22.5886,-46.2755,-22.9353,1014.78
18968,0.0095648,9.66045,1.21951,2.38,-3.43,-0.07,23.257,-46.0288,-22.9205,1014.78
18974,0.0382592,9.74175,1.18604,1.89,-3.29,-0.07,22.792,-46.4297,-22.9205,1014.78
18980,0.0382592,9.74653,1.20038,2.38,-2.73,0.91,22.2109,-46.7998,-21.2065,1014.77
18986,0.10043,9.7561,1.14778,2.03,-3.22,0.84,22.9664,-46.1213,-22.625,1014.77
18992,0.167384,9.77044,1.12865,2.1,-3.5,-0.14,22.763,-46.2447,-23.1717,1014.78
18998,0.172166,9.85653,1.0856,2.1,-3.22,-0.56,23.3441,-46.6456,-22.8614,1014.78
19004,0.157819,9.82783,1.09517,1.61,-2.8,0.07,23.1988,-46.5531,-23.5411,1014.77
19010,0.13869,9.82305,1.13821,1.33,-3.64,-0.42,22.8792,-46.183,-23.4081,1014.77
19016,0.181731,9.87566,1.16691,1.12,-2.94,-0.7,23.1698,-46.3063,-23.6298,1014.79
19022,0.095648,9.87566,1.16691,0.98,-3.22,-1.4,23.0826,-46.4297,-23.0535,1014.79
19028,0.0813008,9.8087,1.16691,0.77,-3.5,-1.12,22.5015,-46.2138,-23.024,1014.79
19034,0.109995,9.83261,1.13821,0.63,-3.5,-1.4,23.3732,-46.1213,-24.1026,1014.82
19040,0.105213,9.77044,1.23386,0.7,-3.22,-1.26,22.7049,-46.6456,-24.7971,1014.82
19046,0.0573888,9.76566,1.20038,1.26,-3.57,-1.33,23.6056,-47.0157,-24.2799,1014.77
19052,0.0286944,9.77523,1.15734,0.77,-3.29,-1.19,22.8792,-46.3063,-23.0683,1014.77
19058,0.0765184,9.71305,1.20516,1.05,-3.22,-1.26,22.9954,-45.4428,-22.8319,1014.79
19064,0.0669536,9.70827,1.22429,1.4,-3.36,-0.91,22.8792,-46.3372,-23.2308,1014.79
19070,0.0430416,9.75131,1.21473,1.4,-2.8,-0.56,22.9664,-45.6895,-24.3982,1014.81
19076,-0.0095648,9.74175,1.19082,1.26,-3.15,-0.42,22.6758,-46.7998,-25.0779,1014.81
19082,0.0191296,9.69392,1.20038,1.68,-3.08,-0.35,22.9664,-46.0596,-23.2899,1014.81
19088,0.0143472,9.69392,1.22429,1.82,-3.43,0.28,22.7339,-45.9363,-22.7284,1014.77
19094,0.023912,9.70827,1.20516,1.89,-3.22,0,22.3852,-46.5222,-23.8662,1014.77
19100,0.071736,9.7274,1.16212,2.03,-3.36,-0.56,23.1407,-46.5531,-23.4672,1014.78
19106,0.11956,9.76088,1.15256,1.61,-2.73,-0.14,22.763,-46.4605,-23.6593,1014.78
19112,0.114778,9.77044,1.16212,2.03,-3.15,0.35,23.3151,-45.6587,-22.8466,1014.8
19118,0.095648,9.79436,1.15734,1.75,-3.43,-0.42,22.0656,-46.1521,-23.3638,1014.8
19124,0.095648,9.81349,1.16691,1.68,-3.64,-0.49,22.9954,-46.2138,-23.8219,1014.81
19130,0.133907,9.81349,1.17169,1.26,-3.08,-0.14,23.0245,-46.1521,-22.359,1014.81
19136,0.071736,9.81827,1.14299,1.47,-3.57,-0.21,22.9373,-45.9979,-23.2752,1014.78
19142,0.0526064,9.77523,1.16212,1.33,-2.87,-0.56,22.3271,-45.9671,-23.7776,1014.78
19148,0.0191296,9.77523,1.17647,0.98,-3.5,-0.7,22.0075,-45.9671,-22.9205,1014.78
19154,0.10043,9.76088,1.22908,1.12,-3.08,-0.63,22.3852,-46.368,-23.9549,1014.78
19160,0.0908656,9.77523,1.1956,1.12,-3.29,-0.63,22.3852,-45.9363,-22.8762,1014.78
19166,0.071736,9.75131,1.20995,1.19,-4.13,-0.56,22.9083,-45.8437,-23.9253,1014.82
19172,0.0621712,9.79914,1.16212,1.33,-3.01,-0.56,23.257,-45.8129,-22.4329,1014.82
19178,0.0621712,9.73218,1.22908,1.68,-3.15,-0.63,22.7339,-46.1213,-23.5264,1014.77
19184,0.0765184,9.73697,1.20038,1.12,-3.36,-1.05,22.5015,-46.0905,-23.2604,1014.77
19190,0.0621712,9.75131,1.21473,1.61,-3.43,-0.7,22.4724,-45.8129,-24.0435,1014.77
19196,0.047824,9.72262,1.25777,1.68,-3.36,0.07,22.1818,-45.6279,-23.7037,1014.77
19202,0.0286944,9.73218,1.24342,1.68,-2.87,0.49,22.269,-46.5531,-23.5411,1014.77
19208,0.071736,9.71305,1.18604,1.82,-4.06,-0.63,22.2981,-46.3989,-22.5807,1014.8
19214,0.095648,9.72262,1.21473,1.89,-3.64,0,22.5305,-45.7204,-23.8514,1014.8
19220,0.11956,9.79914,1.14299,1.96,-3.29,-0.77,23.1698,-45.8437,-23.0683,1014.8
19226,0.143472,9.84218,1.13821,1.47,-3.29,-0.07,22.4724,-46.7381,-23.2604,1014.8
19232,0.0908656,9.81827,1.15256,1.26,-3.36,-0.07,21.6007,-46.3372,-22.8171,1014.81
19238,0.0860832,9.79436,1.17169,1.26,-3.43,-0.91,22.0947,-46.1521,-23.4081,1014.81
19244,0.143472,9.79436,1.19082,1.54,-3.5,-1.26,22.9664,-46.0288,-22.5363,1014.8
19250,0.095648,9.81827,1.14778,0.98,-2.94,-0.77,22.9373,-46.2447,-22.3147,1014.8
19256,0.047824,9.81349,1.15256,0.98,-2.87,-1.12,22.6758,-46.368,-24.147,1014.8
19262,0.0334768,9.78001,1.20995,1.12,-3.36,-1.33,22.7049,-46.183,-23.0387,1014.78
19268,0.023912,9.74653,1.23386,1.12,-3.29,-0.77,22.4143,-46.1213,-23.0978,1014.78
19274,0.0860832,9.75131,1.25777,1.12,-3.36,-1.05,22.0947,-46.7073,-23.216,1014.79
19280,-0.0430416,9.66045,1.23386,1.12,-3.43,-0.98,22.2981,-46.8615,-24.2947,1014.79
19286,0.0334768,9.72262,1.29603,2.17,-3.57,-0.28,22.5596,-46.8306,-24.1913,1014.8
19292,0.0526064,9.70827,1.21951,1.68,-3.64,-0.7,22.4143,-46.3989,-23.5559,1014.8
19298,-0.023912,9.7274,1.21951,1.89,-3.5,-0.49,22.0656,-46.3372,-23.3343,1014.79
19304,0.0191296,9.70827,1.23386,2.1,-3.22,0.42,22.3852,-46.1213,-22.4329,1014.79
19310,0.0047824,9.69871,1.20995,2.17,-3.92,0.21,22.3271,-45.412,-23.7923,1014.78
19316,0.0334768,9.70827,1.25777,2.17,-3.22,0.21,22.5015,-46.368,-22.3295,1014.78
19322,0.0908656,9.74653,1.17647,1.96,-2.94,0.42,22.7339,-46.1213,-22.6102,1014.78
19328,0.124342,9.77044,1.18604,2.17,-3.36,0.42,22.1528,-45.9363,-22.2556,1014.79
19334,0.105213,9.8087,1.1956,2.24,-3.43,0.07,22.4434,-45.6895,-23.8071,1014.79
19340,0.143472,9.82305,1.18604,2.17,-3.08,-0.42,22.6468,-45.8437,-23.0683,1014.78
19346,0.133907,9.85174,1.14778,1.68,-3.5,-0.49,22.4434,-46.6456,-23.3934,1014.78
19352,0.105213,9.81827,1.20038,1.33,-3.29,-0.63,22.8502,-46.954,-23.216,1014.8
19358,0.105213,9.84218,1.20516,1.96,-3.36,-1.05,22.7339,-45.9979,-22.492,1014.8
19364,0.0430416,9.81349,1.19082,2.1,-3.57,-0.7,22.3852,-46.8306,-22.4477,1014.79
19370,0.0765184,9.79914,1.16212,1.4,-3.36,-0.77,22.5015,-46.0596,-23.482,1014.79
19376,0.0669536,9.79436,1.20995,1.05,-3.36,-0.98,22.1528,-46.7073,-22.4477,1014.79
19382,0.109995,9.82783,1.16212,1.4,-3.29,-0.91,23.1117,-46.2138,-23.482,1014.82
19388,0.143472,9.8374,1.14299,1.12,-3.43,-1.05,22.6758,-46.4914,-24.1617,1014.82
19394,-0.0095648,9.76088,1.15256,0.77,-3.64,-1.47,22.4724,-44.9494,-23.748,1014.81
19400,0.023912,9.76566,1.24342,0.91,-3.71,-1.05,22.6468,-46.3989,-24.6641,1014.81
19406,0.0765184,9.73218,1.24342,1.12,-3.29,-0.63,23.1407,-46.0288,-23.748,1014.8
19412,-0.0047824,9.66523,1.33907,1.82,-3.5,-0.77,22.9954,-46.8306,-23.6446,1014.8
19418,0.023912,9.67001,1.23864,1.19,-3.43,-0.84,22.4434,-46.0288,-24.9597,1014.76
19424,0.0191296,9.71305,1.22429,1.96,-3.92,-0.42,23.0826,-46.4914,-23.5116,1014.76
19430,0.0095648,9.72262,1.20995,1.61,-3.64,-0.14,22.4724,-46.1521,-23.5559,1014.79
19436,0.0430416,9.72262,1.25299,1.96,-3.01,0.07,22.5015,-46.3063,-24.014,1014.79
19442,0.105213,9.7561,1.22429,2.31,-3.57,-0.35,22.0656,-46.1213,-23.4229,1014.79
19448,0.0813008,9.78957,1.17647,1.68,-3.43,-0.49,22.4724,-46.4297,-23.1865,1014.79
19454,0.0573888,9.79436,1.17647,2.17,-3.85,0.28,23.0245,-46.6764,-22.9057,1014.79
19460,0.0621712,9.78479,1.20516,1.68,-3.36,-0.07,22.7339,-46.3372,-23.5559,1014.78
19466,0.0813008,9.81827,1.18125,1.12,-3.36,-0.84,23.286,-47.2624,-24.2504,1014.78
19472,0.167384,9.8374,1.19082,1.4,-3.78,-0.42,22.3562,-46.0288,-23.0387,1014.79
19478,0.167384,9.86609,1.16691,1.82,-3.36,-0.84,23.1698,-46.7073,-23.4081,1014.79
19484,0.0526064,9.87566,1.07604,0.98,-3.36,-1.26,23.0826,-46.4297,-22.8171,1014.77
19490,-0.023912,9.8374,1.15256,0.49,-3.71,-1.26,23.0245,-46.6456,-23.1126,1014.77
19496,0.148254,9.79914,1.17169,0.56,-3.29,-0.77,22.792,-46.4605,-23.748,1014.77
19502,0.0143472,9.76566,1.22429,0.42,-3.36,-1.26,22.763,-46.3989,-23.6593,1014.78
19508,-0.0191296,9.7274,1.21951,1.26,-3.5,-0.91,22.5305,-46.3989,-24.7085,1014.78
19514,0.0334768,9.82783,1.20038,0.84,-3.22,-0.91,22.1818,-45.4428,-22.6841,1014.77
19520,0.0143472,9.80392,1.22429,0.56,-3.29,-1.05,22.6468,-45.9363,-23.0535,1014.77
19526,0.047824,9.63654,1.31038,1.05,-3.57,-0.91,23.3441,-46.0288,-23.6741,1014.8
19532,-0.0573888,9.64132,1.36777,1.26,-3.29,-0.63,22.9373,-45.6895,-22.9944,1014.8
19538,0.023912,9.71305,1.24342,1.4,-3.36,-0.35,23.0536,-46.7689,-23.482,1014.79
19544,0.0047824,9.6748,1.25777,1.89,-3.78,0.14,22.792,-46.2447,-23.9549,1014.79
19550,0.047824,9.69392,1.24821,2.17,-3.43,0,21.7751,-45.9979,-22.9944,1014.79
19556,0.0908656,9.71305,1.21473,2.17,-3.08,0.14,22.6468,-46.0596,-22.492,1014.78
19562,0.129125,9.79436,1.20038,2.1,-3.64,0.07,22.8211,-46.368,-23.7628,1014.78
19568,0.0860832,9.86131,1.15256,1.96,-3.15,-0.07,22.4724,-46.5839,-22.9205,1014.8
19574,0.133907,9.89957,1.11908,1.19,-3.5,-1.05,22.792,-46.4914,-23.7332,1014.8
19580,0.143472,9.87566,1.1143,1.26,-3.22,-1.05,22.792,-46.5222,-22.7284,1014.77
19586,0.196078,9.88522,1.09039,0.56,-2.94,-1.33,23.0245,-46.3372,-22.7875,1014.77
19592,0.109995,9.89957,1.06648,0.07,-3.5,-1.12,22.792,-45.9054,-23.5264,1014.79
19598,0.0860832,9.82305,1.26255,-0.28,-3.22,-1.75,22.9954,-46.0288,-23.5264,1014.79
19604,0.11956,9.75131,1.27212,0.42,-2.59,-1.89,22.7049,-45.8746,-24.5903,1014.79
19610,0.047824,9.85174,1.10952,-0.14,-2.59,-1.82,22.6468,-46.3989,-23.9253,1014.79
19616,0.023912,9.82305,1.23386,-0.42,-2.8,-2.31,22.8211,-46.368,-23.2013,1014.79
19622,-0.0191296,9.7274,1.30081,-0.28,-2.94,-2.17,22.5596,-46.8923,-23.6741,1014.79
19628,-0.0143472,9.74653,1.32472,0.21,-3.15,-1.68,22.8211,-46.4297,-23.9105,1014.79
19634,0,9.71784,1.28168,0.07,-2.59,-1.82,22.4724,-45.9054,-24.1765,1014.8
19640,-0.0621712,9.62219,1.36298,0.56,-3.22,-1.19,22.7049,-46.5839,-22.5363,1014.8
19646,-0.0334768,9.66523,1.30081,0.7,-2.94,-1.12,21.7169,-46.2138,-22.9057,1014.78
19652,-0.0430416,9.66523,1.33907,1.12,-3.22,-0.84,22.6758,-46.3989,-23.3638,1014.78
19658,-0.071736,9.62697,1.32951,1.75,-2.87,-0.91,23.0826,-46.7073,-23.6298,1014.77
19664,-0.0191296,9.66523,1.31516,1.89,-3.22,-0.35,22.792,-46.4297,-23.1274,1014.77
19670,-0.0047824,9.6748,1.28647,1.61,-2.59,-0.07,22.6758,-46.183,-22.5807,1014.77
19676,0.0095648,9.69871,1.28168,2.45,-3.22,-0.14,22.5015,-46.6764,-23.8958,1014.8
19682,0.0621712,9.78479,1.16212,1.89,-2.94,-0.91,22.8211,-46.7689,-22.7432,1014.8
19688,0.0286944,9.89,1.16212,1.96,-2.94,-0.42,22.9664,-46.4297,-22.758,1014.8
19694,0.0908656,9.84218,1.15734,1.54,-2.87,-0.35,22.5886,-45.5662,-23.7184,1014.8
19700,0.0573888,9.82783,1.24342,1.54,-2.94,-0.91,23.0245,-46.3989,-24.2947,1014.78
19706,0.11956,9.84218,1.20995,1.19,-2.38,-0.77,22.5886,-46.8615,-23.6593,1014.78
19712,0.0430416,9.90913,1.13343,0.98,-3.01,-1.61,23.3151,-46.2447,-24.147,1014.78
19718,0,9.86131,1.20516,0.35,-3.08,-1.33,22.9664,-46.1521,-22.9205,1014.78
19724,0.0382592,9.81349,1.26734,1.19,-3.08,-1.75,22.9373,-46.0596,-23.1569,1014.78
19730,0,9.79436,1.29603,0.42,-3.43,-1.54,22.8502,-46.0905,-21.7532,1014.8
19736,-0.0334768,9.73697,1.30081,0.42,-3.36,-1.82,22.763,-45.412,-22.4181,1014.8
19742,-0.0191296,9.71784,1.34864,0.42,-3.85,-1.4,23.0826,-46.1213,-21.9896,1014.78
19748,-0.023912,9.70827,1.2769,0.98,-3.36,-1.19,23.6056,-45.4737,-21.6793,1014.78
19754,-0.0143472,9.67958,1.30081,0.98,-3.15,-1.12,23.1407,-45.9363,-22.2999,1014.79
19760,-0.0286944,9.63654,1.33429,1.33,-3.01,-0.84,23.286,-46.2447,-22.4181,1014.79
19766,-0.095648,9.68914,1.35342,1.68,-3.43,-0.63,24.2158,-46.8923,-21.2803,1014.8
19772,-0.023912,9.64132,1.3056,1.96,-2.94,0.07,23.0245,-45.8437,-22.9648,1014.8
19778,-0.0143472,9.64132,1.33907,2.31,-2.94,0.28,22.763,-46.8306,-22.4625,1014.79
19784,0.0095648,9.65567,1.28647,2.03,-3.01,0.14,23.0826,-45.9054,-22.4329,1014.79
19790,0.0143472,9.70349,1.25777,2.59,-3.36,0.21,23.257,-46.0288,-22.5068,1014.79
19796,0.105213,9.81349,1.23864,2.31,-3.08,0.42,23.6928,-45.9671,-22.9205,1014.78
19802,0.0382592,9.8374,1.20995,2.1,-3.22,0.21,23.4022,-45.7512,-22.7284,1014.78
19808,0.0621712,9.84696,1.22908,1.96,-3.15,-0.77,23.3441,-46.2138,-22.2556,1014.77
19814,0.0813008,9.9187,1.1143,1.82,-3.5,-0.98,22.6468,-45.9054,-22.758,1014.77
19820,-0.0143472,9.82305,1.22908,1.33,-3.57,-0.28,23.0536,-46.5531,-22.2113,1014.82
19826,-0.0621712,9.71305,1.31516,0.91,-3.43,-0.56,22.3852,-46.6764,-23.024,1014.82
19832,-0.047824,9.70349,1.30081,1.89,-3.99,-0.42,23.1698,-46.3989,-22.8466,1014.82
19838,-0.023912,9.71305,1.3056,1.89,-3.92,0,23.1988,-46.1521,-21.8418,1014.82
19844,-0.023912,9.74175,1.25777,2.24,-3.29,-0.14,23.0245,-46.8615,-23.4968,1014.82
19850,-0.0573888,9.68914,1.29603,1.61,-3.29,0.07,22.7339,-46.0596,-22.9944,1014.79
19856,0.023912,9.65567,1.33429,1.75,-3.5,0.56,22.8211,-46.5222,-22.359,1014.79
19862,0.0047824,9.68436,1.29603,2.59,-3.57,0.77,22.7049,-46.3372,-23.7332,1014.77
19868,0.0095648,9.73218,1.27212,2.38,-3.29,0.56,22.6468,-45.9054,-23.881,1014.77
19874,-0.0191296,9.71784,1.22908,2.38,-3.29,0.56,22.5015,-46.8306,-23.6298,1014.8
19880,-0.0095648,9.7274,1.23864,2.1,-3.15,0.84,22.3852,-46.7689,-22.6841,1014.8
19886,0.0430416,9.64132,1.31516,2.59,-3.64,1.19,22.9373,-45.7512,-22.093,1014.81
19892,0.0765184,9.79914,1.22908,2.66,-2.8,1.05,23.0245,-46.2755,-22.9353,1014.81
19898,0.133907,9.87566,1.19082,2.45,-3.08,0.56,23.0245,-46.5531,-22.6102,1014.81
19904,0.0382592,9.85653,1.25299,1.89,-2.87,0.21,23.257,-47.4166,-24.1617,1014.81
19910,0.0430416,9.88522,1.17169,1.82,-3.57,-0.28,23.3151,-45.8746,-23.2604,1014.81
19916,0.095648,9.84696,1.21951,1.75,-3.43,-0.07,23.1698,-46.7381,-24.3095,1014.8
19922,0.0430416,9.82305,1.25299,1.68,-2.8,-0.07,23.0826,-46.3063,-21.502,1014.8
19928,0.0095648,9.82783,1.25777,1.89,-3.29,-0.77,22.3562,-45.9671,-23.3047,1014.8
19934,-0.0334768,9.76566,1.29603,0.98,-3.5,-0.63,22.3852,-46.0288,-22.6545,1014.8
19940,-0.0095648,9.71784,1.31994,1.75,-3.57,0.21,23.4603,-46.1213,-22.891,1014.81
19946,0.0095648,9.70349,1.3056,1.75,-3.64,-0.07,23.1988,-46.5531,-22.5807,1014.81
19952,-0.0047824,9.74175,1.3056,2.17,-3.99,-0.63,22.8211,-46.1213,-23.2013,1014.78
19958,0.023912,9.69392,1.3056,2.45,-3.36,0.35,22.6177,-45.9979,-23.2308,1014.78
19964,-0.0191296,9.69871,1.31994,2.45,-3.36,0.56,22.8792,-45.3503,-23.2899,1014.78
19970,-0.0047824,9.68436,1.29125,2.52,-2.87,0,22.0366,-46.3989,-22.7137,1014.81
19976,-0.0143472,9.71784,1.26255,2.52,-3.57,0.42,22.8502,-46.4605,-23.7037,1014.81
19982,0,9.7561,1.25777,2.8,-3.22,0.7,22.763,-46.4914,-23.024,1014.8
19988,0,9.74175,1.21473,2.59,-3.08,0.56,22.7049,-46.0288,-22.4772,1014.8
19994,0.047824,9.78001,1.22908,2.73,-3.43,0.28,22.9954,-46.6764,-22.1669,1014.8
20000,0.0908656,9.8374,1.20516,3.01,-3.36,0.21,22.4724,-47.0157,-22.9057,1014.8
20006,0.0860832,9.8374,1.20038,2.17,-3.22,0.07,22.8502,-46.3989,-22.9944,1014.8
20012,0.095648,9.8374,1.16691,2.38,-3.64,0.7,23.1698,-46.368,-22.9796,1014.8
20018,0.023912,9.81827,1.22908,1.96,-2.87,-0.07,23.6928,-46.9848,-22.492,1014.8
20024,0.0573888,9.77523,1.26734,2.03,-3.22,-0.35,23.4022,-46.4605,-23.1422,1014.79
20030,0.047824,9.76088,1.28647,2.1,-3.71,0,23.78,-46.1213,-23.0978,1014.79
20036,0.0382592,9.78001,1.25777,2.03,-3.71,0.28,23.1698,-45.597,-23.6298,1014.83
20042,0.047824,9.78001,1.24342,1.61,-3.01,-0.14,23.4022,-45.9671,-22.7432,1014.83
20048,-0.0095648,9.76088,1.24342,1.96,-3.29,0.07,22.8211,-46.6764,-23.7923,1014.81
20054,-0.023912,9.70827,1.26255,2.1,-3.78,-0.28,22.8792,-46.2138,-22.7432,1014.81
20060,-0.0286944,9.75131,1.25777,2.1,-2.87,0.14,22.7339,-45.9979,-22.9796,1014.78
20066,0.023912,9.70827,1.27212,2.73,-3.22,0.35,23.257,-46.6147,-23.8219,1014.78
20072,0.023912,9.72262,1.2769,2.38,-3.15,0.42,23.5185,-45.9054,-24.3538,1014.78
20078,-0.0143472,9.69392,1.28647,2.45,-3.22,0.35,23.9834,-46.6147,-23.4081,1014.77
20084,0,9.67958,1.31038,2.38,-2.8,0.49,23.1988,-46.2755,-22.7432,1014.77
20090,0.023912,9.70349,1.26255,2.87,-3.22,0.98,23.286,-47.3549,-23.2604,1014.8
20096,0.0191296,9.70827,1.28168,2.45,-3.29,0.77,22.6758,-45.9671,-24.1026,1014.8
20102,0.047824,9.74175,1.24342,2.66,-3.71,0.49,22.763,-46.0596,-22.7137,1014.78
20108,0.095648,9.82305,1.20995,2.59,-3.08,0.84,22.6468,-46.0596,-22.2704,1014.78
20114,0.071736,9.79914,1.23386,2.59,-3.22,0.63,22.0075,-46.7689,-22.2704,1014.78
20120,0.0621712,9.7274,1.24342,2.38,-3.01,0.7,22.5305,-47.4166,-22.7432,1014.78
20126,0.071736,9.76566,1.22908,2.66,-3.29,0.42,22.9954,-46.8923,-22.0192,1014.8
20132,0.071736,9.78479,1.24342,2.24,-2.87,0.7,22.5886,-47.2007,-22.1078,1014.8
20138,0.0143472,9.77523,1.24342,2.45,-3.29,0.28,22.6468,-46.368,-23.3047,1014.8
20144,0.0143472,9.81349,1.24821,2.03,-3.22,0.49,22.4143,-45.5662,-22.2851,1014.78
20150,0.0430416,9.75131,1.29125,2.38,-3.5,0.07,23.0245,-46.2138,-21.9896,1014.78
20156,0.0382592,9.71784,1.28168,2.8,-3.57,0.28,22.7049,-45.9054,-23.5707,1014.83
20162,0.0191296,9.77044,1.24342,2.52,-3.29,0.84,22.7049,-46.3063,-23.4525,1014.83
20168,-0.0191296,9.75131,1.29125,2.8,-3.57,0.49,22.9083,-45.9054,-23.1422,1014.82
20174,0.0095648,9.72262,1.28647,2.52,-3.29,0.28,22.0656,-45.8746,-22.093,1014.82
20180,0.023912,9.72262,1.26255,2.59,-3.71,0.35,22.763,-46.8306,-22.2556,1014.79
20186,0.0047824,9.71305,1.2769,3.08,-3.08,0.91,24.1287,-45.9979,-23.1569,1014.79
20192,0.0143472,9.73218,1.26734,3.01,-3.29,1.26,23.0826,-45.9054,-23.0683,1014.79
20198,0.0382592,9.76088,1.23864,3.08,-3.22,1.26,22.9373,-46.1521,-22.758,1014.85
20204,0.0143472,9.77523,1.23386,2.73,-3.5,0.49,22.269,-46.3063,-23.0831,1014.85
20210,0.0669536,9.7561,1.20038,2.87,-3.71,1.26,23.0536,-46.0905,-22.758,1014.82
20216,0.109995,9.83261,1.21473,2.59,-3.71,0.98,22.8502,-46.3372,-23.3343,1014.82
20222,0.11956,9.82783,1.21473,2.52,-3.36,0.56,22.6177,-46.368,-23.8071,1014.79
20228,0.162602,9.88044,1.13821,2.38,-3.22,0.14,22.0947,-46.2138,-23.482,1014.79
20234,0.0382592,9.89479,1.13821,1.75,-3.43,0,22.8792,-45.8129,-23.7923,1014.81
20240,0.0334768,9.8087,1.20516,1.68,-3.29,-0.14,22.6468,-46.5222,-23.5855,1014.81
20246,0.0621712,9.75131,1.2769,2.31,-3.5,0.14,22.6177,-45.2578,-23.1274,1014.81
20252,0.095648,9.81349,1.23386,2.38,-3.71,-0.21,23.1117,-45.5045,-23.3343,1014.83
20258,0.0669536,9.78479,1.25777,2.03,-3.08,-0.49,23.4313,-45.597,-23.2899,1014.83
20264,0.047824,9.79914,1.20995,1.75,-3.57,-0.07,23.3441,-45.9979,-22.9796,1014.78
20270,0.0095648,9.77523,1.21473,2.24,-3.99,-0.49,23.3732,-46.3372,-23.8958,1014.78
20276,0.0430416,9.71305,1.24342,2.17,-3.43,-0.49,23.4313,-45.9979,-22.6102,1014.8
20282,0.0191296,9.71784,1.28647,1.89,-3.5,0.28,22.1818,-45.9363,-23.4081,1014.8
20288,-0.0047824,9.72262,1.2769,2.24,-3.29,0.42,23.1117,-45.7512,-22.9501,1014.78
20294,0.0286944,9.66523,1.29603,2.8,-3.64,-0.35,22.7339,-45.3195,-23.6741,1014.78
20300,0.023912,9.68436,1.30081,2.8,-3.43,0.42,23.3151,-45.7204,-23.216,1014.81
20306,0.047824,9.71305,1.23864,2.24,-3.36,0.56,22.9083,-45.4428,-22.5363,1014.81
20312,0.0669536,9.75131,1.20516,1.89,-3.99,0.63,23.1698,-46.7073,-23.5264,1014.81
20318,0.0430416,9.78957,1.1956,2.73,-4.06,0.21,22.9373,-46.6456,-22.4329,1014.8
20324,0.0191296,9.76088,1.24821,2.87,-3.85,0.91,22.9083,-45.9979,-22.3295,1014.8
20330,0.0621712,9.75131,1.20995,1.89,-1.33,0.77,22.8502,-46.7998,-22.4329,1014.81
20336,0.11956,9.79436,1.20516,1.82,-3.5,0.42,23.3441,-46.3372,-23.8958,1014.81
20342,0.143472,9.78957,1.22429,1.54,-4.06,-0.21,22.5015,-46.1213,-22.6102,1014.79
20348,0.105213,9.79436,1.20516,2.52,-2.38,-0.21,22.4143,-45.2578,-22.5659,1014.79
20354,0.047824,9.78001,1.23864,2.1,-3.57,0.28,22.9954,-45.597,-22.8762,1014.81
20360,0.023912,9.73218,1.24342,0.98,-4.27,-0.28,22.6758,-47.1082,-22.9205,1014.81
20366,0.0382592,9.78001,1.23864,2.31,-4.2,0.07,23.257,-45.9054,-22.3147,1014.81
20372,0.0765184,9.7561,1.24821,1.54,-3.36,0.21,23.4313,-46.183,-24.0879,1014.83
20378,0.071736,9.76566,1.29125,1.96,-3.15,-0.14,23.3151,-45.7204,-23.0535,1014.83
20384,-0.071736,9.65567,1.2769,1.82,-3.64,0.63,23.5185,-45.597,-22.6102,1014.79
20390,0.0430416,9.70827,1.28647,2.45,-3.15,0.14,22.3852,-46.3989,-22.6545,1014.79
20396,0.0430416,9.71784,1.22429,2.59,-3.78,0.07,22.763,-45.4428,-24.2061,1014.76
20402,-0.0095648,9.70827,1.28168,2.31,-3.5,0.77,22.5305,-45.3195,-22.3147,1014.76
20408,0.0191296,9.69392,1.25299,2.94,-3.22,0.49,22.6177,-46.4605,-23.8514,1014.82
20414,-0.0095648,9.67958,1.27212,2.66,-3.29,0.35,22.6468,-45.3811,-23.6002,1014.82
20420,0.0430416,9.73218,1.25777,2.87,-3.5,0.98,23.1698,-45.4428,-22.1669,1014.82
20426,0.0765184,9.76566,1.21951,2.8,-3.57,0.98,22.8792,-45.3195,-22.5659,1014.81
20432,0.0813008,9.8087,1.20516,2.73,-3.71,0.35,22.1528,-45.8746,-21.8862,1014.81
20438,0.071736,9.8087,1.1956,2.59,-3.29,0.84,22.4143,-46.8923,-22.4772,1014.8
20444,0.0573888,9.78957,1.21473,2.8,-3.64,0.91,22.6468,-45.1344,-22.8466,1014.8
20450,0.129125,9.78957,1.20995,2.52,-3.36,0.77,22.9373,-45.8129,-22.2851,1014.79
20456,0.109995,9.8087,1.22429,2.66,-3.01,0.49,22.8502,-46.2138,-21.9157,1014.79
20462,0.0813008,9.81827,1.17647,2.24,-3.64,0.49,22.9954,-45.9979,-22.226,1014.8
20468,0.0143472,9.77523,1.20995,2.31,-3.5,0.07,22.1818,-45.8746,-22.093,1014.8
20474,0.0526064,9.78479,1.24342,2.1,-3.15,0.42,22.269,-45.7204,-22.8023,1014.83
20480,0.0573888,9.78001,1.27212,2.52,-3.99,0,22.6468,-45.8746,-22.4477,1014.83
20486,0.109995,9.77523,1.23864,2.03,-3.5,-0.07,22.3562,-45.4737,-22.5068,1014.83
20492,0.0573888,9.75131,1.24342,2.66,-3.01,0.35,22.24,-45.2886,-22.2113,1014.79
20498,0.0382592,9.78001,1.22429,2.31,-3.5,0.63,22.4143,-45.7512,-22.7432,1014.79
20504,0.0334768,9.73697,1.23864,2.31,-3.5,0.42,22.9664,-46.1213,-22.7875,1014.8
20510,0.0908656,9.73697,1.22429,2.45,-3.43,0.35,21.7751,-46.8615,-22.2851,1014.8
20516,0.0526064,9.7561,1.22429,3.01,-3.64,0.21,22.6177,-46.0288,-22.5954,1014.77
20522,0.0669536,9.76566,1.19082,2.24,-3.29,0.77,23.1117,-46.183,-23.0535,1014.77
20528,0.0621712,9.76566,1.21473,2.66,-3.57,0.42,23.1698,-46.2138,-22.9353,1014.79
20534,0.124342,9.79914,1.20038,2.8,-3.71,0.42,23.0245,-46.6147,-23.3638,1014.79
20540,0.0813008,9.76566,1.20038,2.38,-3.57,0.7,22.24,-46.0596,-22.3147,1014.79
20546,0.0669536,9.76566,1.21951,2.52,-3.5,0.7,22.763,-47.1082,-22.6693,1014.83
20552,0.095648,9.78957,1.21951,2.24,-3.36,0.63,22.6468,-46.6764,-21.9896,1014.83
20558,0.109995,9.84218,1.17169,2.52,-3.5,0.28,22.8502,-46.7073,-22.9944,1014.81
20564,0.0430416,9.83261,1.13821,2.03,-2.8,0.21,23.0826,-46.4297,-22.1521,1014.81
20570,0.047824,9.79914,1.1956,1.89,-3.08,0.28,23.1407,-47.139,-22.7432,1014.83
20576,0.0669536,9.77044,1.20995,1.47,-3.57,-0.14,22.6177,-46.7998,-22.8762,1014.83
20582,0.0621712,9.75131,1.21951,2.17,-3.78,0.21,23.78,-46.6764,-22.4772,1014.79
20588,0.0669536,9.76566,1.27212,2.17,-3.43,0,23.2279,-46.7381,-22.891,1014.79
20594,0.0765184,9.73218,1.23386,2.31,-3.85,0.21,22.4434,-46.2138,-23.1422,1014.79
20600,0.0860832,9.72262,1.24342,2.17,-3.57,0.42,22.5886,-46.183,-23.3195,1014.8
20606,0.0430416,9.69871,1.24342,2.52,-3.57,0.28,23.0826,-45.9054,-21.9305,1014.8
20612,0.0526064,9.70349,1.25299,2.87,-3.36,0.42,22.792,-46.1521,-23.024,1014.83
20618,0.0382592,9.70827,1.23864,3.01,-3.85,0.35,22.8502,-46.1213,-21.9305,1014.83
20624,0.0621712,9.71784,1.25299,2.94,-3.71,0.91,22.5305,-46.2755,-22.6545,1014.81
20630,0.0382592,9.73218,1.1956,3.01,-3.64,1.05,22.4434,-46.2138,-22.0487,1014.81
20636,0.0669536,9.76088,1.21473,3.29,-3.15,0.56,22.2109,-45.9979,-22.6841,1014.79
20642,0.105213,9.75131,1.22908,2.52,-3.01,0.63,22.4434,-46.3063,-23.3934,1014.79
20648,0.109995,9.77523,1.17647,2.87,-3.08,0.84,23.1117,-46.7998,-22.2851,1014.79
20654,0.0860832,9.79436,1.13343,2.94,-3.29,0.91,22.5015,-46.1213,-22.8762,1014.79
20660,-0.0191296,9.74653,1.23386,2.24,-4.06,0.63,23.1117,-47.1698,-22.3295,1014.79
20666,0.224773,9.87087,2.33859,2.1,-2.52,0.91,22.792,-46.2755,-23.0978,1014.81
20672,0.11956,9.83261,1.20995,2.17,-3.36,0.21,22.5305,-46.9231,-23.6446,1014.81
20678,0.0908656,9.78479,1.19082,2.24,-3.36,0.21,22.3271,-46.8615,-22.359,1014.81
20684,0.0334768,9.75131,1.20995,2.38,-3.92,0.56,22.6177,-46.6456,-22.8762,1014.81
20690,0.0047824,9.73218,1.23864,2.52,-3.36,0.21,22.763,-46.0905,-21.6793,1014.82
20696,0.105213,9.74653,1.19082,2.17,-3.29,0.42,22.269,-45.6895,-23.0535,1014.82
20702,0.0382592,9.74175,1.20516,2.17,-3.5,1.05,22.3271,-46.4297,-23.4525,1014.79
20708,0.0669536,9.69871,1.22908,2.87,-3.5,1.05,23.3441,-46.6147,-23.2899,1014.79
20714,0.0765184,9.74175,1.20995,2.66,-3.15,0.84,22.269,-46.6456,-22.8023,1014.79
20720,0.095648,9.74653,1.23386,2.94,-3.57,0.91,22.4724,-46.2447,-23.024,1014.81
20726,0.10043,9.7561,1.17169,3.01,-3.78,1.26,22.269,-47.1082,-21.8862,1014.81
20732,0.0621712,9.75131,1.23386,2.66,-3.57,1.68,22.3852,-47.4166,-23.6002,1014.8
20738,0.071736,9.76566,1.1956,2.8,-3.29,1.26,22.3271,-47.3857,-22.7432,1014.8
20744,0.114778,9.76566,1.20995,2.59,-3.29,0.63,22.0947,-45.9979,-20.9848,1014.81
20750,0.0765184,9.79436,1.18125,2.45,-3.57,1.61,22.2981,-46.3063,-21.5463,1014.81
20756,0.129125,9.77523,1.16212,2.87,-3.71,1.05,22.5886,-46.6764,-21.7827,1014.81
20762,0.095648,9.77523,1.20038,2.73,-3.57,0.56,22.5596,-46.5222,-23.4968,1014.81
20768,0.11956,9.75131,1.20995,2.52,-3.92,0.63,22.6468,-46.954,-23.5116,1014.81
20774,0.114778,9.7561,1.22429,2.45,-3.92,1.05,22.1237,-46.3063,-22.6989,1014.81
20780,0.13869,9.77523,1.17647,2.66,-3.29,0.91,22.3562,-47.2007,-23.0683,1014.81
20786,0.153037,9.85653,1.14778,2.45,-3.64,0.35,22.1237,-46.9848,-22.0192,1014.77
20792,0.148254,9.84696,1.11908,2.1,-3.43,0.49,22.8502,-47.0773,-20.9553,1014.77
20798,0.13869,9.79914,1.14299,2.59,-3.99,0.7,23.1117,-46.3063,-22.6989,1014.8
20804,0.105213,9.77044,1.23864,2.24,-3.64,0.42,21.9203,-46.3989,-21.768,1014.8
20810,0.124342,9.76088,1.23386,2.52,-3.43,0.14,22.9664,-46.7998,-21.6645,1014.82
20816,0.0860832,9.75131,1.20516,2.17,-3.15,0.7,22.2981,-46.954,-23.8662,1014.82
20822,0.071736,9.74175,1.22908,2.52,-3.43,1.12,22.5305,-46.368,-22.0339,1014.79
20828,0.105213,9.74175,1.25777,2.87,-4.06,0.84,22.7339,-46.4605,-22.2851,1014.79
20834,0.114778,9.71784,1.20995,2.59,-3.22,0.84,22.3852,-45.6895,-22.7137,1014.79
20840,0.109995,9.74653,1.18604,3.01,-3.43,1.19,22.1528,-46.368,-22.4625,1014.78
20846,0.095648,9.77523,1.18125,2.66,-3.5,0.91,22.1237,-45.9671,-22.1521,1014.78
20852,0.095648,9.78957,1.14778,3.08,-3.5,0.49,22.4724,-46.4297,-23.7037,1014.79
20858,0.0765184,9.78957,1.17169,2.59,-3.29,1.4,22.24,-46.5531,-24.014,1014.79
20864,0.172166,9.81827,1.1956,2.59,-3.99,0.56,22.3852,-46.5839,-21.8271,1014.8
20870,0.129125,9.82783,1.12865,2.59,-3.64,0.84,21.9203,-47.4782,-21.8714,1014.8
20876,0.124342,9.7561,1.15734,2.52,-3.92,1.19,22.2109,-46.4297,-22.6693,1014.8
20882,0.176949,9.8087,1.14299,2.66,-3.78,0.21,22.0366,-46.7073,-22.1374,1014.8
20888,0.162602,9.82783,1.16212,1.75,-3.71,0,22.3271,-46.0905,-22.6102,1014.8
20894,0.191296,9.82305,1.17169,2.03,-3.57,0.63,22.4143,-46.6764,-23.2899,1014.77
20900,0.105213,9.82305,1.18125,2.17,-3.08,0.42,22.4724,-46.6764,-22.6545,1014.77
20906,0.0765184,9.78479,1.1956,2.1,-2.94,0.28,22.4434,-46.7381,-23.2308,1014.78
20912,0.13869,9.7561,1.21473,1.82,-3.78,0.35,22.0366,-47.1698,-23.3343,1014.78
20918,0.176949,9.75131,1.22908,2.38,-4.06,0.91,21.9785,-46.7998,-22.226,1014.8
20924,0.10043,9.78001,1.23864,2.38,-3.5,0.7,22.9664,-46.2138,-22.9057,1014.8
20930,0.114778,9.72262,1.21473,2.66,-3.92,0.14,22.0947,-47.139,-23.9105,1014.79
20936,0.105213,9.73218,1.20038,2.52,-3.71,0.84,22.5886,-47.1698,-22.5807,1014.79
20942,0.105213,9.74175,1.23386,2.66,-3.92,0.07,22.6177,-46.7073,-22.4625,1014.79
20948,0.0908656,9.74175,1.20995,2.45,-3.29,1.05,22.5886,-46.7689,-22.9205,1014.81
20954,0.109995,9.69392,1.25299,3.15,-3.71,0.98,22.0656,-46.5531,-22.1226,1014.81
20960,0.143472,9.76088,1.19082,3.01,-4.13,0.63,22.5886,-46.4297,-21.0291,1014.8
20966,0.176949,9.78479,1.10473,2.59,-3.71,1.4,22.269,-46.7073,-22.2556,1014.8
20972,0.143472,9.77044,1.16691,2.8,-3.43,0.7,22.8502,-46.3989,-21.9601,1014.8
20978,0.196078,9.79436,1.13343,2.38,-3.43,0.63,22.9954,-46.7689,-21.8271,1014.8
20984,0.181731,9.85174,1.13343,2.24,-3.71,0.49,22.0947,-47.0465,-23.4229,1014.8
20990,0.210426,9.83261,1.09039,2.31,-3.57,0.14,22.2109,-46.6456,-22.2556,1014.8
20996,0.133907,9.79914,1.12386,2.17,-3.43,0,22.24,-46.6764,-21.9896,1014.8
21002,0.124342,9.78479,1.16212,1.54,-3.5,-0.21,22.24,-46.368,-22.9648,1014.8
21008,0.11956,9.76566,1.19082,1.61,-3.57,0,22.2109,-46.3989,-23.0535,1014.8
21014,0.129125,9.76566,1.16691,2.1,-3.22,0.14,21.9494,-46.5839,-22.093,1014.79
21020,0.129125,9.76566,1.17169,2.03,-3.78,0.07,21.8332,-46.2138,-21.5611,1014.79
21026,0.129125,9.78001,1.19082,1.68,-3.57,-0.21,21.8913,-45.9671,-22.625,1014.83
21032,0.11956,9.73697,1.20995,1.54,-3.78,-0.21,22.5015,-46.0905,-22.5216,1014.83
21038,0.133907,9.73218,1.20995,1.89,-3.57,0.7,21.8913,-46.3989,-21.0587,1014.79
21044,0.109995,9.72262,1.20995,2.1,-3.71,0.42,21.9785,-45.2886,-21.6202,1014.79
21050,0.10043,9.73218,1.21951,2.38,-3.57,0.56,22.0947,-46.2138,-22.5216,1014.77
21056,0.095648,9.70349,1.23864,2.38,-3.99,0.7,22.4143,-46.4914,-21.9009,1014.77
21062,0.109995,9.72262,1.22429,2.8,-3.85,0.77,22.0366,-46.0905,-21.8418,1014.77
21068,0.143472,9.77523,1.16691,2.59,-3.29,0.63,22.1528,-45.5353,-21.9009,1014.78
21074,0.162602,9.79914,1.15256,2.94,-3.57,0.63,21.6588,-46.7998,-21.2803,1014.78
21080,0.148254,9.78001,1.18604,2.52,-3.29,0.56,22.5886,-45.9054,-22.0635,1014.78
21086,0.157819,9.78957,1.13821,2.45,-3.08,0.77,22.4434,-46.7073,-22.3738,1014.78
21092,0.162602,9.78001,1.16691,2.45,-3.5,0.63,22.7049,-46.9231,-22.8023,1014.84
21098,0.215208,9.82305,1.10952,2.59,-3.08,0.21,22.6468,-45.9363,-22.7432,1014.84
21104,0.143472,9.8087,1.16212,1.96,-3.29,0.21,21.9203,-46.0596,-21.9896,1014.8
21110,0.11956,9.78001,1.16691,2.31,-3.43,0.63,22.3562,-46.5839,-20.8962,1014.8
21116,0.143472,9.79436,1.15256,1.96,-3.57,0.14,22.0075,-46.9848,-22.5363,1014.8
21122,0.200861,9.79914,1.13343,1.96,-3.43,-0.35,22.2981,-46.183,-21.8418,1014.79
21128,0.162602,9.7561,1.17169,2.1,-3.5,0.14,22.3852,-46.1213,-23.1274,1014.79
21134,0.162602,9.77523,1.18604,2.24,-3.36,0.42,21.8913,-46.5222,-22.1226,1014.8
21140,0.109995,9.73697,1.22908,2.17,-3.57,0.7,22.0656,-46.5531,-22.1965,1014.8
21146,0.0765184,9.7274,1.20038,2.17,-3.71,0.56,22.5596,-46.4297,-22.1226,1014.8
21152,0.133907,9.73697,1.18604,2.52,-3.08,0,22.5305,-46.8923,-21.8123,1014.8
21158,0.11956,9.76088,1.20995,2.59,-3.85,0.42,22.2981,-46.7689,-21.5611,1014.81
21164,0.124342,9.74175,1.15734,2.45,-3.64,0.84,22.6758,-46.5222,-21.3099,1014.81
21170,0.105213,9.77044,1.17169,2.45,-3.22,0.28,22.1528,-46.6147,-21.7975,1014.79
21176,0.13869,9.76088,1.14778,2.31,-3.64,0.84,22.6177,-46.183,-20.3938,1014.79
21182,0.148254,9.76566,1.16691,2.45,-3.29,0.98,21.6298,-46.3989,-22.7432,1014.79
21188,0.13869,9.79436,1.15256,2.52,-3.36,0.7,21.8041,-46.3372,-21.9009,1014.79
21194,0.153037,9.82305,1.10952,2.17,-3.43,0.7,22.3852,-46.5222,-20.7927,1014.79
21200,0.157819,9.77044,1.16212,2.24,-3.36,0.84,22.5886,-46.7689,-22.5807,1014.81
21206,0.162602,9.79436,1.12386,1.89,-3.29,0.77,22.2109,-45.9363,-22.4625,1014.81
21212,0.200861,9.79914,1.12386,2.03,-3.29,0.28,22.6758,-46.2755,-22.1965,1014.8
21218,0.210426,9.77523,1.13821,2.45,-3.43,0.21,22.1237,-46.5222,-23.748,1014.8
21224,0.162602,9.7561,1.15256,1.82,-3.22,0.56,21.5135,-46.9231,-23.4229,1014.81
21230,0.23912,9.8087,1.13821,2.24,-2.87,0.35,21.8913,-46.5222,-22.7875,1014.81
21236,0.21999,9.82305,1.12865,2.24,-2.73,-0.21,22.1818,-46.0596,-23.2308,1014.81
21242,0.095648,9.7274,1.1956,1.75,-2.73,-0.56,21.8332,-46.6456,-23.5411,1014.81
21248,0.10043,9.73218,1.23864,1.96,-3.5,0.35,22.792,-46.2755,-23.615,1014.81
21254,0.10043,9.69871,1.26255,2.17,-3.57,0.63,22.4143,-47.2624,-22.3886,1014.81
21260,0.133907,9.74653,1.20516,2.59,-3.64,-0.14,22.0947,-46.1521,-23.2456,1014.81
21266,0.143472,9.77044,1.17647,2.52,-3.78,0.21,22.3271,-46.3372,-22.891,1014.81
21272,0.124342,9.76088,1.16691,2.66,-3.43,0.7,22.1237,-46.4914,-23.4672,1014.81
21278,0.133907,9.76566,1.16691,2.59,-3.22,0.7,22.0947,-46.368,-21.768,1014.83
21284,0.133907,9.75131,1.16691,2.45,-3.29,0.84,21.6879,-46.7073,-21.7975,1014.83
21290,0.157819,9.78001,1.15256,2.94,-3.22,0.91,22.5015,-46.8306,-23.024,1014.82
21296,0.143472,9.78479,1.14778,2.52,-3.64,0.56,22.5886,-46.1521,-22.5659,1014.82
21302,0.167384,9.78001,1.10952,2.17,-3.71,0.84,21.8332,-46.6764,-22.4772,1014.82
21308,0.143472,9.78001,1.16212,2.66,-3.99,0.77,22.2109,-46.3063,-22.1669,1014.76
21314,0.215208,9.77523,1.13343,2.45,-3.78,0.56,21.8041,-46.4297,-22.4033,1014.76
21320,0.200861,9.76566,1.12386,1.82,-3.5,0.63,22.3562,-46.5839,-22.1078,1014.79
21326,0.210426,9.78957,1.13821,2.24,-3.64,0.42,22.1528,-47.1698,-21.9453,1014.79
21332,0.210426,9.77523,1.20038,2.45,-2.59,0.21,22.0075,-46.368,-22.2999,1014.8
21338,0.186514,9.78957,1.15734,2.03,-3.36,0.14,22.5015,-46.183,-22.8023,1014.8
21344,0.200861,9.79914,1.12386,2.1,-3.5,0.28,22.5886,-46.3372,-22.6841,1014.79
21350,0.172166,9.78479,1.18604,1.96,-3.29,-0.21,22.5015,-46.5222,-23.4525,1014.79
21356,0.13869,8.60354,1.14778,1.54,-3.36,-0.42,21.6007,-47.0465,-21.9748,1014.79
21362,0.129125,9.7561,1.20038,1.96,-3.5,-0.21,22.1818,-46.5839,-22.9205,1014.82
21368,0.124342,9.74653,1.20516,1.4,-3.08,0.28,22.8792,-46.1213,-22.093,1014.82
21374,0.143472,9.71784,1.18125,2.17,-3.71,0.63,22.6468,-46.183,-22.4329,1014.79
21380,0.143472,9.75131,1.18125,2.03,-3.29,0.14,22.269,-46.4297,-23.4081,1014.79
21386,0.167384,9.76088,1.17169,1.96,-3.08,0.49,22.8211,-46.5222,-24.2652,1014.82
21392,0.124342,9.7561,1.15256,2.24,-3.57,0.28,22.3852,-46.1213,-22.226,1014.82
21398,0.148254,9.78001,1.17169,2.1,-3.78,0.28,22.2109,-47.0157,-23.4229,1014.79
21404,0.13869,9.76566,1.15734,2.17,-3.57,0.49,23.0536,-46.5839,-22.2704,1014.79
21410,0.167384,9.77523,1.15256,1.75,-3.36,0.77,22.8792,-46.7689,-22.8023,1014.79
21416,0.176949,9.74653,1.16212,2.1,-3.29,0.56,22.8502,-47.2007,-22.8466,1014.79
21422,0.114778,9.75131,1.17647,2.03,-3.64,0.7,21.7169,-46.6147,-21.9305,1014.79
21428,0.191296,9.76088,1.15256,2.31,-3.78,0.63,22.1818,-45.7821,-23.5264,1014.78
21434,0.176949,9.77044,1.14299,1.68,-3.57,0.14,21.8041,-45.7821,-22.8171,1014.78
21440,0.210426,9.77044,1.15734,2.31,-3.29,0.84,22.3271,-46.2138,-22.6693,1014.78
21446,0.23912,9.79914,1.17169,1.89,-3.57,0.56,22.24,-46.4914,-22.758,1014.78
21452,0.196078,9.78957,1.1143,1.82,-3.5,-0.42,22.6468,-47.0465,-22.2704,1014.8
21458,0.167384,9.78957,1.13821,2.1,-3.29,0.35,22.0656,-46.8615,-22.2113,1014.8
21464,0.210426,9.76088,1.16212,1.82,-3.5,0,22.9083,-46.7689,-22.2851,1014.8
21470,0.210426,9.77523,1.17647,2.03,-3.36,-0.42,22.269,-46.7381,-22.0044,1014.8
21476,0.162602,9.8087,1.16691,2.17,-3.43,-0.35,22.6758,-45.9363,-22.5068,1014.8
21482,0.114778,9.76088,1.19082,2.03,-3.71,-0.35,22.0075,-46.1521,-21.9601,1014.76
21488,0.11956,9.7274,1.20995,1.75,-3.43,-0.35,22.5015,-46.5531,-22.2113,1014.76
21494,0.176949,9.7561,1.1956,1.89,-3.57,0.21,21.9785,-47.1082,-22.9205,1014.83
21500,0.129125,9.79436,1.18125,1.96,-3.85,0.28,22.792,-46.7998,-22.9501,1014.83
21506,0.133907,9.76566,1.13821,2.03,-3.36,0.07,22.763,-46.8923,-22.7432,1014.8
21512,0.153037,9.73697,1.16691,2.38,-3.57,0.28,22.8211,-46.3372,-22.8319,1014.8
21518,0.157819,9.73697,1.20516,1.68,-3.64,0.49,21.8913,-46.0905,-21.4133,1014.79
21524,0.162602,9.78479,1.17169,2.17,-3.85,0.07,22.6177,-45.9671,-22.6693,1014.79
21530,0.200861,9.79436,1.20995,2.1,-3.92,0.63,22.9954,-45.8129,-23.4672,1014.79
21536,0.157819,9.77044,1.14778,2.45,-4.34,0.7,22.0656,-47.2007,-23.5116,1014.81
21542,0.172166,9.78001,1.13821,2.03,-4.41,0.14,23.3441,-46.954,-22.2704,1014.81
21548,0.215208,9.79914,1.19082,2.1,-3.29,0.28,22.4143,-46.6764,-22.4181,1014.8
21554,0.172166,9.77044,1.22429,2.24,-3.64,0.63,21.8332,-46.6764,-22.6989,1014.8
21560,0.234338,9.78479,1.16212,2.24,-3.64,0.28,22.792,-46.9231,-21.8271,1014.78
21566,0.253467,9.80392,1.15734,1.96,-3.57,0.07,21.8622,-46.2755,-22.7875,1014.78
21572,0.186514,9.76566,1.1143,2.31,-3.43,-0.28,21.9203,-47.0465,-22.9648,1014.77
21578,0.162602,9.81349,1.16691,2.24,-3.43,0.28,22.24,-46.8306,-23.4081,1014.77
21584,0.181731,9.80392,1.14299,1.68,-3.71,0.07,22.0366,-46.8615,-22.3886,1014.77
21590,0.191296,9.78957,1.11908,1.47,-3.08,-0.21,21.6879,-46.4605,-21.236,1014.79
21596,0.172166,9.76088,1.16212,2.1,-3.71,0.07,22.5596,-46.4297,-22.2556,1014.79
21602,0.153037,9.77044,1.17647,2.17,-3.71,0.14,22.24,-46.954,-22.1817,1014.8
21608,0.162602,9.77044,1.12386,1.75,-3.5,-0.35,22.2981,-46.6456,-22.093,1014.8
21614,0.129125,9.75131,1.26255,2.31,-4.06,-0.21,21.9785,-46.3989,-22.226,1014.8
21620,0.153037,9.74175,1.18604,2.38,-3.99,0.07,21.9203,-46.368,-21.4281,1014.8
21626,0.205643,9.75131,1.15734,2.03,-3.92,0.21,22.24,-46.6764,-20.7632,1014.82
21632,0.124342,9.77044,1.18604,2.03,-3.29,0.49,21.7751,-46.3989,-22.2851,1014.82
21638,0.200861,9.76566,1.14299,2.66,-3.92,0.56,21.9494,-46.1521,-23.1865,1014.76
21644,0.181731,9.76566,1.13821,2.03,-3.92,0.35,21.746,-46.8306,-23.4525,1014.76
21650,0.234338,9.78479,1.14778,2.45,-3.5,0.35,22.0656,-46.4914,-23.0831,1014.76
21656,0.23912,9.78957,1.15256,2.1,-3.43,0.49,21.8041,-45.8437,-22.093,1014.79
21662,0.243902,9.77044,1.18604,2.45,-3.85,0.35,22.1237,-46.0288,-23.1126,1014.79
21668,0.176949,9.74175,1.20038,2.87,-3.36,0.07,22.0075,-46.2138,-22.625,1014.79
21674,0.224773,9.77523,1.16212,2.45,-2.94,0.35,22.2981,-46.368,-24.0879,1014.79
21680,0.263032,9.8374,1.09039,2.24,-3.43,-0.14,22.6177,-46.7073,-23.3934,1014.84
21686,0.263032,9.79436,1.12865,1.96,-3.29,-0.21,22.8502,-45.8746,-21.8271,1014.84
21692,0.200861,9.76566,1.19082,2.17,-3.64,-0.42,22.3271,-46.7381,-22.7728,1014.8
21698,0.172166,9.77044,1.18604,1.89,-3.22,-0.21,22.3562,-46.7689,-23.0092,1014.8
21704,0.162602,9.7561,1.17169,2.31,-3.36,0.35,22.1528,-46.7998,-21.7236,1014.8
21710,0.153037,9.75131,1.21473,2.03,-3.71,-0.35,21.5426,-46.3063,-21.9305,1014.79
21716,0.157819,9.77523,1.17647,2.24,-4.13,-0.56,21.8332,-46.2138,-22.0487,1014.79
21722,0.186514,9.78479,1.0856,1.89,-3.08,-0.63,22.269,-46.5531,-21.9601,1014.8
21728,0.10043,9.71784,1.22908,2.24,-3.64,0.28,22.5015,-45.9979,-21.8566,1014.8
21734,0.129125,9.71784,1.14778,1.96,-3.57,0.21,22.763,-46.3063,-22.3738,1014.77
21740,0.205643,9.76088,1.12386,2.17,-3.57,0.21,21.5717,-46.8923,-23.2013,1014.77
21746,0.133907,9.73218,1.15734,2.1,-3.36,0.28,22.0075,-46.3989,-22.6398,1014.81
21752,0.176949,9.73697,1.18604,2.52,-4.2,0.35,22.0366,-46.5839,-21.5906,1014.81
21758,0.200861,9.74653,1.19082,2.87,-3.43,0.42,22.24,-45.9054,-21.9305,1014.81
21764,0.162602,9.77523,1.16691,2.59,-3.64,0.07,22.0947,-46.7381,-22.6841,1014.82
21770,0.229555,9.78479,1.15256,2.94,-3.92,0.28,21.9785,-46.6147,-21.5611,1014.82
21776,0.229555,9.78001,1.13821,2.31,-3.99,0.49,22.7049,-46.3989,-22.5807,1014.81
21782,0.200861,9.7561,1.12865,2.8,-3.85,0.35,21.6879,-46.8306,-21.7532,1014.81
21788,0.210426,9.78001,1.15256,2.73,-3.71,0.07,22.5015,-46.7689,-22.4772,1014.8
21794,0.25825,9.79914,1.12865,3.08,-3.43,-0.21,22.0366,-46.4605,-21.8418,1014.8
21800,0.229555,9.80392,1.13821,2.38,-3.57,0.14,21.8041,-46.2138,-23.6741,1014.79
21806,0.215208,9.81349,1.10952,2.1,-3.36,-0.42,21.9785,-46.3372,-22.8319,1014.79
21812,0.243902,9.81349,1.1143,2.17,-3.78,-0.84,22.24,-46.5839,-21.3247,1014.79
21818,0.0765184,9.76566,1.17169,2.31,-3.5,-0.21,21.9494,-46.9848,-22.2556,1014.79
21824,0.200861,9.79436,1.09995,1.82,-3.22,-0.35,22.0947,-46.7381,-21.9748,1014.79
21830,0.124342,9.78001,1.14299,1.75,-3.71,-0.42,22.24,-46.9848,-21.6054,1014.8
21836,0.181731,9.73697,1.14299,2.1,-3.78,0.07,21.7169,-46.7689,-22.625,1014.8
21842,0.167384,9.77044,1.14778,2.03,-3.78,-0.14,21.6588,-46.5839,-22.5068,1014.8
21848,0.176949,9.74653,1.13821,1.75,-3.29,0,21.8913,-46.3063,-22.8319,1014.8
21854,0.167384,9.76088,1.14778,2.17,-3.85,0.7,21.7169,-46.2138,-23.3638,1014.81
21860,0.148254,9.76088,1.13343,1.96,-3.57,0.42,21.8622,-46.6764,-21.2065,1014.81
21866,0.172166,9.72262,1.14778,2.17,-3.29,0.07,22.0075,-47.0157,-21.9748,1014.79
21872,0.167384,9.73218,1.18604,2.38,-3.71,0.21,21.8913,-46.3989,-22.492,1014.79
21878,0.157819,9.75131,1.15734,1.96,-3.71,0.98,21.5135,-46.2138,-22.3886,1014.79
21884,0.176949,9.74653,1.12386,2.87,-4.2,0.42,21.6007,-46.368,-22.1078,1014.8
21890,0.21999,9.79436,1.10473,2.38,-3.36,0.21,22.1237,-46.5531,-22.6398,1014.8
21896,0.153037,9.76566,1.18604,2.59,-3.5,0.07,21.3101,-46.368,-21.2951,1014.83
21902,0.21999,9.79436,1.17169,2.59,-3.71,0.63,21.8041,-46.6147,-23.0683,1014.83
21908,0.25825,9.78957,1.09995,2.66,-4.13,0.49,21.4845,-46.4605,-22.9501,1014.84
21914,0.25825,9.80392,1.14778,2.59,-4.06,0.14,21.252,-46.5222,-22.0487,1014.84
21920,0.210426,9.82305,1.09517,2.03,-2.94,-0.07,21.746,-46.0596,-21.0291,1014.8
21926,0.196078,9.77523,1.1143,1.82,-3.64,0.35,21.6298,-45.6895,-21.9009,1014.8
21932,0.248685,9.77044,1.12865,2.31,-3.43,-0.14,21.8332,-46.5222,-21.3099,1014.8
21938,0.186514,9.81349,1.14778,2.38,-3.29,-0.49,22.2109,-46.6147,-23.1865,1014.81
21944,0.186514,9.82305,1.11908,2.45,-3.22,-0.07,20.235,-47.4474,-23.0978,1014.81
21950,0.181731,9.78479,1.15734,1.96,-3.36,0.21,21.8041,-46.3063,-22.4181,1014.82
21956,0.181731,9.74175,1.16212,2.45,-3.57,0,22.0075,-46.0596,-22.6693,1014.82
21962,0.176949,9.76088,1.12386,2.31,-3.29,0.49,21.8332,-47.0157,-22.3442,1014.81
21968,0.148254,9.78479,1.13343,2.45,-3.29,0.07,21.8913,-46.6147,-22.4477,1014.81
21974,0.181731,9.78957,1.12865,1.75,-3.36,0.42,21.746,-46.4914,-22.3738,1014.81
21980,0.196078,9.75131,1.15734,1.82,-3.57,0.42,21.8913,-46.2138,-22.9944,1014.81
21986,0.215208,9.77044,1.14778,2.17,-3.64,0.28,21.9785,-46.7689,-21.7532,1014.77
21992,0.191296,9.7561,1.13821,1.96,-3.22,0.84,21.5717,-45.9979,-22.5511,1014.77
21998,0.196078,9.78001,1.11908,2.24,-3.64,0.42,21.9203,-46.4605,-22.5807,1014.77
22004,0.210426,9.76566,1.16212,2.31,-3.64,0.77,22.4143,-46.4914,-21.9009,1014.77
22010,0.200861,9.77044,1.12386,2.45,-3.71,0.49,22.0656,-46.3372,-22.3147,1014.77
22016,0.277379,9.82783,1.15256,2.1,-3.43,-0.21,21.7751,-46.0288,-21.0291,1014.83
22022,0.296509,9.77523,1.12386,2.03,-3.43,0.35,22.1818,-46.5222,-22.9796,1014.83
22028,0.210426,9.77523,1.12865,2.31,-3.29,-0.28,21.5717,-46.2447,-21.8123,1014.82
22034,0.181731,9.78479,1.14778,1.96,-3.43,-0.21,22.0656,-47.0157,-21.9601,1014.82
22040,0.229555,9.76566,1.17169,2.1,-3.15,-0.21,22.5015,-46.368,-21.3099,1014.77
22046,0.200861,9.77523,1.12865,2.1,-3.08,-0.28,22.0947,-47.0465,-21.4429,1014.77
22052,0.148254,9.76566,1.14299,1.75,-3.29,-0.35,23.0536,-46.2138,-20.7632,1014.77
22058,0.153037,9.76566,1.13821,2.24,-3.43,-0.07,22.2109,-46.4914,-21.9601,1014.81
22064,0.186514,9.74653,1.16691,2.38,-3.08,-0.14,22.3562,-46.5839,-21.2065,1014.81
22070,0.267814,9.80392,1.1143,2.03,-3.92,-0.28,22.3852,-46.2447,-22.0192,1014.81
22076,0.129125,9.80392,1.01865,1.96,-3.85,-0.21,22.0656,-46.368,-21.1326,1014.81
22082,0.224773,9.75131,1.15734,1.82,-3.43,-0.14,22.3562,-46.6456,-21.0439,1014.8
22088,0.105213,9.65088,1.25777,2.24,-3.36,0.14,22.3562,-46.7381,-21.9896,1014.8
22094,0.196078,9.77044,1.11908,2.38,-3.71,0.77,22.5305,-46.7381,-21.5759,1014.81
22100,0.200861,9.75131,1.14778,2.38,-3.57,0.42,21.7751,-47.2315,-20.6597,1014.81
22106,0.176949,9.82783,1.12386,1.96,-3.43,0.91,22.3852,-46.9231,-21.103,1014.81
22112,0.248685,9.74175,1.08082,2.1,-3.22,0.42,22.0075,-46.368,-21.4724,1014.83
22118,0.205643,9.76566,1.10473,1.82,-3.64,0,22.269,-46.6764,-19.847,1014.83
22124,0.234338,9.8087,1.13343,1.82,-3.71,0.28,21.7169,-46.5531,-20.6893,1014.78
22130,0.229555,9.78957,1.12386,1.96,-3.57,0.49,21.8041,-46.0288,-22.3295,1014.78
22136,0.25825,9.76088,1.13821,1.96,-3.29,-0.07,21.746,-46.6456,-21.6793,1014.77
22142,0.234338,9.74175,1.12386,1.89,-3.22,0.07,22.1818,-47.2932,-21.9009,1014.77
22148,0.25825,9.77044,1.15256,2.03,-3.64,-0.28,22.24,-47.2932,-22.0339,1014.79
22154,0.263032,9.78479,1.1143,1.61,-3.01,-0.49,22.0075,-46.7998,-21.369,1014.79
22160,0.224773,9.76088,1.15734,2.52,-3.01,-0.07,22.0075,-47.2315,-21.9305,1014.79
22166,0.124342,9.78001,1.16691,1.96,-3.64,-0.21,21.8332,-46.4297,-21.4133,1014.79
22172,0.200861,9.76088,1.16212,1.96,-3.5,0.28,21.3392,-47.2007,-21.7089,1014.79
22178,0.215208,9.77044,1.14778,2.45,-3.43,0.21,22.5305,-46.7381,-21.6793,1014.81
22184,0.196078,9.78479,1.16212,1.75,-3.15,-0.49,22.7049,-46.6456,-22.2851,1014.81
22190,0.172166,9.80392,1.15734,1.82,-3.64,-0.14,21.8622,-46.8306,-21.3838,1014.81
22196,0.176949,9.74175,1.13821,2.38,-3.64,0.28,21.7751,-47.1082,-21.7384,1014.81
22202,0.191296,9.74653,1.15256,2.17,-3.29,0.14,22.5305,-46.954,-22.1817,1014.8
22208,0.172166,9.77044,1.15256,2.17,-3.78,-0.21,22.2109,-47.2932,-22.226,1014.8
22214,0.200861,9.76088,1.11908,2.03,-3.78,-0.28,21.7751,-46.6456,-22.2408,1014.82
22220,0.200861,9.78957,1.12386,2.17,-3.15,0.42,21.8041,-47.1082,-21.9157,1014.82
22226,0.210426,9.76566,1.12865,1.96,-2.87,0.21,21.6588,-47.0773,-22.2408,1014.82
22232,0.200861,9.76566,1.10952,1.75,-3.36,0,21.4554,-46.4914,-22.1817,1014.8
22238,0.191296,9.79436,1.11908,1.68,-3.22,0.35,21.4845,-47.2624,-22.7875,1014.8
22244,0.263032,9.78001,1.13821,1.75,-3.85,0.14,22.0366,-46.4914,-21.8566,1014.8
22250,0.248685,9.81349,1.12865,2.38,-3.85,0,22.2109,-47.3549,-23.748,1014.8
22256,0.243902,9.78479,1.10473,2.24,-3.08,-0.28,22.1237,-46.7073,-22.3886,1014.8
22262,0.234338,9.79436,1.12386,1.33,-3.08,-0.14,21.746,-46.9231,-22.5068,1014.8
22268,0.243902,9.78001,1.17169,1.61,-3.29,-0.14,22.24,-46.4914,-21.8862,1014.84
22274,0.200861,9.79436,1.16212,2.17,-3.36,0.14,23.0826,-46.9848,-22.1374,1014.84
22280,0.191296,9.78001,1.12386,1.82,-3.5,-0.56,21.8041,-46.8306,-21.4872,1014.84
22286,0.215208,9.74653,1.14299,1.61,-3.85,-0.56,21.9494,-46.8923,-22.1669,1014.83
22292,0.176949,9.7561,1.14299,1.96,-3.71,-0.28,22.3852,-47.0157,-21.7827,1014.83
22298,0.234338,9.75131,1.14778,2.1,-3.22,-0.42,22.0656,-46.8615,-22.6989,1014.81
22304,0.181731,9.7561,1.17169,2.17,-3.57,0,21.3973,-47.6941,-22.8466,1014.81
22310,0.186514,9.75131,1.12386,2.03,-3.5,-0.28,22.4434,-47.2007,-22.9501,1014.78
22316,0.253467,9.77044,1.1143,1.75,-3.36,-0.07,22.24,-46.3372,-22.0487,1014.78
22322,0.200861,9.76088,1.16691,2.1,-2.73,0.21,21.746,-46.8923,-22.9501,1014.82
22328,0.200861,9.76088,1.14299,2.17,-3.43,0,21.6588,-46.954,-22.9057,1014.82
22334,0.181731,9.78479,1.13821,1.89,-3.99,-0.07,22.5015,-46.6456,-21.6497,1014.78
22340,0.186514,9.77523,1.17647,1.96,-3.57,0.42,21.9494,-47.8175,-22.2999,1014.78
22346,0.21999,9.78001,1.12386,2.38,-3.29,0.49,21.8913,-46.7073,-22.0783,1014.78
22352,0.210426,9.75131,1.1143,1.96,-3.64,-0.14,21.3101,-47.2932,-23.5559,1014.78
22358,0.23912,9.78957,1.1143,2.45,-3.71,-0.49,22.24,-46.6147,-22.7432,1014.78
22364,0.253467,9.75131,1.12865,1.89,-3.99,0.42,22.0366,-46.7998,-22.226,1014.79
22370,0.25825,9.78957,1.12865,2.1,-3.43,-17.85,22.5596,-45.9054,-22.8171,1014.79
22376,0.291726,9.8087,1.11908,1.96,-3.22,-0.14,22.269,-46.3989,-22.6398,1014.81
22382,0.210426,9.79914,1.10952,1.96,-3.43,-0.56,21.6588,-46.7689,-22.9057,1014.81
22388,0.243902,9.83261,1.12386,2.52,-4.48,-1.4,22.1528,-46.7998,-22.3738,1014.78
22394,0.234338,9.8087,1.11908,2.1,-3.36,-0.49,22.5305,-46.7689,-21.9748,1014.78
22400,0.243902,9.80392,1.13821,1.61,-2.17,-0.49,21.8332,-47.0465,-21.9601,1014.78
22406,0.162602,9.77523,1.15256,1.82,-3.08,-1.61,21.9494,-46.4297,-21.5759,1014.83
22412,0.129125,9.74175,1.16212,2.8,-4.34,-1.05,21.6879,-47.5091,-21.5759,1014.83
22418,0.229555,9.77523,1.16212,1.26,-3.85,0.07,22.0075,-47.5399,-22.2408,1014.8
22424,0.186514,9.74175,1.13821,2.24,-3.29,0.07,21.9785,-46.9231,-20.9405,1014.8
22430,0.186514,9.74653,1.15256,1.96,-3.64,-0.7,22.792,-47.3549,-21.9157,1014.8
22436,0.157819,9.74175,1.16691,2.1,-3.29,-0.35,21.8622,-46.6147,-22.0487,1014.8
22442,0.191296,9.77044,1.12386,1.89,-3.71,-0.35,21.8332,-47.1082,-22.0783,1014.79
22448,0.167384,9.72262,1.1143,1.82,-3.36,0.28,22.0075,-46.2138,-22.492,1014.79
22454,0.200861,9.76088,1.12865,2.03,-3.43,0.35,21.7169,-47.0773,-22.3295,1014.79
22460,0.210426,9.75131,1.12865,2.1,-3.71,-0.14,22.24,-46.7381,-22.6841,1014.8
22466,0.21999,9.77523,1.16212,1.82,-3.5,-0.28,21.7169,-45.9054,-21.9157,1014.8
22472,0.200861,9.79914,1.12865,2.1,-3.22,0.77,22.4143,-46.6456,-23.0978,1014.8
22478,0.210426,9.78957,1.12865,2.17,-4.06,0.14,22.4143,-46.3989,-22.1817,1014.8
22484,0.234338,9.78001,1.16691,1.96,-3.29,-0.56,22.0366,-46.2755,-22.4181,1014.77
22490,0.25825,9.79436,1.12386,2.17,-3.43,0.28,22.1237,-46.5531,-21.7089,1014.77
22496,0.243902,9.78957,1.11908,2.03,-3.5,0.21,21.8041,-47.139,-21.3099,1014.77
22502,0.229555,9.79436,1.10473,1.96,-3.08,-0.35,22.24,-47.0773,-22.8171,1014.77
22508,0.186514,9.8087,1.10473,1.89,-3.57,-0.28,22.1818,-46.4914,-22.1374,1014.79
22514,0.234338,9.81349,1.15734,2.24,-3.85,-0.56,21.9785,-46.3989,-22.4181,1014.79
22520,0.234338,9.78479,1.13821,2.17,-3.22,-0.28,22.3271,-46.4605,-21.2065,1014.79
22526,0.200861,9.82305,1.11908,1.89,-2.73,-0.14,22.24,-46.3989,-21.7236,1014.78
22532,0.181731,9.76566,1.14778,1.96,-3.36,-0.35,22.6468,-46.5531,-22.0487,1014.78
22538,0.153037,9.76566,1.15734,1.75,-3.29,-0.14,21.6298,-46.4914,-22.9057,1014.82
22544,0.205643,9.73218,1.15734,2.03,-3.15,0.28,22.0075,-46.5839,-22.6398,1014.82
22550,0.215208,9.77044,1.15256,2.31,-3.85,-0.49,22.1237,-46.0905,-22.3442,1014.84
22556,0.186514,9.74175,1.15734,2.1,-3.5,-0.07,22.7049,-46.6456,-22.1965,1014.84
22562,0.229555,9.7561,1.13343,1.96,-3.36,-0.07,21.9203,-46.4914,-22.891,1014.79
22568,0.210426,9.77523,1.11908,1.89,-3.22,0.49,21.3392,-46.6456,-21.6497,1014.79
22574,0.196078,9.78479,1.15256,2.1,-3.43,0,21.7169,-47.3857,-22.0044,1014.79
22580,0.210426,9.79436,1.15256,2.38,-3.57,0.77,21.8913,-46.7998,-22.4033,1014.77
22586,0.210426,9.76566,1.12865,2.17,-3.57,-0.07,22.0366,-46.368,-21.8714,1014.77
22592,0.229555,9.76566,1.11908,2.31,-3.57,-0.21,22.1528,-46.4605,-21.5906,1014.81
22598,0.224773,9.80392,1.09995,1.96,-3.43,0.28,21.8332,-47.4474,-21.3542,1014.81
22604,0.229555,9.76566,1.13821,2.1,-3.22,0,22.1818,-46.8306,-21.2951,1014.82
22610,0.191296,9.78957,1.11908,2.52,-3.5,-0.35,22.5596,-46.8923,-21.9601,1014.82
22616,0.229555,9.78957,1.1143,2.24,-3.08,-0.28,22.4434,-47.324,-22.1078,1014.8
22622,0.243902,9.78957,1.1143,1.89,-3.71,0,22.3852,-46.8615,-21.6497,1014.8
22628,0.210426,9.80392,1.15256,2.1,-3.85,-0.49,22.3852,-46.9231,-21.768,1014.8
22634,0.186514,9.77523,1.18125,2.45,-3.43,-0.49,22.0947,-46.0905,-22.1374,1014.84
22640,0.205643,9.78957,1.13821,1.96,-3.22,0.07,21.6588,-46.6764,-23.0092,1014.84
22646,0.196078,9.76566,1.1143,1.96,-3.08,-0.14,22.792,-46.8923,-22.1817,1014.79
22652,0.191296,9.7561,1.15256,2.1,-3.43,0.35,22.0366,-46.4605,-21.3542,1014.79
22658,0.215208,9.76088,1.12865,2.17,-3.57,0.35,22.1818,-46.6147,-22.0044,1014.8
22664,0.21999,9.81827,1.11908,2.24,-3.36,-0.14,22.1528,-46.5839,-22.4033,1014.8
22670,0.200861,9.79914,1.11908,1.89,-3.85,0.14,22.2109,-47.2624,-21.9453,1014.77
22676,0.23912,9.76566,1.15256,2.24,-3.78,0.56,21.7169,-47.1082,-21.7089,1014.77
22682,0.200861,9.76088,1.12865,2.31,-3.57,0.07,20.7581,-46.7689,-22.2556,1014.81
22688,0.176949,9.77523,1.13821,2.31,-2.94,0.21,21.6588,-46.6764,-22.226,1014.81
22694,0.234338,9.76088,1.10952,1.96,-3.5,0.21,22.0947,-47.2007,-22.0783,1014.81
22700,0.267814,9.76566,1.12386,2.03,-3.57,-0.21,22.5596,-47.2624,-22.093,1014.77
22706,0.21999,9.76088,1.15734,1.89,-3.22,-0.21,22.3271,-47.1698,-22.0339,1014.77
22712,0.248685,9.84218,1.0856,1.89,-3.22,-0.49,22.0075,-47.139,-21.5906,1014.78
22718,0.291726,9.80392,1.07604,1.61,-3.64,-0.56,22.24,-46.7073,-22.0783,1014.78
22724,0.267814,9.77523,1.17169,1.82,-2.94,-0.35,22.2109,-45.9054,-22.0192,1014.81
22730,0.181731,9.74653,1.16212,1.61,-3.57,-0.77,22.0656,-45.9363,-21.8566,1014.81
22736,0.181731,9.76088,1.16212,1.82,-3.29,-0.35,21.8622,-47.1082,-22.4181,1014.81
22742,0.172166,9.76088,1.10473,1.82,-3.22,-0.49,21.7751,-46.183,-21.3247,1014.81
22748,0.210426,9.7561,1.10473,1.89,-3.64,-0.28,21.6298,-46.0905,-22.0635,1014.81
22754,0.148254,9.76088,1.11908,2.1,-3.22,-0.07,21.8622,-47.0773,-22.1521,1014.79
22760,0.172166,9.76566,1.14299,1.89,-3.29,0,22.3852,-46.6456,-22.2704,1014.79
22766,0.172166,9.73218,1.12386,1.54,-3.36,0.49,21.8913,-46.6764,-22.5511,1014.8
22772,0.196078,9.73697,1.12865,2.1,-3.71,-0.14,21.4554,-46.5531,-22.4625,1014.8
22778,0.191296,9.75131,1.13343,1.89,-3.29,0.07,21.6588,-46.7381,-22.7137,1014.79
22784,0.21999,9.78957,1.11908,1.61,-3.5,0.28,22.0075,-46.8306,-22.6545,1014.79
22790,0.210426,9.76566,1.14778,1.96,-3.29,-0.21,21.7169,-46.1521,-23.6002,1014.75
22796,0.23912,9.78957,1.11908,1.54,-3.36,0.42,21.1067,-48.0025,-22.0635,1014.75
22802,0.215208,9.78001,1.12386,2.31,-3.85,0.14,21.5717,-46.7689,-21.9009,1014.75
22808,0.205643,9.8087,1.10473,1.89,-3.64,0.07,21.6879,-47.139,-21.5463,1014.79
22814,0.248685,9.82305,1.09995,1.75,-3.22,0.14,22.1818,-46.4605,-21.9305,1014.79
22820,0.248685,9.78001,1.11908,1.68,-3.5,0.07,20.9034,-46.4297,-22.0339,1014.8
22826,0.215208,9.7561,1.1143,1.89,-3.29,-0.42,21.3973,-46.9231,-22.5511,1014.8
22832,0.234338,9.81827,1.09517,1.61,-3.22,-0.07,21.6588,-45.5045,-21.4872,1014.8
22838,0.23912,9.78479,1.11908,1.75,-3.36,-0.35,21.7169,-46.4297,-22.5659,1014.8
22844,0.186514,9.78001,1.15734,2.03,-3.15,-0.56,21.4554,-46.7998,-22.2999,1014.81
22850,0.191296,9.77523,1.18125,1.82,-3.22,-0.56,21.8622,-46.9848,-21.5611,1014.81
22856,0.21999,9.78479,1.10952,2.24,-2.94,-0.63,22.1237,-46.954,-22.6989,1014.79
22862,0.210426,9.78957,1.14299,1.96,-3.36,-0.49,22.5305,-47.2007,-21.9157,1014.79
22868,0.172166,9.77044,1.13343,1.89,-3.22,-0.21,21.3392,-46.5222,-23.4377,1014.79
22874,0.191296,9.74175,1.17647,2.1,-3.36,-0.14,21.3683,-46.4605,-22.9353,1014.8
22880,0.200861,9.76088,1.17169,2.38,-3.36,-0.14,21.3392,-45.7204,-22.8023,1014.8
22886,0.205643,9.7561,1.1143,1.96,-3.22,0.42,21.5717,-46.8306,-22.2408,1014.78
22892,0.176949,9.78479,1.13343,1.75,-3.43,-0.28,21.5135,-46.8306,-22.0635,1014.78
22898,0.196078,9.74653,1.09995,2.24,-3.78,-0.07,21.3101,-47.324,-23.2899,1014.8
22904,0.181731,9.77523,1.15256,1.75,-3.36,0.42,22.1818,-47.3857,-22.0783,1014.8
22910,0.205643,9.77044,1.09995,2.03,-3.64,0.63,22.1237,-46.9231,-23.1274,1014.79
22916,0.21999,9.78479,1.10473,1.75,-3.92,0.35,21.3683,-46.6456,-21.7975,1014.79
22922,0.191296,9.79914,1.12865,2.31,-3.36,0,21.4845,-46.5839,-21.8271,1014.79
22928,0.229555,9.77523,1.11908,1.68,-3.22,0.35,21.6588,-46.8615,-22.9944,1014.8
22934,0.21999,9.7561,1.10473,2.03,-3.01,0.07,21.8913,-46.2755,-22.6102,1014.8
22940,0.21999,9.77044,1.15256,1.89,-3.57,-0.07,21.8622,-47.1698,-23.1126,1014.78
22946,0.234338,9.78957,1.1143,2.24,-3.22,0,22.1237,-47.3857,-23.349,1014.78
22952,0.243902,9.79436,1.13343,1.89,-2.94,-0.07,21.5135,-47.2315,-22.5659,1014.78
22958,0.315638,9.77523,1.09517,2.31,-3.57,-0.77,21.1067,-47.139,-23.3343,1014.78
22964,0.267814,9.77523,1.09995,1.68,-3.29,-0.49,21.3101,-46.9848,-22.7728,1014.78
22970,0.196078,9.78001,1.11908,1.82,-3.43,-0.91,21.223,-47.5091,-24.4868,1014.78
22976,0.186514,9.7561,1.14299,2.17,-3.5,0,21.7169,-45.9979,-21.6497,1014.78
22982,0.181731,9.7561,1.18125,1.89,-3.64,-0.49,21.8041,-46.6456,-22.7137,1014.81
22988,0.200861,9.73218,1.15256,1.75,-3.5,-0.28,22.0656,-47.4782,-22.1965,1014.81
22994,0.186514,9.76566,1.10952,1.47,-3.43,-0.35,22.4724,-47.2007,-23.9696,1014.79
23000,0.186514,9.74653,1.14299,2.17,-3.29,-0.28,22.4143,-46.8306,-23.3638,1014.79
23006,0.176949,9.76088,1.16691,2.17,-3.43,0.35,21.223,-46.6456,-21.7827,1014.8
23012,0.200861,9.77523,1.14299,2.17,-3.78,-0.42,21.8332,-46.9848,-21.7236,1014.8
23018,0.186514,9.76566,1.13343,2.17,-3.22,-0.56,22.1818,-46.8306,-22.0044,1014.79
23024,0.210426,9.74175,1.12386,2.31,-3.57,0.28,21.6298,-46.5531,-20.8666,1014.79
23030,0.21999,9.74175,1.13821,1.96,-3.36,0,21.7751,-47.0465,-20.8075,1014.82
23036,0.229555,9.72262,1.17169,2.52,-3.64,0.14,21.8332,-46.6456,-22.3442,1014.82
23042,0.23912,9.78001,1.11908,2.24,-3.01,0.35,21.0196,-46.7381,-21.103,1014.82
23048,0.224773,9.76566,1.12386,1.89,-3.01,0.21,21.9785,-47.0157,-21.5611,1014.81
23054,0.210426,9.77044,1.12386,2.24,-3.64,17.85,21.8041,-46.6147,-22.492,1014.81
23060,0.25825,9.78001,1.0856,1.82,-3.36,0.14,21.9203,-46.4605,-22.5807,1014.82
23066,0.243902,9.78479,1.10473,2.38,-3.57,-0.28,21.9203,-46.368,-22.1226,1014.82
23072,0.23912,9.80392,1.09995,1.82,-3.43,0.14,21.8041,-47.1698,-23.9401,1014.81
23078,0.229555,9.81827,1.07604,1.82,-3.5,0.07,21.4554,-46.7073,-22.5363,1014.81
23084,0.253467,9.8087,1.0856,1.75,-3.57,-0.7,21.7169,-47.1082,-22.625,1014.8
23090,0.25825,9.8087,1.09995,1.26,-3.71,-0.56,21.9203,-46.6147,-22.2851,1014.8
23096,0.253467,9.79914,1.12386,1.68,-2.8,-0.28,21.6298,-47.0157,-22.1817,1014.8
23102,0.181731,9.77523,1.11908,1.61,-2.94,-0.98,22.1818,-46.6456,-23.1569,1014.78
23108,0.200861,9.80392,1.0856,1.26,-2.87,-0.7,21.8041,-46.7689,-22.7284,1014.78
23114,0.215208,9.76566,1.12386,1.61,-3.15,-0.91,22.269,-47.8175,-21.7236,1014.8
23120,0.191296,9.75131,1.15734,1.54,-3.57,-0.7,21.5135,-46.7381,-22.2556,1014.8
23126,0.181731,9.7274,1.13343,1.68,-2.66,-0.56,22.0947,-46.954,-22.4329,1014.8
23132,0.176949,9.76088,1.15734,1.54,-3.5,-0.28,21.6588,-47.5708,-23.2308,1014.8
23138,0.181731,9.74653,1.14299,1.54,-3.22,0,22.3852,-46.7073,-22.9944,1014.76
23144,0.215208,9.76088,1.11908,1.82,-3.08,-0.07,22.0075,-46.5222,-22.9648,1014.76
23150,0.200861,9.74653,1.15256,1.82,-3.15,-0.07,21.7169,-46.9231,-21.9896,1014.76
23156,0.21999,9.76088,1.12386,2.1,-3.43,-0.21,21.8622,-45.9363,-21.3838,1014.8
23162,0.215208,9.76088,1.13343,1.82,-3.15,0.42,21.0486,-46.4297,-22.9353,1014.8
23168,0.196078,9.7561,1.13821,2.1,-3.29,0.21,22.2109,-46.9231,-22.5216,1014.81
23174,0.224773,9.78957,1.14778,1.82,-3.78,-0.28,22.1528,-47.3857,-22.8614,1014.81
23180,0.172166,9.75131,1.13343,2.03,-3.5,-0.21,21.5426,-46.8615,-22.9205,1014.79
23186,0.25825,9.78479,1.16691,1.96,-3.43,0.35,22.5015,-46.8923,-22.4329,1014.79
23192,0.282162,9.78957,1.13343,2.1,-3.29,-0.21,21.5717,-47.3549,-22.1965,1014.78
23198,0.21999,9.78957,1.09995,2.24,-2.87,-0.49,23.257,-46.6456,-21.7384,1014.78
23204,0.181731,9.81349,1.07604,1.96,-3.5,-0.84,21.3392,-46.5222,-21.4872,1014.79
23210,0.153037,9.76088,1.1143,2.1,-3.71,-0.42,22.3562,-46.7998,-22.3442,1014.79
23216,0.229555,9.78957,1.11908,2.1,-3.36,-0.21,21.8913,-46.0596,-22.9796,1014.79
23222,0.234338,9.77523,1.09995,1.68,-2.94,-0.56,22.0656,-45.9671,-21.768,1014.81
23228,0.186514,9.79436,1.14778,1.47,-3.5,-0.49,22.2109,-46.2755,-21.8714,1014.81
23234,0.181731,9.78001,1.15256,1.96,-3.64,-0.63,22.24,-46.4605,-22.1078,1014.8
23240,0.200861,9.75131,1.16691,1.75,-3.64,-0.21,22.3852,-47.1082,-21.9009,1014.8
23246,0.200861,9.73697,1.12386,2.17,-3.57,-0.42,22.1818,-45.8129,-22.891,1014.8
23252,0.196078,9.74653,1.15256,2.17,-3.64,-0.63,21.6879,-46.6764,-22.625,1014.8
23258,0.200861,9.74653,1.1143,2.03,-3.22,-0.28,22.4434,-46.3063,-22.5363,1014.81
23264,0.234338,9.74175,1.11908,2.24,-3.43,-0.28,21.8913,-46.9848,-22.8614,1014.81
23270,0.210426,9.75131,1.13821,2.38,-3.57,-0.21,21.5135,-46.8615,-22.9353,1014.81
23276,0.210426,9.75131,1.15256,2.17,-2.94,-0.07,21.3392,-47.5708,-22.4772,1014.8
23282,0.196078,9.73218,1.11908,2.31,-3.71,0.28,21.7169,-46.6456,-22.3738,1014.8
23288,0.191296,9.77523,1.13821,2.1,-3.36,-0.14,22.2109,-46.4605,-22.7284,1014.82
23294,0.210426,9.77523,1.13343,1.89,-2.94,-0.42,21.3683,-46.3989,-23.3343,1014.82
23300,0.215208,9.77523,1.12386,2.31,-3.57,0,21.2811,-46.1521,-21.6793,1014.79
23306,0.21999,9.78001,1.15734,1.96,-3.5,0.14,22.1237,-46.5531,-22.1965,1014.79
23312,0.291726,9.80392,1.12865,1.75,-3.29,-0.56,21.8913,-46.9231,-21.6054,1014.81
23318,0.291726,9.81349,1.10952,1.61,-3.5,-0.77,21.6007,-46.8306,-21.5759,1014.81
23324,0.210426,9.79914,1.13343,1.75,-3.43,-0.56,22.1818,-46.6764,-22.5363,1014.81
23330,0.186514,9.77044,1.14778,1.75,-3.22,-0.84,21.7169,-46.4914,-22.7284,1014.8
23336,0.196078,9.7561,1.13343,2.03,-3.36,-0.28,21.746,-46.5531,-22.3295,1014.8
23342,0.191296,9.77044,1.12865,1.54,-3.36,-0.49,21.6588,-46.4297,-21.9748,1014.78
23348,0.191296,9.73218,1.15256,1.89,-3.5,-0.63,21.746,-46.8615,-22.1078,1014.78
23354,0.186514,9.73218,1.11908,2.03,-3.78,0.07,21.8041,-47.0773,-22.7137,1014.79
23360,0.210426,9.77044,1.11908,1.96,-3.01,-0.07,21.1649,-47.7558,-21.5611,1014.79
23366,0.215208,9.78001,1.13343,1.61,-3.08,-0.35,22.2981,-46.5531,-22.2556,1014.81
23372,0.186514,9.76088,1.13821,1.89,-3.29,0.07,21.2811,-46.8306,-22.0783,1014.81
23378,0.191296,9.74653,1.13821,1.89,-3.71,0,21.0196,-47.8175,-23.0092,1014.76
23384,0.191296,9.76088,1.13821,1.61,-3.36,-0.28,21.7169,-46.954,-22.3886,1014.76
23390,0.205643,9.74175,1.10473,1.96,-3.43,0.07,21.3683,-46.6147,-21.9009,1014.76
23396,0.186514,9.76566,1.16691,2.03,-3.64,-0.21,21.7169,-46.2138,-21.4724,1014.78
23402,0.205643,9.78001,1.14299,2.1,-3.78,0,22.0075,-46.7381,-21.3394,1014.78
23408,0.210426,9.77523,1.14778,2.03,-3.43,0.07,21.7169,-46.0905,-21.7975,1014.82
23414,0.23912,9.79436,1.11908,2.17,-3.22,-0.35,21.5426,-46.5222,-23.2013,1014.82
23420,0.25825,9.78957,1.14299,2.03,-3.57,-0.49,22.0075,-46.8615,-23.024,1014.84
23426,0.196078,9.76088,1.14299,1.33,-3.29,-0.28,21.3392,-46.7381,-22.5807,1014.84
23432,0.215208,9.79436,1.14299,1.96,-3.15,-0.84,21.252,-46.5839,-22.359,1014.8
23438,0.224773,9.78957,1.10952,1.61,-2.94,-0.28,21.0777,-46.954,-22.2556,1014.8
23444,0.215208,9.78479,1.14778,1.68,-3.85,-0.49,21.4264,-45.9671,-22.2408,1014.8
23450,0.200861,9.76088,1.12386,1.54,-3.29,-0.42,21.4845,-46.6456,-21.4281,1014.81
23456,0.162602,9.76566,1.13821,1.89,-3.01,-0.42,21.4554,-46.7381,-22.891,1014.81
23462,0.167384,9.7274,1.14778,1.75,-3.43,0.07,21.0486,-47.2315,-21.5463,1014.8
23468,0.148254,9.74653,1.13343,1.96,-3.57,-0.28,22.3562,-46.6456,-22.3295,1014.8
23474,0.181731,9.73697,1.12865,1.75,-3.92,-0.28,22.1818,-46.9231,-21.1178,1014.79
23480,0.186514,9.76566,1.12386,1.68,-3.57,-0.07,21.3973,-46.9231,-22.2704,1014.79
23486,0.196078,9.7561,1.14299,1.82,-3.78,-0.07,21.6879,-46.5531,-22.226,1014.8
23492,0.196078,9.7561,1.16691,1.68,-3.43,0.07,22.0366,-46.5531,-22.3147,1014.8
23498,0.186514,9.74175,1.10473,2.03,-3.22,0.07,21.3973,-46.8923,-21.8418,1014.8
23504,0.196078,9.76566,1.13821,1.89,-3.15,0.07,21.3683,-46.954,-23.2604,1014.78
23510,0.210426,9.74175,1.09995,1.82,-3.5,0,21.3392,-45.9979,-21.9305,1014.78
23516,0.224773,9.79914,1.16212,1.75,-3.5,0.14,21.8913,-46.9231,-22.3442,1014.8
23522,0.248685,9.80392,1.12386,1.96,-3.15,-0.35,21.8913,-47.5091,-22.1226,1014.8
23528,0.286944,9.78957,1.12386,2.17,-3.22,-0.28,21.9203,-46.6764,-21.2212,1014.78
23534,0.248685,9.78001,1.1143,1.89,-3.01,-0.49,21.6298,-47.324,-21.7532,1014.78
23540,0.176949,9.8087,1.11908,1.96,-3.01,-0.63,21.5717,-46.6147,-22.5807,1014.79
23546,0.191296,9.79436,1.13821,1.61,-3.78,-0.56,21.0486,-46.4605,-22.1374,1014.79
23552,0.215208,9.76566,1.1956,1.68,-3.36,-0.49,21.7751,-46.9231,-23.0978,1014.82
23558,0.176949,9.74653,1.17169,1.96,-3.29,-0.35,22.0656,-46.8306,-22.3295,1014.82
23564,0.162602,9.7561,1.13821,1.82,-3.43,-0.56,22.4434,-46.5222,-22.3738,1014.82
23570,0.157819,9.76566,1.16212,2.03,-3.99,-0.56,22.24,-46.3063,-22.9353,1014.8
23576,0.181731,9.72262,1.14778,1.82,-3.01,-0.21,22.0075,-46.0905,-22.2556,1014.8
23582,0.176949,9.78001,1.16691,1.89,-2.59,-0.28,22.1528,-46.8615,-23.6446,1014.8
23588,0.191296,9.7561,1.15256,2.17,-3.36,-0.49,21.8041,-45.5045,-22.3738,1014.8
23594,0.172166,9.75131,1.13343,1.75,-3.29,0.07,21.1358,-46.2138,-22.5363,1014.83
23600,0.215208,9.73697,1.13821,2.1,-3.36,0.14,22.0656,-46.1521,-22.1521,1014.83
23606,0.21999,9.73697,1.15256,2.03,-3.43,0.28,22.0947,-46.8923,-22.226,1014.82
23612,0.200861,9.76566,1.14299,1.75,-3.43,0.14,21.5135,-45.8746,-22.492,1014.82
23618,0.196078,9.76566,1.11908,2.17,-3.85,0.28,21.5717,-46.5222,-22.6398,1014.82
23624,0.210426,9.8087,1.13343,2.45,-3.78,0.21,21.6298,-46.9231,-22.7875,1014.81
23630,0.224773,9.79436,1.13343,2.1,-3.22,0.28,21.8332,-45.8437,-22.8466,1014.81
23636,0.263032,9.82783,1.1143,2.17,-3.5,0.07,21.9785,-46.3063,-23.5411,1014.78
23642,0.23912,9.77523,1.14299,1.96,-3.5,-0.07,22.0366,-45.9671,-22.5216,1014.78
23648,0.25825,9.81349,1.1143,1.89,-3.5,0,21.2811,-46.3063,-22.3738,1014.75
23654,0.224773,9.80392,1.12865,1.61,-2.73,-0.35,21.6007,-46.7998,-22.6102,1014.75
23660,0.186514,9.82305,1.09039,2.03,-3.5,-0.49,22.4434,-46.0596,-22.3738,1014.74
23666,0.181731,9.78479,1.1143,1.96,-3.5,-0.42,21.9785,-46.3372,-21.8418,1014.74
23672,0.205643,9.76088,1.18604,1.89,-3.43,-0.7,21.3973,-45.8129,-22.0487,1014.74
23678,0.205643,9.77523,1.18604,1.75,-3.01,-0.7,22.4724,-46.368,-21.4872,1014.82
23684,0.176949,9.77044,1.10473,1.61,-2.8,-0.28,21.8913,-46.6456,-22.6398,1014.82
23690,0.153037,9.75131,1.18125,1.89,-3.5,0.28,22.0947,-45.6895,-21.8566,1014.82
23696,0.210426,9.79436,1.14299,2.24,-3.78,-0.28,21.3973,-46.5222,-22.3295,1014.82
23702,0.176949,9.76088,1.12386,1.75,-3.36,-0.56,21.9203,-46.6456,-22.0487,1014.82
23708,0.210426,9.76088,1.13821,2.03,-3.36,0.07,21.4554,-46.183,-21.5168,1014.82
23714,0.172166,9.74175,1.14778,1.75,-3.78,0.28,21.746,-46.5839,-21.768,1014.85
23720,0.200861,9.77044,1.16212,2.17,-3.36,0.07,21.746,-46.368,-21.9305,1014.85
23726,0.196078,9.79436,1.14299,2.03,-3.15,-0.21,22.5305,-45.6279,-21.369,1014.81
23732,0.191296,9.76566,1.12865,2.24,-3.5,0.07,21.9203,-46.2138,-22.6398,1014.81
23738,0.224773,9.77523,1.11908,2.17,-3.64,-0.14,21.8913,-46.3989,-21.4872,1014.81
23744,0.229555,9.80392,1.13821,2.1,-3.5,-0.21,22.0366,-46.4297,-21.768,1014.8
23750,0.253467,9.79436,1.12865,2.59,-3.08,0.07,21.9785,-46.0905,-21.6941,1014.8
23756,0.263032,9.79914,1.13343,1.96,-3.22,-0.56,21.6588,-46.0596,-22.6545,1014.8
23762,0.234338,9.8087,1.12865,2.1,-3.64,-0.14,21.6298,-46.1213,-22.6398,1014.8
23768,0.200861,9.78001,1.10473,1.75,-3.36,-0.49,22.2109,-47.0465,-21.4724,1014.81
23774,0.21999,9.80392,1.12865,2.1,-3.08,-0.35,22.1237,-46.3372,-21.8271,1014.81
23780,0.191296,9.78001,1.12386,1.96,-3.5,-0.56,22.3852,-46.183,-22.5954,1014.82
23786,0.23912,9.78479,1.1143,1.47,-3.43,-0.35,22.2109,-46.5839,-22.093,1014.82
23792,0.205643,9.78001,1.15256,2.03,-3.78,-0.7,21.9494,-45.9054,-22.1521,1014.82
23798,0.143472,9.77044,1.16212,1.89,-3.29,-0.14,21.4554,-47.3857,-21.6054,1014.81
23804,0.191296,9.77044,1.17169,2.17,-3.22,-0.14,21.8332,-46.4914,-22.0339,1014.81
23810,0.205643,9.75131,1.14778,1.82,-3.57,0.28,22.1237,-46.2447,-23.024,1014.81
23816,0.200861,9.76566,1.11908,2.24,-3.71,-0.14,22.5305,-46.8306,-23.3195,1014.81
23822,0.162602,9.74653,1.19082,1.82,-3.5,0.28,22.269,-45.7821,-21.5611,1014.81
23828,0.181731,9.77523,1.15256,2.03,-3.71,0,22.4143,-46.5839,-21.768,1014.81
23834,0.200861,9.73218,1.09517,2.1,-3.64,0.07,22.24,-46.5222,-22.3295,1014.81
23840,0.21999,9.77044,1.11908,2.66,-3.5,0.21,22.0947,-46.1213,-21.2212,1014.81
23846,0.200861,9.76088,1.09517,2.03,-3.92,0.07,21.7169,-46.0596,-21.7384,1014.81
23852,0.210426,9.77044,1.14778,2.03,-3.78,0.07,21.6007,-46.6764,-23.3638,1014.79
23858,0.23912,9.76566,1.12865,2.03,-3.15,-0.07,21.7169,-46.3989,-23.3047,1014.79
23864,0.253467,9.8087,1.09039,1.89,-3.43,-0.28,22.5886,-46.6764,-23.0831,1014.79
23870,0.25825,9.8087,1.11908,2.17,-3.57,-0.35,21.6879,-47.1082,-23.2752,1014.79
23876,0.234338,9.80392,1.13821,1.96,-3.71,0,21.6588,-46.0905,-22.625,1014.78
23882,0.210426,9.77044,1.13343,1.82,-3.36,-0.07,22.4724,-46.8306,-21.6941,1014.78
23888,0.210426,9.78957,1.12386,2.31,-2.73,-0.49,21.9494,-46.2755,-21.3099,1014.81
23894,0.176949,9.77044,1.1143,1.89,-2.66,-0.14,21.9785,-46.8615,-21.5611,1014.81
23900,0.210426,9.76088,1.12865,1.96,-3.5,-0.84,20.9324,-46.3372,-22.5954,1014.79
23906,0.186514,9.77523,1.12386,1.68,-3.57,-0.42,22.0656,-46.183,-21.8271,1014.79
23912,0.234338,9.79436,1.10473,2.03,-3.15,-0.35,21.9494,-46.4914,-22.2113,1014.79
23918,0.176949,9.78479,1.10952,1.61,-3.22,-0.14,21.7751,-46.1213,-22.4772,1014.8
23924,0.143472,9.78479,1.12865,2.17,-3.92,-0.84,21.6588,-46.2447,-21.8123,1014.8
23930,0.191296,9.74653,1.14778,1.75,-3.29,-0.07,22.0366,-46.0905,-23.1569,1014.8
23936,0.205643,9.76088,1.12386,2.17,-3.01,0.14,22.5886,-46.5531,-21.8714,1014.8
23942,0.196078,9.77523,1.16212,1.82,-3.5,-0.07,21.746,-46.4605,-23.1126,1014.79
23948,0.191296,9.74653,1.10473,1.61,-3.43,0.07,22.4143,-45.9671,-22.2999,1014.79
23954,0.205643,9.78001,1.14778,1.33,-3.29,-0.14,22.269,-46.0288,-22.0192,1014.8
23960,0.200861,9.75131,1.12386,2.38,-3.29,0,22.3852,-46.4605,-22.492,1014.8
23966,0.200861,9.76566,1.12865,2.03,-2.94,0.49,22.0656,-46.4297,-22.7432,1014.8
23972,0.196078,9.78957,1.12386,1.82,-3.01,0.14,21.6588,-46.5531,-22.8023,1014.79
23978,0.248685,9.81349,1.1143,1.82,-3.5,-0.21,21.8041,-45.9363,-22.8762,1014.79
23984,0.23912,9.78957,1.07604,2.1,-3.43,-0.56,21.8622,-45.8746,-21.7827,1014.8
23990,0.21999,9.8087,1.09995,1.96,-3.01,-0.14,22.0366,-45.7821,-22.3738,1014.8
23996,0.215208,9.79914,1.12865,1.96,-2.8,-0.42,21.5426,-46.2138,-22.3886,1014.81
24002,0.234338,9.76566,1.16691,1.68,-2.73,-0.56,21.7751,-46.0596,-22.7284,1014.81
24008,0.191296,9.79436,1.13343,2.24,-3.15,-0.56,21.6007,-46.368,-23.024,1014.82
24014,0.181731,9.78957,1.15734,1.47,-2.8,-0.28,21.7169,-46.7998,-23.6002,1014.82
24020,0.191296,9.78479,1.16691,1.33,-3.22,-0.21,21.5426,-46.0905,-23.2013,1014.82
24026,0.172166,9.7274,1.15256,2.24,-3.5,0,21.6588,-46.3989,-21.9896,1014.78
24032,0.191296,9.7274,1.15256,2.24,-3.15,-0.42,21.7169,-46.5531,-23.4229,1014.78
24038,0.205643,9.78957,1.14299,1.82,-3.01,-0.07,21.7169,-46.2755,-22.0044,1014.78
24044,0.181731,9.77044,1.11908,2.17,-3.29,-0.21,21.9494,-46.0288,-22.4181,1014.78
24050,0.167384,9.76566,1.09995,1.96,-3.36,-0.49,21.6588,-46.2138,-21.9601,1014.81
24056,0.191296,9.78957,1.13343,2.31,-3.43,0,21.6588,-46.0905,-21.9748,1014.81
24062,0.167384,9.79914,1.14778,2.03,-3.57,-0.28,22.1237,-45.5045,-22.3295,1014.82
24068,0.176949,9.80392,1.1143,1.96,-3.78,0.07,21.8041,-46.183,-22.6545,1014.82
24074,0.21999,9.78001,1.09995,2.24,-3.71,-0.07,21.4845,-46.5222,-22.2556,1014.79
24080,0.229555,9.78957,1.11908,2.24,-3.08,0,21.1358,-46.3989,-21.4577,1014.79
24086,0.224773,9.77044,1.13343,1.75,-3.85,0,21.9494,-45.3195,-22.3886,1014.79
24092,0.215208,9.79436,1.12865,1.61,-3.36,-0.35,21.8913,-46.4605,-21.8271,1014.83
24098,0.282162,9.77523,1.14299,2.03,-3.22,0.14,21.7169,-46.5531,-21.7827,1014.83
24104,0.286944,9.81349,1.12386,2.52,-3.57,-0.63,22.3271,-45.9671,-22.4329,1014.8
24110,0.234338,9.82783,1.12386,1.82,-2.66,-0.49,22.3271,-46.1521,-23.3343,1014.8
24116,0.176949,9.81827,1.1143,2.03,-3.01,-0.63,21.8041,-45.7204,-21.6497,1014.8
24122,0.162602,9.77523,1.15256,1.82,-2.8,-0.91,21.6588,-46.183,-22.6989,1014.8
24128,0.200861,9.75131,1.15256,2.1,-3.29,-0.49,22.4724,-46.4914,-21.7827,1014.81
24134,0.172166,9.75131,1.16691,2.03,-3.29,-0.56,22.6177,-46.1213,-23.024,1014.81
24140,0.129125,9.7561,1.13821,2.03,-3.5,-0.28,22.5886,-46.368,-22.2999,1014.81
24146,0.148254,9.78479,1.12865,2.1,-3.64,-0.28,21.9494,-46.6456,-24.472,1014.82
24152,0.157819,9.74653,1.12865,1.75,-3.22,-17.92,21.8332,-46.2755,-22.5954,1014.82
24158,0.153037,9.76566,1.12865,1.96,-3.78,-0.21,22.2109,-46.3372,-23.2752,1014.81
24164,0.157819,9.78001,1.12865,1.82,-3.15,-0.07,22.3562,-45.7512,-23.3195,1014.81
24170,0.176949,9.7561,1.15256,1.96,-3.57,-0.28,22.0656,-45.7512,-21.4872,1014.81
24176,0.200861,9.76566,1.13343,1.82,-3.22,0.07,22.2981,-46.2447,-22.7432,1014.81
24182,0.215208,9.78479,1.11908,1.96,-3.43,0.28,22.4724,-45.7512,-23.3786,1014.83
24188,0.191296,9.78479,1.14778,1.68,-3.43,0.14,22.5015,-46.4605,-21.6645,1014.83
24194,0.21999,9.77044,1.16691,1.68,-3.64,0.14,21.9785,-46.0596,-22.8023,1014.83
24200,0.205643,9.78001,1.14778,2.1,-3.57,0.14,22.0075,-45.8129,-23.3786,1014.82
24206,0.229555,9.75131,1.13821,1.89,-3.01,-0.21,21.9203,-45.6895,-23.1865,1014.82
24212,0.243902,9.76566,1.12386,1.75,-3.57,-0.21,22.5886,-45.9979,-23.8662,1014.81
24218,0.191296,9.78957,1.1143,1.96,-3.5,0.14,21.746,-45.9363,-22.9796,1014.81
24224,0.196078,9.77523,1.13821,1.82,-3.08,-0.07,21.9785,-46.6147,-23.1569,1014.82
24230,0.248685,9.78957,1.14778,1.96,-3.71,-0.42,22.0947,-46.3989,-22.0044,1014.82
24236,0.253467,9.77523,1.15734,1.61,-2.87,-0.7,22.1528,-45.9979,-22.0783,1014.78
24242,0.167384,9.7561,1.15256,2.03,-3.29,-0.14,22.24,-47.3857,-23.0092,1014.78
24248,0.162602,9.7561,1.15256,1.82,-3.71,-0.35,22.1818,-46.6147,-23.2456,1014.78
24254,0.191296,9.7561,1.13343,1.82,-3.71,-0.21,21.9494,-46.6456,-23.0683,1014.78
24260,0.181731,9.76566,1.13821,1.89,-3.64,0.21,22.4724,-46.3063,-22.6693,1014.78
24266,0.186514,9.78479,1.10473,2.03,-3.29,0.14,22.1818,-46.4297,-22.7875,1014.81
24272,0.172166,9.77523,1.12386,2.1,-3.36,-0.42,22.1237,-46.4914,-23.2752,1014.81
24278,0.191296,9.74653,1.1143,2.17,-3.22,-0.21,22.3271,-46.954,-21.8714,1014.8
24284,0.172166,9.78001,1.15734,1.75,-3.36,0,21.3101,-46.7381,-21.0291,1014.8
24290,0.196078,9.77044,1.10473,1.96,-3.71,-0.14,22.0656,-46.3063,-22.4033,1014.81
24296,0.21999,9.76566,1.14299,1.75,-3.85,-0.21,21.8913,-46.1213,-21.9601,1014.81
24302,0.200861,9.78001,1.15256,1.61,-3.08,0.35,22.0366,-46.0905,-22.9648,1014.82
24308,0.210426,9.78001,1.17647,1.96,-3.64,-0.07,22.5886,-46.8923,-23.0535,1014.82
24314,0.200861,9.78479,1.11908,1.82,-3.15,-0.63,22.269,-46.5531,-22.8023,1014.82
