Timestamp,AccX,AccY,AccZ,AngularVelX,AngularVelY,AngularVelZ,MagX,MagY,MagZ,AirPressure
218156,0.229555,9.78957,0.946915,1.61,-2.66,0.28,-23.5244,-46.2447,11.0209,1014.83
218162,0.191296,9.80392,0.918221,1.54,-3.22,0.28,-24.1056,-45.6587,10.7549,1014.83
218168,0.143472,9.73218,1.04256,1.68,-3.22,0.14,-23.3501,-46.7381,9.64667,1014.83
218174,0.124342,9.73697,1.05213,1.89,-3.15,0.35,-23.4954,-47.4474,9.39547,1014.83
218180,0.167384,9.76566,1.02822,1.89,-3.08,0.35,-23.5244,-46.0288,10.3412,1014.83
218186,0.143472,9.7561,1.0043,2.03,-3.22,0.14,-23.4082,-46.8615,9.70578,1014.8
218192,0.114778,9.77044,1.05213,1.96,-3.22,0.07,-23.9894,-48.0334,9.33637,1014.8
218198,0.105213,9.76566,1.01865,2.17,-3.08,0.63,-23.2629,-46.6456,9.58757,1014.78
218204,0.10043,9.78001,0.985174,1.82,-2.8,0.77,-23.1467,-46.4297,9.92742,1014.78
218210,0.176949,9.82783,0.970827,2.38,-3.43,0.14,-23.6697,-47.5708,9.32159,1014.82
218216,0.11956,9.8087,0.942133,1.75,-2.94,0.77,-23.6697,-46.7381,8.67143,1014.82
218222,0.196078,9.78001,0.927786,1.75,-3.01,0.35,-24.5124,-45.5662,9.52846,1014.8
218228,0.172166,9.80392,0.966045,1.75,-3.64,0.14,-24.3961,-46.6147,9.32159,1014.8
218234,0.196078,9.81349,0.942133,1.12,-2.73,0,-24.0475,-47.2932,9.26248,1014.8
218240,0.129125,9.78001,0.989957,1.4,-3.57,0.21,-23.9603,-45.8746,9.3807,1014.81
218246,0.105213,9.78479,1.00909,0.98,-2.73,1.33,-23.2339,-46.0905,9.54324,1014.81
218252,0.157819,9.74653,1.03778,1.33,-3.22,0.14,-23.3501,-46.954,10.0013,1014.81
218258,0.186514,9.78957,0.985174,0.91,-3.43,-0.42,-23.6988,-46.2447,9.80921,1014.81
218264,0.176949,9.78001,0.989957,1.26,-3.22,0.35,-23.9312,-45.3811,10.0604,1014.84
218270,0.172166,9.78957,1.02343,1.33,-3.08,0.28,-23.8441,-46.9848,9.41025,1014.84
218276,0.11956,9.73697,1.12386,1.96,-2.94,0.14,-24.1637,-46.368,10.3412,1014.82
218282,0.13869,9.74653,1.0856,2.1,-3.43,0.35,-24.1056,-45.8129,9.63189,1014.82
218288,0.210426,9.77523,1.01387,2.24,-3.57,0.49,-23.4663,-46.4914,9.67622,1014.82
218294,0.23912,9.8087,1.0043,2.1,-2.87,0,-23.4373,-46.6147,8.73053,1014.84
218300,0.143472,9.81349,0.989957,2.03,-2.52,-0.14,-23.9894,-45.6895,10.1934,1014.84
218306,0.105213,9.79436,1.04735,2.1,-2.94,0.14,-24.1056,-46.5531,10.1786,1014.84
218312,0.133907,9.79914,1.01387,1.75,-3.01,0.42,-23.5244,-47.4166,8.99651,1014.84
218318,0.181731,9.78479,1.0043,2.24,-3.5,-0.14,-24.0765,-45.9671,10.09,1014.82
218324,0.167384,9.78001,0.980392,1.96,-3.29,-0.21,-23.6407,-46.368,9.75011,1014.82
218330,0.153037,9.81349,0.93735,1.82,-3.01,-0.21,-24.0184,-47.6324,9.15905,1014.79
218336,0.167384,9.83261,0.980392,1.61,-3.29,0.35,-23.9312,-46.0596,9.26248,1014.79
218342,0.162602,9.81827,0.966045,1.61,-2.87,-0.21,-23.4373,-45.6279,9.95698,1014.79
218348,0.181731,9.82305,0.989957,1.61,-3.22,0.42,-23.6697,-47.0773,8.28724,1014.81
218354,0.191296,9.78479,0.994739,1.4,-3.29,0.07,-23.292,-47.324,9.21815,1014.81
218360,0.129125,9.79436,1.04256,1.96,-2.73,-0.21,-23.786,-46.3989,9.11472,1014.85
218366,0.129125,9.7274,1.04256,1.47,-2.73,-17.92,-23.6697,-45.7821,8.70098,1014.85
218372,0.129125,9.76566,1.06648,2.38,-3.08,0.14,-23.786,-47.0465,8.56799,1014.82
218378,0.153037,9.74653,1.01387,2.1,-3.15,0.28,-23.5244,-45.6895,11.0504,1014.82
218384,0.172166,9.74653,0.999522,2.31,-3.36,-0.28,-24.2799,-45.7512,11.1095,1014.81
218390,0.200861,9.78957,0.989957,2.24,-3.36,0.14,-23.8441,-47.91,9.07039,1014.81
218396,0.157819,9.77523,0.999522,2.31,-2.52,0.56,-23.4373,-46.6147,9.72055,1014.81
218402,0.167384,9.80392,0.951698,2.17,-3.01,0.21,-22.9143,-45.5045,9.83876,1014.81
218408,0.157819,9.80392,0.966045,1.82,-3.01,0.14,-24.0184,-46.3989,9.32159,1014.81
218414,0.167384,9.78957,0.966045,2.17,-3.29,0.14,-24.2509,-46.7381,9.95698,1014.85
218420,0.200861,9.78957,0.95648,1.4,-2.73,-0.07,-23.4082,-45.5045,10.3116,1014.85
218426,0.205643,9.79436,0.966045,1.61,-3.15,0.07,-23.5244,-45.8746,8.89307,1014.83
218432,0.143472,9.82783,0.951698,1.82,-3.5,-0.42,-23.3211,-46.9231,8.16903,1014.83
218438,0.191296,9.81827,1.01865,1.61,-2.87,-0.35,-24.1637,-45.9054,9.64667,1014.82
218444,0.210426,9.8087,0.961262,1.47,-3.08,-0.21,-23.4373,-45.5045,9.83876,1014.82
218450,0.186514,9.78957,1.02343,1.54,-2.73,-0.21,-23.6116,-47.5399,10.0013,1014.81
218456,0.124342,9.76088,1.01387,1.82,-3.22,-0.28,-23.8441,-45.8437,8.99651,1014.81
218462,0.153037,9.74653,1.01387,1.75,-3.22,-0.21,-23.4373,-45.8746,11.1686,1014.81
218468,0.153037,9.77044,1.04256,1.96,-2.73,0.21,-23.8441,-47.1082,9.48413,1014.83
218474,0.167384,9.78479,1.01387,1.89,-2.66,-0.07,-23.9312,-46.7998,9.58757,1014.83
218480,0.162602,9.78957,1.01865,2.1,-3.08,0,-23.9312,-46.0905,10.5037,1014.83
218486,0.109995,9.76566,0.994739,2.31,-3.22,0.21,-24.2799,-46.7998,8.77486,1014.83
218492,0.176949,9.80392,1.01387,2.45,-3.43,-0.21,-24.0184,-47.4474,9.60234,1014.82
218498,0.133907,9.77044,1.0043,1.96,-3.29,0.21,-24.2218,-45.7821,8.46456,1014.82
218504,0.13869,9.78001,0.980392,2.31,-3.08,-0.07,-23.6697,-46.7073,8.6271,1014.83
218510,0.157819,9.76088,0.970827,2.17,-3.01,0.07,-23.5535,-47.0465,9.51368,1014.83
218516,0.181731,9.79914,0.985174,1.96,-2.66,0.63,-24.5414,-46.7073,9.75011,1014.83
218522,0.172166,9.78479,1.02343,2.31,-3.01,0,-23.7278,-45.5662,9.46935,1014.85
218528,0.13869,9.78001,0.980392,1.82,-3.29,0.14,-23.4082,-46.7998,8.6271,1014.85
218534,0.196078,9.8087,0.994739,2.17,-3.29,-0.28,-23.8731,-46.8923,8.95218,1014.83
218540,0.229555,9.78479,0.97561,2.24,-2.87,-0.49,-22.4203,-45.7512,10.7697,1014.83
218546,0.229555,9.79914,0.970827,1.68,-2.59,-0.49,-23.6407,-46.5531,9.61712,1014.83
218552,0.133907,9.81827,0.95648,1.82,-2.8,-0.7,-23.3792,-47.324,9.41025,1014.83
218558,0.109995,9.77523,0.980392,1.61,-3.15,-0.7,-22.8271,-46.7073,9.39547,1014.83
218564,0.162602,9.77044,0.985174,1.4,-2.45,-0.42,-23.3211,-46.0596,8.74531,1014.83
218570,0.210426,9.78957,0.97561,1.68,-3.08,-0.14,-23.6697,-46.9848,9.97175,1014.8
218576,0.143472,9.76566,0.980392,1.96,-2.8,-0.14,-23.0305,-45.9671,9.45458,1014.8
218582,0.0669536,9.78001,1.0043,1.82,-3.15,-0.21,-23.0305,-46.0596,10.0752,1014.8
218588,0.124342,9.78957,0.989957,1.96,-2.87,-0.63,-23.3501,-47.2932,8.67143,1014.83
218594,0.114778,9.75131,1.03778,1.96,-2.59,0.07,-23.2629,-47.0157,8.24291,1014.83
218600,0.11956,9.76088,1.05691,1.68,-3.08,0.42,-23.9022,-45.6895,10.1638,1014.84
218606,0.105213,9.77523,0.989957,2.1,-3.57,0.42,-23.6116,-46.4297,10.4889,1014.84
218612,0.143472,9.79914,0.970827,1.75,-3.15,0.07,-23.6697,-47.2007,8.24291,1014.85
218618,0.13869,9.8087,0.946915,1.82,-3.08,0.56,-23.1467,-46.2755,10.1195,1014.85
218624,0.210426,9.82783,0.95648,1.47,-3.29,0.7,-23.0886,-46.4605,10.1343,1014.83
218630,0.21999,9.82305,0.913438,1.47,-3.15,0,-23.4082,-46.4605,10.0456,1014.83
218636,0.186514,9.81827,0.918221,1.47,-2.8,0.07,-23.5826,-46.8923,8.98173,1014.83
218642,0.176949,9.79436,0.946915,0.84,-3.36,-0.49,-24.1056,-45.597,9.41025,1014.81
218648,0.176949,9.80392,0.961262,0.56,-3.29,0.14,-23.3211,-46.8306,9.52846,1014.81
218654,0.243902,9.8087,0.989957,0.98,-2.45,-0.35,-23.6407,-46.2447,9.24771,1014.84
218660,0.229555,9.81349,0.951698,0.84,-2.73,-0.77,-23.292,-45.8129,9.67622,1014.84
218666,0.148254,9.78479,1.0043,0.84,-2.94,-0.49,-23.9022,-46.183,9.05562,1014.83
218672,0.167384,9.78001,1.03778,1.05,-3.36,-1.05,-24.3961,-47.5708,8.47934,1014.83
218678,0.210426,9.72262,1.06169,0.98,-2.8,-0.7,-23.4954,-46.0596,9.3807,1014.84
218684,0.229555,9.76566,1.05213,1.54,-2.66,-0.77,-23.5826,-46.1213,10.0013,1014.84
218690,0.13869,9.78479,1.04256,1.47,-2.8,-1.05,-23.9312,-47.0465,9.55801,1014.84
218696,0.157819,9.77044,0.994739,1.68,-2.94,-0.84,-23.0886,-45.9979,9.86832,1014.8
218702,0.11956,9.7561,1.033,1.68,-2.66,-0.63,-24.0765,-45.3503,9.36592,1014.8
218708,0.13869,9.77523,1.04256,2.17,-2.8,-0.28,-23.5826,-46.7998,10.0456,1014.82
218714,0.114778,9.73218,1.08082,2.1,-2.87,-0.14,-23.4954,-46.5839,9.17383,1014.82
218720,0.143472,9.73697,1.06169,2.03,-2.31,-0.56,-23.3501,-45.1961,10.2377,1014.81
218726,0.114778,9.7274,1.05691,2.73,-3.36,0.14,-23.4373,-45.8746,9.15905,1014.81
218732,0.109995,9.7561,1.01865,2.45,-2.94,0.28,-23.8731,-46.954,8.33157,1014.84
218738,0.143472,9.75131,1.01387,2.52,-3.08,0.35,-23.7278,-45.0419,10.223,1014.84
218744,0.167384,9.77044,0.985174,2.17,-3.15,0.21,-23.786,-45.9054,8.99651,1014.82
218750,0.143472,9.78001,0.95648,2.59,-3.08,0.35,-23.2048,-46.6147,9.3807,1014.82
218756,0.162602,9.78001,0.961262,2.52,-2.73,0.56,-23.815,-46.5839,9.42502,1014.82
218762,0.172166,9.78479,0.951698,1.89,-3.08,0.91,-23.5244,-45.6279,10.6515,1014.85
218768,0.191296,9.82783,0.95648,2.17,-2.73,0.21,-23.5826,-46.7998,8.39068,1014.85
218774,0.200861,9.81349,0.932568,1.89,-2.38,-0.07,-23.6407,-46.6456,10.09,1014.84
218780,0.248685,9.8374,0.946915,1.54,-2.66,-0.28,-23.4663,-45.6895,10.5628,1014.84
218786,0.215208,9.84218,0.95648,1.75,-2.45,-0.91,-23.0305,-46.0596,9.95698,1014.85
218792,0.153037,9.77523,0.999522,1.89,-2.94,-0.42,-23.2048,-46.8923,8.8783,1014.85
218798,0.105213,9.77044,1.02822,2.03,-3.08,-0.42,-23.4373,-46.4297,9.79444,1014.8
218804,0.10043,9.78001,1.05213,2.38,-2.66,-0.28,-23.7278,-46.2447,10.8288,1014.8
218810,0.133907,9.74175,1.02822,2.03,-3.01,0.07,-23.7278,-47.2007,9.85354,1014.8
218816,0.114778,9.79436,1.00909,2.38,-2.94,0.28,-24.1056,-46.3063,9.01129,1014.8
218822,0.11956,9.76566,0.985174,1.89,-3.01,0.49,-23.786,-45.9671,10.3412,1014.8
218828,0.0860832,9.74653,1.01387,1.82,-3.08,0.35,-23.9603,-46.6764,10.6515,1014.83
218834,0.0860832,9.75131,0.985174,2.03,-3.29,0.63,-23.7278,-47.6016,9.75011,1014.83
218840,0.124342,9.73218,0.989957,2.31,-3.22,0.7,-23.5535,-45.4428,10.5185,1014.82
218846,0.157819,9.77044,0.980392,2.45,-3.29,0.42,-23.4082,-46.7381,9.51368,1014.82
218852,0.215208,9.79914,0.985174,2.31,-3.01,0.49,-23.0305,-47.4166,8.34635,1014.83
218858,0.205643,9.78479,0.946915,2.03,-2.94,0.28,-23.786,-46.6147,9.46935,1014.83
218864,0.11956,9.77523,1.00909,2.38,-2.94,0.28,-23.9312,-46.1213,11.4198,1014.83
218870,0.215208,9.80392,0.999522,2.03,-3.08,0.21,-23.9022,-47.3549,10.3559,1014.82
218876,0.248685,9.78001,1.0043,2.24,-2.66,0.14,-24.1056,-46.7998,10.2821,1014.82
218882,0.210426,9.84218,0.942133,1.89,-3.01,0.21,-23.2629,-46.5839,10.9618,1014.79
218888,0.181731,9.82305,0.918221,1.89,-2.73,-0.35,-23.3211,-47.1698,9.61712,1014.79
218894,0.153037,9.78957,0.994739,1.54,-3.01,0.14,-23.4082,-47.0465,9.32159,1014.83
218900,0.200861,9.83261,0.970827,1.68,-2.73,-0.49,-22.9433,-46.0905,11.3607,1014.83
218906,0.23912,9.84218,0.97561,1.68,-2.66,-0.49,-22.9143,-46.6764,10.5776,1014.82
218912,0.172166,9.78957,1.00909,1.61,-2.73,-0.56,-23.5535,-47.4782,9.54324,1014.82
218918,0.0765184,9.78001,1.01387,1.68,-2.73,-0.21,-23.292,-45.9671,9.89787,1014.84
218924,0.0908656,9.79914,0.980392,1.47,-3.29,-0.21,-23.5535,-45.5045,10.3116,1014.84
218930,0.11956,9.79914,0.980392,1.19,-3.01,-0.35,-23.8441,-48.0025,9.64667,1014.84
218936,0.114778,9.76088,1.01387,1.4,-3.43,-0.21,-23.292,-46.3989,9.11472,1014.84
218942,0.11956,9.7274,1.04735,2.1,-3.57,0,-23.3501,-44.9494,10.1638,1014.84
218948,0.095648,9.76088,1.04735,2.1,-3.29,0,-23.6697,-47.0773,9.88309,1014.83
218954,0.124342,9.73697,0.994739,2.17,-3.01,0.28,-24.0184,-46.7381,9.20338,1014.83
218960,0.105213,9.78479,0.97561,1.75,-3.36,0.49,-23.5244,-45.412,10.1343,1014.81
218966,0.162602,9.74653,1.0043,1.68,-3.57,0.42,-23.1467,-46.2138,10.3559,1014.81
218972,0.167384,9.79436,0.951698,1.89,-3.29,0.42,-23.1467,-47.3857,9.60234,1014.82
218978,0.181731,9.78957,0.970827,1.75,-3.71,0.14,-23.3792,-45.9363,9.55801,1014.82
218984,0.157819,9.79436,0.95648,1.61,-3.22,0.77,-23.6697,-45.3503,9.9422,1014.82
218990,0.162602,9.79436,0.989957,1.47,-3.57,0.35,-23.0886,-46.9231,9.33637,1014.81
218996,0.176949,9.77044,1.00909,1.68,-3.43,0.49,-23.2339,-46.3372,9.73533,1014.81
219002,0.200861,9.78957,1.01387,1.68,-3.08,0.7,-24.1346,-45.7512,9.58757,1014.81
219008,0.253467,9.79914,1.01387,1.47,-2.94,0.07,-24.309,-47.0465,10.5333,1014.81
219014,0.181731,9.81349,0.970827,1.33,-3.01,0.14,-23.4373,-46.7998,8.68621,1014.83
219020,0.172166,9.81349,1.0043,1.61,-3.22,0.14,-23.4663,-45.0111,10.947,1014.83
219026,0.210426,9.80392,0.989957,1.68,-2.94,-0.21,-23.1758,-46.0905,10.8288,1014.82
219032,0.191296,9.78479,1.02822,1.26,-2.94,-0.07,-23.4954,-46.9231,9.41025,1014.82
219038,0.143472,9.80392,1.00909,1.68,-3.29,0,-23.5826,-46.2447,9.41025,1014.82
219044,0.157819,9.7561,1.05213,1.68,-2.94,-0.14,-23.1467,-45.7821,10.3264,1014.81
219050,0.13869,9.77044,1.02822,1.89,-3.01,-0.28,-23.8731,-46.9231,9.42502,1014.81
219056,0.162602,9.77044,1.02343,1.75,-2.87,-0.21,-23.7569,-46.0288,9.01129,1014.82
219062,0.162602,9.76566,0.999522,2.17,-2.87,0.21,-23.9603,-45.2578,10.7992,1014.82
219068,0.176949,9.77044,1.02343,2.1,-2.73,0.28,-23.4082,-46.3372,9.73533,1014.82
219074,0.172166,9.74653,0.999522,2.38,-2.8,0.21,-23.9022,-46.7998,9.32159,1014.82
219080,0.143472,9.78001,1.00909,2.1,-3.01,-0.07,-23.2629,-45.0419,10.814,1014.83
219086,0.133907,9.77044,0.994739,1.89,-3.36,0.56,-23.4082,-46.0288,8.76009,1014.83
219092,0.181731,9.77044,0.994739,2.1,-3.15,0.42,-23.3792,-46.8923,10.4298,1014.8
219098,0.191296,9.79436,0.966045,2.45,-3.43,0.14,-23.1467,-46.4297,10.5924,1014.8
219104,0.196078,9.79436,0.961262,1.68,-3.08,0.35,-23.815,-45.6587,11.1391,1014.8
219110,0.23912,9.82783,0.97561,2.03,-3.22,-0.21,-23.5244,-46.8923,8.50889,1014.84
219116,0.296509,9.85174,0.989957,1.47,-2.8,-0.63,-23.786,-46.5839,9.42502,1014.84
219122,0.253467,9.82305,0.989957,1.82,-2.59,-0.98,-22.798,-46.0288,10.1195,1014.86
219128,0.129125,9.80392,0.999522,1.54,-3.01,-1.05,-23.786,-47.0157,8.96696,1014.86
219134,0.200861,9.81827,1.04256,1.4,-2.94,-0.7,-23.3211,-46.7073,9.51368,1014.83
219140,0.196078,9.76088,1.0043,1.54,-2.87,-0.84,-23.1467,-45.3195,10.3855,1014.83
219146,0.186514,9.77044,1.02343,1.4,-2.17,-0.77,-23.1467,-46.4914,9.60234,1014.82
219152,0.153037,9.78001,1.01387,1.4,-2.52,-0.91,-23.292,-46.7073,9.85354,1014.82
219158,0.114778,9.78957,0.999522,1.89,-3.29,-0.84,-23.3792,-46.2138,10.2673,1014.82
219164,0.095648,9.76088,0.994739,1.33,-2.73,-0.42,-24.2799,-46.2138,9.05562,1014.85
219170,0.11956,9.77523,0.961262,1.68,-2.73,-0.28,-23.7569,-47.0157,8.09515,1014.85
219176,0.13869,9.74653,0.961262,1.19,-2.87,-0.84,-22.5656,-46.2755,9.46935,1014.81
219182,0.133907,9.71305,1.033,1.96,-3.15,-0.63,-24.1928,-45.5662,10.3707,1014.81
219188,0.0860832,9.67001,1.1143,2.24,-3.29,0.21,-23.4082,-46.6456,10.09,1014.83
219194,0.071736,9.70827,1.06648,2.24,-3.36,0,-22.8271,-47.2624,9.9422,1014.83
219200,0.143472,9.71305,1.00909,2.38,-3.08,0.21,-23.0305,-46.3989,11.1095,1014.81
219206,0.148254,9.79436,0.980392,2.17,-2.87,0.56,-23.2629,-46.3989,9.67622,1014.81
219212,0.186514,9.81349,0.923003,2.17,-3.57,-0.14,-22.6527,-47.2315,10.3412,1014.81
219218,0.162602,9.79436,0.989957,2.45,-2.8,0.07,-22.8271,-45.3195,10.09,1014.8
219224,0.153037,9.79436,0.97561,1.61,-3.22,0.35,-23.3211,-45.7512,10.5037,1014.8
219230,0.210426,9.81827,0.985174,2.31,-3.64,-0.07,-23.1758,-47.139,8.65665,1014.82
219236,0.23912,9.84696,0.97561,2.1,-2.8,-0.21,-22.798,-46.3063,10.0309,1014.82
219242,0.253467,9.84696,0.95648,1.61,-2.24,-0.14,-23.2048,-45.9054,8.96696,1014.82
219248,0.162602,9.85174,0.95648,1.47,-2.8,-0.56,-23.0305,-46.9848,8.83397,1014.82
219254,0.200861,9.83261,1.00909,1.47,-3.08,-1.05,-23.3792,-46.7381,8.56799,1014.83
219260,0.215208,9.79914,1.0043,1.19,-2.45,-1.05,-23.2629,-45.9054,9.02606,1014.83
219266,0.210426,9.81349,0.989957,1.19,-2.52,-1.26,-23.3501,-46.6147,8.89307,1014.81
219272,0.0621712,9.78957,1.04256,1.33,-2.45,-0.77,-23.9603,-47.0773,7.38588,1014.81
219278,0.109995,9.74653,1.04256,1.75,-2.87,-0.7,-23.3792,-46.183,10.3412,1014.81
219284,0.095648,9.74653,1.06648,1.68,-2.59,-0.7,-23.3501,-46.0288,9.64667,1014.82
219290,0.153037,9.81827,1.04256,2.03,-2.66,-0.49,-23.4082,-47.2932,8.6271,1014.82
219296,0.133907,9.8374,0.918221,1.4,-3.15,-0.42,-23.1758,-46.2447,9.45458,1014.82
219302,0.176949,9.74175,1.00909,1.68,-2.73,-0.42,-23.4663,-45.0727,8.89307,1014.82
219308,0.0382592,9.75131,1.09039,2.17,-3.29,-0.28,-23.0305,-47.5399,9.92742,1014.81
219314,0.105213,9.69871,1.07126,2.38,-3.01,0.21,-23.4954,-47.7866,10.0456,1014.81
219320,0.11956,9.78957,0.989957,2.31,-2.87,0.56,-23.3211,-45.7512,9.86832,1014.83
219326,0.157819,9.80392,0.951698,1.96,-3.43,0,-22.8561,-46.5222,9.26248,1014.83
219332,0.167384,9.77523,1.01865,1.75,-2.87,0.14,-24.0765,-47.5708,9.04084,1014.83
219338,0.186514,9.77523,1.00909,2.03,-2.8,0.14,-23.2048,-46.5839,10.5037,1014.8
219344,0.205643,9.82305,0.97561,2.1,-2.94,0.28,-23.3792,-46.2755,10.0456,1014.8
219350,0.191296,9.77523,0.994739,1.89,-3.01,-0.35,-23.4082,-46.954,9.64667,1014.79
219356,0.25825,9.82783,0.97561,1.96,-3.22,-0.63,-23.9022,-46.2447,8.65665,1014.79
219362,0.263032,9.83261,0.927786,1.89,-2.59,-0.91,-23.7278,-45.0727,9.72055,1014.81
219368,0.291726,9.86131,0.932568,1.82,-2.8,-1.19,-24.0765,-46.9848,11.6119,1014.81
219374,0.23912,9.84218,0.989957,1.61,-2.73,-1.75,-23.6116,-46.2755,10.3559,1014.83
219380,0.133907,9.84218,0.93735,1.19,-2.17,-1.82,-24.0765,-45.5045,10.6515,1014.83
219386,0.124342,9.77523,1.01865,1.4,-2.31,-1.4,-23.1467,-46.0905,10.2525,1014.83
219392,0.10043,9.7561,1.06169,1.54,-2.8,-1.75,-23.815,-47.2315,8.96696,1014.8
219398,0.109995,9.76566,1.04735,1.61,-2.94,-1.68,-23.6988,-46.5839,9.4398,1014.8
219404,0.109995,9.78479,1.0043,1.61,-2.59,-1.12,-23.815,-46.2755,10.1195,1014.82
219410,0.0669536,9.77044,1.04735,1.75,-2.87,-0.98,-23.9022,-47.3549,9.11472,1014.82
219416,0.0765184,9.74175,1.04256,1.68,-2.66,-1.05,-24.0765,-46.5531,10.223,1014.81
219422,0.095648,9.70349,1.02822,1.82,-2.66,-0.35,-23.786,-45.6587,10.3116,1014.81
219428,0.0573888,9.74653,0.985174,1.96,-3.29,-0.35,-23.786,-46.5839,9.89787,1014.81
219434,0.095648,9.74653,1.01865,2.17,-2.8,-0.21,-23.4373,-47.6633,8.73053,1014.81
219440,0.124342,9.7561,0.994739,1.68,-3.08,-0.21,-22.798,-45.8129,9.75011,1014.79
219446,0.167384,9.77044,0.970827,1.82,-3.29,-0.42,-23.5826,-46.0596,9.70578,1014.79
219452,0.13869,9.8087,0.970827,1.61,-2.94,0.21,-24.0475,-46.6456,8.19858,1014.79
219458,0.133907,9.8087,0.961262,1.89,-2.87,0,-23.6988,-45.8746,8.90785,1014.84
219464,0.11956,9.79436,0.989957,1.54,-2.87,0.07,-23.4954,-45.8129,9.1886,1014.84
219470,0.186514,9.80392,1.02343,1.61,-3.29,-0.21,-23.2339,-46.7073,9.01129,1014.84
219476,0.191296,9.78001,1.01387,1.68,-3.15,-0.07,-23.4954,-46.5839,8.68621,1014.84
219482,0.248685,9.84218,0.95648,1.75,-2.8,-0.35,-23.3501,-45.1036,10.09,1014.83
219488,0.157819,9.88522,0.908656,1.75,-2.8,-0.84,-23.7569,-46.8306,10.0161,1014.83
219494,0.109995,9.81349,1.01387,1.12,-2.59,-0.7,-23.1758,-46.5531,8.46456,1014.79
219500,0.114778,9.81349,1.07604,0.63,-2.8,-0.7,-23.3792,-45.4737,9.3807,1014.79
219506,0.191296,9.77044,1.07604,1.26,-2.66,-0.42,-23.0886,-46.5531,9.70578,1014.79
219512,0.162602,9.78957,1.01865,1.19,-2.94,-0.77,-23.6988,-46.9848,10.5185,1014.81
219518,0.0765184,9.77044,1.02343,1.54,-2.94,-0.56,-24.0184,-45.8746,9.95698,1014.81
219524,0.0908656,9.75131,1.01387,1.61,-2.8,-0.42,-23.292,-45.9054,9.3807,1014.82
219530,0.0669536,9.73697,1.06648,1.26,-3.01,0,-23.2048,-47.4166,8.53844,1014.82
219536,0.0765184,9.68914,1.05691,2.03,-3.15,0,-23.5826,-46.368,8.73053,1014.82
219542,0.047824,9.77523,1.01387,1.89,-2.73,-0.07,-22.5946,-45.4428,9.691,1014.82
219548,0.0860832,9.74653,1.05213,2.24,-2.94,0,-23.0595,-46.4297,8.96696,1014.81
219554,0.109995,9.76088,0.994739,2.03,-3.01,0.63,-24.1637,-47.0465,8.03604,1014.81
219560,0.105213,9.78001,0.970827,1.61,-2.87,0.7,-23.0886,-45.8437,8.56799,1014.81
219566,0.133907,9.79914,0.994739,2.03,-3.22,0.21,-22.798,-46.2447,7.97694,1014.8
219572,0.11956,9.77044,0.97561,1.68,-3.15,0.7,-23.3211,-47.2007,8.25769,1014.8
219578,0.13869,9.78957,0.970827,1.82,-2.94,0.77,-22.9724,-46.5531,9.17383,1014.81
219584,0.143472,9.78001,1.01387,2.17,-3.08,0.42,-23.3211,-45.4737,8.96696,1014.81
219590,0.191296,9.8087,1.00909,1.68,-3.29,-0.07,-23.2048,-47.0465,7.88828,1014.81
219596,0.196078,9.79914,0.980392,1.54,-2.87,0.42,-23.1177,-46.5222,8.59755,1014.81
219602,0.148254,9.80392,0.989957,1.4,-2.87,-17.64,-23.4373,-45.9979,9.79444,1014.81
219608,0.109995,9.77523,1.04735,1.61,-2.8,0.49,-22.9433,-46.4914,8.76009,1014.81
219614,0.162602,9.75131,1.07126,1.54,-3.22,0.07,-23.6407,-47.1698,8.49411,1014.82
219620,0.181731,9.78479,1.01865,1.75,-3.57,-0.7,-22.8852,-45.9363,10.1343,1014.82
219626,0.172166,9.78479,1.02822,2.03,-2.73,-0.49,-23.3211,-47.6941,10.1491,1014.82
219632,0.11956,9.79436,1.0043,1.75,-2.66,0.63,-23.4082,-47.5708,9.51368,1014.85
219638,0.0765184,9.76566,1.01387,2.17,-3.01,-0.14,-23.0595,-46.368,8.9374,1014.85
219644,0.114778,9.7274,1.02343,1.82,-3.29,-0.28,-22.6527,-45.9363,9.80921,1014.79
219650,0.095648,9.71784,0.999522,2.24,-2.73,0.49,-22.4784,-47.7558,8.76009,1014.79
219656,0.0908656,9.76088,0.994739,2.1,-2.73,0.28,-22.769,-46.8615,10.1934,1014.81
219662,0.095648,9.78001,0.980392,1.75,-3.29,-0.14,-22.9433,-46.183,10.9765,1014.81
219668,0.153037,9.76088,0.994739,2.38,-3.22,0.63,-23.1467,-47.1082,8.89307,1014.84
219674,0.143472,9.78479,0.970827,2.1,-2.87,0.35,-23.5826,-47.1698,9.4398,1014.84
219680,0.124342,9.77044,0.980392,2.03,-2.94,0.56,-23.8441,-46.5839,8.95218,1014.84
219686,0.109995,9.79914,0.95648,1.96,-2.8,0.56,-22.7109,-46.5839,8.77486,1014.8
219692,0.13869,9.82305,0.985174,1.54,-2.66,0.84,-23.4373,-47.4166,8.92263,1014.8
219698,0.186514,9.78479,0.95648,2.24,-3.08,0.35,-22.7109,-46.1521,9.26248,1014.85
219704,0.196078,9.82305,0.980392,1.75,-3.01,0.21,-23.0595,-46.1213,9.79444,1014.85
219710,0.229555,9.78479,0.95648,1.89,-3.36,-0.21,-23.1177,-47.2624,8.96696,1014.8
219716,0.210426,9.8087,0.985174,1.54,-3.15,-0.35,-23.292,-47.139,9.49891,1014.8
219722,0.234338,9.80392,0.980392,1.54,-2.87,0.07,-23.5826,-46.1521,10.3707,1014.77
219728,0.153037,9.81827,0.985174,1.4,-2.87,-0.14,-23.5244,-47.4166,8.76009,1014.77
219734,0.143472,9.79436,0.97561,1.61,-3.15,-0.35,-23.8731,-47.0157,9.21815,1014.77
219740,0.105213,9.78479,1.01387,1.33,-2.45,-0.28,-23.5244,-46.0905,9.42502,1014.83
219746,0.071736,9.73218,1.033,1.54,-2.87,-0.28,-23.0595,-46.2447,9.58757,1014.83
219752,0.11956,9.75131,1.05691,1.75,-3.22,-0.07,-23.292,-47.2624,8.39068,1014.83
219758,0.0908656,9.76088,1.01865,1.75,-2.87,0.14,-22.8561,-46.6456,9.61712,1014.83
219764,0.0860832,9.75131,1.00909,2.17,-3.36,-0.28,-23.3792,-46.8306,9.08517,1014.86
219770,0.0621712,9.71305,1.00909,2.24,-3.01,0.35,-23.2339,-47.91,8.24291,1014.86
219776,0.10043,9.74175,1.03778,2.03,-2.59,0.56,-22.9433,-47.0773,9.11472,1014.83
219782,0.071736,9.73697,1.04256,1.89,-3.36,0.28,-23.3211,-45.8437,9.77966,1014.83
219788,0.0908656,9.74175,1.01387,2.1,-3.22,0.84,-23.0305,-46.7381,9.66145,1014.82
219794,0.10043,9.77523,0.994739,2.31,-3.15,1.4,-23.2339,-47.6324,8.92263,1014.82
219800,0.11956,9.79914,0.97561,1.96,-3.57,1.19,-22.7399,-46.8615,8.90785,1014.82
219806,0.181731,9.82783,0.999522,1.75,-3.43,0.7,-23.1467,-45.9363,10.4298,1014.8
219812,0.215208,9.81827,0.946915,2.03,-3.43,0.63,-23.4954,-47.7558,9.88309,1014.8
219818,0.21999,9.80392,0.946915,1.96,-2.94,0.28,-23.7278,-46.8306,9.07039,1014.82
219824,0.210426,9.85653,1.0043,1.33,-3.08,0.28,-23.0014,-45.9671,9.66145,1014.82
219830,0.196078,9.78001,1.0043,1.47,-3.01,0.56,-24.1346,-47.8175,9.48413,1014.82
219836,0.191296,9.81827,0.985174,1.68,-3.15,0,-23.3501,-46.6456,8.55322,1014.82
219842,0.181731,9.83261,0.966045,1.68,-2.94,-0.42,-23.2048,-45.5662,10.2377,1014.8
219848,0.114778,9.78957,1.033,1.33,-2.8,0,-23.0886,-47.0157,9.36592,1014.8
219854,0.10043,9.7561,1.05691,1.4,-2.94,0.14,-23.1177,-46.7381,10.3559,1014.8
219860,0.13869,9.76088,1.06648,1.82,-3.29,-0.42,-23.5535,-46.1521,10.0013,1014.77
219866,0.095648,9.75131,1.05691,1.89,-2.31,0.21,-23.4954,-46.368,9.75011,1014.77
219872,0.10043,9.76088,1.06169,2.1,-3.15,0.84,-24.1346,-46.6456,10.2968,1014.84
219878,0.143472,9.7561,1.02822,1.75,-3.29,0.56,-23.6988,-46.183,10.3855,1014.84
219884,0.129125,9.77523,1.033,2.03,-2.73,0.56,-23.815,-45.9979,9.67622,1014.8
219890,0.143472,9.79436,0.999522,2.03,-3.29,0.56,-23.4954,-47.2007,9.27726,1014.8
219896,0.153037,9.74175,0.999522,1.96,-2.94,0.7,-23.5535,-47.5399,9.24771,1014.82
219902,0.105213,9.7561,1.01865,2.03,-3.15,0.84,-23.4082,-46.0905,9.76488,1014.82
219908,0.143472,9.76566,1.00909,1.96,-3.29,0.84,-23.7278,-47.2624,9.41025,1014.82
219914,0.215208,9.78957,0.961262,2.31,-3.29,0.91,-23.8731,-46.9231,10.3559,1014.82
219920,0.186514,9.84218,0.908656,1.96,-3.15,0.84,-24.2509,-46.3372,9.1295,1014.82
219926,0.248685,9.85174,0.932568,1.68,-3.29,0.35,-23.7569,-46.3372,10.0604,1014.84
219932,0.286944,9.88044,0.93735,1.19,-2.52,-0.07,-23.3501,-47.2007,10.3116,1014.84
219938,0.23912,9.8374,0.980392,1.12,-2.8,-0.35,-23.786,-45.9363,10.7992,1014.84
219944,0.186514,9.86131,0.932568,1.26,-2.45,-0.56,-23.2339,-46.4605,11.8188,1014.84
219950,0.129125,9.81827,0.985174,0.91,-3.22,-0.56,-23.3501,-47.5708,9.30681,1014.82
219956,0.133907,9.73697,1.01387,0.84,-2.87,-0.63,-23.6697,-46.5531,10.4889,1014.82
219962,0.205643,9.75131,1.033,1.47,-2.87,-0.49,-23.6697,-45.7821,11.0061,1014.83
219968,0.181731,9.76566,1.02822,1.4,-2.73,-1.12,-23.292,-46.4914,9.21815,1014.83
219974,0.0765184,9.78479,1.01387,1.26,-2.94,-0.91,-23.3792,-47.2624,8.70098,1014.83
219980,0.0573888,9.70349,1.04735,1.47,-3.57,-0.35,-23.3211,-45.9363,9.85354,1014.83
219986,0.0526064,9.70349,1.07604,1.47,-3.15,-0.42,-23.3211,-46.7998,10.3412,1014.83
219992,0.10043,9.69392,1.0856,1.61,-2.8,0.35,-23.2339,-47.0465,7.96216,1014.81
219998,0.0908656,9.75131,1.08082,1.82,-3.36,0.14,-23.4663,-45.8129,9.82399,1014.81
220004,0.10043,9.71305,1.04256,1.75,-2.94,0.21,-23.1177,-45.3503,10.2673,1014.8
220010,0.0813008,9.73697,1.0856,2.24,-3.01,0.49,-24.2509,-46.8615,10.0161,1014.8
220016,0.095648,9.7561,1.05691,2.1,-3.08,0.63,-23.3211,-46.0905,9.61712,1014.77
220022,0.133907,9.77044,0.994739,2.1,-2.94,0.91,-22.798,-46.1521,10.2525,1014.77
220028,0.13869,9.78957,1.01865,2.31,-3.5,0.77,-23.7278,-46.8615,9.45458,1014.77
220034,0.167384,9.79436,1.01865,2.45,-3.43,0.91,-24.0475,-47.1698,9.42502,1014.81
220040,0.157819,9.79914,0.989957,2.52,-3.08,0.63,-23.6116,-45.3811,11.0948,1014.81
220046,0.186514,9.77523,0.989957,2.03,-3.08,0.77,-23.5535,-46.7998,9.85354,1014.81
220052,0.196078,9.78479,1.0043,2.03,-3.5,0.14,-22.7109,-47.3549,9.67622,1014.81
220058,0.21999,9.79914,1.0043,2.45,-3.85,1.05,-23.1758,-45.7512,9.92742,1014.82
220064,0.196078,9.79914,1.01387,2.38,-3.15,0.35,-23.7278,-45.6279,9.48413,1014.82
220070,0.181731,9.84696,0.994739,1.96,-3.01,-0.07,-24.2799,-47.725,9.27726,1014.83
220076,0.167384,9.8374,0.989957,2.1,-3.08,0.56,-23.2048,-47.1698,10.548,1014.83
220082,0.21999,9.79914,0.994739,2.24,-2.87,-17.85,-23.4373,-46.2447,10.1934,1014.83
220088,0.215208,9.79914,0.970827,2.1,-2.8,-0.14,-23.6407,-46.8615,8.6271,1014.8
220094,0.10043,9.81349,0.999522,1.96,-3.64,-0.35,-23.5826,-47.0773,8.76009,1014.8
220100,0.109995,9.75131,1.00909,1.75,-3.29,-0.21,-23.0305,-45.9054,10.3412,1014.8
220106,0.143472,9.75131,1.04735,2.73,-3.36,0.14,-23.4373,-46.4297,10.6219,1014.8
220112,0.109995,9.7561,1.02343,2.24,-3.29,0.28,-23.4663,-47.8792,9.64667,1014.81
220118,0.153037,9.78001,1.00909,2.17,-3.5,0,-23.4082,-46.5531,9.88309,1014.81
220124,0.124342,9.74653,0.970827,2.38,-3.43,0.35,-23.3211,-45.7204,9.88309,1014.83
220130,0.13869,9.76088,0.994739,1.89,-2.87,0.56,-23.3211,-47.4166,9.26248,1014.83
220136,0.11956,9.76088,1.0043,2.66,-3.29,0.56,-23.5535,-46.4605,9.42502,1014.82
220142,0.148254,9.78479,0.966045,2.03,-3.29,0.56,-23.5244,-45.4737,10.0604,1014.82
220148,0.133907,9.78001,0.999522,2.38,-3.5,0.7,-23.3211,-47.139,9.26248,1014.82
220154,0.143472,9.77044,0.989957,1.82,-3.08,0.42,-23.9603,-46.8306,9.45458,1014.8
220160,0.181731,9.78479,0.970827,1.89,-3.43,0.77,-23.1467,-45.8746,10.681,1014.8
220166,0.176949,9.81827,0.97561,1.75,-3.22,0.56,-23.7278,-46.5839,10.681,1014.8
220172,0.253467,9.82783,0.989957,1.68,-3.22,-0.07,-23.6988,-47.6633,8.65665,1014.8
220178,0.196078,9.83261,1.00909,1.75,-2.87,0.07,-23.2629,-45.6279,9.67622,1014.82
220184,0.210426,9.84218,0.966045,2.03,-3.15,0,-23.6988,-45.3195,10.1343,1014.82
220190,0.229555,9.87087,0.97561,1.68,-3.36,-0.56,-23.6407,-46.8306,9.1886,1014.82
220196,0.196078,9.78957,1.02822,1.82,-3.36,-0.49,-23.5244,-45.9671,10.3116,1014.82
220202,0.11956,9.79436,1.01865,1.82,-3.01,-0.49,-24.0184,-45.7512,10.5333,1014.82
220208,0.148254,9.77523,1.04256,1.82,-3.29,-0.07,-23.5244,-46.8615,10.4889,1014.84
220214,0.13869,9.74653,1.01865,1.89,-3.08,-0.14,-23.2629,-46.6764,8.68621,1014.84
220220,0.143472,9.7561,1.01387,1.68,-2.38,0,-23.3792,-46.2755,9.54324,1014.83
220226,0.167384,9.76566,0.966045,1.82,-3.36,-0.07,-23.0305,-46.9231,9.08517,1014.83
220232,0.133907,9.77523,1.01865,1.82,-3.57,0,-23.9022,-47.4474,9.52846,1014.84
220238,0.0908656,9.74653,1.033,1.96,-3.01,0.21,-23.0305,-46.3372,9.79444,1014.84
220244,0.114778,9.76566,1.02343,1.68,-3.08,0.63,-24.0184,-46.7073,9.04084,1014.83
220250,0.129125,9.72262,0.970827,2.1,-3.36,0.21,-23.2048,-46.9231,10.4889,1014.83
220256,0.129125,9.76088,0.999522,2.17,-3.5,0.42,-23.4082,-46.8306,9.27726,1014.83
220262,0.129125,9.78479,0.985174,1.68,-3.29,0.84,-23.4373,-45.3195,10.1343,1014.81
220268,0.172166,9.78001,0.980392,1.96,-3.22,0.91,-23.6407,-47.324,9.61712,1014.81
220274,0.229555,9.78957,0.999522,2.38,-3.5,0.7,-23.2629,-47.2624,9.691,1014.81
220280,0.253467,9.79914,0.95648,1.82,-2.87,0.35,-22.8852,-45.3811,9.9422,1014.81
220286,0.25825,9.79914,0.985174,1.54,-3.22,0.21,-23.6116,-45.9671,10.3412,1014.84
220292,0.296509,9.86609,0.942133,1.82,-2.87,0,-24.0475,-46.4605,9.48413,1014.84
220298,0.253467,9.86131,0.942133,1.4,-2.87,-0.35,-23.4663,-45.9363,10.3264,1014.81
220304,0.23912,9.84218,0.918221,1.19,-2.66,-0.77,-23.292,-45.2886,9.75011,1014.81
220310,0.23912,9.85174,0.999522,0.91,-2.59,-1.47,-23.9894,-46.954,8.83397,1014.81
220316,0.248685,9.8087,1.0043,1.33,-2.8,-1.82,-23.1177,-45.8437,9.80921,1014.81
220322,0.186514,9.85653,0.970827,1.4,-2.73,-1.61,-24.0765,-45.7512,10.3707,1014.81
220328,0.11956,9.84696,0.980392,1.12,-2.87,-1.61,-23.1758,-46.8306,8.50889,1014.86
220334,0.114778,9.73218,1.11908,1.4,-3.22,-1.47,-23.3501,-46.3372,9.20338,1014.86
220340,0.105213,9.74175,1.10473,1.47,-3.22,-1.12,-23.0595,-46.4605,9.51368,1014.81
220346,0.153037,9.74653,1.0043,1.96,-2.66,-0.84,-24.3671,-46.3989,8.67143,1014.81
220352,0.0860832,9.74175,1.07126,1.68,-2.24,-0.98,-24.3671,-47.0465,9.64667,1014.84
220358,0.0860832,9.73218,1.04256,2.03,-2.8,-0.42,-23.7569,-46.5222,10.1786,1014.84
220364,0.0908656,9.71784,1.05691,2.45,-3.08,-0.14,-23.9894,-46.7073,10.9027,1014.81
220370,0.105213,9.77044,0.999522,2.03,-3.29,-0.14,-24.338,-47.324,9.3807,1014.81
220376,0.157819,9.74175,0.985174,2.38,-3.29,-0.07,-24.4252,-46.2447,8.68621,1014.81
220382,0.157819,9.76566,0.95648,2.8,-2.73,-0.28,-23.9894,-45.9671,10.0604,1014.81
220388,0.157819,9.79914,0.951698,2.31,-3.36,-0.07,-24.1346,-46.5222,9.35114,1014.81
220394,0.133907,9.80392,0.95648,1.61,-2.45,0.28,-24.1056,-47.0773,10.814,1014.84
220400,0.186514,9.79914,0.970827,2.17,-2.73,0.14,-23.292,-45.5662,10.2968,1014.84
220406,0.191296,9.80392,0.97561,1.96,-3.29,-0.35,-23.4663,-46.7073,10.1343,1014.83
220412,0.253467,9.8374,0.961262,2.1,-3.22,-0.42,-23.9022,-47.8483,8.30202,1014.83
220418,0.272597,9.86131,0.932568,1.61,-3.15,-0.56,-23.292,-45.4737,9.79444,1014.8
220424,0.200861,9.82783,0.994739,1.33,-2.31,-1.12,-23.6116,-45.5353,10.1491,1014.8
220430,0.148254,9.81349,0.999522,1.33,-2.87,-1.19,-23.7569,-46.7689,9.91265,1014.8
220436,0.10043,9.75131,1.04256,1.33,-2.87,-1.4,-23.3792,-46.5531,10.1786,1014.83
220442,0.153037,9.76566,1.01387,1.68,-2.94,-0.84,-23.8441,-45.6587,10.0013,1014.83
220448,0.157819,9.78957,1.02343,1.68,-2.94,-0.56,-23.292,-47.8792,10.1934,1014.85
220454,0.129125,9.75131,1.033,2.03,-3.64,-1.33,-24.1346,-47.324,9.98653,1014.85
220460,0.109995,9.73218,1.02822,2.24,-3.15,-1.4,-24.6577,-44.7643,9.691,1014.83
220466,0.095648,9.77523,1.033,2.38,-2.87,-0.77,-23.9894,-46.0596,9.89787,1014.83
220472,0.071736,9.71784,1.05691,2.45,-3.01,-0.35,-23.786,-47.2315,9.36592,1014.82
220478,0.11956,9.73218,1.033,2.87,-3.01,-0.77,-24.0765,-45.9671,9.83876,1014.82
220484,0.0860832,9.74175,1.01865,2.45,-2.8,0.07,-23.4373,-45.9363,9.11472,1014.84
220490,0.133907,9.74653,0.961262,2.38,-3.01,0.21,-24.0765,-47.2007,8.90785,1014.84
220496,0.11956,9.7561,0.951698,2.24,-3.43,0.63,-24.2799,-47.5399,8.16903,1014.84
220502,0.157819,9.79914,0.980392,2.66,-3.01,-0.14,-23.0886,-46.0288,10.6958,1014.83
220508,0.11956,9.80392,0.961262,2.24,-2.66,-0.35,-23.2629,-47.0157,9.24771,1014.83
220514,0.172166,9.82783,0.951698,2.03,-3.57,-0.14,-23.8731,-46.7073,10.1491,1014.83
220520,0.172166,9.85174,0.97561,2.24,-3.36,0,-23.3501,-45.597,10.2673,1014.83
220526,0.267814,9.84218,0.946915,1.54,-2.52,-1.12,-23.6116,-46.368,9.66145,1014.87
220532,0.234338,9.86609,1.0043,2.03,-2.38,-0.63,-23.6116,-47.6016,9.36592,1014.87
220538,0.105213,9.85174,0.918221,1.75,-2.73,-0.84,-23.292,-47.2007,10.1343,1014.81
220544,0.124342,9.79436,0.994739,1.47,-2.8,-0.98,-22.8852,-46.2755,10.1491,1014.81
220550,0.157819,9.78001,1.01387,1.47,-2.73,-0.98,-23.5535,-47.1698,9.45458,1014.81
220556,0.129125,9.76566,0.989957,1.33,-3.01,-0.84,-22.6527,-47.5399,9.14427,1014.81
220562,0.133907,9.73697,1.07126,1.54,-3.01,-0.84,-22.3912,-45.2269,9.76488,1014.81
220568,0.047824,9.74175,1.033,1.68,-3.01,-0.56,-23.0886,-46.4914,9.48413,1014.84
220574,0.11956,9.73218,0.985174,1.89,-3.29,-0.63,-23.1177,-46.3989,9.26248,1014.84
220580,0.0765184,9.76088,0.966045,1.68,-3.08,0,-22.798,-44.9185,8.64188,1014.85
220586,0.109995,9.74653,1.02343,1.61,-3.36,-0.21,-23.7569,-46.183,10.8583,1014.85
220592,0.0334768,9.68436,1.06169,2.24,-3.15,-0.07,-23.292,-47.3857,10.8731,1014.81
220598,0.0813008,9.73218,1.02343,2.24,-3.57,0.28,-22.6527,-45.7512,9.72055,1014.81
220604,0.11956,9.74175,0.999522,1.96,-3.57,0.63,-23.0305,-45.1344,9.60234,1014.81
220610,0.148254,9.79436,0.961262,2.1,-2.94,0.91,-23.3501,-46.7689,9.54324,1014.83
220616,0.21999,9.79914,0.946915,1.75,-3.43,0.35,-23.1758,-46.3989,9.39547,1014.83
220622,0.200861,9.81349,0.932568,1.75,-3.29,0.49,-22.9433,-45.1653,10.09,1014.83
220628,0.224773,9.82783,0.97561,1.68,-3.08,0.14,-23.6407,-46.5839,8.9374,1014.83
220634,0.143472,9.8374,0.97561,1.4,-2.94,-0.21,-23.6988,-46.9231,8.16903,1014.82
220640,0.186514,9.81827,0.970827,1.61,-3.08,-0.07,-23.0305,-46.0596,11.4494,1014.82
220646,0.224773,9.82305,1.01387,1.75,-2.73,-0.35,-22.7399,-45.9054,10.2673,1014.81
220652,0.13869,9.80392,1.00909,1.54,-2.59,-0.56,-23.3211,-47.0157,8.84875,1014.81
220658,0.10043,9.80392,0.989957,1.61,-2.8,-0.63,-23.4373,-45.6587,10.2673,1014.82
220664,0.109995,9.74653,1.05213,1.82,-3.08,-0.77,-23.0886,-45.6279,10.5037,1014.82
220670,0.109995,9.78001,1.07126,1.61,-2.73,-0.35,-23.2339,-47.2315,8.13948,1014.82
220676,0.148254,9.76088,1.02822,1.61,-3.01,-0.49,-23.3211,-47.1082,9.20338,1014.8
220682,0.13869,9.76566,1.01387,1.96,-3.08,-0.42,-23.0305,-46.2755,10.3855,1014.8
220688,0.0908656,9.73218,1.02343,2.1,-3.15,-0.63,-23.6697,-46.4605,9.45458,1014.84
220694,0.0908656,9.75131,1.02343,1.96,-2.73,-0.49,-23.3792,-47.7866,8.56799,1014.84
220700,0.105213,9.76566,1.00909,1.96,-2.8,-0.07,-23.4082,-45.5662,9.26248,1014.84
220706,0.105213,9.7561,1.02343,2.31,-3.08,-0.28,-23.5535,-47.1698,9.27726,1014.84
220712,0.11956,9.74175,1.0043,2.1,-3.36,0.21,-23.2629,-47.6633,10.1934,1014.83
220718,0.133907,9.7561,1.00909,2.38,-2.87,0.49,-23.3211,-46.368,9.36592,1014.83
220724,0.167384,9.82305,0.961262,1.61,-2.59,-0.35,-23.5535,-46.183,9.88309,1014.83
220730,0.263032,9.82305,0.951698,1.89,-2.94,-0.35,-23.3792,-47.91,9.3807,1014.85
220736,0.224773,9.84696,0.95648,1.96,-2.66,-0.14,-24.4543,-46.368,9.97175,1014.85
220742,0.23912,9.85653,0.966045,1.54,-2.52,-0.91,-23.6407,-46.0596,11.2721,1014.81
220748,0.172166,9.8374,1.00909,1.47,-2.73,-1.4,-23.2339,-46.7998,8.03604,1014.81
220754,0.105213,9.82305,0.97561,1.4,-2.8,-1.05,-23.9312,-47.3549,9.20338,1014.79
220760,0.0908656,9.78479,0.989957,1.33,-2.8,-0.56,-23.8731,-45.4428,10.3264,1014.79
220766,0.11956,9.76566,1.00909,1.4,-2.45,-0.91,-23.6116,-46.5839,9.3807,1014.84
220772,0.0765184,9.74175,1.03778,1.54,-2.73,-0.63,-23.4082,-47.2315,9.41025,1014.84
220778,0.0526064,9.76088,1.04256,1.68,-3.01,-0.56,-23.2629,-45.2886,9.27726,1014.84
220784,0.0860832,9.75131,0.999522,1.26,-2.94,-0.56,-23.9312,-45.8437,10.3855,1014.81
220790,0.047824,9.77523,0.994739,1.68,-2.73,-0.14,-23.4663,-47.7558,8.73053,1014.81
220796,0.0573888,9.77044,0.999522,1.54,-3.01,-0.14,-23.2629,-47.5708,9.02606,1014.8
220802,0.0765184,9.77523,1.0043,1.12,-2.8,0,-23.7278,-46.7381,9.23293,1014.8
220808,0.071736,9.77523,0.980392,1.89,-3.15,0.42,-23.0014,-47.1698,9.52846,1014.8
220814,0.109995,9.7561,1.0043,1.75,-3.15,0.84,-23.6697,-47.0465,8.76009,1014.8
220820,0.114778,9.73697,1.04735,1.82,-3.57,0.42,-23.4373,-46.368,10.9618,1014.8
220826,0.129125,9.74175,1.01865,2.03,-3.71,0.42,-23.292,-47.2624,9.88309,1014.8
220832,0.162602,9.79436,0.97561,1.89,-3.29,0.84,-23.8731,-47.725,8.44978,1014.83
220838,0.181731,9.81827,0.970827,1.89,-3.01,0.49,-23.292,-46.3989,9.95698,1014.83
220844,0.205643,9.81827,0.985174,1.75,-2.66,0.7,-23.2629,-45.7512,10.7401,1014.83
220850,0.205643,9.85174,0.994739,1.61,-3.5,-0.07,-22.8271,-47.7558,8.81919,1014.81
220856,0.215208,9.8374,0.980392,1.68,-3.08,-0.35,-23.1758,-46.6456,8.78964,1014.81
220862,0.143472,9.8374,0.994739,1.33,-3.08,-0.35,-23.3211,-45.8437,9.691,1014.83
220868,0.124342,9.8374,0.994739,1.54,-2.8,-0.28,-23.9312,-46.954,10.7992,1014.83
220874,0.124342,9.80392,1.033,1.26,-3.08,-0.42,-23.4373,-47.4166,8.61232,1014.78
220880,0.11956,9.79436,1.02822,1.4,-3.15,-0.77,-23.815,-45.8437,9.49891,1014.78
220886,0.0908656,9.77044,1.05213,1.96,-3.15,-0.42,-23.2629,-46.7381,10.9322,1014.82
220892,0.0908656,9.78957,1.05691,1.47,-3.36,-0.42,-22.798,-47.2932,9.73533,1014.82
220898,0.0908656,9.74653,1.03778,1.96,-3.08,-0.21,-22.8561,-46.2447,10.0161,1014.82
220904,0.0669536,9.76566,1.01387,1.89,-2.87,-0.14,-23.2339,-45.6895,10.7992,1014.83
220910,0.0908656,9.74175,1.00909,1.54,-3.36,0.21,-22.4784,-46.4605,8.78964,1014.83
220916,0.11956,9.76088,0.97561,2.1,-3.01,0.63,-23.3211,-46.7998,9.57279,1014.83
220922,0.13869,9.77044,1.03778,1.54,-2.87,-0.14,-22.9724,-45.6587,8.83397,1014.83
220928,0.105213,9.73218,0.999522,2.24,-3.29,-0.07,-23.0014,-46.954,9.57279,1014.83
220934,0.124342,9.77044,0.989957,1.75,-2.73,0.63,-23.0305,-47.5091,9.29204,1014.83
220940,0.13869,9.76566,0.966045,1.82,-3.29,0.49,-23.3211,-46.5839,9.63189,1014.86
220946,0.181731,9.80392,0.989957,1.75,-3.36,-0.21,-23.4663,-46.7998,10.0456,1014.86
220952,0.148254,9.78957,1.01387,2.03,-3.5,0,-22.9433,-47.2624,9.3807,1014.86
220958,0.124342,9.79436,0.985174,1.54,-2.45,0.21,-22.7399,-46.8615,10.1195,1014.84
220964,0.124342,9.82305,1.01387,1.68,-2.73,-0.21,-23.3792,-46.9231,10.1638,1014.84
220970,0.272597,9.83261,0.961262,1.61,-2.8,-0.49,-23.4373,-47.2624,8.8783,1014.85
220976,0.200861,9.83261,1.02343,1.61,-2.59,-0.49,-23.6988,-46.7073,9.04084,1014.85
220982,0.114778,9.80392,1.04256,2.03,-3.01,-0.91,-23.3211,-45.8129,11.0652,1014.86
220988,0.047824,9.75131,1.05213,1.61,-2.8,-0.56,-24.0475,-46.8615,8.31679,1014.86
220994,0.0813008,9.75131,1.06169,1.54,-3.15,0.07,-23.0886,-46.6456,8.95218,1014.82
221000,0.11956,9.7561,1.03778,2.03,-3.43,-0.28,-23.3792,-45.9054,9.61712,1014.82
221006,0.095648,9.77044,1.05213,2.17,-3.29,-0.35,-23.0886,-46.1213,9.88309,1014.83
221012,0.11956,9.75131,1.02343,1.89,-2.52,0.07,-23.0305,-48.1567,9.20338,1014.83
221018,0.105213,9.77523,1.01387,2.38,-3.08,0.21,-23.2339,-45.9363,9.35114,1014.83
221024,0.10043,9.76566,1.00909,2.03,-3.15,0.42,-23.292,-46.0288,10.415,1014.82
221030,0.114778,9.74653,0.999522,2.31,-2.73,0.35,-23.786,-47.5708,8.78964,1014.82
221036,0.095648,9.74175,1.00909,2.1,-3.15,0.28,-23.4663,-47.324,9.9422,1014.82
221042,0.133907,9.78001,1.03778,1.68,-3.08,0.28,-22.5075,-46.2138,10.681,1014.82
221048,0.109995,9.77523,1.0043,1.89,-3.36,0.28,-24.0184,-47.324,8.95218,1014.82
221054,0.13869,9.78479,1.00909,2.38,-3.22,0.49,-23.6407,-47.3549,9.66145,1014.82
221060,0.172166,9.83261,0.980392,1.89,-3.01,0.28,-23.9022,-45.8129,8.84875,1014.81
221066,0.248685,9.83261,0.999522,2.17,-3.15,-0.35,-23.786,-46.6456,8.42023,1014.81
221072,0.143472,9.81349,0.980392,1.61,-3.01,-0.35,-23.6697,-46.954,8.33157,1014.81
221078,0.133907,9.76566,1.0043,1.68,-3.15,-0.49,-23.5535,-46.4297,9.82399,1014.81
221084,0.157819,9.81827,1.00909,1.89,-3.08,0.07,-23.0595,-45.7821,11.4346,1014.81
221090,0.114778,9.78001,1.01387,1.54,-2.52,-0.28,-23.0305,-47.2624,10.2525,1014.78
221096,0.105213,9.77044,1.01387,1.61,-2.73,-0.84,-23.0014,-46.9848,9.39547,1014.78
221102,0.0813008,9.78479,0.999522,1.96,-2.59,0.07,-23.5535,-46.1521,9.29204,1014.81
221108,0.0908656,9.7561,1.0043,1.4,-2.87,-0.28,-23.6116,-46.9848,10.1934,1014.81
221114,0.148254,9.77523,1.05691,1.75,-3.08,0.21,-23.786,-47.5091,8.89307,1014.81
221120,0.124342,9.74653,1.033,1.96,-3.78,0.28,-23.2048,-46.9848,10.2377,1014.81
221126,0.109995,9.74653,1.0043,2.03,-3.29,0,-23.1758,-47.1698,10.1195,1014.81
221132,0.105213,9.7561,1.01387,1.75,-2.8,0.35,-23.292,-47.8483,8.56799,1014.82
221138,0.0669536,9.73697,1.05213,2.03,-3.36,0.84,-23.6697,-47.3857,10.6367,1014.82
221144,0.114778,9.7561,1.01865,2.1,-3.43,0.63,-22.8271,-46.5531,9.42502,1014.83
221150,0.167384,9.80392,0.980392,2.17,-3.36,-0.07,-23.0595,-47.8792,7.96216,1014.83
221156,0.172166,9.82305,0.985174,1.96,-2.87,0.77,-23.0305,-46.8615,8.22814,1014.83
221162,0.186514,9.78957,1.01865,1.89,-2.94,0.21,-22.8852,-45.8746,9.85354,1014.83
221168,0.191296,9.81827,0.97561,1.96,-2.73,-0.35,-23.0014,-47.139,8.67143,1014.82
221174,0.13869,9.8374,0.951698,1.68,-3.08,-0.14,-23.6988,-47.4782,9.39547,1014.82
221180,0.114778,9.8374,0.97561,1.68,-2.73,-0.14,-23.6697,-46.6764,9.75011,1014.84
221186,0.109995,9.79436,1.0043,1.33,-3.01,-0.07,-23.5826,-47.1082,9.11472,1014.84
221192,0.114778,9.78957,1.03778,1.19,-3.43,0.07,-23.0595,-48.2492,9.98653,1014.84
221198,0.105213,9.76088,1.04735,1.82,-3.15,-0.07,-23.0886,-46.0905,9.691,1014.79
221204,0.129125,9.80392,0.999522,1.75,-2.94,0.14,-22.6237,-46.1213,10.2377,1014.79
221210,0.105213,9.77044,1.01865,1.4,-3.08,0.28,-22.6818,-47.139,9.61712,1014.82
221216,0.129125,9.78001,1.04256,1.96,-3.08,-0.14,-23.1467,-47.1698,7.78484,1014.82
221222,0.124342,9.76566,1.04735,2.03,-3.08,0.35,-23.1758,-46.368,10.947,1014.81
221228,0.129125,9.77044,1.01387,1.89,-2.73,0.21,-22.4203,-46.8923,9.83876,1014.81
221234,0.109995,9.76088,1.02343,2.03,-3.22,0,-23.0595,-47.6633,8.8783,1014.81
221240,0.10043,9.70827,1.06648,2.45,-3.43,-0.07,-23.5535,-46.8923,10.0013,1014.81
221246,0.105213,9.72262,1.07126,2.59,-2.87,0.77,-23.3792,-46.7998,10.9174,1014.81
221252,0.181731,9.77044,1.033,3.01,-3.22,-0.07,-23.4082,-47.2007,8.86352,1014.8
221258,0.196078,9.77044,1.01387,2.45,-2.87,0.35,-23.7278,-46.8923,7.71096,1014.8
221264,0.21999,9.8087,0.985174,2.52,-2.59,-0.21,-22.7109,-46.1213,9.98653,1014.79
221270,0.172166,9.83261,0.985174,2.52,-2.38,-0.28,-23.4082,-47.6941,9.39547,1014.79
221276,0.186514,9.81349,1.01387,2.87,-2.38,-0.56,-23.1467,-46.7689,8.6271,1014.82
221282,0.109995,9.82783,0.97561,2.38,-2.59,-0.56,-22.8852,-45.5353,9.3807,1014.82
221288,0.0813008,9.8087,0.985174,2.1,-2.66,-0.35,-23.2339,-47.0157,9.79444,1014.85
221294,0.124342,9.78479,1.01865,2.45,-2.24,-0.49,-23.2629,-47.3857,8.8783,1014.85
221300,0.114778,9.81349,0.966045,2.45,-2.66,-0.77,-23.4373,-46.5222,10.09,1014.85
221306,0.0908656,9.79436,1.01387,2.24,-2.94,-0.07,-24.1637,-46.7689,9.4398,1014.84
221312,0.0813008,9.77044,1.01865,2.38,-2.94,-0.14,-23.3792,-47.2315,9.07039,1014.84
221318,0.10043,9.81349,0.970827,1.82,-2.73,0.07,-23.4954,-46.4605,9.97175,1014.82
221324,0.0765184,9.75131,1.02343,2.52,-2.87,0.21,-23.0595,-46.6764,10.5185,1014.82
221330,0.114778,9.74653,0.999522,2.17,-3.01,0.21,-22.5365,-47.8483,9.41025,1014.81
221336,0.071736,9.76088,1.01865,1.96,-2.94,0.07,-22.9433,-46.8306,9.97175,1014.81
221342,0.129125,9.78001,1.01387,2.59,-3.15,0.42,-23.3501,-46.5839,10.1638,1014.85
221348,0.0860832,9.77044,0.989957,2.24,-3.22,0.56,-23.815,-46.7073,9.30681,1014.85
221354,0.114778,9.75131,1.04256,2.17,-3.15,0.56,-23.5826,-47.6633,8.56799,1014.82
221360,0.13869,9.78479,0.999522,2.17,-3.5,0.84,-23.292,-46.5531,8.55322,1014.82
221366,0.191296,9.78479,0.994739,2.31,-3.43,0.56,-24.1346,-46.6764,8.99651,1014.82
221372,0.153037,9.78957,0.989957,2.17,-3.92,0.21,-23.1467,-48.496,8.47934,1014.82
221378,0.167384,9.82305,0.980392,2.31,-3.29,0.63,-23.1758,-46.5222,8.71576,1014.82
221384,0.162602,9.8374,0.95648,2.45,-3.29,0.07,-23.6116,-45.9979,10.7106,1014.85
221390,0.181731,9.77523,0.980392,1.89,-2.87,0.14,-23.7569,-47.9717,10.3412,1014.85
221396,0.143472,9.78957,1.01865,1.96,-2.8,0.07,-23.2629,-47.4474,9.09995,1014.84
221402,0.071736,9.78957,0.999522,1.96,-2.52,0.07,-22.8271,-46.2447,9.82399,1014.84
221408,0.0813008,9.77523,1.04256,2.24,-2.8,0.35,-23.0595,-47.6016,9.1886,1014.84
221414,0.0860832,9.75131,1.04256,2.03,-3.08,0.21,-23.9894,-48.2184,9.30681,1014.84
221420,0.133907,9.76566,1.02822,2.31,-2.8,0.56,-23.815,-47.4166,7.78484,1014.84
221426,0.109995,9.79436,0.994739,2.52,-3.01,0.42,-23.4663,-47.1698,9.17383,1014.85
221432,0.114778,9.77523,0.994739,2.24,-3.08,0.91,-23.0305,-47.8483,9.83876,1014.85
221438,0.109995,9.77523,1.01387,2.8,-3.43,1.05,-23.4954,-46.6764,9.97175,1014.8
221444,0.124342,9.74653,1.0043,2.52,-3.43,0.7,-22.798,-46.1213,9.55801,1014.8
221450,0.181731,9.77523,1.02822,2.45,-3.15,0.84,-23.4082,-47.7866,8.71576,1014.82
221456,0.167384,9.8087,0.994739,2.59,-3.5,0.35,-23.815,-47.6633,9.97175,1014.82
221462,0.205643,9.84218,0.932568,2.45,-3.36,0.84,-23.6697,-46.4605,10.3707,1014.84
221468,0.282162,9.82305,0.97561,2.31,-2.94,0.35,-23.1758,-46.8615,10.0456,1014.84
221474,0.282162,9.85174,0.908656,2.03,-2.45,-0.28,-23.8731,-47.324,8.59755,1014.84
221480,0.215208,9.81827,0.946915,1.89,-2.87,-0.42,-23.815,-46.7073,10.0752,1014.79
221486,0.162602,9.81827,0.966045,1.96,-2.8,-0.7,-23.3792,-46.5531,9.48413,1014.79
221492,0.10043,9.79914,1.02343,2.03,-2.73,-0.42,-23.815,-47.725,9.36592,1014.84
221498,0.124342,9.79436,0.97561,1.54,-3.08,-0.77,-23.8441,-46.4297,9.63189,1014.84
221504,0.153037,9.77044,1.04735,1.47,-2.94,-0.56,-23.6988,-45.8746,10.5924,1014.85
221510,0.114778,9.74175,1.03778,2.45,-2.38,-0.21,-24.2218,-46.3989,9.01129,1014.85
221516,0.0765184,9.74175,1.00909,1.75,-2.8,-0.35,-23.7569,-47.6324,9.3807,1014.86
221522,0.109995,9.7274,1.02822,2.52,-3.08,0.07,-23.1467,-45.8437,9.55801,1014.86
221528,0.0908656,9.72262,0.97561,2.24,-2.73,-0.21,-23.8441,-47.0157,9.80921,1014.82
221534,0.105213,9.7561,1.01387,2.24,-3.08,0.7,-24.1928,-47.6016,9.49891,1014.82
221540,0.10043,9.76088,0.985174,1.75,-2.73,0.7,-23.4663,-46.0905,9.01129,1014.82
221546,0.095648,9.74653,0.999522,2.45,-2.87,0.63,-22.9143,-46.6764,9.05562,1014.83
221552,0.105213,9.74653,1.01387,1.82,-3.22,0.35,-22.8852,-46.954,9.11472,1014.83
221558,0.10043,9.73697,0.985174,2.24,-3.29,1.05,-23.5535,-46.1521,9.02606,1014.82
221564,0.114778,9.74653,0.980392,1.89,-3.5,1.19,-22.6237,-45.3811,9.29204,1014.82
221570,0.124342,9.78957,0.999522,2.38,-3.22,0.63,-23.8441,-47.0157,8.74531,1014.83
221576,0.172166,9.78957,0.97561,2.38,-2.94,1.33,-23.3211,-46.368,8.55322,1014.83
221582,0.157819,9.75131,0.97561,2.03,-3.15,1.12,-23.1758,-46.1213,9.83876,1014.81
221588,0.157819,9.77044,0.985174,2.24,-2.94,0.35,-23.6407,-46.7381,9.14427,1014.81
221594,0.157819,9.82305,0.985174,1.96,-3.01,0.84,-24.1056,-46.5531,9.26248,1014.81
221600,0.23912,9.84218,0.951698,1.96,-3.5,0.21,-23.3211,-45.8746,11.3903,1014.84
221606,0.23912,9.81349,0.942133,1.68,-3.15,0.63,-23.5535,-46.2138,10.0161,1014.84
221612,0.210426,9.8374,0.93735,2.03,-2.45,0.28,-23.8441,-47.0773,9.88309,1014.82
221618,0.095648,9.78479,0.994739,1.54,-3.22,-0.14,-23.6988,-46.2138,9.92742,1014.82
221624,0.124342,9.73697,1.01387,1.75,-3.29,0.14,-23.7278,-45.5353,9.72055,1014.87
221630,0.205643,9.80392,1.03778,2.1,-2.59,0.42,-23.0886,-47.9717,9.9422,1014.87
221636,0.181731,9.78479,1.0043,1.75,-2.87,0,-23.6116,-47.3549,9.39547,1014.81
221642,0.129125,9.81827,1.02822,1.68,-2.94,-0.07,-23.6697,-45.5662,10.223,1014.81
221648,0.105213,9.78957,1.0043,1.54,-3.29,0.49,-23.3501,-46.9231,10.2377,1014.81
221654,0.124342,9.76088,1.01387,1.96,-3.01,0.56,-23.4663,-47.6324,9.36592,1014.83
221660,0.105213,9.78479,0.985174,1.82,-2.59,0.14,-23.4663,-45.9054,10.1343,1014.83
221666,0.133907,9.78479,0.97561,1.68,-2.73,0.63,-23.6988,-45.9671,9.89787,1014.82
221672,0.153037,9.77044,1.0043,2.1,-3.22,0.28,-23.9022,-47.6633,8.8783,1014.82
221678,0.143472,9.76088,1.00909,2.1,-3.22,0.7,-23.2048,-46.1213,11.2721,1014.84
221684,0.143472,9.77044,0.985174,2.17,-3.01,0.91,-23.292,-46.3989,10.1047,1014.84
221690,0.143472,9.80392,0.989957,2.03,-3.29,0.35,-24.309,-46.6456,9.42502,1014.83
221696,0.186514,9.77044,0.999522,1.61,-3.5,0.63,-24.2218,-46.4605,9.35114,1014.83
221702,0.196078,9.81827,0.966045,1.68,-3.01,0.63,-23.815,-44.7027,10.6219,1014.83
221708,0.215208,9.82305,0.946915,1.61,-2.73,0.21,-24.0475,-46.6456,8.42023,1014.83
221714,0.162602,9.8087,0.961262,1.75,-3.01,0.14,-23.9894,-46.7381,8.74531,1014.83
221720,0.162602,9.8374,0.994739,1.4,-3.29,-0.07,-23.0014,-45.4428,9.55801,1014.87
221726,0.215208,9.81827,0.980392,1.33,-2.59,0.07,-24.5414,-47.2315,7.84395,1014.87
221732,0.210426,9.8374,0.951698,1.4,-2.8,-0.42,-24.5995,-46.8923,8.13948,1014.83
221738,0.10043,9.78001,1.01387,1.4,-2.87,-0.14,-24.1637,-46.5222,9.01129,1014.83
221744,0.109995,9.77044,1.06169,1.54,-2.52,-0.21,-23.7278,-45.3195,9.89787,1014.8
221750,0.129125,9.71784,1.01387,1.61,-3.08,0.07,-23.786,-46.368,8.58277,1014.8
221756,0.143472,9.7561,1.04735,1.82,-3.15,0.21,-23.4082,-46.5222,8.89307,1014.83
221762,0.105213,9.74653,1.0043,2.1,-2.8,0.49,-23.6407,-45.9671,9.58757,1014.83
221768,0.0908656,9.79914,0.970827,1.82,-3.36,0,-24.2509,-46.0288,9.36592,1014.83
221774,0.162602,9.73218,0.994739,1.89,-2.73,0.42,-23.4082,-46.954,9.35114,1014.81
221780,0.095648,9.79436,1.033,2.38,-3.29,0.56,-23.5826,-46.1521,9.91265,1014.81
221786,0.162602,9.77044,0.985174,1.82,-2.94,0.56,-23.3792,-46.2755,9.691,1014.85
221792,0.109995,9.78479,0.97561,2.45,-3.15,0.84,-23.1467,-47.1698,9.07039,1014.85
221798,0.157819,9.79436,1.0043,2.1,-3.29,0.77,-22.9433,-45.7821,10.1195,1014.82
221804,0.172166,9.78957,0.985174,2.52,-3.15,0.84,-23.4082,-45.9979,9.64667,1014.82
221810,0.186514,9.80392,0.961262,2.03,-2.87,0.28,-23.5535,-46.3063,9.41025,1014.82
221816,0.248685,9.84696,0.970827,1.68,-2.87,0.21,-23.5244,-46.368,9.14427,1014.82
221822,0.234338,9.86609,0.951698,1.96,-3.08,0,-23.292,-45.1961,9.89787,1014.82
221828,0.23912,9.86609,0.903874,1.33,-2.73,-0.28,-23.6116,-46.7689,8.86352,1014.83
221834,0.248685,9.85653,0.946915,1.47,-2.38,-0.35,-24.1346,-47.2315,9.07039,1014.83
221840,0.172166,9.8374,0.961262,1.26,-3.15,-0.7,-23.2629,-46.2447,9.82399,1014.83
221846,0.133907,9.82305,0.999522,1.75,-3.36,-0.56,-23.786,-46.1213,9.73533,1014.83
221852,0.172166,9.8374,0.946915,1.47,-2.24,-0.77,-23.5244,-47.5708,8.52366,1014.8
221858,0.157819,9.76088,1.00909,0.84,-2.94,-0.63,-22.9143,-46.6764,9.63189,1014.8
221864,0.0908656,9.75131,1.01865,1.4,-3.15,0.14,-24.0475,-45.8437,10.6662,1014.82
221870,0.10043,9.71784,1.06169,1.33,-2.94,-0.35,-23.2629,-46.8923,8.9374,1014.82
221876,0.129125,9.78479,1.01387,1.54,-3.15,0.07,-23.3792,-46.7381,9.26248,1014.83
221882,0.186514,9.73218,1.05213,1.61,-3.22,-0.28,-23.3211,-45.1653,9.09995,1014.83
221888,0.0813008,9.6748,1.09995,1.96,-2.87,-0.14,-23.4373,-46.9848,9.55801,1014.83
221894,0.13869,9.72262,1.04256,2.17,-3.08,0.42,-23.9312,-47.725,8.34635,1014.83
221900,0.162602,9.76088,0.980392,2.31,-2.87,0.7,-23.6988,-45.7512,9.26248,1014.83
221906,0.13869,9.78479,0.980392,1.54,-3.08,0.42,-23.3211,-46.368,9.95698,1014.8
221912,0.153037,9.79436,0.999522,2.24,-3.29,0.35,-23.4082,-46.6764,9.51368,1014.8
221918,0.162602,9.76566,0.980392,1.68,-3.29,0.49,-23.6988,-46.3989,8.89307,1014.83
221924,0.191296,9.78957,1.01387,2.1,-3.08,0.42,-23.3501,-45.2886,9.9422,1014.83
221930,0.200861,9.82305,0.961262,2.03,-3.29,0.42,-24.3671,-46.7073,9.14427,1014.84
221936,0.21999,9.81349,0.966045,1.68,-3.29,0.07,-23.2339,-46.7689,10.8288,1014.84
221942,0.23912,9.82305,0.942133,1.61,-3.15,0.14,-23.5244,-45.6587,9.85354,1014.84
221948,0.234338,9.81349,0.985174,1.82,-3.29,-0.35,-23.6697,-46.7381,9.92742,1014.81
221954,0.196078,9.82305,1.0043,1.54,-2.8,-0.49,-23.6697,-47.324,10.4741,1014.81
221960,0.191296,9.81349,1.00909,1.26,-3.08,-0.49,-23.2339,-46.2755,10.1786,1014.86
221966,0.172166,9.78001,1.04256,1.4,-3.08,-0.56,-24.0184,-47.0157,9.70578,1014.86
221972,0.196078,9.81349,0.999522,1.68,-2.94,-0.84,-24.338,-48.1259,9.3807,1014.83
221978,0.215208,9.82305,1.02822,1.4,-2.8,-0.56,-24.1346,-46.3989,9.79444,1014.83
221984,0.167384,9.76566,1.02343,1.47,-3.01,-0.49,-23.6407,-45.2886,9.67622,1014.84
221990,0.11956,9.74653,1.01865,1.75,-3.36,-0.7,-23.4954,-46.5839,8.90785,1014.84
221996,0.11956,9.76088,1.02822,1.54,-2.87,-0.42,-23.9603,-47.0465,8.80442,1014.84
222002,0.153037,9.7561,1.02822,1.75,-3.43,-0.07,-23.9603,-46.183,9.58757,1014.82
222008,0.13869,9.75131,1.01865,1.61,-3.01,-0.14,-23.4082,-47.4474,8.77486,1014.82
222014,0.13869,9.76088,1.0043,1.54,-3.22,0.07,-24.0475,-47.324,9.17383,1014.77
222020,0.124342,9.76566,1.01387,1.82,-3.08,0,-23.3501,-46.2447,8.8783,1014.77
222026,0.167384,9.76566,0.999522,1.82,-3.15,-0.35,-23.7569,-46.3989,10.2821,1014.83
222032,0.153037,9.81349,0.961262,1.89,-2.94,-0.21,-23.1177,-47.4782,9.1886,1014.83
222038,0.162602,9.79914,0.946915,1.26,-2.8,-0.49,-23.4373,-46.1213,8.74531,1014.82
222044,0.162602,9.84218,0.951698,1.61,-2.52,0.35,-23.4954,-46.2138,9.01129,1014.82
222050,0.157819,9.81349,0.961262,1.4,-2.87,0.07,-23.6988,-47.8792,10.0309,1014.84
222056,0.186514,9.82305,0.97561,1.26,-2.94,-0.35,-23.3211,-46.1521,8.86352,1014.84
222062,0.205643,9.85174,0.970827,1.12,-3.01,0,-22.8852,-45.8746,9.72055,1014.84
222068,0.263032,9.81827,0.966045,1.12,-2.8,-0.7,-23.4954,-46.2138,9.9422,1014.82
222074,0.181731,9.83261,0.942133,1.05,-2.73,-0.49,-23.786,-47.1082,9.42502,1014.82
222080,0.13869,9.82305,1.02343,0.84,-2.73,-1.4,-23.4663,-45.9363,10.5185,1014.84
222086,0.114778,9.78001,1.02822,0.98,-2.87,-1.12,-23.4082,-45.8437,9.36592,1014.84
222092,0.133907,9.74175,1.10473,1.26,-3.08,-0.28,-23.9022,-47.3857,9.58757,1014.83
222098,0.186514,9.77044,1.06169,1.68,-2.66,-0.21,-23.0886,-45.9054,9.67622,1014.83
222104,0.186514,9.76566,1.03778,1.4,-2.38,-0.84,-23.1758,-46.3372,9.58757,1014.84
222110,0.133907,9.78957,1.03778,1.54,-3.22,-0.98,-23.2339,-47.324,8.99651,1014.84
222116,0.11956,9.76088,1.033,2.03,-2.66,-0.42,-23.0886,-47.0465,9.72055,1014.84
222122,0.0047824,9.76566,1.01387,1.75,-3.22,0,-22.8271,-45.5353,8.46456,1014.83
222128,0.167384,9.74653,1.01387,1.96,-3.01,-0.49,-23.1467,-46.5531,9.691,1014.83
222134,0.0908656,9.78001,1.033,1.61,-3.43,0,-23.2048,-47.6941,8.02127,1014.81
222140,0.095648,9.77523,0.999522,2.17,-3.36,0.49,-22.9143,-45.8437,9.39547,1014.81
222146,0.124342,9.78001,0.966045,2.17,-3.22,0.21,-23.6988,-46.2755,10.1491,1014.84
222152,0.167384,9.80392,0.994739,1.96,-3.01,0.42,-23.4954,-47.1082,9.4398,1014.84
222158,0.215208,9.79436,0.970827,1.12,-2.94,-0.07,-23.4663,-46.5531,9.14427,1014.87
222164,0.186514,9.79914,0.951698,1.89,-3.22,-0.35,-23.2339,-46.183,9.97175,1014.87
222170,0.196078,9.84218,0.97561,1.19,-2.66,0.49,-23.0886,-46.4605,8.67143,1014.83
222176,0.148254,9.82305,0.994739,1.33,-3.08,0.07,-24.1637,-47.2932,10.1343,1014.83
222182,0.176949,9.82783,1.0043,1.54,-3.29,-0.7,-22.769,-46.1521,9.42502,1014.83
222188,0.205643,9.81827,1.01387,1.26,-3.01,-0.42,-23.4373,-46.3372,8.15425,1014.83
222194,0.162602,9.81349,1.01865,1.68,-2.66,0.07,-23.6697,-47.1698,8.65665,1014.83
222200,0.162602,9.79914,1.00909,1.54,-3.43,-0.56,-23.2048,-45.5353,10.5924,1014.82
222206,0.129125,9.74175,1.06169,1.4,-3.15,-0.28,-23.2339,-45.5662,9.80921,1014.82
222212,0.109995,9.75131,1.05213,1.96,-3.01,-0.35,-23.5826,-47.3857,10.3412,1014.83
222218,0.153037,9.76566,1.03778,1.96,-3.15,-0.56,-23.0305,-46.2138,9.4398,1014.83
222224,0.153037,9.74653,1.05213,2.17,-2.87,0,-22.2169,-46.954,9.67622,1014.83
222230,0.114778,9.7561,0.994739,1.82,-3.08,0.35,-22.5656,-46.4914,8.28724,1014.83
222236,0.129125,9.79436,0.989957,1.68,-3.29,0,-23.815,-47.5091,8.28724,1014.83
222242,0.133907,9.74653,1.02343,2.38,-3.01,0.14,-22.5075,-45.2886,9.20338,1014.87
222248,0.13869,9.76566,1.0043,1.75,-3.36,0.56,-23.3501,-45.9363,10.3855,1014.87
222254,0.11956,9.78957,0.97561,1.75,-3.08,0.14,-23.3501,-47.4474,8.55322,1014.84
222260,0.172166,9.76566,1.0043,1.89,-3.08,0.28,-23.2048,-45.6587,9.04084,1014.84
222266,0.181731,9.81827,0.970827,1.75,-3.29,0.35,-23.2339,-45.8129,10.1638,1014.83
222272,0.196078,9.79436,0.970827,1.54,-2.94,0,-23.4954,-47.6324,8.56799,1014.83
222278,0.181731,9.82783,0.966045,1.82,-3.22,-0.21,-23.0595,-46.6764,9.89787,1014.81
222284,0.153037,9.8087,0.989957,1.75,-3.36,0.07,-23.1758,-45.5662,9.04084,1014.81
222290,0.205643,9.8374,1.01865,1.47,-2.73,-0.56,-23.4954,-46.8923,9.55801,1014.81
222296,0.23912,9.78479,0.994739,1.68,-2.45,-0.63,-23.1177,-46.3063,10.5333,1014.83
222302,0.181731,9.78957,0.951698,1.26,-2.8,-0.77,-23.4082,-45.7204,10.0604,1014.83
222308,0.0813008,9.80392,1.04735,1.68,-3.08,-1.05,-23.4954,-47.3549,8.77486,1014.85
222314,0.114778,9.76088,1.07126,1.75,-2.87,-1.05,-23.2339,-46.3063,8.92263,1014.85
222320,0.133907,9.75131,1.02343,1.89,-3.01,-1.05,-23.292,-46.0288,8.73053,1014.84
222326,0.167384,9.76566,1.02822,1.54,-2.94,-0.63,-22.8271,-46.6764,9.64667,1014.84
222332,0.124342,9.75131,1.06169,1.89,-3.43,-0.63,-22.9724,-47.0157,8.65665,1014.87
222338,0.105213,9.73697,1.0043,1.26,-2.8,0.14,-23.4663,-47.139,7.69619,1014.87
222344,0.114778,9.74175,1.02822,1.61,-3.43,-0.14,-22.6527,-45.6279,9.73533,1014.83
222350,0.114778,9.74175,1.01865,1.96,-3.01,0.35,-23.0014,-47.324,9.26248,1014.83
222356,0.124342,9.73218,1.00909,1.89,-3.22,0,-23.292,-46.8306,9.29204,1014.83
222362,0.0860832,9.7561,1.04256,1.96,-3.22,0.21,-23.292,-45.0419,9.66145,1014.83
222368,0.124342,9.78479,0.980392,1.68,-3.08,0.56,-23.3211,-46.6147,8.55322,1014.83
222374,0.157819,9.76088,1.0043,1.82,-3.08,0.7,-23.292,-47.3857,8.50889,1014.85
222380,0.205643,9.81349,0.980392,2.17,-3.22,0.07,-23.4082,-45.597,9.79444,1014.85
222386,0.191296,9.82783,1.02822,1.61,-3.22,-0.56,-23.6116,-47.0465,8.56799,1014.81
222392,0.172166,9.80392,0.985174,1.47,-2.94,0.21,-23.8731,-48.1567,8.65665,1014.81
222398,0.148254,9.79436,1.00909,1.68,-3.5,-0.28,-23.4954,-47.2315,7.57797,1014.83
222404,0.196078,9.78957,1.03778,1.54,-3.01,-0.49,-22.3331,-45.9671,9.33637,1014.83
222410,0.21999,9.78479,1.03778,1.75,-2.66,-0.63,-23.3501,-47.3857,9.09995,1014.83
222416,0.129125,9.82783,0.999522,1.54,-2.87,-0.56,-23.0014,-47.1698,7.78484,1014.84
222422,0.11956,9.77523,1.033,1.33,-3.29,-0.49,-23.3792,-44.826,9.49891,1014.84
222428,0.162602,9.76566,1.033,1.54,-3.15,0.14,-23.0595,-46.2755,8.9374,1014.82
222434,0.162602,9.76566,1.04735,1.82,-2.66,-0.28,-23.786,-47.1698,8.65665,1014.82
222440,0.157819,9.78001,1.04256,2.17,-2.66,-0.42,-24.1346,-46.7073,8.84875,1014.81
222446,0.0765184,9.79436,0.970827,1.68,-3.01,0.07,-23.6988,-46.4605,9.82399,1014.81
222452,0.10043,9.78479,0.994739,2.1,-3.43,-0.49,-24.0184,-47.2932,9.46935,1014.82
222458,0.105213,9.7561,1.02343,1.82,-3.15,-0.28,-23.5244,-46.4297,9.08517,1014.82
222464,0.133907,9.76566,0.97561,1.68,-3.01,0.35,-24.0184,-45.4737,10.4003,1014.82
222470,0.124342,9.76566,0.994739,1.75,-3.43,0.14,-23.5244,-47.3857,7.5632,1014.82
222476,0.109995,9.76566,1.01865,1.96,-3.5,0.63,-23.8441,-46.8923,9.05562,1014.82
222482,0.153037,9.79436,0.989957,1.75,-2.73,0.42,-23.9022,-45.5662,8.80442,1014.85
222488,0.172166,9.82305,0.985174,1.61,-2.94,0.49,-24.0184,-46.9848,10.0456,1014.85
222494,0.267814,9.84218,0.966045,1.33,-3.43,0.07,-23.7278,-48.0334,7.85873,1014.81
222500,0.243902,9.81827,0.97561,1.4,-3.15,-0.07,-23.6697,-45.5353,9.45458,1014.81
222506,0.210426,9.83261,1.00909,1.54,-3.08,-0.63,-23.8441,-45.4428,10.7106,1014.83
222512,0.129125,9.78479,1.01387,1.61,-2.66,-0.63,-23.292,-46.8615,10.0013,1014.83
222518,0.124342,9.79436,1.02343,1.61,-3.08,-0.7,-24.1637,-46.4297,8.90785,1014.84
222524,0.191296,9.76566,1.06648,1.47,-2.87,-0.35,-23.5535,-46.0288,10.6219,1014.84
222530,0.191296,9.8087,1.04735,2.17,-3.15,-1.12,-23.5244,-47.7866,9.30681,1014.84
222536,0.0573888,9.79436,0.994739,1.61,-2.94,-1.19,-23.815,-47.2007,9.72055,1014.8
222542,0.11956,9.74653,1.01865,1.61,-2.8,-0.28,-23.6697,-46.183,10.1195,1014.8
222548,0.0526064,9.77044,1.033,1.75,-3.5,-0.56,-24.0765,-47.4166,9.33637,1014.81
222554,0.148254,9.7561,1.05213,1.61,-3.43,0.14,-23.4373,-47.6324,9.15905,1014.81
222560,0.105213,9.73697,0.994739,1.96,-3.01,-0.42,-23.3501,-45.8437,9.63189,1014.84
222566,0.0908656,9.76088,1.01865,1.75,-3.22,-0.14,-23.2048,-45.3811,10.0752,1014.84
222572,0.13869,9.78001,1.02822,1.68,-3.43,0.49,-23.5535,-47.1082,8.59755,1014.81
222578,0.124342,9.76088,0.985174,1.82,-3.22,0.35,-24.1346,-46.9231,11.1686,1014.81
222584,0.157819,9.78957,0.946915,1.68,-3.08,0.35,-23.3211,-46.5839,9.66145,1014.81
222590,0.181731,9.78479,0.994739,1.4,-2.94,0.42,-23.5826,-47.3549,9.05562,1014.82
222596,0.176949,9.79436,0.97561,1.4,-3.29,-0.07,-23.3501,-48.0025,8.95218,1014.82
222602,0.153037,9.78957,1.0043,1.89,-3.22,0.21,-23.292,-45.2886,10.7992,1014.81
222608,0.253467,9.78957,1.00909,1.19,-2.8,-0.28,-23.3211,-47.139,9.04084,1014.81
222614,0.215208,9.79436,1.02822,1.61,-3.08,-0.07,-23.7569,-46.8615,8.71576,1014.82
222620,0.157819,9.81349,1.02822,1.68,-2.45,-0.63,-23.2629,-45.7821,9.07039,1014.82
222626,0.11956,9.82783,1.0043,1.68,-3.22,-0.49,-23.2339,-45.6279,9.51368,1014.82
222632,0.114778,9.77044,1.03778,1.68,-3.08,-0.77,-23.2339,-47.3549,9.3807,1014.82
222638,0.10043,9.7561,1.02822,1.82,-3.08,-0.77,-23.3501,-45.8437,8.16903,1014.82
222644,0.109995,9.75131,1.03778,1.26,-2.94,-0.14,-23.0014,-45.9363,10.3116,1014.85
222650,0.109995,9.7561,1.033,1.4,-3.08,0.07,-24.1637,-47.8483,8.59755,1014.85
222656,0.0813008,9.74175,1.01387,2.24,-3.71,-0.35,-23.786,-47.6324,8.3759,1014.83
222662,0.105213,9.74653,0.999522,1.82,-3.36,0,-22.769,-46.0288,9.75011,1014.83
222668,0.105213,9.77523,1.02822,1.89,-3.43,0.21,-23.0305,-46.5222,9.33637,1014.86
222674,0.129125,9.76088,1.033,2.1,-3.36,0.07,-23.6407,-47.0773,8.21336,1014.86
222680,0.167384,9.78479,0.989957,1.89,-3.57,0.28,-23.2048,-46.6764,9.70578,1014.85
222686,0.143472,9.7561,0.985174,2.24,-3.29,0.14,-23.4082,-46.7998,8.65665,1014.85
222692,0.176949,9.81349,0.985174,2.03,-3.71,0.14,-24.2799,-47.5399,8.31679,1014.79
222698,0.25825,9.81827,0.961262,1.82,-2.94,-0.28,-23.9603,-46.4297,8.80442,1014.79
222704,0.23912,9.86609,0.93735,1.47,-2.87,-0.7,-23.0014,-46.2447,9.1295,1014.79
222710,0.23912,9.92826,0.923003,1.26,-2.8,-0.63,-24.2799,-47.324,7.5632,1014.82
222716,0.196078,9.84696,0.97561,0.63,-2.94,-1.19,-23.2339,-47.6633,8.56799,1014.82
222722,0.210426,9.82783,1.02343,0.84,-2.73,-1.61,-23.1467,-45.7512,10.2377,1014.78
222728,0.148254,9.79436,1.01865,1.12,-2.8,-1.54,-23.0595,-46.3372,9.79444,1014.78
222734,0.0813008,9.78479,1.06169,0.84,-2.66,-1.19,-23.6116,-47.3549,7.66663,1014.82
222740,0.095648,9.72262,1.12386,1.12,-3.01,-0.91,-23.2629,-46.5531,10.2968,1014.82
222746,0.109995,9.73697,1.0856,1.4,-3.22,-1.12,-23.3501,-46.7998,9.17383,1014.83
222752,0.0908656,9.73697,1.02343,1.19,-2.87,-0.77,-23.6407,-47.3549,9.91265,1014.83
222758,0.0860832,9.73697,1.05213,1.96,-2.8,-0.84,-23.1467,-46.368,9.20338,1014.83
222764,0.0382592,9.74175,1.02343,1.61,-3.15,-0.35,-23.4373,-46.1213,10.2968,1014.78
222770,0.109995,9.71784,1.033,2.03,-3.15,-0.14,-23.6697,-47.5399,9.07039,1014.78
222776,0.0813008,9.73697,1.04735,1.89,-3.15,0.14,-22.7399,-46.954,8.9374,1014.81
222782,0.105213,9.74653,0.994739,1.96,-2.87,-0.07,-23.2339,-46.368,9.26248,1014.81
222788,0.114778,9.78001,0.985174,1.75,-3.22,0.35,-23.1758,-46.9231,8.43501,1014.83
222794,0.129125,9.78479,0.966045,1.96,-3.43,0.28,-23.1177,-48.0334,8.77486,1014.83
222800,0.114778,9.78957,0.980392,2.03,-2.8,0,-23.3211,-46.2755,9.30681,1014.8
222806,0.11956,9.77523,0.97561,2.17,-3.5,0.21,-23.2339,-46.0596,9.691,1014.8
222812,0.200861,9.86131,0.942133,1.26,-3.01,0.21,-23.3792,-47.2624,8.21336,1014.8
222818,0.172166,9.84218,0.946915,1.4,-3.01,0,-23.4663,-46.2138,9.14427,1014.81
222824,0.224773,9.90435,0.985174,1.54,-2.66,-0.35,-23.4373,-45.4428,9.89787,1014.81
222830,0.167384,9.8374,0.989957,1.12,-2.87,-0.91,-23.1177,-46.8615,10.0456,1014.82
222836,0.0908656,9.78957,0.999522,1.26,-2.52,-0.49,-23.292,-47.2007,9.46935,1014.82
222842,0.0621712,9.80392,1.05213,1.75,-2.87,-0.35,-23.2048,-45.6279,10.2673,1014.82
222848,0.10043,9.7274,1.05691,1.47,-2.94,-0.56,-23.4663,-47.0773,8.90785,1014.82
222854,0.11956,9.7561,1.04735,1.68,-2.66,-0.84,-23.3501,-47.6324,7.54842,1014.84
222860,0.0526064,9.75131,1.033,1.61,-2.8,-0.14,-23.0886,-46.3372,10.0604,1014.84
222866,0.0765184,9.77044,1.05691,2.03,-2.94,0.07,-23.3792,-46.4297,9.29204,1014.83
222872,0.11956,9.78001,1.05213,2.52,-3.5,0.07,-23.4954,-47.91,8.61232,1014.83
222878,0.095648,9.74653,1.01865,2.24,-3.29,-0.28,-23.7278,-46.8923,10.1195,1014.83
222884,0.095648,9.75131,1.0043,2.03,-2.87,0.28,-22.6527,-46.1213,11.4346,1014.84
222890,0.109995,9.76088,0.97561,2.24,-2.94,0.49,-23.3792,-47.2315,8.83397,1014.84
222896,0.11956,9.78479,1.0043,1.96,-2.87,0.07,-24.0184,-47.5399,9.29204,1014.84
222902,0.13869,9.81827,0.989957,1.96,-3.08,0.49,-23.3501,-45.5045,9.49891,1014.84
222908,0.186514,9.83261,1.033,1.75,-3.64,-0.21,-23.1758,-46.8923,8.13948,1014.84
222914,0.191296,9.78957,0.985174,1.61,-2.73,0.21,-23.1177,-47.3857,9.60234,1014.84
222920,0.200861,9.81827,0.980392,1.75,-3.08,-0.14,-23.9603,-46.4297,8.30202,1014.82
222926,0.162602,9.82783,0.985174,1.54,-2.59,-0.49,-23.4663,-46.2755,9.97175,1014.82
222932,0.167384,9.8087,1.00909,1.68,-3.5,-0.56,-23.1177,-47.0465,10.4003,1014.82
222938,0.162602,9.79914,1.03778,1.61,-2.66,-0.35,-23.815,-45.9979,8.67143,1014.83
222944,0.133907,9.76566,0.980392,2.03,-2.87,-0.28,-23.1467,-45.9363,9.64667,1014.83
222950,0.071736,9.80392,1.02822,1.68,-3.08,-0.49,-23.9312,-46.4297,8.50889,1014.8
222956,0.0765184,9.73218,0.994739,1.96,-3.5,-0.21,-24.1637,-46.9848,9.51368,1014.8
222962,0.109995,9.76566,1.0856,1.75,-2.8,0,-23.2048,-46.0596,9.83876,1014.82
222968,0.10043,9.76566,1.02343,2.17,-3.43,0.07,-22.6237,-46.5531,9.80921,1014.82
222974,0.0908656,9.74175,1.04735,1.89,-3.36,0.07,-23.6988,-47.8175,8.22814,1014.81
222980,0.109995,9.77044,1.0043,2.03,-2.59,-0.14,-23.2339,-45.8746,9.66145,1014.81
222986,0.11956,9.77044,1.01387,2.1,-2.8,0.42,-23.8441,-45.6279,9.27726,1014.81
222992,0.105213,9.78957,1.00909,2.1,-2.87,1.05,-23.9312,-47.4166,9.88309,1014.81
222998,0.11956,9.79436,1.01865,1.47,-3.15,0.35,-22.9433,-46.3989,9.55801,1014.81
223004,0.114778,9.78479,1.033,2.1,-3.43,-0.21,-23.6116,-46.2755,10.7549,1014.82
223010,0.114778,9.8087,1.02822,2.03,-3.36,0.7,-22.798,-47.2007,9.9422,1014.82
223016,0.153037,9.76566,1.0043,2.17,-3.15,0.49,-22.9143,-47.4782,8.16903,1014.83
223022,0.162602,9.78957,1.01387,1.61,-2.52,-0.21,-23.0595,-45.5353,9.27726,1014.83
223028,0.143472,9.79914,1.00909,1.89,-3.15,-0.35,-23.0014,-47.1082,9.23293,1014.83
223034,0.148254,9.79436,1.01387,1.68,-3.01,-0.49,-22.9433,-47.2624,8.95218,1014.83
223040,0.162602,9.79436,1.03778,1.68,-2.87,0.35,-23.4954,-46.5839,9.33637,1014.83
223046,0.095648,9.7561,1.08082,1.68,-2.8,0.21,-22.6527,-46.3063,10.1195,1014.83
223052,0.109995,9.81349,1.00909,1.89,-3.15,-0.35,-24.0475,-47.3549,9.04084,1014.83
223058,0.200861,9.85174,0.97561,1.89,-3.29,-0.14,-22.9143,-46.9231,9.75011,1014.84
223064,0.176949,9.77044,1.033,2.03,-2.8,-0.42,-24.2218,-46.183,10.3855,1014.84
223070,0.0908656,9.7561,1.04256,1.47,-2.73,0,-23.4082,-47.1698,9.83876,1014.82
223076,0.095648,9.76088,1.08082,2.1,-2.94,0,-23.0595,-47.1698,8.53844,1014.82
223082,0.133907,9.7561,1.01387,1.96,-3.29,0.21,-22.8852,-45.9054,8.84875,1014.82
223088,0.0908656,9.78001,1.04256,1.96,-2.94,0.21,-23.4082,-46.6764,9.45458,1014.82
223094,0.114778,9.76566,1.05691,2.31,-3.15,0.42,-24.0475,-47.3549,8.74531,1014.83
223100,0.109995,9.7561,1.04735,2.1,-3.64,0.49,-23.0014,-45.6895,11.213,1014.83
223106,0.0813008,9.76566,1.00909,2.17,-3.08,0.49,-23.5244,-46.2755,10.415,1014.83
223112,0.11956,9.75131,1.01865,2.31,-2.87,0.63,-23.8441,-47.0773,9.35114,1014.84
223118,0.191296,9.7561,1.02343,2.45,-3.22,0.35,-22.5365,-47.0157,9.85354,1014.84
223124,0.224773,9.82783,1.0043,1.68,-3.15,0.14,-23.4373,-45.8129,10.1491,1014.86
223130,0.25825,9.84218,0.97561,2.17,-2.8,0.28,-23.7278,-47.2932,7.99171,1014.86
223136,0.200861,9.9187,0.951698,2.17,-3.01,0.21,-23.2339,-47.139,8.65665,1014.82
223142,0.210426,9.82783,0.985174,1.96,-2.87,-0.7,-23.4082,-45.3195,9.80921,1014.82
223148,0.143472,9.84696,1.03778,1.54,-3.01,-0.21,-23.3501,-46.7689,10.947,1014.84
223154,0.129125,9.77044,1.04735,1.82,-2.8,-0.21,-23.9312,-47.6941,8.18381,1014.84
223160,0.105213,9.79914,1.06169,2.1,-3.01,-0.7,-23.7569,-46.2447,9.52846,1014.84
223166,0.129125,9.78479,1.05213,1.82,-2.66,-0.35,-23.7278,-47.6941,10.09,1014.78
223172,0.095648,9.75131,1.06648,1.96,-2.73,-0.56,-24.1056,-47.6633,8.47934,1014.78
223178,0.105213,9.74653,1.06648,2.1,-3.08,-0.14,-23.7278,-47.0465,9.98653,1014.83
223184,0.11956,9.71305,1.04256,2.45,-3.22,0.21,-23.815,-46.3063,10.9174,1014.83
223190,0.109995,9.7274,1.04735,2.8,-3.15,0.07,-23.6988,-46.6764,9.36592,1014.84
223196,0.0621712,9.74653,1.01387,2.38,-2.94,0.07,-23.4373,-47.0465,8.98173,1014.84
223202,0.0908656,9.74653,1.05691,2.73,-3.22,0.7,-23.0886,-46.1521,9.97175,1014.8
223208,0.129125,9.7561,1.02822,2.17,-3.01,0.84,-23.4373,-47.2315,9.05562,1014.8
223214,0.114778,9.76088,1.00909,2.87,-3.36,0.21,-22.8561,-48.2801,9.64667,1014.81
223220,0.109995,9.74175,0.994739,2.38,-3.01,0.77,-23.2629,-46.2138,9.61712,1014.81
223226,0.0860832,9.76566,0.951698,2.94,-3.01,1.26,-23.3211,-46.6147,10.1343,1014.81
223232,0.133907,9.82305,0.970827,2.24,-2.45,0.84,-23.5244,-47.2315,9.01129,1014.8
223238,0.229555,9.82305,0.970827,2.38,-3.08,0.28,-23.1177,-45.597,9.54324,1014.8
223244,0.248685,9.83261,0.946915,2.1,-2.73,0,-23.3501,-45.5662,9.27726,1014.82
223250,0.191296,9.85174,0.918221,1.54,-2.94,-0.21,-22.798,-47.3857,9.33637,1014.82
223256,0.200861,9.84218,0.980392,1.33,-2.8,0,-23.7569,-47.139,9.51368,1014.81
223262,0.224773,9.79436,1.04735,1.82,-3.01,-0.56,-24.1056,-45.7821,10.4298,1014.81
223268,0.210426,9.79914,1.033,1.75,-2.94,-0.7,-23.292,-46.4605,9.15905,1014.8
223274,0.133907,9.8087,0.989957,1.54,-2.31,-1.19,-24.2799,-46.9231,8.49411,1014.8
223280,0.095648,9.78957,1.033,2.24,-3.08,-0.42,-23.4954,-46.4914,8.67143,1014.8
223286,0.0765184,9.76566,1.05691,0.91,-2.8,-0.84,-23.5535,-45.9979,9.86832,1014.83
223292,0.071736,9.78957,1.05213,2.17,-3.01,-0.84,-23.4373,-47.2007,9.60234,1014.83
223298,0.0908656,9.76088,1.02343,1.96,-2.73,0,-23.8441,-46.5531,9.60234,1014.83
223304,0.0908656,9.74653,1.02343,2.45,-2.59,-0.21,-22.9724,-45.9363,9.46935,1014.83
223310,0.0908656,9.76566,1.01387,2.1,-2.94,-0.14,-23.8441,-47.1082,8.95218,1014.79
223316,0.0908656,9.77523,1.01865,2.1,-2.31,0.07,-24.1928,-46.9848,8.6271,1014.79
223322,0.105213,9.77523,0.985174,2.59,-3.01,0.07,-23.292,-44.7335,9.66145,1014.79
223328,0.10043,9.78957,0.980392,2.31,-2.73,0.56,-23.1467,-46.7689,9.54324,1014.79
223334,0.124342,9.79436,0.994739,2.03,-2.87,0.42,-23.4954,-47.725,9.41025,1014.79
223340,0.109995,9.76566,0.985174,1.96,-2.87,0.21,-24.309,-46.368,9.57279,1014.81
223346,0.114778,9.78957,0.97561,1.89,-2.66,1.05,-23.2629,-45.7512,10.814,1014.81
223352,0.114778,9.79436,0.946915,1.89,-3.08,0.7,-23.2339,-47.139,8.33157,1014.81
223358,0.167384,9.80392,0.989957,1.82,-2.94,-0.21,-23.2629,-46.6764,9.52846,1014.81
223364,0.157819,9.81349,0.961262,1.89,-3.43,-0.14,-23.5826,-45.5045,10.0456,1014.82
223370,0.129125,9.77523,1.0043,1.47,-2.94,0.49,-23.0595,-47.0465,9.29204,1014.82
223376,0.13869,9.79436,1.00909,1.75,-2.8,-17.5,-23.6988,-47.0465,8.92263,1014.84
223382,0.229555,9.78957,1.05691,1.82,-3.15,0.56,-23.786,-45.8746,9.66145,1014.84
223388,0.196078,9.79914,1.01387,1.61,-2.94,0.21,-23.4082,-46.7998,9.27726,1014.83
223394,0.133907,9.77044,1.033,1.96,-3.22,-0.28,-23.6116,-47.324,9.691,1014.83
223400,0.105213,9.78479,0.989957,1.89,-2.87,-0.07,-23.4082,-46.6147,10.7992,1014.83
223406,0.129125,9.79436,1.06648,2.03,-2.45,0.21,-23.1758,-45.1036,10.0752,1014.79
223412,0.129125,9.79914,1.02343,1.82,-3.01,-0.42,-22.5075,-47.2624,9.9422,1014.79
223418,0.114778,9.79436,1.01387,1.89,-3.5,-0.07,-23.0014,-46.9848,8.92263,1014.83
223424,0.10043,9.78479,1.02343,2.17,-2.87,0.49,-23.2339,-45.6587,9.67622,1014.83
223430,0.124342,9.80392,1.02343,2.1,-2.8,0.07,-22.5075,-46.7689,8.76009,1014.83
223436,0.129125,9.78001,0.966045,2.17,-3.08,-0.07,-23.6407,-46.2138,9.64667,1014.83
223442,0.11956,9.78479,1.00909,1.96,-3.15,-0.21,-23.6407,-45.7204,9.67622,1014.83
223448,0.129125,9.77523,1.02822,2.24,-3.15,0,-23.3211,-46.6147,8.71576,1014.83
223454,0.133907,9.78001,1.06169,2.52,-3.43,0.14,-23.4954,-47.6016,8.84875,1014.83
223460,0.129125,9.79436,1.0043,2.31,-2.8,0.42,-23.6116,-46.7998,10.1491,1014.81
223466,0.157819,9.78957,1.02343,2.52,-3.08,0.28,-23.7278,-47.0465,9.32159,1014.81
223472,0.133907,9.78479,0.994739,2.38,-3.29,-0.63,-23.5244,-47.324,8.42023,1014.79
223478,0.162602,9.8087,0.989957,2.03,-3.15,0.14,-23.6116,-46.2138,10.2377,1014.79
223484,0.172166,9.79914,0.989957,1.96,-3.01,0.28,-23.8441,-45.3195,10.09,1014.81
223490,0.200861,9.78479,0.989957,2.03,-3.01,-0.35,-23.5535,-46.8615,10.5037,1014.81
223496,0.210426,9.80392,0.999522,1.82,-2.66,-0.77,-23.0595,-47.6633,9.4398,1014.82
223502,0.186514,9.81827,0.970827,1.96,-2.8,-0.28,-23.2048,-46.3063,9.63189,1014.82
223508,0.133907,9.81349,0.97561,1.26,-2.52,-0.07,-23.5244,-46.183,10.4889,1014.82
223514,0.114778,9.79914,1.00909,1.4,-3.22,-0.56,-23.4663,-46.7689,9.57279,1014.87
223520,0.095648,9.77044,1.033,1.82,-3.08,0.07,-23.2629,-46.183,11.4346,1014.87
223526,0.105213,9.75131,1.033,1.26,-3.01,-0.56,-23.6988,-46.3989,10.9322,1014.84
223532,0.0860832,9.75131,1.033,1.96,-3.5,-0.35,-23.4663,-47.8175,9.91265,1014.84
223538,0.11956,9.76088,1.033,1.96,-3.29,0.07,-22.9724,-46.9231,9.85354,1014.81
223544,0.0908656,9.75131,0.97561,2.17,-2.94,0.14,-23.5826,-45.9671,8.55322,1014.81
223550,0.10043,9.74653,0.980392,2.45,-2.66,0.14,-23.5535,-47.324,10.3855,1014.83
223556,0.105213,9.78479,0.989957,1.89,-2.66,0.35,-23.3501,-47.8483,9.691,1014.83
223562,0.133907,9.79436,1.01865,2.24,-3.22,0.28,-23.2629,-46.6456,11.7597,1014.82
223568,0.124342,9.79436,1.01865,2.03,-2.52,0.84,-23.2629,-47.0773,9.83876,1014.82
223574,0.13869,9.77523,1.01387,1.82,-2.8,-0.21,-23.7569,-47.6324,8.90785,1014.82
223580,0.133907,9.76566,1.00909,2.24,-2.8,0,-23.6697,-46.0905,9.88309,1014.82
223586,0.186514,9.76088,0.97561,1.96,-2.94,0,-23.4082,-46.6764,9.9422,1014.82
223592,0.215208,9.78957,0.985174,2.17,-3.36,0.35,-23.4954,-47.2932,9.91265,1014.81
223598,0.176949,9.82783,0.980392,1.75,-2.94,0.56,-23.5244,-46.4914,9.01129,1014.81
223604,0.157819,9.86131,0.970827,1.61,-2.8,-0.21,-23.4663,-45.6587,10.3707,1014.81
223610,0.21999,9.79436,1.0043,1.89,-2.87,-0.35,-23.4954,-47.2932,9.52846,1014.81
223616,0.176949,9.82783,1.00909,1.75,-2.94,-0.35,-23.6407,-47.6633,9.49891,1014.82
223622,0.191296,9.78001,0.985174,2.17,-2.87,-0.49,-23.1467,-45.5045,10.3116,1014.82
223628,0.148254,9.80392,1.0043,2.03,-2.87,-0.49,-23.2629,-46.3372,8.83397,1014.82
223634,0.071736,9.78479,1.0043,1.61,-3.01,-0.42,-22.8271,-47.4166,9.83876,1014.85
223640,0.0908656,9.74653,1.033,1.75,-3.15,-0.21,-22.9724,-45.597,8.6271,1014.85
223646,0.095648,9.77523,1.00909,1.82,-2.73,0,-23.2339,-45.8746,9.86832,1014.83
223652,0.11956,9.76566,0.989957,2.03,-3.01,-0.14,-23.3211,-47.0773,9.26248,1014.83
223658,0.114778,9.77523,1.01387,2.1,-3.08,0.49,-23.7278,-47.0465,9.61712,1014.83
223664,0.114778,9.75131,0.989957,1.89,-3.71,0.21,-22.9724,-45.7821,9.49891,1014.83
223670,0.095648,9.79914,1.02343,1.61,-3.5,0.7,-23.3211,-47.139,10.5185,1014.84
223676,0.105213,9.76566,0.989957,1.54,-2.87,1.05,-23.6988,-47.6016,10.2525,1014.84
223682,0.143472,9.78001,1.02343,2.17,-3.15,0.7,-23.0014,-46.4297,9.45458,1014.84
223688,0.124342,9.75131,1.00909,1.61,-3.22,0.7,-23.4954,-46.9848,10.5037,1014.83
223694,0.143472,9.80392,1.0043,2.1,-3.22,0.77,-23.0886,-47.3857,9.72055,1014.83
223700,0.181731,9.81349,1.0043,1.47,-2.87,0.7,-23.0305,-45.6895,9.54324,1014.79
223706,0.167384,9.78957,0.999522,2.17,-3.08,0.42,-23.4082,-45.6587,9.70578,1014.79
223712,0.157819,9.8087,0.994739,1.89,-3.08,0.63,-23.5244,-46.7998,9.41025,1014.84
223718,0.181731,9.8087,0.985174,1.61,-2.8,0.49,-23.2629,-46.9231,9.73533,1014.84
223724,0.143472,9.81827,1.01387,1.96,-2.59,0.77,-23.2339,-46.3989,10.223,1014.81
223730,0.13869,9.8087,0.985174,1.75,-2.94,0.28,-23.6988,-47.2007,9.58757,1014.81
223736,0.11956,9.79436,0.994739,1.68,-3.36,0.35,-23.3792,-46.4605,8.64188,1014.82
223742,0.157819,9.79436,0.942133,2.03,-2.87,0.28,-23.0014,-44.8569,10.0309,1014.82
223748,0.176949,9.8087,0.989957,1.89,-2.73,0.07,-23.7569,-46.1213,10.5037,1014.82
223754,0.13869,9.76088,1.02343,1.61,-3.08,0.14,-24.1346,-47.2315,10.7992,1014.87
223760,0.13869,9.78479,1.0043,1.33,-3.22,0.14,-23.1758,-46.2138,10.7401,1014.87
223766,0.133907,9.76566,1.03778,1.68,-3.43,0.28,-23.6116,-45.5045,10.1047,1014.8
223772,0.148254,9.78001,0.980392,2.1,-3.22,0.21,-23.9894,-48.4651,6.85393,1014.8
223778,0.114778,9.78001,1.04735,2.17,-3.36,0.49,-24.0765,-45.8746,9.97175,1014.78
223784,0.105213,9.78957,0.999522,2.1,-2.87,0.42,-23.5244,-45.6279,10.814,1014.78
223790,0.13869,9.77044,0.999522,1.89,-2.8,0.49,-23.2048,-47.0157,10.4298,1014.83
223796,0.143472,9.79436,0.989957,2.1,-3.22,0.28,-23.6116,-46.8306,9.45458,1014.83
223802,0.167384,9.79436,0.970827,1.96,-3.08,0.21,-23.292,-45.9979,10.1491,1014.83
223808,0.200861,9.78479,0.951698,2.03,-3.01,0.21,-23.8731,-46.7381,9.01129,1014.82
223814,0.157819,9.78479,1.00909,1.75,-2.59,0.56,-23.8441,-46.954,9.91265,1014.82
223820,0.167384,9.81349,0.994739,2.17,-3.08,0.21,-23.2339,-46.6764,10.1343,1014.84
223826,0.181731,9.79914,1.01865,1.54,-2.87,0.21,-23.2629,-45.7512,9.24771,1014.84
223832,0.191296,9.82305,1.00909,2.03,-3.08,-0.14,-23.9603,-47.0157,10.1047,1014.83
223838,0.148254,9.81349,0.970827,2.17,-3.64,0,-23.7569,-45.412,9.75011,1014.83
223844,0.0765184,9.78479,0.980392,1.54,-2.59,0.14,-23.815,-45.4428,9.95698,1014.83
223850,0.114778,9.76088,1.05691,1.82,-2.94,0,-24.1637,-45.9054,8.58277,1014.83
223856,0.148254,9.74653,1.02343,1.82,-3.29,-0.07,-23.9603,-46.5839,9.23293,1014.83
223862,0.153037,9.79436,0.961262,2.31,-3.08,0.28,-22.8852,-45.6587,10.4594,1014.79
223868,0.148254,9.8087,0.951698,1.82,-2.66,0.14,-22.8271,-46.6764,9.55801,1014.79
223874,0.114778,9.76566,1.01387,1.75,-3.64,-0.07,-23.786,-48.2801,7.68141,1014.79
223880,0.124342,9.77523,1.02822,2.24,-3.57,0.35,-23.6407,-46.2755,10.1343,1014.79
223886,0.143472,9.77523,1.05691,2.03,-3.29,0.28,-23.4954,-46.3372,11.4937,1014.81
223892,0.143472,9.7561,1.05691,2.31,-3.43,0.49,-23.4663,-47.1698,9.66145,1014.81
223898,0.148254,9.77044,0.994739,2.17,-3.08,0.28,-23.7569,-46.8615,10.5776,1014.82
223904,0.153037,9.76566,1.033,2.73,-3.43,0.42,-23.8731,-45.9979,11.4346,1014.82
223910,0.176949,9.7561,0.980392,2.66,-3.08,0.49,-23.8731,-47.725,10.1047,1014.83
223916,0.191296,9.77044,1.01865,2.52,-2.8,0.21,-24.338,-46.4297,9.66145,1014.83
223922,0.176949,9.81349,0.97561,2.59,-2.94,0.42,-23.6116,-45.412,10.9027,1014.83
223928,0.143472,9.79914,0.999522,2.73,-2.87,-0.07,-23.9603,-46.368,9.39547,1014.81
223934,0.148254,9.79914,0.970827,2.73,-2.94,-0.07,-22.8561,-47.3549,8.89307,1014.81
223940,0.176949,9.79914,0.942133,2.17,-2.8,-0.14,-23.2048,-46.4914,10.6071,1014.82
223946,0.181731,9.83261,0.913438,2.38,-2.66,-0.14,-23.2629,-45.4428,10.7401,1014.82
223952,0.133907,9.8087,0.932568,2.03,-3.01,-0.42,-23.6116,-46.4605,10.947,1014.84
223958,0.114778,9.81349,0.980392,1.68,-2.8,-0.07,-23.0595,-46.7689,11.0652,1014.84
223964,0.11956,9.80392,0.95648,1.61,-3.01,0.28,-23.7278,-45.1653,10.2821,1014.83
223970,0.129125,9.81349,0.980392,1.47,-3.36,-0.07,-23.292,-46.5839,9.9422,1014.83
223976,0.133907,9.74653,0.942133,1.54,-2.59,0.42,-24.338,-48.1567,8.96696,1014.83
223982,0.0573888,9.8087,0.994739,1.54,-3.36,0.35,-23.8731,-45.6895,11.3607,1014.84
223988,0.11956,9.77044,0.994739,1.33,-3.08,0.63,-22.5946,-46.0905,9.61712,1014.84
223994,0.109995,9.78001,0.989957,1.47,-3.5,0.21,-24.5124,-46.1213,11.0357,1014.84
224000,0.114778,9.74653,1.0043,1.68,-3.29,0.84,-23.2048,-46.4605,10.9027,1014.84
224006,0.13869,9.76088,1.033,1.61,-3.22,0.28,-24.0765,-46.4297,9.83876,1014.84
224012,0.13869,9.76088,1.02343,1.75,-3.01,1.05,-23.5826,-47.3857,10.09,1014.84
224018,0.157819,9.78001,1.01387,1.75,-3.36,0.91,-23.5244,-47.6016,11.4789,1014.84
224024,0.186514,9.78479,1.00909,1.68,-3.36,0.42,-23.3792,-45.412,10.9174,1014.84
224030,0.191296,9.8087,0.970827,2.17,-3.29,-0.14,-23.8441,-46.6456,9.67622,1014.84
224036,0.167384,9.80392,1.0043,1.82,-2.94,0.42,-24.0475,-47.4166,9.54324,1014.81
224042,0.234338,9.8374,0.966045,1.61,-3.29,0.7,-23.0595,-45.6279,10.3412,1014.81
224048,0.229555,9.78001,1.06169,1.82,-2.94,-0.35,-23.4082,-46.7073,9.60234,1014.84
224054,0.133907,9.69871,1.07126,2.31,-2.66,0.21,-23.786,-47.4166,10.2968,1014.84
224060,0.129125,9.81827,0.985174,2.03,-3.36,0.28,-23.3792,-46.3372,10.7401,1014.81
224066,0.181731,9.84218,0.97561,1.75,-3.01,0.56,-23.6988,-45.6279,10.5628,1014.81
224072,0.215208,9.81349,0.951698,1.75,-3.22,0.14,-23.786,-46.6147,9.32159,1014.84
224078,0.148254,9.77044,1.01387,1.96,-2.87,-0.42,-23.2629,-46.7381,9.36592,1014.84
224084,0.124342,9.79914,0.97561,1.89,-3.08,-0.42,-23.6116,-45.9363,10.3855,1014.78
224090,0.133907,9.75131,0.980392,1.68,-3.01,0.77,-24.1346,-47.2007,10.1491,1014.78
224096,0.11956,9.77523,1.05213,1.26,-3.22,0.63,-23.6407,-47.6941,10.6958,1014.78
224102,0.181731,9.71784,1.05213,1.82,-3.08,-0.42,-23.5535,-46.2447,10.947,1014.85
224108,0.133907,9.73697,1.02822,2.45,-3.36,0.21,-23.3211,-46.954,10.4889,1014.85
224114,0.148254,9.76088,0.999522,1.89,-3.22,0.91,-23.8731,-48.3726,9.52846,1014.83
224120,0.153037,9.79436,0.999522,1.96,-3.01,0.21,-24.2509,-45.8746,9.54324,1014.83
224126,0.172166,9.78479,0.999522,2.1,-3.22,0.28,-24.7739,-46.2447,10.814,1014.84
224132,0.196078,9.79436,1.01387,2.1,-2.66,0.14,-23.9603,-47.1082,10.3707,1014.84
224138,0.191296,9.79914,0.966045,2.1,-3.22,0,-23.815,-46.9848,9.24771,1014.83
224144,0.200861,9.81827,0.985174,1.89,-2.87,-0.07,-24.0184,-46.6147,10.4298,1014.83
224150,0.234338,9.79914,0.970827,1.89,-3.08,0.07,-23.5535,-47.6941,9.64667,1014.83
224156,0.215208,9.79914,0.980392,1.89,-2.87,-0.28,-23.6988,-48.5576,9.66145,1014.79
224162,0.200861,9.80392,0.961262,2.03,-2.8,-0.7,-24.0184,-46.2755,10.4741,1014.79
224168,0.196078,9.8087,1.0043,1.96,-2.87,-0.84,-22.7399,-46.7689,10.09,1014.79
224174,0.176949,9.81349,0.980392,1.89,-2.73,-1.12,-23.5535,-47.8483,9.92742,1014.79
224180,0.172166,9.77523,1.00909,1.54,-3.36,-0.14,-23.6116,-45.6279,9.98653,1014.82
224186,0.114778,9.77044,1.03778,1.89,-3.01,0.07,-23.786,-45.3503,10.7106,1014.82
224192,0.11956,9.7561,1.04256,1.89,-3.5,-0.35,-23.815,-47.2932,10.4889,1014.82
224198,0.148254,9.78001,1.02343,2.1,-3.22,-0.14,-23.5535,-46.9231,9.77966,1014.82
224204,0.129125,9.78001,1.0043,2.38,-2.94,0,-23.9312,-46.0596,9.86832,1014.82
224210,0.109995,9.74175,1.01387,2.17,-2.87,0.14,-22.9724,-46.8615,10.2377,1014.83
224216,0.095648,9.75131,0.989957,2.38,-3.15,0,-23.9603,-47.139,9.32159,1014.83
224222,0.143472,9.7561,0.994739,2.38,-3.36,0.14,-23.6697,-45.9979,10.681,1014.82
224228,0.167384,9.78001,0.994739,2.45,-3.29,0.63,-23.5826,-46.7998,10.5776,1014.82
224234,0.172166,9.78957,0.980392,2.31,-3.15,0.35,-24.2509,-47.6633,9.95698,1014.84
224240,0.176949,9.82783,0.908656,2.31,-3.08,0.28,-24.5705,-45.8746,10.223,1014.84
224246,0.172166,9.83261,0.932568,2.17,-3.22,0,-23.9312,-45.8129,11.346,1014.79
224252,0.186514,9.83261,0.95648,1.68,-3.22,0.21,-24.1928,-47.2315,8.81919,1014.79
224258,0.229555,9.79436,0.970827,1.82,-3.29,0.42,-23.9022,-46.2755,9.24771,1014.81
224264,0.196078,9.8087,0.966045,1.82,-3.22,0,-23.3792,-45.6279,10.8879,1014.81
224270,0.176949,9.80392,0.97561,1.54,-3.01,0,-23.6988,-46.7073,9.49891,1014.81
224276,0.21999,9.75131,1.02343,1.75,-2.87,-0.28,-23.6697,-46.8306,9.70578,1014.83
224282,0.191296,9.74175,1.00909,1.75,-2.73,-0.21,-23.2629,-45.3811,9.89787,1014.83
224288,0.176949,9.79914,0.970827,1.96,-3.29,-0.63,-23.9022,-46.7381,10.6071,1014.81
224294,0.162602,9.80392,0.980392,1.89,-3.71,-0.63,-23.6116,-47.1698,9.20338,1014.81
224300,0.124342,9.74175,1.02822,1.68,-2.94,0.14,-23.6116,-45.7512,10.6071,1014.79
224306,0.129125,9.79914,1.00909,1.68,-2.94,-0.21,-23.786,-46.0905,10.2821,1014.79
224312,0.133907,9.78001,0.994739,1.82,-3.36,-0.56,-23.5244,-46.6764,10.3559,1014.84
224318,0.148254,9.76566,0.989957,1.89,-2.94,0.35,-23.6697,-46.183,11.213,1014.84
224324,0.0573888,9.78957,0.989957,2.03,-2.8,0.07,-23.4954,-45.8129,10.9174,1014.84
224330,0.124342,9.8087,0.989957,1.47,-3.15,0.49,-23.4954,-46.8615,9.61712,1014.84
224336,0.11956,9.78479,0.989957,1.89,-3.22,0.63,-24.0184,-46.954,9.49891,1014.84
224342,0.133907,9.82305,0.966045,2.1,-3.29,0.56,-23.8731,-46.2138,10.1195,1014.84
224348,0.186514,9.79436,0.999522,1.89,-3.36,0.56,-23.9312,-46.7998,10.1343,1014.84
224354,0.143472,9.78001,0.97561,1.82,-3.29,0.63,-23.4663,-47.6324,10.9322,1014.85
224360,0.181731,9.78001,0.966045,1.82,-3.01,0.42,-23.4663,-46.6764,9.23293,1014.85
224366,0.205643,9.81827,0.985174,1.33,-3.22,0.21,-23.4082,-46.4914,10.4003,1014.81
224372,0.210426,9.78957,0.97561,1.82,-2.87,0,-23.5244,-47.4474,8.96696,1014.81
224378,0.191296,9.78479,0.966045,1.61,-2.8,0.35,-23.4954,-46.5531,9.11472,1014.81
224384,0.167384,9.80392,0.994739,1.47,-3.29,0.21,-23.2629,-45.6587,10.8731,1014.78
224390,0.181731,9.77044,1.04735,1.89,-3.29,0.28,-23.3211,-47.0773,10.2673,1014.78
224396,0.191296,9.78957,1.033,1.47,-2.52,0.14,-23.2048,-47.1082,9.41025,1014.81
224402,0.148254,9.78001,0.989957,1.89,-2.73,0.28,-23.8441,-45.1961,9.72055,1014.81
224408,0.167384,9.79436,0.980392,1.75,-3.08,-0.07,-23.0595,-46.2755,10.1934,1014.84
224414,0.21999,9.79436,1.02822,1.75,-3.01,0.14,-23.8731,-47.5399,9.57279,1014.84
224420,0.176949,9.78479,0.980392,1.75,-2.8,0.42,-23.6988,-46.2447,10.1638,1014.81
224426,0.148254,9.78001,0.970827,2.31,-3.01,-0.42,-23.8731,-45.8437,10.7697,1014.81
224432,0.153037,9.78479,0.999522,1.68,-3.5,0.07,-24.1056,-47.6324,10.9174,1014.82
224438,0.191296,9.78479,1.00909,2.1,-3.01,0.77,-23.3792,-46.4914,10.7401,1014.82
224444,0.153037,9.77523,0.989957,2.31,-3.36,0,-23.7569,-46.1521,10.8731,1014.82
224450,0.167384,9.79914,0.97561,2.24,-2.87,0,-23.2048,-46.3989,9.83876,1014.82
224456,0.191296,9.77523,0.95648,1.75,-3.5,0.56,-23.6988,-47.324,9.70578,1014.82
224462,0.157819,9.78479,0.970827,2.38,-3.22,0.28,-23.3501,-45.9979,10.4298,1014.83
224468,0.172166,9.78479,0.961262,2.17,-3.08,-0.07,-23.6697,-46.183,9.91265,1014.83
224474,0.21999,9.82783,0.970827,1.96,-3.29,0.28,-22.7399,-48.0025,9.95698,1014.81
224480,0.191296,9.79914,1.0043,1.61,-2.66,-0.14,-23.2339,-45.9363,9.24771,1014.81
224486,0.224773,9.78001,0.95648,1.75,-3.22,0.21,-23.4373,-45.3503,10.2821,1014.84
224492,0.181731,9.79914,0.961262,2.1,-3.5,0.21,-24.0765,-48.1259,7.82917,1014.84
224498,0.196078,9.8087,1.02343,1.82,-3.29,-0.84,-23.4082,-46.6764,9.27726,1014.84
224504,0.25825,9.81827,0.966045,1.75,-3.29,-0.35,-23.0305,-46.4605,10.6071,1014.86
224510,0.23912,9.80392,0.942133,1.75,-3.22,-0.21,-24.2799,-47.2932,10.947,1014.86
224516,0.172166,9.79914,0.961262,1.89,-2.87,-0.56,-24.1928,-47.1698,10.7845,1014.8
224522,0.124342,9.76088,1.0043,1.75,-2.87,-0.7,-23.6697,-46.2138,11.3755,1014.8
224528,0.133907,9.76566,1.03778,1.61,-2.73,-0.35,-23.8441,-47.1082,10.2673,1014.79
224534,0.133907,9.78479,1.04256,2.03,-2.73,-0.14,-24.309,-47.324,8.70098,1014.79
224540,0.109995,9.76566,1.02343,2.24,-3.08,-0.14,-23.7278,-45.9979,10.7106,1014.83
224546,0.143472,9.78957,0.999522,1.96,-3.08,-0.28,-23.4663,-45.6895,10.3559,1014.83
224552,0.143472,9.78479,0.980392,1.96,-3.22,0,-23.8731,-47.0465,9.45458,1014.83
224558,0.153037,9.75131,0.985174,1.82,-3.01,0.14,-23.786,-47.0465,10.681,1014.83
224564,0.157819,9.78479,0.985174,2.24,-3.08,-0.07,-23.6116,-45.9979,10.814,1014.83
224570,0.133907,9.77523,1.01865,2.1,-3.15,0.42,-24.0184,-46.8615,10.1934,1014.82
224576,0.172166,9.81827,0.95648,1.68,-3.01,0.28,-23.8441,-47.4166,9.09995,1014.82
224582,0.162602,9.81827,0.999522,1.68,-2.87,0.28,-24.4252,-45.9671,9.97175,1014.83
224588,0.181731,9.78479,0.994739,2.24,-3.64,-0.14,-23.8731,-46.6764,8.46456,1014.83
224594,0.191296,9.80392,0.985174,1.82,-3.29,0.49,-24.0765,-47.2315,8.65665,1014.82
224600,0.167384,9.78957,0.989957,2.03,-3.22,0.07,-24.5414,-45.7512,9.88309,1014.82
224606,0.181731,9.79436,0.970827,1.47,-3.22,0.07,-23.6116,-46.6764,10.3855,1014.82
224612,0.21999,9.78479,0.946915,1.82,-2.66,-17.5,-24.0765,-47.4166,9.52846,1014.82
224618,0.210426,9.80392,0.980392,1.47,-2.94,0.07,-24.2799,-45.7512,9.32159,1014.82
224624,0.172166,9.78479,1.01865,1.82,-3.29,-0.21,-23.7569,-45.7821,10.223,1014.8
224630,0.162602,9.74653,1.05213,1.47,-3.22,-0.28,-24.2509,-46.7073,9.60234,1014.8
224636,0.153037,9.77044,1.00909,2.1,-2.94,-0.07,-23.9312,-47.0157,7.96216,1014.83
224642,0.248685,9.83261,0.918221,2.17,-3.43,-0.14,-24.1346,-46.0596,8.96696,1014.83
224648,0.215208,9.79436,0.966045,1.54,-3.01,-0.63,-23.6116,-46.0596,10.1786,1014.82
224654,0.105213,9.77044,1.02343,1.4,-2.94,-0.07,-23.9894,-47.2315,9.07039,1014.82
224660,0.095648,9.72262,1.03778,2.1,-3.08,0.07,-24.0475,-46.6456,10.3855,1014.84
224666,0.157819,9.78957,0.989957,1.61,-3.15,0.21,-23.7569,-45.1036,10.0456,1014.84
224672,0.172166,9.78001,0.985174,1.75,-3.08,-0.07,-24.1928,-46.7689,9.17383,1014.84
224678,0.153037,9.79914,0.980392,1.82,-2.87,0.28,-24.1928,-46.3063,8.92263,1014.83
224684,0.143472,9.7561,0.989957,1.68,-3.22,0.35,-23.9894,-45.1961,9.14427,1014.83
224690,0.167384,9.79914,0.980392,2.1,-3.01,0.42,-23.1467,-46.7381,9.73533,1014.83
224696,0.172166,9.78957,0.985174,1.75,-3.08,0.56,-24.4543,-45.9054,9.3807,1014.83
224702,0.172166,9.79914,0.97561,1.96,-3.5,0.21,-23.9603,-45.1653,10.3264,1014.84
224708,0.181731,9.76566,1.03778,1.75,-3.64,0.14,-23.8441,-46.0905,9.02606,1014.84
224714,0.181731,9.77044,0.97561,1.75,-2.94,0.07,-24.2218,-47.4474,9.17383,1014.83
224720,0.224773,9.82783,0.970827,1.61,-3.15,0.14,-24.0765,-45.7204,11.671,1014.83
224726,0.234338,9.81349,0.985174,1.68,-2.73,-0.07,-24.6577,-45.8746,9.58757,1014.83
224732,0.181731,9.80392,0.989957,1.47,-2.8,0.14,-24.6577,-47.6941,9.73533,1014.81
224738,0.191296,9.80392,0.985174,1.61,-2.87,0.07,-23.9603,-46.6764,8.65665,1014.81
224744,0.23912,9.77523,0.980392,1.75,-3.22,-0.49,-23.5244,-46.3063,8.77486,1014.81
224750,0.210426,9.78001,0.985174,2.03,-2.8,0.14,-24.338,-46.6147,9.55801,1014.81
224756,0.133907,9.8087,0.970827,1.47,-3.22,-0.28,-23.6407,-46.8615,8.25769,1014.85
224762,0.181731,9.78479,1.00909,1.75,-3.01,-0.07,-23.815,-45.7204,11.7892,1014.85
224768,0.200861,9.77523,1.00909,1.82,-3.29,0.07,-24.0184,-45.9671,10.3707,1014.82
224774,0.148254,9.76566,0.989957,1.89,-3.08,0,-24.2218,-47.139,9.35114,1014.82
224780,0.153037,9.77044,0.994739,2.03,-3.36,0.49,-23.8731,-46.3989,10.5628,1014.82
224786,0.133907,9.78479,0.999522,1.82,-3.22,0.21,-23.9894,-45.412,10.6071,1014.82
224792,0.148254,9.78957,0.980392,1.96,-2.94,-0.14,-23.8441,-47.0773,10.3412,1014.82
224798,0.167384,9.78957,0.966045,1.82,-2.73,0.49,-23.6407,-46.368,10.1491,1014.84
224804,0.167384,9.78957,0.961262,1.82,-2.94,0.07,-24.0765,-45.5045,9.91265,1014.84
224810,0.153037,9.76088,0.989957,1.89,-3.01,0,-24.0184,-46.7998,11.08,1014.81
224816,0.186514,9.79436,0.946915,1.47,-2.8,0.77,-24.5705,-46.9231,9.72055,1014.81
224822,0.191296,9.80392,0.97561,1.75,-3.08,0.14,-23.6116,-45.6895,9.97175,1014.85
224828,0.210426,9.81349,0.946915,1.33,-2.94,0.35,-23.9312,-46.0596,9.33637,1014.85
224834,0.191296,9.78479,0.961262,1.75,-2.87,-0.14,-23.4663,-46.4605,10.2673,1014.84
224840,0.23912,9.78957,0.95648,1.54,-2.94,-0.56,-23.6116,-45.9979,10.1195,1014.84
224846,0.215208,9.77044,0.970827,1.61,-2.94,0.21,-24.2799,-46.0288,10.0604,1014.84
224852,0.224773,9.79914,0.999522,1.82,-3.22,-0.42,-23.8441,-47.4474,9.67622,1014.82
224858,0.157819,9.78479,0.994739,1.61,-3.01,-0.14,-24.1637,-46.8615,9.77966,1014.82
224864,0.243902,9.7561,1.01387,1.61,-2.87,-0.14,-23.9312,-46.0288,11.0357,1014.82
224870,0.162602,9.78957,0.985174,1.75,-3.43,-0.14,-23.9603,-46.1213,10.0161,1014.82
224876,0.191296,9.77523,0.999522,2.1,-3.01,-0.07,-24.309,-46.7689,9.45458,1014.82
224882,0.13869,9.79436,0.970827,1.82,-2.66,-0.14,-24.5414,-45.4428,9.33637,1014.82
224888,0.215208,9.77523,0.97561,1.54,-2.31,-0.07,-23.4082,-46.5531,10.3116,1014.83
224894,0.181731,9.76088,0.980392,1.75,-3.29,-0.07,-24.338,-46.3989,9.57279,1014.83
224900,0.176949,9.78001,0.97561,2.24,-2.8,-0.21,-24.5414,-46.3989,10.3116,1014.83
224906,0.143472,9.79914,0.97561,1.68,-2.59,0.14,-23.4954,-45.3811,10.9174,1014.82
224912,0.172166,9.78001,0.951698,1.89,-2.87,0.49,-24.5414,-47.139,8.92263,1014.82
224918,0.181731,9.79914,0.932568,2.17,-3.15,0.28,-23.6988,-46.8306,10.2525,1014.85
224924,0.167384,9.79914,1.0043,1.54,-3.15,0.49,-24.2799,-45.3811,10.2968,1014.85
224930,0.205643,9.77044,0.946915,1.75,-3.15,0.07,-24.7739,-46.6147,9.55801,1014.84
224936,0.215208,9.78957,0.946915,1.47,-3.36,0.14,-24.4833,-46.5222,10.4446,1014.84
224942,0.210426,9.77523,1.05213,1.82,-3.29,0.56,-24.1056,-45.7512,9.51368,1014.85
224948,0.172166,9.78479,1.01387,1.54,-3.22,0.07,-24.7448,-45.8437,9.83876,1014.85
224954,0.353898,9.81349,0.93735,1.61,-3.5,0.35,-24.2509,-46.954,8.84875,1014.81
224960,0.277379,9.8087,0.908656,1.61,-2.66,-0.28,-23.8731,-45.9054,10.09,1014.81
224966,0.25825,9.81349,0.942133,1.33,-2.8,-0.49,-24.1928,-45.1344,10.7845,1014.81
224972,0.215208,9.78001,1.04256,1.4,-2.73,-0.77,-24.2799,-46.2755,8.84875,1014.81
224978,0.114778,9.74175,1.02343,1.61,-3.08,-0.56,-23.8441,-45.7821,8.55322,1014.81
224984,0.181731,9.73697,1.04735,1.68,-2.59,-0.14,-24.0765,-45.4737,11.3164,1014.84
224990,0.186514,9.77523,1.0043,1.61,-3.15,-0.42,-24.5414,-46.5839,8.76009,1014.84
224996,0.143472,9.7561,1.01387,1.75,-3.01,-0.28,-24.309,-47.0465,10.2525,1014.8
225002,0.153037,9.77523,0.994739,1.75,-3.22,0.28,-23.6697,-45.2886,10.9027,1014.8
225008,0.11956,9.77044,0.994739,2.31,-3.01,-0.21,-24.0765,-46.4297,9.86832,1014.85
225014,0.172166,9.78957,0.970827,1.89,-3.08,0.07,-23.786,-46.8923,9.70578,1014.85
225020,0.191296,9.74653,0.970827,1.75,-2.73,0.49,-24.0475,-46.2138,11.0209,1014.85
225026,0.13869,9.78479,0.93735,2.03,-2.94,0.21,-24.1637,-46.2755,11.3164,1014.85
225032,0.186514,9.76566,0.97561,1.82,-3.01,0.56,-24.5414,-47.1698,10.6958,1014.85
225038,0.215208,9.78957,0.942133,1.61,-2.66,0.35,-24.0765,-46.4297,9.98653,1014.83
225044,0.176949,9.78957,0.97561,1.61,-3.08,0.07,-23.3211,-46.5839,11.671,1014.83
225050,0.21999,9.76088,0.989957,1.68,-3.15,0.07,-23.8441,-46.6456,10.6515,1014.83
225056,0.200861,9.78001,0.980392,1.47,-3.15,0.35,-23.786,-47.2315,10.6515,1014.83
225062,0.234338,9.79436,1.01387,1.68,-3.01,0.21,-23.6697,-45.6279,10.4298,1014.84
225068,0.224773,9.78001,0.994739,1.61,-3.08,0.14,-23.4082,-46.7381,8.70098,1014.84
225074,0.172166,9.78479,0.985174,1.47,-3.01,-0.21,-23.9022,-47.1082,9.98653,1014.84
225080,0.167384,9.80392,1.0043,1.68,-2.66,0.07,-23.4082,-45.7204,11.1095,1014.85
225086,0.172166,9.78957,0.994739,1.61,-3.43,0.07,-23.4663,-45.2886,10.1047,1014.85
225092,0.181731,9.77523,1.01865,1.89,-3.01,17.57,-24.2509,-46.4297,10.7992,1014.81
225098,0.191296,9.77523,1.00909,1.82,-3.15,0.14,-23.2629,-46.8615,9.45458,1014.81
225104,0.11956,9.78957,1.02343,1.47,-3.71,-0.21,-23.9022,-45.9979,9.72055,1014.81
225110,0.186514,9.78001,0.989957,1.96,-2.94,0.14,-23.9022,-47.4474,10.4889,1014.81
225116,0.176949,9.80392,0.985174,1.82,-3.22,0.28,-23.8441,-46.8923,9.75011,1014.81
225122,0.176949,9.78479,0.980392,1.96,-3.08,0.42,-23.8731,-45.8746,11.1243,1014.81
225128,0.176949,9.76088,0.994739,1.96,-3.01,0,-23.9603,-46.7073,10.4003,1014.78
225134,0.181731,9.76088,0.985174,1.54,-3.08,0.35,-24.0475,-47.2624,9.45458,1014.78
225140,0.181731,9.78479,0.951698,1.82,-3.01,0.56,-23.4373,-45.3811,9.67622,1014.78
225146,0.191296,9.79914,0.966045,2.03,-2.87,-0.14,-23.9603,-46.2755,11.346,1014.81
225152,0.210426,9.82305,0.966045,1.33,-2.87,0.07,-24.8029,-47.6016,10.7992,1014.81
225158,0.224773,9.8087,0.942133,1.47,-2.8,0.14,-23.6988,-46.5839,10.2525,1014.82
225164,0.229555,9.79914,0.946915,1.61,-2.73,-0.56,-23.6116,-45.0419,9.82399,1014.82
225170,0.248685,9.81827,0.951698,1.33,-2.38,0.21,-23.4082,-46.6764,9.73533,1014.81
225176,0.234338,9.79436,1.00909,1.75,-3.08,-0.56,-24.3671,-46.7689,8.43501,1014.81
225182,0.162602,9.80392,0.999522,1.4,-2.94,-0.28,-23.6116,-46.1213,10.4889,1014.8
225188,0.205643,9.81349,0.994739,1.75,-2.94,-0.49,-23.6697,-46.368,9.54324,1014.8
225194,0.200861,9.78479,0.999522,1.54,-3.15,-0.91,-24.1346,-47.91,9.1295,1014.8
225200,0.162602,9.78479,0.994739,2.03,-2.8,-0.84,-24.1928,-45.5045,9.48413,1014.83
225206,0.153037,9.76566,1.01865,1.33,-2.31,-0.07,-23.9603,-46.5222,9.48413,1014.83
225212,0.153037,9.75131,1.00909,1.68,-3.08,0,-23.7278,-46.8615,9.07039,1014.82
225218,0.172166,9.76088,0.994739,1.96,-2.94,-0.56,-23.5535,-46.5839,9.49891,1014.82
225224,0.176949,9.77044,0.994739,1.47,-2.8,-0.21,-23.292,-45.9363,9.79444,1014.8
225230,0.133907,9.76566,0.985174,1.82,-3.36,-17.64,-23.9894,-46.368,9.66145,1014.8
225236,0.157819,9.77044,0.966045,1.96,-3.08,-0.07,-23.4663,-47.139,9.95698,1014.81
225242,0.162602,9.77523,0.989957,1.89,-3.15,0,-23.1758,-45.3195,10.0604,1014.81
225248,0.162602,9.80392,0.989957,2.1,-3.08,-0.21,-23.9603,-46.1521,9.61712,1014.81
225254,0.205643,9.80392,0.966045,1.82,-3.01,0.56,-23.6988,-46.7998,8.90785,1014.82
225260,0.205643,9.80392,0.980392,1.61,-3.01,0.35,-23.1177,-45.7821,10.6071,1014.82
225266,0.205643,9.79914,0.980392,1.89,-3.01,-0.63,-23.292,-45.9363,10.8879,1014.8
225272,0.21999,9.78957,0.951698,1.54,-3.08,-0.07,-23.4954,-46.8306,9.45458,1014.8
225278,0.205643,9.82305,0.970827,1.96,-2.59,-0.28,-24.4543,-47.1698,8.8783,1014.82
225284,0.229555,9.83261,0.942133,1.4,-3.08,-0.42,-23.8441,-46.5531,10.0604,1014.82
225290,0.277379,9.81827,0.980392,1.61,-2.87,-0.28,-23.8441,-47.0465,8.61232,1014.83
225296,0.253467,9.79436,0.95648,1.68,-2.59,-0.49,-24.1346,-46.1213,8.84875,1014.83
225302,0.181731,9.78957,0.985174,1.26,-3.29,-0.98,-23.6116,-45.0727,10.3116,1014.81
225308,0.167384,9.76088,1.04735,1.47,-2.8,-0.28,-23.4954,-46.8615,9.11472,1014.81
225314,0.162602,9.76566,1.07126,1.96,-2.87,-0.63,-24.0184,-46.7998,8.96696,1014.81
225320,0.157819,9.78479,0.985174,2.03,-2.87,-1.12,-23.5244,-45.3195,9.86832,1014.81
225326,0.229555,9.79436,0.951698,1.75,-2.38,-0.21,-22.798,-45.1344,10.5037,1014.81
225332,0,9.77523,1.033,1.61,-3.08,-0.14,-24.0184,-47.2932,8.8783,1014.81
225338,0.186514,9.7561,0.97561,1.47,-3.5,-0.28,-23.8731,-46.9848,9.92742,1014.81
225344,0.153037,9.80392,0.989957,1.96,-3.15,-0.28,-24.0765,-46.183,10.3412,1014.81
225350,0.162602,9.79436,0.961262,1.19,-2.45,0,-23.4373,-46.2755,9.66145,1014.81
225356,0.157819,9.77044,0.985174,1.4,-3.08,0.49,-23.7278,-47.2624,8.71576,1014.79
225362,0.13869,9.77044,1.01865,1.75,-2.94,-0.07,-23.6116,-46.7998,9.4398,1014.79
225368,0.191296,9.78001,0.980392,1.61,-3.15,0.28,-23.9603,-46.3372,9.83876,1014.79
225374,0.200861,9.76088,0.970827,1.75,-2.8,0.14,-23.6988,-47.8483,9.9422,1014.81
225380,0.205643,9.78957,0.966045,1.61,-3.01,-0.14,-24.2799,-45.5353,10.09,1014.81
225386,0.21999,9.78001,1.0043,1.4,-3.36,-0.14,-23.9022,-46.6147,10.2377,1014.82
225392,0.21999,9.79436,1.01387,1.68,-2.8,0.21,-23.5244,-46.954,9.30681,1014.82
225398,0.200861,9.82305,1.01387,1.54,-3.22,-0.35,-23.6407,-46.4914,8.53844,1014.83
225404,0.210426,9.80392,0.966045,1.68,-3.08,-0.21,-23.8441,-45.5662,11.4642,1014.83
225410,0.205643,9.80392,0.999522,1.33,-3.43,-0.21,-24.2218,-47.3549,8.6271,1014.82
225416,0.248685,9.78957,0.989957,1.4,-2.94,-0.7,-23.4082,-47.8175,8.92263,1014.82
225422,0.205643,9.79914,1.00909,1.75,-3.22,-0.98,-23.4663,-45.8746,10.1786,1014.82
225428,0.13869,9.78479,0.994739,1.75,-3.15,-0.7,-22.798,-46.0288,11.08,1014.8
225434,0.129125,9.78479,0.999522,1.61,-3.01,-0.7,-23.6407,-47.5091,8.71576,1014.8
225440,0.129125,9.74653,1.02343,1.47,-3.5,-0.49,-24.2218,-46.0905,9.04084,1014.79
225446,0.172166,9.76088,1.0043,1.96,-2.87,-0.28,-23.3792,-45.5662,10.0161,1014.79
225452,0.167384,9.76088,1.01387,1.89,-2.66,-0.56,-23.786,-47.139,9.05562,1014.78
225458,0.167384,9.76566,0.994739,2.17,-3.22,-0.49,-23.8441,-46.8923,9.80921,1014.78
225464,0.157819,9.74653,0.989957,1.89,-3.29,0,-23.8441,-45.6279,9.73533,1014.81
225470,0.133907,9.76566,1.00909,1.68,-3.29,-0.21,-23.5244,-47.5091,10.0161,1014.81
225476,0.181731,9.77044,0.989957,1.68,-3.08,0,-24.0475,-47.725,9.57279,1014.83
225482,0.176949,9.77044,1.00909,1.47,-3.15,0.14,-23.786,-45.8437,11.08,1014.83
225488,0.191296,9.7561,0.980392,1.75,-2.94,0.14,-24.338,-46.4914,10.3116,1014.83
225494,0.157819,9.78479,0.980392,1.89,-3.08,-0.14,-24.0184,-47.2007,10.0604,1014.82
225500,0.21999,9.78957,0.970827,1.47,-3.01,-0.14,-23.9603,-45.9054,10.9618,1014.82
225506,0.23912,9.8087,0.989957,1.89,-3.01,-0.56,-23.6407,-46.7689,10.1047,1014.85
225512,0.234338,9.8087,0.942133,1.54,-3.36,-0.42,-23.9312,-47.6941,7.82917,1014.85
225518,0.200861,9.81827,0.961262,1.61,-2.87,-0.07,-23.786,-46.8306,9.60234,1014.82
225524,0.196078,9.80392,1.01865,1.4,-2.87,-0.49,-23.8731,-46.0596,10.6071,1014.82
225530,0.215208,9.78001,0.999522,1.47,-3.01,-1.05,-23.292,-47.139,10.1047,1014.85
225536,0.176949,9.78479,1.04256,1.82,-3.01,-0.28,-23.6407,-47.3857,9.77966,1014.85
225542,0.133907,9.77523,0.994739,1.89,-3.22,-0.35,-23.4373,-46.368,9.76488,1014.85
225548,0.157819,9.78957,0.970827,1.96,-3.36,-0.49,-23.7569,-45.6587,9.60234,1014.83
225554,0.133907,9.77523,0.97561,1.89,-2.87,-0.35,-23.6116,-47.7558,9.35114,1014.83
225560,0.148254,9.78001,0.989957,2.1,-3.01,-0.21,-23.9603,-46.4605,10.4889,1014.83
225566,0.109995,9.7561,1.00909,1.61,-3.08,-0.42,-23.7569,-45.7204,10.548,1014.83
225572,0.143472,9.7561,0.980392,1.89,-3.01,-0.21,-24.1637,-47.324,10.8288,1014.85
225578,0.124342,9.77044,0.980392,1.68,-2.94,-0.21,-23.9022,-47.1082,9.63189,1014.85
225584,0.13869,9.80392,1.00909,1.54,-3.01,0.14,-23.6407,-46.2447,11.3607,1014.83
225590,0.167384,9.79914,0.951698,1.54,-2.73,0.28,-24.338,-46.4605,10.4889,1014.83
225596,0.186514,9.78479,0.980392,1.47,-3.15,-0.56,-23.6407,-47.6633,9.30681,1014.83
225602,0.153037,9.77044,1.01387,1.89,-3.15,-0.07,-24.1637,-46.5222,9.05562,1014.84
225608,0.196078,9.77523,0.985174,1.61,-3.5,0.28,-23.6407,-46.6456,9.66145,1014.84
225614,0.191296,9.78479,0.994739,1.89,-3.43,-0.07,-24.5705,-47.6941,10.4446,1014.83
225620,0.215208,9.78957,0.95648,1.75,-3.08,0.14,-23.8731,-46.9848,10.9913,1014.83
225626,0.23912,9.79436,0.999522,1.68,-3.08,-0.28,-23.6988,-46.0288,9.57279,1014.81
225632,0.263032,9.80392,1.01387,1.75,-2.66,-0.28,-24.8901,-46.954,8.96696,1014.81
225638,0.176949,9.83261,0.985174,1.75,-2.94,-0.63,-24.3961,-46.7998,10.4446,1014.81
225644,0.263032,9.78957,0.985174,1.89,-3.22,-0.91,-23.7278,-46.0288,9.80921,1014.81
225650,0.13869,9.79436,1.02343,1.61,-2.87,-0.7,-23.0595,-46.2138,9.08517,1014.81
225656,0.172166,9.77523,1.0043,1.96,-3.08,-0.35,-23.815,-47.0157,9.15905,1014.81
225662,0.143472,9.77044,1.02343,1.61,-2.73,-0.28,-24.0475,-45.597,10.223,1014.81
225668,0.153037,9.77523,0.985174,1.68,-2.94,-0.35,-23.9022,-46.7381,8.99651,1014.81
225674,0.143472,9.78957,0.980392,1.82,-3.01,-0.42,-23.7569,-47.5399,8.67143,1014.81
225680,0.133907,9.76566,0.951698,1.75,-3.01,-0.28,-23.8441,-46.5222,9.21815,1014.81
225686,0.13869,9.78001,1.01387,1.75,-3.22,0,-23.1758,-46.0288,9.32159,1014.81
225692,0.13869,9.76566,1.01387,1.68,-2.8,0.42,-23.6116,-46.3063,9.27726,1014.84
225698,0.167384,9.7561,1.02822,1.75,-3.15,-0.35,-24.0184,-47.0465,9.82399,1014.84
225704,0.162602,9.78957,1.01865,1.96,-2.66,-0.21,-24.2509,-45.7204,9.83876,1014.83
225710,0.143472,9.79436,0.966045,1.54,-3.08,-17.57,-23.5244,-46.5531,9.45458,1014.83
225716,0.224773,9.76088,0.970827,1.82,-3.43,-0.28,-22.9724,-47.6016,9.64667,1014.83
225722,0.129125,9.7561,1.04256,1.68,-3.01,0.42,-24.0184,-46.4297,9.20338,1014.82
225728,0.124342,9.7561,1.06169,1.68,-3.36,0.42,-23.6407,-45.8746,9.45458,1014.82
225734,0.253467,9.78957,0.913438,1.47,-3.08,-0.7,-23.5244,-47.2315,8.83397,1014.84
225740,0.243902,9.79436,1.01865,1.75,-2.73,-0.56,-23.9312,-46.954,9.60234,1014.84
225746,0.191296,9.84218,1.00909,1.82,-3.08,-0.14,-23.9894,-46.1213,9.55801,1014.83
225752,0.272597,9.8087,0.966045,1.61,-2.73,-0.7,-24.2509,-47.6324,8.73053,1014.83
225758,0.133907,9.82305,0.999522,1.47,-2.66,-1.26,-24.5124,-46.4605,9.85354,1014.84
225764,0.143472,9.76566,1.02343,1.4,-3.08,-0.42,-24.1346,-45.5353,10.09,1014.84
225770,0.129125,9.77044,1.09517,1.4,-2.87,0.21,-24.8901,-47.2932,9.07039,1014.84
225776,0.196078,9.77044,1.05691,1.47,-2.66,-0.91,-24.3671,-46.3989,9.51368,1014.81
225782,0.162602,9.77044,1.0043,1.96,-2.66,0,-24.309,-45.8437,9.89787,1014.81
225788,0.129125,9.78479,0.999522,1.82,-3.08,-0.7,-23.9894,-46.7998,10.09,1014.84
225794,0.105213,9.76566,0.999522,1.82,-3.15,-0.91,-24.4543,-47.139,8.86352,1014.84
225800,0.157819,9.76566,1.04735,2.1,-3.08,0.21,-24.1346,-46.6764,9.86832,1014.81
225806,0.11956,9.76088,1.02343,1.82,-2.94,0,-23.9894,-45.9671,10.6367,1014.81
225812,0.124342,9.77044,1.00909,1.47,-3.01,-0.49,-23.786,-47.4782,9.54324,1014.82
225818,0.11956,9.78957,0.994739,1.96,-3.29,0,-23.3211,-47.139,11.0652,1014.82
225824,0.172166,9.7561,0.985174,1.33,-3.08,0.56,-24.2218,-45.8437,10.5924,1014.82
225830,0.162602,9.77044,1.0043,2.03,-3.36,-0.42,-24.9773,-46.5222,9.82399,1014.82
225836,0.167384,9.79436,0.985174,1.61,-2.94,0.28,-24.3961,-46.954,8.65665,1014.82
225842,0.176949,9.8374,0.980392,1.54,-3.22,0.49,-23.5826,-45.7821,11.2721,1014.78
225848,0.181731,9.78957,1.00909,1.75,-3.15,0.28,-24.5995,-45.9054,10.415,1014.78
225854,0.172166,9.79436,0.97561,1.75,-3.22,0.21,-24.2799,-46.9848,9.17383,1014.84
225860,0.224773,9.83261,0.999522,1.68,-3.43,-0.49,-24.7158,-46.3063,10.0456,1014.84
225866,0.301291,9.80392,0.966045,1.4,-2.52,-0.91,-24.1637,-45.5662,11.1982,1014.81
225872,0.148254,9.81827,0.97561,2.03,-2.94,-0.49,-24.8029,-46.6764,8.50889,1014.81
225878,0.172166,9.8087,0.966045,1.47,-2.31,-0.49,-24.5705,-46.5531,10.0604,1014.79
225884,0.129125,9.77044,1.00909,1.68,-2.8,-0.91,-24.5995,-46.0905,11.0504,1014.79
225890,0.10043,9.74175,0.985174,1.4,-3.08,-0.21,-23.9603,-46.6147,9.32159,1014.79
225896,0.143472,9.76088,0.994739,1.96,-2.87,0,-23.9022,-47.4166,10.6515,1014.83
225902,0.124342,9.75131,1.033,1.89,-2.8,-0.35,-23.7569,-46.0905,10.6515,1014.83
225908,0.143472,9.7561,0.980392,1.4,-2.66,-0.21,-23.9603,-46.4605,10.7697,1014.85
225914,0.11956,9.76566,1.01387,2.17,-2.94,0,-23.6116,-47.2932,10.5185,1014.85
225920,0.129125,9.74653,0.989957,1.68,-2.73,0.35,-24.1637,-46.2138,8.84875,1014.85
225926,0.109995,9.78001,0.989957,2.1,-3.15,0,-24.8029,-47.0157,9.09995,1014.85
225932,0.13869,9.76566,0.966045,1.75,-3.08,0.28,-24.1928,-46.4605,8.64188,1014.83
225938,0.148254,9.78479,0.989957,1.75,-3.08,0.14,-24.8029,-46.3989,8.61232,1014.83
225944,0.172166,9.80392,0.970827,2.17,-3.01,0.35,-24.1637,-45.5045,9.24771,1014.83
225950,0.196078,9.79436,0.97561,1.75,-3.08,0.42,-23.786,-47.0773,10.6071,1014.87
225956,0.167384,9.78957,0.95648,1.75,-3.22,0.35,-23.6697,-46.7073,9.45458,1014.87
225962,0.181731,9.78957,1.0043,1.61,-3.15,0.21,-24.1637,-45.9054,10.3855,1014.85
225968,0.181731,9.80392,0.980392,1.82,-3.29,0.21,-24.0765,-45.0419,10.8731,1014.85
225974,0.234338,9.81827,0.985174,1.82,-2.66,0.21,-24.0475,-47.2315,10.2082,1014.82
225980,0.196078,9.81349,0.989957,1.54,-3.08,-0.49,-23.8731,-45.5662,10.4446,1014.82
225986,0.215208,9.80392,0.999522,1.68,-3.01,-0.7,-24.1928,-45.7512,9.97175,1014.81
225992,0.143472,9.8087,1.00909,1.54,-3.01,-0.49,-24.2509,-47.0465,8.52366,1014.81
225998,0.148254,9.8087,1.01865,1.82,-2.87,-0.35,-23.9312,-47.2624,9.60234,1014.82
226004,0.153037,9.76566,0.970827,1.68,-3.08,-0.14,-24.0184,-45.5662,9.88309,1014.82
226010,0.11956,9.77044,1.0043,1.75,-3.15,-0.21,-24.5414,-46.9848,9.95698,1014.82
226016,0.148254,9.77044,1.01865,2.17,-3.36,-0.35,-24.3671,-46.9231,9.83876,1014.81
226022,0.129125,9.78479,0.966045,1.82,-2.8,0.14,-23.4954,-45.412,9.35114,1014.81
226028,0.114778,9.78957,1.02822,2.17,-3.57,-0.42,-24.3671,-46.6456,9.67622,1014.8
226034,0.153037,9.79914,0.961262,1.96,-3.08,0,-23.8731,-47.4474,10.8731,1014.8
226040,0.143472,9.78479,0.980392,2.38,-3.08,0.42,-23.9022,-46.0905,10.1638,1014.84
226046,0.167384,9.77044,0.989957,1.89,-3.29,0.21,-23.1758,-45.5045,9.82399,1014.84
226052,0.176949,9.78479,0.966045,1.75,-2.94,-0.28,-24.0765,-46.8923,9.98653,1014.83
226058,0.153037,9.76088,0.989957,1.96,-3.22,0,-23.3211,-46.0288,10.1786,1014.83
226064,0.176949,9.77044,0.980392,1.82,-2.94,0.14,-23.9312,-45.8437,10.4889,1014.83
226070,0.157819,9.74175,0.994739,1.89,-2.66,0.84,-23.9603,-46.8615,9.05562,1014.8
226076,0.148254,9.79914,0.961262,1.4,-2.8,0.42,-24.2218,-47.5399,8.31679,1014.8
226082,0.234338,9.78479,0.942133,1.54,-2.59,0,-24.3961,-45.9671,9.33637,1014.82
226088,0.210426,9.79914,0.989957,1.68,-2.94,0.42,-23.4954,-46.954,9.85354,1014.82
226094,0.196078,9.79436,1.0043,1.54,-3.36,0.56,-24.3671,-47.8483,9.23293,1014.82
226100,0.162602,9.78001,0.999522,1.47,-3.5,-0.7,-24.3671,-46.0288,10.4889,1014.82
226106,0.224773,9.79436,0.97561,1.75,-3.01,-0.21,-23.2629,-46.0596,9.95698,1014.8
226112,0.172166,9.80392,0.985174,1.96,-3.08,0.14,-24.1346,-46.8615,10.1491,1014.8
226118,0.181731,9.7561,0.999522,1.89,-3.01,-0.07,-23.786,-46.6764,10.3116,1014.8
226124,0.172166,9.76566,0.994739,1.61,-3.08,0.42,-23.6407,-45.8129,10.0013,1014.82
226130,0.172166,9.78957,0.97561,1.75,-3.22,-0.28,-23.9894,-46.4914,9.45458,1014.82
226136,0.191296,9.77523,0.999522,1.96,-3.01,0.14,-23.815,-46.9848,9.55801,1014.85
226142,0.133907,9.75131,1.0043,2.17,-3.08,0.28,-23.815,-46.368,10.814,1014.85
226148,0.162602,9.74653,0.970827,1.54,-3.01,0,-23.8731,-45.8437,10.09,1014.81
226154,0.153037,9.77523,1.0043,2.24,-3.36,0.07,-23.815,-47.0465,9.07039,1014.81
226160,0.143472,9.77523,0.97561,2.38,-2.73,0.14,-23.786,-46.3989,10.2673,1014.81
226166,0.153037,9.78001,0.980392,2.24,-3.08,0,-23.9022,-45.8129,10.3707,1014.81
226172,0.176949,9.77044,1.01387,1.89,-2.87,0.42,-23.9312,-46.4297,9.66145,1014.84
226178,0.210426,9.78957,0.923003,2.03,-3.29,0.28,-23.9894,-47.1698,8.83397,1014.84
226184,0.181731,9.83261,0.93735,1.96,-3.08,0,-23.6988,-45.0727,9.88309,1014.84
226190,0.210426,9.8374,0.932568,1.54,-2.73,-0.14,-23.6988,-46.3063,9.14427,1014.81
226196,0.153037,9.81349,1.0043,1.61,-2.66,-0.07,-23.3792,-46.5222,8.8783,1014.81
226202,0.181731,9.81827,0.97561,2.03,-2.87,-0.42,-23.786,-46.183,11.2869,1014.81
226208,0.148254,9.79436,0.970827,1.47,-3.01,-0.42,-23.6116,-45.8437,9.42502,1014.81
226214,0.181731,9.8087,0.999522,1.82,-3.01,0,-23.8441,-47.5091,8.42023,1014.79
226220,0.181731,9.77044,1.0043,1.89,-3.01,-0.42,-23.1467,-46.6456,9.33637,1014.79
226226,0.133907,9.78001,1.03778,1.33,-2.94,0.14,-23.786,-45.1036,9.4398,1014.82
226232,0.13869,9.77044,1.033,1.75,-2.94,0.07,-23.3792,-47.0157,6.83915,1014.82
226238,0.148254,9.7274,1.01387,2.03,-2.8,0.21,-23.0886,-47.3857,9.1886,1014.82
226244,0.181731,9.76566,1.0043,1.68,-2.87,-0.21,-23.5535,-46.0596,10.5333,1014.84
226250,0.13869,9.78001,1.0043,2.24,-2.94,0.21,-23.4373,-46.7689,10.2673,1014.84
226256,0.13869,9.76566,0.989957,2.24,-3.36,0.35,-24.1928,-47.5091,9.08517,1014.85
226262,0.143472,9.77044,0.989957,2.17,-3.15,0.35,-23.786,-46.3989,9.32159,1014.85
226268,0.162602,9.78479,0.980392,2.24,-3.22,0.35,-23.9894,-46.7381,11.0357,1014.83
226274,0.143472,9.80392,1.02343,2.24,-3.15,0.14,-24.8029,-46.954,8.84875,1014.83
226280,0.157819,9.81349,0.961262,1.82,-3.36,0.77,-23.9894,-46.8615,8.86352,1014.81
226286,0.215208,9.78479,0.946915,2.24,-3.15,0.07,-23.3211,-45.4737,10.7697,1014.81
226292,0.224773,9.8087,0.966045,1.96,-2.94,0,-24.0765,-46.6147,9.79444,1014.81
226298,0.267814,9.84218,0.980392,2.03,-3.08,-0.21,-24.309,-46.7689,8.71576,1014.82
226304,0.272597,9.81827,0.966045,2.03,-2.8,-0.63,-24.0184,-44.9802,10.4003,1014.82
226310,0.248685,9.84696,0.93735,1.82,-2.66,-0.91,-22.6527,-46.8615,9.26248,1014.85
226316,0.191296,9.84218,0.946915,1.61,-3.15,-0.98,-24.5705,-47.324,8.43501,1014.85
226322,0.143472,9.81349,0.994739,1.61,-3.01,-0.77,-23.5826,-45.6587,10.4298,1014.81
226328,0.157819,9.78479,1.01865,1.54,-3.22,-0.91,-23.9894,-46.3989,9.35114,1014.81
226334,0.114778,9.76566,0.999522,1.61,-2.73,-0.98,-23.0595,-46.8923,9.61712,1014.85
226340,0.215208,9.7561,0.985174,1.54,-2.59,-0.49,-23.2048,-46.9231,9.63189,1014.85
226346,-0.0047824,9.78001,1.05213,1.75,-3.29,-0.42,-23.6407,-46.5839,9.691,1014.86
226352,0.181731,9.74175,0.961262,2.24,-3.85,-0.35,-23.8731,-46.954,8.96696,1014.86
226358,0.133907,9.77523,0.966045,2.31,-3.36,-0.63,-24.1056,-46.7381,8.3759,1014.86
226364,0.109995,9.75131,0.985174,1.96,-2.87,0.42,-24.0765,-45.9363,10.2377,1014.82
226370,0.124342,9.76088,0.970827,1.68,-3.01,0.28,-23.9894,-46.7073,8.95218,1014.82
226376,0.095648,9.81349,0.894309,1.89,-3.5,0.28,-23.9894,-47.3857,8.78964,1014.82
226382,0.23912,9.65088,1.06648,1.96,-2.66,0.28,-24.1056,-46.183,9.63189,1014.82
226388,0.0430416,9.65567,1.11908,2.52,-2.94,0.07,-23.8731,-46.7381,10.7697,1014.82
226394,0.196078,9.74653,0.970827,2.52,-3.43,0.77,-23.9022,-47.1698,8.31679,1014.82
226400,0.186514,9.79436,0.927786,2.45,-3.01,0.49,-23.4082,-46.2138,9.23293,1014.82
226406,0.157819,9.81827,0.942133,1.75,-3.15,0.49,-23.5826,-46.1213,10.1047,1014.82
226412,0.21999,9.80392,0.989957,1.82,-2.8,0.35,-24.6577,-46.4297,8.49411,1014.82
226418,0.234338,9.85174,0.951698,2.24,-3.15,0.14,-24.1056,-46.7381,8.16903,1014.84
226424,0.210426,9.82783,0.932568,1.89,-3.29,0.14,-24.3961,-45.3503,9.04084,1014.84
226430,0.191296,9.84218,1.00909,1.68,-3.08,-0.56,-24.3671,-45.9979,8.59755,1014.84
226436,0.234338,9.82783,1.00909,1.54,-2.24,0.21,-24.2509,-48.1259,8.67143,1014.84
226442,0.224773,9.80392,0.970827,1.89,-3.01,-0.84,-23.8731,-46.6147,9.27726,1014.83
226448,0.172166,9.81349,0.95648,1.47,-2.8,-0.91,-24.0765,-46.183,9.66145,1014.83
226454,0.10043,9.76566,1.01387,1.61,-2.73,-0.35,-24.6867,-47.4166,8.25769,1014.83
226460,0.109995,9.74175,1.03778,1.75,-3.22,-0.63,-24.1346,-46.9848,8.33157,1014.83
226466,0.105213,9.72262,1.01865,1.82,-3.22,17.22,-23.292,-45.7512,8.67143,1014.83
226472,0.13869,9.76088,1.01865,2.17,-3.43,-0.77,-24.0765,-47.6324,9.63189,1014.81
226478,0.148254,9.76566,0.999522,2.45,-3.5,-0.49,-23.8441,-48.2184,8.81919,1014.81
226484,0.13869,9.76566,1.0043,2.24,-2.73,0.21,-24.0184,-46.2447,10.5776,1014.81
226490,0.114778,9.72262,0.966045,2.45,-2.87,0.35,-23.8731,-46.7689,9.23293,1014.81
226496,0.143472,9.77523,0.966045,2.03,-3.36,-0.07,-23.9894,-47.9717,10.1047,1014.84
226502,0.13869,9.78957,0.966045,2.1,-3.15,0.14,-23.786,-46.7689,10.5924,1014.84
226508,0.186514,9.8087,0.961262,2.24,-2.73,0.7,-24.1056,-45.7821,10.3412,1014.83
226514,0.157819,9.77044,0.95648,1.89,-3.08,0.42,-24.0765,-47.0465,9.1295,1014.83
226520,0.181731,9.79914,0.961262,1.33,-2.94,0,-24.2799,-47.2007,10.0013,1014.83
226526,0.167384,9.80392,0.951698,1.54,-2.66,0.49,-23.3501,-46.4914,10.1047,1014.83
226532,0.224773,9.79436,1.033,2.1,-3.22,0.07,-24.5124,-47.2315,9.75011,1014.83
226538,0.248685,9.85653,0.932568,1.82,-3.36,-0.07,-24.1346,-47.7866,8.02127,1014.81
226544,0.272597,9.85653,0.889526,1.61,-2.59,0,-23.815,-46.2138,8.90785,1014.81
226550,0.0813008,9.84218,1.04256,1.26,-2.8,-0.28,-23.6988,-46.2138,9.49891,1014.84
226556,0.172166,9.74653,1.01865,1.75,-2.73,-0.56,-24.2218,-47.5708,10.4594,1014.84
226562,0.186514,9.80392,1.01865,1.54,-3.08,-0.28,-23.815,-47.0157,9.86832,1014.83
226568,0.196078,9.78001,0.994739,1.96,-2.73,-0.56,-23.7569,-46.7073,9.82399,1014.83
226574,0.124342,9.79914,0.999522,1.96,-3.36,-0.56,-24.5124,-47.4474,9.26248,1014.87
226580,0.13869,9.74653,1.01865,1.82,-3.29,-0.35,-24.0765,-47.5091,9.64667,1014.87
226586,0.143472,9.80392,1.03778,1.75,-3.08,0.14,-24.2218,-46.2138,8.81919,1014.87
226592,0.148254,9.74653,1.00909,2.38,-3.22,-0.07,-24.2218,-47.3549,9.60234,1014.85
226598,0.148254,9.81827,0.932568,1.82,-2.87,-0.63,-23.9312,-47.7866,9.45458,1014.85
226604,0.133907,9.82783,0.989957,1.96,-2.94,-0.49,-23.6697,-46.1521,11.0504,1014.83
226610,0.13869,9.77044,0.999522,1.26,-3.01,-0.28,-23.6697,-46.9848,10.1195,1014.83
226616,0.114778,9.81827,0.97561,1.75,-2.94,0.35,-24.0184,-46.9848,8.86352,1014.85
226622,0.176949,9.80392,0.966045,1.47,-3.29,0,-23.7278,-46.368,10.2968,1014.85
226628,0.176949,9.78001,0.97561,1.96,-3.08,-0.28,-23.8731,-46.2755,9.54324,1014.82
226634,0.167384,9.78957,0.980392,1.47,-2.59,0,-23.9022,-47.6633,9.73533,1014.82
226640,0.176949,9.77523,0.970827,1.82,-2.66,0.07,-23.4663,-47.0157,8.50889,1014.82
226646,0.25825,9.83261,0.946915,1.75,-2.66,-0.35,-23.9894,-46.2447,9.86832,1014.84
226652,0.21999,9.77044,0.999522,1.82,-3.01,-0.35,-24.3671,-46.5531,8.92263,1014.84
226658,0.205643,9.80392,0.985174,1.12,-2.8,-0.77,-23.9603,-47.139,9.20338,1014.84
226664,0.114778,9.80392,1.02343,1.75,-3.29,-0.35,-23.8441,-46.1521,9.49891,1014.84
226670,0.133907,9.7561,1.03778,1.54,-2.59,-0.35,-23.5244,-47.0157,9.66145,1014.81
226676,0.172166,9.77523,1.04256,1.75,-2.73,-0.14,-23.6697,-47.2932,8.70098,1014.81
226682,0.133907,9.78957,1.02343,1.47,-2.38,0,-24.1056,-46.6764,10.1047,1014.81
226688,0.114778,9.78001,0.97561,1.68,-2.66,-0.49,-23.6988,-46.1521,9.46935,1014.81
226694,0.157819,9.76566,1.01387,2.1,-2.87,0.14,-24.4252,-46.5531,10.4446,1014.86
226700,0.109995,9.78479,0.994739,2.24,-3.08,0.07,-24.0765,-46.4297,10.9027,1014.86
226706,0.129125,9.79436,0.999522,2.31,-2.94,0,-23.9022,-45.9979,10.3855,1014.86
226712,0.124342,9.73697,0.951698,1.89,-3.08,-0.07,-23.4373,-47.4166,10.1195,1014.82
226718,0.162602,9.78479,0.999522,2.52,-2.87,0.35,-23.2629,-47.6324,9.85354,1014.82
226724,0.13869,9.78957,0.95648,1.54,-2.66,0.84,-23.5244,-45.6279,10.9765,1014.83
226730,0.124342,9.79436,0.951698,1.75,-3.08,0.35,-23.4663,-46.7998,10.6515,1014.83
226736,0.143472,9.82305,0.97561,1.54,-3.29,0.28,-23.786,-46.4605,10.2377,1014.81
226742,0.157819,9.78957,0.942133,1.54,-2.8,0.07,-23.5535,-47.3549,10.5628,1014.81
226748,0.176949,9.78957,0.980392,1.47,-3.36,0.56,-23.6407,-46.3989,10.5776,1014.81
226754,0.124342,9.80392,1.01865,1.47,-3.01,0.49,-24.0184,-47.3857,10.548,1014.81
226760,0.291726,9.7561,0.970827,1.54,-2.59,-0.28,-24.338,-47.0773,9.88309,1014.81
226766,0.229555,9.83261,1.01387,1.26,-2.8,-0.14,-24.0184,-45.8746,10.6219,1014.83
226772,0.248685,9.77044,0.989957,1.89,-2.94,-0.07,-24.1056,-46.7073,10.1047,1014.83
226778,0.124342,9.81349,0.985174,1.4,-2.52,-0.56,-23.9894,-47.4782,9.49891,1014.83
226784,0.13869,9.77523,1.02343,1.47,-2.94,-0.42,-23.1467,-46.0288,11.0209,1014.83
226790,0.186514,9.73697,1.05213,1.89,-2.87,-0.21,-24.309,-46.7689,9.51368,1014.83
226796,0.157819,9.80392,0.97561,1.4,-2.52,-0.84,-24.4833,-47.3549,8.70098,1014.83
226802,0.13869,9.81349,0.97561,1.12,-2.87,-0.49,-23.786,-45.3195,11.7154,1014.82
226808,0.095648,9.7561,1.0043,1.33,-3.01,-0.21,-23.7278,-46.2138,10.2377,1014.82
226814,0.095648,9.77044,0.961262,1.4,-2.66,-0.35,-24.2799,-47.6324,10.09,1014.8
226820,0.148254,9.77523,0.989957,1.54,-2.94,0.21,-23.9603,-46.8923,10.7401,1014.8
226826,0.109995,9.82783,0.966045,1.26,-3.15,-0.14,-23.8441,-46.0905,10.5776,1014.8
226832,0.143472,9.81827,0.999522,1.54,-3.08,-0.07,-23.9894,-46.8306,9.17383,1014.81
226838,0.13869,9.78957,0.980392,1.47,-3.29,-0.14,-24.6867,-46.954,8.96696,1014.81
226844,0.148254,9.77523,0.980392,2.03,-3.36,0.14,-24.2509,-45.7204,10.2525,1014.83
226850,0.153037,9.7561,0.966045,1.33,-2.73,0.42,-23.2339,-46.7998,9.66145,1014.83
226856,0.210426,9.77523,0.970827,1.26,-2.87,0.14,-24.338,-47.8175,9.39547,1014.81
226862,0.196078,9.77523,1.0043,0.98,-2.66,0.35,-24.2218,-46.0596,10.0161,1014.81
226868,0.167384,9.77523,0.994739,1.54,-2.8,0.21,-23.6116,-46.2138,10.2082,1014.84
226874,0.205643,9.76566,1.02343,1.33,-2.59,-0.21,-24.0475,-47.3857,8.36112,1014.84
226880,0.215208,9.82305,1.02343,1.75,-3.22,-0.35,-23.9894,-46.6764,8.92263,1014.84
226886,0.224773,9.8374,0.961262,1.47,-2.94,-0.63,-23.4373,-45.9363,9.79444,1014.82
226892,0.157819,9.81827,0.980392,1.54,-2.52,-0.35,-24.338,-47.324,9.1295,1014.82
226898,0.105213,9.79436,1.02343,1.68,-2.73,-0.49,-23.786,-47.8175,10.4298,1014.83
226904,0.153037,9.79436,0.989957,1.33,-2.94,-0.63,-23.815,-46.7381,10.2377,1014.83
226910,0.200861,9.81349,0.994739,1.47,-3.22,-0.63,-24.0765,-47.0465,10.7845,1014.84
226916,0.167384,9.79914,0.980392,1.4,-2.73,0.21,-24.1056,-47.5708,8.43501,1014.84
226922,0.143472,9.76088,1.00909,1.19,-2.73,-0.7,-24.4543,-45.9979,10.5924,1014.83
226928,0.124342,9.75131,0.989957,1.4,-3.08,-0.35,-24.1928,-46.3372,9.79444,1014.83
226934,0.124342,9.75131,1.033,1.4,-3.08,-0.14,-23.9603,-48.1567,10.3264,1014.83
