Timestamp,AccX,AccY,AccZ,AngularVelX,AngularVelY,AngularVelZ,MagX,MagY,MagZ,AirPressure
143642,0.0526064,9.79914,0.813008,2.24,-2.66,-0.42,23.5185,-46.6147,-22.0192,1014.78
143648,0.0382592,9.84696,0.746054,2.24,-2.8,-0.77,22.792,-46.4297,-20.9257,1014.78
143654,-0.0430416,9.82783,0.755619,1.26,-2.52,-0.77,23.3441,-46.6456,-20.8518,1014.78
143660,-0.0286944,9.79914,0.765184,1.54,-3.29,-0.56,23.0245,-47.0773,-21.0439,1014.82
143666,-0.0095648,9.79914,0.827355,1.4,-2.94,-0.35,22.5305,-45.9363,-21.4724,1014.82
143672,0.0191296,9.78957,0.789096,1.68,-2.59,-0.56,23.2279,-45.9671,-21.4872,1014.82
143678,-0.0430416,9.81349,0.779531,1.82,-3.22,-0.77,23.2279,-46.8615,-20.6154,1014.82
143684,-0.0908656,9.76566,0.760402,1.12,-2.94,-0.84,23.4313,-46.2447,-21.3394,1014.83
143690,-0.0860832,9.77044,0.81779,1.54,-3.08,-0.49,23.1407,-45.6279,-22.3147,1014.83
143696,-0.0908656,9.79436,0.808226,1.47,-3.36,-0.35,23.5185,-47.6016,-20.7927,1014.79
143702,-0.023912,9.79436,0.73649,0.84,-3.08,0.14,23.5766,-47.2624,-21.5759,1014.79
143708,-0.105213,9.64132,0.95648,1.89,-3.29,-0.07,23.1988,-45.6587,-22.0487,1014.79
143714,-0.0908656,9.71305,0.860832,2.03,-2.87,0.07,23.1407,-47.0465,-20.6893,1014.81
143720,-0.0430416,9.72262,0.85605,2.17,-2.52,0.49,22.763,-47.0157,-21.5315,1014.81
143726,0,9.82305,0.765184,1.96,-3.36,0.21,22.9664,-45.3503,-22.2851,1014.8
143732,0,9.80392,0.789096,2.1,-3.22,-0.07,23.1407,-45.9979,-20.8962,1014.8
143738,0.0430416,9.88044,0.722142,1.75,-2.8,0.07,23.0245,-47.6324,-20.7632,1014.83
143744,0.071736,9.84696,0.760402,2.1,-2.45,0.07,22.6758,-45.9979,-21.4281,1014.83
143750,0.023912,9.84218,0.803443,1.61,-2.45,-0.07,22.9373,-45.4737,-21.6941,1014.8
143756,0.0382592,9.82305,0.789096,1.68,-2.8,-0.28,23.3441,-46.8615,-21.4429,1014.8
143762,-0.0191296,9.81827,0.784314,1.75,-2.94,-0.77,23.4313,-47.5399,-21.7975,1014.8
143768,-0.0095648,9.83261,0.774749,1.47,-2.52,-0.35,23.4894,-45.6895,-22.5363,1014.8
143774,-0.0430416,9.80392,0.813008,1.96,-3.01,-0.7,23.3441,-46.8306,-21.6645,1014.8
143780,-0.114778,9.82305,0.755619,1.47,-2.87,-0.98,24.1287,-46.8306,-22.8614,1014.82
143786,-0.0669536,9.79436,0.741272,1.4,-3.22,-0.21,23.809,-46.183,-21.6645,1014.82
143792,-0.095648,9.74653,0.83692,1.47,-3.29,-0.21,23.4603,-46.368,-21.7532,1014.82
143798,-0.0669536,9.77523,0.774749,1.68,-3.43,-0.7,22.6177,-46.954,-20.8223,1014.82
143804,-0.0621712,9.78957,0.779531,0.77,-3.29,-0.21,23.3151,-45.5045,-21.4281,1014.83
143810,-0.124342,9.71305,0.884744,1.68,-3.22,-0.35,23.0245,-45.8437,-21.6202,1014.83
143816,-0.047824,9.71305,0.832138,1.96,-3.43,0.49,23.286,-47.1698,-21.3985,1014.81
143822,-0.0669536,9.7274,0.851267,2.03,-3.29,0.98,23.4603,-46.1521,-21.4281,1014.81
143828,-0.047824,9.78479,0.779531,1.82,-3.5,0.28,23.1698,-45.9979,-21.4872,1014.81
143834,-0.0095648,9.76088,0.793878,2.24,-3.15,0.14,22.763,-46.5531,-21.4872,1014.83
143840,0.0095648,9.80392,0.755619,2.31,-2.73,0.56,23.6637,-47.4166,-20.379,1014.83
143846,0.0191296,9.82305,0.750837,1.96,-2.66,0.63,23.0826,-46.0288,-21.6202,1014.8
143852,0.0813008,9.87566,0.750837,1.68,-2.73,0,23.0536,-46.8615,-22.625,1014.8
143858,0.109995,9.89957,0.688666,1.96,-2.8,-0.28,23.257,-46.9848,-20.3642,1014.81
143864,0.0143472,9.85174,0.755619,1.4,-2.24,-0.07,23.2279,-46.1213,-20.7336,1014.81
143870,-0.0143472,9.85174,0.750837,1.68,-2.52,-0.84,22.9083,-45.8746,-22.5954,1014.81
143876,-0.071736,9.82783,0.784314,1.26,-3.22,-0.84,23.8671,-47.9717,-21.3838,1014.81
143882,0,9.79436,0.798661,1.47,-2.73,-0.91,23.5475,-46.7998,-22.3295,1014.81
143888,-0.0191296,9.8374,0.798661,2.03,-2.94,-0.98,23.286,-45.7204,-22.2408,1014.82
143894,-0.047824,9.80392,0.789096,1.4,-2.8,-0.63,23.7509,-46.3063,-22.891,1014.82
143900,-0.0813008,9.78957,0.798661,1.33,-3.36,-0.49,24.0705,-47.6016,-21.3099,1014.83
143906,-0.10043,9.74653,0.841702,1.75,-3.43,-0.63,23.0245,-45.8129,-22.1374,1014.83
143912,-0.114778,9.73218,0.784314,1.4,-2.73,0.21,23.4022,-45.9979,-21.5315,1014.81
143918,-0.0765184,9.75131,0.793878,1.96,-3.29,0.21,23.3151,-47.3549,-20.8075,1014.81
143924,-0.0765184,9.74653,0.798661,1.54,-3.08,0.49,23.0245,-46.5222,-21.7532,1014.8
143930,-0.071736,9.76088,0.760402,2.1,-3.43,0.14,22.792,-45.9979,-21.1769,1014.8
143936,-0.047824,9.7561,0.765184,1.54,-3.01,0.14,23.2279,-47.91,-21.635,1014.8
143942,-0.0286944,9.71305,0.83692,1.82,-3.36,0.28,22.9373,-46.6456,-22.492,1014.83
143948,0,9.79436,0.779531,1.61,-2.94,0.42,23.0826,-45.3503,-22.7728,1014.83
143954,0.0382592,9.8087,0.722142,1.89,-3.01,0.14,22.792,-46.2755,-21.9748,1014.82
143960,0.023912,9.85174,0.69823,1.61,-3.08,0.21,22.9954,-46.8923,-20.7336,1014.82
143966,0.0191296,9.83261,0.769966,1.47,-2.66,-0.63,23.1407,-46.1213,-20.9996,1014.8
143972,-0.0047824,9.81349,0.784314,1.68,-2.66,-0.14,22.3271,-45.7512,-21.8271,1014.8
143978,0.023912,9.84218,0.779531,1.33,-2.66,-0.35,23.1698,-47.5399,-21.0882,1014.79
143984,-0.0095648,9.82783,0.774749,1.82,-2.59,-0.63,22.9954,-45.7512,-21.1621,1014.79
143990,-0.0430416,9.78957,0.798661,1.05,-2.73,-0.98,22.5596,-45.597,-21.9896,1014.83
143996,-0.0765184,9.79436,0.741272,1.4,-2.73,-0.35,23.5475,-47.1082,-21.3985,1014.83
144002,-0.0669536,9.79914,0.798661,1.54,-2.8,-0.63,23.257,-46.6147,-21.8271,1014.83
144008,-0.047824,9.77044,0.765184,1.54,-2.8,-0.35,22.5886,-45.2269,-21.2803,1014.79
144014,-0.0286944,9.81349,0.803443,1.33,-2.31,-0.28,23.0536,-46.3372,-22.3295,1014.79
144020,-0.0860832,9.78957,0.769966,1.54,-2.66,-0.56,23.0536,-46.8306,-21.8123,1014.82
144026,-0.10043,9.73218,0.813008,1.47,-2.59,-0.28,22.6468,-45.3195,-20.6893,1014.82
144032,-0.0860832,9.74653,0.784314,1.54,-3.15,0.14,23.7219,-46.2138,-21.7384,1014.81
144038,-0.0765184,9.74653,0.808226,1.61,-2.59,0.28,23.3441,-47.0157,-21.5906,1014.81
144044,-0.095648,9.76088,0.822573,1.89,-2.94,0.28,22.763,-45.6587,-20.4824,1014.81
144050,-0.0621712,9.74653,0.813008,2.17,-3.01,0.21,22.9083,-45.6587,-22.0487,1014.81
144056,-0.047824,9.78001,0.774749,2.03,-3.01,0.21,23.1407,-47.3857,-21.6497,1014.81
144062,-0.0047824,9.79436,0.73649,1.89,-2.87,0.49,23.3732,-46.5222,-21.236,1014.86
144068,0.0191296,9.82305,0.746054,2.17,-3.01,0.21,22.6177,-45.6895,-22.2113,1014.86
144074,0.0143472,9.83261,0.755619,1.96,-2.8,-0.14,23.1117,-46.5222,-21.3394,1014.83
144080,0,9.80392,0.822573,2.1,-2.87,-0.07,23.1407,-47.0465,-22.0635,1014.83
144086,0.0669536,9.8087,0.765184,1.75,-2.8,0.07,22.6758,-45.7821,-21.8271,1014.77
144092,0.023912,9.8374,0.793878,1.96,-2.59,0,23.2279,-45.9054,-21.7532,1014.77
144098,-0.0286944,9.8374,0.746054,1.54,-2.45,-0.28,23.9834,-47.725,-21.4281,1014.83
144104,-0.0908656,9.84696,0.741272,1.4,-2.31,0.28,22.6177,-46.1213,-21.2065,1014.83
144110,-0.0621712,9.80392,0.784314,1.4,-2.52,-0.49,22.8211,-46.0596,-21.7089,1014.83
144116,-0.0382592,9.77523,0.803443,1.54,-3.29,-1.05,23.1407,-47.1698,-21.1178,1014.77
144122,-0.0908656,9.81349,0.769966,1.26,-3.08,-0.35,23.257,-46.3372,-21.502,1014.77
144128,-0.095648,9.76088,0.808226,1.33,-2.87,-0.07,23.1698,-45.6279,-22.093,1014.83
144134,-0.095648,9.7561,0.784314,1.54,-3.08,-0.14,23.8671,-47.4166,-22.3442,1014.83
144140,-0.0813008,9.73697,0.803443,1.68,-2.94,0.07,23.257,-47.139,-21.7532,1014.8
144146,-0.047824,9.76088,0.860832,1.96,-2.87,-0.07,22.5596,-45.8437,-21.7532,1014.8
144152,-0.0765184,9.7561,0.774749,1.82,-2.94,0.14,22.8211,-46.6147,-20.8518,1014.82
144158,-0.0573888,9.74653,0.808226,1.96,-3.29,0.42,22.9083,-47.6633,-20.8223,1014.82
144164,-0.0286944,9.76566,0.798661,1.96,-3.29,0.7,23.5475,-45.7821,-22.2408,1014.79
144170,-0.0191296,9.77523,0.760402,1.75,-2.73,0.63,23.4603,-46.2755,-22.4181,1014.79
144176,-0.0191296,9.81349,0.779531,1.89,-3.15,0.42,23.9253,-47.2932,-20.4676,1014.79
144182,0.0095648,9.81349,0.774749,1.33,-2.66,0.35,23.5475,-46.5531,-20.6302,1014.83
144188,0.0047824,9.82305,0.774749,2.17,-2.8,0.14,23.0826,-46.2447,-21.7532,1014.83
144194,-0.0286944,9.85174,0.774749,1.33,-2.87,-0.07,22.8502,-46.7073,-21.3838,1014.8
144200,0,9.82783,0.73649,1.82,-2.59,-0.14,23.0245,-47.6633,-21.6941,1014.8
144206,-0.0191296,9.76088,0.865614,1.75,-2.59,0.21,22.3562,-45.1036,-20.3051,1014.78
144212,-0.0765184,9.81827,0.793878,2.03,-3.36,-0.42,22.4143,-47.6941,-22.8614,1014.78
144218,0.0430416,9.87087,0.664754,1.4,-2.8,0,22.7049,-48.2184,-20.7927,1014.82
144224,-0.105213,9.78001,0.860832,1.33,-3.08,-0.63,23.1988,-46.954,-21.6793,1014.82
144230,-0.047824,9.77523,0.813008,1.61,-2.87,0.14,22.9664,-45.8437,-21.5463,1014.82
144236,-0.0191296,9.7561,0.793878,1.61,-2.45,0.56,23.1117,-46.7381,-20.9848,1014.78
144242,-0.0813008,9.79914,0.784314,1.26,-3.22,-0.14,23.3441,-45.6279,-22.0044,1014.78
144248,-0.0573888,9.77523,0.784314,1.89,-2.94,-0.07,22.7049,-46.2447,-21.2803,1014.81
144254,-0.095648,9.75131,0.784314,1.96,-2.94,0.7,23.286,-47.2624,-21.3838,1014.81
144260,-0.0526064,9.76088,0.779531,1.68,-2.73,0.77,23.257,-47.5399,-20.2755,1014.79
144266,-0.0334768,9.76566,0.827355,2.1,-2.94,0.42,22.5015,-45.8437,-22.2851,1014.79
144272,-0.023912,9.75131,0.813008,2.1,-2.73,0.91,22.9373,-46.9231,-21.4429,1014.79
144278,-0.0334768,9.78001,0.793878,2.1,-2.73,0.63,23.3732,-47.139,-22.0635,1014.79
144284,0.0143472,9.80392,0.803443,2.03,-2.87,0.07,22.6468,-46.3372,-22.625,1014.79
144290,0.0191296,9.79914,0.769966,2.17,-2.1,0,22.3562,-46.4297,-22.492,1014.78
144296,-0.0191296,9.81827,0.769966,1.82,-2.24,0.07,23.1698,-47.5399,-21.7827,1014.78
144302,-0.0430416,9.79436,0.808226,1.96,-2.87,0.14,23.286,-47.3857,-22.4625,1014.8
144308,-0.0334768,9.8374,0.731707,2.1,-2.8,0.7,22.5015,-46.5531,-23.6446,1014.8
144314,0.0382592,9.81827,0.73649,1.96,-2.8,0,23.6347,-47.3549,-21.4281,1014.83
144320,-0.023912,9.86131,0.731707,1.68,-2.52,-0.49,23.1407,-46.6456,-22.4772,1014.83
144326,-0.0573888,9.73218,0.81779,1.68,-2.94,0.35,22.6177,-45.6279,-21.2803,1014.8
144332,-0.0813008,9.78001,0.793878,1.96,-2.94,0.07,23.0826,-46.4297,-21.9601,1014.8
144338,-0.0573888,9.77044,0.774749,1.68,-3.57,0,23.4894,-47.2007,-20.4085,1014.81
144344,-0.023912,9.78957,0.798661,1.33,-3.01,0.35,23.4313,-46.1521,-21.9453,1014.81
144350,-0.0526064,9.74653,0.779531,1.75,-3.01,0.42,22.763,-45.8437,-22.4033,1014.81
144356,-0.0573888,9.75131,0.793878,1.96,-2.73,0.63,23.7219,-47.8483,-22.4772,1014.84
144362,-0.0908656,9.74175,0.793878,1.75,-3.15,0.77,23.1407,-45.9054,-22.1965,1014.84
144368,-0.047824,9.74653,0.789096,2.17,-3.15,0.42,23.78,-45.3195,-21.5463,1014.8
144374,-0.0095648,9.78479,0.789096,2.1,-3.22,0.63,23.1117,-46.4914,-21.8418,1014.8
144380,0.0047824,9.78957,0.793878,2.17,-2.66,0.56,23.7509,-47.2624,-21.6054,1014.81
144386,-0.0286944,9.81827,0.765184,2.1,-2.94,1.05,23.286,-45.8437,-22.6989,1014.81
144392,-0.0334768,9.78957,0.803443,2.24,-3.01,0.84,23.6056,-46.368,-21.0291,1014.81
144398,-0.0334768,9.79436,0.832138,2.31,-2.87,0.49,22.9954,-47.91,-21.1917,1014.81
144404,-0.0095648,9.78957,0.784314,2.45,-2.59,0.63,23.1698,-46.5531,-22.9501,1014.81
144410,-0.0382592,9.82783,0.793878,2.31,-2.94,0.91,22.6177,-47.2315,-23.3047,1014.81
144416,0.0573888,9.83261,0.688666,2.31,-3.01,0,23.1407,-47.2315,-21.4872,1014.81
144422,0.0191296,9.84218,0.774749,2.17,-2.8,0,23.3732,-46.5839,-22.4772,1014.8
144428,-0.0334768,9.83261,0.774749,1.96,-3.01,0.07,22.0947,-45.6279,-22.625,1014.8
144434,-0.0286944,9.79436,0.774749,1.75,-2.66,0.21,22.9954,-46.954,-21.9896,1014.81
144440,-0.023912,9.82783,0.765184,1.82,-2.66,0.21,23.1117,-46.8306,-21.2951,1014.81
144446,-0.0382592,9.81827,0.808226,1.61,-2.94,0.28,22.9954,-45.8746,-21.8714,1014.81
144452,-0.023912,9.80392,0.808226,1.68,-3.08,0,22.8792,-45.6895,-21.6054,1014.81
144458,-0.0286944,9.79914,0.827355,2.03,-3.43,0.42,22.5015,-47.8792,-21.2065,1014.81
144464,-0.0286944,9.77044,0.813008,1.4,-3.08,0.14,22.6468,-45.0111,-22.8171,1014.82
144470,-0.0526064,9.81827,0.832138,2.38,-2.87,0,23.4603,-45.4428,-23.8071,1014.82
144476,-0.0382592,9.76088,0.832138,2.17,-2.87,0.7,23.4894,-47.5708,-21.1769,1014.79
144482,-0.0382592,9.76088,0.813008,1.96,-3.43,0.63,22.5596,-46.1213,-22.0635,1014.79
144488,-0.0095648,9.74175,0.784314,1.89,-3.36,0.49,22.4724,-45.2269,-22.0487,1014.8
144494,-0.0430416,9.79436,0.779531,2.17,-3.15,1.05,23.1698,-46.954,-23.024,1014.8
144500,0,9.77523,0.755619,2.45,-3.15,0.42,22.9083,-46.8615,-21.1621,1014.81
144506,-0.0047824,9.79436,0.769966,2.03,-2.73,0.28,22.6177,-45.6895,-21.5315,1014.81
144512,0.0191296,9.81827,0.755619,2.03,-2.87,0.77,22.1528,-46.7073,-22.6102,1014.79
144518,0.023912,9.78957,0.779531,2.17,-2.8,0.84,22.9373,-47.5399,-22.0487,1014.79
144524,0.0430416,9.83261,0.789096,1.96,-2.8,-0.07,23.5475,-45.4428,-20.8814,1014.79
144530,0.0908656,9.88044,0.722142,2.03,-2.31,-0.28,22.9373,-45.9979,-21.7532,1014.8
144536,0.0286944,9.88044,0.722142,1.61,-2.87,0,23.6928,-47.1082,-21.8271,1014.8
144542,-0.0526064,9.81827,0.784314,1.47,-2.8,-0.28,23.4022,-46.2138,-21.4724,1014.79
144548,-0.0382592,9.84218,0.822573,1.4,-3.01,-0.28,23.3441,-45.5662,-21.7089,1014.79
144554,-0.0191296,9.77523,0.81779,1.75,-3.01,-0.14,23.3151,-46.8306,-22.4772,1014.82
144560,-0.023912,9.78479,0.774749,1.47,-3.36,-0.49,24.0124,-47.6324,-21.6202,1014.82
144566,-0.0095648,9.74175,0.813008,1.4,-2.94,-0.07,23.1117,-45.8129,-22.492,1014.78
144572,-0.0382592,9.73697,0.846485,1.75,-2.59,0.28,23.3441,-46.8923,-23.1569,1014.78
144578,-0.0621712,9.73697,0.832138,2.17,-3.08,0.28,23.6637,-47.5399,-22.625,1014.78
144584,-0.0621712,9.77044,0.832138,1.4,-3.15,0.21,22.9373,-46.2447,-21.4724,1014.82
144590,-0.023912,9.80392,0.793878,2.03,-3.64,0.14,23.3732,-45.3503,-23.216,1014.82
144596,0.0095648,9.77044,0.803443,1.75,-2.45,0.7,22.9373,-47.5708,-22.4181,1014.82
144602,-0.0095648,9.8087,0.808226,1.82,-3.01,0.42,23.1698,-46.4605,-22.3147,1014.82
144608,-0.0382592,9.77044,0.832138,1.75,-3.15,0.14,22.8211,-46.0288,-23.3047,1014.82
144614,-0.0621712,9.78479,0.808226,2.03,-3.01,0.42,23.6928,-47.1082,-21.5906,1014.82
144620,-0.023912,9.79914,0.798661,2.1,-3.15,0.42,23.2279,-46.6764,-22.1374,1014.8
144626,-0.0286944,9.78479,0.760402,2.31,-2.73,0.14,22.0075,-44.5176,-22.8466,1014.8
144632,-0.0047824,9.79914,0.779531,2.1,-2.87,0.35,23.286,-46.4914,-22.4181,1014.8
144638,0.0334768,9.79914,0.750837,1.75,-2.66,-0.28,22.8211,-47.0157,-22.3738,1014.77
144644,0.0095648,9.8374,0.750837,2.17,-2.59,0.56,23.257,-45.6279,-21.6645,1014.77
144650,-0.0286944,9.79436,0.774749,1.82,-2.66,0.28,22.792,-45.3195,-21.8714,1014.79
144656,-0.0047824,9.77523,0.779531,1.68,-2.94,0.07,22.9664,-47.0465,-21.4577,1014.79
144662,0.023912,9.79436,0.827355,1.96,-3.15,-0.28,23.0536,-46.0288,-22.3147,1014.77
144668,0,9.80392,0.765184,1.89,-2.87,0.56,22.8211,-45.3503,-21.6202,1014.77
144674,-0.0047824,9.76088,0.846485,1.96,-2.87,0.07,23.257,-46.2755,-21.9601,1014.83
144680,-0.0191296,9.79914,0.789096,1.82,-3.08,0.07,23.6928,-46.7689,-21.103,1014.83
144686,-0.0191296,9.78957,0.784314,1.96,-3.5,-0.07,22.0075,-45.1036,-22.9205,1014.81
144692,-0.0430416,9.79436,0.726925,2.31,-3.08,0.21,22.1237,-46.0905,-20.9996,1014.81
144698,-0.023912,9.78957,0.779531,2.1,-2.8,0.35,22.9373,-47.3857,-22.5068,1014.81
144704,-0.0095648,9.78001,0.793878,1.89,-2.87,0.21,22.7049,-45.9363,-23.4525,1014.79
144710,-0.0286944,9.78001,0.798661,2.17,-3.01,0.28,23.0245,-45.6587,-23.2456,1014.79
144716,0.0095648,9.79914,0.803443,2.45,-3.64,0.14,23.4313,-47.7558,-22.1226,1014.78
144722,0.0382592,9.77044,0.789096,2.03,-3.5,0.49,22.4724,-46.1521,-22.0044,1014.78
144728,0.0526064,9.78957,0.793878,2.1,-2.94,0.07,23.5185,-45.412,-22.9648,1014.81
144734,0.0382592,9.84218,0.755619,1.82,-3.22,0.28,22.8211,-46.3063,-22.8762,1014.81
144740,0.0860832,9.85653,0.726925,2.17,-2.59,-0.07,22.8792,-47.3857,-22.0044,1014.79
144746,-0.0143472,9.83261,0.750837,1.82,-2.66,-0.28,22.269,-45.8129,-22.8614,1014.79
144752,-0.0047824,9.81349,0.769966,1.68,-3.15,-0.63,22.1818,-46.5222,-22.1965,1014.79
144758,0.0621712,9.82305,0.760402,1.19,-2.73,-0.14,23.0536,-46.9231,-21.5168,1014.83
144764,0.0526064,9.83261,0.731707,1.68,-2.66,-0.35,22.9954,-45.7204,-22.7137,1014.83
144770,-0.0286944,9.83261,0.760402,1.82,-2.52,-0.07,22.5596,-46.7381,-23.6002,1014.81
144776,-0.047824,9.79436,0.813008,1.54,-2.87,-0.49,23.257,-47.2624,-22.6398,1014.81
144782,-0.0430416,9.73218,0.822573,1.19,-2.59,-0.63,22.9954,-46.3989,-22.0192,1014.81
144788,-0.0382592,9.76566,0.841702,1.75,-2.87,0.21,22.1818,-45.5045,-22.7728,1014.81
144794,-0.023912,9.73697,0.803443,1.68,-3.08,0.07,23.1407,-47.5399,-22.5954,1014.82
144800,-0.0286944,9.79914,0.784314,2.03,-2.66,0.07,23.3151,-47.4782,-21.369,1014.82
144806,-0.0430416,9.76088,0.803443,1.75,-2.87,0.35,22.6177,-46.5839,-23.0535,1014.82
144812,-0.0526064,9.74175,0.798661,2.45,-3.64,0.14,22.763,-47.2624,-22.3886,1014.82
144818,-0.0286944,9.77044,0.779531,1.82,-2.73,0.35,23.1117,-48.0334,-21.9748,1014.82
144824,0.0047824,9.79436,0.769966,1.82,-2.59,0.77,23.6928,-46.2138,-22.359,1014.79
144830,-0.0047824,9.81827,0.755619,1.68,-3.43,0.28,23.286,-45.7512,-22.8614,1014.79
144836,0.0095648,9.77523,0.765184,1.96,-3.15,0.28,23.1407,-48.2492,-22.758,1014.83
144842,-0.023912,9.83261,0.741272,2.03,-2.87,0.28,22.6468,-47.1082,-22.6693,1014.83
144848,0.0573888,9.82305,0.731707,2.1,-2.73,0.21,22.9954,-45.5353,-22.1521,1014.79
144854,0.0430416,9.84696,0.765184,1.82,-3.01,-0.07,23.3151,-47.1082,-22.9648,1014.79
144860,0.0047824,9.82783,0.712578,1.61,-3.01,-0.14,23.2279,-47.4166,-21.9748,1014.8
144866,0.0095648,9.88522,0.726925,1.54,-2.66,-0.35,23.257,-45.8437,-22.3738,1014.8
144872,0,9.79436,0.784314,1.47,-2.73,-0.49,23.0826,-46.8923,-22.6841,1014.8
144878,-0.0334768,9.77044,0.832138,1.47,-2.52,-0.35,23.5475,-47.8175,-22.8023,1014.81
144884,-0.0143472,9.77523,0.83692,1.26,-2.52,0,23.1698,-45.9979,-22.758,1014.81
144890,-0.0334768,9.7561,0.813008,1.61,-2.73,0.14,21.9203,-46.0288,-22.9057,1014.81
144896,0.0047824,9.75131,0.808226,1.61,-2.8,-0.14,22.3852,-48.0642,-22.5216,1014.81
144902,-0.0095648,9.7561,0.793878,1.75,-3.01,0.28,22.8502,-46.7998,-21.9009,1014.83
144908,-0.023912,9.78001,0.808226,2.03,-2.73,-0.21,22.3852,-45.4428,-22.1817,1014.83
144914,-0.0143472,9.7561,0.793878,1.75,-2.87,0.14,23.0536,-47.5399,-21.9305,1014.79
144920,0.0382592,9.77523,0.789096,2.03,-2.87,0.56,23.5475,-47.6941,-21.1621,1014.79
144926,-0.0191296,9.81349,0.774749,1.82,-2.31,0.77,21.9785,-46.7381,-21.8714,1014.79
144932,-0.0095648,9.78479,0.793878,1.96,-2.8,-0.35,22.792,-46.0905,-22.1965,1014.8
144938,0.0143472,9.79914,0.827355,2.1,-3.15,0.14,22.5596,-47.6633,-22.5807,1014.8
144944,-0.0143472,9.80392,0.798661,2.1,-2.94,0.77,22.5305,-46.2447,-21.5759,1014.81
144950,0.0047824,9.81349,0.774749,1.96,-2.87,0.35,22.5015,-46.0288,-21.8862,1014.81
144956,0.0669536,9.81827,0.81779,2.03,-3.15,-0.07,22.792,-48.3726,-21.3247,1014.8
144962,0.095648,9.8087,0.808226,2.1,-2.59,0.28,22.8211,-47.1698,-21.9157,1014.8
144968,0.0573888,9.84218,0.731707,2.38,-2.1,-0.14,22.2981,-45.9363,-21.7384,1014.82
144974,-0.0286944,9.86609,0.731707,1.68,-2.52,0.14,22.9373,-47.2007,-21.9896,1014.82
144980,0.0047824,9.83261,0.774749,1.54,-2.38,-0.49,23.1988,-46.954,-21.4281,1014.82
144986,0.0143472,9.84218,0.755619,1.61,-2.8,-0.14,22.8502,-46.368,-22.0339,1014.82
144992,-0.0191296,9.78479,0.813008,1.75,-2.52,-0.21,22.5305,-47.0465,-22.5068,1014.82
144998,-0.0334768,9.79914,0.803443,1.68,-2.59,0.07,22.9664,-47.4474,-22.8319,1014.79
145004,-0.0526064,9.76088,0.822573,1.4,-2.87,0.28,22.8792,-46.0905,-22.1078,1014.79
145010,-0.0430416,9.77044,0.765184,2.03,-3.15,-0.21,22.9954,-45.9671,-22.4477,1014.79
145016,-0.0191296,9.7561,0.765184,2.31,-2.59,-0.21,23.1117,-48.5885,-22.2408,1014.79
145022,-0.0573888,9.77044,0.803443,1.75,-2.59,0.28,23.3732,-47.2932,-21.3838,1014.78
145028,-0.0382592,9.76566,0.808226,1.68,-2.94,0.28,22.0947,-46.3063,-22.8614,1014.78
145034,-0.023912,9.78479,0.798661,2.52,-3.15,0.63,22.5596,-47.8175,-22.3147,1014.81
145040,-0.0047824,9.77523,0.798661,2.24,-3.15,0.35,23.0826,-46.9848,-22.0192,1014.81
145046,0.0143472,9.79436,0.798661,1.75,-3.15,0.84,22.792,-45.4737,-23.3047,1014.81
145052,-0.0047824,9.79914,0.789096,2.03,-2.73,0.07,22.3271,-47.2007,-22.0044,1014.82
145058,0.0047824,9.79914,0.765184,1.89,-3.22,0.49,23.257,-47.6941,-21.7089,1014.82
145064,0.0382592,9.79436,0.765184,2.31,-3.15,0.56,23.0826,-45.9979,-22.4772,1014.84
145070,0.11956,9.83261,0.760402,1.96,-2.8,0.21,23.6056,-45.9979,-21.369,1014.84
145076,0.095648,9.82783,0.707795,2.03,-2.73,-0.07,23.286,-47.3857,-20.7632,1014.8
145082,-0.0047824,9.85653,0.722142,1.68,-2.73,-0.35,22.4724,-46.9231,-22.8171,1014.8
145088,-0.0573888,9.84218,0.722142,1.89,-2.45,0,22.5015,-45.7204,-21.768,1014.8
145094,0.047824,9.8087,0.789096,1.61,-2.87,-0.07,22.7339,-47.2624,-22.0635,1014.8
145100,0.0430416,9.81349,0.789096,1.96,-2.66,-0.28,22.8502,-47.2624,-22.2851,1014.8
145106,-0.023912,9.85174,0.707795,1.82,-2.94,-0.35,23.1698,-45.4737,-22.8466,1014.8
145112,-0.023912,9.82783,0.71736,1.19,-2.73,-0.35,22.8502,-47.2932,-23.1274,1014.8
145118,-0.0286944,9.77044,0.789096,1.47,-2.94,-0.42,23.6347,-47.4782,-22.8319,1014.82
145124,0.0191296,9.79436,0.73649,1.89,-3.01,0.07,23.3441,-46.0905,-21.9157,1014.82
145130,-0.0191296,9.71305,0.746054,1.68,-2.87,0.14,22.9373,-46.6764,-22.7875,1014.79
145136,-0.0669536,9.72262,0.813008,1.89,-2.8,0.21,22.1818,-48.0334,-21.6645,1014.79
145142,0.0047824,9.73697,0.784314,1.96,-2.8,0.07,22.269,-46.7073,-23.3047,1014.8
145148,-0.0382592,9.77044,0.808226,2.1,-3.15,0.7,22.6177,-46.2138,-21.8418,1014.8
145154,-0.0191296,9.74175,0.793878,2.1,-2.94,0.77,22.8792,-47.4474,-21.5315,1014.82
145160,-0.0286944,9.78001,0.803443,2.59,-2.94,0,22.4434,-47.5708,-22.891,1014.82
145166,0.023912,9.78957,0.73649,1.68,-3.08,0.21,22.6758,-45.6587,-21.8123,1014.82
145172,0.0047824,9.78001,0.769966,1.68,-2.52,0.98,23.0536,-47.3857,-22.2556,1014.8
145178,0.0143472,9.78957,0.731707,2.24,-2.52,0.42,22.9954,-47.2932,-21.9601,1014.8
145184,0.0095648,9.82783,0.741272,2.03,-2.73,0.49,22.5596,-45.8746,-22.0339,1014.84
145190,0.0382592,9.80392,0.746054,2.31,-2.8,0.77,22.9083,-46.4605,-22.226,1014.84
145196,0.0382592,9.82783,0.731707,2.03,-3.01,-0.14,23.1988,-47.725,-21.9009,1014.78
145202,0.0334768,9.79436,0.746054,2.1,-2.87,0.14,23.0245,-46.3372,-21.4429,1014.78
145208,0.0143472,9.82783,0.707795,1.82,-2.8,0.42,23.1117,-45.9363,-22.4329,1014.79
145214,0.023912,9.80392,0.703013,1.75,-2.73,0.07,22.6468,-47.8483,-20.4529,1014.79
145220,-0.0286944,9.77044,0.750837,1.4,-2.52,-0.07,23.0536,-46.954,-22.492,1014.79
145226,0,9.78479,0.722142,1.82,-2.66,0.07,22.9954,-45.8129,-22.6398,1014.81
145232,-0.0095648,9.78479,0.746054,1.82,-3.08,-0.14,24.0415,-46.954,-22.7432,1014.81
145238,-0.0143472,9.79914,0.789096,1.75,-3.22,0.77,23.0536,-47.6324,-22.7728,1014.8
145244,0,9.74653,0.774749,1.54,-2.94,0.21,23.7509,-45.7821,-22.226,1014.8
145250,-0.0191296,9.7561,0.779531,2.1,-3.01,0.7,22.763,-46.4914,-22.6989,1014.84
145256,-0.0191296,9.8087,0.774749,1.82,-3.15,0.07,23.2279,-47.7558,-21.3394,1014.84
145262,-0.0143472,9.78479,0.774749,2.1,-2.73,0.56,23.0245,-46.6764,-21.6202,1014.8
145268,0.0191296,9.80392,0.793878,1.89,-3.64,-0.14,22.4724,-45.7512,-22.492,1014.8
145274,0.0286944,9.77044,0.779531,1.96,-2.73,0.77,22.0366,-47.91,-21.7089,1014.8
145280,0.0095648,9.84696,0.73649,2.17,-2.94,0.56,23.2279,-47.1698,-21.9601,1014.79
145286,0.023912,9.8087,0.769966,2.24,-2.45,-0.07,22.1528,-45.9054,-22.9353,1014.79
145292,0.0095648,9.80392,0.769966,1.82,-3.15,-0.14,22.9954,-46.6147,-22.2113,1014.81
145298,0.0382592,9.77523,0.789096,1.89,-3.08,0.35,22.5015,-47.1698,-21.8566,1014.81
145304,0.109995,9.82783,0.693448,1.96,-2.66,0.35,21.7169,-46.183,-22.2851,1014.81
145310,0.0526064,9.8087,0.73649,1.82,-2.24,-0.35,22.5015,-46.1521,-23.4081,1014.81
145316,-0.0382592,9.82305,0.73649,1.47,-2.24,-0.14,22.5886,-46.954,-21.6497,1014.81
145322,-0.0813008,9.78957,0.779531,1.96,-2.66,-0.07,22.7339,-47.2007,-22.9648,1014.81
145328,-0.0526064,9.87566,0.679101,1.26,-3.01,0.14,22.4143,-46.3989,-23.0535,1014.77
145334,0.0621712,9.77044,0.746054,1.33,-2.73,0.14,22.763,-46.7073,-21.9896,1014.77
145340,-0.0382592,9.77044,0.81779,1.54,-3.01,0.07,23.3151,-46.2447,-23.1274,1014.77
145346,-0.0095648,9.78479,0.765184,1.68,-3.36,0.21,22.4143,-45.2578,-22.0339,1014.79
145352,-0.0286944,9.78001,0.750837,1.68,-3.15,0.42,23.2279,-46.7381,-22.4772,1014.79
145358,-0.0047824,9.80392,0.793878,1.68,-2.8,0.35,23.1698,-47.6941,-22.492,1014.81
145364,0.0047824,9.7561,0.779531,1.68,-3.15,0.28,23.4894,-46.0905,-23.1717,1014.81
145370,0.0047824,9.78479,0.789096,1.82,-3.57,0.42,23.2279,-45.6895,-22.2113,1014.78
145376,0.0143472,9.75131,0.789096,2.17,-3.08,0.63,23.4603,-47.6324,-22.7728,1014.78
145382,0.0286944,9.80392,0.784314,1.89,-2.87,0.77,22.9954,-46.2755,-21.7236,1014.81
145388,0.047824,9.76088,0.803443,2.1,-2.8,0.63,22.4143,-46.5839,-23.2456,1014.81
145394,0.0382592,9.78479,0.784314,2.17,-3.08,0,22.8792,-47.0465,-22.7284,1014.81
145400,0.047824,9.82305,0.765184,1.96,-2.45,0.14,22.7339,-47.2624,-22.1521,1014.81
145406,0.0382592,9.80392,0.73649,1.82,-3.08,0.28,22.5596,-45.9054,-24.4573,1014.81
145412,-0.0047824,9.76566,0.793878,2.03,-2.45,0.14,23.3732,-47.0465,-23.5116,1014.8
145418,0.0334768,9.80392,0.769966,2.03,-2.87,0.42,23.2279,-47.4474,-23.3638,1014.8
145424,0.0813008,9.81349,0.73649,1.82,-3.01,0.07,23.1117,-45.6279,-23.2013,1014.79
145430,0.0813008,9.82305,0.722142,2.03,-2.52,0,22.9083,-46.0905,-21.9601,1014.79
145436,0.0095648,9.8374,0.722142,1.75,-2.52,-0.14,23.4603,-47.4166,-21.0882,1014.81
145442,0.0382592,9.81349,0.722142,1.47,-2.45,-0.49,23.2279,-46.368,-21.6202,1014.81
145448,0.0047824,9.80392,0.760402,1.33,-2.45,-0.14,22.7339,-46.4914,-22.625,1014.81
145454,0.0191296,9.77044,0.789096,1.47,-3.01,-0.07,23.4313,-47.4474,-23.0092,1014.81
145460,-0.0047824,9.76088,0.784314,1.33,-2.94,0.77,23.7509,-47.1698,-22.3295,1014.81
145466,-0.0143472,9.73697,0.81779,1.33,-2.94,0.21,22.5596,-45.8746,-22.5954,1014.8
145472,-0.0047824,9.7561,0.827355,1.68,-3.29,-0.7,23.1698,-46.6456,-21.768,1014.8
145478,-0.0095648,9.77044,0.83692,1.82,-3.22,0.56,22.8211,-47.4474,-22.2999,1014.79
145484,-0.023912,9.7561,0.808226,1.68,-2.59,0.49,22.5305,-46.183,-22.0192,1014.79
145490,0.0047824,9.78001,0.793878,2.17,-2.8,0.21,22.9664,-45.9671,-22.5511,1014.81
145496,0.0143472,9.77523,0.798661,2.1,-3.01,0.07,23.6637,-48.0642,-21.6941,1014.81
145502,0.0047824,9.7561,0.793878,2.38,-2.87,0.84,23.0826,-46.368,-21.2803,1014.81
145508,0.0095648,9.82305,0.793878,2.1,-2.45,0.42,22.5596,-46.2755,-22.4329,1014.81
145514,0.0191296,9.79436,0.784314,2.17,-2.66,0.07,22.5596,-46.7381,-21.7532,1014.81
145520,0,9.83261,0.755619,1.89,-2.8,0.7,23.3732,-47.0157,-21.5463,1014.82
145526,0.0382592,9.78957,0.793878,2.1,-2.52,0,23.5766,-45.5353,-22.9353,1014.82
145532,0.023912,9.81827,0.784314,2.1,-2.59,0.28,22.8792,-46.8615,-23.7628,1014.82
145538,-0.0095648,9.82305,0.779531,2.03,-2.52,0.28,23.2279,-47.2624,-21.8123,1014.82
145544,0.023912,9.81349,0.760402,1.54,-2.94,-0.42,22.5886,-46.4297,-21.6202,1014.81
145550,0.129125,9.84696,0.741272,2.24,-2.8,-0.35,23.1117,-46.0596,-22.1965,1014.81
145556,0.0813008,9.86131,0.741272,1.75,-2.59,-0.28,22.8211,-47.8483,-21.369,1014.81
145562,-0.0191296,9.81827,0.765184,1.47,-2.59,-0.35,23.1117,-46.4297,-20.9553,1014.81
145568,-0.0573888,9.78957,0.822573,1.33,-3.01,-0.42,23.3151,-45.8746,-22.5954,1014.81
145574,-0.0286944,9.76088,0.85605,1.54,-2.87,-0.28,22.9954,-47.7866,-21.5463,1014.81
145580,0.0334768,9.8087,0.793878,2.1,-2.66,-0.14,22.8792,-46.4297,-23.0092,1014.81
145586,0.0047824,9.79436,0.765184,1.82,-3.01,-0.42,22.4724,-45.4737,-21.6941,1014.79
145592,-0.0334768,9.79914,0.784314,1.82,-3.43,-0.07,23.1407,-46.7689,-21.4872,1014.79
145598,-0.0286944,9.74653,0.760402,1.33,-3.01,-0.14,23.9834,-46.8306,-22.0339,1014.83
145604,-0.0191296,9.76088,0.760402,2.03,-2.87,0.49,23.3151,-45.6895,-23.6741,1014.83
145610,0.0143472,9.76088,0.755619,1.96,-2.87,0.14,22.9954,-46.1213,-21.502,1014.81
145616,-0.0095648,9.78001,0.774749,2.1,-3.29,0.07,22.24,-47.3549,-22.5659,1014.81
145622,0.0047824,9.76088,0.808226,1.96,-3.29,0.49,22.8792,-46.4914,-21.369,1014.81
145628,0.0095648,9.74175,0.750837,2.17,-3.15,0.14,22.9664,-45.7204,-22.4477,1014.84
145634,-0.0334768,9.73697,0.803443,1.82,-3.15,0.21,23.257,-47.5399,-21.6793,1014.84
145640,-0.047824,9.78479,0.760402,1.68,-2.52,0.63,23.0536,-47.1698,-21.4281,1014.83
145646,0.0908656,9.78001,0.765184,2.24,-3.29,0.49,22.7339,-45.5045,-22.0635,1014.83
145652,0.0765184,9.83261,0.73649,2.17,-3.01,-0.14,23.4313,-46.4297,-22.8466,1014.8
145658,0.0526064,9.78479,0.741272,1.61,-3.15,-0.07,22.763,-47.6941,-21.1178,1014.8
145664,0.0621712,9.81349,0.731707,2.1,-3.01,-0.28,22.9664,-45.412,-22.3738,1014.8
145670,0.0191296,9.84696,0.722142,1.68,-2.87,-0.07,22.4724,-45.6279,-22.4477,1014.8
145676,0.0286944,9.8374,0.769966,1.61,-3.15,-0.28,23.4894,-47.4474,-23.0683,1014.83
145682,0.0765184,9.8374,0.741272,1.19,-3.01,-0.77,22.9373,-45.9363,-21.7089,1014.83
145688,0.0191296,9.83261,0.779531,1.61,-3.15,-0.63,22.6177,-45.5662,-22.7137,1014.83
145694,-0.023912,9.82305,0.779531,1.75,-3.15,-0.07,22.792,-47.725,-22.2704,1014.81
145700,0.0191296,9.83261,0.731707,1.68,-2.59,-0.84,23.6637,-47.3857,-22.4181,1014.81
145706,-0.0430416,9.81827,0.798661,1.19,-3.08,-0.42,22.9664,-45.3195,-22.5659,1014.81
145712,-0.023912,9.71784,0.85605,0.91,-2.73,0.07,23.4894,-46.368,-22.2408,1014.81
145718,-0.095648,9.7274,0.908656,1.75,-3.36,0.35,23.3151,-47.2932,-21.9896,1014.8
145724,0.0334768,9.7561,0.769966,2.17,-3.08,0,22.9954,-45.9363,-23.1422,1014.8
145730,-0.0334768,9.78001,0.784314,1.96,-3.57,0.42,23.286,-45.9671,-21.6054,1014.8
145736,0.0143472,9.78001,0.774749,1.54,-3.29,0.28,23.1407,-47.7558,-21.1178,1014.8
145742,0.0191296,9.74653,0.81779,1.75,-3.43,-0.14,22.6758,-46.0596,-22.2556,1014.8
145748,0.0382592,9.78957,0.755619,2.03,-3.92,0.91,22.6758,-45.9671,-22.093,1014.84
145754,0.023912,9.78001,0.789096,2.31,-3.01,0.56,23.3441,-47.139,-22.6102,1014.84
145760,0.0382592,9.84218,0.731707,1.68,-3.29,0.14,23.4603,-46.8923,-21.4281,1014.83
145766,0.047824,9.8087,0.769966,2.17,-3.29,0.63,22.9664,-45.5045,-21.6054,1014.83
145772,0.0860832,9.83261,0.674318,2.45,-2.45,0.84,22.8502,-47.0465,-23.0387,1014.81
145778,0.0669536,9.79436,0.798661,1.33,-2.73,-0.21,22.9954,-47.139,-22.2408,1014.81
145784,0.105213,9.81349,0.73649,2.17,-2.87,-0.49,22.4434,-45.3503,-22.4477,1014.8
145790,0.0813008,9.84696,0.703013,1.47,-2.45,0,22.1237,-45.6279,-22.1669,1014.8
145796,0.0621712,9.86609,0.712578,1.96,-2.73,-0.28,22.792,-47.8175,-21.7384,1014.8
145802,0.0430416,9.86131,0.750837,1.61,-2.87,-0.35,22.5305,-45.8129,-23.3047,1014.8
145808,0.10043,9.80392,0.726925,1.4,-2.66,-0.84,22.5886,-45.8437,-22.226,1014.8
145814,-0.0334768,8.58441,0.774749,1.26,-2.73,-1.12,23.1117,-47.3549,-21.5759,1014.79
145820,-0.0430416,9.76088,0.803443,1.4,-2.52,-0.49,22.8792,-47.3549,-21.9896,1014.79
145826,-0.0095648,9.77044,0.813008,1.82,-2.8,-0.14,22.2109,-45.3195,-22.3738,1014.81
145832,-0.0143472,9.73697,0.784314,1.12,-2.94,-0.63,22.4434,-46.4605,-22.226,1014.81
145838,-0.0095648,9.76566,0.774749,1.33,-2.73,-0.49,22.7049,-47.6633,-20.2755,1014.81
145844,-0.047824,9.77044,0.789096,2.03,-3.92,0.21,21.6298,-45.8437,-21.8123,1014.81
145850,-0.0286944,9.81349,0.631277,1.05,-3.22,-0.07,22.7049,-46.3063,-21.0587,1014.83
145856,-0.0191296,9.64132,0.879962,1.26,-2.52,-0.14,22.4143,-47.6633,-21.0291,1014.83
145862,-0.095648,9.78001,0.879962,2.17,-3.36,0.35,23.257,-46.0905,-21.3247,1014.83
145868,0.0765184,9.77044,0.741272,2.45,-3.22,0.35,22.3271,-46.1213,-22.2113,1014.83
145874,-0.0286944,9.80392,0.822573,2.17,-2.94,0.49,23.3441,-47.3857,-21.9009,1014.83
145880,0.0860832,9.86609,0.679101,1.75,-3.57,0.7,22.9664,-45.5045,-21.6497,1014.81
145886,0.0573888,9.81349,0.755619,1.68,-3.01,-0.07,22.0075,-45.6279,-22.3295,1014.81
145892,0.0860832,9.82305,0.808226,1.75,-2.87,-0.42,23.1117,-46.9848,-20.4233,1014.8
145898,0.0382592,9.83261,0.793878,2.24,-2.94,-0.14,23.5475,-46.7073,-21.6941,1014.8
145904,0.0334768,9.81827,0.73649,1.89,-2.59,0.07,22.5305,-45.0111,-22.6989,1014.8
145910,-0.0286944,9.83261,0.746054,1.75,-3.15,-0.49,22.792,-46.7998,-21.5759,1014.8
145916,-0.0047824,9.82305,0.774749,1.26,-2.87,-0.14,23.1407,-47.2932,-21.2951,1014.8
145922,0.0382592,9.8087,0.803443,1.54,-2.94,-0.07,23.4313,-45.9054,-21.1917,1014.8
145928,0.0526064,9.79436,0.789096,1.26,-2.94,-0.42,22.6177,-45.7204,-22.0339,1014.8
145934,0.0430416,9.82305,0.779531,2.24,-2.45,-0.35,22.8502,-46.368,-21.4872,1014.81
145940,-0.0382592,9.80392,0.765184,1.47,-3.57,-0.63,22.5596,-46.3372,-21.8714,1014.81
145946,-0.0526064,9.77044,0.822573,1.4,-2.87,-0.21,22.9083,-45.0727,-21.4281,1014.76
145952,-0.0143472,9.77523,0.793878,0.84,-2.24,0.28,22.5015,-46.6456,-21.8714,1014.76
145958,-0.0191296,9.7561,0.808226,1.68,-2.8,-0.63,22.6468,-46.7998,-20.8518,1014.79
145964,0.0143472,9.77044,0.789096,1.82,-3.22,-0.42,22.8502,-45.9671,-21.5168,1014.79
145970,0.0143472,9.77523,0.755619,1.96,-3.01,0.21,23.0536,-45.6895,-21.4429,1014.79
145976,0.0095648,9.76088,0.803443,1.4,-2.73,-0.28,23.3732,-47.2932,-22.2851,1014.8
145982,-0.0095648,9.7274,0.841702,1.96,-3.15,0.07,22.7339,-46.2447,-21.9896,1014.8
145988,0.0382592,9.77044,0.798661,2.03,-3.36,0.49,22.9083,-45.9671,-21.4724,1014.8
145994,0.0143472,9.78479,0.760402,2.03,-2.8,0.35,23.2279,-46.2755,-19.7288,1014.8
146000,0.0669536,9.79436,0.769966,2.17,-2.66,0.21,22.9954,-46.7073,-22.2556,1014.82
146006,0.0573888,9.84218,0.774749,1.96,-2.87,0,22.8792,-45.8129,-23.3638,1014.82
146012,0.109995,9.83261,0.746054,1.68,-2.73,-0.63,23.6637,-46.8615,-22.3886,1014.83
146018,0.0191296,9.8374,0.746054,2.1,-2.52,-0.42,23.3441,-46.5531,-21.9157,1014.83
146024,0.0621712,9.8087,0.769966,1.54,-2.03,-0.56,23.6347,-45.1036,-22.2113,1014.82
146030,-0.0430416,9.80392,0.798661,1.61,-2.66,-0.28,22.8792,-46.2447,-21.6793,1014.82
146036,0.0143472,9.83261,0.793878,1.4,-2.94,-0.98,23.257,-47.2315,-21.369,1014.82
146042,0.095648,9.83261,0.73649,1.75,-2.87,-0.42,23.4894,-46.0905,-21.9157,1014.82
146048,0.0430416,9.82783,0.750837,1.89,-2.38,-0.56,23.0245,-47.0465,-23.7037,1014.82
146054,-0.0047824,9.8087,0.750837,1.47,-2.52,-0.56,23.4022,-47.7558,-21.7384,1014.84
146060,-0.0430416,9.78957,0.81779,1.4,-3.29,-0.56,22.7339,-46.4605,-20.7779,1014.84
146066,-0.0621712,9.76088,0.822573,1.26,-2.45,-0.35,22.6758,-45.8746,-23.3934,1014.8
146072,-0.0191296,9.7561,0.803443,1.61,-2.87,0,23.1117,-46.3372,-21.7384,1014.8
146078,-0.0286944,9.76566,0.793878,1.4,-3.15,-0.49,22.792,-47.2932,-20.8518,1014.79
146084,-0.047824,9.78957,0.793878,1.26,-3.08,-0.14,22.5596,-46.183,-23.0535,1014.79
146090,-0.023912,9.76088,0.789096,2.1,-2.73,-0.14,22.7339,-47.2624,-22.6989,1014.79
146096,0,9.73697,0.765184,1.89,-2.24,0.21,23.4022,-47.9408,-23.1126,1014.8
146102,0.0143472,9.8374,0.707795,1.61,-2.87,0.21,22.8211,-46.5839,-21.4577,1014.8
146108,0.0334768,9.91392,0.683883,1.05,-3.43,-0.07,22.4434,-46.2755,-21.7384,1014.82
146114,-0.0095648,9.63654,0.93735,1.4,-2.03,0.21,23.0536,-47.9408,-22.1817,1014.82
146120,-0.109995,9.78957,0.860832,2.31,-3.36,0.7,23.3441,-47.5091,-21.9453,1014.79
146126,0.114778,9.78001,0.731707,1.89,-3.01,0.49,22.9664,-45.9979,-21.2951,1014.79
146132,0.0382592,9.87566,0.760402,1.68,-3.22,0.21,23.0536,-47.6324,-23.024,1014.8
146138,0.148254,9.8374,0.726925,1.75,-2.59,-0.21,23.257,-47.9717,-22.1521,1014.8
146144,0.10043,9.85174,0.765184,1.75,-2.45,-0.28,22.792,-46.6764,-22.4329,1014.8
146150,0,9.8374,0.779531,0.98,-2.94,-0.28,21.7169,-48.496,-24.5016,1014.81
146156,0.0334768,9.84218,0.789096,1.12,-3.01,-0.42,22.9083,-47.7558,-22.5511,1014.81
146162,0.0621712,9.86131,0.746054,1.4,-2.87,-0.84,22.2109,-46.368,-22.226,1014.79
146168,0.0382592,9.85174,0.784314,1.4,-2.66,-1.05,22.2981,-46.0905,-22.625,1014.79
146174,-0.0047824,9.85174,0.750837,0.42,-2.87,-1.05,23.4313,-47.4474,-22.8023,1014.82
146180,-0.0191296,9.71305,0.884744,1.54,-3.29,-0.84,22.4434,-46.5531,-21.4577,1014.82
146186,-0.0621712,9.84218,0.793878,1.12,-3.08,-0.49,23.2279,-46.1213,-22.9057,1014.81
146192,-0.0095648,9.72262,0.841702,1.68,-2.59,-0.56,23.0536,-47.5708,-22.7432,1014.81
146198,-0.109995,9.78957,0.808226,1.61,-3.08,-0.49,22.8792,-47.5091,-22.1817,1014.82
146204,0.0143472,9.71784,0.803443,1.89,-3.08,-0.21,22.8502,-45.3503,-23.615,1014.82
146210,-0.0860832,9.78001,0.827355,1.89,-3.15,-0.14,22.1528,-46.2138,-21.4429,1014.82
146216,-0.0382592,9.76088,0.813008,1.96,-2.45,0.42,23.0245,-47.8792,-22.0192,1014.78
146222,-0.047824,9.74653,0.808226,2.17,-3.01,0.42,22.6177,-46.1521,-22.4772,1014.78
146228,0.0430416,9.76088,0.769966,1.68,-2.45,0.35,22.7049,-45.7204,-21.7236,1014.8
146234,-0.023912,9.77044,0.832138,1.82,-2.87,0.14,22.6758,-46.954,-21.6202,1014.8
146240,0.0669536,9.79436,0.750837,2.03,-3.01,0.21,22.9664,-46.368,-22.3147,1014.8
146246,-0.0095648,9.79914,0.731707,1.54,-2.52,0,22.4434,-45.5662,-22.8614,1014.8
146252,0.0191296,9.80392,0.755619,1.4,-2.87,0.42,23.6347,-47.0773,-22.9648,1014.82
146258,0.0573888,9.76566,0.803443,1.4,-2.87,-0.07,23.4022,-47.4166,-21.3099,1014.82
146264,0.071736,9.84218,0.765184,1.82,-2.87,-0.49,22.6177,-46.2138,-22.5659,1014.82
146270,0.0573888,9.81827,0.793878,1.12,-2.66,-0.21,22.3852,-46.1521,-21.7532,1014.8
146276,-0.0669536,9.80392,0.784314,1.61,-3.08,-0.42,23.3151,-47.0157,-21.9305,1014.8
146282,-0.0621712,9.81349,0.798661,1.47,-3.15,-0.21,22.8502,-46.6147,-21.6497,1014.81
146288,-0.0143472,9.75131,0.85605,1.47,-3.15,-0.42,23.2279,-45.9363,-21.7532,1014.81
146294,0.0047824,9.76566,0.83692,1.89,-3.36,-0.07,22.7049,-46.5222,-21.1326,1014.81
146300,-0.047824,9.7561,0.832138,1.68,-2.8,0.07,23.4313,-46.6764,-22.1817,1014.81
146306,-0.0191296,9.77523,0.798661,2.1,-3.08,0,22.6468,-45.1344,-22.5216,1014.79
146312,-0.023912,9.79914,0.803443,1.75,-3.01,0,23.0245,-46.7073,-22.5216,1014.79
146318,0.0095648,9.80392,0.793878,2.38,-2.87,0.21,23.1988,-47.7558,-22.2408,1014.79
146324,-0.0143472,9.79914,0.798661,2.03,-3.08,0.07,22.5015,-45.6895,-22.1226,1014.78
146330,0.0573888,9.78957,0.741272,1.82,-2.59,0,22.5305,-46.368,-22.1521,1014.78
146336,0.0143472,9.74653,0.793878,2.24,-2.8,0.21,23.3732,-47.324,-22.6693,1014.81
146342,0.0526064,9.81827,0.784314,1.89,-2.94,0.07,23.0245,-46.0596,-23.8958,1014.81
146348,0.095648,9.81349,0.750837,1.89,-2.66,-0.49,23.3441,-45.1961,-22.8466,1014.83
146354,0.0669536,9.87566,0.746054,1.82,-2.73,-0.49,23.0245,-47.2007,-23.5559,1014.83
146360,0.109995,9.86609,0.726925,1.68,-3.29,-1.12,22.8502,-46.7381,-22.1669,1014.79
146366,0.0430416,9.8374,0.760402,1.12,-2.03,-1.05,23.0245,-45.3503,-22.5511,1014.79
146372,-0.0191296,9.83261,0.774749,1.68,-2.38,-0.91,22.9083,-47.1082,-21.9896,1014.83
146378,-0.0669536,9.82783,0.803443,1.26,-2.87,-0.91,23.3441,-47.3549,-22.5363,1014.83
146384,-0.0813008,9.79914,0.798661,0.98,-2.59,-0.91,23.5475,-46.183,-24.0879,1014.83
146390,-0.0382592,9.78957,0.803443,0.63,-2.94,-0.56,22.9373,-46.3989,-21.9601,1014.79
146396,-0.071736,9.78001,0.83692,1.26,-2.94,-0.98,23.3441,-47.7866,-23.2899,1014.79
146402,-0.0286944,9.78479,0.774749,1.54,-3.22,-0.63,22.8502,-45.9979,-22.3295,1014.8
146408,-0.0334768,9.76566,0.832138,1.26,-3.01,-0.49,23.1698,-45.8437,-22.8171,1014.8
146414,-0.047824,9.77523,0.832138,1.19,-3.15,-0.21,23.2279,-47.2624,-22.3147,1014.82
146420,-0.0334768,9.74653,0.846485,1.26,-3.15,-0.14,23.257,-47.139,-23.1126,1014.82
146426,-0.0286944,9.74653,0.827355,1.61,-2.8,-0.07,22.8211,-45.2578,-23.0978,1014.79
146432,-0.0430416,9.74653,0.832138,1.61,-3.22,0.14,23.0826,-46.0905,-22.0339,1014.79
146450,0.0382592,9.79436,0.784314,1.96,-3.08,0.21,22.9954,-46.5839,-21.5315,1014.78
146456,0.0095648,9.79436,0.798661,1.82,-3.36,0.14,23.3732,-48.1259,-22.4329,1014.8
146462,0.0382592,9.8087,0.813008,1.89,-2.73,0,23.8381,-46.0596,-22.1817,1014.8
146468,0.0765184,9.82305,0.760402,1.89,-2.38,0.21,23.2279,-45.9671,-23.3786,1014.81
146474,0.0286944,9.77523,0.894309,1.89,-2.59,0,23.0826,-47.3857,-22.2704,1014.81
146480,0.0143472,9.86131,0.784314,1.89,-2.59,-0.49,23.1698,-46.6147,-21.6202,1014.82
146486,0.0621712,9.81349,0.822573,1.54,-2.8,-0.42,23.0536,-45.5353,-23.349,1014.82
146492,0.0095648,9.82783,0.798661,1.47,-2.59,-0.77,22.4143,-47.4782,-22.1669,1014.82
146498,0.0382592,9.85174,0.784314,1.54,-2.59,-0.56,22.792,-46.9848,-22.2113,1014.81
146504,-0.047824,9.81827,0.827355,1.68,-2.73,-0.63,22.9373,-45.0419,-23.6002,1014.81
146510,-0.0286944,9.7561,0.808226,1.47,-2.38,-0.56,23.3151,-46.8306,-22.4772,1014.81
146516,-0.071736,9.77044,0.808226,1.12,-2.94,-0.42,23.6347,-47.1082,-21.3247,1014.81
146522,-0.0286944,9.76088,0.841702,1.4,-3.08,-0.28,23.3732,-46.9231,-22.4477,1014.8
146528,-0.0430416,9.74653,0.803443,1.47,-2.59,-0.07,22.8792,-45.5353,-23.2899,1014.8
146534,-0.0095648,9.74653,0.832138,1.82,-2.73,-0.49,22.8502,-47.0465,-21.2508,1014.82
146540,-0.0286944,9.76088,0.793878,1.54,-2.87,-0.35,23.3151,-47.1698,-22.1817,1014.82
146546,-0.0382592,9.78957,0.813008,1.68,-2.94,0.35,22.792,-44.826,-22.9648,1014.81
146552,-0.0047824,9.76088,0.779531,2.24,-3.29,-0.07,22.7049,-47.2315,-22.5216,1014.81
146558,-0.0334768,9.80392,0.784314,1.61,-3.22,0.21,23.257,-47.7866,-21.502,1014.81
146564,0.0191296,9.79914,0.784314,1.82,-2.87,0,22.9954,-45.9979,-21.9601,1014.8
146570,-0.0143472,9.79914,0.808226,2.38,-3.01,-0.28,23.6928,-46.6456,-23.2604,1014.8
146576,0.023912,9.73697,0.860832,1.96,-2.73,0.28,23.3732,-47.3549,-22.4329,1014.79
146582,0.0095648,9.82305,0.827355,2.38,-2.73,0.35,23.4313,-46.368,-23.2752,1014.79
146588,0.157819,9.85653,0.726925,1.54,-2.8,-0.28,22.9954,-46.2138,-23.7184,1014.83
146594,0.167384,9.8374,0.760402,1.26,-2.24,-0.98,23.4603,-47.5091,-22.2704,1014.83
146600,-0.0143472,9.91392,0.779531,1.82,-2.87,-0.42,23.1117,-46.368,-23.5559,1014.82
146606,-0.0047824,9.81349,0.760402,1.4,-2.31,-0.35,22.8792,-45.4737,-23.0831,1014.82
146612,-0.0908656,9.78479,0.798661,1.05,-3.22,-0.7,23.3151,-46.9848,-22.4033,1014.82
146618,0.0047824,9.78001,0.827355,1.33,-3.01,-0.77,23.7509,-47.0157,-21.9453,1014.8
146624,-0.0095648,9.82305,0.779531,1.61,-2.66,-0.21,22.8502,-45.1653,-22.9057,1014.8
146630,-0.0334768,9.8087,0.774749,1.33,-2.59,-0.77,23.1698,-46.2447,-21.9748,1014.82
146636,-0.0669536,9.73218,0.841702,1.75,-2.87,-0.14,23.3151,-46.8306,-21.7384,1014.82
146642,-0.071736,9.73697,0.841702,1.19,-2.94,-0.42,22.5886,-46.368,-22.1521,1014.82
146648,-0.0095648,9.78001,0.827355,1.89,-3.29,-0.42,23.0536,-45.6279,-21.8714,1014.82
146654,-0.0095648,9.77044,0.822573,1.82,-2.94,-0.07,23.3732,-47.5091,-22.226,1014.8
146660,-0.0430416,9.7274,0.798661,1.68,-3.15,0.07,23.5185,-46.6764,-21.8418,1014.8
146666,-0.0047824,9.76566,0.832138,1.96,-3.5,-0.42,23.6637,-44.9185,-22.2408,1014.8
146672,-0.0191296,9.79436,0.798661,1.96,-2.87,0,23.4313,-46.7073,-22.7432,1014.78
146678,-0.0143472,9.8087,0.841702,2.24,-2.31,0.7,23.4022,-46.2755,-22.6545,1014.78
146684,-0.0191296,9.76566,0.803443,1.89,-3.15,0,23.1988,-45.2578,-22.7137,1014.79
146690,-0.0143472,9.79914,0.755619,2.03,-3.29,-0.14,23.1988,-46.7381,-22.7432,1014.79
146696,-0.0047824,9.78957,0.793878,1.96,-3.01,-0.14,23.1117,-47.5708,-21.8714,1014.82
146702,0.0908656,9.8374,0.784314,2.31,-2.73,-0.7,23.257,-45.7821,-23.2899,1014.82
146708,0.023912,9.94261,0.712578,1.61,-2.73,-0.56,23.257,-45.2269,-22.758,1014.8
146714,0.10043,9.86609,0.755619,1.82,-2.31,-0.56,23.5185,-46.3372,-22.1669,1014.8
146720,-0.0334768,9.89957,0.760402,1.47,-3.08,-1.33,23.1988,-46.1521,-22.1521,1014.76
146726,0.105213,9.8374,0.760402,1.4,-1.82,-1.33,23.1698,-44.5176,-22.1669,1014.76
146732,0.0143472,9.86131,0.784314,1.12,-2.24,-1.05,23.5766,-46.5839,-23.1422,1014.76
146738,-0.047824,9.78957,0.808226,0.77,-3.08,-1.05,23.1698,-47.0465,-21.9748,1014.83
146744,-0.095648,9.77044,0.865614,0.91,-3.29,-0.98,23.0536,-45.6279,-23.3195,1014.83
146750,-0.0334768,9.72262,0.875179,1.19,-2.94,-0.84,23.5766,-45.6587,-22.9353,1014.84
146756,-0.10043,9.75131,0.827355,1.4,-2.8,-0.84,23.5185,-47.6941,-22.1669,1014.84
146762,-0.0526064,9.74175,0.81779,1.33,-2.8,-0.91,23.3732,-45.9671,-23.6446,1014.76
146768,-0.0526064,9.7561,0.846485,1.47,-3.01,-0.63,22.8792,-46.2138,-23.9253,1014.76
146774,-0.0669536,9.75131,0.813008,1.33,-3.01,0.07,23.7219,-46.8615,-23.8958,1014.81
146780,-0.0765184,9.74653,0.827355,1.33,-3.29,-0.07,23.257,-46.6456,-22.9205,1014.81
146786,-0.0621712,9.77044,0.83692,1.61,-3.43,0.07,23.0826,-45.597,-22.9944,1014.81
146792,-0.0143472,9.77044,0.813008,2.03,-2.87,-0.28,23.4313,-46.8306,-21.9157,1014.79
146798,-0.0334768,9.77523,0.793878,1.68,-2.87,0.21,23.7509,-47.6633,-22.6841,1014.79
146804,-0.0095648,9.78001,0.793878,2.17,-2.94,0.28,23.257,-46.2138,-23.7923,1014.83
146810,0.0143472,9.8087,0.827355,2.1,-2.66,0,22.8502,-47.2007,-22.1226,1014.83
146816,0.0191296,9.8087,0.765184,1.82,-2.73,-0.21,23.6928,-48.496,-22.093,1014.79
146822,0.0191296,9.84218,0.765184,1.68,-3.15,-0.56,23.257,-46.4297,-22.9501,1014.79
146828,0.023912,9.83261,0.789096,1.4,-3.15,-0.63,22.2981,-46.2138,-22.1078,1014.82
146834,0.0047824,9.82783,0.779531,1.33,-3.22,-0.63,23.3151,-47.6324,-21.9896,1014.82
146840,-0.0430416,9.8374,0.793878,0.91,-3.22,-0.91,23.6637,-46.3989,-22.359,1014.82
146846,-0.0191296,9.80392,0.803443,1.05,-3.01,-0.77,22.792,-45.5662,-21.6054,1014.83
146852,-0.0860832,9.77523,0.879962,1.75,-3.01,-0.91,23.4313,-46.9848,-22.5068,1014.83
146858,-0.0430416,9.78001,0.81779,1.26,-2.8,-0.7,23.7509,-47.5399,-22.6398,1014.78
146864,-0.0526064,9.78479,0.813008,1.12,-3.01,-0.7,23.1698,-46.5531,-23.0831,1014.78
146870,-0.0765184,9.76566,0.798661,1.19,-2.17,0.21,23.1117,-46.6764,-22.5068,1014.8
146876,-0.0669536,9.7561,0.813008,1.61,-3.29,-0.21,23.4313,-47.7558,-22.6989,1014.8
146882,-0.0860832,9.76566,0.822573,1.61,-3.57,-0.49,23.4894,-45.8746,-23.1717,1014.8
146888,-0.0430416,9.76566,0.803443,1.89,-3.01,0,23.4022,-45.5662,-22.8614,1014.8
146894,-0.0430416,9.78001,0.827355,1.75,-2.87,0.7,23.4603,-46.9848,-22.9501,1014.83
146900,-0.0286944,9.78957,0.784314,1.82,-3.01,17.64,22.5596,-46.3989,-22.0044,1014.83
146906,-0.0621712,9.80392,0.793878,1.82,-3.08,0.28,23.0536,-45.4428,-24.2208,1014.83
146912,0.023912,9.75131,0.841702,2.03,-3.08,0.07,23.3441,-47.2624,-23.2013,1014.83
146918,0.047824,9.82783,0.731707,1.47,-2.87,-0.42,23.6928,-47.91,-23.1126,1014.83
146924,0.0669536,9.8374,0.746054,1.82,-3.08,-0.42,22.2981,-45.5353,-21.7975,1014.79
146930,0.023912,9.77044,0.923003,1.47,-2.52,-0.28,23.78,-46.4605,-23.0092,1014.79
146936,0.0430416,9.89,0.765184,2.31,-3.08,-0.98,23.2279,-47.1082,-23.6298,1014.83
146942,0.11956,9.88522,0.593018,0.84,-2.38,-1.26,23.3441,-46.0288,-23.0683,1014.83
146948,-0.10043,9.82783,0.851267,0.84,-2.03,-1.26,22.5596,-45.7821,-23.5411,1014.79
146954,-0.0573888,9.78001,0.851267,1.05,-2.66,-0.77,23.9253,-47.4474,-22.6841,1014.79
146960,-0.0573888,9.75131,0.81779,1.26,-2.73,-1.33,23.3151,-46.5222,-22.1226,1014.79
146966,-0.11956,9.78957,0.860832,1.61,-3.29,-0.91,22.9373,-45.1344,-22.5068,1014.8
146972,-0.0526064,9.75131,0.822573,1.26,-2.73,-0.49,22.792,-46.9231,-22.5807,1014.8
146978,-0.114778,9.73697,0.865614,1.47,-2.45,-0.35,23.4313,-46.954,-21.8862,1014.83
146984,-0.143472,9.74653,0.832138,1.47,-3.15,-0.07,23.286,-45.3195,-23.748,1014.83
146990,-0.0286944,9.69871,0.841702,1.61,-3.29,-0.35,22.8211,-45.5353,-22.9648,1014.81
146996,-0.095648,9.7274,0.884744,1.75,-3.08,0.21,23.6056,-46.7381,-21.9896,1014.81
147002,-0.071736,9.73697,0.832138,2.03,-3.15,0.56,22.8211,-46.368,-22.4033,1014.82
147008,-0.0621712,9.74175,0.841702,2.03,-3.08,0.07,23.4022,-45.4737,-22.8762,1014.82
147014,-0.0334768,9.7561,0.784314,2.24,-3.29,0.28,22.9373,-47.3549,-22.8614,1014.79
147020,0,9.76566,0.798661,1.96,-2.87,1.05,23.6056,-46.8923,-21.8418,1014.79
147026,-0.0143472,9.78479,0.822573,2.03,-2.94,0.63,22.8792,-45.4428,-22.359,1014.79
147032,-0.0286944,9.82783,0.769966,1.96,-2.94,0,23.3151,-47.1698,-21.1621,1014.77
147038,0.0430416,9.84218,0.808226,2.1,-2.8,0.35,22.9083,-47.0465,-21.6793,1014.77
147044,0.0621712,9.84696,0.789096,1.96,-3.08,0,22.1237,-45.8129,-22.5363,1014.83
147050,-0.0047824,9.85174,0.808226,1.75,-3.15,0.14,22.5305,-46.5222,-23.9844,1014.83
147056,0.0191296,9.85174,0.789096,1.82,-3.01,-0.56,22.8502,-47.2624,-22.6841,1014.8
147062,0.0047824,9.81827,0.841702,1.54,-3.08,-0.35,22.1237,-45.1344,-23.482,1014.8
147068,0.0095648,9.82783,0.803443,2.03,-2.8,-0.84,22.3852,-45.5662,-23.615,1014.8
147074,-0.0382592,9.84696,0.798661,1.4,-3.22,-0.42,23.3441,-47.1698,-23.3195,1014.8
147080,-0.109995,9.78001,0.81779,1.68,-3.15,-0.21,23.1117,-46.5531,-22.6102,1014.8
147086,-0.0908656,9.76088,0.851267,1.89,-3.01,-0.21,22.8502,-45.9054,-22.6693,1014.79
147092,-0.0191296,9.74653,0.798661,1.68,-3.15,-0.28,23.1988,-46.5531,-22.6102,1014.79
147098,-0.047824,9.78957,0.803443,2.03,-3.08,-0.28,24.2449,-46.4605,-22.6841,1014.79
147104,-0.0765184,9.74653,0.81779,1.68,-3.15,0.21,22.8792,-45.4428,-22.6841,1014.79
147110,-0.0669536,9.75131,0.83692,1.82,-3.22,0.63,23.257,-46.3063,-22.5363,1014.78
147116,-0.0669536,9.7561,0.846485,1.68,-2.94,0.28,23.3441,-46.7381,-22.4625,1014.78
147122,-0.071736,9.76566,0.808226,2.03,-3.01,0.77,23.4022,-45.8746,-22.7432,1014.81
147128,-0.0382592,9.78957,0.803443,2.17,-3.22,0.56,23.5185,-46.4297,-24.014,1014.81
147134,-0.0669536,9.79914,0.784314,2.1,-2.8,0.14,23.8671,-47.139,-23.0535,1014.81
147140,-0.0286944,9.79914,0.841702,2.17,-2.59,0.56,23.5475,-46.0288,-22.4772,1014.82
147146,-0.0526064,9.79436,0.813008,1.96,-2.03,1.19,23.1698,-45.9671,-21.7532,1014.82
147152,-0.047824,9.81827,0.803443,2.17,-3.36,0.42,23.1698,-47.5708,-23.2604,1014.81
147158,0.0095648,9.79914,0.779531,1.82,-3.43,-0.14,23.3732,-46.6456,-22.4772,1014.81
147164,0.0286944,9.83261,0.774749,2.31,-2.94,0,23.1698,-46.4605,-23.1865,1014.83
147170,0.0669536,9.87087,0.765184,1.82,-2.38,0.14,22.4143,-46.4297,-22.5659,1014.83
147176,-0.0047824,9.83261,0.769966,2.17,-2.1,-0.35,23.1698,-47.5399,-22.9057,1014.79
147182,-0.0526064,9.85174,0.827355,1.82,-2.87,-0.21,23.5475,-45.8746,-23.0535,1014.79
147188,-0.047824,9.76566,0.846485,1.96,-3.01,-0.42,23.4603,-45.7204,-23.3343,1014.8
147194,-0.0813008,9.80392,0.827355,1.89,-2.8,-0.35,22.763,-47.4166,-22.6545,1014.8
147200,-0.0860832,9.81349,0.822573,1.82,-3.08,0.21,22.9954,-46.9231,-22.3442,1014.8
147206,-0.0526064,9.77523,0.841702,1.89,-2.8,-0.21,22.1528,-45.597,-23.9105,1014.79
147212,-0.0382592,9.77044,0.798661,1.96,-3.29,-0.07,23.257,-47.6016,-23.3786,1014.79
147218,-0.10043,9.7561,0.832138,2.31,-2.94,0.28,22.7339,-46.8615,-21.8271,1014.82
147224,-0.047824,9.76566,0.841702,1.89,-3.29,0.63,22.9373,-45.2886,-23.6002,1014.82
147230,-0.10043,9.76088,0.803443,2.1,-3.43,0.35,22.8502,-46.0596,-23.3195,1014.8
147236,-0.0526064,9.75131,0.860832,2.52,-3.01,0.21,22.7049,-47.0773,-22.6398,1014.8
147242,-0.0860832,9.75131,0.798661,2.38,-2.45,1.12,22.5596,-45.7821,-23.3047,1014.81
147248,-0.0573888,9.77044,0.793878,2.24,-2.87,0.63,22.8502,-46.1213,-22.7728,1014.81
147254,-0.0813008,9.78479,0.813008,2.59,-3.15,1.19,23.0826,-47.5091,-22.5807,1014.81
147260,-0.0334768,9.78001,0.789096,2.31,-3.29,0.91,23.4603,-46.954,-22.1078,1014.8
147266,-0.0286944,9.8087,0.774749,3.08,-3.01,0.63,22.4724,-45.8129,-23.024,1014.8
147272,-0.0334768,9.79914,0.822573,2.31,-2.94,0.91,22.9083,-47.1082,-22.0635,1014.8
147278,0.0334768,9.81827,0.789096,2.03,-2.66,0.84,22.6177,-48.3418,-23.4525,1014.8
147284,0.0095648,9.8374,0.793878,2.59,-2.66,0.56,22.1528,-45.597,-23.9844,1014.84
147290,-0.0191296,9.83261,0.769966,1.89,-2.94,0.07,22.8502,-46.3063,-21.6054,1014.84
147296,-0.0286944,9.8087,0.803443,2.17,-3.22,0.49,23.1988,-47.3549,-21.1326,1014.79
147302,-0.0191296,9.78479,0.81779,2.45,-3.01,0.7,22.792,-45.7821,-22.5659,1014.79
147308,0.0095648,9.81349,0.789096,1.89,-3.22,0.07,22.3562,-45.412,-22.6102,1014.79
147314,-0.0047824,9.79436,0.827355,2.1,-3.01,0.28,23.4603,-46.9848,-21.1326,1014.83
147320,-0.0526064,9.81349,0.784314,2.38,-2.87,0.35,23.1117,-45.9979,-22.6841,1014.83
147326,-0.071736,9.76566,0.81779,1.89,-3.08,0.14,23.3151,-44.7027,-22.8762,1014.81
147332,-0.0621712,9.78001,0.827355,2.17,-3.36,0.42,22.9664,-46.3989,-21.7827,1014.81
147338,-0.0430416,9.78001,0.827355,1.82,-2.66,0.63,23.5475,-46.954,-22.1965,1014.82
147344,-0.0334768,9.77044,0.808226,2.52,-3.29,0.21,23.286,-45.5045,-22.758,1014.82
147350,-0.0334768,9.78479,0.813008,1.54,-2.52,0.35,23.0826,-46.9231,-22.7284,1014.8
147356,-0.023912,9.76088,0.841702,2.38,-3.15,0.77,23.2279,-46.9848,-21.5906,1014.8
147362,-0.0334768,9.73697,0.841702,2.17,-2.94,0.7,22.9373,-46.3063,-22.5954,1014.8
147368,-0.0047824,9.80392,0.798661,2.73,-2.66,0.56,23.4313,-45.2886,-23.3047,1014.8
147374,0.0526064,9.79436,0.793878,2.24,-2.8,0.49,23.3441,-47.0773,-21.7089,1014.8
147380,-0.023912,9.8087,0.784314,2.73,-2.59,0.84,23.1988,-47.4474,-22.5363,1014.79
147386,-0.0047824,9.78001,0.813008,2.45,-2.73,0.28,23.7219,-45.5662,-21.8123,1014.79
147392,0.0382592,9.81349,0.798661,2.17,-2.59,0.49,23.7219,-46.5222,-21.9896,1014.78
147398,0.0573888,9.85653,0.755619,2.24,-2.87,0,23.286,-46.954,-21.768,1014.78
147404,-0.0047824,9.86131,0.765184,1.96,-2.59,-0.42,22.792,-44.826,-22.2999,1014.79
147410,-0.0669536,9.79436,0.774749,2.03,-2.59,0.28,23.6928,-46.5531,-21.5759,1014.79
147416,-0.0621712,9.78001,0.813008,2.03,-2.73,0.84,22.8792,-46.954,-22.2556,1014.82
147422,-0.0669536,9.77523,0.827355,2.1,-2.94,0.28,23.1988,-45.7204,-22.4181,1014.82
147428,-0.0621712,9.79914,0.793878,1.75,-2.73,-0.07,24.0705,-45.7821,-23.0978,1014.82
147434,-0.0573888,9.78479,0.798661,1.75,-3.36,0.84,24.1287,-47.2315,-22.0783,1014.8
147440,-0.047824,9.79914,0.779531,1.68,-2.8,0.77,23.6637,-45.412,-22.359,1014.8
147446,-0.0382592,9.78001,0.803443,1.82,-3.15,0.49,23.286,-45.9054,-22.1078,1014.8
147452,-0.0573888,9.83261,0.703013,1.96,-3.85,0.35,23.78,-46.6764,-20.5267,1014.8
147458,0.0765184,9.8374,0.73649,1.33,-2.73,0.49,23.7219,-46.7381,-21.5759,1014.78
147464,-0.167384,9.74653,0.980392,2.87,-3.29,0.98,23.6928,-44.3634,-21.5906,1014.78
147470,0.109995,9.81349,0.71736,2.1,-2.87,1.12,23.6928,-45.597,-21.5906,1014.83
147476,-0.0047824,9.75131,0.83692,2.73,-2.45,0.63,23.9543,-45.9363,-21.9157,1014.83
147482,0.047824,9.82305,0.779531,2.1,-3.64,0.63,23.5475,-45.5662,-24.2356,1014.83
147488,0.0621712,9.80392,0.765184,2.24,-2.52,1.12,23.257,-45.6587,-22.2999,1014.81
147494,0.0047824,9.88522,0.71736,1.75,-2.87,0.49,23.1407,-46.4914,-22.7284,1014.81
147500,0.0047824,9.78001,0.813008,2.17,-2.59,0,23.286,-46.5839,-22.492,1014.82
147506,0.114778,9.86131,0.765184,1.82,-2.59,0.42,22.8211,-45.8437,-23.5855,1014.82
147512,0.0191296,9.81349,0.746054,2.17,-2.38,0.28,23.0245,-46.954,-22.8023,1014.79
147518,-0.0143472,9.87087,0.664754,1.61,-2.8,0.14,22.763,-46.5839,-22.6693,1014.79
147524,0.0095648,9.83261,0.769966,1.05,-2.87,0,23.0245,-45.2269,-23.0092,1014.78
147530,-0.0573888,9.73697,0.865614,1.68,-3.01,0,23.3732,-46.5531,-23.3195,1014.78
147536,-0.0573888,9.78001,0.769966,1.75,-3.01,0.35,22.9083,-47.6016,-22.0487,1014.8
147542,-0.0095648,9.77523,0.750837,1.4,-2.66,0.35,23.1698,-45.3195,-22.6102,1014.8
147548,-0.0621712,9.73697,0.846485,1.82,-3.29,0.42,22.9083,-45.4737,-22.758,1014.8
147554,0.0095648,9.76088,0.784314,1.75,-3.22,0.49,23.4894,-47.7866,-22.0192,1014.81
147560,-0.0286944,9.80392,0.755619,1.89,-2.66,0.98,23.0826,-46.6147,-23.615,1014.81
147566,0.0143472,9.78957,0.746054,1.82,-2.52,0.84,22.9664,-45.5662,-22.0635,1014.84
147572,-0.0143472,9.77044,0.793878,1.75,-3.01,0.56,22.5596,-46.2447,-21.5611,1014.84
147578,-0.0382592,9.76566,0.822573,2.45,-3.15,0.63,22.763,-47.139,-22.4772,1014.76
147584,0,9.77523,0.798661,2.31,-3.29,0.84,23.3732,-45.2269,-21.4281,1014.76
147590,-0.0621712,9.78479,0.784314,2.17,-2.73,0.84,23.5475,-45.9054,-22.1817,1014.82
147596,0.095648,9.78957,0.760402,1.96,-2.8,0.91,23.286,-47.2932,-21.1621,1014.82
147602,0.0095648,9.81349,0.808226,1.96,-2.66,0.91,23.3732,-45.0419,-21.5759,1014.82
147608,0.109995,9.82305,0.808226,1.96,-2.59,1.05,23.7219,-45.9054,-23.3047,1014.83
147614,0.0908656,9.86609,0.760402,1.89,-2.59,0.42,23.5185,-46.9848,-21.9009,1014.83
147620,0.0908656,9.88522,0.707795,1.89,-2.59,-0.49,23.6928,-45.6895,-21.2656,1014.81
147626,-0.0095648,9.88522,0.793878,1.61,-2.52,-0.14,22.763,-45.1653,-22.093,1014.81
147632,-0.047824,9.78479,0.813008,1.61,-3.01,0.28,23.3151,-46.9848,-23.2013,1014.79
147638,-0.023912,9.79436,0.83692,1.19,-2.38,-0.14,22.7339,-47.2315,-22.2851,1014.79
147644,-0.0382592,9.79436,0.813008,1.33,-2.24,-0.63,23.3441,-44.5485,-23.2899,1014.78
147650,-0.0286944,9.78001,0.808226,2.03,-1.89,0.35,22.8211,-47.2315,-21.7236,1014.78
147656,-0.023912,9.75131,0.81779,2.38,-2.8,-0.21,23.3441,-47.139,-21.6645,1014.78
147662,-0.023912,9.74653,0.832138,2.31,-3.22,0.28,23.0245,-45.7512,-22.5659,1014.8
147668,-0.047824,9.79914,0.703013,1.47,-2.38,0.14,22.24,-45.6587,-21.768,1014.8
147674,0.0573888,9.8087,0.726925,0.77,-3.15,1.05,23.5185,-47.5708,-23.0535,1014.83
147680,-0.0813008,9.70349,0.894309,2.38,-4.13,1.33,23.2279,-46.7689,-22.3442,1014.83
147686,-0.0143472,9.74175,0.923003,2.52,-3.08,0.42,23.1988,-45.2578,-22.8466,1014.77
147692,-0.0669536,9.76088,0.808226,2.66,-3.01,0,23.1698,-47.4474,-22.0339,1014.77
147698,0.023912,9.8087,0.784314,2.31,-3.29,1.82,22.6758,-47.324,-22.4181,1014.8
147704,0.0143472,9.78957,0.779531,2.24,-3.64,1.19,22.9373,-46.183,-23.7332,1014.8
147710,-0.0095648,9.76566,0.793878,2.45,-3.71,0.49,23.257,-46.4605,-22.1226,1014.83
147716,-0.0047824,9.79436,0.793878,2.38,-2.94,1.19,23.5185,-47.324,-21.8418,1014.83
147722,0,9.77044,0.769966,2.38,-3.08,1.47,22.6758,-45.8129,-21.6941,1014.83
147728,0.0526064,9.77044,0.765184,2.59,-2.87,1.12,23.5185,-46.0905,-22.4477,1014.81
147734,0.023912,9.78957,0.808226,2.87,-2.66,0.98,22.9083,-47.4474,-22.9205,1014.81
147740,0.114778,9.87566,0.693448,2.17,-2.66,0.35,23.0536,-46.1521,-22.3147,1014.83
147746,0.133907,9.85653,0.73649,2.24,-2.45,0.21,23.1117,-44.8877,-21.9305,1014.83
147752,0.0669536,9.79436,0.774749,2.1,-2.59,0.49,22.9083,-46.3989,-21.635,1014.8
147758,0,9.80392,0.784314,2.24,-2.73,0.49,22.8792,-46.0905,-22.2704,1014.8
147764,0,9.78001,0.769966,2.03,-2.94,0.21,22.8502,-46.1521,-23.2604,1014.81
147770,0.0286944,9.78001,0.803443,1.96,-2.8,0,23.4313,-45.7512,-21.8271,1014.81
147776,-0.0382592,9.81349,0.789096,2.59,-2.94,0.35,23.4603,-47.0465,-21.9896,1014.81
147782,0.0669536,9.79436,0.73649,1.82,-2.59,0.35,22.9083,-46.2138,-22.359,1014.83
147788,-0.0334768,9.75131,0.813008,2.1,-2.8,0.42,22.7049,-45.9979,-22.8171,1014.83
147794,0.0286944,9.71305,0.784314,1.96,-2.66,0.35,22.9083,-47.8175,-21.9453,1014.81
147800,-0.0191296,9.78479,0.832138,2.31,-2.94,0.56,22.6758,-46.2755,-22.1817,1014.81
147806,-0.0095648,9.80392,0.760402,2.31,-2.94,0.07,22.792,-45.3811,-23.0092,1014.84
147812,0,9.81827,0.789096,1.75,-2.59,0.84,23.1407,-47.5399,-22.1226,1014.84
147818,0.0095648,9.8087,0.750837,2.17,-3.08,0.98,23.2279,-47.6324,-22.6545,1014.78
147824,0.0191296,9.76088,0.784314,2.38,-2.73,0.63,22.763,-46.0905,-22.5807,1014.78
147830,0.0334768,9.78957,0.765184,2.17,-2.87,0.42,23.4022,-46.7073,-23.2752,1014.78
147836,0.0143472,9.77044,0.779531,2.73,-2.73,0.77,23.1117,-48.1567,-22.1078,1014.78
147842,0.0573888,9.79436,0.726925,2.03,-2.8,0.91,23.286,-46.0288,-22.3886,1014.78
147848,0.0191296,9.73697,0.81779,2.73,-2.8,0.63,23.1407,-45.5045,-22.1374,1014.8
147854,0.0382592,9.82783,0.679101,2.45,-2.94,0.56,23.4022,-47.0465,-22.0635,1014.8
147860,0.172166,9.83261,0.707795,1.61,-2.66,0.35,23.0536,-46.7689,-21.2508,1014.81
147866,0.0669536,9.84218,0.760402,2.24,-3.01,0.63,23.6928,-46.1213,-22.1521,1014.81
147872,0.0765184,9.90913,0.73649,1.61,-3.22,-0.49,22.9373,-47.0773,-21.8566,1014.83
147878,0.0813008,9.91392,0.693448,1.4,-2.52,-0.28,22.6177,-47.4474,-22.9057,1014.83
147884,0.071736,9.8374,0.769966,1.82,-2.87,-0.28,22.0656,-45.597,-22.2851,1014.81
147890,0.047824,9.85174,0.707795,1.47,-2.45,-0.63,22.9373,-46.6456,-22.8762,1014.81
147896,-0.0286944,9.8087,0.798661,1.33,-3.01,-0.28,23.2279,-47.2624,-24.2208,1014.81
147902,-0.0860832,9.80392,0.903874,1.4,-3.01,0,23.0536,-46.0905,-22.7137,1014.82
147908,0.0047824,9.73218,0.798661,1.96,-2.8,-0.07,22.8502,-47.0157,-22.7728,1014.82
147914,-0.0095648,9.75131,0.822573,1.33,-3.29,0.14,22.6758,-47.5091,-22.492,1014.78
147920,-0.0430416,9.72262,0.81779,2.1,-3.43,-0.07,22.8502,-46.1521,-22.8023,1014.78
147926,-0.0095648,9.76566,0.774749,1.96,-2.45,0.14,22.8211,-46.183,-23.0092,1014.86
147932,-0.0143472,9.76566,0.741272,2.17,-2.38,0.7,22.4724,-46.8923,-21.8271,1014.86
147938,-0.0191296,9.79436,0.793878,2.24,-3.22,0.56,22.3562,-46.8306,-21.5906,1014.82
147944,0.023912,9.78479,0.73649,1.96,-2.66,0.49,22.0947,-46.7073,-21.6645,1014.82
147950,0.0095648,9.78957,0.741272,2.52,-3.15,0.35,22.5305,-47.0465,-21.635,1014.82
147956,0.0573888,9.81349,0.755619,2.1,-2.17,0.84,22.8502,-47.725,-23.2308,1014.79
147962,0.0908656,9.85174,0.703013,2.1,-2.94,0.84,22.0656,-46.8615,-23.3934,1014.79
147968,0.0430416,9.82305,0.741272,1.12,-3.15,0.35,22.0947,-46.2755,-23.1126,1014.81
147974,0.0621712,9.84218,0.71736,2.24,-3.85,0.07,23.4894,-48.0642,-22.6841,1014.81
147980,0.129125,9.84696,0.750837,2.17,-3.85,0.63,22.5596,-46.7381,-22.2999,1014.82
147986,0.181731,9.89479,0.688666,1.19,-3.29,-0.84,22.4434,-46.6456,-22.891,1014.82
147992,0.13869,9.86609,0.755619,1.89,-3.92,-0.98,22.792,-48.8969,-22.9057,1014.8
147998,0.167384,9.88522,0.741272,1.47,-2.24,-1.26,22.8211,-48.095,-22.758,1014.8
148004,-0.071736,9.95696,0.688666,0.77,-3.29,-1.61,23.1117,-45.9671,-22.3295,1014.8
148010,0.0191296,9.77044,0.846485,1.19,-2.94,-1.47,22.4724,-46.0905,-21.9601,1014.81
148016,-0.0669536,9.79436,0.813008,0.91,-2.87,-0.84,22.8792,-48.095,-20.3051,1014.81
148022,-0.0095648,9.73697,0.813008,0.84,-3.08,-0.98,22.4143,-45.8437,-22.3147,1014.82
148028,-0.0860832,9.73697,0.832138,1.33,-3.5,-1.47,22.4724,-46.7381,-22.5954,1014.82
148034,-0.023912,9.73218,0.803443,1.19,-3.43,-0.49,22.6177,-47.5399,-22.3442,1014.8
148040,-0.0286944,9.76088,0.789096,0.91,-2.87,-0.35,22.4434,-47.3857,-21.236,1014.8
148046,-0.0765184,9.7561,0.808226,1.61,-3.57,-0.7,23.0826,-45.9671,-22.6398,1014.8
148052,-0.0382592,9.7274,0.813008,1.75,-3.36,-0.42,22.792,-47.3857,-21.9009,1014.8
148058,-0.0334768,9.73697,0.808226,1.33,-3.43,0.28,22.8502,-47.4782,-22.9648,1014.84
148064,-0.0334768,9.73218,0.798661,2.38,-3.5,0.14,21.4264,-46.4914,-23.024,1014.84
148070,0.0334768,9.75131,0.769966,1.96,-3.5,0.14,22.9373,-47.1698,-21.5759,1014.84
148076,0.0526064,9.78957,0.750837,1.89,-3.5,0.14,22.9083,-48.0334,-21.1621,1014.84
148082,0.0573888,9.81349,0.722142,2.03,-2.66,0,22.0366,-46.0288,-21.9305,1014.84
148088,0.0813008,9.82305,0.726925,1.82,-2.94,-0.28,22.2109,-46.9231,-22.359,1014.82
148094,0.0526064,9.8374,0.746054,1.96,-2.73,0.21,23.0826,-48.0334,-20.379,1014.82
148100,0.0526064,9.84218,0.769966,1.89,-2.66,-0.35,23.2279,-46.5839,-21.5168,1014.8
148106,0.105213,9.84696,0.779531,1.4,-3.08,-0.77,22.5015,-46.3063,-22.3886,1014.8
148112,0.176949,9.86609,0.722142,1.82,-3.43,-0.84,22.9954,-47.139,-20.8223,1014.83
148118,0.0526064,9.86131,0.769966,1.4,-2.73,-0.91,22.269,-47.1082,-21.7384,1014.83
148124,0.0813008,9.84696,0.784314,1.75,-2.45,-1.33,22.6758,-45.9054,-22.3295,1014.83
148130,0.0669536,9.87566,0.73649,1.61,-2.66,-1.47,22.9373,-46.8923,-22.0635,1014.82
148136,0.0860832,9.84696,0.750837,1.61,-2.87,-1.61,23.257,-47.1698,-22.1078,1014.82
148142,0.0047824,9.8087,0.750837,1.12,-3.08,-1.75,22.3852,-45.7204,-22.7432,1014.8
148148,-0.0143472,9.79914,0.712578,1.19,-2.8,-1.26,23.3441,-45.9363,-23.3047,1014.8
148154,-0.0430416,9.80392,0.769966,0.84,-2.59,-1.19,23.9834,-47.7558,-22.4625,1014.79
148160,-0.0382592,9.73218,0.813008,0.35,-3.01,-1.12,23.2279,-46.1521,-20.9996,1014.79
148166,-0.0573888,9.71305,0.784314,1.33,-2.8,-0.28,22.5305,-45.597,-22.7137,1014.79
148172,-0.109995,9.73218,0.784314,1.96,-3.01,-1.05,22.7339,-47.1698,-21.5906,1014.79
148178,-0.0860832,9.66523,0.822573,1.61,-3.01,-0.49,23.257,-46.8615,-22.2408,1014.79
148184,-0.0813008,9.70827,0.81779,1.54,-3.08,0.35,22.24,-45.6587,-21.4429,1014.79
148190,-0.0047824,9.76566,0.779531,2.24,-3.36,0.21,22.3562,-46.8615,-21.7236,1014.79
148196,0.0191296,9.78479,0.71736,2.45,-3.57,-0.14,22.9954,-48.2801,-22.7137,1014.79
148202,0.023912,9.79914,0.707795,1.82,-2.87,-0.35,22.5596,-45.8746,-22.2408,1014.79
148208,0.0047824,9.81827,0.731707,2.17,-3.15,-17.85,22.4143,-46.8306,-22.9944,1014.8
148214,0.023912,9.8087,0.774749,1.96,-3.01,-0.49,22.5886,-48.4034,-21.4133,1014.8
148220,0.0526064,9.83261,0.765184,2.59,-2.94,-0.28,21.8332,-45.9054,-21.4872,1014.79
148226,0.0191296,9.87087,0.731707,1.54,-2.8,-0.21,22.0075,-45.9054,-21.635,1014.79
148232,-0.023912,9.81827,0.750837,1.61,-3.01,-0.49,23.257,-47.7558,-21.2065,1014.8
148238,-0.0047824,9.82305,0.750837,1.68,-3.08,-0.21,22.5305,-47.2315,-21.3542,1014.8
148244,0.0813008,9.85653,0.741272,1.89,-2.45,-0.63,21.8332,-45.7512,-22.8023,1014.8
148250,0.0334768,9.8374,0.726925,1.68,-2.94,-0.77,22.4434,-47.2624,-22.4625,1014.78
148256,-0.0382592,9.82305,0.741272,1.33,-3.08,-1.05,22.9373,-46.8923,-20.9848,1014.78
148262,-0.0813008,9.79436,0.746054,1.54,-2.8,-0.63,23.1698,-45.6587,-22.4181,1014.83
148268,-0.071736,9.77044,0.813008,1.68,-2.8,-0.7,22.4143,-46.5531,-21.9305,1014.83
148274,-0.0191296,9.76566,0.832138,1.75,-3.01,-0.21,23.1117,-47.8175,-21.2656,1014.78
148280,-0.0286944,9.76088,0.789096,1.82,-2.45,-0.14,22.5596,-46.4914,-22.1965,1014.78
148286,-0.0526064,9.78001,0.779531,1.61,-2.8,-0.21,22.5886,-46.368,-22.5659,1014.8
148292,-0.0334768,9.79914,0.765184,2.03,-3.5,-0.35,22.3271,-47.3857,-23.0092,1014.8
148298,-0.0095648,9.78001,0.765184,1.68,-3.15,-0.07,23.257,-46.6456,-22.3147,1014.8
148304,0,9.77044,0.789096,1.82,-2.8,-0.07,23.4603,-45.8437,-22.226,1014.79
148310,0.0191296,9.77044,0.741272,1.26,-3.15,-0.21,22.5886,-47.0773,-22.0339,1014.79
148316,0.023912,9.81827,0.707795,1.89,-2.45,0,22.9954,-48.0642,-22.1374,1014.81
148322,0.0047824,9.76088,0.865614,1.89,-2.8,-0.21,22.3852,-46.0905,-22.5511,1014.81
148328,0.0669536,9.81827,0.726925,1.96,-2.94,-0.49,22.0656,-46.2138,-21.8862,1014.8
148334,0.10043,9.78957,0.769966,1.68,-3.29,-0.28,23.1117,-47.3857,-22.1078,1014.8
148340,0.0047824,9.75131,0.808226,1.89,-1.82,-0.49,22.8211,-46.7998,-22.226,1014.83
148346,0.109995,9.94739,0.602582,1.26,-3.5,-0.98,23.0826,-46.0288,-22.9501,1014.83
148352,0.047824,9.81349,0.71736,1.54,-2.31,-1.33,23.1698,-47.6324,-21.9748,1014.83
148358,-0.0430416,9.73697,0.793878,1.12,-2.66,-0.7,22.8792,-46.5222,-21.7975,1014.79
148364,-0.023912,9.84218,0.746054,1.33,-3.22,-0.63,23.0536,-45.2886,-22.4772,1014.79
148370,-0.023912,9.78001,0.769966,1.47,-2.73,-0.7,23.1117,-46.4297,-21.4429,1014.81
148376,-0.047824,9.77523,0.774749,1.19,-3.01,-0.35,23.4603,-47.0157,-21.236,1014.81
148382,-0.0765184,9.69392,0.83692,1.4,-3.22,-0.28,22.763,-45.4428,-21.3394,1014.81
148388,-0.0860832,9.77044,0.789096,1.89,-3.08,0.35,23.1988,-46.2138,-21.4281,1014.81
148394,-0.0669536,9.77044,0.769966,1.4,-3.22,0,22.9664,-47.139,-21.0439,1014.8
148400,-0.0669536,9.76566,0.789096,1.19,-3.36,-0.42,22.7049,-46.6764,-21.4133,1014.8
148406,-0.0526064,9.75131,0.798661,1.89,-3.08,0.35,23.0536,-45.9054,-21.5168,1014.81
148412,-0.023912,9.75131,0.784314,2.45,-3.01,1.19,23.1407,-48.2184,-21.6941,1014.81
148418,-0.0382592,9.71784,0.832138,2.03,-2.45,0.7,22.9083,-47.0465,-23.1274,1014.81
148424,0.0813008,9.82783,0.746054,2.38,-3.22,0.14,22.9954,-45.9671,-22.9353,1014.82
148430,0.133907,9.83261,0.71736,1.61,-2.52,-0.63,23.1407,-46.9231,-21.1917,1014.82
148436,-0.0669536,9.82305,0.760402,2.66,-2.59,-0.28,23.1698,-46.6456,-21.1474,1014.81
148442,0.0621712,9.93783,0.645624,1.4,-2.73,-0.35,23.2279,-46.2755,-21.768,1014.81
148448,0.0334768,9.84218,0.760402,1.47,-2.59,-0.84,23.286,-46.3989,-21.8862,1014.81
148454,0.0047824,9.82783,0.779531,1.33,-2.87,-1.19,22.9083,-47.6324,-21.7532,1014.81
148460,-0.0526064,9.77523,0.827355,1.68,-3.08,-0.7,23.286,-45.6279,-21.3985,1014.82
148466,-0.0621712,9.79436,0.784314,1.26,-2.87,-1.05,23.1117,-46.4297,-22.4033,1014.82
148472,-0.0669536,9.76566,0.798661,1.54,-2.8,-0.49,23.4022,-47.4166,-22.093,1014.82
148478,-0.0669536,9.74175,0.81779,1.4,-3.43,-0.49,22.9954,-47.139,-20.7632,1014.76
148484,-0.0382592,9.76566,0.798661,2.1,-3.01,-0.35,22.269,-45.7512,-22.4329,1014.76
148490,-0.0813008,9.74653,0.774749,1.82,-3.01,-0.07,23.3732,-47.4474,-21.8271,1014.81
148496,-0.0621712,9.74653,0.822573,2.1,-3.01,0.14,23.0536,-47.0465,-21.7975,1014.81
148502,-0.023912,9.71305,0.81779,2.31,-3.22,0.07,23.3151,-46.3372,-21.6941,1014.78
148508,-0.0573888,9.76088,0.769966,2.03,-3.15,-0.14,22.8792,-45.8129,-22.2408,1014.78
148514,0.0191296,9.75131,0.789096,2.1,-2.87,0.77,24.0996,-47.3549,-22.4181,1014.85
148520,-0.0382592,9.77523,0.765184,2.03,-2.87,0.98,23.2279,-46.2755,-21.7384,1014.85
148526,0,9.78001,0.760402,2.24,-3.08,0.14,23.4894,-45.4428,-21.5463,1014.85
148532,0.0047824,9.81349,0.741272,2.31,-3.01,-0.21,23.5475,-47.1082,-21.4429,1014.8
148538,-0.0047824,9.79914,0.765184,2.38,-2.52,0.49,23.1698,-47.2624,-21.6645,1014.8
148544,0.047824,9.86609,0.707795,2.31,-3.01,0.21,23.4603,-45.8437,-22.4329,1014.83
148550,0.0382592,9.87087,0.755619,2.17,-2.52,-0.49,23.4022,-47.4782,-22.1226,1014.83
148556,0.023912,9.80392,0.73649,2.38,-2.1,0.35,23.1988,-47.5091,-22.6841,1014.84
148562,-0.0334768,9.88044,0.707795,1.96,-3.01,-0.49,22.4434,-46.1521,-22.3295,1014.84
148568,0.0430416,9.85174,0.731707,1.75,-2.45,-0.56,22.9083,-46.2755,-21.7532,1014.82
148574,-0.0143472,9.80392,0.731707,1.4,-3.15,-0.28,22.792,-48.0334,-22.5216,1014.82
148580,-0.023912,9.82305,0.750837,0.98,-2.94,-0.49,23.7219,-45.6587,-22.1226,1014.82
148586,-0.071736,9.77523,0.813008,1.61,-2.73,-0.63,23.3732,-45.1344,-22.1669,1014.82
148592,-0.0430416,9.75131,0.851267,1.26,-2.73,-0.49,23.3441,-47.6324,-21.9601,1014.82
148598,-0.0191296,9.78001,0.793878,1.47,-3.15,0.07,23.3441,-47.0465,-22.1965,1014.78
148604,-0.047824,9.77523,0.769966,1.47,-3.22,-0.35,23.78,-46.2755,-21.9453,1014.78
148610,-0.0573888,9.74653,0.798661,2.1,-3.36,-0.14,24.0996,-47.2007,-21.9748,1014.79
148616,-0.0526064,9.74175,0.793878,1.68,-2.66,0.21,22.763,-47.4782,-22.6989,1014.79
148622,-0.0526064,9.78001,0.798661,1.61,-3.01,0.35,22.7339,-46.4914,-22.7137,1014.8
148628,-0.023912,9.74653,0.793878,1.89,-2.59,0.42,22.792,-46.7998,-22.0339,1014.8
148634,-0.0334768,9.81827,0.774749,1.47,-2.8,-0.07,23.8962,-47.6016,-22.2556,1014.78
148640,-0.0047824,9.79914,0.774749,2.24,-2.73,-0.42,23.4313,-46.5839,-20.3642,1014.78
148646,0.0526064,9.87566,0.726925,1.4,-2.66,0.35,23.286,-45.6587,-21.9896,1014.78
148652,0.0382592,9.85174,0.703013,1.4,-2.94,0,23.1988,-46.6147,-22.9205,1014.76
148658,0.0286944,9.83261,0.784314,1.61,-2.94,-1.05,23.7219,-45.7204,-22.0783,1014.76
148664,0.0191296,9.80392,0.784314,1.68,-2.8,-0.77,22.792,-45.597,-22.5807,1014.79
148670,0.0430416,9.85174,0.789096,1.61,-3.08,-0.7,23.5766,-46.3989,-22.2408,1014.79
148676,0,9.82305,0.774749,1.19,-2.66,-0.63,23.1407,-46.8615,-22.8319,1014.79
148682,-0.071736,9.82783,0.760402,1.33,-2.8,-0.7,23.5185,-45.5353,-22.2999,1014.79
148688,-0.0765184,9.81827,0.784314,1.26,-2.66,-0.49,23.8962,-45.4428,-22.625,1014.78
148694,-0.047824,9.76088,0.846485,1.61,-3.01,-0.56,23.4894,-47.6016,-22.5068,1014.78
148700,-0.047824,9.74653,0.774749,1.26,-2.45,0,23.4313,-45.6279,-21.0882,1014.78
148706,-0.0908656,9.81349,0.774749,1.75,-3.29,-0.35,23.3732,-45.8437,-22.9944,1014.82
148712,-0.047824,9.76566,0.769966,1.75,-3.22,-0.14,23.4022,-47.5708,-21.6645,1014.82
148718,-0.0813008,9.74653,0.779531,1.33,-2.87,0.14,23.257,-46.8615,-21.7827,1014.79
148724,-0.0621712,9.78001,0.769966,1.26,-3.01,-0.21,23.1407,-45.7204,-21.7089,1014.79
148730,-0.0621712,9.7561,0.784314,2.1,-3.22,-0.07,23.1117,-47.1698,-21.6793,1014.82
148736,-0.047824,9.79914,0.760402,1.54,-2.73,0,22.8211,-46.8306,-22.1521,1014.82
148742,-0.0191296,9.79914,0.779531,1.61,-3.01,-0.21,23.0536,-45.6587,-22.4772,1014.83
148748,0.0047824,9.79436,0.774749,1.61,-3.15,0.14,23.0536,-46.5222,-24.1617,1014.83
148754,0.0286944,9.83261,0.741272,1.4,-2.8,0.07,23.1698,-47.1698,-22.4772,1014.8
148760,0.0095648,9.8087,0.73649,1.4,-2.66,0.14,23.3441,-45.6279,-21.9305,1014.8
148766,0.0526064,9.85174,0.741272,1.4,-2.94,-0.42,22.3271,-45.9363,-22.6693,1014.8
148772,0.0143472,9.81827,0.746054,1.33,-2.59,-0.35,23.5766,-47.2315,-23.5855,1014.8
148778,-0.023912,9.81349,0.808226,1.26,-2.52,-0.35,22.9373,-46.368,-22.2704,1014.8
148784,0.0095648,9.78957,0.81779,1.54,-2.73,-0.77,22.7049,-45.9363,-23.482,1014.81
148790,0.0095648,9.8087,0.760402,1.26,-2.59,-0.56,23.0826,-46.183,-23.482,1014.81
148796,-0.023912,9.81349,0.755619,1.54,-3.22,-0.84,23.5475,-47.5708,-21.2803,1014.82
148802,-0.0573888,9.8087,0.789096,1.26,-3.08,-0.84,23.4603,-45.6279,-22.1078,1014.82
148808,-0.0908656,9.77523,0.793878,1.4,-2.59,-0.49,23.4894,-45.8437,-22.4181,1014.81
148814,-0.0908656,9.7561,0.827355,0.77,-2.73,0.07,24.3321,-47.5091,-22.1226,1014.81
148820,-0.0860832,9.75131,0.793878,1.61,-3.71,-0.28,23.1407,-46.8615,-21.3838,1014.81
148826,-0.0669536,9.75131,0.803443,1.75,-3.15,-17.85,23.0245,-45.8437,-22.2556,1014.81
148832,-0.0860832,9.72262,0.789096,2.45,-3.36,0.14,23.1407,-47.8792,-22.1374,1014.81
148838,-0.0860832,9.78001,0.81779,1.68,-3.01,0.35,23.4894,-47.2007,-21.768,1014.78
148844,-0.047824,9.78001,0.769966,1.82,-3.43,0.07,22.8502,-45.1961,-22.359,1014.78
148850,-0.0573888,9.78001,0.765184,1.82,-3.08,-0.28,23.5475,-46.954,-22.2999,1014.83
148856,-0.0191296,9.80392,0.765184,1.96,-3.01,0.07,22.9954,-47.5091,-21.8271,1014.83
148862,-0.0143472,9.8087,0.765184,1.96,-3.01,0.28,23.1698,-45.597,-22.6989,1014.8
148868,0.0382592,9.80392,0.741272,1.61,-2.66,0.28,22.9954,-46.2755,-22.8762,1014.8
148874,0.0143472,9.80392,0.774749,1.68,-3.01,-0.07,23.4603,-47.5708,-22.1374,1014.8
148880,0.0191296,9.83261,0.750837,1.61,-2.8,0,24.1868,-45.412,-22.2999,1014.79
148886,0.0573888,9.84218,0.746054,1.54,-2.52,-0.35,22.9954,-45.6895,-23.0831,1014.79
148892,0.047824,9.82783,0.769966,1.26,-2.45,-0.28,23.4022,-47.6324,-22.7432,1014.82
148898,-0.0334768,9.81827,0.769966,1.89,-2.59,-0.49,22.8502,-47.2624,-23.3343,1014.82
148904,-0.071736,9.81349,0.760402,1.89,-3.43,-0.49,22.9664,-45.7204,-23.4081,1014.81
148910,-0.0621712,9.79436,0.808226,1.75,-2.8,-0.63,22.9664,-46.8306,-21.9453,1014.81
148916,-0.0382592,9.76088,0.808226,1.75,-2.73,-0.42,22.9664,-47.2624,-22.3147,1014.79
148922,-0.023912,9.78001,0.746054,1.47,-2.66,-0.56,23.3441,-45.1344,-22.8466,1014.79
148928,-0.10043,9.81827,0.765184,1.54,-2.94,-0.7,23.6056,-46.0596,-22.7728,1014.78
148934,-0.0860832,9.77523,0.774749,1.4,-3.01,-0.07,24.0996,-47.4474,-21.7975,1014.78
148940,-0.0765184,9.78001,0.779531,1.61,-2.94,0.42,22.792,-45.7821,-22.6989,1014.78
148946,-0.047824,9.78957,0.750837,1.26,-3.08,0.07,22.9954,-45.3503,-22.9501,1014.82
148952,-0.047824,9.75131,0.793878,1.47,-3.08,0,22.9954,-48.2184,-23.9105,1014.82
148958,-0.0526064,9.79914,0.746054,1.96,-3.22,0.49,23.0245,-46.9231,-22.4033,1014.79
148964,-0.0430416,9.79914,0.784314,1.54,-2.52,0.49,23.0536,-44.9494,-23.7923,1014.79
148970,-0.0334768,9.77523,0.769966,1.26,-3.36,0.35,22.5015,-46.7073,-23.2604,1014.82
148976,-1.22429,9.8087,0.793878,1.96,-3.01,0.84,22.8792,-47.0157,-22.7728,1014.82
148982,-0.0143472,9.78479,0.774749,1.82,-2.52,0.14,22.8502,-45.1961,-22.5216,1014.84
148988,-0.0047824,9.78479,0.784314,1.47,-3.08,0.21,22.9373,-45.9363,-22.2999,1014.84
148994,-0.0382592,9.72262,0.81779,1.61,-2.8,0.84,23.286,-47.1082,-21.8418,1014.84
149000,-0.133907,9.69871,0.841702,2.94,-2.73,0.56,22.4724,-45.9054,-22.6693,1014.8
149006,0.124342,10.0287,0.57867,1.4,-3.08,0,23.0536,-45.6895,-23.4672,1014.8
149012,-0.0095648,9.84218,0.750837,1.47,-1.82,-0.07,23.3151,-47.0773,-22.1374,1014.78
149018,-0.0095648,9.96174,0.679101,0.77,-3.15,-0.28,23.5185,-46.3989,-24.4573,1014.78
149024,-0.0765184,9.63654,0.980392,2.24,-2.38,-0.35,23.0826,-45.412,-23.6446,1014.83
149030,-0.095648,9.95218,0.669536,1.05,-2.87,-0.14,23.2279,-46.5222,-23.4672,1014.83
149036,0.0095648,9.74653,0.803443,1.75,-2.03,0,23.8381,-47.0465,-22.0783,1014.79
149042,-0.095648,9.77044,0.813008,1.82,-2.94,-0.35,22.5015,-45.8746,-21.9896,1014.79
149048,-0.0526064,9.75131,0.813008,2.1,-3.43,-0.14,23.4022,-45.412,-22.8614,1014.79
149054,-0.0621712,9.84696,0.707795,1.33,-3.64,0.28,22.8792,-46.7689,-22.5659,1014.78
149060,-0.0334768,9.75131,0.784314,1.61,-3.43,0.14,22.763,-45.8437,-23.024,1014.78
149066,-0.047824,9.76566,0.808226,1.19,-3.22,0.21,22.8502,-45.4428,-22.6841,1014.82
149072,-0.0765184,9.7274,0.808226,2.1,-2.94,0.42,23.2279,-47.0465,-22.2851,1014.82
149078,-0.0621712,9.8087,0.760402,2.03,-2.45,0.49,23.4022,-46.7381,-22.359,1014.79
149084,-0.0191296,9.73218,0.784314,1.12,-3.01,0.77,22.7049,-45.5662,-22.4329,1014.79
149090,-0.0573888,9.76566,0.789096,1.96,-3.08,0.35,22.8211,-46.9231,-22.7284,1014.82
149096,-0.0765184,9.78001,0.784314,1.82,-3.15,0.77,22.792,-47.1082,-23.4525,1014.82
149102,0.0191296,9.7561,0.83692,2.59,-2.66,1.12,22.6758,-45.3811,-23.3195,1014.82
149108,-0.10043,9.81827,0.789096,2.03,-3.43,0.77,22.8792,-46.6147,-23.6002,1014.82
149114,0.0908656,9.83261,0.722142,1.82,-3.08,0.42,22.9664,-47.91,-22.6398,1014.82
149120,0.0669536,9.90435,0.746054,2.03,-2.94,-0.35,22.1818,-46.7073,-22.2556,1014.83
149126,0.047824,9.77523,0.793878,2.1,-2.87,-0.42,22.6758,-45.5045,-22.7728,1014.83
149132,-0.0143472,9.94261,0.707795,1.68,-2.73,-0.42,23.0536,-47.3857,-23.7923,1014.82
149138,-0.023912,9.78001,0.769966,1.47,-2.52,0.07,23.1407,-46.9848,-21.7827,1014.82
149144,-0.0286944,9.78479,0.879962,1.47,-2.94,-0.35,22.8211,-45.7821,-22.9057,1014.83
149150,-0.047824,9.7274,0.83692,1.61,-3.01,-0.42,23.6056,-47.2315,-22.6398,1014.83
149156,-0.047824,9.76566,0.822573,1.75,-3.08,0.14,23.4313,-47.0465,-21.9157,1014.8
149162,-0.0430416,9.77523,0.750837,1.47,-2.8,0.56,23.4894,-46.0596,-22.2113,1014.8
149168,-0.0382592,9.7561,0.789096,1.75,-2.87,-0.07,22.9083,-46.5839,-23.7332,1014.8
149174,-0.0669536,9.76566,0.793878,1.68,-2.59,0.21,22.5886,-47.5399,-22.2851,1014.8
149180,-0.047824,9.77523,0.81779,1.82,-2.59,0.42,21.9785,-46.7381,-21.9748,1014.8
149186,-0.0621712,9.76566,0.774749,1.82,-3.15,0.7,22.8211,-46.1521,-23.2308,1014.82
149192,-0.0334768,9.77044,0.784314,1.89,-2.66,0.35,22.9664,-47.3857,-22.1078,1014.82
149198,-0.0143472,9.79914,0.789096,2.31,-2.94,0.42,23.2279,-47.5399,-23.1717,1014.82
149204,0.0095648,9.78001,0.774749,2.03,-2.94,0.77,22.24,-45.597,-22.5511,1014.82
149210,-0.0143472,9.79914,0.798661,1.96,-2.87,0.42,22.763,-47.324,-22.093,1014.83
149216,-0.0191296,9.76088,0.822573,2.1,-3.29,0.63,23.1988,-47.6324,-22.2408,1014.83
149222,-0.0191296,9.76088,0.81779,2.1,-2.8,0.28,22.8502,-46.1521,-22.6398,1014.78
149228,0.10043,9.80392,0.789096,2.31,-2.38,-0.07,22.9664,-47.4782,-21.7089,1014.78
149234,0.0047824,9.83261,0.813008,2.24,-3.15,0.56,23.2279,-47.5091,-22.3442,1014.78
149240,0.0813008,9.86131,0.741272,1.68,-2.87,0.07,22.9083,-46.7381,-22.3738,1014.83
149246,-0.0143472,9.8087,0.803443,1.54,-2.8,0.14,22.7339,-46.0905,-24.1026,1014.83
149252,-0.0382592,9.76566,0.899091,2.03,-2.45,0.21,23.5185,-47.4166,-22.093,1014.81
149258,-0.0334768,9.97609,0.664754,1.26,-3.15,0,22.8792,-47.0465,-22.1226,1014.81
149264,0.023912,9.76088,0.81779,1.47,-2.8,0.21,22.763,-45.412,-23.3934,1014.79
149270,-0.0430416,9.8374,0.798661,1.54,-2.73,0.07,22.8211,-46.5222,-22.0635,1014.79
149276,0.0047824,9.74653,0.83692,1.61,-2.31,-0.14,23.5475,-47.0465,-21.6793,1014.79
149282,-0.153037,9.7561,0.870397,1.47,-2.73,0.35,22.9373,-46.1521,-22.5659,1014.79
149288,0,9.76088,0.798661,1.47,-2.94,0.21,22.9083,-45.9054,-21.8271,1014.79
149294,-0.0191296,9.77044,0.832138,1.89,-2.73,0.21,23.6637,-47.324,-21.6202,1014.81
149300,0.0047824,9.7561,0.789096,2.1,-2.73,0.21,23.0245,-45.8746,-23.0831,1014.81
149306,-0.0813008,9.77523,0.81779,1.82,-3.15,0.07,22.7049,-45.597,-22.5659,1014.79
149312,-0.0382592,9.78001,0.81779,1.96,-2.8,0.91,23.6637,-46.8306,-21.9009,1014.79
149318,0,9.7561,0.784314,1.89,-2.66,0.21,23.3151,-46.2138,-21.9601,1014.78
149324,-0.0286944,9.76088,0.793878,2.17,-3.01,0.7,23.4603,-45.6895,-23.3047,1014.78
149330,-0.047824,9.7561,0.789096,1.82,-2.73,0.91,22.8502,-46.5531,-22.8171,1014.81
149336,0.023912,9.74175,0.774749,2.17,-3.29,0.91,22.8502,-47.725,-21.7827,1014.81
149342,0.0047824,9.79914,0.822573,2.45,-3.15,0.42,22.792,-45.5353,-22.1965,1014.81
149348,0.181731,9.86609,0.664754,1.89,-2.87,0.49,22.7049,-46.5531,-23.4525,1014.83
149354,0.0382592,9.85653,0.784314,1.26,-2.94,0.56,23.3151,-47.6016,-22.6693,1014.83
149360,0.023912,9.85174,0.755619,1.75,-2.8,-0.07,23.0245,-46.8306,-22.4033,1014.82
149366,0.0430416,9.8374,0.765184,1.68,-2.45,-0.77,22.9083,-46.3989,-22.9353,1014.82
149372,-0.0430416,9.76088,0.918221,1.75,-2.31,-0.07,23.1117,-47.8483,-20.7632,1014.8
149378,-0.0765184,9.84696,0.779531,1.26,-3.5,-0.28,23.3732,-46.954,-21.3985,1014.8
149384,0.0334768,9.78957,0.793878,1.19,-2.59,0.07,22.8211,-45.2886,-22.8171,1014.81
149390,-0.0334768,9.78957,0.822573,1.4,-3.15,0.35,23.6347,-46.7073,-22.8023,1014.81
149396,-0.0430416,9.73697,0.81779,1.96,-2.73,0.14,23.0536,-47.6324,-22.3738,1014.77
149402,-0.0382592,9.82783,0.822573,1.61,-2.87,0.42,22.7049,-46.7381,-22.8171,1014.77
149408,-0.023912,9.79436,0.789096,1.96,-2.73,0.42,22.763,-47.0157,-23.1865,1014.77
149414,-0.0430416,9.76566,0.803443,2.03,-2.8,0.28,22.9954,-48.3726,-22.8171,1014.82
149420,-0.0334768,9.76088,0.808226,1.89,-3.43,0.07,23.1407,-47.0773,-21.5463,1014.82
149426,-0.0095648,9.75131,0.813008,1.82,-3.15,0.49,21.6007,-46.4914,-22.2851,1014.86
149432,-0.047824,9.77044,0.769966,2.17,-3.01,0.91,22.1818,-47.8792,-22.1669,1014.86
149438,-0.0526064,9.77523,0.789096,2.52,-3.43,0.98,22.8211,-46.6764,-22.3886,1014.81
149444,0.0143472,9.78001,0.779531,2.17,-2.8,0.07,22.7339,-46.2138,-22.1965,1014.81
149450,0.0526064,9.82783,0.798661,1.61,-3.43,0.49,23.0826,-47.1082,-22.8023,1014.82
149456,0.143472,9.79914,0.741272,2.17,-2.8,-0.14,23.3441,-47.324,-21.2951,1014.82
149462,-0.0143472,9.92826,0.765184,1.54,-2.94,0.21,22.4143,-45.6895,-21.2656,1014.82
149468,0.0621712,9.79436,0.822573,1.96,-2.24,0.21,22.763,-46.3989,-21.8418,1014.79
149474,-0.0430416,9.90435,0.73649,1.82,-3.01,-0.14,23.5185,-47.7558,-21.768,1014.79
149480,0.0860832,9.9187,0.645624,1.19,-2.66,-0.49,22.763,-46.6147,-22.5363,1014.81
149486,-0.0430416,9.82783,0.860832,1.19,-2.73,-0.7,22.763,-46.2138,-22.0487,1014.81
149492,-0.0430416,9.78479,0.827355,1.68,-3.01,0.07,22.3852,-46.6764,-22.758,1014.81
149498,-0.0813008,9.74175,0.846485,2.17,-3.15,-0.21,22.7339,-47.1082,-22.2556,1014.81
149504,-0.0860832,9.80392,0.81779,1.47,-2.94,-0.28,23.1698,-45.9054,-22.625,1014.79
149510,-0.0382592,9.78001,0.822573,1.4,-3.29,0.14,23.6056,-47.6016,-22.1226,1014.79
149516,-0.0095648,9.78001,0.808226,1.68,-3.08,-0.14,22.9373,-47.6941,-22.2999,1014.79
149522,-0.0382592,9.76566,0.808226,2.17,-2.73,0.28,22.4143,-45.8746,-21.3838,1014.82
149528,-0.0286944,9.77044,0.803443,1.89,-2.8,0.56,22.6758,-46.3372,-22.2556,1014.82
149534,-0.0047824,9.77044,0.808226,1.33,-3.01,0.56,22.9373,-48.095,-22.3886,1014.83
149540,-0.0286944,9.7561,0.832138,2.1,-2.66,0.14,22.4143,-46.9231,-21.7384,1014.83
149546,-0.0143472,9.79914,0.81779,1.96,-2.87,0.7,22.6758,-46.0596,-23.2752,1014.8
149552,0,9.78957,0.793878,1.89,-3.22,0.35,22.9664,-47.1082,-22.8319,1014.8
149558,0.0382592,9.77044,0.822573,1.96,-2.87,-0.14,22.5596,-47.5399,-23.0831,1014.82
149564,-0.0095648,9.77044,0.870397,2.17,-2.17,0.28,22.7049,-45.9363,-21.9305,1014.82
149570,0.0621712,9.87566,0.798661,2.24,-2.73,0.56,22.6758,-46.3372,-23.5855,1014.8
149576,0.10043,9.82305,0.789096,1.4,-3.08,-0.14,23.3441,-47.1698,-22.5511,1014.8
149582,0.0430416,9.75131,0.803443,2.31,-3.08,-0.91,22.792,-45.8437,-23.3195,1014.8
149588,-0.023912,9.88522,0.784314,1.54,-3.22,-0.21,23.1988,-46.6764,-22.2556,1014.81
149594,0.047824,9.74653,0.870397,1.82,-2.03,-0.35,23.5185,-47.5399,-22.6398,1014.81
149600,-0.0860832,9.87087,0.798661,1.96,-3.57,-0.14,22.3562,-46.0905,-22.093,1014.85
149606,0.105213,9.81349,0.741272,1.47,-2.24,0.21,22.0366,-45.2578,-22.4477,1014.85
149612,-0.0573888,9.78479,0.851267,1.33,-2.8,-0.07,22.0366,-47.0465,-20.7484,1014.81
149618,-0.0621712,9.72262,0.83692,1.89,-2.73,0.07,23.7219,-46.4297,-23.1717,1014.81
149624,-0.0286944,9.79436,0.813008,1.54,-3.01,0.21,22.5015,-45.1653,-23.0683,1014.8
149630,-0.0286944,9.75131,0.83692,1.33,-3.01,0,23.257,-47.2007,-22.4477,1014.8
149636,-0.0286944,9.77044,0.846485,1.75,-2.73,-0.63,22.9954,-46.7998,-22.1078,1014.8
149642,0.0047824,9.71784,0.85605,1.96,-2.59,0.49,22.5596,-44.7335,-23.1274,1014.81
149648,-0.047824,9.78001,0.832138,1.82,-2.8,0.56,22.792,-45.5662,-23.1274,1014.81
149654,-0.047824,9.81349,0.803443,1.89,-3.36,0.7,23.1988,-46.954,-21.8862,1014.81
149660,0.0191296,9.80392,0.798661,1.75,-3.08,0.28,23.5475,-45.8129,-22.4181,1014.81
149666,0.0286944,9.79914,0.846485,2.59,-2.87,0.14,23.0245,-45.6895,-23.2308,1014.78
149672,0.0286944,9.85653,0.827355,1.82,-3.43,-0.07,22.9954,-47.2932,-22.1965,1014.78
149678,0.162602,9.85653,0.760402,1.89,-2.31,-0.14,22.9083,-46.8306,-24.0879,1014.81
149684,0.0191296,9.81349,0.85605,2.17,-2.52,-0.28,22.5015,-45.8437,-22.2999,1014.81
149690,0.162602,9.89,0.693448,1.12,-2.1,-0.7,22.4724,-46.7381,-22.7728,1014.81
149696,-0.0047824,9.78001,0.85605,1.89,-2.17,-1.19,23.4313,-47.2007,-22.7432,1014.79
149702,-0.0191296,9.87087,0.789096,0.91,-2.87,-0.49,22.3852,-45.2886,-22.8171,1014.79
149708,-0.0095648,9.70827,0.846485,1.26,-2.38,-0.49,23.286,-46.0596,-23.2604,1014.78
149714,-0.0430416,9.78001,0.846485,1.68,-2.59,-0.63,23.8381,-47.6941,-22.9796,1014.78
149720,0.0526064,9.78957,0.851267,1.47,-2.73,-0.49,22.9373,-46.6456,-22.4772,1014.81
149726,-0.023912,9.78479,0.83692,1.33,-2.87,-0.56,22.0947,-46.5222,-22.4772,1014.81
149732,-0.0573888,9.80392,0.808226,1.47,-2.87,-0.56,22.8211,-47.6016,-22.5807,1014.8
149738,-0.0573888,9.73218,0.832138,1.68,-3.29,0,22.792,-46.8306,-22.5659,1014.8
149744,-0.0286944,9.74175,0.841702,1.61,-3.15,0.14,22.6758,-46.0905,-23.5411,1014.79
149750,-0.0765184,9.75131,0.81779,1.96,-3.22,-0.35,22.792,-47.2624,-23.482,1014.79
149756,-0.0334768,9.76088,0.827355,2.03,-3.08,0.7,23.4313,-47.7866,-23.6741,1014.79
149762,-0.0430416,9.7561,0.822573,1.82,-3.43,0.84,22.5015,-45.8746,-23.2899,1014.8
149768,-0.0191296,9.7561,0.803443,2.31,-2.73,0.07,22.792,-47.1698,-21.8123,1014.8
149774,-0.023912,9.77523,0.822573,1.68,-2.94,0.42,23.2279,-47.6324,-22.0783,1014.8
149780,0.023912,9.80392,0.784314,1.89,-3.01,0.84,23.1988,-45.8129,-23.5264,1014.8
149786,0.0095648,9.78479,0.808226,1.96,-2.66,0.63,22.3562,-45.9054,-22.8466,1014.79
149792,0.0143472,9.82305,0.789096,1.96,-3.08,0.77,22.9954,-47.91,-23.2456,1014.79
149798,0.023912,9.78957,0.813008,1.89,-3.29,0.21,22.6758,-46.8923,-23.7184,1014.77
149804,0.0526064,9.84218,0.755619,1.68,-2.8,0.14,22.5015,-45.597,-22.7137,1014.77
149810,0.0573888,9.8374,0.793878,1.75,-2.87,0.07,23.3441,-47.8483,-22.891,1014.77
149816,0.0813008,9.87087,0.808226,1.75,-2.59,0,23.0536,-47.8792,-22.5068,1014.81
149822,0.0382592,9.85174,0.808226,1.96,-2.94,-0.56,22.0366,-45.7512,-22.3442,1014.81
149828,0.0286944,9.87087,0.755619,1.61,-2.66,-0.42,22.6177,-47.6941,-23.4525,1014.81
149834,0,9.81349,0.846485,1.19,-3.01,-0.63,23.1117,-48.5268,-22.2408,1014.81
149840,-0.023912,9.77523,0.870397,1.54,-3.22,-0.63,22.8502,-46.3989,-22.9796,1014.84
149846,-0.0334768,9.79436,0.822573,1.61,-2.87,-0.77,22.3562,-45.7821,-23.3047,1014.84
149852,0.0095648,9.79436,0.793878,1.68,-2.73,-0.77,22.8211,-47.7558,-22.1078,1014.8
149858,-0.0143472,9.78479,0.81779,1.54,-2.73,-0.35,22.7049,-47.6016,-23.5264,1014.8
149864,-0.0286944,9.79914,0.813008,1.75,-2.94,-0.7,23.0826,-45.7821,-22.9205,1014.8
149870,-0.11956,9.74653,0.85605,1.54,-3.36,0.35,23.5475,-47.2624,-22.8614,1014.8
149876,0.0191296,9.71305,0.746054,1.54,-3.15,-0.21,23.1117,-47.6016,-22.1965,1014.8
149882,-0.071736,9.80392,0.81779,1.68,-3.29,-0.14,23.1988,-45.5353,-21.5168,1014.77
149888,-0.0286944,9.73218,0.846485,1.75,-2.87,0.14,22.4434,-47.139,-23.6889,1014.77
149894,-0.023912,9.78479,0.81779,1.82,-3.43,0.63,22.6468,-47.9408,-22.0635,1014.81
149900,0.0191296,9.78001,0.822573,1.89,-3.15,0,23.0536,-46.954,-21.7384,1014.81
149906,-0.0095648,9.81349,0.81779,2.24,-2.73,0.28,22.9664,-46.4914,-21.5168,1014.83
149912,0.0095648,9.78001,0.784314,1.82,-2.94,0.49,22.8792,-47.7866,-22.6398,1014.83
149918,0.0191296,9.81349,0.755619,1.89,-2.8,0.14,22.792,-46.2138,-22.2851,1014.82
149924,0.0047824,9.79914,0.803443,1.75,-2.31,0.14,22.5305,-45.7512,-22.226,1014.82
149930,0.0430416,9.83261,0.803443,1.68,-3.08,0.07,22.792,-47.8175,-22.0044,1014.82
149936,0.0813008,9.83261,0.789096,1.68,-2.8,-0.28,22.9954,-48.0334,-22.0339,1014.8
149942,0.0526064,9.84218,0.774749,1.68,-3.01,-0.77,22.4724,-45.6279,-23.5264,1014.8
149948,0.0526064,9.81349,0.784314,1.68,-2.8,-0.35,22.792,-47.0157,-23.2456,1014.78
149954,-0.0095648,9.79436,0.822573,1.75,-2.94,-0.49,22.5305,-48.1876,-22.0783,1014.78
149960,-0.0286944,9.81827,0.81779,1.54,-2.73,-0.77,22.9954,-45.9363,-22.4772,1014.82
149966,0.0382592,9.81827,0.798661,1.68,-2.52,-0.84,22.5596,-46.0905,-23.615,1014.82
149972,-0.0334768,9.82305,0.784314,1.05,-2.59,-0.07,22.9373,-46.7689,-21.7089,1014.8
149978,-0.047824,9.78001,0.813008,1.47,-3.01,-0.42,23.1698,-46.9231,-22.2704,1014.8
149984,-0.0430416,9.78957,0.827355,1.33,-3.01,-0.98,22.3852,-46.1213,-22.7137,1014.8
149990,-0.0286944,9.73218,0.827355,1.75,-3.29,-0.49,22.6177,-47.8483,-22.8466,1014.82
149996,-0.0334768,9.77044,0.803443,1.4,-3.08,-17.92,23.286,-47.2932,-22.6545,1014.82
150002,-0.071736,9.87087,0.664754,1.54,-4.41,-0.49,23.0245,-46.2138,-22.4181,1014.79
150008,0.0430416,9.76566,0.798661,0.91,-2.03,0.42,22.9954,-46.7381,-22.5511,1014.79
150014,-0.23912,9.68436,1.0856,2.24,-3.08,-0.07,23.286,-47.3857,-21.3838,1014.82
150020,0.0382592,9.83261,0.703013,1.33,-3.01,-0.07,22.8211,-46.183,-21.7089,1014.82
150026,0.0143472,9.90913,0.693448,1.61,-3.57,0.28,22.6468,-45.7821,-22.8762,1014.82
150032,0.0908656,9.88044,0.679101,1.19,-3.22,-0.21,22.9373,-46.4297,-21.6941,1014.82
150038,-0.0095648,9.80392,0.889526,1.33,-2.8,-0.56,22.9954,-46.368,-23.1865,1014.82
150044,0.0095648,9.77523,0.85605,1.54,-3.15,-0.14,22.6758,-46.183,-21.9009,1014.82
150050,0.0573888,9.81827,0.798661,1.4,-2.94,0,22.6758,-47.3857,-22.1669,1014.82
150056,0.0765184,9.86131,0.784314,1.4,-2.87,-0.35,23.1407,-46.6764,-22.2408,1014.8
150062,0.0334768,9.87566,0.808226,1.19,-2.73,-1.19,22.792,-45.3195,-23.3786,1014.8
150068,-0.0095648,9.8374,0.784314,1.12,-2.94,-1.26,22.269,-46.6456,-22.7432,1014.84
150074,-0.023912,9.78479,0.81779,1.19,-2.94,-1.12,23.0536,-47.4166,-21.5611,1014.84
150080,-0.0095648,9.81827,0.798661,1.12,-3.15,-0.63,22.7049,-46.3989,-22.6693,1014.8
150086,0.0095648,9.78001,0.798661,1.12,-2.73,-0.49,22.3562,-46.1521,-22.6545,1014.8
150092,-0.0669536,9.80392,0.803443,1.47,-2.73,-0.91,23.4022,-46.8306,-21.8714,1014.82
150098,-0.0813008,9.77044,0.846485,1.26,-3.01,-0.98,23.0536,-46.954,-21.9896,1014.82
150104,-0.0765184,9.78001,0.83692,1.82,-2.87,-0.28,22.1818,-45.2269,-22.226,1014.82
150110,-0.0813008,9.79914,0.798661,1.12,-3.01,-0.28,23.1988,-47.4782,-21.7975,1014.82
150116,-0.0334768,9.77523,0.798661,1.33,-3.08,-0.35,23.78,-47.0773,-22.1226,1014.82
150122,-0.124342,9.77044,0.793878,1.61,-3.36,-0.28,21.9785,-45.1344,-23.0092,1014.82
150128,0,9.7274,0.846485,1.54,-2.73,0.35,23.1698,-46.4914,-22.9205,1014.82
150134,-0.0286944,9.78479,0.779531,1.4,-3.43,17.64,23.4022,-47.0773,-22.2113,1014.82
150140,0.0047824,9.77523,0.798661,1.89,-2.87,-0.07,22.3852,-46.2755,-22.891,1014.82
150146,0.0334768,9.80392,0.822573,1.54,-2.59,-0.21,22.763,-45.5662,-23.8071,1014.79
150152,0.071736,9.84696,0.769966,1.75,-3.01,-0.98,23.257,-47.139,-21.8714,1014.79
150158,0.105213,9.89,0.722142,1.47,-2.24,-0.91,23.5766,-46.0905,-22.6841,1014.79
150164,0.0382592,9.81827,0.779531,0.7,-2.24,-0.77,23.286,-44.8877,-22.2408,1014.8
150170,0.023912,9.82305,0.779531,1.05,-2.66,-1.61,23.1117,-47.5708,-22.6841,1014.8
150176,0.023912,9.87087,0.784314,0.98,-2.59,-1.75,23.9834,-46.5222,-22.4329,1014.8
150182,0.0191296,9.78479,0.83692,0.98,-2.8,-1.75,22.5596,-45.7204,-22.6545,1014.8
150188,-0.0095648,9.82305,0.851267,0.84,-3.15,-1.4,22.792,-46.368,-21.6793,1014.79
150194,-0.0382592,9.86609,0.808226,0.77,-3.22,-1.68,22.6758,-47.1082,-21.8418,1014.79
150200,-0.0143472,9.69871,0.860832,0.77,-2.45,-1.61,22.9083,-45.0727,-22.2556,1014.81
150206,-0.224773,9.76566,0.942133,0.77,-3.5,-1.19,22.5886,-45.1344,-22.7284,1014.81
150212,0.0191296,9.70349,0.813008,0.84,-2.87,-0.77,23.4022,-46.8306,-22.1965,1014.81
150218,-0.153037,9.8374,0.798661,1.19,-3.36,-0.98,23.1988,-46.1521,-22.1817,1014.83
150224,0.0143472,9.78479,0.808226,0.28,-2.8,-0.56,22.4143,-45.8437,-22.3295,1014.83
150230,-0.224773,9.65088,1.05213,1.4,-2.94,-0.28,22.7049,-46.6764,-22.2851,1014.8
150236,-0.047824,9.75131,0.798661,1.4,-3.08,0.07,22.8211,-47.139,-22.8023,1014.8
150242,-0.143472,9.70827,0.95648,2.17,-2.94,-0.28,22.5886,-45.0111,-23.8662,1014.8
150248,-0.0286944,9.82305,0.755619,2.38,-3.01,0.14,21.7169,-46.6456,-24.3538,1014.8
150254,0.0095648,9.84218,0.741272,1.96,-2.45,0.07,22.7339,-47.6633,-21.9009,1014.82
150260,-0.023912,9.85653,0.760402,1.54,-3.64,-0.21,22.1818,-46.4297,-23.4229,1014.82
150266,0.0430416,9.84218,0.769966,1.82,-3.08,-0.07,22.5015,-45.9671,-24.1322,1014.82
150272,-0.0430416,9.82783,0.841702,1.33,-2.94,-0.21,22.2981,-47.324,-23.1717,1014.82
150278,0.0813008,9.84218,0.789096,1.61,-2.87,-0.21,22.6758,-46.4605,-22.6841,1014.82
150284,0.0191296,9.84218,0.81779,1.33,-2.66,-0.56,22.24,-45.5353,-23.6889,1014.82
150290,-0.047824,9.83261,0.827355,1.19,-2.59,-0.98,23.1407,-47.2624,-22.9205,1014.82
150296,-0.0765184,9.81349,0.865614,0.84,-2.66,-0.77,23.6637,-47.2315,-23.9844,1014.83
150302,0.0191296,9.77044,0.851267,1.47,-2.59,-0.28,22.6758,-44.6101,-23.8958,1014.83
150308,0.0047824,9.80392,0.860832,1.33,-3.36,-0.84,22.2109,-46.2447,-22.4772,1014.81
150314,-0.0526064,9.78957,0.808226,1.33,-2.66,-0.91,23.5185,-47.1082,-21.3542,1014.81
150320,-0.114778,9.76566,0.846485,1.61,-2.59,-0.84,22.0947,-45.8129,-22.6398,1014.84
150326,-0.10043,9.76566,0.85605,1.26,-2.73,-0.49,22.3852,-46.183,-23.349,1014.84
150332,-0.095648,9.74175,0.860832,1.19,-2.73,-0.49,22.6758,-46.8923,-22.6841,1014.84
150338,-0.105213,9.75131,0.865614,1.47,-3.22,-0.21,23.78,-46.6147,-22.2113,1014.81
150344,-0.0765184,9.76088,0.85605,1.96,-2.8,-0.28,22.9954,-45.3503,-23.4377,1014.81
150350,-0.0669536,9.74653,0.851267,1.89,-2.94,-0.21,22.4434,-47.5708,-23.1422,1014.81
150356,-0.0573888,9.76566,0.83692,1.4,-3.15,-0.35,23.5766,-46.5222,-22.9944,1014.81
150362,-0.0095648,9.8087,0.808226,1.54,-2.94,0.35,23.5475,-45.1961,-22.359,1014.81
150368,-0.0047824,9.79914,0.793878,1.19,-3.22,0.14,23.3732,-46.183,-22.0339,1014.81
150374,-0.0382592,9.78479,0.813008,1.33,-2.87,-0.21,23.286,-46.4914,-22.625,1014.82
150380,-0.0334768,9.79436,0.851267,1.26,-2.94,-0.07,23.0536,-46.0596,-21.9896,1014.82
150386,0.0334768,9.82783,0.83692,1.19,-3.29,-0.49,22.3562,-46.3372,-22.8319,1014.82
150392,-0.0143472,9.82305,0.81779,1.47,-2.73,-0.49,22.8502,-47.3549,-22.492,1014.81
150398,-0.0143472,9.85174,0.884744,1.68,-2.73,-0.56,23.5766,-46.3989,-22.9501,1014.81
150404,-0.047824,9.82783,0.83692,1.05,-3.22,-0.98,22.8502,-45.5662,-22.4772,1014.79
150410,-0.047824,9.78479,0.860832,0.91,-3.36,-0.84,22.7339,-46.7381,-22.9648,1014.79
150416,-0.0573888,9.77523,0.894309,1.26,-2.94,-0.42,23.3151,-46.8306,-22.5363,1014.79
150422,-0.047824,9.78957,0.875179,1.47,-2.8,-0.49,22.8211,-45.3811,-22.6545,1014.79
150428,-0.047824,9.72262,0.899091,1.33,-2.87,-0.14,22.8211,-46.2755,-22.2851,1014.79
150434,-0.11956,9.78479,0.860832,1.54,-2.73,-0.49,22.269,-47.139,-22.2408,1014.79
150440,-0.0573888,9.76088,0.822573,1.68,-2.87,-0.28,22.4724,-46.2447,-23.7332,1014.82
150446,-0.0813008,9.74653,0.875179,2.24,-3.01,0.28,22.792,-46.2447,-22.7137,1014.82
150452,-0.0573888,9.76088,0.865614,1.82,-3.08,-0.35,22.7049,-47.91,-21.502,1014.82
150458,-0.0526064,9.78001,0.865614,2.1,-3.5,0.07,22.9664,-45.9054,-23.2308,1014.8
150464,-0.0334768,9.77044,0.827355,2.1,-3.08,0.49,22.763,-45.3811,-23.6741,1014.8
150470,-0.047824,9.8087,0.851267,1.96,-2.59,0,22.5305,-47.3857,-23.0092,1014.81
150476,-0.124342,9.80392,0.860832,1.68,-2.45,0.49,22.5596,-47.139,-22.3147,1014.81
150482,0.0526064,9.80392,0.85605,1.68,-2.8,0.49,22.3562,-44.9494,-22.4329,1014.79
150488,-0.023912,9.85653,0.827355,2.1,-3.22,-0.21,22.5015,-45.9671,-23.349,1014.79
150494,0.124342,9.79914,0.712578,2.17,-2.1,-0.42,23.4022,-47.2932,-21.9748,1014.8
150500,-0.109995,9.95218,0.870397,1.05,-2.87,-0.42,22.9373,-45.6895,-22.226,1014.8
150506,0.0621712,9.81827,0.813008,1.19,-2.31,-0.35,22.763,-45.412,-23.1569,1014.8
150512,-0.105213,9.8374,0.83692,1.12,-2.8,-0.84,23.1117,-47.4474,-23.3343,1014.84
150518,-0.0430416,9.78479,0.822573,1.26,-2.94,-0.98,22.8211,-45.8129,-23.5116,1014.84
150524,-0.0526064,9.81827,0.85605,0.91,-3.15,-0.42,23.1698,-46.2138,-23.3934,1014.79
150530,-0.0430416,9.78479,0.875179,1.33,-2.94,-0.63,22.8211,-47.0773,-22.5659,1014.79
150536,-0.095648,9.78479,0.879962,1.12,-3.01,-1.19,22.8502,-47.1082,-23.3195,1014.82
150542,-0.0813008,9.76566,0.846485,1.26,-3.01,-0.07,22.792,-45.1344,-23.6741,1014.82
150548,-0.13869,9.73697,0.899091,1.75,-2.73,-0.21,22.4724,-45.9671,-23.0831,1014.81
150554,-0.0860832,9.76088,0.889526,1.75,-3.36,0.49,23.0826,-47.4474,-23.1126,1014.81
150560,-0.071736,9.76566,0.894309,1.96,-3.08,0.35,23.1117,-46.4914,-23.1274,1014.81
150566,-0.0908656,9.7274,0.860832,1.82,-3.78,-0.35,22.24,-46.2755,-23.2752,1014.79
150572,-0.0573888,9.74653,0.841702,2.03,-3.15,0.07,23.3151,-47.139,-23.0683,1014.79
150578,-0.0621712,9.78479,0.85605,2.1,-2.8,1.47,22.8211,-45.8437,-23.5264,1014.83
150584,-0.0765184,9.78479,0.832138,1.89,-3.01,0.14,23.0536,-45.0419,-23.4377,1014.83
150590,-0.0430416,9.81349,0.822573,2.1,-3.01,-0.07,23.2279,-46.1213,-22.7137,1014.8
150596,-0.023912,9.81827,0.813008,1.75,-2.94,0.63,23.4022,-46.5531,-23.0683,1014.8
150602,0,9.81349,0.798661,1.82,-3.08,0.49,22.6177,-44.8569,-22.2408,1014.83
150608,-0.023912,9.83261,0.83692,1.47,-2.73,-0.21,23.1117,-46.4297,-23.5116,1014.83
150614,0.0669536,9.85653,0.813008,1.61,-3.01,-0.21,23.6056,-47.2932,-22.1226,1014.81
150620,0.047824,9.82305,0.81779,1.54,-2.73,-0.56,22.763,-46.2138,-22.0635,1014.81
150626,-0.0430416,9.81349,0.889526,1.61,-2.87,-0.35,22.8792,-45.1653,-22.2851,1014.81
150632,-0.0286944,9.88044,0.841702,1.68,-3.36,-0.28,23.0536,-47.2315,-22.6989,1014.81
150638,-0.0765184,9.81827,0.851267,1.68,-3.01,-0.21,23.0536,-45.8746,-22.5954,1014.81
150644,-0.105213,9.78479,0.879962,1.82,-2.52,-0.35,22.0366,-44.9802,-22.7432,1014.81
150650,-0.0669536,9.77523,0.865614,1.61,-3.01,-0.42,23.257,-46.5531,-21.9601,1014.81
150656,-0.0621712,9.79436,0.841702,1.47,-2.94,-0.35,23.1698,-46.3989,-23.9401,1014.83
150662,-0.0813008,9.78957,0.860832,2.03,-3.43,-0.14,23.0245,-44.2092,-22.6989,1014.83
150668,-0.0765184,9.77044,0.865614,1.61,-3.36,0.21,23.6637,-46.1521,-21.3838,1014.81
150674,-0.071736,9.77523,0.85605,2.1,-2.94,-0.14,23.4603,-47.0157,-21.1178,1014.81
150680,-0.0669536,9.78001,0.851267,1.4,-3.08,-0.14,22.792,-45.597,-23.216,1014.81
150686,-0.095648,9.77523,0.884744,1.68,-3.01,0.14,23.0245,-44.8877,-21.6645,1014.79
150692,-0.0621712,9.76088,0.827355,1.89,-3.08,0.14,23.4894,-46.9848,-21.9601,1014.79
150698,-0.047824,9.78479,0.85605,1.82,-3.08,0.56,23.2279,-46.8306,-22.5659,1014.84
150704,-0.0526064,9.77523,0.827355,1.89,-2.8,0.7,22.792,-46.368,-22.9353,1014.84
150710,-0.0621712,9.78001,0.827355,1.68,-3.08,0.49,23.286,-46.954,-21.6202,1014.82
150716,-0.0382592,9.81349,0.860832,1.89,-2.73,0.21,23.0826,-47.0157,-21.5906,1014.82
150722,-0.0286944,9.80392,0.851267,2.03,-2.8,0.49,21.9785,-44.9494,-22.4625,1014.82
150728,0.0286944,9.82305,0.798661,1.61,-2.59,-0.07,23.0245,-46.4914,-21.2065,1014.82
150734,-0.047824,9.75131,0.946915,2.03,-2.87,-0.21,23.3732,-46.7381,-21.2212,1014.82
150740,-0.129125,9.71305,0.927786,2.24,-2.38,0.21,22.6177,-45.9363,-21.6497,1014.83
150746,-0.0095648,10.0239,0.659971,1.61,-3.36,-0.28,22.0656,-46.2447,-22.3295,1014.83
150752,0.0430416,9.77523,0.846485,1.61,-2.73,-0.21,22.763,-47.7558,-21.8123,1014.82
150758,-0.13869,9.82783,0.961262,1.47,-3.43,-0.35,22.5015,-46.8615,-23.6298,1014.82
150764,-0.0765184,9.68436,0.932568,1.89,-2.87,-0.49,22.8211,-46.0596,-23.5559,1014.8
150770,-0.133907,9.80392,0.860832,2.03,-2.87,0.28,23.4894,-46.9231,-21.9157,1014.8
150776,-0.0573888,9.7561,0.846485,1.68,-2.87,0.07,23.1988,-47.324,-22.0044,1014.79
150782,-0.0621712,9.77523,0.870397,1.75,-2.94,0.28,23.1117,-45.4737,-22.5954,1014.79
150788,-0.0765184,9.78479,0.860832,2.03,-2.52,0.28,23.0536,-46.8923,-22.2704,1014.81
150794,-0.0573888,9.76088,0.875179,1.89,-3.01,0.63,23.6347,-47.5091,-22.0487,1014.81
150800,-0.0765184,9.74653,0.875179,1.68,-2.94,0.77,23.1407,-45.6279,-22.093,1014.81
150806,-0.047824,9.76566,0.832138,2.24,-2.8,0.84,22.8792,-45.7204,-21.8566,1014.82
150812,-0.047824,9.76566,0.860832,2.03,-3.5,0.28,23.1988,-46.954,-20.8666,1014.82
150818,-0.0765184,9.78479,0.841702,1.89,-2.66,0.63,22.792,-46.1213,-22.9501,1014.82
150824,-0.13869,9.74175,0.903874,1.96,-3.22,0.49,23.5766,-45.2269,-22.9057,1014.82
150830,0.0430416,9.72262,0.918221,2.17,-2.24,0.63,23.6347,-48.1876,-21.6645,1014.81
150836,-0.0095648,9.8087,0.894309,2.8,-3.15,1.05,23.286,-47.324,-22.4329,1014.81
150842,0.13869,9.93304,0.669536,2.1,-3.15,0.63,23.0826,-45.4428,-22.0635,1014.82
150848,0.071736,9.83261,0.81779,1.75,-2.03,0.21,22.4434,-46.954,-22.891,1014.82
150854,-0.10043,9.84696,0.884744,1.96,-3.15,-0.14,22.8211,-47.0465,-22.3147,1014.82
150860,0.0191296,9.84696,0.789096,1.54,-2.59,0.28,23.0245,-46.1521,-21.5315,1014.8
150866,-0.0908656,9.78957,0.899091,1.82,-2.24,-0.14,22.7339,-46.1213,-23.0092,1014.8
150872,-0.0334768,9.76088,0.889526,1.47,-2.45,-0.35,23.4603,-48.0642,-22.1669,1014.81
150878,-0.0573888,9.78001,0.870397,1.4,-2.87,-0.07,22.9373,-46.5839,-22.4033,1014.81
150884,-0.10043,9.8087,0.832138,2.24,-3.08,0.07,23.0536,-45.1344,-23.024,1014.83
150890,-0.0573888,9.77044,0.841702,1.68,-2.94,-0.14,22.6468,-47.0773,-22.3147,1014.83
150896,-0.10043,9.73697,0.85605,2.17,-2.52,0.56,23.3732,-46.2138,-21.6793,1014.82
150902,-0.0860832,9.77523,0.894309,1.89,-2.94,0.35,22.5305,-45.0111,-22.5363,1014.82
150908,-0.0573888,9.77523,0.865614,2.17,-3.01,0.07,22.2109,-45.9671,-23.0092,1014.82
150914,-0.0573888,9.77523,0.827355,2.17,-3.15,0.42,23.1698,-47.0465,-22.0635,1014.79
150920,-0.0430416,9.77523,0.879962,2.1,-2.94,0.98,22.9083,-45.7512,-22.7284,1014.79
150926,-0.0765184,9.74653,0.870397,2.03,-3.22,0.49,23.0245,-45.6895,-21.8862,1014.8
150932,-0.0191296,9.77044,0.85605,1.96,-2.94,0.63,23.5766,-47.3857,-22.093,1014.8
150938,-0.0143472,9.80392,0.85605,2.52,-2.45,0.98,22.6758,-45.6279,-21.8862,1014.81
150944,0.0143472,9.82305,0.851267,2.03,-2.8,0.7,22.7049,-45.8437,-22.8466,1014.81
150950,0.0191296,9.79436,0.832138,2.17,-2.73,0.7,23.5185,-46.7998,-22.3738,1014.84
150956,-0.0382592,9.78001,0.827355,2.17,-2.94,0.42,23.2279,-46.8306,-22.492,1014.84
150962,0.0095648,9.79436,0.83692,1.75,-2.8,0.28,22.9083,-45.6279,-22.7284,1014.83
150968,0.0047824,9.8087,0.813008,2.03,-3.01,-0.21,22.9954,-46.4914,-22.0339,1014.83
150974,0.0382592,9.84218,0.803443,2.1,-2.94,0.07,22.6468,-47.2007,-22.2704,1014.83
150980,0.0286944,9.82783,0.813008,1.54,-2.73,-0.28,23.4022,-45.6895,-22.1817,1014.78
150986,0.047824,9.8374,0.822573,1.82,-2.45,-0.42,22.8502,-45.8746,-22.8762,1014.78
150992,-0.0286944,9.81827,0.827355,1.75,-2.73,-0.28,23.1988,-47.6016,-22.625,1014.79
150998,-0.071736,9.82783,0.827355,1.54,-2.87,-0.14,22.7049,-46.5531,-23.4525,1014.79
151004,-0.0573888,9.77044,0.879962,1.75,-2.94,0.14,23.1988,-46.1213,-23.0683,1014.8
151010,-0.0765184,9.76566,0.860832,1.4,-2.87,0.14,22.7339,-47.3857,-22.5954,1014.8
151016,-0.0669536,9.77523,0.846485,1.68,-2.66,0.14,23.286,-46.7073,-22.625,1014.85
151022,-0.0526064,9.78957,0.85605,2.03,-3.22,-0.14,22.5305,-45.8129,-23.6741,1014.85
151028,-0.0382592,9.79436,0.846485,1.96,-3.08,0.07,23.2279,-46.6456,-22.1078,1014.85
151034,-0.0334768,9.78479,0.832138,1.68,-3.01,-0.07,22.9664,-47.0157,-22.9648,1014.82
151040,-0.0286944,9.78957,0.841702,2.24,-3.43,0.28,22.1818,-46.1213,-21.6497,1014.82
151046,-0.0621712,9.76566,0.83692,1.47,-2.66,0.49,23.0826,-46.1213,-22.8171,1014.8
151052,-0.0621712,9.76566,0.841702,2.24,-3.22,0.07,22.7339,-47.91,-22.1817,1014.8
151058,-0.0334768,9.79914,0.813008,1.96,-2.8,0.14,23.257,-46.0905,-23.2899,1014.83
151064,-0.0095648,9.79914,0.822573,1.89,-2.52,0.7,22.7339,-45.6587,-23.1865,1014.83
151070,-0.0286944,9.79914,0.851267,1.96,-3.29,0.7,23.0536,-47.2932,-21.9748,1014.78
151076,0,9.77523,0.83692,2.03,-3.01,0.14,22.7339,-47.0157,-23.3047,1014.78
151082,0.0526064,9.79436,0.813008,2.17,-2.8,0,21.9785,-45.5662,-23.1274,1014.8
151088,0.0382592,9.82305,0.827355,1.68,-2.59,0.21,22.7049,-47.0157,-21.4577,1014.8
151094,-0.0143472,9.85653,0.832138,1.68,-2.66,-0.07,23.1407,-47.5399,-21.8123,1014.8
151100,-0.047824,9.82305,0.860832,1.75,-2.73,0.21,23.5185,-46.7381,-22.1817,1014.82
151106,-0.0573888,9.80392,0.85605,1.75,-2.87,-0.14,23.286,-46.3063,-22.891,1014.82
151112,-0.0191296,9.80392,0.813008,1.54,-3.15,0.21,23.3151,-48.1567,-22.0044,1014.8
151118,-0.023912,9.81349,0.85605,1.26,-2.66,0,23.0536,-46.1213,-21.9305,1014.8
151124,-0.0334768,9.76088,0.846485,1.68,-3.15,-0.28,22.6758,-46.0596,-23.024,1014.81
151130,-0.0621712,9.74175,0.870397,1.96,-2.94,0.14,22.8792,-47.0465,-23.3195,1014.81
151136,-0.0526064,9.77044,0.865614,1.89,-2.73,0.21,22.9373,-47.0465,-21.9748,1014.8
151142,-0.0382592,9.72262,0.83692,1.82,-2.66,0.14,23.0245,-45.8129,-21.6941,1014.8
151148,-0.0047824,9.78957,0.870397,1.96,-2.94,0.56,23.1117,-46.2447,-21.768,1014.8
151154,-0.0191296,9.76088,0.85605,1.89,-2.87,0.42,23.6637,-47.3857,-21.9896,1014.78
151160,-0.0095648,9.77044,0.827355,1.96,-2.73,0.35,23.2279,-46.3372,-22.6841,1014.78
151166,-0.0286944,9.78957,0.83692,1.96,-3.15,0,23.3441,-46.1521,-22.3295,1014.81
151172,0,9.82305,0.827355,1.82,-2.59,0.63,23.5475,-47.6324,-21.9305,1014.81
151178,-0.0095648,9.81827,0.813008,2.03,-2.66,0,23.5766,-46.2447,-23.6446,1014.76
151184,-0.0143472,9.81349,0.83692,2.59,-2.87,0.28,22.5305,-45.5353,-23.615,1014.76
151190,0.0813008,9.8374,0.894309,1.75,-2.94,0.42,23.3732,-46.8306,-23.0535,1014.81
151196,-0.0573888,9.90913,0.789096,2.17,-3.29,-0.35,23.4313,-46.4914,-24.1026,1014.81
151202,-0.0191296,9.89479,0.774749,1.54,-3.01,-0.42,23.5475,-45.3195,-23.024,1014.81
151208,-0.0908656,9.82783,0.93735,1.68,-2.45,-0.14,23.6637,-46.3989,-23.2013,1014.8
151214,-0.0573888,9.8087,0.85605,1.82,-3.43,-0.14,24.2158,-46.5531,-21.2656,1014.8
151220,-0.0191296,9.79914,0.860832,1.26,-2.45,-0.07,23.1117,-45.2578,-23.3638,1014.8
151226,-0.0573888,9.82783,0.83692,1.89,-2.8,-0.07,22.6758,-45.5045,-21.9009,1014.8
151232,-0.0143472,9.76088,0.879962,1.75,-2.8,-0.21,23.1698,-45.8746,-22.492,1014.82
151238,-0.0621712,9.80392,0.851267,1.4,-2.73,-0.07,23.0536,-46.2138,-22.6545,1014.82
151244,-0.0573888,9.76566,0.879962,1.54,-3.08,-0.21,22.8502,-45.7821,-22.5511,1014.81
151250,-0.0382592,9.82783,0.832138,1.82,-3.57,0.28,23.3151,-47.324,-21.4281,1014.81
151256,-0.0430416,9.79436,0.841702,1.89,-2.94,0.14,23.4603,-46.8615,-21.4872,1014.81
151262,-0.023912,9.77523,0.875179,1.82,-2.66,0.35,22.9373,-44.7027,-23.7332,1014.81
151268,-0.0382592,9.7561,0.851267,1.61,-2.94,0.56,23.6347,-46.8306,-22.3442,1014.81
151274,-0.0382592,9.81349,0.841702,1.54,-2.94,0.56,22.7339,-47.6941,-24.3391,1014.8
151280,-0.0095648,9.77044,0.832138,1.68,-3.78,0.28,22.8502,-45.4737,-23.024,1014.8
151286,0.0095648,9.79436,0.832138,1.96,-3.36,0.49,23.0826,-45.5045,-23.4229,1014.79
151292,-0.0191296,9.8087,0.83692,1.68,-3.01,0.63,22.9954,-47.3857,-22.2556,1014.79
151298,-0.0047824,9.77523,0.865614,1.96,-2.94,0.56,22.9373,-46.0596,-22.6989,1014.82
151304,0.0095648,9.78001,0.865614,2.03,-2.52,0.63,23.257,-45.1653,-23.216,1014.82
151310,0.0382592,9.80392,0.870397,2.1,-3.01,0.28,23.0245,-46.4297,-22.1374,1014.84
151316,0,9.82305,0.851267,1.96,-2.73,-0.07,22.4724,-47.0157,-22.5068,1014.84
151322,-0.023912,9.69871,0.93735,1.68,-2.94,0.14,23.0245,-45.6895,-22.2704,1014.84
151328,-0.11956,9.57915,1.07126,3.15,-2.8,0.49,22.5596,-46.3372,-22.1817,1014.82
151334,0.095648,10.0956,0.545194,1.4,-3.71,0.21,23.78,-47.3549,-22.758,1014.82
151340,0.13869,9.73218,0.798661,1.68,-1.96,-0.28,23.0536,-44.8569,-23.0387,1014.81
151346,-0.13869,9.77523,0.970827,1.82,-3.29,0.21,22.5886,-45.597,-22.0339,1014.81
151352,-0.0191296,9.70827,0.908656,2.52,-2.52,0.07,23.6637,-46.9231,-22.758,1014.8
151358,-0.0526064,9.84218,0.750837,1.89,-2.66,-0.21,22.9083,-45.8437,-21.9009,1014.8
151364,-0.0143472,9.78957,0.860832,1.4,-2.94,-0.14,22.4724,-45.4428,-22.4772,1014.83
151370,-0.0334768,9.73218,0.918221,1.96,-3.29,0.14,23.4022,-47.9717,-23.1717,1014.83
151376,-0.071736,9.69871,0.899091,2.31,-2.8,0.35,23.0245,-46.9231,-22.1078,1014.83
151382,0.0047824,9.86131,0.746054,1.96,-3.08,-0.21,22.6468,-45.1344,-22.7875,1014.79
151388,0.0143472,9.73697,0.884744,1.75,-2.66,0.21,22.7339,-46.6456,-22.0339,1014.79
151394,-0.0908656,9.72262,0.889526,1.89,-3.36,0.77,23.1698,-47.2315,-22.5659,1014.78
151400,0.023912,9.86609,0.813008,1.75,-3.36,0.63,22.9954,-45.7821,-22.2999,1014.78
151406,0.0382592,9.75131,0.894309,1.96,-1.82,0.07,22.2109,-45.6895,-22.5659,1014.8
151412,-0.095648,9.83261,0.865614,2.24,-3.08,0.07,22.9083,-47.8792,-22.2556,1014.8
151418,0.13869,9.7561,0.870397,1.89,-2.24,0.14,22.9083,-46.6147,-23.8071,1014.8
151424,-0.0334768,9.84218,0.879962,1.82,-2.73,0,22.6468,-45.8129,-23.6593,1014.8
151430,0.105213,9.8087,0.774749,1.82,-2.38,-0.28,22.8502,-47.0465,-22.891,1014.83
151436,-0.0286944,9.84696,0.846485,1.61,-2.87,-0.42,22.9954,-46.6147,-23.2604,1014.83
151442,-0.047824,9.82783,0.822573,1.33,-3.15,0,22.9664,-45.9363,-23.0387,1014.83
151448,0,9.78957,0.860832,1.26,-2.59,-0.28,23.4313,-46.5222,-22.3295,1014.78
151454,-0.0908656,9.8087,0.865614,2.1,-3.29,-0.49,23.1407,-46.8923,-22.4477,1014.78
151460,-0.0286944,9.79436,0.832138,1.26,-2.87,-0.42,22.0947,-45.3811,-22.9205,1014.82
151466,-0.0573888,9.69871,0.894309,1.82,-2.87,-0.49,22.792,-46.1213,-23.3047,1014.82
151472,-0.0191296,9.78001,0.841702,1.26,-2.94,0.14,22.7049,-48.0025,-23.1865,1014.81
151478,-0.0334768,9.73697,0.875179,1.89,-2.94,-0.07,22.9373,-45.5662,-22.4033,1014.81
151484,-0.0813008,9.77044,0.889526,2.1,-3.57,0.07,22.8502,-44.9802,-23.748,1014.81
151490,0.0095648,9.74653,0.870397,1.61,-2.8,0.91,22.9083,-46.5531,-23.0683,1014.81
151496,-0.0765184,9.75131,0.860832,2.03,-2.94,0.49,22.6177,-47.2315,-21.768,1014.81
151502,-0.0334768,9.77523,0.851267,2.24,-2.87,0.35,22.5015,-45.6587,-22.2851,1014.81
151508,-0.0382592,9.75131,0.884744,2.1,-3.01,0.35,22.9083,-47.0465,-21.7532,1014.81
151514,0,9.8087,0.846485,2.24,-3.08,0.28,22.1818,-47.2007,-21.6941,1014.82
151520,0.0669536,9.81827,0.822573,2.1,-2.52,0.42,22.5596,-46.6456,-22.4625,1014.82
151526,0.0334768,9.78957,0.832138,2.03,-2.52,0.7,22.6177,-46.9231,-22.6102,1014.82
151532,0.0095648,9.83261,0.832138,2.03,-2.45,-0.07,22.5596,-47.5399,-22.8171,1014.82
151538,-0.0095648,9.81827,0.85605,1.05,-2.59,0.49,22.5305,-45.7821,-23.349,1014.8
151544,0.0765184,9.85653,0.813008,1.54,-2.87,0.28,22.5305,-46.183,-20.8666,1014.8
151550,0.023912,9.86131,0.769966,1.54,-2.52,-0.35,23.1698,-47.4782,-20.7779,1014.8
151556,-0.0526064,9.78479,0.85605,1.47,-2.45,0,23.0245,-47.0773,-22.0635,1014.81
151562,-0.0526064,9.77523,0.889526,1.4,-2.87,-0.14,23.1698,-45.8437,-23.2899,1014.81
151568,-0.0095648,9.77523,0.889526,2.03,-2.8,0,23.1117,-46.5839,-22.2113,1014.8
151574,-0.0143472,9.78001,0.851267,1.75,-3.01,0.21,22.9954,-47.3549,-23.024,1014.8
151580,-0.0382592,9.8087,0.860832,2.1,-2.59,0.35,22.4724,-46.1213,-22.5363,1014.78
151586,-0.047824,9.77044,0.808226,1.33,-3.08,0.42,22.269,-46.3372,-24.3686,1014.78
151592,-0.0191296,9.76088,0.865614,2.31,-3.15,-0.14,22.8211,-47.139,-20.9848,1014.78
151598,-0.0669536,9.77044,0.841702,1.96,-3.08,0.07,22.9083,-45.9979,-22.8171,1014.78
151604,-0.0334768,9.77044,0.860832,1.82,-3.01,0.35,22.3271,-45.1653,-21.8271,1014.76
151610,-0.0191296,9.81349,0.851267,1.54,-2.94,0.35,23.1988,-47.4782,-21.0735,1014.76
151616,-0.0143472,9.79436,0.85605,1.89,-3.5,-0.07,22.5305,-47.0773,-22.1521,1014.76
151622,-0.0047824,9.79914,0.851267,1.96,-2.94,0.49,23.1698,-45.9979,-23.3934,1014.81
151628,0.0334768,9.82305,0.865614,1.82,-2.73,0.56,22.6468,-46.9231,-22.0044,1014.81
151634,0.071736,9.82783,0.832138,1.96,-3.15,-0.07,23.3441,-47.8175,-20.9405,1014.76
151640,0.023912,9.8087,0.85605,2.03,-3.08,0.07,23.1698,-44.826,-22.0487,1014.76
151646,0,9.73218,0.942133,1.96,-2.31,0.07,23.1988,-46.5222,-22.0339,1014.82
151652,-0.0047824,10,0.693448,1.33,-2.94,-0.56,23.1988,-47.725,-21.3099,1014.82
151658,0.109995,9.82305,0.822573,1.05,-1.89,-0.35,23.257,-46.5531,-22.6398,1014.8
151664,-0.105213,9.8087,0.879962,1.47,-2.8,-0.7,22.3562,-45.9054,-22.6102,1014.8
151670,-0.0143472,9.73218,0.913438,1.75,-3.15,0,23.7219,-46.7689,-21.8123,1014.8
151676,-0.0669536,9.73697,0.918221,1.96,-3.15,-0.21,23.3151,-47.1698,-22.1965,1014.81
151682,-0.0526064,9.81349,0.83692,1.96,-3.15,-0.49,22.8502,-45.5045,-22.0044,1014.81
151688,-0.0286944,9.76566,0.851267,1.4,-3.22,0.35,23.3732,-47.324,-22.226,1014.8
151694,-0.0526064,9.74653,0.85605,2.17,-3.01,0.07,23.2279,-46.6764,-21.4724,1014.8
151700,-0.0334768,9.76566,0.846485,1.68,-3.01,0.49,23.6637,-45.9363,-21.9601,1014.81
151706,-0.0621712,9.77523,0.827355,1.89,-3.01,0.21,23.2279,-46.7381,-20.8518,1014.81
151712,-0.023912,9.8087,0.841702,1.89,-3.29,0.28,23.257,-47.8175,-21.9748,1014.79
151718,-0.0191296,9.77044,0.832138,2.1,-3.01,-0.07,22.8502,-45.9671,-20.6893,1014.79
151724,-0.0095648,9.79436,0.870397,1.82,-3.08,0.35,23.0826,-46.183,-22.1078,1014.79
151730,0.0047824,9.78479,0.83692,1.96,-3.15,0.63,23.1698,-47.2932,-22.4625,1014.8
151736,0,9.8087,0.841702,1.75,-3.36,0.35,23.809,-46.2447,-20.8223,1014.8
151742,-0.0334768,9.81349,0.860832,1.96,-2.8,0.42,22.8792,-45.2269,-23.0535,1014.79
151748,0.0286944,9.80392,0.851267,2.03,-3.22,0.49,23.1988,-47.2624,-22.2999,1014.79
151754,0.10043,9.83261,0.851267,1.89,-2.73,0.07,24.3321,-47.5708,-21.9157,1014.81
151760,0.0669536,9.84218,0.822573,1.68,-2.66,-0.42,23.3732,-45.597,-22.8466,1014.81
151766,0.0095648,9.85653,0.793878,2.17,-2.38,-0.21,23.286,-46.5222,-23.5116,1014.79
151772,-0.0382592,9.8374,0.879962,1.26,-2.59,-0.56,23.6347,-47.2007,-22.0192,1014.79
151778,-0.0286944,9.75131,0.927786,1.89,-2.66,-0.35,23.3151,-45.4737,-23.3343,1014.81
151784,0,9.82783,0.841702,1.54,-2.45,0.14,22.0947,-46.8306,-24.0435,1014.81
151790,0.0191296,9.79914,0.83692,1.4,-2.45,-0.35,23.1407,-47.4166,-23.1865,1014.81
151796,-0.0621712,9.76566,0.832138,1.89,-3.01,-0.14,22.8211,-46.9848,-21.6497,1014.82
151802,-0.047824,9.79914,0.875179,1.33,-2.8,-0.49,22.2109,-45.1961,-22.8614,1014.82
151808,-0.0286944,9.76566,0.851267,2.31,-2.45,-0.35,22.3271,-46.8615,-22.5068,1014.81
151814,-0.0430416,9.78479,0.899091,1.33,-2.87,0.28,22.0947,-47.1698,-21.9009,1014.81
151820,-0.0191296,9.7274,0.865614,1.89,-3.01,0.14,22.3562,-45.3811,-22.8023,1014.82
151826,-0.0860832,9.75131,0.875179,1.82,-2.73,0.21,22.9373,-45.7512,-22.6398,1014.82
151832,-0.0143472,9.75131,0.889526,1.96,-2.94,0.35,22.9373,-47.5708,-21.7384,1014.81
151838,-0.0047824,9.80392,0.832138,1.68,-3.15,0.56,22.9083,-46.0905,-22.9353,1014.81
151844,-0.0191296,9.77044,0.83692,2.1,-2.87,0.42,22.4143,-45.0419,-22.3147,1014.81
151850,-0.0143472,9.79436,0.81779,1.96,-2.87,0.35,22.8211,-46.954,-21.4724,1014.83
151856,-0.0047824,9.82305,0.81779,2.38,-3.29,0.84,23.3441,-46.5531,-21.502,1014.83
151862,-0.0095648,9.8087,0.841702,2.03,-3.01,0.49,22.6758,-45.3811,-22.3886,1014.82
151868,0.0382592,9.79914,0.860832,1.75,-2.73,-0.28,23.0826,-46.2755,-22.7728,1014.82
151874,0.0669536,9.81827,0.813008,2.1,-2.87,0,23.0826,-46.7381,-21.6941,1014.82
151880,0.0430416,9.8087,0.827355,1.61,-2.94,0.7,22.9373,-45.4737,-20.837,1014.82
151886,0.0382592,9.82305,0.846485,1.89,-2.8,-0.21,22.0947,-45.9054,-22.4181,1014.82
151892,0.0669536,9.82305,0.83692,1.82,-2.66,-1.54,23.2279,-47.1082,-20.9405,1014.82
151898,0.0095648,9.85653,0.846485,1.68,-2.45,-0.49,22.9664,-46.1521,-23.3934,1014.82
151904,-0.0095648,9.8374,0.81779,1.33,-2.38,-0.21,22.5015,-45.6279,-22.9353,1014.79
151910,-0.0382592,9.81827,0.865614,1.75,-3.08,-0.98,23.4313,-47.1698,-21.7532,1014.79
151916,-0.0047824,9.78001,0.865614,1.4,-2.94,-0.42,23.3732,-46.6764,-21.4429,1014.82
151922,-0.0191296,9.79914,0.870397,1.47,-3.15,-0.14,22.1528,-44.5176,-22.1669,1014.82
151928,-0.0382592,9.77523,0.879962,1.61,-2.94,-0.49,23.3441,-46.8923,-22.0783,1014.84
151934,-0.0334768,9.78479,0.85605,1.61,-3.01,-0.21,23.4603,-47.2007,-21.3985,1014.84
151940,-0.0765184,9.78001,0.860832,1.68,-3.01,-0.35,23.0245,-45.7821,-22.2408,1014.8
151946,-0.0526064,9.73218,0.870397,1.68,-2.66,0.21,23.3151,-45.9671,-22.2113,1014.8
151952,-0.0382592,9.76088,0.884744,1.75,-2.8,0.21,23.7219,-47.324,-21.1769,1014.8
151958,-0.0813008,9.77044,0.889526,1.75,-3.5,0.21,23.257,-46.2447,-22.1965,1014.8
151964,0.0191296,9.74175,0.884744,1.75,-3.36,0.28,22.3562,-45.6279,-22.2999,1014.8
151970,-0.0191296,9.8087,0.83692,1.89,-3.22,0.35,23.5766,-47.324,-20.8666,1014.8
151976,-0.0047824,9.8087,0.803443,1.75,-2.87,0.35,23.286,-46.6147,-22.1521,1014.8
151982,-0.0047824,9.77523,0.827355,2.1,-3.08,0.21,22.4724,-45.8437,-22.5659,1014.82
151988,0.0191296,9.79914,0.832138,1.75,-2.8,0.21,23.0536,-47.7866,-22.8762,1014.82
151994,0.0047824,9.78957,0.875179,1.89,-3.01,-0.35,22.1528,-46.183,-21.7384,1014.83
152000,0.0095648,9.79914,0.83692,2.03,-2.8,0.42,22.4724,-45.2886,-23.2308,1014.83
152006,0.0191296,9.84218,0.832138,1.82,-3.15,0.21,22.6177,-47.0157,-22.0192,1014.83
152012,0.0143472,9.81349,0.832138,1.89,-2.94,-0.21,23.6347,-47.725,-22.3147,1014.83
152018,0.0143472,9.85174,0.846485,1.68,-2.8,-0.21,22.792,-46.0596,-21.8714,1014.83
152024,0.071736,9.83261,0.865614,1.61,-2.38,-0.28,22.5305,-45.4737,-22.0192,1014.82
152030,0.0430416,9.81827,0.827355,1.96,-2.73,-0.07,22.8211,-47.5708,-21.4133,1014.82
152036,-0.023912,9.77523,0.85605,1.75,-2.52,-0.42,22.5015,-47.2624,-21.4281,1014.79
152042,-0.0382592,9.8087,0.875179,1.68,-2.73,-0.28,23.1117,-44.7952,-22.6398,1014.79
152048,-0.0526064,9.79436,0.889526,1.68,-2.87,-0.28,22.8502,-46.4914,-21.2212,1014.79
152054,-0.0286944,9.77523,0.865614,1.96,-3.64,-0.14,23.0536,-46.7381,-22.0044,1014.79
152060,-0.0334768,9.77523,0.879962,1.96,-3.08,-0.14,23.0245,-45.412,-22.4033,1014.81
152066,-0.0095648,9.77044,0.879962,1.75,-2.66,0.21,22.5015,-46.7689,-23.1274,1014.81
152072,-0.0143472,9.76088,0.846485,2.1,-3.08,-0.07,22.8211,-46.5222,-21.9009,1014.81
152078,-0.0095648,9.78479,0.875179,1.75,-3.15,0.07,22.8502,-46.6764,-21.502,1014.83
152084,-0.0095648,9.78001,0.841702,1.89,-3.22,0.49,22.9083,-45.7512,-21.8271,1014.83
152090,0.0191296,9.77044,0.846485,1.68,-3.08,0,22.0075,-48.4343,-21.3838,1014.77
152096,-0.0191296,9.77523,0.822573,1.54,-3.08,-0.07,23.286,-46.7689,-21.2951,1014.77
152102,0.0286944,9.82783,0.851267,1.47,-3.08,0.49,23.0536,-45.3811,-22.8023,1014.78
152108,0.0334768,9.78479,0.851267,1.61,-3.08,0.35,22.7049,-47.2624,-22.758,1014.78
152114,-0.0286944,9.78479,0.870397,1.82,-3.01,-0.07,22.9664,-46.9231,-22.2851,1014.8
152120,0.0047824,9.82305,0.85605,1.4,-3.01,0.28,22.9954,-44.5793,-22.8319,1014.8
152126,0.0526064,9.81349,0.875179,1.96,-3.22,0.21,22.2109,-45.8129,-23.1865,1014.81
152132,0.0526064,9.83261,0.870397,2.03,-2.94,-0.14,22.6468,-47.8175,-23.0683,1014.81
152138,0.0334768,9.80392,0.860832,1.96,-2.59,-0.21,22.2981,-46.4914,-22.625,1014.81
152144,-0.0334768,9.81349,0.865614,1.75,-3.22,-0.56,22.3562,-45.9671,-23.0092,1014.79
152150,0.047824,9.78957,0.860832,1.75,-2.94,-0.28,22.8502,-47.0773,-23.1422,1014.79
152156,0.0621712,9.82783,0.884744,1.68,-3.08,-0.63,23.0826,-46.368,-21.9748,1014.81
152162,-0.0143472,9.8087,0.875179,1.96,-2.73,-0.49,21.746,-45.6587,-21.8271,1014.81
152168,-0.0573888,9.77523,0.870397,1.68,-2.73,-0.07,22.792,-46.7689,-22.7284,1014.79
152174,-0.023912,9.78001,0.85605,1.82,-2.8,-0.21,22.9373,-46.7689,-23.3195,1014.79
152180,-0.047824,9.77044,0.879962,1.61,-3.08,0,22.792,-45.5662,-23.7776,1014.8
152186,-0.0430416,9.76088,0.85605,1.82,-2.8,0,22.0366,-45.9363,-22.1521,1014.8
152192,-0.0334768,9.79914,0.860832,1.75,-3.08,0.07,22.269,-48.2492,-23.3343,1014.8
152198,-0.023912,9.79436,0.884744,1.68,-3.15,17.78,23.5766,-46.2447,-22.4033,1014.81
152204,-0.0143472,9.78479,0.841702,1.75,-2.8,0.14,23.1117,-45.7512,-22.625,1014.81
152210,-0.0047824,9.79436,0.865614,1.54,-2.87,0.07,23.0536,-47.1698,-21.2803,1014.82
152216,0.0382592,9.78957,0.851267,1.54,-2.66,0.49,22.6758,-46.7998,-22.625,1014.82
152222,0.0430416,9.79914,0.822573,2.03,-2.87,0.49,22.3852,-45.8129,-23.6593,1014.82
152228,-0.0047824,9.82305,0.870397,1.68,-3.08,0.14,23.2279,-46.1521,-22.3738,1014.82
152234,0.0382592,9.79914,0.860832,2.17,-2.73,-0.35,23.6347,-46.7998,-20.97,1014.8
152240,0.0526064,9.82783,0.879962,1.89,-2.66,0.07,22.7339,-45.0727,-22.1521,1014.8
152246,0.0047824,9.82305,0.822573,1.82,-2.73,-0.28,22.9954,-45.9671,-21.4429,1014.8
152252,-0.0143472,9.85653,0.860832,1.82,-2.94,-0.28,23.1988,-47.1082,-21.4133,1014.79
152258,0.071736,9.81349,0.85605,1.26,-2.52,-0.77,23.0536,-46.8923,-22.1226,1014.79
