Timestamp,AccX,AccY,AccZ,AngularVelX,AngularVelY,AngularVelZ,MagX,MagY,MagZ,AirPressure
231482,-0.0526064,9.69392,1.36777,-0.42,0.49,-0.91,25.1805,-39.5445,-6.6625,1014.5
231488,-0.0430416,9.67001,1.3869,-0.77,-0.14,-0.98,24.7795,-40.4416,-8.09439,1014.5
231494,-0.109995,9.65088,1.45863,0.21,-17.78,-0.77,24.493,-39.3998,-6.93187,1014.49
231500,-0.114778,9.6461,1.45385,0.42,-0.63,-0.91,25.0946,-39.0236,-7.07364,1014.49
231506,-0.105213,9.7274,1.3869,0.14,-0.49,-0.84,24.6076,-40.9336,-7.85338,1014.49
231512,-0.124342,9.78001,1.37255,0.28,-0.49,-0.49,24.579,-40.9047,-6.96022,1014.49
231518,-0.11956,9.78479,1.37255,-0.28,-0.14,-0.35,24.0347,-39.6024,-7.55566,1014.46
231524,-0.0860832,9.76088,1.36298,-0.21,0,0,25.0086,-40.6442,-6.60579,1014.46
231530,0.0095648,9.7561,1.36298,-0.07,-17.92,-0.49,24.6362,-40.2101,-7.32883,1014.45
231536,-0.071736,9.70827,1.46341,-0.14,-0.14,-0.28,24.579,-39.6024,-6.87516,1014.45
231542,-0.071736,9.73697,1.37733,-0.42,-0.63,-0.77,24.8941,-40.2101,-6.42149,1014.45
231548,-0.047824,9.73697,1.34385,0,17.64,-0.77,24.6649,-40.7889,-7.44225,1014.48
231554,-0.023912,9.68436,1.39168,-0.14,-0.35,-0.91,24.4357,-39.5445,-6.37896,1014.48
231560,-0.0191296,9.68436,1.41559,-0.28,0,-1.12,25.1232,-39.805,-7.48478,1014.44
231566,-0.0573888,9.62697,1.49211,0.49,-17.92,-1.26,24.4644,-40.76,-6.7901,1014.44
231572,-0.0526064,9.65088,1.47298,0.98,0,-1.54,23.8341,-40.5285,-6.64832,1014.49
231578,-0.105213,9.71305,1.42994,0.49,-0.98,-1.47,23.9201,-39.6313,-7.13035,1014.49
231584,-0.109995,9.7274,1.39168,0.91,-0.42,-1.4,24.4357,-40.0654,-7.31465,1014.47
231590,-0.129125,9.76566,1.34864,0.56,-0.84,-1.68,24.006,-41.5702,-6.70503,1014.47
231596,-0.153037,9.82305,1.34864,0.42,0,-1.26,24.1493,-39.5445,-7.14453,1014.43
231602,-0.186514,9.90435,1.2769,-0.07,17.43,-0.49,25.1519,-39.6024,-6.9744,1014.43
231608,-0.143472,9.78001,1.37255,-0.28,0.14,-0.7,24.1206,-40.8468,-7.41389,1014.46
231614,-0.0813008,9.73697,1.42516,-0.56,0,-0.49,24.9514,-39.3998,-7.24376,1014.46
231620,-0.0573888,9.69871,1.41559,0.14,-17.5,0,24.3498,-39.2841,-6.90351,1014.46
231626,-0.157819,9.72262,1.46341,0,-0.42,-0.91,23.7196,-40.1522,-7.39971,1014.44
231632,-0.114778,9.71305,1.4395,0.28,-0.21,-0.49,24.579,-40.5285,-6.9744,1014.44
231638,-0.0765184,9.7561,1.39168,0.21,17.85,-0.42,25.2092,-39.8629,-7.62655,1014.46
231644,-0.0813008,9.66045,1.44907,-0.14,0,-0.98,24.7222,-40.8468,-7.01693,1014.46
231650,-0.0286944,9.6748,1.44428,0.21,0.07,-0.7,24.8654,-40.8468,-6.57744,1014.43
231656,-0.0191296,9.66045,1.41081,1.12,-17.78,-0.77,24.3784,-40.0365,-6.81845,1014.43
231662,-0.023912,9.65088,1.43472,0.56,-0.28,-1.33,24.2352,-40.268,-7.48478,1014.48
231668,-0.0526064,9.71784,1.37255,0.49,-0.35,-1.33,24.2638,-41.2809,-6.77592,1014.48
231674,-0.0765184,9.74175,1.3582,0.91,-0.14,-1.4,24.3784,-39.805,-6.32225,1014.47
231680,-0.0669536,9.77523,1.31994,0.07,-0.56,-1.47,24.4071,-39.7182,-7.66908,1014.47
231686,-0.109995,9.77523,1.34864,0.14,-0.28,-1.47,24.6076,-41.1651,-6.83263,1014.49
231692,-0.191296,9.8087,1.37733,0.07,-0.77,-0.98,24.3211,-40.3259,-6.69086,1014.49
231698,-0.186514,9.86131,1.34385,-0.14,-0.56,-0.98,25.1232,-39.1973,-7.93845,1014.49
231704,-0.114778,9.8374,1.32472,-0.42,-0.42,-0.42,25.0373,-40.9336,-8.10857,1014.45
231710,-0.153037,9.76088,1.41559,-0.28,-17.92,-0.49,24.6935,-40.3548,-7.35718,1014.45
231716,-0.0860832,9.73218,1.42037,-0.21,-0.91,-0.49,25.0946,-38.7342,-7.37136,1014.46
231722,-0.11956,9.7274,1.40124,-0.35,-0.42,-0.42,25.0659,-39.4288,-7.79667,1014.46
231728,-0.095648,9.75131,1.43472,0.28,-0.28,-0.28,24.5217,-40.9625,-7.13035,1014.44
231734,-0.095648,9.68436,1.45385,0,-0.14,-0.28,25.1519,-39.8339,-6.96022,1014.44
231740,-0.071736,9.68436,1.47776,0.21,-0.28,-0.35,25.3238,-40.0365,-6.6625,1014.45
231746,-0.0621712,9.68436,1.47298,0.98,-0.21,-0.56,23.9201,-41.3387,-7.86756,1014.45
231752,-0.0669536,9.7274,1.40603,0.84,-0.42,-0.49,24.493,-40.268,-7.20123,1014.48
231758,-0.0765184,9.71784,1.40124,0.63,-0.42,-0.63,24.7508,-38.6474,-6.54909,1014.48
231764,-0.114778,9.71784,1.39646,0.77,17.43,-0.49,24.4071,-40.2391,-6.83263,1014.46
231770,-0.0765184,9.76088,1.34385,0.07,0.28,-0.63,24.6362,-40.2391,-7.81085,1014.46
231776,-0.0813008,9.7274,1.36298,0,-0.07,-0.49,25.2951,-38.85,-7.21541,1014.43
231782,-0.10043,9.7274,1.41559,0.35,-0.07,-0.63,25.0373,-40.0365,-7.27212,1014.43
231788,-0.133907,9.73218,1.37733,-0.14,-0.42,-0.63,25.1232,-40.5863,-7.04529,1014.43
231794,-0.133907,9.73697,1.3869,0.07,-0.84,-0.63,25.0946,-39.1394,-7.17288,1014.47
231800,-0.162602,9.79436,1.38211,0.21,-0.56,-0.49,25.2665,-39.4288,-7.27212,1014.47
231806,-0.21999,9.82305,1.37255,-0.35,-0.56,0,25.0659,-40.3838,-7.30047,1014.48
231812,-0.181731,9.8374,1.35342,-0.21,0,0.56,24.579,-39.9207,-7.1587,1014.48
231818,-0.114778,9.8087,1.37255,-0.35,-0.28,0.28,24.8081,-39.2551,-8.56224,1014.45
231824,-0.0526064,9.78001,1.38211,-0.49,0.35,0.56,24.4357,-39.6892,-7.62655,1014.45
231830,-0.0573888,9.71305,1.43472,-0.42,-0.28,0.07,24.7795,-40.4706,-7.11617,1014.46
231836,-0.0621712,9.68436,1.46341,0,-0.28,0.21,24.3211,-38.7342,-7.88174,1014.46
231842,-0.071736,9.66045,1.48254,-0.14,0.07,-0.07,24.6649,-39.6892,-6.98858,1014.46
231848,-0.047824,9.70827,1.44428,0,0.21,-0.07,25.4956,-40.8178,-6.15213,1014.46
231854,-0.114778,9.69392,1.42037,0.28,17.85,-0.35,24.493,-39.313,-7.2863,1014.44
231860,-0.0621712,9.68914,1.41081,-0.21,0.21,-0.63,25.4097,-38.7053,-7.56984,1014.44
231866,-0.0765184,9.67001,1.43472,0.21,-0.28,-0.42,24.8654,-40.3838,-7.92427,1014.44
231872,-0.0813008,9.68914,1.43472,0.42,-0.42,-0.77,25.0946,-39.0815,-7.68326,1014.47
231878,-0.11956,9.68914,1.41559,0.49,-0.28,-0.77,24.6935,-39.0526,-8.36376,1014.47
231884,-0.148254,9.77044,1.36298,0.63,0.28,-0.42,24.8368,-40.3548,-7.32883,1014.46
231890,-0.13869,9.77523,1.3582,-0.07,-17.92,-0.7,25.1805,-40.8757,-6.15213,1014.46
231896,-0.109995,9.82305,1.36298,-0.07,-0.21,-0.28,25.3811,-38.6764,-7.22959,1014.46
231902,-0.13869,9.77523,1.35342,-0.28,-0.28,0.07,24.3784,-39.5445,-6.4782,1014.46
231908,-0.11956,9.79436,1.37255,-0.63,-0.49,-0.49,24.9227,-40.6153,-5.95365,1014.46
231914,-0.124342,9.7274,1.41559,-0.7,-0.7,0,23.9487,-39.2262,-7.56984,1014.46
231920,-0.162602,9.77523,1.41081,-0.42,0.28,-0.21,24.7795,-38.9947,-6.73339,1014.47
231926,-0.181731,9.74653,1.43472,-0.42,-17.78,0.14,24.6362,-40.5574,-6.26554,1014.47
231932,-0.143472,9.76088,1.42994,-0.21,0.21,0.56,24.1779,-39.3998,-7.20123,1014.46
231938,-0.0813008,9.69392,1.46341,-0.63,-0.35,0.35,25.1805,-38.9657,-8.00933,1014.46
231944,-0.0765184,9.70349,1.49689,-0.14,-0.21,0,24.006,-40.2101,-6.86098,1014.48
231950,-0.095648,9.67958,1.46341,0.28,-0.49,0.14,23.9201,-40.268,-6.61997,1014.48
231956,-0.0669536,9.70827,1.43472,0,-0.21,-0.07,24.8368,-38.5027,-7.85338,1014.48
231962,-0.047824,9.68436,1.42994,0.21,-0.77,-0.35,23.8914,-40.0944,-8.08022,1014.47
231968,-0.0860832,9.68914,1.42994,0.35,-0.21,-0.21,24.2925,-40.2391,-7.38554,1014.47
231974,-0.105213,9.70827,1.40124,0.35,0.21,-0.21,24.2352,-39.6892,-8.61895,1014.49
231980,-0.129125,9.74175,1.38211,-0.07,0.07,-0.07,24.8081,-39.2551,-7.59819,1014.49
231986,-0.0765184,9.68436,1.38211,-0.28,-0.21,-0.42,24.3498,-41.2809,-7.83921,1014.47
231992,-0.10043,9.70349,1.41081,-0.07,-0.7,-0.56,24.3784,-40.2969,-6.59162,1014.47
231998,-0.129125,9.70349,1.47776,0.35,-0.21,-0.77,24.493,-38.4738,-7.69743,1014.51
232004,-0.11956,9.71784,1.44907,0,-0.42,-0.42,24.7222,-40.3259,-6.57744,1014.51
232010,-0.11956,9.73218,1.42994,-0.07,-0.28,-0.49,25.0086,-40.3259,-6.03871,1014.45
232016,-0.148254,9.77523,1.41081,0.84,-0.7,-0.56,23.9201,-39.0236,-7.11617,1014.45
232022,-0.129125,9.78957,1.3869,0.49,-0.49,-0.49,25.0659,-40.4706,-7.54149,1014.47
232028,-0.13869,9.81827,1.3582,-0.07,0.35,0,25.2951,-40.2969,-7.21541,1014.47
232034,-0.143472,9.81827,1.36777,-0.49,-0.28,-0.07,24.2638,-39.4866,-8.03769,1014.47
232040,-0.095648,9.7561,1.40603,-0.63,0.35,-0.07,24.8081,-38.8789,-7.03111,1014.5
232046,-0.0765184,9.70349,1.45863,-0.49,-0.7,-0.07,24.98,-40.5574,-7.39971,1014.5
232052,-0.095648,9.67001,1.49211,-0.07,-0.28,0,25.0086,-39.4288,-7.31465,1014.48
232058,-0.10043,9.68914,1.47298,0.49,-0.84,0.28,24.2638,-38.5606,-8.42047,1014.48
232064,-0.0430416,9.66523,1.52559,0.56,-0.14,-0.14,24.1206,-41.0783,-8.80325,1014.45
232070,-0.0573888,9.63654,1.51602,0.49,-0.42,-0.35,24.7795,-40.1233,-7.44225,1014.45
232076,-0.0526064,9.69871,1.45385,1.05,0.28,-0.21,24.4644,-38.9368,-8.463,1014.47
232082,-0.109995,9.73218,1.4395,0.91,0,-0.56,24.4644,-39.3709,-7.10199,1014.47
232088,-0.095648,9.72262,1.39168,0.7,-17.92,-0.35,24.6649,-40.5574,-8.05186,1014.45
232094,-0.0813008,9.7274,1.38211,0.91,-0.56,-0.7,24.493,-38.6185,-8.66148,1014.45
232100,-0.095648,9.71305,1.40124,0.77,0.14,-0.84,24.5503,-39.1394,-8.53389,1014.49
232106,-0.0908656,9.70827,1.41559,0.56,0.07,-0.98,25.3524,-41.2519,-7.03111,1014.49
232112,-0.109995,9.75131,1.36298,0.28,0.35,-0.49,24.7222,-40.0365,-7.73996,1014.49
232118,-0.109995,9.78001,1.36777,0.49,-0.56,-0.28,24.2065,-38.9657,-8.30705,1014.44
232124,-0.11956,9.78001,1.39168,-0.14,-0.42,-0.42,25.2378,-40.5863,-7.7825,1014.44
232130,-0.143472,9.76566,1.40603,0.14,-0.77,-0.63,24.6076,-40.3838,-7.58402,1014.47
232136,-0.133907,9.7561,1.41081,0.28,-0.07,-0.28,24.6076,-39.0236,-6.94604,1014.47
232142,-0.148254,9.76566,1.42516,-0.28,0,-0.35,24.2352,-40.0365,-7.44225,1014.48
232148,-0.148254,9.74175,1.45863,-0.28,-0.14,-0.21,24.493,-40.6442,-7.73996,1014.48
232154,-0.129125,9.76088,1.45385,-0.28,0,0.21,24.8368,-39.0526,-7.27212,1014.49
232160,-0.114778,9.7274,1.4395,0.07,-0.35,-0.35,25.2951,-39.2262,-8.29287,1014.49
232166,-0.0573888,9.69871,1.49211,0.21,-0.07,-0.21,24.6935,-40.4706,-7.07364,1014.46
232172,-0.095648,9.6748,1.49211,0.21,0.07,-0.14,24.493,-39.8918,-6.87516,1014.46
232178,-0.10043,9.66045,1.49689,0.84,-0.14,-1.05,25.0659,-38.8211,-7.00275,1014.48
232184,-0.0669536,9.6748,1.51602,1.12,-0.14,-0.42,25.0086,-40.76,-7.07364,1014.48
232190,-0.0813008,9.68436,1.49211,1.19,-0.14,-0.7,24.6076,-40.0944,-5.82605,1014.46
232196,-0.105213,9.71784,1.42994,1.12,0.07,-0.77,24.4071,-38.7053,-7.38554,1014.46
232202,-0.13869,9.76566,1.33907,0.84,0,-0.49,24.6076,-39.9207,-7.37136,1014.46
232208,-0.124342,9.79436,1.33907,0.07,-0.07,-0.35,24.6362,-40.4416,-7.32883,1014.44
232214,-0.148254,9.77523,1.36298,0.77,-0.14,-0.14,24.3211,-38.7342,-7.00275,1014.44
232220,-0.148254,9.78001,1.3582,0,-0.21,-0.28,24.7795,-38.7342,-6.69086,1014.47
232226,-0.133907,9.73218,1.38211,-0.21,-0.35,-0.28,24.7222,-40.6731,-7.42807,1014.47
232232,-0.109995,9.7274,1.44428,0.35,-0.35,-0.21,24.4357,-40.0075,-7.72579,1014.49
232238,-0.071736,9.69392,1.48733,0.07,-0.14,-0.42,24.7508,-38.9368,-7.27212,1014.49
232244,-0.157819,9.70349,1.45385,0.35,-0.28,-0.21,25.954,-40.1812,-6.57744,1014.44
232250,-0.11956,9.71784,1.45863,0.56,0.07,-0.07,24.8368,-39.5735,-5.71263,1014.44
232256,-0.124342,9.75131,1.42994,0.56,-0.28,-0.28,25.2665,-39.2262,-7.4706,1014.49
232262,-0.157819,9.77044,1.40603,0,0.42,-0.14,25.0659,-39.9786,-6.91769,1014.49
232268,-0.114778,9.73218,1.39168,0.21,0.07,-0.28,23.6336,-39.9497,-7.01693,1014.49
232274,-0.0765184,9.72262,1.46341,-0.07,0.35,-0.77,24.3498,-38.5027,-7.9668,1014.49
232280,-0.105213,9.68914,1.4395,-0.07,-0.07,-0.42,25.1805,-39.1683,-7.38554,1014.49
232286,-0.0765184,9.7274,1.42994,0.63,0.14,-0.35,24.3784,-40.4127,-7.76832,1014.47
232292,-0.095648,9.73697,1.43472,0.35,0.14,-0.35,23.8341,-39.9497,-6.7901,1014.47
232298,-0.10043,9.74653,1.41081,-0.07,0.28,-0.14,24.5217,-39.1973,-7.22959,1014.48
232304,-0.095648,9.72262,1.42516,0.49,0,-0.35,24.4357,-40.0944,-7.51313,1014.48
232310,-0.109995,9.71784,1.43472,0.21,0,-0.7,24.2925,-41.3966,-7.03111,1014.48
232316,-0.0908656,9.74175,1.42994,0.35,-0.49,-0.49,24.493,-38.8211,-7.30047,1014.48
232322,-0.129125,9.73697,1.43472,0.07,0,-0.42,24.5503,-39.6892,-7.10199,1014.47
232328,-0.148254,9.73697,1.44907,0.21,-0.56,-0.28,24.579,-39.7471,-6.74756,1014.47
232334,-0.186514,9.80392,1.40124,0.42,0,-0.07,25.1232,-38.8211,-7.59819,1014.5
232340,-0.148254,9.82783,1.33429,0.14,-0.07,0.35,25.0086,-39.4577,-6.26554,1014.5
232346,-0.133907,9.76566,1.38211,-0.42,0.28,0.07,24.4071,-40.76,-7.4706,1014.47
232352,-0.0860832,9.72262,1.42037,-0.42,-0.35,0.07,24.579,-39.8918,-6.9744,1014.47
232358,-0.11956,9.70349,1.47776,-0.28,-0.28,0.35,24.3784,-39.5445,-7.22959,1014.47
232364,-0.105213,9.69871,1.44907,-0.07,-0.63,-0.14,24.4357,-40.3548,-7.30047,1014.47
232370,-0.0573888,9.68914,1.42037,0.14,0.07,-0.07,23.1466,-40.7021,-7.71161,1014.47
232376,-0.0908656,9.66523,1.4395,0.42,-0.14,0,24.1206,-39.1683,-7.92427,1014.45
232382,-0.095648,9.67958,1.48733,0.49,0.14,-0.21,24.9227,-40.3548,-7.1587,1014.45
232388,-0.153037,9.69392,1.47298,0.28,0,-0.49,24.8368,-40.4995,-7.01693,1014.46
232394,-0.0526064,9.71305,1.44907,0.49,0.35,-0.42,24.4071,-39.0236,-6.91769,1014.46
232400,-0.157819,9.7274,1.43472,0.84,-0.07,-0.7,24.5503,-39.3709,-6.37896,1014.46
232406,-0.11956,9.7274,1.4395,0.91,0,-0.49,24.8081,-40.0944,-6.7901,1014.46
232412,-0.124342,9.70827,1.40124,0.63,-0.77,-0.63,24.493,-40.0075,-7.51313,1014.48
232418,-0.105213,9.7561,1.40124,0.77,0.07,-0.49,24.7508,-38.4448,-7.72579,1014.48
232424,-0.162602,9.73697,1.41081,0.28,0.63,-0.21,25.2092,-40.76,-7.91009,1014.45
232430,-0.11956,9.73218,1.41559,0.28,0,-0.63,24.7222,-40.2101,-6.12377,1014.45
232436,-0.148254,9.77523,1.42516,0.07,-0.07,-0.56,24.4644,-39.1683,-7.08782,1014.52
232442,-0.153037,9.80392,1.39646,0.14,-0.77,-0.42,24.2352,-39.6024,-6.35061,1014.52
232448,-0.172166,9.80392,1.39168,0,-0.42,-0.14,24.1206,-40.3548,-6.05289,1014.52
232466,-0.124342,9.72262,1.45863,0.35,-0.14,-0.07,24.8941,-41.3966,-7.82503,1014.49
232472,-0.095648,9.69392,1.4682,0.35,-0.35,0.07,24.9514,-39.8339,-7.1587,1014.49
232478,-0.105213,9.71784,1.45385,0.7,-0.56,0.07,25.1519,-39.2262,-7.49895,1014.47
232484,-0.0669536,9.70827,1.44907,0.35,0.14,-0.21,24.6935,-40.2101,-6.74756,1014.47
232490,-0.129125,9.69871,1.42994,0.63,-0.07,-0.14,25.1519,-39.7182,-7.86756,1014.47
232496,-0.0908656,9.74175,1.3869,0.35,0.42,-0.56,25.0373,-38.5027,-6.46402,1014.47
232502,-0.0908656,9.71305,1.3869,0.14,0.42,-0.49,24.5217,-39.342,-6.90351,1014.47
232508,-0.105213,9.67001,1.4395,0.7,0.14,-0.35,24.4071,-40.2101,-6.83263,1014.47
232514,-0.071736,9.68436,1.45385,0.35,-0.28,-0.98,24.6935,-38.6185,-7.79667,1014.45
232520,-0.133907,9.67958,1.43472,1.05,-0.14,-1.05,24.8941,-39.3998,-7.61237,1014.45
232526,-0.133907,9.68914,1.42994,0.7,-0.28,-0.77,25.1805,-41.0493,-6.6625,1014.45
232532,-0.167384,9.77044,1.3869,0.35,0.42,-0.56,24.6935,-39.6892,-6.73339,1014.47
232538,-0.191296,9.80392,1.41559,0.56,-0.07,-0.49,24.5217,-39.0526,-6.7901,1014.47
232544,-0.143472,9.78479,1.40603,0.42,0,-0.21,24.2925,-39.8339,-8.02351,1014.5
232550,-0.129125,9.82305,1.35342,0.07,-0.42,-0.14,24.2925,-39.5445,-7.45642,1014.5
232556,-0.167384,9.77523,1.3869,0.07,0,0.07,24.6649,-38.9368,-7.35718,1014.46
232562,-0.162602,9.78001,1.3869,0,-0.77,0.21,24.006,-39.4288,-7.18706,1014.46
232568,-0.143472,9.78479,1.40124,0.42,0,0.14,24.5217,-40.5863,-7.10199,1014.48
232574,-0.0860832,9.76566,1.3869,-0.07,-0.35,0.21,23.2612,-40.1522,-8.37794,1014.48
232580,-0.10043,9.70827,1.4395,-0.35,0.21,0.07,24.8941,-39.5445,-6.74756,1014.5
232586,-0.124342,9.70349,1.48254,0.56,0,0.21,24.7795,-40.6442,-6.96022,1014.5
232592,-0.10043,9.74653,1.43472,-0.14,0.14,0.07,23.7482,-39.805,-7.51313,1014.45
232598,-0.114778,9.74175,1.39646,0.07,0,0.42,25.0946,-38.5606,-8.08022,1014.45
232604,-0.0860832,9.69392,1.41081,0.21,0.42,0.07,24.6362,-40.0944,-7.00275,1014.45
232610,-0.071736,9.70827,1.45385,-0.28,0.14,0,24.4644,-39.776,-7.69743,1014.47
232616,-0.095648,9.65088,1.49689,-0.21,0.28,-0.21,24.3498,-39.1104,-7.49895,1014.47
232622,-0.0765184,9.65567,1.48733,0.49,0.28,-0.07,24.9227,-40.3838,-7.79667,1014.44
232628,-0.047824,9.66045,1.44907,0.56,0.14,-0.56,24.4357,-40.268,-8.09439,1014.44
232634,-0.11956,9.66045,1.44907,0.77,-0.21,-0.28,24.9227,-38.8789,-7.35718,1014.45
232640,-0.105213,9.68914,1.44428,0.91,-0.14,-0.56,25.0946,-39.3709,-6.74756,1014.45
232646,-0.148254,9.73218,1.39646,0.63,-0.28,-0.63,25.0946,-40.5863,-7.62655,1014.46
232652,-0.129125,9.77523,1.40603,0.28,0.07,-0.49,25.2378,-39.4866,-6.1663,1014.46
232658,-0.181731,9.74653,1.41559,0.84,0.07,-0.49,24.7795,-38.6474,-7.6549,1014.47
232664,-0.200861,9.77523,1.40124,0.56,-0.14,-0.28,25.1805,-40.268,-7.20123,1014.47
232670,-0.196078,9.82783,1.40124,0.28,0,0.14,24.9514,-40.268,-7.17288,1014.45
232676,-0.143472,9.78957,1.37733,0.42,-0.42,-0.07,24.2065,-39.342,-7.9668,1014.45
232682,-0.0908656,9.78957,1.38211,0.07,-0.07,0.14,24.9514,-40.0075,-7.4706,1014.48
232688,-0.109995,9.69392,1.48733,0.35,-0.28,0.21,25.0659,-40.6442,-7.21541,1014.48
232694,-0.109995,9.73218,1.46341,0.56,-0.21,0,24.1206,-38.9947,-6.60579,1014.48
232700,-0.11956,9.73218,1.42516,-0.35,-0.42,-17.92,25.2951,-39.342,-7.88174,1014.45
232706,-0.109995,9.71305,1.4395,0.56,0.21,0,24.8368,-40.4416,-7.343,1014.45
232712,-0.071736,9.67001,1.45863,0.56,0.28,-0.21,25.3238,-39.2841,-7.68326,1014.46
232718,-0.114778,9.68914,1.48254,0.35,0.07,-17.85,24.8368,-39.0236,-7.27212,1014.46
232724,-0.095648,9.66045,1.47776,0.35,-0.14,-0.56,24.2352,-40.5863,-6.9744,1014.48
232730,-0.114778,9.69392,1.45863,0.7,0.07,-0.84,25.3524,-39.5156,-7.31465,1014.48
232736,-0.095648,9.68914,1.43472,0.91,-0.28,-0.63,25.1805,-38.4159,-7.30047,1014.49
232742,-0.11956,9.72262,1.41559,0.56,0.21,-0.63,24.6076,-39.3998,-6.49238,1014.49
232748,-0.133907,9.73218,1.42037,0.63,0,-0.56,25.2951,-39.9786,-7.2863,1014.49
232754,-0.109995,9.74175,1.40603,0.56,0.14,-0.98,24.9227,-39.313,-6.96022,1014.49
232760,-0.13869,9.7561,1.37733,0.98,-0.28,-0.56,25.1805,-39.776,-7.32883,1014.49
232766,-0.153037,9.7274,1.41081,0.49,-0.14,-0.7,24.7795,-41.1072,-8.00933,1014.49
232772,-0.148254,9.77523,1.43472,0.42,0.35,-0.35,24.9227,-39.805,-6.77592,1014.49
232778,-0.162602,9.82305,1.38211,0.35,-0.49,-0.14,24.0347,-39.4866,-8.16528,1014.46
232784,-0.109995,9.75131,1.3582,0.21,-0.42,-0.7,25.6102,-39.9786,-6.39314,1014.46
232790,-0.114778,9.69871,1.47298,0.56,-0.14,-0.14,25.2951,-39.8918,-5.4858,1014.45
232796,-0.176949,9.73697,1.49211,0.63,-0.14,0,25.0946,-38.7632,-7.52731,1014.45
232802,-0.148254,9.78479,1.41559,0.21,0.07,0.21,25.7248,-40.4416,-8.25034,1014.5
232808,-0.10043,9.69392,1.45385,0.7,-0.28,0.07,25.4956,-40.3838,-6.49238,1014.5
232814,-0.10043,9.69392,1.49689,0.84,0.14,0.07,25.2378,-39.5735,-7.38554,1014.51
232820,-0.133907,9.73697,1.4395,0.49,0.14,-0.14,25.1805,-39.1394,-7.81085,1014.51
232826,-0.129125,9.7561,1.41081,0.35,0.28,0.14,24.9227,-40.7021,-6.67668,1014.5
232832,-0.10043,9.7274,1.44428,0.49,0.21,-0.14,25.0373,-39.6892,-6.46402,1014.5
232838,-0.11956,9.71784,1.45863,0.91,0.21,-0.35,24.2925,-39.4288,-8.06604,1014.47
232844,-0.105213,9.70349,1.41559,0.21,0.35,-0.28,24.4071,-40.1522,-7.93845,1014.47
232850,-0.0813008,9.69871,1.41559,0.21,0.07,-0.49,24.493,-39.4866,-6.4782,1014.47
232856,-0.095648,9.69392,1.41081,0.21,-0.07,-0.49,25.3524,-38.9947,-7.32883,1014.47
232862,-0.129125,9.68914,1.42994,0.7,-0.07,-0.49,25.467,-40.1522,-7.31465,1014.47
232868,-0.109995,9.70349,1.43472,0.63,-0.49,-0.49,24.6076,-39.8339,-7.69743,1014.47
232874,-0.176949,9.74175,1.3869,0,0.28,-0.63,25.1805,-39.313,-8.12275,1014.47
232880,-0.200861,9.76088,1.39168,0.56,-0.07,-0.35,24.579,-39.2551,-8.50553,1014.49
232886,-0.143472,9.74653,1.41559,0.42,0,-0.63,24.8368,-40.7021,-6.96022,1014.49
232892,-0.124342,9.69392,1.48254,0.56,-0.35,-0.35,24.3784,-39.4577,-7.01693,1014.49
232898,-0.0813008,9.70349,1.47776,0.7,0.21,-0.35,24.6076,-39.2262,-7.99515,1014.49
232904,-0.11956,9.6748,1.46341,0.49,-0.49,-0.49,24.5503,-40.4706,-6.86098,1014.45
232910,-0.0813008,9.67958,1.46341,0.98,-0.14,-0.07,25.0086,-39.7182,-6.93187,1014.45
232916,-0.095648,9.69392,1.4395,0.77,-0.63,-0.49,24.6076,-38.3291,-7.38554,1014.46
232922,-0.10043,9.70827,1.42994,0.91,0.28,-0.84,24.8081,-39.8629,-7.30047,1014.46
232928,-0.143472,9.69871,1.4682,1.4,0.35,-0.49,24.7508,-40.1812,-7.25794,1014.47
232934,-0.11956,9.72262,1.43472,1.05,0.35,-0.56,24.6935,-39.0526,-7.66908,1014.47
232940,-0.124342,9.73218,1.40124,0.98,0.21,-0.63,24.3211,-39.0526,-7.93845,1014.47
232946,-0.0908656,9.74175,1.40124,1.47,-0.56,-0.7,25.2378,-40.1812,-7.18706,1014.47
232952,-0.10043,9.73218,1.39646,1.26,-0.14,-0.7,25.1232,-39.342,-7.62655,1014.47
232958,-0.109995,9.71305,1.40603,1.05,-0.28,-0.7,25.0373,-39.8339,-6.50655,1014.5
232964,-0.129125,9.73697,1.40124,1.05,0.21,-0.56,24.8941,-40.1522,-7.37136,1014.5
232970,-0.162602,9.74175,1.41559,0.98,0,-0.42,24.1493,-40.1522,-7.38554,1014.48
232976,-0.157819,9.76566,1.41559,1.05,0.28,-0.56,24.3498,-39.4866,-8.78907,1014.48
232982,-0.191296,9.75131,1.42037,1.12,-0.21,-0.28,25.8394,-39.6024,-7.6549,1014.48
232988,-0.157819,9.8374,1.35342,0.35,0.14,-0.14,25.1519,-40.3548,-8.2787,1014.48
232994,-0.181731,9.81349,1.41081,0.21,-0.56,0.07,24.7508,-39.1104,-6.67668,1014.49
233000,-0.148254,9.74653,1.45863,0.42,0.14,-0.14,25.0373,-39.8629,-7.39971,1014.49
233006,-0.109995,9.67958,1.47776,0.77,-0.35,-17.92,24.579,-40.731,-7.2863,1014.43
233012,-0.109995,9.68436,1.50646,0.91,0.14,-0.63,23.8055,-39.1683,-8.84578,1014.43
233018,-0.124342,9.70827,1.40124,1.12,-0.21,-0.21,24.4644,-38.6474,-6.98858,1014.43
233024,-0.105213,9.69871,1.42994,0.91,0,-0.7,23.9487,-41.1072,-8.463,1014.43
233030,-0.109995,9.66523,1.46341,1.33,0,-0.91,25.0659,-40.3259,-7.72579,1014.43
233036,-0.095648,9.66523,1.4395,1.82,-0.21,-0.84,25.2665,-38.7342,-8.53389,1014.46
233042,-0.105213,9.69392,1.4395,1.05,0.28,-0.98,24.6935,-40.0944,-8.08022,1014.46
233048,-0.13869,9.72262,1.41081,1.47,-0.56,-0.63,24.8941,-40.3548,-7.25794,1014.44
233054,-0.143472,9.69392,1.39646,1.4,0,-1.05,24.8941,-38.9079,-7.4706,1014.44
233060,-0.124342,9.69871,1.41559,1.54,-0.07,-1.19,24.8654,-39.4577,-7.2863,1014.46
233066,-0.114778,9.76088,1.3869,1.26,0.07,-1.05,24.9227,-40.2391,-8.00933,1014.46
233072,-0.167384,9.78001,1.34864,1.26,-0.56,-0.91,24.4644,-39.4866,-7.54149,1014.45
233078,-0.13869,9.7561,1.37255,0.98,-0.35,-0.63,25.0946,-38.6474,-7.73996,1014.45
233084,-0.133907,9.81827,1.35342,0.91,-0.14,-0.63,25.4956,-40.3838,-8.70401,1014.46
233090,-0.153037,9.71784,1.44428,0.63,-0.28,-0.49,24.2638,-39.776,-7.56984,1014.46
233096,-0.181731,9.73697,1.45385,1.12,-0.07,-0.35,25.1232,-38.0108,-7.81085,1014.49
233102,-0.176949,9.76566,1.39168,0.84,0,-0.14,24.6076,-40.3838,-8.30705,1014.49
233108,-0.196078,9.8087,1.34864,0.49,-0.21,-0.56,24.2065,-40.731,-7.92427,1014.49
233114,-0.124342,9.75131,1.41559,0.7,-0.07,-0.28,25.1232,-39.2551,-8.56224,1014.46
233120,-0.11956,9.69871,1.46341,0.49,0,-0.28,24.8081,-40.2391,-7.86756,1014.46
233126,-0.13869,9.69871,1.48733,0.98,0.07,-0.49,24.2065,-41.0783,-7.71161,1014.46
233132,-0.133907,9.67001,1.4682,1.61,-0.07,-0.7,24.5503,-40.0365,-7.68326,1014.46
233138,-0.109995,9.68436,1.43472,1.68,0,-0.63,24.3211,-39.0236,-8.20781,1014.46
233144,-0.11956,9.71305,1.39646,1.19,-0.28,-0.7,24.7508,-39.9786,-7.27212,1014.46
233150,-0.114778,9.71784,1.36298,1.33,0.07,-0.63,25.0659,-40.0075,-7.75414,1014.49
233156,-0.143472,9.74175,1.36777,1.12,-0.21,-1.19,24.6076,-39.1973,-8.05186,1014.49
233162,-0.167384,9.72262,1.35342,0.49,0.07,-1.12,25.3524,-39.9497,-6.37896,1014.5
233168,-0.129125,9.76088,1.36777,0.98,-0.07,-0.7,24.6649,-40.6731,-7.49895,1014.5
233174,-0.124342,9.70349,1.41081,0.63,0.07,-0.7,24.6362,-39.0815,-7.4706,1014.47
233180,-0.162602,9.68914,1.41559,1.05,0.28,-0.63,24.8654,-39.7182,-7.91009,1014.47
233186,-0.157819,9.72262,1.40603,1.19,0.14,-1.33,24.8368,-40.8757,-7.75414,1014.47
233192,-0.148254,9.78001,1.34864,0.91,0.14,-1.05,24.8941,-39.4288,-7.24376,1014.46
233198,-0.196078,9.78001,1.38211,0.98,-0.56,-0.84,24.5217,-38.387,-7.20123,1014.46
233204,-0.205643,9.7561,1.45863,0.98,-0.28,-0.7,24.6362,-40.6442,-6.84681,1014.48
233210,-0.176949,9.76566,1.40124,1.05,-0.21,-0.7,24.2638,-39.6313,-7.25794,1014.48
233216,-0.224773,9.79914,1.36298,0.91,-0.49,-0.14,25.2378,-38.3001,-6.87516,1014.45
233222,-0.191296,9.82305,1.32951,0.7,-0.56,-0.49,24.9514,-39.6892,-6.09542,1014.45
233228,-0.129125,9.7561,1.39646,0,0,-0.56,25.0086,-40.5863,-6.57744,1014.46
233234,-0.124342,9.69871,1.4395,0.42,0.21,-0.14,24.98,-38.2712,-6.76174,1014.46
233240,-0.162602,9.73218,1.42994,1.05,0.21,-0.56,25.3811,-39.342,-6.44985,1014.48
233246,-0.157819,9.73697,1.41081,0.77,-0.42,-0.28,24.7508,-40.8757,-6.70503,1014.48
233252,-0.167384,9.70827,1.39646,0.84,0.07,0,24.493,-39.5156,-7.31465,1014.48
233258,-0.13869,9.71305,1.40124,0.77,-0.21,-0.63,24.579,-39.0815,-7.79667,1014.48
233264,-0.153037,9.68436,1.42037,0.98,0.42,-0.28,24.1206,-39.9207,-7.49895,1014.48
233270,-0.167384,9.69871,1.44428,1.47,-0.07,-0.63,24.7222,-39.4866,-7.11617,1014.49
233276,-0.148254,9.70349,1.40603,1.19,0.42,-0.77,24.4644,-38.5895,-8.1511,1014.49
233282,-0.13869,9.74175,1.37733,1.4,-0.21,-0.35,24.579,-39.5156,-9.03008,1014.47
233288,-0.133907,9.74175,1.40124,1.33,-0.21,-0.49,24.8081,-40.2969,-8.09439,1014.47
233294,-0.129125,9.72262,1.39168,1.47,-0.42,-0.98,24.9514,-38.8211,-7.54149,1014.47
233300,-0.105213,9.70349,1.34385,1.33,-0.35,-1.12,24.9227,-39.6892,-7.13035,1014.47
233306,-0.224773,9.7274,1.37255,1.12,-0.14,-0.7,25.2092,-40.1233,-6.98858,1014.48
233312,-0.234338,9.78479,1.35342,1.05,-0.35,-0.42,24.8368,-39.7182,-7.1587,1014.48
233318,-0.215208,9.75131,1.34864,0.91,-0.42,-0.42,25.3811,-39.4577,-7.82503,1014.47
233324,-0.157819,9.79914,1.3582,0.98,-0.42,-0.42,24.7508,-40.4706,-7.22959,1014.47
233330,-0.176949,9.78957,1.33429,0.98,-0.35,-17.92,24.493,-40.3259,-8.54806,1014.46
233336,-0.157819,9.7274,1.39646,0.63,-0.14,-0.21,24.2065,-38.5027,-8.37794,1014.46
233342,-0.153037,9.71784,1.4682,1.05,-0.35,-0.77,25.0946,-40.2101,-7.22959,1014.48
233348,-0.124342,9.70827,1.41081,1.12,0.14,-0.42,24.98,-39.7471,-6.6625,1014.48
233354,-0.124342,9.72262,1.40124,0.91,-0.07,-0.35,25.3811,-38.7921,-8.12275,1014.48
233360,-0.162602,9.71784,1.39646,0.7,-0.28,-0.7,24.5217,-38.9657,-7.13035,1014.46
233366,-0.109995,9.76088,1.34864,1.96,-0.21,-0.42,25.0946,-39.776,-7.00275,1014.46
233372,-0.124342,9.68436,1.3869,0.84,0.35,-0.84,25.1805,-39.0236,-8.40629,1014.46
233378,-0.133907,9.62697,1.47298,1.12,0,-1.26,24.7795,-39.4577,-6.09542,1014.46
233384,-0.105213,9.66523,1.43472,1.75,0.56,-0.98,25.7535,-40.5285,-7.45642,1014.44
233390,-0.153037,9.68914,1.40603,1.61,-0.07,-1.26,24.9227,-40.1233,-6.7901,1014.44
233396,-0.148254,9.70827,1.37733,1.33,-0.35,-1.54,25.868,-38.3001,-7.91009,1014.47
233402,-0.129125,9.68914,1.39646,2.1,-0.28,-1.33,25.2092,-39.4866,-5.82605,1014.47
233408,-0.133907,9.69392,1.42994,2.31,-0.28,-1.47,25.4097,-40.2101,-6.94604,1014.47
233414,-0.186514,9.73697,1.41081,1.47,-0.14,-1.68,25.3238,-38.4738,-7.35718,1014.47
233420,-0.210426,9.76566,1.34864,1.61,-0.07,-1.47,25.4097,-40.0075,-6.88934,1014.43
233426,-0.196078,9.74653,1.37733,1.61,-0.7,-1.4,24.5503,-40.0365,-7.05946,1014.43
233432,-0.153037,9.77044,1.33429,1.68,-0.56,-1.12,26.1259,-39.0815,-6.61997,1014.43
233438,-0.13869,9.74653,1.34864,2.1,-0.56,-1.26,24.8941,-38.7342,-7.07364,1014.45
233444,-0.234338,9.80392,1.32472,1.75,-0.35,-1.4,24.98,-40.1522,-7.05946,1014.45
233450,-0.234338,9.88044,1.23864,1.05,-0.42,-0.77,25.2665,-40.1233,-7.05946,1014.48
233456,-0.196078,9.8374,1.2769,0.91,-0.07,-1.05,24.9227,-38.0397,-7.25794,1014.48
233462,-0.186514,9.77523,1.34864,0.7,-0.35,-0.63,24.6076,-39.3709,-6.83263,1014.48
233468,-0.153037,9.77523,1.32472,0.49,-0.21,-0.28,25.8967,-40.3548,-7.17288,1014.48
233474,-0.162602,9.73697,1.36777,0.49,-0.28,-0.84,25.6389,-38.5027,-6.70503,1014.48
233480,-0.167384,9.68436,1.3869,0.35,-0.14,-0.91,24.7508,-39.342,-7.13035,1014.48
233486,-0.124342,9.68914,1.40124,0.63,0.07,-0.14,25.0373,-41.0204,-7.14453,1014.48
233492,-0.172166,9.68436,1.43472,0.77,0,-1.12,25.0086,-39.8339,-6.94604,1014.48
233498,-0.162602,9.68436,1.41559,1.05,-0.35,-1.12,25.467,-39.1104,-7.03111,1014.49
233504,-0.157819,9.69871,1.40603,1.4,-0.07,-0.63,25.5816,-39.8918,-6.76174,1014.49
233510,-0.200861,9.74653,1.36777,1.26,-0.14,-1.47,24.4071,-38.7921,-7.18706,1014.49
233516,-0.191296,9.75131,1.33907,1.19,-0.35,-0.77,25.7535,-37.9818,-7.45642,1014.49
233522,-0.248685,9.78001,1.3056,1.05,-0.21,-0.56,25.5529,-39.5735,-6.61997,1014.49
233528,-0.210426,9.78957,1.31516,0.77,-0.42,-0.98,24.98,-40.3259,-6.88934,1014.45
233534,-0.200861,9.78957,1.32472,0.56,-0.35,-0.42,24.579,-38.7632,-7.30047,1014.45
233540,-0.229555,9.77044,1.36298,0.98,-0.35,-0.42,24.5503,-39.3709,-7.83921,1014.47
233546,-0.243902,9.79914,1.31994,1.05,-0.56,-0.21,25.0373,-40.0365,-6.9744,1014.47
233552,-0.215208,9.88044,1.29603,0.42,-0.42,-0.21,24.6935,-38.9947,-7.82503,1014.48
233558,-0.191296,9.79436,1.31994,0.14,-0.07,0.14,25.5816,-38.8211,-6.53491,1014.48
233564,-0.200861,9.74175,1.35342,0.49,-0.56,17.57,25.5529,-39.313,-6.74756,1014.47
233570,-0.191296,9.66045,1.45863,0.77,-0.28,-0.14,26.2405,-39.4577,-6.60579,1014.47
233576,-0.181731,9.70349,1.40124,1.05,0.14,0,24.8654,-37.9239,-7.21541,1014.45
233582,-0.196078,9.72262,1.3582,0.63,-0.28,17.64,24.98,-38.9947,-6.81845,1014.45
233588,-0.143472,9.69392,1.39646,0.49,0.21,-0.14,24.579,-39.6313,-5.78352,1014.51
233594,-0.11956,9.68914,1.38211,0.91,0.14,-0.35,25.1232,-38.3291,-7.30047,1014.51
233600,-0.181731,9.69871,1.35342,0.77,0.49,-0.7,25.0659,-39.313,-7.62655,1014.51
233606,-0.143472,9.73218,1.3582,0.63,-0.28,-0.42,24.2638,-40.0365,-7.05946,1014.45
233612,-0.191296,9.75131,1.32951,1.12,-0.21,-0.49,25.4956,-38.5027,-6.39314,1014.45
233618,-0.157819,9.75131,1.31038,0.7,-0.07,-0.42,25.3524,-38.4448,-7.37136,1014.45
233624,-0.186514,9.72262,1.32951,0.42,0.14,-0.28,25.2378,-39.8629,-7.92427,1014.45
233630,-0.181731,9.72262,1.34864,0.63,0.49,-0.14,25.1232,-40.0365,-6.49238,1014.47
233636,-0.210426,9.74653,1.36298,1.47,0.28,-0.49,24.7508,-38.8211,-7.81085,1014.47
233642,-0.196078,9.74175,1.34864,1.26,0.28,-0.42,25.5529,-39.2841,-6.96022,1014.5
233648,-0.143472,9.73218,1.3582,0.77,-0.21,-0.56,25.5243,-39.8629,-7.49895,1014.5
233654,-0.215208,9.78001,1.36298,0.84,0.14,-0.35,25.0946,-38.387,-7.18706,1014.46
233660,-0.253467,9.82305,1.31994,0.77,-0.28,-0.49,24.98,-39.4866,-6.67668,1014.46
233666,-0.229555,9.80392,1.31516,0.42,-0.28,-0.21,24.7795,-41.194,-7.17288,1014.48
233672,-0.200861,9.78001,1.31516,0.7,-0.49,17.85,25.0086,-39.1973,-7.1587,1014.48
233678,-0.200861,9.78001,1.31994,-0.07,0.42,-0.07,25.6389,-38.85,-7.27212,1014.48
233684,-0.205643,9.76088,1.36298,0.07,0.49,0.14,24.4071,-40.4416,-6.96022,1014.46
233690,-0.186514,9.7561,1.35342,0.49,0.63,0.07,25.7248,-38.85,-6.15213,1014.46
233696,-0.181731,9.79436,1.31516,-0.21,0.28,-0.21,26.355,-38.5606,-7.04529,1014.47
233702,-0.210426,9.7561,1.35342,-0.28,0,0.77,24.6935,-40.5574,-7.07364,1014.47
233708,-0.167384,9.71784,1.3869,0.63,-0.21,0,24.9514,-39.4577,-5.23061,1014.47
233714,-0.172166,9.71784,1.37255,0.63,0.07,-0.21,25.3811,-39.3709,-7.38554,1014.47
233720,-0.186514,9.73218,1.33907,0.14,0.42,0.07,25.2378,-39.7182,-7.08782,1014.49
233726,-0.157819,9.67001,1.37255,0.63,0.07,17.43,25.1805,-40.7889,-6.40731,1014.49
233732,-0.167384,9.69392,1.36777,0.35,0.56,-0.14,25.7535,-39.805,-7.24376,1014.44
233738,-0.157819,9.68914,1.33907,0.77,0,0,24.6649,-39.3709,-7.9668,1014.44
233744,-0.167384,9.68914,1.36298,0.77,-0.07,17.08,24.2065,-40.731,-6.64832,1014.44
233750,-0.181731,9.69392,1.36777,0.49,-0.28,-0.07,24.8368,-39.805,-7.39971,1014.44
233756,-0.167384,9.71784,1.35342,0.84,0.21,-0.42,25.2951,-38.7342,-7.54149,1014.44
233762,-0.13869,9.72262,1.33429,0.7,0.21,-0.56,25.4383,-39.9207,-7.01693,1014.44
233768,-0.200861,9.76088,1.36777,0.28,0.42,-0.21,24.6649,-39.6603,-7.66908,1014.44
233774,-0.205643,9.7561,1.3582,0.63,0.07,-0.28,25.0373,-39.0526,-6.63415,1014.5
233780,-0.229555,9.77044,1.31994,0.7,0,-0.49,25.4956,-40.0944,-7.73996,1014.5
233786,-0.272597,9.85174,1.29125,0.56,-0.21,-0.07,24.2638,-40.5285,-7.05946,1014.47
233792,-0.286944,9.81349,1.30081,0.28,-0.28,0.35,24.6076,-39.2551,-7.49895,1014.47
233798,-0.196078,9.81349,1.32951,0.42,-0.77,0.35,25.4383,-38.85,-7.17288,1014.5
233804,-0.200861,9.80392,1.31994,0.56,-0.14,0.21,24.8368,-40.4127,-6.49238,1014.5
233810,-0.215208,9.78001,1.33907,0.35,0.42,0.49,25.2951,-40.0654,-7.79667,1014.45
233816,-0.181731,9.76088,1.35342,0.28,0.21,0.35,24.6076,-38.1555,-7.20123,1014.45
233822,-0.176949,9.72262,1.41081,0.56,0.42,0.56,24.8941,-40.2101,-6.35061,1014.46
233828,-0.191296,9.7561,1.33907,0,-0.42,0.42,25.1232,-40.4127,-7.21541,1014.46
233834,-0.196078,9.7561,1.31994,0.7,-0.14,0.63,25.1519,-38.8789,-7.14453,1014.41
233840,-0.148254,9.75131,1.34864,0.56,-0.84,0.28,25.6389,-39.7471,-7.04529,1014.41
233846,-0.143472,9.7274,1.34864,-0.28,-0.07,0,25.7248,-40.9047,-7.18706,1014.41
233852,-0.162602,9.70349,1.33429,0.63,-0.7,0,24.7795,-39.4866,-7.10199,1014.5
233858,-0.157819,9.70827,1.35342,0.49,0,-0.28,25.1805,-39.5445,-7.62655,1014.5
233864,-0.153037,9.68914,1.3582,0.49,0.42,-0.21,25.7248,-40.5285,-7.07364,1014.46
233870,-0.157819,9.69392,1.36298,0.07,0.35,-0.35,25.0946,-39.6603,-6.84681,1014.46
233876,-0.153037,9.7274,1.35342,0.42,0.21,-0.49,24.9514,-39.6892,-6.22301,1014.45
233882,-0.162602,9.73218,1.36777,0.63,-0.35,-0.49,24.9514,-40.4995,-6.57744,1014.45
233888,-0.196078,9.7274,1.35342,0.49,-0.28,-0.56,25.7821,-40.9047,-6.61997,1014.46
233894,-0.186514,9.73218,1.3582,0.63,-0.07,-0.21,25.1232,-38.5895,-7.03111,1014.46
233900,-0.253467,9.79914,1.31516,0.28,-0.14,0,24.98,-39.6603,-7.69743,1014.43
233906,-0.272597,9.84696,1.29603,0.28,-0.14,17.71,24.6362,-40.4995,-7.31465,1014.43
233912,-0.224773,9.79914,1.31516,-0.07,0.07,0.35,25.5243,-39.0526,-7.17288,1014.47
233918,-0.129125,9.76566,1.34385,0.07,-0.21,0.42,24.8654,-39.1683,-7.86756,1014.47
233924,-0.186514,9.72262,1.3582,0.07,-0.14,17.71,25.0946,-39.6603,-7.39971,1014.47
233930,-0.196078,9.73697,1.36777,0.49,-0.42,0.14,24.8368,-39.6313,-5.91111,1014.48
233936,-0.172166,9.77044,1.33907,0,0.35,-0.07,25.0086,-38.7053,-7.01693,1014.48
233942,-0.133907,9.68436,1.36777,0.91,0,17.64,25.2951,-39.8918,-6.76174,1014.45
233948,-0.162602,9.66045,1.41559,0.77,0.07,0,24.8368,-40.268,-5.88276,1014.45
233954,-0.191296,9.67001,1.41559,0.7,0.21,-0.14,24.9227,-39.0815,-7.6549,1014.45
233960,-0.196078,9.69871,1.39646,1.26,-0.28,-0.63,25.1232,-38.9947,-7.73996,1014.45
233966,-0.215208,9.70827,1.3582,0.98,0,-0.49,24.4357,-40.0944,-7.00275,1014.47
233972,-0.215208,9.74653,1.30081,0.35,0,-0.35,24.9227,-38.7342,-6.83263,1014.47
233978,-0.172166,9.78001,1.31038,1.05,0.21,-0.42,25.0086,-38.9657,-8.49135,1014.46
233984,-0.162602,9.78001,1.32951,0.49,0,-0.56,24.7795,-40.6442,-6.60579,1014.46
233990,-0.186514,9.77523,1.33429,0.42,0.07,-0.42,24.8081,-39.3709,-7.66908,1014.47
233996,-0.186514,9.76566,1.33907,0.91,0.07,-0.35,25.0373,-39.3998,-7.6549,1014.47
234002,-0.191296,9.78001,1.2769,0.35,-0.49,-0.63,25.0086,-40.0075,-7.13035,1014.45
234008,-0.200861,9.76566,1.30081,0.49,-0.49,-0.28,25.0659,-39.6603,-6.20883,1014.45
234014,-0.234338,9.78957,1.31038,0.14,-0.7,17.64,24.6076,-39.2841,-7.71161,1014.45
234020,-0.229555,9.80392,1.29603,-0.07,-0.21,0.14,25.1232,-40.0075,-7.32883,1014.48
234026,-0.23912,9.75131,1.37255,0,0.21,0.28,25.5529,-40.0944,-7.01693,1014.48
234032,-0.200861,9.7561,1.34864,0.35,0.28,17.71,25.3524,-38.9079,-7.95262,1014.47
234038,-0.167384,9.7561,1.3582,0.28,-0.14,-0.14,24.4071,-38.7921,-8.29287,1014.47
234044,-0.191296,9.71305,1.37255,0.14,-0.77,0.28,25.1805,-40.4127,-6.22301,1014.48
234050,-0.176949,9.7274,1.34864,0.63,-0.49,17.5,24.9514,-39.5445,-7.21541,1014.48
234056,-0.176949,9.70827,1.3582,0.35,0,-0.14,25.5529,-39.5156,-7.88174,1014.44
234062,-0.162602,9.69392,1.36298,0.56,0.35,0,25.5529,-40.4127,-6.56326,1014.44
234068,-0.153037,9.69871,1.33907,0.35,0.42,-0.28,25.5243,-40.5574,-6.77592,1014.48
234074,-0.157819,9.70827,1.33907,0.7,0.07,-0.56,25.5243,-38.8789,-6.33643,1014.48
234080,-0.153037,9.71784,1.34385,0.28,-0.28,-0.7,25.2951,-39.8629,-7.2863,1014.44
234086,-0.162602,9.71305,1.31516,1.05,-0.28,-0.28,25.0086,-40.4706,-7.04529,1014.44
234092,-0.191296,9.74175,1.34864,0.49,-0.21,-0.7,25.5529,-39.776,-8.51971,1014.44
234098,-0.210426,9.7561,1.31994,0.21,0.49,-0.35,25.2378,-39.8918,-7.37136,1014.43
234104,-0.23912,9.77044,1.30081,0.21,0.14,-0.56,24.5503,-40.4416,-7.48478,1014.43
234110,-0.224773,9.7561,1.32472,-0.07,-0.14,-0.35,23.9201,-40.8468,-7.49895,1014.43
234116,-0.277379,9.78479,1.34385,0.14,-0.49,0.07,24.5503,-39.313,-6.44985,1014.43
234122,-0.21999,9.77523,1.31994,0.21,-0.28,0.14,25.1805,-40.0654,-6.54909,1014.47
234128,-0.167384,9.75131,1.31994,-0.07,-0.84,-0.07,24.98,-40.5285,-5.1739,1014.47
234134,-0.224773,9.79914,1.33429,-0.21,-0.28,0.42,24.9514,-39.2262,-6.56326,1014.46
234140,-0.263032,9.79914,1.31994,0.49,-0.77,0.42,24.9227,-39.6892,-7.24376,1014.46
234146,-0.153037,9.70827,1.33429,0,-0.35,0.56,24.98,-41.0783,-6.80427,1014.43
234152,-0.109995,9.70349,1.38211,0.07,0.35,0.21,25.4383,-39.3998,-6.93187,1014.43
234158,-0.167384,9.69871,1.40603,0.56,0.21,-17.57,24.9514,-39.0815,-7.52731,1014.47
234164,-0.162602,9.72262,1.37255,0.21,0.28,0.07,24.8368,-39.6892,-6.36478,1014.47
234170,-0.167384,9.70349,1.31994,0.42,-0.56,0,25.3238,-39.6024,-7.44225,1014.47
234176,-0.133907,9.74653,1.31994,0.35,0,-0.07,25.3811,-39.0526,-7.51313,1014.47
234182,-0.148254,9.72262,1.35342,0.21,-0.35,0.07,25.0086,-40.1522,-7.07364,1014.47
234188,-0.157819,9.7274,1.31516,0.35,0.14,-0.63,24.9514,-40.5285,-6.54909,1014.47
234194,-0.157819,9.70349,1.32951,0.7,0.21,-0.49,25.868,-39.4866,-7.2863,1014.47
234200,-0.143472,9.71305,1.34864,0.21,0.14,-0.35,25.0659,-39.8629,-7.05946,1014.5
234206,-0.21999,9.70827,1.36777,0.35,0.42,-0.63,24.9514,-40.5285,-6.49238,1014.5
234212,-0.200861,9.74653,1.32472,0.42,0.21,-0.42,24.4644,-39.6603,-7.41389,1014.48
234218,-0.176949,9.74653,1.2769,0.35,-0.21,-0.49,25.6389,-39.1973,-7.48478,1014.48
234224,-0.181731,9.7274,1.32472,0.49,-0.14,-0.28,25.5816,-40.0365,-6.30807,1014.48
234230,-0.196078,9.77523,1.34864,0.28,-0.07,-0.35,25.6675,-40.0075,-6.91769,1014.48
234236,-0.248685,9.74175,1.3869,0.21,-0.42,-0.07,25.6102,-39.8918,-7.59819,1014.5
234242,-0.25825,9.73697,1.36777,0.84,-0.21,0.21,24.7508,-40.1233,-7.31465,1014.5
234248,-0.25825,9.80392,1.36298,0.21,-0.07,0.21,25.1232,-39.8918,-6.9744,1014.46
234254,-0.248685,9.77523,1.34385,-0.21,-0.28,0.49,25.3811,-38.9079,-7.95262,1014.46
234260,-0.133907,9.74653,1.29603,0.21,-0.56,0.35,25.1519,-39.2841,-7.32883,1014.46
234266,-0.167384,9.73697,1.35342,0.28,-0.35,0.21,25.6389,-40.6442,-7.31465,1014.45
234272,-0.157819,9.71784,1.34864,0.28,0,0.14,25.1519,-39.5735,-8.22199,1014.45
234278,-0.162602,9.71784,1.40124,0.07,0.35,0.21,26.0686,-39.1104,-7.13035,1014.48
234284,-0.13869,9.69392,1.37733,0.35,0.14,17.57,25.6962,-40.731,-7.85338,1014.48
234290,-0.157819,9.70349,1.34385,0.63,0,-0.07,25.4383,-39.3998,-6.87516,1014.46
234296,-0.181731,9.70349,1.3582,0.42,0.21,-0.21,25.6389,-38.85,-7.61237,1014.46
234302,-0.167384,9.7274,1.32951,0.77,-0.07,-0.56,25.2665,-40.7889,-7.49895,1014.5
234308,-0.157819,9.7274,1.34864,0.49,0.35,-0.42,25.2378,-40.0654,-7.07364,1014.5
234314,-0.186514,9.76566,1.31516,0.42,0.21,-0.21,24.493,-38.9368,-8.67566,1014.48
234320,-0.157819,9.76088,1.3056,0.35,0.21,-0.49,25.7821,-40.3548,-7.92427,1014.48
234326,-0.181731,9.74653,1.31516,0.28,-0.14,-0.42,24.7508,-40.7021,-6.36478,1014.47
234332,-0.196078,9.74653,1.32951,0.35,-0.07,0.14,24.579,-39.1104,-8.1511,1014.47
234338,-0.234338,9.7274,1.33907,0,-0.07,-0.56,25.5243,-39.0815,-7.7825,1014.47
234344,-0.215208,9.7561,1.32951,0.28,-0.14,-0.21,25.1232,-40.9047,-6.39314,1014.48
234350,-0.210426,9.73697,1.3582,0.77,0.21,0.42,25.2951,-39.776,-6.67668,1014.48
234356,-0.248685,9.81349,1.34385,0.07,-0.07,0,24.9514,-39.1104,-7.83921,1014.48
234362,-0.21999,9.76566,1.34864,0.42,-0.14,0.84,25.1805,-40.5863,-8.1511,1014.48
234368,-0.13869,9.74175,1.33907,0.35,0.07,0.7,24.4357,-40.6153,-7.98098,1014.48
234374,-0.153037,9.70349,1.39646,0.56,0.21,0,25.1232,-38.3291,-7.71161,1014.48
234380,-0.200861,9.69392,1.41081,0.91,-0.07,0.21,25.467,-39.8629,-8.463,1014.46
234386,-0.157819,9.74175,1.33429,0.56,-0.21,0.14,24.579,-40.7021,-7.58402,1014.46
234392,-0.172166,9.71784,1.34385,0.63,0,-0.21,25.2951,-39.8918,-7.88174,1014.49
234398,-0.167384,9.71305,1.36298,0.42,0.14,0,25.2092,-38.5317,-7.99515,1014.49
234404,-0.143472,9.73218,1.32472,0.56,0.21,-0.35,24.8941,-40.4995,-8.33541,1014.47
234410,-0.167384,9.7274,1.31516,0.42,0.35,-0.21,24.6362,-40.0944,-8.37794,1014.47
234416,-0.143472,9.7274,1.3056,0.14,0,-0.49,24.6649,-39.1973,-7.51313,1014.47
234422,-0.172166,9.72262,1.35342,0,-0.14,-0.35,24.2638,-40.5285,-8.09439,1014.46
234428,-0.186514,9.71784,1.34385,0.42,-0.28,-0.35,24.9514,-40.6731,-7.6549,1014.46
234434,-0.167384,9.73697,1.31516,0.07,-0.07,-0.63,24.8368,-39.3998,-7.66908,1014.45
234440,-0.196078,9.75131,1.32472,0.21,-0.14,-0.42,25.2665,-39.7182,-7.51313,1014.45
234446,-0.210426,9.69392,1.36298,0.56,-0.28,-0.56,25.5529,-40.76,-7.04529,1014.48
234452,-0.181731,9.70349,1.39646,0.63,-0.14,-0.7,24.4644,-39.7182,-7.92427,1014.48
234458,-0.234338,9.7561,1.37733,0.49,0.07,-0.14,25.2951,-38.6474,-8.34958,1014.46
234464,-0.224773,9.78957,1.32472,0.63,-0.07,-0.21,24.2638,-40.9047,-6.9744,1014.46
234470,-0.205643,9.78001,1.31516,0.49,-0.63,-0.35,24.9227,-39.0526,-7.2863,1014.45
234476,-0.21999,9.7561,1.37255,0.7,-0.21,0.07,24.7508,-39.0526,-7.62655,1014.45
234482,-0.215208,9.77044,1.31994,0.7,-0.7,-0.07,25.0373,-40.2101,-7.83921,1014.48
234488,-0.181731,9.85174,1.28647,0.42,-0.07,0.42,24.8941,-40.0075,-7.6549,1014.48
234494,-0.172166,9.79436,1.29125,-0.14,-0.21,0.49,25.1232,-39.0526,-7.92427,1014.51
234500,-0.181731,9.7561,1.32951,0,-0.07,0.21,24.8941,-39.9207,-7.75414,1014.51
234506,-0.162602,9.70827,1.34385,0.14,-0.42,0.14,25.2378,-40.268,-8.17946,1014.51
234512,-0.172166,9.71784,1.35342,0.14,0.42,0.07,24.8368,-39.1394,-7.88174,1014.45
234518,-0.143472,9.68436,1.3869,0.21,-0.07,0,24.8941,-39.2262,-7.86756,1014.45
234524,-0.148254,9.65567,1.40124,0.28,0.28,-0.14,25.2378,-40.6731,-7.45642,1014.48
234530,-0.191296,9.7274,1.34385,0.77,-0.42,-0.49,25.6389,-39.342,-7.38554,1014.48
234536,-0.181731,9.76088,1.27212,-0.07,-0.14,-0.21,25.4956,-38.7921,-7.89591,1014.47
234542,-0.229555,9.72262,1.36298,0,0.07,-0.35,25.5529,-39.9786,-7.17288,1014.47
234548,-0.215208,9.75131,1.36298,0.14,-0.14,0.28,25.5243,-40.0075,-6.50655,1014.44
234554,-0.234338,9.75131,1.33429,0.35,-0.21,0.21,25.4956,-38.2423,-7.41389,1014.44
234560,-0.196078,9.79914,1.3056,0.35,-0.35,0.14,24.8941,-39.6603,-7.59819,1014.45
234566,-0.191296,9.77523,1.29125,-0.21,0.14,0.14,25.2092,-40.2391,-7.82503,1014.45
234572,-0.181731,9.75131,1.33907,0,0.14,0.07,25.2378,-38.9368,-7.75414,1014.44
234578,-0.172166,9.7274,1.38211,0.07,0.28,0.21,25.4383,-38.5895,-7.45642,1014.44
234584,-0.167384,9.71784,1.38211,0.35,-0.7,0.14,25.1805,-40.8178,-7.7825,1014.44
234590,-0.196078,9.80392,1.28647,0.28,-0.42,-0.07,25.4383,-39.4577,-8.23617,1014.45
234596,-0.196078,9.84218,1.27212,-0.42,-0.35,0.49,24.98,-38.6764,-7.95262,1014.45
234602,-0.215208,9.79436,1.32472,-0.28,-0.28,0.77,24.9227,-39.6892,-7.08782,1014.46
234608,-0.215208,9.81349,1.33429,-0.21,-0.21,0.77,24.8368,-40.7021,-7.49895,1014.46
234614,-0.172166,9.74653,1.36777,-0.49,-0.21,0.42,25.467,-38.8789,-7.71161,1014.48
234620,-0.200861,9.71305,1.34864,-0.49,0.63,0.63,25.3811,-40.76,-8.463,1014.48
234626,-0.129125,9.72262,1.37255,-0.42,0.28,0.49,25.1519,-40.731,-8.25034,1014.47
234632,-0.153037,9.66523,1.39646,-0.07,0,0.35,25.7821,-39.0815,-8.33541,1014.47
234638,-0.153037,9.69392,1.3869,0.49,-0.49,0.35,25.0946,-39.7182,-7.91009,1014.43
234644,-0.162602,9.69392,1.36777,0.21,-0.07,0.28,25.868,-40.9336,-6.94604,1014.43
234650,-0.124342,9.67958,1.3582,0.35,0.14,0.21,24.6076,-39.7471,-6.9744,1014.45
234656,-0.124342,9.69871,1.35342,0.14,0.56,-0.21,25.8967,-38.0397,-7.55566,1014.45
234662,-0.114778,9.65567,1.44428,0.77,0.42,-0.49,25.2092,-39.6313,-7.44225,1014.48
234668,-0.109995,9.63654,1.40603,1.26,0.21,-0.56,25.4383,-40.0075,-6.49238,1014.48
234674,-0.148254,9.73218,1.31994,0.28,-0.35,-0.7,25.0659,-38.9079,-7.76832,1014.48
234680,-0.181731,9.7561,1.29603,0.84,-0.35,-0.84,25.6675,-39.6024,-7.61237,1014.45
234686,-0.196078,9.77523,1.29603,0.49,-0.56,-0.77,24.6935,-40.1812,-7.81085,1014.45
234692,-0.196078,9.75131,1.30081,0,0.42,-0.77,25.5816,-39.313,-8.06604,1014.5
234698,-0.176949,9.7561,1.32472,0.28,-0.07,-0.42,25.3238,-38.9657,-6.26554,1014.5
234704,-0.176949,9.75131,1.35342,0.28,0.21,-0.91,25.8394,-40.3838,-7.31465,1014.49
234710,-0.143472,9.71784,1.38211,0.28,-0.14,-0.77,25.2951,-39.8918,-7.03111,1014.49
234716,-0.205643,9.72262,1.3582,0.49,0.14,-0.91,25.467,-39.0526,-7.58402,1014.48
234722,-0.224773,9.73697,1.36777,0.56,-0.21,-0.63,25.0373,-40.4416,-6.81845,1014.48
234728,-0.21999,9.78001,1.36298,0.49,0,-0.56,25.0946,-40.6153,-7.1587,1014.46
234734,-0.224773,9.80392,1.34385,0.42,0.21,-0.49,24.9514,-38.9657,-7.37136,1014.46
234740,-0.253467,9.8087,1.31038,0.21,0.07,-0.49,25.5243,-40.0365,-7.32883,1014.5
234746,-0.153037,9.76088,1.35342,0.63,-0.35,-0.42,24.8941,-41.2809,-7.48478,1014.5
234752,-0.172166,9.73218,1.41081,0.42,0,-0.49,25.9253,-39.313,-7.42807,1014.5
234758,-0.191296,9.73218,1.36298,0.35,-0.21,-0.42,24.8654,-40.1522,-6.54909,1014.47
234764,-0.162602,9.74175,1.34864,0.77,0.07,-0.49,25.0373,-40.9047,-6.1663,1014.47
234770,-0.181731,9.69392,1.37733,0.56,0.28,-0.56,25.6675,-39.8339,-8.16528,1014.47
234776,-0.148254,9.69392,1.34864,0.42,0.28,-0.42,25.1519,-39.0236,-8.17946,1014.47
234782,-0.167384,9.68914,1.34864,0.21,-0.21,-1.05,23.9774,-40.0944,-7.42807,1014.44
234788,-0.157819,9.69871,1.38211,1.05,0,-0.7,24.8941,-40.1522,-7.52731,1014.44
234794,-0.176949,9.7274,1.31994,1.05,0.35,-0.49,25.0373,-38.5027,-7.343,1014.45
234800,-0.243902,9.72262,1.36298,0.7,0.07,-0.84,25.3811,-39.3998,-7.73996,1014.45
234806,-0.181731,9.70349,1.38211,0.91,0.28,-0.7,25.3811,-40.4706,-7.32883,1014.46
234812,-0.167384,9.69871,1.39168,1.33,-0.21,-0.98,24.8368,-39.313,-7.62655,1014.46
234818,-0.196078,9.75131,1.33907,1.26,0.07,-1.12,25.5529,-38.5027,-6.56326,1014.43
234824,-0.215208,9.76088,1.31038,0.7,-0.07,-0.56,25.3524,-40.8178,-6.7901,1014.43
234830,-0.229555,9.76566,1.29125,0.91,0.21,-0.91,25.6389,-39.4577,-7.81085,1014.43
234836,-0.243902,9.79914,1.32472,1.26,-0.42,-0.84,25.7535,-39.313,-7.88174,1014.47
234842,-0.181731,9.8087,1.31038,0.49,-0.49,-0.7,25.5529,-40.3838,-7.89591,1014.47
234848,-0.248685,9.82305,1.34385,0.7,-0.21,-0.7,25.0946,-40.6442,-6.13795,1014.47
234854,-0.248685,9.81349,1.33429,0.63,-0.14,-0.28,24.8368,-39.2841,-7.45642,1014.47
234860,-0.181731,9.78001,1.32951,0.07,-0.21,0.07,24.7222,-40.1522,-7.18706,1014.44
234866,-0.162602,9.73218,1.37255,0.35,0,-0.21,24.8654,-40.76,-7.86756,1014.44
234872,-0.153037,9.71784,1.37733,0.7,0.42,-0.14,25.5529,-40.0075,-7.01693,1014.47
234878,-0.148254,9.73218,1.33429,0.63,0.14,-0.28,24.8941,-39.342,-8.44882,1014.47
234884,-0.172166,9.7274,1.31994,0.35,0.42,-0.35,25.3524,-40.5285,-6.91769,1014.46
234890,-0.157819,9.70349,1.35342,0.63,-0.07,-0.84,24.7508,-39.8339,-8.25034,1014.46
234896,-0.162602,9.69392,1.37733,0.7,0.14,-0.77,24.8081,-38.6764,-7.86756,1014.43
234902,-0.157819,9.70349,1.39168,0.91,-0.14,-0.91,25.467,-39.8339,-7.61237,1014.43
234908,-0.186514,9.69871,1.36777,0.77,0.07,-0.35,24.7508,-40.2969,-7.79667,1014.5
234914,-0.191296,9.73218,1.3869,0.49,-0.07,-0.84,24.3211,-39.0236,-7.69743,1014.5
234920,-0.229555,9.71305,1.38211,1.19,-0.35,-0.7,24.8654,-39.1683,-7.61237,1014.5
234926,-0.215208,9.79436,1.31994,0.63,-0.21,-0.84,24.4071,-40.7021,-7.38554,1014.5
234932,-0.21999,9.80392,1.28647,0.63,-0.49,-0.42,25.8394,-39.3998,-6.63415,1014.5
234938,-0.21999,9.80392,1.29125,0.42,0.28,-0.42,25.2665,-39.6313,-7.4706,1014.48
234944,-0.21999,9.74175,1.34385,0.77,-0.14,-0.7,25.2951,-40.1812,-7.10199,1014.48
234950,-0.176949,9.73218,1.35342,0.28,0.42,-0.56,24.8654,-39.3998,-7.1587,1014.47
234956,-0.200861,9.77523,1.3056,0.35,-0.14,-0.28,25.6102,-38.6474,-7.73996,1014.47
234962,-0.176949,9.76566,1.31994,0.56,-0.56,-0.35,25.2951,-40.3259,-7.00275,1014.5
234968,-0.176949,9.75131,1.32951,0.42,-0.49,-0.35,25.2665,-40.2391,-7.20123,1014.5
234974,-0.224773,9.76088,1.31516,0.49,-0.35,-0.21,25.7248,-38.0108,-7.38554,1014.47
234980,-0.23912,9.73697,1.32951,0.49,0.77,-0.28,25.5243,-39.6313,-7.22959,1014.47
234986,-0.253467,9.7274,1.38211,0.63,-0.07,-0.21,25.6962,-40.8757,-7.31465,1014.45
234992,-0.200861,9.71305,1.39168,0.84,0.63,-0.49,26.0113,-39.3998,-7.25794,1014.45
234998,-0.224773,9.73218,1.39168,0.56,-0.28,-0.42,25.6102,-38.7921,-7.30047,1014.45
235004,-0.162602,9.76088,1.3582,0.84,0.21,0.07,25.2665,-40.2391,-6.59162,1014.48
235010,-0.196078,9.74175,1.3056,0.42,-0.21,-0.35,25.1519,-39.342,-6.90351,1014.48
235016,-0.215208,9.7561,1.31516,0.56,-0.35,-0.28,24.98,-38.8789,-6.03871,1014.47
235022,-0.181731,9.78479,1.33429,0.21,-0.56,-0.63,25.2092,-40.0365,-6.18048,1014.47
235028,-0.191296,9.7561,1.31994,0.42,-0.35,-0.28,24.8081,-39.6313,-7.21541,1014.45
235034,-0.200861,9.75131,1.30081,0.56,0.28,-0.28,24.7795,-38.387,-7.10199,1014.45
235040,-0.205643,9.76088,1.32472,0.07,-0.28,-0.42,25.8394,-39.5156,-7.38554,1014.46
235046,-0.224773,9.7274,1.36298,0.14,0.28,-0.35,25.6675,-40.1522,-7.2863,1014.46
235052,-0.186514,9.74175,1.34385,0.56,0.07,0.07,24.8654,-38.9079,-7.07364,1014.47
235058,-0.215208,9.76088,1.33907,0.14,0.21,-0.28,24.8941,-39.0526,-7.86756,1014.47
235064,-0.215208,9.77044,1.30081,0.35,0.28,-0.07,25.9826,-40.0654,-6.42149,1014.46
235070,-0.200861,9.76088,1.31038,0.35,-0.56,-0.21,25.4383,-39.6892,-7.1587,1014.46
235076,-0.176949,9.70827,1.35342,0.07,0.14,0,25.2092,-38.5606,-7.18706,1014.46
235082,-0.215208,9.73218,1.34864,0.14,-0.35,-0.21,25.4097,-40.1233,-7.01693,1014.48
235088,-0.176949,9.7274,1.3582,0.14,-0.14,-0.7,24.8081,-40.1233,-6.44985,1014.48
235094,-0.224773,9.7274,1.37733,-0.07,-0.14,-0.35,25.9826,-38.6474,-8.00933,1014.46
235100,-0.263032,9.74175,1.36298,0.49,0.14,-0.07,25.6102,-39.776,-7.58402,1014.46
235106,-0.186514,9.78001,1.31516,0.28,-0.21,-0.21,25.2951,-40.0654,-8.12275,1014.47
235112,-0.162602,9.69392,1.39168,0.49,0.28,-0.21,25.3811,-38.8211,-7.39971,1014.47
235118,-0.21999,9.71784,1.36298,0.56,-0.21,-0.21,25.7248,-39.4288,-7.27212,1014.45
235124,-0.229555,9.73218,1.36777,0.21,-0.63,-0.42,25.0373,-39.8629,-7.27212,1014.45
235130,-0.167384,9.74653,1.34864,0.63,-0.42,-0.35,24.9514,-39.0236,-6.2939,1014.46
235136,-0.143472,9.71784,1.35342,0.21,-0.14,-0.56,25.0946,-38.0397,-6.54909,1014.46
235142,-0.167384,9.70827,1.33907,0.56,0.35,-0.56,24.9227,-39.313,-6.7901,1014.5
235148,-0.176949,9.69392,1.34385,0.84,0.21,-0.49,24.9514,-39.5445,-7.30047,1014.5
235154,-0.157819,9.67958,1.38211,0.7,0.63,-0.91,25.3811,-38.358,-7.1587,1014.49
235160,-0.191296,9.67958,1.40124,0.77,0.21,-0.77,25.7248,-40.0944,-6.96022,1014.49
235166,-0.176949,9.71305,1.34385,1.4,0.07,-0.91,25.2665,-39.9786,-6.88934,1014.49
235172,-0.191296,9.74175,1.28647,1.26,0.21,-1.26,25.9253,-38.7921,-7.37136,1014.46
235178,-0.205643,9.75131,1.29125,0.91,0.07,-0.84,25.7248,-39.0236,-7.99515,1014.46
235184,-0.196078,9.73218,1.31516,0.91,0.49,-1.12,25.2092,-40.9336,-7.07364,1014.46
235190,-0.196078,9.73697,1.35342,1.19,-0.21,-1.12,24.5217,-39.776,-7.4706,1014.46
235196,-0.200861,9.76088,1.31516,0.77,-0.21,-1.26,25.7821,-39.0526,-6.35061,1014.46
235202,-0.282162,9.83261,1.26255,1.05,-0.35,-0.77,25.467,-40.4706,-6.84681,1014.46
235208,-0.310856,9.85174,1.23864,0.07,-0.07,-0.98,25.5243,-40.5574,-6.26554,1014.46
235214,-0.215208,9.81349,1.25777,-0.07,-0.14,-0.49,26.441,-38.6474,-8.03769,1014.46
235220,-0.186514,9.7274,1.34864,0.42,-0.28,-0.63,26.1545,-41.2519,-6.86098,1014.43
235226,-0.196078,9.70827,1.39168,0.56,-0.21,-0.49,25.0946,-41.2519,-7.03111,1014.43
235232,-0.234338,9.71784,1.40603,0.7,0.28,-0.49,25.8967,-39.776,-6.35061,1014.45
235238,-0.191296,9.74175,1.36777,0.98,0.21,-0.21,25.5529,-39.4288,-7.64073,1014.45
235244,-0.210426,9.74175,1.33907,0.98,0.49,-0.63,25.5816,-40.4995,-6.87516,1014.45
235250,-0.215208,9.75131,1.33429,0.7,-0.14,-0.63,25.6962,-39.0526,-7.343,1014.46
235256,-0.210426,9.71784,1.32472,0.91,0,-0.42,25.4097,-39.1683,-7.07364,1014.46
235262,-0.229555,9.74175,1.32951,1.26,-0.14,-0.77,24.8654,-39.776,-6.81845,1014.46
235268,-0.167384,9.70349,1.31516,0.98,0.28,-0.84,25.7821,-39.8918,-7.42807,1014.46
235274,-0.21999,9.69871,1.3582,0.77,0.35,-0.49,24.98,-38.5606,-7.61237,1014.49
235280,-0.234338,9.70827,1.37255,0.77,0.14,-0.91,25.3811,-39.9497,-7.59819,1014.49
235286,-0.210426,9.69871,1.3869,1.33,0.14,-0.84,25.2665,-41.1072,-6.63415,1014.46
235292,-0.282162,9.76088,1.33907,1.4,0,-0.91,24.9514,-39.342,-6.76174,1014.46
235298,-0.296509,9.88044,1.20995,0.63,0.42,-0.56,25.4097,-38.9657,-7.22959,1014.5
235304,-0.272597,9.88522,1.20516,0,-0.07,0,25.8108,-40.8178,-6.71921,1014.5
235310,-0.234338,9.79914,1.30081,0.35,0.07,0.14,25.7821,-39.1683,-6.33643,1014.47
235316,-0.243902,9.73697,1.39168,0.07,-0.21,0.07,25.7535,-38.3001,-6.49238,1014.47
235322,-0.210426,9.7561,1.31516,0.35,-0.14,0.14,25.5243,-40.7889,-6.44985,1014.47
235328,-0.21999,9.77523,1.31038,0.56,-0.07,-0.07,26.0399,-40.8178,-6.53491,1014.46
235334,-0.224773,9.7274,1.37255,0.07,-0.21,0.28,26.4983,-38.9368,-6.9744,1014.46
235340,-0.191296,9.7274,1.35342,0.35,-0.63,0,24.7222,-40.9336,-8.03769,1014.48
235346,-0.176949,9.73697,1.30081,0.56,-0.14,0.14,25.8394,-40.4706,-6.12377,1014.48
235352,-0.167384,9.70349,1.34385,0.77,-0.14,-0.21,25.6102,-39.8339,-6.96022,1014.43
235358,-0.200861,9.69392,1.34385,0.42,0.28,-0.07,25.7821,-39.6892,-6.59162,1014.43
235364,-0.172166,9.70827,1.31516,0.63,0.21,0,25.2665,-40.8468,-6.93187,1014.45
235370,-0.186514,9.71784,1.3056,0.28,-0.21,-0.35,26.6702,-39.1104,-6.71921,1014.45
235376,-0.200861,9.67958,1.32951,0.56,-0.07,-0.49,26.0399,-39.0815,-6.73339,1014.46
235382,-0.215208,9.69871,1.36777,0.7,-0.14,-0.63,26.5842,-40.3838,-6.52073,1014.46
235388,-0.224773,9.70349,1.32472,0.77,0,-0.56,25.4383,-40.2391,-6.61997,1014.48
235394,-0.229555,9.75131,1.29603,0.56,0.07,-0.49,26.355,-39.1104,-6.93187,1014.48
235400,-0.25825,9.7561,1.31516,0.63,0.07,-0.21,25.4956,-40.9915,-7.38554,1014.46
235406,-0.306074,9.78001,1.33429,0.42,-0.42,0.07,25.4097,-40.8468,-6.18048,1014.46
235412,-0.229555,9.7561,1.32951,0.7,0.21,0,25.3524,-39.9207,-7.20123,1014.46
235418,-0.205643,9.73218,1.31994,0.91,-0.14,-0.21,25.8967,-39.6892,-7.6549,1014.49
235424,-0.229555,9.73218,1.3582,0.63,0.07,-0.14,24.8941,-40.4995,-6.96022,1014.49
235430,-0.215208,9.73218,1.31994,0.91,-0.07,-0.35,25.467,-39.776,-7.14453,1014.47
235436,-0.210426,9.73697,1.3056,0.7,0.21,-0.14,25.4383,-38.6185,-7.75414,1014.47
235442,-0.157819,9.71305,1.34864,0.98,-0.35,-0.35,24.2352,-40.9625,-6.30807,1014.46
235448,-0.215208,9.70827,1.33429,0.77,0.28,-0.49,25.3524,-39.8918,-7.56984,1014.46
235454,-0.186514,9.75131,1.28168,1.12,-0.42,-0.28,25.5816,-38.3291,-6.71921,1014.47
235460,-0.200861,9.75131,1.28168,1.33,0.63,-0.49,25.2378,-39.805,-5.8544,1014.47
235466,-0.191296,9.73218,1.31994,0.98,0.35,-0.84,24.7222,-39.9207,-6.54909,1014.46
235472,-0.224773,9.73218,1.31994,1.19,0.28,-0.42,25.5816,-38.2133,-6.96022,1014.46
235478,-0.200861,9.71784,1.35342,0.84,-0.07,-0.7,24.98,-39.3998,-7.21541,1014.45
235484,-0.215208,9.75131,1.32472,0.84,0.21,-1.33,24.9514,-39.9497,-7.21541,1014.45
235490,-0.243902,9.75131,1.30081,1.12,0.07,-0.77,25.7248,-39.4288,-6.54909,1014.45
235496,-0.291726,9.79914,1.27212,1.05,0.21,-0.63,25.0659,-39.0526,-7.89591,1014.45
235502,-0.315638,9.79914,1.26255,0.35,0.14,-0.28,25.4956,-40.268,-6.09542,1014.45
235508,-0.272597,9.79436,1.27212,0.42,-0.07,-0.07,24.8081,-39.8629,-6.57744,1014.47
235514,-0.243902,9.79436,1.25299,0.28,0.49,-0.21,25.2951,-38.9947,-8.05186,1014.47
235520,-0.291726,9.78001,1.29603,0,0,-0.07,25.3811,-39.9786,-7.01693,1014.48
235526,-0.243902,9.76566,1.3056,0.91,0.28,0.14,25.1805,-40.2391,-6.57744,1014.48
235532,-0.191296,9.7561,1.31038,0,-0.07,-0.21,26.441,-39.2262,-7.2863,1014.47
235538,-0.196078,9.69392,1.3869,0.42,-0.28,-0.07,24.9227,-39.342,-6.61997,1014.47
235544,-0.172166,9.69392,1.3582,0.84,-0.07,0.07,24.7222,-41.6281,-6.81845,1014.45
235550,-0.229555,9.70827,1.31994,0.91,0.21,-0.42,26.0113,-39.1394,-7.4706,1014.45
235556,-0.191296,9.72262,1.29125,0.63,0.56,-0.42,25.467,-38.9368,-7.01693,1014.46
235562,-0.196078,9.73697,1.29125,0.7,0.49,-0.49,25.4956,-40.1812,-6.22301,1014.46
235568,-0.186514,9.70827,1.29125,0.63,0.63,-0.63,24.8368,-40.1522,-6.86098,1014.45
235574,-0.186514,9.71305,1.31038,0.56,-0.28,-0.49,25.2951,-39.3709,-7.38554,1014.45
235580,-0.176949,9.73218,1.29125,0.7,-0.21,-0.42,25.0946,-40.4706,-6.42149,1014.45
235586,-0.224773,9.73697,1.31516,0.77,-0.21,-0.91,25.6102,-40.5574,-6.9744,1014.44
235592,-0.224773,9.74653,1.31038,0.7,0.42,-0.56,25.5243,-39.6024,-6.30807,1014.44
235598,-0.23912,9.7561,1.29603,0.35,-0.14,-1.12,25.4383,-39.7182,-7.2863,1014.45
235604,-0.229555,9.76088,1.26734,0.91,0.56,-0.77,25.6675,-40.6731,-6.67668,1014.45
235610,-0.253467,9.77044,1.3056,0.49,0.42,-0.7,25.4956,-39.342,-6.7901,1014.45
235616,-0.286944,9.7274,1.35342,0.63,0.77,-0.42,25.7248,-39.0526,-7.11617,1014.45
235622,-0.301291,9.8087,1.29603,0.77,-0.28,-0.21,25.2665,-40.6731,-6.2939,1014.44
235628,-0.229555,9.78479,1.29603,0.7,-0.28,-0.07,25.1519,-39.7182,-7.61237,1014.44
235634,-0.224773,9.73218,1.3056,0.49,-0.56,-0.49,25.6389,-39.1104,-6.91769,1014.49
235640,-0.200861,9.71305,1.34385,1.26,0,-0.35,25.5243,-40.1233,-7.14453,1014.49
235646,-0.205643,9.72262,1.33429,0.77,0.56,-0.14,24.8081,-41.3098,-6.4782,1014.49
235652,-0.229555,9.71784,1.31994,0.91,0.42,-0.49,25.467,-38.9947,-7.04529,1014.49
235658,-0.186514,9.7561,1.31516,0.49,0.56,-0.28,25.5529,-39.2841,-7.31465,1014.49
235664,-0.21999,9.75131,1.32951,0.7,0,-0.7,25.8108,-40.4706,-6.53491,1014.45
235670,-0.200861,9.75131,1.28647,1.54,0.28,-0.56,25.6675,-39.1683,-7.49895,1014.45
235676,-0.215208,9.74653,1.27212,0.91,0.28,-0.84,25.467,-39.313,-6.59162,1014.46
235682,-0.21999,9.77523,1.27212,0.28,0.35,-0.7,25.5529,-41.0204,-6.56326,1014.46
235688,-0.243902,9.73218,1.28647,0.49,0.49,-0.7,25.4383,-40.1812,-6.12377,1014.48
235694,-0.23912,9.72262,1.33429,0.77,-0.14,-0.7,25.868,-39.5156,-7.37136,1014.48
235700,-0.205643,9.69392,1.31994,0.91,0.21,-0.7,25.6102,-40.4127,-7.17288,1014.48
235706,-0.234338,9.72262,1.31038,0.28,0.21,-0.84,25.2092,-40.4995,-7.41389,1014.48
235712,-0.286944,9.75131,1.32472,1.05,0.49,-0.91,26.0686,-39.1394,-7.01693,1014.46
235718,-0.272597,9.79914,1.29125,0.63,-0.28,-0.98,25.2951,-40.0365,-7.82503,1014.46
235724,-0.277379,9.81827,1.28168,0.63,0.14,-0.28,25.5243,-40.6153,-6.03871,1014.46
235730,-0.23912,9.78001,1.31994,0.63,-0.42,-0.7,25.2951,-40.0654,-5.88276,1014.46
235748,-0.272597,9.78479,1.26255,0,0.07,0.21,25.6102,-40.0365,-6.70503,1014.5
235754,-0.205643,9.71305,1.33907,0.49,-0.21,-0.28,25.2378,-39.1683,-6.6625,1014.46
235760,-0.243902,9.71784,1.33429,0.7,-0.14,-0.21,25.1805,-40.0944,-7.13035,1014.46
235766,-0.224773,9.7561,1.29125,0.42,0.28,0.07,25.4956,-40.76,-6.22301,1014.45
235772,-0.23912,9.7561,1.31994,0.56,0.14,-0.07,25.3811,-38.8211,-5.95365,1014.45
235778,-0.200861,9.69392,1.29125,1.05,0.14,-0.14,25.6102,-39.4866,-7.45642,1014.46
235784,-0.267814,9.68436,1.32951,0.84,0.28,-0.35,25.0946,-40.76,-6.60579,1014.46
235790,-0.25825,9.72262,1.3056,0.91,0.07,-0.21,25.2951,-39.9786,-6.12377,1014.47
235796,-0.243902,9.77523,1.30081,1.33,0.42,-0.35,25.8967,-39.5156,-7.11617,1014.47
235802,-0.21999,9.75131,1.28168,0.63,-0.35,-0.49,25.868,-40.0654,-6.37896,1014.47
235808,-0.215208,9.74175,1.26255,0.35,0.14,-0.56,25.7821,-40.4706,-6.2939,1014.47
235814,-0.248685,9.73218,1.29125,1.33,0.21,-0.56,25.1805,-39.2841,-7.9668,1014.47
235820,-0.234338,9.74175,1.28647,0.42,0.28,-0.21,26.355,-40.4416,-7.52731,1014.47
235826,-0.205643,9.73218,1.2769,0.42,-0.21,-0.42,25.1519,-40.2101,-6.50655,1014.47
235832,-0.215208,9.73697,1.3056,0.77,-0.21,-0.49,25.868,-39.0815,-7.73996,1014.48
235838,-0.224773,9.75131,1.29125,0.56,0.21,-0.49,26.0399,-39.4288,-7.10199,1014.48
235844,-0.373027,9.83261,1.26734,0.63,-0.07,-0.14,26.0399,-40.7021,-7.73996,1014.46
235850,-0.315638,9.77044,1.29125,0.28,-0.56,-0.21,24.9227,-40.8757,-8.16528,1014.46
235856,-0.205643,9.76566,1.2769,0.49,-0.35,0,25.7535,-38.7053,-7.49895,1014.48
235862,-0.200861,9.73218,1.30081,0.49,0,0.07,25.3238,-40.3838,-7.58402,1014.48
235868,-0.23912,9.74175,1.31516,0.56,-0.21,-0.63,24.9514,-40.0654,-8.08022,1014.45
235874,-0.25825,9.72262,1.33429,0.63,0.14,-0.14,25.954,-38.7053,-7.22959,1014.45
235880,-0.215208,9.76566,1.31994,0.7,-0.21,0.07,25.7535,-39.7471,-6.9744,1014.48
235886,-0.25825,9.73218,1.28647,0.21,0.21,-0.35,25.6102,-40.1812,-6.57744,1014.48
235892,-0.263032,9.70349,1.31516,0.63,-0.49,-0.21,25.5529,-38.9368,-7.04529,1014.48
235898,-0.234338,9.69871,1.32472,0.91,0.28,0,26.1545,-39.1973,-6.98858,1014.48
235904,-0.205643,9.72262,1.29125,0.98,-0.14,-0.42,26.0113,-39.8339,-6.74756,1014.48
235910,-0.234338,9.70349,1.33907,0.91,0.56,-0.14,25.0373,-38.9657,-7.24376,1014.49
235916,-0.215208,9.76088,1.29125,0.77,0.49,-0.49,25.3811,-38.5895,-7.03111,1014.49
235922,-0.263032,9.78479,1.28647,1.47,0.77,-0.28,25.5529,-39.9207,-6.12377,1014.49
235928,-0.243902,9.77044,1.23864,1.33,0.21,-0.28,26.4696,-40.2969,-6.52073,1014.49
235934,-0.23912,9.76088,1.24821,0.98,0.28,-0.56,26.0686,-38.2133,-7.44225,1014.44
235940,-0.25825,9.7274,1.26734,0.49,0.28,-0.28,25.6962,-39.8629,-6.67668,1014.44
235946,-0.248685,9.7274,1.29603,0.49,0.77,-0.21,25.5243,-40.3548,-6.33643,1014.47
235952,-0.224773,9.71305,1.30081,0.77,0.35,-0.42,24.5503,-39.6603,-7.91009,1014.47
235958,-0.215208,9.73218,1.28168,0.91,0.49,-0.49,25.467,-40.0944,-6.86098,1014.49
235964,-0.234338,9.74175,1.26734,0.7,-0.14,-0.63,25.8394,-40.7021,-7.55566,1014.49
235970,-0.310856,9.78957,1.29603,0.7,0.14,-0.35,25.3524,-39.7471,-7.32883,1014.47
235976,-0.272597,9.78479,1.27212,0.56,-0.28,-0.35,24.9227,-38.9947,-6.6625,1014.47
235982,-0.25825,9.78001,1.29125,0.42,0.14,-0.35,26.2405,-39.9497,-7.1587,1014.47
235988,-0.310856,9.81349,1.29603,0.63,0.28,-0.07,25.8108,-39.8629,-5.982,1014.48
235994,-0.301291,9.8087,1.26255,0.91,0.14,0.07,25.6962,-38.7632,-7.81085,1014.48
236000,-0.234338,9.74175,1.3056,0.14,-0.14,0.21,25.8394,-39.8629,-6.39314,1014.5
236006,-0.210426,9.69871,1.34864,-0.07,-0.28,-0.07,25.1232,-39.8629,-5.88276,1014.5
236012,-0.176949,9.68436,1.33429,1.33,-0.49,-0.07,25.4956,-39.5445,-6.26554,1014.44
236018,-0.263032,9.73218,1.32951,0.91,0,-0.49,25.3238,-39.4866,-7.54149,1014.44
236024,-0.234338,9.74175,1.31994,0.49,0.63,-0.35,25.6675,-40.4416,-7.08782,1014.46
236030,-0.248685,9.76566,1.26255,1.05,0.49,-0.35,25.2951,-39.5735,-6.01035,1014.46
236036,-0.205643,9.73697,1.25777,0.91,0,-0.35,26.2118,-39.1394,-7.6549,1014.45
236042,-0.248685,9.76566,1.27212,0.84,-0.14,-0.7,24.7508,-40.9047,-6.19466,1014.45
236048,-0.229555,9.74175,1.25299,0.42,-0.07,-0.56,25.2951,-40.5285,-6.83263,1014.45
236054,-0.224773,9.73218,1.26734,0.28,0.63,-0.91,25.6389,-38.6474,-7.05946,1014.45
236060,-0.248685,9.72262,1.2769,0.21,0.14,-0.56,25.0659,-39.9786,-7.27212,1014.46
236066,-0.263032,9.74175,1.29125,0.7,0.35,-0.84,26.1545,-39.9786,-6.6625,1014.46
236072,-0.215208,9.72262,1.28168,0.49,-0.07,-0.84,25.2951,-38.9657,-6.61997,1014.46
236078,-0.196078,9.73697,1.25299,0.84,0,-0.91,25.6102,-39.313,-7.01693,1014.5
236084,-0.234338,9.73697,1.26734,0.7,0.07,-0.98,25.1805,-40.5863,-6.15213,1014.5
236090,-0.21999,9.71784,1.32951,0.49,0.14,-1.12,25.5243,-38.85,-6.36478,1014.47
236096,-0.263032,9.73697,1.31038,1.19,0,-0.84,25.2951,-39.4288,-6.42149,1014.47
236102,-0.23912,9.76566,1.29603,0.77,-0.07,-0.84,25.6102,-40.9047,-6.87516,1014.45
236108,-0.277379,9.76088,1.27212,0.49,-0.35,-0.84,26.0113,-40.4416,-6.94604,1014.45
236114,-0.296509,9.81349,1.25777,0.91,0,-0.21,25.5816,-38.7921,-7.343,1014.45
236120,-0.286944,9.77523,1.26734,0.42,0,-0.56,25.1805,-39.5735,-6.76174,1014.45
236126,-0.25825,9.75131,1.26255,0.49,-0.07,-0.21,25.0946,-39.5445,-5.88276,1014.45
236132,-0.25825,9.7561,1.24821,0.56,-0.49,-0.42,24.7222,-38.9657,-6.71921,1014.45
236138,-0.267814,9.77523,1.26734,0.42,-0.21,-0.42,25.3811,-39.0236,-6.87516,1014.48
236144,-0.205643,9.73697,1.28647,0.14,-0.42,-0.49,25.6962,-40.76,-5.84023,1014.48
236150,-0.215208,9.69392,1.30081,0.49,0.42,-0.35,25.7821,-39.3998,-6.94604,1014.48
236156,-0.253467,9.71784,1.2769,0.63,0.07,-0.56,25.0946,-38.6185,-6.87516,1014.48
236162,-0.263032,9.71305,1.28647,0.49,0.35,-0.63,25.6675,-40.0365,-6.77592,1014.48
236168,-0.229555,9.73697,1.28647,0.98,0,-0.35,24.5503,-39.5735,-6.06706,1014.5
236174,-0.263032,9.73697,1.28647,0.98,0.14,-0.91,25.5243,-38.0976,-6.33643,1014.5
236180,-0.272597,9.75131,1.26734,0.98,-0.14,-0.21,25.7248,-39.6313,-7.18706,1014.48
236186,-0.210426,9.71305,1.28647,1.12,0.28,-0.63,25.5243,-40.3838,-7.343,1014.48
236192,-0.21999,9.73218,1.27212,1.19,0.07,-1.12,25.1519,-38.358,-7.92427,1014.51
236198,-0.272597,9.76566,1.26255,0.7,0.49,-0.63,25.2378,-40.4127,-8.17946,1014.51
236204,-0.25825,9.77044,1.25299,0.84,-0.14,-0.7,25.6389,-39.9207,-6.61997,1014.46
236210,-0.291726,9.74175,1.28168,0.77,0,-0.7,25.2951,-39.342,-7.95262,1014.46
236216,-0.243902,9.81827,1.21951,0.7,-0.07,-0.7,24.9227,-39.1683,-7.73996,1014.49
236222,-0.306074,9.78001,1.24342,0.21,0.56,-0.49,25.1519,-40.5285,-7.54149,1014.49
236228,-0.263032,9.7561,1.25777,0.91,0.35,-0.49,24.6649,-39.3709,-6.7901,1014.45
236234,-0.25825,9.7274,1.31516,0.7,0.49,-0.56,25.868,-38.9657,-7.89591,1014.45
236240,-0.263032,9.74175,1.3056,0.56,-0.07,-0.56,25.6675,-39.5735,-8.49135,1014.45
236246,-0.267814,9.78479,1.26734,0.98,0,-0.35,26.0399,-40.2391,-7.68326,1014.47
236252,-0.253467,9.77044,1.24342,0.77,-0.14,-0.21,25.2665,-38.8789,-7.45642,1014.47
236258,-0.248685,9.73697,1.25299,0.49,0.42,-0.21,25.1232,-39.1683,-7.07364,1014.47
236264,-0.234338,9.70827,1.25777,0.56,0.28,-0.21,25.3238,-40.731,-6.26554,1014.47
236270,-0.243902,9.70827,1.2769,0.77,0.14,-0.91,25.0086,-39.5445,-7.11617,1014.47
236276,-0.286944,9.7274,1.26734,1.12,0.14,-0.84,25.8394,-38.5317,-7.37136,1014.47
236282,-0.253467,9.74175,1.30081,1.12,0.14,-0.42,25.4956,-40.9336,-6.19466,1014.49
236288,-0.267814,9.76566,1.25299,0.91,-0.35,-0.98,25.6389,-39.8339,-6.57744,1014.49
236294,-0.234338,9.74653,1.26255,0.77,0.28,-0.77,25.1805,-39.1104,-7.66908,1014.45
236300,-0.248685,9.73697,1.2769,0.91,0.7,-0.98,25.5816,-39.5735,-7.69743,1014.45
236306,-0.353898,9.81827,1.26255,0.7,-0.07,-0.49,25.1805,-40.268,-7.52731,1014.48
236312,-0.315638,9.74653,1.26734,0.77,-0.56,-0.77,25.4097,-39.1683,-6.40731,1014.48
236318,-0.267814,9.78001,1.22429,0.77,-0.21,-0.28,25.6962,-39.8918,-6.67668,1014.48
236324,-0.296509,9.76088,1.25777,0.84,0.14,-0.28,25.7821,-40.4127,-7.05946,1014.48
236330,-0.349115,9.73697,1.30081,0.98,0.07,-0.63,25.3238,-39.6313,-7.05946,1014.48
236336,-0.282162,9.77523,1.25299,0.63,-0.07,-0.07,25.868,-39.5445,-7.59819,1014.46
236342,-0.248685,9.79914,1.26734,0.7,0.21,0,25.4097,-40.6153,-6.56326,1014.46
236348,-0.277379,9.78001,1.25299,0.28,0.07,0,25.4097,-39.7182,-7.93845,1014.48
236354,-0.306074,9.76566,1.23386,0.56,0.07,0,24.8081,-38.3001,-7.22959,1014.48
236360,-0.277379,9.73697,1.24821,0,-0.07,-0.21,25.1805,-39.776,-7.03111,1014.47
236366,-0.267814,9.74175,1.30081,0.42,-0.07,0,26.0972,-40.0944,-7.62655,1014.47
236372,-0.23912,9.70827,1.28647,0.63,-0.07,-0.14,25.7535,-38.9947,-7.13035,1014.48
236378,-0.267814,9.73218,1.29125,-0.21,0.35,-0.28,25.4383,-39.313,-7.42807,1014.48
236384,-0.23912,9.73218,1.3056,0.49,0.28,-0.14,25.8967,-40.4416,-7.82503,1014.48
236390,-0.229555,9.69871,1.28647,0.7,0.21,-0.49,25.3811,-38.9657,-7.49895,1014.48
236396,-0.234338,9.71784,1.27212,0.42,0.7,-0.28,25.1805,-38.6764,-8.37794,1014.48
236402,-0.243902,9.69392,1.32472,1.19,0.14,-0.21,26.0686,-39.8918,-7.08782,1014.48
236408,-0.263032,9.75131,1.26255,1.12,0.35,-0.35,25.3238,-40.0365,-7.21541,1014.48
236414,-0.325203,9.78479,1.27212,0.77,-0.28,-0.49,25.6102,-38.8789,-7.54149,1014.46
236420,-0.25825,9.80392,1.20516,0.49,0.14,-0.42,25.0946,-39.805,-7.45642,1014.46
236426,-0.263032,9.76566,1.20995,0.84,0.14,-0.21,25.9253,-39.805,-7.14453,1014.48
236432,-0.349115,9.84218,1.23386,0.42,-0.14,-0.07,24.9227,-39.2262,-6.42149,1014.48
236438,-0.310856,9.78957,1.20995,-0.56,-0.56,0.07,25.9253,-39.0815,-7.01693,1014.46
236444,-0.243902,9.77523,1.25777,0.63,0.21,0.07,25.2092,-40.1812,-7.05946,1014.46
236450,-0.277379,9.73697,1.3056,0,-0.14,-0.28,25.1232,-39.5445,-7.07364,1014.49
236456,-0.25825,9.73218,1.3056,0.14,0,0.42,24.6362,-38.8789,-7.08782,1014.49
236462,-0.263032,9.75131,1.27212,0.98,-0.07,-0.21,25.868,-40.6731,-5.71263,1014.48
236468,-0.234338,9.77523,1.25299,0.14,0.35,0.07,24.7222,-40.3259,-7.04529,1014.48
236474,-0.243902,9.75131,1.23864,0.42,0.07,0.14,25.8394,-38.4738,-7.05946,1014.48
236480,-0.248685,9.73697,1.26734,0.35,0.42,-0.21,25.6389,-39.5735,-6.27972,1014.48
236486,-0.243902,9.72262,1.24821,0.21,0.14,-0.35,25.1519,-40.1233,-6.7901,1014.48
236492,-0.272597,9.76088,1.2769,0.49,-0.14,0.28,25.0946,-39.2262,-7.71161,1014.45
236498,-0.23912,9.76088,1.25299,0.56,0.35,-0.21,25.6389,-40.0944,-7.38554,1014.45
236504,-0.286944,9.73218,1.24342,-0.07,-0.21,-0.28,25.2092,-40.4706,-5.91111,1014.45
236510,-0.277379,9.7561,1.28168,0.21,0.28,0.07,25.0659,-39.9207,-7.69743,1014.45
236516,-0.277379,9.74175,1.31038,0.98,0.14,-0.14,25.5243,-39.4577,-6.83263,1014.44
236522,-0.282162,9.76566,1.25299,0.7,0,0,25.9826,-40.731,-8.08022,1014.44
236528,-0.267814,9.76088,1.25777,0.28,0.21,0.28,26.2118,-40.4706,-6.61997,1014.45
236534,-0.267814,9.75131,1.2769,0.63,-0.07,-0.42,26.1832,-38.2712,-7.48478,1014.45
236540,-0.306074,9.7274,1.2769,0.98,-0.07,0,25.7535,-39.8339,-7.343,1014.48
236546,-0.325203,9.78001,1.24821,0.77,-0.07,0.28,25.7248,-40.6442,-7.25794,1014.48
236552,-0.286944,9.78479,1.24342,0.21,-0.56,0.35,25.5816,-39.5156,-7.59819,1014.46
236558,-0.253467,9.73697,1.28647,0.63,0,0.56,26.0113,-40.7889,-7.44225,1014.46
236564,-0.253467,9.74175,1.29125,0.63,0.14,0.42,26.0113,-40.4995,-6.84681,1014.46
236570,-0.248685,9.74175,1.26255,0.35,0,0.21,24.7222,-40.1522,-7.01693,1014.44
236576,-0.229555,9.74175,1.26255,1.12,0.21,0.42,26.1832,-38.9368,-7.32883,1014.44
236582,-0.224773,9.73697,1.25777,0.63,-0.07,0.28,25.8108,-40.3259,-6.19466,1014.46
236588,-0.23912,9.71305,1.26255,0.42,-0.35,-0.07,26.0972,-40.0365,-7.35718,1014.46
236594,-0.229555,9.73218,1.21951,0.91,-0.14,0.21,25.3811,-38.2712,-7.04529,1014.47
236600,-0.248685,9.75131,1.23386,0.63,0.21,-0.35,25.5529,-39.9207,-7.22959,1014.47
236606,-0.248685,9.75131,1.22429,0.49,0,-0.21,26.3264,-41.0204,-6.84681,1014.48
236612,-0.248685,9.77523,1.23386,0.84,-0.21,0.07,25.7821,-38.8211,-6.18048,1014.48
236618,-0.315638,9.75131,1.26255,0.42,-0.35,-0.35,25.7248,-39.4577,-6.33643,1014.47
236624,-0.263032,9.73697,1.26734,-0.35,-0.35,0.07,25.2951,-40.4416,-7.11617,1014.47
236630,-0.25825,9.71305,1.25777,-0.28,0.07,0,25.4956,-39.7182,-6.74756,1014.48
236636,-0.277379,9.70827,1.32472,0.21,0.14,-0.07,25.3524,-39.1973,-6.71921,1014.48
236642,-0.296509,9.72262,1.31038,0.21,-0.21,0.07,25.6675,-40.9336,-6.90351,1014.48
236648,-0.344333,9.79436,1.22429,0.14,-0.35,0.07,24.8081,-39.0236,-6.94604,1014.5
236654,-0.301291,9.77523,1.23864,0.49,-0.21,0.14,25.2092,-39.4288,-7.86756,1014.5
236660,-0.23912,9.72262,1.26255,0.21,-0.35,0,25.2665,-40.6153,-6.93187,1014.5
236666,-0.263032,9.71784,1.28168,0.21,0.35,-0.07,25.4383,-40.8468,-6.67668,1014.5
236672,-0.286944,9.75131,1.2769,0.35,-0.49,0.21,24.7222,-39.4866,-7.68326,1014.47
236678,-0.282162,9.7561,1.26255,0.28,-0.07,0.21,24.6362,-39.4866,-7.72579,1014.47
236684,-0.253467,9.76566,1.25777,0.63,-0.42,-0.14,25.3524,-40.2101,-7.54149,1014.48
236690,-0.25825,9.75131,1.23386,0.21,-0.28,-0.28,25.6389,-39.2551,-7.10199,1014.48
236696,-0.248685,9.72262,1.23864,0.35,-0.42,0,25.3238,-39.0815,-8.32123,1014.49
236702,-0.23912,9.72262,1.2769,0.42,0.28,-0.28,25.1805,-40.3838,-6.20883,1014.49
236708,-0.272597,9.73697,1.2769,0.35,0,-0.28,25.2378,-40.268,-6.56326,1014.46
236714,-0.296509,9.7561,1.23864,0.28,0.07,-0.28,25.6675,-38.4738,-6.37896,1014.46
236720,-0.272597,9.72262,1.26734,0.49,-0.07,-0.14,26.3264,-40.3259,-7.6549,1014.46
236726,-0.267814,9.77523,1.25299,0.63,-0.28,-0.07,25.6675,-39.6313,-6.83263,1014.46
236732,-0.267814,9.7561,1.23386,-0.07,-0.35,0,24.8368,-38.6474,-7.81085,1014.46
236738,-0.25825,9.76566,1.25299,-0.21,-0.35,-0.14,25.3238,-39.5156,-7.54149,1014.44
236744,-0.291726,9.76088,1.23386,0.21,0.21,0.21,25.5243,-40.2969,-7.72579,1014.44
236750,-0.344333,9.82305,1.21951,-0.21,-0.14,0.35,25.5243,-39.8918,-7.21541,1014.47
236756,-0.334768,9.8087,1.23386,-0.14,0.07,0.21,25.9253,-39.8339,-7.99515,1014.47
236762,-0.310856,9.79914,1.22908,-0.28,-0.63,0.56,25.6102,-41.0783,-6.57744,1014.45
236768,-0.291726,9.79914,1.25777,-0.49,-0.28,0.49,25.6102,-40.1522,-6.32225,1014.45
236774,-0.296509,9.76566,1.26734,-0.56,-0.42,0.91,25.2092,-39.1394,-6.59162,1014.47
236780,-0.282162,9.74175,1.28647,0,-0.07,1.05,25.4097,-40.3548,-6.35061,1014.47
236786,-0.248685,9.71784,1.31516,0.07,-0.28,0.42,24.7222,-39.805,-6.94604,1014.5
236792,-0.205643,9.71305,1.2769,-0.14,-0.14,0.77,25.0659,-39.2262,-6.90351,1014.5
236798,-0.248685,9.72262,1.32951,0.49,-0.07,0.77,25.6102,-38.5895,-7.343,1014.44
236804,-0.205643,9.70827,1.30081,0.63,-0.07,0.28,26.0686,-40.268,-6.90351,1014.44
236810,-0.243902,9.73218,1.2769,0.28,-0.21,0.21,25.8394,-39.4577,-7.01693,1014.44
236816,-0.23912,9.73218,1.25299,0.56,-0.21,0.21,25.4097,-40.0654,-6.10959,1014.45
236822,-0.267814,9.75131,1.22908,0.21,-0.21,0.07,25.7821,-40.5863,-5.88276,1014.45
236828,-0.277379,9.71784,1.2769,0.42,0.21,0.42,25.7535,-40.5285,-6.90351,1014.45
236834,-0.229555,9.75131,1.26255,0.07,-0.14,0.28,25.6389,-39.1683,-7.07364,1014.45
236840,-0.253467,9.73697,1.26734,0.35,-0.07,0.07,25.467,-40.1812,-6.96022,1014.49
236846,-0.243902,9.77523,1.24821,-0.14,-0.28,0.49,25.2378,-40.731,-7.343,1014.49
236852,-0.25825,9.74175,1.25299,0.42,0.14,0.42,24.9514,-39.313,-7.24376,1014.45
236858,-0.253467,9.77044,1.25777,0,-0.21,0.07,25.2378,-39.2551,-6.91769,1014.45
236864,-0.277379,9.77044,1.25777,0.28,0.14,0.21,25.2092,-40.8468,-6.84681,1014.47
236870,-0.263032,9.74175,1.28168,0.28,-0.14,0.42,25.0659,-39.9497,-7.2863,1014.47
236876,-0.315638,9.77044,1.28647,-0.21,-0.21,0.28,25.3811,-38.85,-7.68326,1014.49
236882,-0.301291,9.7561,1.2769,0,-0.21,0.84,24.8941,-39.9497,-6.26554,1014.49
236888,-0.286944,9.74653,1.24342,-0.07,-0.49,0.49,25.8394,-40.3259,-6.87516,1014.46
236894,-0.286944,9.7561,1.29603,0.21,-0.77,0.77,26.0972,-38.6185,-6.74756,1014.46
236900,-0.282162,9.78001,1.29125,0.28,-0.14,0.7,24.8081,-40.1233,-7.38554,1014.46
236906,-0.200861,9.76088,1.26255,0.07,-0.07,0.63,26.1545,-40.9915,-6.91769,1014.46
236912,-0.210426,9.70827,1.26734,-0.14,0.07,1.05,24.7508,-39.1104,-6.53491,1014.46
236918,-0.253467,9.74175,1.26734,0,0.07,0.7,25.0086,-40.0365,-6.84681,1014.48
236924,-0.176949,9.7274,1.28168,0.21,-0.63,0.35,24.8081,-40.6153,-6.12377,1014.48
236930,-0.200861,9.70827,1.29603,0.35,-0.35,0.28,25.4383,-38.9368,-6.18048,1014.45
236936,-0.191296,9.68436,1.24821,0.28,-0.07,0,25.2092,-39.2841,-7.20123,1014.45
236942,-0.229555,9.71305,1.28647,0.28,0.14,-0.14,25.3524,-40.9336,-5.49998,1014.44
236948,-0.181731,9.69392,1.27212,0.49,-0.14,0,25.4383,-39.9786,-6.7901,1014.44
236954,-0.234338,9.74175,1.24342,0,0,-0.07,25.7248,-39.4577,-6.84681,1014.47
236960,-0.248685,9.7274,1.25777,0.21,-0.21,-0.63,25.4956,-40.0075,-6.81845,1014.47
236966,-0.243902,9.7274,1.27212,0.28,-0.07,-0.14,26.2691,-40.5863,-6.57744,1014.48
236972,-0.234338,9.7274,1.24821,0.56,0.07,-0.28,26.0972,-39.3709,-8.67566,1014.48
236978,-0.243902,9.73697,1.26255,0.63,0,-0.63,25.4383,-39.1394,-6.54909,1014.48
236984,-0.253467,9.76088,1.26255,0.42,0.14,-0.21,25.5243,-40.0365,-7.51313,1014.46
236990,-0.267814,9.77044,1.26255,0.42,-0.07,0,25.5816,-39.1394,-7.51313,1014.46
236996,-0.301291,9.81349,1.24821,0.21,-0.21,-0.35,25.7248,-38.1844,-7.45642,1014.46
237002,-0.248685,9.74653,1.22429,0.35,-0.42,0.14,26.355,-39.9207,-6.86098,1014.46
237008,-0.21999,9.73697,1.28168,0.42,-0.21,-0.28,25.7821,-40.1812,-6.49238,1014.46
237014,-0.248685,9.70827,1.31994,0.28,0,-0.28,25.7248,-38.8789,-7.56984,1014.46
237020,-0.248685,9.73697,1.31516,0.35,-0.21,-0.49,25.6675,-39.6603,-7.42807,1014.5
237026,-0.272597,9.81827,1.22908,0.28,-0.21,-0.14,24.7508,-40.0944,-6.35061,1014.5
237032,-0.210426,9.78001,1.22908,0.49,0,0,26.1832,-39.2262,-6.56326,1014.5
237038,-0.191296,9.69392,1.30081,0.21,-0.21,0.07,25.2092,-40.3548,-5.91111,1014.5
237044,-0.23912,9.67958,1.30081,0.84,0.42,-0.14,25.8967,-39.6313,-6.83263,1014.52
237050,-0.23912,9.74653,1.30081,0.84,0.28,-0.21,25.6102,-39.4866,-6.70503,1014.52
237056,-0.25825,9.80392,1.20995,0.35,0.21,-0.35,25.7821,-39.5445,-6.01035,1014.52
237062,-0.23912,9.78957,1.19082,0.63,-0.07,-0.42,25.5529,-41.223,-5.86858,1014.51
237068,-0.267814,9.74653,1.28168,0.49,-0.07,-0.14,25.9826,-40.2101,-6.73339,1014.51
237074,-0.224773,9.71305,1.28647,-0.14,-0.21,-0.49,24.9514,-39.6892,-7.14453,1014.48
237080,-0.253467,9.77523,1.25299,0.49,-0.21,-0.28,25.8394,-40.6442,-6.27972,1014.48
237086,-0.291726,9.77044,1.22908,0.77,-0.63,0,25.9253,-40.2969,-6.93187,1014.46
237092,-0.253467,9.78001,1.24821,-0.28,-0.28,-0.21,25.3238,-38.4159,-7.20123,1014.46
237098,-0.248685,9.71784,1.28168,0.21,-0.21,0.21,25.467,-39.6892,-6.44985,1014.44
237104,-0.224773,9.7274,1.31994,0.91,0.35,0.14,25.2951,-41.194,-6.81845,1014.44
237110,-0.282162,9.72262,1.29603,-0.14,0.21,-0.28,26.0113,-39.2551,-7.10199,1014.46
237116,-0.301291,9.79436,1.2769,0.35,-0.28,0.49,24.579,-39.5156,-7.73996,1014.46
237122,-0.253467,9.7561,1.28647,0.49,-0.35,0.49,24.98,-40.6442,-5.42909,1014.49
237128,-0.215208,9.7561,1.29125,0.07,-0.21,0.28,25.7248,-39.4577,-6.54909,1014.49
237134,-0.229555,9.73697,1.26734,0.28,0.14,0.21,25.0946,-38.6474,-6.54909,1014.45
237140,-0.21999,9.70827,1.30081,0.56,0.35,0.07,25.5529,-40.3548,-6.81845,1014.45
237146,-0.25825,9.73697,1.30081,0.42,0.14,0,25.4956,-40.0365,-6.10959,1014.45
237152,-0.263032,9.74653,1.25299,0.63,0,-0.07,24.7795,-38.5027,-7.32883,1014.46
237158,-0.200861,9.76566,1.23386,0.35,-0.28,-0.14,25.1519,-39.5156,-6.39314,1014.46
237164,-0.186514,9.77044,1.23864,0.07,-0.42,-0.28,25.954,-40.4416,-6.05289,1014.46
237170,-0.23912,9.73218,1.28168,-0.07,0.35,-0.07,25.9253,-39.5735,-6.88934,1014.46
237176,-0.282162,9.75131,1.26255,0.56,0.42,-0.28,25.954,-39.1683,-7.62655,1014.46
237182,-0.23912,9.79436,1.23386,0.07,0.49,-0.07,25.7821,-40.731,-6.71921,1014.46
237188,-0.253467,9.77523,1.21473,0,0.35,-0.07,25.2092,-39.6603,-7.75414,1014.47
237194,-0.282162,9.77523,1.26734,0.35,-0.56,-0.07,25.4097,-38.9079,-7.64073,1014.47
237200,-0.277379,9.75131,1.25777,0.07,0.07,0.07,24.7508,-39.9786,-6.88934,1014.44
237206,-0.243902,9.73697,1.29125,0.56,-0.56,0.49,25.0946,-40.1522,-6.59162,1014.44
237212,-0.286944,9.79914,1.3056,0.28,-0.07,0.21,25.4383,-38.9657,-6.23719,1014.46
237218,-0.286944,9.76566,1.27212,0.49,-0.42,0.14,25.8108,-39.3998,-7.14453,1014.46
237224,-0.23912,9.74175,1.25299,0.21,0.42,0.28,26.0113,-41.4834,-6.50655,1014.46
237230,-0.229555,9.76566,1.26734,0.42,-0.07,0.07,25.4097,-38.9368,-6.94604,1014.46
237236,-0.277379,9.76566,1.28647,0.49,0,0.42,25.7535,-38.6764,-7.04529,1014.46
237242,-0.301291,9.78479,1.26255,0.84,-0.49,0.56,25.5816,-40.3838,-5.45745,1014.5
237248,-0.224773,9.78479,1.24821,0.42,-0.35,0.35,25.7821,-40.0365,-6.7901,1014.5
237254,-0.191296,9.7561,1.27212,0,-0.14,0.49,25.2665,-39.2841,-7.92427,1014.47
237260,-0.200861,9.72262,1.26734,0.14,-0.14,0.49,25.4097,-40.8757,-7.4706,1014.47
237266,-0.23912,9.69392,1.3056,0.63,-0.07,0.28,25.467,-40.9336,-6.64832,1014.45
237272,-0.196078,9.70827,1.3056,0.42,-0.35,0.21,25.6675,-38.5606,-6.63415,1014.45
237278,-0.23912,9.71784,1.31038,0.42,-0.14,0.07,25.1519,-40.0654,-6.70503,1014.46
237284,-0.248685,9.7274,1.30081,0.77,-0.07,-0.14,24.493,-41.4545,-8.49135,1014.46
237290,-0.186514,9.73218,1.25777,-0.14,0.35,-0.07,25.2951,-39.0815,-7.24376,1014.48
237296,-0.23912,9.71784,1.27212,0.42,0.28,-0.14,24.9514,-39.3998,-8.02351,1014.48
237302,-0.215208,9.77044,1.23864,0.91,-0.49,-0.42,25.0373,-40.1233,-6.76174,1014.46
237308,-0.243902,9.76566,1.23386,0.21,-0.21,-0.49,25.3238,-39.5156,-7.21541,1014.46
237314,-0.205643,9.74653,1.22908,0,-0.49,0.07,24.8941,-38.9368,-6.40731,1014.46
237320,-0.23912,9.77523,1.23864,0.42,0.07,-0.14,25.0086,-40.4416,-7.68326,1014.49
237326,-0.277379,9.78479,1.2769,-0.28,-0.28,-0.42,25.5243,-40.0944,-8.09439,1014.49
237332,-0.286944,9.7561,1.28168,0.07,0,-0.07,26.441,-39.0815,-6.50655,1014.47
237338,-0.25825,9.73697,1.28168,0,-0.07,-0.35,25.4097,-39.8339,-7.343,1014.47
237344,-0.23912,9.7274,1.29125,0.14,0.21,0,25.2665,-40.0365,-6.67668,1014.46
237350,-0.248685,9.75131,1.2769,0.28,-0.07,-0.07,25.5243,-38.85,-7.24376,1014.46
237356,-0.234338,9.74653,1.2769,0.35,-0.56,-0.14,25.0659,-39.5445,-6.69086,1014.45
237362,-0.229555,9.75131,1.29125,0.21,-0.21,0.07,26.2405,-40.1812,-6.69086,1014.45
237368,-0.229555,9.7561,1.24821,0.49,0.14,-0.28,26.1259,-39.4288,-7.18706,1014.47
237374,-0.215208,9.74653,1.2769,0.42,0,-0.35,25.8108,-39.0815,-8.463,1014.47
237380,-0.23912,9.74175,1.28647,0.28,-0.07,-0.14,25.6102,-40.3548,-7.07364,1014.47
237386,-0.243902,9.72262,1.25299,0.7,0,-0.35,25.2378,-40.2391,-7.58402,1014.47
237392,-0.234338,9.7274,1.29125,0.49,-0.42,-0.35,25.2951,-39.2262,-7.27212,1014.47
237398,-0.234338,9.7274,1.26734,0.21,0,-0.28,25.3811,-39.805,-7.62655,1014.46
237404,-0.23912,9.7274,1.2769,0.35,0.07,-0.49,26.1832,-40.6153,-7.88174,1014.46
237410,-0.243902,9.7561,1.23386,0,0.14,-0.42,25.6102,-39.1394,-8.10857,1014.45
237416,-0.243902,9.75131,1.24821,0.42,0.28,-0.42,25.6962,-39.1973,-7.37136,1014.45
237422,-0.234338,9.71305,1.29603,0.42,-0.28,-0.77,25.5816,-40.6731,-7.6549,1014.46
237428,-0.234338,9.72262,1.29603,0.35,-0.28,-0.77,25.2092,-40.0075,-6.70503,1014.46
237434,-0.277379,9.78957,1.24342,0.63,-0.28,-0.49,24.8368,-39.8629,-6.81845,1014.46
237440,-0.267814,9.76566,1.27212,0.63,-0.21,-0.28,25.5816,-40.5863,-7.49895,1014.46
237446,-0.263032,9.78479,1.31994,0.77,0.56,-0.28,25.5243,-40.2101,-6.1663,1014.46
237452,-0.277379,9.74175,1.3056,0.42,0,-0.28,26.1259,-38.9368,-8.08022,1014.46
237458,-0.291726,9.79436,1.23386,0.21,0.21,0,25.4956,-40.6153,-7.21541,1014.46
237464,-0.277379,9.78001,1.25299,0.49,-0.63,-0.14,25.4097,-41.0783,-6.53491,1014.46
237470,-0.210426,9.7561,1.2769,-0.14,-0.14,-0.07,25.5816,-39.3709,-5.52833,1014.46
237476,-0.196078,9.73697,1.28168,0.42,-0.56,-0.07,25.9253,-39.5445,-6.86098,1014.46
237482,-0.21999,9.75131,1.2769,0.56,-0.28,-0.14,25.4956,-41.194,-7.92427,1014.46
237488,-0.210426,9.74175,1.26255,0.28,-0.49,-0.42,25.2951,-39.4577,-6.25137,1014.46
237494,-0.186514,9.7561,1.2769,0.56,-0.35,-0.35,25.8967,-38.7342,-7.99515,1014.46
237500,-0.229555,9.73218,1.27212,0.84,0.63,-0.42,25.5529,-40.9047,-7.21541,1014.47
237506,-0.248685,9.74653,1.2769,0.28,0.28,-0.21,26.1259,-41.0783,-7.21541,1014.47
237512,-0.277379,9.73218,1.26255,0.49,0.63,-0.21,26.3264,-39.342,-8.56224,1014.46
237518,-0.224773,9.73697,1.26734,0.28,-0.28,-0.49,25.954,-40.0654,-7.91009,1014.46
237524,-0.243902,9.71784,1.29125,0.21,0.42,-0.35,25.4956,-40.7889,-6.83263,1014.47
237530,-0.243902,9.75131,1.25777,0.28,-0.49,-0.28,25.8394,-39.5156,-7.89591,1014.47
237536,-0.25825,9.7561,1.25777,0.14,-0.35,-0.28,25.7535,-39.342,-7.62655,1014.47
237542,-0.248685,9.7274,1.30081,0.49,-0.28,-0.56,25.8967,-40.7889,-6.46402,1014.47
237548,-0.291726,9.78001,1.27212,0.63,-0.21,-0.21,25.2665,-39.7182,-6.32225,1014.45
237554,-0.320421,9.80392,1.24342,0.28,0.28,-0.14,26.2118,-38.7632,-7.6549,1014.45
237560,-0.25825,9.73697,1.28168,0.28,0.07,0,25.6675,-40.1522,-8.20781,1014.45
237566,-0.248685,9.74175,1.30081,-0.21,0.42,0.14,25.5243,-40.1522,-6.12377,1014.49
237572,-0.310856,9.74175,1.33907,0.07,-0.56,-0.14,25.5816,-39.313,-8.00933,1014.49
237578,-0.243902,9.75131,1.28168,0.7,-0.21,0.07,25.7821,-39.776,-6.84681,1014.46
237584,-0.224773,9.74175,1.26255,0.28,-0.84,-0.35,25.1805,-41.0204,-7.52731,1014.46
237590,-0.215208,9.72262,1.2769,0.77,-0.14,-0.21,24.3784,-40.3548,-8.9592,1014.48
237596,-0.23912,9.7274,1.27212,0.28,-0.21,-0.07,25.5816,-39.1394,-7.45642,1014.48
237602,-0.248685,9.74175,1.27212,0.49,0.14,-0.14,25.6675,-39.8339,-6.30807,1014.46
237608,-0.224773,9.74175,1.27212,0.14,0.21,-0.28,25.5529,-39.3709,-7.11617,1014.46
237614,-0.234338,9.72262,1.24821,0.42,0.35,-0.42,25.0086,-38.7342,-7.03111,1014.46
237620,-0.229555,9.71784,1.2769,-0.14,0.49,-0.56,25.2951,-39.3709,-6.33643,1014.46
237626,-0.205643,9.70349,1.29603,-0.14,-0.49,-0.28,25.4956,-40.0654,-6.94604,1014.52
237632,-0.248685,9.70827,1.27212,0.7,0.42,-0.77,25.2665,-38.9368,-7.59819,1014.52
237638,-0.263032,9.72262,1.31038,0.56,-0.49,-0.77,25.3238,-40.2969,-7.82503,1014.52
237644,-0.25825,9.76088,1.26255,0.21,-0.07,-0.14,25.5243,-40.4416,-8.05186,1014.5
237650,-0.267814,9.78001,1.25777,1.19,-0.28,-0.63,25.7535,-38.7921,-7.45642,1014.5
237656,-0.253467,9.75131,1.26255,0.7,0,-0.63,25.5816,-38.7632,-7.27212,1014.47
237662,-0.23912,9.7561,1.28647,0.14,-0.07,-0.28,25.868,-40.268,-7.75414,1014.47
237668,-0.277379,9.73218,1.28647,0.56,-0.14,-0.42,25.6675,-39.9497,-6.81845,1014.46
237674,-0.263032,9.76088,1.23864,0.42,-0.14,-0.21,25.9826,-38.9657,-6.7901,1014.46
237680,-0.263032,9.76566,1.23864,0.49,-0.56,-0.49,25.6102,-40.9336,-7.343,1014.46
237686,-0.23912,9.73218,1.29125,0.14,0,-0.35,25.2092,-40.4416,-7.35718,1014.46
237692,-0.263032,9.71784,1.29603,0.63,-0.35,0.14,25.8108,-39.805,-6.60579,1014.44
237698,-0.267814,9.7561,1.26734,0.49,-0.14,0,25.868,-39.7182,-7.61237,1014.44
237704,-0.196078,9.7561,1.25777,0.28,-0.35,0,25.2951,-40.4706,-6.61997,1014.47
237710,-0.243902,9.75131,1.28168,0.21,0.21,-0.56,26.0113,-39.8629,-7.35718,1014.47
237716,-0.234338,9.72262,1.2769,0.49,0.42,-0.42,25.7535,-39.3709,-7.38554,1014.47
237722,-0.224773,9.74653,1.28168,0.28,0.49,-0.28,25.7821,-40.4995,-7.2863,1014.45
237728,-0.21999,9.73218,1.25299,1.05,0.14,-0.63,25.5529,-40.4995,-6.84681,1014.45
237734,-0.267814,9.7274,1.26255,0.56,-0.28,-0.56,25.6389,-39.6024,-7.4706,1014.44
237740,-0.267814,9.7274,1.23864,0.14,0.21,-0.42,25.2665,-40.8468,-7.1587,1014.44
237746,-0.286944,9.71305,1.26734,0.56,-0.56,-0.49,25.6675,-40.5574,-7.51313,1014.46
237752,-0.248685,9.75131,1.27212,0.56,0.42,-0.42,25.1232,-38.5606,-7.85338,1014.46
237758,-0.272597,9.74653,1.27212,0.35,-0.14,-0.42,25.5243,-39.8918,-7.9668,1014.46
237764,-0.320421,9.79436,1.24342,0.14,0.35,-0.14,25.4383,-40.4706,-8.19363,1014.46
237770,-0.286944,9.79914,1.24821,0.28,-0.35,-0.21,25.1232,-39.5735,-7.41389,1014.49
237776,-0.224773,9.78479,1.25777,0.21,-0.21,-0.21,25.6102,-38.9368,-7.22959,1014.49
237782,-0.253467,9.7561,1.28168,0.28,0.14,-0.07,25.4956,-40.8757,-6.57744,1014.44
237788,-0.329986,9.76566,1.25777,0.07,-0.49,0.28,26.0686,-39.4866,-8.57642,1014.44
237794,-0.301291,9.77044,1.28647,0.28,-0.42,0.28,25.4383,-39.342,-6.9744,1014.51
237800,-0.21999,9.74175,1.30081,0.42,-0.42,0.07,25.467,-40.6442,-7.52731,1014.51
237806,-0.248685,9.7274,1.28647,0.28,0.42,0.14,25.4097,-39.9786,-7.10199,1014.51
237812,-0.23912,9.71305,1.29603,0.63,-0.21,-0.07,25.4956,-39.5156,-7.48478,1014.47
237818,-0.23912,9.71305,1.31994,0.42,-0.07,-0.35,25.6389,-40.0365,-7.25794,1014.47
237824,-0.210426,9.75131,1.27212,0.42,-0.28,-0.21,25.8967,-41.1072,-7.13035,1014.44
237830,-0.243902,9.78957,1.22908,0.7,-0.14,-0.35,25.868,-39.1973,-7.44225,1014.44
237836,-0.248685,9.77523,1.23864,0.28,0.42,-0.35,25.467,-38.85,-7.98098,1014.46
237842,-0.243902,9.74653,1.2769,0.14,-0.07,0.07,25.3811,-40.4706,-8.00933,1014.46
237848,-0.229555,9.75131,1.24342,0.42,0.28,-0.56,25.2665,-39.9207,-7.99515,1014.47
237854,-0.229555,9.74653,1.25777,0.28,-0.28,-0.42,25.9826,-39.6313,-6.84681,1014.47
237860,-0.263032,9.7274,1.28168,0.35,0.07,-0.28,25.7821,-40.1522,-7.42807,1014.48
237866,-0.229555,9.7274,1.2769,0.21,-0.14,-0.56,25.3238,-39.9786,-7.76832,1014.48
237872,-0.243902,9.76088,1.26255,0.49,0.28,-0.7,25.1805,-39.0236,-7.58402,1014.45
237878,-0.272597,9.77523,1.24342,0.35,-0.07,-0.07,24.98,-40.2391,-7.343,1014.45
237884,-0.310856,9.77044,1.2769,0.28,0.35,-0.28,25.3238,-40.3838,-7.31465,1014.45
237890,-0.301291,9.76088,1.27212,0.42,-0.49,0.14,25.7535,-38.9368,-7.30047,1014.47
237896,-0.25825,9.78957,1.26734,0,-0.14,0.49,25.954,-39.5735,-8.23617,1014.47
237902,-0.253467,9.73697,1.29125,0.77,-0.35,-0.07,25.4956,-40.3259,-6.49238,1014.46
237908,-0.234338,9.73218,1.31516,0.42,0,0.07,25.7535,-39.8339,-6.81845,1014.46
237914,-0.234338,9.72262,1.2769,0.14,0.21,0.07,25.2378,-39.1683,-6.43567,1014.48
237920,-0.229555,9.73697,1.26255,0.77,0.28,0.07,25.5243,-40.3259,-7.00275,1014.48
237926,-0.243902,9.73218,1.28647,1.05,0.07,-0.14,25.1519,-40.0365,-7.11617,1014.48
237932,-0.253467,9.7561,1.26255,0.42,0.28,-0.28,25.4956,-38.6185,-7.35718,1014.48
237938,-0.21999,9.74175,1.26255,0.91,0.35,0.14,25.4383,-40.2969,-7.45642,1014.47
237944,-0.210426,9.75131,1.25777,0.77,0.21,-0.21,24.6935,-40.5574,-7.41389,1014.47
237950,-0.234338,9.74175,1.26734,0.07,-0.63,-0.49,25.6962,-40.4416,-6.6625,1014.48
237956,-0.23912,9.71305,1.28647,0.35,-0.49,-0.07,25.0659,-39.8918,-7.10199,1014.48
237962,-0.263032,9.74175,1.27212,0.21,-0.07,-0.28,25.7535,-40.7889,-7.343,1014.44
237968,-0.243902,9.71784,1.2769,0.35,0.28,-0.28,25.467,-40.0365,-7.81085,1014.44
237974,-0.234338,9.72262,1.31038,0.49,0.28,-0.14,26.355,-39.0815,-7.44225,1014.44
237980,-0.234338,9.74175,1.28168,0.21,-0.35,-0.63,25.2092,-40.5285,-7.17288,1014.45
237986,-0.282162,9.76566,1.28647,0.21,-0.35,0,25.2378,-39.9497,-6.64832,1014.45
237992,-0.296509,9.74653,1.26734,0.63,-0.7,-0.28,25.2951,-39.342,-7.45642,1014.47
237998,-0.248685,9.74175,1.2769,0.49,-0.49,-0.28,25.4097,-39.8339,-7.35718,1014.47
238004,-0.286944,9.75131,1.28647,0.63,0.07,0,25.8967,-40.4706,-7.4706,1014.46
238010,-0.25825,9.77523,1.26255,0.14,0.07,-0.14,25.3524,-38.9079,-7.42807,1014.46
238016,-0.263032,9.76088,1.27212,0,-0.07,-0.07,25.9826,-38.9657,-7.00275,1014.44
238022,-0.248685,9.73218,1.31038,0.56,-0.28,0.35,25.6389,-40.7021,-6.25137,1014.44
238028,-0.23912,9.77523,1.29125,0.49,-0.14,-0.21,25.4383,-39.313,-7.41389,1014.48
238034,-0.282162,9.74653,1.25777,-0.07,-0.49,-0.07,25.7248,-38.5895,-6.56326,1014.48
238040,-0.248685,9.76088,1.24821,0.35,0.42,0.35,25.6675,-40.3838,-6.7901,1014.49
238046,-0.229555,9.72262,1.3056,0.7,0.35,-0.28,25.8108,-39.8918,-7.32883,1014.49
238052,-0.253467,9.71784,1.30081,0.49,0.35,0.07,26.1259,-39.1394,-7.04529,1014.49
238058,-0.23912,9.73218,1.26255,0.49,-0.14,-0.42,25.2951,-39.9786,-7.51313,1014.48
238064,-0.243902,9.7274,1.26734,0.35,0.21,-0.35,24.98,-40.7021,-7.7825,1014.48
238070,-0.243902,9.7561,1.23864,0.14,-0.14,-0.28,25.2951,-39.6892,-7.17288,1014.48
238076,-0.272597,9.77523,1.28168,0.28,-0.35,-0.14,25.6675,-39.3709,-8.36376,1014.48
238082,-0.267814,9.7561,1.26255,0.63,-0.35,-0.14,25.3524,-40.4416,-7.11617,1014.47
238088,-0.243902,9.78001,1.25777,0.21,0.07,0,25.4097,-39.5735,-7.71161,1014.47
238094,-0.282162,9.78001,1.24821,0,0.14,-0.21,25.4956,-38.9657,-8.39211,1014.5
238100,-0.277379,9.75131,1.26734,0.42,0,-0.35,25.5816,-40.9625,-7.25794,1014.5
238106,-0.286944,9.77523,1.2769,0.49,0.07,0.14,25.3238,-40.3548,-6.40731,1014.42
238112,-0.291726,9.75131,1.27212,0.63,-0.91,0.07,25.6675,-39.2841,-7.6549,1014.42
238118,-0.25825,9.76088,1.26255,0.28,-0.35,0.35,25.0659,-40.1233,-7.49895,1014.46
238124,-0.215208,9.72262,1.30081,0.56,-0.63,0.28,25.6102,-40.1812,-7.03111,1014.46
238130,-0.25825,9.74175,1.32951,0.77,-0.07,0.07,25.2092,-39.2551,-7.41389,1014.46
238136,-0.296509,9.76566,1.2769,0.56,0,0.42,25.6675,-39.4577,-7.56984,1014.48
238142,-0.229555,9.7561,1.29603,0.7,0.21,0.42,25.467,-40.8178,-7.14453,1014.48
238148,-0.210426,9.72262,1.31038,0.56,-0.56,0.28,25.5529,-39.2551,-6.96022,1014.48
238154,-0.253467,9.73697,1.29603,0.35,0.42,0.35,26.1259,-39.3998,-6.74756,1014.48
238160,-0.243902,9.7274,1.28168,0.49,-0.28,0.42,25.0659,-40.7021,-7.25794,1014.46
238166,-0.234338,9.73218,1.25299,0.28,-0.21,-0.07,25.3238,-40.5285,-6.7901,1014.46
238172,-0.210426,9.69871,1.2769,0.63,-0.56,0,26.2405,-38.9368,-6.7901,1014.48
238178,-0.229555,9.70349,1.31038,0.91,-0.21,-0.07,25.0373,-39.5735,-7.35718,1014.48
238184,-0.23912,9.71784,1.25777,0.7,0.56,-0.35,25.3811,-39.9207,-7.03111,1014.48
238190,-0.277379,9.75131,1.22908,0.7,0.07,-0.28,25.4956,-38.8789,-6.42149,1014.48
238196,-0.243902,9.76088,1.22908,0.35,0.49,-0.28,25.1232,-39.805,-7.35718,1014.44
238202,-0.272597,9.75131,1.24821,0.21,-0.07,-0.21,24.8654,-40.3838,-7.10199,1014.44
238208,-0.248685,9.74653,1.26734,0.56,0,0.07,25.8108,-40.268,-6.94604,1014.47
238214,-0.277379,9.75131,1.31516,0.49,-0.56,-0.28,24.6935,-39.3998,-7.10199,1014.47
238220,-0.277379,9.75131,1.28168,0.28,-0.28,0.07,25.4383,-40.0365,-6.40731,1014.47
238226,-0.267814,9.7561,1.25299,0.49,-0.49,0.21,25.467,-40.0654,-6.98858,1014.47
238232,-0.277379,9.7561,1.28647,0.7,-0.28,0.28,25.2665,-38.7632,-6.77592,1014.47
238238,-0.272597,9.74175,1.29125,0,0,0.21,25.6389,-39.6603,-6.88934,1014.44
238244,-0.243902,9.76088,1.25777,0.35,-0.35,0.28,24.9227,-39.9207,-6.7901,1014.44
238250,-0.243902,9.77523,1.27212,0.14,0,0.28,25.3811,-39.1394,-7.32883,1014.47
238256,-0.196078,9.73218,1.28168,0.07,-0.42,0.28,25.6389,-39.4577,-7.1587,1014.47
238262,-0.215208,9.69392,1.3056,0.7,-0.14,0.14,24.9227,-40.8468,-7.21541,1014.45
238268,-0.229555,9.7274,1.3056,0.28,-0.35,-0.28,25.3811,-39.6892,-7.93845,1014.45
238274,-0.243902,9.71305,1.26734,0.56,-0.07,0.14,25.6675,-39.3709,-8.03769,1014.47
238280,-0.229555,9.77044,1.28168,0.77,-0.35,-0.07,24.7222,-40.4706,-6.36478,1014.47
238286,-0.23912,9.74653,1.23386,0.56,-0.07,-0.35,24.8368,-40.2101,-7.61237,1014.48
238292,-0.205643,9.74175,1.26734,0.42,0.63,-0.14,25.3811,-39.1683,-8.49135,1014.48
238298,-0.234338,9.7274,1.24821,0.49,0,-0.49,25.1232,-40.1522,-7.18706,1014.48
238304,-0.253467,9.74653,1.26734,0.49,0.14,-0.21,25.7535,-41.223,-6.87516,1014.49
238310,-0.23912,9.77044,1.26734,0.35,-0.35,-0.21,24.9227,-39.4577,-7.64073,1014.49
238316,-0.243902,9.77523,1.22908,0.49,0.14,-0.28,25.2378,-39.776,-7.9668,1014.47
238322,-0.23912,9.76566,1.28168,0.63,-0.7,-0.14,25.5816,-40.8468,-7.61237,1014.47
238328,-0.243902,9.75131,1.28647,0.07,-0.42,-0.21,25.0946,-40.4706,-7.03111,1014.5
238334,-0.229555,9.73218,1.31994,0.42,-0.35,0,25.4383,-39.4866,-7.58402,1014.5
238340,-0.301291,9.71305,1.33429,0.63,-0.21,-0.07,24.98,-40.5574,-7.07364,1014.46
238346,-0.296509,9.78001,1.29603,0.49,0.28,-0.07,25.2951,-40.3548,-7.04529,1014.46
238352,-0.243902,9.79914,1.2769,0.49,0.07,0.14,25.7821,-40.0654,-7.45642,1014.48
238358,-0.25825,9.76088,1.25777,0.49,0.56,0.21,25.8108,-40.5574,-7.24376,1014.48
238364,-0.301291,9.78001,1.2769,0.77,-0.42,0.07,25.2951,-40.6731,-6.60579,1014.47
238370,-0.267814,9.79436,1.28168,0.49,0,0.49,25.5243,-39.7182,-7.11617,1014.47
238376,-0.205643,9.77044,1.25299,0.42,-0.35,0.56,25.0946,-39.6603,-7.25794,1014.47
238382,-0.21999,9.76088,1.28647,0.42,-0.28,0.07,25.3524,-40.5285,-7.73996,1014.47
238388,-0.234338,9.7274,1.31516,0.42,-0.56,0.28,25.2665,-39.1973,-6.81845,1014.47
238394,-0.215208,9.76088,1.26255,0.42,-0.21,0.14,25.5243,-39.4577,-6.7901,1014.47
238400,-0.224773,9.7274,1.26734,0.63,0.21,0,25.5816,-40.3259,-7.42807,1014.47
238406,-0.186514,9.7274,1.30081,0.56,0.14,0.21,25.5243,-41.3098,-6.90351,1014.49
238412,-0.229555,9.70827,1.29603,0.42,0.56,-0.28,25.9253,-39.2262,-7.59819,1014.49
238418,-0.205643,9.73697,1.24821,0.56,-0.21,0.07,25.0373,-40.0075,-6.73339,1014.46
238424,-0.210426,9.72262,1.24342,0.42,0.21,-0.14,25.9826,-41.0204,-5.82605,1014.46
238430,-0.215208,9.7561,1.25299,0.07,-0.84,-0.28,25.3238,-39.313,-6.90351,1014.46
238436,-0.234338,9.73218,1.29603,0.35,0.14,-0.14,25.6675,-38.9079,-7.49895,1014.46
238442,-0.253467,9.76088,1.31516,0.42,-0.56,-0.21,25.2665,-41.3966,-7.4706,1014.49
238448,-0.243902,9.78957,1.22908,0,0.14,0,26.1832,-40.4995,-6.86098,1014.49
238454,-0.263032,9.79914,1.26255,0.07,0.28,0.07,25.2951,-39.6024,-8.84578,1014.49
238460,-0.224773,9.73697,1.2769,-0.07,-0.07,-0.21,26.0686,-40.9336,-6.76174,1014.49
238466,-0.272597,9.77044,1.27212,0.07,-0.35,0.14,24.9227,-40.0365,-6.71921,1014.49
238472,-0.306074,9.78957,1.27212,0.63,-0.42,0.56,25.5243,-38.9657,-7.11617,1014.47
238478,-0.272597,9.80392,1.26255,-0.07,-0.56,0.28,25.8108,-40.3259,-7.37136,1014.47
238484,-0.23912,9.74653,1.28168,0.14,-0.14,0.42,25.6389,-40.0075,-6.54909,1014.48
238490,-0.25825,9.74175,1.31516,0.49,-0.28,0.35,25.467,-39.4577,-7.35718,1014.48
238496,-0.267814,9.76566,1.28168,0.14,-0.21,0.63,25.1805,-39.4577,-7.00275,1014.47
238502,-0.248685,9.77044,1.24342,-0.07,-0.49,0.49,25.8108,-40.8757,-6.71921,1014.47
238508,-0.210426,9.70349,1.33429,0.49,0.14,0.21,26.0686,-39.8339,-6.88934,1014.5
238514,-0.215208,9.68914,1.31038,0.63,-0.21,0.14,25.5816,-39.4866,-7.98098,1014.5
238520,-0.200861,9.71784,1.28168,0.49,0.14,0.07,25.2665,-40.4416,-7.48478,1014.46
238526,-0.210426,9.70349,1.29125,0.35,-0.28,-0.21,26.0972,-39.9497,-7.49895,1014.46
238532,-0.200861,9.75131,1.24342,0.42,-0.63,0.21,25.5243,-39.3709,-7.30047,1014.45
238538,-0.205643,9.70827,1.24821,0.14,-0.07,-0.14,25.1519,-40.6731,-7.343,1014.45
238544,-0.205643,9.71784,1.27212,-0.14,0.07,-0.28,25.3238,-41.1072,-8.49135,1014.45
238550,-0.248685,9.7561,1.26255,0.56,-0.28,-0.56,25.1805,-40.1812,-6.53491,1014.44
238556,-0.248685,9.76566,1.24342,0.35,0.07,-0.49,25.1519,-39.7471,-7.6549,1014.44
238562,-0.263032,9.78001,1.26734,-0.21,0,-0.35,25.5243,-41.3098,-7.343,1014.44
238568,-0.200861,9.75131,1.31038,0.63,0.21,0.07,25.8394,-39.4577,-6.42149,1014.44
238574,-0.263032,9.74653,1.26734,0.42,0.07,-0.21,24.8081,-39.4288,-8.13692,1014.43
238580,-0.291726,9.74653,1.27212,0.35,-0.28,-0.21,25.3524,-40.9336,-7.4706,1014.43
238586,-0.291726,9.78957,1.29603,0.42,-0.28,-0.14,25.4383,-40.2969,-7.00275,1014.46
238592,-0.277379,9.74653,1.30081,0.42,-0.42,0.07,26.3264,-39.1104,-7.85338,1014.46
238598,-0.263032,9.76566,1.30081,0,-0.14,-0.07,26.355,-40.1812,-7.6549,1014.46
238604,-0.215208,9.7561,1.31038,0.63,-0.14,0.14,25.3811,-40.76,-7.4706,1014.46
238610,-0.234338,9.77044,1.26255,0.42,0.35,0.28,25.3238,-39.1104,-6.43567,1014.49
238616,-0.229555,9.76088,1.29603,0.35,-0.28,0,25.0086,-39.7182,-7.89591,1014.49
238622,-0.229555,9.73697,1.31516,0.21,-0.42,0.07,25.1805,-40.6153,-7.20123,1014.46
238628,-0.21999,9.72262,1.3056,0.7,0.14,0.28,25.5529,-39.805,-6.67668,1014.46
238634,-0.200861,9.73697,1.26734,0.84,0,-0.21,26.0972,-39.0526,-6.90351,1014.46
238640,-0.21999,9.71305,1.26255,0.49,0.14,0.28,26.0399,-40.5285,-7.49895,1014.46
238646,-0.210426,9.70827,1.26734,0.77,0.28,0.21,25.8108,-40.6731,-6.83263,1014.46
238652,-0.224773,9.7561,1.25299,0.42,0,0.14,25.5243,-38.9368,-7.44225,1014.47
238658,-0.229555,9.75131,1.24821,0.21,0,0.14,25.2951,-40.4706,-6.70503,1014.47
238664,-0.272597,9.78479,1.24821,-0.28,-0.42,0.14,25.868,-40.9336,-6.64832,1014.49
238670,-0.248685,9.77044,1.25299,0.07,0,-0.07,25.6962,-39.5156,-6.6625,1014.49
238676,-0.263032,9.74175,1.28168,0,-0.7,0.07,25.2951,-39.8339,-6.63415,1014.48
238682,-0.263032,9.73697,1.28168,-0.28,0.35,0.49,25.6389,-41.0493,-6.01035,1014.48
238688,-0.234338,9.75131,1.30081,-0.49,0.14,0.28,25.5816,-40.0075,-5.86858,1014.48
238694,-0.21999,9.71784,1.33907,0.42,0.21,0.49,25.8108,-39.4288,-7.9668,1014.48
238700,-0.21999,9.7274,1.34864,0.28,-0.07,0.56,25.6675,-40.2969,-5.75517,1014.46
238706,-0.23912,9.76566,1.28647,0.07,-0.49,0.7,25.2378,-40.76,-5.84023,1014.46
238712,-0.248685,9.76566,1.25777,0.56,-0.56,0.42,25.8394,-39.5445,-7.20123,1014.46
238718,-0.282162,9.80392,1.25777,0.28,-0.35,0.77,25.3811,-39.9497,-6.64832,1014.49
238724,-0.224773,9.73697,1.2769,-0.35,0.14,0.35,25.6389,-40.76,-6.93187,1014.49
238730,-0.205643,9.74175,1.29603,0.56,-0.28,0.35,25.7821,-39.342,-6.56326,1014.5
238736,-0.200861,9.74653,1.26255,0.63,0.07,0.35,25.9826,-39.7182,-7.24376,1014.5
238742,-0.215208,9.75131,1.29125,-0.35,0.35,0.35,25.3238,-41.223,-6.09542,1014.46
238748,-0.200861,9.72262,1.25777,0.35,0.63,0.35,25.1805,-39.9207,-5.99618,1014.46
238754,-0.25825,9.73697,1.28647,-0.14,-0.14,0.21,25.1232,-38.7632,-5.8544,1014.48
238760,-0.186514,9.71784,1.29603,-0.07,-0.49,0.14,25.6102,-40.731,-6.50655,1014.48
238766,-0.21999,9.72262,1.29125,0.49,-0.7,0.21,25.3238,-40.3838,-6.77592,1014.46
238772,-0.210426,9.7274,1.26255,0.28,0.07,0,26.2405,-38.8211,-7.45642,1014.46
238778,-0.234338,9.69392,1.3056,0,-0.07,0.14,25.2951,-40.3838,-6.77592,1014.44
238784,-0.205643,9.71305,1.31516,0.28,0.35,0,24.8654,-40.4127,-6.49238,1014.44
238790,-0.215208,9.71305,1.28168,-0.07,-0.42,-0.14,25.868,-38.9079,-7.25794,1014.44
238796,-0.248685,9.7561,1.27212,0.14,0.14,0.07,24.98,-40.0654,-6.60579,1014.44
238802,-0.215208,9.76566,1.25777,0.35,-0.35,-0.35,25.0659,-40.6442,-6.69086,1014.44
238808,-0.234338,9.76566,1.26255,0.49,0,-0.28,25.4097,-39.3709,-6.25137,1014.48
238814,-0.224773,9.74653,1.25299,0.49,-0.28,0.07,25.3238,-39.313,-7.21541,1014.48
238820,-0.243902,9.7274,1.27212,-0.21,-0.28,-0.14,24.7795,-40.7889,-7.39971,1014.46
238826,-0.229555,9.75131,1.31994,-0.14,-0.49,-0.14,25.2378,-39.313,-6.9744,1014.46
238832,-0.234338,9.74653,1.28168,0.42,-0.14,0.07,25.4383,-38.8211,-6.91769,1014.47
238838,-0.21999,9.73218,1.3056,0.28,-0.28,-0.56,25.3811,-40.1233,-5.99618,1014.47
238844,-0.253467,9.7561,1.3056,0.21,-0.14,0.07,25.4097,-40.4127,-6.64832,1014.45
238850,-0.210426,9.78001,1.28168,0.42,0,0.28,25.2378,-38.3001,-6.94604,1014.45
238856,-0.21999,9.76088,1.29603,0.49,-0.35,0.07,25.6675,-40.6153,-6.73339,1014.47
238862,-0.205643,9.76566,1.26255,0.21,0.49,0.14,25.2378,-40.5863,-6.15213,1014.47
238868,-0.196078,9.76088,1.26255,0.21,0.07,0.14,25.1805,-38.9079,-6.83263,1014.47
238874,-0.248685,9.76088,1.28647,0.35,0.07,0.14,25.4097,-39.0236,-6.9744,1014.47
238880,-0.229555,9.73218,1.28647,0.21,-0.49,0.14,25.4097,-41.1651,-7.13035,1014.47
238886,-0.234338,9.77044,1.26734,0.14,-0.07,0.14,25.6389,-40.2391,-5.75517,1014.47
238892,-0.234338,9.77044,1.28647,0.49,-0.14,0.21,26.355,-38.7632,-7.49895,1014.47
238898,-0.224773,9.71784,1.30081,0.21,0.21,-0.07,25.6675,-40.1233,-7.41389,1014.45
238904,-0.205643,9.7274,1.31994,0,-0.14,0.07,25.954,-40.0944,-6.44985,1014.45
238910,-0.253467,9.7561,1.29603,0.42,0.14,0.28,26.5842,-39.2841,-6.36478,1014.45
238916,-0.248685,9.70827,1.31516,0.42,-0.42,-0.07,25.2665,-40.0944,-6.71921,1014.45
238922,-0.196078,9.7274,1.31994,0.14,0.07,-0.07,24.3498,-41.5992,-7.32883,1014.42
238928,-0.291726,9.71305,1.36298,0.7,0,0.14,25.5529,-40.3259,-7.41389,1014.42
238934,-0.21999,9.76088,1.30081,0.56,0.21,0,25.6389,-39.5156,-5.92529,1014.45
238940,-0.277379,9.78001,1.23864,0.14,-0.49,0.07,26.0686,-40.9915,-6.81845,1014.45
238946,-0.253467,9.77523,1.24821,0.35,-0.28,0,25.3811,-40.76,-6.52073,1014.47
238952,-0.186514,9.72262,1.3056,-0.28,-0.21,-0.07,25.2092,-39.0815,-6.87516,1014.47
238958,-0.200861,9.69392,1.32951,0.49,-0.28,-0.21,25.868,-40.3548,-6.60579,1014.47
238964,-0.210426,9.73218,1.25777,-0.07,-0.42,-0.28,25.6962,-40.1233,-6.35061,1014.45
238970,-0.215208,9.73697,1.27212,0,-0.28,0,25.1805,-39.6024,-7.45642,1014.45
238976,-0.205643,9.74175,1.27212,0.56,0,0.07,25.3524,-39.6892,-6.53491,1014.49
238982,-0.205643,9.72262,1.27212,0.49,-0.35,-0.07,25.5816,-40.7889,-7.30047,1014.49
238988,-0.210426,9.72262,1.29125,0.42,-0.14,-0.21,25.5243,-39.1104,-7.79667,1014.44
238994,-0.215208,9.75131,1.3056,0.56,0.14,0.14,25.7535,-38.8211,-6.81845,1014.44
239000,-0.224773,9.76088,1.28647,0.14,0.35,-0.56,25.4956,-40.4416,-7.59819,1014.46
239006,-0.234338,9.7561,1.2769,0.35,0.14,-0.14,25.1232,-39.5156,-7.03111,1014.46
239012,-0.229555,9.7561,1.2769,-0.07,-0.77,-0.42,26.0686,-38.8789,-6.9744,1014.47
239018,-0.243902,9.74653,1.29125,0,-0.56,-0.21,25.2951,-40.2969,-6.23719,1014.47
239024,-0.200861,9.74653,1.30081,-0.28,-0.35,0.07,25.3238,-40.8468,-7.42807,1014.46
239030,-0.224773,9.76566,1.28647,-0.35,0.21,0.07,25.6675,-39.9207,-7.81085,1014.46
239036,-0.21999,9.76088,1.28647,0.28,-0.35,-0.21,25.3811,-40.268,-8.09439,1014.44
239042,-0.234338,9.76088,1.26734,0.28,0.42,0.14,25.2665,-40.9915,-6.61997,1014.44
239048,-0.272597,9.73697,1.30081,-0.28,-0.14,-0.35,25.5816,-39.5445,-7.25794,1014.44
239054,-0.243902,9.74653,1.29125,0.49,-0.14,0.07,25.6962,-38.7921,-7.25794,1014.48
239060,-0.200861,9.76566,1.3056,0.14,-0.49,-0.14,25.6389,-39.7471,-7.85338,1014.48
239066,-0.186514,9.74653,1.29603,0.35,-0.14,0.07,25.9253,-39.4866,-6.7901,1014.42
239072,-0.205643,9.7274,1.31516,0.14,0.07,0,25.7535,-39.1973,-7.00275,1014.42
239078,-0.224773,9.7561,1.30081,0.28,0.28,-0.21,25.4956,-39.9786,-7.48478,1014.45
239084,-0.21999,9.77044,1.29125,0.63,-0.28,-0.14,25.4097,-40.76,-8.00933,1014.45
239090,-0.23912,9.76088,1.2769,-0.07,0,-0.07,25.7248,-39.2262,-7.01693,1014.46
239096,-0.191296,9.74175,1.29603,-0.14,-0.49,0,25.6675,-39.2841,-7.17288,1014.46
239102,-0.21999,9.7561,1.2769,0.49,-0.42,-0.21,25.7535,-41.1072,-7.59819,1014.44
239108,-0.210426,9.73218,1.28647,-0.07,-0.56,-0.14,25.467,-39.4288,-7.08782,1014.44
239114,-0.205643,9.7561,1.27212,-0.07,0.07,-0.07,26.1259,-39.1683,-6.49238,1014.45
239120,-0.263032,9.7561,1.31038,0.14,0.42,-0.28,25.8108,-40.5863,-6.87516,1014.45
239126,-0.243902,9.76566,1.2769,0.14,0.21,0.07,25.954,-39.2841,-6.9744,1014.45
239132,-0.253467,9.78957,1.24342,-0.35,-0.07,0.07,25.1232,-39.1104,-7.64073,1014.47
239138,-0.205643,9.74175,1.26255,0.07,-0.77,0.21,26.0113,-40.5863,-7.99515,1014.47
239144,-0.210426,9.73218,1.29603,-0.21,-0.35,0.35,25.7821,-40.4995,-6.74756,1014.48
239150,-0.191296,9.71784,1.2769,0.35,-0.91,0.14,25.8394,-39.6313,-7.1587,1014.48
239156,-0.191296,9.71784,1.31516,0.56,0.07,0.21,25.8967,-39.7471,-6.71921,1014.45
239162,-0.157819,9.74653,1.3056,-0.14,-0.42,-0.14,25.0946,-40.8757,-5.88276,1014.45
239168,-0.23912,9.73218,1.28168,0.14,0.14,0,25.5243,-39.6603,-7.14453,1014.47
239174,-0.215208,9.74653,1.28168,0.14,-0.28,-0.21,25.2378,-39.313,-6.98858,1014.47
239180,-0.196078,9.73697,1.29603,0.07,0,-0.21,25.0659,-40.5574,-7.37136,1014.44
239186,-0.224773,9.74175,1.28168,0.07,-0.49,-0.21,25.467,-40.4995,-7.68326,1014.44
239192,-0.210426,9.73697,1.26734,0.42,0,0.07,25.0373,-39.0526,-6.98858,1014.43
239198,-0.21999,9.70827,1.29603,0.07,-0.49,-0.42,25.4956,-40.7021,-6.10959,1014.43
239204,-0.224773,9.73218,1.31038,0.35,0,-0.28,25.2092,-40.268,-7.21541,1014.43
239210,-0.21999,9.72262,1.28168,0.63,-0.21,-0.21,24.8654,-39.6024,-7.22959,1014.49
239216,-0.224773,9.74653,1.28168,-0.14,0.14,-0.35,26.0972,-40.5863,-6.49238,1014.49
239222,-0.224773,9.74653,1.29603,0.21,-0.35,-0.7,25.1805,-40.8757,-6.53491,1014.44
239228,-0.263032,9.75131,1.2769,0.63,-0.21,-0.56,25.6102,-39.805,-7.42807,1014.44
239234,-0.23912,9.78957,1.29125,0.21,-0.56,-0.14,25.7821,-39.1683,-7.56984,1014.49
239240,-0.248685,9.78957,1.28168,-0.28,0,-0.28,25.5529,-41.3387,-7.05946,1014.49
239246,-0.224773,9.74653,1.29603,0.21,-0.07,-0.14,25.2092,-40.1812,-6.73339,1014.47
239252,-0.200861,9.74653,1.3056,0.21,0.14,-0.21,24.9227,-39.0526,-7.24376,1014.47
239258,-0.224773,9.74653,1.28647,0.21,-0.07,-0.21,25.3238,-40.0654,-7.30047,1014.43
239264,-0.23912,9.73218,1.30081,0.35,-0.77,0.35,25.7248,-40.3259,-6.94604,1014.43
239270,-0.176949,9.7274,1.3056,0.21,-0.21,-0.07,24.8654,-39.0815,-7.30047,1014.44
239276,-0.200861,9.72262,1.29603,-0.07,-0.42,-0.35,25.3238,-39.313,-7.68326,1014.44
239282,-0.200861,9.73697,1.28168,0.14,0.49,-0.28,26.0113,-40.2101,-7.64073,1014.48
239288,-0.191296,9.74653,1.28647,0.49,0.28,-0.28,25.868,-39.8629,-7.24376,1014.48
239294,-0.215208,9.71784,1.28168,0.28,0,-0.28,25.868,-39.0526,-7.20123,1014.48
239300,-0.215208,9.74653,1.29125,0.28,-0.63,-0.42,25.1805,-40.6731,-7.38554,1014.45
239306,-0.210426,9.74653,1.29603,0.63,-0.07,-0.49,24.6362,-40.4416,-7.1587,1014.45
239312,-0.210426,9.73697,1.28168,0,-0.49,-0.63,26.2405,-39.4866,-6.81845,1014.46
239318,-0.248685,9.7561,1.2769,0.42,0.28,-0.28,25.467,-40.4127,-6.52073,1014.46
239324,-0.23912,9.74653,1.28647,0.21,-0.21,-0.42,25.868,-41.194,-5.89694,1014.46
239330,-0.248685,9.71305,1.30081,0.49,0.42,-0.28,25.5816,-39.5735,-6.32225,1014.46
239336,-0.282162,9.73697,1.32472,0.84,-0.21,-0.07,25.4383,-40.268,-7.75414,1014.48
239342,-0.25825,9.79436,1.30081,-0.07,0.07,-0.21,25.1232,-41.8018,-6.98858,1014.48
239348,-0.25825,9.81349,1.26255,0.21,-0.14,0.07,25.2378,-40.0075,-7.75414,1014.47
239354,-0.267814,9.75131,1.29125,0.14,-0.07,0.07,25.5529,-39.342,-7.37136,1014.47
239360,-0.229555,9.73218,1.31516,0,0.07,-0.07,25.7535,-41.0783,-6.7901,1014.49
239366,-0.234338,9.74653,1.3056,0.14,-0.28,0.21,25.1232,-40.4127,-6.91769,1014.49
239372,-0.248685,9.73697,1.3056,0.56,-0.07,0.49,25.2665,-39.2262,-7.92427,1014.49
239378,-0.215208,9.78001,1.30081,0.28,0.14,0.35,25.2665,-40.2391,-6.36478,1014.46
239384,-0.248685,9.73697,1.31516,0.49,-0.21,0.21,25.1232,-40.5285,-6.32225,1014.46
239390,-0.200861,9.73697,1.30081,0.28,-0.42,0.07,25.6389,-39.2841,-6.42149,1014.46
239396,-0.210426,9.73218,1.2769,-0.14,-0.21,0.21,25.0086,-40.8178,-7.22959,1014.46
239402,-0.210426,9.72262,1.29603,0.63,-0.35,0.21,25.467,-40.7021,-7.35718,1014.49
239408,-0.224773,9.77523,1.23864,0.21,0.14,0.07,25.1232,-39.6024,-6.27972,1014.49
239414,-0.224773,9.7274,1.26255,0,-0.07,0.21,25.1232,-39.5735,-7.08782,1014.45
239420,-0.210426,9.73218,1.32951,-0.28,-0.21,0.07,25.1805,-40.8757,-6.63415,1014.45
239426,-0.23912,9.69392,1.31994,0.21,-0.07,0,24.8654,-40.4706,-6.12377,1014.46
239432,-0.196078,9.71305,1.26255,0.14,0.07,-0.07,25.2951,-38.9947,-6.02453,1014.46
239438,-0.21999,9.7274,1.29125,-0.14,0.28,0.07,24.8081,-39.8918,-6.56326,1014.48
239444,-0.23912,9.71305,1.33907,0.56,-0.35,0.14,24.6076,-40.6442,-7.31465,1014.48
239450,-0.215208,9.72262,1.29603,0.21,-0.14,-0.14,25.7821,-38.7632,-6.46402,1014.48
239456,-0.248685,9.77044,1.28647,0.21,-0.42,-0.07,25.4383,-39.3709,-7.32883,1014.47
239462,-0.248685,9.77044,1.28168,0.21,-0.14,-0.07,25.868,-40.8757,-6.32225,1014.47
239468,-0.21999,9.7561,1.28168,-0.07,0.07,0.14,25.0946,-39.8629,-6.35061,1014.46
239474,-0.181731,9.7274,1.28647,-0.07,-0.35,0.14,25.1519,-39.6024,-8.02351,1014.46
239480,-0.200861,9.76566,1.3056,0.21,-0.56,-0.21,25.5816,-40.4416,-6.96022,1014.51
239486,-0.234338,9.74653,1.2769,0.21,-0.35,-0.21,25.0086,-39.8629,-6.30807,1014.51
239492,-0.224773,9.77523,1.26255,0.28,-0.49,0.14,25.7535,-38.6764,-6.83263,1014.48
239498,-0.267814,9.73697,1.31038,0.14,0.28,0.35,25.954,-40.1522,-6.06706,1014.48
239504,-0.196078,9.73218,1.33429,0.42,-0.14,-0.14,25.2951,-40.2391,-6.35061,1014.45
239510,-0.200861,9.7274,1.28647,-0.14,0.14,0.07,25.7535,-38.4159,-6.93187,1014.45
239516,-0.215208,9.76566,1.2769,0.14,0.07,0.14,24.7795,-39.342,-8.36376,1014.45
239522,-0.243902,9.74175,1.28168,0.35,0.35,-0.07,24.98,-40.9625,-7.35718,1014.45
239528,-0.200861,9.72262,1.32951,0.35,-0.28,-0.14,25.7821,-39.2262,-7.10199,1014.46
239534,-0.205643,9.74175,1.31516,0.14,-0.49,0.07,26.2691,-39.805,-6.54909,1014.46
239540,-0.224773,9.71784,1.3056,0.84,-0.56,-0.21,25.3811,-40.76,-7.07364,1014.46
239546,-0.210426,9.73697,1.26255,0.63,-0.21,0.21,25.2951,-40.2391,-6.83263,1014.48
239552,-0.215208,9.73218,1.31994,0.35,0.28,-0.35,25.8108,-39.5445,-7.48478,1014.48
239558,-0.248685,9.73697,1.3056,0.35,-0.49,-0.07,25.5529,-40.3838,-7.17288,1014.48
239564,-0.224773,9.73697,1.26255,0.35,0.56,0,25.1232,-40.268,-7.56984,1014.48
239570,-0.23912,9.79914,1.24821,0.49,0,0.35,25.8394,-38.9079,-7.52731,1014.51
239576,-0.23912,9.78479,1.26734,-0.07,0.63,0.49,26.0399,-39.6024,-8.13692,1014.51
239582,-0.263032,9.78957,1.29603,-0.07,-0.21,0.77,25.3524,-40.4127,-7.7825,1014.49
239588,-0.306074,9.81349,1.25777,-0.14,-0.91,0.35,25.3811,-38.8789,-7.51313,1014.49
239594,-0.234338,9.81349,1.25299,-0.28,-0.42,0.98,24.6362,-39.2551,-7.31465,1014.45
239600,-0.234338,9.77044,1.33429,-0.21,-0.7,1.4,24.8081,-40.8178,-8.34958,1014.45
239606,-0.229555,9.77044,1.31516,0,0.35,0.91,25.2665,-40.3259,-7.2863,1014.43
239612,-0.23912,9.77044,1.28647,-0.07,-0.28,1.68,25.6389,-39.0236,-7.31465,1014.43
239618,-0.181731,9.80392,1.24342,-0.49,0.91,1.19,25.5243,-40.5285,-6.98858,1014.43
239624,-0.224773,9.72262,1.34864,-0.28,-0.49,1.05,24.7222,-40.7021,-7.24376,1014.48
239630,-0.162602,9.76088,1.28647,-0.42,0.7,1.33,24.2925,-40.4995,-6.80427,1014.48
239636,-0.263032,9.76088,1.31516,-0.35,-0.49,1.54,24.9227,-40.2391,-8.25034,1014.47
239642,-0.162602,9.80392,1.22429,-0.42,-0.35,1.54,25.0659,-40.9915,-6.86098,1014.47
239648,-0.191296,9.76566,1.31994,-0.91,-0.14,1.4,24.9514,-39.8629,-6.96022,1014.49
239654,-0.23912,9.74175,1.36777,-0.77,-0.56,1.47,24.8368,-40.2391,-8.37794,1014.49
239660,-0.205643,9.68914,1.33429,-0.21,0.28,1.54,24.6649,-40.76,-6.49238,1014.49
239666,-0.148254,9.7274,1.32472,-0.28,0.28,1.12,24.579,-41.223,-7.38554,1014.49
239672,-0.162602,9.70827,1.32951,-0.07,0.28,1.19,25.3524,-39.4577,-7.69743,1014.46
239678,-0.143472,9.67958,1.3582,-0.49,-0.07,0.91,25.5816,-40.6153,-7.93845,1014.46
239684,-0.181731,9.70349,1.33429,0.21,0.35,1.12,25.5243,-40.3259,-7.76832,1014.45
239690,-0.148254,9.76088,1.31516,-0.42,-0.35,1.26,25.4097,-39.2841,-7.54149,1014.45
239696,-0.229555,9.75131,1.28647,-0.14,-0.42,1.12,25.6962,-39.5735,-7.52731,1014.48
239702,-0.229555,9.78479,1.25777,-0.42,-0.77,1.33,25.1232,-40.7889,-6.53491,1014.48
239708,-0.191296,9.82783,1.24821,-0.77,0.14,1.12,24.8368,-39.8339,-7.64073,1014.48
239714,-0.229555,9.8087,1.25777,-0.91,0.42,1.19,25.1232,-40.0654,-7.86756,1014.48
239720,-0.191296,9.74653,1.32472,-0.56,0.14,1.54,25.7248,-41.194,-7.08782,1014.48
239726,-0.157819,9.70349,1.37733,-0.49,0.42,1.4,25.0086,-40.9336,-7.79667,1014.42
239732,-0.148254,9.69871,1.34385,-0.28,-0.28,1.12,25.4383,-39.3998,-8.20781,1014.42
239738,-0.124342,9.66523,1.3582,-0.49,-0.07,1.05,25.2665,-41.0204,-7.93845,1014.46
239744,-0.129125,9.66045,1.3869,-0.07,-0.84,0.7,24.6076,-40.5863,-7.07364,1014.46
239750,-0.105213,9.66045,1.36298,0.07,0.28,0.21,24.5503,-39.5735,-8.37794,1014.46
239756,-0.11956,9.65567,1.36298,0.56,-0.42,0,25.4956,-39.4866,-7.71161,1014.46
239762,-0.109995,9.66523,1.33907,0.14,0.63,0.07,25.0086,-41.3677,-7.00275,1014.47
239768,-0.172166,9.70827,1.3056,0.56,0.21,0.07,25.0946,-39.3998,-7.10199,1014.47
239774,-0.229555,9.79436,1.28168,0.35,0.28,-0.35,25.0373,-40.2391,-7.82503,1014.44
239780,-0.167384,9.76566,1.25777,0.07,0,-0.21,24.7508,-40.9336,-6.84681,1014.44
239786,-0.181731,9.75131,1.30081,0.35,-0.14,-0.35,24.6362,-40.2101,-7.6549,1014.44
239792,-0.215208,9.7561,1.32472,-0.14,-0.14,-0.28,25.6102,-39.313,-7.71161,1014.47
239798,-0.205643,9.73697,1.31038,0,-0.28,-0.35,24.9514,-40.1522,-7.03111,1014.47
239804,-0.162602,9.76566,1.26734,-0.14,-0.28,0.14,25.1805,-40.9625,-7.2863,1014.49
239810,-0.153037,9.78479,1.24821,-0.28,-0.56,-0.21,25.3811,-39.313,-7.01693,1014.49
239816,-0.191296,9.66523,1.38211,0.14,0.28,0.14,25.7821,-40.2969,-8.16528,1014.5
239822,-0.167384,9.68436,1.37255,0.07,0.07,-0.28,25.2951,-40.9915,-7.56984,1014.5
239828,-0.176949,9.69392,1.40603,0.28,0.42,-0.14,24.4644,-40.2101,-7.55566,1014.47
239834,-0.172166,9.78001,1.33907,0.14,0.14,-0.07,25.0373,-39.3998,-7.68326,1014.47
239840,-0.167384,9.79914,1.29603,0.07,-0.14,-0.14,25.1519,-40.731,-6.13795,1014.46
239846,-0.157819,9.75131,1.31994,0.49,0.07,-0.14,24.8081,-40.2391,-7.35718,1014.46
239852,-0.205643,9.70349,1.38211,0.14,0.21,-0.07,24.4071,-39.2551,-7.88174,1014.45
239858,-0.186514,9.7274,1.3582,0.49,-0.14,-0.07,25.0946,-40.0365,-7.39971,1014.45
239864,-0.181731,9.75131,1.28168,0.63,-0.21,-0.14,25.0946,-40.9625,-7.22959,1014.45
239870,-0.186514,9.78957,1.30081,0.42,-0.14,-0.14,25.2378,-38.9368,-7.79667,1014.5
239876,-0.172166,9.75131,1.29603,0.49,0.49,-0.28,24.6649,-39.9786,-7.61237,1014.5
239882,-0.162602,9.75131,1.30081,0.7,0.14,-0.07,24.7508,-40.1522,-7.17288,1014.49
239888,-0.172166,9.73218,1.31994,0.49,0.28,0.14,24.7795,-39.3709,-7.58402,1014.49
239894,-0.172166,9.72262,1.3056,0.07,-0.07,-0.49,25.2092,-39.6603,-6.87516,1014.48
239900,-0.162602,9.73218,1.33429,0.35,0.28,-0.21,24.493,-41.0493,-7.22959,1014.48
239906,-0.200861,9.75131,1.3056,0.42,-0.56,-0.56,24.5217,-39.776,-7.37136,1014.43
239912,-0.200861,9.74175,1.32951,-0.42,0,-0.21,24.4357,-39.5156,-6.59162,1014.43
239918,-0.133907,9.74175,1.31994,0.98,-0.63,-0.07,25.3811,-40.8178,-7.37136,1014.43
239924,-0.191296,9.80392,1.31038,0.07,0.42,-0.07,24.98,-40.8757,-8.03769,1014.43
239930,-0.286944,9.8087,1.30081,-0.14,0.35,0.07,24.8081,-39.5156,-7.93845,1014.46
239936,-0.200861,9.81349,1.27212,0.14,0.42,0.28,25.0659,-39.9786,-7.73996,1014.46
239942,-0.133907,9.76088,1.31516,-0.35,0.14,0.14,24.2065,-40.5574,-6.81845,1014.48
239948,-0.191296,9.71305,1.3582,0.14,-0.56,0.35,24.3211,-40.5285,-8.2787,1014.48
239954,-0.172166,9.75131,1.32951,0.42,0,0.56,24.7222,-39.4866,-6.88934,1014.48
239960,-0.153037,9.73697,1.31994,-0.28,-0.21,0.14,24.98,-41.1651,-6.94604,1014.45
239966,-0.13869,9.71784,1.35342,-0.28,0.56,0.07,25.6962,-39.9497,-8.22199,1014.45
239972,-0.133907,9.70827,1.36298,0.14,-0.28,-0.14,25.0373,-39.5445,-6.81845,1014.47
239978,-0.157819,9.67958,1.33907,-0.28,0.77,-0.42,24.9227,-40.1522,-7.4706,1014.47
239984,-0.133907,9.68436,1.3869,0.21,0,0,24.8654,-40.3548,-7.56984,1014.47
239990,-0.157819,9.70349,1.3582,0.42,0,-0.49,25.7535,-38.9657,-7.79667,1014.47
239996,-0.148254,9.73697,1.33429,0.56,-0.77,-0.42,25.467,-40.2391,-7.75414,1014.48
240002,-0.215208,9.7561,1.26255,-0.21,0.07,-0.49,26.5556,-40.2391,-7.18706,1014.48
240008,-0.215208,9.76088,1.3056,0.21,0,-0.14,25.3811,-39.6603,-7.48478,1014.45
240014,-0.21999,9.78001,1.32472,-0.42,0.49,-0.21,25.8108,-38.7632,-7.42807,1014.45
240020,-0.224773,9.79914,1.3056,-0.21,-0.14,0,25.5816,-39.8918,-6.71921,1014.48
240026,-0.215208,9.74175,1.31038,0.42,0.14,0.21,25.8967,-40.2969,-7.343,1014.48
240032,-0.196078,9.74175,1.3582,0.14,-0.07,0.28,25.4097,-39.2841,-7.68326,1014.48
240038,-0.200861,9.76088,1.36777,-0.14,-0.35,0.56,25.5816,-40.6442,-6.15213,1014.46
240044,-0.229555,9.78479,1.32951,0.63,-0.14,0.07,25.1232,-41.0204,-6.6625,1014.46
240050,-0.167384,9.74175,1.39168,0.21,0.21,0.77,25.467,-38.9947,-7.59819,1014.49
240056,-0.191296,9.84218,1.23864,-0.21,0.35,0.42,24.4071,-39.7471,-7.20123,1014.49
240062,-0.205643,9.71784,1.37733,0.35,0.07,0.35,24.6935,-40.731,-6.93187,1014.47
240068,-0.181731,9.78957,1.27212,0.35,0.28,0.7,24.8368,-39.0815,-6.36478,1014.47
240074,-0.186514,9.69392,1.3869,0.14,0.49,0.7,25.6389,-39.1683,-7.52731,1014.46
240080,-0.162602,9.84696,1.26255,0.07,0.56,0.63,24.6076,-41.1072,-6.74756,1014.46
240086,-0.172166,9.73697,1.30081,0.14,0.49,0.42,24.7222,-40.4706,-7.08782,1014.44
240092,-0.162602,9.70827,1.36298,0.56,-0.14,0.49,25.4383,-39.0236,-7.22959,1014.44
240098,-0.13869,9.68436,1.37733,-0.35,0.14,0.07,25.1519,-39.8918,-6.19466,1014.47
240104,-0.176949,9.70349,1.37255,0.49,-0.28,0.35,24.8368,-39.776,-7.343,1014.47
240110,-0.129125,9.71305,1.32472,0.91,-0.07,-0.14,25.0373,-38.7632,-7.25794,1014.47
240116,-0.21999,9.77523,1.31994,0.42,-0.42,0,25.0373,-39.8918,-6.9744,1014.47
240122,-0.181731,9.7561,1.31994,0.56,0.07,0.42,25.2092,-40.5863,-7.86756,1014.47
240128,-0.253467,9.81827,1.32472,0.98,0,0.42,25.0373,-39.5445,-8.1511,1014.46
240134,-0.191296,9.79436,1.29125,-0.35,0,0.7,24.7795,-39.0815,-7.38554,1014.46
240140,-0.157819,9.78001,1.29125,-0.14,-0.49,0.77,25.2092,-40.4416,-6.63415,1014.47
240146,-0.157819,8.57963,1.31994,-0.49,0.35,0.63,25.2092,-39.9786,-6.50655,1014.47
240152,-0.167384,9.76566,1.31994,-0.35,0,1.19,25.8108,-38.6764,-7.07364,1014.45
240158,-0.176949,9.76566,1.32951,-0.21,0.14,0.84,24.4357,-40.2391,-7.25794,1014.45
240164,-0.10043,9.76088,1.31038,-0.63,0.28,0.77,24.7508,-40.4995,-6.02453,1014.46
240170,-0.172166,9.76566,1.31038,-0.49,0,1.05,24.7222,-39.4288,-7.39971,1014.46
240176,-0.215208,9.74653,1.39168,-0.63,0.35,0.91,24.9227,-40.2969,-7.9668,1014.5
240182,-0.162602,9.70827,1.38211,-0.21,0.07,0.56,25.3811,-40.5574,-7.37136,1014.5
240188,-0.172166,9.69392,1.3869,0.07,0,1.05,24.579,-39.3998,-6.36478,1014.42
240194,-0.162602,9.77044,1.32472,0.07,0.21,1.05,25.2665,-39.0236,-7.61237,1014.42
240200,-0.13869,9.77044,1.30081,-0.07,0.7,1.12,24.579,-40.9047,-7.48478,1014.42
240206,-0.124342,9.68436,1.42037,0,0.42,0.7,25.2378,-40.1812,-7.00275,1014.48
240212,-0.109995,9.69392,1.3869,0.07,0.63,1.05,24.8081,-39.1683,-7.2863,1014.48
240218,-0.143472,9.71305,1.32951,-0.21,-0.14,0.56,24.6649,-40.5285,-7.55566,1014.46
240224,-0.148254,9.71305,1.36777,0.21,0.07,0.63,25.2378,-39.9497,-7.51313,1014.46
240230,-0.153037,9.71305,1.32951,0,-0.49,0.7,25.2092,-39.1683,-7.22959,1014.47
240236,-0.153037,9.71305,1.3056,0.07,0.21,0.49,24.4071,-40.4416,-7.56984,1014.47
240242,-0.176949,9.8087,1.2769,-0.14,-0.14,0.7,25.868,-40.2969,-6.88934,1014.46
240248,-0.176949,9.78479,1.31994,-0.14,0.42,0.84,25.6102,-39.6313,-7.58402,1014.46
240254,-0.148254,9.73218,1.37255,-0.21,-0.35,0.63,24.9227,-38.7921,-7.45642,1014.46
240260,-0.181731,9.69392,1.42994,-0.07,0,0.7,25.2951,-40.5863,-6.61997,1014.46
240266,-0.205643,9.75131,1.33907,0,-0.49,0.7,24.6076,-39.3709,-6.46402,1014.46
240272,-0.229555,9.88522,1.27212,-0.28,0.07,1.26,25.2378,-38.358,-7.9668,1014.46
