Timestamp,AccX,AccY,AccZ,AngularVelX,AngularVelY,AngularVelZ,MagX,MagY,MagZ,AirPressure
248762,0.176949,9.87087,0.683883,1.82,-3.36,-0.07,23.1698,-47.4166,-23.3934,1014.73
248768,0.224773,9.8374,0.69823,1.82,-3.5,-0.42,23.3441,-46.8923,-21.9453,1014.71
248774,0.21999,9.83261,0.679101,1.47,-3.08,-0.77,23.0245,-48.7735,-21.0587,1014.71
248780,0.172166,9.88522,0.659971,1.61,-3.15,-0.56,23.0536,-46.1213,-21.5759,1014.7
248786,0.157819,9.83261,0.683883,1.05,-3.01,-1.19,22.9954,-46.5839,-22.226,1014.7
248792,0.13869,9.8087,0.71736,1.54,-3.01,-0.7,23.286,-48.5576,-21.0439,1014.7
248798,0.148254,9.83261,0.726925,0.98,-2.94,-0.7,23.1117,-47.2315,-21.9453,1014.7
248804,0.124342,9.80392,0.755619,1.47,-3.22,-1.19,23.0245,-46.4914,-21.7089,1014.69
248810,0.10043,9.78479,0.741272,1.4,-2.87,-0.7,23.1117,-47.6324,-21.4429,1014.69
248816,0.095648,9.78479,0.750837,1.89,-3.29,-0.14,23.257,-48.8352,-20.4972,1014.69
248822,0.10043,9.78479,0.750837,1.33,-2.94,-0.14,23.4603,-47.1082,-21.3985,1014.72
248828,0.105213,9.81349,0.712578,2.1,-3.22,0,23.1117,-47.0773,-21.4133,1014.72
248834,0.129125,9.78957,0.755619,1.12,-3.15,-0.21,22.9954,-48.866,-21.1326,1014.69
248840,0.11956,9.76088,0.755619,2.1,-3.43,0.35,22.3562,-47.1082,-21.9157,1014.69
248846,0.143472,9.76566,0.726925,1.82,-3.22,0,21.8041,-45.9054,-20.8518,1014.69
248852,0.114778,9.75131,0.73649,1.89,-3.36,0.14,22.5596,-48.4343,-20.7484,1014.69
248858,0.13869,9.76088,0.73649,2.24,-3.15,0.21,23.1988,-48.1259,-21.2951,1014.67
248864,0.153037,9.81349,0.693448,2.03,-3.15,0,22.6177,-46.0596,-22.6545,1014.67
248870,0.186514,9.79914,0.707795,2.03,-3.29,-0.63,23.2279,-48.1567,-20.5267,1014.69
248876,0.167384,9.82783,0.712578,1.75,-2.87,-17.78,23.0536,-49.0819,-20.9553,1014.69
248882,0.167384,9.84696,0.712578,1.54,-3.5,-0.28,22.792,-46.1521,-20.9553,1014.69
248888,0.25825,9.85174,0.655189,2.1,-3.36,-0.21,22.269,-47.3857,-21.6793,1014.71
248894,0.210426,9.89479,0.650406,1.68,-3.22,-0.42,22.9373,-48.4651,-20.4972,1014.71
248900,0.143472,9.82305,0.703013,1.26,-3.01,-1.12,22.5886,-46.954,-21.3247,1014.72
248906,0.148254,9.80392,0.779531,1.68,-3.08,-0.63,22.9664,-47.1698,-21.6497,1014.72
248912,0.13869,9.78001,0.73649,1.82,-3.01,-0.84,22.8792,-48.4034,-22.1226,1014.69
248918,0.157819,9.83261,0.707795,1.68,-2.87,-0.91,23.3441,-47.5708,-20.9405,1014.69
248924,0.10043,9.80392,0.712578,1.54,-3.15,-1.12,22.9954,-46.9231,-21.4281,1014.72
248930,0.10043,9.78001,0.73649,1.68,-3.5,-0.77,22.6468,-48.095,-20.8814,1014.72
248936,0.0765184,9.79914,0.741272,1.61,-3.08,0.07,22.4724,-47.7866,-21.0735,1014.72
248942,0.114778,9.76566,0.731707,2.17,-3.08,-0.42,22.1528,-46.6764,-20.9109,1014.67
248948,0.0813008,9.81827,0.712578,1.82,-3.57,0,21.8622,-47.2932,-20.8223,1014.67
248954,0.105213,9.7561,0.707795,1.33,-2.87,-0.56,23.0536,-48.681,-20.3494,1014.7
248960,0.143472,9.78001,0.755619,1.75,-3.22,0,22.763,-47.6633,-21.2803,1014.7
248966,0.143472,9.81349,0.755619,1.47,-2.87,0.35,22.2109,-46.3063,-21.3542,1014.67
248972,0.13869,9.80392,0.741272,1.82,-3.22,-0.35,22.7339,-48.0025,-20.7188,1014.67
248978,0.143472,9.8087,0.746054,1.82,-3.85,-0.28,22.792,-47.1082,-21.2803,1014.69
248984,0.181731,9.8374,0.73649,1.89,-3.36,0,22.3852,-45.8129,-21.502,1014.69
248990,0.191296,9.78479,0.755619,2.17,-2.73,-0.07,22.7049,-48.2184,-21.7236,1014.69
248996,0.162602,9.76566,0.73649,2.24,-3.43,-0.49,21.8913,-47.6941,-21.1326,1014.7
249002,0.205643,9.84696,0.669536,1.82,-3.22,-0.49,21.8622,-46.8306,-22.359,1014.7
249008,0.162602,9.81827,0.650406,1.89,-2.8,-0.77,22.2109,-47.1082,-21.8123,1014.72
249014,0.133907,9.82783,0.703013,1.96,-2.59,-0.56,22.5596,-48.5268,-21.5611,1014.72
249020,0.114778,9.82305,0.769966,1.89,-3.36,-0.56,22.763,-46.9231,-21.9009,1014.69
249026,0.114778,9.82305,0.755619,1.75,-3.22,-0.56,22.5886,-46.3372,-21.4872,1014.69
249032,0.13869,9.81349,0.741272,1.89,-3.01,-0.07,23.1698,-48.2184,-21.369,1014.71
249038,0.11956,9.81827,0.760402,1.68,-2.8,-0.42,22.6177,-47.8792,-20.7188,1014.71
249044,0.095648,9.8087,0.750837,1.96,-2.94,-0.42,22.7339,-46.6456,-21.9157,1014.67
249050,0.0813008,9.79914,0.746054,1.61,-3.36,-0.14,22.6468,-48.3109,-21.4577,1014.67
249056,0.124342,9.79436,0.73649,2.03,-3.15,-0.07,22.9954,-48.1567,-20.4233,1014.67
249062,0.10043,9.78001,0.71736,2.1,-3.15,0.42,21.9785,-46.3372,-21.4133,1014.69
249068,0.114778,9.78479,0.722142,2.24,-4.06,-0.21,22.5596,-46.8306,-20.8223,1014.69
249074,0.124342,9.78001,0.707795,1.96,-3.36,0.21,22.8792,-47.6941,-21.6497,1014.68
249080,0.172166,9.79914,0.712578,2.45,-3.01,0.35,22.4143,-46.7381,-21.9896,1014.68
249086,0.215208,9.79914,0.679101,2.17,-2.73,-0.21,21.9494,-47.324,-21.7089,1014.7
249092,0.148254,9.87087,0.693448,2.17,-2.66,0.07,23.4313,-49.0511,-21.7827,1014.7
249098,0.143472,9.85653,0.688666,1.75,-3.64,-0.56,22.3271,-47.725,-20.4381,1014.72
249104,0.205643,9.8374,0.693448,1.89,-3.08,-0.56,22.9083,-45.9054,-21.6202,1014.72
249110,0.176949,9.80392,0.722142,1.4,-2.52,-0.28,22.9954,-48.2801,-21.5611,1014.72
249116,0.114778,9.82783,0.712578,1.54,-3.15,-0.77,22.763,-48.2801,-20.9848,1014.69
249122,0.105213,9.8087,0.693448,0.98,-2.8,-0.56,21.9203,-46.1521,-21.4133,1014.69
249128,0.133907,9.82783,0.726925,1.68,-3.15,-0.14,22.3271,-47.725,-21.4133,1014.68
249134,0.176949,9.8374,0.650406,1.33,-3.01,-0.63,22.9954,-48.4343,-20.7779,1014.68
249140,0.071736,9.8087,0.746054,1.47,-3.22,-1.05,23.1698,-47.7866,-21.5463,1014.7
249146,0.0765184,9.74175,0.784314,1.68,-2.94,-0.42,22.1818,-46.7073,-21.4872,1014.7
249152,0.13869,9.77523,0.784314,1.82,-2.73,-0.63,23.2279,-47.8483,-21.0882,1014.7
249158,0.129125,9.77044,0.722142,1.68,-3.01,-0.28,23.0536,-47.5399,-20.6893,1014.7
249164,0.0765184,9.78957,0.779531,1.82,-3.36,-0.07,22.6177,-46.1521,-21.8123,1014.7
249170,0.095648,9.79914,0.731707,1.61,-3.5,-0.42,23.1407,-47.3549,-21.8862,1014.71
249176,0.11956,9.80392,0.755619,1.89,-3.43,0.28,22.7049,-47.725,-20.9109,1014.71
249182,0.13869,9.77523,0.731707,2.24,-3.29,-0.35,22.3852,-45.9363,-21.236,1014.73
249188,0.148254,9.77044,0.765184,1.68,-2.87,-0.42,23.1407,-46.5839,-21.1917,1014.73
249194,0.11956,9.82305,0.69823,1.68,-3.36,0.21,23.257,-48.7427,-21.3838,1014.7
249200,0.157819,9.80392,0.683883,1.68,-2.87,0.21,22.7049,-47.1082,-22.226,1014.7
249206,0.153037,9.79914,0.707795,1.68,-3.08,-0.21,22.5596,-46.3063,-22.8023,1014.7
249212,0.143472,9.81349,0.650406,1.33,-3.01,-0.28,23.6637,-47.7558,-21.9305,1014.7
249218,0.167384,9.81827,0.655189,1.47,-2.45,-0.28,22.8792,-47.5399,-22.6989,1014.7
249224,0.153037,9.86609,0.712578,1.4,-2.66,-0.35,23.1117,-45.2578,-23.5264,1014.7
249230,0.196078,9.84696,0.703013,1.12,-1.89,0,22.8211,-46.7998,-21.4429,1014.7
249236,0.13869,9.85174,0.5978,0.35,-0.84,-0.21,23.8381,-47.8175,-20.0539,1014.7
249242,0.162602,9.89,0.57867,0.14,-0.63,-0.63,22.269,-45.412,-22.0635,1014.7
249248,0.13869,9.82783,0.707795,-0.35,0.07,-0.28,22.4724,-47.3549,-21.9601,1014.7
249254,0.10043,9.89479,0.621712,-1.12,0.77,0.63,22.7049,-48.8044,-21.9896,1014.7
249260,0.191296,9.85174,0.588235,-1.4,1.75,0.28,22.5305,-46.8306,-22.6693,1014.71
249266,0.0621712,9.68436,0.899091,-1.54,1.12,-0.49,21.8913,-45.7512,-22.2999,1014.71
249272,0.105213,9.69871,0.923003,-0.63,0.49,0.35,22.3271,-48.1259,-21.635,1014.7
249278,0.148254,9.8087,0.779531,-0.28,0.63,0.56,22.5015,-47.5399,-20.7484,1014.7
249284,0.0526064,9.73218,0.822573,0.07,0,-0.07,22.9954,-45.9363,-22.4625,1014.7
249290,0.0908656,9.73218,0.851267,0.14,-0.84,0.63,23.1988,-47.2007,-21.1917,1014.72
249296,0.133907,9.74175,0.81779,0.77,-1.05,0.07,22.5305,-47.9408,-22.0192,1014.72
249302,0.109995,9.75131,0.813008,1.54,-1.12,0.07,22.9954,-46.7073,-21.9601,1014.68
249308,0.124342,9.79914,0.765184,1.4,-1.75,0.63,22.5305,-47.0773,-22.1078,1014.68
249314,0.234338,9.81349,0.73649,1.61,-1.82,-0.07,22.8502,-48.8352,-21.9305,1014.68
249320,0.114778,9.87087,0.769966,1.19,-1.89,-0.14,22.6758,-46.1213,-21.9009,1014.68
249326,0.167384,9.84218,0.750837,1.61,-1.96,-0.35,22.8211,-46.1521,-22.891,1014.72
249332,0.148254,9.82783,0.803443,1.54,-2.24,-0.28,23.0826,-48.1259,-21.6497,1014.72
249338,0.172166,9.84696,0.765184,1.82,-2.73,-0.56,22.8502,-47.6633,-21.768,1014.72
249344,0.0813008,9.8374,0.774749,2.03,-3.57,-0.91,22.5886,-46.3063,-22.0339,1014.71
249350,0.13869,9.79914,0.789096,1.61,-3.57,-0.91,22.2981,-48.1259,-21.7384,1014.71
249356,0.0908656,9.76566,0.841702,2.8,-3.92,-0.77,23.1988,-48.9586,-22.7875,1014.69
249362,0.105213,9.77044,0.832138,2.66,-4.48,-0.77,22.6177,-46.4605,-21.4281,1014.69
249368,0.0765184,9.73697,0.822573,3.43,-4.69,-0.42,21.7169,-47.5399,-21.9157,1014.69
249374,0.071736,9.77523,0.827355,3.43,-4.76,-0.56,22.8211,-48.496,-21.369,1014.69
249380,0.153037,9.88044,0.612147,3.29,-4.13,-0.63,22.6758,-47.7866,-21.2803,1014.72
249386,0.10043,9.92826,0.559541,1.68,-3.43,-0.28,23.4022,-46.1213,-22.2704,1014.72
249392,0.0143472,9.76088,0.760402,2.17,-3.99,0,22.5886,-48.496,-21.2508,1014.68
249398,0.0669536,9.75131,0.73649,1.61,-3.64,0.49,22.7339,-47.2932,-21.3099,1014.68
249404,0.143472,9.77523,0.798661,1.61,-2.94,0.49,22.8211,-46.3989,-22.3886,1014.68
249410,0.167384,9.76566,0.774749,2.38,-2.8,0.63,23.1698,-47.7866,-22.1226,1014.68
249416,0.148254,9.80392,0.741272,1.54,-2.31,1.12,22.8502,-47.91,-21.7236,1014.68
249422,0.047824,9.71305,0.875179,2.52,-3.22,0.84,22.792,-47.139,-22.3886,1014.68
249428,0.181731,9.76566,0.774749,1.89,-3.01,1.12,22.9083,-46.8923,-22.226,1014.68
249434,0.234338,9.78957,0.679101,2.24,-2.52,0.84,22.7339,-48.095,-21.7384,1014.72
249440,0.229555,9.85174,0.640842,1.89,-2.31,0.14,22.8502,-46.2138,-21.9009,1014.72
249446,0.263032,9.82783,0.741272,2.1,-2.1,0.28,22.5305,-45.8746,-21.1769,1014.71
249452,0.282162,9.88522,0.621712,1.19,-1.75,-0.21,22.6177,-48.1259,-22.2704,1014.71
249458,0.0526064,9.82305,0.746054,1.19,-2.24,-0.49,23.1407,-47.4166,-21.8566,1014.71
249464,0.0286944,9.79914,0.827355,1.61,-2.38,-0.14,22.763,-46.4297,-21.9601,1014.69
249470,0.0765184,9.84696,0.755619,1.4,-2.52,0,23.5475,-48.1876,-21.4429,1014.69
249476,0.153037,9.80392,0.774749,1.33,-3.22,-0.77,23.3732,-48.0334,-21.3985,1014.7
249482,0.186514,9.84218,0.693448,1.82,-2.94,-0.63,23.0826,-46.0596,-21.9157,1014.7
249488,0.095648,9.82305,0.746054,1.4,-3.22,0.35,23.4894,-47.2315,-21.4429,1014.67
249494,0.0813008,9.78479,0.803443,1.68,-3.22,0.07,22.8792,-48.4034,-20.6302,1014.67
249500,0.0908656,9.78479,0.846485,1.82,-3.36,0.21,23.9543,-46.6456,-21.5611,1014.7
249506,0.105213,9.78479,0.784314,1.82,-3.64,0.07,23.1698,-47.2932,-21.5315,1014.7
249512,0.095648,9.76566,0.769966,2.52,-3.99,-0.28,23.4313,-48.0334,-20.5415,1014.7
249518,0.095648,9.71784,0.865614,3.01,-3.92,-0.21,23.5475,-47.5399,-21.9157,1014.72
249524,0.095648,9.74653,0.85605,3.15,-4.55,0.63,21.9785,-46.0288,-20.9996,1014.72
249530,0.124342,9.77044,0.793878,3.71,-4.9,0,23.6637,-47.5399,-21.5315,1014.7
249536,0.124342,9.77523,0.726925,3.71,-4.9,-0.21,23.2279,-48.6502,-21.0882,1014.7
249542,0.143472,9.79436,0.69823,3.43,-5.04,0.42,23.5475,-46.6456,-22.3147,1014.7
249548,0.176949,9.78001,0.741272,3.57,-5.04,0.35,22.792,-46.8615,-21.6202,1014.7
249554,0.167384,9.80392,0.726925,3.57,-5.18,-0.35,23.5766,-48.0642,-22.0339,1014.7
249560,0.105213,9.81827,0.69823,3.36,-4.69,-17.78,22.9954,-46.368,-21.4577,1014.7
249566,0.143472,9.81349,0.69823,3.22,-5.04,0.14,23.5185,-46.4605,-21.6497,1014.69
249572,0.124342,9.81827,0.679101,2.8,-4.97,0.63,23.4894,-47.8792,-21.9748,1014.69
249578,0.13869,9.81827,0.726925,2.8,-4.97,0.28,22.9373,-47.91,-22.625,1014.69
249584,0.109995,9.82305,0.750837,2.66,-4.69,-0.14,23.0245,-46.7998,-23.4672,1014.71
249590,0.148254,9.78479,0.726925,2.59,-4.2,0.14,22.8211,-47.8792,-21.236,1014.71
249596,0.172166,9.75131,0.755619,3.08,-4.13,-0.14,23.3441,-48.2492,-21.5611,1014.69
249602,0.0286944,9.8374,0.765184,2.73,-4.69,-0.14,23.0826,-47.3857,-21.6645,1014.69
249608,0.186514,9.82305,0.659971,2.45,-3.71,0.14,23.286,-47.0157,-21.7236,1014.72
249614,0.124342,9.82305,0.73649,2.66,-4.48,-0.07,23.4313,-48.2801,-21.0882,1014.72
249620,0.210426,9.87087,0.674318,2.45,-4.27,-0.28,22.6177,-47.5399,-22.1078,1014.72
249626,0.157819,9.82305,0.71736,2.17,-3.15,-0.63,22.8502,-46.6764,-21.6941,1014.72
249632,0.0860832,9.79436,0.683883,1.75,-3.85,-0.49,22.8211,-48.1567,-21.9896,1014.72
249638,0.0860832,9.76088,0.793878,2.1,-3.5,-0.14,23.2279,-48.0025,-21.6054,1014.71
249644,0.10043,9.8087,0.73649,2.17,-3.99,-0.56,22.9083,-46.6147,-21.6497,1014.71
249650,0.181731,9.77044,0.71736,2.17,-3.92,0,22.9083,-47.0157,-22.3738,1014.69
249656,0.095648,9.87566,0.693448,2.03,-3.99,0.21,22.9664,-48.7118,-21.0882,1014.69
249662,0.162602,9.80392,0.71736,2.45,-3.78,-0.14,22.2981,-46.7998,-21.9305,1014.71
249668,0.109995,9.78957,0.760402,2.59,-3.71,-0.35,23.809,-47.0157,-22.8319,1014.71
249674,-0.0047824,9.82305,0.731707,2.31,-3.99,0.28,23.1698,-48.1567,-21.8418,1014.72
249680,0.172166,9.78479,0.741272,2.73,-3.5,0.07,22.9664,-47.5091,-23.9549,1014.72
249686,0.105213,9.8087,0.726925,2.03,-3.5,0.07,23.1988,-46.7689,-20.7336,1014.72
249692,0.143472,9.8374,0.679101,2.45,-4.2,-0.14,23.0826,-47.725,-21.2656,1014.7
249698,0.13869,9.79914,0.703013,2.52,-3.85,0.14,22.7339,-47.5399,-22.2999,1014.7
249704,0.176949,9.79914,0.73649,1.96,-3.71,0.56,22.6758,-46.0596,-22.7432,1014.7
249710,0.21999,9.81349,0.707795,2.31,-3.71,-0.07,22.4434,-47.4782,-21.3247,1014.7
249716,0.234338,9.84696,0.669536,1.96,-3.43,-0.56,22.8792,-48.095,-21.3394,1014.64
249722,0.162602,9.8374,0.645624,2.31,-3.43,-0.35,23.4022,-46.1521,-21.7236,1014.64
249728,0.167384,9.86609,0.674318,2.24,-3.5,-0.49,23.257,-46.4605,-22.226,1014.67
249734,0.157819,9.79914,0.712578,1.54,-3.08,-0.56,22.6468,-47.8792,-20.7484,1014.67
249740,0.167384,9.85653,0.664754,1.82,-3.15,-0.84,22.9083,-47.6633,-20.97,1014.68
249746,0.114778,9.81827,0.688666,1.68,-3.5,-0.63,22.0947,-47.6941,-22.1226,1014.68
249752,0.105213,9.82305,0.71736,1.47,-3.08,-0.42,23.0245,-47.6016,-22.2704,1014.68
249758,0.095648,9.79436,0.741272,1.4,-3.64,-0.84,23.0826,-47.6633,-20.8666,1014.67
249764,0.0765184,9.78479,0.731707,1.54,-3.85,-0.35,22.1237,-46.5839,-21.6497,1014.67
249770,0.124342,9.77044,0.73649,1.68,-3.57,-0.7,22.9083,-47.0465,-21.9748,1014.72
249776,0.105213,9.74653,0.755619,1.89,-3.15,0.21,23.3732,-48.2184,-20.7041,1014.72
249782,0.133907,9.79914,0.722142,1.89,-3.78,0.07,22.6177,-46.2447,-22.1226,1014.74
249788,0.133907,9.7561,0.731707,1.75,-3.92,-0.14,22.8792,-46.3989,-22.5954,1014.74
249794,0.129125,9.78001,0.731707,2.03,-4.27,0.07,23.3732,-48.3418,-20.8223,1014.69
249800,0.162602,9.77044,0.731707,2.24,-3.85,-0.07,23.5475,-46.8923,-21.3247,1014.69
249806,0.172166,9.79436,0.73649,2.03,-3.78,-0.14,22.5305,-46.4914,-21.3985,1014.69
249812,0.133907,9.81827,0.69823,1.96,-3.85,-0.28,22.6468,-48.1567,-21.4429,1014.73
249818,0.133907,9.8087,0.73649,2.24,-3.78,-0.35,22.6468,-48.0642,-20.4824,1014.73
249824,0.181731,9.87566,0.659971,2.31,-3.78,0,22.24,-46.0288,-21.8271,1014.7
249830,0.205643,9.8374,0.688666,2.1,-3.85,-0.84,22.4724,-47.6633,-21.3099,1014.7
249836,0.162602,9.87087,0.69823,1.68,-3.99,-0.56,22.8792,-48.1567,-20.7041,1014.69
249842,0.186514,9.88044,0.612147,1.26,-4.2,-1.4,22.9083,-46.183,-21.9009,1014.69
249848,0.191296,9.89,0.674318,0.7,-3.57,-1.19,23.4022,-46.7998,-21.2656,1014.7
249854,0.13869,9.84696,0.731707,0.77,-3.71,-1.19,23.3732,-47.8792,-21.1326,1014.7
249860,0.148254,9.77044,0.793878,0.63,-3.57,-1.4,22.9373,-46.7689,-22.7137,1014.7
249866,0.133907,9.77044,0.774749,1.26,-3.85,-1.68,23.4894,-46.7381,-21.7975,1014.7
249872,0.143472,9.80392,0.755619,1.33,-4.27,-1.26,23.6347,-48.095,-20.5711,1014.7
249878,0.124342,9.81827,0.741272,0.91,-3.71,-1.19,23.3441,-47.8483,-21.3099,1014.69
249884,0.0765184,9.78957,0.755619,1.4,-3.92,-1.61,22.792,-46.1213,-22.4329,1014.69
249890,0.129125,9.77523,0.808226,1.05,-2.73,-1.61,23.0826,-47.6941,-22.0635,1014.67
249896,0.129125,9.77523,0.774749,1.61,-3.43,-1.19,23.4313,-48.3418,-22.5511,1014.67
249902,0.109995,9.80392,0.722142,1.54,-4.13,-1.26,23.5185,-46.954,-22.1374,1014.68
249908,0.191296,9.86131,0.674318,1.33,-3.15,-1.33,23.2279,-46.7998,-21.1621,1014.68
249914,0.186514,9.88522,0.688666,1.05,-3.5,-1.96,24.0705,-48.3726,-21.5463,1014.68
249920,0.172166,9.85653,0.712578,1.19,-3.78,-2.52,23.257,-47.9717,-21.502,1014.68
249926,0.148254,9.79914,0.750837,0.7,-3.5,-1.61,22.9083,-46.4914,-20.9109,1014.68
249932,0.133907,9.78001,0.760402,1.12,-3.36,-2.38,23.4022,-48.2801,-20.1573,1014.69
249938,0.162602,9.8374,0.683883,1.19,-3.64,-2.87,23.4603,-47.6324,-20.6006,1014.69
249944,0.143472,9.8374,0.683883,0.98,-2.73,-2.73,23.1117,-46.8306,-20.837,1014.71
249950,0.133907,9.87087,0.688666,0.35,-3.01,-3.15,23.4894,-48.2492,-20.8666,1014.71
249956,0.095648,9.83261,0.69823,0.42,-3.08,-2.94,23.809,-48.1876,-21.6054,1014.7
249962,0.023912,9.79436,0.760402,0.28,-2.87,-2.52,23.6347,-46.3372,-21.1769,1014.7
249968,0.0526064,9.77523,0.789096,1.12,-2.87,-1.89,24.3902,-46.5839,-21.7827,1014.69
249974,0.047824,9.82783,0.69823,0.14,-3.15,-2.31,24.4773,-47.725,-21.0144,1014.69
249980,0.0765184,9.79436,0.760402,0.63,-2.94,-2.03,24.1868,-46.8306,-21.6054,1014.69
249986,0.0765184,9.74175,0.813008,0.56,-2.52,-1.82,23.3732,-45.9363,-20.8223,1014.71
249992,0.071736,9.77044,0.73649,0.49,-2.66,-1.89,23.4603,-47.8175,-20.0982,1014.71
249998,0.0143472,9.71784,0.860832,0.77,-3.01,-1.47,23.9834,-47.7866,-21.2065,1014.73
250004,0.0191296,9.7561,0.81779,1.12,-3.78,-0.84,24.1577,-46.183,-22.6841,1014.73
250010,0.0334768,9.73697,0.81779,1.47,-3.36,-0.84,23.7219,-47.9408,-21.2212,1014.7
250016,0.023912,9.72262,0.827355,1.4,-2.31,-0.84,24.1287,-47.5399,-19.8027,1014.7
250022,0.0143472,9.73697,0.808226,2.1,-3.22,-0.21,23.2279,-46.0905,-23.5855,1014.71
250028,0.023912,9.7561,0.798661,2.17,-3.57,0.56,23.4313,-46.7998,-22.5068,1014.71
250034,0.071736,9.74653,0.750837,2.52,-2.87,-0.28,23.7509,-48.1876,-22.2408,1014.71
250040,0.124342,9.76566,0.741272,2.73,-2.73,17.71,23.7219,-46.5222,-22.2999,1014.69
250046,0.0621712,9.78479,0.73649,2.66,-3.36,0,22.5305,-46.2755,-21.9009,1014.69
250052,0.105213,9.78001,0.798661,2.17,-2.87,-0.07,23.8962,-47.8175,-21.7975,1014.69
250058,0.095648,9.81827,0.712578,2.8,-3.01,0.07,23.6637,-48.7427,-20.3642,1014.69
250064,0.109995,9.87087,0.688666,2.17,-2.87,0,23.0536,-46.0596,-22.6989,1014.68
250070,0.0813008,9.83261,0.688666,1.96,-3.22,-0.42,23.9543,-47.5399,-21.4281,1014.68
250076,0.023912,9.79914,0.765184,1.61,-3.36,0.42,23.6928,-48.1567,-20.2312,1014.69
250082,0.0382592,9.80392,0.722142,2.38,-3.08,0.21,23.3732,-46.7689,-20.3199,1014.69
250088,0.0573888,9.82783,0.722142,1.54,-3.43,0.14,23.4603,-46.368,-21.4133,1014.71
250094,0.0334768,9.80392,0.69823,1.75,-3.22,0,23.1988,-48.2184,-20.8962,1014.71
250100,0.0382592,9.78479,0.760402,2.17,-3.78,0.98,23.286,-46.6456,-20.5563,1014.71
250106,0.0334768,9.78001,0.813008,1.68,-3.5,0.56,23.0826,-45.3811,-21.9305,1014.69
250112,0.0334768,9.7274,0.841702,2.17,-3.36,0.84,23.4313,-47.9408,-20.9996,1014.69
250118,0.0526064,9.78479,0.755619,2.52,-3.5,0.84,23.6928,-47.6941,-20.246,1014.68
250124,0.0765184,9.78479,0.798661,2.66,-3.64,0.56,23.6637,-46.4297,-21.9009,1014.68
250130,0.109995,9.78479,0.793878,2.52,-3.78,1.19,23.2279,-47.6016,-21.7975,1014.68
250136,0.167384,9.85174,0.731707,2.24,-3.29,0.84,24.0705,-47.1082,-20.1869,1014.68
250142,0.196078,9.84218,0.693448,2.1,-3.08,0.07,23.5766,-45.7512,-21.9896,1014.72
250148,0.157819,9.86131,0.71736,2.1,-3.15,-0.07,23.0826,-46.9848,-23.0535,1014.72
250154,0.172166,9.85174,0.73649,2.17,-3.5,-0.28,23.8671,-48.496,-21.5759,1014.72
250160,0.0908656,9.86609,0.760402,2.24,-3.29,0.07,23.4894,-46.9848,-21.9601,1014.68
250166,0.105213,9.78001,0.774749,1.82,-3.57,-0.28,23.4313,-46.5531,-21.4724,1014.68
250172,0.133907,9.84218,0.722142,2.31,-3.15,-0.35,23.4022,-47.8175,-21.3394,1014.7
250178,0.0908656,9.81827,0.688666,2.03,-3.01,-0.28,23.4894,-47.725,-20.9553,1014.7
250184,0.047824,9.8087,0.741272,2.1,-3.22,0.07,23.3151,-46.0905,-21.7532,1014.67
250190,0.0286944,9.78479,0.746054,2.24,-2.8,-0.63,22.792,-47.5091,-21.1769,1014.67
250196,0.0382592,9.81349,0.731707,1.82,-3.15,0.21,23.0245,-47.6324,-21.7827,1014.72
250202,0.0573888,9.79436,0.755619,2.03,-2.94,0.84,23.0536,-46.9848,-21.3838,1014.72
250208,0.0669536,9.77044,0.760402,2.1,-3.22,0.42,23.5475,-47.2315,-22.1226,1014.72
250214,0.0621712,9.76088,0.779531,2.1,-3.22,0.21,23.8962,-48.2184,-20.7336,1014.66
250220,0.095648,9.8087,0.755619,2.45,-3.08,0.42,23.1988,-47.0773,-21.1769,1014.66
250226,0.105213,9.76566,0.784314,2.52,-3.01,0.49,23.2279,-46.8923,-21.5315,1014.69
250232,0.157819,9.82305,0.726925,2.38,-2.73,0.21,23.4894,-48.2492,-21.369,1014.69
250238,0.153037,9.84218,0.722142,2.38,-3.22,0,23.6056,-47.5091,-21.9009,1014.69
250244,0.162602,9.85653,0.722142,2.1,-3.36,-17.22,23.0245,-47.0465,-21.2508,1014.69
250250,0.11956,9.83261,0.712578,2.1,-2.8,-0.07,23.4022,-47.8175,-21.1769,1014.68
250256,0.109995,9.82305,0.760402,2.03,-3.08,0.21,23.4313,-48.095,-20.6006,1014.68
250262,0.095648,9.87566,0.679101,1.89,-2.38,-0.42,23.4603,-46.4605,-21.7384,1014.7
250268,0.0382592,9.84218,0.746054,1.89,-3.01,-0.84,22.2981,-46.6764,-21.1621,1014.7
250274,0.0382592,9.7561,0.81779,1.61,-3.22,0,23.0245,-47.7558,-21.2951,1014.7
250280,0.047824,9.77523,0.793878,2.1,-3.36,0.21,23.4313,-47.324,-20.9848,1014.7
250286,0.0430416,9.79436,0.722142,2.24,-3.08,0.21,22.7049,-46.0596,-21.635,1014.7
250292,0,9.80392,0.755619,1.89,-2.73,0.21,23.8962,-47.9717,-19.9209,1014.68
250298,0.0669536,9.78479,0.774749,2.38,-3.29,0.84,23.6928,-47.2624,-21.2065,1014.68
250304,0.0908656,9.78479,0.726925,1.89,-3.57,0.98,22.7049,-45.1036,-22.0192,1014.71
250310,0.0573888,9.76566,0.793878,2.38,-3.5,-0.07,22.9954,-46.9231,-20.5858,1014.71
250316,0.0860832,9.73218,0.760402,2.03,-3.57,0.98,23.3732,-47.3549,-20.6597,1014.72
250322,0.10043,9.78001,0.755619,2.1,-3.5,0.49,23.5766,-46.368,-21.6793,1014.72
250328,0.10043,9.79436,0.760402,2.45,-3.29,1.26,23.8381,-46.5531,-21.4577,1014.72
250334,0.10043,9.82305,0.707795,2.94,-3.15,1.54,24.0705,-48.2801,-21.7089,1014.69
250340,0.11956,9.80392,0.746054,2.59,-3.08,0.35,23.257,-47.9408,-22.891,1014.69
250346,0.181731,9.83261,0.731707,2.66,-3.22,0.49,23.6928,-46.1213,-22.1226,1014.71
250352,0.148254,9.86131,0.674318,2.24,-3.15,0.77,23.9834,-48.681,-21.4133,1014.71
250358,0.109995,9.78479,0.722142,1.82,-3.15,0.35,24.1287,-48.5576,-22.4772,1014.72
250364,0.0860832,9.79914,0.750837,2.1,-3.29,0,23.286,-46.6147,-21.3838,1014.72
250370,0.0669536,9.81827,0.789096,2.03,-3.36,0.07,23.3441,-47.324,-20.9109,1014.7
250376,0.114778,9.81827,0.741272,2.1,-3.43,0.63,24.0124,-48.0334,-21.7236,1014.7
250382,0.129125,9.82783,0.683883,2.03,-3.43,-17.29,23.9834,-46.954,-22.6841,1014.7
250388,0.0860832,9.82305,0.726925,2.1,-3.64,0.49,23.5185,-46.9231,-21.9896,1014.73
250394,0.0669536,9.79914,0.731707,1.75,-3.57,0.42,23.2279,-48.3109,-21.2803,1014.73
250400,0.0813008,9.78479,0.750837,1.96,-3.71,0.28,23.3732,-47.4166,-21.4577,1014.71
250406,0.0765184,9.77523,0.712578,2.03,-3.43,1.05,23.3732,-46.1521,-22.492,1014.71
250412,0.0908656,9.76566,0.779531,2.45,-3.5,0.91,23.78,-47.9717,-22.1078,1014.7
250418,0.0860832,9.78001,0.741272,2.03,-3.64,0.77,23.4894,-47.8483,-21.1326,1014.7
250424,0.0908656,9.78957,0.760402,2.31,-3.08,0.7,23.6056,-46.8615,-21.7236,1014.69
250430,0.143472,9.79436,0.760402,2.38,-3.36,0.98,23.4313,-48.2184,-21.8566,1014.69
250436,0.186514,9.8087,0.741272,2.59,-2.87,0.42,23.5475,-48.095,-21.2656,1014.7
250442,0.148254,9.84218,0.703013,2.52,-2.94,0.35,23.2279,-47.6941,-22.2408,1014.7
250448,0.0669536,9.82783,0.69823,2.38,-3.36,0.42,23.3441,-46.9231,-22.0339,1014.7
250454,0.124342,9.82305,0.731707,2.17,-3.22,0.07,24.0705,-48.8969,-22.4329,1014.71
250460,0.176949,9.82783,0.760402,2.52,-3.08,0.28,23.4603,-47.4474,-22.1521,1014.71
250466,0.176949,9.85174,0.707795,2.31,-2.87,0,23.9543,-46.3989,-22.4772,1014.72
250472,0.10043,9.82783,0.712578,2.03,-2.8,0.21,23.2279,-47.725,-21.1621,1014.72
250478,0.10043,9.84696,0.722142,1.75,-3.22,0.21,22.8792,-47.5399,-21.103,1014.69
250484,0.105213,9.83261,0.722142,2.31,-3.36,0,23.7219,-46.8923,-22.5659,1014.69
250490,0.176949,9.80392,0.755619,2.17,-3.22,-0.35,22.763,-47.9408,-22.4033,1014.67
250496,0.095648,9.81827,0.722142,1.96,-3.29,-0.28,23.4313,-48.4034,-20.2164,1014.67
250502,0.10043,9.82305,0.741272,2.17,-3.78,-0.42,23.3441,-46.5839,-21.5168,1014.67
250508,0.0813008,9.78957,0.746054,1.47,-3.43,0.42,23.6347,-47.0773,-21.5906,1014.71
250514,0.10043,9.77044,0.755619,2.31,-3.43,0.35,23.9543,-48.0025,-21.5463,1014.71
250520,0.0908656,9.8087,0.750837,2.03,-3.36,0.63,23.4313,-47.3549,-21.7827,1014.7
250526,0.148254,9.81349,0.73649,1.89,-3.43,0.14,23.4603,-46.0596,-22.4181,1014.7
250532,0.143472,9.81349,0.69823,1.82,-3.57,0,22.9954,-47.324,-21.2065,1014.7
250538,0.133907,9.82305,0.71736,1.96,-3.64,0.28,23.6347,-47.9717,-21.5315,1014.7
250544,0.153037,9.85174,0.731707,1.82,-3.57,-0.14,23.6637,-46.6456,-22.4329,1014.71
250550,0.162602,9.84696,0.726925,1.96,-3.15,-0.07,23.78,-47.6016,-21.8566,1014.71
250556,0.215208,9.83261,0.722142,2.03,-3.5,-0.7,23.4894,-48.7427,-20.8962,1014.71
250562,0.143472,9.81349,0.69823,2.03,-3.01,-0.77,23.1407,-46.7689,-20.8075,1014.71
250568,0.0813008,9.82783,0.707795,1.47,-3.22,-0.84,23.3732,-47.2932,-22.0192,1014.71
250574,0.114778,9.80392,0.769966,1.61,-3.78,-0.91,23.0245,-48.8969,-20.2755,1014.7
250580,0.13869,9.81827,0.712578,1.68,-3.78,-0.56,22.6468,-47.5091,-21.9305,1014.7
250586,0.167384,9.81827,0.703013,1.96,-3.22,-0.91,22.792,-46.4914,-22.625,1014.71
250592,0.10043,9.78001,0.722142,1.68,-3.15,-0.7,22.9373,-47.3549,-21.9896,1014.71
250598,0.0669536,9.78001,0.750837,1.47,-3.08,-0.63,23.6637,-48.3418,-22.4625,1014.69
250604,0.071736,9.81349,0.746054,1.89,-3.71,-0.7,23.257,-47.0157,-21.8862,1014.69
250610,0.0669536,9.81827,0.707795,1.89,-4.13,-0.56,23.7509,-47.3857,-23.0092,1014.7
250616,0.109995,9.79914,0.71736,1.96,-3.5,-0.63,23.1698,-48.2184,-22.0783,1014.7
250622,0.114778,9.82783,0.712578,1.4,-3.36,-0.28,23.4313,-47.3549,-22.8023,1014.7
250628,0.129125,9.84696,0.683883,1.26,-3.36,-0.77,23.3151,-46.4605,-22.1965,1014.74
250634,0.109995,9.78957,0.726925,1.54,-3.29,-0.42,23.5475,-48.0334,-22.4181,1014.74
250640,0.114778,9.78001,0.784314,1.54,-3.29,-0.91,23.4894,-47.4474,-20.2164,1014.69
250646,0.11956,9.77044,0.784314,1.54,-3.15,-0.77,23.5475,-46.4297,-20.9553,1014.69
250652,0.157819,9.83261,0.746054,2.1,-3.01,-0.77,23.9543,-47.3549,-21.1917,1014.71
250658,0.133907,9.8374,0.703013,1.68,-3.08,-0.98,23.9543,-47.7558,-20.9996,1014.71
250664,0.148254,9.83261,0.707795,1.61,-2.8,-1.33,23.0826,-45.9363,-22.4477,1014.72
250670,0.162602,9.84218,0.693448,1.54,-2.73,-1.4,22.5015,-47.6941,-22.1817,1014.72
250676,0.129125,9.8374,0.69823,0.91,-2.8,-1.82,23.0826,-48.3726,-20.6597,1014.72
250682,0.071736,9.82305,0.712578,1.26,-2.45,-1.54,22.763,-46.6147,-22.2113,1014.72
250688,0.071736,9.7561,0.779531,1.4,-1.82,-1.68,23.5185,-46.7998,-22.0783,1014.72
250694,0.0573888,9.78479,0.760402,1.05,-2.66,-1.54,23.4603,-48.8044,-20.4676,1014.7
250700,0.0382592,9.77523,0.755619,1.4,-2.94,-0.98,22.9954,-47.1082,-22.5216,1014.7
250706,0.0334768,9.77044,0.750837,1.26,-2.38,-1.26,22.5305,-46.8306,-21.369,1014.71
250712,0.0382592,9.80392,0.73649,1.68,-3.22,-1.26,23.7219,-47.6941,-21.5168,1014.71
250718,0.0286944,9.74175,0.779531,1.54,-3.08,-1.12,23.3151,-47.91,-21.5463,1014.71
250724,0.0191296,9.77044,0.789096,2.1,-3.64,-0.56,23.78,-46.0288,-21.8714,1014.71
250730,0.0430416,9.77044,0.750837,2.1,-3.01,-0.21,23.3151,-48.3109,-21.8566,1014.71
250736,0.0669536,9.7561,0.755619,2.03,-3.29,0,23.7509,-48.0025,-22.5068,1014.71
250742,0.071736,9.77523,0.726925,1.82,-2.87,0.14,23.6347,-46.4297,-20.9848,1014.71
250748,0.124342,9.75131,0.760402,1.96,-3.29,0.07,22.9373,-46.6456,-22.093,1014.7
250754,0.13869,9.83261,0.741272,1.82,-3.5,0.14,23.4603,-48.9894,-21.635,1014.7
250760,0.13869,9.85174,0.712578,2.1,-2.94,-0.21,22.9373,-47.8483,-21.5611,1014.69
250766,0.13869,9.88044,0.655189,2.03,-3.36,-1.33,23.3732,-46.9848,-21.9601,1014.69
250772,0.143472,9.87087,0.722142,1.33,-3.01,-0.77,23.1988,-48.0025,-21.6054,1014.7
250778,0.181731,9.88044,0.746054,1.61,-3.22,-0.91,23.4313,-48.2184,-21.3542,1014.7
250784,0.105213,9.90435,0.674318,1.47,-3.36,-1.47,23.1117,-46.2755,-21.5315,1014.69
250790,0.0621712,9.82305,0.688666,1.05,-2.66,-1.54,22.6758,-47.3549,-21.3394,1014.69
250796,-0.0095648,9.79914,0.755619,1.26,-2.87,-1.47,23.5185,-47.8483,-20.1426,1014.69
250802,0.0573888,9.77044,0.789096,1.4,-2.8,-0.77,23.1407,-47.1082,-21.5611,1014.71
250808,0.0382592,9.77523,0.769966,1.12,-3.22,-1.33,23.7509,-46.9848,-21.502,1014.71
250814,0.0382592,9.78001,0.798661,1.54,-3.36,-1.19,23.7219,-48.9586,-21.3985,1014.71
250820,-0.0095648,9.74653,0.784314,1.4,-3.5,-0.77,23.9543,-47.8792,-21.6941,1014.71
250826,0.047824,9.73697,0.774749,1.96,-3.36,-0.35,23.7509,-46.7998,-22.3442,1014.7
250832,0.0095648,9.74175,0.798661,1.68,-3.15,-0.35,23.257,-48.1259,-20.5711,1014.7
250838,0.0669536,9.78001,0.760402,1.82,-3.85,-0.35,23.809,-48.4343,-21.8566,1014.7
250844,0.047824,9.76088,0.769966,1.96,-2.94,0.07,23.286,-47.1698,-21.9748,1014.7
250850,0.10043,9.80392,0.750837,1.96,-2.8,0,23.809,-47.5399,-22.0339,1014.7
250856,0.0860832,9.82305,0.755619,1.33,-3.01,0,24.0996,-47.7866,-21.4724,1014.74
250862,0.114778,9.78957,0.755619,1.96,-3.43,0.14,23.4313,-45.9363,-21.6793,1014.74
250868,0.0908656,9.85174,0.731707,1.68,-2.87,-0.14,22.8211,-46.8615,-22.1226,1014.7
250874,0.133907,9.86131,0.726925,1.82,-3.29,-0.35,24.2158,-48.5576,-22.2704,1014.7
250880,0.124342,9.82305,0.760402,1.54,-2.52,-0.49,22.9664,-47.0773,-22.1078,1014.7
250886,0.047824,9.79914,0.784314,1.47,-2.73,-0.84,23.2279,-46.0288,-22.5511,1014.7
250892,0.0813008,9.78957,0.746054,2.1,-3.43,-0.7,23.7509,-47.9717,-21.3838,1014.69
250898,0.047824,9.78957,0.779531,2.1,-3.29,-0.21,23.8671,-47.9717,-22.4033,1014.69
250904,0.10043,9.80392,0.760402,1.61,-2.94,-0.77,23.4894,-45.9054,-22.2556,1014.69
250910,0.0526064,9.78957,0.746054,1.82,-3.64,-1.4,22.5596,-46.7689,-21.502,1014.7
250916,0.0669536,9.82305,0.750837,1.68,-3.08,-0.63,23.78,-47.9408,-21.9157,1014.7
250922,0.023912,9.75131,0.746054,2.1,-3.08,-0.07,23.6056,-46.7689,-21.9453,1014.7
250928,0.0047824,9.78479,0.755619,1.4,-2.94,-0.28,23.0536,-46.8923,-21.8862,1014.7
250934,0.071736,9.76566,0.765184,1.61,-3.01,0,23.9543,-48.1259,-21.236,1014.68
250940,0.0334768,9.7561,0.779531,1.68,-3.36,-0.21,23.6056,-47.3549,-21.5611,1014.68
250946,0.0334768,9.7561,0.755619,1.82,-2.73,0,23.4022,-46.0288,-22.5807,1014.7
250952,0.0526064,9.77044,0.779531,1.96,-3.43,0.63,23.6928,-48.1567,-21.2803,1014.7
250958,0.0382592,9.77523,0.784314,1.68,-3.08,0.21,23.9543,-47.7866,-22.1669,1014.73
250964,0.129125,9.77523,0.793878,2.38,-3.43,-0.07,23.0245,-46.2755,-21.502,1014.73
250970,0.11956,9.80392,0.755619,2.31,-2.94,0.28,23.4894,-47.6324,-21.8862,1014.73
250976,0.11956,9.82305,0.722142,1.89,-2.38,0.14,23.0536,-48.1259,-21.2508,1014.7
250982,0.095648,9.83261,0.73649,2.17,-2.87,-0.35,23.4313,-46.9231,-21.0735,1014.7
250988,0.143472,9.83261,0.769966,1.75,-3.01,-0.63,23.4313,-46.4914,-22.226,1014.74
250994,0.13869,9.84696,0.722142,1.96,-2.31,-0.42,23.1407,-48.4034,-20.9553,1014.74
251000,0.0765184,9.84218,0.69823,1.68,-2.8,-0.56,23.809,-47.4782,-21.0735,1014.73
251006,0.0191296,9.81349,0.784314,2.17,-2.94,-0.63,23.5475,-45.9054,-22.1965,1014.73
251012,0,9.76566,0.769966,1.96,-3.22,-0.77,23.9543,-48.1876,-22.0192,1014.69
251018,0.0334768,9.78001,0.755619,2.1,-3.29,-0.56,22.6468,-47.5091,-20.3494,1014.69
251024,0.0334768,9.79436,0.741272,2.17,-3.15,-0.21,22.9373,-45.9054,-20.645,1014.69
251030,0.0526064,9.78479,0.71736,1.89,-3.29,-0.14,23.0245,-47.6324,-21.6793,1014.7
251036,0.0334768,9.76088,0.746054,2.03,-3.43,0.21,24.1868,-48.4651,-22.093,1014.7
251042,0.0047824,9.78957,0.73649,2.17,-3.5,0.63,23.3151,-46.8615,-21.2212,1014.67
251048,0.023912,9.77523,0.765184,2.1,-3.64,0,23.2279,-46.3372,-21.9896,1014.67
251054,0.0382592,9.75131,0.746054,2.1,-3.57,0.28,23.5475,-48.2801,-21.5611,1014.72
251060,0.0382592,9.78479,0.712578,2.24,-3.29,0.63,24.0415,-47.2315,-21.5611,1014.72
251066,0.0765184,9.81349,0.760402,2.03,-3.15,0.77,23.3732,-46.6147,-22.5068,1014.7
251072,0.11956,9.75131,0.784314,2.38,-3.36,0.7,23.5475,-48.3418,-22.1669,1014.7
251078,0.148254,9.78957,0.726925,2.31,-2.94,0.28,23.0826,-48.2801,-20.7632,1014.7
251084,0.133907,9.81827,0.760402,2.59,-3.64,-0.07,23.3441,-46.3372,-21.502,1014.71
251090,0.109995,9.8087,0.73649,2.73,-3.01,0.49,23.286,-47.2932,-21.8862,1014.71
251096,0.124342,9.82305,0.741272,2.24,-2.59,0,23.3151,-47.91,-22.226,1014.68
251102,0.071736,9.81827,0.741272,2.73,-3.08,-0.56,23.1407,-47.5091,-22.0044,1014.68
251108,0.0526064,9.79914,0.726925,2.52,-2.94,0.14,22.792,-47.2932,-22.0192,1014.69
251114,0.0382592,9.78957,0.722142,2.66,-2.73,0.21,22.5305,-48.6193,-22.7284,1014.69
251120,0.0382592,9.78479,0.746054,2.52,-3.15,0.35,24.0996,-47.0773,-21.369,1014.7
251126,0.047824,9.76566,0.774749,2.38,-3.29,-0.07,22.792,-46.7689,-23.3638,1014.7
251132,0.0430416,9.78479,0.722142,2.38,-3.29,0.63,23.5766,-47.8792,-21.2951,1014.69
251138,0.0573888,9.80392,0.750837,2.66,-3.22,0.56,23.2279,-48.0642,-21.0144,1014.69
251144,0.023912,9.79914,0.741272,2.1,-2.87,1.26,23.286,-45.7821,-22.7284,1014.69
251150,0.0669536,9.78957,0.731707,1.89,-3.08,0.91,23.0245,-47.1698,-22.0783,1014.71
251156,0.0526064,9.8087,0.712578,2.45,-3.15,0.77,23.5475,-48.9894,-21.4872,1014.71
251162,0.10043,9.78957,0.760402,2.59,-3.36,0.91,24.0124,-47.2007,-22.6398,1014.69
251168,0.114778,9.84218,0.755619,2.38,-3.43,0.7,23.5185,-46.8615,-21.9009,1014.69
251174,0.114778,9.81349,0.750837,2.1,-3.01,0.77,23.3732,-48.1567,-21.8271,1014.73
251180,0.129125,9.8374,0.693448,2.45,-2.8,0.21,23.3732,-46.8615,-21.9748,1014.73
251186,0.133907,9.86609,0.722142,2.45,-2.38,0.42,23.3151,-46.3372,-21.7089,1014.72
251192,0.0908656,9.86609,0.683883,2.38,-3.08,-0.7,23.1988,-48.095,-22.4181,1014.72
251198,0.0908656,9.88522,0.707795,1.61,-2.59,0,23.6637,-47.2007,-21.4429,1014.72
251204,0.0860832,9.80392,0.707795,2.31,-2.94,-0.56,23.1407,-46.2447,-22.2113,1014.71
251210,0.0860832,9.79436,0.779531,2.1,-3.29,-0.21,23.3732,-47.4782,-22.0635,1014.71
251216,0.0621712,9.8087,0.746054,2.31,-3.99,0.14,23.6056,-49.0202,-22.4329,1014.7
251222,0.0573888,9.74653,0.779531,1.33,-3.36,-0.14,23.6056,-46.3372,-21.0439,1014.7
251228,0.0621712,9.80392,0.746054,2.17,-3.36,-0.56,23.4894,-45.8746,-21.6793,1014.71
251234,0.0526064,9.79436,0.774749,2.1,-2.87,0.14,23.78,-48.4651,-20.2312,1014.71
251240,0.0334768,9.75131,0.827355,2.17,-3.29,0.28,23.3151,-47.139,-21.369,1014.7
251246,0.0334768,9.78479,0.750837,2.52,-3.43,-0.14,23.1407,-46.2755,-21.7236,1014.7
251252,0.0669536,9.78001,0.750837,2.59,-3.78,0.84,24.2739,-48.4034,-21.5906,1014.7
251258,0.071736,9.81349,0.703013,2.59,-3.5,0.84,23.9253,-48.1259,-21.369,1014.7
251264,0.0908656,9.77044,0.741272,2.87,-3.64,0.84,23.1988,-47.0773,-21.9157,1014.7
251270,0.095648,9.78479,0.722142,2.1,-3.29,0.7,22.8211,-47.725,-22.4033,1014.71
251276,0.0860832,9.80392,0.664754,2.03,-3.43,0.63,23.4894,-48.4343,-20.2312,1014.71
251282,0.071736,9.81349,0.71736,2.45,-3.22,0.63,23.6928,-46.9231,-20.9996,1014.72
251288,0.105213,9.78001,0.741272,2.59,-3.64,0.63,23.4313,-46.7689,-22.1226,1014.72
251294,0.148254,9.79436,0.741272,2.66,-3.5,0.35,24.1868,-48.2492,-21.4577,1014.71
251300,0.162602,9.79914,0.73649,2.52,-3.43,0.14,23.6637,-47.5399,-20.2608,1014.71
251306,0.200861,9.87087,0.679101,2.73,-3.43,0.21,23.1407,-46.954,-20.7484,1014.67
251312,0.105213,9.86131,0.703013,2.03,-3.08,0.28,23.4603,-47.5091,-21.2803,1014.67
251318,0.095648,9.84218,0.71736,2.38,-3.29,-0.21,23.8962,-47.7866,-20.4085,1014.67
251324,0.0813008,9.8087,0.722142,2.17,-3.43,0,23.2279,-46.3063,-20.9996,1014.71
251330,0.129125,9.84696,0.703013,1.82,-3.71,0.14,23.1988,-46.8615,-21.0144,1014.71
251336,0.10043,9.8374,0.650406,1.89,-3.64,-0.07,23.4894,-48.0334,-21.2212,1014.74
251342,0.095648,9.83261,0.640842,1.61,-3.5,-0.21,24.3321,-46.2755,-20.8666,1014.74
251348,0.0621712,9.78957,0.774749,1.75,-3.85,-0.42,23.5475,-46.2755,-22.7875,1014.71
251354,0.0334768,9.76088,0.793878,2.17,-3.57,0,23.5475,-48.496,-22.0339,1014.71
251360,0.0621712,9.74175,0.793878,2.45,-3.43,0.63,23.5185,-47.7866,-21.9896,1014.69
251366,0.0765184,9.76566,0.731707,1.82,-3.5,0.98,24.0124,-46.2755,-22.1965,1014.69
251372,0.105213,9.78479,0.765184,2.52,-3.5,0.63,23.3151,-48.0025,-21.5463,1014.69
251378,0.0860832,9.8087,0.707795,2.17,-3.15,0.35,23.6637,-47.6016,-21.1178,1014.7
251384,0.095648,9.82783,0.741272,1.96,-3.64,0.63,23.5185,-46.4297,-22.1226,1014.7
251390,0.114778,9.81349,0.703013,2.03,-3.5,0.84,23.286,-47.6016,-21.7384,1014.71
251396,0.148254,9.82783,0.659971,2.31,-3.22,0.21,23.4313,-47.9408,-22.3147,1014.71
251402,0.181731,9.86609,0.703013,2.03,-3.29,0.21,23.6928,-47.0465,-22.0487,1014.71
251408,0.109995,9.84218,0.664754,1.68,-3.36,0,23.1407,-46.6147,-22.6693,1014.71
251414,0.071736,9.8087,0.774749,1.89,-3.01,-0.07,23.4313,-48.866,-22.9501,1014.71
251420,0.109995,9.8087,0.760402,2.1,-3.22,0.56,23.3151,-46.8306,-22.7728,1014.71
251426,0.11956,9.81349,0.731707,2.24,-3.5,-0.35,23.4603,-45.597,-22.0635,1014.71
251432,0.0860832,9.78479,0.73649,1.96,-3.15,-0.28,23.809,-47.5091,-21.1621,1014.67
251438,0.10043,9.79436,0.679101,1.96,-2.45,0.63,23.78,-48.0334,-20.113,1014.67
251444,0.114778,9.81827,0.750837,2.17,-3.29,0.56,23.4022,-46.3372,-22.4477,1014.7
251450,0.0908656,9.8087,0.726925,2.1,-3.36,-0.56,22.9954,-46.3372,-22.3295,1014.7
251456,0.0765184,9.78479,0.712578,2.03,-3.5,-0.07,23.809,-48.3109,-20.5858,1014.68
251462,0.114778,9.81827,0.693448,2.24,-3.5,0.77,23.286,-46.5839,-22.1965,1014.68
251468,0.0860832,9.79436,0.707795,1.75,-2.8,-0.07,23.4603,-46.4297,-21.8123,1014.67
251474,0.0765184,9.78001,0.73649,2.17,-3.22,0.28,23.8381,-47.7558,-20.8666,1014.67
251480,0.0669536,9.8087,0.73649,2.1,-3.15,0.21,23.4603,-47.3857,-21.3247,1014.69
251486,0.129125,9.78479,0.712578,1.68,-3.5,0.14,23.3441,-45.8437,-21.8714,1014.69
251492,0.143472,9.81827,0.679101,1.89,-3.36,0.35,23.6056,-47.6941,-22.4033,1014.69
251498,0.105213,9.79914,0.707795,1.96,-3.15,0.07,23.4603,-47.8483,-22.492,1014.72
251504,0.0860832,9.81349,0.71736,2.38,-3.5,0.07,23.6928,-46.7689,-22.6989,1014.72
251510,0.129125,9.82305,0.722142,2.1,-3.5,0.35,23.3151,-46.954,-21.8566,1014.69
251516,0.114778,9.81349,0.726925,1.96,-3.29,-0.07,23.9543,-48.681,-20.2312,1014.69
251522,0.095648,9.8374,0.726925,2.17,-3.43,-0.07,23.0536,-46.7998,-21.9157,1014.66
251528,0.10043,9.78957,0.726925,1.61,-3.36,0.07,23.8381,-46.3063,-21.768,1014.66
251534,0.0669536,9.78479,0.746054,2.03,-3.43,0.14,24.2449,-48.2801,-20.4824,1014.71
251540,0.0765184,9.77523,0.774749,1.89,-2.66,0.21,23.6347,-47.2315,-20.113,1014.71
251546,0.10043,9.7561,0.760402,2.24,-3.43,0.21,23.3151,-45.4428,-21.0882,1014.71
251552,0.0860832,9.77523,0.741272,2.17,-2.87,0.42,23.4894,-46.7689,-21.4577,1014.69
251558,0.10043,9.81349,0.712578,2.24,-3.43,0.42,23.3732,-46.7381,-20.6597,1014.69
251564,0.10043,9.78957,0.703013,2.38,-3.36,0.07,22.6468,-46.2447,-21.103,1014.69
251570,0.11956,9.78957,0.746054,2.1,-3.15,0.35,23.5185,-46.3989,-21.3394,1014.69
251576,0.10043,9.80392,0.664754,2.24,-3.29,0.49,23.6928,-47.1698,-19.8618,1014.68
251582,0.114778,9.81349,0.71736,2.38,-3.5,-0.07,23.257,-46.4605,-20.7927,1014.68
251588,0.148254,9.79436,0.703013,2.17,-3.5,0.63,23.0536,-45.9979,-21.6202,1014.67
251594,0.162602,9.81827,0.679101,1.89,-3.43,0.21,23.4022,-47.8483,-21.1326,1014.67
251600,0.23912,9.86609,0.640842,2.31,-3.5,-0.49,23.3441,-47.4474,-21.7236,1014.67
251606,0.196078,9.87566,0.659971,1.89,-2.8,-0.49,22.4724,-46.2755,-22.5807,1014.67
251612,0.105213,9.87566,0.655189,1.68,-3.08,-0.49,22.9373,-47.9408,-21.2212,1014.67
251618,0.0860832,9.81349,0.688666,1.54,-2.73,0,23.257,-47.9717,-21.5315,1014.68
251624,0.153037,9.79914,0.726925,2.17,-2.24,-0.63,22.9083,-46.4297,-23.6446,1014.68
251630,0.105213,9.81827,0.693448,1.68,-2.94,-0.98,23.0245,-46.3989,-20.6302,1014.67
251636,0.10043,9.80392,0.712578,1.75,-3.5,-0.63,23.5475,-48.0334,-20.1278,1014.67
251642,0.047824,9.79436,0.73649,1.54,-3.43,-0.14,23.3151,-46.3372,-21.4281,1014.7
251648,0.071736,9.78479,0.731707,1.47,-3.43,-0.56,23.2279,-46.2447,-21.7532,1014.7
251654,0.095648,9.81827,0.703013,2.03,-3.71,-0.42,22.9373,-47.725,-20.1278,1014.68
251660,0.0765184,9.79436,0.731707,1.47,-3.5,-0.21,22.9373,-48.3726,-20.512,1014.68
251666,0.0286944,9.74653,0.746054,1.89,-3.36,0.21,22.9083,-46.1521,-21.3838,1014.68
251672,0.047824,9.77523,0.731707,1.82,-3.15,0.14,23.7219,-47.1082,-21.3247,1014.69
251678,0.0526064,9.78001,0.755619,2.03,-3.5,0.14,23.8962,-48.2801,-20.9553,1014.69
251684,0.0669536,9.78479,0.703013,1.82,-3.57,0.7,22.792,-45.6587,-22.0783,1014.69
251690,0.133907,9.82305,0.636059,1.89,-3.57,0,23.2279,-47.0773,-22.0044,1014.69
251696,0.210426,9.86131,0.659971,1.68,-3.64,-0.28,24.5645,-47.5399,-21.1178,1014.72
251702,0.191296,9.88522,0.621712,1.26,-3.85,0.07,23.6637,-46.4605,-20.5858,1014.72
251708,0.196078,9.85174,0.674318,0.91,-3.78,-0.49,23.5185,-46.6147,-21.3838,1014.68
251714,0.21999,9.8374,0.760402,1.12,-3.64,-1.4,23.3732,-49.1436,-19.8323,1014.68
251720,0.263032,9.8374,0.784314,1.26,-3.08,-1.54,23.4894,-47.2315,-20.9553,1014.68
251726,0.243902,9.94261,0.636059,1.05,-2.73,-1.75,22.763,-46.4605,-21.1621,1014.67
251732,0.176949,9.94261,0.659971,0.98,-3.01,-2.52,23.1117,-47.3549,-21.1769,1014.67
251738,0.10043,9.82783,0.779531,0.98,-3.5,-2.24,23.6056,-48.5576,-20.3199,1014.71
251744,0.0860832,9.84696,0.703013,0.56,-3.01,-2.38,22.2109,-45.8437,-20.9848,1014.71
251750,0.10043,9.81349,0.707795,0.7,-3.43,-2.73,22.6177,-47.2932,-22.093,1014.73
251756,0.0526064,9.7561,0.741272,0.63,-3.29,-2.38,23.1698,-48.1876,-21.9748,1014.73
251762,0.0334768,9.78001,0.755619,0.42,-3.08,-2.38,23.0536,-46.1521,-22.0044,1014.72
251768,0.0382592,9.75131,0.746054,0.91,-3.36,-2.1,23.1117,-46.8615,-21.7384,1014.72
251774,0.0334768,9.79914,0.741272,1.12,-3.5,-2.1,23.257,-47.6633,-21.1474,1014.72
251780,0.0573888,9.83261,0.683883,0.77,-3.29,-2.24,23.5185,-47.5091,-21.6793,1014.72
251786,0.047824,9.81349,0.688666,0.49,-2.87,-1.82,23.6347,-45.9979,-21.9453,1014.72
251792,0.0047824,9.79436,0.760402,0.49,-3.08,-1.75,23.3732,-48.1876,-21.6941,1014.66
251798,0.047824,9.75131,0.73649,0.63,-3.43,-1.4,22.9954,-47.7558,-20.8814,1014.66
251804,0.0860832,9.78479,0.746054,0.63,-3.36,-1.68,23.3441,-46.0596,-21.1326,1014.7
251810,0.0573888,9.81349,0.760402,0.77,-3.5,-1.61,23.5475,-46.5839,-20.7484,1014.7
251816,0.109995,9.79914,0.741272,0.91,-3.43,-1.33,23.0536,-48.0334,-21.6202,1014.7
251822,0.105213,9.8374,0.69823,0.84,-3.36,-1.19,23.4603,-46.2138,-21.6054,1014.7
251828,0.071736,9.78001,0.707795,0.49,-3.22,-1.54,23.0536,-46.2447,-22.0192,1014.73
251834,0.0860832,9.76088,0.798661,0.56,-3.22,-1.4,23.5185,-48.0025,-21.7089,1014.73
251840,0.148254,9.8087,0.774749,0.84,-3.08,-1.75,23.6347,-47.0773,-20.9553,1014.73
251846,0.11956,9.84218,0.722142,0.56,-3.01,-1.96,22.9373,-45.6895,-22.5954,1014.71
251852,0.0621712,9.85174,0.774749,0.77,-3.36,-2.03,24.0705,-46.8306,-21.3394,1014.71
251858,0.047824,9.78479,0.789096,0.28,-2.52,-1.19,23.5766,-48.1876,-21.9896,1014.74
251864,0.0573888,9.79436,0.803443,1.05,-3.15,-1.82,23.1117,-45.8129,-22.3295,1014.74
251870,0.0573888,9.79436,0.755619,0.84,-3.36,-2.1,23.78,-46.3063,-21.7975,1014.71
251876,0.0095648,9.82305,0.760402,0.77,-2.73,-1.4,23.9834,-47.8175,-21.3985,1014.71
251882,-0.0095648,9.8374,0.69823,0.49,-2.87,-1.4,23.4022,-46.368,-21.502,1014.7
251888,-0.0382592,9.77523,0.741272,0.7,-3.01,-1.61,23.6637,-46.7689,-22.4181,1014.7
251894,0,9.74175,0.803443,0.7,-3.43,-0.98,23.7219,-48.5268,-20.8814,1014.7
251900,0,9.77044,0.750837,0.91,-3.64,-0.7,23.6056,-47.2624,-21.1917,1014.72
251906,0.0286944,9.77523,0.760402,1.05,-3.15,-0.63,23.8381,-46.3989,-20.8962,1014.72
251912,0.023912,9.76088,0.793878,0.63,-3.29,-0.7,23.8962,-48.0025,-21.6497,1014.72
251918,0.0621712,9.79914,0.822573,1.26,-3.22,-0.35,24.0415,-47.9408,-22.1521,1014.72
251924,0.071736,9.77523,0.755619,1.61,-3.57,-0.35,23.8671,-45.6279,-22.0044,1014.71
251930,0.0813008,9.80392,0.722142,0.84,-2.45,-0.63,23.3441,-46.7381,-21.6941,1014.71
251936,0.0669536,9.82305,0.765184,0.91,-3.43,-0.49,24.3611,-48.2184,-21.2212,1014.71
251942,-0.0286944,9.80392,0.798661,1.19,-2.66,-0.49,23.7219,-46.6764,-21.4133,1014.71
251948,-0.0047824,9.73697,0.81779,1.4,-3.15,-0.28,24.1868,-46.2447,-22.1078,1014.71
251954,0.0526064,9.76088,0.803443,1.54,-3.15,-0.84,23.6347,-48.496,-21.1917,1014.74
251960,0.047824,9.78001,0.784314,1.26,-2.94,-0.28,24.2158,-46.6147,-21.9601,1014.74
251966,0.023912,9.76566,0.779531,1.47,-2.87,-0.42,23.6056,-45.7512,-21.7827,1014.69
251972,0,9.77044,0.822573,1.68,-3.22,0.14,24.0705,-47.324,-21.502,1014.69
251978,0.0047824,9.7561,0.83692,1.61,-3.29,0.14,23.78,-47.5708,-21.1178,1014.7
251984,0.0095648,9.7561,0.813008,1.96,-3.43,0.42,23.4022,-45.9979,-22.359,1014.7
251990,-0.0095648,9.78479,0.789096,1.96,-3.71,0.56,23.5185,-47.2624,-22.8171,1014.72
251996,-0.0191296,9.76088,0.784314,2.1,-3.5,0.49,24.3321,-48.3109,-21.369,1014.72
252002,-0.0334768,9.77044,0.803443,2.38,-3.08,0.91,23.6928,-46.2138,-21.3099,1014.71
252008,-0.0095648,9.78001,0.832138,2.1,-3.36,1.19,23.5766,-45.1653,-22.2704,1014.71
252014,-0.0047824,9.79436,0.722142,2.31,-3.36,1.12,23.78,-47.91,-21.6054,1014.71
252020,0.0526064,9.79914,0.779531,2.38,-3.5,1.12,23.6928,-47.3549,-22.7432,1014.71
252026,0.071736,9.82305,0.760402,2.38,-3.22,1.12,23.9543,-46.0288,-22.6693,1014.71
252032,0.0621712,9.78001,0.746054,2.73,-3.22,1.19,23.5766,-47.0773,-21.5168,1014.7
252038,0.109995,9.83261,0.760402,2.24,-2.73,1.05,23.9253,-48.1876,-22.1965,1014.7
252044,0.129125,9.90435,0.707795,2.38,-3.08,0.7,23.5185,-46.0596,-22.8171,1014.7
252050,0.095648,9.85174,0.707795,2.31,-2.8,0.56,23.0536,-48.0025,-23.1865,1014.7
252056,0.0143472,9.8087,0.769966,2.17,-3.15,0.98,23.286,-48.1567,-22.8171,1014.68
252062,0,9.78479,0.784314,2.24,-3.5,0.63,23.5766,-46.8923,-21.6497,1014.68
252068,0.0095648,9.76566,0.803443,2.31,-3.43,0.91,23.3441,-46.6764,-24.0435,1014.68
252074,0.0382592,9.76088,0.779531,2.45,-3.71,1.19,23.1117,-48.2492,-22.5363,1014.68
252080,0.0573888,9.81827,0.741272,2.38,-3.71,1.4,23.4022,-47.2315,-23.1569,1014.68
252086,0.0286944,9.78479,0.779531,2.38,-3.71,1.12,24.0996,-46.7381,-23.1274,1014.69
252092,0.0286944,9.77044,0.779531,2.45,-3.57,1.33,23.6928,-48.1567,-21.8714,1014.69
252098,0.047824,9.74175,0.774749,2.45,-3.36,1.68,23.1988,-48.1567,-21.8714,1014.69
252104,0.0382592,9.78957,0.755619,2.59,-3.43,1.4,23.7509,-46.8306,-23.5559,1014.69
252110,0.047824,9.78001,0.760402,2.73,-3.99,1.54,23.257,-46.9848,-23.349,1014.71
252116,0.0765184,9.79914,0.774749,2.8,-3.43,1.89,23.6637,-48.4034,-22.625,1014.71
252122,0.071736,9.76566,0.784314,2.73,-3.43,1.54,23.3151,-47.0773,-23.1126,1014.71
252128,0.124342,9.81827,0.755619,2.94,-3.71,1.54,22.8502,-46.9231,-23.1274,1014.67
252134,0.10043,9.82305,0.731707,2.66,-3.22,1.47,22.9083,-47.9717,-21.8714,1014.67
252140,0.124342,9.85653,0.683883,3.01,-3.43,1.19,23.6637,-47.91,-22.0635,1014.71
252146,0.13869,9.86609,0.722142,2.24,-3.15,0.98,22.9373,-45.7821,-22.7875,1014.71
252152,0.0860832,9.81827,0.741272,2.59,-3.08,1.61,23.5766,-47.5708,-21.3247,1014.72
252158,0.105213,9.81349,0.731707,2.73,-3.15,1.19,23.5475,-47.2932,-21.9157,1014.72
252164,0.133907,9.84218,0.726925,2.66,-3.15,0.98,22.792,-46.4914,-23.0387,1014.73
252170,0.124342,9.84696,0.741272,2.38,-2.87,0.84,23.5185,-46.9231,-21.8418,1014.73
252176,0.10043,9.84218,0.707795,2.31,-2.94,-0.07,23.8962,-48.1259,-21.2065,1014.7
252182,0.105213,9.83261,0.746054,2.38,-3.08,0.42,22.792,-46.3989,-21.8862,1014.7
252188,0.071736,9.8374,0.755619,1.96,-3.08,0.7,23.2279,-46.4914,-23.0978,1014.7
252194,0.0621712,9.79436,0.722142,1.89,-2.52,0.77,23.5185,-47.0773,-22.3738,1014.7
252200,0.0621712,9.79914,0.750837,2.1,-3.15,0.63,23.6928,-46.4297,-21.5463,1014.7
252206,0.10043,9.79914,0.750837,1.61,-3.57,0.42,23.257,-46.0596,-22.8466,1014.69
252212,0.0908656,9.78957,0.779531,2.52,-3.29,0.91,23.5475,-47.6324,-20.8223,1014.69
252218,0.105213,9.78479,0.741272,2.03,-3.08,0.77,22.9373,-47.9408,-21.6793,1014.71
252224,0.0813008,9.76088,0.741272,2.17,-3.29,0.7,23.286,-46.5222,-21.8714,1014.71
252230,0.071736,9.77523,0.760402,2.38,-3.5,0.63,23.0536,-46.7689,-22.1965,1014.69
252236,0.0908656,9.78957,0.731707,2.1,-3.29,0.84,23.4022,-48.5885,-20.512,1014.69
252242,0.0765184,9.78479,0.750837,2.59,-3.43,0.56,22.9954,-46.9848,-21.5611,1014.69
252248,0.071736,9.8087,0.813008,2.31,-2.94,0.7,23.0826,-46.5222,-22.2113,1014.68
252254,0.114778,9.76566,0.73649,2.38,-3.01,1.54,23.1988,-48.1259,-21.768,1014.68
252260,0.11956,9.8087,0.722142,2.73,-2.66,0.84,23.6056,-47.9717,-21.4872,1014.7
252266,0.105213,9.77523,0.746054,2.1,-3.22,0.7,22.7049,-46.4605,-21.4281,1014.7
252272,0.114778,9.79436,0.769966,2.52,-3.43,0.7,22.5015,-47.6941,-21.8418,1014.67
252278,0.181731,9.85174,0.693448,2.31,-3.01,0.42,22.9083,-48.5885,-21.768,1014.67
252284,0.157819,9.87087,0.703013,2.59,-3.01,0,23.6637,-46.6147,-22.1374,1014.68
252290,0.114778,9.85653,0.712578,2.03,-3.36,0.42,22.8502,-47.8175,-22.8023,1014.68
252296,0.0908656,9.83261,0.722142,2.03,-3.36,0.42,22.8211,-48.8044,-20.9109,1014.68
252302,0.10043,9.80392,0.760402,2.17,-3.43,0.14,23.0245,-46.5531,-21.2656,1014.69
252308,0.0908656,9.8087,0.73649,1.96,-3.57,0.84,22.5886,-46.6764,-22.6398,1014.69
252314,0.124342,9.81827,0.765184,2.24,-3.29,0.7,23.0826,-48.2184,-20.5415,1014.7
252320,0.095648,9.81827,0.71736,2.03,-3.43,0.14,22.7339,-47.6324,-20.7632,1014.7
252326,0.0813008,9.80392,0.750837,1.89,-3.5,0.42,22.3562,-47.1698,-22.1374,1014.71
252332,0.0813008,9.79436,0.774749,2.45,-3.29,0.35,22.4434,-47.9717,-21.9453,1014.71
252338,0.109995,9.78001,0.765184,2.1,-3.43,0.35,22.4724,-48.3109,-21.7827,1014.7
252344,0.129125,9.81349,0.741272,2.17,-3.22,0.14,22.24,-46.6764,-22.758,1014.7
252350,0.143472,9.8087,0.707795,2.38,-3.36,0.56,23.1117,-47.0465,-21.5315,1014.67
252356,0.148254,9.82783,0.71736,2.17,-3.01,0.28,23.1988,-48.7427,-21.4724,1014.67
252362,0.109995,9.78957,0.760402,2.38,-3.15,-0.14,22.8792,-47.4782,-22.2556,1014.67
252368,0.114778,9.79914,0.726925,1.68,-2.94,0.35,22.4143,-46.954,-21.9896,1014.71
252374,0.095648,9.8087,0.750837,1.75,-3.36,-0.21,22.6758,-49.1128,-21.6497,1014.71
252380,0.153037,9.81827,0.722142,2.1,-3.15,-0.07,22.792,-47.8792,-21.8123,1014.74
252386,0.133907,9.84696,0.755619,2.03,-2.8,0,23.1698,-46.4297,-21.5463,1014.74
252392,0.0573888,9.79436,0.755619,2.03,-3.29,-0.14,23.0826,-48.095,-22.2556,1014.68
252398,0.191296,9.81827,0.73649,1.96,-3.29,-0.42,22.792,-48.6193,-23.216,1014.68
252404,0.129125,9.85174,0.731707,2.1,-3.15,-0.14,22.5596,-46.368,-21.9009,1014.71
252410,0.0908656,9.86131,0.693448,1.75,-2.59,-0.28,23.2279,-47.4166,-22.2408,1014.71
252416,0.0334768,9.75131,0.750837,1.61,-3.22,-0.35,23.2279,-48.4651,-21.5611,1014.71
252422,0.0813008,9.79436,0.827355,1.82,-3.57,-0.21,22.6468,-46.954,-22.0783,1014.71
252428,0.0573888,9.8087,0.746054,1.75,-3.22,0.07,22.5305,-46.368,-22.7728,1014.71
252434,0.0813008,9.78957,0.769966,2.03,-3.43,17.78,22.6468,-47.9717,-21.8418,1014.69
252440,0.109995,9.77044,0.741272,1.96,-3.5,-0.07,22.8792,-47.4782,-21.4281,1014.69
252446,0.0813008,9.78957,0.808226,2.03,-2.94,0,22.1528,-45.8129,-21.6941,1014.71
252452,0.105213,9.77523,0.755619,2.17,-3.43,0.42,22.763,-47.3857,-22.093,1014.71
252458,0.0860832,9.8087,0.765184,1.75,-3.08,0.42,22.792,-48.4034,-22.1374,1014.71
252464,0.0860832,9.78001,0.741272,2.38,-3.57,0.49,22.4143,-46.954,-23.4229,1014.71
252470,0.0765184,9.78957,0.765184,2.03,-3.15,0.21,22.1528,-46.8923,-22.625,1014.71
252476,0.133907,9.78957,0.760402,2.45,-3.29,0.7,22.5015,-48.3418,-22.2113,1014.73
252482,0.11956,9.79436,0.746054,2.03,-2.66,0.56,22.763,-46.8306,-22.0635,1014.73
252488,0.13869,9.82305,0.722142,2.31,-3.29,0.07,22.9083,-46.954,-20.645,1014.74
252494,0.162602,9.79436,0.73649,2.45,-3.43,-0.07,23.0245,-48.0642,-21.8566,1014.74
252500,0.191296,9.85174,0.679101,2.31,-3.08,0.28,23.1698,-47.7558,-20.6745,1014.71
252506,0.143472,9.82783,0.707795,1.89,-2.8,-0.07,22.792,-45.4737,-22.5511,1014.71
252512,0.0813008,9.81827,0.746054,1.33,-2.8,-0.07,22.9083,-47.4166,-21.5168,1014.71
252518,0.124342,9.83261,0.746054,1.96,-3.36,-0.14,22.6177,-48.0642,-21.635,1014.71
252524,0.153037,9.81827,0.731707,2.17,-3.22,-0.49,22.9664,-46.7998,-21.8566,1014.72
252530,0.109995,9.8087,0.784314,2.03,-3.01,-0.21,22.6468,-46.8923,-22.226,1014.72
252536,0.0526064,9.82305,0.746054,1.82,-3.01,0.28,23.5475,-48.1567,-22.3442,1014.72
252542,0.0621712,9.78957,0.769966,2.03,-3.78,-0.07,22.7339,-46.7073,-21.1178,1014.68
252548,0.109995,9.78479,0.741272,1.82,-3.36,0.07,22.4143,-46.8923,-22.2408,1014.68
252554,0.0526064,9.79914,0.755619,1.89,-3.36,-0.07,23.0245,-48.4343,-21.5168,1014.68
252560,0.109995,9.80392,0.765184,2.17,-2.94,0,22.792,-48.0334,-21.4281,1014.68
252566,0.10043,9.82783,0.755619,1.96,-3.01,0.35,22.8502,-46.1521,-22.1226,1014.7
252572,0.095648,9.77044,0.760402,2.45,-3.29,0.21,22.6177,-47.91,-22.2704,1014.7
252578,0.10043,9.78957,0.779531,2.17,-3.71,0.35,22.1818,-48.3109,-22.3442,1014.7
252584,0.0860832,9.80392,0.703013,2.1,-3.5,0.98,22.3271,-47.2007,-21.5168,1014.7
252590,0.148254,9.80392,0.731707,2.59,-3.43,0.49,23.1407,-46.7998,-21.0587,1014.7
252596,0.13869,9.81827,0.726925,1.89,-2.87,0.42,22.9083,-48.5576,-22.5954,1014.69
252602,0.157819,9.79914,0.769966,1.89,-3.36,0.42,22.8502,-47.8792,-21.9453,1014.69
252608,0.176949,9.82305,0.71736,2.31,-3.5,0.49,22.9083,-47.0465,-22.4181,1014.68
252614,0.167384,9.83261,0.712578,2.31,-3.5,0.42,22.5886,-48.8352,-21.8714,1014.68
252620,0.0908656,9.82783,0.726925,1.75,-3.15,0.42,22.9083,-48.0642,-21.1474,1014.7
252626,0.124342,9.79436,0.760402,2.03,-3.29,0.14,22.5886,-47.1082,-21.2951,1014.7
252632,0.109995,9.8087,0.731707,2.03,-3.29,0,22.8792,-48.095,-22.5068,1014.69
252638,0.129125,9.80392,0.789096,2.1,-3.43,0.14,22.8792,-48.0025,-22.2556,1014.69
252644,0.109995,9.83261,0.746054,1.68,-3.71,0.49,22.4143,-46.7381,-22.0783,1014.69
252650,0.0765184,9.80392,0.73649,2.17,-3.78,0,23.6347,-47.6016,-22.226,1014.66
252656,0.105213,9.81827,0.765184,2.31,-3.43,0.28,22.8792,-49.0819,-21.8714,1014.66
252662,0.124342,9.78957,0.750837,2.1,-3.29,0.63,22.6468,-47.2007,-20.9848,1014.73
252668,0.109995,9.79436,0.731707,2.38,-3.22,0.56,22.3271,-46.2447,-21.0882,1014.73
252674,0.0860832,9.81349,0.750837,2.52,-3.43,0.63,23.2279,-48.5268,-21.369,1014.67
252680,0.114778,9.80392,0.73649,2.03,-3.15,0.42,23.1988,-48.2492,-21.6941,1014.67
252686,0.13869,9.78957,0.731707,2.17,-3.64,0.77,22.9664,-47.0465,-22.5363,1014.71
252692,0.172166,9.79914,0.726925,2.45,-3.85,0.35,22.8211,-48.1567,-21.8123,1014.71
252698,0.172166,9.82783,0.707795,2.1,-3.15,0.14,23.1698,-47.6324,-21.1621,1014.71
252704,0.186514,9.84218,0.726925,2.45,-3.29,0.28,23.1407,-45.6587,-22.2704,1014.71
252710,0.133907,9.81827,0.741272,1.96,-3.15,-0.14,22.9373,-46.6764,-22.7875,1014.71
252716,0.21999,9.84218,0.71736,2.31,-3.22,-0.42,23.78,-48.4343,-22.5216,1014.72
252722,0.148254,9.84218,0.731707,1.68,-2.59,-0.42,22.6468,-47.0157,-21.9896,1014.72
252728,0.215208,9.85653,0.703013,1.82,-3.36,-0.63,21.7751,-46.954,-22.9057,1014.71
252734,0.148254,9.82783,0.71736,2.03,-3.5,-0.49,22.5596,-48.5576,-21.369,1014.71
252740,0.114778,9.81349,0.73649,1.82,-3.15,-0.35,23.1117,-48.0642,-21.3394,1014.71
252746,0.0860832,9.82305,0.712578,1.19,-2.8,-0.56,23.0826,-46.4297,-23.0092,1014.71
252752,0.0813008,9.74653,0.81779,1.61,-3.15,-0.07,23.2279,-48.0025,-22.3442,1014.7
252758,0.0526064,9.8087,0.784314,1.54,-3.22,0.28,22.9664,-48.9894,-21.8271,1014.7
252764,0.0813008,9.79914,0.746054,1.75,-3.36,-0.63,23.1407,-46.4297,-22.5511,1014.7
252770,0.105213,9.82783,0.693448,1.4,-3.57,0,22.4143,-46.2755,-22.9205,1014.74
252776,0.095648,9.81349,0.69823,1.47,-3.85,-0.07,22.6468,-48.3109,-21.6202,1014.74
252782,0.0526064,9.73218,0.846485,2.03,-3.43,0.42,22.8211,-46.368,-23.8662,1014.71
252788,0.0191296,9.76566,0.822573,1.96,-3.57,0.7,22.8792,-46.1521,-22.3442,1014.71
252794,0.105213,9.78479,0.741272,2.45,-3.36,0.63,22.763,-47.9408,-22.7875,1014.71
252800,0.11956,9.82305,0.707795,1.89,-3.92,0.49,23.1117,-47.6016,-22.5068,1014.71
252806,0.167384,9.8374,0.722142,2.1,-3.85,0.35,22.5886,-46.3989,-22.0487,1014.72
252812,0.162602,9.79914,0.73649,2.1,-3.15,0.56,22.792,-47.6941,-22.4329,1014.72
252818,0.215208,9.84696,0.731707,1.82,-3.08,-0.28,22.6177,-47.91,-21.4872,1014.72
252824,0.243902,9.86609,0.683883,1.54,-3.15,-0.21,22.4143,-45.9363,-22.2704,1014.7
252830,0.200861,9.86131,0.703013,2.1,-3.5,-0.63,22.24,-46.7381,-22.8466,1014.7
252836,0.176949,9.87087,0.722142,1.82,-3.29,-0.7,22.4143,-48.681,-21.8271,1014.71
252842,0.124342,9.83261,0.750837,1.54,-3.29,-1.12,22.6468,-47.2007,-22.1078,1014.71
252848,0.0813008,9.85653,0.722142,1.68,-3.36,-1.05,22.7339,-46.2138,-22.4772,1014.7
252854,0.0765184,9.79914,0.784314,1.47,-3.22,-0.91,22.6758,-47.7558,-21.7384,1014.7
252860,0.0860832,9.77523,0.789096,1.96,-3.08,-0.07,22.763,-47.2932,-21.0587,1014.69
252866,0.129125,9.75131,0.722142,1.75,-3.43,-0.35,22.4434,-46.5222,-21.9009,1014.69
252872,0.0908656,9.77523,0.750837,1.61,-3.64,-0.7,22.7339,-48.1259,-21.9453,1014.68
252878,0.0813008,9.78479,0.746054,1.96,-3.57,-0.07,22.8502,-49.2053,-20.645,1014.68
252884,0.0765184,9.77523,0.784314,1.68,-3.43,0.28,22.763,-46.9231,-22.3738,1014.68
252890,0.0573888,9.77044,0.750837,1.96,-3.99,0.07,22.8211,-47.2624,-21.1178,1014.67
252896,0.105213,9.79914,0.779531,1.89,-3.36,0.35,22.9083,-48.7427,-21.7089,1014.67
252902,0.124342,9.81349,0.71736,2.03,-3.57,0.35,23.4603,-47.7558,-23.8219,1014.69
252908,0.11956,9.78479,0.73649,1.96,-3.5,0.63,23.1407,-46.0596,-21.9748,1014.69
252914,0.162602,9.81827,0.765184,2.1,-3.57,0.49,22.6468,-48.0334,-21.6202,1014.69
252920,0.143472,9.83261,0.703013,2.17,-3.36,0.35,23.6056,-47.6633,-21.3985,1014.69
252926,0.153037,9.84218,0.71736,2.1,-3.43,-0.28,22.5596,-46.5531,-23.0978,1014.67
252932,0.148254,9.78479,0.750837,2.1,-3.22,0.28,22.763,-47.7866,-22.2113,1014.67
252938,0.162602,9.83261,0.755619,2.17,-3.57,-0.56,23.1698,-48.4034,-22.2113,1014.67
252944,0.191296,9.82305,0.703013,1.61,-3.15,-0.77,22.0366,-46.5839,-22.0487,1014.71
252950,0.162602,9.84696,0.741272,1.96,-3.36,-0.49,22.3271,-46.6764,-22.9205,1014.71
252956,0.0908656,9.81827,0.793878,1.75,-3.29,-0.7,22.4724,-47.9717,-22.3442,1014.71
252962,0.11956,9.78957,0.760402,1.96,-3.57,-0.91,23.3441,-47.4474,-21.9896,1014.71
252968,0.133907,9.8087,0.726925,1.68,-3.57,0.07,22.24,-47.4782,-23.3047,1014.69
252974,0.095648,9.84218,0.750837,1.82,-3.57,-0.42,22.8792,-48.4651,-21.8271,1014.69
252980,0.0621712,9.78001,0.769966,1.96,-3.78,-0.77,22.8211,-48.4651,-22.4181,1014.73
252986,0.0573888,9.77523,0.760402,1.54,-3.57,-0.56,23.0826,-47.0157,-21.8418,1014.73
252992,0.0765184,9.79436,0.760402,1.61,-3.99,0,23.1988,-47.8792,-21.5906,1014.73
252998,0.0860832,9.75131,0.774749,1.75,-3.78,1.05,23.257,-49.2053,-21.7975,1014.71
253004,0.109995,9.77523,0.722142,1.96,-3.5,0.28,22.5596,-46.4297,-22.093,1014.71
253010,0.133907,9.78957,0.769966,1.96,-3.64,-0.21,22.4724,-46.7689,-21.4577,1014.69
253016,0.114778,9.77523,0.741272,2.03,-4.06,0.35,23.8381,-48.5268,-21.8418,1014.69
253022,0.11956,9.80392,0.769966,2.38,-3.64,0.84,22.6468,-47.4166,-22.2999,1014.68
253028,0.196078,9.80392,0.73649,2.24,-3.64,0.35,22.2109,-46.6147,-22.1965,1014.68
253034,0.21999,9.83261,0.73649,2.38,-3.43,0.49,23.0245,-48.5268,-22.492,1014.7
253040,0.133907,9.8087,0.746054,1.75,-3.36,0.35,23.2279,-48.0642,-22.4033,1014.7
253046,0.0908656,9.78479,0.779531,2.52,-3.01,0.21,22.7049,-45.7821,-23.4672,1014.71
253052,0.11956,9.79436,0.760402,2.31,-3.15,0.28,22.4143,-48.1567,-23.0831,1014.71
253058,0.129125,9.81349,0.746054,2.38,-3.57,-0.14,21.746,-48.7427,-22.4772,1014.71
253064,0.095648,9.78001,0.750837,2.03,-3.22,-0.21,22.4434,-47.4782,-21.4429,1014.72
253070,0.114778,9.81827,0.741272,2.24,-3.36,0.35,23.5475,-46.7689,-21.8566,1014.72
253076,0.10043,9.79914,0.755619,2.52,-3.36,0,23.4022,-48.6502,-21.9157,1014.68
253082,0.0908656,9.81349,0.712578,2.31,-3.43,-0.42,22.3562,-46.9231,-21.3542,1014.68
253088,0.0860832,9.78957,0.784314,2.24,-3.22,0.63,22.4143,-46.9848,-22.5363,1014.69
253094,0.10043,9.78957,0.760402,2.31,-3.29,0.77,23.1698,-47.5399,-21.7975,1014.69
253100,0.11956,9.79914,0.774749,2.17,-3.36,0.28,23.8962,-47.6016,-22.9501,1014.72
253106,0.095648,9.75131,0.784314,2.24,-3.64,0.77,21.9785,-46.2138,-23.2456,1014.72
253112,0.133907,9.78001,0.760402,2.31,-3.36,0.91,22.4434,-47.4166,-21.5463,1014.72
253118,0.215208,9.84696,0.683883,2.66,-3.36,-0.21,22.7049,-47.324,-21.0882,1014.74
253124,0.21999,9.87566,0.659971,2.45,-3.15,0,22.9664,-46.5222,-22.7432,1014.74
253130,0.133907,9.85653,0.679101,2.17,-3.36,-0.28,22.1237,-46.3063,-22.758,1014.69
253136,0.157819,9.82305,0.674318,1.82,-3.85,0,23.3732,-47.725,-21.4577,1014.69
253142,0.157819,9.85653,0.703013,1.89,-3.22,0.07,23.1117,-46.4914,-23.3786,1014.7
253148,0.157819,9.8374,0.71736,2.31,-3.22,-0.7,22.6468,-45.9979,-22.1226,1014.7
253154,0.11956,9.82305,0.73649,1.54,-2.87,-0.63,22.792,-47.4782,-22.1374,1014.72
253160,0.114778,9.83261,0.750837,1.75,-3.08,0.07,22.4143,-48.0642,-22.0339,1014.72
253166,0.10043,9.82305,0.760402,2.45,-3.64,0,23.286,-45.9979,-22.5807,1014.72
253172,0.095648,9.78001,0.746054,1.96,-3.36,-0.35,22.5596,-48.1567,-21.4724,1014.68
253178,0.0765184,9.74175,0.774749,1.68,-3.43,-0.14,23.0536,-48.0642,-21.635,1014.68
253184,0.0813008,9.75131,0.765184,2.24,-3.64,0.07,23.6056,-46.7073,-21.9601,1014.72
253190,0.0908656,9.76088,0.798661,2.59,-3.64,0.21,23.2279,-46.3989,-22.625,1014.72
253196,0.109995,9.78957,0.765184,2.87,-3.36,0.49,24.0415,-48.0025,-21.3247,1014.7
253202,0.105213,9.78479,0.712578,2.52,-3.08,0.63,22.8792,-47.1698,-21.8271,1014.7
253208,0.157819,9.82305,0.669536,2.45,-3.43,0.77,23.1988,-46.0905,-23.0978,1014.7
253214,0.13869,9.83261,0.674318,1.75,-3.64,0.49,22.9083,-48.0642,-22.5511,1014.7
253220,0.153037,9.83261,0.693448,2.03,-3.5,0.56,24.6807,-48.1259,-21.7827,1014.72
253226,0.186514,9.83261,0.731707,1.68,-3.08,0.35,22.8211,-45.9671,-23.0535,1014.72
253232,0.157819,9.80392,0.703013,1.61,-3.57,0.28,23.5766,-46.9848,-20.0687,1014.72
253238,0.200861,9.82783,0.746054,2.17,-3.43,-0.14,24.3321,-47.7558,-20.2903,1014.69
253244,0.157819,9.82305,0.750837,1.82,-3.29,0.07,23.257,-46.2447,-21.3838,1014.69
253250,0.157819,9.8087,0.755619,1.82,-3.57,-0.28,23.6347,-46.2138,-20.9405,1014.71
253256,0.176949,9.83261,0.746054,2.03,-3.22,-0.28,23.0826,-48.3418,-21.1621,1014.71
253262,0.162602,9.84696,0.707795,1.89,-3.15,-0.35,23.4022,-48.0642,-23.1422,1014.66
253268,0.181731,9.8374,0.726925,1.89,-3.15,-0.56,23.1698,-46.8923,-21.9009,1014.66
253274,0.095648,9.82305,0.750837,1.96,-3.08,-0.63,23.7219,-48.1876,-22.3886,1014.67
253280,0.0813008,9.79914,0.69823,1.54,-3.36,-0.28,23.1698,-48.1259,-22.093,1014.67
253286,0.071736,9.80392,0.789096,1.54,-2.94,-0.56,22.6758,-45.597,-22.5659,1014.67
253292,0.114778,9.78479,0.760402,2.03,-3.08,0,23.4603,-47.3857,-22.0783,1014.68
253298,0.124342,9.79436,0.750837,1.82,-3.22,0.14,23.6637,-48.8352,-21.6497,1014.68
253304,0.0908656,9.78957,0.69823,1.96,-3.22,0.21,23.4894,-46.9848,-22.4033,1014.71
253310,0.0621712,9.75131,0.741272,1.96,-3.43,0.35,23.3732,-46.8306,-21.635,1014.71
253316,0.114778,9.76566,0.741272,1.96,-3.29,0.77,23.6637,-48.4343,-22.4033,1014.69
253322,0.109995,9.79914,0.741272,1.89,-3.01,0.7,23.1407,-47.3549,-21.2656,1014.69
253328,0.167384,9.78957,0.746054,2.03,-3.22,0.42,23.3732,-46.7998,-23.3786,1014.72
253334,0.176949,9.8087,0.722142,2.03,-2.8,0.7,23.5475,-48.4343,-22.226,1014.72
253340,0.124342,9.81827,0.760402,2.03,-3.15,0.21,23.6056,-47.725,-20.9109,1014.72
253346,0.13869,9.81827,0.760402,1.82,-2.94,0.35,22.7339,-46.0596,-21.7532,1014.72
253352,0.124342,9.78001,0.779531,2.24,-3.57,0.35,22.7339,-46.9848,-22.2851,1014.72
253358,0.143472,9.79914,0.741272,2.17,-3.36,0.42,23.3732,-47.9717,-21.5759,1014.7
253364,0.176949,9.81349,0.726925,2.59,-3.78,0.56,23.5475,-46.3372,-21.6202,1014.7
253370,0.157819,9.81827,0.741272,2.52,-3.15,0.21,23.0826,-46.7689,-22.2408,1014.71
253376,0.172166,9.85174,0.746054,2.17,-2.94,-0.07,23.0245,-48.6502,-21.6645,1014.71
253382,0.181731,9.82305,0.688666,2.03,-3.15,0,23.286,-47.1698,-22.4329,1014.74
253388,0.148254,9.84696,0.693448,2.03,-2.8,-0.14,23.1407,-46.2138,-22.0635,1014.74
253394,0.095648,9.8087,0.703013,1.89,-3.29,-0.07,22.8211,-47.4782,-21.9601,1014.69
253400,0.148254,9.81827,0.760402,1.82,-3.22,0.07,23.3441,-47.7866,-21.1769,1014.69
253406,0.13869,9.8087,0.693448,1.82,-2.8,-0.28,22.3852,-46.3063,-21.3099,1014.69
253412,0.114778,9.78957,0.73649,1.96,-2.87,-0.14,23.5185,-48.0334,-21.5463,1014.71
253418,0.143472,9.82783,0.760402,1.82,-3.64,0.14,23.6637,-48.6502,-21.6054,1014.71
253424,0.124342,9.79436,0.741272,1.47,-2.59,-0.21,22.5886,-46.8306,-22.492,1014.69
253430,0.13869,9.8087,0.712578,1.82,-2.24,0.35,23.4603,-47.0773,-23.0535,1014.69
253436,0.148254,9.78479,0.750837,1.47,-2.87,0.07,23.5185,-48.0642,-22.1226,1014.7
253442,0.13869,9.80392,0.71736,1.75,-3.22,0,23.286,-47.6633,-21.5906,1014.7
253448,0.162602,9.84218,0.712578,2.17,-3.36,-0.35,23.1407,-46.7073,-21.6645,1014.72
253454,0.167384,9.79436,0.755619,1.68,-2.87,-0.21,22.8792,-48.2184,-19.4037,1014.72
253460,0.153037,9.81827,0.726925,1.54,-2.8,0.21,23.1988,-47.7558,-20.6006,1014.72
253466,0.172166,9.82305,0.722142,1.68,-2.59,-0.7,23.9253,-45.8437,-22.5659,1014.7
253472,0.157819,9.82783,0.731707,1.89,-2.94,0,23.1698,-47.4782,-21.6497,1014.7
253478,0.143472,9.79914,0.73649,2.03,-2.8,-0.56,24.1868,-48.1567,-20.97,1014.72
253484,0.109995,9.80392,0.707795,2.03,-3.01,-0.35,22.6468,-46.4297,-21.0735,1014.72
253490,0.109995,9.8087,0.73649,1.82,-3.15,-0.56,22.9954,-47.2315,-22.0044,1014.69
253496,0.157819,9.77523,0.798661,1.82,-3.01,-0.14,23.4313,-48.1876,-21.4133,1014.69
253502,0.109995,9.78479,0.750837,2.31,-3.29,-0.14,22.763,-47.4166,-21.8418,1014.7
253508,0.071736,9.78957,0.712578,1.75,-3.08,-0.28,22.4724,-46.2755,-21.635,1014.7
253514,0.11956,9.77523,0.750837,2.1,-3.08,0.63,22.8792,-48.4343,-21.4281,1014.7
253520,0.109995,9.80392,0.726925,2.17,-3.71,-0.21,23.3732,-48.2801,-21.3985,1014.63
253526,0.148254,9.79436,0.703013,1.75,-3.29,0,23.0826,-45.6279,-21.2212,1014.63
253532,0.129125,9.79914,0.726925,1.68,-2.87,-0.14,22.3562,-47.4166,-20.8962,1014.69
253538,0.172166,9.79436,0.693448,2.03,-3.22,0.28,23.0826,-48.1567,-20.8666,1014.69
253544,0.133907,9.81827,0.750837,1.75,-3.5,0.49,22.5886,-46.4914,-21.9009,1014.75
253550,0.186514,9.79914,0.703013,2.03,-3.22,0.21,22.4143,-46.6764,-21.5759,1014.75
253556,0.176949,9.81827,0.707795,2.1,-3.15,-0.07,23.3441,-48.2184,-22.3147,1014.69
253562,0.162602,9.8374,0.703013,1.89,-2.87,-0.14,22.6758,-47.4474,-20.3938,1014.69
253568,0.143472,9.82783,0.707795,1.96,-3.08,-0.14,23.286,-46.4914,-20.379,1014.71
253574,0.162602,9.79914,0.746054,2.1,-3.15,-0.63,22.763,-48.3109,-20.4233,1014.71
253580,0.153037,9.81827,0.71736,1.82,-2.73,0.07,22.9373,-47.8792,-21.9601,1014.71
253586,0.13869,9.83261,0.741272,1.82,-3.08,-0.14,22.8792,-46.1213,-21.8418,1014.73
253592,0.129125,9.83261,0.69823,2.17,-3.43,-0.7,22.6758,-46.7381,-22.7432,1014.73
253598,0.10043,9.77523,0.760402,2.03,-2.73,17.64,23.2279,-48.1876,-21.3099,1014.69
253604,0.11956,9.79436,0.71736,1.89,-3.22,-0.63,22.9373,-46.3372,-22.2704,1014.69
253610,0.10043,9.82783,0.712578,1.68,-3.43,0.21,22.7339,-46.7073,-22.3147,1014.69
253616,0.13869,9.80392,0.750837,2.03,-3.22,-0.07,23.5475,-48.8969,-21.9009,1014.69
253622,0.10043,9.8087,0.726925,1.68,-3.36,-0.35,23.6637,-47.2315,-21.7532,1014.72
253628,0.105213,9.79436,0.746054,1.89,-3.01,0.07,22.7049,-46.1521,-23.3638,1014.72
253634,0.133907,9.81349,0.71736,1.82,-3.22,0.21,23.1988,-48.1259,-20.8666,1014.72
253640,0.114778,9.82305,0.722142,2.1,-3.08,0.07,22.5015,-48.6193,-21.6054,1014.71
253646,0.143472,9.79436,0.774749,2.1,-3.43,0.07,22.0075,-46.5839,-22.6545,1014.71
253652,0.143472,9.78957,0.73649,1.89,-3.22,0.21,23.3732,-47.1698,-21.7532,1014.71
253658,0.124342,9.83261,0.71736,1.75,-3.01,0.28,23.286,-47.8175,-20.1573,1014.71
253664,0.148254,9.82783,0.722142,1.96,-3.43,-0.35,23.2279,-47.2624,-21.6497,1014.69
253670,0.172166,9.78957,0.71736,2.31,-3.29,-0.07,22.7049,-45.9363,-21.9157,1014.69
253676,0.172166,9.79436,0.722142,2.24,-3.64,-0.35,22.8211,-48.681,-22.2851,1014.72
253682,0.186514,9.82305,0.750837,1.61,-3.43,0,23.4603,-47.4474,-20.9848,1014.72
253688,0.133907,9.82305,0.73649,2.17,-3.01,-0.35,23.0245,-46.0288,-22.0339,1014.72
253694,0.143472,9.82305,0.746054,2.1,-3.08,-0.84,22.9664,-47.4782,-21.2656,1014.72
253700,0.114778,9.82783,0.703013,2.03,-3.29,0.21,22.8502,-48.0642,-21.5906,1014.72
253706,0.11956,9.8087,0.73649,1.96,-3.57,-0.07,23.2279,-45.9363,-22.5511,1014.68
253712,0.13869,9.81349,0.707795,1.54,-3.29,-0.98,22.6758,-47.6633,-21.1621,1014.68
253718,0.124342,9.78001,0.71736,1.96,-3.43,-0.21,23.286,-47.9408,-20.7927,1014.68
253724,0.11956,9.80392,0.707795,2.1,-3.43,0.35,22.792,-45.6587,-21.2508,1014.68
253730,0.143472,9.79914,0.707795,1.89,-3.36,0.14,23.2279,-46.3063,-22.6102,1014.71
253736,0.133907,9.79436,0.750837,2.1,-3.29,0.28,22.9664,-48.8352,-20.6597,1014.71
253742,0.11956,9.77523,0.750837,1.96,-3.01,-0.07,22.8502,-47.2315,-20.97,1014.71
253748,0.124342,9.81349,0.760402,1.89,-3.15,0.14,23.6928,-46.3372,-22.1817,1014.71
253754,0.114778,9.81827,0.760402,1.68,-2.87,0.63,22.5886,-48.0025,-21.236,1014.71
253760,0.153037,9.81349,0.769966,1.82,-3.57,0.49,22.792,-48.4343,-20.4824,1014.69
253766,0.13869,9.82305,0.731707,2.24,-3.85,0.14,22.269,-47.4474,-23.2752,1014.69
253772,0.186514,9.79914,0.707795,2.38,-3.57,0,22.763,-48.2801,-21.9748,1014.68
253778,0.191296,9.83261,0.712578,1.96,-3.43,0.28,23.6347,-47.7558,-19.9652,1014.68
253784,0.215208,9.8374,0.703013,1.89,-3.22,-0.07,22.5015,-47.324,-22.2999,1014.67
253790,0.181731,9.87087,0.707795,1.75,-2.66,-0.35,22.9373,-46.4914,-21.635,1014.67
253796,0.0860832,9.83261,0.712578,1.75,-2.94,-0.42,23.4603,-48.3726,-21.4724,1014.69
253802,0.11956,9.81349,0.712578,1.68,-3.43,-0.49,23.0245,-47.725,-20.837,1014.69
253808,0.133907,9.82305,0.722142,1.96,-3.15,-0.21,23.0536,-46.8306,-21.5611,1014.69
253814,0.133907,9.79914,0.746054,1.61,-3.57,-0.14,23.6056,-48.3726,-21.9009,1014.67
253820,0.11956,9.82305,0.750837,1.82,-3.64,0,23.2279,-48.2801,-21.0882,1014.67
253826,0.095648,9.78479,0.712578,1.68,-3.29,-0.14,22.24,-46.5222,-22.1374,1014.68
253832,0.11956,9.80392,0.726925,2.1,-3.43,-0.21,23.1988,-47.9717,-21.5315,1014.68
253838,0.10043,9.78001,0.769966,1.61,-3.15,0.07,23.6928,-48.8044,-21.9453,1014.7
253844,0.109995,9.77044,0.731707,1.82,-3.43,0.35,22.4724,-46.8615,-22.5511,1014.7
253850,0.129125,9.78479,0.765184,1.54,-3.36,-0.14,22.6177,-46.8615,-22.0192,1014.69
253856,0.11956,9.78479,0.73649,2.59,-3.78,0.28,23.1698,-48.681,-20.7336,1014.69
253862,0.105213,9.78001,0.741272,1.61,-3.43,0.77,22.6177,-47.7866,-21.0291,1014.69
253868,0.13869,9.78479,0.784314,2.1,-2.8,0,22.9083,-46.4914,-22.3886,1014.68
253874,0.143472,9.81349,0.712578,2.38,-3.43,0.35,23.6056,-48.3109,-21.2803,1014.68
253880,0.148254,9.81349,0.746054,2.24,-3.08,0.42,23.1407,-48.496,-21.3985,1014.67
253886,0.162602,9.78957,0.746054,2.1,-3.01,0.14,22.3271,-46.3989,-22.8762,1014.67
253892,0.181731,9.79436,0.703013,2.45,-3.64,0.28,23.286,-47.0157,-21.8862,1014.68
253898,0.224773,9.84218,0.688666,2.1,-3.36,0.21,22.3852,-48.4343,-21.1326,1014.68
253904,0.191296,9.8374,0.703013,1.96,-3.36,-0.07,23.4603,-46.8615,-20.0391,1014.69
253910,0.191296,9.84696,0.707795,2.1,-2.94,-0.14,22.9373,-47.1082,-21.0144,1014.69
253916,0.157819,9.86131,0.707795,2.1,-3.71,-0.56,22.6177,-48.2801,-20.9848,1014.69
253922,0.21999,9.81349,0.679101,1.61,-3.15,-0.42,22.6468,-47.0465,-22.0635,1014.69
253928,0.11956,9.8374,0.669536,1.54,-3.29,-0.63,22.6177,-46.3989,-22.0339,1014.69
253934,0.0908656,9.81349,0.731707,1.75,-3.15,-0.21,22.9373,-47.7866,-21.4133,1014.69
253940,0.095648,9.80392,0.769966,2.17,-3.15,17.57,22.7339,-47.725,-21.0144,1014.69
253946,0.133907,9.82305,0.722142,1.82,-3.78,0,22.792,-46.5839,-22.1521,1014.67
253952,0.095648,9.78957,0.712578,1.75,-3.43,-0.14,23.0536,-47.4166,-21.8566,1014.67
253958,0.133907,9.79914,0.73649,1.96,-3.5,-0.49,22.9373,-48.7427,-21.4133,1014.71
253964,0.148254,9.80392,0.712578,1.75,-3.01,0.28,23.6928,-46.5222,-22.0339,1014.71
253970,0.124342,9.76088,0.712578,1.54,-3.5,0.35,23.0536,-46.954,-22.2556,1014.68
253976,0.13869,9.79914,0.731707,1.96,-3.57,0,23.7509,-48.5885,-21.5168,1014.68
253982,0.153037,9.76566,0.707795,1.68,-3.22,-0.42,22.8792,-47.324,-21.6941,1014.68
253988,0.105213,9.77523,0.71736,2.24,-3.43,0.91,22.792,-46.6456,-21.2212,1014.67
253994,0.13869,9.78957,0.71736,1.68,-3.36,0.14,23.0826,-47.7558,-21.8714,1014.67
254000,0.148254,9.82783,0.726925,2.66,-3.57,-0.42,23.0536,-46.954,-20.1721,1014.7
254006,0.162602,9.79436,0.722142,1.96,-3.36,0.21,22.763,-46.0905,-22.1669,1014.7
254012,0.181731,9.8374,0.750837,2.03,-3.08,-0.07,22.6468,-47.3549,-20.9996,1014.69
254018,0.176949,9.81349,0.712578,2.1,-3.43,0.07,23.1698,-47.9717,-21.6497,1014.69
254024,0.157819,9.78957,0.779531,1.96,-3.15,-0.14,22.8211,-46.8615,-21.8123,1014.72
254030,0.105213,9.77523,0.765184,2.1,-3.5,-0.49,22.792,-46.6456,-21.3099,1014.72
254036,0.234338,9.88044,0.61693,1.54,-3.01,-0.35,22.792,-48.2801,-22.5511,1014.72
254042,0.200861,9.81827,0.712578,1.75,-3.01,-0.28,22.2981,-47.4166,-22.359,1014.69
254048,0.0813008,9.80392,0.746054,1.61,-3.71,-0.49,22.4143,-45.9979,-22.625,1014.69
254054,0.0860832,9.77523,0.784314,1.75,-3.43,-0.49,23.1698,-46.954,-20.8223,1014.69
254060,0.10043,9.80392,0.726925,1.4,-3.64,-0.42,22.7339,-48.095,-20.0835,1014.69
254066,0.11956,9.78479,0.703013,1.96,-3.57,-0.07,23.0536,-45.8746,-22.492,1014.71
254072,0.105213,9.78479,0.741272,1.4,-3.36,0.42,23.2279,-47.725,-21.236,1014.71
254078,0.11956,9.77044,0.722142,1.47,-3.29,0.21,23.1407,-48.2184,-21.0882,1014.69
254084,0.0908656,9.78479,0.755619,1.4,-3.36,0.28,22.8211,-47.3549,-22.1965,1014.69
254090,0.133907,9.78001,0.726925,1.54,-3.29,0.28,22.3271,-46.6456,-21.8714,1014.73
254096,0.129125,9.80392,0.755619,2.03,-3.57,0.21,22.3852,-48.0334,-22.1669,1014.73
254102,0.153037,9.77044,0.750837,1.89,-3.01,0.21,22.763,-47.0773,-21.5906,1014.73
254108,0.148254,9.79436,0.755619,2.03,-3.15,0.07,22.8502,-46.4605,-21.5611,1014.7
254114,0.129125,9.81349,0.73649,1.89,-3.57,-0.21,23.257,-47.4474,-21.3542,1014.7
254120,0.143472,9.8087,0.731707,1.89,-3.15,0.14,22.5596,-48.0025,-20.9109,1014.67
254126,0.13869,9.80392,0.712578,1.89,-3.29,0.28,22.3852,-45.9671,-21.1621,1014.67
254132,0.172166,9.8374,0.73649,2.03,-3.36,-0.07,22.8502,-47.2007,-22.6693,1014.68
254138,0.176949,9.8374,0.693448,1.82,-3.22,-0.21,23.2279,-47.91,-20.2608,1014.68
254144,0.153037,9.8087,0.722142,1.75,-3.08,-0.07,22.5886,-46.3989,-22.6841,1014.67
254150,0.11956,9.82305,0.726925,1.68,-3.15,-0.21,22.4143,-46.6764,-21.4872,1014.67
254156,0.148254,9.79436,0.760402,2.17,-2.87,0.14,23.1407,-48.5885,-21.5463,1014.67
254162,0.095648,9.81827,0.712578,1.82,-3.57,-0.21,22.9954,-47.324,-20.9553,1014.69
254168,0.157819,9.83261,0.650406,1.75,-3.57,-0.14,22.792,-46.2447,-21.3099,1014.69
254174,0.133907,9.82305,0.688666,1.54,-3.08,-0.14,22.8211,-47.1698,-21.5168,1014.7
254180,0.124342,9.82305,0.712578,1.61,-3.29,-0.14,23.1698,-47.6941,-21.6202,1014.7
254186,0.114778,9.78957,0.760402,1.61,-3.29,0.21,22.4434,-46.3989,-21.7975,1014.69
254192,0.124342,9.78001,0.731707,1.89,-3.5,0.35,22.4724,-47.2315,-20.4676,1014.69
254198,0.133907,9.78001,0.746054,1.68,-3.15,0.28,23.4022,-48.6193,-20.8075,1014.72
254204,0.167384,9.79914,0.731707,2.17,-3.36,-0.14,23.1698,-46.5531,-21.8566,1014.72
254210,0.13869,9.79914,0.73649,1.75,-3.15,0.14,23.1407,-46.6456,-21.6941,1014.72
254216,0.133907,9.78957,0.731707,2.17,-3.64,-0.28,22.3852,-48.2184,-20.512,1014.69
254222,0.148254,9.80392,0.71736,2.03,-3.15,0.7,22.3852,-46.7998,-21.2951,1014.69
254228,0.157819,9.8087,0.712578,1.68,-3.08,0.63,22.5596,-46.7689,-23.024,1014.7
254234,0.181731,9.81349,0.731707,1.89,-3.57,0.14,22.4143,-47.1698,-22.5363,1014.7
254240,0.148254,9.81349,0.722142,1.75,-3.15,-0.35,23.0826,-47.2624,-22.093,1014.67
254246,0.181731,9.82305,0.688666,1.89,-3.01,0.35,22.8211,-46.3063,-22.7728,1014.67
254252,0.176949,9.84218,0.731707,2.1,-3.78,-0.35,22.1237,-47.725,-21.8123,1014.71
254258,0.210426,9.8374,0.722142,1.61,-3.5,-0.49,23.5185,-47.4166,-21.7532,1014.71
254264,0.181731,9.86609,0.664754,1.96,-2.87,-0.35,22.8211,-46.3063,-23.1126,1014.73
254270,0.181731,9.85653,0.655189,1.61,-2.8,-0.35,22.9083,-46.3989,-21.0882,1014.73
254276,0.0860832,9.82783,0.703013,1.19,-3.15,-0.77,23.0536,-48.4343,-20.9257,1014.73
254282,0.0813008,9.79914,0.71736,1.4,-3.5,-0.42,22.8211,-46.7689,-21.4281,1014.71
254288,0.11956,9.77523,0.774749,1.68,-3.71,-0.56,23.3151,-45.4428,-21.7532,1014.71
254294,0.11956,9.78001,0.765184,1.75,-2.87,-0.42,22.6468,-48.0025,-21.8862,1014.71
254300,0.11956,9.78001,0.73649,1.96,-3.5,0.07,22.4143,-48.2184,-19.98,1014.71
254306,0.109995,9.77523,0.726925,1.47,-3.29,-0.14,22.3852,-46.2447,-21.5463,1014.69
254312,0.105213,9.8087,0.688666,2.1,-3.43,-0.07,22.9664,-46.7998,-21.9453,1014.69
254318,0.129125,9.78001,0.722142,1.89,-3.57,0.14,23.2279,-48.1259,-21.5315,1014.69
254324,0.167384,9.8087,0.750837,1.75,-2.87,0.21,23.7509,-46.8306,-21.9009,1014.69
254330,0.162602,9.82783,0.722142,1.68,-3.08,0.07,22.7339,-46.4297,-21.4429,1014.69
254336,0.167384,9.8087,0.679101,2.24,-2.87,0.28,22.7339,-48.0334,-21.0735,1014.68
254342,0.157819,9.79436,0.722142,1.75,-3.15,0.14,22.9954,-46.9231,-21.103,1014.68
254348,0.153037,9.8087,0.707795,1.82,-3.15,-0.14,22.1528,-46.2447,-21.9896,1014.68
254354,0.153037,9.78957,0.731707,1.96,-2.87,0.28,22.5596,-47.139,-22.6102,1014.68
254360,0.196078,9.79914,0.707795,1.68,-2.8,-0.21,23.3441,-47.4166,-22.8614,1014.71
254366,0.186514,9.82305,0.693448,1.96,-3.01,-0.49,22.2109,-45.9671,-21.5315,1014.71
254372,0.157819,9.85174,0.69823,1.75,-3.15,-0.07,23.0245,-46.9848,-21.0735,1014.68
254378,0.105213,9.81349,0.71736,1.12,-3.01,-0.35,23.1117,-48.4343,-21.5168,1014.68
254384,0.176949,9.83261,0.707795,1.89,-3.43,-0.84,22.3562,-47.1698,-20.8518,1014.68
254390,0.200861,9.86131,0.71736,1.4,-3.08,-0.63,22.2109,-46.4297,-21.369,1014.69
254396,0.13869,9.83261,0.69823,1.61,-2.87,-0.42,23.1988,-48.095,-21.5759,1014.69
254402,0.109995,9.8087,0.693448,1.12,-3.36,-0.84,23.2279,-47.3549,-21.8862,1014.72
254408,0.109995,9.79436,0.750837,1.61,-3.15,-0.91,22.3852,-46.9848,-21.4133,1014.72
254414,0.105213,9.80392,0.765184,1.61,-3.36,-0.49,23.5185,-47.7866,-21.8714,1014.7
254420,0.129125,9.78957,0.707795,1.47,-3.64,-0.63,22.8792,-47.8175,-21.4872,1014.7
254426,0.0765184,9.76088,0.731707,1.75,-2.94,-0.56,22.9083,-45.6895,-23.0092,1014.71
254432,0.129125,9.78001,0.707795,1.68,-3.57,0,23.0536,-47.2007,-21.6645,1014.71
254438,0.114778,9.76566,0.746054,1.75,-2.94,-0.21,22.8211,-48.681,-21.5463,1014.68
254444,0.13869,9.84218,0.712578,1.61,-3.15,-0.42,22.7049,-47.3857,-20.837,1014.68
254450,0.129125,9.79436,0.722142,1.68,-3.15,0.14,22.8502,-46.6147,-20.9996,1014.68
254456,0.148254,9.78001,0.746054,1.82,-3.57,0.42,22.9954,-48.1876,-20.9996,1014.7
254462,0.13869,9.78479,0.726925,2.1,-3.36,0.14,22.9954,-47.5399,-20.837,1014.7
254468,0.153037,9.76566,0.726925,1.82,-3.29,0.14,22.4143,-46.3989,-21.2951,1014.7
254474,0.124342,9.77044,0.71736,1.68,-3.08,0.42,22.6758,-47.8175,-21.5463,1014.7
254480,0.162602,9.78001,0.712578,2.38,-3.15,0.14,23.0536,-47.7866,-21.9009,1014.68
254486,0.167384,9.80392,0.746054,2.1,-3.29,-0.28,23.1988,-45.9363,-22.4033,1014.68
254492,0.205643,9.78479,0.73649,1.96,-3.15,-0.14,22.9664,-48.1567,-22.7875,1014.68
254498,0.13869,9.8087,0.688666,1.68,-3.01,-0.56,23.6928,-48.3109,-20.8075,1014.68
254504,0.13869,9.82305,0.683883,2.1,-3.36,-0.28,22.4434,-47.2624,-22.7137,1014.68
254510,0.157819,9.87087,0.640842,2.03,-3.08,0,22.763,-46.4297,-22.3147,1014.69
254516,0.186514,9.82305,0.722142,1.75,-3.01,-0.49,23.3732,-48.1567,-20.9553,1014.69
254522,0.129125,9.79436,0.755619,1.54,-3.08,-0.7,23.1698,-47.2624,-21.0291,1014.7
254528,0.105213,9.78001,0.784314,1.96,-3.43,-0.35,22.4434,-46.0288,-22.4625,1014.7
254534,0.0908656,9.80392,0.726925,1.82,-3.15,0,22.8792,-47.9717,-22.0192,1014.71
254540,0.114778,9.78957,0.707795,2.1,-3.5,-0.56,22.7339,-47.6016,-20.4824,1014.71
254546,0.162602,9.81349,0.703013,2.03,-3.43,-0.35,22.9373,-46.6764,-21.3985,1014.69
254552,0.109995,9.78957,0.73649,1.82,-3.08,0,23.3151,-46.954,-21.4724,1014.69
254558,0.095648,9.8087,0.746054,1.89,-3.01,-0.14,23.7219,-48.0025,-22.758,1014.69
254564,0.109995,9.7561,0.741272,2.03,-3.15,0.14,22.5886,-46.7073,-21.768,1014.71
254570,0.114778,9.78479,0.71736,1.82,-3.36,-0.14,22.6468,-46.7998,-21.768,1014.71
254576,0.114778,9.78479,0.71736,1.96,-3.22,0.07,23.3732,-48.0025,-21.3838,1014.72
254582,0.157819,9.78001,0.746054,1.96,-3.36,0.49,22.6758,-47.1698,-21.1917,1014.72
254588,0.162602,9.79914,0.726925,2.24,-3.15,0.14,22.8502,-46.2447,-21.8271,1014.73
254594,0.11956,9.79436,0.746054,2.17,-3.5,-0.07,23.0536,-48.2801,-21.1621,1014.73
254600,0.114778,9.78957,0.722142,2.1,-3.43,0.21,23.0245,-47.9408,-20.246,1014.69
254606,0.181731,9.81349,0.722142,2.03,-3.22,0.56,22.7339,-46.3989,-22.3295,1014.69
254612,0.21999,9.83261,0.688666,2.03,-3.29,-0.14,22.6758,-47.139,-22.4477,1014.7
254618,0.196078,9.86131,0.674318,2.03,-3.57,-0.42,22.9954,-48.1259,-21.5463,1014.7
254624,0.133907,9.84218,0.674318,1.75,-3.36,-0.14,22.9664,-46.6147,-21.5611,1014.7
254630,0.129125,9.84218,0.693448,1.47,-3.99,-0.49,22.5886,-46.3372,-21.5168,1014.71
254636,0.162602,9.81349,0.741272,1.47,-3.15,-0.35,23.1988,-48.1567,-20.7632,1014.71
254642,0.109995,9.81349,0.722142,1.47,-3.22,-0.28,23.1988,-46.4914,-21.0882,1014.7
254648,0.109995,9.78957,0.688666,1.89,-3.29,-0.77,22.5305,-45.7204,-22.1521,1014.7
254654,0.105213,9.79914,0.73649,1.96,-3.22,-0.42,22.6758,-47.324,-21.1474,1014.72
254660,0.105213,9.79436,0.731707,1.96,-3.36,-0.14,23.3441,-47.3857,-21.3247,1014.72
254666,0.095648,9.81349,0.712578,1.68,-3.08,0.14,23.5185,-45.9671,-21.1178,1014.71
254672,0.143472,9.79436,0.712578,2.17,-3.22,0.21,23.4894,-47.2624,-21.8566,1014.71
254678,0.109995,9.79436,0.73649,1.82,-2.94,-0.14,23.1698,-48.0025,-20.9996,1014.71
254684,0.133907,9.79914,0.712578,2.03,-3.15,-0.21,23.1407,-47.0465,-21.5315,1014.7
254690,0.153037,9.8087,0.683883,1.75,-3.5,-0.28,22.9083,-46.3372,-22.1521,1014.7
254696,0.11956,9.80392,0.712578,2.17,-3.22,-0.21,22.6758,-48.2184,-21.9896,1014.67
254702,0.13869,9.8087,0.726925,2.38,-3.29,0.21,23.2279,-47.6324,-21.0882,1014.67
254708,0.109995,9.7561,0.712578,1.96,-3.92,0.07,21.6879,-46.4605,-22.359,1014.7
254714,0.0908656,9.78957,0.703013,2.17,-3.57,-0.07,22.8502,-47.7866,-21.6054,1014.7
254720,0.143472,9.78479,0.726925,2.17,-3.22,-0.21,22.4724,-48.0642,-21.1474,1014.72
254726,0.191296,9.81349,0.69823,1.89,-2.94,0.35,22.5305,-46.5839,-22.0487,1014.72
254732,0.200861,9.85174,0.679101,1.96,-2.8,-0.07,22.9954,-47.3549,-21.236,1014.72
254738,0.172166,9.8374,0.659971,2.31,-3.22,-0.63,23.809,-47.4166,-21.6793,1014.73
254744,0.162602,9.87566,0.664754,1.54,-3.15,-0.49,23.3732,-46.9231,-21.768,1014.73
254750,0.172166,9.79436,0.703013,1.82,-2.94,-0.07,23.1698,-47.2624,-22.7137,1014.69
254756,0.133907,9.82305,0.693448,1.54,-3.08,-0.56,23.1407,-48.3418,-21.369,1014.69
254762,0.0765184,9.80392,0.69823,1.89,-3.15,-0.21,22.9664,-46.6456,-21.8271,1014.71
254768,0.0765184,9.8087,0.755619,1.82,-3.43,0,23.1698,-46.2447,-22.625,1014.71
254774,0.129125,9.8087,0.71736,1.68,-3.57,-0.56,23.3441,-47.3857,-20.3347,1014.67
254780,0.11956,9.81827,0.726925,1.82,-3.22,-0.56,23.1117,-47.7558,-21.4281,1014.67
254786,0.13869,9.80392,0.683883,2.1,-3.15,-0.21,23.9543,-46.4297,-21.6202,1014.71
254792,0.13869,9.78479,0.726925,1.75,-3.43,0.14,22.9373,-47.6324,-21.7089,1014.71
254798,0.153037,9.74653,0.726925,2.03,-3.43,-0.35,22.6177,-49.7604,-22.9205,1014.71
254804,0.13869,9.78001,0.707795,1.68,-3.08,-0.14,22.3852,-47.3549,-22.9353,1014.7
254810,0.114778,9.74175,0.71736,2.45,-3.29,0.63,21.9494,-46.2447,-22.2999,1014.7
254816,0.13869,9.76088,0.69823,2.38,-3.22,0.07,22.8211,-48.0334,-20.6745,1014.71
254822,0.143472,9.78479,0.722142,2.03,-3.5,-0.63,22.9083,-47.139,-20.3938,1014.71
254828,0.143472,9.79436,0.731707,2.03,-3.15,0.14,22.3271,-46.0288,-21.0144,1014.69
254834,0.143472,9.81349,0.722142,2.24,-3.08,-0.28,22.792,-47.91,-22.2999,1014.69
254840,0.129125,9.80392,0.683883,1.96,-3.57,0.07,23.0245,-48.0334,-20.9848,1014.72
254846,0.148254,9.81827,0.722142,2.24,-2.87,0.21,23.286,-46.1213,-22.0783,1014.72
254852,0.215208,9.88044,0.679101,1.96,-3.36,-0.56,22.4143,-47.91,-22.359,1014.72
254858,0.248685,9.82783,0.664754,1.96,-2.73,-0.63,23.6928,-48.3726,-22.8023,1014.71
254864,0.13869,9.85174,0.679101,2.03,-3.43,-0.49,22.6758,-47.5399,-21.4133,1014.71
254870,0.157819,9.81349,0.693448,1.82,-2.8,-0.91,22.3562,-46.6456,-22.2704,1014.68
254876,0.162602,9.81827,0.679101,2.24,-3.43,-1.12,23.0826,-47.5091,-21.6497,1014.68
254882,0.124342,9.80392,0.703013,1.33,-3.22,-0.91,22.9083,-47.1698,-21.5759,1014.69
254888,0.114778,9.81827,0.731707,1.96,-2.8,-0.49,22.8502,-46.3989,-22.6102,1014.69
254894,0.0908656,9.79436,0.746054,1.47,-2.73,-1.19,22.2981,-47.4474,-21.5759,1014.67
254900,0.0908656,9.77044,0.722142,1.47,-3.08,-0.7,22.9954,-48.7118,-22.1374,1014.67
254906,0.114778,9.78957,0.703013,1.82,-3.29,-0.7,23.1117,-46.8615,-21.8862,1014.67
254912,0.124342,9.79436,0.693448,2.03,-3.29,-0.28,23.0826,-47.4166,-20.3494,1014.72
254918,0.114778,9.77523,0.69823,1.68,-3.29,0.14,23.1117,-48.2801,-21.2065,1014.72
254924,0.095648,9.77523,0.683883,1.89,-3.29,-0.14,23.3441,-46.6764,-20.8962,1014.72
254930,0.114778,9.77044,0.69823,1.54,-2.94,-0.35,22.6468,-46.7998,-23.3047,1014.72
254936,0.124342,9.76088,0.712578,1.82,-3.43,0.21,23.257,-48.0642,-21.9453,1014.7
254942,0.114778,9.77523,0.73649,2.31,-3.57,0.35,23.4313,-46.0288,-21.4872,1014.7
254948,0.11956,9.79914,0.731707,1.96,-2.66,0.07,22.1818,-45.6279,-21.768,1014.71
254954,0.133907,9.80392,0.722142,2.1,-3.29,0,23.0826,-47.8792,-21.7236,1014.71
254960,0.133907,9.78957,0.688666,2.31,-3.43,0.07,23.1117,-47.8175,-22.1817,1014.71
254966,0.176949,9.85174,0.645624,1.89,-2.94,-17.64,22.6177,-46.3063,-21.6202,1014.71
254972,0.176949,9.81827,0.626494,1.47,-2.87,0.07,22.269,-46.7998,-21.6793,1014.71
254978,0.153037,9.82783,0.688666,1.61,-3.15,0.14,22.6177,-47.9408,-21.1917,1014.68
254984,0.153037,9.82783,0.693448,1.68,-3.29,-0.28,23.1407,-46.9848,-21.6497,1014.68
254990,0.191296,9.81349,0.669536,1.61,-2.73,-0.35,23.3732,-46.0288,-22.0339,1014.68
254996,0.234338,9.85174,0.631277,1.68,-2.87,-0.63,23.4603,-47.3549,-20.9109,1014.68
255002,0.0813008,9.84218,0.669536,1.19,-3.5,-0.84,22.1237,-48.2184,-22.8762,1014.69
255008,0.0669536,9.78957,0.703013,1.54,-3.43,-0.77,22.6468,-46.6147,-20.4381,1014.69
255014,0.10043,9.81349,0.707795,1.61,-3.08,-0.14,22.3271,-48.5576,-21.9748,1014.72
255020,0.129125,9.8087,0.703013,1.82,-2.73,-0.07,23.6347,-48.6502,-20.2755,1014.72
255026,0.105213,9.79914,0.722142,1.47,-3.22,-0.56,23.5766,-46.3063,-21.3099,1014.72
255032,0.109995,9.82305,0.69823,2.17,-3.29,-0.56,22.9373,-47.3549,-21.6793,1014.71
255038,0.109995,9.8087,0.722142,1.82,-2.8,-0.07,22.9954,-48.7735,-20.4381,1014.71
255044,0.162602,9.77044,0.722142,1.54,-3.36,0.14,22.763,-46.3372,-20.5711,1014.68
255050,0.11956,9.79436,0.765184,1.89,-3.57,0.28,23.0245,-46.2447,-20.379,1014.68
255056,0.124342,9.80392,0.707795,2.03,-3.71,0,23.1988,-48.4343,-21.4429,1014.73
255062,0.11956,9.78479,0.712578,1.82,-3.08,0.07,23.1117,-47.4474,-20.5267,1014.73
255068,0.13869,9.78001,0.683883,2.17,-3.71,0.28,23.1988,-46.1213,-21.0735,1014.71
255074,0.129125,9.76566,0.73649,1.89,-3.36,0.14,23.1407,-47.4166,-20.0982,1014.71
255080,0.172166,9.78957,0.726925,1.96,-3.22,0.21,23.4603,-47.6324,-20.7927,1014.71
255086,0.157819,9.81349,0.664754,2.31,-3.08,0.07,23.1698,-46.1213,-22.5807,1014.68
255092,0.162602,9.81827,0.650406,1.89,-3.36,-0.14,22.7339,-47.2932,-21.0587,1014.68
255098,0.153037,9.8374,0.659971,1.96,-3.5,0.14,23.3441,-48.0334,-21.8862,1014.7
255104,0.215208,9.8087,0.636059,1.68,-2.24,-0.21,22.4143,-47.3857,-23.7037,1014.7
255110,0.167384,9.80392,0.71736,1.61,-3.64,-0.49,22.7339,-47.2932,-20.9109,1014.7
255116,0.0765184,9.82305,0.703013,1.68,-3.22,0.14,23.3151,-48.2801,-20.1869,1014.7
255122,0.0669536,9.78001,0.722142,1.75,-3.22,-0.56,23.257,-47.4474,-21.1621,1014.68
255128,0.10043,9.79914,0.71736,1.89,-3.36,-0.56,22.5015,-46.1213,-21.5611,1014.68
255134,0.114778,9.76566,0.722142,2.24,-2.87,0.07,22.5305,-48.095,-20.6893,1014.69
255140,0.0860832,9.82305,0.722142,1.96,-3.57,0,22.6758,-48.2801,-21.2508,1014.69
255146,0.10043,9.80392,0.71736,1.82,-3.5,0.21,23.257,-46.6456,-21.6645,1014.69
255152,0.10043,9.76088,0.693448,2.17,-3.22,0,22.8502,-47.6324,-20.512,1014.68
255158,0.13869,9.79436,0.707795,2.17,-3.36,0.14,23.2279,-48.4034,-21.2508,1014.68
255164,0.11956,9.78957,0.703013,2.1,-3.36,0.21,22.5015,-46.5222,-22.3738,1014.69
255170,0.148254,9.77523,0.712578,2.31,-3.5,-0.07,22.7049,-46.6147,-22.4329,1014.69
255176,0.124342,9.79914,0.679101,1.89,-3.36,0.49,22.8211,-48.3418,-21.3985,1014.71
255182,0.143472,9.78001,0.688666,2.24,-3.36,0.21,22.9954,-47.7558,-21.4872,1014.71
255188,0.153037,9.81827,0.707795,2.52,-3.78,0.14,22.9664,-46.4297,-21.1178,1014.68
255194,0.148254,9.8087,0.683883,2.24,-3.71,0.35,22.9083,-46.8923,-20.8666,1014.68
255200,0.143472,9.8374,0.683883,2.24,-3.64,0.14,22.9954,-48.496,-22.226,1014.68
255206,0.205643,9.83261,0.669536,2.24,-3.15,-0.49,23.1117,-46.4297,-21.6202,1014.69
255212,0.200861,9.87087,0.674318,2.45,-3.5,-0.49,22.6177,-46.7998,-20.837,1014.69
255218,0.11956,9.86131,0.688666,1.68,-2.59,-0.49,23.0536,-48.7118,-21.9601,1014.71
255224,0.0573888,9.78957,0.707795,1.47,-3.57,-0.49,22.5596,-46.954,-20.8962,1014.71
255230,0.071736,9.8087,0.69823,1.75,-3.36,-0.35,22.9373,-46.1521,-21.5315,1014.69
255236,0.133907,9.78001,0.693448,1.96,-2.87,0.07,23.286,-47.4474,-21.6497,1014.69
255242,0.13869,9.77044,0.683883,2.17,-3.22,-0.07,23.8671,-47.139,-21.103,1014.69
255248,0.124342,9.81827,0.650406,1.82,-3.01,0.49,22.4724,-45.7512,-22.2851,1014.69
255254,0.114778,9.77523,0.679101,1.82,-2.87,0.07,23.4313,-47.2007,-22.4181,1014.69
255260,0.0765184,9.79914,0.693448,1.75,-3.29,-0.21,22.9373,-47.5708,-21.0291,1014.66
255266,0.105213,9.79914,0.69823,2.03,-3.36,0,23.4313,-46.4914,-21.7089,1014.66
255272,0.157819,9.79436,0.688666,2.03,-3.64,0.21,22.9664,-47.1698,-21.7975,1014.69
255278,0.124342,9.77044,0.703013,2.03,-3.15,0,22.7339,-48.1876,-21.9157,1014.69
255284,0.11956,9.79436,0.71736,1.96,-3.22,0.21,22.3852,-46.4914,-22.9944,1014.73
255290,0.13869,9.8374,0.683883,2.1,-3.36,0.63,23.6347,-46.1521,-21.6497,1014.73
255296,0.143472,9.79914,0.712578,2.24,-3.15,0.28,22.9373,-47.8792,-22.8023,1014.72
255302,0.200861,9.81349,0.679101,2.45,-3.15,0,23.2279,-47.0465,-21.9601,1014.72
255308,0.181731,9.82783,0.674318,2.03,-3.43,-0.14,22.6758,-46.8923,-22.1817,1014.7
255314,0.162602,9.8374,0.674318,1.96,-3.36,-0.07,23.2279,-48.2801,-20.6745,1014.7
255320,0.129125,9.83261,0.659971,1.75,-3.29,0.42,22.9664,-47.1698,-21.0439,1014.7
255326,0.162602,9.81349,0.688666,1.96,-3.36,-0.56,22.7049,-46.1213,-21.8566,1014.69
255332,0.210426,9.86131,0.674318,1.68,-2.87,-0.28,23.286,-46.9848,-21.7827,1014.69
255338,0.153037,9.86131,0.659971,2.24,-3.29,-0.56,22.8502,-48.2492,-21.0291,1014.69
255344,0.114778,9.80392,0.674318,1.54,-3.22,-0.7,23.1698,-47.3549,-22.5363,1014.69
255350,0.105213,9.79436,0.655189,2.1,-3.36,-0.63,22.6468,-46.1521,-21.5759,1014.71
255356,0.0813008,9.77523,0.746054,1.54,-3.71,-0.49,23.1698,-47.5399,-20.8814,1014.71
255362,0.11956,9.79436,0.73649,2.1,-3.5,0.07,22.9373,-47.6324,-22.0783,1014.7
255368,0.11956,9.78957,0.669536,1.68,-3.29,0,22.269,-46.5531,-21.0144,1014.7
255374,0.10043,9.81349,0.679101,1.75,-3.36,-0.21,23.3732,-47.6324,-21.7532,1014.7
255380,0.129125,9.74653,0.679101,2.17,-3.5,0.14,23.3441,-47.6324,-22.3738,1014.69
255386,0.109995,9.79436,0.741272,1.96,-3.5,0.07,22.9373,-46.2755,-22.8762,1014.69
255392,0.124342,9.8087,0.679101,2.1,-3.57,0.42,23.4022,-47.5708,-22.0487,1014.73
255398,0.148254,9.77044,0.707795,2.03,-3.57,0.49,23.2279,-48.681,-21.0439,1014.73
255404,0.148254,9.79914,0.707795,1.82,-3.22,0.14,22.9954,-47.1698,-22.7284,1014.67
255410,0.105213,9.78957,0.69823,1.89,-3.15,0.63,23.257,-46.9231,-22.4772,1014.67
255416,0.133907,9.79436,0.69823,1.82,-3.22,0.49,23.257,-48.4034,-21.4133,1014.68
255422,0.11956,9.84218,0.683883,2.45,-3.64,0.07,22.4143,-47.6324,-23.6298,1014.68
255428,0.210426,9.8087,0.71736,1.82,-3.36,0.35,22.3271,-47.0465,-22.4477,1014.68
255434,0.224773,9.87087,0.679101,2.31,-3.5,-0.28,22.6468,-47.7866,-22.1521,1014.7
255440,0.186514,9.86131,0.659971,1.96,-3.01,-0.56,23.6347,-47.7866,-21.3542,1014.7
255446,0.129125,9.87087,0.640842,1.89,-2.94,-0.21,22.5596,-46.2755,-22.5511,1014.71
255452,0.105213,9.80392,0.703013,1.54,-3.15,-0.42,22.9373,-46.4605,-21.635,1014.71
255458,0.157819,9.82783,0.679101,1.82,-3.43,-0.42,23.1117,-48.5268,-22.2113,1014.69
255464,0.215208,9.81349,0.69823,1.75,-3.36,-0.77,23.1117,-47.6941,-21.3394,1014.69
255470,0.0860832,9.82305,0.674318,1.82,-3.43,-0.77,23.1988,-46.6147,-22.6102,1014.67
255476,0.0860832,9.81827,0.655189,1.96,-3.29,-0.35,23.0536,-48.7735,-20.8962,1014.67
255482,0.0908656,9.78479,0.712578,1.4,-3.22,-0.49,22.9664,-47.6633,-21.4577,1014.71
255488,0.10043,9.77523,0.703013,1.82,-3.15,-0.28,23.78,-47.0773,-22.5511,1014.71
255494,0.129125,9.78957,0.703013,2.03,-3.08,-0.28,22.5305,-48.1567,-21.9453,1014.71
255500,0.114778,9.77523,0.693448,1.47,-3.36,-0.14,23.0245,-48.1259,-22.6398,1014.7
255506,0.109995,9.77523,0.703013,2.17,-3.5,-0.35,23.0826,-46.7998,-21.4872,1014.7
255512,0.109995,9.79436,0.71736,1.47,-3.15,0.14,22.7049,-47.1698,-22.1817,1014.68
255518,0.0908656,9.79436,0.693448,2.24,-3.08,-0.28,23.257,-48.0334,-22.5659,1014.68
255524,0.095648,9.81349,0.703013,2.03,-3.36,0.56,22.4143,-47.0773,-21.3099,1014.68
255530,0.172166,9.79436,0.688666,2.03,-3.64,0.49,23.1117,-46.4605,-21.9453,1014.68
255536,0.129125,9.78957,0.679101,2.31,-3.92,0.14,23.1407,-47.8175,-21.635,1014.7
255542,0.143472,9.77523,0.69823,2.31,-3.29,-0.28,21.9203,-47.4782,-22.0487,1014.7
255548,0.162602,9.82783,0.679101,2.17,-3.01,0.14,22.7339,-46.3372,-23.5116,1014.7
255554,0.13869,9.80392,0.664754,2.1,-3.36,0.07,22.6177,-48.0334,-22.2851,1014.7
255560,0.11956,9.78001,0.707795,2.03,-3.15,0.07,23.5766,-48.2184,-21.5611,1014.7
255566,0.162602,9.83261,0.674318,1.96,-3.5,0.07,22.8792,-45.9671,-22.6989,1014.67
255572,0.224773,9.83261,0.683883,2.17,-3.64,-0.35,22.6758,-47.3549,-21.6497,1014.67
255578,0.191296,9.84218,0.636059,1.75,-2.59,-0.63,22.9954,-48.4343,-22.4772,1014.68
255584,0.0813008,9.86609,0.674318,1.68,-2.87,-0.35,22.0656,-47.2624,-21.3099,1014.68
255590,0.095648,9.77523,0.750837,1.96,-3.36,-0.49,23.0536,-46.6456,-23.748,1014.7
255596,0.105213,9.79914,0.71736,1.4,-2.8,-0.28,22.9954,-47.9408,-22.0192,1014.7
255602,0.105213,9.78479,0.693448,2.17,-3.5,-0.28,22.6177,-47.6016,-22.0339,1014.7
255608,0.114778,9.78479,0.707795,2.03,-3.5,-0.21,23.2279,-46.3372,-22.3295,1014.68
255614,0.143472,9.76566,0.664754,1.61,-3.22,0.07,22.763,-48.1259,-22.3442,1014.68
255620,0.11956,9.79914,0.73649,2.03,-3.22,0.14,23.1117,-48.9586,-21.4872,1014.7
255626,0.109995,9.76566,0.703013,2.03,-3.92,-0.14,22.4434,-47.5091,-22.8023,1014.7
255632,0.148254,9.77044,0.683883,1.89,-3.22,0.14,23.4603,-46.8306,-22.226,1014.68
255638,0.095648,9.78957,0.679101,1.82,-3.15,0.42,23.286,-48.4343,-21.0291,1014.68
255644,0.176949,9.80392,0.693448,2.03,-3.22,0.49,23.257,-47.3857,-22.5511,1014.67
255650,0.133907,9.79914,0.664754,2.45,-3.29,-0.42,22.9083,-46.5531,-22.8023,1014.67
255656,0.176949,9.85653,0.659971,2.24,-3.29,-0.28,23.4603,-48.4343,-21.4577,1014.69
255662,0.167384,9.83261,0.703013,2.1,-3.01,-0.28,23.1407,-47.6324,-21.635,1014.69
255668,0.133907,9.82305,0.69823,1.75,-3.08,0.07,22.4724,-46.3063,-22.5659,1014.69
255674,0.162602,9.82783,0.674318,2.03,-3.99,-0.56,22.9954,-47.9408,-21.5611,1014.7
255680,0.215208,9.86131,0.655189,1.33,-3.08,-0.35,23.4603,-48.095,-22.5363,1014.7
255686,0.13869,9.83261,0.669536,1.68,-3.01,-0.84,22.763,-45.9979,-22.8466,1014.69
255692,0.095648,9.78001,0.71736,1.68,-3.29,-0.21,23.4022,-47.0773,-21.7532,1014.69
255698,0.143472,9.77523,0.731707,2.38,-3.36,-0.49,23.5475,-48.4343,-20.7041,1014.68
255704,0.153037,9.81349,0.688666,2.1,-3.57,-0.63,22.792,-47.5399,-21.8123,1014.68
255710,0.105213,9.79914,0.664754,1.61,-3.29,-0.21,23.6347,-47.2624,-20.4085,1014.67
255716,0.0908656,9.78479,0.703013,1.68,-3.5,0.14,23.1407,-47.8483,-22.2851,1014.67
255722,0.105213,9.77044,0.69823,1.68,-2.94,0.28,23.1117,-47.91,-23.2308,1014.67
255728,0.129125,9.78957,0.703013,1.89,-3.22,0.07,23.4894,-47.2624,-22.7137,1014.66
255734,0.10043,9.78001,0.679101,2.03,-3.15,-0.07,23.3732,-47.9408,-22.6989,1014.66
255740,0.10043,9.79436,0.703013,1.47,-2.52,0.21,23.4022,-48.2801,-21.8418,1014.7
255746,0.143472,9.77523,0.669536,2.31,-3.64,0.07,22.8792,-46.3372,-21.9453,1014.7
255752,0.124342,9.77523,0.69823,2.1,-3.29,0.21,23.4022,-47.139,-22.6989,1014.66
255758,0.167384,9.8087,0.722142,1.68,-3.22,0.35,23.78,-48.2184,-20.97,1014.66
255764,0.148254,9.8087,0.71736,2.17,-3.57,0.21,23.3151,-47.3857,-22.3738,1014.66
255770,0.176949,9.80392,0.683883,1.96,-3.01,0.21,23.2279,-47.0465,-22.3738,1014.66
255776,0.167384,9.80392,0.679101,2.17,-3.29,-0.07,23.257,-47.8483,-21.502,1014.66
255782,0.167384,9.8087,0.703013,1.82,-3.5,-0.07,23.0245,-47.139,-20.5563,1014.7
255788,0.129125,9.82783,0.726925,1.89,-3.22,-0.07,23.3441,-46.4605,-21.9157,1014.7
255794,0.176949,9.82305,0.674318,2.1,-3.29,0.14,23.1698,-48.3109,-21.6793,1014.65
255800,0.162602,9.81827,0.640842,1.96,-3.22,-0.35,22.8211,-48.3726,-21.7975,1014.65
255806,0.133907,9.81827,0.655189,1.54,-3.22,-0.42,22.763,-46.4914,-21.2508,1014.7
255812,0.13869,9.8374,0.679101,1.4,-2.66,-0.42,22.763,-46.7998,-22.5363,1014.7
255818,0.109995,9.8087,0.69823,1.54,-3.5,-0.49,23.8671,-48.4651,-20.7484,1014.71
255824,0.0765184,9.78001,0.69823,1.68,-3.22,-0.14,22.792,-46.4605,-22.3738,1014.71
255830,0.114778,9.81349,0.765184,1.96,-3.36,-0.42,22.9664,-46.5839,-23.5116,1014.68
255836,0.10043,9.80392,0.731707,1.89,-3.22,0.07,23.1698,-48.4034,-22.0339,1014.68
255842,0.114778,9.76566,0.726925,2.03,-3.22,-0.42,22.8211,-47.3857,-22.6545,1014.68
255848,0.0908656,9.78957,0.726925,1.96,-2.87,-0.28,23.3151,-46.2447,-23.349,1014.71
255854,0.124342,9.78957,0.73649,2.1,-3.22,0.42,23.2279,-47.2007,-22.4772,1014.71
255860,0.109995,9.78479,0.731707,2.17,-3.15,0.49,22.9954,-47.8792,-22.1374,1014.69
255866,0.129125,9.8087,0.703013,2.38,-3.57,-0.07,23.0826,-46.1213,-22.9796,1014.69
255872,0.153037,9.8087,0.707795,1.89,-3.57,0.07,23.2279,-47.3549,-21.9453,1014.71
255878,0.13869,9.79436,0.703013,2.1,-3.22,0.42,23.8962,-47.91,-22.2851,1014.71
255884,0.157819,9.79914,0.688666,1.82,-3.15,-0.14,22.9954,-47.2624,-22.093,1014.69
255890,0.162602,9.8087,0.703013,2.38,-3.43,0.28,22.8211,-46.3989,-21.9601,1014.69
255896,0.157819,9.8087,0.688666,1.96,-3.29,0.07,23.3151,-47.8483,-20.8962,1014.69
255902,0.162602,9.8087,0.703013,2.24,-3.01,-0.21,23.6056,-47.2315,-21.635,1014.68
255908,0.162602,9.82783,0.659971,2.1,-3.22,-0.42,22.8502,-45.9363,-22.5363,1014.68
255914,0.196078,9.81349,0.703013,1.82,-2.94,-0.14,23.3441,-47.5091,-21.9896,1014.7
255920,0.148254,9.79914,0.679101,2.17,-3.5,-0.21,23.4894,-47.8175,-21.9601,1014.7
255926,0.13869,9.8374,0.674318,1.47,-3.15,-0.42,22.9373,-46.954,-23.024,1014.72
255932,0.172166,9.8087,0.688666,1.4,-3.36,-0.21,23.4313,-46.2138,-22.2704,1014.72
255938,0.129125,9.79914,0.688666,1.82,-3.57,-0.63,23.4022,-48.4034,-22.1669,1014.69
255944,0.095648,9.80392,0.712578,1.61,-3.15,-0.35,23.4022,-46.7073,-22.6841,1014.69
255950,0.095648,9.78001,0.71736,1.75,-3.15,-0.07,22.8211,-46.7073,-22.6989,1014.69
255956,0.114778,9.79914,0.726925,2.03,-3.43,0,23.1698,-48.3418,-22.1521,1014.67
255962,0.133907,9.78479,0.693448,2.24,-3.5,-0.21,23.1407,-47.1082,-22.5807,1014.67
255968,0.095648,9.77523,0.693448,2.03,-3.29,-0.07,22.9083,-46.3063,-22.4329,1014.7
255974,0.124342,9.78001,0.683883,1.75,-3.22,0.14,22.7339,-46.7998,-22.7137,1014.7
255980,0.13869,9.80392,0.679101,1.96,-3.43,0.35,23.6056,-48.3418,-22.891,1014.68
255986,0.133907,9.77523,0.693448,1.82,-3.08,0.07,22.9664,-46.368,-23.4377,1014.68
255992,0.11956,9.8087,0.693448,1.68,-2.87,0.07,22.8792,-47.6324,-22.7728,1014.7
255998,0.157819,9.79436,0.703013,2.17,-3.22,0,23.1698,-49.1436,-22.3442,1014.7
256004,0.133907,9.8374,0.693448,1.82,-3.36,0.07,23.286,-46.954,-22.8319,1014.7
256010,0.124342,9.81349,0.693448,2.03,-2.94,0.35,23.0536,-46.4914,-21.9896,1014.7
256016,0.133907,9.8087,0.693448,2.38,-3.22,-0.07,23.0245,-48.4343,-21.9157,1014.7
256022,0.181731,9.81827,0.688666,1.96,-2.94,-0.14,23.4022,-47.324,-22.6693,1014.67
256028,0.205643,9.8374,0.707795,1.82,-3.15,-0.35,22.9664,-45.4737,-22.2704,1014.67
256034,0.21999,9.85653,0.650406,1.96,-2.87,-0.07,23.6347,-47.2624,-22.5659,1014.71
256040,0.167384,9.88522,0.640842,1.96,-3.01,-0.14,23.3732,-47.6633,-21.4133,1014.71
256046,0.0908656,9.8374,0.726925,1.89,-3.64,-0.56,23.5185,-46.3372,-23.024,1014.68
256052,0.109995,9.83261,0.71736,1.47,-3.36,-0.35,22.5305,-46.9231,-21.6793,1014.68
256058,0.124342,9.78001,0.688666,1.75,-3.08,0,23.6056,-48.1567,-21.369,1014.68
256064,0.153037,9.82305,0.693448,2.03,-3.01,-0.21,23.5475,-47.5708,-21.2065,1014.68
256070,0.129125,9.81349,0.71736,1.82,-3.22,0,23.7219,-46.7689,-22.6841,1014.68
256076,0.11956,9.78001,0.760402,1.89,-3.5,-0.56,23.809,-48.0025,-21.7236,1014.67
256082,0.0669536,9.78001,0.726925,1.96,-3.29,0.07,23.5185,-47.7866,-21.6645,1014.67
256088,0.10043,9.77044,0.707795,1.89,-3.15,0.49,23.5475,-46.2447,-22.758,1014.68
256094,0.105213,9.81827,0.746054,1.96,-3.08,0.07,23.286,-47.3857,-21.8123,1014.68
256100,0.129125,9.79436,0.71736,1.82,-3.43,-0.21,24.0415,-47.6016,-20.9848,1014.72
256106,0.124342,9.78001,0.688666,2.24,-3.43,0.35,23.809,-46.2447,-20.8814,1014.72
256112,0.109995,9.83261,0.693448,2.17,-3.57,0.35,23.7509,-47.4782,-21.9009,1014.71
256118,0.143472,9.81349,0.683883,1.82,-3.43,-0.14,23.6928,-48.496,-20.8814,1014.71
256124,0.129125,9.83261,0.707795,1.96,-3.71,-0.07,23.4894,-47.4474,-22.7728,1014.71
256130,0.162602,9.82305,0.683883,1.75,-3.71,0.35,23.4603,-47.2932,-22.0044,1014.72
256136,0.143472,9.83261,0.71736,1.96,-3.08,-0.14,23.257,-48.1259,-21.5611,1014.72
256142,0.143472,9.79914,0.707795,2.03,-2.94,0.84,23.3441,-47.7866,-20.6302,1014.68
256148,0.181731,9.80392,0.73649,1.96,-3.29,0.21,23.5185,-45.8437,-21.0735,1014.68
256154,0.210426,9.8374,0.683883,1.68,-3.5,-0.77,23.7219,-47.6324,-21.0882,1014.69
256160,0.181731,9.80392,0.707795,2.45,-3.08,-0.21,24.0124,-48.3109,-21.5463,1014.69
256166,0.148254,9.84696,0.640842,1.68,-2.94,-0.21,23.5185,-46.954,-22.492,1014.71
256172,0.114778,9.82305,0.693448,1.75,-3.36,-0.35,23.6928,-47.725,-23.5116,1014.71
256178,0.0813008,9.78001,0.73649,1.61,-3.01,-0.56,24.0124,-47.9408,-21.768,1014.71
256184,0.0813008,9.78479,0.760402,1.75,-2.73,-0.21,24.0705,-47.3549,-21.0735,1014.71
256190,0.10043,9.82783,0.683883,1.96,-3.71,0.14,23.1988,-47.0773,-23.5559,1014.71
256196,0.176949,9.79436,0.645624,1.82,-3.57,-0.14,23.8381,-48.4343,-21.7975,1014.68
256202,0.0765184,9.77044,0.760402,1.75,-3.5,-0.42,24.3321,-47.8483,-21.8418,1014.68
256208,0.109995,9.76566,0.73649,2.24,-3.15,-0.42,23.7509,-46.8615,-22.3295,1014.71
256214,0.11956,9.79436,0.726925,2.24,-3.36,0.07,23.4894,-47.8483,-21.0882,1014.71
256220,0.114778,9.79914,0.712578,2.17,-3.43,0.14,23.5766,-47.91,-22.3738,1014.69
256226,0.114778,9.79436,0.722142,1.61,-3.43,0.21,23.78,-46.4605,-21.768,1014.69
256232,0.129125,9.79914,0.712578,2.1,-3.43,0.07,22.8502,-47.3549,-21.3394,1014.7
256238,0.129125,9.8087,0.688666,1.75,-3.57,0.63,23.78,-49.0202,-22.2408,1014.7
256244,0.143472,9.78001,0.712578,1.54,-3.64,0.49,23.5185,-47.0773,-21.4577,1014.7
256250,0.162602,9.79914,0.707795,1.82,-2.87,0.07,23.5475,-46.7689,-22.2113,1014.67
256256,0.157819,9.79914,0.703013,1.96,-3.22,0.56,23.2279,-48.7735,-21.768,1014.67
256262,0.157819,9.8087,0.703013,1.82,-3.43,0.07,23.3441,-48.4034,-21.0587,1014.68
256268,0.167384,9.84218,0.664754,1.96,-3.57,0.49,23.4313,-47.2624,-22.2851,1014.68
256274,0.157819,9.78957,0.693448,1.89,-3.22,0.21,23.5766,-48.0642,-23.216,1014.66
256280,0.157819,9.78957,0.703013,2.31,-3.57,-0.21,23.7219,-48.6193,-21.7975,1014.66
256286,0.153037,9.82305,0.726925,2.24,-3.15,0.21,23.8962,-46.6764,-22.4033,1014.69
256292,0.095648,9.77523,0.731707,2.1,-3.15,0.49,23.3441,-47.6324,-21.9009,1014.69
256298,0.0813008,9.78001,0.765184,1.96,-3.08,0.21,23.809,-49.0819,-21.2065,1014.69
256304,0.167384,9.91392,0.621712,1.89,-3.43,-0.07,23.4894,-47.0465,-21.3394,1014.7
256310,0.200861,9.78957,0.69823,1.68,-2.94,0.35,23.3441,-46.9231,-21.5611,1014.7
256316,0.133907,9.81827,0.71736,2.17,-3.36,0.14,23.6928,-48.1259,-21.5906,1014.68
256322,0.157819,9.78957,0.688666,2.17,-2.8,0,23.78,-48.3109,-20.9848,1014.68
256328,0.11956,9.82783,0.726925,2.1,-3.22,-0.49,23.1117,-47.0157,-22.3147,1014.69
256334,0.114778,9.8087,0.693448,1.89,-3.5,0.07,23.4022,-47.4166,-21.0882,1014.69
256340,0.167384,9.8374,0.679101,1.75,-2.94,-0.07,23.1988,-48.5576,-21.9896,1014.68
256346,0.143472,9.82783,0.726925,1.75,-3.43,0.49,23.3151,-47.3549,-22.2999,1014.68
256352,0.143472,9.82305,0.664754,2.03,-3.22,-0.49,23.3441,-47.0465,-21.6497,1014.7
256358,0.133907,9.78001,0.726925,1.96,-3.29,-0.35,23.3732,-48.5885,-21.3394,1014.7
256364,0.13869,9.81349,0.750837,2.1,-3.85,0.63,23.4022,-46.7998,-21.7532,1014.7
256370,0.10043,9.76088,0.712578,2.1,-3.5,0,23.1117,-46.2755,-21.7827,1014.7
256376,0.129125,9.7561,0.712578,2.24,-3.01,-0.21,24.0124,-48.2492,-22.3442,1014.7
256382,0.109995,9.80392,0.664754,2.1,-3.29,0.49,23.0826,-48.0642,-21.1178,1014.66
256388,0.157819,9.77523,0.726925,2.24,-3.15,0.35,23.6637,-46.7998,-21.8714,1014.66
256394,0.148254,9.78479,0.71736,2.24,-3.43,0.21,23.4313,-47.324,-22.4625,1014.69
256400,0.153037,9.78001,0.703013,2.17,-3.08,0.42,23.0826,-48.6193,-20.97,1014.69
256406,0.172166,9.79914,0.659971,1.96,-3.08,0.35,23.7509,-47.2315,-22.8614,1014.72
256412,0.167384,9.81827,0.693448,2.03,-3.22,0.28,23.3151,-47.2932,-22.3886,1014.72
256418,0.11956,9.80392,0.712578,2.31,-3.36,0.28,23.4894,-48.095,-20.6302,1014.72
256424,0.129125,9.79436,0.707795,2.31,-3.36,0.28,23.3151,-46.5839,-21.8566,1014.69
256430,0.172166,9.81827,0.674318,2.03,-3.36,0.14,24.0705,-46.3372,-21.502,1014.69
256436,0.210426,9.88044,0.640842,1.96,-2.87,0.28,23.4894,-48.095,-20.837,1014.7
256442,0.200861,9.84218,0.664754,2.17,-2.87,-0.35,23.9253,-48.5576,-21.2951,1014.7
256448,0.129125,9.82783,0.669536,1.61,-2.87,-0.28,23.3151,-46.6147,-23.7037,1014.69
256454,0.13869,9.81349,0.703013,2.1,-2.87,-0.07,23.8381,-48.4343,-22.492,1014.69
256460,0.153037,9.80392,0.674318,2.24,-3.5,-0.42,23.4313,-48.5576,-22.1521,1014.73
256466,0.143472,9.78957,0.71736,2.03,-3.08,-0.07,23.6637,-46.4297,-23.1274,1014.73
256472,0.162602,9.81827,0.69823,2.03,-2.87,0.07,23.1698,-47.5091,-22.5068,1014.73
256478,0.109995,9.78479,0.73649,2.1,-3.64,-0.21,23.9543,-48.2184,-23.3047,1014.67
256484,0.105213,9.81827,0.679101,2.03,-3.64,0.21,23.6347,-48.1567,-23.8662,1014.67
256490,0.153037,9.77523,0.703013,2.1,-3.22,0.07,23.8962,-46.2447,-22.8762,1014.71
256496,0.133907,9.79914,0.712578,1.96,-3.43,-0.14,24.0705,-48.2492,-22.226,1014.71
256502,0.105213,9.78957,0.707795,2.24,-3.78,-0.35,23.5766,-47.6016,-22.7728,1014.71
256508,0.153037,9.80392,0.703013,1.96,-3.85,0.98,23.5185,-45.9054,-23.2604,1014.71
256514,0.11956,9.79436,0.674318,2.03,-3.29,0.56,23.286,-47.725,-21.8123,1014.69
256520,0.153037,9.78479,0.722142,2.03,-3.5,0.07,23.5475,-48.4034,-21.6054,1014.69
256526,0.133907,9.78479,0.722142,2.1,-3.64,0.35,23.809,-47.0157,-21.3542,1014.68
256532,0.186514,9.8087,0.71736,2.52,-3.43,0.77,23.1117,-47.1698,-21.5611,1014.68
256538,0.23912,9.85653,0.688666,2.17,-3.08,-0.21,23.286,-48.9277,-22.9648,1014.68
256544,0.243902,9.86131,0.631277,2.17,-3.08,-0.28,23.4603,-47.8792,-21.4281,1014.7
256550,0.210426,9.8374,0.659971,1.68,-2.94,-1.05,23.0826,-47.8175,-21.2951,1014.7
256556,0.129125,9.84696,0.61693,1.89,-3.08,-0.49,23.6637,-48.6193,-21.7532,1014.71
256562,0.153037,9.81827,0.73649,1.82,-3.08,-0.56,23.6347,-48.1876,-21.635,1014.71
256568,0.176949,9.78479,0.746054,2.17,-2.8,-0.84,23.7219,-46.2447,-22.1669,1014.7
256574,0.114778,9.79914,0.669536,1.75,-3.15,-0.91,23.7219,-47.8792,-20.8962,1014.7
256580,0.0908656,9.81349,0.655189,1.82,-3.29,-0.21,23.6928,-48.3726,-21.9305,1014.67
256586,0.071736,9.77523,0.683883,2.17,-3.57,-0.21,23.1117,-46.7689,-21.8271,1014.67
256592,0.105213,9.78957,0.683883,1.54,-3.29,-0.35,23.3441,-48.0334,-21.9157,1014.67
256598,0.105213,9.78957,0.664754,2.03,-3.57,-0.21,23.4603,-48.4651,-22.2999,1014.7
256604,0.133907,9.8087,0.669536,1.82,-3.57,0.07,23.3441,-46.7689,-21.1178,1014.7
256610,0.095648,9.79914,0.664754,1.61,-3.01,0.35,22.4434,-46.183,-22.7284,1014.71
256616,0.124342,9.78957,0.69823,2.1,-3.57,0.42,23.809,-48.2492,-22.1078,1014.71
256622,0.162602,9.77044,0.693448,2.31,-3.29,0.21,23.3441,-47.9408,-21.6793,1014.71
256628,0.11956,9.78001,0.69823,1.82,-3.57,0.21,23.1407,-46.0905,-21.8271,1014.71
256634,0.129125,9.79436,0.688666,2.45,-3.43,0.28,23.4603,-48.0025,-21.8123,1014.7
256640,0.162602,9.81349,0.674318,2.1,-4.06,0.56,23.3151,-49.1436,-23.2456,1014.7
256646,0.13869,9.79436,0.679101,2.24,-3.5,0.42,23.3441,-46.5839,-22.0339,1014.7
256652,0.172166,9.79436,0.712578,2.17,-3.43,0.07,23.0536,-47.2624,-21.5463,1014.71
256658,0.162602,9.82783,0.707795,2.24,-3.5,0.35,23.3151,-48.496,-21.2065,1014.71
256664,0.176949,9.82305,0.683883,2.03,-3.15,0.28,23.4022,-47.7558,-21.7827,1014.69
256670,0.172166,9.81827,0.688666,2.31,-3.36,0,23.0826,-46.8306,-21.8862,1014.69
256676,0.13869,9.78957,0.693448,2.45,-3.29,0.14,23.3441,-48.4343,-22.1374,1014.68
256682,0.153037,9.81349,0.71736,2.31,-3.43,-0.14,22.8792,-47.8792,-21.7827,1014.68
256688,0.148254,9.79914,0.688666,2.1,-3.15,0.14,22.9664,-46.3372,-22.4033,1014.71
256694,0.215208,9.86131,0.683883,2.03,-3.29,0,23.257,-47.3857,-21.6793,1014.71
256700,0.234338,9.8374,0.645624,2.24,-3.29,-0.77,23.1117,-48.496,-22.492,1014.69
256706,0.129125,9.83261,0.664754,1.96,-2.87,-1.05,23.5475,-47.0157,-22.1226,1014.69
256712,0.129125,9.82783,0.655189,1.82,-2.87,-0.42,23.8962,-46.9848,-21.3099,1014.69
256718,0.129125,9.79914,0.703013,1.75,-3.57,-0.21,23.3441,-48.681,-22.2704,1014.68
256724,0.105213,9.8087,0.741272,1.82,-3.57,-0.84,22.9373,-47.324,-21.5906,1014.68
256730,0.109995,9.77044,0.71736,1.61,-3.01,-0.14,24.0124,-47.1082,-23.2604,1014.68
256736,0.109995,9.78479,0.71736,1.68,-3.15,-0.14,23.4022,-48.8969,-21.4281,1014.68
256742,0.133907,9.78957,0.693448,1.82,-3.5,-0.07,23.6928,-47.9717,-22.7137,1014.67
256748,0.10043,9.77044,0.679101,2.1,-3.22,0.56,23.1407,-46.4914,-22.5363,1014.67
256754,0.133907,9.78957,0.703013,2.03,-3.36,0.14,23.0826,-47.8792,-22.6398,1014.68
256760,0.124342,9.81349,0.688666,2.17,-3.15,0.07,23.5766,-48.5576,-21.9157,1014.68
256766,0.11956,9.77044,0.679101,2.17,-3.22,-0.14,23.9834,-47.324,-21.6793,1014.68
256772,0.10043,9.78001,0.664754,1.82,-3.57,0.07,23.9253,-47.4782,-22.6102,1014.68
256778,0.13869,9.80392,0.703013,2.03,-3.29,0.35,23.3151,-48.5885,-21.6793,1014.68
256784,0.153037,9.79436,0.679101,2.24,-3.43,0.56,23.5475,-47.8175,-21.9453,1014.69
256790,0.13869,9.81349,0.707795,1.82,-3.08,0.35,23.2279,-46.6764,-23.1274,1014.69
256796,0.186514,9.77044,0.674318,2.03,-3.5,0,23.1988,-48.4034,-22.2556,1014.69
256802,0.133907,9.78001,0.679101,2.24,-3.01,0.21,23.1407,-48.2801,-21.7089,1014.69
256808,0.172166,9.83261,0.703013,2.03,-3.15,0.42,22.5886,-46.8306,-22.5659,1014.71
256814,0.153037,9.81349,0.71736,2.1,-3.5,0,22.9373,-47.0773,-22.1226,1014.71
256820,0.162602,9.8087,0.674318,2.03,-3.85,-0.07,23.6637,-48.0334,-20.3051,1014.71
256826,0.157819,9.78957,0.726925,2.03,-3.85,-0.07,22.9664,-46.3372,-21.5906,1014.72
256832,0.162602,9.78479,0.731707,2.03,-3.08,0.07,22.5305,-46.3989,-23.2456,1014.72
256838,0.191296,9.8374,0.674318,2.38,-2.87,-0.42,23.3151,-48.3109,-21.7384,1014.71
256844,0.205643,9.81349,0.674318,1.89,-3.5,0,23.286,-47.8483,-21.8271,1014.71
256850,0.162602,9.84218,0.69823,2.1,-3.71,0.14,23.0826,-46.7998,-21.2951,1014.69
256856,0.157819,9.8087,0.707795,2.17,-3.43,-0.07,23.4022,-47.6941,-22.3147,1014.69
256862,0.143472,9.82783,0.707795,1.96,-3.08,-0.28,23.0536,-48.2184,-22.492,1014.67
256868,0.129125,9.79436,0.69823,2.45,-3.22,-0.42,23.0826,-46.6456,-23.0831,1014.67
256874,0.13869,9.78001,0.693448,1.61,-3.01,0.14,23.9543,-47.6324,-22.625,1014.68
256880,0.11956,9.81827,0.73649,2.45,-3.85,-0.35,23.6347,-48.3726,-21.3247,1014.68
256886,0.129125,9.78957,0.69823,1.68,-3.43,0.07,23.1407,-47.6016,-22.7137,1014.68
256892,0.143472,9.82783,0.712578,2.03,-3.22,-0.56,22.763,-47.2932,-22.1226,1014.7
256898,0.157819,9.80392,0.707795,2.1,-3.57,-0.49,23.7219,-48.1259,-21.3099,1014.7
256904,0.143472,9.78957,0.69823,2.24,-3.15,0.21,23.6056,-47.4166,-23.1717,1014.68
256910,0.186514,9.78001,0.712578,1.68,-2.94,0.42,23.1988,-46.9231,-23.0831,1014.68
256916,0.167384,9.79436,0.683883,2.38,-3.43,-0.14,23.2279,-48.0642,-22.625,1014.68
256922,0.133907,9.78957,0.703013,1.68,-3.01,0.07,23.5766,-47.2932,-20.6597,1014.68
256928,0.143472,9.81827,0.746054,2.45,-3.78,0.07,23.1117,-46.1521,-23.1717,1014.72
256934,0.200861,9.79914,0.688666,1.96,-3.43,-0.07,22.6758,-47.5708,-23.2899,1014.72
256940,0.229555,9.84218,0.683883,2.31,-3.57,-0.21,23.7219,-47.7866,-21.9305,1014.72
256946,0.196078,9.82783,0.693448,1.89,-2.73,-0.35,22.9664,-47.324,-22.9353,1014.7
256952,0.13869,9.84696,0.664754,1.89,-3.5,0.07,23.3732,-47.0157,-22.7728,1014.7
256958,0.133907,9.82305,0.679101,1.75,-2.87,-0.63,23.4603,-48.5576,-21.3247,1014.67
256964,0.200861,9.83261,0.674318,1.68,-3.85,-0.28,23.3441,-47.6941,-22.6841,1014.67
256970,0.181731,9.80392,0.731707,1.54,-2.94,-0.35,23.286,-46.5531,-22.4772,1014.72
256976,0.11956,9.82305,0.679101,2.03,-2.94,-0.91,23.1407,-48.3418,-21.7975,1014.72
256982,0.0860832,9.83261,0.669536,1.68,-3.71,-1.05,23.5766,-47.725,-20.5858,1014.71
256988,0.124342,9.78001,0.746054,1.47,-3.43,0,23.4313,-46.6147,-21.8418,1014.71
256994,0.13869,9.79436,0.707795,1.68,-3.29,-0.21,23.4022,-48.0334,-21.7236,1014.71
257000,0.0573888,9.8374,0.746054,1.82,-3.36,-0.56,23.809,-47.8792,-20.2903,1014.67
257006,0.129125,9.85653,0.631277,1.47,-3.71,-0.28,23.78,-46.9231,-22.3147,1014.67
257012,0.157819,9.74653,0.731707,0.91,-3.15,-0.14,23.6637,-47.3549,-22.1226,1014.69
257018,0.0669536,9.63175,0.875179,2.45,-3.08,-0.21,23.5475,-48.496,-20.8666,1014.69
257024,0.143472,9.78001,0.712578,1.96,-3.5,0.14,23.257,-46.8306,-22.5363,1014.69
257030,0.153037,9.7561,0.703013,1.96,-3.29,0.35,23.1117,-47.1082,-21.6054,1014.69
257036,0.181731,9.83261,0.645624,1.82,-3.15,0.35,24.0124,-48.1876,-20.8962,1014.7
257042,0.210426,9.79436,0.703013,2.45,-3.43,-0.28,24.1868,-47.6016,-21.1178,1014.7
257048,0.157819,9.81827,0.679101,2.03,-3.22,0.28,23.6056,-46.8615,-22.9796,1014.72
257054,0.129125,9.81349,0.726925,1.89,-2.94,0.21,22.7049,-48.1259,-21.1474,1014.72
257060,0.124342,9.79914,0.726925,2.38,-3.43,-0.49,23.5475,-49.5445,-21.4872,1014.72
257066,0.186514,9.76566,0.722142,2.31,-3.15,0.28,22.8211,-46.6147,-21.3099,1014.69
257072,0.21999,9.83261,0.71736,1.89,-3.43,0.07,23.3151,-46.8923,-21.6054,1014.69
257078,0.23912,9.81827,0.731707,2.17,-3.29,-0.28,23.0245,-48.496,-21.1769,1014.68
257084,0.143472,9.85653,0.659971,1.89,-2.94,-0.21,24.2739,-47.4474,-21.9896,1014.68
257090,0.13869,9.85174,0.674318,2.24,-3.01,-0.77,23.257,-46.954,-21.9453,1014.69
257096,0.172166,9.83261,0.71736,2.1,-3.08,-0.35,23.4603,-48.496,-20.7484,1014.69
257102,0.23912,9.84696,0.693448,1.75,-2.59,-0.07,23.3732,-47.725,-21.5463,1014.73
257108,0.181731,9.84696,0.69823,1.89,-3.01,-0.77,23.0826,-46.5222,-21.8566,1014.73
257114,0.10043,9.78957,0.722142,1.89,-3.22,-0.7,23.5185,-47.4782,-22.0192,1014.73
257120,0.095648,9.8087,0.71736,1.82,-3.08,-0.14,23.4603,-48.4034,-21.1178,1014.67
257126,0.148254,9.80392,0.71736,1.75,-3.22,-0.77,23.809,-46.8923,-22.625,1014.67
257132,0.167384,9.78001,0.712578,2.24,-3.01,-0.21,22.8211,-47.2932,-22.1226,1014.69
257138,0.148254,9.8087,0.683883,1.89,-2.87,-0.35,23.4603,-48.7118,-21.7236,1014.69
257144,0.124342,9.79914,0.683883,1.61,-3.15,-0.07,23.3441,-47.5091,-21.7236,1014.74
257150,0.095648,9.79914,0.741272,2.1,-3.36,-0.35,23.7219,-46.4914,-21.6793,1014.74
257156,0.114778,9.79914,0.712578,1.82,-3.15,-0.28,23.3151,-49.3286,-21.3838,1014.72
257162,0.129125,9.81827,0.693448,2.17,-3.36,-0.28,23.286,-48.2801,-20.5858,1014.72
257168,0.148254,9.86131,0.664754,1.47,-3.29,-0.28,23.8962,-46.8923,-22.7137,1014.72
257174,0.11956,9.73697,0.832138,2.17,-3.01,-0.28,23.4022,-48.0334,-21.8123,1014.66
257180,0.0813008,9.79436,0.784314,1.96,-3.64,0.14,23.78,-47.8792,-22.6545,1014.66
257186,0.21999,9.79436,0.679101,1.75,-3.43,-0.35,23.8962,-46.8923,-21.768,1014.69
257192,0.157819,9.84696,0.71736,2.17,-3.43,-0.07,23.6928,-47.3549,-22.0192,1014.69
257198,0.181731,9.84218,0.674318,1.82,-3.43,-0.42,23.4313,-48.5885,-21.8123,1014.72
257204,0.162602,9.84696,0.688666,1.75,-2.87,-0.84,23.6637,-47.2315,-20.9405,1014.72
257210,0.176949,9.82305,0.655189,1.75,-2.87,-0.42,23.1698,-46.7073,-21.8566,1014.69
257216,0.172166,9.81827,0.707795,1.33,-3.22,-0.42,22.9664,-47.4166,-20.8518,1014.69
257222,0.172166,9.81827,0.73649,1.75,-3.78,-0.91,23.8671,-48.2801,-20.837,1014.69
257228,0.153037,9.82783,0.703013,1.61,-3.36,-0.7,22.8792,-46.6764,-21.9896,1014.69
257234,0.21999,9.84218,0.674318,1.47,-3.36,-1.05,23.5475,-47.9408,-22.1226,1014.69
257240,0.196078,9.84696,0.664754,1.61,-3.08,-1.19,23.6056,-48.7427,-21.8566,1014.7
257246,0.162602,9.87087,0.650406,0.84,-3.36,-1.47,23.4894,-47.4782,-21.0439,1014.7
257252,0.114778,9.8374,0.712578,0.91,-3.71,-1.68,23.3441,-46.9848,-22.0044,1014.71
257258,0.114778,9.77523,0.731707,0.77,-3.15,-1.26,23.9253,-48.5885,-21.0291,1014.71
257264,0.105213,9.75131,0.784314,1.26,-3.5,-0.91,22.9954,-46.7381,-21.9896,1014.72
257270,0.124342,9.74175,0.774749,0.98,-3.43,-1.33,23.1988,-46.368,-23.0683,1014.72
257276,0.153037,9.78001,0.69823,1.96,-3.78,-1.47,23.6928,-48.2492,-22.4329,1014.71
257282,0.157819,9.78479,0.71736,1.12,-3.43,-0.7,23.7509,-46.5531,-21.9896,1014.71
257288,0.11956,9.74175,0.765184,1.68,-3.57,-0.98,23.6637,-47.0773,-22.4625,1014.71
257294,0.13869,9.76566,0.755619,1.68,-3.85,-0.63,23.0536,-47.3857,-21.5315,1014.7
257300,0.133907,9.77044,0.746054,1.82,-3.5,-0.7,23.3732,-48.0334,-21.9009,1014.7
257306,0.13869,9.8087,0.726925,2.38,-3.36,-0.91,23.0536,-46.3063,-21.4872,1014.75
257312,0.114778,9.8087,0.731707,1.68,-3.15,-0.56,22.8502,-46.4914,-21.4429,1014.75
257318,0.143472,9.80392,0.707795,1.61,-3.08,-0.63,23.1117,-48.4034,-20.5563,1014.71
257324,0.095648,9.85653,0.664754,1.54,-3.5,-1.19,22.8792,-47.4474,-22.0635,1014.71
257330,0.167384,9.84696,0.69823,1.47,-3.64,-0.77,23.4313,-46.2755,-22.6989,1014.71
257336,0.205643,9.81827,0.683883,1.47,-3.5,-1.05,23.6056,-48.095,-22.226,1014.71
257342,0.11956,9.86131,0.674318,1.05,-3.29,-1.12,22.5596,-47.8175,-20.9996,1014.71
257348,0.114778,9.8087,0.71736,1.12,-3.5,-1.61,22.4434,-46.5222,-22.2408,1014.73
257354,0.11956,9.78957,0.798661,0.84,-3.29,-1.19,23.5766,-47.7866,-21.2951,1014.73
257360,0.148254,9.82783,0.722142,1.26,-3.71,-1.05,23.5185,-47.9717,-20.6745,1014.73
257366,0.13869,9.84218,0.683883,1.12,-4.06,-1.61,23.6347,-46.3372,-21.7827,1014.73
257372,0.13869,9.8087,0.69823,0.84,-3.57,-1.47,23.1407,-46.4297,-21.7384,1014.68
257378,0.114778,9.76088,0.750837,1.05,-3.57,-1.47,22.6758,-49.0511,-21.4281,1014.68
257384,0.0621712,9.77523,0.803443,0.98,-3.01,-1.47,24.0124,-47.91,-22.226,1014.72
257390,0.0765184,9.77523,0.822573,1.47,-2.87,-1.26,22.9373,-46.9848,-22.0487,1014.72
257396,0.095648,9.77523,0.774749,1.54,-3.15,-1.19,23.4894,-47.6016,-21.4577,1014.7
257402,0.095648,9.78479,0.69823,1.89,-3.01,-1.26,24.2158,-48.0642,-22.0783,1014.7
257408,0.0765184,9.77523,0.750837,1.54,-3.57,-0.98,23.6056,-46.9231,-21.8123,1014.7
257414,0.0765184,9.80392,0.755619,1.26,-3.43,-0.49,23.257,-48.0025,-21.7827,1014.7
257420,0.10043,9.78957,0.750837,2.1,-3.5,-1.05,23.4313,-49.0202,-22.093,1014.7
257426,0.153037,9.78957,0.703013,1.47,-2.94,-1.33,24.2739,-46.7689,-21.3099,1014.69
257432,0.162602,9.85174,0.726925,1.61,-3.08,-1.12,23.1407,-47.5708,-21.7384,1014.69
257438,0.133907,9.81349,0.712578,1.47,-3.01,-1.33,23.1407,-48.4651,-21.6793,1014.7
257444,0.105213,9.82305,0.769966,1.54,-3.15,-1.12,23.6347,-47.6016,-21.768,1014.7
257450,0.148254,9.81349,0.750837,1.26,-2.87,-0.91,22.5596,-46.8615,-21.5611,1014.68
257456,0.11956,9.81827,0.760402,1.4,-2.73,-1.68,23.4313,-47.91,-20.379,1014.68
257462,0.105213,9.77523,0.765184,1.26,-2.87,-1.4,23.3441,-48.1876,-21.635,1014.68
257468,0.0669536,9.81827,0.741272,1.75,-3.01,-1.4,24.0415,-46.5839,-21.2656,1014.66
257474,0.0286944,9.78957,0.784314,1.54,-3.15,-0.91,23.4022,-46.5839,-20.7336,1014.66
257480,0.047824,9.77044,0.798661,1.54,-3.08,-0.91,23.8962,-48.1876,-21.768,1014.71
257486,0.0908656,9.77044,0.741272,1.82,-3.15,-0.84,23.1698,-46.5839,-21.8271,1014.71
