Timestamp,AccX,AccY,AccZ,AngularVelX,AngularVelY,AngularVelZ,MagX,MagY,MagZ,AirPressure
27212,0.267814,9.79436,1.16691,2.03,-3.57,0.07,22.6758,-46.8923,-22.9501,1014.71
27218,0.243902,9.79914,1.1956,1.96,-2.73,0.14,23.3151,-47.1082,-22.5068,1014.71
27224,0.267814,9.79436,1.17169,1.96,-2.87,-0.49,23.1698,-46.6764,-22.3442,1014.74
27230,0.267814,9.7561,1.21951,1.89,-3.08,-0.21,23.5766,-47.0465,-22.758,1014.74
27236,0.234338,9.78479,1.20516,1.89,-3.01,-0.84,23.5185,-46.7381,-22.0044,1014.75
27242,0.253467,9.78957,1.17647,1.54,-3.01,-0.21,23.3151,-45.9363,-22.5068,1014.75
27248,0.25825,9.75131,1.22908,1.54,-2.8,-0.28,23.1407,-46.4605,-22.625,1014.7
27254,0.229555,9.7561,1.20038,1.82,-3.01,0.14,23.4603,-46.7073,-22.6841,1014.7
27260,0.229555,9.76566,1.1956,1.82,-3.15,-0.07,23.1698,-46.9231,-21.9453,1014.7
27266,0.248685,9.73218,1.21473,2.1,-3.29,-0.28,23.1988,-47.1698,-23.4968,1014.69
27272,0.248685,9.77523,1.16212,2.24,-2.8,-0.14,23.5475,-47.1698,-22.0192,1014.69
27278,0.253467,9.7561,1.17169,1.33,-2.87,0.28,23.0826,-46.4914,-22.1374,1014.73
27284,0.224773,9.76088,1.19082,1.96,-3.57,0.07,22.7049,-47.4166,-22.9353,1014.73
27290,0.267814,9.76088,1.20038,1.75,-2.94,-0.21,22.9373,-46.9848,-21.9009,1014.71
27296,0.263032,9.73697,1.20516,1.61,-2.87,-0.14,23.0245,-48.0642,-22.3147,1014.71
27302,0.25825,9.77523,1.17169,1.89,-2.94,0.07,24.0996,-47.1698,-21.5463,1014.74
27308,0.263032,9.7274,1.18604,1.89,-3.57,0,22.9664,-47.0157,-21.768,1014.74
27314,0.263032,9.78957,1.16691,1.96,-3.36,-0.21,23.0826,-46.8306,-22.3295,1014.74
27320,0.267814,9.7561,1.20038,2.03,-3.22,-0.28,23.4603,-46.5222,-22.4772,1014.74
27326,0.263032,9.79436,1.21473,1.75,-2.66,-0.07,23.0826,-47.5399,-21.2951,1014.74
27332,0.315638,9.76566,1.20038,1.75,-2.73,-0.28,23.5766,-46.4914,-21.7384,1014.74
27338,0.253467,9.77044,1.1956,1.96,-3.15,-0.63,23.6056,-46.954,-20.8518,1014.74
27344,0.229555,9.78001,1.23864,1.61,-2.59,-0.56,22.9373,-45.8746,-22.5511,1014.71
27350,0.196078,9.73218,1.1956,1.61,-3.01,-0.14,23.286,-46.8615,-22.4033,1014.71
27356,0.21999,9.76088,1.20038,1.68,-3.64,0.07,22.9664,-46.368,-22.0487,1014.71
27362,0.253467,9.73697,1.20038,1.96,-2.73,0,23.4313,-46.4297,-21.3247,1014.71
27368,0.248685,9.74653,1.18604,1.4,-2.59,-0.07,22.269,-46.5839,-22.2999,1014.7
27374,0.229555,9.7561,1.20516,1.4,-2.66,0.14,23.4313,-46.954,-21.7975,1014.7
27380,0.215208,9.7274,1.20516,1.82,-3.22,-0.14,23.286,-47.0773,-23.0831,1014.7
27386,0.215208,9.7561,1.20516,1.54,-3.08,-0.07,23.0536,-47.0157,-21.4281,1014.73
27392,0.23912,9.76088,1.15734,1.96,-2.87,-0.07,23.3732,-46.9848,-21.8714,1014.73
27398,0.25825,9.76566,1.19082,1.82,-3.01,0.28,23.6347,-46.5531,-21.1326,1014.72
27404,0.23912,9.7561,1.20995,1.54,-3.36,0,23.5475,-45.8437,-22.8023,1014.72
27410,0.25825,9.73697,1.20995,1.75,-3.15,0,23.3441,-45.8746,-23.482,1014.73
27416,0.263032,9.77523,1.1956,1.82,-3.08,0,23.3441,-46.6147,-21.1178,1014.73
27422,0.243902,9.7561,1.20516,1.89,-3.08,0.07,23.1698,-46.8615,-22.3886,1014.72
27428,0.263032,9.78479,1.20038,1.89,-3.36,0,22.9664,-46.183,-23.216,1014.72
27434,0.267814,9.7561,1.20516,1.82,-3.29,-0.56,23.1698,-47.2315,-23.3786,1014.72
27440,0.224773,9.76088,1.21473,2.1,-2.73,0.14,22.9083,-46.8306,-23.2308,1014.75
27446,0.210426,9.76088,1.20516,2.31,-3.22,-0.35,23.4313,-47.2624,-22.0339,1014.75
27452,0.267814,9.76088,1.17169,1.61,-3.29,-0.35,23.8962,-46.6456,-22.4772,1014.74
27458,0.263032,9.76566,1.19082,1.89,-3.15,-0.14,23.4313,-46.5531,-22.9353,1014.74
27464,0.23912,9.73697,1.22429,2.17,-2.73,-0.42,23.4313,-46.2447,-23.2899,1014.73
27470,0.229555,9.76566,1.20516,2.03,-2.8,-0.35,23.7509,-46.183,-22.1521,1014.73
27476,0.21999,9.77523,1.20516,1.96,-3.64,0,23.4022,-46.183,-22.5216,1014.74
27482,0.243902,9.75131,1.20038,1.61,-3.15,0.21,23.9834,-46.8306,-22.0339,1014.74
27488,0.23912,9.77044,1.22429,1.89,-2.87,-0.14,23.9253,-46.5531,-23.5411,1014.74
27494,0.25825,9.72262,1.20038,1.96,-2.73,-0.07,23.7219,-47.4782,-21.8271,1014.75
27500,0.243902,9.76088,1.20038,1.61,-2.87,0.21,23.4022,-46.7381,-23.0978,1014.75
27506,0.267814,9.76088,1.16212,2.24,-3.36,0,22.9083,-46.4297,-21.5759,1014.76
27512,0.23912,9.76566,1.16212,1.68,-3.29,0.28,23.3151,-46.2447,-23.216,1014.76
27518,0.263032,9.77044,1.21951,2.03,-2.8,0,23.3441,-46.4605,-22.0635,1014.72
27524,0.263032,9.77044,1.17169,2.03,-3.57,-0.14,23.3441,-47.4782,-21.0587,1014.72
27530,0.267814,9.77044,1.20516,1.96,-3.22,-0.21,23.1407,-47.2007,-23.0831,1014.72
27536,0.277379,9.77044,1.19082,1.82,-3.08,-0.21,23.2279,-47.4166,-21.2656,1014.72
27542,0.282162,9.76088,1.20038,1.54,-3.15,-0.35,23.8962,-47.0157,-21.5315,1014.73
27548,0.23912,9.79914,1.17169,2.03,-3.36,-0.63,22.9954,-47.2624,-22.3738,1014.73
27554,0.263032,9.76088,1.20995,1.47,-3.15,-0.28,23.4894,-46.7998,-21.7236,1014.73
27560,0.272597,9.7561,1.21473,1.82,-2.73,-0.28,23.0826,-47.324,-22.758,1014.7
27566,0.21999,9.75131,1.22429,1.47,-2.94,-0.28,23.1698,-47.324,-21.7975,1014.7
27572,0.21999,9.73218,1.21951,1.89,-3.22,-0.63,22.5886,-46.7381,-23.024,1014.71
27578,0.248685,9.77044,1.20995,2.17,-2.8,-0.49,23.2279,-47.0773,-21.9009,1014.71
27584,0.243902,9.72262,1.20995,2.03,-3.15,0,23.0536,-46.954,-21.2508,1014.74
27590,0.229555,9.75131,1.1956,1.96,-2.73,0.21,23.6056,-47.1082,-22.3738,1014.74
27596,0.224773,9.76088,1.19082,1.47,-3.01,-0.07,22.3562,-47.2315,-21.9896,1014.73
27602,0.23912,9.74653,1.18604,2.1,-3.29,-0.21,22.763,-46.9848,-22.3738,1014.73
27608,0.21999,9.78001,1.19082,2.17,-3.36,0,22.9083,-46.4297,-21.768,1014.73
27614,0.253467,9.74653,1.20516,1.75,-3.29,0.35,23.4603,-47.324,-21.502,1014.7
27620,0.23912,9.76088,1.20038,1.75,-3.29,-0.42,23.286,-47.4166,-20.9553,1014.7
27626,0.243902,9.74175,1.1956,1.82,-3.08,0.14,23.3441,-46.954,-22.4625,1014.72
27632,0.272597,9.7561,1.20516,1.75,-2.94,0,23.4603,-46.9231,-22.3295,1014.72
27638,0.272597,9.73697,1.20038,1.47,-3.15,0.14,23.1698,-47.2315,-22.7728,1014.73
27644,0.263032,9.78479,1.17169,2.03,-3.15,17.71,23.8671,-47.1698,-22.359,1014.73
27650,0.301291,9.78001,1.18604,1.82,-3.15,-0.21,22.3271,-47.5399,-23.1717,1014.69
27656,0.325203,9.80392,1.1956,1.89,-3.08,-0.21,23.5185,-47.3857,-22.6693,1014.69
27662,0.248685,9.76088,1.15734,1.4,-2.31,-0.56,22.9664,-46.5222,-21.8123,1014.73
27668,0.224773,9.78001,1.20995,1.68,-3.08,-0.49,23.4313,-46.9231,-21.9601,1014.73
27674,0.224773,9.7561,1.23864,1.54,-3.22,-0.07,23.1407,-46.7689,-21.0439,1014.73
27680,0.234338,9.73697,1.22908,1.68,-2.45,-0.21,22.763,-46.9231,-22.2113,1014.71
27686,0.25825,9.77044,1.21951,1.75,-2.73,0,22.763,-45.9054,-22.1965,1014.71
27692,0.224773,9.76088,1.17647,1.47,-2.73,0.28,23.78,-47.1698,-21.7532,1014.72
27698,0.243902,9.76088,1.20995,1.54,-2.66,0.35,23.286,-46.954,-21.5759,1014.72
27704,0.224773,9.76088,1.19082,1.89,-2.94,-0.07,23.5475,-46.7073,-23.1126,1014.73
27710,0.229555,9.74653,1.16691,2.03,-3.01,-0.28,22.8502,-46.7689,-21.7827,1014.73
27716,0.243902,9.73218,1.18125,1.54,-2.94,-0.35,22.6177,-47.0157,-21.768,1014.72
27722,0.229555,9.76088,1.17647,1.96,-2.94,0,22.8502,-47.4782,-20.6893,1014.72
27728,0.224773,9.77523,1.17647,2.03,-2.52,0.28,23.3151,-47.1698,-21.103,1014.72
27734,0.23912,9.74653,1.20516,1.61,-2.59,0,22.9373,-47.5399,-22.3147,1014.72
27740,0.248685,9.76088,1.17647,2.03,-3.22,0.21,23.1407,-47.3857,-22.4033,1014.72
27746,0.267814,9.7561,1.16691,1.54,-3.36,0.07,22.4143,-46.8615,-23.2899,1014.73
27752,0.277379,9.78957,1.20516,2.1,-3.15,-0.14,22.9373,-47.4474,-22.6102,1014.73
27758,0.243902,9.77044,1.18125,1.89,-2.8,-0.49,23.4313,-46.8306,-21.9896,1014.72
27764,0.253467,9.79436,1.1956,1.47,-2.87,0.07,22.7049,-46.9848,-22.226,1014.72
27770,0.267814,9.77523,1.14299,1.61,-3.08,-0.35,22.6468,-47.0773,-22.3442,1014.75
27776,0.272597,9.77044,1.20995,1.75,-2.66,-0.49,22.763,-46.4914,-22.5068,1014.75
27782,0.267814,9.77523,1.1956,1.82,-3.64,17.08,23.1407,-46.4297,-21.7236,1014.75
27788,0.243902,9.76566,1.20995,1.61,-2.87,-0.21,23.4894,-46.4605,-21.9748,1014.73
27794,0.263032,9.77044,1.20995,1.61,-3.22,-0.49,22.4434,-46.8615,-22.4033,1014.73
27800,0.23912,9.77044,1.1956,1.61,-3.01,0.07,22.6468,-46.5531,-23.024,1014.72
27806,0.23912,9.74653,1.20995,2.17,-2.8,0.07,23.2279,-46.4914,-22.0044,1014.72
27812,0.23912,9.76088,1.21473,1.61,-3.15,-0.49,22.9083,-46.6764,-22.6989,1014.74
27818,0.243902,9.76566,1.18604,1.82,-3.22,-0.21,22.8792,-46.7998,-21.635,1014.74
27824,0.205643,9.76566,1.20038,2.24,-3.08,0.14,23.3441,-47.324,-20.9848,1014.74
27830,0.215208,9.77523,1.20038,1.68,-2.94,-0.14,22.9954,-46.1213,-21.236,1014.74
27836,0.253467,9.77044,1.17169,1.75,-3.22,-0.49,23.0826,-47.2007,-22.3295,1014.72
27842,0.229555,9.78001,1.15734,2.17,-3.15,0.49,23.0536,-46.8306,-21.9453,1014.72
27848,0.253467,9.77044,1.16691,1.96,-2.94,0.14,22.9954,-46.3063,-22.0487,1014.72
27854,0.243902,9.7561,1.20516,1.54,-2.94,0.14,22.7339,-47.2624,-21.4724,1014.75
27860,0.272597,9.77523,1.15734,2.03,-3.22,-0.07,22.3852,-47.139,-21.4872,1014.75
27866,0.301291,9.80392,1.14778,1.61,-3.01,-0.42,23.1698,-46.9848,-22.2704,1014.71
27872,0.306074,9.81349,1.10473,1.68,-2.66,-0.14,22.8792,-47.139,-21.6054,1014.71
27878,0.215208,9.7561,1.20516,1.61,-2.59,-0.21,23.6056,-47.1698,-22.1226,1014.74
27884,0.224773,9.76566,1.22429,1.82,-3.36,-0.49,22.5596,-46.8923,-22.3295,1014.74
27890,0.248685,9.73697,1.22429,1.61,-2.73,-0.14,23.0536,-46.368,-22.1374,1014.7
27896,0.229555,9.76088,1.18125,1.89,-3.08,-0.14,22.792,-46.4297,-21.5168,1014.7
27902,0.210426,9.74653,1.21951,1.82,-3.01,-0.07,22.9083,-47.5708,-22.3738,1014.7
27908,0.243902,9.74175,1.1956,1.68,-3.22,-0.28,23.1407,-47.0465,-22.6989,1014.73
27914,0.23912,9.78001,1.19082,2.24,-3.29,-0.28,22.8792,-47.2315,-22.9353,1014.73
27920,0.23912,9.75131,1.21473,1.96,-2.94,0.14,23.4022,-46.5839,-22.093,1014.74
27926,0.234338,9.78001,1.20516,1.96,-3.5,0.14,22.9083,-46.9231,-22.891,1014.74
27932,0.253467,9.78957,1.15256,1.82,-3.43,-0.35,23.286,-46.8615,-22.1965,1014.72
27938,0.21999,9.78479,1.18125,1.68,-3.22,0.21,23.809,-47.8792,-21.635,1014.72
27944,0.248685,9.77523,1.20516,2.17,-3.22,0.21,23.7219,-46.5222,-22.1965,1014.72
27950,0.248685,9.78479,1.1956,1.47,-2.8,0.28,23.8671,-47.6324,-22.9353,1014.72
27956,0.272597,9.74653,1.20038,1.89,-3.01,0,23.7509,-46.4605,-21.2803,1014.72
27962,0.263032,9.77523,1.15734,1.68,-3.29,0,23.286,-46.6764,-22.6693,1014.74
27968,0.25825,9.77044,1.16212,1.89,-2.66,0,22.7049,-47.0465,-21.3394,1014.74
27974,0.243902,9.78001,1.20038,1.61,-3.08,-0.42,22.5596,-47.3857,-22.0487,1014.73
27980,0.23912,9.80392,1.19082,1.89,-3.43,-0.28,23.0536,-47.4782,-22.3442,1014.73
27986,0.267814,9.78957,1.16691,1.54,-3.43,0.07,22.792,-46.7381,-22.2851,1014.71
27992,0.272597,9.78957,1.18604,1.54,-2.66,-0.14,22.6177,-47.4782,-21.7827,1014.71
27998,0.243902,9.76566,1.1956,1.33,-2.73,-0.14,23.1988,-47.0465,-21.7827,1014.71
28004,0.215208,9.77044,1.17169,1.61,-3.57,-0.49,23.1988,-47.5091,-22.4329,1014.71
28010,0.234338,9.74653,1.19082,1.61,-3.08,-0.28,23.1698,-47.3549,-22.3442,1014.72
28016,0.248685,9.75131,1.21473,1.82,-3.01,0.07,23.2279,-47.8483,-21.2803,1014.72
28022,0.253467,9.73697,1.17647,1.54,-2.8,-0.21,22.9954,-46.8306,-21.2656,1014.72
28028,0.25825,9.76088,1.17169,1.96,-3.22,-0.49,23.5475,-47.1082,-20.8666,1014.7
28034,0.205643,9.7561,1.19082,1.96,-3.08,-0.07,22.8792,-46.7073,-22.5068,1014.7
28040,0.234338,9.76088,1.18125,1.96,-2.87,0.07,23.2279,-46.3063,-21.8566,1014.72
28046,0.243902,9.76088,1.20516,1.68,-2.8,-0.07,23.0826,-46.3372,-21.5168,1014.72
28052,0.243902,9.7561,1.18125,1.61,-3.08,-0.21,23.1988,-46.7689,-22.0044,1014.72
28058,0.243902,9.76566,1.18125,1.89,-2.66,-0.07,22.8792,-46.3063,-22.4329,1014.72
28064,0.253467,9.78001,1.18604,1.75,-3.29,-0.49,22.763,-47.3549,-22.2113,1014.75
28070,0.263032,9.76088,1.16691,2.31,-3.01,0,23.0826,-47.4474,-22.0487,1014.75
28076,0.263032,9.77523,1.17647,1.68,-2.52,-0.35,23.809,-47.4166,-19.9948,1014.75
28082,0.23912,9.77523,1.18125,1.68,-3.08,-0.42,23.0536,-47.1698,-22.5659,1014.72
28088,0.248685,9.76088,1.20516,2.03,-2.94,-0.14,22.2981,-46.4914,-22.5807,1014.72
28094,0.263032,9.77044,1.19082,1.68,-2.73,-0.28,23.2279,-46.368,-22.2999,1014.71
28100,0.282162,9.76566,1.16691,1.19,-2.94,0.07,23.4894,-47.725,-21.5463,1014.71
28106,0.196078,9.76566,1.16691,1.75,-2.8,-0.21,23.6928,-46.9848,-21.2951,1014.75
28112,0.234338,9.77523,1.22908,1.68,-2.87,-0.49,22.9083,-46.6764,-22.0044,1014.75
28118,0.224773,9.73218,1.1956,1.61,-3.15,-0.21,22.4724,-46.5222,-20.97,1014.72
28124,0.210426,9.74175,1.20516,1.75,-3.43,-17.5,22.6758,-46.5531,-22.4181,1014.72
28130,0.21999,9.72262,1.1956,1.75,-2.45,0.35,23.0245,-46.4914,-22.1669,1014.72
28136,0.248685,9.74653,1.20038,1.54,-3.36,0.21,22.7339,-46.7998,-21.8566,1014.71
28142,0.234338,9.7274,1.18604,2.03,-3.01,0,22.5596,-47.2007,-21.7532,1014.71
28148,0.21999,9.73697,1.21951,1.68,-3.15,0,22.7339,-47.2315,-21.6202,1014.72
28154,0.253467,9.7561,1.20516,1.68,-3.29,0.42,23.6637,-46.5222,-21.9896,1014.72
28160,0.25825,9.7561,1.20038,2.38,-3.15,0.42,23.286,-47.2315,-22.5363,1014.74
28166,0.263032,9.73697,1.18125,2.1,-2.87,0.21,22.5596,-46.5839,-22.6841,1014.74
28172,0.263032,9.78479,1.1956,1.75,-3.08,0.07,23.6056,-47.0773,-21.5906,1014.72
28178,0.243902,9.76566,1.16691,2.24,-3.08,0.35,22.7049,-46.3063,-22.6545,1014.72
28184,0.23912,9.77044,1.17169,1.96,-2.73,0.14,22.8502,-46.5222,-22.625,1014.7
28190,0.25825,9.76566,1.18125,1.82,-3.29,0.14,22.5305,-46.9231,-23.0978,1014.7
28196,0.306074,9.78479,1.1956,1.47,-2.87,-0.28,23.3441,-46.5531,-21.2212,1014.7
28202,0.234338,9.79436,1.18604,1.54,-2.94,-0.14,22.6468,-46.6147,-22.0192,1014.74
28208,0.263032,9.81349,1.15734,2.17,-3.01,-0.28,23.4894,-46.4914,-22.1965,1014.74
28214,0.277379,9.78957,1.17647,1.82,-3.36,-0.21,22.9373,-47.0157,-20.8666,1014.73
28220,0.253467,9.77044,1.1956,1.47,-2.87,-0.63,22.8211,-46.368,-21.4724,1014.73
28226,0.229555,9.77044,1.23386,2.1,-3.29,-0.07,22.3562,-45.7204,-21.9009,1014.77
28232,0.263032,9.78957,1.19082,1.75,-3.15,-0.28,23.4022,-46.3989,-22.4329,1014.77
28238,0.25825,9.76088,1.1956,1.47,-3.08,-0.14,22.5886,-46.4605,-21.5463,1014.73
28244,0.23912,9.76088,1.20995,1.47,-3.78,0,22.8792,-46.6764,-22.9205,1014.73
28250,0.272597,9.77523,1.20038,2.17,-3.57,-0.35,22.7339,-46.7073,-22.4772,1014.73
28256,0.234338,9.77523,1.18125,1.96,-3.29,-0.42,23.257,-47.0465,-21.6497,1014.72
28262,0.234338,9.75131,1.1956,1.47,-2.87,-17.85,22.6758,-46.4297,-22.891,1014.72
28268,0.243902,9.74175,1.19082,1.89,-3.22,0.35,23.7219,-46.6764,-22.6102,1014.73
28274,0.224773,9.78001,1.16691,1.54,-2.87,0.35,23.5766,-47.6633,-20.8518,1014.73
28280,0.263032,9.77523,1.17169,1.89,-3.01,-0.07,23.9543,-47.0465,-22.4477,1014.74
28286,0.229555,9.7561,1.20995,2.03,-3.08,0,23.2279,-47.324,-22.1669,1014.74
28292,0.23912,9.76566,1.16691,1.75,-3.01,0.21,23.6928,-47.5399,-21.1474,1014.72
28298,0.277379,9.74653,1.20516,1.89,-3.08,-0.07,23.78,-46.8615,-22.1817,1014.72
28304,0.291726,9.77044,1.20038,1.89,-2.8,-0.14,23.4022,-46.8615,-22.492,1014.72
28310,0.282162,9.79436,1.16691,2.03,-2.94,-0.35,23.257,-46.3989,-21.635,1014.71
28316,0.267814,9.78957,1.16691,1.54,-2.38,-0.42,23.1407,-46.8923,-21.236,1014.71
28322,0.248685,9.79914,1.18604,1.96,-2.94,-0.7,22.9083,-47.1082,-21.2065,1014.72
28328,0.186514,9.76566,1.17647,1.68,-3.08,-0.21,22.8502,-47.324,-21.6054,1014.72
28334,0.253467,9.77523,1.16212,1.75,-3.08,-0.49,23.2279,-47.2624,-21.3985,1014.73
28340,0.224773,9.76088,1.17647,1.61,-2.94,-0.42,23.4894,-47.6016,-22.1521,1014.73
28346,0.205643,9.74175,1.17647,1.61,-2.94,-0.14,23.1407,-47.4166,-21.9896,1014.74
28352,0.210426,9.75131,1.19082,1.75,-3.01,-0.14,22.8211,-47.2624,-21.6645,1014.74
28358,0.196078,9.74653,1.1956,1.96,-3.01,-0.14,22.8211,-46.9848,-21.4872,1014.73
28364,0.248685,9.73218,1.14778,1.54,-3.01,-0.07,23.6347,-48.0642,-21.7384,1014.73
28370,0.224773,9.76088,1.16212,1.61,-2.94,0,23.0536,-47.2007,-21.5315,1014.73
28376,0.243902,9.73218,1.17647,1.96,-2.66,0.07,22.8502,-46.8923,-22.226,1014.71
28382,0.243902,9.75131,1.18125,1.89,-2.94,0.07,22.2981,-47.0773,-20.8518,1014.71
28388,0.263032,9.7561,1.15256,1.54,-3.08,0.07,22.792,-47.139,-22.7728,1014.72
28394,0.248685,9.74653,1.17169,1.82,-2.94,-0.07,22.9083,-47.0773,-21.9009,1014.72
28400,0.248685,9.75131,1.16212,1.96,-2.8,-0.07,23.0536,-46.7381,-22.3295,1014.72
28406,0.243902,9.76566,1.18604,1.96,-3.64,-0.28,22.8211,-47.6016,-22.5954,1014.72
28412,0.248685,9.78001,1.19082,2.17,-2.8,0.56,23.1117,-47.0157,-21.4133,1014.69
28418,0.286944,9.7561,1.15256,2.24,-2.73,0,23.0536,-47.0465,-21.768,1014.69
28424,0.248685,9.82305,1.17169,1.96,-3.08,0,23.4313,-47.3549,-21.9305,1014.69
28430,0.286944,9.76566,1.17647,1.54,-3.08,-0.56,23.7219,-46.5222,-22.2851,1014.71
28436,0.272597,9.76566,1.17647,1.89,-3.01,-0.21,23.4603,-47.2932,-21.5906,1014.71
28442,0.243902,9.78001,1.15734,1.54,-2.87,-0.21,23.257,-46.9848,-21.7089,1014.73
28448,0.229555,9.78957,1.17169,2.1,-3.29,-0.7,23.257,-46.8923,-21.7236,1014.73
28454,0.234338,9.76566,1.16212,1.68,-2.73,-0.28,23.4022,-47.2007,-22.5363,1014.74
28460,0.253467,9.78957,1.15734,1.47,-2.73,-0.42,22.9373,-46.6147,-22.4033,1014.74
28466,0.248685,9.73697,1.16691,2.03,-3.08,-0.21,23.6347,-47.0157,-21.8862,1014.72
28472,0.215208,9.76088,1.16691,1.75,-3.43,0.21,23.1117,-46.954,-21.768,1014.72
28478,0.215208,9.76566,1.18125,1.61,-3.01,0.07,23.4313,-47.324,-21.5315,1014.72
28484,0.215208,9.76088,1.17647,1.75,-2.94,-0.07,23.0536,-47.2624,-21.4429,1014.74
28490,0.215208,9.74653,1.16212,1.82,-3.36,-0.42,22.9664,-46.9848,-22.891,1014.74
28496,0.234338,9.76088,1.16691,1.68,-3.29,-0.07,22.763,-46.7998,-21.5168,1014.73
28502,0.23912,9.74653,1.15734,1.75,-2.52,0.63,23.3732,-46.954,-21.9601,1014.73
28508,0.25825,9.75131,1.18604,1.75,-3.08,-0.07,23.1117,-46.6764,-23.1274,1014.7
28514,0.248685,9.78957,1.18125,2.03,-3.29,-0.42,22.9954,-47.1082,-21.3247,1014.7
28520,0.253467,9.7561,1.14778,2.1,-3.01,0.42,23.1407,-46.368,-21.369,1014.72
28526,0.23912,9.78001,1.14778,1.75,-2.94,0.28,23.1988,-46.5222,-22.4772,1014.72
28532,0.277379,9.78957,1.14778,1.89,-3.08,-0.28,23.6347,-47.2315,-23.3047,1014.75
28538,0.263032,9.8087,1.17647,1.96,-3.01,0,23.4894,-45.9363,-22.4329,1014.75
28544,0.253467,9.7561,1.13821,1.89,-2.8,-0.35,23.5475,-47.0773,-22.359,1014.75
28550,0.234338,9.79436,1.15256,1.75,-2.66,-0.77,23.4603,-46.6764,-21.9157,1014.75
28556,0.210426,9.73218,1.20038,1.82,-2.66,-0.84,23.78,-46.3372,-22.226,1014.75
28562,0.210426,9.73697,1.18604,1.61,-3.43,0.07,23.3732,-46.3063,-23.0092,1014.71
28568,0.25825,9.72262,1.15256,1.89,-3.08,-0.14,23.4603,-47.1082,-23.0978,1014.71
28574,0.229555,9.74175,1.16212,1.75,-2.8,-0.42,22.24,-47.0773,-23.4525,1014.72
28580,0.205643,9.73697,1.19082,1.75,-3.01,0,22.8502,-46.6147,-22.0339,1014.72
28586,0.172166,9.7561,1.16212,1.61,-2.94,0.14,23.8962,-47.1082,-21.9748,1014.71
28592,0.215208,9.76088,1.1956,1.89,-3.22,0.07,22.6758,-46.5222,-23.5559,1014.71
28598,0.234338,9.76566,1.16212,1.89,-3.5,-0.14,22.9083,-46.7381,-22.3738,1014.71
28604,0.234338,9.73218,1.22429,1.82,-3.5,-0.07,23.1698,-46.7073,-22.5511,1014.72
28610,0.25825,9.76088,1.17169,1.89,-3.43,0.14,23.1117,-46.9848,-22.8319,1014.72
28616,0.248685,9.78479,1.16691,2.17,-3.43,0.35,23.6347,-45.9979,-22.1817,1014.72
28622,0.263032,9.77523,1.16691,1.96,-3.08,-0.35,23.4022,-46.8923,-21.3985,1014.72
28628,0.248685,9.78957,1.16691,1.89,-2.66,0.28,22.5305,-47.6633,-22.6398,1014.72
28634,0.263032,9.75131,1.18125,1.89,-2.94,0.14,23.4603,-46.8306,-22.6545,1014.72
28640,0.267814,9.77523,1.17647,2.59,-3.01,-0.42,23.5475,-46.3989,-23.1569,1014.71
28646,0.25825,9.78479,1.16691,1.96,-3.08,-0.35,22.5596,-47.139,-22.2999,1014.71
28652,0.272597,9.79914,1.13343,1.75,-3.29,0,23.4313,-46.6764,-22.2113,1014.71
28658,0.263032,9.75131,1.14778,1.82,-3.36,-0.35,23.6347,-46.7689,-22.6545,1014.72
28664,0.243902,9.78479,1.12386,1.68,-3.22,-0.49,23.809,-46.6456,-22.8762,1014.72
28670,0.234338,9.75131,1.18604,1.68,-2.87,-0.42,23.8671,-46.7381,-22.6693,1014.75
28676,0.186514,9.73697,1.1956,1.4,-2.66,-0.42,22.8792,-46.954,-22.1374,1014.75
28682,0.248685,9.76088,1.21951,1.61,-3.43,-0.07,23.257,-47.2007,-22.5363,1014.73
28688,0.248685,9.74653,1.20038,1.75,-3.29,0,23.1117,-46.7073,-22.5216,1014.73
28694,0.243902,9.75131,1.13821,1.47,-2.73,-0.63,22.9664,-46.8615,-22.5954,1014.72
28700,0.234338,9.7561,1.20038,1.89,-3.36,-0.49,23.5475,-46.1521,-23.216,1014.72
28706,0.205643,9.76088,1.1956,1.05,-2.73,0.35,23.3441,-46.7689,-22.625,1014.73
28712,0.234338,9.73218,1.1956,2.1,-2.87,0.28,23.1988,-46.7998,-22.3147,1014.73
28718,0.248685,9.75131,1.17647,1.82,-3.43,-0.56,23.4313,-46.5839,-22.093,1014.73
28724,0.21999,9.73697,1.17647,1.89,-3.43,-0.28,23.1117,-47.0465,-23.1126,1014.7
28730,0.215208,9.77044,1.17647,2.24,-3.36,0.42,22.8211,-46.6456,-23.1126,1014.7
28736,0.229555,9.78001,1.18125,2.17,-2.38,0.28,23.5475,-47.0157,-21.5315,1014.71
28742,0.234338,9.74653,1.17169,1.68,-2.8,0.28,23.1698,-47.0157,-21.8566,1014.71
28748,0.215208,9.74175,1.17647,1.82,-2.87,-0.07,23.3732,-46.4914,-22.8466,1014.75
28754,0.253467,9.77523,1.19082,2.1,-3.22,-0.35,23.2279,-47.5091,-21.9453,1014.75
28760,0.248685,9.77523,1.15734,1.61,-3.43,0.07,23.257,-47.0773,-22.0635,1014.74
28766,0.23912,9.78001,1.17169,1.96,-2.87,0.21,22.8211,-46.368,-22.1965,1014.74
28772,0.272597,9.76088,1.15734,1.54,-2.52,-0.14,22.6758,-47.0157,-22.0635,1014.74
28778,0.253467,9.7561,1.17647,1.82,-3.36,-0.28,23.0826,-46.7998,-20.9848,1014.72
28784,0.253467,9.76566,1.18604,1.96,-3.36,-0.21,22.8792,-46.954,-22.5511,1014.72
28790,0.248685,9.78957,1.17169,1.82,-2.8,-0.14,22.9083,-46.8923,-21.9453,1014.71
28796,0.248685,9.74175,1.20516,1.96,-3.08,-0.7,22.4143,-46.6147,-21.6497,1014.71
28802,0.234338,9.76088,1.20038,1.89,-3.22,-0.49,22.9664,-46.8615,-22.3147,1014.74
28808,0.23912,9.74653,1.19082,2.17,-2.24,0.49,23.3732,-46.8923,-22.3442,1014.74
28814,0.21999,9.76088,1.17169,1.33,-3.15,-0.49,23.3441,-46.8615,-22.9057,1014.74
28820,0.21999,9.74653,1.16691,1.33,-2.38,0.21,23.6056,-46.9848,-21.1326,1014.74
28826,0.23912,9.78957,1.12865,1.47,-3.08,-0.07,23.5766,-46.4914,-22.9944,1014.74
28832,0.243902,9.7561,1.15734,1.89,-3.15,-0.07,23.257,-46.9848,-21.0587,1014.72
28838,0.248685,9.78957,1.16691,2.24,-3.01,-0.07,23.5185,-46.5531,-21.6202,1014.72
28844,0.234338,9.75131,1.16691,1.82,-3.01,-0.07,23.6347,-46.7998,-22.226,1014.71
28850,0.243902,9.7561,1.20995,2.1,-3.64,0.14,23.1698,-46.8923,-22.8466,1014.71
28856,0.229555,9.74175,1.18125,1.89,-3.22,0.07,23.1988,-46.7998,-22.1374,1014.72
28862,0.210426,9.76088,1.17647,2.17,-3.43,-0.28,22.7049,-46.6147,-22.7137,1014.72
28868,0.291726,9.7561,1.15256,1.82,-2.66,-0.14,23.1698,-47.0157,-23.5559,1014.76
28874,0.248685,9.76566,1.16691,1.82,-2.8,0.14,23.5766,-46.7381,-23.8071,1014.76
28880,0.243902,9.76088,1.17169,1.82,-2.94,-0.28,23.6637,-46.7073,-22.5216,1014.74
28886,0.263032,9.77523,1.15734,1.75,-3.15,0.21,23.6347,-46.7689,-22.2851,1014.74
28892,0.277379,9.78479,1.16691,1.89,-2.94,-0.14,23.5475,-47.9717,-22.2851,1014.74
28898,0.215208,9.79914,1.19082,1.4,-3.22,-0.35,23.6347,-47.2007,-22.2704,1014.74
28904,0.25825,9.76566,1.16212,1.75,-2.73,0,24.303,-47.3549,-22.2408,1014.74
28910,0.229555,9.76566,1.1956,2.03,-3.01,-0.07,23.1988,-47.0465,-22.4181,1014.72
28916,0.25825,9.77044,1.1956,2.24,-3.08,-0.14,22.9083,-47.725,-21.8566,1014.72
28922,0.234338,9.74653,1.16691,1.75,-3.22,-0.63,22.7049,-46.9231,-22.0044,1014.69
28928,0.21999,9.77044,1.19082,1.89,-3.29,0.07,23.257,-47.4782,-22.492,1014.69
28934,0.224773,9.73218,1.19082,1.82,-3.22,-0.07,23.0826,-47.6633,-22.6545,1014.69
28940,0.229555,9.75131,1.14778,1.82,-3.01,-0.21,22.9083,-46.2755,-22.3147,1014.69
28946,0.23912,9.78479,1.17647,1.68,-3.15,0,23.3441,-46.7689,-21.6202,1014.69
28952,0.25825,9.74653,1.18125,1.82,-3.36,0.14,23.2279,-47.1082,-22.0783,1014.71
28958,0.272597,9.7561,1.16212,1.82,-2.87,0.21,23.3151,-46.5531,-22.1521,1014.71
28964,0.253467,9.77044,1.16212,1.89,-2.94,-0.28,22.6468,-47.3549,-22.3147,1014.72
28970,0.253467,9.76088,1.18604,2.03,-3.08,-0.07,22.6177,-47.1082,-22.9796,1014.72
28976,0.25825,9.7561,1.20516,2.24,-3.01,-0.21,22.7049,-46.7998,-22.6989,1014.72
28982,0.23912,9.76088,1.18604,1.96,-3.08,-0.07,23.4603,-46.7381,-22.3886,1014.72
29000,0.25825,9.75131,1.19082,2.24,-2.66,-0.14,23.257,-46.5222,-21.4133,1014.71
29006,0.21999,9.7561,1.18125,1.54,-3.01,-0.28,23.1407,-46.5222,-21.4281,1014.72
29012,0.25825,9.77044,1.20516,1.75,-2.73,0,23.1988,-47.0465,-21.8714,1014.72
29018,0.272597,9.73697,1.19082,1.4,-2.52,-0.56,22.4434,-47.2315,-23.0092,1014.7
29024,0.25825,9.76088,1.18604,1.82,-2.66,0,23.0245,-46.5839,-22.9057,1014.7
29030,0.205643,9.77523,1.19082,1.89,-2.66,0.28,22.3852,-46.8615,-22.359,1014.67
29036,0.224773,9.72262,1.20516,2.1,-2.87,-0.42,22.8502,-47.0157,-21.8714,1014.67
29042,0.248685,9.73218,1.1956,1.4,-2.66,0.07,23.0826,-46.7073,-22.9057,1014.71
29048,0.21999,9.78479,1.20038,2.03,-3.43,0.21,22.9664,-46.7689,-22.2408,1014.71
29054,0.224773,9.7274,1.18604,1.89,-3.22,-0.28,23.3441,-46.5222,-22.5511,1014.72
29060,0.21999,9.73218,1.16691,1.75,-3.01,0.28,22.9954,-46.7998,-22.5807,1014.72
29066,0.21999,9.77044,1.16691,1.68,-3.43,0.28,23.3732,-46.7073,-22.6693,1014.72
29072,0.234338,9.74653,1.20038,1.75,-3.08,0.14,22.5886,-47.1698,-21.7532,1014.7
29078,0.25825,9.79914,1.18125,1.89,-3.22,-0.21,22.6177,-46.2755,-21.9305,1014.7
29084,0.25825,9.78957,1.16212,1.61,-3.22,17.85,23.4894,-47.2624,-22.7284,1014.74
29090,0.25825,9.78479,1.17169,2.03,-3.15,-0.28,23.4022,-46.8306,-21.7384,1014.74
29096,0.282162,9.7561,1.20516,1.54,-3.15,0,23.0826,-47.0157,-21.7532,1014.71
29102,0.291726,9.78957,1.17169,1.96,-3.5,-0.21,23.286,-47.7558,-22.4477,1014.71
29108,0.25825,9.78957,1.16212,1.75,-2.73,-0.35,23.0245,-47.3857,-22.6989,1014.72
29114,0.229555,9.7561,1.18125,1.75,-3.22,-0.21,22.9954,-47.4474,-21.4872,1014.72
29120,0.200861,9.77523,1.22429,1.54,-2.38,-0.56,23.2279,-46.7689,-21.9896,1014.72
29126,0.234338,9.76566,1.16691,1.82,-2.73,-0.07,22.8792,-47.4474,-22.8762,1014.71
29132,0.21999,9.76088,1.16691,1.54,-3.36,-0.07,22.7049,-46.7998,-22.093,1014.71
29138,0.21999,9.75131,1.18125,1.61,-3.15,-0.49,23.0826,-46.954,-21.502,1014.7
29144,0.196078,9.73218,1.20038,1.68,-2.94,-0.07,22.5305,-46.4297,-22.3886,1014.7
29150,0.200861,9.73697,1.20516,1.61,-3.22,0.35,22.8502,-47.1082,-22.6989,1014.72
29156,0.263032,9.75131,1.16212,1.75,-2.87,0.28,24.0996,-46.8923,-22.8319,1014.72
29162,0.21999,9.74653,1.21473,1.82,-2.94,0.21,23.9543,-46.7073,-22.226,1014.72
29168,0.234338,9.76566,1.18604,1.82,-2.87,0.21,24.2158,-47.8792,-22.0192,1014.72
29174,0.21999,9.73697,1.18125,1.89,-3.08,0.28,23.5766,-47.2315,-21.5759,1014.72
29180,0.263032,9.74653,1.20038,1.61,-2.73,0.21,22.6177,-46.9848,-22.6398,1014.7
29186,0.234338,9.77044,1.17647,1.68,-2.59,-0.07,23.1988,-46.1213,-22.6841,1014.7
29192,0.253467,9.77523,1.18604,1.68,-2.94,0.35,23.4022,-46.7073,-22.5954,1014.71
29198,0.25825,9.77044,1.18604,1.61,-3.08,0.07,23.0826,-46.6147,-21.9896,1014.71
29204,0.23912,9.77044,1.17647,1.68,-2.94,0.07,23.1988,-46.183,-21.3542,1014.75
29210,0.277379,9.81827,1.16212,2.1,-3.43,-0.28,23.5185,-45.9363,-21.5463,1014.75
29216,0.248685,9.78957,1.17169,1.61,-2.45,-0.21,24.2739,-46.368,-21.635,1014.71
29222,0.248685,9.76088,1.18604,1.89,-3.08,0.07,23.9543,-46.4297,-22.8762,1014.71
29228,0.234338,9.79436,1.20516,1.75,-2.8,-0.42,23.6637,-46.3063,-23.2899,1014.72
29234,0.243902,9.74653,1.18604,1.33,-3.08,-0.42,23.5185,-46.9848,-21.5759,1014.72
29240,0.248685,9.77044,1.17169,1.68,-3.01,-0.42,23.0245,-46.6456,-22.8171,1014.72
29246,0.243902,9.7561,1.18604,1.75,-2.87,-0.28,23.9253,-47.3549,-23.0978,1014.73
29252,0.196078,9.76566,1.1956,1.68,-3.29,-0.35,24.1577,-47.1698,-22.3295,1014.73
29258,0.224773,9.72262,1.20038,1.54,-3.29,-0.14,23.7509,-47.0773,-21.4872,1014.7
29264,0.200861,9.73697,1.20038,1.96,-3.5,-0.49,22.4143,-46.8306,-21.3394,1014.7
29270,0.229555,9.78001,1.15734,1.96,-2.94,0,23.3151,-46.8306,-23.3195,1014.72
29276,0.215208,9.76566,1.17647,1.82,-3.01,-0.21,23.5185,-46.6147,-22.1078,1014.72
29282,0.200861,9.74653,1.21473,2.03,-3.01,0.21,22.9664,-47.4166,-22.758,1014.74
29288,0.229555,9.78479,1.18125,2.38,-3.22,-0.42,23.6056,-46.8615,-23.4672,1014.74
29294,0.21999,9.74175,1.17169,2.17,-2.87,0.07,22.9083,-47.0465,-22.5511,1014.74
29300,0.272597,9.78001,1.17647,1.96,-2.59,-0.42,23.7219,-46.8306,-21.9896,1014.7
29306,0.23912,9.74175,1.16691,1.82,-3.22,-0.28,22.8502,-45.9979,-21.8862,1014.7
29312,0.282162,9.76088,1.15256,2.1,-3.15,0.28,22.4724,-46.2447,-22.1965,1014.71
29318,0.253467,9.77044,1.17169,1.96,-3.15,-0.35,23.4313,-47.2624,-21.4133,1014.71
29324,0.248685,9.80392,1.17647,1.61,-2.73,-0.28,22.9083,-46.6456,-22.6989,1014.75
29330,0.21999,9.76088,1.15734,1.75,-2.8,0.14,23.0245,-46.5222,-21.1917,1014.75
29336,0.23912,9.77044,1.1956,2.24,-3.43,-0.07,23.6637,-46.5222,-21.4281,1014.74
29342,0.263032,9.79436,1.21473,1.47,-2.8,-0.42,23.5766,-47.0157,-22.492,1014.74
29348,0.205643,9.74653,1.20038,1.89,-2.94,0.07,23.3441,-46.5531,-22.5954,1014.74
29354,0.196078,9.72262,1.22908,1.96,-3.71,0,22.6758,-46.4605,-22.0339,1014.73
29360,0.243902,9.77523,1.20038,2.38,-3.08,-0.28,23.3441,-47.139,-21.768,1014.73
29366,0.200861,9.76566,1.17169,2.1,-2.87,0.7,22.9954,-46.7073,-21.5611,1014.71
29372,0.200861,9.77044,1.17647,1.82,-3.01,0,22.8211,-46.6456,-22.492,1014.71
29378,0.224773,9.7561,1.19082,2.1,-3.57,-0.14,22.9083,-47.2315,-21.6645,1014.73
29384,0.23912,9.77044,1.17647,1.96,-3.22,0.14,23.4022,-46.4297,-22.3886,1014.73
29390,0.234338,9.76566,1.17169,1.82,-3.01,0.14,22.0656,-46.954,-22.6398,1014.71
29396,0.21999,9.76566,1.19082,1.89,-3.36,-0.28,22.9664,-46.368,-21.7236,1014.71
29402,0.234338,9.76566,1.17169,1.61,-3.36,0.28,22.5886,-46.6764,-21.4133,1014.73
29408,0.21999,9.76088,1.15734,1.96,-3.15,0.56,23.1407,-46.1521,-21.9453,1014.73
29414,0.210426,9.74653,1.15734,2.03,-3.36,0.28,22.6177,-47.2932,-22.1374,1014.73
29420,0.344333,9.77044,1.13821,1.89,-2.94,-0.28,22.0947,-47.0773,-23.748,1014.71
29426,0.23912,9.79914,1.15256,1.82,-3.01,-0.14,23.3732,-47.0773,-22.1817,1014.71
29432,0.234338,9.78001,1.17647,1.82,-2.94,-0.7,22.9664,-46.3372,-22.2704,1014.72
29438,0.215208,9.80392,1.19082,1.61,-3.22,-0.07,23.3732,-46.6147,-22.5954,1014.72
29444,0.263032,9.75131,1.22429,1.89,-2.94,-0.42,22.3852,-47.2007,-21.3247,1014.7
29450,0.191296,9.80392,1.15256,1.61,-3.08,-0.28,22.8502,-46.5222,-22.8466,1014.7
29456,0.186514,9.74653,1.1956,1.75,-3.29,-0.42,23.0826,-46.5222,-22.9648,1014.7
29462,0.181731,9.7561,1.20038,1.82,-3.01,-0.42,22.9954,-46.5839,-22.2999,1014.7
29468,0.215208,9.7561,1.1956,1.61,-2.66,0.14,22.763,-46.6456,-21.8271,1014.7
29474,0.191296,9.75131,1.20995,1.96,-3.36,-0.21,22.5015,-46.7073,-22.1078,1014.72
29480,0.234338,9.78001,1.18604,1.82,-2.73,-0.07,23.0826,-46.6147,-23.1126,1014.72
29486,0.253467,9.75131,1.1956,1.82,-2.66,0,23.257,-47.2007,-22.5068,1014.74
29492,0.205643,9.7561,1.15256,1.61,-3.22,0.07,23.1407,-47.4166,-23.349,1014.74
29498,0.229555,9.76088,1.17647,1.68,-3.29,0.28,23.1698,-47.2932,-22.7137,1014.71
29504,0.21999,9.75131,1.20995,1.96,-2.94,0,23.3151,-47.1082,-23.0387,1014.71
29510,0.23912,9.76566,1.17647,1.96,-3.22,0.14,23.257,-47.5708,-23.2899,1014.7
29516,0.23912,9.76088,1.20995,2.1,-2.94,0.35,22.6758,-46.4297,-22.492,1014.7
29522,0.25825,9.76566,1.16212,1.68,-2.66,0,23.0536,-46.3063,-22.758,1014.7
29528,0.25825,9.77523,1.18604,2.1,-2.94,-0.49,22.9373,-46.6147,-22.1965,1014.68
29534,0.253467,9.81349,1.15256,1.47,-2.31,0.14,22.8792,-46.9848,-21.9157,1014.68
29540,0.25825,9.77523,1.16691,1.96,-3.36,0.42,22.9954,-46.4297,-21.9157,1014.73
29546,0.224773,9.76566,1.19082,1.47,-3.22,-0.77,22.7339,-46.2755,-21.8862,1014.73
29552,0.248685,9.7561,1.17647,1.89,-3.15,-0.49,22.9954,-46.8306,-22.4477,1014.73
29558,0.248685,9.76566,1.20995,1.54,-3.08,-0.14,23.5185,-46.3063,-21.8418,1014.73
29564,0.243902,9.76088,1.18604,1.33,-3.01,-17.85,22.3852,-46.7073,-22.7137,1014.7
29570,0.25825,9.78001,1.17647,1.68,-3.29,-0.42,22.8502,-46.3372,-22.6545,1014.7
29576,0.23912,9.7561,1.18125,1.54,-2.94,-0.42,22.4143,-46.0288,-23.3786,1014.72
29582,0.25825,9.78001,1.15256,2.03,-3.08,-0.56,23.1988,-45.8437,-22.6841,1014.72
29588,0.229555,9.77044,1.16212,1.4,-3.64,-0.28,22.5886,-45.5045,-22.7875,1014.72
29594,0.200861,9.74175,1.20038,1.61,-3.78,0.21,22.9954,-45.9054,-23.4229,1014.72
29600,0.210426,9.72262,1.20995,1.82,-3.15,-0.28,22.1818,-46.7689,-22.8614,1014.72
29606,0.253467,9.73218,1.19082,1.61,-3.01,-0.21,23.2279,-46.5222,-21.1326,1014.68
29612,0.181731,9.7561,1.17169,1.68,-3.08,0.14,22.6468,-46.9231,-21.5315,1014.68
29618,0.248685,9.77523,1.15734,2.1,-3.15,-0.14,23.3732,-46.6764,-22.3886,1014.75
29624,0.234338,9.76566,1.16691,2.1,-3.64,-0.56,23.0245,-46.6764,-22.3442,1014.75
29630,0.205643,9.75131,1.14299,1.54,-3.22,-0.07,23.3151,-46.4297,-23.0683,1014.74
29636,0.263032,9.78001,1.20516,1.68,-3.15,-0.35,23.257,-46.7689,-22.6989,1014.74
29642,0.243902,9.77044,1.18604,1.82,-3.01,0.14,22.7339,-46.6147,-21.9009,1014.74
29648,0.21999,9.75131,1.18125,1.89,-2.59,0.14,22.9083,-46.7073,-21.4724,1014.73
29654,0.21999,9.78957,1.16691,1.54,-3.01,-0.63,23.5766,-46.5222,-21.5168,1014.73
29660,0.253467,9.78957,1.20516,1.4,-3.08,-0.35,22.8211,-46.3372,-22.2999,1014.68
29666,0.272597,9.7561,1.18604,1.75,-3.5,-0.21,22.8211,-46.6147,-22.2408,1014.68
29672,0.191296,9.77044,1.16691,1.68,-3.01,-0.14,23.1117,-47.0773,-22.8762,1014.7
29678,0.210426,9.77523,1.20038,1.96,-2.66,-0.35,22.4143,-46.9231,-22.8023,1014.7
29684,0.21999,9.7561,1.16212,1.26,-3.01,-0.21,23.0245,-45.9363,-22.9057,1014.7
29690,0.263032,9.7561,1.20516,1.75,-3.36,-0.14,22.6758,-46.8615,-20.9848,1014.7
29696,0.200861,9.7274,1.20516,1.96,-2.73,-0.63,22.6177,-46.183,-21.7089,1014.72
29702,0.196078,9.76088,1.1956,1.68,-2.66,-0.21,22.9083,-46.0905,-22.5216,1014.72
29708,0.229555,9.74175,1.19082,1.96,-3.01,-0.42,22.9373,-46.7381,-22.4329,1014.72
29714,0.229555,9.77044,1.20995,1.54,-2.87,-0.49,23.9253,-45.9979,-21.8566,1014.72
29720,0.224773,9.78001,1.18604,1.68,-3.29,0.21,23.7219,-46.9231,-22.4033,1014.72
29726,0.23912,9.7561,1.20516,1.68,-2.94,-0.21,23.0826,-46.8306,-22.5807,1014.69
29732,0.224773,9.76088,1.20038,2.24,-3.01,-0.49,22.9954,-46.4605,-21.6497,1014.69
29738,0.234338,9.76566,1.20516,1.61,-3.22,0.07,23.809,-46.6456,-22.1374,1014.72
29744,0.229555,9.77044,1.18125,1.61,-3.29,-0.07,22.8211,-46.8615,-21.6793,1014.72
29750,0.229555,9.78479,1.17169,1.75,-3.08,-0.63,23.7219,-46.7381,-22.0783,1014.73
29756,0.272597,9.77523,1.17169,1.47,-2.73,0.21,23.4603,-46.1213,-22.6841,1014.73
29762,0.248685,9.7561,1.15256,1.61,-2.94,0.14,22.9083,-46.0596,-21.6497,1014.73
29768,0.243902,9.78001,1.15734,1.89,-3.08,-0.7,23.6347,-46.5531,-22.8171,1014.71
29774,0.229555,9.7561,1.17169,2.1,-2.87,-0.42,23.3732,-46.0905,-22.9944,1014.71
29780,0.229555,9.79436,1.17169,1.82,-2.73,-0.63,22.8792,-46.6147,-22.3295,1014.72
29786,0.23912,9.7561,1.17647,1.82,-2.52,-0.84,23.3441,-46.4914,-22.359,1014.72
29792,0.181731,9.74653,1.19082,2.03,-3.22,-0.07,23.3151,-46.4914,-21.6054,1014.71
29798,0.186514,9.77044,1.18125,1.4,-3.15,-0.28,23.4603,-47.1698,-21.8714,1014.71
29804,0.215208,9.74653,1.22429,2.1,-2.8,-0.21,23.6928,-46.8615,-22.8614,1014.74
29810,0.186514,9.77044,1.19082,1.68,-3.08,-0.07,23.0245,-47.0157,-21.4133,1014.74
29816,0.196078,9.75131,1.16212,1.96,-3.36,-0.28,23.1117,-45.8437,-21.2803,1014.74
29822,0.215208,9.7561,1.17169,2.03,-3.22,-0.07,23.0536,-46.7998,-22.7432,1014.77
29828,0.191296,9.75131,1.17169,1.33,-2.94,-0.14,23.8962,-46.8306,-21.9305,1014.77
29834,0.196078,9.73218,1.15734,1.68,-2.87,0.21,23.4603,-46.8306,-21.1621,1014.74
29840,0.210426,9.74175,1.20516,2.03,-3.01,0.14,23.4894,-46.8923,-21.8271,1014.74
29846,0.21999,9.76566,1.17169,1.4,-3.01,0.49,22.9954,-46.368,-21.8862,1014.72
29852,0.23912,9.78957,1.1956,1.68,-2.8,0,23.286,-47.2315,-22.2113,1014.72
29858,0.224773,9.77523,1.18125,1.61,-2.73,0,23.1698,-47.1082,-21.4133,1014.74
29864,0.243902,9.77044,1.20995,1.61,-3.22,0.07,23.1407,-47.5091,-22.4181,1014.74
29870,0.23912,9.79436,1.21473,2.17,-3.01,0.21,23.5475,-46.8615,-22.6102,1014.76
29876,0.248685,9.78001,1.16212,1.47,-3.01,-0.35,24.0124,-46.6456,-22.0783,1014.76
29882,0.23912,9.78479,1.18604,1.61,-2.87,-0.42,23.3441,-46.5222,-21.4577,1014.76
29888,0.23912,9.77044,1.17647,1.61,-3.08,-0.28,23.4022,-46.368,-22.4329,1014.73
29894,0.243902,9.7561,1.21951,2.24,-3.01,-0.21,23.1698,-46.8306,-22.5659,1014.73
29900,0.267814,9.78001,1.16212,1.75,-3.22,-0.56,23.5475,-47.0773,-23.1422,1014.75
29906,0.234338,9.77523,1.1956,1.82,-2.52,-0.35,23.1698,-46.6764,-20.9848,1014.75
29912,0.153037,9.76088,1.20995,1.82,-3.15,-0.7,23.0245,-46.8615,-23.1126,1014.73
29918,0.205643,9.76566,1.23386,1.54,-3.22,-0.14,22.9664,-47.2932,-22.5954,1014.73
29924,0.191296,9.74653,1.14299,1.54,-3.01,-0.07,23.0536,-46.7689,-23.0092,1014.72
29930,0.186514,9.77523,1.15734,1.61,-3.15,-0.28,22.6177,-47.8483,-22.9057,1014.72
29936,0.224773,9.7561,1.17169,1.54,-3.22,-0.28,22.6177,-47.7866,-21.0144,1014.72
29942,0.21999,9.78957,1.15734,1.4,-3.15,-0.49,23.3732,-46.9848,-20.4529,1014.71
29948,0.215208,9.78001,1.16212,1.96,-3.15,0,22.3852,-47.139,-21.2508,1014.71
29954,0.210426,9.78957,1.13821,1.61,-3.5,0.07,22.9373,-47.2932,-22.226,1014.73
29960,0.205643,9.7561,1.16212,1.61,-2.87,-0.14,23.5766,-47.0465,-22.1669,1014.73
29966,0.215208,9.74175,1.20995,2.03,-2.87,-0.14,23.5185,-46.368,-20.9553,1014.71
29972,0.186514,9.67001,1.30081,1.96,-2.59,0.14,23.5185,-46.5531,-21.3838,1014.71
29978,0.186514,9.81827,1.13821,2.03,-3.29,0.14,23.4313,-47.0465,-22.0635,1014.73
29984,0.253467,9.77523,1.13821,2.03,-3.22,0.42,23.5185,-46.4297,-22.5511,1014.73
29990,0.253467,8.58441,1.17647,1.68,-3.57,0.07,22.6177,-46.8923,-22.7137,1014.73
29996,0.243902,9.78479,1.18604,1.82,-2.87,-0.63,23.6928,-46.6456,-21.4577,1014.72
30002,0.224773,9.78957,1.1956,1.54,-3.29,-0.91,24.4483,-46.8615,-21.8418,1014.72
30008,0.23912,9.76566,1.20995,1.4,-3.15,-0.28,23.3151,-46.3063,-22.3886,1014.73
30014,0.253467,9.82783,1.15256,1.82,-2.66,-0.77,23.1117,-47.3857,-21.5906,1014.73
30020,0.200861,9.78957,1.18125,1.54,-2.8,-0.91,23.3151,-47.1698,-21.9009,1014.73
30026,0.196078,9.77044,1.24342,1.47,-3.22,-0.28,23.5766,-46.8923,-22.0783,1014.73
30032,0.224773,9.76088,1.20038,1.33,-3.22,-0.07,23.3732,-47.4166,-23.4229,1014.71
30038,0.224773,9.7274,1.22908,1.96,-2.59,-0.77,23.78,-46.8923,-22.5511,1014.71
30044,0.191296,9.73697,1.21473,1.82,-3.22,17.36,23.1698,-47.2315,-22.6841,1014.71
30050,0.224773,9.74653,1.20516,1.75,-3.15,-0.56,22.9664,-47.139,-22.4329,1014.71
30056,0.210426,9.77523,1.20516,1.61,-3.43,0.07,23.8671,-47.3857,-22.7284,1014.71
30062,0.229555,9.73697,1.20995,2.03,-3.22,0.49,22.8502,-47.2624,-22.7284,1014.71
30068,0.229555,9.76088,1.16212,1.54,-2.8,-0.07,23.3732,-46.6147,-23.1422,1014.71
30074,0.21999,9.76088,1.20516,1.75,-3.29,-0.21,23.3732,-46.8923,-22.226,1014.71
30080,0.248685,9.76088,1.17647,1.68,-3.08,-0.21,22.9083,-47.7558,-23.3047,1014.71
30086,0.224773,9.77044,1.17647,1.75,-2.59,0.07,22.9083,-47.6324,-21.6054,1014.73
30092,0.210426,9.77044,1.20516,1.4,-2.8,-0.28,23.0826,-46.7073,-22.6102,1014.73
30098,0.253467,9.79914,1.19082,1.82,-3.5,-0.21,23.4313,-47.139,-22.8614,1014.72
30104,0.296509,9.79914,1.17647,1.54,-2.8,-0.14,23.4894,-47.2624,-23.349,1014.72
30110,0.248685,9.76088,1.20038,1.82,-3.29,-0.56,23.4313,-47.0773,-21.1769,1014.72
30116,0.23912,9.77523,1.20516,1.05,-2.73,-0.49,23.1407,-46.8923,-21.8418,1014.73
30122,0.23912,9.76566,1.21473,1.61,-2.87,-0.84,22.7049,-45.9671,-22.492,1014.73
30128,0.162602,9.78001,1.20516,1.05,-2.87,-0.28,23.3441,-46.8306,-22.2408,1014.72
30134,0.196078,9.75131,1.24342,1.75,-2.8,-0.42,22.3852,-47.4474,-21.9601,1014.72
30140,0.205643,9.74175,1.20995,1.68,-2.66,-0.63,22.4143,-46.6147,-22.6989,1014.71
30146,0.205643,9.76566,1.20995,1.61,-2.52,-0.28,22.8792,-47.0465,-22.4772,1014.71
30152,0.205643,9.75131,1.21951,1.75,-3.15,-0.07,22.792,-46.6764,-22.5954,1014.69
30158,0.205643,9.73697,1.22908,1.33,-3.01,-0.35,22.763,-46.3989,-22.1374,1014.69
30164,0.200861,9.77523,1.20995,1.47,-2.87,-0.14,23.0536,-47.0773,-22.8466,1014.69
30170,0.200861,9.7561,1.22908,1.75,-3.36,-0.21,22.5886,-47.2007,-21.6941,1014.71
30176,0.167384,9.75131,1.19082,2.03,-3.29,0.21,22.3852,-47.3857,-22.7137,1014.71
30182,0.200861,9.74175,1.1956,1.75,-2.8,-0.21,22.6468,-47.1082,-23.9992,1014.72
30188,0.210426,9.7561,1.22908,2.24,-3.01,0.21,23.3441,-46.8306,-21.9748,1014.72
30194,0.23912,9.77523,1.20995,1.68,-2.66,0.21,22.9954,-46.7073,-22.4477,1014.71
30200,0.229555,9.78479,1.18604,1.54,-3.15,0,22.9954,-46.4605,-22.3147,1014.71
30206,0.234338,9.78001,1.1956,1.96,-3.15,0.14,22.792,-47.6633,-22.6398,1014.73
30212,0.253467,9.78001,1.19082,1.54,-3.01,-0.14,22.9664,-47.6016,-21.6793,1014.73
30218,0.234338,9.82783,1.18604,1.54,-3.36,-0.56,23.6347,-46.5839,-21.0882,1014.7
30224,0.234338,9.78479,1.21951,1.82,-2.8,-0.49,22.8502,-47.2315,-22.0192,1014.7
30230,0.205643,9.73697,1.20516,1.75,-2.94,-0.49,23.286,-47.5399,-22.7432,1014.7
30236,0.176949,9.78001,1.20995,2.03,-2.87,-0.56,23.5766,-47.1082,-22.5216,1014.72
30242,0.224773,9.7561,1.20038,1.68,-3.29,-0.98,23.6637,-46.4914,-21.9453,1014.72
30248,0.21999,9.76566,1.21473,2.17,-3.01,-0.28,23.4894,-47.0157,-21.5168,1014.72
30254,0.200861,9.77523,1.17647,1.89,-2.38,-0.49,22.6468,-46.4914,-21.8123,1014.72
30260,0.200861,9.76566,1.20516,1.89,-2.38,0.07,22.7339,-47.8483,-21.8123,1014.73
30266,0.191296,9.76088,1.1956,1.4,-2.8,-0.35,22.5596,-46.9231,-23.0092,1014.73
30272,0.215208,9.77044,1.20516,1.47,-3.36,0,23.1988,-46.8923,-22.1078,1014.71
30278,0.215208,9.75131,1.20995,1.96,-3.01,0.07,22.792,-46.368,-21.0291,1014.71
30284,0.21999,9.76088,1.21473,1.61,-2.8,-0.35,22.9954,-47.5708,-21.502,1014.71
30290,0.191296,9.72262,1.22429,1.75,-2.94,-0.21,23.1698,-46.8615,-21.5463,1014.72
30296,0.200861,9.7561,1.20038,2.1,-3.43,-0.21,23.0826,-46.954,-20.8518,1014.72
30302,0.243902,9.76088,1.21473,1.54,-3.71,-0.07,23.286,-46.7381,-21.2065,1014.73
30308,0.224773,9.77044,1.14299,1.82,-3.29,-0.14,23.1988,-46.7381,-22.2704,1014.73
30314,0.23912,9.77523,1.18125,1.68,-2.66,-0.7,22.9664,-46.4914,-22.891,1014.73
30320,0.23912,9.75131,1.20516,1.96,-2.87,-0.63,22.792,-47.3857,-22.359,1014.73
30326,0.200861,9.79436,1.18125,1.4,-2.87,-0.35,23.6637,-47.2007,-21.8418,1014.73
30332,0.21999,9.78479,1.1956,2.17,-2.94,-0.14,23.6637,-47.4782,-21.6054,1014.73
30338,0.215208,9.77044,1.19082,1.68,-2.87,0,23.1407,-46.954,-21.4281,1014.73
30344,0.248685,9.80392,1.18125,1.96,-2.94,-0.7,23.1988,-47.2932,-23.1717,1014.71
30350,0.148254,9.76566,1.19082,1.82,-3.29,-0.7,23.6928,-47.4166,-20.8223,1014.71
30356,0.148254,9.73218,1.21951,1.47,-2.94,0,23.6928,-47.2624,-21.8418,1014.76
30362,0.186514,9.72262,1.20516,1.54,-3.36,-0.14,22.8502,-47.5399,-21.7236,1014.76
30368,0.196078,9.74175,1.20516,1.75,-3.36,-0.28,23.7219,-46.6147,-20.8075,1014.72
30374,0.191296,9.74175,1.20516,1.96,-3.36,-0.42,23.6928,-47.5091,-21.8123,1014.72
30380,0.191296,9.7561,1.1956,1.75,-3.43,-0.14,23.286,-47.5399,-22.0192,1014.72
30386,0.200861,9.77044,1.22429,2.1,-3.5,17.71,23.4022,-46.9848,-21.0291,1014.72
30392,0.224773,9.73697,1.19082,1.75,-3.22,0.21,23.6056,-47.1082,-22.093,1014.71
30398,0.23912,9.78957,1.15734,1.96,-3.43,0.28,22.9954,-47.4782,-21.3099,1014.71
30404,0.224773,9.76566,1.19082,1.82,-2.87,0.14,23.7219,-46.954,-21.0144,1014.71
30410,0.210426,9.78001,1.17647,1.75,-2.94,0.07,23.4603,-47.1082,-21.2508,1014.72
30416,0.21999,9.78479,1.17169,2.03,-3.01,-0.14,23.4894,-47.6016,-21.4133,1014.72
30422,0.234338,9.80392,1.19082,1.75,-3.15,-0.14,22.9954,-46.6764,-21.7384,1014.73
30428,0.243902,9.79436,1.18604,1.89,-2.94,-0.42,23.6056,-46.954,-21.502,1014.73
30434,0.234338,9.78479,1.16691,1.61,-2.73,-0.21,24.0996,-46.3372,-22.0635,1014.75
30440,0.191296,9.77523,1.18604,1.54,-2.8,-0.56,23.9543,-45.9363,-21.4133,1014.75
30446,0.200861,9.80392,1.22908,1.12,-3.15,-0.56,23.4894,-46.7381,-22.6102,1014.74
30452,0.205643,9.76566,1.17169,1.82,-2.87,-0.14,23.257,-45.9979,-22.0192,1014.74
30458,0.181731,9.78957,1.18604,1.68,-2.94,-0.42,23.6347,-46.7689,-21.6202,1014.74
30464,0.210426,9.68914,1.23864,1.47,-2.8,0.07,23.78,-46.8306,-22.0192,1014.73
30470,0.21999,9.74653,1.22429,1.75,-3.15,-0.21,24.3321,-47.1698,-22.8319,1014.73
30476,0.196078,9.74175,1.1956,1.61,-2.59,-0.21,22.9083,-46.954,-22.4625,1014.71
30482,0.191296,9.75131,1.19082,1.89,-2.8,-0.35,23.1698,-46.4914,-21.4281,1014.71
30488,0.191296,9.73697,1.20516,1.68,-3.22,0.21,23.4894,-47.0773,-21.8271,1014.71
30494,0.176949,9.75131,1.20516,1.96,-2.66,0,23.6928,-47.2315,-22.6693,1014.71
30500,0.200861,9.7561,1.1956,2.31,-3.01,-0.14,23.0245,-47.0157,-21.6054,1014.71
30506,0.224773,9.76088,1.19082,1.61,-2.87,-0.07,22.763,-47.2315,-22.7284,1014.71
30512,0.229555,9.76088,1.20038,2.03,-3.29,0.14,23.5475,-46.5222,-22.8171,1014.71
30518,0.210426,9.73697,1.1956,1.4,-3.01,-0.07,23.1698,-46.954,-22.5216,1014.73
30524,0.215208,9.75131,1.19082,1.96,-2.8,0.14,22.9664,-46.6764,-22.6693,1014.73
30530,0.229555,9.78479,1.20516,1.68,-2.94,-0.42,23.4894,-46.8923,-21.7827,1014.75
30536,0.234338,9.79914,1.16212,1.75,-2.94,-0.21,23.3732,-46.7998,-22.1521,1014.75
30542,0.167384,9.7561,1.18125,1.61,-2.66,-0.07,23.3151,-46.8923,-22.2408,1014.7
30548,0.167384,9.79914,1.19082,1.89,-3.57,-0.35,23.6347,-47.0157,-22.492,1014.7
30554,0.243902,9.76088,1.1956,1.75,-3.22,-0.35,23.6928,-46.4914,-21.1621,1014.71
30560,0.21999,9.72262,1.18125,1.61,-2.87,-0.07,23.7219,-47.4782,-21.8862,1014.71
30566,0.157819,9.77044,1.21951,1.96,-3.15,-0.21,24.303,-47.0157,-21.9157,1014.73
30572,0.186514,9.78957,1.16691,1.33,-2.52,0,23.4313,-47.1698,-22.8319,1014.73
30578,0.210426,9.72262,1.20516,1.47,-2.73,-0.35,23.2279,-47.0773,-22.6841,1014.73
30584,0.191296,9.73697,1.1956,1.89,-3.43,-0.42,23.6637,-47.0157,-21.3247,1014.72
30590,0.172166,9.76566,1.20995,1.75,-2.94,0.28,24.3611,-46.9231,-22.9501,1014.72
30596,0.176949,9.75131,1.22429,2.24,-3.43,-0.07,23.4894,-46.5222,-22.0635,1014.71
30602,0.205643,9.7561,1.20995,1.82,-3.36,-0.07,23.8381,-47.3549,-21.0439,1014.71
30608,0.21999,9.75131,1.19082,1.75,-2.94,-0.07,23.4603,-46.6764,-21.8566,1014.71
30614,0.181731,9.79436,1.22429,1.89,-3.15,-0.49,23.6056,-46.9231,-22.3147,1014.71
30620,0.229555,9.76566,1.24821,1.68,-2.73,-0.07,23.6928,-46.7381,-22.1965,1014.75
30626,0.224773,9.78479,1.1956,1.75,-3.15,0,23.1117,-46.6147,-21.8566,1014.75
30632,0.215208,9.73697,1.23864,1.26,-2.87,0.14,23.1698,-46.1213,-21.5759,1014.75
30638,0.186514,9.74653,1.15734,1.96,-3.43,-0.07,23.5185,-47.5708,-21.6202,1014.71
30644,0.229555,9.77523,1.19082,1.75,-2.66,-0.14,23.8671,-46.183,-22.0783,1014.71
30650,0.210426,9.76088,1.23864,1.61,-3.43,-0.35,23.4603,-46.6764,-22.4772,1014.71
30656,0.176949,9.78957,1.22429,1.54,-3.15,-0.42,23.9253,-46.1521,-21.2656,1014.71
30662,0.196078,9.77523,1.22429,1.75,-2.73,-0.35,23.1407,-46.7689,-22.5659,1014.72
30668,0.196078,9.78001,1.22908,2.1,-3.15,-0.21,23.7219,-46.5839,-21.6645,1014.72
30674,0.21999,9.77044,1.1956,1.89,-3.08,0.21,22.9954,-47.2007,-21.6941,1014.72
30680,0.210426,9.7561,1.20995,1.75,-2.94,-0.21,23.1988,-46.0905,-20.9405,1014.72
30686,0.200861,9.77523,1.21473,1.75,-3.08,0.21,23.9253,-46.2755,-22.4772,1014.72
30692,0.191296,9.73697,1.19082,1.89,-3.08,0,23.5475,-46.9231,-23.5264,1014.71
30698,0.157819,9.73697,1.23386,1.89,-3.15,-0.21,23.5766,-46.9848,-22.5659,1014.71
30704,0.191296,9.76566,1.20995,1.68,-3.22,-0.07,23.6637,-47.2007,-22.5363,1014.68
30710,0.21999,9.75131,1.18604,2.24,-3.15,-0.21,23.9253,-46.8615,-23.0387,1014.68
30716,0.205643,9.77044,1.18604,1.68,-3.15,0.7,23.5766,-46.8306,-21.7236,1014.74
30722,0.191296,9.77523,1.1956,1.61,-3.5,0.14,23.6637,-46.7998,-21.8418,1014.74
30728,0.176949,9.76088,1.20038,1.82,-2.94,17.85,24.4192,-46.5531,-22.3295,1014.73
30734,0.229555,9.77523,1.15256,1.96,-2.87,0.35,24.3611,-47.1082,-22.0339,1014.73
30740,0.21999,9.81349,1.20038,1.82,-2.59,-0.14,23.286,-46.8923,-22.9796,1014.75
30746,0.224773,9.78001,1.22908,1.61,-3.01,-0.07,24.303,-47.4474,-22.2851,1014.75
30752,0.224773,9.78957,1.21473,1.68,-3.36,-0.07,23.4894,-47.3857,-21.5906,1014.75
30758,0.21999,9.78001,1.15256,1.68,-3.43,-0.42,24.1868,-46.7073,-22.8023,1014.71
30764,0.215208,9.7561,1.21473,1.54,-2.87,-0.21,23.78,-46.9231,-21.768,1014.71
30770,0.253467,9.74175,1.23386,1.96,-2.73,-0.21,23.9253,-46.5531,-22.3295,1014.74
30776,0.176949,9.76088,1.21473,1.68,-2.8,-0.21,23.8671,-46.3372,-21.8123,1014.74
30782,0.186514,9.78001,1.20995,1.82,-3.15,0.21,23.9543,-46.4605,-21.9748,1014.71
30788,0.167384,9.75131,1.21951,1.4,-3.15,0,23.1988,-46.7073,-22.1669,1014.71
30794,0.205643,9.77523,1.23386,1.26,-3.01,0.14,24.0415,-47.2932,-22.5807,1014.74
30800,0.172166,9.77044,1.1956,1.75,-3.22,-0.21,24.3611,-46.4605,-21.7975,1014.74
30806,0.205643,9.75131,1.18604,1.82,-3.01,-0.07,23.78,-47.4782,-21.9748,1014.74
30812,0.21999,9.76566,1.18604,1.75,-2.66,0.21,23.4894,-46.9848,-22.2704,1014.73
30818,0.162602,9.7561,1.17169,2.03,-3.01,-0.21,23.6928,-46.8615,-21.4872,1014.73
30824,0.224773,9.77523,1.21951,1.47,-3.15,0.07,23.809,-46.5222,-21.5463,1014.73
30830,0.200861,9.78957,1.20516,1.96,-3.29,-0.14,24.303,-47.2007,-22.4772,1014.73
30836,0.234338,9.78479,1.20516,1.68,-2.59,-0.21,23.2279,-46.6456,-22.1669,1014.72
30842,0.196078,9.77044,1.19082,2.03,-3.08,0.35,23.3732,-46.8923,-22.8614,1014.72
30848,0.224773,9.7561,1.22908,1.05,-2.87,0.28,23.3151,-46.8306,-22.1965,1014.72
30854,0.153037,9.7274,1.21951,1.89,-2.59,0.42,23.5766,-46.7998,-22.4329,1014.72
30860,0.0765184,9.67001,1.3582,1.89,-4.13,0.7,23.6347,-47.1698,-22.3886,1014.72
30866,0.344333,9.8087,1.08082,2.31,-2.59,17.78,23.5185,-47.2315,-21.6202,1014.71
30872,0.200861,9.87087,1.20516,1.61,-3.99,0,23.5185,-46.2447,-22.9057,1014.71
30878,0.124342,9.73697,1.31994,2.03,-3.01,-0.35,23.78,-46.3989,-21.5315,1014.67
30884,0.181731,9.80392,1.17647,1.89,-2.8,-0.21,23.5185,-47.6941,-22.5363,1014.67
30890,0.172166,9.78001,1.23864,1.75,-3.22,0.07,23.4022,-47.0157,-22.4477,1014.73
30896,0.253467,9.76088,1.17647,1.89,-3.29,0.21,23.8962,-46.9231,-21.9009,1014.73
30902,0.229555,9.75131,1.20995,1.68,-3.08,-0.21,23.5475,-47.0773,-22.8023,1014.72
30908,0.191296,9.81827,1.17647,1.47,-2.8,-0.07,23.5475,-46.5839,-22.8319,1014.72
30914,0.196078,9.74175,1.18604,1.82,-2.8,-0.14,22.9664,-46.7689,-23.0978,1014.7
30920,0.181731,9.77044,1.23864,1.61,-3.43,-0.14,22.9954,-46.8615,-22.3147,1014.7
30926,0.210426,9.75131,1.20516,1.61,-2.94,0.14,23.1117,-46.8923,-22.891,1014.7
30932,0.200861,9.77044,1.20516,1.68,-3.08,-0.28,24.0705,-46.8615,-22.8319,1014.75
30938,0.229555,9.76566,1.20995,1.54,-3.15,-0.63,23.6637,-47.0157,-22.1374,1014.75
30944,0.181731,9.7561,0.0095648,1.47,-2.8,-0.21,24.6226,-47.0773,-21.6202,1014.72
30950,0.205643,9.7561,1.21951,1.89,-3.22,0.42,23.78,-46.7689,-21.9453,1014.72
30956,0.23912,9.76566,1.21473,2.38,-3.64,-0.35,23.4603,-46.8306,-21.8123,1014.72
30962,0.23912,9.78001,1.21473,1.4,-2.8,-0.14,23.4313,-47.0465,-23.0978,1014.72
30968,0.205643,9.79436,1.1956,2.1,-2.8,0.07,23.286,-47.5399,-23.3047,1014.74
30974,0.210426,9.76566,1.17647,1.75,-2.59,-0.21,23.5185,-47.2932,-22.5216,1014.74
30980,0.186514,9.7561,1.22429,1.54,-2.8,-0.35,23.1698,-46.9848,-23.024,1014.74
30986,0.21999,9.76088,1.22429,1.82,-3.36,-0.56,23.6347,-47.2624,-23.2752,1014.74
30992,0.21999,9.77044,1.19082,1.75,-3.36,-0.35,22.763,-47.5399,-22.0192,1014.74
30998,0.191296,9.77044,1.24342,1.75,-2.94,-0.35,23.7509,-46.7381,-21.8271,1014.71
31004,0.176949,9.76088,1.1956,1.4,-2.45,-0.35,23.6056,-46.8615,-22.9205,1014.71
31010,0.234338,9.77523,1.22908,1.68,-2.94,-0.49,23.809,-47.1698,-22.4477,1014.72
31016,0.210426,9.74653,1.22429,1.82,-2.73,-0.21,23.7509,-46.9848,-22.9648,1014.72
31022,0.167384,9.75131,1.22908,1.89,-3.36,-0.21,23.2279,-46.9848,-23.0535,1014.75
31028,0.167384,9.77523,1.20038,1.54,-3.36,-0.35,23.2279,-47.1082,-22.7728,1014.75
31034,0.23912,9.78001,1.20995,1.75,-2.8,-0.35,23.6347,-47.5091,-22.359,1014.75
31040,0.172166,9.76088,1.22429,1.75,-3.08,-0.14,23.8671,-47.4474,-21.8123,1014.72
31046,0.181731,9.73697,1.20995,1.68,-2.87,-0.21,23.3441,-47.3857,-22.8171,1014.72
31052,0.176949,9.77523,1.21473,1.61,-3.01,-0.07,23.6928,-47.2315,-22.4625,1014.73
31058,0.196078,9.74653,1.24821,2.1,-3.5,-0.14,23.6928,-46.5222,-23.2456,1014.73
31064,0.215208,9.74175,1.21951,1.82,-3.29,0.21,23.5185,-47.4782,-21.9305,1014.73
31070,0.196078,9.74653,1.21473,1.75,-2.87,0.14,23.3151,-47.139,-22.8762,1014.73
31076,0.191296,9.7561,1.18604,1.82,-3.08,-0.07,23.1407,-47.2315,-22.5659,1014.74
31082,0.205643,9.78479,0,1.75,-2.8,-0.28,22.4434,-46.5839,-22.5511,1014.74
31088,0.210426,9.77523,1.20038,1.61,-3.01,-0.42,22.7049,-46.0288,-23.8958,1014.75
31094,0.196078,9.76088,1.22908,1.61,-2.87,-0.35,22.5596,-46.7689,-23.0831,1014.75
31100,0.210426,9.78001,1.22429,1.82,-3.15,-0.35,22.6177,-46.9848,-22.2999,1014.75
31106,0.229555,9.78479,1.23386,1.75,-2.8,-0.42,23.5475,-47.3549,-22.4181,1014.71
31112,0.215208,9.77523,1.20516,1.75,-3.43,-0.56,22.6468,-47.2624,-22.891,1014.71
31118,0.181731,9.77044,1.1956,1.61,-2.87,-0.84,23.9834,-46.4914,-22.4329,1014.71
31124,0.148254,9.7274,1.22908,1.47,-2.66,-0.28,22.9083,-46.4605,-23.5707,1014.71
31130,0.205643,9.77044,1.22908,1.47,-3.15,-0.28,22.8211,-47.4782,-22.6398,1014.73
31136,0.210426,9.7561,1.23864,1.75,-3.22,-0.56,23.1117,-46.0905,-23.2308,1014.73
31142,0.148254,9.75131,1.22908,2.03,-2.94,-0.28,23.2279,-46.7381,-22.4181,1014.75
31148,0.153037,9.77044,1.21473,1.89,-3.22,-0.28,23.0826,-45.9979,-21.1917,1014.75
31154,0.153037,9.7274,1.22429,2.1,-2.94,-0.14,22.9373,-46.368,-22.2556,1014.75
31160,0.200861,9.75131,1.18125,2.31,-2.52,0.56,23.4022,-46.5531,-22.7728,1014.73
31166,0.191296,9.7561,1.19082,1.75,-3.36,-0.21,23.5185,-46.7381,-21.1917,1014.73
31172,0.224773,9.75131,1.17647,2.17,-3.15,-0.07,23.8962,-46.5531,-21.9453,1014.72
31178,0.191296,9.76566,1.21473,1.82,-3.08,0.35,23.5185,-46.5222,-21.103,1014.72
31184,0.21999,9.79914,1.18125,1.61,-3.36,0,23.78,-46.6147,-21.7384,1014.71
31190,0.196078,9.78479,1.20516,1.4,-2.87,-0.42,23.3732,-46.6456,-22.0487,1014.71
31196,0.215208,9.78957,1.18604,1.61,-2.73,0.28,23.257,-47.2315,-22.2999,1014.75
31202,0.200861,9.77523,1.18604,1.47,-3.01,-0.7,23.4894,-47.2315,-22.5216,1014.75
31208,0.205643,9.74653,1.16691,1.61,-3.36,-0.49,23.8381,-46.8306,-23.6298,1014.75
31214,0.210426,9.76088,1.17169,1.33,-3.08,-0.35,24.0415,-46.9231,-21.7975,1014.73
31220,0.200861,9.76088,1.20516,1.68,-2.94,-0.49,23.1988,-46.7381,-24.1322,1014.73
31226,0.153037,9.74175,1.29125,1.54,-3.01,-0.28,23.257,-47.0465,-23.2752,1014.72
31232,0.181731,9.75131,1.25299,1.75,-3.08,0,23.286,-47.1082,-22.2999,1014.72
31238,0.186514,9.75131,1.25777,1.89,-2.94,-0.14,23.78,-46.9848,-22.4033,1014.73
31244,0.196078,9.78001,1.20995,1.82,-2.94,-0.35,23.286,-46.7073,-22.6693,1014.73
31250,0.176949,9.74175,1.21951,1.75,-3.08,-0.21,23.5185,-46.5531,-22.5954,1014.73
31256,0.167384,9.75131,1.21951,1.54,-2.8,0.21,23.5766,-46.5222,-22.6841,1014.73
31262,0.186514,9.76088,1.21473,1.89,-2.94,-0.35,23.9543,-46.1521,-21.6793,1014.71
31268,0.176949,9.7274,1.16691,1.75,-2.94,-0.28,23.4894,-46.6456,-22.2113,1014.71
31274,0.186514,9.7561,1.21473,1.75,-2.94,0.14,23.6637,-46.7073,-22.7875,1014.71
31280,0.196078,9.73697,1.21951,1.75,-3.36,-0.28,23.1117,-46.4297,-22.9944,1014.73
31286,0.21999,9.78479,1.20038,1.68,-3.01,0.28,23.78,-46.954,-21.9157,1014.73
31292,0.200861,9.77044,1.20995,2.1,-3.01,0.14,22.9373,-46.6456,-21.7532,1014.71
31298,0.23912,9.8087,1.14778,1.68,-2.94,-0.84,23.0826,-47.2007,-22.0487,1014.71
31304,0.229555,9.79436,1.20995,1.96,-3.29,-0.21,23.5766,-46.954,-22.1078,1014.73
31310,0.224773,9.79914,1.1956,1.75,-3.01,-0.14,23.5185,-46.8923,-23.2456,1014.73
31316,0.215208,9.76088,1.25777,2.03,-2.8,-0.14,23.2279,-46.9231,-22.7728,1014.73
31322,0.200861,9.77523,1.21951,1.4,-2.66,-0.63,23.4313,-47.5399,-22.2113,1014.73
31328,0.205643,9.7561,1.23386,1.54,-3.01,0.14,23.809,-46.8923,-22.758,1014.73
31334,0.191296,9.7561,1.26255,1.96,-3.22,-0.28,23.8381,-46.7998,-22.2999,1014.77
31340,0.157819,9.75131,1.22908,1.75,-2.87,-0.49,23.1117,-47.2624,-22.6989,1014.77
31346,0.153037,9.77044,1.21951,1.68,-3.22,-0.21,22.9083,-46.954,-22.0044,1014.72
31352,0.181731,9.7274,1.22429,1.75,-3.01,-0.42,23.0536,-47.0465,-22.5659,1014.72
31358,0.148254,9.72262,1.20038,1.89,-3.29,-0.14,22.9954,-46.8306,-22.9205,1014.72
31364,0.196078,9.74175,1.23864,1.75,-3.5,-0.14,22.8502,-47.3549,-23.3786,1014.72
31370,0.215208,9.77523,1.15734,1.82,-2.94,0.21,22.3271,-47.0465,-24.014,1014.74
31376,0.167384,9.74653,1.26734,1.82,-3.01,-0.21,23.0245,-47.4166,-22.9501,1014.74
31382,0.23912,9.76566,1.18604,1.68,-3.08,0.14,23.6347,-47.6941,-22.9648,1014.74
31388,0.167384,9.76566,1.20516,2.1,-3.29,0.21,22.9664,-46.9848,-23.0092,1014.72
31394,0.172166,9.78001,1.20516,1.75,-3.15,-0.14,23.6637,-46.4605,-22.2408,1014.72
31400,0.215208,9.76088,1.21473,1.75,-3.15,-0.14,22.8502,-46.8923,-22.7432,1014.72
31406,0.210426,9.75131,1.22429,1.96,-3.36,0.21,24.2158,-46.5839,-23.3638,1014.72
31412,0.243902,9.76088,1.20516,1.82,-2.8,-0.21,23.3441,-46.3989,-21.6941,1014.7
31418,0.167384,9.77044,1.20516,1.75,-2.94,-0.35,23.1407,-47.0465,-23.0978,1014.7
31424,0.229555,9.78479,1.20516,1.75,-2.73,-0.28,23.4313,-46.3063,-23.0092,1014.71
31430,0.200861,9.7561,1.20995,1.82,-3.36,-0.42,22.9373,-46.6456,-23.1126,1014.71
31436,0.176949,9.77044,1.20995,1.75,-2.87,-0.42,23.1407,-46.4914,-22.1669,1014.74
31442,0.148254,9.7274,1.23864,1.68,-3.22,-0.14,22.9083,-46.5222,-22.492,1014.74
31448,0.21999,9.76566,1.23386,1.54,-2.8,-0.35,22.792,-47.6941,-23.1126,1014.74
31454,0.196078,9.79914,1.18125,1.68,-3.29,-0.14,22.8792,-47.3857,-22.758,1014.72
31460,0.148254,9.74175,1.22429,1.75,-3.36,-0.21,23.1117,-46.3372,-22.4477,1014.72
31466,0.133907,9.73697,1.30081,1.82,-3.43,0.07,23.1407,-46.7381,-23.6593,1014.71
31472,0.172166,9.74653,1.21951,1.68,-2.94,-0.49,23.809,-47.4782,-22.5659,1014.71
31478,0.167384,9.74653,1.18604,1.89,-3.22,-0.21,22.9954,-46.1213,-22.7137,1014.74
31484,0.191296,9.77044,1.20516,1.54,-2.94,0.21,23.3441,-46.9231,-22.7284,1014.74
31490,0.176949,9.76566,1.22429,1.33,-2.73,-0.14,23.6928,-46.8615,-22.8171,1014.72
31496,0.181731,9.74175,1.21951,1.54,-2.87,0,23.286,-47.5708,-22.4772,1014.72
31502,0.176949,9.7561,1.21951,2.03,-3.15,0.07,23.1988,-46.2447,-22.4329,1014.72
31508,0.176949,9.77523,1.20516,1.82,-2.66,0.14,23.3151,-46.8306,-22.2999,1014.69
31514,0.215208,9.77523,1.20038,1.75,-2.73,-0.07,24.1868,-46.9848,-22.8319,1014.69
31520,0.253467,9.79914,1.20038,1.47,-3.29,0.14,23.4022,-46.5839,-21.7236,1014.71
31526,0.243902,9.78479,1.20516,2.03,-3.01,-0.49,22.9664,-46.5531,-21.502,1014.71
31532,0.224773,9.79436,1.22908,1.75,-3.01,-0.42,23.5185,-46.2447,-23.1865,1014.75
31538,0.167384,9.77523,1.23386,1.19,-3.29,-0.56,23.1407,-47.0465,-21.5315,1014.75
31544,0.200861,9.79914,1.22429,1.54,-3.15,-0.49,23.0245,-46.1213,-23.0535,1014.71
31550,0.181731,9.75131,1.21951,1.89,-3.15,-0.7,23.1407,-46.1521,-23.0683,1014.71
31556,0.176949,9.73697,1.24821,1.89,-2.8,-0.63,23.4313,-45.9671,-23.349,1014.71
31562,0.176949,9.78001,1.23864,1.75,-2.8,-0.21,23.5185,-45.7204,-22.6102,1014.73
31568,0.181731,9.76088,1.20995,1.61,-2.8,-0.35,23.4894,-46.2447,-21.9896,1014.73
31574,0.186514,9.74175,1.21951,1.96,-2.8,0.21,23.1988,-46.7689,-22.4329,1014.74
31580,0.191296,9.72262,1.24821,2.1,-3.64,-0.49,23.6347,-46.8615,-23.1865,1014.74
31586,0.176949,9.74175,1.24342,1.89,-3.29,-0.14,22.4724,-46.7998,-23.1274,1014.69
31592,0.167384,9.77044,1.24342,1.68,-3.57,0.35,23.0826,-46.7689,-22.7432,1014.69
31598,0.186514,9.77044,1.23864,2.03,-3.22,0,23.3732,-46.9231,-22.8171,1014.74
31604,0.157819,9.73697,1.20038,1.89,-2.94,0.07,23.4022,-46.2447,-22.1078,1014.74
31610,0.162602,9.76088,1.21951,1.68,-2.59,0.21,23.1407,-46.9848,-21.9601,1014.71
31616,0.172166,9.78001,1.21473,1.68,-3.29,0.14,23.1698,-46.6764,-22.4329,1014.71
31622,0.205643,9.76566,1.20995,2.1,-2.8,0.28,23.4894,-46.2755,-22.2999,1014.71
31628,0.224773,9.76566,1.21473,1.89,-3.29,0.07,23.78,-46.8923,-22.3147,1014.73
31634,0.215208,9.76088,1.17169,1.68,-2.59,0,23.809,-46.3989,-21.7384,1014.73
31640,0.23912,9.74175,1.25299,1.54,-2.94,-0.28,23.4894,-46.8306,-23.482,1014.75
31646,0.234338,9.78479,1.22908,1.33,-2.66,0.14,23.1988,-46.2138,-23.3786,1014.75
31652,0.200861,9.78957,1.20995,1.96,-2.8,-0.35,23.7219,-46.6147,-23.5411,1014.75
31658,0.172166,9.78957,1.20995,1.61,-2.73,-0.49,23.4313,-47.0465,-22.7728,1014.75
31664,0.157819,9.74175,1.20995,1.68,-2.73,0.14,23.6637,-47.0157,-21.4872,1014.75
31670,0.181731,9.75131,1.24342,1.82,-3.22,0.07,23.257,-47.3549,-22.3442,1014.75
31676,0.196078,9.71784,1.26255,2.03,-2.66,-0.35,23.6347,-46.5222,-21.5463,1014.75
31682,0.181731,9.7561,1.22908,1.89,-2.66,0,23.8381,-47.3549,-21.7532,1014.75
31688,0.167384,9.76088,1.22429,2.03,-3.22,-17.57,24.0705,-46.9848,-21.9453,1014.75
31694,0.172166,9.76088,1.21473,1.82,-3.43,0.07,23.1407,-46.5222,-22.359,1014.71
31700,0.167384,9.75131,1.22429,1.82,-2.59,0.49,23.4603,-46.3063,-22.7728,1014.71
31706,0.176949,9.7561,1.20516,1.96,-2.87,0,23.6056,-46.4297,-22.891,1014.73
31712,0.186514,9.76566,1.20516,1.82,-3.43,-0.28,23.4313,-47.5399,-22.5068,1014.73
31718,0.200861,9.77044,1.20995,2.24,-3.36,0.42,23.5475,-47.139,-22.5807,1014.73
31724,0.181731,9.77044,1.20995,2.24,-2.94,0,23.6056,-47.1082,-21.1769,1014.73
31730,0.181731,9.80392,1.1956,1.61,-2.87,0.35,23.6637,-46.7073,-20.9996,1014.73
31736,0.210426,9.78957,1.17169,1.68,-2.87,0.14,23.78,-46.0596,-21.1769,1014.72
31742,0.205643,9.7561,1.21951,1.68,-2.94,0,24.4192,-47.4782,-22.8319,1014.72
31748,0.191296,9.76566,1.22429,1.89,-2.87,-0.14,23.8671,-46.954,-23.1126,1014.73
31754,0.205643,9.74653,1.28647,1.54,-2.73,0,23.9834,-47.1082,-21.3099,1014.73
31760,0.210426,9.77523,1.20038,2.03,-2.59,-0.56,23.6056,-46.7381,-21.5611,1014.73
31766,0.172166,9.77523,1.26255,1.89,-2.94,-0.28,23.5185,-46.2755,-21.103,1014.73
31772,0.172166,9.74653,1.23864,2.1,-2.66,0.56,23.9543,-46.6147,-21.8714,1014.7
31778,0.196078,9.76088,1.20516,1.75,-2.87,0,23.809,-46.8923,-22.1521,1014.7
31784,0.162602,9.76566,1.20995,1.61,-3.15,0.07,23.1988,-46.4605,-20.7927,1014.73
31790,0.196078,9.75131,1.22429,1.75,-3.15,0,23.4894,-46.6456,-22.2113,1014.73
31796,0.186514,9.7561,1.20516,2.1,-2.8,0.07,23.809,-47.1698,-21.9009,1014.73
31802,0.162602,9.76566,1.21473,1.96,-2.87,0.14,23.4603,-46.7689,-22.1226,1014.7
31808,0.172166,9.78957,1.20995,2.03,-3.22,-0.14,23.7219,-46.2447,-22.2999,1014.7
31814,0.167384,9.78957,1.18125,1.82,-3.01,0,23.1988,-46.4605,-21.4281,1014.74
31820,0.162602,9.74175,1.21473,1.54,-2.94,0.56,23.3151,-47.4782,-22.0635,1014.74
31826,0.196078,9.78001,1.17647,1.68,-3.71,17.43,23.5185,-47.1698,-22.0487,1014.75
31832,0.153037,9.73218,1.20516,1.61,-3.08,0,23.1117,-47.2932,-22.2408,1014.75
31838,0.181731,9.78001,1.22429,2.03,-3.43,-0.21,22.792,-46.8615,-22.3738,1014.75
31844,0.234338,9.7561,1.21951,1.68,-3.15,0,23.8381,-46.8923,-21.4577,1014.75
31850,0.186514,9.76566,1.20516,1.82,-2.8,0.14,23.5766,-47.0157,-21.7236,1014.75
31856,0.196078,9.76088,1.22429,2.03,-2.87,-0.28,22.9664,-46.7381,-22.2113,1014.72
31862,0.167384,9.76566,1.22429,1.68,-2.94,-0.42,23.6056,-46.7689,-21.1326,1014.72
31868,0.191296,9.77523,1.24342,1.96,-2.87,-0.35,23.4313,-46.9848,-22.2408,1014.7
31874,0.215208,9.79436,1.20995,1.4,-2.73,-0.07,23.6347,-47.324,-22.4477,1014.7
31880,0.176949,9.77523,1.20038,1.82,-3.15,-0.28,23.78,-47.9717,-22.4329,1014.72
31886,0.176949,9.74653,1.21473,1.54,-3.22,-0.42,23.3151,-47.139,-21.1178,1014.72
31892,0.200861,9.76566,1.23864,1.75,-2.94,-0.56,24.0124,-46.5222,-21.1769,1014.73
31898,0.186514,9.74653,1.1956,1.89,-2.94,-0.28,23.809,-47.0157,-21.9305,1014.73
31904,0.148254,9.7561,1.20995,1.82,-2.59,0.07,24.4192,-46.5839,-21.502,1014.73
31910,0.186514,9.71784,1.21473,1.47,-3.29,0.07,23.7509,-46.5531,-22.3886,1014.74
31916,0.167384,9.78001,1.20995,2.03,-3.15,-0.14,23.6637,-47.7866,-21.8714,1014.74
31922,0.162602,9.74175,1.20038,1.96,-3.08,-0.07,22.5596,-47.139,-22.9501,1014.74
31928,0.172166,9.74175,1.21951,1.54,-3.01,-0.14,23.78,-46.7998,-21.7384,1014.74
31934,0.210426,9.77523,1.19082,1.75,-2.66,0,23.5475,-46.6764,-22.9796,1014.76
31940,0.205643,9.77523,1.19082,1.96,-2.8,0.14,23.4894,-46.954,-22.2704,1014.76
31946,0.229555,9.77044,1.19082,1.68,-3.15,-0.21,23.8381,-47.2932,-22.3442,1014.73
31952,0.229555,9.78479,1.16212,1.4,-3.22,0,23.2279,-46.9231,-21.236,1014.73
31958,0.210426,9.78957,1.20038,1.61,-2.8,0,24.2158,-46.0288,-21.7827,1014.72
31964,0.21999,9.74175,1.20995,1.61,-2.94,-0.28,23.78,-46.6147,-21.236,1014.72
31970,0.215208,9.76088,1.21473,1.96,-2.8,0,23.4603,-46.7998,-22.625,1014.72
31976,0.186514,9.81349,1.22429,1.61,-2.8,-0.28,23.4022,-46.368,-23.2752,1014.71
31982,0.200861,9.7561,1.20038,1.75,-3.36,-0.7,23.809,-47.0773,-22.1078,1014.71
31988,0.181731,9.76088,1.22429,1.47,-3.22,-0.21,23.3732,-46.1213,-22.7875,1014.69
31994,0.186514,9.75131,1.1956,1.68,-2.45,-0.35,23.1117,-46.9231,-21.1769,1014.69
32000,0.172166,9.75131,1.22429,1.82,-2.87,-0.49,23.3732,-47.1082,-22.8762,1014.73
32006,0.181731,9.76088,1.1956,2.1,-3.71,-0.42,24.0124,-46.5531,-22.4625,1014.73
32012,0.181731,9.74175,1.21951,2.1,-3.29,0.14,23.257,-47.2932,-20.9848,1014.71
32018,0.162602,9.77044,1.23386,1.89,-3.01,0.07,23.6056,-47.2624,-22.6398,1014.71
32024,0.215208,9.7561,1.20038,1.82,-3.08,0,23.5185,-46.6764,-22.0044,1014.71
32030,0.176949,9.78957,1.18604,1.82,-3.15,0.07,23.4603,-47.0157,-22.3295,1014.74
32036,0.210426,9.78001,1.18604,2.31,-3.29,0.07,23.1988,-46.3063,-23.2308,1014.74
32042,0.21999,9.74653,1.15734,2.03,-2.87,0.07,23.4894,-46.954,-22.7432,1014.76
32048,0.196078,9.76088,1.20995,1.82,-2.87,0.14,23.78,-46.3989,-22.3442,1014.76
32054,0.205643,9.77523,1.1956,1.4,-3.71,0.14,24.3321,-47.2315,-23.2604,1014.67
32060,0.234338,9.76088,1.20516,1.96,-3.36,0.14,23.6056,-46.7381,-22.0192,1014.67
32066,0.176949,9.78001,1.21951,1.68,-3.01,-0.14,23.4894,-46.8615,-21.9601,1014.7
32072,0.25825,9.76566,1.25299,1.68,-3.36,-0.98,23.7219,-46.3372,-21.9009,1014.7
32078,0.234338,9.74653,1.21473,2.1,-2.66,-0.28,23.8962,-46.4297,-21.8418,1014.7
32084,0.186514,9.75131,1.23386,1.75,-2.87,0.07,23.4313,-45.9979,-21.7384,1014.72
32090,0.153037,9.76566,1.23864,2.1,-3.08,-0.7,22.7049,-46.183,-21.4281,1014.72
32096,0.172166,9.74653,1.23386,2.31,-3.22,-0.14,23.6056,-46.1213,-21.0882,1014.72
32102,0.176949,9.75131,1.21951,1.82,-2.94,-0.77,23.6928,-45.9979,-21.9896,1014.72
32108,0.191296,9.78479,1.19082,1.82,-3.15,0.14,23.4022,-46.0905,-22.5511,1014.71
32114,0.162602,9.78001,1.17169,1.89,-3.08,0.21,22.8211,-47.2007,-21.6645,1014.71
32120,0.157819,9.76088,1.25299,1.96,-2.94,0,22.9664,-45.6895,-22.4625,1014.7
32126,0.148254,9.78001,1.21951,1.82,-2.87,0.07,23.2279,-45.9054,-21.6793,1014.7
32132,0.167384,9.7561,1.20995,2.38,-3.15,-0.07,22.9373,-46.7998,-22.4181,1014.7
32138,0.181731,9.75131,1.21951,1.96,-3.08,0.07,22.8211,-46.5839,-21.1474,1014.7
32144,0.167384,9.76088,1.22429,1.82,-2.87,0.07,23.5185,-46.6764,-21.1769,1014.7
32150,0.191296,9.7561,1.20038,1.96,-3.15,0.14,23.257,-47.0157,-21.7236,1014.73
32156,0.172166,9.75131,1.22429,2.1,-3.01,-0.07,23.2279,-46.7073,-22.5068,1014.73
32162,0.21999,9.77044,1.22429,1.89,-2.66,-0.14,23.2279,-47.2315,-23.0387,1014.71
32168,0.229555,9.78001,1.17647,1.89,-2.94,-17.71,23.5475,-46.9848,-23.1569,1014.71
32174,0.21999,9.79436,1.18604,1.75,-3.22,-0.49,22.9373,-47.5399,-22.0339,1014.74
32180,0.210426,9.75131,1.18125,1.89,-3.36,-0.07,23.0826,-47.2624,-22.1669,1014.74
32186,0.162602,9.73697,1.22429,1.61,-2.8,0.56,23.1117,-47.0773,-23.482,1014.75
32192,0.176949,9.7561,1.22429,1.75,-3.5,-0.21,22.8502,-46.5531,-22.0635,1014.75
32198,0.205643,9.78001,1.23386,1.96,-3.43,-0.35,22.9373,-46.5839,-21.768,1014.75
32204,0.200861,9.78479,1.20516,1.89,-2.94,0,22.8211,-46.7689,-22.1078,1014.7
32210,0.167384,9.77044,1.21951,1.89,-2.94,0.49,23.1407,-46.2138,-21.2803,1014.7
32216,0.157819,9.73697,1.23386,1.68,-3.22,-0.28,23.4022,-47.324,-21.7827,1014.74
32222,0.143472,9.75131,1.1956,1.68,-3.5,-0.42,23.286,-45.9054,-22.6841,1014.74
32228,0.153037,9.77523,1.21473,1.96,-3.08,0,23.7219,-46.4297,-21.2656,1014.74
32234,0.196078,9.73697,1.19082,1.82,-3.22,0.35,23.4022,-46.8615,-22.9648,1014.74
32240,0.181731,9.74175,1.23386,1.75,-3.15,-0.07,22.6177,-46.7073,-21.8566,1014.73
32246,0.162602,9.76566,1.17169,1.75,-3.78,0.49,23.1698,-46.6456,-22.4033,1014.73
32252,0.191296,9.78001,1.20995,2.24,-3.29,0.07,23.0826,-46.6147,-21.9748,1014.73
32258,0.172166,9.76088,1.1956,1.89,-2.87,0.28,22.9083,-46.183,-21.6202,1014.71
32264,0.21999,9.7561,1.22429,1.89,-3.43,0.28,22.5596,-46.368,-21.6645,1014.71
32270,0.186514,9.77523,1.23386,1.61,-3.5,0.28,22.6468,-46.5531,-23.1717,1014.72
32276,0.210426,9.76088,1.20038,2.17,-3.5,0.28,23.3151,-46.8306,-22.1817,1014.72
32282,0.23912,9.79914,1.18604,1.82,-2.73,-0.07,23.4313,-46.9848,-22.1078,1014.74
32288,0.224773,9.78001,1.19082,2.1,-3.08,0.07,23.1988,-46.368,-22.8466,1014.74
32294,0.186514,9.77523,1.22429,1.61,-2.87,0,22.9373,-47.4782,-21.7827,1014.73
32300,0.215208,9.77044,1.22429,1.75,-2.94,-0.35,22.792,-47.3857,-22.9353,1014.73
32306,0.186514,9.71784,1.21473,1.33,-3.08,-17.71,23.1988,-46.6456,-22.5363,1014.74
32312,0.176949,9.77523,1.25299,1.61,-3.29,-0.28,23.8381,-47.139,-21.1917,1014.74
32318,0.186514,9.73697,1.24342,2.03,-3.64,0.28,23.257,-46.4914,-21.7532,1014.74
32324,0.176949,9.74653,1.21951,2.03,-3.22,0.14,23.1407,-46.368,-21.6793,1014.7
32330,0.186514,9.74653,1.20995,2.31,-3.22,-0.07,22.8502,-46.2755,-22.7137,1014.7
32336,0.172166,9.74175,1.21473,2.03,-3.08,0.14,23.7509,-46.8306,-22.8319,1014.73
32342,0.205643,9.76088,1.22908,2.38,-3.29,0.56,22.9664,-46.7073,-22.0635,1014.73
32348,0.191296,9.75131,1.20516,1.89,-3.08,0.84,22.792,-46.7689,-21.9748,1014.73
32354,0.229555,9.77044,1.21473,2.03,-2.59,0.56,22.9373,-46.4605,-22.4329,1014.73
32360,0.205643,9.78001,1.22429,2.17,-3.15,-0.35,23.1117,-46.5222,-23.1569,1014.73
32366,0.200861,9.79436,1.22429,1.89,-3.01,0.63,23.5766,-47.0157,-22.6545,1014.73
32372,0.172166,9.75131,1.23864,2.52,-2.87,0.07,23.4603,-47.1082,-22.8171,1014.73
32378,0.186514,9.77044,1.21951,2.1,-3.08,0.49,23.1988,-46.5531,-23.0683,1014.75
32384,0.21999,9.76566,1.21951,2.03,-3.08,0.35,22.9954,-46.9231,-22.4033,1014.75
32390,0.196078,9.76088,1.20038,2.03,-3.29,0.14,23.1698,-47.4474,-22.3147,1014.71
32396,0.234338,9.78479,1.20516,1.75,-2.87,0,22.8792,-46.7073,-23.2899,1014.71
32402,0.229555,9.80392,1.16691,2.03,-2.87,0,22.4724,-46.4605,-22.8319,1014.7
32408,0.200861,9.78957,1.18125,1.68,-3.08,-0.21,22.9664,-45.8746,-21.1474,1014.7
32414,0.200861,9.78479,1.1956,2.03,-3.01,0.07,23.2279,-46.7073,-21.768,1014.72
32420,0.181731,9.7274,1.22908,1.89,-2.73,0.35,22.8502,-46.1521,-22.2113,1014.72
32426,0.215208,9.7274,1.24342,2.1,-3.22,0,22.792,-46.1521,-21.8862,1014.72
32432,0.196078,9.77523,1.22429,1.75,-3.22,0.35,22.9664,-46.954,-21.4281,1014.72
32438,0.153037,9.7561,1.22429,1.96,-2.94,0.7,22.9664,-45.9363,-21.8271,1014.72
32444,0.176949,9.76566,1.20038,1.82,-2.87,0,23.3441,-46.954,-21.8271,1014.74
32450,0.191296,9.75131,1.21473,2.03,-3.57,0.42,23.1988,-47.3857,-22.8614,1014.74
32456,0.200861,9.73218,1.1956,1.75,-2.8,0.49,23.3441,-47.1698,-22.2851,1014.72
32462,0.167384,9.76566,1.22429,1.82,-3.22,0.42,22.9664,-46.9231,-22.6989,1014.72
32468,0.215208,9.76088,1.20995,2.31,-2.94,0.77,22.9664,-47.0465,-21.502,1014.71
32474,0.234338,9.77523,1.20516,1.75,-2.73,0.42,22.8211,-45.9671,-21.3838,1014.71
32480,0.21999,9.77523,1.19082,1.61,-2.73,0.42,22.9083,-46.3989,-22.5659,1014.74
32486,0.263032,9.78001,1.22908,1.96,-3.43,0.35,22.7339,-46.368,-22.2851,1014.74
32492,0.267814,9.81827,1.17647,1.89,-2.8,0.56,22.792,-47.0157,-22.4772,1014.74
32498,0.210426,9.78479,1.16212,1.89,-2.66,-0.14,23.2279,-47.2315,-21.9748,1014.73
32504,0.196078,9.79436,1.18604,1.19,-3.15,-0.28,22.9954,-46.8306,-22.2851,1014.73
32510,0.229555,9.77044,1.22908,1.68,-3.01,-0.21,23.1988,-46.6456,-22.1669,1014.75
32516,0.181731,9.77523,1.22908,1.68,-2.73,-0.49,23.0245,-46.3063,-21.8714,1014.75
32522,0.224773,9.77523,1.22908,2.1,-2.66,0.21,23.257,-46.8615,-22.1817,1014.73
32528,0.186514,9.76566,1.18604,1.82,-3.15,-0.21,22.9954,-46.6456,-22.0339,1014.73
32534,0.186514,9.7561,1.20516,1.96,-2.94,0.07,22.9664,-46.5531,-22.4033,1014.74
32540,0.191296,9.76088,1.21951,2.1,-3.01,0.35,23.4313,-47.2315,-22.3442,1014.74
32546,0.176949,9.7561,1.18604,1.96,-2.87,0.42,23.286,-46.6456,-21.7532,1014.74
32552,0.205643,9.73697,1.20516,1.96,-3.36,0.21,23.0245,-46.2755,-21.8714,1014.73
32558,0.181731,9.75131,1.21951,1.89,-3.57,0.14,23.1117,-47.0465,-21.5315,1014.73
32564,0.215208,9.73218,1.18604,2.66,-3.15,0.49,22.9664,-46.7689,-21.9896,1014.72
32570,0.200861,9.74175,1.20995,1.82,-2.73,0.28,23.3441,-46.4605,-21.8123,1014.72
32576,0.210426,9.7561,1.18604,1.82,-3.15,0.49,23.4603,-47.1082,-22.5216,1014.73
32582,0.210426,9.78001,1.21473,1.75,-3.15,0.35,22.9664,-47.2932,-23.0387,1014.73
32588,0.210426,9.77044,1.23864,1.96,-3.43,0.49,23.6347,-47.139,-22.3738,1014.74
32594,0.205643,9.78957,1.19082,1.96,-2.94,0.21,23.4603,-46.0905,-21.9009,1014.74
32600,0.23912,9.77523,1.19082,1.89,-2.94,0.56,23.6637,-46.5839,-21.3985,1014.74
32606,0.224773,9.79914,1.20516,1.82,-3.22,0,23.1117,-47.324,-21.7827,1014.71
32612,0.23912,9.76566,1.1956,1.89,-3.08,-0.42,23.7509,-46.6147,-22.4181,1014.71
32618,0.215208,9.75131,1.20038,2.1,-2.94,0.14,24.0996,-46.5531,-20.6597,1014.73
32624,0.215208,9.73697,1.22429,1.96,-3.15,-0.35,22.792,-46.4297,-21.1178,1014.73
32630,0.205643,9.78957,1.20995,2.03,-2.94,-0.21,23.0536,-46.2755,-20.4529,1014.72
32636,0.186514,9.75131,1.20516,2.31,-2.94,-0.07,24.0124,-47.2007,-21.3542,1014.72
32642,0.205643,9.77044,1.19082,1.33,-3.01,0,23.8381,-47.1698,-21.8123,1014.72
32648,0.186514,9.71784,1.24821,1.75,-3.08,0.42,23.1407,-47.139,-21.5315,1014.72
32654,0.200861,9.74653,1.19082,1.96,-3.01,0.21,23.4313,-47.0465,-21.1178,1014.71
32660,0.210426,9.74653,1.17647,2.17,-3.15,0.14,23.4894,-47.1698,-21.3542,1014.71
32666,0.23912,9.78479,1.15256,2.03,-3.08,0.42,23.1407,-46.5839,-21.8566,1014.71
32672,0.205643,9.77523,1.18125,2.1,-3.01,0.56,23.4894,-46.5839,-21.7384,1014.73
32678,0.210426,9.7561,1.20995,2.24,-3.29,-0.07,23.4894,-46.8923,-22.2704,1014.73
32684,0.210426,9.7561,1.18604,2.31,-3.01,0.35,23.4894,-46.7689,-22.3886,1014.75
32690,0.215208,9.77044,1.18604,2.24,-3.08,0.28,23.3151,-46.4297,-22.1669,1014.75
32696,0.191296,9.76566,1.16691,2.03,-3.15,0,23.0245,-46.6764,-21.1917,1014.73
32702,0.267814,9.77044,1.19082,1.96,-3.57,0.49,23.257,-46.368,-22.5954,1014.73
32708,0.21999,9.77523,1.18604,2.52,-3.15,0.07,23.3441,-46.4914,-21.7975,1014.73
32714,0.229555,9.79914,1.14778,2.1,-2.8,-0.49,22.7339,-46.3372,-21.7236,1014.73
32720,0.224773,9.81827,1.16691,1.61,-3.15,-0.14,23.4022,-46.7689,-22.5363,1014.73
32726,0.229555,9.78001,1.18604,1.89,-3.5,-0.49,23.286,-45.5353,-22.492,1014.72
32732,0.186514,9.77044,1.15256,2.17,-3.08,-0.42,23.1117,-46.0596,-22.6545,1014.72
32738,0.191296,9.7274,1.17647,1.96,-3.01,0.49,23.6056,-45.8129,-22.4033,1014.73
32744,0.172166,9.74653,1.19082,1.61,-2.66,0.14,23.8962,-45.7821,-23.0683,1014.73
32750,0.181731,9.74175,1.1956,1.82,-3.15,0,23.4894,-46.0288,-22.8319,1014.74
32756,0.172166,9.7561,1.17647,1.82,-3.15,0.35,23.6347,-46.5531,-21.4429,1014.74
32762,0.191296,9.7274,1.18125,2.1,-2.66,0.56,24.0124,-46.7689,-22.2113,1014.73
32768,0.186514,9.74653,1.1956,1.89,-3.22,0.21,23.8671,-46.5222,-22.5659,1014.73
32774,0.181731,9.7561,1.18604,2.03,-3.71,0.07,22.9664,-46.8923,-23.1422,1014.73
32780,0.191296,9.7561,1.18604,2.31,-3.29,0.49,23.3732,-46.2755,-21.4577,1014.72
32786,0.191296,9.7274,1.17647,2.1,-3.36,0.7,23.4022,-46.9231,-23.0535,1014.72
32792,0.21999,9.75131,1.17647,2.17,-3.08,0.63,23.4894,-47.139,-22.3738,1014.71
32798,0.205643,9.79436,1.20995,2.38,-3.08,0.49,22.269,-47.6941,-22.093,1014.71
32804,0.215208,9.76566,1.17647,1.82,-2.66,0.28,23.4313,-46.9231,-22.625,1014.74
32810,0.210426,9.79436,1.15256,2.38,-3.29,0,23.0245,-46.7998,-22.7875,1014.74
32816,0.248685,9.77523,1.19082,2.31,-3.15,0.07,23.4894,-47.2624,-21.635,1014.73
32822,0.234338,9.79914,1.19082,2.24,-3.15,0.28,22.3562,-47.1698,-21.8862,1014.73
32828,0.224773,9.79436,1.15734,2.31,-2.94,0,22.9664,-46.7689,-22.7728,1014.72
32834,0.234338,9.77044,1.20516,1.89,-2.52,-0.07,23.2279,-46.1521,-22.0339,1014.72
32840,0.267814,9.75131,1.18125,1.68,-2.87,-0.28,22.9954,-46.7689,-23.0387,1014.72
32846,0.243902,9.81827,1.13821,2.03,-3.15,0.07,22.8502,-46.6147,-21.2212,1014.71
32852,0.196078,9.81827,1.14778,2.31,-3.43,-0.28,23.3732,-46.4605,-21.7975,1014.71
32858,0.21999,9.75131,1.20995,1.54,-3.15,-0.07,23.3441,-46.3989,-23.7776,1014.74
32864,0.205643,9.74653,1.18604,1.68,-3.01,-0.28,23.5475,-46.954,-22.2704,1014.74
32870,0.205643,9.77044,1.19082,2.03,-2.94,-0.21,23.0245,-46.8923,-23.0683,1014.73
32876,0.215208,9.7561,1.18125,2.24,-2.94,-0.42,23.0826,-47.1082,-22.4033,1014.73
32882,0.196078,9.7561,1.20516,1.61,-3.01,-0.07,22.6177,-47.1698,-22.6693,1014.74
32888,0.210426,9.7561,1.14778,1.75,-2.87,0,23.4022,-46.4914,-22.8319,1014.74
32894,0.186514,9.75131,1.20038,1.96,-3.36,0,23.3732,-46.7073,-21.5906,1014.74
32900,0.210426,9.73218,1.1956,1.96,-3.08,0,22.7049,-46.6147,-20.9996,1014.74
32906,0.215208,9.78001,1.18125,1.82,-2.87,0.21,23.4894,-46.9848,-21.768,1014.74
32912,0.229555,9.74175,1.18125,1.75,-3.29,0.42,23.1117,-46.4605,-21.5906,1014.69
32918,0.224773,9.76088,1.1956,2.17,-3.01,0.28,22.8502,-46.7381,-21.9009,1014.69
32924,0.215208,9.74175,1.17169,2.1,-3.01,0.21,23.1698,-46.6764,-21.3838,1014.74
32930,0.210426,9.77523,1.20995,1.68,-2.94,-0.14,23.8671,-47.0773,-22.0192,1014.74
32936,0.243902,9.78001,1.1956,2.03,-3.15,-0.14,23.1407,-46.9848,-21.6202,1014.73
32942,0.23912,9.78001,1.14778,1.82,-3.29,-0.35,23.8671,-46.7998,-22.9057,1014.73
32948,0.248685,9.78001,1.1956,2.03,-3.22,-0.28,22.8211,-46.8923,-20.9996,1014.73
32954,0.21999,9.78001,1.18604,1.89,-2.8,0,23.6056,-46.1213,-22.1965,1014.74
32960,0.25825,9.78001,1.18125,1.89,-3.01,-0.56,23.0826,-46.8615,-22.359,1014.74
32966,0.210426,9.77523,1.22429,1.54,-2.87,-0.35,23.1698,-46.4914,-21.6941,1014.75
32972,0.210426,9.74653,1.1956,1.89,-3.01,-0.07,23.4022,-46.3063,-22.0044,1014.75
32978,0.21999,9.78479,1.22429,2.03,-3.15,-0.14,23.3732,-46.6764,-22.2113,1014.75
32984,0.200861,9.77044,1.15734,1.75,-3.15,0.07,23.4894,-46.7689,-22.3147,1014.75
32990,0.172166,9.76566,1.21473,1.96,-3.36,-0.63,22.8502,-46.7998,-22.8023,1014.72
32996,0.210426,9.74175,1.22908,1.89,-3.15,0.28,22.9373,-46.4605,-21.9896,1014.72
33002,0.200861,9.75131,1.20516,1.75,-2.52,-0.35,23.4313,-46.7381,-23.1865,1014.75
33008,0.196078,9.74175,1.23386,2.17,-3.08,-0.07,22.7339,-45.9363,-22.0339,1014.75
33014,0.181731,9.75131,1.20516,1.82,-3.08,0.21,23.809,-46.4605,-23.1422,1014.75
33020,0.210426,9.74653,1.18604,2.31,-3.15,0.42,23.5475,-46.7073,-22.891,1014.74
33026,0.205643,9.78479,1.18125,2.24,-3.01,-0.14,23.4022,-46.954,-23.2013,1014.74
33032,0.21999,9.78479,1.19082,2.03,-3.43,0,23.1988,-47.4166,-22.492,1014.68
33038,0.224773,9.76566,1.17169,2.1,-3.64,0.42,23.257,-46.8923,-22.3295,1014.68
33044,0.253467,9.77044,1.1956,1.89,-2.94,0.49,23.1698,-46.7689,-23.4081,1014.73
33050,0.23912,9.78001,1.20038,1.96,-2.66,-0.35,23.4313,-47.3857,-21.9157,1014.73
33056,0.263032,9.78957,1.17647,1.82,-3.01,-0.35,22.792,-46.9231,-21.6941,1014.75
33062,0.23912,9.77523,1.18125,1.68,-2.8,-0.56,22.4143,-47.324,-21.5315,1014.75
33068,0.215208,9.78479,1.20516,1.61,-2.87,-0.14,23.3441,-47.324,-23.0831,1014.75
33074,0.243902,9.74653,1.24821,2.1,-2.87,0,23.0826,-46.2138,-21.5906,1014.72
33080,0.21999,9.74175,1.20038,1.68,-2.87,-0.14,23.6056,-46.5531,-22.8614,1014.72
33086,0.196078,9.75131,1.17647,1.75,-2.8,-0.63,23.8381,-47.2932,-22.1374,1014.74
33092,0.186514,9.7561,1.1956,2.24,-3.43,-0.14,22.5886,-47.6633,-21.9453,1014.74
33098,0.172166,9.7561,1.18604,2.1,-3.78,0,23.1698,-46.7689,-22.359,1014.74
33104,0.191296,9.74653,1.18125,1.68,-2.8,-0.28,23.3441,-46.9848,-21.5759,1014.74
33110,0.21999,9.73218,1.17169,2.17,-3.57,-0.14,23.4022,-46.954,-21.9601,1014.73
33116,0.205643,9.77523,1.17647,1.96,-3.08,-0.28,23.4894,-46.5531,-21.9601,1014.73
33122,0.215208,9.76566,1.18604,1.82,-3.36,0.28,23.5185,-46.6764,-23.6446,1014.73
33128,0.205643,9.77523,1.20038,1.4,-3.22,0.21,23.3732,-46.7381,-22.3147,1014.74
33134,0.229555,9.77044,1.17169,1.33,-2.8,0.14,23.9834,-46.3989,-22.4329,1014.74
33140,0.191296,9.75131,1.20516,1.96,-3.36,0.14,23.1117,-47.0157,-21.7384,1014.72
33146,0.205643,9.76566,1.20516,2.03,-3.08,0.42,23.0826,-47.1698,-22.5511,1014.72
33152,0.23912,9.76566,1.20516,1.68,-3.29,-0.14,23.6928,-47.4474,-21.7236,1014.74
33158,0.21999,9.79436,1.17647,1.82,-3.22,0,23.8962,-47.3549,-24.2799,1014.74
33164,0.21999,9.7274,1.20516,1.89,-3.36,-0.07,22.8502,-46.6764,-23.2604,1014.76
33170,0.23912,9.74653,1.20995,2.17,-3.08,-0.35,23.286,-47.8792,-23.024,1014.76
33176,0.248685,9.76566,1.19082,1.89,-3.08,-0.14,23.4894,-47.1698,-23.3195,1014.73
33182,0.21999,9.75131,1.19082,2.31,-3.43,-0.14,23.3732,-47.4166,-23.1717,1014.73
33188,0.23912,9.77523,1.20516,2.03,-3.01,-0.63,23.257,-46.3989,-22.9205,1014.73
33194,0.148254,9.77523,1.21473,2.24,-2.94,-0.35,23.0245,-46.5531,-22.5659,1014.72
33200,0.172166,9.7274,1.22908,1.61,-3.01,-0.21,22.9373,-46.3989,-22.7432,1014.72
33206,0.172166,9.73697,1.20038,1.54,-2.94,0.07,22.9373,-47.0157,-23.9992,1014.79
33212,0.205643,9.78001,1.18604,2.03,-3.08,-0.21,22.9083,-46.8615,-22.5511,1014.79
33218,0.191296,9.74653,1.18604,1.82,-3.5,-0.42,23.1988,-46.5839,-22.6841,1014.69
33224,0.186514,9.77044,1.16691,2.03,-3.29,0.63,23.1407,-46.6456,-21.8418,1014.69
33230,0.210426,9.74175,1.1956,1.75,-3.36,0.14,23.0536,-46.4914,-21.9896,1014.74
33236,0.21999,9.73218,1.17169,2.1,-3.22,-0.28,22.9664,-46.8306,-21.8566,1014.74
33242,0.21999,9.76566,1.22429,2.03,-2.94,0.56,23.0245,-46.3989,-21.9601,1014.74
33248,0.215208,9.75131,1.17169,2.17,-3.36,0,22.6758,-46.3372,-21.502,1014.71
33254,0.215208,9.74175,1.18604,1.61,-3.36,-0.07,23.5766,-46.7689,-21.9896,1014.71
33260,0.229555,9.76088,1.18125,1.89,-2.59,0.14,22.9373,-46.5222,-22.7728,1014.73
33266,0.234338,9.76566,1.1956,1.89,-2.73,-0.07,23.1407,-46.4605,-23.3343,1014.73
33272,0.243902,9.76566,1.1956,2.17,-3.01,-0.21,22.8792,-46.9848,-22.4181,1014.75
33278,0.234338,9.78957,1.17169,1.61,-3.08,0.28,23.1988,-46.2755,-22.2704,1014.75
33284,0.21999,9.78957,1.20516,2.1,-3.43,0,22.9373,-46.4914,-22.7728,1014.75
33290,0.224773,9.78001,1.18604,1.68,-3.22,-0.28,23.3151,-46.1521,-22.093,1014.75
33296,0.243902,9.75131,1.19082,1.89,-2.87,0,23.286,-45.9979,-22.4772,1014.75
33302,0.215208,9.74175,1.24342,1.68,-3.08,0.07,22.5305,-46.0596,-22.5954,1014.73
33308,0.215208,9.74175,1.18604,1.54,-2.31,0,22.5015,-48.1259,-24.3391,1014.73
33314,0.205643,9.76566,1.20038,2.1,-3.08,-0.35,22.9664,-46.7381,-21.4281,1014.72
33320,0.224773,9.78001,1.1956,1.75,-3.29,-0.07,23.5475,-46.7998,-23.2899,1014.72
33326,0.196078,9.76088,1.18604,1.82,-3.08,0.07,23.257,-46.7689,-22.4625,1014.69
33332,0.200861,9.73697,1.19082,1.96,-3.15,0.21,22.5596,-46.4914,-22.0635,1014.69
33338,0.23912,9.7274,1.20038,2.1,-3.15,0.07,23.1698,-45.9054,-23.2604,1014.74
33344,0.21999,9.76566,1.15256,1.96,-3.5,0.35,23.0245,-47.1082,-21.369,1014.74
33350,0.215208,9.74175,1.17647,1.54,-2.94,0.28,22.7339,-47.1698,-21.6793,1014.71
33356,0.181731,9.7561,1.16691,1.68,-3.29,0,23.5475,-46.954,-21.3394,1014.71
33362,0.196078,9.77523,1.22429,2.03,-2.66,0,23.286,-46.9231,-22.0044,1014.71
33368,0.23912,9.77044,1.17169,1.68,-2.66,0.21,22.9664,-46.8306,-22.9648,1014.73
33374,0.229555,9.73218,1.21951,1.82,-3.29,0.14,22.9083,-46.7689,-22.1226,1014.73
33380,0.224773,9.74653,1.14778,1.89,-3.29,0.14,23.286,-46.2138,-21.8271,1014.74
33386,0.234338,9.74175,1.19082,2.38,-2.87,0.07,23.4603,-46.3989,-22.3886,1014.74
33392,0.234338,9.75131,1.19082,2.03,-3.15,0.35,23.7219,-46.1213,-22.226,1014.72
33398,0.21999,9.78001,1.18604,1.96,-3.36,0.21,23.4894,-47.0157,-22.4477,1014.72
33404,0.215208,9.77523,1.19082,2.24,-3.22,0.56,23.3441,-45.9054,-21.8418,1014.74
33410,0.263032,9.77044,1.22908,1.82,-2.8,-0.28,23.3151,-46.5839,-20.9848,1014.74
33416,0.215208,9.78001,1.17647,2.31,-2.66,-0.07,23.3732,-45.9054,-21.7975,1014.74
33422,0.181731,9.77523,1.17169,1.75,-3.01,0,23.0245,-47.1698,-21.4133,1014.71
33428,0.215208,9.73697,1.18604,1.61,-2.87,0.14,23.4894,-46.1521,-22.891,1014.71
33434,0.215208,9.76566,1.18604,2.17,-3.01,0.07,23.4894,-47.0157,-21.5463,1014.74
33440,0.200861,9.78479,1.17169,1.68,-2.52,-0.14,22.7339,-46.5222,-21.7236,1014.74
33446,0.205643,9.76566,1.1956,1.96,-3.15,-0.21,22.8792,-46.9848,-22.6102,1014.7
33452,0.196078,9.7561,1.20995,2.17,-3.36,-0.07,22.8502,-46.8306,-22.1374,1014.7
33458,0.215208,9.73697,1.20995,2.38,-3.01,0.56,23.4894,-46.7073,-21.7975,1014.71
33464,0.215208,9.7561,1.18604,1.89,-3.01,0.63,22.2981,-46.6456,-21.7236,1014.71
33470,0.229555,9.76088,1.20516,2.17,-2.87,17.71,23.1988,-46.8923,-22.2113,1014.71
33476,0.243902,9.77044,1.21951,2.1,-3.08,0.35,22.7049,-46.6456,-22.4625,1014.74
33482,0.191296,9.73697,1.20516,2.1,-3.01,-0.07,22.8211,-46.8306,-22.0044,1014.74
33488,0.234338,9.76566,1.18125,2.03,-3.08,0.28,23.1698,-46.7381,-21.7532,1014.74
33494,0.176949,9.7561,1.22908,2.31,-3.29,0.14,23.286,-46.6147,-21.4872,1014.74
33500,0.229555,9.77044,1.20038,2.17,-3.22,0.49,23.2279,-46.7998,-22.6545,1014.74
33506,0.23912,9.77523,1.16691,2.1,-2.87,0.49,22.8211,-46.1213,-22.2408,1014.74
33512,0.248685,9.74175,1.17647,2.24,-3.15,-0.07,23.1117,-47.0465,-24.0288,1014.74
33518,0.248685,9.79436,1.17169,2.1,-3.22,0.14,22.763,-46.3372,-22.8171,1014.74
33524,0.248685,9.79914,1.19082,2.1,-2.73,0.21,22.792,-47.1082,-23.6593,1014.72
33530,0.21999,9.79914,1.13821,1.96,-3.08,-0.14,22.9083,-46.954,-22.2556,1014.72
33536,0.205643,9.75131,1.23386,1.75,-2.8,-0.21,22.6468,-46.6456,-22.0192,1014.72
33542,0.21999,9.76566,1.21951,1.82,-2.8,-0.07,23.0536,-47.3549,-22.3295,1014.7
33548,0.234338,9.74653,1.19082,2.1,-3.29,-0.07,23.286,-47.9408,-21.7975,1014.7
33554,0.21999,9.76088,1.16691,2.1,-2.52,0.21,23.4313,-47.2932,-21.1178,1014.75
33560,0.210426,9.76088,1.18125,2.52,-3.08,0.49,23.1698,-46.9231,-21.5906,1014.75
33566,0.205643,9.76566,1.19082,1.75,-3.08,0.14,23.6347,-47.1698,-21.768,1014.75
33572,0.186514,9.73218,1.1956,2.24,-2.94,0.28,22.5886,-46.7998,-21.8418,1014.75
33578,0.200861,9.7561,1.1956,2.31,-3.01,0.28,23.0536,-46.6764,-22.758,1014.74
33584,0.21999,9.7561,1.16691,1.89,-2.94,0.56,23.5475,-46.7381,-21.6202,1014.74
33590,0.229555,9.76088,1.20516,1.89,-2.94,0.49,22.8792,-46.8923,-23.0978,1014.74
33596,0.215208,9.77523,1.20516,2.17,-2.59,0.49,23.1117,-47.1698,-21.6793,1014.74
33602,0.23912,9.73218,1.18604,2.17,-3.08,0.07,23.6637,-46.4605,-22.5068,1014.74
33608,0.25825,9.74653,1.20995,2.1,-3.29,0,23.3151,-47.4782,-21.9305,1014.72
33614,0.229555,9.76088,1.18604,2.03,-2.73,0,22.9664,-46.6147,-21.9305,1014.72
33620,0.25825,9.73218,1.20516,2.45,-3.15,-0.21,23.4313,-46.7998,-22.8614,1014.74
33626,0.224773,9.77044,1.18125,2.03,-3.08,0.07,23.3151,-47.4474,-20.4381,1014.74
33632,0.25825,9.76566,1.15734,2.1,-2.73,0.42,23.9253,-46.7998,-21.5168,1014.73
33638,0.229555,9.75131,1.15734,1.96,-2.94,0.14,23.1407,-46.8615,-21.8714,1014.73
33644,0.210426,9.77044,1.1956,1.96,-3.08,-0.07,23.3151,-47.4474,-21.8714,1014.73
33650,0.215208,9.78479,1.18125,1.89,-2.8,-0.14,23.7219,-46.7381,-22.2556,1014.7
33656,0.21999,9.76088,1.19082,2.1,-3.29,0.42,22.8502,-46.8923,-21.4872,1014.7
33662,0.196078,9.76566,1.1956,1.82,-3.43,0.35,23.4894,-47.324,-21.9305,1014.74
33668,0.21999,9.73218,1.21473,2.1,-2.94,0.07,23.257,-46.5222,-21.5611,1014.74
33674,0.215208,9.7561,1.19082,2.45,-3.01,0.28,22.8211,-46.6147,-21.7236,1014.72
33680,0.224773,9.77523,1.17647,1.96,-2.8,0.42,23.5475,-47.1082,-22.6989,1014.72
33686,0.21999,9.75131,1.20038,2.1,-3.08,-0.07,23.5185,-46.8615,-22.1521,1014.7
33692,0.253467,9.74175,1.19082,1.96,-3.22,0.21,23.3151,-46.7689,-22.1965,1014.7
33698,0.205643,9.74653,1.18125,2.1,-3.15,0.7,23.5185,-46.8615,-21.2803,1014.72
33704,0.23912,9.73697,1.17169,1.75,-2.59,0.42,23.286,-46.4605,-22.7875,1014.72
33710,0.23912,9.76088,1.17169,2.17,-3.01,0.63,23.3441,-46.954,-21.6941,1014.72
33716,0.234338,9.77044,1.15734,2.24,-3.22,0.14,23.4022,-46.7381,-21.4429,1014.71
33722,0.25825,9.77044,1.1956,1.96,-2.87,0.49,22.3852,-46.7381,-22.0783,1014.71
33728,0.243902,9.76088,1.17647,2.31,-3.08,0.28,22.9373,-46.3063,-22.1078,1014.69
33734,0.234338,9.78479,1.16212,2.17,-3.15,-0.28,23.6637,-47.1082,-22.1521,1014.69
33740,0.263032,9.80392,1.18125,1.89,-3.08,0.56,22.6177,-47.3857,-22.758,1014.72
33746,0.25825,9.77044,1.15734,1.54,-2.59,0,23.0245,-47.3549,-22.5068,1014.72
33752,0.282162,9.7561,1.16691,2.03,-2.8,0.28,23.257,-46.9231,-21.2656,1014.71
33758,0.253467,9.81827,1.16212,1.96,-2.59,-0.07,23.0826,-47.324,-21.4577,1014.71
33764,0.172166,9.77044,1.20038,1.89,-3.29,-0.21,22.7049,-47.0465,-22.1226,1014.71
33770,0.200861,9.75131,1.20995,2.03,-2.94,-0.35,23.3441,-46.9848,-20.97,1014.71
33776,0.234338,9.74653,1.16212,2.03,-2.66,0.28,23.4313,-46.6764,-20.246,1014.71
33782,0.25825,9.76088,1.17647,1.96,-3.29,0.42,22.6177,-46.9231,-21.6793,1014.71
33788,0.224773,9.76088,1.18125,2.38,-3.5,-0.07,23.0245,-47.0157,-21.1769,1014.71
33794,0.21999,9.76566,1.19082,1.89,-3.01,0.56,23.286,-47.7558,-22.0044,1014.77
33800,0.210426,9.7561,1.17169,1.82,-2.66,0.07,22.6177,-46.6764,-22.6102,1014.77
33806,0.210426,9.77523,1.14299,1.96,-2.8,0.28,23.3732,-47.2624,-21.1474,1014.74
33812,0.25825,9.79436,1.17169,2.24,-2.73,0.49,23.4313,-47.139,-19.7584,1014.74
33818,0.263032,9.77523,1.17169,2.24,-3.01,0.21,22.5596,-46.7073,-20.7336,1014.74
33824,0.23912,9.78479,1.17169,2.17,-2.24,0.63,23.1698,-46.6147,-21.9453,1014.75
33830,0.23912,9.77044,1.18125,1.75,-2.66,0,22.8502,-46.7381,-22.1374,1014.75
33836,0.234338,9.75131,1.17169,1.75,-3.5,0,23.8381,-47.4782,-21.5611,1014.71
33842,0.23912,9.78479,1.12865,2.17,-3.43,-0.35,23.1117,-46.7073,-21.7532,1014.71
33848,0.234338,9.79436,1.14778,1.61,-3.15,0.56,22.6177,-46.954,-21.6793,1014.72
33854,0.277379,9.77044,1.14299,1.68,-2.8,-0.07,23.0536,-46.954,-21.6497,1014.72
33860,0.215208,9.7561,1.16691,2.17,-3.29,-0.63,23.0826,-46.7381,-21.7975,1014.73
33866,0.234338,9.76088,1.20038,2.17,-2.87,-0.28,22.0656,-47.5708,-22.6398,1014.73
33872,0.272597,9.78957,1.14778,1.96,-2.66,0.21,22.6177,-47.0465,-21.7384,1014.73
33878,0.243902,9.77044,1.14299,1.96,-2.94,-0.14,23.1698,-46.7073,-21.3542,1014.73
33884,0.243902,9.77523,1.14778,1.89,-2.52,0.35,23.1117,-46.8923,-21.4872,1014.73
33890,0.210426,9.7561,1.17169,1.68,-3.08,-0.49,23.0826,-46.8923,-23.0978,1014.74
33896,0.243902,9.76088,1.16691,1.82,-2.8,-0.49,23.1988,-46.8306,-21.9009,1014.74
33902,0.253467,9.74653,1.16212,1.82,-3.08,0.49,23.9543,-47.3549,-21.6202,1014.74
33908,0.21999,9.78957,1.15734,1.75,-3.29,0.14,22.763,-47.2624,-22.0192,1014.74
33914,0.224773,9.76088,1.18604,2.1,-2.73,-0.21,22.8502,-48.0642,-22.093,1014.78
33920,0.234338,9.74175,1.17647,1.96,-2.45,-0.28,23.4603,-47.4166,-22.3295,1014.78
33926,0.253467,9.74653,1.18604,1.61,-2.8,-0.49,22.6758,-47.2624,-22.359,1014.7
33932,0.23912,9.74653,1.18125,1.68,-3.22,0.07,23.2279,-47.4782,-21.5315,1014.7
33938,0.234338,9.79914,1.14299,1.75,-2.59,0.49,23.4603,-46.7998,-22.4772,1014.7
33944,0.248685,9.78001,1.17169,1.89,-2.59,-0.28,23.2279,-47.0773,-21.3394,1014.74
33950,0.229555,9.77044,1.17169,1.82,-3.5,17.64,23.6637,-46.7689,-22.758,1014.74
33956,0.25825,9.78001,1.10473,1.68,-3.01,-0.35,23.3151,-46.7689,-22.7875,1014.75
33962,0.25825,9.8087,1.14299,1.82,-2.94,-0.28,23.3732,-47.725,-22.891,1014.75
33968,0.215208,9.7561,1.14778,2.24,-3.08,-0.21,22.7339,-47.7558,-21.7384,1014.75
33974,0.21999,9.76566,1.16212,1.54,-3.22,-0.28,22.792,-48.1259,-21.7089,1014.75
33980,0.248685,9.79914,1.12865,1.47,-3.5,-0.28,23.78,-47.2624,-21.369,1014.75
33986,0.248685,9.77523,1.14778,1.89,-2.52,0.14,23.1988,-47.0465,-22.6693,1014.75
33992,0.229555,9.78001,1.17647,1.12,-2.66,0.21,22.9954,-47.4166,-23.4968,1014.75
33998,0.196078,9.75131,1.20038,1.68,-2.94,-0.49,23.7219,-47.1082,-22.3886,1014.73
34004,0.191296,9.77523,1.13821,2.1,-3.36,-0.14,24.0705,-47.9408,-21.4281,1014.73
34010,0.196078,9.76566,1.16691,1.68,-2.8,0.63,23.7219,-47.139,-21.4281,1014.7
34016,0.243902,9.77044,1.19082,1.4,-2.87,0.14,23.286,-47.4166,-22.2113,1014.7
34022,0.210426,9.76566,1.12865,1.89,-2.94,-0.14,23.0536,-46.4605,-22.0192,1014.73
34028,0.21999,9.78001,1.16212,1.89,-3.29,-0.21,23.5475,-46.6764,-22.3147,1014.73
34034,0.229555,9.77523,1.16691,1.54,-3.29,0.21,23.257,-46.5222,-21.1917,1014.72
34040,0.23912,9.75131,1.15256,1.82,-3.15,0.56,23.1988,-46.4297,-22.8319,1014.72
34046,0.234338,9.77523,1.14778,1.47,-3.22,0.14,22.8502,-46.3989,-21.7236,1014.73
34052,0.234338,9.74175,1.17169,1.61,-3.01,0.14,23.1988,-47.2624,-23.0092,1014.73
34058,0.21999,9.78479,1.10952,1.82,-3.01,0.35,23.4894,-47.2624,-21.5759,1014.73
34064,0.25825,9.7561,1.16212,1.89,-3.08,0.21,23.286,-47.1082,-22.0783,1014.75
34070,0.224773,9.78957,1.14778,1.75,-3.15,-0.07,22.7339,-47.4474,-21.9601,1014.75
34076,0.263032,9.76088,1.17169,2.1,-3.22,0.28,22.9664,-47.1082,-21.7532,1014.76
34082,0.243902,9.78957,1.11908,2.31,-3.15,-0.21,23.4313,-47.4782,-22.5068,1014.76
34088,0.253467,9.77044,1.13821,1.33,-3.01,-0.21,22.24,-47.1698,-21.0735,1014.72
34094,0.25825,9.77044,1.15734,1.19,-2.8,-0.14,22.4724,-46.6147,-21.635,1014.72
34100,0.215208,9.78479,1.17169,1.33,-2.87,-0.77,22.6758,-47.4166,-21.9896,1014.76
34106,0.23912,9.77523,1.15734,1.68,-3.15,-0.21,23.3151,-46.8306,-23.0387,1014.76
34112,0.25825,9.78479,1.15256,1.61,-2.87,-0.35,23.3441,-46.7073,-22.3442,1014.76
34118,0.186514,9.74175,1.18604,1.05,-3.01,-0.63,23.0245,-47.3549,-22.5216,1014.78
34124,0.215208,9.75131,1.20516,1.68,-3.71,-0.7,23.4313,-46.6456,-22.1374,1014.78
34130,0.215208,9.7561,1.19082,1.61,-3.99,0.14,23.1407,-47.2932,-21.6054,1014.71
34136,0.234338,9.76088,1.16212,1.68,-2.73,0.07,23.1698,-46.8306,-21.3542,1014.71
34142,0.215208,9.76566,1.16691,1.75,-3.43,-0.21,23.0245,-47.1082,-21.8123,1014.72
34148,0.224773,9.76088,1.17169,1.75,-2.94,0.21,23.3151,-46.6147,-22.1078,1014.72
34154,0.234338,9.7561,1.18125,2.17,-3.08,0.14,23.0536,-46.5839,-21.7975,1014.75
34160,0.210426,9.74653,1.18604,1.96,-3.08,0.35,22.4143,-46.4297,-22.4181,1014.75
34166,0.229555,9.73697,1.15734,2.1,-3.08,0.35,22.8792,-46.7998,-21.3247,1014.7
34172,0.224773,9.76566,1.14778,1.75,-2.8,-0.14,23.0245,-47.0157,-22.1817,1014.7
34178,0.243902,9.78479,1.14778,2.03,-2.87,-0.14,23.6347,-47.2624,-21.6054,1014.7
34184,0.267814,9.79436,1.13343,1.82,-3.15,0.35,23.1117,-46.9231,-21.6793,1014.74
34190,0.272597,9.78001,1.13821,1.75,-2.87,0.28,22.7339,-46.7689,-22.1521,1014.74
34196,0.243902,9.78479,1.17647,1.82,-2.94,-0.91,22.9954,-46.6456,-22.2408,1014.74
34202,0.23912,9.78957,1.18125,1.68,-2.87,-0.35,23.1407,-46.1521,-21.502,1014.74
34220,0.200861,9.73218,1.21473,1.75,-2.8,-0.63,23.1698,-46.5839,-21.5315,1014.74
34226,0.25825,9.76566,1.20038,2.03,-2.94,-0.35,23.1407,-46.7073,-21.9601,1014.74
34232,0.224773,9.7561,1.15734,1.89,-3.15,-0.28,23.7219,-46.3063,-22.9944,1014.74
34238,0.229555,9.77044,1.13821,1.82,-2.73,0.63,22.5305,-46.8306,-21.3394,1014.72
34244,0.224773,9.69871,1.16691,2.1,-2.94,0.14,22.2981,-46.7998,-22.1669,1014.72
34250,0.21999,9.74653,1.16691,1.82,-2.73,-0.07,23.5185,-46.7998,-22.891,1014.72
34256,0.248685,9.78001,1.15734,2.17,-3.15,0,23.4894,-46.5531,-21.2508,1014.72
34262,0.21999,9.73218,1.16691,2.03,-3.22,0.07,23.0826,-46.3989,-22.891,1014.72
34268,0.234338,9.74175,1.17647,2.17,-3.22,-0.07,23.7219,-47.9717,-22.0044,1014.72
34274,0.21999,9.77044,1.18604,1.96,-3.36,-0.07,23.6928,-46.4914,-22.2113,1014.74
34280,0.248685,9.77044,1.14778,1.82,-2.94,-0.07,22.9954,-46.3372,-23.349,1014.74
34286,0.243902,9.76566,1.1143,1.89,-2.94,-0.07,23.78,-46.5839,-22.2704,1014.74
34292,0.263032,9.75131,1.16212,2.03,-2.87,-0.28,22.7049,-46.4914,-22.5363,1014.73
34298,0.25825,9.78001,1.16212,2.03,-3.08,-0.35,22.7339,-46.0596,-21.3247,1014.73
34304,0.272597,9.78957,1.15734,2.17,-2.52,-0.14,23.1988,-46.4605,-20.7779,1014.75
34310,0.253467,9.78957,1.14299,1.61,-2.52,-0.07,22.5015,-46.9848,-20.8962,1014.75
34316,0.23912,9.77044,1.16691,2.03,-3.57,-0.49,23.1407,-46.7381,-20.645,1014.71
34322,0.272597,9.78957,1.16691,1.89,-2.8,-0.21,23.1988,-46.6147,-21.5168,1014.71
34328,0.23912,9.79914,1.13343,1.89,-2.38,-0.28,22.8211,-46.5531,-21.0587,1014.74
34334,0.215208,9.75131,1.15256,1.96,-3.08,-0.49,22.9083,-46.8615,-21.7975,1014.74
34340,0.21999,9.78479,1.15256,1.4,-3.29,-0.42,22.5015,-47.0157,-21.9748,1014.75
34346,0.21999,9.7561,1.18125,1.68,-2.73,-0.42,22.9954,-46.2755,-20.97,1014.75
34352,0.21999,9.77044,1.15734,1.82,-2.94,-0.63,23.5766,-46.0905,-22.2408,1014.75
34358,0.229555,9.74175,1.13343,1.75,-3.22,-0.14,23.5185,-46.0596,-21.1769,1014.73
34364,0.229555,9.75131,1.17169,1.89,-3.01,0.07,23.3732,-46.5531,-21.6645,1014.73
34370,0.200861,9.74653,1.17647,2.1,-2.94,0.28,23.6056,-46.7073,-21.9748,1014.75
34376,0.234338,9.76566,1.17169,2.03,-3.29,-0.28,23.4022,-46.7998,-21.3985,1014.75
34382,0.21999,9.76088,1.14299,1.89,-3.29,0,23.2279,-46.5531,-21.5759,1014.74
34388,0.23912,9.75131,1.15734,1.89,-3.15,-0.07,23.4603,-46.9848,-21.1178,1014.74
34394,0.229555,9.73218,1.14778,1.89,-2.8,0.07,23.0245,-46.6764,-21.3247,1014.74
34400,0.210426,9.74653,1.18125,1.96,-3.22,0.14,22.9954,-47.3549,-22.0783,1014.74
34406,0.248685,9.74175,1.14299,1.82,-3.22,0.35,23.0826,-46.7998,-22.1078,1014.74
34412,0.253467,9.78957,1.16212,2.1,-3.15,-0.28,22.9664,-46.3372,-21.0735,1014.72
34418,0.248685,9.82783,1.15734,1.89,-2.45,-0.14,23.1407,-46.2447,-21.2065,1014.72
34424,0.263032,9.76088,1.12386,1.68,-2.66,-0.28,23.6637,-47.0773,-21.0882,1014.71
34430,0.229555,9.79436,1.20038,1.75,-2.66,17.5,23.1407,-46.6147,-22.4181,1014.71
34436,0.263032,9.78957,1.16212,1.75,-3.36,-0.07,23.0536,-47.324,-21.9748,1014.71
34442,0.272597,9.78957,1.10952,1.96,-3.57,-0.56,22.9083,-46.5222,-21.7089,1014.71
34448,0.224773,9.7561,1.14299,1.75,-3.57,-1.05,23.6056,-46.6456,-21.2803,1014.72
34454,0.200861,9.74653,1.18604,1.61,-3.15,-0.21,22.8502,-46.7073,-21.2212,1014.72
34460,0.205643,9.75131,1.20038,1.82,-3.36,-0.35,23.7219,-46.6456,-22.5807,1014.72
34466,0.23912,9.75131,1.13343,1.82,-2.73,-0.63,22.9664,-46.8306,-22.9944,1014.75
34472,0.23912,9.75131,1.16691,1.68,-2.94,-0.21,23.1407,-46.3372,-21.5315,1014.75
34478,0.191296,9.77523,1.16212,1.54,-3.43,0.07,23.1117,-46.6764,-21.6202,1014.74
34484,0.215208,9.76566,1.12386,2.03,-3.01,-0.28,23.1407,-46.7998,-22.5216,1014.74
34490,0.215208,9.74653,1.16212,1.82,-3.08,-0.07,23.0245,-47.3549,-22.9205,1014.73
34496,0.23912,9.76088,1.17169,1.68,-3.5,-0.14,22.269,-46.183,-21.6054,1014.73
34502,0.23912,9.7561,1.11908,1.61,-3.15,0,22.9954,-46.5222,-22.7432,1014.75
34508,0.23912,9.79436,1.15734,1.61,-3.22,0,22.4434,-46.5531,-22.0783,1014.75
34514,0.25825,9.77523,1.14778,1.89,-3.5,0.14,23.1407,-47.0773,-21.768,1014.72
34520,0.23912,9.77523,1.16691,1.89,-3.57,0,23.3151,-47.0157,-22.4772,1014.72
34526,0.272597,9.77523,1.15734,1.4,-3.29,-0.07,23.8671,-46.954,-22.5954,1014.72
34532,0.267814,9.79436,1.12386,1.61,-2.87,-0.35,22.792,-47.1082,-21.5168,1014.72
34538,0.25825,9.78479,1.13821,1.89,-3.78,-0.56,22.7339,-47.1082,-23.748,1014.72
34544,0.243902,9.77523,1.16212,1.68,-3.08,-0.07,22.3271,-47.5399,-22.7137,1014.74
34550,0.229555,9.76088,1.19082,1.33,-3.08,0.14,23.1117,-47.6016,-22.4181,1014.74
34556,0.253467,9.76088,1.19082,1.54,-3.36,-0.28,23.3732,-46.9231,-22.4625,1014.75
34562,0.267814,9.7561,1.20038,1.96,-2.87,-0.56,23.1988,-46.3989,-21.8418,1014.75
34568,0.243902,9.75131,1.14778,1.68,-2.94,-0.7,24.1287,-47.5399,-22.2556,1014.71
34574,0.25825,9.77044,1.1956,1.61,-2.59,-0.56,22.9954,-47.0773,-22.4033,1014.71
34580,0.095648,9.78001,1.18125,1.96,-3.22,-0.07,22.9954,-45.9671,-22.4772,1014.71
34586,0.234338,9.7274,1.15256,2.24,-3.36,-0.28,22.8792,-46.8615,-23.9844,1014.74
34592,0.191296,9.78001,1.14778,2.1,-2.94,0.07,23.257,-47.2624,-21.9896,1014.74
34598,0.248685,9.74175,1.12386,2.03,-2.87,-0.21,22.9083,-47.1698,-21.5611,1014.76
34604,0.234338,9.77523,1.13821,1.4,-2.87,0,23.1407,-46.954,-21.2508,1014.76
34610,0.23912,9.74175,1.17647,1.96,-3.43,-0.35,23.0245,-46.4914,-22.3147,1014.72
34616,0.23912,9.74175,1.18604,1.47,-3.08,0.28,23.1407,-46.4297,-21.9157,1014.72
34622,0.229555,9.76088,1.15256,1.96,-3.36,0.28,23.2279,-47.5399,-21.8566,1014.72
34628,0.282162,9.79436,1.16212,1.4,-3.22,0,23.1698,-46.9848,-21.5759,1014.72
34634,0.286944,9.80392,1.16212,1.61,-2.94,-0.63,22.8792,-46.8923,-21.7975,1014.72
34640,0.23912,9.76088,1.17169,1.68,-3.36,-0.56,22.5886,-46.5531,-22.1817,1014.72
34646,0.243902,9.77523,1.20516,1.33,-2.31,-0.56,22.8211,-46.5222,-21.8566,1014.72
34652,0.263032,9.77044,1.18604,2.03,-3.08,-0.7,22.8211,-46.5222,-21.9896,1014.76
34658,0.23912,9.79914,1.17169,1.75,-3.22,-0.84,22.5015,-46.9231,-22.7137,1014.76
34664,0.229555,9.73697,1.14778,1.96,-3.22,-0.21,22.763,-46.8306,-21.103,1014.72
34670,0.243902,9.73697,1.18125,1.89,-2.94,-0.77,23.0826,-46.3372,-21.9601,1014.72
34676,0.243902,9.76088,1.15256,1.89,-2.52,-0.7,22.8502,-46.8306,-21.2951,1014.7
34682,0.191296,9.77044,1.16691,1.96,-2.66,-0.63,22.8211,-46.2138,-20.7041,1014.7
34688,0.205643,9.74653,1.16691,2.1,-3.22,-0.35,22.7339,-46.6147,-21.7236,1014.7
34694,0.229555,9.73218,1.17169,1.89,-3.64,-0.07,22.763,-47.1082,-21.502,1014.7
34700,0.229555,9.74653,1.18604,2.45,-3.15,-0.21,22.8502,-45.9979,-22.2999,1014.7
34706,0.205643,9.77044,1.12386,1.89,-2.17,-0.28,22.9083,-46.3372,-21.6202,1014.73
34712,0.200861,9.7561,1.17169,2.52,-2.94,-0.49,23.1117,-46.6764,-21.7089,1014.73
34718,0.215208,9.78001,1.13821,1.54,-2.8,-0.07,23.2279,-46.9231,-21.502,1014.68
34724,0.186514,9.76088,1.15734,1.89,-3.22,0.14,22.2981,-46.3372,-20.9996,1014.68
34730,0.248685,9.75131,1.12865,2.1,-3.22,-0.56,22.2981,-46.5839,-21.7236,1014.75
34736,0.263032,9.7561,1.14299,2.1,-2.8,-0.35,22.7049,-47.0773,-22.6545,1014.75
34742,0.234338,9.76566,1.17169,1.47,-3.15,-0.21,21.7751,-48.1259,-23.1422,1014.76
34748,0.210426,9.76566,1.16212,1.89,-3.08,0,22.6177,-46.954,-20.8518,1014.76
34754,0.263032,9.77044,1.14299,1.96,-2.8,-0.56,22.9954,-46.7998,-21.9009,1014.76
34760,0.234338,9.77523,1.15256,1.96,-2.94,-0.98,22.4724,-46.368,-22.625,1014.72
34766,0.191296,9.73697,1.17169,1.89,-2.8,-0.42,22.7049,-46.5222,-22.8614,1014.72
34772,0.181731,9.74653,1.21951,1.61,-3.29,-0.07,23.1698,-46.6456,-21.9305,1014.72
34778,0.210426,9.73697,1.15734,1.96,-3.08,-0.49,23.5766,-46.6456,-22.7137,1014.72
34784,0.181731,9.73697,1.12386,2.1,-2.94,0.14,23.0826,-46.3063,-21.4429,1014.74
34790,0.205643,9.74175,1.17169,1.89,-3.01,-0.28,22.6758,-47.1082,-22.9648,1014.74
34796,0.196078,9.7274,1.15734,1.82,-2.94,0.21,22.763,-46.7381,-22.8762,1014.7
34802,0.181731,9.72262,1.14778,2.1,-3.15,0.21,22.9083,-47.2007,-22.7728,1014.7
34808,0.186514,9.74175,1.17647,1.96,-2.94,0.21,23.4603,-46.0288,-23.0683,1014.7
34814,0.21999,9.73218,1.13821,1.75,-3.22,0.14,22.8792,-46.183,-22.1817,1014.72
34820,0.253467,9.74653,1.11908,1.61,-3.15,0.42,23.4313,-45.8746,-22.625,1014.72
34826,0.215208,9.75131,1.18604,2.31,-2.87,0.91,22.6758,-46.5839,-21.3542,1014.69
34832,0.23912,9.77044,1.14299,1.89,-3.08,0,22.8502,-45.9979,-21.3985,1014.69
34838,0.248685,9.78479,1.13343,1.68,-3.43,0,22.8502,-47.0773,-22.6398,1014.69
34844,0.253467,9.77523,1.16691,2.1,-3.08,0.14,22.6758,-46.0288,-21.3247,1014.69
34850,0.215208,9.7561,1.14778,2.1,-2.73,0.07,23.0536,-46.2447,-22.6545,1014.69
34856,0.215208,9.76566,1.18604,1.89,-2.94,0.14,22.6468,-46.4297,-21.6054,1014.69
34862,0.229555,9.74175,1.14299,1.61,-3.08,-0.28,22.6177,-46.954,-21.7236,1014.71
34868,0.248685,9.79914,1.15256,2.1,-3.36,0.14,22.6177,-46.1521,-21.8123,1014.71
34874,0.229555,9.77044,1.13821,1.89,-3.43,-0.14,23.0536,-46.9848,-21.2951,1014.71
34880,0.191296,9.78957,1.1143,1.96,-3.5,-0.21,22.269,-46.8615,-21.1621,1014.77
34886,0.210426,9.77044,1.15256,1.96,-3.15,-0.42,22.6468,-46.7689,-22.7137,1014.77
34892,0.205643,9.73697,1.14299,1.89,-3.36,0.28,22.8792,-46.8923,-22.6545,1014.72
34898,0.224773,9.74175,1.18125,2.24,-3.01,-0.14,22.8211,-46.368,-23.7332,1014.72
34904,0.229555,9.74175,1.1143,2.17,-3.08,-0.28,23.1407,-46.1521,-21.9305,1014.73
34910,0.224773,9.77523,1.12386,1.82,-2.87,17.64,22.6758,-45.9979,-22.5216,1014.73
34916,0.167384,9.73218,1.14299,1.47,-3.15,-0.07,22.8792,-45.9054,-22.5807,1014.72
34922,0.196078,9.78957,1.13343,1.89,-3.5,0.28,22.4434,-46.3989,-22.6102,1014.72
34928,0.215208,9.78001,1.10952,2.31,-3.43,0.21,22.4143,-46.3989,-22.7137,1014.72
34934,0.210426,9.78001,1.1143,1.96,-3.01,0,23.5185,-45.8746,-22.0339,1014.73
34940,0.234338,9.79914,1.10952,2.03,-3.15,-0.14,23.6056,-46.7998,-23.2899,1014.73
34946,0.21999,9.78001,1.10952,2.31,-3.22,0,23.3732,-46.8615,-23.0387,1014.76
34952,0.253467,9.77044,1.16212,1.75,-2.94,-0.07,23.4022,-46.7073,-22.1965,1014.76
34958,0.248685,9.79914,1.12865,2.03,-2.45,0.21,23.2279,-46.183,-23.0683,1014.74
34964,0.291726,9.78957,1.12386,1.4,-2.73,0.14,22.9083,-45.597,-22.5511,1014.74
34970,0.243902,9.79436,1.15256,2.03,-2.94,-0.28,22.9954,-46.3989,-20.9996,1014.75
34976,0.210426,9.77044,1.16212,1.96,-2.8,-0.14,22.9954,-45.9979,-22.2408,1014.75
34982,0.167384,9.77044,1.22429,1.33,-3.29,0,22.9083,-46.2447,-23.6593,1014.75
34988,0.196078,9.76088,1.12386,1.82,-2.8,0,22.9083,-46.6456,-22.6398,1014.72
34994,0.234338,9.76566,1.1143,1.82,-3.08,0.35,22.8211,-46.4914,-21.9157,1014.72
35000,0.191296,9.76088,1.16212,1.75,-2.8,0.42,22.6177,-46.7073,-23.6002,1014.74
35006,0.210426,9.76088,1.16212,1.82,-2.94,0.49,22.4143,-47.2932,-21.6054,1014.74
35012,0.205643,9.73697,1.15256,1.75,-3.5,0,23.1988,-46.1521,-21.635,1014.73
35018,0.191296,9.77044,1.12865,1.82,-2.73,0.35,22.6758,-46.3989,-23.1422,1014.73
35024,0.210426,9.74653,1.17647,1.96,-3.08,0.42,22.4434,-45.9054,-22.0635,1014.71
35030,0.205643,9.78001,1.15734,2.03,-3.29,-0.07,22.269,-47.1698,-22.2113,1014.71
35036,0.210426,9.76566,1.16212,1.89,-3.08,0.35,22.5886,-47.0157,-22.9501,1014.73
35042,0.234338,9.74653,1.10952,2.1,-3.01,0.91,23.3441,-46.8923,-22.0044,1014.73
35048,0.23912,9.76088,1.14778,2.38,-2.8,0.35,22.3271,-46.0905,-22.4625,1014.73
35054,0.229555,9.77523,1.10952,2.24,-2.59,0.98,22.5015,-47.2315,-24.5164,1014.76
35060,0.243902,9.78957,1.09995,1.82,-2.8,0.49,22.7339,-46.7073,-22.4033,1014.76
35066,0.243902,9.77044,1.14299,1.96,-3.08,0.14,21.9494,-47.0157,-22.0339,1014.75
35072,0.248685,9.77044,1.18604,2.03,-2.87,0.28,22.5886,-46.9848,-21.9157,1014.75
35078,0.272597,9.75131,1.12386,1.89,-2.52,0.56,22.5886,-46.8306,-22.2408,1014.76
35084,0.215208,9.78001,1.15256,1.68,-2.66,0.14,22.8211,-46.9848,-22.0192,1014.76
35090,0.210426,9.76088,1.13821,1.75,-2.45,0.35,23.1407,-45.9363,-23.0978,1014.76
35096,0.176949,9.7561,1.16212,1.82,-2.45,0.49,22.7339,-46.9848,-21.7384,1014.76
35102,0.224773,9.75131,1.20038,1.68,-3.22,0.14,22.8211,-46.6764,-23.3343,1014.76
35108,0.23912,9.76566,1.13821,2.31,-2.66,0.56,22.9373,-46.7381,-22.093,1014.71
35114,0.243902,9.76566,1.17647,2.59,-3.29,0.07,23.4894,-46.8306,-21.8862,1014.71
35120,0.23912,9.78957,1.15256,1.75,-2.94,0.21,22.7339,-47.139,-22.2556,1014.72
35126,0.234338,9.7561,1.12865,1.89,-2.59,0,22.7049,-46.6456,-22.226,1014.72
35132,0.21999,9.76566,1.15734,1.82,-3.29,0.56,22.6758,-46.9231,-21.9157,1014.74
35138,0.23912,9.73218,1.17647,2.31,-3.36,0.49,23.1698,-46.368,-21.6793,1014.74
35144,0.234338,9.73697,1.13821,1.75,-2.94,0.63,23.0245,-46.8923,-22.9205,1014.76
35150,0.243902,9.77044,1.16212,2.17,-3.01,0.49,22.8502,-46.9231,-21.7384,1014.76
35156,0.282162,9.77044,1.14778,2.24,-3.29,0.28,23.0536,-46.9231,-22.4477,1014.76
35162,0.25825,9.81349,1.13343,2.24,-3.29,0.14,23.1117,-47.1082,-22.0192,1014.73
35168,0.243902,9.77044,1.12865,2.24,-2.94,0,22.7339,-46.8615,-21.2656,1014.73
35174,0.229555,9.76566,1.14778,1.61,-3.36,0.63,22.5305,-46.3063,-22.1078,1014.72
35180,0.282162,9.78001,1.17647,2.17,-3.08,-0.21,23.0536,-46.8615,-23.1126,1014.72
35186,0.272597,9.79436,1.12386,2.17,-2.87,0.28,23.1117,-46.5222,-22.6398,1014.72
35192,0.21999,9.78957,1.14299,1.82,-3.22,-0.28,22.0656,-46.8923,-23.748,1014.72
35198,0.21999,9.78479,1.14299,1.75,-2.59,0.35,22.3562,-47.0773,-23.3786,1014.73
35204,0.243902,9.7561,1.14778,2.03,-3.29,0.07,22.5886,-47.1082,-22.5807,1014.73
35210,0.210426,9.7561,1.15256,2.03,-3.08,-0.14,22.9083,-46.183,-22.6102,1014.74
35216,0.229555,9.73218,1.11908,1.89,-2.87,0,22.5886,-46.4297,-22.3295,1014.74
35222,0.215208,9.73697,1.14778,1.68,-3.01,0.42,22.4434,-46.7998,-22.4033,1014.74
35228,0.23912,9.78001,1.16691,1.68,-3.64,0.35,22.6758,-46.5222,-23.3786,1014.69
35234,0.243902,9.71305,1.16691,2.03,-2.94,-0.07,22.7049,-47.4166,-21.0144,1014.69
35240,0.210426,9.7561,1.14299,2.03,-2.8,0.14,22.8792,-46.7998,-22.6398,1014.72
35246,0.229555,9.76088,1.13821,1.54,-3.15,0.49,22.5015,-47.0465,-21.6645,1014.72
35252,0.229555,9.76088,1.12865,2.24,-3.71,0.14,22.6758,-45.597,-22.3147,1014.72
35258,0.248685,9.77044,1.17169,2.1,-3.29,0.49,22.6758,-46.5531,-21.7827,1014.72
35264,0.229555,9.78001,1.14299,2.03,-3.01,0.21,22.0656,-46.5839,-22.5068,1014.75
35270,0.243902,9.77044,1.1956,1.82,-2.52,0.21,22.6468,-47.1082,-23.0978,1014.75
35276,0.263032,9.76566,1.14778,1.89,-2.94,0.56,22.7049,-46.9848,-22.1521,1014.75
35282,0.25825,9.7561,1.18125,1.96,-3.22,-0.14,22.9373,-46.6764,-22.5511,1014.74
35288,0.253467,9.78001,1.16212,1.96,-2.59,0,22.6177,-46.7073,-22.5511,1014.74
35294,0.267814,9.7561,1.15734,2.1,-2.8,0.35,21.9785,-46.954,-22.5363,1014.73
35300,0.243902,9.73218,1.14299,1.89,-3.22,0.14,22.6758,-46.6456,-22.0635,1014.73
35306,0.25825,9.80392,1.13821,1.96,-3.36,-0.42,23.1988,-46.8615,-21.5611,1014.73
35312,0.248685,9.78957,1.1143,2.03,-2.87,-0.28,22.5305,-47.0157,-22.093,1014.73
35318,0.272597,9.77523,1.16691,1.82,-2.87,0.42,22.8502,-46.4605,-22.625,1014.73
35324,0.229555,9.78479,1.10952,1.89,-2.38,-0.28,22.3562,-47.2932,-22.1521,1014.73
35330,0.224773,9.74175,1.16212,1.89,-2.8,0.56,23.1407,-46.7381,-20.8962,1014.73
35336,0.253467,9.74175,1.15734,1.89,-3.08,0.28,22.9664,-46.8306,-21.7384,1014.74
35342,0.234338,9.76088,1.13343,2.17,-2.87,-0.14,22.6758,-46.9231,-21.3838,1014.74
35348,0.253467,9.72262,1.12865,2.24,-2.87,0,22.9954,-47.0773,-21.5759,1014.73
35354,0.229555,9.7561,1.19082,2.1,-3.01,0.28,22.792,-46.6147,-22.9944,1014.73
35360,0.248685,9.76088,1.17647,1.26,-2.94,0.07,23.1407,-46.0905,-21.6054,1014.73
35366,0.248685,9.76566,1.14299,2.03,-3.08,0.21,23.1698,-46.5839,-22.0783,1014.73
35372,0.234338,9.76566,1.16691,1.68,-2.87,0.56,22.7339,-46.5222,-23.4525,1014.72
35378,0.248685,9.77044,1.17169,2.38,-3.08,-0.21,23.3151,-46.8306,-21.7384,1014.72
35384,0.243902,9.76088,1.12865,2.31,-2.94,-0.28,23.257,-46.7998,-20.5415,1014.77
35390,0.25825,9.74175,1.14778,1.68,-2.87,-17.5,23.1117,-46.8615,-21.9305,1014.77
35396,0.21999,9.77523,1.13821,2.24,-3.08,0.07,22.9083,-46.2138,-21.8862,1014.77
35402,0.25825,9.79436,1.10952,1.82,-3.08,0,22.792,-46.5222,-22.3295,1014.73
35408,0.272597,9.79914,1.09995,1.89,-3.08,-0.14,22.9664,-46.3063,-22.4329,1014.73
35414,0.291726,9.78957,1.18125,1.75,-2.45,0.07,22.9373,-46.5531,-22.7137,1014.76
35420,0.234338,9.79436,1.16212,1.4,-2.52,0.14,23.1117,-46.7073,-21.0439,1014.76
35426,0.210426,9.74653,1.16212,1.75,-3.08,-0.35,22.9664,-46.5531,-20.8223,1014.73
35432,0.229555,9.77523,1.17647,1.96,-2.66,-0.49,23.4603,-46.6456,-21.7089,1014.73
35438,0.243902,9.74175,1.18125,2.03,-3.01,-0.21,22.8792,-47.2624,-22.6989,1014.76
35444,0.205643,9.72262,1.17169,2.24,-3.22,-0.21,22.4724,-46.8306,-22.0339,1014.76
35450,0.191296,9.78001,1.14299,2.31,-2.8,-0.21,23.0826,-47.4166,-21.9453,1014.76
35456,0.205643,9.76088,1.15734,2.1,-2.8,-0.07,23.0245,-46.8923,-22.3442,1014.74
35462,0.205643,9.74653,1.17169,2.1,-2.66,0.21,23.3441,-46.8923,-22.4181,1014.74
35468,0.248685,9.72262,1.12865,2.38,-3.22,-0.14,22.6758,-46.9231,-21.8714,1014.74
35474,0.23912,9.73697,1.15734,1.82,-3.08,0.35,22.9954,-46.9231,-21.4429,1014.74
35480,0.25825,9.7561,1.17169,2.17,-2.73,0.28,23.4603,-46.8306,-22.7728,1014.74
35486,0.234338,9.78001,1.14299,2.45,-2.94,0.42,23.4894,-46.4605,-22.1078,1014.74
35492,0.272597,9.75131,1.1143,2.31,-2.8,0.07,22.4434,-46.8923,-21.0882,1014.72
35498,0.234338,9.75131,1.15734,1.89,-3.08,0.35,22.9373,-46.5839,-22.2408,1014.72
35504,0.248685,9.78479,1.12386,1.89,-3.57,0.49,22.5015,-45.9979,-23.7037,1014.72
35510,0.234338,9.76088,1.14778,1.82,-3.29,0.35,22.5305,-46.954,-22.0783,1014.7
35516,0.25825,9.77044,1.16691,1.96,-3.22,0.14,22.5596,-45.9363,-22.9353,1014.7
35522,0.21999,9.77044,1.14299,2.1,-2.94,0.21,22.5015,-46.6147,-23.3638,1014.74
35528,0.267814,9.7561,1.13821,2.03,-3.22,0.49,22.3271,-47.0465,-21.9601,1014.74
35534,0.234338,9.78479,1.17169,2.38,-3.01,0.28,22.269,-46.3063,-23.3047,1014.73
35540,0.248685,9.78479,1.15734,2.1,-3.08,0.07,22.9373,-46.183,-23.5855,1014.73
35546,0.248685,9.78001,1.16691,2.1,-3.29,-0.07,22.5886,-46.9231,-22.4772,1014.74
35552,0.234338,9.78957,1.15734,2.1,-2.59,0.21,23.4022,-46.8306,-22.9205,1014.74
35558,0.263032,9.77044,1.15256,1.82,-2.59,0.21,23.286,-46.2138,-21.635,1014.7
35564,0.253467,9.75131,1.13343,1.96,-2.73,0.28,22.5596,-47.4782,-24.2652,1014.7
35570,0.263032,9.76566,1.13821,2.1,-3.57,0.07,22.763,-45.8129,-22.2556,1014.7
35576,0.248685,9.76088,1.12865,2.03,-2.87,0.07,22.792,-46.1213,-22.8171,1014.71
35582,0.263032,9.76088,1.15256,1.82,-2.73,0.77,23.3732,-46.7073,-21.5315,1014.71
35588,0.243902,9.75131,1.14778,2.03,-3.08,0.35,23.257,-46.3372,-22.1669,1014.7
35594,0.267814,9.77044,1.13343,1.75,-3.01,0.14,22.6758,-47.139,-21.7384,1014.7
35600,0.23912,9.77523,1.15256,2.1,-2.52,0.14,22.792,-46.7073,-22.1521,1014.73
35606,0.243902,9.76088,1.15256,2.17,-2.24,0.28,23.4022,-46.6147,-21.7532,1014.73
35612,0.248685,9.76566,1.15256,2.17,-2.94,0.49,23.6347,-46.6764,-23.2308,1014.72
35618,0.248685,9.75131,1.15734,1.89,-2.94,0,22.9373,-46.954,-21.502,1014.72
35624,0.301291,9.78957,1.09995,1.68,-3.08,-0.14,23.3441,-46.4605,-22.2851,1014.72
35630,0.286944,9.78001,1.15734,1.89,-3.29,0.14,23.0826,-46.7381,-22.3442,1014.71
35636,0.248685,9.78957,1.16691,1.68,-3.01,0.07,22.3562,-46.0905,-22.2556,1014.71
35642,0.253467,9.78479,1.16691,1.68,-3.01,-0.28,22.9083,-47.0773,-22.6841,1014.75
35648,0.234338,9.77044,1.16212,1.82,-2.87,0.07,22.5015,-45.9363,-23.3047,1014.75
35654,0.253467,9.7561,1.12865,1.75,-2.8,0,22.9664,-46.5839,-23.1126,1014.7
35660,0.200861,9.74175,1.16212,1.47,-2.94,-0.49,23.0826,-46.4297,-23.1569,1014.7
35666,0.210426,9.74653,1.16212,1.75,-3.29,0.07,22.792,-46.8306,-23.2456,1014.75
35672,0.215208,9.7561,1.14299,1.61,-3.08,0.07,22.8792,-46.6764,-23.4081,1014.75
35678,0.23912,9.74175,1.12865,1.61,-3.08,0.21,22.8502,-47.139,-22.6989,1014.75
35684,0.23912,9.76088,1.12386,1.75,-3.71,0.14,23.1117,-46.368,-22.9057,1014.76
35690,0.23912,9.76566,1.15256,2.1,-3.22,0.28,23.3151,-46.5839,-21.6202,1014.76
35696,0.229555,9.77523,1.13343,1.75,-3.36,0.42,23.286,-46.6456,-22.9648,1014.76
35702,0.272597,9.7561,1.15734,1.4,-2.73,0.56,23.257,-47.139,-21.502,1014.76
35708,0.200861,9.7561,1.17647,1.75,-3.22,0.77,22.9954,-47.0465,-22.7875,1014.75
35714,0.224773,9.7561,1.18125,1.89,-3.57,0.42,22.792,-46.0905,-22.093,1014.75
35720,0.272597,9.75131,1.17169,1.96,-3.01,0.42,22.763,-46.2138,-22.1078,1014.74
35726,0.282162,9.77523,1.16212,1.75,-2.87,0.56,22.8792,-46.8923,-22.9944,1014.74
35732,0.25825,9.76088,1.13343,1.75,-3.22,0.42,22.9083,-46.2755,-21.8862,1014.75
35738,0.234338,9.7561,1.15256,1.82,-3.5,0.35,22.8502,-45.9054,-22.7728,1014.75
35744,0.267814,9.76566,1.17169,1.82,-3.22,0.42,23.1988,-46.6147,-22.9796,1014.75
35750,0.267814,9.76566,1.14299,2.24,-3.22,0.7,22.2981,-46.4914,-22.7137,1014.74
35756,0.296509,9.77044,1.14778,1.75,-3.01,0.21,23.0536,-46.2755,-21.9009,1014.74
35762,0.282162,9.8087,1.16691,2.1,-3.43,-0.35,22.5886,-46.6764,-22.3147,1014.71
35768,0.25825,9.78001,1.12865,2.17,-2.66,0.28,23.6347,-46.8923,-22.3147,1014.71
35774,0.248685,9.79914,1.13821,1.96,-2.73,0.42,23.257,-46.1521,-22.093,1014.74
35780,0.267814,9.77523,1.14299,1.96,-3.01,-0.35,22.7049,-45.8129,-21.502,1014.74
35786,0.320421,9.77523,1.16212,1.96,-3.08,-0.77,23.7509,-46.368,-22.0635,1014.75
35792,0.191296,9.80392,1.05691,2.03,-3.08,0.07,22.8211,-46.6764,-22.0635,1014.75
35798,0.25825,9.71784,1.12865,1.33,-2.66,0.35,22.9083,-46.7073,-22.1521,1014.75
35804,0.148254,9.76088,1.20995,1.96,-3.22,0.35,22.8211,-46.7381,-22.5216,1014.74
35810,0.277379,9.73218,1.10952,1.89,-3.22,0.42,23.0536,-46.2755,-21.9453,1014.74
35816,0.21999,9.74653,1.15734,2.03,-3.36,-0.28,23.1988,-46.9231,-21.9601,1014.73
35822,0.215208,9.73218,1.16212,1.68,-2.94,0.28,23.286,-46.5222,-22.7137,1014.73
35828,0.272597,9.77523,1.15734,2.17,-3.43,0.84,22.4434,-46.4297,-22.3147,1014.72
35834,0.253467,9.76566,1.14299,1.82,-2.66,0.42,22.4724,-46.8615,-21.5168,1014.72
35840,0.23912,9.75131,1.10952,2.24,-2.87,0.28,22.9373,-47.0465,-22.5659,1014.74
35846,0.267814,9.77523,1.14299,2.17,-3.29,0.28,22.7049,-47.0157,-23.0831,1014.74
35852,0.267814,9.7561,1.11908,1.96,-3.64,0.42,23.1117,-46.6764,-23.5559,1014.74
35858,0.267814,9.76566,1.12865,2.17,-3.01,-0.07,23.1117,-46.2755,-22.5807,1014.74
35864,0.267814,9.76088,1.15734,1.89,-2.8,0.35,23.4313,-46.368,-22.5216,1014.74
35870,0.306074,9.78957,1.1143,2.1,-3.5,-17.5,22.9373,-47.0465,-23.1126,1014.71
35876,0.282162,9.77044,1.15734,2.03,-2.94,-0.28,22.9083,-46.1213,-23.0535,1014.71
35882,0.248685,9.79914,1.13343,1.68,-3.36,-0.35,23.1698,-46.7998,-23.4672,1014.74
35888,0.353898,9.79914,1.13821,1.61,-3.29,0.21,23.1117,-47.2932,-21.502,1014.74
35894,0.286944,9.77044,1.06169,1.75,-2.73,-0.49,22.9954,-46.5839,-22.3147,1014.75
35900,0.215208,9.74175,1.14778,1.47,-2.8,-0.49,23.8671,-46.8923,-22.9353,1014.75
35906,0.157819,9.7561,1.20516,2.17,-3.57,0,23.6637,-47.1698,-23.3343,1014.75
35912,0.33955,9.73218,1.10473,1.82,-3.08,-0.07,23.3732,-46.3989,-22.8762,1014.75
35918,0.191296,9.76566,1.15256,1.82,-3.01,0.07,23.8381,-46.3063,-23.482,1014.75
35924,0.23912,9.74653,1.12865,1.61,-3.5,0.07,22.5305,-47.0465,-23.7184,1014.72
35930,0.196078,9.78479,1.19082,1.82,-3.08,-0.14,23.1117,-46.9848,-23.0535,1014.72
35936,0.272597,9.73218,1.16212,1.96,-2.73,0.42,22.4434,-46.3063,-22.6398,1014.74
35942,0.243902,9.78001,1.10952,1.75,-3.22,-0.21,22.6468,-47.1082,-21.6645,1014.74
35948,0.291726,9.75131,1.15256,1.96,-3.01,0.77,23.0536,-46.954,-20.8814,1014.73
35954,0.277379,9.78001,1.12865,1.54,-3.29,0.7,22.763,-46.6764,-22.0487,1014.73
35960,0.282162,9.75131,1.17169,2.03,-2.94,0.35,23.3732,-45.9363,-21.5315,1014.74
35966,0.263032,9.75131,1.12386,1.68,-3.08,0.63,23.2279,-46.3372,-22.1374,1014.74
35972,0.277379,9.78479,1.13821,1.96,-3.08,0.77,22.4724,-46.7381,-22.2113,1014.74
35978,0.272597,9.73218,1.17169,1.75,-3.57,0.21,22.792,-46.6456,-22.891,1014.75
35984,0.277379,9.79436,1.13343,1.26,-3.22,0.35,22.5596,-46.2138,-22.7728,1014.75
35990,0.282162,9.78479,1.15734,2.1,-3.29,0.14,23.1117,-46.5839,-22.0783,1014.73
35996,0.272597,9.77044,1.15256,1.61,-2.45,-0.07,22.5015,-46.6764,-22.5363,1014.73
36002,0.272597,9.78001,1.12865,2.1,-3.29,0.21,22.4434,-47.0465,-21.8418,1014.75
36008,0.253467,9.77044,1.21951,1.54,-2.38,0.21,22.9373,-47.2315,-22.9501,1014.75
36014,0.243902,9.79436,1.14778,1.47,-2.87,0.35,22.9373,-47.3857,-21.502,1014.76
36020,0.263032,9.79914,1.10473,1.33,-3.08,-0.21,22.9954,-46.7998,-21.7089,1014.76
36026,0.267814,9.77523,1.15734,1.54,-3.22,0.07,22.9664,-46.6764,-21.1178,1014.76
36032,0.25825,9.7561,1.18604,2.03,-3.01,0.35,22.9083,-46.7073,-22.0783,1014.74
36038,0.248685,9.74653,1.17169,2.24,-2.8,0.21,23.4022,-46.7998,-22.5068,1014.74
36044,0.286944,9.76566,1.11908,1.75,-2.8,0.07,23.1407,-46.4914,-21.6202,1014.75
36050,0.277379,9.77044,1.1143,1.89,-3.5,0,22.3562,-46.2138,-22.1374,1014.75
36056,0.248685,9.74175,1.14299,2.03,-3.22,0.49,22.763,-46.8923,-23.2013,1014.72
36062,0.248685,9.76088,1.14778,1.68,-2.8,0.49,22.1528,-46.4914,-22.0783,1014.72
36068,0.248685,9.7561,1.13343,2.31,-2.94,0.07,23.3151,-46.6147,-22.4772,1014.73
36074,0.272597,9.78001,1.14778,1.89,-3.5,0.42,22.5596,-47.3857,-21.8271,1014.73
36080,0.267814,9.76566,1.13821,2.17,-2.73,0.28,22.9083,-46.7073,-22.3442,1014.75
36086,0.243902,9.76088,1.16212,1.96,-2.66,0.42,23.4894,-46.6147,-23.1569,1014.75
36092,0.277379,9.7561,1.14299,1.89,-3.15,0,23.257,-47.3857,-22.2999,1014.75
36098,0.329986,9.79914,1.10952,1.89,-3.22,0.28,22.4724,-47.0465,-22.9796,1014.73
36104,0.344333,9.80392,1.10473,2.17,-2.66,0.07,22.6468,-46.7998,-23.0831,1014.73
36110,0.248685,9.78479,1.09517,1.26,-2.24,-0.07,23.0245,-47.0465,-22.6102,1014.73
36116,0.253467,9.79436,1.16212,1.54,-3.08,-0.28,22.3562,-46.8615,-22.8023,1014.73
36122,0.334768,9.81827,1.16212,1.54,-2.8,-0.56,23.257,-46.6456,-22.6398,1014.75
36128,0.363462,9.81827,1.15734,1.82,-2.8,-0.7,23.5475,-46.4297,-22.7137,1014.75
36134,0.511717,9.82783,0.93735,1.4,-2.52,-1.47,23.3151,-47.139,-22.3295,1014.75
36140,-0.0382592,9.69871,1.20995,1.54,-3.29,-0.35,23.3441,-46.368,-20.8814,1014.75
36146,0.23912,9.69392,1.12386,1.61,-2.1,-0.49,22.7049,-46.7998,-20.9848,1014.75
36152,0.0765184,9.73697,1.34864,1.68,-3.64,-0.14,22.7049,-46.954,-21.635,1014.73
36158,0.248685,9.79914,1.08082,1.75,-2.8,-0.49,22.9954,-46.6147,-20.9553,1014.73
36164,0.392157,10,0.769966,0.7,-3.01,-0.91,22.8792,-46.5839,-21.7532,1014.73
36170,0.310856,9.94739,1.18604,-0.14,-3.57,-0.56,22.8211,-46.7998,-21.3838,1014.73
36176,0.0191296,9.45481,1.6021,3.15,-2.03,-0.07,22.8792,-46.8615,-22.4625,1014.73
36182,-0.105213,9.68436,1.39646,2.66,-4.9,-0.14,22.9954,-45.8129,-21.7827,1014.73
