Timestamp,AccX,AccY,AccZ,AngularVelX,AngularVelY,AngularVelZ,MagX,MagY,MagZ,AirPressure
647552,-0.640842,9.73697,1.21951,-0.21,-0.7,0.49,-29.7923,-38.5606,-0.452914,1014.45
647558,-0.640842,9.7274,1.23386,-0.14,0.14,0.42,-29.8782,-38.0686,0.241766,1014.45
647564,-0.650406,9.69871,1.25777,0.35,-0.35,0.28,-29.5058,-39.0815,0.908091,1014.45
647570,-0.640842,9.7274,1.22908,-0.14,0.28,0.07,-29.7063,-38.1844,-0.566332,1014.43
647576,-0.655189,9.71784,1.20995,-0.14,-0.14,0.14,-29.9355,-38.3001,1.54606,1014.43
647582,-0.631277,9.74653,1.20516,-0.28,0.28,0.35,-30.5085,-37.9529,0.893914,1014.42
647588,-0.659971,9.73697,1.23864,-0.21,-0.21,0.49,-30.2793,-39.2551,0.000754159,1014.42
647594,-0.659971,9.73697,1.23386,-0.21,-0.28,0.07,-30.4225,-37.3162,0.553663,1014.45
647600,-0.631277,9.76566,1.22429,0.28,-0.28,0.49,-30.6803,-37.4899,1.81543,1014.45
647606,-0.655189,9.71305,1.26255,-0.35,0.07,0.28,-29.9928,-38.8789,-0.141017,1014.45
647612,-0.693448,9.74653,1.22908,-0.49,0,0.63,-30.1074,-38.8211,0.185057,1014.45
647618,-0.712578,9.77523,1.20995,0.07,-0.21,1.19,-29.7923,-37.8371,1.16328,1014.43
647624,-0.731707,9.78479,1.21473,0.14,-0.49,0.63,-29.9642,-38.4159,0.851383,1014.43
647630,-0.707795,9.73697,1.21473,-0.42,-0.28,1.47,-29.8209,-38.7632,0.326829,1014.43
647636,-0.683883,9.74175,1.27212,-0.21,-0.63,1.26,-30.1647,-37.4609,1.44682,1014.43
647642,-0.640842,9.71784,1.25299,0.07,-0.77,1.19,-30.5085,-37.5188,1.37594,1014.43
647648,-0.602582,9.70827,1.23864,-0.28,0,1.54,-29.5918,-38.5895,0.114171,1014.47
647654,-0.593018,9.70827,1.23864,0.63,0,1.12,-29.6491,-38.1555,1.02151,1014.47
647660,-0.645624,9.69871,1.24342,0.28,0,0.98,-29.9355,-37.0847,0.341006,1014.44
647666,-0.602582,9.70827,1.22429,-0.49,-0.91,0.7,-30.222,-38.387,0.582017,1014.44
647672,-0.564323,9.73218,1.24821,0.42,0.07,0.7,-30.2793,-38.7632,0.185057,1014.46
647678,-0.564323,9.68914,1.25299,0.42,-0.63,0.35,-29.7923,-37.2294,1.37594,1014.46
647684,-0.573888,9.67958,1.26255,0.14,0.28,0.42,-30.0501,-39.6024,-0.665572,1014.44
647690,-0.5978,9.71305,1.23864,0.56,0.07,0,-29.9355,-38.5027,-0.155194,1014.44
647696,-0.588235,9.70827,1.23386,0.21,0.21,-0.14,-29.9069,-37.3162,1.65948,1014.44
647702,-0.607365,9.71784,1.24821,0.21,-0.28,0,-30.3939,-38.5027,0.922268,1014.44
647708,-0.612147,9.75131,1.20995,0.63,0,0,-29.6204,-38.9657,-0.637217,1014.44
647714,-0.621712,9.72262,1.24821,0.42,0.14,-0.42,-30.0215,-38.1844,0.397714,1014.44
647720,-0.626494,9.7561,1.20995,0.21,-0.28,-0.21,-30.4225,-37.6056,0.993154,1014.43
647726,-0.631277,9.73697,1.26255,-0.21,-0.28,0,-29.7063,-38.7053,1.12075,1014.43
647732,-0.631277,9.74175,1.22429,0.56,0,-0.07,-29.9928,-38.6764,0.610371,1014.43
647738,-0.612147,9.72262,1.20516,0.14,-0.14,-0.35,-30.222,-37.3452,1.57442,1014.49
647744,-0.602582,9.71784,1.21951,0.14,0.07,17.71,-30.0215,-38.0108,0.879737,1014.49
647750,-0.640842,9.72262,1.25777,0.21,-0.42,0.14,-30.3939,-38.7921,0.56784,1014.44
647756,-0.588235,9.69871,1.25777,0.49,-0.07,-0.21,-30.3366,-36.6217,1.71619,1014.44
647762,-0.5978,9.69392,1.25299,0.28,-0.07,-0.21,-30.1933,-37.8082,-0.481269,1014.46
647768,-0.5978,9.71305,1.25777,0.42,0.14,-0.21,-30.0501,-39.4288,0.199234,1014.46
647774,-0.626494,9.7274,1.26734,0.56,0.28,-0.56,-30.1933,-37.1426,1.09239,1014.43
647780,-0.593018,9.72262,1.23864,0.49,0.49,-0.21,-30.222,-37.3452,1.26252,1014.43
647786,-0.650406,9.7561,1.21473,0.56,0.14,-0.35,-29.3053,-38.5606,-0.339497,1014.45
647792,-0.645624,9.77523,1.17169,0,0.35,-0.07,-30.5085,-38.6185,0.780497,1014.45
647798,-0.655189,9.74653,1.18604,0.7,0.42,-0.21,-30.5371,-37.2294,2.01391,1014.45
647804,-0.61693,9.73218,1.24342,0.56,0.21,-0.49,-30.4512,-38.6185,0.723788,1014.45
647810,-0.640842,9.7274,1.25299,0.07,-0.14,-0.28,-30.0501,-38.3001,0.426068,1014.45
647816,-0.650406,9.76088,1.23386,0.35,-0.14,-0.42,-29.735,-37.4609,0.511131,1014.48
647822,-0.626494,9.77044,1.21473,0.28,0.28,-0.35,-29.9928,-37.5767,1.98555,1014.48
647828,-0.607365,9.74175,1.26255,0.98,0.14,-0.35,-30.0788,-38.9947,0.114171,1014.5
647834,-0.61693,9.73218,1.24342,0.28,0.28,-0.07,-30.2793,-38.3001,1.06404,1014.5
647840,-0.664754,9.74175,1.23386,0.28,0.14,-0.07,-30.3079,-37.3452,0.851383,1014.45
647846,-0.640842,9.73218,1.21473,0.56,0.14,-0.14,-30.3366,-38.9368,0.496954,1014.45
647852,-0.61693,9.75131,1.20995,0.49,0.42,17.71,-30.5944,-38.2712,0.823028,1014.46
647858,-0.583453,9.71784,1.27212,0.35,0.07,-0.42,-30.709,-37.2873,1.12075,1014.46
647864,-0.588235,9.7274,1.23386,-0.07,0.28,-0.28,-29.9355,-39.8339,0.383537,1014.44
647870,-0.61693,9.74653,1.22908,0.77,0.14,-0.49,-29.7636,-39.1394,-0.481269,1014.44
647876,-0.655189,9.74175,1.22429,0.84,0.21,-0.56,-29.8209,-37.6056,0.9648,1014.44
647882,-0.621712,9.69871,1.25777,0.42,0.21,-0.35,-29.9928,-38.0686,1.24834,1014.44
647888,-0.5978,9.71305,1.23864,0.49,0.28,-0.42,-29.5631,-39.0526,-0.311143,1014.46
647894,-0.612147,9.70827,1.23864,0.49,0.14,-0.42,-29.1621,-37.9529,0.908091,1014.46
647900,-0.640842,9.72262,1.2769,0.56,0.07,-0.49,-29.8496,-37.1137,0.496954,1014.46
647906,-0.712578,9.76088,1.21951,0.49,0.07,-0.7,-29.6491,-38.4159,0.36936,1014.49
647912,-0.664754,9.74175,1.22908,0.42,0.21,-0.42,-29.5918,-38.387,0.482777,1014.49
647918,-0.655189,9.75131,1.23386,0.07,0.14,-0.35,-29.8782,-37.3452,0.0716399,1014.45
647924,-0.674318,9.7561,1.20038,1.12,0,-0.14,-30.1647,-38.4159,-0.0843086,1014.45
647930,-0.659971,9.77523,1.20516,0.21,0.07,-0.35,-30.0788,-39.0236,-0.211903,1014.45
647936,-0.626494,9.73697,1.24342,-0.28,0,-0.28,-29.9069,-37.8082,0.638726,1014.45
647942,-0.631277,9.69392,1.2769,0.7,-0.07,-0.21,-29.9069,-38.5027,0.908091,1014.46
647948,-0.626494,9.70349,1.26255,0.28,0.35,-0.28,-29.735,-39.1973,-1.03418,1014.46
647954,-0.636059,9.7274,1.24342,0.35,0.21,-0.7,-29.3912,-38.9079,0.808851,1014.45
647960,-0.602582,9.73218,1.21473,0.77,0.14,-0.56,-30.5371,-38.0108,1.50353,1014.45
647966,-0.640842,9.70349,1.22908,0.28,0.07,-0.7,-29.9355,-39.6603,-0.566332,1014.46
647972,-0.655189,9.7274,1.20516,0.7,0.07,-0.56,-30.0215,-38.6474,0.128348,1014.46
647978,-0.650406,9.73697,1.20995,0.42,0.14,-0.63,-30.0215,-38.2133,1.41847,1014.46
647984,-0.631277,9.74175,1.20516,0.21,-0.35,-0.7,-29.8209,-38.387,0.185057,1014.45
647990,-0.61693,9.71305,1.21951,0.42,0.07,-0.7,-30.0501,-38.9079,-0.282789,1014.45
647996,-0.612147,9.73218,1.23864,0.42,0.07,-0.91,-30.3939,-36.8821,1.21999,1014.45
648002,-0.655189,9.74175,1.23386,0.21,-0.21,-0.7,-31.4538,-37.9239,1.33341,1014.45
648008,-0.626494,9.73218,1.22429,0.42,0.42,-0.42,-31.2819,-39.342,-0.62304,1014.45
648014,-0.645624,9.7274,1.24821,0.84,0.28,-0.84,-30.0788,-37.9529,1.00733,1014.45
648020,-0.636059,9.71305,1.23864,0.35,0.07,-0.35,-30.4512,-37.6346,1.29087,1014.41
648026,-0.612147,9.71784,1.22429,0,-0.28,-0.49,-29.5345,-38.9368,0.426068,1014.41
648032,-0.593018,9.6748,1.26734,1.26,0,-0.84,-29.6204,-38.85,-0.197726,1014.45
648038,-0.607365,9.69392,1.25299,1.19,0.35,-0.77,-30.5944,-37.3452,0.426068,1014.45
648044,-0.636059,9.71305,1.22429,0.84,0.42,-1.12,-30.2793,-38.6474,0.553663,1014.45
648050,-0.664754,9.71305,1.22429,0.49,0.7,-1.05,-30.4225,-38.9657,0.411891,1014.45
648056,-0.640842,9.73218,1.20516,0.77,0.07,-1.05,-30.0501,-37.9529,0.454423,1014.45
648062,-0.61693,9.7274,1.23386,0.56,0.07,-1.4,-31.11,-38.0976,0.114171,1014.44
648068,-0.645624,9.72262,1.24342,1.12,0.28,-1.05,-29.9928,-39.2841,-0.82152,1014.44
648074,-0.693448,9.77523,1.21473,0.7,-0.07,-1.19,-30.9095,-38.7053,1.02151,1014.47
648080,-0.664754,9.74653,1.1956,0.07,0.21,-0.98,-30.5657,-38.0976,0.312651,1014.47
648086,-0.650406,9.71784,1.22429,0.98,0.14,-1.19,-30.0788,-39.1104,1.10657,1014.44
648092,-0.626494,9.74653,1.20995,0.7,0.07,-1.19,-30.8236,-38.9079,0.525308,1014.44
648098,-0.664754,9.71784,1.22429,0.56,0.42,-1.26,-30.7376,-38.1844,0.695434,1014.48
648104,-0.664754,9.75131,1.21473,0.63,0,-1.26,-30.0501,-39.0526,0.496954,1014.48
648110,-0.650406,9.77044,1.23386,0.63,0.42,-1.19,-29.3626,-39.805,0.000754159,1014.45
648116,-0.683883,9.76088,1.23386,0.77,0.35,-0.56,-30.1647,-37.6924,0.9648,1014.45
648122,-0.722142,9.7561,1.22908,0.49,0.42,-1.12,-30.4225,-38.2712,1.98555,1014.45
648128,-0.69823,9.78479,1.20516,0.35,-0.21,-0.98,-30.222,-39.1104,0.780497,1014.45
648134,-0.703013,9.79436,1.17647,0.07,0,-0.14,-29.8496,-38.7053,1.68783,1014.44
648140,-0.655189,9.74653,1.21473,0.35,0.14,-0.56,-30.2506,-38.2133,0.496954,1014.44
648146,-0.669536,9.71305,1.24342,0.49,0.14,-0.7,-29.8782,-39.7471,0.341006,1014.44
648152,-0.636059,9.69871,1.29603,0.28,0,-0.07,-29.7063,-39.313,0.823028,1014.44
648158,-0.683883,9.73697,1.26255,0.7,0.49,-0.28,-29.9355,-37.8661,2.24074,1014.44
648164,-0.640842,9.73697,1.24342,0.14,-0.21,-0.49,-30.6517,-38.9657,-0.0559544,1014.45
648170,-0.655189,9.72262,1.23864,0.7,-0.21,-0.35,-30.0788,-39.7182,1.03569,1014.45
648176,-0.626494,9.75131,1.20038,1.12,-0.07,17.29,-30.6803,-37.895,1.02151,1014.41
648182,-0.645624,9.74653,1.20516,0.63,0,-0.28,-30.1074,-38.4448,1.24834,1014.41
648188,-0.669536,9.74175,1.20516,0.63,0.84,-0.21,-29.8782,-39.3709,1.07822,1014.45
648194,-0.650406,9.74175,1.18604,1.19,0.07,-0.56,-30.1647,-37.5767,1.13493,1014.45
648200,-0.659971,9.72262,1.20516,0.77,0.63,-0.35,-30.9668,-38.3001,1.47518,1014.44
648206,-0.674318,9.7561,1.20038,0.77,0,-0.07,-31.11,-39.1104,1.39011,1014.44
648212,-0.655189,9.75131,1.18604,0.21,0.35,17.29,-29.9642,-38.9079,0.36936,1014.45
648218,-0.664754,9.7274,1.22429,0.14,-0.28,-0.49,-29.6204,-37.5477,2.25492,1014.45
648224,-0.631277,9.74653,1.1956,0.21,-0.21,-0.42,-29.9642,-39.313,0.241766,1014.45
648230,-0.636059,9.71305,1.24821,0.56,-0.35,-0.35,-29.8496,-38.9368,1.31923,1014.45
648236,-0.669536,9.71784,1.24342,0.28,-0.14,-0.63,-29.9928,-37.432,1.68783,1014.45
648242,-0.688666,9.73218,1.21951,0.42,0.56,-0.42,-29.7636,-38.0976,0.908091,1014.47
648248,-0.688666,9.76088,1.23386,0.56,0.56,-0.56,-30.0215,-40.0944,0.17088,1014.47
648254,-0.679101,9.74175,1.21473,0.63,0.21,-0.49,-29.8496,-38.7632,0.114171,1014.49
648260,-0.655189,9.73697,1.22908,0.77,-0.21,0.07,-29.5058,-37.4899,0.752143,1014.49
648266,-0.664754,9.72262,1.25299,0.35,-0.21,-0.49,-29.4485,-39.1104,0.17088,1014.46
648272,-0.664754,9.71305,1.23864,0.35,0,-0.42,-29.6204,-38.9657,0.27012,1014.46
648278,-0.645624,9.70349,1.22429,0.35,0.07,-0.35,-29.9642,-37.4609,1.57442,1014.44
648284,-0.669536,9.74175,1.20516,0.56,-0.21,-0.77,-30.0788,-38.3001,0.085817,1014.44
648290,-0.683883,9.75131,1.20516,0.42,0.35,-0.49,-29.8209,-39.0236,1.7729,1014.47
648296,-0.659971,9.77044,1.19082,0.07,0.14,-0.42,-29.8496,-38.0397,1.71619,1014.47
648302,-0.664754,9.75131,1.23864,0.7,0.21,-0.35,-29.9928,-37.5477,1.17746,1014.47
648308,-0.703013,9.78479,1.1956,0.49,-0.14,-0.49,-30.4512,-40.0365,-0.112663,1014.47
648314,-0.679101,9.75131,1.18604,0.49,-0.21,-0.35,-29.9928,-38.2133,0.0716399,1014.47
648320,-0.659971,9.70827,1.22908,0.49,0.21,-0.28,-29.8209,-37.5188,0.879737,1014.45
648326,-0.659971,9.70827,1.23386,0.56,-0.35,-0.28,-29.5918,-39.1683,0.17088,1014.45
648332,-0.659971,9.71305,1.22908,0.14,0.07,-0.56,-29.5631,-38.5606,1.33341,1014.46
648338,-0.621712,9.70349,1.23386,0.63,-0.21,-0.07,-30.4798,-37.403,1.92885,1014.46
648344,-0.626494,9.7274,1.24342,0.28,0.35,-0.49,-29.6204,-38.9368,0.652903,1014.46
648350,-0.636059,9.71305,1.21951,0.35,0,-0.35,-29.9928,-39.4577,1.20581,1014.46
648356,-0.645624,9.71784,1.21951,0.7,0.35,-0.56,-29.8209,-37.6635,1.1491,1014.45
648362,-0.621712,9.73218,1.20995,0.56,0.14,-0.63,-29.5631,-38.0686,1.57442,1014.45
648368,-0.640842,9.73218,1.20995,0.77,-0.28,-0.35,-29.9355,-39.0815,-0.0843086,1014.44
648374,-0.679101,9.74175,1.20038,0.7,0.35,-0.7,-29.5058,-37.6056,0.936446,1014.44
648380,-0.683883,9.76566,1.19082,0.28,-0.07,-0.35,-29.4772,-37.1715,0.950623,1014.47
648386,-0.650406,9.74175,1.21473,0.14,-0.56,-0.35,-29.0475,-38.8789,0.709611,1014.47
648392,-0.626494,9.73218,1.22908,0.63,-0.28,-0.56,-29.1907,-39.342,0.879737,1014.47
648398,-0.693448,9.73697,1.23386,0.56,-0.35,-0.49,-29.6204,-38.0686,1.71619,1014.45
648404,-0.693448,9.74653,1.20995,0.42,0.07,-0.35,-30.0501,-38.5895,1.1491,1014.45
648410,-0.674318,9.76566,1.1956,0.63,-0.14,-0.49,-30.7376,-39.6892,0.496954,1014.48
648416,-0.664754,9.71784,1.23864,0.7,0.07,-0.28,-29.9069,-37.432,2.08479,1014.48
648422,-0.664754,9.73218,1.22908,0.84,-0.14,-0.28,-29.5345,-37.4609,1.56024,1014.44
648428,-0.726925,9.74175,1.20995,0.28,-0.07,-0.49,-29.7636,-38.7921,-0.764811,1014.44
648434,-0.693448,9.73218,1.21951,0.21,-0.28,-0.07,-30.2506,-37.7503,0.199234,1014.47
648440,-0.703013,9.69871,1.22908,0.35,-0.14,-0.35,-29.1907,-37.9239,1.88631,1014.47
648446,-0.640842,9.7274,1.21951,0.42,-0.35,-0.21,-29.735,-38.85,0.922268,1014.46
648452,-0.655189,9.71305,1.24821,0.49,-0.07,-0.49,-30.1933,-38.3291,0.823028,1014.46
648458,-0.664754,9.72262,1.22429,0.07,0.21,-0.35,-29.9355,-38.2133,1.65948,1014.47
648464,-0.683883,9.71784,1.23864,0.56,0.28,-0.77,-29.6204,-38.8789,0.142526,1014.47
648470,-0.659971,9.72262,1.26255,0.49,0.07,-0.49,-29.6491,-39.1683,0.142526,1014.47
648476,-0.640842,9.74175,1.21473,0.49,-0.7,-0.56,-29.5918,-37.5477,0.355183,1014.42
648482,-0.664754,9.74175,1.20995,0.42,-0.56,-0.77,-30.4225,-38.358,0.9648,1014.42
648488,-0.683883,9.74653,1.20995,0.63,-0.84,-0.35,-29.9642,-39.5445,0.851383,1014.45
648494,-0.69823,9.7274,1.20516,0.35,0.21,-0.42,-29.6777,-37.4609,1.09239,1014.45
648500,-0.674318,9.71784,1.20516,0.63,-0.42,-0.63,-29.735,-37.8082,1.63113,1014.45
648506,-0.688666,9.76088,1.19082,0.77,0.35,-0.07,-30.136,-38.9368,-0.211903,1014.45
648512,-0.707795,9.7561,1.1956,0.28,-0.28,-0.21,-29.8782,-38.9368,1.09239,1014.45
648518,-0.693448,9.71305,1.22908,0.14,0.07,-0.07,-30.3079,-36.8532,1.33341,1014.45
648524,-0.674318,9.71305,1.21473,0.07,-0.42,0.14,-30.2506,-38.6474,1.60277,1014.44
648530,-0.655189,9.74653,1.20995,0,-0.21,0,-30.1647,-38.9368,1.10657,1014.44
648536,-0.640842,9.73218,1.21473,0.49,-0.35,-17.85,-30.2506,-37.6056,1.12075,1014.47
648542,-0.650406,9.73218,1.21473,0.28,0.21,0,-29.6491,-37.8661,1.84378,1014.47
648548,-0.683883,9.7274,1.22908,0.35,-0.14,-0.21,-29.8496,-39.1973,1.26252,1014.47
648554,-0.669536,9.7274,1.23386,0.28,0.21,-0.35,-29.3339,-37.3741,1.44682,1014.42
648560,-0.674318,9.71305,1.22908,0.28,-0.35,-0.14,-30.2793,-38.0108,1.60277,1014.42
648566,-0.674318,9.71305,1.23386,0.35,-0.42,-0.28,-29.9928,-39.2841,0.0999942,1014.45
648572,-0.659971,9.75131,1.20516,0.21,-0.49,-17.92,-30.136,-39.1973,0.950623,1014.45
648578,-0.669536,9.72262,1.24821,0.7,-0.14,-0.14,-30.7376,-37.432,1.57442,1014.46
648584,-0.674318,9.73218,1.23386,0.35,-0.28,-0.42,-30.0501,-38.7921,2.21239,1014.46
648590,-0.731707,9.74653,1.22429,0.07,-0.14,-0.14,-29.1621,-38.7053,1.13493,1014.49
648596,-0.69823,9.75131,1.24821,0.14,-0.07,-0.35,-30.7376,-37.0847,1.30505,1014.49
648602,-0.669536,9.7561,1.21951,0,-0.28,-0.28,-30.623,-37.6635,0.411891,1014.45
648608,-0.650406,9.70827,1.21951,0.7,-0.28,-0.35,-30.4225,-38.387,1.00733,1014.45
648614,-0.679101,9.73697,1.23386,0.35,0.14,-0.07,-31.2246,-38.2133,1.70201,1014.46
648620,-0.731707,9.74175,1.21473,0.42,0.07,-0.56,-30.9954,-37.8082,2.21239,1014.46
648626,-0.683883,9.7274,1.21473,0.14,0.21,17.78,-30.5944,-38.358,1.78707,1014.49
648632,-0.683883,9.73218,1.24821,-0.21,-0.21,-0.42,-30.8809,-37.9529,0.879737,1014.49
648638,-0.669536,9.73697,1.21473,0.28,-0.35,0.07,-30.1647,-37.432,1.65948,1014.49
648644,-0.688666,9.74175,1.20038,0.07,-0.07,17.85,-30.5085,-38.85,1.29087,1014.44
648650,-0.664754,9.7561,1.21473,0.49,0,0.07,-30.1647,-38.9657,1.29087,1014.44
648656,-0.664754,9.74653,1.20516,0.49,-0.07,-0.14,-30.3652,-38.2423,1.24834,1014.46
648662,-0.669536,9.7274,1.21473,0.14,0,0.07,-30.3079,-38.4448,1.98555,1014.46
648668,-0.679101,9.75131,1.21951,0,-0.21,0.14,-30.0215,-40.1233,0.255943,1014.44
648674,-0.645624,9.7274,1.24342,-0.07,-0.14,-0.07,-29.8496,-38.2423,1.70201,1014.44
648680,-0.669536,9.72262,1.22908,0.49,-0.14,0,-31.0241,-37.7214,1.60277,1014.48
648686,-0.69823,9.73697,1.23386,0.42,-0.21,-0.56,-30.1647,-39.1104,1.00733,1014.48
648692,-0.688666,9.76088,1.23864,0.14,0,-0.28,-29.735,-38.85,0.893914,1014.45
648698,-0.674318,9.73697,1.23386,0.14,0.14,-17.64,-30.6517,-37.8371,2.19821,1014.45
648704,-0.645624,9.73697,1.23386,0.28,0.07,-0.14,-29.7923,-39.4577,1.19163,1014.44
648710,-0.683883,9.7274,1.22429,0.35,0,-0.14,-31.0814,-38.7632,0.780497,1014.44
648716,-0.669536,9.70827,1.20516,0.35,-0.21,17.85,-31.0527,-38.3291,2.18403,1014.44
648722,-0.683883,9.73218,1.21951,-0.21,0.07,-0.28,-30.2793,-38.3001,1.60277,1014.47
648728,-0.679101,9.73697,1.20038,0.28,0.21,0,-30.1074,-39.1104,0.355183,1014.47
648734,-0.693448,9.73697,1.23386,0.21,0.07,0,-29.9928,-38.2712,2.04226,1014.42
648740,-0.679101,9.74175,1.20038,0.21,-0.07,-0.07,-30.0215,-38.0976,1.09239,1014.42
648746,-0.655189,9.7274,1.18604,0.14,-0.42,0.21,-31.1387,-38.9368,1.74454,1014.46
648752,-0.683883,9.73218,1.25299,0.49,-0.49,17.78,-30.3939,-38.6474,1.00733,1014.46
648758,-0.669536,9.7274,1.21473,0.14,-0.21,0.07,-30.3652,-37.3452,1.94302,1014.47
648764,-0.683883,9.74653,1.20516,0.07,0.07,-0.07,-31.4538,-38.6764,0.950623,1014.47
648770,-0.655189,9.7274,1.21951,0.63,0.42,17.71,-30.4798,-39.342,0.837206,1014.44
648776,-0.664754,9.73697,1.20995,0.14,0.07,-0.07,-29.9642,-37.9529,1.71619,1014.44
648782,-0.669536,9.69871,1.24342,-0.21,0.07,0.21,-30.5657,-37.9239,1.53189,1014.45
648788,-0.631277,9.72262,1.21473,0.49,-0.21,17.57,-30.9095,-39.9207,1.21999,1014.45
648794,-0.674318,9.70349,1.24342,0.7,-0.28,-0.28,-30.9095,-38.0397,0.794674,1014.46
648800,-0.693448,9.7274,1.18604,0.21,0.21,-0.07,-30.5085,-37.7214,2.21239,1014.46
648806,-0.683883,9.71784,1.21473,0.42,0,-0.35,-30.136,-38.8211,1.7729,1014.46
648812,-0.71736,9.74653,1.20516,0.56,0,-0.21,-30.136,-38.358,0.808851,1014.47
648818,-0.650406,9.71784,1.22429,0.21,-0.28,0.07,-30.7663,-38.0397,1.51771,1014.47
648824,-0.693448,9.7274,1.28168,0.21,-0.84,-0.49,-29.6777,-38.387,1.19163,1014.44
648830,-0.659971,9.73218,1.24342,0.7,-1.12,-0.07,-29.5631,-39.1104,0.454423,1014.44
648836,-0.636059,9.73697,1.24342,0.77,-0.35,-0.14,-29.1907,-38.0397,1.80125,1014.47
648842,-0.726925,9.78957,1.1956,-0.14,-0.49,17.78,-30.222,-37.8661,1.63113,1014.47
648848,-0.650406,9.75131,1.23386,0.63,0,-0.28,-30.1647,-39.4866,0.0432857,1014.47
648854,-0.669536,9.73697,1.21951,0.49,-0.42,0.21,-30.3652,-38.2423,1.33341,1014.47
648860,-0.659971,9.71305,1.21951,0.21,-0.21,17.85,-30.2506,-37.895,0.539486,1014.47
648866,-0.674318,9.72262,1.21951,0.49,-0.49,0.35,-30.5657,-38.6764,0.553663,1014.47
648872,-0.688666,9.73218,1.20516,0.35,-0.14,-0.14,-29.7063,-38.9947,0.411891,1014.47
648878,-0.683883,9.7274,1.20516,0.42,0.07,-17.64,-29.6491,-37.9529,1.1491,1014.47
648884,-0.679101,9.76088,1.22429,0.42,-0.07,0.35,-30.2793,-38.358,1.16328,1014.47
648890,-0.722142,9.76088,1.21473,0.42,-0.28,0.28,-29.4772,-39.2841,0.0716399,1014.42
648896,-0.707795,9.73697,1.21951,0.21,-0.21,0.42,-30.2793,-37.895,1.65948,1014.42
648902,-0.655189,9.75131,1.20516,0.63,-0.21,0.28,-30.6803,-38.1844,1.51771,1014.45
648908,-0.664754,9.73218,1.23386,0.49,-0.21,0.35,-29.5345,-39.6892,-0.141017,1014.45
648914,-0.640842,9.70827,1.26255,0.21,-0.28,-17.43,-29.9069,-38.5895,0.624548,1014.43
648920,-0.626494,9.70349,1.25777,0.63,0,0.42,-30.4512,-38.0686,1.2767,1014.43
648926,-0.612147,9.69871,1.23864,-0.14,0.28,-0.07,-29.8782,-38.5895,1.17746,1014.46
648932,-0.679101,9.70827,1.24342,0.7,0.14,-17.78,-29.9069,-39.2262,0.596194,1014.46
648938,-0.688666,9.78001,1.18125,0.84,0.07,0.21,-30.1074,-37.432,1.02151,1014.44
648944,-0.669536,9.7561,1.1956,-0.14,0.35,-0.21,-29.9069,-38.4159,1.07822,1014.44
648950,-0.659971,9.73218,1.22908,0.77,0.28,17.78,-30.5085,-39.313,-0.5238,1014.46
648956,-0.640842,9.70349,1.24821,0.42,0.28,-0.14,-30.3366,-38.0108,0.936446,1014.46
648962,-0.688666,9.73218,1.26734,0.42,0.21,0.21,-29.6777,-38.0976,1.26252,1014.46
648968,-0.760402,9.78001,1.20995,0.42,-0.21,0.28,-30.1074,-39.2551,1.06404,1014.49
648974,-0.703013,9.78001,1.14778,0.21,-0.14,0.21,-29.8782,-38.387,0.936446,1014.49
648980,-0.664754,9.74175,1.18125,-0.14,0.42,0.28,-30.136,-38.1555,1.87214,1014.48
648986,-0.664754,9.72262,1.22908,0.28,0.21,0.35,-30.222,-38.7921,0.553663,1014.48
648992,-0.645624,9.70349,1.25299,0.28,0.07,0.35,-30.6803,-38.8789,1.461,1014.47
648998,-0.640842,9.67958,1.28647,0.77,0,-0.14,-30.7376,-37.6924,1.94302,1014.47
649004,-0.631277,9.69871,1.24821,0.56,0,-17.57,-30.5085,-38.2712,1.12075,1014.46
649010,-0.664754,9.70827,1.24821,0.63,0.35,0.07,-29.7923,-39.342,1.02151,1014.46
649016,-0.664754,9.74653,1.18604,0.35,0.14,0.07,-30.8236,-37.7793,1.19163,1014.43
649022,-0.674318,9.73697,1.20995,0.42,-0.14,-0.21,-30.6517,-38.358,1.63113,1014.43
649028,-0.693448,9.74653,1.1956,0.49,-0.07,-0.21,-30.1074,-39.1394,-0.353674,1014.45
649034,-0.679101,9.73697,1.19082,0.14,-0.42,-0.35,-30.709,-38.4159,1.39011,1014.45
649040,-0.659971,9.71305,1.22429,0.49,-0.28,17.85,-30.3079,-37.9529,2.09897,1014.44
649046,-0.679101,9.74653,1.25299,0.21,-0.42,-0.28,-30.7949,-38.8789,0.86556,1014.44
649052,-0.674318,9.73218,1.21951,0.35,-0.14,0.14,-29.9928,-38.2712,0.737966,1014.44
649058,-0.674318,9.76566,1.20516,0.63,-0.14,0,-30.2793,-37.403,1.41847,1014.46
649064,-0.664754,9.7274,1.23864,0.14,0.14,-0.42,-30.623,-38.0976,0.780497,1014.46
649070,-0.640842,9.70827,1.25777,-0.21,0.07,-0.14,-30.3652,-38.358,0.879737,1014.45
649076,-0.645624,9.72262,1.22908,0.91,0.21,-0.14,-30.2793,-37.6924,1.57442,1014.45
649082,-0.621712,9.70827,1.23386,-0.07,0.07,0,-30.1933,-37.8661,1.461,1014.45
649088,-0.664754,9.73218,1.21951,0.14,0.14,-0.28,-30.136,-39.1683,1.19163,1014.45
649094,-0.679101,9.73218,1.21473,0.56,0.28,-17.92,-30.5944,-38.2712,2.04226,1014.44
649100,-0.703013,9.7274,1.24821,0.35,0.56,0,-30.3652,-38.0397,1.88631,1014.44
649106,-0.683883,9.7274,1.22429,0.28,-0.28,0.21,-30.0788,-39.6603,0.9648,1014.46
649112,-0.655189,9.71784,1.22429,0.63,0.35,17.71,-29.9069,-38.9657,1.2767,1014.46
649118,-0.679101,9.71784,1.20516,0.07,-0.35,-0.14,-30.5371,-37.7793,0.893914,1014.47
649124,-0.712578,9.75131,1.22429,0.42,-0.28,0.35,-29.7636,-39.5735,1.09239,1014.47
649130,-0.669536,9.74653,1.1956,0.77,-0.63,0,-30.0215,-39.0526,0.0574628,1014.47
649136,-0.640842,9.73697,1.1956,0.35,-0.07,0.21,-29.7923,-37.7214,0.851383,1014.43
649142,-0.645624,9.72262,1.24342,0.49,0.63,0.14,-30.3652,-38.0108,2.1415,1014.43
649148,-0.655189,9.70827,1.21473,0.7,0.14,17.78,-29.1334,-39.0526,1.10657,1014.43
649154,-0.683883,9.74653,1.19082,0.21,0.28,0.14,-30.1074,-38.7632,0.638726,1014.43
649160,-0.674318,9.7561,1.21473,0.42,-0.21,0.07,-29.6204,-38.358,1.80125,1014.44
649166,-0.669536,9.71305,1.20995,0,0.07,0.07,-29.7923,-39.0236,0.837206,1014.44
649172,-0.679101,9.71305,1.23864,0.35,-0.49,0.42,-30.1074,-38.6185,1.07822,1014.43
649178,-0.664754,9.74653,1.22908,0.56,-0.21,0.35,-29.6777,-37.6635,1.07822,1014.43
649184,-0.703013,9.74175,1.23864,0.77,-0.84,0.07,-30.6803,-38.6764,1.29087,1014.48
649190,-0.71736,9.74653,1.21951,0.63,-0.07,0.77,-29.4199,-38.85,-0.112663,1014.48
649196,-0.707795,9.75131,1.22429,0.63,0.35,0.91,-29.9642,-37.6056,1.70201,1014.44
649202,-0.688666,9.74175,1.20995,0.42,-0.28,0.84,-30.4798,-37.9529,1.03569,1014.44
649208,-0.650406,9.7274,1.21951,0.14,-0.07,0.49,-29.6204,-38.9368,0.298474,1014.44
649214,-0.664754,9.69871,1.29125,0.07,-0.42,0.84,-30.136,-37.9818,1.41847,1014.43
649220,-0.626494,9.72262,1.25299,0.49,0.14,0.56,-30.7376,-37.1715,1.80125,1014.43
649226,-0.607365,9.72262,1.26255,-0.21,-0.7,0.42,-29.5918,-39.2551,0.227588,1014.45
649232,-0.679101,9.72262,1.23386,0.77,-0.28,0.77,-30.0215,-38.5317,0.936446,1014.45
649238,-0.679101,9.83261,1.12865,0,-0.91,0.42,-30.222,-37.3741,1.43265,1014.48
649244,-0.741272,9.79914,1.16691,0.07,-0.28,0.98,-30.2793,-38.5317,1.1491,1014.48
649250,-0.664754,9.76566,1.20038,-0.21,0.49,1.47,-30.0501,-38.5606,0.426068,1014.45
649256,-0.683883,9.70349,1.3056,-0.07,0,0.77,-30.0788,-37.5767,1.85796,1014.45
649262,-0.731707,9.76566,1.23864,-0.14,-0.28,1.26,-30.2793,-38.2133,1.41847,1014.41
649268,-0.731707,9.8087,1.17647,-0.35,-0.49,1.54,-30.1647,-39.313,0.9648,1014.41
649274,-0.679101,9.7274,1.26255,-0.07,-0.84,1.54,-30.3652,-38.7053,1.78707,1014.45
649280,-0.612147,9.68436,1.28647,-0.07,-0.14,1.4,-29.735,-38.0976,2.16986,1014.45
649286,-0.583453,9.65088,1.31994,0.42,0.42,1.33,-30.623,-39.0236,1.17746,1014.46
649292,-0.61693,9.6748,1.27212,0.42,0.14,0.91,-29.4199,-38.7632,1.00733,1014.46
649298,-0.631277,9.69871,1.24821,0.14,0.84,1.54,-30.5657,-36.5638,1.29087,1014.46
649304,-0.636059,9.73697,1.23864,0.35,-0.28,1.19,-29.1334,-38.8211,1.23417,1014.45
649310,-0.621712,9.70349,1.21473,0.7,0.21,0.84,-30.1074,-39.2551,0.695434,1014.45
649316,-0.569106,9.70349,1.20995,-0.07,-0.49,0.91,-30.0788,-37.7214,2.36834,1014.45
649322,-0.588235,9.69392,1.22429,0.7,0.7,0.98,-30.0788,-37.6924,1.67366,1014.45
649328,-0.612147,9.73218,1.20995,0.98,-0.28,0.42,-29.5058,-38.7632,0.823028,1014.46
649334,-0.645624,9.73218,1.18125,0.49,0.56,0.35,-30.8809,-38.9368,1.40429,1014.46
649340,-0.569106,9.71784,1.20038,0.35,0.35,0.42,-30.1647,-36.9111,2.93542,1014.47
649346,-0.588235,9.73697,1.20995,1.12,-0.21,0.42,-29.9928,-38.5895,0.0574628,1014.47
649352,-0.664754,9.77523,1.1956,0.56,-0.07,0.35,-30.5085,-39.4866,0.284297,1014.44
649358,-0.650406,9.7561,1.21951,0.14,-0.49,0.42,-30.7949,-37.7214,1.92885,1014.44
649364,-0.640842,9.74653,1.1956,0.49,-0.42,0.56,-30.1074,-38.8211,0.936446,1014.46
649370,-0.612147,9.7274,1.23386,0.14,0,0.21,-29.7923,-38.6764,0.936446,1014.46
649376,-0.636059,9.71784,1.28647,0.07,-0.07,0.21,-30.5657,-37.0558,1.23417,1014.46
649382,-0.626494,9.74653,1.24821,0.77,0.42,0.77,-30.3652,-38.2423,1.6453,1014.42
649388,-0.669536,9.7274,1.23386,0.7,-0.14,0.56,-30.1074,-38.9947,0.879737,1014.42
649394,-0.631277,9.73697,1.24342,0.07,-0.35,0.63,-30.7663,-38.7342,0.879737,1014.42
649400,-0.602582,9.72262,1.24821,1.05,-0.63,0.56,-30.136,-38.1844,2.11315,1014.42
649406,-0.640842,9.74653,1.20516,0.35,0,0.28,-30.4798,-39.313,1.2767,1014.46
649412,-0.703013,9.79436,1.21473,-0.14,0.42,0.91,-30.6517,-39.1683,0.737966,1014.46
649418,-0.674318,9.84218,1.14299,0.56,0.28,1.05,-30.1933,-37.7503,1.41847,1014.47
649424,-0.73649,9.86609,1.09995,-0.63,-0.49,1.12,-30.7376,-37.9818,1.41847,1014.47
649430,-0.683883,9.82783,1.15734,-0.63,-0.63,1.89,-30.6517,-39.4288,0.553663,1014.44
649436,-0.636059,9.71784,1.23864,-0.91,-0.56,1.61,-30.7663,-37.3452,0.908091,1014.44
649442,-0.607365,9.67958,1.31994,-0.14,-0.35,1.75,-30.8236,-38.5895,1.43265,1014.47
649448,-0.573888,9.67958,1.31038,0.07,0.21,1.4,-30.3366,-38.5606,-0.339497,1014.47
649454,-0.612147,9.74175,1.26255,0.21,-0.14,1.33,-30.5085,-38.358,1.30505,1014.47
649460,-0.626494,9.73697,1.23864,-0.14,0.28,1.4,-30.7376,-37.7214,1.90049,1014.43
649466,-0.631277,9.73697,1.22908,-0.21,-0.56,1.05,-30.222,-39.0815,0.397714,1014.43
649472,-0.61693,9.71305,1.2769,0.14,-0.14,1.26,-30.3079,-38.4738,0.978977,1014.46
649478,-0.61693,9.74653,1.26734,0.07,-0.49,1.19,-30.3652,-36.9111,1.63113,1014.46
649484,-0.712578,9.79436,1.18604,-0.35,-0.28,1.82,-30.5944,-38.5027,1.50353,1014.46
649490,-0.655189,9.8374,1.14778,-0.14,-0.35,2.24,-30.9382,-38.7053,0.312651,1014.46
649496,-0.640842,9.78001,1.23386,-0.7,-0.28,2.24,-30.7949,-37.403,1.37594,1014.42
649502,-0.645624,9.77044,1.20995,-0.63,0.28,2.38,-31.1387,-37.7214,2.4534,1014.42
649508,-0.645624,9.79436,1.22908,-0.63,-0.28,2.03,-31.0527,-38.8789,1.54606,1014.44
649514,-0.683883,9.78957,1.1956,-0.84,-0.35,2.45,-30.2506,-38.1555,1.80125,1014.44
649520,-0.659971,9.8087,1.16691,-1.68,-0.63,3.01,-30.9095,-37.7793,2.66606,1014.47
649526,-0.607365,9.81827,1.1956,-1.19,-0.63,2.8,-30.2506,-38.6474,0.085817,1014.47
649532,-0.636059,9.79914,1.17169,-1.68,-1.33,3.15,-29.7063,-38.387,-0.438737,1014.44
649538,-0.61693,9.78479,1.20995,-2.03,-0.42,3.01,-31.2819,-37.7214,1.54606,1014.44
649544,-0.5978,9.73697,1.29603,-1.54,-0.77,3.15,-31.2533,-38.6474,0.76632,1014.44
649550,-0.545194,9.66523,1.3582,-1.26,-0.49,3.15,-30.222,-38.6185,0.114171,1014.41
649556,-0.473458,9.65567,1.34385,-0.7,0.07,2.87,-30.4798,-37.9239,2.05644,1014.41
649562,-0.511717,9.66045,1.31516,-0.84,0.21,2.38,-30.8809,-38.6185,1.98555,1014.45
649568,-0.483022,9.70827,1.31516,-0.56,0.07,2.31,-31.0527,-39.2551,1.31923,1014.45
649574,-0.502152,9.69392,1.22429,-0.28,-0.42,2.24,-30.623,-37.895,1.20581,1014.48
649580,-0.492587,9.70349,1.23386,-0.49,-0.14,2.03,-31.2819,-37.6924,1.74454,1014.48
649586,-0.57867,9.72262,1.23864,-0.7,-0.21,2.03,-30.7376,-38.9079,0.936446,1014.45
649592,-0.61693,9.7274,1.26734,-0.35,0.14,2.03,-30.222,-38.7053,0.284297,1014.45
649598,-0.535629,9.73218,1.18125,-0.63,-0.28,1.89,-31.5397,-38.1265,0.66708,1014.45
649604,-0.57867,9.76088,1.20995,-0.49,0.07,1.89,-31.11,-38.4448,0.794674,1014.45
649610,-0.535629,9.76566,1.22429,-0.56,-0.21,1.96,-29.9928,-39.0526,-0.0417772,1014.47
649616,-0.5978,9.74175,1.23864,-0.91,0.07,1.82,-30.5085,-37.6924,0.411891,1014.47
649622,-0.569106,9.75131,1.22908,-0.56,-0.63,1.89,-31.0527,-38.1555,1.03569,1014.47
649628,-0.57867,9.76566,1.24342,-0.63,-0.56,1.89,-31.1673,-38.9079,0.227588,1014.43
649634,-0.554758,9.7561,1.24342,-0.91,-0.56,2.1,-31.2246,-37.8661,0.978977,1014.43
649640,-0.530846,9.72262,1.29603,-0.98,-0.49,2.1,-31.7403,-38.2133,0.0999942,1014.45
649646,-0.521282,9.68436,1.34385,-0.49,0,1.61,-31.3965,-38.85,1.67366,1014.45
649652,-0.506934,9.70349,1.32951,-0.28,-0.14,1.4,-31.5397,-38.9947,0.936446,1014.44
649658,-0.511717,9.68914,1.32472,-0.49,0.35,1.54,-30.8236,-36.8532,1.6453,1014.44
649664,-0.516499,9.69871,1.31994,0.35,-0.49,1.05,-31.2533,-37.4609,1.04986,1014.45
649670,-0.530846,9.69392,1.29603,-0.07,0.21,1.12,-30.5944,-38.8789,-0.452914,1014.45
649676,-0.468675,9.75131,1.26255,-0.14,-0.35,0.98,-31.597,-38.5606,1.21999,1014.47
649682,-0.526064,9.73218,1.25777,-0.21,-0.21,0.56,-31.4251,-37.895,0.511131,1014.47
649688,-0.540411,9.74175,1.22908,0.21,-0.49,0.77,-30.9095,-38.6185,0.114171,1014.46
649694,-0.554758,9.73697,1.25777,0,0,0.7,-31.196,-37.8082,0.709611,1014.46
649700,-0.487805,9.74653,1.22429,-0.35,-0.28,0.56,-31.7689,-37.5188,1.31923,1014.46
649706,-0.526064,9.76088,1.21473,-0.14,0.14,0.91,-31.0814,-38.7342,1.19163,1014.45
649712,-0.516499,9.72262,1.2769,-0.21,-0.7,0.63,-30.9382,-38.387,1.31923,1014.45
649718,-0.516499,9.68914,1.29603,-0.21,-0.56,0.42,-30.8236,-37.0847,2.6377,1014.44
649724,-0.506934,9.70349,1.30081,-0.28,-0.35,0.35,-30.6803,-38.6185,1.34758,1014.44
649730,-0.549976,9.69871,1.30081,-0.21,0.07,0.21,-30.136,-39.313,0.9648,1014.46
649736,-0.549976,9.7561,1.21951,-0.28,-0.07,0.56,-30.5657,-37.5767,1.75872,1014.46
649742,-0.521282,9.76088,1.2769,0.07,0.21,0.28,-30.2506,-38.0976,1.16328,1014.47
649748,-0.626494,9.78479,1.28168,-0.91,-0.56,0.63,-31.2533,-38.9657,0.156703,1014.47
649754,-0.593018,9.81827,1.20038,0,-0.63,1.33,-31.2533,-37.8661,1.21999,1014.46
649760,-0.573888,9.73697,1.28168,-0.42,-0.14,0.98,-31.11,-37.2873,1.10657,1014.46
649766,-0.516499,9.69392,1.32472,-0.28,-0.77,0.84,-30.8236,-38.9368,0.66708,1014.46
649772,-0.540411,9.73697,1.26734,-0.63,0.28,1.4,-29.9642,-38.7921,-0.141017,1014.46
649778,-0.511717,9.70349,1.29125,0,-0.42,0.7,-30.709,-37.7503,1.60277,1014.46
649784,-0.483022,9.71784,1.29603,-0.21,0.14,1.05,-30.8809,-38.5027,0.780497,1014.46
649790,-0.49737,9.7274,1.26734,-0.21,0.14,1.05,-31.196,-38.9368,0.241766,1014.46
649796,-0.521282,9.70349,1.31994,0.14,0.21,0.56,-30.5371,-37.5477,1.82961,1014.45
649802,-0.516499,9.7274,1.28168,-0.14,-0.63,0.42,-31.11,-37.403,1.30505,1014.45
649808,-0.473458,9.7274,1.26734,-0.42,-0.28,0.49,-30.5657,-38.9368,0.284297,1014.46
649814,-0.549976,9.71784,1.29125,0,-0.42,0.63,-30.5657,-37.9529,1.44682,1014.46
649820,-0.511717,9.74653,1.25299,-0.14,0.21,0.63,-30.8522,-37.403,1.26252,1014.48
649826,-0.554758,9.7561,1.30081,-0.07,0.14,0.63,-31.0527,-39.2841,0.66708,1014.48
649832,-0.468675,9.73218,1.32472,0.42,0.21,0.35,-30.6803,-38.85,-0.197726,1014.42
649838,-0.49737,9.74653,1.25777,0.21,-0.21,0.42,-31.2819,-36.9979,2.1415,1014.42
649844,-0.631277,9.69871,1.39168,-0.14,-0.7,1.05,-32.0554,-39.313,1.43265,1014.47
649850,-0.593018,9.68436,1.42994,0.84,-0.91,0.63,-30.5657,-39.0236,0.241766,1014.47
649856,-0.454328,9.72262,1.29603,1.05,-0.14,1.12,-31.11,-37.7793,2.04226,1014.44
649862,-0.650406,9.91392,1.05213,0.07,-0.63,1.68,-30.623,-37.2584,1.07822,1014.44
649868,-0.502152,9.96174,1.00909,-0.98,-0.63,1.61,-30.709,-38.85,0.539486,1014.44
649874,-0.540411,9.8374,1.14299,-1.4,-0.77,1.89,-30.5657,-37.9818,1.6453,1014.43
649880,-0.411286,9.71784,1.27212,-1.75,-0.84,1.68,-31.196,-37.8082,1.36176,1014.43
649886,-0.454328,9.57915,1.46341,-0.91,-0.84,1.4,-31.3679,-38.8789,0.085817,1014.46
649892,-0.439981,9.64132,1.40603,-0.56,-1.19,1.54,-30.623,-38.2423,0.823028,1014.46
649898,-0.502152,9.74653,1.24821,-0.21,-0.91,1.4,-30.9382,-36.5638,0.9648,1014.45
649904,-0.425634,9.69871,1.32472,-1.05,-0.84,1.4,-31.3965,-37.8371,1.37594,1014.45
649910,-0.420851,9.60784,1.46341,0.21,-0.77,1.05,-31.0527,-39.0236,-0.141017,1014.47
649916,-0.435198,9.64132,1.41081,0.84,-0.28,0.63,-31.683,-36.9979,1.03569,1014.47
649922,-0.373027,9.67001,1.27212,0.7,0.21,0.49,-30.7949,-37.5767,0.808851,1014.46
649928,-0.468675,9.73218,1.33429,0.56,-0.49,0.28,-30.7949,-38.9657,-0.552154,1014.46
649934,-0.47824,9.76088,1.24821,0.63,-0.35,0.42,-30.7663,-37.9529,0.397714,1014.43
649940,-0.473458,9.78957,1.21473,0.42,0,0.28,-30.9954,-37.2873,1.71619,1014.43
649946,-0.521282,9.80392,1.20516,0.21,0,0.49,-31.6257,-39.5445,0.56784,1014.47
649952,-0.549976,9.88044,1.14778,-0.49,0.21,0.7,-30.623,-38.9079,1.16328,1014.47
649958,-0.636059,9.9187,1.12865,-0.28,-0.42,1.12,-31.3965,-37.7214,1.09239,1014.47
649964,-0.593018,9.90435,1.16691,-1.26,-0.7,1.33,-31.11,-38.0686,1.29087,1014.46
649970,-0.573888,9.78957,1.26255,-1.54,-1.05,1.96,-31.4251,-38.358,1.03569,1014.46
649976,-0.439981,9.69392,1.3582,-1.26,-0.84,1.75,-30.9668,-37.5477,0.879737,1014.46
649982,-0.473458,9.73218,1.34385,-1.4,-0.35,1.89,-30.6517,-37.6924,0.978977,1014.46
649988,-0.468675,9.7274,1.38211,-0.56,-0.35,1.82,-30.5944,-38.0397,0.0432857,1014.46
649994,-0.47824,9.70827,1.39168,-0.7,0,1.54,-30.2506,-37.6635,1.12075,1014.46
650000,-0.473458,9.69871,1.34864,-0.63,-0.14,1.68,-31.3106,-37.5767,1.87214,1014.43
650006,-0.454328,9.70349,1.32951,-0.21,-0.49,1.89,-30.5085,-37.4899,-0.12684,1014.43
650012,-0.435198,9.68914,1.33907,-0.21,-0.49,1.05,-30.709,-38.6185,0.000754159,1014.5
650018,-0.401722,9.67958,1.31516,-0.07,0.35,1.54,-30.709,-36.8243,1.39011,1014.5
650024,-0.430416,9.70349,1.36298,-0.14,0.28,1.26,-30.7663,-38.2712,0.66708,1014.46
650030,-0.435198,9.65567,1.36777,0.35,0.14,0.91,-30.5944,-38.1844,0.0716399,1014.46
650036,-0.373027,9.66523,1.31038,0.28,0.21,0.91,-30.4225,-37.2005,1.82961,1014.46
650042,-0.392157,9.68436,1.29603,0.07,0.07,0.7,-31.1673,-36.7953,0.86556,1014.46
650048,-0.425634,9.67958,1.30081,0.7,-0.21,0.35,-30.7376,-38.1555,0.0291085,1014.46
650054,-0.420851,9.74175,1.26255,0.49,-0.21,0.14,-30.6517,-37.5188,0.411891,1014.49
650060,-0.473458,9.78001,1.24821,0,0.21,0.35,-31.3392,-36.1876,1.75872,1014.49
650066,-0.454328,9.81349,1.18125,-0.07,0.07,0,-30.9668,-37.9529,-0.0843086,1014.44
650072,-0.516499,9.80392,1.17169,-0.28,0,0.21,-30.7376,-37.895,0.341006,1014.44
650078,-0.502152,9.74653,1.27212,-0.98,-0.28,0.49,-30.3939,-36.969,1.09239,1014.47
650084,-0.492587,9.73218,1.28647,-0.77,0.07,0.63,-30.8522,-38.2423,0.411891,1014.47
650090,-0.463893,9.71784,1.31994,-0.56,-0.56,0.35,-30.5371,-38.7053,0.17088,1014.49
650096,-0.521282,9.70349,1.3582,-0.98,0.07,0.77,-31.5111,-37.2005,1.00733,1014.49
650102,-0.502152,9.71305,1.36777,-0.35,-0.42,0.49,-30.4798,-36.9111,2.16986,1014.47
650108,-0.45911,9.68914,1.40124,-0.14,0.14,0.77,-30.4798,-38.2133,0.326829,1014.47
650114,-0.416069,9.68436,1.41081,0.28,0.7,0.63,-31.4251,-37.5188,1.60277,1014.47
650120,-0.449546,9.66523,1.39646,0,0.77,0.35,-30.9382,-37.2294,0.837206,1014.5
650126,-0.406504,9.71305,1.35342,0.21,0.49,0.28,-30.4512,-37.9529,0.596194,1014.5
650132,-0.425634,9.69392,1.37733,0.28,0.07,0.21,-30.5085,-37.8371,-0.467091,1014.44
650138,-0.435198,9.74175,1.3056,0.63,0.28,0.28,-31.2246,-37.3452,1.48935,1014.44
650144,-0.468675,9.78479,1.24342,0.21,-0.21,0,-30.6803,-38.2423,0.993154,1014.4
650150,-0.430416,9.78001,1.25299,-0.14,0.28,0.28,-30.9382,-39.0236,0.0574628,1014.4
650156,-0.420851,9.73218,1.28647,0.14,-0.14,-17.92,-30.9668,-37.8371,0.879737,1014.45
650162,-0.449546,9.69871,1.32472,-0.07,0.56,0.14,-30.9954,-37.3162,1.58859,1014.45
650168,-0.468675,9.74175,1.26255,0.07,-0.21,0.07,-30.8809,-38.6185,0.284297,1014.46
650174,-0.526064,9.81349,1.23386,-0.35,0.35,0.07,-30.9382,-38.0108,0.695434,1014.46
650180,-0.61693,9.76566,1.32472,-0.49,-0.56,0.63,-30.709,-36.2744,1.65948,1014.47
650186,-0.483022,9.78479,1.3056,-0.42,-0.63,0.91,-30.5085,-38.0686,0.4686,1014.47
650192,-0.463893,9.79914,1.3056,-0.49,-0.63,0.98,-30.4512,-38.0686,0.142526,1014.43
650198,-0.511717,9.78001,1.3056,-0.98,0,1.12,-31.3106,-37.0268,1.17746,1014.43
650204,-0.487805,9.79914,1.3056,-0.84,0.14,1.26,-30.5371,-37.7214,0.128348,1014.43
650210,-0.444763,9.76566,1.29603,-0.56,-0.14,1.4,-30.4512,-38.5317,-1.43114,1014.45
650216,-0.382592,9.7274,1.36298,-0.84,-0.35,1.54,-31.3965,-37.0268,1.23417,1014.45
650222,-0.363462,9.70827,1.33907,-0.98,-0.84,0.98,-31.3106,-37.1715,1.20581,1014.46
650228,-0.401722,9.70349,1.36777,-0.28,-0.35,1.12,-30.6803,-38.2133,0.255943,1014.46
650234,-0.0573888,9.43568,1.41559,1.4,1.82,0.84,-31.7403,-37.7793,0.27012,1014.44
650240,-0.918221,10.1243,1.11908,-1.26,-2.38,0.7,-32.084,-37.1426,1.56024,1014.44
650246,0.0765184,9.28264,1.41081,0.07,2.8,2.03,-31.2246,-37.7214,-0.0843086,1014.44
650252,-0.875179,9.76088,1.41081,-0.56,-2.24,0.56,-31.0814,-39.0236,-1.48785,1014.44
650258,-0.0047824,9.86609,1.22429,1.33,2.03,1.61,-31.5397,-37.2294,1.33341,1014.44
650264,-0.688666,9.76566,1.23864,-0.63,-1.4,17.5,-32.084,-37.2873,1.19163,1014.44
650270,-0.181731,9.53611,1.46341,-0.21,0.21,1.05,-31.5397,-38.5317,-0.906583,1014.43
650276,-0.306074,9.68436,1.25777,0,0.28,0.91,-30.9668,-37.403,0.9648,1014.43
650282,-0.693448,9.96652,1.31994,-0.49,-0.63,1.05,-31.3679,-37.8661,1.29087,1014.43
650288,-0.344333,9.63654,1.33429,0.35,1.4,0.56,-30.6803,-38.7921,-0.566332,1014.46
650294,-0.526064,9.61262,1.46341,0.35,-0.14,1.12,-31.1673,-37.9529,-0.438737,1014.46
650300,-0.789096,10.0048,1.16212,-1.89,-1.19,0.98,-31.196,-37.2873,0.284297,1014.44
650306,-0.368245,9.6461,1.38211,0.7,1.47,1.4,-31.0241,-38.85,0.936446,1014.44
650312,-0.85605,10.0574,1.20995,-1.19,-2.31,1.47,-30.9382,-39.0526,0.539486,1014.48
650318,0.157819,9.45959,1.35342,0.35,1.68,1.26,-31.2533,-36.7664,1.16328,1014.48
650324,-0.650406,9.48828,1.5208,0.77,-1.26,1.26,-31.2533,-37.3452,0.723788,1014.49
650330,-0.267814,9.82783,1.15734,-0.63,0.91,1.12,-31.1673,-38.8211,0.085817,1014.49
650336,-0.483022,9.54567,1.62123,0.7,0.42,0.84,-30.9095,-36.969,1.02151,1014.45
650342,-0.506934,9.6748,1.47298,1.54,0.35,1.26,-31.3679,-37.7503,1.12075,1014.45
650348,-0.37781,9.8087,1.20038,0.84,0.14,1.12,-30.9954,-39.342,-0.367851,1014.44
650354,-0.363462,9.77044,1.26734,0.84,1.54,1.12,-31.3106,-38.4738,-0.0701315,1014.44
650360,-0.521282,9.82783,1.34385,0.28,-0.91,1.82,-31.0814,-36.5928,0.511131,1014.44
650366,-0.277379,9.81349,1.31994,0.35,0.7,1.4,-31.9121,-38.2423,-0.0701315,1014.45
650372,-0.521282,9.73218,1.33429,0.28,-0.63,1.54,-31.5397,-37.9239,0.156703,1014.45
650378,-0.224773,9.73218,1.18125,0.42,1.26,1.47,-31.1387,-36.7664,0.794674,1014.44
650384,-0.664754,9.94261,1.26255,-0.56,0.21,1.68,-30.8522,-37.2294,1.04986,1014.44
650390,-0.344333,9.69392,1.3869,-0.56,0.7,1.33,-31.11,-38.5027,-0.807343,1014.44
650396,-0.559541,9.78957,1.31516,-1.19,-0.35,2.03,-31.2533,-37.4899,1.23417,1014.44
650402,-0.277379,9.70827,1.26255,-0.56,0.28,1.4,-31.2819,-37.6635,0.737966,1014.46
650408,-0.286944,9.56958,1.42994,-0.56,0.63,1.33,-30.6517,-38.7053,0.383537,1014.46
650414,-0.430416,9.70349,1.39168,-0.28,-0.14,0.98,-30.0501,-37.8082,0.383537,1014.42
650420,-0.353898,9.68436,1.42516,0.42,0.84,1.05,-31.0527,-37.2005,0.837206,1014.42
650426,-0.444763,9.76566,1.33907,0.14,0.28,1.12,-31.4251,-37.9529,0.199234,1014.44
650432,-0.267814,9.64132,1.42994,0.42,1.19,0.77,-31.0241,-38.0397,-0.62304,1014.44
650438,-0.473458,9.74175,1.42994,0,-0.56,0.84,-31.2246,-37.0847,0.36936,1014.45
650444,-0.253467,9.5935,1.42037,1.12,0.56,0.35,-31.8548,-37.3452,0.227588,1014.45
650450,-0.401722,9.72262,1.31994,0.7,-0.35,0.35,-31.5111,-38.5027,-0.5238,1014.45
650456,-0.344333,9.69871,1.34385,0.84,0.49,0.28,-31.3392,-37.3162,1.80125,1014.45
650462,-0.325203,9.68436,1.34864,1.4,0.49,0.42,-31.3392,-37.7503,0.737966,1014.45
650468,-0.483022,9.73218,1.32472,0.91,0.28,0.49,-31.1387,-38.6474,0.142526,1014.47
650474,-0.492587,9.89957,1.22429,-0.07,-0.28,0.35,-31.0241,-37.7793,0.596194,1014.47
650480,-0.492587,9.74653,1.3869,0.98,0.07,0.7,-31.7116,-36.7664,1.91467,1014.44
650486,-0.463893,9.78479,1.33907,0.84,0.14,0.98,-31.4538,-38.1555,0.199234,1014.44
650492,-0.306074,9.51219,1.46341,1.12,1.26,0.84,-31.2246,-38.0108,0.681257,1014.45
650498,-0.612147,10.1291,1.20995,0.28,-0.07,1.61,-31.2819,-36.8243,0.879737,1014.45
650504,-0.291726,9.78479,1.17169,0,0.91,1.54,-31.5397,-37.8371,1.17746,1014.47
650510,-0.47824,9.71784,1.32951,-0.42,0.14,1.68,-32.571,-38.0976,-0.183549,1014.47
650516,-0.334768,9.73697,1.35342,-0.07,0.56,1.68,-31.9981,-37.8082,1.36176,1014.43
650522,-0.35868,9.70827,1.36298,-0.14,0.14,1.26,-31.597,-37.3452,2.15568,1014.43
650528,-0.35868,9.69392,1.40124,0.35,0.35,1.26,-31.9121,-38.0686,0.199234,1014.43
650534,-0.306074,9.6748,1.3869,0,0.42,1.12,-31.7976,-37.5767,0.312651,1014.43
650540,-0.334768,9.6748,1.3869,0.35,0.35,0.91,-32.2272,-37.2873,0.0574628,1014.43
650546,-0.334768,9.68914,1.36777,0.63,0.42,0.98,-31.8835,-37.6635,0.638726,1014.43
650552,-0.420851,9.73218,1.34385,0.7,0.21,0.91,-31.11,-37.3452,0.808851,1014.43
650558,-0.344333,9.71784,1.33429,0.56,0.28,0.98,-31.683,-36.6506,0.86556,1014.47
650564,-0.61693,9.93304,1.36777,0.84,0.14,1.12,-32.1127,-38.0397,0.936446,1014.47
650570,-0.23912,9.5935,1.31038,1.61,1.12,0.91,-31.4824,-38.2423,0.411891,1014.45
650576,-0.769966,10.1339,1.20516,-1.61,-1.75,0.77,-31.6257,-37.3452,1.37594,1014.45
650582,-0.200861,9.6461,1.42994,0.98,0.84,1.05,-31.4538,-36.5349,0.610371,1014.45
650588,-0.650406,9.86609,1.33907,0.07,-0.77,1.26,-32.4278,-38.1265,-0.566332,1014.45
650594,-0.282162,9.71784,1.31516,0,1.47,1.75,-31.3679,-37.2005,2.11315,1014.46
650600,-0.554758,9.74175,1.39168,0.21,-0.07,1.61,-31.2533,-37.0558,1.36176,1014.46
650606,-0.25825,9.7274,1.31516,-0.35,0.28,1.47,-31.196,-37.8371,0.284297,1014.46
650612,-0.200861,9.63654,1.34385,0.14,0.91,1.54,-30.9668,-38.1265,0.851383,1014.48
650618,-0.487805,9.7274,1.41559,0.07,0,1.47,-31.6543,-37.0558,0.539486,1014.48
650624,-0.200861,9.60784,1.42994,0.63,0.98,0.84,-31.7116,-37.2584,0.624548,1014.44
650630,-0.396939,9.6461,1.49211,0,0,1.05,-31.2246,-38.4159,-0.268611,1014.44
650636,-0.148254,9.60784,1.47776,1.12,0.42,1.26,-31.0527,-37.0268,0.794674,1014.47
650642,-0.396939,9.71305,1.3869,1.89,0.91,1.12,-31.9121,-37.0558,0.298474,1014.47
650648,-0.545194,9.9713,1.16212,0.49,-0.35,1.4,-32.0554,-38.4738,-0.169371,1014.45
650654,-0.406504,9.9713,1.12865,-0.35,0.35,1.47,-31.4251,-37.8371,0.36936,1014.45
650660,-0.344333,9.76566,1.37255,-0.07,0.42,1.89,-31.5397,-37.2584,1.71619,1014.43
650666,-0.526064,10.1052,1.1956,-1.26,-0.35,2.24,-30.6803,-38.1555,0.76632,1014.43
650672,-0.114778,9.53611,1.41559,0,0.63,1.61,-31.0527,-37.6346,0.185057,1014.5
650678,-0.554758,9.76088,1.42994,-0.28,-0.56,1.47,-31.3679,-37.432,1.09239,1014.5
650684,-0.320421,9.8374,1.25299,-0.42,-0.21,1.33,-30.709,-37.2005,0.0999942,1014.45
650690,-0.329986,9.78479,1.26255,-0.98,0.91,1.82,-31.3679,-38.6764,-1.09089,1014.45
650696,-0.449546,9.75131,1.3582,-0.35,0.14,1.68,-31.9981,-36.94,0.56784,1014.45
650702,-0.329986,9.74653,1.33907,-0.63,0.49,1.75,-31.8262,-37.2584,0.596194,1014.45
650708,-0.306074,9.65088,1.41081,-0.91,-0.07,1.61,-31.2819,-38.0397,-1.41696,1014.45
650714,-0.411286,9.73218,1.31516,-0.07,0.49,2.17,-32.0267,-37.3741,0.000754159,1014.43
650720,-0.368245,9.70349,1.33429,-0.84,-0.35,1.54,-31.5111,-36.8243,0.185057,1014.43
650726,-0.320421,9.61741,1.50167,-0.35,0.14,1.26,-31.11,-38.4159,-0.410383,1014.45
650732,-0.291726,9.57915,1.42994,0.98,0.28,1.47,-30.3939,-37.9239,0.737966,1014.45
650738,-0.272597,9.65567,1.38211,0.56,-0.28,0.7,-30.7949,-36.6217,1.50353,1014.46
650744,-0.229555,9.60784,1.43472,0.84,-0.42,0.14,-30.7663,-37.3741,0.908091,1014.46
650750,-0.291726,9.60306,1.43472,1.26,-0.63,0.49,-30.8236,-39.3998,-0.82152,1014.45
650756,-0.21999,9.70827,1.24821,0.98,-0.07,-0.28,-31.2246,-37.2294,0.128348,1014.45
650762,-0.229555,9.71305,1.25777,0.35,-0.14,-0.84,-31.4824,-36.969,-0.0843086,1014.44
650768,-0.282162,9.70827,1.3056,0.35,-0.14,-0.91,-31.2246,-38.4448,0.298474,1014.44
650774,-0.306074,9.74175,1.30081,-0.07,-0.7,-1.12,-32.6283,-37.8082,0.411891,1014.44
650780,-0.37781,9.81349,1.28647,0.14,-0.63,-0.35,-31.7976,-36.4191,0.383537,1014.46
650786,-0.353898,9.8087,1.23864,0.07,-0.56,-0.63,-31.7403,-38.0976,0.709611,1014.46
650792,-0.363462,9.80392,1.24821,-0.35,-0.84,-0.63,-31.4824,-38.4159,0.17088,1014.45
650798,-0.310856,9.66523,1.45385,-0.21,-1.26,-0.77,-32.0267,-37.5477,0.0291085,1014.45
650804,-0.33955,9.67001,1.44428,-0.07,-1.12,-0.84,-31.7976,-37.3452,0.114171,1014.45
650810,-0.344333,9.73697,1.32472,0.14,-0.7,-0.63,-31.9121,-38.85,-0.552154,1014.45
650816,-0.334768,9.73697,1.32951,-0.35,-0.42,-0.84,-31.7403,-37.1715,-0.0843086,1014.44
650822,-0.315638,9.69871,1.40124,0.28,-0.49,-0.63,-31.7116,-37.2005,1.47518,1014.44
650828,-0.387374,9.67958,1.48254,0.63,-0.42,-0.49,-30.7663,-38.85,-0.22608,1014.47
650834,-0.37781,9.75131,1.3869,0.77,-0.28,-0.49,-31.7976,-38.1265,-0.12684,1014.47
650840,-0.353898,9.79436,1.31994,0.35,-0.14,-0.07,-31.1673,-36.8243,1.13493,1014.46
650846,-0.306074,9.73218,1.34864,0.56,-0.21,-0.42,-31.2246,-37.1426,-0.410383,1014.46
650852,-0.33955,9.73218,1.39646,0.77,-0.28,-0.21,-31.1387,-37.7503,-0.452914,1014.46
650858,-0.329986,9.73697,1.34385,1.05,-0.42,-0.21,-30.7663,-36.7664,1.48935,1014.46
650864,-0.37781,9.80392,1.28647,0.7,-0.35,-0.14,-31.597,-37.3452,0.0149313,1014.46
650870,-0.282162,9.72262,1.31994,0.42,0.49,0,-31.2246,-38.1844,-0.580509,1014.46
650876,-0.329986,9.75131,1.36298,1.05,0.07,-0.07,-31.5684,-37.6924,-0.22608,1014.46
650882,-0.23912,9.74653,1.31516,0.77,0.84,-0.42,-32.2559,-36.9979,0.823028,1014.47
650888,-0.545194,9.88044,1.3056,-0.28,-0.84,0,-31.597,-37.6635,-0.949114,1014.47
650894,-0.320421,9.79914,1.25299,-0.35,0.49,-17.5,-32.1986,-37.895,0.0432857,1014.45
650900,-0.45911,9.78957,1.34864,0.14,-0.91,0,-31.5684,-36.4481,0.737966,1014.45
650906,-0.229555,9.75131,1.31994,-0.42,0.63,-0.07,-31.11,-37.8082,-0.353674,1014.46
650912,-0.435198,9.6461,1.53515,0.42,0.14,-17.85,-31.6543,-38.6185,-0.0559544,1014.46
650918,-0.310856,9.72262,1.36777,0.35,-0.35,-0.14,-31.6257,-37.2005,0.085817,1014.47
650924,-0.382592,9.78479,1.29125,0.21,-0.42,0,-31.2246,-38.1844,-0.197726,1014.47
650930,-0.353898,9.68914,1.37255,0.28,0.07,17.85,-31.0814,-38.7053,-1.07671,1014.43
650936,-0.420851,9.77044,1.31516,0.14,-0.28,0,-31.5397,-36.8532,0.454423,1014.43
650942,-0.420851,9.80392,1.30081,0.14,-0.07,0.21,-32.5424,-36.5059,-0.793166,1014.43
650948,-0.401722,9.84218,1.25299,-0.21,0,0.7,-32.2272,-37.7503,-1.02,1014.41
650954,-0.344333,9.82305,1.25299,-0.14,0.07,0.98,-31.7403,-37.3162,0.582017,1014.41
650960,-0.329986,9.77044,1.32951,-0.77,-0.21,0.91,-31.3679,-36.5928,0.000754159,1014.48
650966,-0.306074,9.66523,1.40603,0.35,-0.07,0.56,-31.8835,-37.895,-0.552154,1014.48
650972,-0.315638,9.72262,1.37255,0.14,-0.35,0.42,-31.4538,-38.0397,-0.112663,1014.47
650978,-0.33955,9.69871,1.39646,-0.35,-0.07,0.7,-32.1413,-37.4899,-0.5238,1014.47
650984,-0.272597,9.60306,1.44428,0.21,0,0.42,-31.8262,-37.0558,0.737966,1014.4
650990,-0.25825,9.66523,1.43472,0.14,0.42,0.07,-32.2559,-38.0397,-0.410383,1014.4
650996,-0.306074,9.68436,1.3869,0.7,0,0,-32.17,-36.7953,0.9648,1014.45
651002,-0.301291,9.65088,1.40124,1.19,0.14,-0.63,-31.3392,-36.9111,0.922268,1014.45
651008,-0.310856,9.70349,1.36298,0.91,-0.14,-0.35,-31.7976,-38.1844,-0.849874,1014.46
651014,-0.363462,9.81827,1.26734,0.35,-0.63,-0.28,-31.6257,-36.969,-0.183549,1014.46
651020,-0.315638,9.71305,1.32951,0.77,-0.56,-0.56,-31.3679,-37.2294,0.596194,1014.46
651026,-0.320421,9.73697,1.31994,0.56,-0.42,-0.42,-31.7689,-37.6635,0.596194,1014.43
651032,-0.306074,9.74175,1.36777,0.28,-0.21,-0.42,-31.6257,-38.0976,0.411891,1014.43
651038,-0.33955,9.73697,1.31994,-0.35,-0.28,-0.63,-31.7116,-37.1137,-0.112663,1014.46
651044,-0.315638,9.76088,1.26734,0.28,-0.42,-0.49,-31.3392,-37.1715,0.227588,1014.46
651050,-0.363462,9.78479,1.28168,-0.28,-0.21,-0.63,-31.3965,-37.9239,-0.693926,1014.47
651056,-0.439981,9.7274,1.42037,0.28,-0.98,-0.21,-31.4251,-36.2744,-0.0417772,1014.47
651062,-0.425634,9.78479,1.32472,0.49,-0.28,0,-31.6257,-36.5928,0.582017,1014.43
651068,-0.444763,9.8374,1.29125,0.35,-0.35,0.21,-31.2819,-38.0108,-0.296966,1014.43
651074,-0.449546,9.82783,1.30081,-1.05,-0.07,0.7,-31.5397,-37.7503,-0.552154,1014.44
651080,-0.435198,9.81349,1.31516,-0.14,-0.07,1.19,-31.5397,-36.1876,0.950623,1014.44
651086,-0.454328,9.86609,1.33907,-0.21,-0.77,1.4,-31.5111,-37.4899,1.07822,1014.46
651092,-0.229555,9.74653,1.29603,-0.91,0.49,1.54,-32.7142,-37.8661,-1.44531,1014.46
651098,-0.37781,9.67001,1.44428,0,-0.63,1.47,-31.8835,-36.3323,0.341006,1014.48
651104,-0.248685,9.71305,1.42037,0.35,0.07,1.12,-31.8262,-37.0558,-0.353674,1014.48
651110,-0.286944,9.71305,1.38211,0.35,-0.07,0.84,-31.2819,-38.4159,-0.679749,1014.48
651116,-0.296509,9.76566,1.28647,-0.28,0.63,0.91,-31.8262,-37.3162,0.383537,1014.47
651122,-0.272597,9.7561,1.28647,-0.42,0.91,0.84,-31.683,-37.0268,0.893914,1014.47
651128,-0.296509,9.6748,1.39646,-0.07,1.12,0.98,-32.3991,-38.4159,0.341006,1014.47
651134,-0.334768,9.71305,1.41559,0.49,0.98,1.4,-31.7403,-37.5767,-0.112663,1014.47
651140,-0.301291,9.78001,1.36298,0.35,0.56,0.91,-32.2559,-36.3902,1.21999,1014.43
651146,-0.296509,9.74653,1.29603,-0.42,0.91,1.19,-31.7689,-37.8371,0.440246,1014.43
651152,-0.286944,9.70827,1.34864,-0.07,1.12,1.05,-32.3418,-38.0686,-0.0559544,1014.44
651158,-0.253467,9.68436,1.37733,0,1.54,0.7,-31.683,-36.014,0.978977,1014.44
651164,-0.272597,9.66523,1.42516,0.07,1.26,0.91,-31.0527,-36.7953,1.13493,1014.46
651170,-0.286944,9.69392,1.36777,-0.07,1.05,0.49,-31.9408,-38.2712,-0.5238,1014.46
651176,-0.291726,9.73697,1.33907,-0.07,0.84,0.21,-32.4564,-37.3162,1.24834,1014.44
651182,-0.320421,9.71305,1.3582,0.14,0.21,0,-31.597,-36.6217,-0.0843086,1014.44
651188,-0.35868,9.74175,1.35342,0.07,0.14,0.28,-31.3679,-37.6924,-0.296966,1014.44
651194,-0.310856,9.75131,1.34864,0,0.84,0.28,-31.2533,-37.4609,0.000754159,1014.45
651200,-0.396939,9.78001,1.30081,0.14,0.28,0.42,-31.8262,-37.1426,0.66708,1014.45
651206,-0.387374,9.8087,1.3056,-0.42,0.56,0.98,-31.8835,-37.9529,-0.864051,1014.46
651212,-0.263032,9.67958,1.40124,-0.7,0.07,0.35,-31.8548,-38.1844,-0.254434,1014.46
651218,-0.306074,9.64132,1.43472,0.35,0.21,0.35,-31.9981,-36.1587,-0.169371,1014.45
651224,-0.25825,9.6748,1.3869,0.14,-0.56,0.35,-31.5111,-37.4609,0.596194,1014.45
651230,-0.301291,9.68914,1.37255,0,-0.28,-0.14,-32.1986,-37.9529,-0.0276001,1014.46
651236,-0.334768,9.68436,1.42037,0.07,-0.7,0.07,-31.4824,-36.9111,0.411891,1014.46
651242,-0.344333,9.71305,1.42516,0.77,0.14,0.21,-31.6257,-36.8821,0.950623,1014.45
651248,-0.33955,9.77523,1.32472,0.49,0.28,0.14,-32.3132,-37.8661,-1.27519,1014.45
651254,-0.373027,9.87087,1.26734,0.35,0.28,0.77,-30.9954,-37.432,-0.750634,1014.42
651260,-0.329986,9.81349,1.2769,-0.42,-0.28,0.77,-31.7976,-36.7085,0.482777,1014.42
651266,-0.277379,9.7274,1.3869,-0.42,-0.14,0.56,-31.3679,-37.9818,0.794674,1014.42
651272,-0.349115,9.66523,1.4395,0.28,-0.21,0.7,-31.7689,-38.0686,-0.0417772,1014.48
651278,-0.320421,9.7274,1.38211,0.21,-0.35,0.49,-32.5997,-37.6056,-0.22608,1014.48
651284,-0.277379,9.74175,1.39646,0.21,0.42,0.42,-32.5424,-37.2584,-0.12684,1014.47
651290,-0.315638,9.73697,1.38211,0.56,0.14,0.35,-31.7689,-38.2423,-0.183549,1014.47
651296,-0.325203,9.79436,1.32951,-0.21,0.56,0.28,-32.6569,-37.7793,-1.57291,1014.49
651302,-0.306074,9.78957,1.31516,-0.35,0.21,0.56,-32.3132,-36.4481,0.255943,1014.49
651308,-0.248685,9.71784,1.36777,-0.21,0.63,0.7,-30.6803,-38.0108,-0.793166,1014.43
651314,-0.253467,9.66523,1.41081,-0.21,-0.21,0.21,-31.4824,-37.403,0.0149313,1014.43
651320,-0.23912,9.6748,1.3869,-0.28,-0.49,-0.14,-32.084,-35.7246,0.837206,1014.48
651326,-0.25825,9.6461,1.39168,0.07,-0.35,-0.14,-31.8262,-37.1137,0.0999942,1014.48
651332,-0.23912,9.6461,1.40603,0.42,-0.42,-0.42,-31.9121,-37.9529,-1.23266,1014.51
651338,-0.234338,9.62219,1.44907,0.56,0.14,-0.56,-31.683,-36.477,-0.42456,1014.51
651344,-0.329986,9.70827,1.40124,0.63,-0.07,-0.49,-32.0554,-37.6346,-0.42456,1014.44
651350,-0.396939,9.81349,1.34385,0.7,-0.28,-0.21,-31.9981,-38.5027,-0.991646,1014.44
651356,-0.329986,9.87566,1.26255,0.28,-0.35,0.28,-31.597,-37.4609,0.426068,1014.44
651362,-0.363462,9.77523,1.35342,0,-0.49,0,-32.4564,-36.7374,0.624548,1014.43
651368,-0.387374,9.83261,1.33429,0.21,-0.56,0.42,-32.2559,-38.1555,-0.82152,1014.43
651374,-0.406504,9.89,1.36777,-0.49,0.14,0.98,-31.683,-36.7953,-1.17595,1014.45
651380,-0.329986,9.78957,1.34385,0.07,0.14,1.12,-32.6283,-37.2294,-0.382029,1014.45
651386,-0.277379,9.78479,1.36298,-0.07,0.21,0.84,-31.5684,-36.9111,-0.835697,1014.42
651392,-0.282162,9.74653,1.41081,-0.28,0.28,1.05,-31.1387,-38.3291,-2.23923,1014.42
651398,-0.253467,9.68914,1.42516,0.21,0.28,1.19,-32.2845,-36.477,-0.112663,1014.43
651404,-0.267814,9.71784,1.41559,0.21,0.28,0.7,-32.4851,-37.2584,0.36936,1014.43
651410,-0.248685,9.76088,1.3582,0.07,0.77,0.84,-31.4824,-38.4448,-0.240257,1014.47
651416,-0.291726,9.77044,1.29603,0.07,0.63,0.77,-32.1127,-36.9979,-0.141017,1014.47
651422,-0.282162,9.79914,1.29125,-0.28,0.42,0.98,-31.9408,-36.2455,1.29087,1014.48
651428,-0.267814,9.72262,1.34385,-0.7,0.21,0.98,-31.8835,-37.8371,-0.112663,1014.48
651434,-0.248685,9.67958,1.39168,-0.28,0.49,0.77,-31.3106,-37.1137,-0.0559544,1014.48
651440,-0.267814,9.66523,1.4395,0,0.21,0.56,-30.8809,-36.9111,0.341006,1014.47
651446,-0.263032,9.6461,1.42037,0.28,0.35,0.49,-32.0554,-37.0268,0.482777,1014.47
651452,-0.296509,9.68914,1.39168,0.35,-0.07,0.49,-31.4538,-37.4899,-0.183549,1014.44
651458,-0.315638,9.76566,1.31038,0.07,0.49,0.56,-30.7376,-36.8821,0.284297,1014.44
651464,-0.344333,9.84696,1.29603,-0.28,0.07,0.77,-31.4824,-36.8532,1.41847,1014.45
651470,-0.368245,9.82305,1.30081,-0.21,0.35,0.77,-31.2533,-38.4448,-0.977469,1014.45
651476,-0.306074,9.84218,1.32472,-0.7,0.21,1.05,-32.1413,-36.5638,0.893914,1014.44
651482,-0.344333,9.76566,1.34385,-0.84,0.91,1.68,-32.4278,-36.3612,0.978977,1014.44
651488,-0.334768,9.79914,1.40603,-0.84,0.35,1.61,-32.084,-37.7793,-0.211903,1014.44
651494,-0.315638,9.71305,1.42037,-0.7,0.98,1.54,-31.8262,-37.0268,-0.254434,1014.44
651500,-0.267814,9.69392,1.39168,-0.7,0.63,1.33,-31.3106,-35.6957,1.17746,1014.43
651506,-0.243902,9.66045,1.4395,-0.49,0.42,1.4,-32.084,-37.6924,-0.32532,1014.43
651512,-0.215208,9.56958,1.48733,0,-0.28,0.91,-31.3965,-37.8661,-1.98405,1014.43
651518,-0.186514,9.58871,1.48733,-0.63,0.14,0.7,-31.4824,-35.9272,-0.651394,1014.46
651524,-0.210426,9.58871,1.4682,1.33,0.49,0.7,-32.4564,-37.4899,0.553663,1014.46
651530,-0.21999,9.66045,1.41559,0.35,-0.07,-0.28,-31.4824,-38.0108,0.0149313,1014.44
651536,-0.210426,9.68914,1.3582,-0.21,-0.35,-0.07,-31.8262,-36.7953,-1.23266,1014.44
651542,-0.272597,9.71305,1.35342,1.19,-0.07,-0.35,-32.1127,-36.6217,0.142526,1014.43
651548,-0.248685,9.76088,1.28647,0.28,-0.28,-0.49,-31.5397,-37.3452,-0.934937,1014.43
651554,-0.263032,9.7274,1.27212,-0.84,-0.14,-0.56,-31.5397,-37.403,0.085817,1014.44
651560,-0.243902,9.76566,1.28168,-0.28,-0.14,-0.28,-31.6543,-35.6378,0.341006,1014.44
651566,-0.277379,9.71305,1.40603,-0.63,-0.56,-0.49,-31.683,-36.94,0.0574628,1014.46
651572,-0.234338,9.71784,1.36298,-0.98,-0.14,-0.21,-31.8262,-37.1715,-0.82152,1014.46
651578,-0.263032,9.70349,1.38211,0.21,-0.63,-0.7,-31.9981,-36.3902,-0.254434,1014.46
651584,-0.286944,9.71305,1.42516,-0.07,0.07,-0.7,-32.7142,-37.3741,-1.64379,1014.46
651590,-0.277379,9.7561,1.39168,-0.35,-0.63,-0.7,-32.17,-38.0976,-1.23266,1014.45
651596,-0.35868,9.72262,1.48254,0.07,-0.14,-0.28,-31.9694,-36.5059,-0.141017,1014.45
651602,-0.315638,9.76088,1.41081,0.56,-0.35,-0.56,-32.0267,-35.9272,0.4686,1014.45
651608,-0.286944,9.77523,1.37255,0.14,0.14,-0.42,-31.6543,-37.2873,-1.13342,1014.47
651614,-0.272597,9.73697,1.3582,0.63,0.21,17.78,-32.4278,-36.9979,-0.254434,1014.47
651620,-0.296509,9.74653,1.37733,-0.14,0.07,-0.35,-32.2559,-36.0719,0.0574628,1014.43
651626,-0.248685,9.71305,1.44428,0.07,-0.21,-0.07,-31.3965,-37.3741,1.17746,1014.43
651632,-0.229555,9.66045,1.42037,0.98,0.07,17.43,-32.2272,-37.3162,-1.10506,1014.43
651638,-0.210426,9.65567,1.41081,0.63,-0.07,-0.28,-31.4251,-35.985,0.0999942,1014.43
651644,-0.267814,9.65567,1.45863,0.56,0.49,-0.63,-32.0267,-37.0847,0.681257,1014.45
651650,-0.248685,9.65088,1.40124,1.47,-0.49,-1.05,-30.7376,-38.2423,-0.452914,1014.45
651656,-0.282162,9.69871,1.38211,1.05,0.63,-1.19,-30.5657,-37.1137,-0.934937,1014.42
651662,-0.224773,9.7274,1.31516,0.28,0.14,-0.98,-31.7116,-36.7374,0.27012,1014.42
651668,-0.306074,9.70827,1.36298,0.98,1.12,-1.47,-31.0814,-38.6185,-0.240257,1014.47
651674,-0.35868,9.79914,1.31516,0.77,-0.28,-1.19,-31.7116,-37.2873,0.0999942,1014.47
651680,-0.253467,9.82783,1.26734,0.21,-0.56,-0.42,-31.1673,-36.7953,0.312651,1014.47
651686,-0.25825,9.76566,1.29125,-0.07,-0.35,-0.91,-31.7689,-38.0976,-0.112663,1014.46
651692,-0.392157,9.87566,1.30081,-0.14,-0.35,-0.49,-31.4824,-38.0108,-0.651394,1014.46
651698,-0.35868,9.92348,1.25299,-0.84,0.28,0.14,-30.9954,-36.6217,0.908091,1014.46
651704,-0.291726,9.88044,1.26734,-0.77,0.21,17.78,-32.2845,-36.7953,0.284297,1014.46
651710,-0.286944,9.76088,1.37733,-1.19,0.7,0.42,-31.3106,-37.6346,-0.679749,1014.45
651716,-0.396939,9.71784,1.51602,-0.98,0.28,0.49,-31.8262,-37.1426,0.440246,1014.45
651722,-0.334768,9.74175,1.4682,-0.14,0.56,0.7,-31.3392,-36.8821,1.31923,1014.46
651728,-0.315638,9.76088,1.40603,-0.35,-0.21,0.84,-32.084,-38.3291,0.142526,1014.46
651734,-0.229555,9.7561,1.38211,-1.12,-0.14,0.77,-31.6543,-37.7503,-0.864051,1014.47
651740,-0.282162,9.66523,1.5208,0.28,-0.42,0.7,-32.1986,-37.1426,0.0716399,1014.47
651746,-0.263032,9.69392,1.48254,0.49,-0.07,0.56,-30.9954,-37.8082,0.454423,1014.46
651752,-0.23912,9.74653,1.33907,-0.07,0.7,0.42,-31.4251,-38.3001,-0.240257,1014.46
651758,-0.210426,9.69871,1.34864,0.07,0.49,0.07,-31.7976,-36.477,-0.62304,1014.46
651764,-0.267814,9.63175,1.44907,0.42,0.42,0,-31.3392,-36.6796,-0.22608,1014.45
651770,-0.291726,9.68436,1.46341,0.98,-0.14,0.07,-31.7403,-37.6635,0.582017,1014.45
651776,-0.263032,9.76566,1.34864,0.42,0.07,0.14,-31.7976,-36.5349,0.0291085,1014.44
651782,-0.21999,9.76566,1.27212,0.42,-0.21,-0.21,-31.0814,-36.9111,0.326829,1014.44
651788,-0.21999,9.71784,1.33907,-0.35,0.56,-0.21,-31.8835,-37.9818,-1.17595,1014.42
651794,-0.267814,9.70349,1.34864,0.14,0.42,-0.35,-31.7403,-37.0268,-0.679749,1014.42
651800,-0.243902,9.72262,1.31994,-0.28,0.56,-0.42,-30.8236,-35.8982,-0.183549,1014.43
651806,-0.196078,9.70827,1.33907,-0.77,-0.14,-1.05,-31.3965,-37.6346,-0.367851,1014.43
651812,-0.25825,9.70827,1.3582,-0.35,-0.07,-0.77,-31.7403,-38.0397,-1.23266,1014.43
651818,-0.277379,9.79436,1.29125,-1.12,-0.21,-0.63,-31.6543,-36.6506,0.624548,1014.43
651824,-0.368245,9.83261,1.29125,-1.4,0.35,-0.56,-31.8548,-36.7085,-0.12684,1014.44
651830,-0.411286,9.86609,1.38211,-1.12,-0.35,0,-31.3106,-37.7214,-1.50202,1014.44
651836,-0.344333,9.76088,1.40603,-1.26,0.42,-0.42,-31.3392,-37.2294,0.610371,1014.44
651842,-0.33955,9.77044,1.41081,-1.12,0.49,0.35,-31.6257,-36.9111,0.298474,1014.44
651848,-0.33955,9.78957,1.43472,-0.84,0.7,0.84,-31.4824,-38.0397,-0.934937,1014.44
651854,-0.296509,9.73218,1.4682,-0.98,0.28,0.56,-31.1387,-37.7793,-0.991646,1014.47
651860,-0.301291,9.57915,1.60689,0,-0.14,0.56,-31.597,-36.7085,0.411891,1014.47
651866,-0.267814,9.63175,1.53037,0.98,-0.35,0.63,-31.7116,-37.8371,0.0149313,1014.46
651872,-0.243902,9.65567,1.45385,0.84,0.07,0.49,-31.1673,-38.0976,-0.197726,1014.46
651878,-0.205643,9.65088,1.44907,0.98,0.42,0.28,-31.7976,-36.94,0.213411,1014.45
651884,-0.234338,9.6461,1.42516,1.26,0.21,17.78,-31.7689,-36.7953,-0.566332,1014.45
651890,-0.234338,9.67958,1.39646,1.05,0.35,-0.21,-31.597,-38.0397,-0.92076,1014.44
651896,-0.215208,9.69871,1.32951,1.12,0,-0.07,-32.17,-36.8243,-0.5238,1014.44
651902,-0.205643,9.73218,1.3056,0.21,0.14,-0.77,-31.5397,-36.477,-0.0559544,1014.47
651908,-0.23912,9.7274,1.28647,-0.21,0,-0.98,-31.3392,-37.3452,-1.44531,1014.47
651914,-0.25825,9.7274,1.34385,-0.07,0.28,-0.77,-31.4251,-37.5767,-0.72228,1014.45
651920,-0.248685,9.71784,1.33429,-0.21,0,-0.77,-31.7689,-35.9272,-0.5238,1014.45
651926,-0.267814,9.72262,1.34385,-0.28,0.14,-0.63,-32.0267,-37.5188,-0.197726,1014.45
651932,-0.296509,9.70349,1.39646,-0.42,-0.35,-0.77,-32.2272,-37.6346,-0.367851,1014.45
651938,-0.329986,9.70349,1.43472,-0.14,-0.14,-1.05,-32.084,-37.0847,0.624548,1014.45
651944,-0.33955,9.77044,1.40603,-0.14,-0.7,-0.49,-31.7689,-37.1715,-0.282789,1014.44
651950,-0.286944,9.74175,1.40124,0,-0.21,-0.56,-31.7403,-38.2712,-0.878229,1014.44
651956,-0.310856,9.70827,1.4682,-0.56,-0.28,-0.63,-31.3392,-37.1426,-0.750634,1014.45
651962,-0.33955,9.67001,1.6021,0.84,-0.07,-0.42,-31.196,-36.2165,-0.906583,1014.45
651968,-0.37781,9.70349,1.56863,1.4,-0.77,-0.35,-31.7689,-37.7503,-1.23266,1014.46
651974,-0.33955,9.79914,1.3869,1.05,-0.63,-0.49,-31.5111,-37.5767,-1.09089,1014.46
651980,-0.253467,9.8374,1.28647,0.63,-0.63,0.14,-31.3106,-36.8821,0.582017,1014.46
651986,-0.253467,9.74653,1.33907,0.28,-0.21,-0.63,-31.3392,-37.7503,-0.438737,1014.46
651992,-0.291726,9.6461,1.46341,0.35,-0.42,-0.21,-31.3392,-38.1265,-1.17595,1014.42
651998,-0.234338,9.63654,1.44907,0.56,0,-0.42,-31.597,-36.7664,-0.878229,1014.42
652004,-0.21999,9.6461,1.42516,0.84,-0.07,-0.91,-31.2533,-36.6217,-0.750634,1014.42
652010,-0.23912,9.63175,1.4395,1.4,-0.14,-0.84,-30.7663,-38.358,-1.85645,1014.45
652016,-0.229555,9.65088,1.4395,1.26,-0.91,-1.33,-31.0241,-36.8243,0.610371,1014.45
652022,-0.25825,9.6748,1.40603,1.33,-0.84,-1.82,-31.7976,-36.4191,-0.82152,1014.49
652028,-0.272597,9.67958,1.40603,1.33,-1.19,-1.4,-32.4564,-37.7503,-1.95569,1014.49
652034,-0.310856,9.74653,1.39168,1.68,-0.28,-1.54,-31.2533,-37.403,-0.864051,1014.45
652040,-0.320421,9.81827,1.33907,1.4,-0.63,-1.33,-31.597,-36.6217,0.511131,1014.45
652046,-0.282162,9.85174,1.25299,0.98,-0.63,-1.05,-31.597,-37.895,0.383537,1014.43
652052,-0.329986,9.85653,1.24342,0.21,-0.63,-1.05,-31.6543,-37.8661,-0.963291,1014.43
652058,-0.363462,9.86609,1.32951,0,-0.98,-0.98,-31.3106,-35.985,-0.0276001,1014.45
652064,-0.35868,9.81827,1.34385,0.07,-0.7,-0.49,-31.597,-37.1715,-1.27519,1014.45
652070,-0.329986,9.84218,1.34864,-0.56,-0.84,-0.14,-32.0267,-37.3452,-1.48785,1014.43
652076,-0.349115,9.78957,1.39168,-0.21,-0.28,0,-31.5397,-36.6506,0.56784,1014.43
652082,-0.33955,9.78479,1.42037,0,-0.49,0.28,-31.196,-36.6506,-0.750634,1014.44
652088,-0.329986,9.73218,1.4682,-0.07,0.07,0.21,-31.3965,-38.6474,-0.906583,1014.44
652094,-0.301291,9.71784,1.47298,0.35,0.14,0.21,-31.5684,-37.6056,-0.835697,1014.44
652100,-0.310856,9.70827,1.43472,0.91,-0.28,0.07,-32.17,-35.6667,-0.396206,1014.44
652106,-0.234338,9.7274,1.3869,0.14,-0.14,0.14,-31.8262,-37.6635,-0.637217,1014.44
652112,-0.291726,9.68436,1.41559,0.07,-0.07,0.28,-31.7116,-38.0397,-0.679749,1014.46
652118,-0.267814,9.66045,1.43472,0.84,0,17.85,-32.0554,-36.2165,0.638726,1014.46
652124,-0.253467,9.65088,1.45385,0.42,-0.42,-0.42,-31.9408,-36.2455,0.128348,1014.47
652130,-0.272597,9.66523,1.41081,0.91,-0.56,-0.28,-31.4824,-37.1426,-1.09089,1014.47
652136,-0.224773,9.66045,1.39168,1.47,-0.56,-1.26,-30.5085,-37.0268,-0.169371,1014.46
652142,-0.224773,9.69871,1.34864,0.49,-0.21,-0.91,-31.7116,-35.8693,-0.339497,1014.46
652148,-0.263032,9.68914,1.3582,0.84,0.49,-0.91,-32.0267,-36.8243,-0.750634,1014.45
652154,-0.263032,9.66523,1.36777,0.91,-0.42,-1.75,-31.196,-37.4609,-0.5238,1014.45
652160,-0.243902,9.67958,1.39168,0.35,0.21,-1.47,-30.8236,-36.5059,-0.339497,1014.49
652166,-0.310856,9.69871,1.39646,0.56,-0.77,-1.4,-31.8835,-37.3162,-2.09746,1014.49
652172,-0.282162,9.69871,1.37733,0.98,-0.7,-1.82,-30.7663,-37.9529,-1.27519,1014.49
652178,-0.315638,9.75131,1.36777,0.21,-0.7,-1.33,-31.2246,-36.0429,0.17088,1014.45
652184,-0.33955,9.75131,1.40124,0.56,0.07,-0.98,-31.11,-36.9111,-0.0134229,1014.45
652190,-0.37781,9.78957,1.41081,0.77,-0.7,-1.4,-31.196,-37.7503,-1.10506,1014.41
652196,-0.277379,9.74175,1.39168,0.42,0.14,-0.84,-31.7976,-36.3902,-0.708103,1014.41
652202,-0.296509,9.74175,1.36777,0.7,-0.49,-1.05,-31.3679,-36.5059,-0.112663,1014.42
652208,-0.334768,9.73218,1.39646,1.05,-0.28,-1.12,-30.709,-37.7214,-1.03418,1014.42
652214,-0.320421,9.7561,1.35342,0.77,-0.42,-0.35,-31.2533,-37.432,0.695434,1014.43
652220,-0.320421,9.77523,1.36777,0.63,-0.35,-0.49,-31.3965,-36.1876,-0.32532,1014.43
652226,-0.296509,9.67958,1.37733,0.28,-0.56,-0.98,-31.8835,-37.4609,-0.62304,1014.44
652232,-0.286944,9.67958,1.41081,0.35,0.14,-0.42,-32.1127,-38.3001,-1.41696,1014.44
652238,-0.267814,9.67958,1.44428,0.7,-0.56,-1.54,-31.8548,-36.5928,-0.42456,1014.44
652244,-0.291726,9.67001,1.44907,0.7,-0.21,-0.7,-31.597,-36.7374,0.397714,1014.44
652250,-0.325203,9.70349,1.40603,1.26,-0.84,-1.12,-31.4251,-37.8371,-1.43114,1014.44
652256,-0.320421,9.73218,1.34385,0.77,-0.49,-1.33,-31.9408,-37.1715,-0.0984858,1014.48
652262,-0.349115,9.77044,1.3869,0.91,-0.98,-1.12,-31.6257,-36.3323,0.709611,1014.48
652268,-0.301291,9.71305,1.41559,0.7,-0.21,-1.05,-31.8548,-37.8371,0.114171,1014.45
652274,-0.334768,9.73218,1.42516,0.98,0.07,-0.98,-32.5424,-37.1137,-0.141017,1014.45
652280,-0.368245,9.84218,1.31994,0.49,0.07,-1.05,-30.9382,-35.8403,0.950623,1014.45
652286,-0.373027,9.88522,1.24821,-0.42,-0.21,-0.63,-32.0267,-37.4899,0.66708,1014.45
652292,-0.35868,9.79914,1.34864,-0.07,-0.7,-0.56,-31.7976,-38.0976,0.681257,1014.47
652298,-0.37781,9.81349,1.30081,0.49,-0.91,17.22,-31.196,-36.9979,0.17088,1014.47
652304,-0.349115,9.88044,1.25777,-0.35,-0.56,0.14,-32.3418,-36.7664,1.17746,1014.45
652310,-0.329986,9.76566,1.33907,-0.63,-0.21,0.14,-31.8262,-38.358,-0.552154,1014.45
652316,-0.263032,9.70349,1.42037,0,-0.28,-17.85,-31.4538,-37.0558,1.04986,1014.43
652322,-0.282162,9.63654,1.53515,0.35,0.21,-0.14,-31.5684,-37.6056,0.440246,1014.43
652328,-0.286944,9.63654,1.48733,0.7,0.35,-0.42,-32.1986,-37.4899,-0.778989,1014.45
652334,-0.329986,9.68436,1.44907,0.84,0.35,-0.42,-32.1413,-37.7793,0.86556,1014.45
652340,-0.306074,9.66523,1.44428,0.49,0.28,-0.35,-32.1986,-36.94,1.82961,1014.45
652346,-0.296509,9.66523,1.44428,1.33,-0.42,-0.91,-32.0267,-37.8661,-0.240257,1014.46
652352,-0.306074,9.68914,1.42994,1.12,-0.28,-1.05,-31.5111,-37.8661,-1.53038,1014.46
652358,-0.272597,9.68914,1.39646,1.33,-0.42,-1.05,-31.9121,-36.5349,0.4686,1014.44
652364,-0.263032,9.68914,1.39646,1.19,0.21,-1.19,-32.084,-36.7085,-0.495446,1014.44
652370,-0.253467,9.67958,1.39646,1.75,-0.49,-1.82,-31.7689,-38.6474,-0.169371,1014.45
652376,-0.263032,9.71784,1.31994,1.26,0,-1.75,-31.7689,-37.3162,0.4686,1014.45
652382,-0.329986,9.74653,1.28168,0.63,-0.14,-1.61,-31.9408,-36.2455,1.51771,1014.45
652388,-0.353898,9.77044,1.27212,0.98,0.14,-1.26,-31.9694,-38.1265,-0.566332,1014.45
652394,-0.373027,9.75131,1.32951,0.98,-0.91,-1.54,-31.683,-37.2005,-0.991646,1014.46
652400,-0.35868,9.84218,1.28647,0.35,-0.21,-1.19,-31.5111,-36.477,2.19821,1014.46
652406,-0.435198,9.93304,1.21473,0.07,-0.91,-0.98,-31.7689,-37.895,1.17746,1014.47
652412,-0.349115,9.87087,1.26734,-0.7,-0.21,-1.05,-31.7403,-37.6346,-0.764811,1014.47
652418,-0.320421,9.70349,1.43472,-0.42,-0.42,-0.98,-31.683,-37.0268,1.33341,1014.47
652424,-0.353898,9.71305,1.45385,-0.14,-0.28,-0.98,-31.3965,-36.477,0.723788,1014.47
652430,-0.344333,9.74653,1.41081,-0.14,-0.42,-0.56,-32.1986,-38.4159,-0.864051,1014.47
652436,-0.33955,9.76088,1.35342,-0.28,-0.42,-0.14,-32.2845,-36.8821,-0.0843086,1014.44
652442,-0.306074,9.78001,1.38211,0.07,-0.28,-0.49,-31.6257,-37.0558,1.54606,1014.44
652448,-0.349115,9.70349,1.44907,0.42,-0.07,-0.35,-31.9694,-38.387,0.128348,1014.45
652454,-0.325203,9.68914,1.48254,0.28,0.21,-0.35,-31.2246,-37.9239,0.397714,1014.45
652460,-0.320421,9.70827,1.44907,1.4,0.42,-0.42,-31.6543,-36.7953,1.23417,1014.42
652466,-0.310856,9.72262,1.41081,0.84,-0.21,-0.84,-31.4251,-37.6346,-0.0417772,1014.42
652472,-0.353898,9.69392,1.41559,0.49,-0.35,-0.42,-31.2533,-37.6346,-1.37443,1014.44
652478,-0.296509,9.70827,1.39168,0.98,-0.07,-0.77,-30.9382,-36.7085,1.07822,1014.44
652484,-0.277379,9.77044,1.32472,1.19,-0.14,-0.91,-30.9095,-36.5928,-0.906583,1014.43
652490,-0.306074,9.73697,1.31994,0.7,0.42,-0.63,-30.9382,-38.1555,-1.06253,1014.43
652496,-0.33955,9.73697,1.32472,0.77,0.21,-0.91,-31.7976,-37.0558,-0.32532,1014.45
652502,-0.329986,9.74175,1.31038,0.35,0.28,-1.05,-31.9408,-36.5059,1.29087,1014.45
652508,-0.363462,9.75131,1.32951,0.14,-0.28,-0.7,-31.4251,-37.8661,-0.438737,1014.45
652514,-0.392157,9.79436,1.33429,0.49,-0.14,-0.7,-31.6543,-37.6924,0.56784,1014.48
652520,-0.435198,9.8374,1.33907,0.07,-0.7,-0.42,-31.3106,-36.2165,1.37594,1014.48
652526,-0.396939,9.79436,1.28647,-0.21,0.28,-0.07,-32.2272,-37.1715,0.652903,1014.48
652532,-0.382592,9.8087,1.31994,-0.21,-0.42,-17.71,-32.0267,-37.6056,-0.62304,1014.48
652538,-0.368245,9.77523,1.37733,-0.28,0.56,0.49,-32.1127,-36.8532,0.638726,1014.43
652544,-0.406504,9.72262,1.4395,0,0.21,0.35,-31.6257,-37.2294,1.12075,1014.43
652550,-0.416069,9.70349,1.44907,0,0.14,0.35,-31.7976,-38.5317,-0.764811,1014.46
652556,-0.286944,9.71784,1.37733,0,-0.35,0.63,-31.7403,-36.94,-0.410383,1014.46
652562,-0.315638,9.67001,1.44907,0.7,-0.35,0.14,-31.6257,-36.3034,0.496954,1014.45
652568,-0.25825,9.6461,1.48254,0.14,-0.14,0.07,-31.597,-38.1555,-0.296966,1014.45
652574,-0.282162,9.62697,1.47776,0.77,0.07,-0.07,-30.9382,-38.358,-0.452914,1014.47
652580,-0.272597,9.64132,1.4395,0.98,-0.07,-0.14,-31.6257,-36.7953,-0.367851,1014.47
652586,-0.320421,9.68914,1.39168,1.26,0.14,-0.35,-31.3965,-37.7503,0.0149313,1014.47
652592,-0.291726,9.70827,1.3869,1.05,-0.14,-0.63,-31.8835,-37.7214,-0.72228,1014.47
652598,-0.325203,9.69871,1.41081,1.26,-0.14,-0.63,-32.1986,-36.9111,1.29087,1014.47
652604,-0.329986,9.73697,1.35342,1.26,-0.42,-0.7,-31.7403,-36.4191,1.06404,1014.47
652610,-0.306074,9.74653,1.2769,0.84,-0.07,-0.77,-31.7403,-37.7214,-1.04835,1014.47
652616,-0.310856,9.7561,1.3056,0.7,0.28,-0.42,-31.5684,-37.3741,-1.40278,1014.47
652622,-0.325203,9.77044,1.29125,0.35,0,-0.84,-31.5111,-37.2584,0.0574628,1014.47
652628,-0.37781,9.79914,1.28647,-0.28,0.56,-0.77,-31.9121,-38.1844,-0.467091,1014.47
652634,-0.444763,9.84218,1.30081,-0.49,-0.42,-0.14,-32.0267,-37.6056,-1.65797,1014.47
652640,-0.439981,9.85174,1.31994,-1.05,0.14,17.57,-32.1127,-37.0268,0.199234,1014.44
652646,-0.401722,9.80392,1.39168,-0.49,-0.56,0.21,-31.8835,-37.0268,0.794674,1014.44
652652,-0.449546,9.85653,1.36298,0.21,-0.07,0.77,-31.3965,-38.0976,0.610371,1014.45
652658,-0.435198,9.84696,1.3056,-0.63,-0.14,0.7,-31.7976,-36.6506,0.553663,1014.45
652664,-0.382592,9.84218,1.37255,-1.12,0.28,1.12,-31.9694,-36.5638,-0.183549,1014.45
652670,-0.411286,9.76088,1.42516,-0.28,-0.07,1.61,-31.4251,-38.2423,-0.580509,1014.47
652676,-0.329986,9.79436,1.39168,-0.63,0.14,1.33,-31.4251,-38.0108,-0.665572,1014.47
652682,-0.286944,9.69392,1.42037,-0.28,0,1.47,-32.6856,-36.9111,0.752143,1014.45
652688,-0.301291,9.66523,1.46341,0.14,0.21,1.33,-32.1413,-37.8082,-1.06253,1014.45
652694,-0.277379,9.60306,1.49689,0.63,0.14,0.98,-31.7689,-37.6346,-0.296966,1014.46
652700,-0.286944,9.62219,1.45863,0.56,0.63,0.56,-31.9694,-36.7664,0.426068,1014.46
652706,-0.25825,9.65088,1.3869,0.42,0.63,0.35,-32.1127,-37.5477,0.156703,1014.44
652712,-0.277379,9.66045,1.40124,0.91,0.28,0.07,-31.4251,-38.1555,-0.240257,1014.44
652718,-0.291726,9.66045,1.41559,1.33,0.49,0.28,-32.1986,-37.0268,1.13493,1014.45
652724,-0.296509,9.63175,1.39168,0.91,-0.14,-0.63,-31.2533,-37.432,0.383537,1014.45
652730,-0.272597,9.69392,1.37255,1.19,-0.21,-0.28,-32.2559,-38.4738,-0.211903,1014.48
652736,-0.296509,9.69871,1.3056,0.98,-0.35,-0.7,-32.17,-37.7503,0.000754159,1014.48
652742,-0.277379,9.73218,1.34385,0.84,-0.14,-0.63,-31.9694,-37.3162,0.0574628,1014.44
652748,-0.334768,9.73697,1.3582,0.77,0,-0.28,-31.9408,-37.9239,-0.410383,1014.44
652754,-0.349115,9.74175,1.37255,1.19,-0.28,-0.42,-32.4564,-37.9818,-0.552154,1014.44
652760,-0.353898,9.77044,1.34864,0.56,-0.21,-0.49,-31.9121,-36.7953,0.199234,1014.46
652766,-0.368245,9.8087,1.31516,0.63,-0.07,-0.07,-31.6257,-37.7793,0.681257,1014.46
652772,-0.373027,9.80392,1.32472,0.42,-0.07,-0.42,-31.2819,-38.4159,-0.452914,1014.46
652778,-0.382592,9.78001,1.32951,0.49,-0.07,-0.21,-31.7976,-36.8821,0.185057,1014.46
652784,-0.396939,9.7561,1.38211,0.28,-0.14,0.42,-31.3965,-36.6506,0.0716399,1014.47
652790,-0.396939,9.78001,1.34864,0.07,-0.07,0.56,-31.9981,-37.8082,-0.353674,1014.47
652796,-0.282162,9.7274,1.36777,-0.21,-0.14,0.28,-31.7976,-37.5767,0.255943,1014.46
652802,-0.301291,9.67001,1.42037,0.42,-0.07,0.77,-32.17,-36.0719,0.794674,1014.46
652808,-0.282162,9.66045,1.44428,0.42,-0.21,-0.07,-31.7976,-37.4609,0.355183,1014.46
652814,-0.291726,9.66523,1.42516,0.35,-0.07,-0.28,-31.9981,-39.0526,-1.14759,1014.46
652820,-0.301291,9.69392,1.37255,0.56,-0.21,-17.92,-31.8262,-36.7953,0.284297,1014.45
652826,-0.306074,9.70349,1.39168,0.56,0.14,-0.21,-32.0554,-36.7374,0.454423,1014.45
652832,-0.272597,9.70349,1.40124,0.84,0.49,-0.35,-31.3106,-38.0108,0.326829,1014.45
652838,-0.291726,9.71305,1.36298,0.84,0.42,-17.85,-31.1387,-37.1715,0.241766,1014.42
652844,-0.325203,9.76566,1.34385,0.84,0.14,-0.49,-31.7403,-36.5928,0.213411,1014.42
652850,-0.325203,9.78957,1.29125,0.07,-0.35,-0.56,-31.7689,-37.2584,-1.50202,1014.43
652856,-0.310856,9.74653,1.36298,0.35,-0.28,17.57,-31.5397,-36.94,-0.906583,1014.43
652862,-0.353898,9.76088,1.34864,0.14,-0.21,-0.42,-31.6257,-36.5928,0.76632,1014.43
652868,-0.33955,9.7561,1.31516,0,-0.07,-0.77,-31.11,-37.9818,-0.438737,1014.43
652874,-0.325203,9.7561,1.32472,-0.07,0.07,-0.35,-31.8835,-37.895,-0.0417772,1014.43
652880,-0.334768,9.68914,1.37255,-0.28,0.35,-0.42,-31.9981,-36.477,0.383537,1014.43
652886,-0.425634,9.73218,1.43472,0.28,-0.35,0,-31.3965,-37.8371,-0.651394,1014.47
652892,-0.387374,9.7561,1.42037,-0.07,-0.14,0,-31.8835,-38.5317,-0.112663,1014.47
652898,-0.325203,9.73697,1.42037,0.77,-0.49,-0.07,-31.6257,-36.969,0.114171,1014.4
652904,-0.334768,9.74653,1.36777,0.49,0.14,0.28,-31.683,-37.3452,-0.0276001,1014.4
652910,-0.33955,9.77523,1.36298,0.28,-0.14,0.07,-31.7976,-38.3001,-0.155194,1014.4
652916,-0.363462,9.76088,1.37733,0.07,0.35,0.07,-32.17,-38.358,-0.240257,1014.45
652922,-0.310856,9.7561,1.34864,0.14,0.21,0.49,-31.4824,-36.1876,0.553663,1014.45
652928,-0.296509,9.70827,1.39168,0.56,0,0.07,-31.1673,-38.0397,0.298474,1014.47
652934,-0.291726,9.70827,1.37733,0.35,-0.21,0,-32.6569,-38.7053,0.496954,1014.47
652940,-0.320421,9.68914,1.39168,0.28,0.28,0.28,-32.1986,-36.8821,0.950623,1014.46
652946,-0.301291,9.69392,1.37255,0.91,-0.07,17.64,-31.1387,-37.3162,0.17088,1014.46
652952,-0.272597,9.70349,1.36777,0.14,0.84,-0.07,-31.3679,-37.9818,0.000754159,1014.43
652958,-0.277379,9.69871,1.40124,0.28,-0.07,-0.07,-32.3418,-36.6796,0.539486,1014.43
652964,-0.310856,9.75131,1.33907,0.35,-0.21,-0.63,-31.7116,-36.3902,0.4686,1014.47
652970,-0.329986,9.76566,1.31038,0.14,-0.28,-0.35,-31.6543,-38.3001,-0.410383,1014.47
652976,-0.329986,9.74653,1.36777,0.28,0.14,-0.07,-31.7116,-37.6635,0.284297,1014.45
652982,-0.344333,9.72262,1.3582,0.35,0.07,-0.35,-31.3679,-36.8243,1.23417,1014.45
652988,-0.344333,9.7561,1.35342,0.07,0.14,-0.56,-31.6257,-37.6056,-0.353674,1014.45
652994,-0.33955,9.73697,1.37255,-0.21,-0.21,-0.14,-31.2819,-37.6635,-0.72228,1014.45
653000,-0.329986,9.7274,1.3869,-0.14,0.07,17.78,-32.4851,-36.3612,1.16328,1014.45
653006,-0.349115,9.74175,1.39168,-0.07,-0.63,0.21,-31.8262,-37.6346,-0.169371,1014.45
653012,-0.37781,9.73218,1.44428,0.35,-0.21,0.42,-30.8522,-38.1844,-1.31772,1014.45
653018,-0.37781,9.76088,1.40603,0.21,-0.56,0.35,-31.3392,-37.432,-0.693926,1014.45
653024,-0.349115,9.73697,1.36777,0.56,0.49,0.63,-31.597,-35.8403,0.085817,1014.45
653030,-0.301291,9.70827,1.40603,0.56,0.28,0.49,-30.9095,-37.8661,1.29087,1014.45
653036,-0.320421,9.68914,1.50646,0.56,0.7,0.28,-30.8809,-37.1715,1.16328,1014.45
653042,-0.33955,9.71305,1.41559,1.26,0.07,0.35,-31.597,-37.2294,0.66708,1014.44
653048,-0.368245,9.78957,1.31038,0.84,-0.35,0.84,-31.4538,-37.7793,-0.452914,1014.44
653054,-0.382592,9.82305,1.28168,0.91,-0.21,0.49,-31.11,-37.8371,0.0999942,1014.45
653060,-0.267814,9.80392,1.29125,0.56,0.07,0.35,-31.5111,-36.5928,0.17088,1014.45
653066,-0.23912,9.70349,1.34385,0.14,0.77,0.28,-31.2246,-37.0847,0.227588,1014.46
653072,-0.306074,9.69871,1.37255,0.98,0.07,0.42,-30.9668,-37.8661,-1.11924,1014.46
653078,-0.267814,9.75131,1.3056,0.42,0.56,0.21,-30.8809,-36.969,0.241766,1014.46
653084,-0.291726,9.74653,1.33429,-0.21,0,0,-31.8262,-37.1137,-0.12684,1014.43
653090,-0.325203,9.74175,1.34864,0.56,0.14,0.21,-31.6543,-38.387,-0.438737,1014.43
653096,-0.344333,9.74175,1.35342,0.07,0.56,-0.21,-31.4824,-37.5188,-0.396206,1014.46
653102,-0.363462,9.70827,1.39646,-0.21,0.21,0,-31.9408,-36.477,0.723788,1014.46
653108,-0.325203,9.68436,1.41081,0.56,0.56,0.21,-32.0554,-37.2584,-0.72228,1014.44
653114,-0.310856,9.70349,1.41081,0.42,0.21,-0.21,-31.2819,-37.2294,-1.06253,1014.44
653120,-0.406504,9.7274,1.38211,-0.14,-0.14,0.28,-31.3679,-36.5638,-0.594686,1014.46
653126,-0.416069,9.73697,1.42037,0.98,-0.35,0.28,-31.7976,-37.1715,-0.112663,1014.46
653132,-0.425634,9.82305,1.3582,0,0.07,0.77,-31.8262,-38.1265,-1.48785,1014.45
653138,-0.363462,9.81349,1.36777,0.28,0.7,0.7,-31.8548,-36.8243,-0.268611,1014.45
653144,-0.411286,9.78001,1.40124,1.05,0,1.12,-31.8262,-37.0847,0.823028,1014.47
653150,-0.267814,9.84218,1.29603,0.42,0.91,1.05,-31.5684,-38.0108,-1.00582,1014.47
653156,-0.344333,9.77523,1.37733,0.56,0.07,1.4,-31.4538,-36.6506,0.36936,1014.47
653162,-0.282162,9.73697,1.32472,0.28,0.91,1.26,-31.4538,-36.8821,0.681257,1014.46
653168,-0.272597,9.78479,1.3056,0,0.07,1.05,-31.8548,-37.6924,0.511131,1014.46
653174,-0.282162,9.73218,1.34864,0.14,-0.14,1.05,-31.9694,-37.432,-0.963291,1014.45
653180,-0.23912,9.74653,1.33429,-0.07,-0.14,0.42,-31.7689,-36.4191,0.0574628,1014.45
653186,-0.25825,9.69392,1.36298,-0.14,0.56,0.63,-32.084,-37.2005,-0.0134229,1014.46
653192,-0.277379,9.67958,1.3869,0,0.63,0.77,-32.1127,-38.3291,-0.32532,1014.46
653198,-0.23912,9.63654,1.41559,0,0.42,0.21,-32.1413,-36.6217,0.76632,1014.46
653204,-0.21999,9.60784,1.43472,0.14,0.56,-0.07,-31.4824,-36.3034,1.03569,1014.46
653210,-0.210426,9.5648,1.47776,0.42,-0.28,-0.49,-31.2246,-37.5767,-0.268611,1014.44
653216,-0.224773,9.58393,1.42994,1.19,-0.28,-0.98,-31.8262,-36.8532,-0.849874,1014.44
653222,-0.272597,9.61741,1.44428,1.19,-0.07,-1.19,-32.3705,-36.94,0.241766,1014.47
653228,-0.301291,9.71784,1.36777,0.98,0.35,-1.19,-31.683,-37.2873,-0.211903,1014.47
653234,-0.286944,9.74175,1.29603,1.4,0.14,-1.33,-32.3132,-37.7793,-0.552154,1014.42
653240,-0.35868,9.74653,1.3056,0.91,-0.49,-1.19,-31.7689,-36.0719,0.255943,1014.42
653246,-0.353898,9.77523,1.31994,0.84,-0.28,-0.98,-32.1127,-37.3741,0.326829,1014.42
653252,-0.368245,9.78957,1.35342,0.91,0,-1.05,-31.5111,-38.2712,0.993154,1014.42
653258,-0.282162,9.74175,1.33907,0.42,-0.56,-0.98,-31.5397,-36.7085,-0.382029,1014.42
653264,-0.310856,9.73697,1.35342,0.28,0.14,-0.98,-31.8548,-37.1426,1.53189,1014.45
653270,-0.320421,9.73218,1.36777,0.91,0.14,-0.91,-31.8835,-38.2423,-0.878229,1014.45
653276,-0.329986,9.70349,1.40603,0.98,0.21,-0.91,-31.9981,-37.3741,-0.0701315,1014.46
653282,-0.33955,9.68436,1.42516,1.33,-0.14,-0.84,-32.2845,-36.6506,-0.32532,1014.46
653288,-0.282162,9.71305,1.37733,1.61,-0.49,-1.19,-32.3705,-37.5188,-0.679749,1014.48
653294,-0.286944,9.70827,1.3582,1.19,0.35,-0.91,-31.8835,-38.0686,-0.467091,1014.48
653300,-0.349115,9.71305,1.39646,1.12,-0.07,-1.54,-30.9954,-37.2005,0.511131,1014.47
653306,-0.396939,9.7561,1.34864,1.96,0.14,-1.19,-31.9121,-37.1137,0.539486,1014.47
653312,-0.392157,9.79436,1.30081,1.68,-0.42,-0.98,-31.5684,-38.3291,-1.57291,1014.46
653318,-0.286944,9.8087,1.24342,0.56,-0.42,-0.91,-31.11,-36.9111,-0.155194,1014.46
653324,-0.344333,9.74175,1.34864,0.84,-0.49,-0.7,-31.683,-36.7953,-0.495446,1014.46
653330,-0.401722,9.78479,1.32472,1.12,-0.63,-0.49,-31.7689,-38.0976,-2.31012,1014.44
653336,-0.45911,9.84696,1.33907,0.63,-0.14,-0.56,-31.0527,-36.9979,-0.197726,1014.44
653342,-0.315638,9.77044,1.32951,0.21,-0.07,-0.21,-31.9121,-36.0719,1.1491,1014.45
653348,-0.282162,9.8087,1.31994,0.35,-0.07,-0.35,-31.9981,-37.8661,-0.240257,1014.45
653354,-0.296509,9.71784,1.41559,0.77,-0.21,-0.28,-32.0267,-38.0976,-1.67215,1014.45
653360,-0.320421,9.68914,1.42516,0.98,0.07,-0.21,-31.7403,-36.7664,-0.183549,1014.45
653366,-0.320421,9.68914,1.44428,1.33,-0.56,-0.42,-31.3965,-37.7793,-0.481269,1014.46
653372,-0.310856,9.71305,1.38211,0.91,0.28,-0.28,-31.0814,-38.0397,-0.495446,1014.46
653378,-0.296509,9.71784,1.36777,1.4,-0.07,-0.56,-31.5684,-37.2584,0.482777,1014.46
653384,-0.296509,9.71305,1.36298,1.19,0.28,-0.63,-31.2246,-36.5059,0.482777,1014.46
653390,-0.286944,9.69392,1.36298,1.33,-0.28,-0.77,-31.4538,-38.1265,-0.481269,1014.49
653396,-0.349115,9.68914,1.41081,1.54,-0.14,-0.91,-31.7403,-36.6796,-0.0134229,1014.49
653402,-0.349115,9.70349,1.3582,1.26,-0.42,-0.77,-31.2533,-36.8821,-1.44531,1014.49
653408,-0.296509,9.73218,1.3056,1.12,-0.07,-1.19,-32.2272,-37.6346,-1.37443,1014.45
653414,-0.310856,9.72262,1.33429,1.75,0,-0.84,-31.6257,-38.5606,-0.750634,1014.45
653420,-0.296509,9.74175,1.31038,0.91,0.21,-0.91,-31.6543,-37.432,0.695434,1014.45
653426,-0.334768,9.69871,1.33429,1.12,-0.28,-1.12,-31.4538,-37.403,-0.481269,1014.45
653432,-0.396939,9.77523,1.35342,0.98,-0.21,-0.77,-31.683,-37.8661,-0.72228,1014.48
653438,-0.454328,9.80392,1.35342,0.84,-0.21,-0.49,-31.5111,-36.5928,0.454423,1014.48
653444,-0.382592,9.87566,1.26255,0.98,-0.28,0.14,-31.9121,-36.3902,0.624548,1014.45
653450,-0.425634,9.87566,1.22429,0.49,0,0,-31.7403,-37.895,0.284297,1014.45
653456,-0.430416,9.89,1.23386,0.28,0.07,0.63,-31.3679,-37.2294,1.36176,1014.47
653462,-0.329986,9.78957,1.33429,-0.7,-0.42,0.91,-31.7116,-36.5059,0.539486,1014.47
653468,-0.286944,9.66045,1.43472,0.35,-0.42,0.63,-31.7403,-37.6056,0.681257,1014.45
653474,-0.243902,9.64132,1.44428,0.91,-0.28,0.35,-31.1387,-38.1555,0.341006,1014.45
653480,-0.291726,9.62697,1.4682,1.05,0.21,0.28,-31.7689,-36.7374,0.085817,1014.46
653486,-0.310856,9.70827,1.40603,1.47,0.07,-0.14,-31.3106,-36.7664,-0.240257,1014.46
653492,-0.286944,9.71784,1.33907,1.12,0.21,-0.28,-31.5684,-37.8082,-1.04835,1014.46
653498,-0.263032,9.70349,1.38211,1.33,-0.56,-0.14,-30.5371,-36.3612,0.610371,1014.46
653504,-0.296509,9.71305,1.31516,1.4,-0.35,-0.28,-31.7689,-37.2873,-0.0843086,1014.46
653510,-0.310856,9.75131,1.28647,0.84,-0.28,-0.35,-31.2246,-38.9657,-0.566332,1014.45
653516,-0.282162,9.74653,1.26255,0.56,0.28,-0.56,-31.4538,-36.7953,0.652903,1014.45
653522,-0.286944,9.73218,1.32472,0.63,0.21,-0.49,-32.0554,-36.9111,0.482777,1014.47
653528,-0.325203,9.72262,1.3056,0.77,0,-0.35,-31.3965,-37.1715,-0.0134229,1014.47
653534,-0.334768,9.75131,1.29603,0.56,-0.42,-0.49,-30.9382,-38.0108,-0.679749,1014.42
653540,-0.33955,9.74175,1.33429,0.14,-0.56,-0.56,-31.11,-37.2005,1.10657,1014.42
653546,-0.353898,9.71784,1.37733,0.63,-0.35,-0.42,-31.5397,-37.3741,0.355183,1014.45
653552,-0.406504,9.7561,1.36777,0.91,0.14,-0.49,-31.6257,-38.4448,-0.353674,1014.45
653558,-0.37781,9.78957,1.32951,0.42,0,-0.14,-31.5397,-37.2294,-0.580509,1014.44
653564,-0.363462,9.76566,1.29603,0.21,0.35,0,-31.196,-36.6506,0.808851,1014.44
653570,-0.325203,9.72262,1.32951,0.56,-0.28,0.14,-31.0241,-38.358,-0.0843086,1014.44
653576,-0.296509,9.68436,1.37255,0.77,-0.35,-0.28,-31.4824,-37.6924,-0.112663,1014.46
653582,-0.320421,9.69392,1.40124,0.63,0.14,0,-31.8262,-36.8821,1.06404,1014.46
653588,-0.306074,9.73697,1.32472,0.7,0.42,-0.28,-31.5397,-38.0108,-0.580509,1014.45
653594,-0.320421,9.69871,1.31516,0.63,0.35,-17.92,-30.8522,-38.4159,-0.934937,1014.45
653600,-0.296509,9.69392,1.37733,0.91,0,-0.07,-32.3991,-37.0268,-0.537977,1014.45
653606,-0.301291,9.70349,1.39168,1.19,-0.14,-0.56,-31.196,-37.6056,0.298474,1014.45
653612,-0.363462,9.73697,1.37733,1.12,0.07,-0.63,-30.5657,-38.5027,-0.5238,1014.44
653618,-0.353898,9.81349,1.22429,0.77,-0.28,-0.35,-31.5111,-37.4899,-1.34607,1014.44
653624,-0.363462,9.83261,1.24342,0.42,-0.28,-0.49,-32.1127,-36.8532,-0.12684,1014.44
653630,-0.344333,9.81349,1.26255,0.35,-0.35,-0.56,-31.3679,-38.358,-0.382029,1014.44
653636,-0.373027,9.8087,1.24821,-0.14,-0.56,-0.28,-31.4538,-37.895,0.298474,1014.46
653642,-0.349115,9.8374,1.25777,-0.42,-0.14,-0.07,-31.6257,-37.1137,0.27012,1014.46
653648,-0.329986,9.78479,1.33907,-0.7,-0.35,17.71,-31.0527,-37.9529,-0.62304,1014.46
653654,-0.334768,9.70827,1.37733,-0.14,-0.28,-0.14,-31.7116,-38.5895,-0.849874,1014.45
653660,-0.325203,9.69871,1.41081,-0.21,0.28,-0.21,-30.9382,-36.7085,-0.438737,1014.45
653666,-0.325203,9.6748,1.41559,0.49,0,-0.14,-31.7689,-37.6346,0.241766,1014.45
653672,-0.33955,9.71305,1.39168,0.7,-0.07,-0.35,-31.7116,-38.358,-0.62304,1014.45
653678,-0.33955,9.69392,1.3582,0.21,0,-0.49,-30.8236,-36.8243,-0.0134229,1014.44
653684,-0.310856,9.71784,1.34864,0.7,-0.07,-0.35,-31.2246,-37.1137,-0.0559544,1014.44
653690,-0.306074,9.69392,1.40124,0.84,-0.07,-0.56,-31.3965,-38.1844,-0.438737,1014.45
653696,-0.310856,9.68436,1.43472,1.19,-0.07,-0.42,-31.5111,-37.3741,-0.679749,1014.45
653702,-0.363462,9.69392,1.42994,1.61,-0.21,-0.07,-31.0241,-36.9979,-0.32532,1014.48
653708,-0.334768,9.78001,1.30081,1.47,-0.21,-0.14,-31.2533,-38.8789,-0.240257,1014.48
653714,-0.329986,9.77044,1.28168,0.49,-0.35,-0.56,-30.8809,-38.7632,0.128348,1014.46
653720,-0.35868,9.73697,1.28168,0.63,-0.21,-0.14,-31.8262,-37.0847,0.539486,1014.46
653726,-0.373027,9.76566,1.28168,0.63,-0.42,-0.42,-31.1673,-37.9529,1.16328,1014.44
653732,-0.344333,9.76088,1.32951,0.77,0.14,-0.49,-31.3392,-38.1265,-0.5238,1014.44
653738,-0.35868,9.80392,1.31038,0.07,-0.14,-17.64,-31.11,-37.1426,0.950623,1014.44
653744,-0.33955,9.78001,1.30081,0.14,0.28,-0.07,-31.6257,-36.969,0.553663,1014.48
653750,-0.349115,9.7561,1.31516,0,-0.35,-0.07,-31.2533,-38.1555,-0.736457,1014.48
653756,-0.349115,9.76088,1.34385,0.42,-0.21,0.21,-31.5684,-36.9979,-0.637217,1014.46
653762,-0.416069,9.74653,1.3056,-0.07,-0.28,0.21,-32.1127,-36.3902,0.128348,1014.46
653768,-0.325203,9.77044,1.31516,0,0.14,0.14,-31.5397,-37.4899,-1.36025,1014.47
653774,-0.306074,9.68914,1.37733,0,-0.35,0.49,-31.1673,-38.1844,-1.17595,1014.47
653780,-0.325203,9.67958,1.41081,0.42,0.14,0.07,-32.084,-35.7246,0.17088,1014.46
653786,-0.320421,9.69871,1.39646,0.21,-0.21,0.28,-31.3679,-37.2005,-0.268611,1014.46
653792,-0.272597,9.72262,1.34385,0.77,0.21,0,-31.5684,-38.1265,-1.2043,1014.48
653798,-0.315638,9.71305,1.37733,0.84,0.07,-0.14,-31.9408,-37.2005,0.241766,1014.48
653804,-0.277379,9.72262,1.36298,0.7,-0.21,-0.42,-32.0267,-37.2873,0.908091,1014.45
653810,-0.306074,9.69871,1.37255,0.42,-0.14,-0.07,-31.1673,-39.1973,0.36936,1014.45
653816,-0.296509,9.70349,1.36777,0.49,-0.35,-0.56,-31.3965,-37.1137,-0.0276001,1014.45
653822,-0.329986,9.74175,1.31994,0.49,0,-0.49,-31.196,-36.4481,-0.0276001,1014.44
653828,-0.325203,9.76566,1.24821,0.49,-0.14,-0.56,-30.8522,-38.5606,-0.169371,1014.44
653834,-0.325203,9.76088,1.2769,-0.07,0.35,-0.21,-31.4251,-38.1555,0.737966,1014.46
653840,-0.363462,9.75131,1.31038,-0.28,-0.49,-0.7,-31.683,-36.7085,0.411891,1014.46
653846,-0.33955,9.70827,1.33907,0.35,-0.07,-0.77,-31.6257,-37.8371,0.326829,1014.44
653852,-0.363462,9.7274,1.39168,-0.28,-0.21,-0.56,-31.2819,-38.7342,-0.5238,1014.44
653858,-0.37781,9.73218,1.36298,-0.21,0.28,-0.14,-31.3392,-36.7664,-0.949114,1014.44
653864,-0.368245,9.74653,1.37255,0.49,-0.21,0.07,-31.9408,-36.477,0.496954,1014.44
653870,-0.368245,9.76088,1.35342,0.21,0.35,0.14,-31.0241,-38.8789,-1.62962,1014.48
653876,-0.368245,9.74175,1.37255,0.21,-0.07,0.49,-31.2533,-37.5188,-1.13342,1014.48
653882,-0.349115,9.73697,1.35342,0.14,0.14,17.71,-31.7403,-36.9111,1.1491,1014.45
653888,-0.329986,9.74175,1.34864,0.35,0,0.28,-31.3679,-37.3452,0.539486,1014.45
653894,-0.310856,9.76088,1.36777,0.14,-0.42,0.49,-30.9095,-38.3291,-0.141017,1014.42
653900,-0.272597,9.73697,1.36777,0.49,-0.42,0,-31.3392,-36.6796,0.411891,1014.42
653906,-0.349115,9.78001,1.32951,0.35,-0.49,0.14,-30.9382,-37.6924,0.199234,1014.42
653912,-0.315638,9.80392,1.3056,0.07,0.28,0.28,-31.5684,-38.0397,-0.594686,1014.43
653918,-0.306074,9.76566,1.29125,0,0.07,0.42,-31.9121,-36.969,-0.240257,1014.43
653924,-0.253467,9.70827,1.34864,0.21,0.84,0.21,-31.3965,-36.9111,0.312651,1014.44
653930,-0.320421,9.69392,1.36777,0.07,-0.14,0.14,-31.4538,-39.2551,-1.31772,1014.44
653936,-0.291726,9.70349,1.32951,-0.42,0.84,17.71,-32.1127,-37.4609,-0.552154,1014.44
653942,-0.315638,9.68436,1.3869,0.07,0.07,0.35,-30.709,-36.6796,1.00733,1014.44
653948,-0.310856,9.68436,1.39646,0.28,-0.35,-0.49,-30.3652,-37.2584,0.383537,1014.45
653954,-0.353898,9.68436,1.3869,0.56,0.07,-17.92,-31.5684,-37.8371,0.185057,1014.45
653960,-0.344333,9.7274,1.37255,0.14,-0.21,-0.28,-31.3392,-36.969,1.07822,1014.45
653966,-0.33955,9.73697,1.35342,0.49,0.28,-0.21,-32.17,-37.5767,0.0716399,1014.45
653972,-0.349115,9.76088,1.35342,0.63,-0.07,-0.07,-31.4538,-38.6185,-0.552154,1014.44
653978,-0.373027,9.78957,1.31516,0.21,0.28,-0.42,-32.0267,-37.3452,-0.0417772,1014.44
653984,-0.349115,9.78001,1.30081,0.07,-0.28,0.14,-31.3392,-37.2584,0.596194,1014.44
653990,-0.37781,9.80392,1.29603,0,0.42,0.07,-31.7403,-38.2133,-0.778989,1014.47
653996,-0.387374,9.78001,1.35342,-0.56,-0.42,0.21,-31.1387,-37.2873,0.213411,1014.47
654002,-0.368245,9.78001,1.34385,-0.35,-0.42,0.28,-31.5111,-36.8821,1.21999,1014.45
654008,-0.320421,9.71305,1.3869,-0.21,-0.91,0,-30.9382,-38.2712,0.199234,1014.45
654014,-0.325203,9.69392,1.41081,0,-0.28,0.28,-30.9095,-38.0397,0.0432857,1014.43
654020,-0.35868,9.74653,1.36777,0.14,0,0.35,-31.5684,-36.3902,0.978977,1014.43
654026,-0.363462,9.78957,1.32951,0.42,-0.28,17.85,-30.8236,-37.6056,1.16328,1014.48
654032,-0.263032,9.71305,1.36298,-0.07,0.14,0.28,-31.3679,-38.3001,-0.452914,1014.48
654038,-0.315638,9.7561,1.3582,-0.14,0.21,-0.07,-31.3679,-36.94,0.879737,1014.47
654044,-0.325203,9.7274,1.37255,0.21,0.35,17.71,-30.9954,-36.2744,0.36936,1014.47
654050,-0.344333,9.74653,1.36298,-0.07,-0.07,0.21,-30.9095,-38.4448,0.0999942,1014.49
654056,-0.310856,9.76088,1.29603,-0.14,-0.28,0.21,-30.4798,-38.0686,-0.438737,1014.49
654062,-0.33955,9.72262,1.31516,-0.07,-0.28,-17.57,-31.2819,-36.3034,1.12075,1014.49
654068,-0.320421,9.71784,1.3869,-0.35,-0.07,0.35,-31.1673,-38.1555,-0.72228,1014.49
654074,-0.33955,9.67001,1.42516,-0.07,-0.07,0.28,-31.8262,-37.7503,-0.495446,1014.49
654080,-0.33955,9.70827,1.39168,0.42,0,-17.78,-31.597,-36.94,1.54606,1014.47
654086,-0.282162,9.72262,1.33429,0.28,-0.63,0.21,-31.2533,-37.7503,0.950623,1014.47
654092,-0.325203,9.68436,1.39646,0.14,-0.07,-0.14,-30.8809,-38.5027,-0.5238,1014.48
654098,-0.306074,9.67958,1.38211,0,-0.35,-0.07,-31.0241,-36.7374,0.17088,1014.48
654104,-0.301291,9.73218,1.39646,0,0.14,-0.07,-31.1673,-36.3323,0.17088,1014.43
654110,-0.320421,9.74175,1.33907,-0.07,-0.07,-0.14,-31.1387,-38.2712,-0.112663,1014.43
654116,-0.33955,9.73218,1.33907,-0.07,0.14,-0.14,-31.3106,-38.1555,0.0291085,1014.47
654122,-0.368245,9.74175,1.36777,0.07,-0.35,0,-31.3965,-35.9272,1.63113,1014.47
654128,-0.353898,9.72262,1.39646,0.21,0.35,0,-31.8835,-37.6924,-0.211903,1014.41
654134,-0.325203,9.67958,1.40603,0.56,0.35,0,-31.597,-38.5895,-1.47367,1014.41
654140,-0.301291,9.74653,1.35342,0.14,0.21,-0.14,-32.17,-36.5638,0.440246,1014.45
654146,-0.296509,9.73218,1.34385,0,-0.42,-0.35,-31.3106,-37.6635,0.525308,1014.45
654152,-0.310856,9.72262,1.34864,0.56,-0.21,-0.49,-30.7376,-38.1555,-1.11924,1014.45
654158,-0.334768,9.71784,1.35342,-0.07,-0.56,-0.91,-31.3679,-36.969,-0.878229,1014.41
654164,-0.320421,9.72262,1.31516,-0.35,-0.14,-0.35,-31.5684,-37.3162,-0.211903,1014.41
654170,-0.286944,9.73697,1.32472,0.14,-0.49,-0.77,-31.3965,-38.8789,-1.2043,1014.41
654176,-0.325203,9.70349,1.3582,-0.07,0,-0.49,-31.2533,-38.0686,-0.0559544,1014.41
654182,-0.306074,9.7274,1.36777,0,-0.21,-0.42,-31.9408,-37.0847,-0.112663,1014.45
654188,-0.382592,9.72262,1.33907,-0.14,0.14,-0.49,-31.4824,-38.387,0.695434,1014.45
654194,-0.315638,9.74175,1.37733,-0.35,-0.42,-0.63,-31.1387,-38.7342,-0.282789,1014.44
654200,-0.382592,9.71784,1.37255,0.35,-0.35,-0.14,-31.5397,-36.8243,1.74454,1014.44
654206,-0.37781,9.77044,1.33429,0.07,0,-0.28,-32.2845,-37.3741,0.227588,1014.46
654212,-0.353898,9.76566,1.36777,0.21,0,-0.07,-31.0814,-38.9368,0.426068,1014.46
654218,-0.33955,9.71784,1.40124,0.21,-0.63,-0.21,-31.1387,-37.432,-0.353674,1014.45
654224,-0.320421,9.74175,1.36298,0,-0.07,-0.35,-31.196,-37.2873,0.624548,1014.45
654230,-0.329986,9.71784,1.39646,-0.07,-0.77,-0.35,-31.5111,-38.2423,-0.82152,1014.45
654236,-0.344333,9.7274,1.40124,0,-0.21,-0.07,-31.7976,-38.1555,0.298474,1014.48
654242,-0.35868,9.73218,1.45385,0.21,-0.14,-17.92,-31.3392,-37.6056,0.539486,1014.48
654248,-0.382592,9.65567,1.5208,1.33,0.07,0.35,-31.3965,-38.3001,-0.12684,1014.47
654254,-0.444763,9.89,1.32951,0.56,-0.28,-0.07,-31.5111,-38.8789,-0.311143,1014.47
654260,-0.420851,9.92826,1.20516,0.49,-0.07,0.56,-31.3965,-36.5059,0.808851,1014.45
654266,-0.344333,9.95696,1.15734,-0.7,0,0.7,-31.597,-37.2873,-0.892406,1014.45
654272,-0.325203,9.77523,1.3056,-1.12,0,0.56,-30.709,-38.2423,-0.211903,1014.45
654278,-0.353898,9.67001,1.46341,-0.07,0,0.84,-30.5944,-36.94,-0.211903,1014.45
654284,-0.301291,9.70827,1.40603,-0.28,0.14,0.63,-31.8548,-36.6796,-0.778989,1014.44
654290,-0.310856,9.71784,1.36298,-0.7,0.21,0.7,-30.8809,-38.3001,-1.78557,1014.44
654296,-0.267814,9.69871,1.3869,-0.42,0.21,0.7,-31.9694,-38.3291,-0.452914,1014.43
654302,-0.277379,9.6461,1.42037,0,-0.07,0.21,-31.6543,-36.8821,-0.353674,1014.43
654308,-0.315638,9.67001,1.42994,0.14,0.07,0,-31.2819,-37.9239,-1.02,1014.43
654314,-0.320421,9.67958,1.36298,0.14,-0.14,0.07,-31.7689,-37.6924,-0.169371,1014.41
654320,-0.272597,9.68436,1.38211,-0.21,0.56,-0.35,-31.6543,-37.4899,0.851383,1014.41
654326,-0.334768,9.68436,1.40603,-0.14,0.07,-0.07,-31.7403,-37.4899,-0.934937,1014.45
654332,-0.296509,9.69392,1.3869,0.35,-0.07,17.78,-31.7403,-38.3291,-0.0984858,1014.45
654338,-0.306074,9.73697,1.32951,0.07,-0.14,-0.14,-31.9408,-37.1137,0.255943,1014.46
654344,-0.334768,9.74653,1.34385,-0.21,-0.14,0.07,-31.597,-37.2584,1.54606,1014.46
654350,-0.325203,9.73697,1.32951,-0.35,-0.07,17.36,-32.571,-38.2133,-0.62304,1014.43
654356,-0.320421,9.69871,1.41559,0.07,-0.35,-0.35,-31.4251,-37.6924,-1.02,1014.43
654362,-0.315638,9.68914,1.3869,-0.14,-0.35,-0.14,-31.3679,-36.5059,0.808851,1014.45
654368,-0.320421,9.71305,1.39168,0.14,0,-0.21,-31.8262,-38.2712,0.326829,1014.45
654374,-0.301291,9.67958,1.4395,0.28,-0.14,-0.49,-31.5397,-38.1844,-0.254434,1014.45
654380,-0.315638,9.71305,1.40603,0.77,-0.14,-0.35,-31.11,-36.8532,1.21999,1014.45
654386,-0.334768,9.73697,1.36777,0.35,-0.35,-0.7,-31.7116,-37.8371,-0.736457,1014.44
654392,-0.392157,9.71784,1.40603,0.42,-0.14,-0.35,-31.3679,-38.5895,-1.45949,1014.44
654398,-0.325203,9.76088,1.37733,0.98,-0.42,-0.35,-31.7116,-37.6635,-1.2043,1014.44
654404,-0.373027,9.81349,1.32472,0.21,0,0.14,-32.4278,-36.7085,0.341006,1014.44
654410,-0.33955,9.8087,1.28647,-0.49,-0.07,0,-32.3991,-38.2423,-0.5238,1014.44
654416,-0.334768,9.7274,1.38211,0.14,0.28,0.14,-30.9095,-38.7342,-0.495446,1014.45
654422,-0.35868,9.7274,1.41559,0,-0.14,17.85,-31.7403,-37.3741,0.156703,1014.45
654428,-0.291726,9.68914,1.42037,0.07,-0.21,0.07,-31.0241,-37.4899,-0.155194,1014.46
654434,-0.253467,9.69392,1.40603,0.56,0.07,-0.07,-31.2533,-38.6185,-1.2043,1014.46
654440,-0.286944,9.68914,1.43472,0.28,-0.21,-0.56,-31.0527,-36.8532,-0.339497,1014.46
654446,-0.301291,9.70349,1.38211,0.14,0.28,-0.28,-31.11,-37.4609,-0.481269,1014.46
654452,-0.310856,9.73697,1.34864,0.42,0.21,-0.35,-32.1413,-39.6024,-0.72228,1014.47
654458,-0.282162,9.73697,1.34385,0,0.07,-0.56,-31.2819,-37.8371,-0.0417772,1014.47
654464,-0.320421,9.71305,1.37255,0.07,-0.14,-0.56,-31.0814,-37.1426,-0.112663,1014.44
654470,-0.33955,9.72262,1.41081,0.42,-0.14,-0.56,-31.2533,-39.1394,-1.48785,1014.44
654476,-0.363462,9.74653,1.3582,0.14,-0.07,-0.7,-31.0527,-37.9529,-0.991646,1014.44
654482,-0.33955,9.7561,1.32951,-0.35,-0.21,-0.63,-31.597,-36.5349,0.185057,1014.46
654488,-0.363462,9.79914,1.33907,-0.14,-0.21,-0.49,-31.4251,-37.6924,-0.0559544,1014.46
654494,-0.320421,9.77044,1.36777,-0.35,-0.49,-0.63,-31.4824,-38.9368,-1.31772,1014.45
654500,-0.33955,9.73697,1.36298,-0.21,0,0,-32.17,-36.94,1.23417,1014.45
654506,-0.344333,9.77523,1.38211,0.35,-0.07,0.07,-31.11,-37.7793,-1.30354,1014.45
654512,-0.349115,9.74653,1.39168,-0.28,-0.21,-17.78,-31.11,-38.8211,0.227588,1014.45
654518,-0.368245,9.74653,1.38211,-0.07,0.35,0.21,-31.3965,-37.403,-0.141017,1014.43
654524,-0.334768,9.76088,1.39168,0.14,-0.07,0.07,-31.0241,-37.1715,-0.651394,1014.43
654530,-0.373027,9.73218,1.45863,0.56,0.07,0,-31.6257,-38.3291,-0.509623,1014.46
654536,-0.329986,9.72262,1.41081,0.21,-0.35,-0.21,-31.4824,-38.5317,-1.68633,1014.46
654542,-0.291726,9.66523,1.40124,-0.28,-0.07,-0.07,-31.1673,-36.6506,-0.410383,1014.42
654548,-0.296509,9.65567,1.44907,1.12,-0.21,-0.21,-31.9121,-37.7214,0.383537,1014.42
654554,-0.306074,9.67958,1.41559,0.84,0.07,-0.07,-32.4564,-38.7632,-1.07671,1014.42
654560,-0.296509,9.6748,1.41559,0.7,0.21,-0.49,-31.0814,-37.0558,0.0716399,1014.48
654566,-0.310856,9.71305,1.39168,1.05,0.35,-0.35,-31.8548,-37.0268,0.737966,1014.48
654572,-0.282162,9.70827,1.36298,0.84,-0.21,-0.77,-31.4538,-38.3001,0.0432857,1014.46
654578,-0.301291,9.69871,1.34864,0.56,-0.28,-0.77,-31.2246,-37.2584,-0.864051,1014.46
654584,-0.325203,9.71305,1.39646,0.7,0.07,-0.63,-31.7403,-36.2744,1.03569,1014.44
654590,-0.320421,9.73218,1.36298,0.63,-0.07,-1.05,-30.8809,-38.7053,-0.849874,1014.44
654596,-0.35868,9.85174,1.25299,0.28,0.21,-0.7,-31.3965,-37.4609,0.4686,1014.47
654602,-0.349115,9.82305,1.2769,0.42,0.14,-0.91,-31.683,-36.7953,-0.42456,1014.47
654608,-0.363462,9.76566,1.34385,-0.21,-0.28,-0.7,-31.5111,-37.7214,-0.0984858,1014.44
654614,-0.344333,9.74653,1.39168,0.14,-0.42,-0.49,-31.1387,-38.0686,-0.750634,1014.44
654620,-0.401722,9.72262,1.38211,0.42,-0.42,-0.7,-31.0241,-37.432,0.681257,1014.44
654626,-0.37781,9.7274,1.39646,0.49,-0.28,-0.56,-30.623,-37.3162,0.085817,1014.44
654632,-0.353898,9.71305,1.44428,-0.07,0.28,-0.49,-30.7949,-37.7503,-0.991646,1014.44
654638,-0.373027,9.71784,1.42037,0.7,0,-0.14,-30.7663,-37.0558,-1.06253,1014.44
654644,-0.368245,9.73697,1.3582,0.63,0.56,-0.28,-30.9095,-36.1008,-0.537977,1014.44
654650,-0.420851,9.73697,1.40124,-0.07,0.21,-0.07,-30.9954,-37.4609,-1.54455,1014.47
654656,-0.315638,9.72262,1.42994,0.84,-0.07,0,-31.3106,-37.9818,-1.40278,1014.47
654662,-0.325203,9.68914,1.42037,1.4,-0.07,-0.28,-31.2246,-36.3612,0.0716399,1014.43
654668,-0.301291,9.71784,1.3869,1.26,0.21,-0.07,-31.4251,-38.1265,-0.849874,1014.43
654674,-0.368245,9.73218,1.34864,0.91,-0.28,-17.85,-30.5085,-37.5477,-0.835697,1014.44
654680,-0.306074,9.75131,1.29603,0.98,0.35,-0.28,-30.9382,-36.3323,-1.60126,1014.44
654686,-0.301291,9.71784,1.33907,0.07,0.28,-0.42,-31.2819,-36.94,-0.5238,1014.44
654692,-0.310856,9.69871,1.36298,0.28,0.35,-0.63,-31.3106,-38.0397,-2.28177,1014.44
654698,-0.33955,9.72262,1.34864,0.49,-0.14,-0.63,-30.9095,-37.2873,-0.566332,1014.45
654704,-0.325203,9.73697,1.34385,0.28,-0.07,-0.7,-30.6803,-36.969,-0.0134229,1014.45
654710,-0.33955,9.74653,1.32951,0.77,-0.49,-0.77,-30.8809,-38.5895,-1.71468,1014.45
654716,-0.329986,9.7274,1.34385,-0.21,0.07,-0.98,-30.7663,-38.4159,-0.906583,1014.45
654722,-0.320421,9.72262,1.37255,-0.28,0.14,-1.19,-30.5657,-36.7664,-0.367851,1014.45
654728,-0.368245,9.71305,1.42037,0.42,0.14,-0.84,-31.0241,-37.432,-0.410383,1014.44
654734,-0.353898,9.7274,1.3869,0.56,-0.35,-0.84,-31.0527,-37.6056,-0.452914,1014.44
654740,-0.334768,9.73697,1.34385,0.21,-0.42,-0.7,-31.0527,-36.6506,0.284297,1014.43
654746,-0.33955,9.71784,1.38211,-0.07,-0.21,-0.7,-31.4824,-37.3162,0.4686,1014.43
654752,-0.37781,9.69871,1.4682,-0.21,-0.35,-0.84,-31.1673,-37.8661,-0.693926,1014.44
654758,-0.373027,9.67001,1.47776,1.05,0.28,-0.77,-32.3418,-36.5928,-0.62304,1014.44
654764,-0.435198,9.78479,1.34385,0.84,-0.49,-0.91,-30.9382,-37.2873,-0.42456,1014.47
654770,-0.344333,9.82305,1.25299,0.35,0.14,-0.28,-31.2533,-38.2423,-1.41696,1014.47
654776,-0.35868,9.81349,1.28647,0.21,-0.07,-0.35,-31.0241,-37.5477,-0.197726,1014.47
654782,-0.344333,9.75131,1.3582,0.07,0.28,17.29,-31.5397,-37.1426,0.17088,1014.47
654788,-0.396939,9.72262,1.39646,0.21,0.28,-0.21,-30.6803,-37.4899,-0.637217,1014.42
654794,-0.306074,9.78479,1.33429,0.49,-0.28,-0.14,-31.2246,-37.6635,-0.12684,1014.42
654800,-0.373027,9.75131,1.32951,0.28,-0.14,17.64,-30.9382,-36.8821,-0.296966,1014.47
654806,-0.320421,9.74175,1.34385,-0.35,-0.14,-0.14,-31.11,-37.1715,0.837206,1014.47
654812,-0.344333,9.68436,1.41081,-0.07,0.63,0.07,-30.9382,-38.387,-0.22608,1014.47
654818,-0.35868,9.72262,1.39168,0.49,0.14,-0.28,-30.623,-36.5349,0.454423,1014.45
654824,-0.344333,9.7274,1.38211,0.28,0.07,0,-31.683,-36.8821,-0.353674,1014.45
654830,-0.329986,9.7274,1.3582,-0.21,0.14,0.14,-30.6803,-38.7053,-0.211903,1014.44
654836,-0.33955,9.69392,1.39168,0.28,0.14,-0.56,-30.623,-36.969,-0.112663,1014.44
654842,-0.344333,9.70349,1.38211,0.28,-0.28,-0.14,-31.1387,-36.4191,-0.0417772,1014.43
654848,-0.344333,9.70827,1.3582,0.07,-0.35,-0.35,-30.623,-37.8082,-0.0417772,1014.43
654854,-0.344333,9.70827,1.3869,0.56,-0.21,-0.21,-30.6517,-38.0108,-0.12684,1014.47
654860,-0.301291,9.71784,1.36777,0.42,-0.21,-0.35,-30.8809,-37.0558,-0.254434,1014.47
654866,-0.310856,9.73218,1.39168,0.28,-0.07,-0.42,-30.709,-37.2294,-0.0701315,1014.43
654872,-0.301291,9.70349,1.40603,0.21,-0.07,-0.63,-31.0241,-39.4866,-0.594686,1014.43
654878,-0.329986,9.70349,1.39168,0.7,-0.07,-0.35,-31.1673,-37.2584,0.17088,1014.46
654884,-0.306074,9.72262,1.37255,0.49,0.21,-0.63,-31.5397,-37.6346,0.0716399,1014.46
654890,-0.329986,9.75131,1.3582,0.21,0.14,-0.63,-31.0241,-38.0976,-1.09089,1014.46
654896,-0.334768,9.74175,1.37255,0.35,0.07,-0.84,-30.5085,-38.1265,-0.32532,1014.45
654902,-0.334768,9.73218,1.38211,0.84,-0.49,-0.84,-31.1387,-36.3612,-0.155194,1014.45
654908,-0.349115,9.71784,1.36298,0.28,-0.49,-0.84,-31.1387,-37.7793,-0.0417772,1014.48
654914,-0.334768,9.70349,1.37733,0.56,-0.42,-0.91,-31.0814,-38.2133,-1.24683,1014.48
654920,-0.325203,9.7274,1.3582,0.7,-0.56,-1.05,-31.7403,-36.9111,0.440246,1014.44
654926,-0.320421,9.74175,1.39168,0.14,-0.7,-0.63,-31.683,-36.8243,-0.296966,1014.44
654932,-0.368245,9.72262,1.37733,0.35,-0.42,-0.84,-30.7663,-38.5895,-1.07671,1014.42
654938,-0.420851,9.75131,1.46341,0.84,-0.14,-0.91,-31.7116,-37.6346,0.9648,1014.42
654944,-0.430416,9.82305,1.37733,0.49,0.14,-0.42,-31.2533,-36.6506,0.695434,1014.46
654950,-0.435198,9.9187,1.24342,0.14,-0.14,0,-31.7403,-38.3001,0.511131,1014.46
654956,-0.392157,9.8087,1.26734,-0.56,-0.14,0,-30.3079,-38.5895,-0.438737,1014.47
654962,-0.363462,9.77523,1.36777,-0.63,-0.14,-17.71,-31.3106,-36.8243,1.12075,1014.47
654968,-0.349115,9.70827,1.42516,0.07,-0.42,-0.07,-31.597,-38.358,-0.0701315,1014.47
654974,-0.296509,9.69392,1.46341,0.07,-0.56,0,-31.5684,-38.6764,-0.793166,1014.47
654980,-0.315638,9.69871,1.3869,0.63,-0.42,17.64,-31.5111,-36.3902,1.02151,1014.47
654986,-0.33955,9.69871,1.42516,0.56,-0.42,-0.56,-32.5997,-36.969,-0.22608,1014.46
654992,-0.344333,9.7274,1.41081,0.07,0.28,-0.21,-31.4824,-38.6185,-0.410383,1014.46
654998,-0.325203,9.68914,1.37733,1.12,-0.28,-17.92,-31.2246,-37.3452,-0.949114,1014.45
655004,-0.320421,9.70827,1.38211,1.33,0.35,-0.63,-31.3965,-36.7664,0.199234,1014.45
655010,-0.353898,9.70349,1.37733,0.49,0,-0.63,-31.5111,-38.5317,-0.452914,1014.47
655016,-0.349115,9.7274,1.3869,0.91,0.35,-0.35,-31.0527,-38.1844,0.936446,1014.47
655022,-0.35868,9.72262,1.38211,0.63,-0.35,-0.84,-30.5371,-36.5928,1.17746,1014.47
655028,-0.320421,9.73218,1.34385,0.42,-0.28,-0.49,-30.8236,-38.2133,0.213411,1014.47
655034,-0.353898,9.73218,1.35342,0.84,-0.35,-0.35,-31.1673,-38.5317,-0.141017,1014.45
655040,-0.420851,9.78001,1.37733,0.35,-0.28,-0.56,-31.7689,-35.8693,1.07822,1014.45
655046,-0.401722,9.8087,1.32472,0.21,0.07,-0.56,-31.5111,-37.0268,0.000754159,1014.4
655052,-0.329986,9.79436,1.31038,0.21,-0.35,-0.14,-31.3392,-38.358,-0.396206,1014.4
655058,-0.35868,9.73697,1.38211,0,0.56,-0.56,-31.3392,-36.5059,-0.0134229,1014.4
655064,-0.344333,9.73697,1.39168,-0.21,-0.35,-0.77,-31.4538,-36.5928,0.326829,1014.44
655070,-0.329986,9.70827,1.39168,0.14,0.21,-0.21,-31.4251,-38.358,0.9648,1014.44
655076,-0.310856,9.69392,1.40124,0.14,-0.7,-0.49,-31.0527,-37.1137,-0.42456,1014.47
655082,-0.301291,9.68914,1.42037,0.49,-0.21,-0.7,-31.11,-36.1876,-0.467091,1014.47
655088,-0.349115,9.68914,1.43472,0.91,-0.7,-0.56,-30.623,-37.4609,-0.339497,1014.44
655094,-0.353898,9.71305,1.3869,0.84,-0.28,-1.05,-31.1387,-38.5606,-1.19013,1014.44
655100,-0.344333,9.70827,1.37733,0.42,0.56,-0.77,-30.6517,-36.4481,0.4686,1014.45
655106,-0.325203,9.71784,1.37255,0.77,0.07,-0.84,-31.3965,-37.6346,-0.566332,1014.45
655112,-0.329986,9.71305,1.3869,0.42,0.49,-0.84,-30.9954,-38.9368,-1.09089,1014.45
655118,-0.349115,9.70827,1.37733,0.49,-0.42,-1.12,-30.623,-37.6635,0.737966,1014.45
655124,-0.325203,9.7274,1.36298,0.77,0.07,-1.54,-31.2533,-37.1715,1.33341,1014.42
655130,-0.334768,9.71784,1.35342,0.28,-0.77,-1.19,-31.2819,-38.0397,0.128348,1014.42
655136,-0.320421,9.70827,1.3869,0.56,0.07,-1.47,-31.3965,-38.387,-0.693926,1014.42
655142,-0.449546,9.74175,1.39168,1.05,-0.84,-1.33,-31.196,-37.2294,-0.42456,1014.45
655148,-0.435198,9.81827,1.3056,0.63,0.07,-1.05,-31.597,-38.4738,0.454423,1014.45
655154,-0.420851,9.79436,1.33907,0.28,0,-0.63,-31.4251,-38.1844,-1.06253,1014.44
655160,-0.382592,9.73697,1.40124,0.35,0.49,-0.63,-31.5684,-36.1297,0.808851,1014.44
655166,-0.439981,9.71784,1.41081,0.49,-0.49,-0.56,-31.4251,-37.6924,0.823028,1014.43
655172,-0.349115,9.76566,1.36298,0.49,-0.49,-0.42,-31.0814,-38.7053,-1.24683,1014.43
655178,-0.396939,9.76566,1.34864,0.7,-0.14,-0.49,-31.7116,-37.3452,0.341006,1014.42
655184,-0.33955,9.7274,1.33429,0.14,0.21,-0.42,-30.7949,-37.0847,0.808851,1014.42
655190,-0.344333,9.68914,1.41081,0.35,-0.14,-0.63,-31.9121,-38.7053,-0.382029,1014.46
655196,-0.306074,9.69392,1.42516,0.77,-0.21,-0.77,-31.4824,-38.5027,-1.17595,1014.46
655202,-0.349115,9.67958,1.40603,0.63,0.35,-0.91,-31.4538,-36.5349,1.68783,1014.49
655208,-0.334768,9.6748,1.42994,1.19,0.35,-0.98,-31.11,-37.5188,0.56784,1014.49
655214,-0.349115,9.6748,1.42037,0.84,0.28,-1.26,-31.4538,-37.8371,-0.764811,1014.49
655220,-0.344333,9.70349,1.3582,0.84,-0.07,-1.05,-31.2246,-37.0847,0.922268,1014.49
655226,-0.363462,9.71784,1.32472,1.19,-0.21,-1.05,-31.8548,-37.4609,1.43265,1014.49
655232,-0.320421,9.74175,1.29603,0.56,-0.21,-1.33,-30.9382,-38.4448,0.085817,1014.47
655238,-0.387374,9.78001,1.28647,1.12,0,-1.05,-31.1673,-37.403,0.624548,1014.47
655244,-0.45911,9.8087,1.28168,0.35,-0.35,-0.77,-31.3392,-36.9111,0.752143,1014.49
655250,-0.444763,9.79914,1.30081,-0.28,-0.42,-0.63,-31.597,-38.7342,-0.608863,1014.49
655256,-0.382592,9.71784,1.37255,0,-0.56,-0.49,-31.2533,-38.0397,-0.311143,1014.45
655262,-0.368245,9.69392,1.41559,0.07,0,-0.77,-31.5111,-36.477,0.142526,1014.45
655268,-0.33955,9.69871,1.41081,0.21,-0.14,-0.91,-31.2819,-37.7214,-0.112663,1014.45
655274,-0.37781,9.70827,1.38211,0.42,-0.28,-0.98,-31.5684,-38.2712,-0.736457,1014.45
655280,-0.373027,9.74653,1.3869,0.42,0.42,-0.35,-31.2246,-36.5349,0.0432857,1014.45
655286,-0.401722,9.70827,1.3869,0.35,0.28,-0.91,-31.9408,-37.3741,1.1491,1014.45
655292,-0.406504,9.7274,1.3869,0.35,-0.07,-0.84,-32.0267,-38.3001,-0.353674,1014.45
655298,-0.368245,9.71784,1.38211,0.7,-0.35,-0.42,-31.597,-37.7503,0.128348,1014.45
655304,-0.344333,9.69392,1.42994,0.7,-0.28,-0.77,-31.2819,-37.0268,1.34758,1014.45
655310,-0.315638,9.6748,1.39646,0.98,-0.49,-0.91,-31.1387,-38.9079,1.07822,1014.45
655316,-0.334768,9.69392,1.38211,0.98,0.35,-0.91,-30.7949,-38.6474,0.76632,1014.45
655322,-0.373027,9.71305,1.37733,0.98,-0.28,-1.4,-31.0814,-36.969,0.76632,1014.44
655328,-0.387374,9.69871,1.3582,0.98,0.21,-1.26,-31.4824,-38.1844,-0.594686,1014.44
655334,-0.406504,9.73697,1.36777,1.05,-0.14,-1.05,-31.5397,-38.9947,-0.112663,1014.46
655340,-0.449546,9.7274,1.3869,1.05,-0.21,-1.26,-30.9668,-37.432,0.0716399,1014.46
655346,-0.420851,9.7561,1.3869,1.26,-0.84,-0.63,-30.7949,-38.0976,0.66708,1014.45
655352,-0.435198,9.7561,1.36777,1.47,-0.35,-0.7,-30.9095,-38.85,-0.608863,1014.45
655358,-0.483022,9.83261,1.33907,0.49,-0.77,-0.35,-31.6543,-37.8082,-0.155194,1014.44
655364,-0.435198,9.78957,1.33429,0.56,0.07,-0.14,-31.11,-37.0847,2.21239,1014.44
655370,-0.45911,9.82305,1.33429,0.14,-0.21,0.14,-31.196,-38.8789,-0.0701315,1014.45
655376,-0.387374,9.79436,1.31994,0.42,0.28,-17.71,-31.2533,-38.3001,-0.793166,1014.45
655382,-0.454328,9.78001,1.37255,0.21,-0.7,0.14,-30.7949,-37.2873,0.808851,1014.45
655388,-0.396939,9.72262,1.38211,-0.07,-0.42,-0.07,-31.3392,-38.7632,0.0291085,1014.43
655394,-0.37781,9.72262,1.38211,0.91,-0.77,0.28,-30.3652,-37.5767,0.17088,1014.43
655400,-0.35868,9.69392,1.41559,0.56,-0.42,-0.21,-31.2819,-36.94,0.185057,1014.49
655406,-0.396939,9.70827,1.3869,0.56,0.07,-0.14,-31.3106,-38.3291,1.16328,1014.49
655412,-0.373027,9.72262,1.3582,0.77,0,0,-30.9954,-39.1104,-0.949114,1014.46
655418,-0.353898,9.72262,1.33429,0.14,0.07,-0.42,-31.0527,-38.1265,0.227588,1014.46
655424,-0.349115,9.69871,1.37255,0.14,-0.28,-0.42,-30.7376,-37.4609,1.00733,1014.47
655430,-0.329986,9.68914,1.37733,1.05,-0.07,17.22,-30.7949,-38.9368,-0.708103,1014.47
655436,-0.344333,9.71305,1.37733,0.28,-0.21,-0.7,-31.0814,-38.2423,0.114171,1014.45
655442,-0.396939,9.73697,1.35342,0.42,0,-0.49,-30.623,-37.0268,0.808851,1014.45
655448,-0.439981,9.78479,1.30081,0.84,-0.35,-0.49,-31.7403,-38.358,-0.0134229,1014.47
655454,-0.382592,9.78479,1.30081,0.28,-0.07,-0.63,-31.4824,-38.387,-0.977469,1014.47
655460,-0.373027,9.74653,1.3582,0.07,-0.42,-0.49,-30.9954,-37.0847,0.893914,1014.47
655466,-0.396939,9.72262,1.40603,0.49,-0.07,17.43,-31.2819,-38.3291,2.21239,1014.47
655472,-0.392157,9.79436,1.34864,0.35,0.14,-0.14,-30.7663,-38.4738,-0.651394,1014.47
655478,-0.444763,9.7561,1.35342,0.14,0.21,0,-31.1673,-37.9239,0.185057,1014.43
655484,-0.37781,9.77044,1.33907,0.42,0.42,17.71,-31.2246,-36.6217,1.461,1014.43
655490,-0.373027,9.74175,1.36777,-0.28,0.14,-0.14,-30.623,-38.5895,0.341006,1014.45
655496,-0.439981,9.73218,1.36298,0,-0.14,0.49,-30.9382,-37.6635,1.19163,1014.45
655502,-0.425634,9.77523,1.34385,0.56,-0.14,17.64,-31.4251,-36.7085,2.46758,1014.42
655508,-0.387374,9.7274,1.37255,0.07,0.07,-0.28,-31.2819,-37.6924,-0.112663,1014.42
655514,-0.344333,9.71784,1.36777,0.07,0.42,0.49,-31.196,-39.0815,0.142526,1014.43
655520,-0.368245,9.68914,1.41081,0.28,0.14,17.43,-32.1127,-37.2584,1.36176,1014.43
655526,-0.392157,9.66523,1.41081,0.63,0.14,0.14,-31.7116,-37.4609,-0.155194,1014.47
655532,-0.363462,9.69871,1.38211,0.35,0.14,0,-31.4538,-38.5027,-0.481269,1014.47
655538,-0.416069,9.7274,1.38211,0.7,-0.28,-0.49,-31.8835,-37.4899,0.000754159,1014.45
655544,-0.420851,9.74175,1.36777,0.49,0.07,0,-30.9954,-37.1426,0.454423,1014.45
655550,-0.37781,9.74653,1.32951,0.56,0.14,-0.42,-30.8236,-38.7053,-0.764811,1014.45
655556,-0.363462,9.71305,1.3582,0.84,0.56,-0.28,-30.9954,-37.3452,1.30505,1014.45
655562,-0.406504,9.70349,1.38211,0.28,0.07,0,-31.3392,-36.8243,1.50353,1014.45
655568,-0.37781,9.69392,1.3582,0.7,-0.35,-0.49,-31.7689,-38.2423,0.440246,1014.43
655574,-0.416069,9.73218,1.31516,0.63,-0.56,-0.42,-31.9121,-38.8211,0.582017,1014.43
655580,-0.396939,9.77523,1.28647,0,0.21,-0.35,-31.1387,-37.5188,0.610371,1014.46
655586,-0.363462,9.73697,1.32951,-0.35,0.07,-0.14,-31.8548,-37.6056,0.76632,1014.46
655592,-0.406504,9.74653,1.39168,0.28,0.21,-0.42,-31.5111,-38.7342,-0.509623,1014.43
655598,-0.435198,9.73218,1.34864,0,-0.49,-0.42,-31.3679,-38.1265,-0.112663,1014.43
655604,-0.416069,9.74653,1.32951,-0.07,-0.35,-0.14,-31.597,-36.5928,0.482777,1014.44
655610,-0.33955,9.73697,1.36777,-0.07,-0.56,-0.07,-31.4251,-38.0108,-0.481269,1014.44
655616,-0.334768,9.71305,1.39646,0.21,0.14,-0.07,-31.1673,-37.8661,-0.197726,1014.46
655622,-0.363462,9.67958,1.42994,0,-0.49,-0.42,-31.6257,-36.6217,0.76632,1014.46
655628,-0.373027,9.67001,1.40603,0.21,-0.21,-0.84,-31.3965,-37.5767,-0.594686,1014.46
655634,-0.396939,9.70349,1.3869,0.49,-0.35,-0.49,-31.7689,-38.4448,-1.28937,1014.46
655640,-0.363462,9.70349,1.39646,0.7,-0.07,-0.84,-31.683,-37.7503,0.411891,1014.46
655646,-0.363462,9.71305,1.3869,0.91,-0.28,-0.91,-31.5684,-36.7085,-0.849874,1014.44
655652,-0.435198,9.70827,1.39168,0.77,-0.21,-0.7,-31.7116,-38.4448,-0.254434,1014.44
655658,-0.449546,9.76088,1.36777,0.63,-0.21,-0.7,-31.4538,-37.8661,0.539486,1014.47
655664,-0.368245,9.7561,1.30081,0.77,-0.49,-0.56,-31.0527,-36.7085,0.681257,1014.47
655670,-0.392157,9.7274,1.36777,0.42,-0.28,-0.84,-31.1387,-38.0976,-0.864051,1014.4
655676,-0.411286,9.7561,1.38211,0.77,-0.14,-0.63,-30.8236,-37.5188,0.17088,1014.4
655682,-0.392157,9.7274,1.34864,0.84,-0.28,-0.7,-31.1673,-36.5638,0.76632,1014.46
655688,-0.411286,9.76088,1.32951,0.49,0,-0.84,-31.2533,-37.9239,1.16328,1014.46
655694,-0.411286,9.77523,1.32472,0.35,-0.21,-0.7,-31.196,-38.0686,-1.85645,1014.44
655700,-0.411286,9.75131,1.36298,0.49,-0.21,-0.77,-31.2246,-36.6217,0.936446,1014.44
655706,-0.37781,9.71784,1.34864,0.14,0,-0.42,-31.3679,-37.6056,-0.892406,1014.48
655712,-0.373027,9.72262,1.39646,0.77,-0.14,-0.7,-31.3679,-38.7053,-0.934937,1014.48
655718,-0.363462,9.73218,1.36298,0.42,0,-0.98,-31.196,-37.5477,-0.254434,1014.48
655724,-0.396939,9.70349,1.36298,0.35,-0.07,-0.98,-31.683,-37.403,0.341006,1014.46
655730,-0.37781,9.70349,1.39646,0.49,-0.35,-0.77,-31.3679,-39.2262,0.0291085,1014.46
655736,-0.373027,9.68436,1.39168,1.19,0,-1.05,-30.4798,-38.1555,-1.28937,1014.46
655742,-0.396939,9.71305,1.38211,0.91,-0.35,-1.33,-31.4824,-37.1426,0.610371,1014.46
655748,-0.310856,9.68914,1.37733,0.7,0.56,-1.47,-31.8262,-38.0686,-0.0417772,1014.44
655754,-0.349115,9.67958,1.42994,1.19,0.49,-1.47,-31.4251,-38.6764,-0.0701315,1014.44
655760,-0.344333,9.6748,1.40124,1.47,0.56,-1.75,-30.9095,-36.969,0.681257,1014.44
655766,-0.35868,9.66523,1.39168,1.54,-0.42,-2.17,-30.7376,-37.3741,-0.382029,1014.44
655772,-0.373027,9.68914,1.41081,1.61,-0.28,-2.38,-31.7116,-37.9818,-0.339497,1014.46
655778,-0.320421,9.65567,1.39646,1.68,-0.21,-2.87,-31.4824,-37.4899,-0.42456,1014.46
655784,-0.315638,9.62219,1.41081,2.03,0.49,-3.15,-30.9668,-36.8532,0.582017,1014.45
655790,-0.329986,9.65088,1.36777,2.66,0.21,-3.5,-31.1387,-37.9818,-0.353674,1014.45
655796,-0.349115,9.71305,1.28647,2.03,0.49,-3.92,-30.9668,-38.4738,-1.74303,1014.45
655802,-0.353898,9.71784,1.31038,1.89,0.28,-4.06,-31.7403,-37.895,-0.537977,1014.46
655808,-0.282162,9.69392,1.34864,2.1,0.63,-4.83,-31.9121,-38.0108,-0.62304,1014.46
655814,-0.310856,9.67958,1.35342,2.03,0,-4.97,-31.7403,-38.7632,-0.5238,1014.45
655820,-0.35868,9.71305,1.37255,2.66,0.28,-5.11,-31.4824,-37.8661,1.07822,1014.45
655826,-0.401722,9.71784,1.3056,2.59,0.14,-5.39,-31.1673,-37.8661,1.30505,1014.45
655832,-0.521282,9.82783,1.2769,2.03,0.49,-5.18,-31.4251,-39.9207,0.27012,1014.45
655838,-0.569106,9.83261,1.29603,1.89,0.56,-4.62,-30.4798,-38.3291,0.695434,1014.46
655844,-0.554758,9.8087,1.29603,2.24,1.12,-4.55,-31.0241,-37.4609,0.709611,1014.46
655850,-0.588235,9.76088,1.40603,2.1,0.28,-3.71,-31.11,-38.7342,0.142526,1014.43
655856,-0.554758,9.75131,1.3869,2.52,0.56,-3.43,-31.3965,-39.0236,-1.21848,1014.43
655862,-0.516499,9.74175,1.38211,3.15,0.49,-3.36,-31.0241,-37.3741,1.57442,1014.5
655868,-0.502152,9.73697,1.31994,2.94,1.12,-3.15,-31.3392,-38.0686,0.539486,1014.5
655874,-0.473458,9.74175,1.3582,1.54,1.61,-3.08,-31.3679,-38.85,-1.28937,1014.5
655880,-0.726925,9.89957,1.26734,2.45,0.35,-3.15,-31.2533,-38.387,-0.42456,1014.43
655886,-0.196078,9.57915,1.28647,3.08,3.15,-2.45,-31.597,-37.6056,0.0999942,1014.43
655892,-0.69823,9.75131,1.37255,2.8,0.49,-1.96,-31.4824,-38.85,-0.736457,1014.48
655898,-0.57867,9.97609,0.989957,0.7,-0.07,-2.52,-31.11,-37.7793,-0.396206,1014.48
655904,-0.33955,9.51219,1.53515,2.8,1.75,-2.1,-30.8522,-37.8371,0.893914,1014.41
655910,-0.468675,9.8374,1.15256,2.8,1.26,-1.61,-30.5657,-38.3291,-1.10506,1014.41
655916,-0.631277,9.93304,1.1956,0.91,-0.35,-2.17,-30.5657,-38.6764,-0.254434,1014.43
655922,-0.267814,9.58871,1.50646,2.8,2.52,-1.68,-31.1387,-37.0558,0.56784,1014.43
655928,-0.83692,9.80392,1.30081,1.12,-0.56,-1.89,-31.7116,-38.9368,-0.537977,1014.45
655934,-0.095648,9.60306,1.31038,2.87,3.15,-1.82,-31.0241,-39.9497,-0.72228,1014.45
655940,-0.789096,9.8087,1.29125,1.82,-1.12,-2.17,-30.9954,-37.895,0.128348,1014.44
655946,-0.320421,9.68436,1.35342,1.75,0.63,-1.82,-30.8236,-37.6924,1.17746,1014.44
655952,-0.521282,9.62219,1.40124,2.52,0.28,-1.89,-30.623,-38.5317,-0.72228,1014.48
655958,-0.554758,9.76566,1.26255,2.38,0,-1.82,-30.7663,-38.1265,-0.396206,1014.48
655964,-0.349115,9.60784,1.36298,2.31,1.19,-1.61,-31.2533,-37.4899,0.978977,1014.48
655970,-0.5978,9.7274,1.32472,2.66,0.42,-1.96,-31.3965,-38.7053,0.241766,1014.46
655976,-0.468675,9.70349,1.26255,2.52,0.56,-1.82,-31.597,-38.4738,0.780497,1014.46
655982,-0.559541,9.67001,1.32951,2.73,-0.07,-2.1,-31.11,-37.4609,1.40429,1014.44
655988,-0.473458,9.7274,1.20516,2.38,0.28,-1.75,-30.7663,-38.8211,-0.169371,1014.44
655994,-0.554758,9.67001,1.32951,2.66,0.28,-2.17,-30.3366,-38.4448,0.0574628,1014.44
656000,-0.487805,9.65567,1.32472,2.87,0.91,-1.96,-30.7949,-38.0108,1.26252,1014.44
656006,-0.57867,9.78001,1.22429,0.91,-0.14,-2.8,-30.7949,-36.8821,0.525308,1014.44
656012,-0.47824,10.11,1.20038,0.35,1.82,-3.01,-30.6803,-38.7342,0.227588,1014.44
656018,-0.942133,9.68914,1.40124,-0.98,-3.43,-1.47,-30.3366,-38.6764,0.383537,1014.48
656024,0.454328,8.97178,1.57341,6.37,4.27,-3.57,-30.4798,-37.2584,1.57442,1014.48
656030,-1.26734,9.84218,1.53993,1.75,-4.55,-2.52,-30.3939,-39.1973,0.142526,1014.44
656036,0.200861,9.49785,1.28168,2.24,4.13,-1.05,-30.7663,-38.6474,0.326829,1014.44
656042,-1.22429,9.65088,1.4682,4.83,-2.45,-3.29,-30.623,-37.4609,1.17746,1014.44
656048,-0.253467,9.5935,1.33429,3.64,0.98,-1.4,-30.1647,-38.7921,0.128348,1014.45
656054,-0.707795,9.69392,1.1143,3.5,0.98,-0.07,-30.3079,-39.1104,0.383537,1014.45
656060,-0.81779,9.94739,1.13343,3.92,-0.91,16.87,-30.7949,-38.1844,1.29087,1014.43
656066,-0.516499,9.7561,1.24821,4.2,1.82,-0.07,-30.5085,-37.9239,-1.41696,1014.43
656072,-0.932568,9.91392,1.21473,2.03,-0.7,1.68,-30.9954,-38.9657,-0.396206,1014.46
656078,-0.439981,9.69871,1.16212,4.34,2.17,0.49,-30.5085,-37.4609,-0.906583,1014.46
656084,-0.908656,9.74653,1.20995,2.8,-2.1,1.54,-30.5371,-37.8082,1.17746,1014.46
656090,-0.167384,9.80392,1.09517,1.54,-0.14,2.1,-30.2506,-38.9947,-0.268611,1014.46
656096,-0.779531,9.70349,1.61645,2.31,-0.91,0.63,-29.9355,-39.3998,-0.467091,1014.44
656102,-0.153037,9.45481,1.42037,2.8,0.56,0.7,-30.9954,-38.3001,1.99973,1014.44
656108,-0.765184,9.69392,1.47298,4.62,1.4,0.98,-30.623,-38.6185,1.33341,1014.46
656114,-0.454328,9.5648,1.36298,4.9,-1.19,-0.42,-30.9668,-38.6185,-0.12684,1014.46
656120,0.0382592,9.27307,1.4682,7.77,2.73,-1.82,-30.709,-37.5767,0.511131,1014.47
656126,-0.865614,9.88522,1.34385,5.39,-1.12,-0.91,-30.6803,-38.0976,1.07822,1014.47
656132,0.0191296,9.65567,1.21951,6.09,3.78,-1.33,-31.0241,-38.9079,0.780497,1014.47
656138,-0.946915,9.93783,1.25777,6.02,-0.14,-1.54,-30.1074,-38.2133,1.06404,1014.46
656144,-0.334768,9.88522,0.913438,5.04,0.35,-1.54,-30.7949,-37.7503,0.56784,1014.46
656150,-0.554758,9.89479,0.994739,7.28,2.31,-2.8,-30.6803,-39.0815,1.36176,1014.45
656156,-1.04735,10.3204,0.707795,4.2,-1.96,-0.56,-30.0788,-38.7342,1.23417,1014.45
656162,-0.679101,10.5739,0.444763,-0.35,0,0.7,-30.1933,-37.2584,2.15568,1014.47
656168,-1.00909,9.6748,1.47776,4.34,0.35,0.77,-30.5944,-38.7632,1.58859,1014.47
656174,-1.31038,10.8274,0.502152,-1.61,-2.66,3.08,-30.5085,-39.6313,0.823028,1014.46
656180,-1.05213,9.79914,1.20516,-0.77,-0.14,3.99,-30.1074,-38.2133,1.29087,1014.46
656186,-0.310856,9.54089,1.29125,2.03,-0.91,3.36,-30.9954,-38.7342,0.56784,1014.45
656192,-0.942133,10.3204,1.06169,-0.77,-3.57,4.27,-31.5397,-40.4416,-0.793166,1014.45
