Timestamp,AccX,AccY,AccZ,AngularVelX,AngularVelY,AngularVelZ,MagX,MagY,MagZ,AirPressure
10352,0.148254,9.74653,1.31038,1.75,-3.22,0.21,-21.229,-46.7381,11.4494,1014.74
10358,0.162602,9.77044,1.27212,2.38,-3.64,0.07,-21.5195,-47.6016,11.4198,1014.76
10364,0.167384,9.76088,1.28168,2.38,-4.06,-0.21,-21.3161,-48.2184,11.7449,1014.76
10370,0.181731,9.79914,1.24342,1.89,-3.71,-0.28,-21.8101,-47.5091,12.4099,1014.77
10376,0.196078,9.7561,1.23864,1.75,-3.57,-0.49,-21.3452,-46.9848,11.8779,1014.77
10382,0.215208,9.78479,1.25299,1.82,-3.64,0.07,-21.4614,-48.9277,11.0357,1014.76
10388,0.215208,9.80392,1.26734,1.47,-3.15,-0.14,-21.5195,-48.095,11.6119,1014.76
10394,0.205643,9.78957,1.28168,1.96,-3.22,-0.35,-21.3742,-46.7998,11.2425,1014.76
10400,0.21999,9.77523,1.2769,1.54,-3.36,-0.28,-21.4614,-48.1876,11.0948,1014.76
10406,0.176949,9.81827,1.25777,1.4,-3.08,-0.84,-21.8973,-48.866,12.4099,1014.76
10412,0.148254,9.77044,1.24821,1.75,-3.29,-0.07,-21.1418,-47.0157,11.6119,1014.76
10418,0.148254,9.76088,1.30081,1.54,-3.36,-0.35,-21.3742,-47.6324,11.3312,1014.76
10424,0.191296,9.7561,1.31038,1.82,-3.5,-0.42,-21.2871,-48.496,12.3064,1014.76
10430,0.196078,9.76566,1.26734,1.96,-3.01,-0.14,-21.3452,-47.2932,11.3016,1014.76
10436,0.162602,9.74653,1.3056,1.75,-3.43,0,-20.4444,-46.3372,12.4246,1014.76
10442,0.124342,9.76566,1.32951,2.17,-3.57,0.07,-21.3452,-48.6193,10.7845,1014.76
10448,0.167384,9.7561,1.3056,1.89,-3.5,0,-20.9093,-47.8792,11.0948,1014.76
10454,0.167384,9.75131,1.2769,2.03,-3.5,-0.42,-20.6188,-47.2932,11.6267,1014.75
10460,0.129125,9.76566,1.29125,1.75,-3.29,0.49,-21.3452,-48.095,12.203,1014.75
10466,0.176949,9.75131,1.28647,1.96,-3.5,0.28,-21.3452,-48.1876,11.4937,1014.76
10472,0.196078,9.77523,1.2769,2.17,-3.71,-0.56,-21.4324,-46.8306,13.1782,1014.76
10478,0.196078,9.76566,1.2769,2.1,-3.85,-0.14,-21.0256,-47.3549,10.9765,1014.75
10484,0.196078,9.78957,1.27212,1.89,-3.5,0.77,-20.7931,-48.095,11.4937,1014.75
10490,0.21999,9.78001,1.27212,1.96,-2.94,-0.07,-21.3452,-47.1082,12.0257,1014.78
10496,0.224773,9.76088,1.24821,1.75,-3.15,-0.7,-21.1999,-47.6016,12.4985,1014.78
10502,0.229555,9.79914,1.26734,1.61,-2.66,-0.35,-21.8682,-48.2801,11.0652,1014.75
10508,0.172166,9.7561,1.29125,1.61,-3.01,-0.77,-21.8101,-47.7558,12.2325,1014.75
10514,0.162602,9.74175,1.29603,1.96,-2.94,-0.42,-21.8101,-46.8615,11.8188,1014.75
10520,0.167384,9.7561,1.29125,1.61,-2.8,0,-21.4324,-48.1259,12.2325,1014.74
10526,0.133907,9.76566,1.26255,1.68,-3.43,-0.91,-21.2871,-47.9717,13.1339,1014.74
10532,0.148254,9.75131,1.3056,2.03,-3.22,-0.49,-20.9675,-46.2138,12.9418,1014.75
10538,0.176949,9.75131,1.29125,2.03,-3.29,0,-21.1709,-47.4782,12.3951,1014.75
10544,0.176949,9.7561,1.24342,2.1,-3.43,-0.07,-21.4614,-48.496,11.4642,1014.75
10550,0.13869,9.7561,1.26255,2.03,-3.85,-0.49,-22.0716,-47.4166,12.8827,1014.75
10556,0.234338,9.77044,1.27212,1.82,-3.08,-0.56,-21.258,-47.6941,12.8679,1014.73
10562,0.153037,9.76566,1.26255,1.47,-3.08,-0.07,-20.5316,-47.1698,11.2573,1014.73
10568,0.129125,9.75131,1.28168,1.82,-3.64,0.07,-21.3161,-47.6633,11.4642,1014.73
10574,0.167384,9.73218,1.26255,2.17,-3.64,0.7,-21.6067,-47.4474,12.4542,1014.79
10580,0.210426,9.75131,1.28647,1.05,-3.01,0.35,-22.0426,-48.681,10.4003,1014.79
10586,0.191296,9.78479,1.25299,2.24,-3.5,-0.07,-21.1127,-47.7866,12.8532,1014.76
10592,0.181731,9.77044,1.27212,1.61,-3.5,0.07,-21.4905,-46.2755,12.9861,1014.76
10598,0.229555,9.78001,1.25299,1.54,-3.22,0.07,-21.7229,-47.7558,12.0848,1014.75
10604,0.248685,9.77523,1.2769,2.03,-3.43,-0.35,-21.9554,-48.496,11.6563,1014.75
10610,0.234338,9.77044,1.25299,2.1,-3.01,-0.42,-21.7229,-47.2007,12.8532,1014.76
10616,0.176949,9.78001,1.28168,1.47,-2.73,-0.35,-21.5776,-47.3549,13.2521,1014.76
10622,0.181731,9.7561,1.31038,1.96,-3.01,-0.07,-21.781,-48.6502,11.5972,1014.76
10628,0.153037,9.78001,1.31038,1.96,-3.57,-0.56,-21.4614,-47.6016,12.1734,1014.77
10634,0.210426,9.77523,1.26734,1.96,-3.15,-0.91,-20.735,-47.0773,12.927,1014.77
10640,0.172166,9.78479,1.27212,1.96,-3.36,-0.21,-21.1709,-47.8483,11.9518,1014.74
10646,0.153037,9.77044,1.28168,2.03,-3.64,-0.98,-21.6358,-47.2624,11.1982,1014.74
10652,0.167384,9.74175,1.29603,1.96,-3.29,0.14,-21.6939,-47.0157,12.5576,1014.76
10658,0.129125,9.73697,1.31038,1.82,-3.29,-0.21,-21.1709,-47.0773,11.9518,1014.76
10664,0.191296,9.73218,1.29125,1.82,-3.15,-0.7,-21.8392,-48.2801,11.3312,1014.77
10670,0.186514,9.79436,1.29125,1.89,-3.29,-0.07,-21.5776,-47.2932,12.6315,1014.77
10676,0.191296,9.73697,1.2769,1.82,-3.29,0.35,-20.9675,-46.954,12.602,1014.75
10682,0.11956,9.78001,1.2769,2.1,-3.08,0.21,-21.752,-48.095,11.804,1014.75
10688,0.172166,9.76566,1.2769,1.61,-3.22,-0.63,-21.229,-47.0465,11.671,1014.75
10694,0.148254,9.78957,1.24821,2.1,-3.57,0.07,-20.9093,-47.0157,11.0357,1014.73
10700,0.21999,9.78479,1.25777,1.82,-3.5,-0.07,-21.3161,-47.324,12.2769,1014.73
10706,0.191296,9.77044,1.3056,1.26,-3.43,-0.63,-21.3742,-48.2801,12.0996,1014.74
10712,0.200861,9.7561,1.26255,1.75,-3.43,-0.07,-22.246,-46.6456,12.8827,1014.74
10718,0.224773,9.76566,1.31038,1.82,-3.22,-1.12,-21.1127,-47.6633,11.6415,1014.78
10724,0.21999,9.73218,1.30081,2.03,-2.8,-0.28,-21.4614,-48.6502,11.1243,1014.78
10730,0.210426,9.73697,1.29125,1.47,-3.01,-0.56,-22.4203,-47.6633,14.316,1014.8
10736,0.167384,9.76566,1.2769,1.68,-3.08,-0.56,-21.6067,-47.324,13.1635,1014.8
10742,0.186514,9.77044,1.28168,1.96,-2.87,-0.35,-21.9844,-48.8969,10.6662,1014.8
10748,0.143472,9.81349,1.28168,2.17,-3.22,-0.35,-22.1588,-48.496,12.3212,1014.73
10754,0.263032,9.76566,1.27212,1.61,-2.8,-0.63,-21.1127,-46.7381,13.2373,1014.73
10760,0.0191296,9.75131,1.3582,1.4,-3.78,-0.42,-21.8973,-47.9408,11.5824,1014.75
10766,0.215208,9.70827,1.2769,1.68,-3.15,-0.21,-20.8803,-48.4343,11.1686,1014.75
10772,0.133907,9.79914,1.2769,2.17,-3.64,-0.21,-21.3452,-46.6147,13.4294,1014.76
10778,0.11956,9.77044,1.26734,1.19,-3.22,-0.14,-21.2871,-47.6633,12.6463,1014.76
10784,0.172166,9.78001,1.28168,1.75,-3.5,0.14,-21.5486,-48.5268,10.8288,1014.76
10790,0.172166,9.81827,1.18604,1.61,-3.78,0.42,-21.3742,-46.9848,12.3655,1014.76
10796,0.243902,9.8087,1.20516,1.54,-3.01,-0.49,-21.4324,-46.6456,13.06,1014.76
10802,0.047824,9.68436,1.41081,2.52,-3.15,0.07,-21.6939,-47.6324,12.5281,1014.77
10808,0.153037,9.78479,1.28647,1.61,-3.71,0.28,-21.9263,-47.5091,13.326,1014.77
10814,0.25825,9.83261,1.20995,2.1,-2.94,-0.07,-22.5075,-46.3989,12.9418,1014.74
10820,0.196078,9.84218,1.19082,1.75,-3.43,-0.49,-21.6067,-48.2184,11.346,1014.74
10826,0.234338,9.74653,1.33907,2.17,-2.87,-0.35,-21.6358,-48.5268,12.203,1014.75
10832,0.153037,9.8087,1.29125,1.61,-3.15,0.07,-21.5776,-46.0905,13.3851,1014.75
10838,0.191296,9.76566,1.27212,2.03,-3.22,-0.28,-21.4905,-47.1698,11.3607,1014.76
10844,0.167384,9.78001,1.28168,1.75,-2.73,-0.77,-21.4033,-48.1567,11.8336,1014.76
10850,0.181731,9.74175,1.31038,2.24,-3.36,-0.49,-21.9263,-47.5091,11.4346,1014.76
10856,0.162602,9.78001,1.30081,1.4,-3.01,-0.56,-21.5486,-47.2932,12.0996,1014.76
10862,0.153037,9.76088,1.27212,1.61,-3.01,-0.07,-21.9263,-48.095,11.5972,1014.76
10868,0.157819,9.78479,1.2769,2.17,-3.43,-0.63,-21.6067,-47.9717,11.4937,1014.74
10874,0.162602,9.75131,1.26734,1.75,-3.71,-0.28,-21.5776,-46.8923,12.2178,1014.74
10880,0.176949,9.70349,1.32472,1.96,-3.15,0.28,-21.8392,-48.2492,11.5233,1014.76
10886,0.114778,9.76088,1.3056,1.68,-3.36,0.42,-22.1878,-48.4034,10.5185,1014.76
10892,0.143472,9.73697,1.25777,2.03,-3.71,-0.14,-21.4614,-46.5222,12.4837,1014.74
10898,0.133907,9.74653,1.29603,1.82,-3.08,0.42,-21.9554,-47.5091,11.671,1014.74
10904,0.10043,9.78957,1.31038,2.17,-3.71,0.28,-21.5776,-47.8175,11.8336,1014.71
10910,0.210426,9.71784,1.2769,2.24,-3.36,0.07,-21.9263,-46.5531,10.8731,1014.71
10916,0.167384,9.78479,1.23864,2.03,-3.64,0.21,-21.6648,-46.2755,11.1391,1014.71
10922,0.215208,9.73697,1.28647,2.31,-3.5,0,-21.4033,-47.4166,10.5037,1014.76
10928,0.224773,9.78001,1.29125,1.4,-3.08,0.56,-21.5486,-46.8923,10.681,1014.76
10934,0.210426,9.78957,1.24821,1.89,-3.5,0.07,-21.5776,-46.6147,11.7449,1014.76
10940,0.191296,9.78001,1.29125,1.68,-3.43,-0.49,-21.4324,-47.6633,12.4837,1014.76
10946,0.205643,9.76566,1.32472,1.68,-3.22,-0.21,-21.8973,-47.6016,10.4741,1014.75
10952,0.210426,9.79436,1.25299,1.96,-3.08,0,-21.6067,-46.4914,11.9222,1014.75
10958,0.186514,9.74175,1.25777,2.1,-3.36,-0.7,-21.9263,-47.2315,11.3016,1014.75
10964,0.105213,9.73697,1.34864,1.82,-3.08,-0.77,-22.275,-48.0642,11.6415,1014.75
10970,0.095648,9.74653,1.32951,1.82,-3.08,0.28,-21.3452,-47.0465,11.7892,1014.75
10976,0.243902,9.78479,1.26734,2.03,-3.36,0.28,-21.258,-46.7689,11.9961,1014.78
10982,0.186514,9.78479,1.25299,2.17,-3.43,17.01,-22.1297,-48.2801,10.9913,1014.78
10988,0.109995,9.73218,1.33907,1.89,-3.64,-0.42,-22.4493,-47.4782,12.5281,1014.77
10994,0.186514,9.75131,1.28647,2.1,-2.73,-0.07,-21.6358,-46.4914,11.3755,1014.77
11000,0.095648,9.78001,1.2769,1.96,-3.71,0.63,-21.5776,-48.1259,10.2082,1014.79
11006,0.186514,9.74653,1.29125,2.03,-3.22,-0.14,-21.6939,-48.5268,12.2473,1014.79
11012,0.148254,9.76088,1.25777,1.96,-3.36,-0.14,-21.6939,-46.7073,12.6315,1014.75
11018,0.162602,9.7274,1.31516,1.82,-3.57,0.35,-21.3742,-47.2932,10.9765,1014.75
11024,0.162602,9.7561,1.28168,1.61,-3.5,0.49,-22.3912,-47.7866,12.2769,1014.78
11030,0.205643,9.78957,1.29125,1.75,-3.43,0,-21.1999,-46.8615,12.2178,1014.78
11036,0.210426,9.81827,1.23386,1.75,-2.94,-0.42,-21.4324,-46.6764,11.6858,1014.78
11042,0.229555,9.78479,1.29125,1.96,-3.36,-0.35,-21.5486,-48.4343,11.8188,1014.75
11048,0.157819,9.76088,1.2769,1.75,-3.08,0.07,-21.6648,-48.095,12.1439,1014.75
11054,0.196078,9.7561,1.30081,2.03,-3.29,-0.21,-21.5195,-46.7381,13.1782,1014.74
11060,0.153037,9.77523,1.26734,1.96,-3.5,-0.14,-21.6067,-48.0334,11.2277,1014.74
11066,0.172166,9.74653,1.32472,1.54,-3.08,-0.42,-21.7229,-47.2315,12.1143,1014.76
11072,0.172166,9.74653,1.31516,1.89,-3.36,-0.42,-21.8101,-46.4297,11.9961,1014.76
11078,0.191296,9.75131,1.26255,1.89,-3.29,0,-21.3452,-47.324,11.5824,1014.75
11084,0.13869,9.78957,1.23864,1.82,-3.71,-0.91,-21.8392,-47.91,11.8336,1014.75
11090,0.0573888,9.70827,1.28168,1.47,-3.01,-0.28,-22.1297,-47.1082,10.9174,1014.75
11096,0.148254,9.69871,1.36298,1.82,-3.36,0.21,-21.7229,-46.4297,12.0996,1014.77
11102,0.157819,9.72262,1.28168,1.89,-3.92,0.42,-21.7229,-47.7866,12.469,1014.77
11108,0.200861,9.74175,1.3056,1.75,-3.29,0.07,-20.9093,-47.5708,12.602,1014.72
11114,0.148254,9.77523,1.24821,2.1,-3.36,0.42,-21.3742,-46.2447,13.3703,1014.72
11120,0.176949,9.74653,1.24342,1.96,-3.71,0,-22.1878,-47.7866,12.8827,1014.76
11126,0.181731,9.68436,1.31038,1.89,-3.22,0.84,-21.752,-47.5708,11.2721,1014.76
11132,0.153037,9.74175,1.31994,1.82,-2.94,0.7,-21.1709,-46.1213,13.06,1014.77
11138,0.215208,9.74175,1.25299,2.1,-3.15,-0.28,-21.3742,-47.6324,11.9813,1014.77
11144,0.200861,9.77044,1.30081,1.96,-3.36,-0.21,-21.8101,-48.5268,11.8779,1014.77
11150,0.267814,9.76088,1.2769,1.96,-3.43,0.21,-21.4324,-47.6016,11.3016,1014.75
11156,0.253467,9.69392,1.37733,2.66,-2.8,-0.14,-21.2871,-46.6456,11.7745,1014.75
11162,0.153037,9.78001,1.26255,1.96,-3.43,-0.49,-21.0546,-48.0642,11.8484,1014.76
11168,0.205643,9.71305,1.32951,2.73,-2.87,0.21,-21.2871,-47.2315,10.9174,1014.76
11174,0.129125,9.78001,1.31038,2.1,-3.29,0.28,-21.2871,-46.7689,12.8384,1014.76
11180,0.23912,9.70349,1.33907,3.08,-2.8,-0.21,-21.752,-48.0025,12.07,1014.76
11186,0.162602,9.85653,1.29603,2.52,-3.78,17.5,-21.8682,-48.095,12.1587,1014.72
11192,0.267814,9.74653,1.25299,2.45,-2.66,-0.28,-20.212,-46.3989,12.5133,1014.72
11198,0.0143472,9.78479,1.29125,2.17,-3.43,-0.07,-21.5776,-47.8175,12.0552,1014.75
11204,0.157819,9.70827,1.30081,2.66,-3.5,0.49,-21.258,-48.0334,11.1686,1014.75
11210,0.148254,9.78957,1.23864,2.24,-3.85,0.14,-22.0135,-46.6764,10.5924,1014.75
11216,0.172166,9.78957,1.27212,2.31,-4.06,-0.07,-20.9965,-46.3063,12.1439,1014.75
11222,0.13869,9.78479,1.25777,2.24,-3.85,0.28,-21.1127,-47.8792,11.6267,1014.75
11228,0.153037,9.74175,1.29125,1.89,-3.85,0.7,-21.7229,-47.2007,11.6119,1014.78
11234,0.176949,9.73218,1.28168,1.61,-2.94,0.98,-21.8101,-46.954,12.0552,1014.78
11240,0.21999,9.77523,1.25299,2.1,-4.41,0,-21.8392,-47.3857,11.2721,1014.76
11246,0.210426,9.78001,1.30081,1.75,-3.01,-0.35,-22.3041,-47.4782,10.8436,1014.76
11252,0.234338,9.79436,1.26255,1.4,-3.29,0.7,-22.1588,-47.1698,11.7301,1014.79
11258,0.248685,9.77523,1.29603,1.75,-3.99,-0.42,-21.4033,-47.5091,10.3412,1014.79
11264,0.224773,9.76566,1.28168,1.96,-3.92,-0.14,-21.9554,-47.8792,11.804,1014.79
11270,0.224773,9.78001,1.28168,1.96,-3.85,0.21,-21.5486,-47.1698,11.9961,1014.8
11276,0.196078,9.78479,1.32472,1.96,-3.01,0,-21.258,-46.5839,12.3655,1014.8
11282,0.181731,9.7561,1.30081,2.17,-3.01,-0.07,-21.3161,-48.496,12.3951,1014.76
11288,0.167384,9.76566,1.3056,1.96,-3.08,0.14,-21.6939,-46.6456,12.2916,1014.76
11294,0.143472,9.78957,1.30081,1.89,-3.57,0.21,-22.2169,-47.8175,10.9027,1014.76
11300,0.210426,9.75131,1.2769,2.1,-3.5,0,-21.4033,-47.91,11.8188,1014.76
11306,0.13869,9.75131,1.26734,1.75,-3.64,-0.14,-21.752,-48.0642,12.8088,1014.75
11312,0.172166,9.76566,1.29125,2.17,-3.71,0.98,-20.7931,-46.5839,13.4294,1014.75
11318,0.191296,9.74653,1.29125,1.96,-3.5,0.21,-21.5195,-47.1698,12.4542,1014.75
11324,0.205643,9.77044,1.27212,1.82,-3.29,17.71,-21.6648,-48.0334,10.9765,1014.78
11330,0.176949,9.7274,1.29125,2.03,-3.78,-0.21,-21.7229,-46.954,13.06,1014.78
11336,0.200861,9.7561,1.29125,1.96,-3.99,0.35,-21.3161,-46.7073,12.336,1014.75
11342,0.181731,9.75131,1.31038,2.1,-3.29,0.91,-21.5776,-48.2492,12.3655,1014.75
11348,0.181731,9.75131,1.28168,2.52,-3.85,0.28,-21.7229,-46.8923,10.4298,1014.77
11354,0.200861,9.7561,1.3056,2.31,-3.99,-0.28,-21.258,-46.2755,12.2178,1014.77
11360,0.243902,9.78001,1.28168,2.17,-3.43,0.42,-21.1418,-47.7558,10.1491,1014.73
11366,0.272597,9.79914,1.25299,2.66,-3.01,0.14,-21.5776,-47.5399,11.6563,1014.73
11372,0.25825,9.79436,1.2769,1.68,-3.29,-0.14,-21.0546,-46.368,12.0848,1014.77
11378,0.172166,9.79914,1.26734,1.61,-3.43,-0.28,-21.4614,-47.2624,12.2769,1014.77
11384,0.210426,9.7561,1.26734,1.82,-3.15,0,-21.781,-47.6324,11.346,1014.77
11390,0.210426,9.81349,1.26734,1.75,-3.22,-0.28,-21.6358,-47.1082,13.0305,1014.76
11396,0.224773,9.78957,1.25299,1.61,-3.01,-0.91,-21.8973,-47.5091,10.9322,1014.76
11402,0.167384,9.77044,1.3056,1.75,-3.5,-0.21,-22.0426,-47.9408,10.6071,1014.77
11408,0.191296,9.73697,1.32472,1.61,-3.5,-0.35,-21.4324,-46.8615,11.7301,1014.77
11414,0.191296,9.70349,1.32951,1.96,-3.5,-0.49,-21.781,-46.7381,12.5428,1014.78
11420,0.167384,9.69392,1.32472,2.31,-3.43,0,-21.781,-48.0334,12.7202,1014.78
11426,0.148254,9.7274,1.33429,2.31,-3.64,0.63,-21.8682,-47.324,11.346,1014.77
11432,0.157819,9.72262,1.3056,2.1,-3.92,-0.42,-21.0256,-46.3063,12.9566,1014.77
11438,0.13869,9.67958,1.33907,2.94,-2.94,0.14,-21.5195,-47.139,11.804,1014.77
11444,0.13869,9.78957,1.26255,2.1,-3.92,0.98,-21.4614,-47.6633,10.9027,1014.78
11450,0.229555,9.69871,1.3056,2.66,-3.71,-0.14,-20.9093,-47.0465,11.7892,1014.78
11456,0.162602,9.76088,1.2769,2.66,-3.92,-0.35,-21.8392,-46.9848,13.7102,1014.77
11462,0.248685,9.77523,1.23864,2.52,-3.29,-0.21,-20.9965,-47.8175,11.3607,1014.77
11468,0.234338,9.76566,1.29603,2.59,-3.08,0.07,-20.7931,-47.4474,11.9813,1014.8
11474,0.153037,9.79914,1.29125,2.38,-3.64,0.35,-21.3452,-47.324,11.4198,1014.8
11480,0.205643,9.78479,1.26255,2.31,-3.64,-0.14,-21.258,-47.725,11.213,1014.79
11486,0.205643,9.78957,1.26734,2.24,-3.36,-0.14,-21.1418,-47.3549,10.8731,1014.79
11492,0.234338,9.77044,1.23386,2.38,-2.8,0.14,-21.5486,-46.9231,12.602,1014.79
11498,0.191296,9.77044,1.24342,1.75,-3.01,0.07,-21.8392,-48.496,9.83876,1014.74
11504,0.172166,9.7561,1.28647,2.45,-3.5,-0.77,-21.0546,-46.954,12.5872,1014.74
11510,0.148254,9.78001,1.29125,2.03,-3.01,-0.07,-21.3161,-46.4605,12.1439,1014.79
11516,0.21999,9.76566,1.26734,2.17,-3.08,0,-21.0256,-46.9848,12.0996,1014.79
11522,0.200861,9.77523,1.27212,1.96,-3.5,-0.56,-21.7229,-48.0334,11.5528,1014.77
11528,0.205643,9.76566,1.2769,1.96,-3.15,-0.21,-21.4614,-47.1082,11.1539,1014.77
11534,0.167384,9.77044,1.28168,1.89,-2.94,-0.49,-21.8682,-46.6456,12.9861,1014.77
11540,0.129125,9.7274,1.2769,1.96,-3.43,0.21,-22.0716,-47.8483,10.7549,1014.77
11546,0.162602,9.77523,1.28647,1.96,-3.29,0.56,-21.4905,-47.1698,10.6515,1014.76
11552,0.181731,9.75131,1.23386,2.31,-3.92,-0.21,-21.3161,-46.7073,11.7892,1014.76
11558,0.176949,9.7561,1.26734,2.45,-3.64,0.14,-20.9965,-47.6941,11.9666,1014.76
11564,0.181731,9.76088,1.24342,1.96,-3.43,0.49,-21.9554,-47.725,10.3559,1014.8
11570,0.196078,9.77044,1.25777,1.96,-3.36,-0.35,-21.5195,-46.7689,12.7202,1014.8
11576,0.253467,9.78479,1.23864,1.82,-3.43,-0.28,-21.3742,-46.6456,11.4642,1014.77
11582,0.286944,9.83261,1.20995,2.1,-3.29,-0.28,-21.9554,-48.0642,12.7793,1014.77
11588,0.234338,9.8087,1.25777,1.4,-3.5,-0.07,-21.6939,-46.8615,11.804,1014.77
11594,0.200861,9.77523,1.24342,1.47,-3.71,-0.35,-21.8392,-46.7381,11.3755,1014.77
11600,0.234338,9.77044,1.2769,1.33,-3.15,0.14,-21.6648,-47.91,11.9222,1014.77
11606,0.224773,9.77044,1.29125,1.4,-3.15,-0.7,-22.0135,-48.0025,11.4642,1014.77
11612,0.224773,9.78957,1.2769,1.47,-2.66,-1.47,-21.4033,-47.0157,11.5972,1014.77
11618,0.191296,9.76088,1.31038,1.26,-2.8,-0.42,-21.229,-47.4166,9.97175,1014.78
11624,0.282162,9.75131,1.20038,1.47,-2.66,-0.28,-22.1878,-48.681,12.07,1014.78
11630,0.0047824,9.75131,1.42516,1.82,-3.57,-1.12,-21.6939,-46.7689,10.8436,1014.73
11636,0.186514,9.7274,1.26734,2.24,-3.5,-0.56,-21.5486,-46.9231,12.6315,1014.73
11642,0.186514,9.77044,1.24821,1.89,-3.71,0,-21.9554,-48.1259,11.804,1014.74
11648,0.191296,9.70827,1.35342,1.68,-3.22,-0.21,-21.5195,-47.2624,10.6662,1014.74
11654,0.109995,9.80392,1.28647,2.1,-3.43,-0.28,-21.1709,-46.7689,11.3607,1014.74
11660,0.186514,9.77044,1.2769,2.24,-3.36,0.35,-21.4905,-48.8969,10.2082,1014.74
11666,0.153037,9.79914,1.23386,2.1,-2.66,0.28,-21.8101,-48.0025,11.1243,1014.74
11672,0.133907,9.79914,1.25299,2.1,-3.78,0.21,-21.1709,-46.5531,12.3803,1014.72
11678,0.191296,9.75131,1.29125,2.24,-3.43,-0.42,-21.1418,-47.5708,12.3064,1014.72
11684,0.167384,9.8087,1.21951,1.61,-3.01,-0.21,-21.5195,-48.1567,11.5824,1014.77
11690,0.272597,9.80392,1.21951,1.61,-3.5,-0.28,-20.9675,-46.8923,11.3755,1014.77
11696,0.248685,9.81349,1.20995,1.4,-3.01,-0.7,-21.4324,-46.8615,12.1143,1014.76
11702,0.229555,9.77044,1.21951,1.33,-2.8,-0.56,-21.4905,-48.0642,10.8288,1014.76
11708,0.167384,9.7561,1.29603,1.26,-3.01,-0.42,-22.3912,-46.8306,11.7006,1014.72
11714,0.234338,9.7561,1.31516,1.4,-3.01,-0.7,-21.6939,-46.8615,12.2916,1014.72
11720,0.248685,9.77044,1.28168,1.54,-2.73,-0.91,-21.258,-47.0465,10.5628,1014.74
11726,0.229555,9.78001,1.26255,1.12,-3.01,-0.56,-21.1418,-47.6633,11.7597,1014.74
11732,0.263032,9.79914,1.21473,1.33,-2.52,-0.63,-21.8101,-46.6764,11.7301,1014.74
11738,0.0286944,9.77044,1.3869,1.33,-3.22,-0.49,-21.1418,-47.8792,11.804,1014.76
11744,0.21999,9.7274,1.26734,1.89,-3.08,-0.63,-21.3452,-47.4782,9.29204,1014.76
11750,0.167384,9.76566,1.28168,1.4,-3.43,-0.63,-21.7229,-46.7998,12.3212,1014.76
11756,0.129125,9.70827,1.32472,2.03,-2.8,0.28,-20.9384,-46.9231,12.4246,1014.76
11762,0.11956,9.77044,1.28647,1.89,-3.64,-0.28,-21.4614,-48.7118,12.1439,1014.76
11768,0.157819,9.75131,1.25777,1.89,-3.71,-0.21,-21.1709,-46.7689,12.4099,1014.76
11774,0.186514,9.74175,1.28647,1.82,-3.22,0.21,-20.7641,-47.0157,12.4099,1014.75
11780,0.200861,9.7561,1.28647,1.68,-3.43,0,-21.5486,-48.4034,10.7401,1014.75
11786,0.186514,9.78479,1.26255,2.1,-3.71,-0.42,-21.4324,-48.3109,12.2769,1014.75
11792,0.243902,9.7274,1.27212,2.31,-3.22,-0.28,-21.8392,-46.7073,13.5033,1014.77
11798,0.210426,9.75131,1.29125,1.68,-3.01,-0.07,-21.0256,-48.1259,12.4837,1014.77
11804,0.234338,9.80392,1.25299,1.82,-3.01,-0.28,-21.9554,-47.5091,11.9961,1014.78
11810,0.172166,9.80392,1.21951,1.61,-3.43,-0.56,-21.1999,-47.0465,12.9418,1014.78
11816,0.196078,9.8087,1.26734,1.19,-3.15,-0.07,-21.1418,-46.8615,12.1439,1014.75
11822,0.200861,9.79914,1.28647,1.96,-3.08,-0.35,-21.0256,-48.095,10.9913,1014.75
11828,0.186514,9.79914,1.26734,1.33,-2.66,-0.84,-21.3742,-46.7689,11.2277,1014.73
11834,0.133907,9.77044,1.29125,1.96,-3.36,-0.28,-21.3742,-47.324,11.7597,1014.73
11840,0.157819,9.78479,1.25777,1.54,-3.22,-0.56,-21.229,-47.725,11.2277,1014.76
11846,0.162602,9.75131,1.25777,1.75,-2.8,-0.07,-21.3452,-47.6941,10.7253,1014.76
11852,0.162602,9.7561,1.26255,1.26,-3.36,-0.49,-20.9093,-46.7689,13.0157,1014.76
11858,0.153037,9.75131,1.26255,2.24,-3.36,-0.7,-21.4033,-48.0025,11.3164,1014.77
11864,0.153037,9.73697,1.25299,2.03,-3.22,0.07,-21.4324,-48.496,11.5972,1014.77
11870,0.167384,9.75131,1.23864,1.33,-3.08,-0.14,-20.9675,-47.0157,12.5724,1014.74
11876,0.153037,9.75131,1.29603,1.82,-3.43,0,-21.2871,-47.2932,12.3064,1014.74
11882,0.186514,9.70827,1.28647,1.61,-3.57,0.28,-21.4324,-48.1876,12.5133,1014.76
11888,0.186514,9.73697,1.31038,2.1,-3.36,0.21,-21.4614,-46.7073,12.07,1014.76
11894,0.191296,9.77523,1.26255,1.75,-3.15,-0.21,-21.4324,-47.2932,12.5428,1014.78
11900,0.200861,9.76566,1.26255,1.96,-3.29,-0.21,-21.8973,-48.2184,11.1243,1014.78
11906,0.172166,9.78957,1.23386,1.75,-2.73,-0.49,-21.0837,-48.1567,10.8879,1014.78
11912,0.215208,9.79436,1.24342,1.33,-2.73,-0.21,-21.5486,-46.9848,11.3312,1014.8
11918,0.186514,9.81349,1.24342,1.68,-2.94,-0.56,-21.2871,-48.1259,9.35114,1014.8
11924,0.181731,9.77523,1.29125,1.82,-3.29,-0.77,-20.8803,-48.3726,11.8779,1014.75
11930,0.186514,9.78479,1.30081,1.26,-3.29,-0.42,-21.6648,-46.5222,10.9765,1014.75
11936,0.143472,9.79436,1.28168,1.61,-2.59,-0.56,-21.229,-46.6456,11.9222,1014.72
11942,0.176949,9.7561,1.3056,1.26,-3.01,-0.14,-21.8101,-47.8483,11.2425,1014.72
11948,0.186514,9.79436,1.25299,1.26,-2.94,-0.84,-21.1709,-47.0465,12.3064,1014.79
11954,0.133907,9.74175,1.24821,1.54,-3.15,-0.63,-21.1709,-46.7998,12.7497,1014.79
11960,0.143472,9.78479,1.30081,1.4,-3.15,0.21,-21.5486,-48.496,11.1095,1014.79
11966,0.157819,9.74653,1.33429,1.47,-3.36,-0.07,-21.7229,-46.9231,12.7497,1014.78
11972,0.133907,9.73218,1.30081,1.61,-3.08,-0.28,-22.1007,-46.368,13.1339,1014.78
11978,0.148254,9.73697,1.29125,1.54,-3.43,-0.21,-22.1007,-47.6941,12.203,1014.76
11984,0.148254,9.72262,1.29603,1.68,-3.5,0.07,-21.3161,-48.1876,11.5528,1014.76
11990,0.181731,9.76088,1.25777,1.54,-3.5,-0.28,-21.5195,-46.8306,12.469,1014.75
11996,0.13869,9.78001,1.29125,1.4,-3.43,0,-21.781,-47.0465,11.4346,1014.75
12002,0.215208,9.78479,1.29603,1.75,-3.5,0.21,-21.5195,-48.0334,11.8336,1014.77
12008,0.186514,9.7274,1.31038,1.54,-3.01,-0.07,-21.6939,-47.324,12.3508,1014.77
12014,0.176949,9.7561,1.3056,1.61,-3.15,0.14,-20.6478,-46.6147,11.8188,1014.77
12020,0.21999,9.78957,1.24342,1.89,-3.22,0,-21.6648,-47.6633,11.5381,1014.77
12026,0.162602,9.78001,1.3056,1.68,-3.57,-0.49,-21.5776,-47.2315,12.2621,1014.77
12032,0.234338,9.78001,1.28168,2.1,-2.66,-0.63,-21.3742,-46.7689,13.3999,1014.78
12038,0.13869,9.81349,1.31516,1.33,-3.22,-0.28,-21.7229,-47.7558,12.1882,1014.78
12044,0.243902,9.71784,1.31516,1.47,-2.87,-0.91,-21.781,-47.7866,11.4198,1014.77
12050,0.13869,9.78001,1.30081,1.82,-2.8,-0.77,-22.0426,-46.7998,13.2964,1014.77
12056,0.176949,9.77044,1.26255,1.68,-3.08,-0.42,-21.258,-47.8483,12.6611,1014.78
12062,0.186514,9.76088,1.21473,1.4,-1.82,-0.07,-21.4614,-48.0025,11.4789,1014.78
12068,0.10043,9.76088,1.31516,1.47,-3.43,-0.28,-22.1878,-46.8923,11.5824,1014.79
12074,0.176949,9.70827,1.28647,2.03,-3.08,-0.35,-21.752,-46.183,11.9813,1014.79
12080,0.143472,9.79436,1.23386,1.33,-3.43,-0.49,-21.3161,-47.6016,11.4789,1014.79
12086,0.176949,9.7561,1.23864,1.75,-3.15,0.07,-21.4324,-47.5708,11.346,1014.77
12092,0.124342,9.73697,1.3056,1.33,-2.8,0,-21.1709,-46.4605,12.5724,1014.77
12098,0.148254,9.7561,1.3056,1.68,-3.43,-0.14,-21.9844,-47.1698,11.4937,1014.74
12104,0.153037,9.71784,1.32951,2.03,-3.92,0.07,-21.7229,-47.2932,11.5085,1014.74
12110,0.167384,9.74653,1.28168,1.61,-3.71,-0.14,-21.258,-46.6147,12.4246,1014.76
12116,0.21999,9.74653,1.30081,2.03,-3.43,-0.21,-21.3742,-47.0773,11.6415,1014.76
12122,0.133907,9.78957,1.31516,1.4,-3.15,0.07,-21.258,-48.2184,11.7892,1014.77
12128,0.253467,9.8087,1.1956,2.1,-3.08,0,-21.0546,-47.6941,12.7793,1014.77
12134,0.191296,9.8374,1.24342,1.33,-3.36,-0.56,-21.6939,-46.6147,12.4099,1014.77
12140,0.172166,9.78001,1.31038,1.33,-3.15,-0.91,-21.781,-48.5268,11.346,1014.77
12146,0.13869,9.77044,1.28168,1.54,-3.15,-0.56,-22.3912,-47.6633,11.3755,1014.77
12152,0.153037,9.73218,1.26734,1.26,-2.59,0.07,-21.1709,-47.324,12.6167,1014.75
12158,0.10043,9.75131,1.34385,1.89,-2.73,-0.07,-21.4324,-47.6016,12.0404,1014.75
12164,0.186514,9.78001,1.31038,1.47,-3.36,-0.49,-22.0135,-47.3857,12.4542,1014.78
12170,0.172166,9.78001,1.29125,1.68,-3.5,0.07,-22.1007,-46.4914,12.0848,1014.78
12176,0.153037,9.74175,1.29125,2.17,-3.64,-0.21,-21.3452,-47.6324,13.0009,1014.77
12182,0.0908656,9.7274,1.28647,1.54,-3.29,0.07,-20.9093,-48.7427,11.213,1014.77
12188,0.172166,9.78001,1.29125,1.68,-3.15,-0.21,-21.6939,-47.6016,11.2869,1014.78
12194,0.172166,9.78479,1.28168,1.47,-3.15,0.14,-21.6648,-47.7558,12.4246,1014.78
12200,0.181731,9.70349,1.30081,1.89,-3.57,0.07,-21.3452,-48.6502,12.1587,1014.78
12206,0.153037,9.76566,1.29125,1.68,-3.57,-0.07,-20.9384,-47.1698,11.804,1014.75
12212,0.172166,9.74653,1.29125,2.1,-3.71,-17.85,-22.3622,-46.7998,12.4985,1014.75
12218,0.191296,9.76566,1.31038,2.45,-3.29,-0.14,-23.0886,-48.5885,9.77966,1014.73
12224,0.133907,9.74175,1.31038,1.75,-2.87,0,-21.5486,-48.7118,10.7992,1014.73
12230,0.272597,9.77044,1.3056,1.96,-3.43,0.14,-21.3742,-46.6147,12.1143,1014.74
12236,0.196078,9.81827,1.23386,1.4,-3.29,-0.49,-21.2871,-46.8306,13.06,1014.74
12242,0.243902,9.73697,1.28647,1.82,-3.01,-0.49,-21.1418,-48.8044,11.0357,1014.77
12248,0.172166,9.85653,1.26255,1.47,-3.01,-0.21,-21.4324,-47.2315,11.7006,1014.77
12254,0.205643,9.73697,1.33907,1.82,-2.8,-0.63,-21.4614,-47.4474,11.5676,1014.77
12260,0.143472,9.79914,1.25299,1.47,-2.73,-1.12,-21.4614,-48.4343,10.1491,1014.76
12266,0.11956,9.7561,1.29125,1.12,-3.01,-0.42,-21.1418,-48.3726,12.2178,1014.76
12272,0.157819,9.71784,1.35342,1.75,-3.01,-0.49,-21.1999,-46.0596,11.0948,1014.78
12278,0.133907,9.75131,1.28168,1.4,-3.22,-0.7,-20.6769,-47.9408,11.9666,1014.78
12284,0.172166,9.76088,1.28647,1.68,-3.01,-0.28,-21.4614,-47.6016,10.4003,1014.77
12290,0.13869,9.71784,1.31038,1.54,-3.15,-0.35,-21.5776,-46.5839,12.203,1014.77
12296,0.133907,9.7274,1.32472,1.54,-3.57,-0.21,-20.735,-47.0773,11.5381,1014.76
12302,0.148254,9.73697,1.34864,1.96,-3.29,-0.49,-21.5486,-48.0334,11.0061,1014.76
12308,0.153037,9.71784,1.3056,1.89,-3.85,-0.35,-20.9675,-47.0157,10.4741,1014.76
12314,0.148254,9.77523,1.28168,1.75,-3.43,-0.21,-20.8803,-46.954,11.7745,1014.75
12320,0.176949,9.77523,1.28647,1.96,-2.94,0.07,-21.5776,-47.91,11.1391,1014.75
12326,0.167384,9.78001,1.2769,1.89,-3.92,-0.42,-21.8101,-48.095,11.9075,1014.73
12332,0.191296,9.78479,1.26255,1.75,-3.43,0.07,-21.3161,-46.6456,11.804,1014.73
12338,0.248685,9.77044,1.29125,1.4,-3.5,-0.49,-20.5025,-47.5399,11.9075,1014.78
12344,0.196078,9.78479,1.28647,1.68,-3.22,-0.49,-22.4493,-48.3418,11.346,1014.78
12350,0.133907,9.75131,1.29125,1.4,-2.73,-0.14,-21.1127,-46.8923,11.6267,1014.77
12356,0.143472,9.77044,1.33429,1.26,-3.5,-0.7,-21.3452,-47.4474,12.3212,1014.77
12362,0.191296,9.71784,1.33429,1.82,-3.29,-0.84,-22.0426,-49.1128,12.1291,1014.79
12368,0.234338,9.76566,1.28647,1.75,-2.66,-0.49,-21.4033,-47.5399,11.2573,1014.79
12374,0.109995,9.76566,1.31038,1.54,-3.22,-0.21,-20.7059,-47.4166,11.2277,1014.79
12380,0.114778,9.74175,1.31516,1.61,-3.22,-0.63,-21.4324,-48.1567,11.1095,1014.76
12386,0.143472,9.68436,1.37255,1.89,-3.22,-0.42,-21.4905,-47.8792,10.7697,1014.76
12392,0.162602,9.74653,1.32951,2.03,-3.29,-0.07,-21.4324,-47.0773,12.0109,1014.77
12398,0.153037,9.7561,1.3056,1.89,-3.5,-0.14,-21.5195,-48.7427,12.6463,1014.77
12404,0.143472,9.7274,1.32951,1.89,-3.43,0,-21.6067,-48.6193,11.4198,1014.79
12410,0.133907,9.73697,1.29603,1.96,-3.64,-0.07,-21.2871,-47.2007,12.7645,1014.79
12416,0.13869,9.76088,1.31516,1.96,-3.57,0.28,-20.9675,-47.8792,11.9518,1014.79
12422,0.148254,9.74653,1.3056,1.82,-3.57,0.28,-21.6939,-48.9894,11.5824,1014.79
12428,0.153037,9.77044,1.3582,1.96,-3.64,-0.35,-21.8682,-47.7866,11.6858,1014.79
12434,0.191296,9.77523,1.27212,1.61,-3.5,-0.07,-21.5486,-47.5399,12.6463,1014.73
12440,0.229555,9.77523,1.2769,1.82,-3.57,-0.14,-20.9965,-48.7427,10.814,1014.73
12446,0.176949,9.76566,1.29125,1.75,-3.01,-0.07,-21.5486,-48.496,11.5824,1014.74
12452,0.210426,9.77044,1.30081,1.47,-3.64,-0.56,-21.4033,-46.8306,12.7793,1014.74
12458,0.263032,9.77044,1.29603,1.47,-3.08,-0.63,-21.2871,-47.6941,11.0504,1014.76
12464,0.205643,9.78479,1.27212,1.75,-3.01,-1.05,-21.0256,-48.3418,11.6415,1014.76
12470,0.114778,9.81349,1.30081,1.19,-3.08,-0.84,-21.4905,-46.954,11.6563,1014.78
12476,0.11956,9.7561,1.32951,0.84,-2.87,-0.77,-21.6067,-47.5399,11.08,1014.78
12482,0.13869,9.72262,1.33429,1.96,-3.43,-0.63,-21.3161,-48.095,11.0652,1014.78
12488,0.172166,9.73218,1.33907,1.47,-3.36,-0.7,-21.5486,-47.6941,10.8879,1014.76
12494,0.148254,9.78001,1.31994,1.19,-3.29,-0.63,-21.3161,-47.1082,11.4642,1014.76
12500,0.162602,9.71305,1.3056,1.19,-3.43,-0.35,-21.4033,-48.681,10.9765,1014.78
12506,0.167384,9.74175,1.32472,1.47,-3.57,-0.28,-21.5195,-47.7558,11.4789,1014.78
12512,0.181731,9.75131,1.34864,1.96,-3.36,-0.35,-21.1127,-46.954,12.203,1014.77
12518,0.162602,9.75131,1.34385,1.82,-2.94,-0.21,-21.229,-48.4034,11.2721,1014.77
12524,0.153037,9.73697,1.33429,1.68,-3.43,-0.56,-22.1297,-48.5885,11.4789,1014.76
12530,0.162602,9.74175,1.32472,2.31,-3.29,-0.21,-21.229,-46.5531,12.1291,1014.76
12536,0.143472,9.77523,1.33907,1.89,-3.29,0.07,-21.3742,-48.0642,11.7449,1014.74
12542,0.167384,9.79436,1.3056,1.89,-3.5,-0.49,-22.1878,-48.9586,11.6858,1014.74
12548,0.196078,9.77044,1.29125,1.68,-3.08,-0.42,-21.229,-46.8615,12.2916,1014.74
12554,0.162602,9.77523,1.30081,1.96,-3.5,-0.49,-21.1999,-47.2315,12.1734,1014.74
12560,0.172166,9.77044,1.28647,1.75,-3.08,-0.7,-21.2871,-48.1876,11.6858,1014.74
12566,0.224773,9.81827,1.2769,1.75,-3.36,-0.98,-20.7931,-47.139,11.1243,1014.76
12572,0.205643,9.78479,1.2769,1.82,-3.57,-0.28,-20.9093,-47.0465,12.6463,1014.76
12578,0.114778,9.76088,1.34864,1.68,-3.43,-0.35,-21.2871,-47.8175,11.2277,1014.76
12584,0.11956,9.78479,1.27212,1.47,-2.8,-1.05,-21.4614,-47.6324,11.3903,1014.76
12590,0.109995,9.71784,1.34864,1.19,-3.01,-0.49,-20.8803,-46.6147,11.8336,1014.78
12596,0.0813008,9.74653,1.37255,1.75,-3.43,-0.21,-21.1418,-47.4166,10.681,1014.78
12602,0.143472,9.74653,1.3582,2.03,-3.15,-0.49,-21.8101,-48.4034,10.7992,1014.78
12608,0.0908656,9.73218,1.36298,2.24,-3.22,-0.28,-20.9384,-46.7073,11.5972,1014.78
12614,0.181731,9.73218,1.34385,1.75,-2.8,0,-21.2871,-46.4605,12.6906,1014.78
12620,0.0621712,9.76566,1.38211,2.17,-3.5,-0.07,-21.7229,-48.2801,10.7549,1014.78
12626,0.157819,9.72262,1.31516,1.75,-2.94,0.35,-21.2871,-47.5708,10.2082,1014.78
12632,0.109995,9.75131,1.31994,2.31,-3.57,0.42,-21.0256,-46.954,11.1243,1014.77
12638,0.153037,9.74653,1.28647,2.17,-3.64,-0.14,-21.4614,-47.5708,11.5528,1014.77
12644,0.181731,9.79436,1.29125,2.1,-3.64,-0.35,-21.4324,-48.6193,10.7549,1014.76
12650,0.129125,9.7561,1.32951,2.24,-3.5,0.42,-20.8512,-46.5222,12.8384,1014.76
12656,0.148254,9.78957,1.28647,1.75,-3.43,0.28,-21.1709,-47.324,11.9813,1014.76
12662,0.167384,9.76566,1.33907,1.89,-3.71,-0.7,-21.0546,-48.3726,11.9222,1014.76
12668,0.191296,9.78479,1.30081,1.54,-3.36,0,-20.9384,-47.4166,11.7745,1014.76
12674,0.196078,9.7561,1.32951,2.03,-3.29,-0.21,-20.4444,-46.8923,12.5133,1014.79
12680,0.124342,9.75131,1.35342,1.54,-3.43,-0.35,-20.2991,-47.9408,11.5528,1014.79
12686,0.133907,9.76566,1.34864,1.96,-3.43,-0.49,-21.3161,-47.4474,11.5085,1014.79
12692,0.13869,9.73697,1.36777,1.82,-3.71,-0.35,-21.1127,-46.8306,12.336,1014.79
12698,0.162602,9.7274,1.34864,2.03,-3.43,-0.42,-21.5776,-47.6941,11.4642,1014.75
12704,0.105213,9.7274,1.33429,1.89,-3.29,0.14,-20.9675,-47.7866,10.8731,1014.75
12710,0.143472,9.76566,1.37255,2.24,-3.08,0,-21.4614,-46.7998,11.6267,1014.76
12716,0.133907,9.70827,1.34864,2.1,-3.36,0.14,-20.6188,-47.6941,9.4398,1014.76
12722,0.148254,9.7561,1.31994,2.1,-3.64,0.07,-21.4324,-48.2492,11.3164,1014.76
12728,0.148254,9.73218,1.27212,1.96,-3.71,0.14,-21.3742,-47.6324,12.3655,1014.77
12734,0.176949,9.7561,1.35342,1.75,-3.29,-0.28,-20.8512,-47.6941,12.4542,1014.77
12740,0.176949,9.7561,1.3056,2.03,-3.15,0.14,-20.8512,-49.0511,10.8583,1014.74
12746,0.153037,9.74175,1.32951,2.1,-3.08,-0.07,-20.6478,-47.2007,12.5281,1014.74
12752,0.172166,9.75131,1.30081,2.1,-3.29,-0.7,-21.1418,-46.7381,11.5381,1014.75
12758,0.210426,9.77523,1.27212,1.82,-3.01,-0.07,-20.8222,-47.725,10.7845,1014.75
12764,0.186514,9.81349,1.2769,1.47,-3.15,-0.56,-20.8803,-48.2492,12.4099,1014.76
12770,0.109995,9.77523,1.28168,1.89,-3.43,-0.35,-20.8512,-47.6941,12.9418,1014.76
12776,0.143472,9.7561,1.37255,1.68,-3.22,-0.56,-20.2701,-47.5708,12.1143,1014.76
12782,0.153037,9.7561,1.35342,1.54,-3.36,-1.05,-21.0256,-47.9408,10.814,1014.79
12788,0.143472,9.77523,1.31038,1.61,-3.22,-0.63,-21.1418,-47.2624,12.5428,1014.79
12794,0.157819,9.71305,1.35342,1.68,-2.94,0.14,-20.5897,-46.7998,12.8679,1014.79
12800,0.124342,9.75131,1.32472,1.4,-3.08,0.14,-21.258,-48.3418,12.3655,1014.79
12806,0.124342,9.71305,1.34385,1.68,-3.43,-0.63,-20.9384,-47.2624,12.7202,1014.75
12812,0.13869,9.73697,1.32951,2.1,-3.29,-0.49,-20.735,-46.8615,11.8927,1014.75
12818,0.172166,9.74653,1.32472,1.89,-2.59,0.21,-20.7641,-47.4474,12.2621,1014.77
12824,0.13869,9.73697,1.34385,1.4,-3.15,0.42,-20.9965,-48.5885,11.3016,1014.77
12830,0.133907,9.77523,1.33907,1.75,-3.5,0.21,-20.4735,-47.139,11.3164,1014.77
12836,0.143472,9.75131,1.35342,2.03,-3.43,-0.14,-20.7931,-47.91,11.6119,1014.76
12842,0.162602,9.7561,1.32951,1.89,-3.43,0.07,-20.8803,-48.4343,12.8679,1014.76
12848,0.153037,9.73697,1.32472,1.82,-3.5,-0.21,-21.1999,-48.0642,12.6611,1014.78
12854,0.162602,9.76088,1.32951,1.33,-3.29,0.35,-20.7931,-46.7998,12.3951,1014.78
12860,0.23912,9.77044,1.29603,1.75,-3.15,0,-21.3452,-48.4034,10.2673,1014.76
12866,0.234338,9.77044,1.30081,1.54,-3.15,-0.28,-21.4033,-47.5708,11.5381,1014.76
12872,0.224773,9.83261,1.28168,1.54,-3.01,-0.42,-21.8392,-46.8306,12.4099,1014.76
12878,0.143472,9.79436,1.32472,1.54,-2.87,-0.91,-20.9675,-48.0025,12.8088,1014.76
12884,0.133907,9.77044,1.32951,1.61,-2.8,-0.91,-22.0426,-48.1259,10.5924,1014.76
12890,0.143472,9.77044,1.33907,2.03,-2.66,-0.49,-21.4905,-46.4605,13.3555,1014.76
12896,0.124342,9.74175,1.32472,1.33,-2.8,-0.49,-21.8101,-47.9408,12.6758,1014.76
12902,0.13869,9.72262,1.32951,1.75,-3.22,-0.42,-21.6939,-47.9408,11.4642,1014.8
12908,0.229555,9.84696,1.24821,1.82,-2.8,-0.35,-20.4735,-47.0465,12.1734,1014.8
12914,0.0526064,9.72262,1.34864,1.82,-2.94,-0.63,-21.752,-46.9848,12.7202,1014.79
12920,0.0669536,9.71784,1.36777,2.03,-3.29,-0.28,-21.0546,-48.4343,12.2178,1014.79
12926,0.172166,9.75131,1.28168,1.68,-3.22,0.14,-21.781,-47.6016,11.8188,1014.77
12932,0.11956,9.7274,1.36777,1.82,-3.15,0,-22.4203,-47.9408,12.1587,1014.77
12938,0.210426,9.77523,1.31994,2.1,-3.15,-0.21,-21.0256,-48.4343,10.8583,1014.77
12944,0.13869,9.71784,1.32472,2.17,-3.57,-0.28,-20.9965,-47.5708,11.9222,1014.77
12950,0.196078,9.77044,1.34385,1.96,-3.22,0,-21.5195,-47.0157,11.9075,1014.77
12956,0.196078,9.73697,1.31038,1.96,-3.29,-0.42,-21.8392,-48.6502,10.1934,1014.75
12962,0.172166,9.76088,1.31516,2.03,-3.01,0,-21.9554,-49.1436,11.6563,1014.75
12968,0.205643,9.76566,1.28647,1.4,-3.08,-0.14,-21.6939,-47.6633,11.8779,1014.77
12974,0.167384,9.76566,1.31994,1.61,-2.87,0,-21.4033,-46.9848,11.4789,1014.77
12980,0.148254,9.7561,1.33429,2.17,-3.29,0.14,-22.1007,-48.1259,10.8436,1014.76
12986,0.153037,9.78001,1.25777,1.82,-2.87,-0.28,-22.2169,-48.2801,10.7992,1014.76
12992,0.10043,9.74653,1.36298,2.17,-3.43,-0.07,-21.4324,-47.5091,11.9222,1014.76
12998,0.143472,9.68914,1.40603,1.54,-3.22,-0.07,-21.6358,-48.4343,11.9075,1014.76
13004,0.114778,9.74175,1.38211,1.68,-3.08,0.07,-22.1297,-48.095,11.4198,1014.76
13010,0.133907,9.77044,1.3056,2.24,-3.36,-0.07,-21.1999,-47.4166,12.4246,1014.79
13016,0.114778,9.8087,1.31994,1.96,-3.36,-0.28,-21.9263,-48.095,11.671,1014.79
13022,0.157819,9.82305,1.24821,1.26,-3.64,-0.14,-20.9965,-48.4651,11.6119,1014.77
13028,0.143472,9.74653,1.31516,1.68,-3.15,0.28,-21.3742,-47.8483,12.5281,1014.77
13034,0.0860832,9.73218,1.36777,2.24,-3.36,0.07,-22.7399,-48.1567,11.8779,1014.74
13040,0.143472,9.73218,1.37255,1.75,-3.22,1.05,-22.0426,-48.4651,10.7697,1014.74
13046,0.143472,9.74653,1.29125,1.68,-3.5,0.21,-21.1999,-46.5839,12.0996,1014.78
13052,0.11956,9.73697,1.32951,1.82,-3.57,-0.14,-21.8392,-47.0465,12.5872,1014.78
13058,0.157819,9.78479,1.33429,2.1,-3.57,0.07,-22.3331,-47.8483,11.5676,1014.77
13064,0.133907,9.78957,1.28647,1.89,-3.43,-0.14,-21.4324,-48.5268,12.0257,1014.77
13070,0.205643,9.76566,1.31994,1.68,-3.5,0.49,-21.9844,-46.954,13.3999,1014.77
13076,0.153037,9.82305,1.31038,1.89,-3.57,-0.35,-21.5195,-48.1259,12.4837,1014.76
13082,0.23912,9.78479,1.32951,1.82,-3.29,-0.56,-22.1297,-48.0642,11.8927,1014.76
13088,0.196078,9.75131,1.37733,2.03,-3.29,-0.21,-21.3452,-46.7998,11.0357,1014.76
13094,0.143472,9.81349,1.31994,1.75,-3.36,-0.56,-21.781,-47.2624,12.5872,1014.76
13100,0.167384,9.78001,1.31516,1.89,-3.29,-0.14,-21.6358,-48.1876,12.203,1014.72
13106,0.11956,9.77523,1.31516,1.61,-3.15,-0.14,-21.8101,-47.6633,12.5281,1014.72
13112,0.129125,9.76088,1.36298,1.47,-2.94,0,-21.6939,-46.2755,12.5576,1014.75
13118,0.0908656,9.76088,1.37255,1.68,-3.36,-0.77,-21.4614,-47.7558,11.4494,1014.75
13124,0.10043,9.71784,1.34864,1.61,-3.57,-0.28,-21.4614,-47.0773,11.4494,1014.75
13130,0.11956,9.71305,1.34864,2.24,-3.5,0.14,-21.1418,-46.954,13.0896,1014.76
13136,0.133907,9.75131,1.33429,2.1,-3.22,-0.14,-21.3161,-49.1744,10.6071,1014.76
13142,0.148254,9.74653,1.32472,1.75,-3.36,0.07,-21.4324,-47.8792,10.8879,1014.75
13148,0.109995,9.77523,1.31994,2.45,-3.64,-0.28,-21.229,-46.7381,12.3951,1014.75
13154,0.157819,9.7561,1.31038,1.61,-3.08,-0.07,-21.1418,-47.324,11.8484,1014.76
13160,0.143472,9.74653,1.32472,1.75,-3.15,-0.14,-21.3452,-49.0511,10.0604,1014.76
13166,0.148254,9.7561,1.31038,1.61,-3.64,0.28,-21.1418,-48.2492,11.5085,1014.77
13172,0.143472,9.74653,1.31994,1.82,-3.5,0.14,-21.2871,-47.1082,10.5185,1014.77
13178,0.157819,9.7561,1.33907,1.68,-3.43,0.21,-21.0837,-47.6633,12.0996,1014.77
13184,0.162602,9.76566,1.33907,1.89,-3.5,0.07,-21.6358,-48.0334,11.3903,1014.76
13190,0.191296,9.74653,1.31038,1.89,-3.43,-0.56,-21.3452,-47.3857,12.4542,1014.76
13196,0.167384,9.78479,1.31994,1.96,-3.57,-0.35,-21.5195,-48.1876,11.9222,1014.75
13202,0.181731,9.76088,1.29125,1.68,-2.87,0.49,-22.3622,-49.0511,10.4003,1014.75
13208,0.176949,9.80392,1.34385,1.68,-3.01,-0.35,-21.3161,-47.1698,10.0752,1014.76
13214,0.186514,9.76566,1.31038,1.89,-3.29,-0.84,-21.3742,-46.6456,10.3116,1014.76
13220,0.11956,9.78957,1.3056,1.75,-3.15,0.21,-20.9384,-48.4034,10.2821,1014.75
13226,0.095648,9.77523,1.35342,1.75,-3.15,0.07,-21.5195,-47.3857,11.5824,1014.75
13232,0.157819,9.78001,1.3582,1.61,-3.64,-0.49,-20.2991,-46.5839,11.8484,1014.79
13238,0.176949,9.77044,1.32951,1.61,-3.57,-0.49,-21.8392,-47.8175,10.5924,1014.79
13244,0.143472,9.76088,1.34864,2.1,-3.15,0.14,-21.8392,-47.725,11.4642,1014.79
13250,0.095648,9.74653,1.37733,1.61,-3.01,0.14,-20.7931,-47.4166,11.5676,1014.76
13256,0.124342,9.7561,1.36777,1.61,-3.01,0,-20.9675,-47.8175,10.4889,1014.76
13262,0.148254,9.76088,1.3869,2.17,-3.36,-0.49,-21.2871,-47.8483,10.9618,1014.75
13268,0.13869,9.73697,1.33429,1.89,-3.29,-0.28,-20.8222,-46.9848,11.5972,1014.75
13274,0.191296,9.74653,1.32472,2.1,-3.22,-0.28,-21.4614,-47.4166,10.9765,1014.77
13280,0.124342,9.76566,1.31516,2.03,-3.08,0.28,-21.4905,-47.91,10.3707,1014.77
13286,0.162602,9.77044,1.31038,1.82,-3.43,-0.35,-21.2871,-47.5708,10.2821,1014.75
13292,0.167384,9.77523,1.36298,2.03,-3.15,-0.56,-20.8512,-46.6147,12.6463,1014.75
13298,0.153037,9.74175,1.3056,1.89,-2.87,0,-21.1999,-49.0202,11.0061,1014.75
13304,0.196078,9.7561,1.33907,1.75,-3.5,-0.07,-21.7229,-48.2801,11.2573,1014.76
13310,0.13869,9.74653,1.32472,2.17,-2.87,-0.42,-20.4154,-46.5222,11.5676,1014.76
13316,0.143472,9.78001,1.29603,1.82,-3.08,-0.14,-21.1418,-47.9408,10.5776,1014.75
13322,0.153037,9.77523,1.3582,2.17,-3.01,-0.35,-21.4905,-48.2801,10.947,1014.75
13328,0.162602,9.76566,1.3582,1.89,-3.22,0,-20.9675,-46.7689,12.2916,1014.78
13334,0.143472,9.76566,1.32472,2.31,-3.43,-0.42,-21.3161,-47.2007,10.9027,1014.78
13340,0.143472,9.75131,1.31994,2.1,-3.57,-0.42,-21.3452,-48.8352,10.9027,1014.75
13346,0.148254,9.76566,1.30081,1.96,-3.29,-0.42,-21.1418,-47.2007,12.2325,1014.75
13352,0.133907,9.74175,1.33429,1.82,-2.73,0.07,-21.0546,-47.1698,11.5972,1014.75
13358,0.0430416,9.74175,1.36298,2.1,-3.64,0.07,-21.6067,-47.725,11.6858,1014.77
13364,0.143472,9.75131,1.31994,1.89,-3.15,0.07,-21.0837,-48.3418,10.0456,1014.77
13370,0.157819,9.76088,1.34864,1.82,-3.29,-0.49,-21.4033,-46.954,11.8631,1014.77
13376,0.148254,9.78001,1.33429,1.96,-3.29,-0.14,-21.1418,-47.6941,10.7401,1014.77
13382,0.11956,9.73697,1.33429,1.61,-3.57,0.28,-21.1999,-48.4343,10.8436,1014.78
13388,0.114778,9.75131,1.37733,2.31,-3.36,-0.14,-20.8222,-47.2007,11.3755,1014.78
13394,0.196078,9.76088,1.32951,2.1,-3.01,0.07,-21.8101,-47.1698,10.6958,1014.74
13400,0.205643,9.77044,1.3056,1.68,-2.87,-0.14,-21.5486,-47.8175,11.0061,1014.74
13406,0.196078,9.7561,1.32472,1.75,-2.87,-0.42,-21.1418,-47.2007,11.2573,1014.75
13412,0.109995,9.73218,1.37733,1.82,-3.29,-0.49,-21.0256,-47.1698,12.1143,1014.75
13418,0.11956,9.77044,1.32472,2.31,-3.64,-0.21,-21.258,-48.1259,11.937,1014.75
13424,0.167384,9.77044,1.31516,1.89,-3.57,-0.91,-21.6939,-47.9408,11.3312,1014.76
13430,0.162602,9.78479,1.28647,1.82,-3.36,-0.28,-21.3742,-46.5839,11.7597,1014.76
13436,0.124342,9.76088,1.33907,1.75,-3.15,-0.14,-21.6648,-48.1567,10.8288,1014.75
13442,0.13869,9.74653,1.31038,1.54,-3.29,-0.77,-21.4614,-48.681,11.213,1014.75
13448,0.11956,9.76566,1.33907,1.89,-3.78,-0.84,-21.8973,-47.4166,11.3312,1014.77
13454,0.167384,9.7561,1.35342,1.75,-3.57,-0.21,-21.1127,-47.725,11.9075,1014.77
13460,0.13869,9.74175,1.33907,2.24,-3.5,0.07,-20.9093,-48.6502,10.9913,1014.77
13466,0.13869,9.7561,1.35342,2.24,-3.15,-0.42,-21.4905,-47.6633,11.3312,1014.77
13472,0.148254,9.7561,1.31038,1.82,-2.94,-0.7,-21.3452,-47.5399,10.6071,1014.77
13478,0.129125,9.73697,1.35342,1.82,-3.29,0,-21.8682,-47.7558,10.4446,1014.76
13484,0.133907,9.76088,1.34385,2.1,-3.5,-0.35,-21.1709,-48.4343,11.2869,1014.76
13490,0.133907,9.76566,1.31516,2.03,-3.01,-0.49,-21.229,-47.2932,10.9618,1014.79
13496,0.129125,9.74653,1.32472,1.96,-3.08,-0.35,-21.5195,-48.1876,11.4051,1014.79
13502,0.129125,9.76566,1.30081,2.1,-3.22,-0.14,-21.258,-48.8352,10.6367,1014.78
13508,0.172166,9.75131,1.31994,2.1,-3.22,-0.28,-21.6067,-47.2932,11.3016,1014.78
13514,0.205643,9.78001,1.29125,2.03,-3.08,-0.7,-21.1418,-47.2315,10.5776,1014.73
13520,0.21999,9.78001,1.30081,1.82,-2.73,-0.21,-21.3161,-49.2053,10.223,1014.73
13526,0.129125,8.58441,1.29125,1.75,-2.87,-0.49,-21.3452,-47.2932,11.3903,1014.73
13532,0.114778,9.81349,1.2769,1.4,-3.08,-0.98,-21.2871,-47.2624,11.1391,1014.78
13538,0.148254,9.74175,1.33429,1.68,-3.15,-0.91,-20.9675,-47.8792,11.7006,1014.78
13544,0.13869,9.76566,1.36298,1.75,-3.29,-0.35,-20.735,-48.496,10.6515,1014.76
13550,0.162602,9.75131,1.29125,1.33,-3.08,-0.49,-20.9965,-47.3857,10.8583,1014.76
13556,0.181731,9.83261,1.20516,1.4,-3.15,-0.14,-21.229,-48.095,11.0504,1014.78
13562,0.243902,9.77044,1.27212,1.61,-2.59,-0.21,-21.3452,-49.0202,10.9322,1014.78
13568,-0.0047824,9.73697,1.39168,1.75,-3.36,-0.21,-20.6188,-47.3857,11.4789,1014.72
13574,0.109995,9.69871,1.36298,1.96,-3.5,-0.21,-21.5776,-47.8792,10.6515,1014.72
13580,0.0860832,9.77044,1.34864,2.03,-3.78,-0.35,-21.229,-48.8352,10.4446,1014.79
13586,0.124342,9.72262,1.33907,1.82,-2.94,0.28,-21.258,-47.139,11.1982,1014.79
13592,0.10043,9.76566,1.33429,2.17,-3.64,0.35,-21.8101,-46.3989,12.2621,1014.79
13598,0.095648,9.74175,1.36298,1.82,-3.85,-0.21,-20.9093,-48.6502,10.3264,1014.73
13604,0.162602,9.77523,1.28647,1.82,-3.5,0.35,-21.1709,-48.1567,10.6662,1014.73
13610,0.167384,9.76566,1.3056,1.89,-3.29,0.14,-20.9965,-46.1213,12.6611,1014.75
13616,0.176949,9.77044,1.29603,1.61,-3.15,-0.77,-21.5195,-48.2492,11.0209,1014.75
13622,0.133907,9.7561,1.32951,2.1,-3.36,-0.21,-21.4033,-48.4034,10.8731,1014.75
13628,0.196078,9.74175,1.33907,1.75,-3.01,0.14,-20.4444,-47.1698,12.602,1014.75
13634,0.143472,9.77523,1.33429,1.82,-2.8,-0.49,-20.4735,-48.095,11.9518,1014.75
13640,0.13869,9.76566,1.3582,1.54,-3.08,-0.77,-21.3742,-49.1436,11.4937,1014.75
13646,0.0908656,9.74175,1.36777,2.17,-3.36,0.07,-21.6067,-47.6016,11.1834,1014.75
13652,0.129125,9.74175,1.31516,2.24,-2.94,-0.49,-21.4905,-46.8923,11.213,1014.77
13658,0.124342,9.7561,1.36777,2.24,-2.94,0.14,-21.229,-48.3418,9.91265,1014.77
13664,0.143472,9.76566,1.34385,1.89,-2.94,-0.21,-21.7229,-48.1259,11.6415,1014.76
13670,0.124342,9.7561,1.35342,1.96,-3.57,-0.63,-21.1999,-46.7689,10.7845,1014.76
13676,0.11956,9.7561,1.32951,2.17,-3.01,-0.14,-21.3161,-47.5708,10.1195,1014.76
13682,0.0860832,9.72262,1.34864,1.96,-3.29,-0.14,-21.1709,-48.2184,10.1343,1014.76
13688,0.129125,9.76088,1.34864,2.1,-3.57,0.35,-21.0256,-47.1698,11.671,1014.74
13694,0.124342,9.75131,1.36777,2.31,-3.92,-0.28,-21.1418,-48.1259,12.0552,1014.74
13700,0.148254,9.78957,1.28168,1.89,-3.29,0.35,-22.246,-48.9277,11.0948,1014.74
13706,0.162602,9.78957,1.3056,2.1,-3.43,-0.14,-21.1999,-47.9717,11.5233,1014.8
13712,0.11956,9.77044,1.34385,1.96,-3.22,-0.21,-21.4614,-46.8923,10.947,1014.8
13718,0.11956,9.76088,1.32951,2.17,-3.64,-0.28,-21.6939,-48.866,9.67622,1014.73
13724,0.181731,9.76566,1.32472,1.68,-3.64,-0.35,-21.4033,-47.2932,10.7845,1014.73
13730,0.167384,9.79914,1.28647,1.68,-2.73,-0.14,-21.6067,-46.9848,10.6958,1014.75
13736,0.176949,9.81349,1.31038,1.96,-3.29,-0.77,-20.7931,-47.9717,11.4198,1014.75
13742,0.129125,9.73697,1.39168,1.4,-3.08,-0.42,-21.9844,-48.3109,10.9765,1014.81
13748,0.10043,9.74653,1.37255,2.17,-3.01,-0.42,-21.6067,-47.1698,11.7449,1014.81
13754,0.105213,9.73218,1.38211,2.24,-3.5,0,-21.229,-47.0465,10.814,1014.76
13760,0.11956,9.75131,1.36298,1.82,-3.08,-0.7,-21.258,-48.681,9.66145,1014.76
13766,0.114778,9.74175,1.35342,1.96,-3.29,0.07,-21.6358,-47.7866,12.0996,1014.76
13772,0.095648,9.70349,1.35342,2.45,-3.43,0.28,-21.229,-47.6941,10.2673,1014.75
13778,0.143472,9.74653,1.36298,1.82,-3.29,-0.21,-21.4033,-48.0642,9.97175,1014.75
13784,0.105213,9.72262,1.34385,2.38,-3.5,17.64,-20.7931,-48.1567,9.82399,1014.78
13790,0.105213,9.76088,1.35342,2.1,-3.22,-0.21,-20.6478,-47.0465,10.3264,1014.78
13796,0.11956,9.77044,1.32472,2.1,-3.5,-0.28,-21.0546,-47.2624,10.5924,1014.78
13802,0.129125,9.75131,1.34864,2.17,-3.15,0.56,-21.5776,-48.5576,10.7253,1014.78
13808,0.124342,9.78001,1.37255,2.38,-3.78,0.49,-21.3161,-46.6456,9.88309,1014.76
13814,0.162602,9.7561,1.32472,2.31,-3.78,-0.42,-21.4614,-47.3549,9.67622,1014.76
13820,0.196078,9.78957,1.31516,1.96,-3.64,-0.14,-21.258,-48.3726,10.7697,1014.76
13826,0.176949,9.75131,1.33907,1.68,-2.94,0.35,-21.258,-47.8175,11.5381,1014.75
13832,0.167384,9.7561,1.3582,1.96,-3.64,0.28,-21.1999,-46.8615,10.8583,1014.75
13838,0.176949,9.7561,1.32951,1.82,-3.15,-0.42,-21.5776,-48.5885,11.0504,1014.79
13844,0.148254,9.76566,1.3582,2.17,-3.36,-0.35,-21.1418,-48.2801,11.3755,1014.79
13850,0.13869,9.78001,1.33429,1.54,-3.01,-0.35,-21.4033,-47.2007,11.671,1014.74
13856,0.124342,9.76088,1.3869,1.89,-3.57,-0.28,-21.8101,-47.4474,11.4789,1014.74
13862,0.124342,9.71784,1.40603,1.96,-3.22,-0.21,-21.6067,-48.4651,10.7549,1014.75
13868,0.11956,9.78479,1.32472,2.45,-3.15,-0.07,-21.4324,-47.4474,12.1439,1014.75
13874,0.095648,9.74653,1.37255,2.03,-3.15,-0.14,-21.6067,-47.4474,11.4937,1014.75
13880,0.11956,9.73218,1.31516,2.17,-3.01,-0.49,-21.8682,-49.1128,11.8927,1014.78
13886,0.095648,9.74175,1.3869,2.1,-3.22,0,-21.6067,-47.1698,11.6119,1014.78
13892,0.13869,9.78001,1.31038,2.24,-3.22,0.21,-20.9093,-46.8306,11.7154,1014.74
13898,0.11956,9.74653,1.35342,1.68,-3.15,0.14,-21.3452,-48.7118,9.73533,1014.74
13904,0.13869,9.76088,1.3056,1.89,-3.22,0,-21.229,-48.095,10.0456,1014.76
13910,0.11956,9.7274,1.34385,2.03,-3.5,0.42,-21.3742,-46.2447,11.5972,1014.76
13916,0.11956,9.77044,1.34385,1.96,-3.22,-0.07,-21.6067,-48.0334,11.3312,1014.76
13922,0.129125,9.76566,1.31038,1.82,-3.5,0.21,-21.258,-48.4651,10.6958,1014.76
13928,0.153037,9.75131,1.34385,1.89,-3.5,0.07,-21.229,-46.8615,11.4937,1014.77
13934,0.157819,9.77044,1.34864,2.03,-3.85,0.42,-21.3161,-47.4782,11.0209,1014.77
13940,0.153037,9.75131,1.33429,1.82,-3.43,-0.14,-21.4614,-48.9894,10.5333,1014.77
13946,0.124342,9.74175,1.34864,1.96,-2.8,-0.42,-21.0256,-47.1082,10.814,1014.78
13952,0.267814,9.73218,1.40124,1.61,-3.92,0.14,-21.1709,-47.0157,10.7106,1014.78
13958,0.186514,9.69871,1.3582,2.45,-3.08,-0.07,-21.2871,-48.681,11.4198,1014.79
13964,0.23912,9.72262,1.37733,2.17,-4.06,-0.07,-21.9263,-47.8792,11.0357,1014.79
13970,0.186514,9.78001,1.24342,2.1,-2.38,0.21,-20.5316,-46.7689,11.6119,1014.77
13976,0.13869,9.76566,1.31994,1.89,-3.43,-0.14,-21.4324,-47.3549,10.1786,1014.77
13982,0.10043,9.68914,1.43472,2.45,-3.22,-0.07,-21.6939,-47.9717,10.8879,1014.75
13988,0.0860832,9.79436,1.31994,1.82,-3.43,0.63,-20.8512,-46.954,13.2964,1014.75
13994,0.186514,9.77523,1.2769,2.1,-2.8,-0.07,-20.6478,-46.8306,11.4937,1014.75
14000,0.0669536,9.80392,1.31994,1.61,-3.22,0.21,-21.3161,-48.4651,10.6662,1014.77
14006,0.143472,9.70827,1.34864,1.75,-3.15,0.07,-20.9675,-47.7558,10.9913,1014.77
14012,0.095648,9.76088,1.38211,1.75,-3.5,-0.07,-20.9384,-47.2624,11.3607,1014.79
14018,0.157819,9.7561,1.27212,1.89,-3.57,0.07,-20.7059,-48.3726,10.0309,1014.79
14024,0.11956,9.7274,1.35342,1.89,-3.71,-0.07,-20.6478,-47.8175,11.6267,1014.76
14030,0.167384,9.73697,1.33907,2.03,-3.5,0,-20.2991,-46.7998,12.1882,1014.76
14036,0.172166,9.73218,1.33429,2.1,-3.15,0.21,-20.9675,-48.1876,11.3903,1014.72
14042,0.172166,9.73697,1.3582,2.1,-3.71,-0.21,-21.3742,-48.2492,10.6662,1014.72
14048,0.186514,9.79914,1.31516,2.1,-3.64,-0.42,-20.6188,-46.2447,11.937,1014.72
14054,0.21999,9.78479,1.28168,2.03,-3.22,-0.21,-20.8512,-47.3857,12.0552,1014.76
14060,0.129125,9.7274,1.33429,1.96,-3.22,-0.42,-20.4444,-47.3549,9.97175,1014.76
14066,0.109995,9.74175,1.37255,1.68,-3.29,-0.35,-20.9965,-47.4166,9.79444,1014.76
14072,0.11956,9.77044,1.36298,2.03,-3.36,-0.21,-20.9675,-46.7381,11.5381,1014.76
14078,0.13869,9.73697,1.33429,2.1,-3.29,0,-21.5195,-48.2492,10.1195,1014.75
14084,0.133907,9.76088,1.3056,2.1,-3.43,-0.84,-21.6939,-47.6941,11.8188,1014.75
14090,0.143472,9.73218,1.35342,1.89,-2.94,-0.42,-21.1418,-47.5399,12.0552,1014.72
14096,0.114778,9.76088,1.29125,1.96,-3.36,-0.14,-21.229,-48.0642,10.6958,1014.72
14102,0.129125,9.78001,1.3056,1.96,-2.87,-0.21,-21.5486,-48.6193,11.2721,1014.77
14108,0.133907,9.7561,1.33429,2.1,-3.08,-0.28,-21.6648,-47.2932,12.1143,1014.77
14114,0.143472,9.74653,1.33429,1.75,-3.36,0.21,-20.9384,-47.2315,12.5576,1014.77
14120,0.13869,9.74175,1.34385,2.24,-3.36,0.14,-22.2169,-48.866,10.6367,1014.75
14126,0.124342,9.78001,1.3582,2.03,-3.22,17.71,-21.7229,-47.6016,11.7892,1014.75
14132,0.143472,9.74653,1.35342,1.89,-3.01,0.07,-20.7641,-46.6147,12.7054,1014.76
14138,0.133907,9.77523,1.32951,1.82,-3.5,-0.28,-21.6939,-48.1876,10.5776,1014.76
14144,0.143472,9.76566,1.3056,1.75,-3.5,-0.28,-21.8392,-47.8175,11.9075,1014.77
14150,0.172166,9.76088,1.29603,1.89,-3.64,-0.14,-21.6648,-47.6324,10.9322,1014.77
14156,0.143472,9.76566,1.36298,2.03,-3.29,0.07,-21.5195,-48.1259,10.2377,1014.75
14162,0.191296,9.75131,1.31038,2.03,-3.01,-0.21,-21.1999,-48.3109,11.3016,1014.75
14168,0.124342,9.74653,1.3056,2.38,-3.29,-0.7,-21.0546,-46.954,10.9027,1014.75
14174,0.129125,9.75131,1.36298,1.68,-3.36,-0.07,-21.0546,-47.324,10.1786,1014.74
14180,0.133907,9.73697,1.32951,1.61,-3.15,0.07,-20.8803,-48.6502,11.6267,1014.74
14186,0.186514,9.74653,1.3582,2.24,-3.43,-0.63,-21.0546,-47.6016,11.6415,1014.76
14192,0.148254,9.77523,1.33429,2.24,-2.87,-0.63,-21.7229,-47.5091,13.0452,1014.76
14198,0.114778,9.7561,1.35342,2.03,-3.43,-0.77,-20.9675,-48.6193,11.3607,1014.76
14204,0.143472,9.76566,1.34864,2.24,-3.15,-0.07,-21.1709,-47.725,11.8779,1014.76
14210,0.114778,9.76088,1.30081,1.68,-3.43,0.07,-20.8512,-46.9848,13.7693,1014.77
14216,0.133907,9.7561,1.33429,2.17,-3.57,-0.28,-21.1999,-47.725,10.7253,1014.77
14222,0.10043,9.74175,1.31038,1.54,-3.64,-0.28,-21.0256,-48.496,11.6415,1014.77
14228,0.095648,9.73697,1.32951,2.24,-3.08,0,-20.7641,-47.4166,12.1143,1014.77
14234,0.13869,9.74175,1.3056,1.47,-3.22,0.14,-20.8803,-48.0642,11.8779,1014.77
14240,0.133907,9.76088,1.3582,1.96,-3.71,0.14,-21.4324,-48.6193,11.5528,1014.8
14246,0.157819,9.76088,1.34385,1.75,-3.36,0.07,-21.1709,-47.1698,11.2425,1014.8
14252,0.181731,9.76566,1.32472,1.54,-3.36,0.28,-21.1127,-46.9231,12.2325,1014.78
14258,0.10043,9.7274,1.34385,1.75,-3.22,0.35,-21.8101,-48.9894,10.681,1014.78
14264,0.176949,9.71784,1.45863,2.1,-3.43,0,-21.5195,-48.7735,9.39547,1014.77
14270,0.243902,9.78957,1.26255,2.1,-3.15,-0.07,-21.229,-46.5222,13.2669,1014.77
14276,0.181731,9.79914,1.30081,2.17,-3.22,0,-21.229,-47.9717,10.9618,1014.77
14282,0.095648,9.8087,1.34385,1.82,-3.29,-0.35,-21.2871,-47.2007,10.3412,1014.77
14288,0.124342,9.7561,1.35342,1.82,-3.57,0,-21.1709,-46.5531,12.1882,1014.77
14294,0.124342,9.74653,1.33907,1.96,-3.43,-0.21,-20.5607,-47.3549,13.9023,1014.76
14300,0.13869,9.74175,1.32472,2.17,-3.22,-0.28,-21.229,-48.095,11.213,1014.76
14306,0.0908656,9.77523,1.32951,1.68,-3.71,-0.07,-21.6358,-47.0773,11.1686,1014.76
14312,0.0860832,9.78479,1.3056,2.17,-3.43,-0.14,-20.8803,-46.9231,12.4985,1014.76
14318,0.133907,9.75131,1.31516,1.89,-3.08,-0.14,-21.3742,-47.6633,11.346,1014.77
14324,0.181731,9.75131,1.32472,1.4,-3.15,0.28,-21.6067,-48.0025,11.9666,1014.77
14330,0.153037,9.73218,1.34385,2.24,-3.64,-0.35,-21.4905,-46.2138,11.4789,1014.77
14336,0.13869,9.73218,1.36298,1.96,-3.5,-0.21,-21.781,-48.3109,11.937,1014.77
14342,0.157819,9.75131,1.32951,2.52,-3.71,-0.28,-21.1709,-47.0773,11.213,1014.77
14348,0.13869,9.7561,1.34864,1.82,-3.57,0.14,-21.1127,-47.0157,11.4346,1014.78
14354,0.148254,9.76088,1.33907,2.03,-3.57,-0.07,-21.4905,-47.6941,12.1882,1014.78
14360,0.129125,9.74175,1.35342,1.75,-3.5,-0.07,-20.8222,-48.6193,11.8188,1014.74
14366,0.172166,9.7274,1.30081,2.38,-4.06,-0.42,-23.1177,-47.91,10.1786,1014.74
14372,0.157819,9.78001,1.29603,2.03,-3.43,0,-21.4033,-47.5091,12.9714,1014.75
14378,0.129125,9.74653,1.33429,2.24,-3.08,0,-21.6358,-48.5268,11.0652,1014.75
14384,0.162602,9.7561,1.31994,2.03,-3.29,-0.84,-21.4033,-47.324,11.7154,1014.76
14390,0.133907,9.8087,1.31516,1.89,-2.94,-0.42,-22.0426,-47.3549,11.4642,1014.76
14396,0.129125,9.77044,1.34385,1.61,-3.22,-0.07,-21.6358,-48.095,11.6267,1014.76
14402,0.143472,9.78957,1.33429,2.38,-3.64,-0.49,-21.2871,-47.6633,11.2721,1014.76
14408,0.114778,9.7561,1.38211,1.96,-3.43,-0.21,-21.2871,-46.9848,12.5428,1014.76
14414,0.114778,9.76566,1.33907,1.96,-3.71,-0.35,-20.3573,-47.5708,11.5676,1014.78
14420,0.133907,9.73697,1.33907,2.03,-3.57,-0.07,-21.1709,-48.496,11.1982,1014.78
14426,0.105213,9.74175,1.34864,1.82,-3.5,-0.28,-20.9384,-47.6633,11.8779,1014.76
14432,0.129125,9.75131,1.36298,1.96,-3.57,-0.35,-21.229,-47.5091,12.9566,1014.76
14438,0.114778,9.74653,1.3582,1.89,-3.57,0.07,-21.258,-48.4651,12.0109,1014.8
14444,0.153037,9.74653,1.35342,1.89,-3.57,0.21,-20.735,-48.1259,11.08,1014.8
14450,0.153037,9.76566,1.34385,1.82,-3.08,0,-21.1418,-46.8615,12.8532,1014.78
14456,0.114778,9.76566,1.34864,2.31,-3.43,0.28,-20.5316,-48.1567,11.8779,1014.78
14462,0.11956,9.74653,1.37733,2.24,-3.15,0.28,-21.229,-48.6502,11.3016,1014.78
14468,0.13869,9.77523,1.33429,2.03,-3.36,0.21,-20.8222,-47.0773,11.1391,1014.76
14474,0.129125,9.7561,1.33907,1.47,-3.29,-0.14,-21.1999,-48.1567,12.336,1014.76
14480,0.172166,9.78001,1.31994,2.03,-3.5,0.07,-20.9965,-48.4651,11.2721,1014.77
14486,0.210426,9.78001,1.32951,1.75,-3.43,0,-21.1999,-46.6456,12.2621,1014.77
14492,0.23912,9.74653,1.33907,2.03,-2.94,-0.91,-20.8803,-47.324,12.2178,1014.76
14498,0.153037,9.76566,1.33429,1.61,-3.15,-0.35,-20.9675,-48.0642,11.5233,1014.76
14504,0.124342,9.78479,1.33429,1.75,-3.01,-0.42,-21.8101,-47.8483,11.8484,1014.8
14510,0.133907,9.74175,1.37733,2.31,-3.36,-0.84,-21.0256,-47.0465,10.8288,1014.8
14516,0.124342,9.75131,1.37255,1.96,-3.22,-0.28,-21.258,-47.8792,11.5676,1014.8
14522,0.143472,9.76566,1.32472,1.68,-3.08,-0.07,-21.6939,-48.2184,10.7401,1014.75
14528,0.105213,9.7274,1.33907,1.68,-3.01,-0.56,-21.0256,-47.2624,10.3559,1014.75
14534,0.133907,9.7561,1.31038,1.96,-3.29,0,-21.1127,-48.1567,11.9813,1014.76
14540,0.148254,9.74653,1.33907,2.1,-3.08,-0.07,-20.5897,-48.5268,11.6267,1014.76
14546,0.0908656,9.77044,1.3582,1.47,-3.01,-0.07,-21.1127,-47.8175,12.4985,1014.78
14552,0.129125,9.74175,1.34864,2.1,-3.85,0.14,-20.7641,-47.4782,12.4985,1014.78
14558,0.11956,9.78001,1.31038,1.96,-3.57,0.35,-21.5195,-47.5708,11.7449,1014.8
14564,0.11956,9.77523,1.32951,1.89,-3.5,-0.14,-21.8392,-47.5091,12.5133,1014.8
14570,0.133907,9.76088,1.28647,1.54,-3.5,0.07,-21.7229,-46.4605,12.6906,1014.74
14576,0.11956,9.77044,1.36298,2.17,-3.71,-0.21,-20.9384,-47.7558,11.9518,1014.74
14582,0.191296,9.75131,1.3582,1.47,-3.5,0.21,-21.5486,-48.2492,11.9222,1014.74
14588,0.196078,9.78001,1.33907,2.1,-3.5,-0.21,-21.4614,-45.7821,11.1539,1014.79
14594,0.162602,9.81349,1.3056,1.61,-3.43,-0.21,-21.5486,-46.9848,12.6315,1014.79
14600,0.143472,9.71784,1.3582,2.1,-3.29,-0.28,-20.8222,-47.8483,10.2968,1014.76
14606,0.162602,9.75131,1.36777,1.96,-3.08,-0.63,-20.5607,-47.324,12.3508,1014.76
14612,0.157819,9.77523,1.31038,1.96,-3.22,-0.42,-20.8803,-47.324,12.0996,1014.77
14618,0.11956,9.77044,1.34864,2.24,-3.01,0.28,-21.5776,-48.1876,11.5824,1014.77
14624,0.124342,9.73697,1.36777,2.03,-3.29,0.07,-21.6067,-47.2315,10.9322,1014.74
14630,0.167384,9.75131,1.36298,2.03,-3.08,-0.63,-20.6478,-47.0773,13.3555,1014.74
14636,0.13869,9.74175,1.34864,2.24,-3.29,-0.35,-21.8392,-47.9717,12.2621,1014.74
14642,0.105213,9.76566,1.32951,1.82,-3.29,0.7,-21.1709,-47.6941,11.346,1014.79
14648,0.129125,9.76088,1.32472,2.24,-3.36,-0.28,-21.3161,-46.6764,12.5576,1014.79
14654,0.105213,9.76088,1.33429,1.54,-2.73,-0.56,-21.229,-47.7866,11.7301,1014.79
14660,0.129125,9.73218,1.33907,2.03,-3.43,0.42,-20.6478,-48.8352,11.7449,1014.79
14666,0.181731,9.7561,1.33429,1.96,-3.57,0.35,-21.1127,-47.8175,12.3803,1014.77
14672,0.129125,9.76088,1.34864,2.24,-3.78,-0.49,-21.6939,-47.2315,11.346,1014.77
14678,0.133907,9.7274,1.38211,2.17,-3.5,-0.28,-22.3912,-48.0025,11.6563,1014.79
14684,0.148254,9.77523,1.33907,2.1,-3.64,-0.7,-21.8973,-47.2624,12.1587,1014.79
14690,0.133907,9.76088,1.33907,1.68,-3.5,0,-21.1418,-46.6456,12.7349,1014.79
14696,0.153037,9.72262,1.33907,2.1,-3.29,0,-21.1127,-48.7427,12.8088,1014.77
14702,0.143472,9.73697,1.31994,1.89,-3.29,-0.28,-21.5195,-48.496,11.9813,1014.77
14708,0.148254,9.7561,1.32951,1.89,-3.01,-0.07,-20.9675,-47.3549,12.9123,1014.8
14714,0.162602,9.73697,1.3582,2.03,-3.64,-0.14,-21.1709,-47.9717,13.0009,1014.8
14720,0.172166,9.73218,1.3582,1.96,-3.08,0.07,-21.229,-48.3726,12.7054,1014.78
14726,0.13869,9.7561,1.33429,2.31,-3.01,-0.07,-21.258,-47.6324,13.2521,1014.78
14732,0.105213,9.77523,1.33429,2.03,-3.36,0,-21.2871,-46.9231,13.1043,1014.76
14738,0.124342,9.72262,1.36777,2.45,-3.29,0.07,-21.1418,-47.8483,11.8336,1014.76
14744,0.143472,9.74175,1.35342,2.45,-3.22,-0.28,-20.5607,-47.5708,12.3655,1014.74
14750,0.109995,9.75131,1.31994,1.96,-3.5,0.28,-20.735,-47.1698,12.6906,1014.74
14756,0.13869,9.77523,1.31516,2.38,-3.29,0.28,-21.4614,-48.1876,11.7745,1014.74
14762,0.114778,9.7274,1.34385,1.82,-3.08,-0.14,-21.4614,-47.5708,11.7154,1014.74
14768,0.129125,9.75131,1.33429,2.03,-3.36,0.35,-21.1418,-46.4297,12.4542,1014.74
14774,0.11956,9.76088,1.33907,1.68,-3.36,0.28,-21.3742,-47.5091,11.5676,1014.77
14780,0.124342,9.75131,1.31516,2.24,-3.43,-0.28,-21.1418,-48.1876,10.7845,1014.77
14786,0.13869,9.74653,1.31516,1.89,-3.15,0.07,-20.9384,-46.368,11.7449,1014.77
14792,0.157819,9.76566,1.37733,2.59,-2.8,0,-21.5195,-47.6324,12.469,1014.77
14798,0.148254,9.75131,1.33907,2.03,-3.15,0.07,-20.8803,-48.5576,11.804,1014.74
14804,0.191296,9.73697,1.3582,1.96,-3.64,-0.07,-20.8222,-47.7558,10.3855,1014.74
14810,0.210426,9.78957,1.32472,2.31,-3.5,-17.78,-21.6067,-46.5839,11.4789,1014.74
14816,0.172166,9.8087,1.29125,2.17,-3.36,-0.49,-20.9093,-47.8792,11.9075,1014.77
14822,0.13869,9.77523,1.36777,2.17,-3.57,0.14,-21.9844,-47.9717,11.1243,1014.77
14828,0.133907,9.74175,1.34864,1.75,-3.43,0.07,-20.9384,-47.1082,12.1439,1014.76
14834,0.129125,9.76088,1.36777,1.82,-3.22,-0.28,-21.8392,-48.095,10.9913,1014.76
14840,0.13869,9.7561,1.34864,2.17,-3.22,-0.42,-20.9093,-48.4034,11.4789,1014.78
14846,0.129125,9.76088,1.32951,2.03,-3.43,-0.21,-21.4614,-47.3857,12.3951,1014.78
14852,0.105213,9.74653,1.32472,2.52,-3.5,-0.14,-20.7641,-48.1567,12.0552,1014.78
14858,0.129125,9.78001,1.33907,2.17,-3.29,-0.28,-21.5776,-48.496,12.3951,1014.78
14864,0.13869,9.78479,1.3056,1.82,-3.5,0.07,-21.2871,-48.1567,11.5824,1014.78
14870,0.133907,9.74175,1.32951,2.1,-3.15,0.35,-20.8222,-47.725,13.2964,1014.79
14876,0.133907,9.74653,1.36777,1.89,-3.08,0.14,-20.9675,-49.3286,13.6363,1014.79
14882,0.11956,9.7561,1.34385,2.03,-3.71,-0.35,-20.9675,-49.2978,12.4099,1014.73
14888,0.13869,9.74175,1.34864,2.03,-3.57,0.63,-20.7059,-47.6941,11.0504,1014.73
14894,0.11956,9.77044,1.32951,2.1,-3.5,0.42,-20.9675,-48.5885,13.2669,1014.75
14900,0.133907,9.7561,1.3582,2.17,-3.08,0.14,-21.4033,-48.7735,12.0848,1014.75
14906,0.143472,9.74653,1.34385,1.96,-3.29,0.35,-20.6769,-47.6633,12.9714,1014.77
14912,0.157819,9.7561,1.34864,2.38,-3.57,0.21,-21.1127,-47.6324,12.5576,1014.77
14918,0.162602,9.78479,1.32472,2.24,-3.71,0.07,-21.4033,-48.681,11.9222,1014.77
14924,0.176949,9.74175,1.32951,1.61,-3.64,0.21,-21.8682,-47.5399,11.7154,1014.77
14930,0.143472,9.78001,1.33907,2.45,-3.43,0.49,-21.752,-46.7998,11.9813,1014.77
14936,0.181731,9.78957,1.32951,1.89,-3.22,-0.21,-21.1127,-47.91,11.5085,1014.77
14942,0.196078,9.77523,1.34385,2.03,-3.22,-0.07,-22.0135,-48.3726,12.4099,1014.77
14948,0.133907,9.7561,1.3582,1.75,-3.43,-0.42,-21.3161,-46.9848,12.4837,1014.76
14954,0.124342,9.7561,1.33907,2.17,-3.36,-0.14,-21.5776,-47.4166,11.1539,1014.76
14960,0.133907,9.7274,1.31994,2.1,-3.36,0.07,-21.1709,-48.8969,10.5333,1014.76
14966,0.162602,9.77044,1.35342,2.31,-3.08,-0.14,-21.1418,-47.2315,12.4246,1014.76
14972,0.11956,9.75131,1.31516,1.82,-3.43,0.35,-21.0837,-47.6941,11.937,1014.77
14978,0.133907,9.74653,1.35342,2.03,-3.5,0,-20.8512,-49.7295,11.9222,1014.77
14984,0.11956,9.73218,1.35342,1.89,-3.22,0.21,-21.1127,-48.1259,11.8188,1014.77
14990,0.148254,9.76566,1.3582,2.17,-3.15,-0.14,-21.7229,-47.324,11.4051,1014.76
14996,0.157819,9.78957,1.32951,2.17,-3.43,-0.28,-21.8101,-48.2184,9.73533,1014.76
15002,0.133907,9.77523,1.31994,1.89,-2.94,0.56,-20.9965,-48.5885,10.415,1014.74
15008,0.13869,9.71784,1.32951,2.38,-3.15,0.21,-21.5195,-46.954,12.7497,1014.74
15014,0.157819,9.75131,1.34385,1.75,-3.22,0.07,-21.5195,-48.496,12.2178,1014.76
15020,0.181731,9.76566,1.36777,2.45,-3.29,0.14,-20.5316,-48.5885,11.1095,1014.76
15026,0.181731,9.8087,1.32951,2.24,-3.43,-0.21,-21.8101,-47.3549,11.0357,1014.73
15032,0.176949,9.78957,1.32472,2.31,-3.64,-0.14,-21.752,-47.6016,11.4789,1014.73
15038,0.186514,9.78957,1.25777,1.82,-3.22,0.28,-21.1418,-48.6502,11.7597,1014.73
15044,0.153037,9.81349,1.34864,1.96,-3.64,-0.42,-21.3452,-47.5399,11.804,1014.75
15050,0.176949,9.73697,1.32951,1.82,-3.08,0.07,-21.6648,-47.0465,12.8532,1014.75
15056,0.172166,9.7561,1.35342,2.45,-3.36,0.21,-21.8682,-48.095,11.804,1014.77
15062,0.172166,9.74175,1.34385,2.03,-3.29,-0.49,-21.4033,-48.681,11.7449,1014.77
15068,0.095648,9.74653,1.31516,2.03,-3.29,-0.21,-21.4905,-47.1082,11.7892,1014.78
15074,0.129125,9.77044,1.33429,2.45,-3.15,0.21,-21.229,-47.6941,12.469,1014.78
15080,0.148254,9.73218,1.31038,1.96,-3.08,0.28,-20.9384,-48.1259,11.9518,1014.76
15086,0.133907,9.74653,1.30081,2.24,-2.87,0.28,-21.3742,-47.6941,10.1195,1014.76
15092,0.13869,9.76566,1.30081,2.38,-3.22,-0.42,-21.6067,-46.6764,11.9075,1014.74
15098,0.129125,9.74175,1.31516,1.75,-3.01,-0.42,-21.781,-47.8483,11.7745,1014.74
15104,0.153037,9.74653,1.31994,2.17,-3.15,0.63,-21.781,-47.1698,11.9222,1014.74
15110,0.11956,9.74175,1.30081,2.17,-3.43,0.49,-21.4614,-47.1698,12.5281,1014.75
15116,0.148254,9.74175,1.35342,1.75,-3.15,-0.49,-21.4324,-48.1259,11.4642,1014.75
15122,0.176949,9.74653,1.33429,2.17,-3.71,0.28,-21.258,-47.6324,11.4346,1014.76
15128,0.162602,9.76566,1.31516,2.03,-3.29,0.35,-21.4324,-46.7689,11.3755,1014.76
15134,0.181731,9.7561,1.31994,1.82,-3.15,-0.49,-20.3282,-48.3726,12.2621,1014.75
15140,0.172166,9.80392,1.34385,2.17,-3.43,-0.42,-21.6067,-48.8044,11.0504,1014.75
15146,0.176949,9.78001,1.31994,2.24,-3.5,0.14,-21.1999,-47.6324,11.346,1014.74
15152,0.148254,9.75131,1.34864,2.1,-3.36,-17.85,-21.4324,-47.5708,10.0456,1014.74
15158,0.181731,9.74175,1.34864,1.96,-3.01,0.07,-21.9844,-48.6502,11.1539,1014.74
15164,0.191296,9.78957,1.3056,1.82,-3.57,0,-21.7229,-47.725,11.1243,1014.76
15170,0.167384,9.79914,1.33429,1.33,-3.36,-0.56,-21.3742,-47.5708,11.6267,1014.76
15176,0.129125,9.75131,1.29125,2.17,-3.29,-0.14,-21.752,-48.3726,10.6219,1014.75
15182,0.109995,9.7561,1.41081,1.82,-3.22,0.21,-21.2871,-48.496,11.6563,1014.75
15188,0.13869,9.77044,1.33429,2.38,-3.43,-0.28,-20.8803,-47.6941,11.9961,1014.73
15194,0.176949,9.78001,1.33907,1.75,-3.64,0.14,-21.3742,-48.866,11.8484,1014.73
15200,0.143472,9.78001,1.31994,2.52,-3.71,-0.42,-21.1418,-49.452,11.0061,1014.74
15206,0.109995,9.7561,1.30081,1.82,-3.01,-0.21,-20.8222,-47.725,11.9813,1014.74
15212,0.148254,9.77523,1.3056,1.96,-3.78,0.21,-21.9263,-47.6633,12.2178,1014.74
15218,0.133907,9.78479,1.33429,2.17,-3.71,0.14,-21.4905,-49.2978,10.4594,1014.75
15224,0.133907,9.76088,1.32472,2.31,-3.85,0.35,-22.0135,-47.8792,9.82399,1014.75
15230,0.162602,9.76566,1.33429,1.96,-3.64,0.07,-21.752,-46.368,12.9861,1014.78
15236,0.157819,9.78957,1.32951,2.03,-3.71,0.07,-21.2871,-48.8352,10.5924,1014.78
15242,0.176949,9.74653,1.29125,1.89,-3.57,0.14,-22.1878,-47.91,12.1734,1014.74
15248,0.200861,9.7561,1.30081,2.38,-3.57,0.07,-21.752,-46.8306,12.0848,1014.74
15254,0.191296,9.78001,1.31038,2.31,-3.29,-0.42,-21.1999,-47.5091,11.5972,1014.75
15260,0.172166,9.74653,1.33429,1.89,-3.5,-0.28,-21.3742,-48.5885,11.6267,1014.75
15266,0.105213,9.74653,1.37733,1.82,-3.5,0.21,-21.4033,-47.6016,13.06,1014.76
15272,0.114778,9.76088,1.35342,2.03,-3.43,0.14,-21.6358,-47.5399,12.6167,1014.76
15278,0.143472,9.74653,1.33907,2.66,-3.29,-0.42,-21.1999,-48.9277,10.2082,1014.76
15284,0.162602,9.73697,1.3582,2.31,-3.71,-0.28,-21.6358,-48.2184,11.7892,1014.74
15290,0.11956,9.76566,1.36777,1.89,-3.01,-0.35,-21.3161,-46.7998,11.671,1014.74
15296,0.153037,9.75131,1.34864,2.31,-3.71,0.35,-21.5195,-48.8352,11.5676,1014.74
15302,0.153037,9.78957,1.32951,2.31,-3.43,0.49,-20.8803,-47.9408,11.3903,1014.74
15308,0.148254,9.7274,1.33429,1.82,-3.64,0.28,-20.5897,-47.4474,11.2869,1014.74
15314,0.143472,9.75131,1.29125,2.45,-3.64,0.28,-21.3161,-48.496,12.3508,1014.74
15320,0.148254,9.74653,1.34385,2.24,-3.78,0,-21.4905,-48.5268,10.8879,1014.75
15326,0.157819,9.76088,1.32472,2.1,-3.64,0.49,-20.3282,-47.324,11.2425,1014.75
15332,0.148254,9.73697,1.31038,2.03,-3.5,0.35,-21.2871,-47.6633,10.8436,1014.75
15338,0.172166,9.77523,1.31516,2.17,-3.57,0.14,-21.1127,-49.4212,10.9174,1014.78
15344,0.205643,9.77044,1.27212,2.38,-3.15,0,-21.4614,-48.0642,10.4003,1014.78
15350,0.153037,9.76566,1.31516,1.54,-3.36,0.28,-21.1418,-46.954,11.6563,1014.79
15356,0.071736,9.74175,1.33429,1.89,-3.5,17.78,-21.5776,-48.8044,11.5085,1014.79
15362,0.210426,9.71784,1.42037,2.1,-3.78,0.14,-21.3452,-47.7866,11.8631,1014.72
15368,0.114778,9.79914,1.35342,2.38,-3.08,0,-21.3161,-46.3372,11.1095,1014.72
15374,0.13869,9.79914,1.29603,2.31,-3.64,-0.28,-21.4033,-48.2801,10.7845,1014.76
15380,0.13869,9.76088,1.34864,2.03,-3.57,-0.28,-21.6358,-48.0642,11.1834,1014.76
15386,0.124342,9.7561,1.33907,2.31,-3.64,0.28,-20.9675,-46.9848,10.5924,1014.76
15392,0.167384,9.69871,1.36298,2.24,-3.29,0,-21.4905,-47.324,11.7892,1014.76
15398,0.114778,9.78479,1.3056,2.38,-3.85,0,-21.3161,-49.2053,11.5676,1014.76
15404,0.181731,9.7561,1.31994,2.31,-3.5,0.49,-21.5195,-47.4474,12.469,1014.77
15410,0.10043,9.76566,1.32472,1.82,-3.64,0.28,-21.4033,-47.2624,12.8827,1014.77
15416,0.157819,9.7561,1.32472,2.31,-3.5,0,-21.5486,-48.7735,11.8484,1014.74
15422,0.114778,9.76088,1.34385,2.1,-3.64,0.07,-20.9675,-48.095,11.9222,1014.74
15428,0.143472,9.77523,1.31038,2.1,-3.57,-0.49,-20.9384,-47.725,12.5872,1014.71
15434,0.176949,9.7561,1.31038,2.45,-3.85,0.42,-21.4905,-48.0642,12.5281,1014.71
15440,0.133907,9.78001,1.35342,2.38,-3.57,0.21,-20.9093,-49.0202,11.0504,1014.78
15446,0.186514,9.73697,1.34864,2.1,-3.01,0.07,-21.0256,-47.6016,12.3803,1014.78
15452,0.176949,9.75131,1.31994,1.96,-3.64,0.14,-21.3742,-46.1521,11.2425,1014.78
15458,0.21999,9.76566,1.33907,2.17,-3.15,0.07,-21.258,-48.7427,12.1439,1014.74
15464,0.186514,9.81827,1.3056,2.1,-3.29,-0.28,-20.9965,-47.3857,12.2916,1014.74
15470,0.234338,9.73218,1.33429,1.68,-3.01,-0.49,-21.3161,-47.6633,12.4837,1014.76
15476,0.148254,9.83261,1.34864,2.1,-3.5,-0.28,-21.7229,-48.4651,12.469,1014.76
15482,0.215208,9.72262,1.38211,1.96,-3.08,-0.07,-22.0426,-48.3726,10.947,1014.76
15488,0.114778,9.76566,1.31038,1.82,-3.29,-0.42,-20.5897,-47.1698,12.8532,1014.76
15494,0.148254,9.77523,1.34385,2.66,-3.92,0,-21.9844,-49.6679,10.681,1014.77
15500,0.167384,9.76566,1.34864,1.82,-3.43,0,-21.6648,-48.8969,10.0309,1014.77
15506,0.172166,9.71784,1.34385,2.45,-3.36,-0.42,-21.5486,-47.139,11.8188,1014.77
15512,0.200861,9.74653,1.31038,2.24,-3.01,0.21,-20.9965,-46.8923,12.0848,1014.8
15518,0.143472,9.74175,1.33429,1.82,-3.29,-0.07,-21.258,-48.3418,11.2277,1014.8
15524,0.143472,9.73697,1.3056,2.03,-3.71,-0.42,-21.5486,-47.0773,12.6463,1014.79
15530,0.129125,9.7561,1.31516,2.17,-3.78,0,-20.8512,-47.0465,13.193,1014.79
15536,0.172166,9.75131,1.31038,1.89,-3.29,0.28,-21.1709,-48.7427,12.0257,1014.78
15542,0.148254,9.76088,1.34864,2.03,-3.43,-0.07,-21.752,-48.0025,11.0357,1014.78
15548,0.148254,9.74653,1.3056,1.89,-3.22,-0.28,-21.5486,-47.0157,12.602,1014.77
15554,0.167384,9.77523,1.32472,1.75,-3.43,0.07,-20.7931,-47.7558,12.4394,1014.77
15560,0.186514,9.7561,1.34385,1.96,-3.71,-0.07,-21.6358,-48.8044,11.8336,1014.77
15566,0.200861,9.77044,1.32951,1.33,-3.22,-0.14,-21.1709,-47.1082,13.5033,1014.76
15572,0.23912,9.7561,1.34864,1.47,-3.22,-0.28,-21.3742,-46.7998,13.5329,1014.76
15578,0.215208,9.76088,1.31994,2.1,-3.08,-0.42,-21.3742,-47.9717,10.548,1014.78
15584,0.157819,9.74175,1.29603,1.54,-3.36,-0.49,-21.1418,-47.6633,11.7745,1014.78
15590,0.186514,9.74175,1.38211,2.17,-3.01,0.07,-20.3863,-46.8615,13.1635,1014.8
15596,0.162602,9.77044,1.36777,1.89,-3.64,-0.35,-20.8512,-48.2801,11.4198,1014.8
15602,0.133907,9.76088,1.32472,1.89,-3.01,-0.77,-20.9384,-47.5399,12.602,1014.78
15608,0.11956,9.76088,1.34864,2.17,-3.22,-0.35,-20.6478,-46.1521,12.5576,1014.78
15614,0.11956,9.74175,1.33429,2.24,-3.85,0.56,-20.6478,-47.0773,10.548,1014.76
15620,0.143472,9.74653,1.36777,1.96,-3.64,-0.63,-22.1007,-47.9408,11.1243,1014.76
15626,0.143472,9.76088,1.32951,2.03,-3.36,-0.35,-21.0256,-46.8923,13.7102,1014.76
15632,0.13869,9.74653,1.32472,1.89,-3.08,-0.28,-21.6067,-46.6456,12.5133,1014.76
15638,0.133907,9.73218,1.33429,1.96,-3.57,0,-21.4324,-48.681,11.3607,1014.76
15644,0.167384,9.75131,1.34385,1.61,-3.36,0.35,-21.4033,-47.4782,12.1882,1014.76
15650,0.13869,9.77523,1.33907,2.31,-3.36,0,-21.7229,-46.954,11.8927,1014.76
15656,0.167384,9.76566,1.31994,2.17,-3.64,0.21,-21.5776,-48.2492,12.1291,1014.74
15662,0.167384,9.73697,1.32951,2.1,-3.43,0.14,-21.1418,-47.7558,12.1439,1014.74
15668,0.153037,9.7274,1.34385,2.1,-3.43,0.14,-21.4905,-47.2624,12.07,1014.77
15674,0.13869,9.73697,1.29125,1.89,-3.64,-0.14,-21.752,-47.1082,11.9222,1014.77
15680,0.172166,9.76088,1.31038,1.75,-3.08,0,-21.1999,-48.1259,11.2721,1014.77
15686,0.172166,9.7561,1.36298,2.1,-3.22,0.28,-21.2871,-46.7073,12.7497,1014.76
15692,0.200861,9.76088,1.34385,2.31,-3.29,-0.07,-21.4614,-47.2007,12.3951,1014.76
15698,0.196078,9.79914,1.31516,1.68,-2.73,-0.28,-20.735,-49.2361,11.7449,1014.75
15704,0.191296,9.76088,1.29125,2.17,-3.43,-0.42,-20.9093,-47.3857,12.07,1014.75
15710,0.11956,9.76088,1.32951,1.54,-3.36,0.21,-21.1127,-46.3063,12.6758,1014.75
15716,0.133907,9.77044,1.35342,1.82,-3.43,-0.49,-20.7641,-47.91,11.6563,1014.75
15722,0.186514,9.76566,1.33907,2.03,-3.15,-0.28,-20.7931,-47.324,11.9961,1014.76
15728,0.167384,9.76566,1.3056,2.1,-3.22,0,-20.735,-46.8306,11.3903,1014.76
15734,0.13869,9.76566,1.3582,1.89,-3.15,-0.42,-20.8803,-47.6324,12.2916,1014.76
15740,0.167384,9.74653,1.31994,2.31,-3.5,-0.7,-21.1418,-48.7118,11.1243,1014.76
15746,0.157819,9.76088,1.30081,1.96,-2.94,0.14,-21.781,-46.9231,12.6758,1014.76
15752,0.129125,9.76088,1.33429,1.4,-3.29,0.35,-20.8222,-47.0773,12.5724,1014.75
15758,0.176949,9.76088,1.32951,1.89,-3.43,-0.07,-21.752,-47.6633,10.0604,1014.75
15764,0.157819,9.76088,1.29603,2.1,-3.57,-0.35,-21.1709,-47.0773,11.1982,1014.79
15770,0.167384,9.74653,1.30081,2.03,-3.43,-0.21,-20.8803,-46.5531,11.7449,1014.79
15776,0.157819,9.74175,1.3056,2.24,-3.01,0,-21.5776,-48.681,11.8779,1014.75
15782,0.157819,9.73697,1.32472,1.61,-3.15,0.21,-20.5316,-48.2184,11.3164,1014.75
15788,0.153037,9.76566,1.3056,1.68,-2.87,0.07,-21.258,-46.5839,11.7301,1014.76
15794,0.148254,9.74175,1.37255,2.45,-3.5,-0.28,-20.6769,-47.91,12.0257,1014.76
15800,0.215208,9.77044,1.31994,1.96,-3.29,0.21,-22.6237,-49.2669,10.4003,1014.76
15806,0.234338,9.77523,1.29125,1.05,-3.29,-0.7,-20.6188,-47.6633,12.4099,1014.72
15812,0.205643,9.76088,1.36777,1.54,-2.87,-0.63,-20.6188,-48.0642,11.6415,1014.72
15818,0.172166,9.77044,1.33429,1.68,-3.36,-0.49,-20.7641,-48.8044,11.1834,1014.76
15824,0.191296,9.77044,1.31994,1.89,-3.01,-0.7,-21.1418,-47.5708,10.548,1014.76
15830,0.129125,9.77044,1.31038,1.68,-3.01,-0.63,-20.9965,-48.2184,10.7401,1014.73
15836,0.10043,9.73697,1.3869,2.03,-3.5,-0.35,-20.8222,-49.3903,10.4889,1014.73
15842,0.124342,9.74175,1.35342,2.03,-3.01,-0.42,-21.4614,-48.9586,10.4889,1014.74
15848,0.157819,9.77044,1.31516,1.89,-3.15,-0.14,-21.9263,-47.1698,10.5037,1014.74
15854,0.143472,9.7561,1.34385,1.54,-2.66,-0.14,-20.735,-47.7558,10.2377,1014.74
15860,0.172166,9.7274,1.31038,1.75,-3.5,-0.56,-21.4324,-48.4034,10.3707,1014.75
15866,0.167384,9.78001,1.32951,2.03,-3.15,-0.28,-21.229,-47.0773,10.6662,1014.75
15872,0.157819,9.77523,1.31994,1.68,-3.08,0.21,-21.4614,-48.3109,11.1391,1014.75
15878,0.157819,9.76566,1.32472,1.75,-3.15,0,-21.4033,-47.9408,9.21815,1014.75
15884,0.124342,9.76088,1.35342,1.82,-3.71,-0.21,-21.3452,-47.6941,9.83876,1014.78
15890,0.186514,9.74175,1.34385,2.24,-3.43,-0.28,-21.4033,-47.5399,12.2325,1014.78
15896,0.157819,9.74175,1.32951,1.68,-3.5,0.21,-21.229,-48.3726,10.7549,1014.75
15902,0.181731,9.76566,1.31516,1.54,-3.15,0.21,-22.246,-47.5708,10.4003,1014.75
15908,0.162602,9.77523,1.3582,2.24,-3.5,0.21,-21.4324,-47.4166,12.0552,1014.75
15914,0.148254,9.7561,1.34385,2.1,-3.43,-0.14,-22.0716,-48.6502,9.95698,1014.75
15920,0.191296,9.78479,1.31516,1.96,-2.87,0.07,-21.6648,-48.2801,10.6071,1014.75
15926,0.176949,9.77523,1.31038,1.68,-3.22,-0.35,-21.1418,-47.6633,11.4937,1014.75
15932,0.167384,9.76088,1.31516,1.82,-3.22,-0.14,-21.6067,-47.9408,11.8484,1014.75
15938,0.172166,9.74653,1.31994,2.31,-3.22,-0.56,-22.0135,-48.9894,10.681,1014.72
15944,0.133907,9.77044,1.33429,1.47,-3.29,-0.14,-21.9554,-47.2624,10.6662,1014.72
15950,0.148254,9.76088,1.31516,2.17,-3.92,-0.7,-21.781,-47.139,12.1734,1014.75
15956,0.153037,9.76088,1.37255,1.26,-3.57,-0.07,-21.9844,-49.1744,10.7106,1014.75
15962,0.13869,9.7561,1.32472,2.59,-3.29,-0.07,-21.9263,-48.5885,10.3264,1014.76
15968,0.129125,9.77044,1.34864,1.61,-3.43,-0.07,-21.1127,-47.1082,12.07,1014.76
15974,0.167384,9.7274,1.33907,1.75,-3.71,0.07,-21.5195,-47.8175,12.1587,1014.76
15980,0.153037,9.73218,1.32472,1.82,-3.43,-0.35,-21.3742,-48.6193,11.4494,1014.76
15986,0.148254,9.78479,1.32951,1.96,-3.57,0.14,-21.3161,-47.2932,11.7597,1014.76
15992,0.167384,9.7561,1.30081,2.17,-3.85,0.14,-20.8803,-47.5708,12.4394,1014.76
15998,0.172166,9.78001,1.31516,2.38,-3.71,-0.49,-21.7229,-49.6679,10.9322,1014.76
16004,0.162602,9.77044,1.33907,1.75,-3.36,-0.14,-21.1999,-48.1259,10.4889,1014.77
16010,0.181731,9.77044,1.34864,2.45,-3.22,-0.07,-21.0256,-47.5091,11.5824,1014.77
16016,0.21999,9.73218,1.32472,2.03,-3.36,0,-21.6358,-48.8044,9.48413,1014.75
16022,0.205643,9.79436,1.31994,1.61,-3.36,-0.56,-21.5776,-48.5268,10.415,1014.75
16028,0.200861,9.76566,1.32472,1.82,-2.87,-0.35,-21.5486,-47.5399,10.8879,1014.75
16034,0.172166,9.76088,1.34864,2.03,-2.87,-0.21,-20.9675,-48.4034,11.6267,1014.76
16040,0.153037,9.76088,1.33429,2.03,-3.15,-0.91,-22.1297,-48.4651,10.947,1014.76
16046,0.143472,9.77044,1.31516,1.68,-2.94,-0.35,-20.7931,-47.3857,11.8336,1014.79
16052,0.133907,9.75131,1.32951,1.75,-3.5,-0.7,-20.4154,-47.3857,11.5824,1014.79
16058,0.129125,9.74175,1.3582,1.82,-3.36,-0.56,-21.1418,-49.2053,9.35114,1014.78
16064,0.129125,9.77523,1.32472,2.31,-3.99,-0.42,-21.4614,-48.9894,11.5676,1014.78
16070,0.148254,9.72262,1.3582,1.82,-3.57,-0.28,-20.9675,-47.1082,13.459,1014.76
16076,0.114778,9.75131,1.33907,2.45,-3.57,-0.28,-21.5486,-48.8969,12.4099,1014.76
16082,0.11956,9.7561,1.32472,1.61,-2.87,-0.07,-21.5776,-47.7558,10.947,1014.76
16088,0.133907,9.75131,1.31516,1.96,-3.36,0.14,-21.1999,-47.2624,11.3164,1014.77
16094,0.133907,9.73697,1.33429,2.1,-3.92,-0.35,-22.1878,-48.0642,10.2377,1014.77
16100,0.11956,9.73697,1.34864,2.24,-3.71,0.35,-21.1127,-49.2978,11.0652,1014.77
16106,0.13869,9.73218,1.33907,1.68,-3.15,0.28,-21.4324,-48.2184,10.0161,1014.77
16112,0.13869,9.76566,1.32951,1.54,-3.57,-0.21,-21.5776,-48.0025,11.1391,1014.8
16118,0.162602,9.7561,1.32472,1.96,-3.64,0.28,-20.8803,-49.1128,10.5628,1014.8
16124,0.157819,9.7561,1.31994,2.1,-3.43,-0.14,-20.9093,-47.2007,11.0209,1014.75
16130,0.153037,9.76088,1.28647,2.03,-3.43,-0.14,-21.229,-47.4782,11.937,1014.75
16136,0.196078,9.77523,1.3056,2.1,-3.36,-0.21,-21.1127,-48.8352,11.9666,1014.74
16142,0.229555,9.78957,1.34385,2.03,-3.15,-0.42,-21.3452,-48.7427,11.1243,1014.74
16148,0.129125,9.76088,1.33429,1.61,-3.22,-0.63,-21.5776,-47.5708,10.814,1014.74
16154,0.13869,9.76088,1.3582,1.96,-3.36,-0.35,-21.3452,-47.9408,11.4198,1014.76
16160,0.205643,9.76088,1.34385,1.96,-3.36,-0.14,-20.9675,-48.9277,9.88309,1014.76
16166,0.196078,9.76566,1.32951,1.68,-2.87,-0.28,-20.7059,-47.3857,11.5381,1014.76
16172,0.105213,9.79914,1.32951,1.96,-2.94,-0.21,-20.5897,-47.9408,11.7006,1014.76
16178,0.129125,9.73218,1.34385,1.82,-3.5,0,-21.1999,-48.095,11.3755,1014.75
16184,0.124342,9.77044,1.34385,2.03,-3.64,-0.35,-20.8222,-46.8923,12.2621,1014.75
16190,0.109995,9.74653,1.36777,2.17,-3.64,-0.28,-21.1709,-47.2932,11.8484,1014.76
16196,0.167384,9.79436,1.33429,2.31,-3.36,-0.14,-21.3742,-48.9586,11.5824,1014.76
16202,0.167384,9.76088,1.33429,2.24,-3.85,0,-21.6067,-47.6633,10.7401,1014.76
16208,0.133907,9.74175,1.33429,1.89,-3.64,-0.21,-20.9965,-47.2932,12.6167,1014.79
16214,0.157819,9.74653,1.35342,2.1,-3.57,0.21,-21.4614,-48.7427,11.3607,1014.79
16220,0.153037,9.77523,1.33907,2.24,-3.78,0.14,-21.4033,-49.0819,11.5233,1014.75
16226,0.148254,9.7561,1.31516,2.17,-3.22,0.42,-21.1127,-48.1259,11.5972,1014.75
16232,0.157819,9.76566,1.34864,1.96,-3.36,0.14,-20.9965,-47.725,11.671,1014.75
16238,0.186514,9.77044,1.31038,2.1,-3.64,-0.21,-21.4033,-49.1128,10.4889,1014.75
16244,0.186514,9.78001,1.31516,1.4,-3.43,0.07,-21.0546,-47.2315,11.4494,1014.76
16250,0.143472,9.77523,1.31994,1.68,-3.08,-0.07,-21.5486,-47.4782,12.4837,1014.76
16256,0.210426,9.81349,1.32951,2.24,-3.08,-0.49,-21.4614,-49.0819,11.346,1014.75
16262,0.186514,9.75131,1.32472,1.4,-3.29,-0.35,-20.8222,-47.9717,10.3412,1014.75
16268,0.157819,9.77523,1.34385,1.89,-3.36,-0.21,-20.9675,-47.4166,12.0109,1014.75
16274,0.176949,9.74175,1.37255,2.17,-3.29,-0.07,-20.9093,-48.7118,10.8288,1014.77
16280,0.11956,9.74175,1.37733,2.03,-3.29,-0.35,-21.2871,-48.0334,10.5333,1014.77
16286,0.176949,9.7561,1.28647,1.33,-3.08,-0.28,-21.4033,-46.7998,11.0948,1014.75
16292,0.153037,9.73697,1.33907,2.03,-3.43,-0.14,-20.7931,-48.2184,10.3707,1014.75
16298,0.13869,9.73697,1.31994,2.1,-3.22,-0.21,-21.4905,-48.8969,10.0309,1014.74
16304,0.13869,9.76088,1.32472,1.82,-3.08,-0.14,-21.4905,-47.725,11.5676,1014.74
16310,0.143472,9.76566,1.31516,1.96,-3.22,-0.21,-20.8803,-47.5399,11.7301,1014.77
16316,0.13869,9.75131,1.29125,1.75,-4.13,0,-21.2871,-48.4343,10.2968,1014.77
16322,0.157819,9.76088,1.31038,2.31,-3.5,0.07,-21.4324,-48.1259,10.0456,1014.77
16328,0.172166,9.73697,1.31994,2.03,-2.8,0,-21.6067,-47.4474,12.2325,1014.77
16334,0.153037,9.76088,1.29603,2.1,-3.15,-0.07,-21.8392,-48.4034,11.9518,1014.77
16340,0.143472,9.75131,1.32472,1.89,-3.78,-0.14,-21.3452,-49.0819,11.5972,1014.75
16346,0.167384,9.73218,1.3582,2.17,-3.64,0.35,-21.4614,-47.725,11.2869,1014.75
16352,0.167384,9.7274,1.32472,2.17,-3.43,-0.35,-21.229,-47.9717,11.5381,1014.77
16358,0.172166,9.74175,1.31516,2.52,-3.43,-0.35,-20.8512,-49.1436,12.1143,1014.77
16364,0.200861,9.76566,1.31038,2.03,-3.5,-0.56,-21.1127,-47.324,12.1143,1014.76
16370,0.176949,9.74175,1.32472,2.24,-3.43,-0.21,-20.5897,-47.725,12.5724,1014.76
16376,0.172166,9.76566,1.32951,2.03,-3.43,-0.35,-21.1709,-48.6193,11.7301,1014.76
16382,0.11956,9.75131,1.31994,1.61,-3.29,-0.07,-21.3742,-47.6016,11.5233,1014.79
16388,0.143472,9.73697,1.33907,1.89,-3.22,-0.21,-21.1127,-47.0773,11.6858,1014.79
16394,0.133907,9.78001,1.31038,2.31,-3.36,-0.28,-21.9554,-48.7427,12.1587,1014.76
16400,0.13869,9.78001,1.30081,2.1,-3.29,-0.49,-21.3452,-48.5268,11.2721,1014.76
16406,0.129125,9.73697,1.33429,2.03,-3.99,-0.42,-21.0837,-47.4474,12.07,1014.78
16412,0.133907,9.73697,1.3582,1.89,-3.5,-0.07,-20.9384,-48.3418,10.0604,1014.78
16418,0.133907,9.79436,1.32951,2.1,-3.22,-0.21,-21.2871,-49.5445,11.2721,1014.76
16424,0.162602,9.7561,1.31994,1.89,-3.08,-0.21,-21.6939,-47.3857,10.8879,1014.76
16430,0.162602,9.78479,1.32951,1.89,-3.78,0.35,-20.6769,-47.7866,11.6119,1014.78
16436,0.162602,9.77523,1.3582,1.82,-3.36,-0.14,-20.735,-48.681,11.2721,1014.78
16442,0.143472,9.77044,1.34864,1.89,-3.57,-0.07,-21.4033,-48.4343,11.7006,1014.78
16448,0.172166,9.73697,1.31994,2.03,-3.43,0.56,-20.9093,-47.6324,11.8336,1014.75
16454,0.162602,9.74653,1.33429,1.75,-3.08,0.35,-20.4444,-48.1876,10.8731,1014.75
16460,0.176949,9.78001,1.33429,2.24,-3.15,0.14,-21.6939,-48.3109,9.51368,1014.75
16466,0.167384,9.76088,1.32472,1.82,-3.64,-0.42,-22.0426,-47.0773,11.0504,1014.75
16472,0.191296,9.7561,1.34864,1.82,-3.36,-0.56,-21.3452,-48.6193,10.9618,1014.75
16478,0.162602,9.74175,1.34864,2.24,-3.36,0.07,-22.3041,-48.6193,11.0504,1014.75
16484,0.191296,9.79436,1.36777,1.75,-3.15,-0.21,-21.0256,-47.5091,11.5676,1014.77
16490,0.191296,9.77044,1.33907,1.89,-2.87,-0.7,-21.1127,-47.725,12.1734,1014.77
16496,0.124342,9.76566,1.35342,1.82,-3.08,-0.21,-21.2871,-48.4034,10.1786,1014.77
16502,0.148254,9.76566,1.33429,2.17,-3.15,-0.28,-21.0546,-47.725,11.8484,1014.76
16508,0.157819,9.73218,1.34864,2.1,-3.36,-0.07,-21.3452,-46.7689,11.2869,1014.76
16514,0.133907,9.7274,1.34385,1.68,-3.29,-0.14,-21.6358,-47.7558,12.5576,1014.77
16520,0.157819,9.78001,1.31994,2.1,-3.36,-0.28,-21.781,-47.6941,11.7449,1014.77
16526,0.133907,9.76088,1.33429,1.82,-3.64,0,-21.1999,-46.7073,11.4198,1014.76
16532,0.148254,9.74653,1.33907,2.31,-3.29,0.21,-20.7641,-47.8483,11.8336,1014.76
16538,0.129125,9.76088,1.33429,1.96,-2.94,0.28,-21.5776,-48.6502,11.3903,1014.78
16544,0.153037,9.7561,1.31516,2.31,-3.57,-0.07,-21.1709,-47.5091,10.5037,1014.78
16550,0.157819,9.76566,1.34864,2.03,-3.85,-0.21,-21.1127,-47.324,11.8631,1014.78
16556,0.167384,9.7561,1.31038,1.68,-3.29,0.49,-21.4905,-48.2492,11.6267,1014.78
16562,0.133907,9.74653,1.32951,2.24,-3.43,0.07,-21.4905,-47.6633,13.2226,1014.78
16568,0.172166,9.78001,1.32472,1.89,-3.57,0,-20.7059,-46.7689,12.7349,1014.75
16574,0.196078,9.77523,1.32472,2.24,-3.78,0.14,-21.1709,-47.2932,11.5085,1014.75
16580,0.191296,9.75131,1.31516,2.03,-2.73,-0.14,-21.0546,-48.095,11.0209,1014.77
16586,0.172166,9.75131,1.35342,1.47,-3.01,-0.28,-20.6769,-46.6764,12.1882,1014.77
16592,0.196078,9.76088,1.3582,1.68,-3.29,-0.49,-20.7641,-47.9408,11.5085,1014.75
16598,0.229555,9.78001,1.31038,1.68,-2.87,-0.63,-21.3742,-48.1567,11.1095,1014.75
16604,0.196078,9.78957,1.32951,2.1,-3.29,-0.56,-21.0256,-47.4782,12.0109,1014.76
16610,0.157819,9.77044,1.35342,1.61,-3.08,-0.21,-21.4033,-47.4166,12.8088,1014.76
16616,0.133907,9.76566,1.33907,1.89,-2.87,-0.28,-22.0716,-48.866,11.8188,1014.76
16622,0.162602,9.71305,1.37255,1.75,-3.5,-0.28,-21.7229,-46.7073,11.2277,1014.78
16628,0.153037,9.74653,1.32951,1.75,-3.43,-0.07,-20.8803,-47.324,11.9075,1014.78
16634,0.133907,9.74175,1.32951,2.1,-3.15,-0.21,-21.781,-48.496,10.947,1014.72
16640,0.143472,9.77044,1.3056,1.96,-3.15,0,-21.3452,-48.681,10.0604,1014.72
16646,0.167384,9.75131,1.29603,2.45,-3.57,-0.35,-21.1127,-46.6456,11.2573,1014.73
16652,0.143472,9.76566,1.31038,1.54,-3.08,0.28,-21.1999,-47.1082,12.0404,1014.73
16658,0.133907,9.76088,1.31994,2.1,-3.5,-0.28,-22.1588,-48.4651,12.1439,1014.76
16664,0.153037,9.7561,1.32472,1.82,-3.15,0,-22.3041,-48.0025,12.2769,1014.76
16670,0.162602,9.7561,1.35342,1.4,-3.36,0.07,-21.3742,-46.7073,11.5528,1014.76
16676,0.157819,9.74175,1.31038,2.45,-3.57,-0.56,-21.2871,-48.1876,10.7253,1014.78
16682,0.172166,9.77044,1.33907,1.89,-3.22,-0.21,-22.3041,-47.7558,11.4494,1014.78
16688,0.172166,9.77044,1.3056,1.96,-3.22,0.07,-21.3452,-46.9848,11.7745,1014.78
16694,0.210426,9.80392,1.30081,1.68,-3.5,-0.07,-21.781,-47.2932,11.2573,1014.78
16700,0.13869,9.76566,1.33429,2.03,-3.36,-0.35,-21.8973,-48.1876,11.4937,1014.76
16706,0.191296,9.76566,1.37255,1.61,-3.01,-0.77,-21.5486,-46.4605,12.2621,1014.76
16712,0.210426,9.77044,1.34864,1.96,-2.94,-0.07,-21.0256,-47.9717,12.8236,1014.74
16718,0.210426,9.77523,1.37255,1.96,-3.01,-0.7,-21.8973,-48.8352,10.7697,1014.74
16724,0.11956,9.78479,1.3582,1.82,-3.01,-0.56,-20.9384,-47.324,11.5972,1014.74
16730,0.105213,9.77523,1.33429,1.96,-3.15,-0.07,-21.1418,-46.8306,12.1882,1014.73
16736,0.11956,9.73218,1.36777,1.54,-3.15,-0.35,-21.5776,-48.095,11.4051,1014.73
16742,0.153037,9.74175,1.36777,1.61,-3.57,-0.35,-21.5486,-47.324,12.2473,1014.73
16748,0.196078,9.76088,1.31994,1.96,-3.15,-0.21,-21.1418,-47.5091,12.3212,1014.73
16754,0.129125,9.77523,1.3056,1.4,-3.01,0,-21.8682,-48.1876,11.7449,1014.77
16760,0.172166,9.77523,1.33429,2.03,-3.36,-0.42,-21.5776,-48.4343,12.2769,1014.77
16766,0.162602,9.73697,1.33429,1.68,-3.5,0.35,-21.1709,-47.0465,11.4494,1014.78
16772,0.11956,9.75131,1.33429,1.89,-3.43,-0.14,-20.9675,-48.6193,11.9666,1014.78
16778,0.148254,9.78479,1.31994,1.82,-3.36,-0.14,-21.6648,-48.2492,10.5776,1014.75
16784,0.167384,9.76566,1.32472,1.54,-3.43,0.21,-21.2871,-46.6764,12.2178,1014.75
16790,0.133907,9.76088,1.32951,2.31,-3.36,0.14,-21.1709,-47.5091,11.3607,1014.75
16796,0.181731,9.75131,1.33429,1.89,-3.22,0.28,-21.3452,-48.3109,10.7845,1014.75
16802,0.162602,9.78479,1.31994,1.82,-3.01,0,-21.9263,-47.8483,11.8336,1014.75
16808,0.224773,9.76088,1.32472,1.89,-3.36,-0.28,-20.7641,-47.0157,11.9961,1014.77
16814,0.13869,9.78479,1.32951,1.61,-3.15,-0.56,-20.8512,-48.5576,10.3707,1014.77
16820,0.157819,9.74653,1.32472,1.96,-3.43,-0.49,-21.6648,-48.2184,10.4003,1014.74
16826,0.157819,9.78479,1.33907,1.47,-3.01,0.07,-21.3161,-47.2315,12.1291,1014.74
16832,0.148254,9.78957,1.31516,1.54,-3.57,-0.21,-20.8222,-47.6324,11.3312,1014.77
16838,0.105213,9.73218,1.36777,2.1,-3.71,-0.56,-21.0546,-48.7735,10.7697,1014.77
16844,0.109995,9.73218,1.35342,1.82,-3.43,-0.21,-21.0837,-47.6016,12.0848,1014.77
16850,0.153037,9.77044,1.36298,1.96,-3.36,0.21,-21.5195,-46.6147,13.2373,1014.78
16856,0.157819,9.7561,1.32951,2.17,-3.57,-0.14,-20.735,-48.3109,12.1882,1014.78
16862,0.153037,9.76566,1.32951,2.03,-3.29,0.07,-20.6478,-47.6324,11.5085,1014.75
16868,0.105213,9.74653,1.33429,1.82,-3.43,-0.21,-20.212,-47.3549,12.3064,1014.75
16874,0.172166,9.74653,1.29125,2.1,-3.99,-0.49,-21.0546,-48.1876,12.336,1014.78
16880,0.11956,9.76088,1.34385,1.54,-3.15,0.63,-21.1418,-48.3418,11.8631,1014.78
16886,0.157819,9.74653,1.33429,1.75,-3.15,0.7,-20.7931,-47.2624,12.6758,1014.76
16892,0.148254,9.74175,1.36298,2.24,-3.43,-0.07,-20.8512,-47.2315,12.2621,1014.76
16898,0.157819,9.78001,1.36298,1.75,-3.57,-0.28,-20.6769,-48.2184,10.2673,1014.76
16904,0.162602,9.7561,1.34385,1.96,-3.71,-0.21,-20.7931,-47.2932,11.7449,1014.78
16910,0.23912,9.78957,1.32951,1.82,-3.5,-0.21,-20.9965,-47.0773,13.0896,1014.78
16916,0.196078,9.79436,1.3056,2.17,-3.22,-0.07,-21.258,-48.3726,11.4051,1014.78
16922,0.200861,9.76088,1.34864,2.03,-3.01,-0.56,-20.7641,-47.8792,12.6463,1014.78
16928,0.176949,9.77523,1.33429,1.82,-3.01,-0.7,-20.8803,-46.6147,12.6906,1014.74
16934,0.13869,9.77523,1.33907,1.75,-3.22,-0.42,-21.258,-48.0025,10.2968,1014.74
16940,0.133907,9.78001,1.32472,1.89,-3.43,-0.21,-22.0135,-48.681,11.346,1014.76
16946,0.153037,9.77044,1.33907,1.47,-2.8,-0.63,-21.1709,-47.6324,12.8679,1014.76
16952,0.133907,9.76566,1.34385,1.89,-3.78,-0.49,-21.4614,-48.5268,12.1587,1014.76
16958,0.13869,9.78957,1.32472,1.47,-3.43,0.07,-21.2871,-48.7427,12.469,1014.76
16964,0.11956,9.76088,1.32951,1.89,-3.29,-0.35,-21.781,-47.725,12.3803,1014.76
16970,0.133907,9.75131,1.35342,1.96,-3.01,-0.56,-21.2871,-48.0025,11.8631,1014.76
16976,0.13869,9.76088,1.36777,1.75,-3.08,-0.07,-21.4033,-49.1436,12.0848,1014.76
16982,0.13869,9.76566,1.34385,1.96,-3.64,0.35,-21.6067,-48.2492,13.2521,1014.75
16988,0.133907,9.7274,1.3582,2.17,-3.22,0.07,-20.6478,-47.5708,12.7202,1014.75
16994,0.143472,9.74175,1.35342,1.82,-3.29,-0.28,-20.735,-49.2361,11.6415,1014.78
17000,0.13869,9.78479,1.31994,2.31,-3.43,-0.21,-21.1709,-48.0642,11.4051,1014.78
17006,0.157819,9.76088,1.32951,2.03,-3.43,-0.07,-21.8682,-47.3857,11.9666,1014.77
17012,0.157819,9.77044,1.3582,1.89,-3.22,-0.07,-21.3161,-47.9717,11.8779,1014.77
17018,0.153037,9.78479,1.32472,2.24,-3.43,0.28,-21.258,-49.2053,11.1095,1014.77
17024,0.167384,9.76088,1.32472,2.1,-3.78,-0.14,-21.5486,-47.5399,11.4642,1014.76
17030,0.148254,9.78001,1.31994,1.82,-3.5,-0.35,-21.3742,-48.2801,9.9422,1014.76
17036,0.167384,9.74653,1.34864,2.24,-3.29,-0.49,-21.8973,-49.0202,10.2082,1014.75
17042,0.176949,9.73218,1.33429,1.47,-3.22,0.14,-21.2871,-47.6324,10.8731,1014.75
17048,0.13869,9.7561,1.34385,1.96,-3.08,-0.14,-21.4324,-46.9848,11.5528,1014.78
17054,0.153037,9.76088,1.32951,2.03,-3.22,-0.63,-21.6648,-49.1744,11.671,1014.78
17060,0.133907,9.76566,1.31516,1.75,-2.8,0,-20.6478,-48.5576,11.5381,1014.77
17066,0.095648,9.7561,1.34385,2.31,-3.22,17.36,-20.8512,-47.2624,10.6367,1014.77
17072,0.124342,9.72262,1.37733,1.68,-3.22,-0.28,-20.8222,-48.1876,11.213,1014.77
17078,0.13869,9.71305,1.3056,2.03,-3.22,-0.35,-22.0135,-48.9894,10.8879,1014.74
17084,0.13869,9.76566,1.3582,2.1,-3.99,-0.14,-21.4905,-47.5091,12.5576,1014.74
17090,0.10043,9.76566,1.33429,1.75,-3.15,0.49,-21.4324,-47.3857,11.2869,1014.75
17096,0.10043,9.75131,1.32951,2.03,-3.5,-0.42,-21.4324,-49.4828,11.7449,1014.75
17102,0.176949,9.71784,1.34385,2.24,-3.43,0,-21.4033,-47.5708,12.2178,1014.75
17108,0.133907,9.77044,1.31516,2.31,-3.36,0.21,-20.8803,-48.0642,12.7793,1014.75
17114,0.157819,9.76566,1.31994,1.68,-3.36,-0.07,-21.9263,-48.3726,11.7154,1014.76
17120,0.148254,9.76088,1.37255,1.96,-3.64,-0.42,-22.0426,-49.2669,10.9913,1014.76
17126,0.181731,9.74653,1.37733,1.96,-3.01,0.14,-20.735,-47.6324,12.0257,1014.76
17132,0.167384,9.75131,1.3056,1.96,-2.8,0.14,-21.2871,-48.2184,9.75011,1014.76
17138,0.186514,9.76566,1.3582,1.68,-3.57,-0.21,-21.1127,-48.2801,10.9765,1014.76
17144,0.215208,9.76088,1.33907,1.68,-2.8,-0.28,-21.1127,-47.8483,12.0109,1014.75
17150,0.157819,9.77044,1.35342,2.03,-3.29,-0.49,-20.9093,-47.725,11.2721,1014.75
17156,0.13869,9.76088,1.38211,1.61,-3.22,-0.35,-21.5195,-48.5885,11.6415,1014.75
17162,0.167384,9.79436,1.34864,1.96,-3.29,0.14,-21.5486,-47.8175,11.804,1014.75
17168,0.172166,9.74653,1.34864,1.96,-3.43,-0.49,-21.3452,-47.6324,11.9222,1014.72
17174,0.148254,9.7561,1.36777,2.1,-3.01,-0.77,-21.1127,-48.9277,11.1686,1014.72
17180,0.114778,9.79914,1.3056,1.89,-3.29,0,-21.781,-48.2492,11.7745,1014.76
17186,0.13869,9.75131,1.35342,2.03,-3.15,0,-20.5897,-47.7866,13.8432,1014.76
17192,0.124342,9.77044,1.34864,1.68,-3.08,-0.28,-21.5486,-49.2669,11.1686,1014.76
17198,0.124342,9.74653,1.33429,1.96,-3.57,-0.21,-21.3161,-49.1436,10.0161,1014.76
17204,0.13869,9.76088,1.33907,1.89,-3.01,-0.42,-21.7229,-47.3549,12.2178,1014.76
17210,0.114778,9.7561,1.36298,1.82,-3.08,-0.21,-21.3161,-47.5091,11.346,1014.74
17216,0.143472,9.78001,1.31994,1.61,-3.57,0,-21.2871,-47.8792,11.1834,1014.74
17222,0.167384,9.7274,1.31994,2.17,-3.5,-0.07,-21.7229,-48.2492,11.7006,1014.75
17228,0.153037,9.73697,1.36298,2.1,-3.43,-0.28,-21.4324,-47.2624,11.5528,1014.75
17234,0.143472,9.74653,1.34864,1.82,-3.36,-0.56,-21.7229,-48.0025,9.77966,1014.72
17240,0.162602,9.76088,1.33907,2.1,-3.57,-0.14,-21.4905,-47.6941,11.8336,1014.72
17246,0.200861,9.78479,1.34864,1.89,-3.15,-0.14,-20.3573,-46.5222,12.0848,1014.72
17252,0.196078,9.74653,1.31994,1.82,-3.08,-0.35,-21.2871,-47.7866,11.1834,1014.75
17258,0.157819,9.75131,1.35342,1.47,-3.01,-0.07,-21.3452,-48.3109,11.2721,1014.75
17264,0.172166,9.74653,1.34385,1.54,-3.15,-0.49,-21.3742,-47.7866,11.6267,1014.76
17270,0.133907,9.74175,1.39168,2.1,-3.15,-0.35,-21.1127,-47.2624,11.9222,1014.76
17276,0.148254,9.79914,1.3056,1.75,-3.22,-0.49,-20.7059,-48.3109,11.6858,1014.75
17282,0.176949,9.78957,1.32472,1.54,-3.08,-0.56,-21.6939,-48.095,11.2721,1014.75
17288,0.133907,9.75131,1.32472,1.82,-3.43,-0.28,-22.0716,-47.0465,11.6119,1014.75
17294,0.109995,9.77044,1.33429,1.33,-3.57,-0.28,-20.8512,-48.6193,10.7549,1014.75
17300,0.129125,9.77523,1.34864,2.1,-3.57,-0.35,-20.8512,-48.0025,10.6662,1014.77
17306,0.153037,9.7561,1.32472,1.61,-3.57,-0.63,-21.6648,-48.3109,11.804,1014.77
17312,0.215208,9.85174,1.20038,1.47,-2.73,-0.49,-21.5486,-48.4343,12.1734,1014.77
17318,-0.0191296,9.67001,1.43472,1.89,-3.85,0.42,-21.0546,-48.9277,11.0504,1014.78
17324,0.10043,9.68914,1.3869,1.75,-3.64,0.21,-21.3452,-47.2624,10.8583,1014.78
17330,0.205643,9.75131,1.37255,1.89,-3.78,-0.07,-21.4033,-47.2932,12.6611,1014.75
17336,0.153037,9.77044,1.34864,1.68,-3.29,-0.28,-22.2169,-50.1613,9.36592,1014.75
17342,0.11956,9.73697,1.34385,2.45,-3.43,0,-21.8101,-47.3857,11.1539,1014.75
17348,0.13869,9.7561,1.34385,2.03,-3.15,0,-21.4324,-47.91,12.0996,1014.75
17354,0.176949,9.78479,1.32472,1.89,-3.01,0,-21.4033,-48.5576,10.8731,1014.8
17360,0.148254,9.78957,1.30081,1.54,-3.57,-0.35,-20.6769,-47.9408,11.8779,1014.8
17366,0.191296,9.78001,1.39646,1.89,-3.22,0.07,-21.258,-47.2932,11.671,1014.8
17372,0.224773,9.78479,1.31516,1.61,-2.8,-0.07,-21.1418,-48.4034,11.0504,1014.76
17378,0.148254,9.7561,1.34385,1.47,-2.73,-0.35,-21.8973,-48.5885,11.937,1014.76
17384,0.143472,9.76566,1.33907,1.68,-2.8,-0.49,-21.1709,-47.2007,11.9075,1014.75
17390,0.13869,9.76088,1.32472,1.75,-3.29,-0.63,-21.7229,-47.2932,11.7301,1014.75
17396,0.143472,9.74653,1.34864,1.89,-3.5,-0.56,-21.3452,-48.9894,10.223,1014.73
17402,0.105213,9.7274,1.33907,1.89,-3.43,-0.21,-21.6067,-47.8483,11.1243,1014.73
17408,0.143472,9.75131,1.38211,2.1,-3.5,-0.14,-21.8682,-47.6324,10.3559,1014.75
17414,0.129125,9.75131,1.33907,1.89,-3.43,0,-21.1418,-48.5268,10.5185,1014.75
17420,0.129125,9.74653,1.34385,2.45,-3.43,0.21,-20.8222,-48.3418,11.5085,1014.75
17426,0.153037,9.7561,1.36298,2.03,-3.08,-0.35,-21.0256,-46.8923,11.5381,1014.75
17432,0.124342,9.7274,1.33429,1.68,-3.22,0.21,-21.3742,-47.91,10.8436,1014.75
17438,0.148254,9.7561,1.32472,1.96,-3.01,0.56,-21.8392,-48.7118,10.8583,1014.76
17444,0.148254,9.81349,1.31516,1.89,-3.36,0.49,-21.3161,-46.8923,11.08,1014.76
17450,0.133907,9.7561,1.33429,1.82,-3.08,-0.42,-21.3452,-47.725,11.9518,1014.76
17456,0.143472,9.76566,1.32951,2.1,-3.57,0.14,-21.0837,-48.6193,10.5037,1014.76
17462,0.162602,9.73218,1.38211,2.17,-3.78,0.14,-22.1588,-46.954,11.0209,1014.77
17468,0.167384,9.78001,1.31516,1.82,-3.15,-0.07,-21.0837,-46.8615,12.9566,1014.77
17474,0.224773,9.78001,1.32472,1.68,-3.71,-0.49,-21.4614,-47.7866,10.7106,1014.77
17480,0.196078,9.76566,1.35342,2.03,-3.01,-0.7,-21.258,-47.4474,11.3164,1014.77
17486,0.13869,9.71305,1.37255,2.17,-3.15,0.28,-21.1709,-46.4297,12.4542,1014.77
17492,0.124342,9.78001,1.36298,2.1,-3.92,0.42,-21.3452,-47.6941,11.7745,1014.74
17498,0.181731,9.70827,1.42037,2.31,-3.15,-0.21,-21.6067,-48.8044,9.88309,1014.74
17504,0.11956,9.85174,1.19082,2.66,-3.57,-0.49,-21.9844,-47.0157,11.4494,1014.74
17510,0.243902,9.86609,1.16691,1.68,-3.43,-0.14,-20.9965,-46.6456,12.336,1014.74
17516,0.0334768,9.78957,1.40603,1.4,-3.01,0,-22.1588,-47.9408,11.7597,1014.77
17522,0.114778,9.72262,1.45863,2.31,-3.71,-0.63,-21.4905,-47.4166,12.2178,1014.77
17528,0.129125,9.77044,1.36777,2.24,-3.22,-0.21,-21.0256,-46.954,12.0404,1014.76
17534,0.0860832,9.8087,1.28647,2.24,-3.43,0.14,-21.1127,-47.139,11.4937,1014.76
17540,0.167384,9.74653,1.34864,1.96,-3.29,-0.35,-20.9384,-48.0025,11.9813,1014.76
17546,0.105213,9.74653,1.38211,1.82,-3.85,0.49,-21.3742,-46.5839,12.0848,1014.77
17552,0.148254,9.71784,1.34385,2.38,-3.57,-0.21,-21.3161,-47.139,11.5676,1014.77
17558,0.157819,9.77044,1.34864,1.96,-3.5,0.21,-21.1709,-48.1876,11.4198,1014.81
17564,0.181731,9.74175,1.34864,2.31,-3.22,0.91,-21.4905,-46.368,10.7697,1014.81
17570,0.191296,9.74653,1.35342,2.17,-3.36,-0.14,-21.8392,-47.6633,10.3559,1014.76
17576,0.21999,9.74653,1.32472,2.31,-3.71,-0.56,-21.781,-48.3726,11.4051,1014.76
17582,0.167384,9.7561,1.34385,2.1,-3.15,0.35,-21.3452,-47.0465,10.8288,1014.75
17588,0.153037,9.76566,1.35342,1.82,-2.8,0.21,-21.7229,-47.0465,10.1343,1014.75
17594,0.153037,9.77523,1.34864,2.17,-3.01,-0.63,-22.2169,-48.8969,11.8779,1014.75
17600,0.167384,9.79436,1.31516,2.1,-3.5,0,-22.0716,-47.4166,10.6662,1014.75
17606,0.157819,9.78957,1.31994,2.24,-3.36,0.14,-21.4905,-46.4605,11.5233,1014.75
17612,0.133907,9.76566,1.31516,1.96,-3.22,17.85,-21.8682,-47.5091,11.5972,1014.75
17618,0.129125,9.7561,1.37255,1.89,-3.5,0.07,-21.0546,-47.6633,10.814,1014.75
17624,0.129125,9.7561,1.37255,1.75,-3.57,-0.14,-21.4033,-47.2007,11.7745,1014.74
17630,0.124342,9.74653,1.35342,2.38,-3.71,0.14,-21.5486,-47.324,11.5085,1014.74
17636,0.148254,9.78001,1.3056,1.89,-3.64,0.42,-20.7641,-48.0025,10.9027,1014.82
17642,0.143472,9.74653,1.34385,1.68,-3.43,0,-21.2871,-48.2184,9.89787,1014.82
17648,0.153037,9.76088,1.31516,1.96,-3.43,0.42,-21.8392,-46.5222,10.7697,1014.74
17654,0.13869,9.74175,1.33429,1.89,-3.64,0.84,-21.8682,-48.3418,10.415,1014.74
17660,0.167384,9.7561,1.32951,2.38,-3.71,0.49,-21.8101,-48.0025,11.1834,1014.74
17666,0.148254,9.77044,1.34864,1.89,-3.29,-0.14,-21.0256,-46.7073,11.1834,1014.74
17672,0.186514,9.78479,1.36777,1.89,-3.71,0.07,-21.2871,-47.4474,12.0848,1014.74
17678,0.196078,9.74175,1.36298,2.31,-3.71,0.35,-22.0135,-49.637,9.42502,1014.76
17684,0.162602,9.78001,1.30081,2.1,-3.08,0.63,-21.6648,-46.3063,10.8436,1014.76
17690,0.153037,9.76566,1.36298,2.1,-3.43,0.14,-22.0135,-47.4474,12.2178,1014.78
17696,0.172166,9.75131,1.34864,1.82,-3.57,-0.56,-21.3452,-47.725,11.804,1014.78
17702,0.210426,9.7561,1.35342,2.24,-2.8,-0.07,-21.258,-47.1698,11.4789,1014.74
17708,0.205643,9.8087,1.32951,1.82,-2.66,0.14,-20.9965,-47.5091,11.7597,1014.74
17714,0.11956,9.76088,1.34385,1.75,-3.36,-0.7,-21.2871,-47.8792,13.0305,1014.74
17720,0.13869,9.74175,1.34385,1.33,-3.22,-0.42,-21.3161,-47.6324,11.2277,1014.74
17726,0.129125,9.7561,1.35342,2.03,-3.29,0.14,-20.8512,-47.5091,10.8731,1014.74
17732,0.13869,9.74175,1.36777,2.03,-3.08,-0.07,-20.9093,-48.5268,10.4741,1014.76
17738,0.129125,9.74175,1.39168,2.24,-3.36,-0.56,-21.9844,-48.5268,10.6071,1014.76
17744,0.148254,9.74653,1.31038,2.31,-3.29,0.14,-21.4033,-46.2138,11.6415,1014.74
17750,0.143472,9.74653,1.3582,2.03,-3.5,-0.35,-22.1007,-47.9408,10.6662,1014.74
17756,0.109995,9.73697,1.37255,1.96,-3.64,0.35,-21.1418,-48.0025,10.8879,1014.76
17762,0.148254,9.73218,1.34385,1.89,-3.36,0.42,-20.9675,-47.1698,11.1539,1014.76
17768,0.157819,9.75131,1.34385,1.82,-3.36,-0.14,-21.0256,-47.3857,11.4642,1014.76
17774,0.153037,9.7274,1.3056,2.1,-3.43,0,-20.5025,-48.1876,10.8288,1014.77
17780,0.153037,9.78957,1.34385,1.96,-3.5,0.21,-21.2871,-47.2624,10.6662,1014.77
17786,0.157819,9.78001,1.31994,1.96,-3.15,0.28,-20.9384,-47.1698,12.2916,1014.74
17792,0.181731,9.7561,1.33429,2.1,-3.08,-0.21,-20.6478,-47.5708,10.5185,1014.74
17798,0.181731,9.73697,1.32472,1.68,-3.29,0,-21.4033,-48.8969,10.4298,1014.73
17804,0.153037,9.7561,1.32951,1.68,-3.15,-0.14,-21.1999,-46.8615,13.0305,1014.73
17810,0.148254,9.77523,1.32951,1.68,-3.08,-0.14,-20.9384,-47.0157,10.814,1014.76
17816,0.191296,9.74175,1.34864,2.1,-3.64,-0.42,-20.6478,-48.3109,10.548,1014.76
17822,0.13869,9.7561,1.36298,1.89,-3.08,0.21,-21.1709,-47.0157,11.6119,1014.77
17828,0.124342,9.73218,1.36777,2.03,-3.29,0.07,-20.7931,-46.3372,12.3803,1014.77
17834,0.13869,9.75131,1.3582,2.1,-3.71,-0.14,-21.3742,-48.5576,10.7549,1014.77
17840,0.176949,9.74175,1.36298,2.03,-3.99,-0.28,-21.5195,-47.6016,10.9765,1014.77
17846,0.157819,9.74175,1.3582,1.89,-3.5,0.07,-21.6358,-46.0288,12.1882,1014.77
17852,0.124342,9.76088,1.32472,2.1,-3.01,0.7,-21.3742,-47.2932,12.6758,1014.74
17858,0.129125,9.73697,1.31038,2.59,-3.43,-0.14,-21.781,-48.681,10.0161,1014.74
17864,0.167384,9.7274,1.32472,2.38,-3.43,-0.07,-21.6067,-46.5531,11.671,1014.78
17870,0.172166,9.7561,1.34385,2.24,-3.57,0,-20.8222,-46.8923,11.3312,1014.78
17876,0.157819,9.77044,1.34385,2.17,-3.15,0.63,-21.6648,-47.9717,11.5085,1014.74
17882,0.157819,9.78479,1.31994,1.96,-3.36,-0.14,-21.3161,-47.6324,12.6906,1014.74
17888,0.157819,9.79436,1.34864,2.1,-3.29,0.42,-21.1709,-47.139,11.1391,1014.74
17894,0.176949,9.78957,1.28168,2.03,-3.64,-0.14,-21.3452,-48.1259,11.346,1014.75
17900,0.167384,9.76088,1.3056,2.17,-2.87,0.14,-21.9844,-47.5708,9.58757,1014.75
17906,0.186514,9.76566,1.36298,1.75,-3.01,0.35,-21.229,-46.368,12.0996,1014.75
17912,0.191296,9.73697,1.34864,2.1,-3.29,-0.7,-21.229,-47.9717,11.1686,1014.75
17918,0.196078,9.7561,1.33429,2.38,-3.22,-0.7,-21.3452,-47.725,10.7697,1014.78
17924,0.167384,9.76088,1.34864,2.03,-3.01,0.14,-20.4735,-47.0465,11.1243,1014.78
17930,0.162602,9.76566,1.36777,2.31,-3.43,-0.28,-21.4614,-47.4474,10.9913,1014.75
17936,0.162602,9.7274,1.36777,1.89,-3.78,-0.28,-21.6358,-47.9408,10.2673,1014.75
17942,0.124342,9.74653,1.33907,1.89,-3.08,0.42,-21.9554,-46.6147,11.4494,1014.75
17948,0.162602,9.74175,1.31516,1.96,-3.57,-0.14,-21.752,-47.5091,11.0948,1014.78
17954,0.124342,9.73218,1.35342,2.24,-3.78,17.64,-21.781,-47.8483,11.3607,1014.78
17960,0.143472,9.73697,1.34864,2.03,-3.5,-0.35,-22.246,-47.9408,11.3903,1014.75
17966,0.153037,9.73697,1.35342,1.82,-3.71,-0.42,-21.8973,-46.4914,12.0848,1014.75
17972,0.153037,9.76566,1.33429,1.89,-3.08,0.49,-21.6067,-48.0334,11.8631,1014.75
17978,0.157819,9.74175,1.33429,2.1,-3.71,0.7,-21.8682,-48.2184,11.8188,1014.75
17984,0.129125,9.75131,1.35342,2.03,-3.43,0,-21.3742,-46.8306,11.8188,1014.77
17990,0.157819,9.71784,1.34864,2.24,-3.57,0,-21.8392,-47.7558,11.7154,1014.77
17996,0.13869,9.74175,1.34864,1.96,-3.57,0.28,-21.9554,-47.725,10.5333,1014.77
18002,0.186514,9.76566,1.33907,2.03,-3.36,0.35,-21.8682,-47.3857,11.1834,1014.77
18008,0.215208,9.79436,1.31038,2.03,-3.01,-0.35,-21.781,-47.0773,11.1539,1014.77
18014,0.224773,9.81349,1.32472,2.03,-3.29,-0.07,-21.781,-48.5885,10.6367,1014.75
18020,0.176949,9.77523,1.32472,1.89,-3.5,0.14,-21.0546,-47.139,11.08,1014.75
18026,0.176949,9.78001,1.35342,1.82,-3.22,-0.28,-21.0546,-46.4297,12.3655,1014.74
18032,0.148254,9.78957,1.31994,1.54,-3.43,0,-20.735,-47.8792,10.4594,1014.74
18038,0.196078,9.7561,1.3582,2.03,-3.08,-0.63,-21.6067,-48.7735,10.4298,1014.79
18044,0.153037,9.78479,1.33429,1.68,-2.66,-0.28,-20.9965,-47.2315,11.8779,1014.79
18050,0.11956,9.7274,1.36777,1.82,-3.36,-0.28,-21.4905,-47.1082,11.6563,1014.77
18056,0.133907,9.73697,1.3582,2.17,-3.15,0.35,-21.2871,-48.3109,10.9618,1014.77
18062,0.172166,9.7561,1.34864,1.68,-3.08,-0.42,-21.6358,-47.2007,11.5528,1014.77
18068,0.143472,9.74175,1.34864,1.96,-3.36,-0.07,-20.9965,-47.4166,12.1587,1014.74
18074,0.109995,9.74175,1.35342,1.68,-3.57,0.21,-21.2871,-48.9586,11.0652,1014.74
18080,0.148254,9.75131,1.34864,2.38,-3.71,0.28,-21.7229,-48.3726,10.4446,1014.77
18086,0.143472,9.76088,1.33907,2.03,-3.43,0.07,-21.1709,-47.0465,10.6367,1014.77
18092,0.148254,9.74175,1.3056,2.17,-3.29,-0.14,-21.6939,-48.1876,10.6515,1014.8
18098,0.157819,9.79914,1.32951,2.1,-3.64,0.42,-21.258,-48.2801,9.85354,1014.8
18104,0.162602,9.77523,1.30081,2.03,-3.78,0.49,-20.6769,-46.5531,11.4494,1014.75
18110,0.172166,9.7561,1.32951,1.96,-3.36,0.07,-21.6939,-47.1082,11.8927,1014.75
18116,0.167384,9.78001,1.33429,2.17,-3.71,-0.35,-21.5486,-48.0025,10.4298,1014.75
18122,0.196078,9.77523,1.31994,1.96,-3.5,0.63,-22.1878,-47.3857,11.1095,1014.79
18128,0.153037,9.76566,1.31516,2.1,-3.57,-0.14,-21.781,-46.0288,10.8731,1014.79
18134,0.196078,9.77523,1.33429,2.17,-3.29,-0.56,-22.1297,-48.2801,10.3855,1014.75
18140,0.191296,9.78957,1.32472,1.89,-3.43,-0.28,-21.4324,-48.0642,11.1982,1014.75
18146,0.191296,9.76088,1.31516,2.03,-3.43,-0.14,-21.0546,-46.9848,11.9666,1014.76
18152,0.176949,9.77523,1.32951,2.03,-3.15,-0.35,-21.5486,-47.8792,11.4937,1014.76
18158,0.157819,9.7561,1.33429,2.24,-3.08,-0.21,-20.9093,-48.4651,10.1491,1014.73
18164,0.143472,9.73697,1.36298,2.1,-3.15,-0.7,-21.781,-46.6456,12.0848,1014.73
18170,0.133907,9.75131,1.29603,1.89,-3.36,0.21,-21.8101,-48.0642,11.7006,1014.79
18176,0.148254,9.77044,1.33907,2.17,-3.15,0.21,-22.1588,-48.4343,11.937,1014.79
18182,0.143472,9.74653,1.34864,2.1,-2.87,-0.35,-22.0135,-47.2932,11.8927,1014.79
18188,0.11956,9.76566,1.33907,2.17,-3.36,-0.35,-21.5776,-46.6147,11.8484,1014.75
18194,0.148254,9.74175,1.34864,2.17,-3.22,-0.28,-21.8682,-47.6633,11.6119,1014.75
18200,0.172166,9.75131,1.32951,2.1,-3.71,0.14,-21.6648,-47.5708,10.9322,1014.75
18206,0.153037,9.74653,1.34864,2.17,-3.99,0.21,-21.4324,-46.6456,11.3607,1014.75
18212,0.167384,9.75131,1.34864,1.68,-3.57,0.42,-20.9384,-47.324,11.1391,1014.76
18218,0.200861,9.74653,1.34385,2.31,-3.15,0.28,-21.7229,-47.9717,10.9322,1014.76
18224,0.181731,9.78479,1.33429,2.03,-3.08,0.14,-21.0546,-46.7689,11.346,1014.73
18230,0.172166,9.77044,1.30081,2.24,-3.85,0.21,-21.7229,-47.6633,10.8288,1014.73
18236,0.172166,9.78479,1.31516,1.82,-3.43,0,-21.3452,-47.8792,9.98653,1014.73
18242,0.200861,9.77044,1.31038,1.82,-3.78,-0.21,-21.4905,-46.8306,11.7154,1014.75
18248,0.186514,9.76088,1.31038,2.24,-3.64,-0.28,-22.1878,-46.6456,11.937,1014.75
18254,0.234338,9.78957,1.31038,2.24,-3.64,-0.21,-21.9844,-48.681,9.86832,1014.73
18260,0.23912,9.76566,1.33429,1.75,-3.5,-0.49,-22.275,-47.9717,11.346,1014.73
18266,0.167384,9.77523,1.31994,1.75,-2.94,-0.56,-21.2871,-46.7381,11.7154,1014.72
18272,0.0860832,9.76088,1.3582,1.75,-3.08,-0.63,-21.1709,-47.6016,10.7845,1014.72
18278,0.124342,9.76088,1.37255,1.61,-3.01,-0.21,-21.3161,-47.9408,10.6219,1014.77
18284,0.148254,9.73697,1.35342,1.82,-3.36,0.07,-22.0135,-46.954,11.8631,1014.77
18290,0.124342,9.73218,1.34864,2.17,-3.64,-0.56,-22.1297,-48.2801,10.9618,1014.77
18296,0.0908656,9.74653,1.34864,2.24,-3.36,-17.85,-21.7229,-48.095,11.0357,1014.77
18302,0.124342,9.77044,1.34864,2.24,-3.5,-0.07,-21.229,-47.0465,11.3312,1014.77
18308,0.167384,9.73218,1.33907,2.17,-3.15,-0.42,-22.0135,-47.139,11.0357,1014.76
18314,0.11956,9.78001,1.36777,2.1,-3.85,-0.14,-21.3452,-48.9277,11.6563,1014.76
18320,0.148254,9.74175,1.31516,2.17,-3.92,0.07,-21.4033,-46.9848,11.0948,1014.75
18326,0.13869,9.76566,1.33429,1.82,-3.43,0.14,-21.4614,-46.9231,10.548,1014.75
18332,0.172166,9.76088,1.31994,1.61,-3.57,-0.07,-22.4203,-48.8969,11.0209,1014.75
18338,0.157819,9.78957,1.32472,2.38,-4.06,-0.21,-21.4324,-47.9408,10.6367,1014.75
18344,0.181731,9.75131,1.31038,1.82,-3.22,-0.21,-21.4905,-46.2447,11.4346,1014.76
18350,0.215208,9.76566,1.31038,1.75,-3.5,0.21,-21.2871,-47.91,10.8436,1014.76
18356,0.191296,9.75131,1.29125,1.75,-3.5,-0.07,-21.3161,-48.4034,9.92742,1014.76
18362,0.167384,9.79436,1.34385,1.82,-3.5,-0.14,-21.781,-46.954,9.83876,1014.78
18368,0.205643,9.77044,1.33429,1.82,-3.43,0.21,-21.1127,-46.5531,11.0948,1014.78
18374,0.210426,9.76088,1.33429,1.68,-3.08,-0.63,-21.781,-47.4474,10.8879,1014.78
18380,0.210426,9.77523,1.33907,1.68,-3.01,-0.7,-21.6939,-47.2624,11.5233,1014.78
18386,0.191296,9.77523,1.35342,2.03,-3.36,-0.28,-20.5897,-46.6456,10.9174,1014.8
18392,0.11956,9.7274,1.33907,1.89,-2.59,-0.84,-21.5195,-48.1259,11.346,1014.8
18398,0.114778,9.76088,1.36298,1.33,-2.73,-0.42,-22.2169,-47.5399,12.07,1014.79
18404,0.124342,9.75131,1.33429,2.17,-3.22,-0.14,-21.229,-46.6147,12.8827,1014.79
18410,0.133907,9.72262,1.33429,1.89,-3.29,-0.7,-21.4033,-48.1259,12.336,1014.79
18416,0.13869,9.74175,1.3056,2.1,-3.36,-0.63,-21.3161,-49.0202,11.4494,1014.76
18422,0.13869,9.7561,1.33429,1.96,-3.5,-0.21,-20.8803,-47.5399,12.602,1014.76
18428,0.109995,9.74175,1.34385,1.82,-3.29,0,-21.3452,-46.5531,12.5428,1014.76
18434,0.133907,9.7561,1.34385,2.24,-3.57,0,-21.2871,-48.2801,10.8879,1014.76
18440,0.157819,9.76088,1.31038,2.1,-3.57,0.07,-21.9844,-47.2624,12.0404,1014.78
18446,0.162602,9.73697,1.33907,1.89,-3.36,-0.07,-21.258,-47.4474,12.3951,1014.78
18452,0.129125,9.75131,1.33429,1.75,-3.01,-0.21,-21.4905,-48.7118,12.0552,1014.76
18458,0.162602,9.76088,1.3582,2.17,-2.94,0.28,-21.7229,-48.496,11.0357,1014.76
18464,0.153037,9.73218,1.33429,2.03,-3.22,-0.14,-21.8101,-47.2007,12.0257,1014.76
18470,0.153037,9.76088,1.33429,1.96,-3.01,0.14,-21.4905,-48.2184,10.3707,1014.76
18476,0.143472,9.73218,1.33907,2.1,-3.43,0.7,-21.3742,-48.4651,11.0504,1014.76
18482,0.21999,9.76088,1.33907,2.45,-3.5,-0.42,-21.1709,-46.954,11.0652,1014.79
18488,0.186514,9.76088,1.32472,1.89,-3.5,-0.56,-21.781,-46.9848,11.6119,1014.79
18494,0.167384,9.74653,1.31516,1.89,-2.94,0.49,-22.2169,-48.1567,9.89787,1014.75
18500,0.143472,9.77523,1.33429,2.1,-3.15,-0.35,-21.0837,-47.6633,11.5381,1014.75
18506,0.143472,9.77523,1.34864,1.82,-2.94,0.35,-20.5025,-46.6764,10.9765,1014.78
18512,0.186514,9.7274,1.3582,2.1,-3.36,-0.28,-21.6939,-47.6941,11.6267,1014.78
18518,0.148254,9.77044,1.33429,1.96,-3.08,-0.35,-21.8101,-48.0025,11.5676,1014.74
18524,0.124342,9.76566,1.31516,1.82,-3.57,0.28,-21.4905,-46.6456,11.4937,1014.74
18530,0.129125,9.76088,1.33907,1.47,-3.71,-0.07,-20.5607,-47.2315,11.0504,1014.74
18536,0.148254,9.71784,1.3582,1.82,-3.01,-0.07,-20.735,-48.2492,10.415,1014.77
18542,0.157819,9.78001,1.31516,2.17,-3.43,-0.21,-21.6358,-46.7381,12.0848,1014.77
18548,0.172166,9.74175,1.31516,1.96,-3.64,-0.21,-21.3452,-46.8306,11.3164,1014.79
18554,0.133907,9.75131,1.34385,1.96,-3.22,-0.14,-21.0837,-49.2361,11.3607,1014.79
18560,0.167384,9.77523,1.32951,2.1,-3.29,-0.07,-21.5486,-47.3857,9.67622,1014.74
18566,0.13869,9.74175,1.33907,1.75,-3.43,0.07,-20.8222,-46.5531,10.7106,1014.74
18572,0.167384,9.76088,1.3056,2.24,-3.36,0.14,-21.1999,-47.7866,10.7253,1014.77
18578,0.172166,9.77044,1.31994,1.82,-3.64,0.07,-21.3742,-47.8483,10.814,1014.77
18584,0.191296,9.78479,1.32951,2.1,-3.29,-0.07,-21.4905,-46.3372,11.3755,1014.77
18590,0.196078,9.77523,1.32951,1.61,-2.87,-0.07,-21.0256,-47.5399,12.4542,1014.75
18596,0.172166,9.77044,1.34385,1.82,-3.22,-0.21,-21.3452,-48.2801,10.3412,1014.75
18602,0.172166,9.77044,1.35342,1.89,-3.22,-0.28,-21.2871,-47.3857,11.9813,1014.74
18608,0.157819,9.78479,1.31516,2.17,-3.29,-0.42,-21.1999,-47.3857,11.5972,1014.74
18614,0.148254,9.7561,1.32472,1.47,-3.43,0.07,-21.3742,-48.6193,11.2425,1014.75
18620,0.129125,9.77523,1.31994,1.89,-3.64,-0.42,-21.9554,-47.3857,11.6563,1014.75
18626,0.133907,9.7274,1.33429,2.31,-3.43,-0.07,-21.0256,-46.4605,12.4246,1014.77
18632,0.124342,9.77523,1.34864,1.89,-3.5,-0.49,-20.7641,-48.0642,11.9961,1014.77
18638,0.124342,9.77523,1.32472,1.75,-3.57,-0.21,-20.7931,-48.2492,10.5776,1014.76
18644,0.129125,9.76566,1.32951,1.68,-3.36,-0.14,-21.4033,-46.7381,12.7645,1014.76
18650,0.167384,9.75131,1.34385,2.17,-3.92,0.28,-22.3041,-48.4034,11.6415,1014.76
18656,0.143472,9.77044,1.34864,2.17,-3.78,0.21,-21.8101,-48.496,11.7006,1014.78
18662,0.167384,9.78001,1.3582,1.75,-3.57,0,-21.6939,-46.4605,11.7597,1014.78
18668,0.148254,9.72262,1.32472,1.96,-3.5,0,-22.275,-46.8615,12.0996,1014.76
18674,0.176949,9.75131,1.31038,2.1,-3.22,0.42,-21.8973,-47.8792,11.1095,1014.76
18680,0.162602,9.76088,1.34385,2.1,-3.78,-0.07,-21.7229,-47.2007,11.804,1014.77
18686,0.176949,9.77044,1.34864,1.89,-3.36,-0.35,-21.9263,-47.0773,11.4051,1014.77
18692,0.200861,9.77523,1.33907,1.75,-3.57,-0.07,-20.7059,-47.8483,11.0357,1014.73
18698,0.196078,9.79914,1.3056,2.1,-3.43,0.07,-21.6648,-47.6941,10.3559,1014.73
18704,0.243902,9.74175,1.33907,1.61,-3.15,-0.7,-21.6939,-45.7821,11.3312,1014.73
18710,0.181731,9.73697,1.38211,1.82,-3.57,-0.84,-21.2871,-48.2492,10.7401,1014.78
18716,0.13869,9.73697,1.32951,1.82,-3.08,-0.56,-21.4033,-48.5885,10.8288,1014.78
18722,0.153037,9.77044,1.29603,2.1,-3.01,-0.28,-21.5776,-47.7866,11.0652,1014.75
18728,0.11956,9.74175,1.35342,2.24,-3.22,-0.21,-21.1709,-47.0465,12.1734,1014.75
18734,0.148254,9.73697,1.35342,1.61,-2.73,0,-21.9263,-48.5885,10.5185,1014.78
18740,0.11956,9.7561,1.34864,2.03,-3.43,-0.35,-21.229,-47.1082,11.6415,1014.78
18746,0.148254,9.76566,1.3056,2.31,-3.57,-0.56,-21.0256,-46.7689,11.0209,1014.76
18752,0.124342,9.76566,1.31994,2.17,-3.43,0,-21.3452,-48.0334,11.3903,1014.76
18758,0.172166,9.74653,1.34864,2.03,-3.57,0.14,-21.0837,-47.4782,11.213,1014.76
18764,0.124342,9.74653,1.31994,2.1,-3.85,-0.42,-20.8803,-46.7073,11.8484,1014.78
18770,0.167384,9.76088,1.34864,2.03,-3.08,-0.49,-21.4033,-48.681,10.9174,1014.78
18776,0.143472,9.74653,1.29603,2.24,-3.5,0.28,-21.4614,-47.9408,11.0948,1014.77
18782,0.167384,9.79914,1.33429,2.31,-3.22,-0.14,-21.229,-47.324,10.8583,1014.77
18788,0.172166,9.7561,1.32951,1.68,-3.43,-0.14,-21.1709,-46.8923,11.1686,1014.76
18794,0.200861,9.77523,1.31516,1.75,-3.15,0.28,-21.229,-47.5399,10.8583,1014.76
18800,0.267814,9.79914,1.33429,2.17,-3.01,0.07,-21.4324,-46.6764,10.7401,1014.74
18806,0.191296,9.78957,1.29125,1.75,-3.22,-0.49,-21.4324,-46.3372,11.7745,1014.74
18812,0.153037,9.77044,1.34385,1.75,-3.57,-0.35,-21.0256,-48.095,12.1143,1014.77
18818,0.162602,9.76088,1.34385,1.96,-3.15,0.07,-21.6939,-47.3549,10.947,1014.77
18824,0.148254,9.74653,1.32951,2.31,-3.29,-0.35,-21.1418,-46.3372,11.9222,1014.77
18830,0.153037,9.76566,1.36298,1.68,-3.57,-0.63,-21.3161,-47.2007,11.08,1014.77
18836,0.11956,9.73697,1.33429,1.96,-3.5,-0.35,-21.7229,-48.2184,10.9174,1014.77
18842,0.114778,9.75131,1.35342,1.68,-3.36,0.07,-21.5486,-46.6147,12.6611,1014.78
18848,0.143472,9.71305,1.33907,2.17,-3.57,0.14,-21.3452,-47.1082,11.3903,1014.78
18854,0.124342,9.77523,1.32472,2.31,-3.29,0.35,-21.2871,-48.2184,11.3016,1014.77
18860,0.172166,9.7274,1.31038,1.75,-3.57,-0.35,-21.9263,-47.2007,10.947,1014.77
18866,0.13869,9.77044,1.33429,2.17,-3.64,-0.35,-22.0135,-45.8129,11.3164,1014.75
18872,0.157819,9.73218,1.3056,1.05,-3.43,0.35,-22.1588,-48.681,8.56799,1014.75
18878,0.153037,9.76088,1.31038,1.82,-3.43,0.35,-21.3452,-47.91,12.1143,1014.75
18884,0.143472,9.78001,1.33429,2.17,-3.43,-0.14,-21.1999,-46.6764,11.1834,1014.74
18890,0.153037,9.7274,1.34385,1.75,-3.22,0.07,-20.5316,-47.3857,10.7549,1014.74
18896,0.181731,9.77044,1.32951,2.17,-3.43,0.28,-21.4614,-47.6633,10.548,1014.77
18902,0.215208,9.76088,1.29603,1.89,-3.36,-0.14,-20.6769,-47.3857,11.671,1014.77
18908,0.176949,9.77044,1.34385,2.31,-3.36,0.14,-21.3452,-47.4166,11.2277,1014.73
18914,0.172166,9.78001,1.31994,1.82,-3.22,-0.21,-21.3161,-48.7427,10.7106,1014.73
18920,0.181731,9.77044,1.32951,1.75,-3.01,-0.07,-20.7641,-47.2932,10.4003,1014.72
18926,0.191296,9.77044,1.33429,2.03,-3.08,-0.35,-21.5195,-47.0773,12.3064,1014.72
18932,0.129125,9.74653,1.31516,1.82,-3.5,-0.77,-21.8101,-48.3418,11.8631,1014.72
18938,0.143472,9.78001,1.33907,2.1,-3.92,-0.35,-21.8973,-48.0334,10.6958,1014.79
18944,0.153037,9.74653,1.37733,2.24,-3.36,0.07,-20.9093,-47.4474,12.9566,1014.79
18950,0.176949,9.72262,1.31994,1.75,-3.08,-0.42,-21.3161,-48.1567,10.2673,1014.78
18956,0.148254,9.74175,1.34864,2.31,-3.78,-0.84,-21.8392,-48.3109,10.6219,1014.78
18962,0.167384,9.76088,1.31994,2.17,-3.43,0.21,-21.229,-47.2932,11.3903,1014.78
18968,0.157819,9.76088,1.31038,1.89,-3.08,0.07,-20.9093,-47.6633,12.6758,1014.78
18974,0.176949,9.75131,1.29125,2.31,-3.01,-0.56,-21.6648,-48.681,10.3412,1014.77
18980,0.129125,9.78001,1.3582,2.31,-3.57,17.78,-21.258,-47.3857,10.9027,1014.77
18986,0.157819,9.71305,1.31038,2.1,-3.15,0,-20.6478,-47.2624,10.6662,1014.75
18992,0.176949,9.7561,1.31038,2.38,-3.5,0.28,-21.1418,-48.2184,11.4346,1014.75
18998,0.153037,9.76566,1.34864,1.96,-3.78,0.28,-21.1127,-48.3109,11.7745,1014.75
19004,0.196078,9.75131,1.32472,2.38,-4.06,0.14,-20.0958,-47.5399,12.9861,1014.75
19010,0.224773,9.78479,1.28647,1.96,-3.22,-0.14,-21.0546,-48.3418,12.1882,1014.75
19016,0.215208,9.78001,1.3056,2.1,-2.8,-0.21,-21.9844,-48.4034,10.7992,1014.74
19022,0.129125,9.78479,1.3056,2.1,-3.08,-0.21,-21.0256,-47.2932,12.3064,1014.74
19028,0.11956,9.78957,1.34864,1.96,-3.29,-0.21,-20.8803,-47.0773,11.7597,1014.75
19034,0.176949,9.77044,1.35342,1.89,-3.22,-0.63,-20.9093,-48.5576,11.0357,1014.75
19040,0.176949,9.76566,1.37255,1.96,-3.57,-0.42,-21.3452,-47.7558,10.681,1014.76
19046,0.109995,9.77044,1.33429,2.38,-3.57,0.07,-21.5776,-46.7073,12.5281,1014.76
19052,0.143472,9.74653,1.35342,1.96,-3.5,-0.56,-22.0716,-48.5268,10.5776,1014.76
19058,0.167384,9.75131,1.3582,2.03,-2.87,0.07,-21.4614,-48.1567,11.1539,1014.78
19064,0.133907,9.77523,1.33429,2.38,-3.64,0,-20.8512,-47.4166,10.548,1014.78
19070,0.153037,9.77044,1.34385,2.1,-3.5,-0.21,-21.6067,-48.2184,11.346,1014.75
19076,0.143472,9.76566,1.31994,2.24,-3.92,0.42,-21.5195,-49.1744,10.8436,1014.75
19082,0.13869,9.7561,1.31038,1.61,-2.94,0.28,-21.4905,-48.496,9.24771,1014.77
19088,0.13869,9.76566,1.35342,2.31,-3.08,0,-21.0256,-47.5091,12.203,1014.77
19094,0.143472,9.76088,1.28647,1.96,-3.64,-0.14,-21.4324,-48.5885,10.3264,1014.76
19100,0.176949,9.78001,1.34864,1.89,-3.92,0.56,-20.5607,-48.2801,9.92742,1014.76
19106,0.153037,9.7274,1.34385,1.89,-3.08,0.42,-21.1709,-47.5708,11.5824,1014.76
19112,0.167384,9.7561,1.34385,1.75,-3.29,-0.28,-21.3742,-48.3726,9.691,1014.77
19118,0.21999,9.73697,1.33429,2.17,-3.29,-0.14,-21.781,-48.3109,10.1195,1014.77
19124,0.162602,9.74653,1.32472,1.96,-3.36,0.07,-21.1999,-47.6633,11.9518,1014.76
19130,0.196078,9.78001,1.33907,2.24,-3.43,0.07,-20.9965,-48.0025,11.0061,1014.76
19136,0.148254,9.77044,1.33429,2.03,-3.01,0.42,-21.4905,-48.7118,9.57279,1014.7
19142,0.191296,9.74175,1.32951,1.68,-3.08,-0.35,-21.781,-46.8306,11.2425,1014.7
19148,0.210426,9.77044,1.32472,1.82,-2.94,-0.14,-21.4905,-47.2007,12.0848,1014.77
19154,0.181731,9.7561,1.32951,2.52,-3.29,-0.14,-22.3041,-48.866,11.1095,1014.77
19160,0.095648,9.74175,1.31994,1.61,-2.8,0.14,-21.8392,-47.324,11.4494,1014.73
19166,0.10043,9.75131,1.35342,2.1,-3.29,-0.42,-21.7229,-46.8923,12.6611,1014.73
19172,0.176949,9.77044,1.32951,2.24,-3.71,0.07,-21.6939,-48.4034,10.8731,1014.73
19178,0.133907,9.78479,1.35342,2.03,-3.29,0.14,-22.0716,-48.5268,10.7697,1014.76
19184,0.148254,9.78479,1.32472,2.1,-3.36,-0.28,-20.8803,-47.5399,11.6563,1014.76
19190,0.133907,9.75131,1.36298,1.61,-3.43,0.77,-20.8512,-48.6193,11.8779,1014.78
19196,0.143472,9.73697,1.32951,1.89,-3.29,-0.21,-22.275,-48.4651,11.2573,1014.78
19202,0.181731,9.75131,1.33907,2.38,-3.5,-0.14,-21.752,-46.8923,12.4542,1014.76
19208,0.157819,9.77044,1.31516,1.68,-3.08,0.77,-21.5195,-47.0773,11.3312,1014.76
19214,0.162602,9.78001,1.34864,2.38,-3.78,-0.07,-21.9554,-48.9894,10.9174,1014.74
19220,0.162602,9.74653,1.31038,2.38,-3.5,-0.7,-21.6358,-48.4034,12.6611,1014.74
19226,0.148254,9.76566,1.33429,2.1,-3.36,0.35,-21.6358,-46.8923,11.5972,1014.74
19232,0.162602,9.76566,1.3056,1.96,-3.29,0.49,-22.1588,-48.2184,11.8927,1014.7
19238,0.191296,9.76088,1.29125,2.24,-3.85,-0.21,-22.0426,-48.2492,10.6515,1014.7
19244,0.196078,9.77523,1.33429,2.17,-3.57,-0.28,-20.9965,-46.7381,11.8484,1014.76
19250,0.191296,9.7561,1.33429,2.31,-3.5,0.28,-21.4905,-48.3418,11.0061,1014.76
19256,0.172166,9.77044,1.31516,1.89,-3.15,0.14,-21.8392,-48.5268,11.4494,1014.76
19262,0.191296,9.7561,1.31516,2.1,-3.29,0.21,-21.3742,-46.7998,10.7992,1014.76
19268,0.143472,9.78957,1.33429,1.82,-3.78,-0.07,-21.752,-47.139,11.5972,1014.76
19274,0.167384,9.75131,1.33429,2.31,-3.36,-0.07,-20.9965,-48.681,11.1834,1014.76
19280,0.157819,9.77044,1.33429,1.89,-3.22,-0.21,-21.0546,-47.2932,12.3803,1014.76
19286,0.148254,9.76088,1.33907,2.17,-3.36,-0.21,-21.5776,-47.1082,12.1439,1014.77
19292,0.167384,9.75131,1.32951,1.96,-3.43,-0.07,-22.275,-48.2801,11.2277,1014.77
