Timestamp,AccX,AccY,AccZ,AngularVelX,AngularVelY,AngularVelZ,MagX,MagY,MagZ,AirPressure
21092,-0.349115,9.72262,1.10952,1.68,-0.56,-1.4,-31.1673,-36.8821,-1.67215,1014.39
21098,-0.353898,9.77523,1.05691,1.89,-0.42,-1.47,-31.2246,-37.2294,-1.92734,1014.4
21104,-0.353898,9.8087,1.05691,1.12,-0.63,-1.26,-30.2506,-37.5188,-1.41696,1014.4
21110,-0.363462,9.78001,1.06169,1.89,-0.35,-1.47,-31.1673,-37.0268,-1.02,1014.42
21116,-0.344333,9.77523,1.01865,1.4,-0.21,-1.47,-31.0814,-37.7793,-1.30354,1014.42
21122,-0.334768,9.79436,1.02343,1.68,-0.28,-1.47,-31.4538,-36.6506,-1.74303,1014.43
21128,-0.33955,9.79914,1.0043,1.19,0.07,-1.47,-31.0814,-37.403,-1.28937,1014.43
21134,-0.373027,9.78479,1.04735,1.26,0.28,-1.68,-30.8236,-37.5767,-0.892406,1014.44
21140,-0.325203,9.78001,1.03778,0.77,0.42,-1.75,-31.5111,-36.94,-1.81392,1014.44
21146,-0.37781,9.76566,0.994739,1.12,0.35,-1.75,-30.8809,-36.7953,-2.45189,1014.44
21152,-0.373027,9.85174,0.942133,0.63,-0.21,-1.61,-31.4251,-36.969,-2.12582,1014.4
21158,-0.363462,9.80392,1.00909,0.56,0.42,-1.47,-31.4251,-37.2584,-1.24683,1014.4
21164,-0.334768,9.81349,1.0043,0.7,-0.21,-2.03,-30.9095,-37.5767,-2.11164,1014.39
21170,-0.373027,9.78001,1.05213,0.49,0.42,-1.75,-31.0241,-36.8243,-0.991646,1014.39
21176,-0.406504,9.75131,1.07604,0.84,-0.14,-1.47,-32.0267,-37.1137,-1.28937,1014.41
21182,-0.396939,9.76566,1.04735,0.7,0,-1.4,-30.9668,-37.3452,-0.311143,1014.41
21188,-0.425634,9.76566,1.06648,0.7,-0.21,-1.54,-30.6803,-37.9529,-1.99822,1014.45
21194,-0.430416,9.79436,1.07604,1.19,-0.07,-1.26,-31.196,-38.0397,-1.41696,1014.45
21200,-0.430416,9.80392,1.06648,0.84,-0.28,-1.4,-30.7376,-37.6056,-1.89898,1014.43
21206,-0.416069,9.77523,1.06648,1.4,-0.7,-1.12,-31.0527,-37.8371,-0.963291,1014.43
21212,-0.37781,9.79914,1.033,1.33,-0.14,-0.98,-30.6803,-37.1426,-0.72228,1014.39
21218,-0.368245,9.77044,1.04256,0.84,0.14,-1.33,-31.1673,-37.895,-1.40278,1014.39
21224,-0.406504,9.79436,1.01865,0.77,-0.07,-1.05,-30.0501,-37.7793,-0.5238,1014.42
21230,-0.353898,9.78001,1.02822,1.26,0,-1.19,-30.5944,-37.5767,-1.50202,1014.42
21236,-0.37781,9.77523,1.02822,0.63,-0.14,-1.19,-30.8809,-37.1715,-1.91316,1014.42
21242,-0.353898,9.74175,1.0043,0.98,0.07,-1.12,-30.6517,-37.3162,-1.40278,1014.42
21248,-0.401722,9.74175,1.01387,0.63,0.42,-1.33,-31.2533,-37.4609,0.326829,1014.42
21254,-0.420851,9.77044,1.09039,0.84,0.14,-1.12,-31.196,-37.1137,-1.03418,1014.42
21260,-0.425634,9.74175,1.06648,1.05,0.07,-0.84,-31.2246,-37.3741,-1.74303,1014.42
21266,-0.420851,9.76566,1.02343,1.26,-0.14,-1.26,-30.4798,-37.3162,-1.40278,1014.4
21272,-0.425634,9.78957,1.02822,0.49,0.28,-0.91,-30.8522,-37.8661,-1.50202,1014.4
21278,-0.406504,9.76088,1.05213,0.84,-0.21,-0.98,-30.4512,-37.7214,-1.24683,1014.41
21284,-0.411286,9.77523,1.0856,1.19,-0.28,-1.19,-30.9095,-37.7503,-1.47367,1014.41
21290,-0.416069,9.81349,1.03778,0.84,-0.42,-0.84,-30.5944,-36.8532,-0.991646,1014.42
21296,-0.430416,9.77523,1.02343,0.84,-0.42,-1.05,-30.5657,-37.6056,-1.60126,1014.42
21302,-0.382592,9.7561,1.04256,0.98,0.28,-0.84,-30.0501,-37.2294,-1.45949,1014.45
21308,-0.349115,9.78479,1.03778,0.84,-0.21,-0.91,-30.4512,-37.2005,-0.778989,1014.45
21314,-0.430416,9.78957,1.01387,0.77,0.28,-0.91,-31.3106,-37.2005,-1.58709,1014.45
21320,-0.430416,9.81827,1.00909,0.63,0.21,-0.84,-30.9095,-37.2873,-1.95569,1014.44
21326,-0.392157,9.78957,1.02822,0.63,0.21,-0.7,-31.11,-37.2294,-1.92734,1014.44
21332,-0.396939,9.77044,1.01865,1.12,-0.21,-0.77,-31.2246,-37.6346,-0.566332,1014.41
21338,-0.382592,9.79436,1.01387,0.56,0.07,-0.98,-31.2819,-37.1715,-1.09089,1014.41
21344,-0.35868,9.77044,1.01865,0.84,0.21,-0.7,-31.0527,-37.0847,-2.56531,1014.41
21350,-0.420851,9.79436,0.994739,0.56,0.07,-0.7,-30.4798,-36.8532,-0.651394,1014.41
21356,-0.435198,9.78001,0.966045,0.07,-0.28,-0.42,-30.3366,-37.5188,-0.481269,1014.43
21362,-0.401722,9.78479,1.033,-0.14,0.28,-0.77,-30.8236,-37.8082,-0.268611,1014.43
21368,-0.416069,9.76566,1.04735,0.56,-0.14,-0.77,-30.9668,-37.7503,-1.84227,1014.43
21374,-0.463893,9.78479,1.00909,0.49,0.21,-0.63,-30.4798,-37.7503,-1.03418,1014.43
21380,-0.45911,9.78001,1.033,0.28,0.28,-0.77,-31.1673,-37.2294,-1.81392,1014.43
21386,-0.439981,9.75131,1.06169,0.42,0,-0.35,-30.6803,-36.8532,-1.81392,1014.43
21392,-0.435198,9.74175,1.07604,0.77,-0.28,-0.28,-30.3079,-37.895,-1.23266,1014.43
21398,-0.392157,9.77523,1.04256,0.63,-0.21,-0.42,-30.9095,-37.5767,-1.47367,1014.44
21404,-0.45911,9.76088,1.04256,0.63,-0.07,-0.28,-30.709,-37.0558,-2.45189,1014.44
21410,-0.416069,9.77523,1.04256,1.05,0.28,-0.28,-30.709,-36.4191,-1.06253,1014.41
21416,-0.401722,9.75131,1.04735,0.42,0.07,-0.49,-30.7376,-37.2005,-1.10506,1014.41
21422,-0.401722,9.77523,1.01865,0.42,0.28,-0.49,-30.3366,-36.969,-1.92734,1014.44
21428,-0.411286,9.78001,0.980392,0.28,-0.14,-0.42,-31.2533,-37.4609,-1.67215,1014.44
21434,-0.425634,9.80392,0.970827,0.28,-0.14,-0.28,-30.8809,-37.403,-1.41696,1014.42
21440,-0.468675,9.82305,0.994739,-0.28,0.21,-0.28,-30.5371,-36.94,-1.44531,1014.42
21446,-0.420851,9.81827,0.989957,0.07,0.14,-0.28,-30.5657,-37.6924,-1.96987,1014.4
21452,-0.439981,9.80392,1.00909,-0.07,0.21,0.07,-30.8522,-37.2584,-1.60126,1014.4
21458,-0.444763,9.75131,1.05691,-0.14,0.14,0.07,-30.4798,-37.2005,-1.43114,1014.41
21464,-0.435198,9.73697,1.09039,0,0.7,-0.07,-29.8209,-36.9979,-2.43771,1014.41
21470,-0.396939,9.77523,1.08082,0.7,0.21,-0.35,-30.0788,-37.7503,-0.495446,1014.44
21476,-0.396939,9.78001,1.06648,0.21,0,-0.14,-30.623,-36.7664,-1.62962,1014.44
21482,-0.382592,9.78479,1.03778,0.56,-0.28,-0.28,-31.0241,-37.403,-1.88481,1014.44
21488,-0.387374,9.7561,1.03778,0.28,-0.07,-0.21,-30.5657,-36.8821,-1.85645,1014.46
21494,-0.430416,9.75131,1.06169,0.35,-0.14,0,-29.9069,-36.6506,-2.49442,1014.46
21500,-0.449546,9.80392,1.00909,-0.07,-0.21,0,-30.6803,-36.8243,-1.09089,1014.43
21506,-0.430416,9.79914,1.01387,0.35,-0.28,0.07,-30.0215,-36.5928,-1.65797,1014.43
21512,-0.420851,9.83261,0.942133,-0.35,0.14,0,-30.0788,-37.9239,-1.03418,1014.42
21518,-0.468675,9.7561,1.04256,0.14,-0.35,0.35,-30.3652,-37.1137,-1.79974,1014.42
21524,-0.420851,9.71305,1.1143,0.07,-0.28,0.14,-30.1074,-37.403,-1.00582,1014.42
21530,-0.435198,9.76566,1.04256,0.42,0.14,0.21,-30.2506,-36.94,-1.94151,1014.42
21536,-0.411286,9.77044,1.04256,0.49,0,0.35,-30.4798,-37.3741,-2.16835,1014.44
21542,-0.387374,9.76088,1.04735,0.28,0.28,0.14,-30.5085,-37.7214,-2.39518,1014.44
21548,-0.411286,9.79914,1.02822,0.49,-0.28,0.07,-30.9954,-38.1555,-2.35265,1014.43
21554,-0.392157,9.79436,1.00909,0.42,-0.07,-0.07,-30.3939,-36.6217,-1.24683,1014.43
21560,-0.420851,9.78479,1.00909,0.21,-0.35,-0.07,-30.9095,-37.895,-0.934937,1014.43
21566,-0.401722,9.79914,1.00909,0.42,0.21,0.35,-30.2793,-37.0268,-1.75721,1014.4
21572,-0.35868,9.77523,1.01387,-0.28,-0.14,0.28,-30.5085,-37.5188,-1.74303,1014.4
21578,-0.406504,9.7561,1.05213,0.35,-0.14,0.28,-30.4798,-37.2005,-1.7005,1014.45
21584,-0.435198,9.76088,1.04256,0.07,-0.07,0.21,-30.3652,-36.9111,-2.04075,1014.45
21590,-0.420851,9.75131,1.06169,-0.14,0.21,0.35,-31.0527,-37.3741,-1.45949,1014.42
21596,-0.454328,9.76088,1.05213,0.42,-0.28,0.21,-30.4512,-37.403,-0.977469,1014.42
21602,-0.430416,9.78957,1.03778,0.21,-0.14,0.21,-30.7376,-37.3452,-1.55873,1014.42
21608,-0.411286,9.79914,1.05691,0.14,-0.35,0.42,-30.9382,-37.2873,-1.3319,1014.42
21614,-0.463893,9.79914,1.04735,-0.07,0.07,0.63,-31.2819,-37.5477,-2.72126,1014.45
21620,-0.454328,9.79436,1.04735,0.35,-0.49,0.42,-30.8809,-37.1137,-2.80632,1014.45
21626,-0.382592,9.78479,1.02822,-0.28,-0.14,0.56,-30.2793,-37.1426,-3.0048,1014.41
21632,-0.353898,9.73218,1.08082,0.07,0.42,0.49,-30.9668,-37.3741,-1.54455,1014.41
21638,-0.325203,9.69392,1.1143,0.56,-0.21,0.28,-30.5371,-36.5059,-2.08329,1014.41
21644,-0.368245,9.75131,1.08082,0.84,-0.14,0.14,-31.0527,-37.3741,-1.71468,1014.44
21650,-0.37781,9.7274,1.03778,0.56,-0.07,0.07,-30.4512,-37.8661,-1.34607,1014.44
21656,-0.387374,9.76088,0.989957,0.21,0.21,-0.14,-30.5944,-36.5928,-2.22506,1014.45
21662,-0.373027,9.75131,1.02822,0.49,0.21,0.28,-30.709,-37.2294,-1.87063,1014.45
21668,-0.373027,9.77523,0.980392,0.28,0.21,-0.21,-30.2506,-37.6346,-1.88481,1014.39
21674,-0.392157,9.7561,1.033,-0.28,0.07,-0.14,-29.9642,-37.4899,-1.17595,1014.39
21680,-0.373027,9.7561,1.06648,0,0.07,-0.21,-30.7663,-37.3452,-1.44531,1014.43
21686,-0.392157,9.73218,1.02822,-0.07,-0.42,-0.42,-30.7376,-36.9111,-0.991646,1014.43
21692,-0.425634,9.77044,1.03778,0,0.07,-0.42,-30.2506,-37.2584,-2.28177,1014.39
21698,-0.430416,9.80392,1.02822,0.07,0.07,0,-30.7376,-38.4159,-2.02658,1014.39
21704,-0.411286,9.79436,1.03778,0.28,-0.21,-0.63,-30.5944,-38.4159,-1.11924,1014.41
21710,-0.387374,9.79436,1.03778,-0.14,-0.07,-0.42,-30.1933,-37.9239,-1.81392,1014.41
21716,-0.454328,9.79436,1.05213,-0.21,-0.21,0.07,-30.8809,-37.895,-2.13999,1014.41
21722,-0.444763,9.79914,1.04256,-0.07,0.21,0,-30.8236,-37.6924,-1.53038,1014.41
21728,-0.401722,9.8087,1.02343,-0.35,-0.42,0,-30.8809,-37.432,-0.0417772,1014.41
21734,-0.35868,9.76088,1.04735,0.07,-0.84,0.35,-30.5657,-36.9111,-0.311143,1014.42
21740,-0.373027,9.72262,1.05691,0.28,-0.35,-0.07,-31.3106,-37.1715,-2.09746,1014.42
21746,-0.396939,9.7274,1.08082,0.42,0.14,0.14,-30.9954,-37.2584,-2.67873,1014.42
21752,-0.368245,9.7561,1.06648,0.07,-0.07,-0.07,-31.11,-37.1426,-1.85645,1014.42
21758,-0.382592,9.77523,1.03778,0.91,0.14,-0.14,-30.5085,-38.0108,-2.86303,1014.42
21764,-0.37781,9.7561,1.04256,0.63,-0.07,-0.21,-30.8809,-37.5477,-2.18253,1014.42
21770,-0.387374,9.76566,1.00909,0.56,0,0,-30.9382,-37.403,-1.00582,1014.39
21776,-0.406504,9.81349,0.97561,0.56,0.28,-0.21,-30.5085,-37.6056,-1.3319,1014.39
21782,-0.430416,9.8374,0.994739,0,-0.14,0.28,-30.6517,-38.0108,-0.467091,1014.43
21788,-0.444763,9.77523,1.0043,-0.21,-0.14,0.7,-30.3366,-37.403,-1.03418,1014.43
21794,-0.435198,9.76088,1.04256,-0.07,-0.56,0.35,-30.0501,-37.9239,-2.1967,1014.4
21800,-0.363462,9.77523,1.06169,0.28,-0.28,0.42,-30.6803,-37.6635,-2.02658,1014.4
21806,-0.406504,9.78479,1.05213,0.35,-0.07,0.35,-30.7376,-37.7503,-1.71468,1014.4
21812,-0.401722,9.75131,1.07604,0.63,-0.7,0.35,-30.6803,-37.9818,-1.16177,1014.46
21818,-0.368245,9.76566,1.04256,0.35,0,0.56,-30.5944,-37.2873,-1.58709,1014.46
21824,-0.401722,9.74175,1.04256,0.49,-0.28,0.42,-30.709,-37.432,-1.78557,1014.43
21830,-0.37781,9.76566,1.02822,0.14,-0.49,0.07,-30.3652,-37.9239,-0.0134229,1014.43
21836,-0.392157,9.77523,1.05691,-0.14,-0.07,0.21,-30.8522,-37.3741,-1.43114,1014.4
21842,-0.406504,9.76566,1.04256,0.49,-0.14,0.49,-30.5371,-37.8082,-1.81392,1014.4
21848,-0.334768,9.74175,1.01387,0,-0.07,-0.35,-30.6517,-38.0108,-1.03418,1014.4
21854,-0.349115,9.71305,1.06648,0.07,0,-0.42,-30.9095,-37.403,-1.09089,1014.4
21860,-0.373027,9.78479,1.06169,0.14,0.14,0.21,-30.7376,-37.432,-2.38101,1014.43
21866,-0.420851,9.78001,1.03778,0.35,-0.07,-0.56,-30.8522,-37.2873,-1.36025,1014.43
21872,-0.37781,9.78479,1.01387,0.42,-0.07,0.07,-30.2506,-37.403,-0.708103,1014.41
21878,-0.416069,9.7561,1.02343,0.14,-0.14,-0.14,-30.5657,-37.6346,-1.43114,1014.41
21884,-0.454328,9.77523,1.01387,0.42,-0.28,-0.28,-30.7949,-37.2584,-2.40936,1014.41
21890,-0.420851,9.83261,0.985174,0.49,0,0.21,-30.2793,-38.2423,-1.78557,1014.41
21896,-0.463893,9.80392,1.033,0,-0.14,0,-31.0527,-37.1137,-1.58709,1014.41
21902,-0.463893,9.79914,1.04256,-0.07,0.14,0.35,-30.3366,-37.0847,-2.86303,1014.41
21908,-0.387374,9.78001,1.07604,0.07,-0.35,0.42,-31.1673,-37.5188,-2.21088,1014.41
21914,-0.416069,9.74175,1.07604,0.21,-0.7,0.35,-30.623,-37.9239,-2.56531,1014.43
21920,-0.406504,9.75131,1.0856,0.35,-0.77,0.28,-30.2506,-37.6056,-2.23923,1014.43
21926,-0.392157,9.73218,1.05691,0.14,-0.35,0.21,-30.5371,-37.7503,-2.16835,1014.43
21932,-0.363462,9.76566,1.06169,0.35,0.21,0,-30.222,-37.5767,-0.835697,1014.43
21938,-0.353898,9.73697,1.06648,0.49,-0.07,0.21,-30.623,-37.7793,-1.24683,1014.42
21944,-0.387374,9.75131,1.06648,0.7,0.07,-0.35,-31.196,-37.8661,-0.608863,1014.42
21950,-0.387374,9.7561,1.06169,0.35,0.07,-0.42,-31.0527,-37.8082,-1.13342,1014.42
21956,-0.35868,9.7561,1.02822,0.28,0.28,0.14,-30.5657,-37.0847,-1.87063,1014.42
21962,-0.387374,9.77044,1.02343,0.42,-0.21,-0.21,-30.3939,-37.1137,-1.40278,1014.4
21968,-0.382592,9.77044,1.0043,0.42,0.07,-0.14,-31.0814,-37.7503,-1.92734,1014.4
21974,-0.406504,9.79436,0.994739,-0.14,0.14,-0.49,-31.2819,-36.8532,-1.88481,1014.4
21980,-0.454328,9.81349,0.97561,0,-0.35,-0.35,-31.6257,-37.1137,-1.77139,1014.45
21986,-0.382592,9.8087,1.02822,0.07,0.14,0,-30.4225,-37.1715,-0.62304,1014.45
21992,-0.37781,9.77044,1.04256,-0.42,-0.14,0,-30.8522,-37.0268,-1.91316,1014.4
21998,-0.396939,9.76088,1.07126,-0.56,0.35,-0.21,-30.709,-36.94,-2.04075,1014.4
22004,-0.396939,9.75131,1.05691,-0.07,-0.07,-0.14,-30.3366,-37.8082,-2.84885,1014.43
22010,-0.430416,9.7561,1.06169,-0.21,-0.14,-0.28,-30.7949,-37.1137,-2.35265,1014.43
22016,-0.416069,9.77523,1.05213,-0.42,0.14,0.07,-31.0241,-36.6796,-2.3243,1014.42
22022,-0.392157,9.7561,1.06648,0.35,0,0.07,-30.9668,-37.0268,-1.99822,1014.42
22028,-0.363462,9.75131,1.06169,-0.07,0.35,-0.21,-30.7663,-36.8243,-1.17595,1014.42
22034,-0.401722,9.76566,1.06648,-0.21,-0.07,0.14,-31.3679,-37.7503,-1.16177,1014.42
22040,-0.406504,9.77523,1.05213,0.35,-0.21,0.14,-30.5657,-36.9111,-1.79974,1014.43
22046,-0.35868,9.73697,1.06648,0.56,-0.21,-0.35,-30.7663,-37.6056,-1.72886,1014.43
22052,-0.382592,9.7274,1.08082,0.35,0.14,-0.07,-31.0241,-37.403,-1.36025,1014.43
22058,-0.353898,9.80392,1.02343,0.7,-0.07,-0.14,-30.9668,-37.2005,-1.40278,1014.45
22064,-0.416069,9.75131,1.01387,0.14,0.07,-0.28,-31.4538,-37.4899,-1.89898,1014.45
22070,-0.401722,9.79914,1.01387,0.49,0.14,-0.14,-30.9382,-37.4899,-1.09089,1014.42
22076,-0.387374,9.76566,1.033,0.28,-0.21,-0.35,-30.1933,-37.1715,-1.87063,1014.42
22082,-0.387374,9.7561,1.033,0,0.28,0,-30.9382,-37.7503,-1.95569,1014.46
22088,-0.396939,9.8087,1.033,0.14,-0.28,0.21,-30.7663,-37.3162,-1.47367,1014.46
22094,-0.425634,9.77044,1.04735,0.35,0.07,-0.28,-31.11,-37.7503,-1.57291,1014.42
22100,-0.396939,9.74653,1.08082,0.21,-0.35,-0.07,-31.196,-37.1137,-1.77139,1014.42
22106,-0.406504,9.76088,1.05691,-0.07,0.42,0.07,-31.1387,-37.3452,-1.91316,1014.44
22112,-0.396939,9.76088,1.04735,0.42,-0.42,-0.14,-30.9954,-36.8243,-2.35265,1014.44
22118,-0.411286,9.78001,1.01387,0.07,-0.21,-0.07,-31.3106,-37.5767,-2.04075,1014.42
22124,-0.387374,9.74175,1.05213,0.49,-0.35,-0.21,-31.1673,-37.1715,-1.74303,1014.42
22130,-0.401722,9.79914,1.03778,0.49,0.07,0.14,-31.4538,-37.2584,-1.13342,1014.42
22136,-0.37781,9.77523,1.01387,-0.07,0.21,0.14,-30.7376,-37.1715,-1.85645,1014.43
22142,-0.435198,9.8087,1.01387,-0.07,0.14,0.28,-31.5111,-37.2584,-2.5086,1014.43
22148,-0.344333,9.76566,1.04735,0.07,0,0,-32.571,-37.6346,-1.78557,1014.43
22154,-0.315638,9.75131,1.05691,0.21,0,-0.07,-31.3679,-36.94,-1.84227,1014.43
22160,-0.37781,9.74175,1.08082,0.7,0.21,-0.35,-30.5944,-37.1426,-1.41696,1014.41
22166,-0.396939,9.77044,1.05213,0.42,0,0,-31.11,-37.4899,-2.18253,1014.41
22172,-0.392157,9.75131,1.033,0.56,-0.21,-0.21,-31.3106,-37.432,-1.79974,1014.41
22178,-0.37781,9.7561,1.06648,0.21,0.28,-0.07,-30.7663,-37.2873,-2.40936,1014.41
22184,-0.392157,9.74175,1.06169,0.28,0.21,-0.28,-30.9668,-37.3741,-2.52278,1014.43
22190,-0.387374,9.7274,1.05213,0.07,0.28,-0.07,-30.9095,-37.403,-1.78557,1014.43
22196,-0.416069,9.78001,1.05213,-0.28,0.07,-0.42,-30.9954,-36.8532,-0.963291,1014.43
22202,-0.444763,9.78479,1.02822,-0.35,-0.14,-0.21,-30.8522,-37.0268,-1.47367,1014.43
22208,-0.392157,9.77523,1.04256,0.28,0.07,-0.28,-31.5111,-37.1426,-2.31012,1014.38
22214,-0.382592,9.7561,1.02822,0.07,-0.35,-0.35,-31.1387,-37.5477,-1.79974,1014.38
22220,-0.420851,9.75131,1.08082,-0.07,-0.07,-0.14,-30.7376,-36.5059,-1.91316,1014.38
22226,-0.425634,9.76088,1.07604,0.63,-0.14,-0.07,-31.0527,-37.1137,-1.2043,1014.44
22232,-0.401722,9.74175,1.05213,0.49,0,0.21,-30.4798,-36.8821,-1.71468,1014.44
22238,-0.392157,9.77044,1.06648,0.28,-0.56,0,-30.623,-37.1137,-2.08329,1014.43
22244,-0.382592,9.74175,1.04256,0.21,-0.07,0.21,-31.2819,-37.7793,-1.74303,1014.43
22250,-0.406504,9.77044,1.07126,0.77,0.07,-0.21,-30.7949,-37.432,-2.35265,1014.43
22256,-0.416069,9.77044,1.04256,0.49,0.21,-0.14,-31.3679,-37.2005,-2.05493,1014.43
22262,-0.373027,9.77523,1.02343,-0.14,0.35,0.07,-31.3965,-37.2005,-1.47367,1014.41
22268,-0.396939,9.76566,1.01387,-0.07,-0.07,0.14,-30.9954,-37.4899,-2.38101,1014.41
22274,-0.406504,9.78957,1.04735,0.49,-0.14,-0.07,-31.7976,-37.8082,-2.12582,1014.43
22280,-0.382592,9.78479,1.033,-0.14,-0.28,-0.07,-30.7663,-37.3452,-1.74303,1014.43
22286,-0.392157,9.74175,1.07126,0.49,-0.21,-0.14,-31.11,-37.8371,-1.71468,1014.42
22292,-0.373027,9.75131,1.05213,0,-0.07,-0.14,-30.6803,-37.8082,-1.7005,1014.42
22298,-0.37781,9.77044,1.04735,0.49,-0.14,-0.28,-30.5657,-37.1137,-1.91316,1014.42
22304,-0.382592,9.75131,1.06648,0.14,-0.14,-0.28,-31.2246,-38.0686,-2.23923,1014.45
22310,-0.435198,9.77523,1.07604,0.49,-0.28,0,-30.9095,-37.5767,-1.47367,1014.45
22316,-0.411286,9.81349,1.02343,0.28,-0.42,-0.07,-31.0527,-37.6924,-2.04075,1014.41
22322,-0.439981,9.80392,1.01387,0.07,-0.14,0.21,-30.222,-37.1715,-3.62859,1014.41
22328,-0.401722,9.79436,1.06648,-0.14,-0.07,0.07,-30.3939,-37.0847,-2.3243,1014.42
22334,-0.35868,9.7561,1.09995,0.21,-0.28,-0.07,-30.8522,-37.6056,-1.7005,1014.42
22340,-0.37781,9.75131,1.09517,0.7,0.21,0.49,-30.709,-36.969,-1.48785,1014.43
22346,-0.439981,9.76088,1.0856,0.14,-0.35,0.42,-30.5085,-37.2873,-2.5086,1014.43
22352,-0.363462,9.77523,1.06648,0.63,-0.28,-0.07,-30.3079,-37.4609,-1.3319,1014.44
22358,-0.315638,9.77044,1.04735,0.56,0,0.63,-30.709,-37.3452,-2.15417,1014.44
22364,-0.368245,9.75131,1.06169,0.63,-0.21,0.14,-30.9095,-37.1137,-2.31012,1014.42
22370,-0.353898,9.7561,1.04735,0.42,0,-0.07,-30.709,-37.5767,-1.44531,1014.42
22376,-0.382592,9.7561,1.01865,0.49,-0.14,-0.14,-30.623,-36.5349,-2.26759,1014.42
22382,-0.392157,9.77044,1.033,0.14,0.07,-0.35,-30.8236,-37.4899,-1.74303,1014.42
22388,-0.382592,9.76566,1.04735,0.63,0,0.14,-31.11,-38.1844,-2.83467,1014.42
22394,-0.373027,9.76566,1.05213,0.28,0.07,-0.28,-30.623,-37.2294,-2.40936,1014.43
22400,-0.363462,9.75131,1.07126,-0.14,0.14,-0.49,-31.2533,-38.5027,-2.49442,1014.43
22406,-0.392157,9.76566,1.05213,0.49,-0.07,-0.21,-30.1074,-38.2133,-2.8205,1014.45
22412,-0.392157,9.76088,1.05213,0.28,-0.14,-0.21,-31.2533,-38.0108,-2.22506,1014.45
22418,-0.387374,9.76088,1.033,0.28,-0.07,0,-30.9668,-37.895,-1.95569,1014.43
22424,-0.411286,9.78001,1.07126,0.35,-0.21,-0.21,-31.0814,-37.7793,-2.25341,1014.43
22430,-0.401722,9.7561,1.07604,0.63,-0.07,-0.14,-31.2533,-37.7793,-2.8205,1014.42
22436,-0.406504,9.76566,1.01387,0.42,-0.14,-0.49,-30.6517,-37.3741,-2.21088,1014.42
22442,-0.411286,9.78479,1.03778,0,-0.49,-0.21,-30.9095,-37.7214,-1.48785,1014.43
22448,-0.396939,9.73218,1.09517,0.35,0,-0.28,-30.5657,-37.5767,-2.25341,1014.43
22454,-0.363462,9.76566,1.07126,0.28,-0.14,-0.14,-32.1127,-38.7053,-2.6929,1014.44
22460,-0.411286,9.74175,1.05691,0.21,0,-0.49,-31.0814,-37.7793,-1.17595,1014.44
22466,-0.363462,9.78001,1.03778,0.63,0,-0.28,-31.0814,-37.4609,-0.552154,1014.44
22472,-0.368245,9.77044,1.02822,0.42,0.07,0,-31.2246,-37.7503,-1.94151,1014.41
22478,-0.37781,9.78479,1.03778,0.42,0.21,-0.14,-30.9382,-37.7793,-1.57291,1014.41
22484,-0.382592,9.74653,1.03778,0.56,-0.14,-0.35,-30.7376,-37.6635,-1.27519,1014.44
22490,-0.368245,9.7561,1.05213,0.14,0.35,0,-31.0241,-37.6635,-1.95569,1014.44
22496,-0.416069,9.76088,1.04256,0.56,0.14,-0.49,-30.9954,-37.6346,-1.43114,1014.42
22502,-0.349115,9.75131,1.04256,0.28,0,-0.35,-31.5684,-37.5477,-2.21088,1014.42
22508,-0.392157,9.76088,1.04735,0.35,0.14,-0.28,-31.2533,-37.0268,-1.75721,1014.43
22514,-0.396939,9.76566,1.05691,0.21,0.42,-0.14,-30.8236,-37.2005,-2.46607,1014.43
22520,-0.416069,9.82783,1.02343,0.63,-0.28,-0.21,-31.4824,-37.2873,-2.23923,1014.43
22526,-0.396939,9.78957,1.01387,0.28,-0.63,-0.07,-31.4538,-37.2584,-2.90556,1014.43
22532,-0.416069,9.78001,1.06169,0.49,-0.7,0.21,-30.6803,-37.7214,-2.35265,1014.42
22538,-0.392157,9.78957,1.05213,0.21,-0.14,0,-31.2819,-37.1715,-1.17595,1014.42
22544,-0.401722,9.76088,1.07126,0.14,-0.14,0,-30.8809,-37.8082,-2.56531,1014.42
22550,-0.37781,9.76566,1.06169,0.49,0,0.28,-31.3679,-37.2873,-1.37443,1014.41
22556,-0.363462,9.7561,1.09039,0.91,0.21,-0.14,-31.7689,-38.5317,-2.45189,1014.41
22562,-0.353898,9.73697,1.06648,0.35,-0.21,-0.21,-30.7376,-36.8243,-1.68633,1014.44
22568,-0.344333,9.74175,1.10473,0.56,0.14,0.07,-31.3965,-37.5188,-1.85645,1014.44
22574,-0.363462,9.7274,1.07604,1.12,-0.14,0,-31.597,-37.6924,-1.87063,1014.41
22580,-0.425634,9.81827,1.02343,0.91,0.35,-0.35,-31.1387,-37.1426,-1.72886,1014.41
22586,-0.416069,9.77523,1.00909,0.28,-0.07,0.21,-30.6803,-37.5767,-0.651394,1014.42
22592,-0.382592,9.78957,1.01387,0.28,0.28,0.07,-30.623,-37.7503,-1.38861,1014.42
22598,-0.368245,9.78957,1.05691,0.91,-0.07,-0.14,-30.3939,-37.432,-1.41696,1014.42
22604,-0.353898,9.77523,1.05691,0.07,-0.07,-0.14,-31.0527,-37.8661,-1.68633,1014.42
22610,-0.416069,9.76088,1.05213,0.07,0,-0.42,-29.7923,-37.4899,-1.54455,1014.41
22616,-0.396939,9.73697,1.06169,0.28,0.35,-0.49,-30.7376,-37.5188,-2.40936,1014.41
22622,-0.401722,9.7561,1.08082,-0.07,0.42,0.07,-30.9382,-37.2584,-2.39518,1014.4
22628,-0.396939,9.77044,1.033,0.63,0,0.07,-30.9095,-37.2873,-2.35265,1014.4
22634,-0.439981,9.8087,1.04256,0.35,-0.14,0,-31.3965,-37.403,-2.11164,1014.4
22640,-0.420851,9.77044,1.06169,0.35,-0.35,0,-30.5085,-37.6924,-1.17595,1014.43
22646,-0.396939,9.76566,1.07126,0.49,-0.14,0.21,-31.2819,-37.4899,-1.13342,1014.43
22652,-0.411286,9.77044,1.06648,0.98,0.14,-0.21,-30.7376,-38.1844,-1.00582,1014.45
22658,-0.430416,9.76088,1.08082,0.28,0.14,0.07,-31.4824,-37.403,-2.6929,1014.45
22664,-0.368245,9.76088,1.04735,0.42,-0.21,0.42,-31.196,-37.6346,-1.71468,1014.44
22670,-0.368245,9.7561,1.06648,0.49,-0.14,0.28,-30.5657,-37.6056,-1.31772,1014.44
22676,-0.35868,9.77044,1.033,0.49,-0.35,0.07,-31.5397,-37.895,-1.40278,1014.41
22682,-0.334768,9.73697,1.05691,0.42,0.42,0.28,-30.9382,-37.6056,-0.949114,1014.41
22688,-0.382592,9.74653,1.06169,0.35,0,0,-31.0814,-37.4609,-1.21848,1014.43
22694,-0.35868,9.73697,1.05691,0,0.28,0.07,-31.1387,-37.7503,-1.03418,1014.43
22700,-0.373027,9.78001,1.01865,-0.07,0.56,-0.21,-30.8522,-37.4609,-2.36683,1014.42
22706,-0.382592,9.75131,1.02822,0.84,-0.14,-0.21,-30.7376,-38.0108,-2.66455,1014.42
22712,-0.363462,9.78479,1.02343,-0.35,0.28,0.07,-30.9954,-37.6635,-1.91316,1014.42
22718,-0.420851,9.77523,1.06169,0.07,0.07,0.14,-31.683,-37.6346,-2.49442,1014.42
22724,-0.439981,9.79436,1.0043,0.14,0.14,-0.28,-30.9954,-37.9239,-1.43114,1014.42
22730,-0.420851,9.8087,1.04256,0.21,-0.14,0.35,-31.2246,-37.4609,-1.11924,1014.41
22736,-0.401722,9.76566,1.033,0.14,-0.28,0.21,-31.0527,-37.8661,-2.23923,1014.41
22742,-0.406504,9.78001,1.06169,0.35,-0.28,0.21,-30.5371,-37.1715,-1.89898,1014.42
22748,-0.411286,9.76088,1.09039,0.21,-0.21,0.14,-30.9954,-37.5188,-1.84227,1014.42
22754,-0.396939,9.78479,1.03778,0.28,0.07,0.21,-30.9382,-37.8082,-0.793166,1014.44
22760,-0.382592,9.75131,1.08082,0.42,0.14,0.21,-30.7949,-37.7793,-1.72886,1014.44
22766,-0.353898,9.72262,1.06169,0.35,0.14,-0.07,-31.3392,-37.6924,-0.807343,1014.41
22772,-0.363462,9.7561,1.09039,0.42,-0.21,0.07,-31.2246,-38.0108,-1.87063,1014.41
22778,-0.411286,9.75131,1.07604,0.28,0.07,0.07,-30.9382,-38.4159,-1.48785,1014.4
22784,-0.349115,9.74175,1.04735,0.49,0,0,-31.11,-38.0686,-1.8281,1014.4
22790,-0.37781,9.7561,1.03778,0.56,0.07,-0.21,-30.9382,-37.3162,-1.27519,1014.4
22796,-0.349115,9.76088,1.05213,0.63,-0.21,-0.14,-30.9095,-37.7793,-2.04075,1014.43
22802,-0.368245,9.79436,1.033,-0.07,-0.21,-0.21,-30.7663,-37.432,-1.57291,1014.43
22808,-0.37781,9.77523,1.04256,0.28,0,-0.35,-31.3679,-37.6924,-2.70708,1014.43
22814,-0.373027,9.75131,1.04256,0.49,0.07,0,-30.6803,-37.403,-1.7005,1014.43
22820,-0.373027,9.77044,1.01865,0,0.28,-0.56,-31.1387,-37.8371,-0.452914,1014.42
22826,-0.439981,9.82783,1.01387,-0.14,-0.21,0.07,-30.7949,-37.7214,-0.934937,1014.42
22832,-0.47824,9.81349,1.04735,0.21,0.28,0.56,-31.11,-37.6346,-0.906583,1014.44
22838,-0.392157,9.79914,1.02822,-0.21,0.14,-0.07,-30.6803,-38.0397,-1.38861,1014.44
22844,-0.368245,9.73697,1.06648,0,-0.28,0.21,-30.3079,-36.9979,-2.04075,1014.43
22850,-0.411286,9.76566,1.07604,0,-0.07,0.21,-30.1647,-37.6346,-0.339497,1014.43
22856,-0.392157,9.73697,1.08082,0.07,0.28,0.14,-30.9382,-37.4609,-1.88481,1014.42
22862,-0.411286,9.73697,1.10473,0.35,-0.07,0.42,-30.709,-37.4609,-0.892406,1014.42
22868,-0.368245,9.7561,1.09039,0.49,-0.21,0.35,-30.6803,-37.6924,-0.708103,1014.42
22874,-0.353898,9.74653,1.07604,0.49,0.07,0.07,-30.623,-37.7214,-1.13342,1014.42
22880,-0.373027,9.73697,1.06648,0.56,0.21,0.56,-30.5085,-38.2423,-0.977469,1014.42
22886,-0.392157,9.74175,1.03778,0.77,-0.28,0.14,-30.709,-37.7793,-1.23266,1014.4
22892,-0.382592,9.7561,1.02343,0.77,0.14,-0.07,-31.0527,-37.6924,0.27012,1014.4
22898,-0.363462,9.77044,0.999522,0.63,0.07,0.28,-30.5944,-37.8082,-1.74303,1014.42
22904,-0.363462,9.76566,1.02343,0.49,-0.35,-0.14,-29.9928,-37.403,-1.06253,1014.42
22910,-0.33955,9.78957,1.04735,0.77,0.21,0.28,-30.8522,-37.5188,-1.79974,1014.42
22916,-0.401722,9.78957,1.02343,0.35,0.21,0,-30.9954,-36.94,-1.85645,1014.42
22922,-0.435198,9.8087,0.999522,-0.14,-0.14,-0.28,-30.8236,-36.7953,-1.21848,1014.39
22928,-0.37781,9.80392,1.02343,0.42,0,0.28,-30.9382,-37.3741,-1.61544,1014.39
22934,-0.33955,9.79436,1.05213,0.14,-0.42,0.28,-31.11,-37.7214,-2.02658,1014.41
22940,-0.420851,9.78479,1.07126,0.14,0.07,0.07,-30.9095,-37.432,-1.48785,1014.41
22946,-0.439981,9.79436,1.05691,-0.21,0,0.42,-30.7663,-37.4609,-1.27519,1014.41
22952,-0.37781,9.77044,1.05213,-0.63,-0.21,-0.07,-30.2793,-37.895,-2.16835,1014.41
22958,-0.363462,9.75131,1.08082,-0.07,-0.28,0.21,-30.7663,-38.0976,-1.85645,1014.41
22964,-0.382592,9.74653,1.0856,0.21,-0.28,0.14,-30.709,-37.6346,-1.48785,1014.42
22970,-0.344333,9.75131,1.08082,0.35,-0.42,0,-31.3965,-37.4609,-1.7005,1014.42
22976,-0.35868,9.75131,1.0856,0.49,-0.21,0.07,-31.7689,-36.9111,-1.67215,1014.44
22982,-0.382592,9.7561,1.07126,0.56,0.14,0.21,-30.9954,-37.2005,-1.27519,1014.44
22988,-0.368245,9.7561,1.06169,0.7,-0.07,0.28,-30.9382,-37.6056,-1.67215,1014.41
22994,-0.349115,9.73218,1.04256,0.7,-0.35,0.07,-31.2819,-37.2873,-1.10506,1014.41
23000,-0.334768,9.74653,1.033,0,0.21,0.21,-31.3106,-37.403,-1.17595,1014.39
23006,-0.373027,9.76566,1.05691,0.28,-0.14,0.07,-31.0527,-37.0558,-1.11924,1014.39
23012,-0.416069,9.82783,1.05691,0.42,0.07,-0.14,-30.7949,-37.7503,-1.07671,1014.45
23018,-0.416069,9.77044,1.00909,-0.07,-0.07,0.07,-31.2819,-37.2873,-1.36025,1014.45
23024,-0.363462,9.78001,1.02343,0.14,0.07,0.63,-30.8809,-37.3741,-0.608863,1014.45
23030,-0.392157,9.7561,1.04735,0.35,-0.07,0.42,-30.6517,-37.2873,-1.92734,1014.45
23036,-0.353898,9.74175,1.07604,-0.14,-0.07,0.21,-30.9382,-38.0397,-1.55873,1014.45
23042,-0.382592,9.78001,1.07604,0.56,-0.42,0.21,-31.196,-37.2584,-2.04075,1014.41
23048,-0.382592,9.76088,1.06169,0.42,-0.63,0.35,-31.3106,-37.5188,-2.13999,1014.41
23054,-0.344333,9.78957,1.02822,0.14,0.07,0.07,-30.7949,-37.7214,-2.79214,1014.43
23060,-0.373027,9.78001,1.02343,-0.07,-0.28,0.35,-31.1673,-36.7664,-0.991646,1014.43
23066,-0.37781,9.78001,1.04256,0.42,-0.21,0.42,-31.4538,-36.7664,-1.38861,1014.42
23072,-0.363462,9.78957,1.04256,0,-0.42,0.56,-31.1387,-37.4609,-1.57291,1014.42
23078,-0.344333,9.73697,1.07604,0.07,-0.07,0.07,-30.3079,-37.2584,-1.72886,1014.41
23084,-0.310856,9.71305,1.07126,0.21,0.21,-0.28,-30.8236,-37.3452,-1.41696,1014.41
23090,-0.373027,9.70827,1.1143,0.07,0,0.14,-31.196,-36.8821,-1.41696,1014.48
23096,-0.344333,9.73697,1.08082,0.56,0.28,0.14,-30.9954,-37.1715,-0.5238,1014.48
23102,-0.349115,9.7561,1.04735,0.7,0.07,-0.42,-30.7663,-37.0847,-1.75721,1014.41
23108,-0.392157,9.75131,1.03778,0.28,0,0.07,-31.2246,-37.1137,-0.240257,1014.41
23114,-0.37781,9.77044,1.06169,0.7,-0.21,-0.14,-30.8809,-37.2294,-1.7005,1014.42
23120,-0.411286,9.80392,1.05213,0.98,-0.14,-0.21,-31.2533,-37.5767,-1.89898,1014.42
23126,-0.329986,9.77044,1.04735,0.07,-0.28,0.21,-30.9095,-37.5477,-1.40278,1014.42
23132,-0.387374,9.76566,1.04735,0.14,-0.14,0.21,-30.4512,-36.9111,-1.87063,1014.42
23138,-0.35868,9.78001,1.06648,0.56,-0.07,-0.07,-30.9668,-37.6635,-1.62962,1014.42
23144,-0.37781,9.76566,1.06648,0.63,-0.21,-0.14,-30.6803,-37.5188,-2.59366,1014.43
23150,-0.363462,9.7561,1.04256,0.84,-0.14,0.21,-31.3965,-36.5928,-1.16177,1014.43
23156,-0.334768,9.74653,1.07604,0.28,0.21,-0.14,-31.4824,-37.5767,-2.6929,1014.43
23162,-0.373027,9.77523,1.06648,0.63,0.07,-0.07,-31.11,-37.1426,-1.58709,1014.43
23168,-0.349115,9.74653,1.04256,0.21,-0.21,0,-31.1673,-37.403,-1.96987,1014.47
23174,-0.334768,9.78001,1.07126,0.63,-0.07,-0.07,-30.5085,-37.7214,-1.03418,1014.47
23180,-0.344333,9.74175,1.05213,0.35,0,-0.28,-30.8522,-37.7503,-2.5086,1014.42
23186,-0.387374,9.76088,1.07126,0.49,0.28,-0.28,-30.7663,-37.2005,-1.54455,1014.42
23192,-0.392157,9.75131,1.0856,1.05,0.07,-0.21,-31.2533,-37.4899,-2.8205,1014.43
23198,-0.35868,9.8087,1.033,0.42,0.35,0,-31.11,-37.1426,-2.05493,1014.43
23204,-0.373027,9.79914,1.04256,0.56,-0.21,-0.21,-31.1387,-37.3452,-2.52278,1014.43
23210,-0.392157,9.83261,1.033,0.56,0.14,0.07,-31.0814,-37.5188,-1.71468,1014.47
23216,-0.406504,9.81827,1.02822,0.49,-0.42,-0.14,-30.623,-37.403,-2.11164,1014.47
23222,-0.35868,9.78479,1.07126,0.42,0.56,0.14,-30.709,-36.8532,-1.74303,1014.44
23228,-0.37781,9.75131,1.0856,0.63,-0.07,0.14,-31.7403,-37.6635,-1.87063,1014.44
23234,-0.368245,9.73697,1.09039,0.21,0.21,0.14,-31.0814,-37.4609,-1.19013,1014.4
23240,-0.387374,9.74175,1.06169,0.7,-0.14,0.21,-31.0241,-36.7374,-2.08329,1014.4
23246,-0.373027,9.7274,1.07126,0.84,-0.28,0,-31.3965,-37.1715,-1.57291,1014.45
23252,-0.363462,9.79914,1.04256,0.49,-0.21,0,-30.7949,-37.3162,-1.02,1014.45
23258,-0.35868,9.7274,1.06648,0.7,-0.07,0.21,-31.2819,-37.4899,-1.34607,1014.39
23264,-0.33955,9.7561,1.0856,0.63,-0.07,-0.35,-31.3679,-36.9111,-1.81392,1014.39
23270,-0.35868,9.79436,1.04256,0.56,0,0.14,-31.0527,-37.6346,-2.67873,1014.42
23276,-0.363462,9.77523,1.05213,0.56,0,-0.14,-31.3392,-37.6056,-1.91316,1014.42
23282,-0.35868,9.75131,1.04735,0.84,-0.07,-0.56,-31.1673,-36.94,-2.29594,1014.42
23288,-0.349115,9.7561,1.03778,0.49,0.42,-0.21,-30.3652,-37.6346,-0.651394,1014.43
23294,-0.35868,9.76566,1.05691,-0.07,0,-0.35,-30.3652,-37.6056,-1.31772,1014.43
23300,-0.392157,9.79436,1.01865,0.21,-0.07,-0.21,-30.5944,-36.8532,-2.04075,1014.4
23306,-0.416069,9.81349,1.02822,0.42,-0.42,-0.21,-31.2819,-37.7503,-2.43771,1014.4
23312,-0.37781,9.77523,1.033,0.35,0.14,-0.14,-30.1933,-38.0686,-2.56531,1014.44
23318,-0.35868,9.78001,1.06169,0.21,0.42,0,-30.7376,-37.4899,-2.40936,1014.44
23324,-0.33955,9.76088,1.05213,0.07,0.07,-0.35,-31.0241,-37.3452,-2.65037,1014.44
23330,-0.420851,9.76566,1.09995,0,0.14,-0.07,-31.196,-37.895,-1.99822,1014.44
23336,-0.387374,9.77044,1.09039,0.56,-0.42,0.21,-30.7376,-37.7214,-2.3243,1014.43
23342,-0.363462,9.73218,1.06648,0.49,0,0,-30.7376,-37.432,-2.12582,1014.43
23348,-0.353898,9.76566,1.033,0.42,0.21,0,-30.2506,-36.94,-2.31012,1014.4
23354,-0.353898,9.74653,1.06169,0.7,-0.35,-0.14,-31.0241,-37.4899,-2.6929,1014.4
23360,-0.349115,9.73697,1.04735,0.42,0,-0.07,-30.623,-37.9239,-3.13239,1014.46
23366,-0.349115,9.73218,1.03778,0.14,0.14,-0.14,-31.3392,-38.3291,-3.14657,1014.46
23372,-0.363462,9.74653,1.07126,0.84,0.49,0.07,-31.1387,-37.1426,-2.02658,1014.46
23378,-0.363462,9.7561,1.06169,0.14,0.42,-0.28,-31.597,-38.2133,-3.27417,1014.42
23384,-0.37781,9.7561,1.03778,0.21,0.91,0.21,-30.6803,-36.969,-1.88481,1014.42
23390,-0.449546,9.81349,0.989957,0.7,-0.07,-0.21,-31.11,-37.2294,-1.91316,1014.45
23396,-0.406504,9.8374,0.985174,0.14,0.28,0.14,-31.0241,-37.4899,-1.87063,1014.45
23402,-0.444763,9.85174,1.0043,0.7,-0.14,0.28,-31.5111,-37.432,-0.736457,1014.46
23408,-0.396939,9.88044,0.989957,-0.21,0.07,0.07,-31.0527,-37.5767,-1.92734,1014.46
23414,-0.396939,9.78479,1.0856,0.14,-0.49,0.49,-31.7403,-37.1426,-0.977469,1014.42
23420,-0.396939,9.7561,1.09039,-0.28,-0.07,0.21,-31.3965,-37.6346,-1.68633,1014.42
23426,-0.387374,9.74175,1.07126,0.14,-0.35,0.14,-31.5111,-37.9529,-1.2043,1014.43
23432,-0.406504,9.77523,1.09039,0.56,-0.28,0.49,-31.597,-36.969,-1.48785,1014.43
23438,-0.349115,9.73697,1.1143,0.7,-0.21,0.14,-30.9095,-37.4609,-2.15417,1014.43
23444,-0.349115,9.72262,1.12865,0.42,0.07,0.21,-31.3392,-37.6346,-1.67215,1014.43
23450,-0.344333,9.74653,1.06169,0.77,0.14,-0.14,-31.3392,-37.8082,-0.396206,1014.43
23456,-0.35868,9.72262,1.06648,0.28,-0.07,-0.28,-31.196,-37.432,-0.963291,1014.42
23462,-0.363462,9.7561,1.06648,0.49,-0.35,0,-30.4225,-37.5477,-0.878229,1014.42
23468,-0.392157,9.73697,1.05213,0.49,-0.35,-0.14,-31.3106,-37.0268,-2.18253,1014.42
23474,-0.349115,9.78001,1.01865,0.42,-0.42,-0.21,-30.8236,-37.7214,-1.45949,1014.42
23480,-0.363462,9.76566,1.02822,0.35,-0.21,0.14,-31.1673,-36.8532,-2.94809,1014.42
23486,-0.373027,9.73697,1.03778,0.28,-0.07,0.07,-30.7376,-37.5188,-1.78557,1014.42
23492,-0.353898,9.79436,1.00909,0.49,0.21,0.07,-31.5684,-36.6796,-1.85645,1014.42
23498,-0.392157,9.75131,1.04735,0.07,-0.42,0.14,-31.0527,-36.7085,-1.7005,1014.42
23504,-0.353898,9.76088,1.02822,-0.21,-0.28,-0.35,-31.2533,-37.9529,-1.61544,1014.43
23510,-0.35868,9.76088,1.05213,-0.21,-0.14,-0.28,-31.5397,-37.6635,-1.57291,1014.43
23516,-0.373027,9.76566,1.08082,0.28,-0.28,0.14,-31.11,-37.0558,-0.864051,1014.44
23522,-0.373027,9.7561,1.01865,0.14,-0.42,-0.28,-31.3392,-36.7374,-2.31012,1014.44
23528,-0.387374,9.79914,1.06169,0.07,-0.35,0.07,-31.6543,-37.5477,-1.64379,1014.44
23534,-0.33955,9.74653,1.09039,0.84,0,0.21,-30.5944,-36.2165,-1.61544,1014.4
23540,-0.320421,9.71784,1.06648,0.42,-0.21,-0.21,-30.5085,-37.6635,-1.55873,1014.4
23546,-0.387374,9.74653,1.06169,0.84,-0.07,0.21,-31.1387,-37.6346,-0.72228,1014.4
23552,-0.35868,9.73697,1.06169,0.91,0.07,-0.35,-30.9668,-36.7664,-1.99822,1014.4
23558,-0.368245,9.74653,1.06648,0.07,0,-0.35,-31.196,-37.3452,-1.06253,1014.42
23564,-0.37781,9.7274,1.09995,0.56,-0.07,-0.07,-30.2793,-37.895,-1.7005,1014.42
23570,-0.387374,9.77523,1.04735,1.19,0,-0.42,-30.7949,-37.3162,-2.13999,1014.41
23576,-0.37781,9.79436,1.033,0.77,0,-0.49,-31.3679,-37.6635,-0.778989,1014.41
23582,-0.406504,9.78001,1.01387,0.56,0,0.07,-31.1387,-37.403,-2.77797,1014.43
23588,-0.420851,9.8087,1.01865,0.77,-0.35,-0.28,-31.4251,-37.6635,-1.36025,1014.43
23594,-0.392157,9.8087,1.033,0.21,-0.21,0.07,-31.1673,-37.6346,-1.55873,1014.42
23600,-0.420851,9.76566,1.06169,0.42,-0.14,0,-30.3079,-37.4899,-2.57949,1014.42
23606,-0.368245,9.77523,1.0043,0.56,-0.28,0,-31.11,-37.2005,-1.98405,1014.41
23612,-0.37781,9.73697,1.05213,0.14,-0.35,0,-30.0788,-37.6346,-0.537977,1014.41
23618,-0.387374,9.78957,1.05691,0.14,-0.14,-0.14,-30.136,-37.1137,-2.25341,1014.41
23624,-0.363462,9.74653,1.07604,0.63,-0.21,0.14,-30.9095,-38.2133,-1.84227,1014.47
23630,-0.37781,9.8087,1.01387,0.21,-0.28,-0.21,-31.11,-37.8661,-0.509623,1014.47
23636,-0.382592,9.8087,1.033,0.77,-0.35,0.28,-30.8236,-37.3741,-1.92734,1014.42
23642,-0.329986,9.73697,1.05691,0.56,0,0.14,-30.8809,-37.8082,-1.28937,1014.42
23648,-0.349115,9.76088,1.07604,0,0.14,-0.28,-30.5371,-36.7374,-1.07671,1014.45
23654,-0.363462,9.78479,1.04735,0.14,-0.14,0.07,-30.4512,-37.5477,-0.878229,1014.45
23660,-0.349115,9.74653,1.06648,0.77,-0.14,0,-31.4251,-36.9979,-1.57291,1014.42
23666,-0.33955,9.73218,1.01865,0.49,-0.21,-0.42,-30.8809,-37.2584,-1.78557,1014.42
23672,-0.353898,9.78001,1.04735,0.42,0.21,-0.14,-30.8522,-38.2423,-0.736457,1014.42
23678,-0.349115,9.77044,1.04735,0.7,0,-0.35,-31.0241,-36.7953,-2.22506,1014.42
23684,-0.401722,9.76088,1.01865,0.42,0.07,-0.28,-31.5111,-36.477,-1.85645,1014.43
23690,-0.373027,9.7561,1.02822,0.49,-0.21,0.28,-31.3106,-37.0558,-0.934937,1014.43
23696,-0.33955,9.73218,1.05213,0.21,-0.07,-0.35,-31.1673,-37.3162,-1.89898,1014.43
23702,-0.353898,9.77044,1.033,0.49,0.35,-0.14,-31.3679,-37.6924,-2.43771,1014.42
23708,-0.35868,9.74653,1.06169,0.56,0.14,-0.21,-31.1387,-36.969,-2.11164,1014.42
23714,-0.382592,9.77044,1.03778,0.49,-0.21,-0.49,-31.196,-38.1265,-1.00582,1014.43
23720,-0.396939,9.79914,1.04256,0.7,-0.35,0.21,-31.7976,-37.0847,-1.85645,1014.43
23726,-0.387374,9.77523,1.033,0.56,-0.21,0.07,-31.2533,-37.3452,-2.05493,1014.41
23732,-0.353898,9.76566,1.0856,0.56,-0.49,-0.7,-31.3965,-37.0268,-1.84227,1014.41
23738,-0.315638,9.74653,1.05691,0.7,0.07,0,-30.9382,-37.7214,-1.92734,1014.43
23744,-0.35868,9.7561,1.05691,0.7,-0.42,-0.35,-31.0527,-37.5767,-1.48785,1014.43
23750,-0.349115,9.74653,1.05691,0.63,0.14,-0.49,-30.6517,-37.5767,-2.0124,1014.42
23756,-0.373027,9.73218,1.06648,0.84,-0.21,-0.35,-31.11,-37.3741,-1.62962,1014.42
23762,-0.33955,9.78957,1.04256,0.63,0.21,-0.42,-31.4538,-37.403,-1.72886,1014.41
23768,-0.363462,9.77523,0.97561,0.49,0.14,-0.35,-31.0814,-37.1137,-2.87721,1014.41
23774,-0.353898,9.71784,1.0856,0.28,0.07,-0.35,-31.4538,-38.0397,-2.22506,1014.43
23780,-0.329986,9.78001,1.02822,0.35,0.14,-0.28,-30.4512,-37.9239,-1.34607,1014.43
23786,-0.435198,9.74653,1.1143,0.98,-0.42,-0.14,-31.0527,-38.5027,-1.91316,1014.43
23792,-0.349115,9.78001,1.01387,0.56,0,-0.21,-30.8522,-37.3452,-1.67215,1014.43
23798,-0.382592,9.74175,1.05691,0.63,-0.28,-0.63,-30.7376,-37.403,-1.3319,1014.43
23804,-0.349115,9.7561,1.02822,0.84,0.14,-0.63,-29.8496,-37.4899,-0.963291,1014.43
23810,-0.368245,9.79436,1.0043,0.42,-0.07,-0.28,-31.0241,-37.1715,-1.28937,1014.43
23816,-0.401722,9.72262,1.05691,0.91,-0.21,-0.42,-31.3106,-37.0847,-0.778989,1014.45
23822,-0.392157,9.78479,1.01865,0.91,0.14,-0.35,-31.0814,-37.5477,-0.878229,1014.45
23828,-0.382592,9.78001,1.03778,0.35,-0.28,-0.21,-30.5944,-38.1555,-1.8281,1014.41
23834,-0.35868,9.77044,1.01865,0.77,0.28,-0.28,-31.7976,-37.3452,-1.91316,1014.41
23840,-0.363462,9.76088,1.04256,0.42,0,0,-31.196,-37.5188,-1.58709,1014.43
23846,-0.382592,9.80392,1.02343,0.14,0.21,-0.21,-30.5944,-37.0558,-0.410383,1014.43
23852,-0.392157,9.78479,1.04256,0.49,-0.14,-0.14,-31.0527,-37.6924,-1.74303,1014.45
23858,-0.33955,9.74175,1.07604,0.35,-0.07,-0.14,-30.623,-37.6924,-1.30354,1014.45
23864,-0.368245,9.75131,1.07126,0.28,-0.07,-0.56,-30.709,-36.94,-0.5238,1014.45
23870,-0.363462,9.76566,1.05691,0.21,-0.35,-0.14,-30.4798,-37.3741,-1.16177,1014.41
23876,-0.35868,9.76088,1.05691,0.35,0.14,-0.28,-31.0527,-37.432,-2.1967,1014.41
23882,-0.382592,9.78479,1.033,0.49,0.21,-0.49,-31.4538,-37.1426,-1.94151,1014.43
23888,-0.406504,9.77044,1.06169,0.49,-0.28,-0.14,-30.8236,-37.1137,-1.60126,1014.43
23894,-0.373027,9.79914,1.06169,0.63,0.14,0,-31.597,-38.1844,-3.04733,1014.42
23900,-0.401722,9.78001,1.04735,0.56,0.21,0,-31.7976,-37.6924,-1.03418,1014.42
23906,-0.420851,9.76566,1.04256,0.63,-0.14,-0.14,-30.9095,-37.6346,-0.764811,1014.42
23912,-0.349115,9.78001,1.03778,0.35,0.35,-0.14,-30.3366,-37.2294,-1.96987,1014.42
23918,-0.37781,9.76566,1.02822,0.21,0.42,0.07,-30.5085,-37.6635,-1.84227,1014.45
23924,-0.373027,9.7561,1.04256,0.42,-0.28,0.07,-30.0501,-36.969,-1.28937,1014.45
23930,-0.349115,9.74653,1.06648,0.21,0,-0.21,-30.5657,-36.8243,-2.43771,1014.4
23936,-0.37781,9.76566,1.04735,0.56,0,-0.28,-30.3939,-37.2005,-1.74303,1014.4
23942,-0.344333,9.78001,1.04256,0.28,-0.07,-0.21,-31.11,-37.6924,-1.87063,1014.4
23948,-0.396939,9.80392,0.999522,0.63,-0.07,0.21,-31.4824,-38.0108,-1.61544,1014.42
23954,-0.430416,9.82305,0.999522,0.21,-0.42,-0.14,-31.11,-37.432,-1.60126,1014.42
23960,-0.382592,9.76566,1.033,0,0,-0.07,-30.9095,-37.3452,-2.23923,1014.4
23966,-0.35868,9.73218,1.08082,0.56,-0.35,-0.07,-31.5397,-37.2005,-1.17595,1014.4
23972,-0.353898,9.71305,1.07126,0.14,-0.14,0.14,-30.7376,-37.6635,-0.807343,1014.43
23978,-0.401722,9.73697,1.07604,0.42,-0.14,0,-31.7116,-37.0268,-2.79214,1014.43
23984,-0.368245,9.75131,1.05691,0.49,0.07,0,-31.0527,-37.4899,-1.7005,1014.43
23990,-0.325203,9.7274,1.04735,0.21,0.21,-0.07,-31.1673,-38.0397,-1.8281,1014.43
23996,-0.349115,9.75131,1.04256,0.56,0.07,-0.07,-31.0814,-37.3162,-0.849874,1014.45
24002,-0.392157,9.73697,1.0043,0.35,-0.14,0.14,-30.9668,-37.6924,-1.7005,1014.45
24008,-0.353898,9.73697,1.04735,0.7,0,-0.28,-31.3679,-37.0558,-0.92076,1014.46
24014,-0.387374,9.75131,1.05691,0.35,-0.07,-0.28,-31.1387,-38.1844,-0.92076,1014.46
24020,-0.344333,9.76088,1.04256,0,0.14,-0.14,-31.1387,-37.5477,-1.87063,1014.45
24026,-0.363462,9.78957,0.989957,0.91,-0.35,-0.35,-30.4225,-37.5477,-1.00582,1014.45
24032,-0.392157,9.8087,1.04256,0.42,0.56,-0.42,-31.3392,-37.5477,-0.311143,1014.45
24038,-0.373027,9.79914,0.97561,-0.35,0.91,0.07,-30.8236,-37.5767,-0.977469,1014.42
24044,-0.387374,9.81827,1.02343,0.42,0.91,-0.14,-31.2533,-37.6346,-2.08329,1014.42
24050,-0.406504,9.82783,1.00909,0.07,0.35,0,-31.2533,-37.9818,-1.68633,1014.4
24056,-0.35868,9.81349,1.033,-0.14,-0.14,0,-30.3652,-36.5349,-1.99822,1014.4
24062,-0.382592,9.81349,1.033,0.35,0,-0.07,-30.6803,-37.0558,-1.41696,1014.43
24068,-0.406504,9.8087,1.04256,0.42,0.07,-0.07,-31.1673,-37.8371,-1.40278,1014.43
24074,-0.392157,9.77044,1.05691,-0.14,0.77,0.21,-31.3679,-38.0397,-1.57291,1014.42
24080,-0.373027,9.76088,1.04735,-0.14,0.84,0,-30.9668,-37.5477,-1.11924,1014.42
24086,-0.396939,9.7561,1.05691,-0.21,0.49,-0.07,-31.7403,-36.9111,-3.0048,1014.39
24092,-0.334768,9.74175,1.05691,0,-0.14,-0.14,-31.4824,-38.7053,-3.11822,1014.39
24098,-0.349115,9.72262,1.0856,0.14,0.49,0.07,-30.9954,-38.1555,-2.21088,1014.46
24104,-0.363462,9.70827,1.07604,0.56,0.42,-0.07,-30.7949,-37.6346,-1.78557,1014.46
24110,-0.396939,9.77523,1.05691,0.14,0.07,-0.14,-31.2819,-37.2005,-1.8281,1014.46
24116,-0.382592,9.77044,1.02343,0.14,0,-0.28,-31.683,-37.5188,-1.95569,1014.41
24122,-0.392157,9.76566,1.03778,0.77,0,0.07,-31.7116,-37.1426,-0.72228,1014.41
24128,-0.37781,9.78957,1.033,0.21,0.07,-0.49,-30.8809,-37.6056,-1.40278,1014.42
24134,-0.387374,9.73697,1.03778,0.49,0.28,0.28,-30.709,-37.9239,-1.87063,1014.42
24140,-0.37781,9.76566,1.05213,0.07,-0.14,-0.21,-30.9095,-37.5477,-1.84227,1014.41
24146,-0.353898,9.7561,1.06169,-0.07,0.07,0.28,-30.3939,-38.0686,-1.61544,1014.41
24152,-0.368245,9.75131,1.04735,0.28,-0.14,0,-31.3392,-37.6924,-1.11924,1014.43
24158,-0.353898,9.77044,1.03778,0.42,0.35,-0.42,-30.7949,-38.1265,-1.71468,1014.43
24164,-0.35868,9.73218,1.04256,0.42,0.35,-0.42,-30.7376,-37.432,-0.835697,1014.41
24170,-0.37781,9.76566,1.06169,0.42,0.21,-0.42,-30.7663,-37.7214,-1.24683,1014.41
24176,-0.387374,9.75131,1.06648,0.14,0,-0.21,-31.196,-37.2873,-1.95569,1014.42
24182,-0.344333,9.78479,1.06648,0.42,0.07,-0.42,-30.9382,-37.2584,-1.71468,1014.42
24188,-0.382592,9.7561,1.02822,0.42,-0.35,-0.21,-31.0241,-37.0558,-2.23923,1014.42
24194,-0.401722,9.78001,1.07126,0,-0.21,-0.28,-31.0527,-37.8371,-2.18253,1014.41
24200,-0.387374,9.77523,1.05691,0.7,0.14,0,-30.6803,-37.1715,-1.5162,1014.41
24206,-0.401722,9.76566,1.04735,0.21,-0.14,0,-30.136,-37.403,-1.41696,1014.42
24212,-0.368245,9.76088,1.033,0.07,-0.07,0.07,-30.9382,-37.5188,-1.10506,1014.42
24218,-0.387374,9.79914,1.033,0.42,0,0.07,-31.196,-37.6056,-1.77139,1014.39
24224,-0.392157,9.76088,1.05213,0.49,0,-0.49,-30.7376,-37.8371,-2.22506,1014.39
24230,-0.329986,9.76088,1.03778,-0.14,-0.14,0,-31.3106,-37.3741,-1.07671,1014.44
24236,-0.411286,9.78479,1.07604,0.35,0.14,0.14,-30.3939,-37.8371,-2.55113,1014.44
24242,-0.349115,9.72262,1.0856,0.42,0.07,-0.35,-30.9954,-37.6635,-2.63619,1014.39
24248,-0.363462,9.73697,1.08082,0.28,0.35,-0.28,-31.4251,-37.8082,-2.16835,1014.39
24254,-0.344333,9.73697,1.033,0.63,0,0,-31.4824,-36.94,-1.5162,1014.43
24260,-0.363462,9.77044,1.02343,0.63,-0.07,-0.28,-30.8522,-37.2873,-2.15417,1014.43
24266,-0.373027,9.74653,1.05691,0.56,0.28,0,-31.2533,-37.2005,-1.98405,1014.42
24272,-0.382592,9.78001,1.06648,0.77,0.35,-0.14,-31.11,-37.432,-2.04075,1014.42
24278,-0.425634,9.78001,1.01865,0.49,0.14,0,-30.7663,-37.1137,-1.65797,1014.42
24284,-0.420851,9.84696,0.95648,0.42,0.14,-0.07,-30.6803,-37.3452,-3.27417,1014.43
24290,-0.411286,9.82305,1.01865,0.28,-0.28,0.21,-31.6543,-36.7953,-1.31772,1014.43
24296,-0.387374,9.77523,1.07126,-0.07,-0.07,0,-30.9095,-37.0268,-1.62962,1014.44
24302,-0.416069,9.78957,1.07126,0.28,0.07,0.42,-30.7949,-37.432,-2.43771,1014.44
24308,-0.449546,9.80392,1.02343,0.77,-0.07,0.42,-31.1387,-37.7214,-1.98405,1014.41
24314,-0.37781,9.78479,1.02822,-0.28,-0.07,0.28,-30.9668,-37.9529,-2.13999,1014.41
24320,-0.349115,9.76088,1.07126,0,0.07,0.49,-31.1387,-37.0847,-1.96987,1014.4
24326,-0.349115,9.73697,1.05213,0.49,-0.07,0.63,-31.0527,-37.1715,-2.09746,1014.4
24332,-0.353898,9.76566,1.0856,0.56,-0.07,0.14,-31.4538,-37.6635,-1.16177,1014.43
24338,-0.373027,9.81827,1.05213,0.14,0.07,0.35,-31.1673,-37.4899,-1.72886,1014.43
24344,-0.349115,9.76566,1.02343,-0.21,-0.14,-0.21,-30.5085,-37.432,-2.13999,1014.47
24350,-0.334768,9.74175,1.06648,-0.14,0.35,0.21,-31.8835,-37.9239,-1.67215,1014.47
24356,-0.353898,9.72262,1.08082,0.07,0.21,-0.21,-31.7403,-37.5477,-1.23266,1014.47
24362,-0.406504,9.76566,1.06648,0.07,-0.21,0.07,-31.1387,-38.3291,-1.41696,1014.41
24368,-0.353898,9.76566,1.03778,0.49,-0.14,0,-31.4824,-37.2005,-0.509623,1014.41
24374,-0.373027,9.79436,1.033,-0.07,-0.35,0.14,-30.9382,-37.4609,-1.5162,1014.43
24380,-0.373027,9.79914,1.01865,-0.07,0.28,0.35,-31.1387,-37.432,-1.40278,1014.43
24386,-0.320421,9.77523,1.02343,-0.14,0,0.07,-30.9095,-37.9529,-0.62304,1014.44
24392,-0.363462,9.77523,1.05691,-0.14,0.07,0.42,-31.2533,-37.2584,-0.849874,1014.44
24398,-0.349115,9.78479,1.05213,0.35,-0.14,0.35,-31.1673,-37.3452,-1.84227,1014.43
24404,-0.35868,9.74175,1.09039,-0.14,-0.35,0.35,-32.2272,-38.8211,-2.18253,1014.43
24410,-0.35868,9.7274,1.08082,0.28,-0.35,0.35,-31.5397,-37.8371,-2.45189,1014.47
24416,-0.373027,9.75131,1.07126,0.56,0.07,-0.07,-30.9382,-37.6924,-1.71468,1014.47
24422,-0.387374,9.74175,1.07126,-0.07,-0.07,0.07,-30.9668,-37.3741,-0.665572,1014.4
24428,-0.387374,9.74653,1.07126,0.35,0,0.14,-31.5111,-37.6924,-0.807343,1014.4
24434,-0.401722,9.78479,1.08082,0.56,-0.42,0.28,-30.9668,-38.387,-1.65797,1014.4
24440,-0.373027,9.77044,1.07604,-0.07,-0.35,0.28,-30.9382,-37.8082,-1.41696,1014.42
24446,-0.349115,9.80392,1.06648,0.21,0,0.07,-31.4538,-37.5767,-1.55873,1014.42
24452,-0.368245,9.76566,1.06169,0.63,-0.42,0,-30.6803,-37.4609,-1.57291,1014.46
24458,-0.349115,9.73218,1.06648,-0.07,0,0.07,-30.7376,-37.6924,-2.28177,1014.46
24464,-0.368245,9.7561,1.07604,0.14,-0.42,0.07,-31.11,-37.6346,-0.906583,1014.44
24470,-0.387374,9.75131,1.07126,0.07,-0.42,0.28,-30.222,-37.8661,-0.892406,1014.44
24476,-0.349115,9.78479,1.05213,0.49,-0.91,-0.14,-30.222,-37.8661,-1.28937,1014.43
24482,-0.382592,9.76088,1.04735,0.49,0.07,0.07,-30.4798,-37.6635,-0.764811,1014.43
24488,-0.33955,9.7561,1.06169,0.28,-0.14,0.07,-30.5944,-37.5767,-1.81392,1014.45
24494,-0.334768,9.76566,1.04735,0.98,0.28,0,-30.4512,-37.895,-0.963291,1014.45
24500,-0.349115,9.77523,1.05213,0.63,-0.07,0.07,-30.709,-37.3741,-0.509623,1014.46
24506,-0.382592,9.78479,0.989957,0.14,-0.56,-0.21,-30.7663,-37.2005,-1.96987,1014.46
24512,-0.387374,9.78479,1.03778,0.42,-0.42,0.07,-30.8236,-37.2584,-1.26101,1014.44
24518,-0.416069,9.79914,1.05691,0.21,-0.35,0.21,-30.4225,-37.6924,-1.10506,1014.44
24524,-0.349115,9.76088,1.07126,0.28,0.21,-0.14,-30.3652,-37.9239,-2.57949,1014.44
24530,-0.387374,9.78479,1.06648,-0.07,0.07,0.42,-30.3939,-37.6924,-1.67215,1014.45
24536,-0.406504,9.80392,1.06169,0.28,0.21,0.35,-30.1074,-37.3741,-1.21848,1014.45
24542,-0.382592,9.76566,1.07126,0.14,-0.42,0.35,-31.4251,-37.3452,-1.41696,1014.4
24548,-0.344333,9.75131,1.07126,0,-0.07,0.21,-31.2819,-37.3162,-0.977469,1014.4
24554,-0.329986,9.7561,1.09995,0.07,-0.42,0.35,-30.6803,-37.4609,-1.36025,1014.45
24560,-0.35868,9.74175,1.07604,0.28,-0.28,0.14,-30.2793,-36.9111,-1.17595,1014.45
24566,-0.396939,9.77523,1.07126,0.21,-0.42,0.28,-31.1387,-37.7503,-1.36025,1014.46
24572,-0.344333,9.78001,1.06648,0.42,-0.07,0.35,-30.9668,-37.2294,-2.18253,1014.46
24578,-0.35868,9.77044,1.06648,0.21,0.07,0.14,-31.2533,-37.5188,-2.28177,1014.39
24584,-0.368245,9.7561,1.06169,-0.07,-0.21,0.28,-30.8522,-37.2294,-1.26101,1014.39
24590,-0.387374,9.77044,1.07604,0,-0.28,0.21,-30.6517,-37.5767,-2.05493,1014.37
24596,-0.363462,9.7561,1.07604,0.28,-0.07,0.07,-30.9095,-37.7214,-0.807343,1014.37
24602,-0.320421,9.7561,1.07604,0.21,0.14,0.21,-31.2819,-37.432,-1.95569,1014.37
24608,-0.373027,9.76088,1.08082,0.35,-0.35,0.35,-31.3392,-37.3162,-0.977469,1014.45
24614,-0.363462,9.81827,1.02343,0.42,-0.14,0,-31.4824,-37.3162,-1.67215,1014.45
24620,-0.416069,9.82305,0.994739,-0.07,-0.7,0.28,-30.9954,-37.2873,-2.39518,1014.45
24626,-0.344333,9.81349,1.01387,0,0.14,0.63,-30.4512,-37.1426,-1.79974,1014.45
24632,-0.353898,9.78957,1.04735,-0.28,0.49,0.56,-30.8522,-37.2005,-1.78557,1014.42
24638,-0.363462,9.73218,1.09995,-0.21,0.21,0.21,-30.7949,-37.1137,-2.97645,1014.42
24644,-0.315638,9.74653,1.09995,0.14,0.21,0.56,-30.9095,-36.7953,-1.47367,1014.4
24650,-0.344333,9.76088,1.07604,0.35,-0.7,0.07,-30.9095,-37.6346,-1.77139,1014.4
24656,-0.353898,9.7561,1.06169,-0.28,-0.21,0,-30.623,-37.5477,-1.89898,1014.45
24662,-0.363462,9.73697,1.09039,0.28,-0.7,0.21,-31.1673,-37.3162,-2.09746,1014.45
24668,-0.353898,9.78479,1.06169,0.28,0.21,0.28,-30.222,-37.3452,-1.98405,1014.43
24674,-0.353898,9.77523,1.05213,-0.07,-0.56,0.07,-31.5111,-37.3741,-0.977469,1014.43
24680,-0.33955,9.74175,1.10952,0.07,0.35,0.42,-30.8809,-36.9979,-2.74961,1014.42
24686,-0.363462,9.7274,1.08082,0.42,-0.21,0.21,-31.1673,-37.8082,-1.65797,1014.42
24692,-0.325203,9.74175,1.06169,-0.14,0,0,-30.623,-37.1715,-1.62962,1014.42
24698,-0.325203,9.73218,1.09039,0.56,-0.07,-0.07,-30.7376,-37.1426,-1.92734,1014.45
24704,-0.334768,9.74175,1.09995,0.28,-0.21,-0.14,-30.623,-37.6635,-1.54455,1014.45
24710,-0.368245,9.74175,1.09995,0.77,0.49,0.14,-30.7949,-37.4899,-1.5162,1014.44
24716,-0.401722,9.79914,1.033,0.63,0.07,-0.07,-31.1387,-37.7214,-1.84227,1014.44
24722,-0.416069,9.82783,1.01387,0.28,-0.56,0.07,-30.3079,-37.0847,-0.651394,1014.42
24728,-0.33955,9.78001,1.06648,0.14,-0.21,0,-31.11,-37.4609,-0.495446,1014.42
24734,-0.353898,9.76566,1.07604,0,-0.56,0.14,-31.3679,-37.3452,-2.31012,1014.4
24740,-0.325203,9.78001,1.07126,0.07,-0.56,-0.14,-31.2246,-37.403,-2.04075,1014.4
24746,-0.353898,9.79914,1.05213,-0.14,-0.84,0.07,-30.4225,-37.0847,-2.55113,1014.42
24752,-0.344333,9.79914,1.07604,-0.56,-0.07,0.35,-31.1387,-36.8243,-2.11164,1014.42
24758,-0.329986,9.75131,1.04256,-0.14,-0.14,0.07,-30.6803,-38.1265,-2.21088,1014.46
24764,-0.320421,9.78001,1.06169,-0.49,0,0.35,-30.9954,-37.2873,-1.57291,1014.46
24770,-0.368245,9.73697,1.09517,-0.42,0.07,0.28,-30.5657,-37.4899,-1.7005,1014.46
24776,-0.33955,9.76088,1.04735,0.28,-0.14,0.14,-31.0241,-37.3741,-1.44531,1014.44
24782,-0.353898,9.78479,1.05213,-0.07,-0.21,-0.14,-30.8809,-37.7793,-2.77797,1014.44
24788,-0.320421,9.73218,1.06648,0.07,-0.21,0.21,-30.1933,-38.0686,-2.99062,1014.43
24794,-0.368245,9.7561,1.06169,0.28,-0.49,0.28,-30.6517,-37.9529,-1.55873,1014.43
24800,-0.334768,9.74653,1.10473,0.07,-0.21,-0.14,-31.0814,-37.6924,-2.46607,1014.45
24806,-0.33955,9.72262,1.10952,0.07,-0.28,0.28,-30.6517,-37.8371,-2.06911,1014.45
24812,-0.368245,9.77523,1.05213,0.49,-0.35,0.14,-30.6517,-37.432,-1.89898,1014.45
24818,-0.373027,9.76088,1.08082,0.42,-0.35,-0.14,-31.0814,-37.6924,-2.16835,1014.45
24824,-0.349115,9.78957,1.05691,0.21,-0.42,0.14,-30.3939,-37.6924,-0.949114,1014.43
24830,-0.329986,9.76088,1.07126,0.07,-0.35,0.07,-30.9382,-36.969,-2.31012,1014.43
24836,-0.401722,9.78957,1.08082,0.49,-0.21,-0.07,-29.9355,-36.9111,-1.89898,1014.42
24842,-0.349115,9.78957,1.02343,-0.56,-0.07,0,-30.9382,-37.2005,-2.77797,1014.42
24848,-0.363462,9.81827,1.03778,-0.49,-0.42,0.35,-30.2793,-37.4899,-1.58709,1014.42
24854,-0.349115,9.77044,1.05213,0.07,-0.35,0.28,-30.8809,-37.5477,-0.963291,1014.44
24860,-0.329986,9.7274,1.09995,0.07,-0.56,0.14,-30.8236,-37.8371,-1.75721,1014.44
24866,-0.320421,9.73697,1.09517,-0.28,0.07,0.07,-30.8236,-37.2294,-1.5162,1014.41
24872,-0.33955,9.74175,1.08082,0.35,-0.21,-0.07,-30.2793,-37.1137,-2.35265,1014.41
24878,-0.35868,9.74653,1.09995,0,0.56,-0.35,-30.3652,-38.1555,-1.11924,1014.44
24884,-0.349115,9.74653,1.09995,-0.07,0.07,-0.14,-30.4225,-38.4738,-3.3167,1014.44
24890,-0.349115,9.71784,1.09517,0.56,0.7,-0.07,-30.9095,-38.0686,-1.50202,1014.42
24896,-0.387374,9.77044,1.07126,0.35,-0.21,-0.14,-30.5085,-37.5767,-1.53038,1014.42
24902,-0.396939,9.80392,1.04735,0.14,-0.77,0.14,-30.709,-37.7793,-1.99822,1014.41
24908,-0.363462,9.80392,1.02343,-0.35,-0.42,-0.07,-30.8522,-37.0268,-1.45949,1014.41
24914,-0.310856,9.79436,1.10473,0.21,-0.63,0.14,-31.7403,-38.5895,-0.92076,1014.43
24920,-0.401722,9.77523,1.10473,-0.35,0.07,0.07,-31.1387,-37.7793,-2.33847,1014.43
24926,-0.37781,9.7561,1.1143,0.21,-0.49,-0.07,-30.623,-37.0847,-1.89898,1014.43
24932,-0.329986,9.7561,1.08082,-0.07,0.07,-0.07,-30.6803,-37.5188,-1.68633,1014.43
24938,-0.344333,9.74175,1.10473,0,0,-0.14,-30.9095,-37.7793,-1.67215,1014.43
24944,-0.353898,9.7561,1.10473,0.35,0.21,-0.07,-30.9954,-37.403,-1.47367,1014.45
24950,-0.329986,9.76566,1.07126,-0.14,0.21,-0.07,-30.5657,-37.2005,-2.38101,1014.45
24956,-0.37781,9.81349,1.0043,-0.21,-0.77,-0.21,-30.5944,-37.6346,-2.09746,1014.44
24962,-0.344333,9.77044,1.06169,0,-0.56,-0.21,-30.1933,-37.2873,-1.54455,1014.44
24968,-0.315638,9.71784,1.1143,-0.35,-0.35,0.14,-31.2533,-37.1426,-1.61544,1014.43
24974,-0.325203,9.7274,1.10952,0,0.14,-0.35,-31.4824,-37.6346,-1.13342,1014.43
24980,-0.344333,9.72262,1.0856,0.7,-0.14,-0.28,-31.0814,-37.0268,-1.5162,1014.42
24986,-0.329986,9.77523,1.09517,0.21,0.21,0,-31.3965,-37.432,-1.54455,1014.42
24992,-0.363462,9.79914,1.02822,-0.35,-0.35,-0.35,-30.4225,-37.6056,-1.5162,1014.43
24998,-0.349115,9.77523,1.06648,-0.07,-0.28,-0.28,-30.5371,-37.2584,-0.708103,1014.43
25004,-0.325203,9.76088,1.09517,0.21,-0.21,-0.49,-30.7949,-37.3162,-1.98405,1014.42
25010,-0.33955,9.7274,1.09517,0.7,0.21,-0.28,-30.709,-37.0268,-0.651394,1014.42
25016,-0.387374,9.78479,1.06169,0.35,0.28,-0.28,-31.0241,-36.8821,-1.43114,1014.42
25022,-0.382592,9.78957,1.06648,0.49,0.07,-0.49,-30.5657,-36.6506,-0.608863,1014.41
25028,-0.329986,9.76566,1.10952,0.14,-0.56,-0.21,-31.0527,-37.2294,-1.14759,1014.41
25034,-0.33955,9.7274,1.11908,0.42,-0.21,-0.35,-31.2246,-36.7664,-1.00582,1014.42
25040,-0.368245,9.77044,1.08082,0.63,-0.42,-0.21,-31.196,-36.7085,-2.36683,1014.42
25046,-0.353898,9.75131,1.0856,0.14,-0.21,-0.21,-31.3679,-37.2005,-1.02,1014.41
25052,-0.349115,9.77523,1.08082,0.7,-0.35,-0.07,-31.2533,-36.9979,-0.679749,1014.41
25058,-0.282162,9.74175,1.09039,0.28,-0.07,-0.56,-30.709,-37.432,-1.34607,1014.47
25064,-0.363462,9.7274,1.09517,0.56,-0.28,-0.35,-30.5371,-36.7085,-0.651394,1014.47
25070,-0.353898,9.7561,1.06169,0.56,-0.28,-0.49,-30.5085,-37.0847,-1.40278,1014.44
25076,-0.373027,9.82783,1.02343,0,-0.14,-0.35,-30.1933,-37.0268,-2.06911,1014.44
25082,-0.406504,9.8087,1.04256,-0.56,-0.07,-0.07,-30.4225,-37.2873,-1.85645,1014.43
25088,-0.37781,9.76566,1.09995,-0.07,0.07,-0.35,-30.222,-37.4609,-1.89898,1014.43
25094,-0.315638,9.74653,1.09517,-0.07,-0.28,-0.07,-30.2506,-37.0268,-1.8281,1014.43
25100,-0.334768,9.74175,1.10473,0.14,-0.49,-0.42,-30.2793,-37.432,-2.21088,1014.4
25106,-0.35868,9.75131,1.10952,0.42,0.07,-0.21,-31.1673,-37.6635,-1.30354,1014.4
25112,-0.373027,9.82783,1.05691,0.07,-0.77,-0.28,-30.9954,-37.9818,-2.16835,1014.44
25118,-0.349115,9.80392,1.06169,-0.42,0,0,-31.3106,-36.8243,-2.59366,1014.44
25124,-0.373027,9.77523,1.09995,-0.14,-0.7,-0.28,-31.1387,-37.5188,-1.19013,1014.42
25130,-0.368245,9.7561,1.06169,-0.42,0.21,-0.28,-30.5657,-37.4609,-2.16835,1014.42
25136,-0.349115,9.7561,1.0856,0.07,0.28,-0.28,-29.9069,-36.8532,-0.977469,1014.45
25142,-0.334768,9.76088,1.09517,-0.07,0.42,-0.42,-29.8209,-37.6635,-1.04835,1014.45
25148,-0.353898,9.76088,1.07126,-0.21,0,-0.14,-30.5657,-37.2873,-1.47367,1014.4
25154,-0.325203,9.77523,1.09039,-0.07,-0.42,-0.14,-31.1387,-36.7085,-2.04075,1014.4
25160,-0.329986,9.77044,1.05691,0.21,0.35,-0.21,-30.7663,-37.1426,-0.637217,1014.39
25166,-0.373027,9.74653,1.06648,-0.21,-0.35,-0.35,-30.9382,-36.8532,-0.112663,1014.39
25172,-0.33955,9.74653,1.10952,-0.07,-0.28,-0.21,-30.6517,-38.2133,-1.19013,1014.4
25178,-0.310856,9.71784,1.09995,0.35,-0.49,-0.84,-30.7663,-37.8371,-1.67215,1014.4
25184,-0.310856,9.74175,1.09039,0.49,0,-0.35,-30.5371,-37.3162,-2.15417,1014.4
25190,-0.329986,9.73697,1.10473,-0.14,0.28,-0.35,-30.4225,-37.5767,-1.7005,1014.41
25196,-0.373027,9.74175,1.1143,0.56,0.28,-0.49,-31.3392,-37.895,-1.23266,1014.41
25202,-0.37781,9.75131,1.10473,0.49,0.14,-0.49,-29.8496,-37.7793,-2.52278,1014.45
25208,-0.325203,9.77044,1.09995,0.49,-0.42,-0.35,-30.5371,-38.2423,-1.84227,1014.45
25214,-0.363462,9.75131,1.09995,0.56,-0.14,-0.63,-30.8236,-37.8371,-1.79974,1014.41
25220,-0.363462,9.7561,1.10952,0.7,0,-0.7,-30.222,-37.2873,-1.89898,1014.41
25226,-0.33955,9.78001,1.0856,0.63,0,-0.63,-30.3939,-37.7793,-1.27519,1014.4
25232,-0.37781,9.76566,1.08082,0.35,-0.21,-0.63,-30.5944,-37.7503,-1.89898,1014.4
25238,-0.382592,9.78001,1.07126,0.49,-0.14,-0.49,-30.709,-37.432,-2.43771,1014.45
25244,-0.344333,9.74653,1.09995,0.63,-0.21,-0.77,-31.196,-37.5188,-1.47367,1014.45
25250,-0.363462,9.76088,1.09995,0.7,-0.28,-0.56,-30.2506,-37.2873,-1.37443,1014.43
25256,-0.37781,9.77044,1.10473,0.42,-0.07,-0.56,-30.3939,-37.0847,-2.15417,1014.43
25262,-0.373027,9.73697,1.07604,0.21,0.07,-0.35,-30.5944,-37.3452,-1.31772,1014.43
25268,-0.363462,9.75131,1.08082,0.77,-0.28,-0.56,-30.623,-37.7214,-1.30354,1014.43
25274,-0.373027,9.78001,1.04735,0.35,0.07,-0.49,-30.1933,-37.2005,-1.02,1014.43
25280,-0.37781,9.80392,1.06169,0.14,0.42,-0.49,-30.6517,-37.7793,-1.67215,1014.44
25286,-0.35868,9.76566,1.06169,0.35,0.56,-0.42,-30.6803,-37.0558,-1.30354,1014.44
25292,-0.368245,9.77044,1.0856,-0.07,-0.21,-0.35,-30.3366,-37.1137,-1.71468,1014.41
25298,-0.373027,9.7561,1.0856,0.28,0,-0.14,-30.9954,-37.0268,-2.48025,1014.41
25304,-0.35868,9.74653,1.06648,-0.14,-0.35,-0.7,-30.9382,-37.1426,-1.41696,1014.44
25310,-0.325203,9.74653,1.06648,0.28,0,-0.84,-31.2246,-37.7503,-1.77139,1014.44
25316,-0.382592,9.76088,1.08082,0.42,0.35,-0.21,-30.7376,-37.3162,-0.977469,1014.43
25322,-0.368245,9.72262,1.13343,0.07,0.42,-0.77,-31.7689,-37.895,-2.65037,1014.43
25328,-0.373027,9.75131,1.1143,0.21,-0.07,-0.63,-31.1387,-37.432,-1.37443,1014.43
25334,-0.363462,9.74175,1.09517,0.56,-0.63,-0.14,-30.8809,-37.8082,-0.608863,1014.43
25340,-0.387374,9.7561,1.09995,0.84,-0.63,-0.84,-30.7376,-37.8371,-1.13342,1014.43
25346,-0.349115,9.79436,1.06648,0.49,-0.63,-0.7,-30.4225,-36.6796,-0.481269,1014.42
25352,-0.435198,9.76566,1.06648,0.07,0.28,-0.35,-31.3392,-36.94,-2.53695,1014.42
25358,-0.420851,9.80392,1.07604,0.77,-0.35,-0.49,-30.8236,-37.2005,-2.28177,1014.44
25364,-0.373027,9.78001,1.06169,0.42,0.35,-0.42,-30.5944,-37.1715,-1.38861,1014.44
25370,-0.349115,9.73218,1.09517,-0.07,0.14,-0.7,-30.136,-37.0558,-1.04835,1014.41
25376,-0.329986,9.74653,1.10952,1.19,0.56,-0.56,-30.8236,-37.1137,-0.339497,1014.41
25382,-0.368245,9.74175,1.13343,0.56,-0.14,-0.63,-30.6517,-37.432,-1.96987,1014.44
25388,-0.35868,9.7274,1.10952,0.7,-0.35,-0.56,-30.5085,-37.3741,-1.37443,1014.44
25394,-0.368245,9.76566,1.09517,0.98,-0.42,-0.91,-31.2246,-37.5477,-1.41696,1014.39
25400,-0.320421,9.74653,1.09039,1.05,-0.07,-0.63,-31.11,-37.1426,-2.0124,1014.39
25406,-0.363462,9.73697,1.0856,1.12,0.21,-0.7,-30.6517,-37.9529,-1.72886,1014.43
25412,-0.344333,9.74653,1.0856,0.77,0.35,-0.77,-30.5657,-37.1715,-0.183549,1014.43
25418,-0.382592,9.77523,1.07126,0.7,0.21,-0.77,-30.9954,-37.5188,-0.679749,1014.4
25424,-0.387374,9.78479,1.05213,0.56,0.14,-0.63,-31.3392,-37.0268,-0.750634,1014.4
25430,-0.368245,9.77044,1.06169,0.56,-0.21,-1.05,-30.7663,-37.7503,-0.0559544,1014.4
25436,-0.363462,9.78001,1.05213,0.42,0.56,-0.98,-31.3679,-37.7503,-1.30354,1014.45
25442,-0.382592,9.76088,1.09039,0.49,0.21,-0.91,-31.11,-37.5767,-1.19013,1014.45
25448,-0.392157,9.76088,1.05691,0.56,0.28,-0.91,-30.6517,-37.432,-1.78557,1014.43
25454,-0.416069,9.7561,1.07126,0.56,-0.21,-0.7,-30.8236,-36.8821,-1.11924,1014.43
25460,-0.37781,9.77044,1.05213,0.77,-0.21,-0.49,-30.8236,-37.4609,-1.79974,1014.41
25466,-0.37781,9.79914,1.07126,0.56,-0.14,-0.56,-30.1647,-37.432,-1.57291,1014.41
25472,-0.430416,9.77044,1.07126,0.35,0.21,-0.7,-30.0788,-36.969,-1.23266,1014.43
25478,-0.392157,9.76566,1.10473,0.77,0,-0.49,-30.7376,-37.1715,-0.268611,1014.43
25484,-0.368245,9.78001,1.09039,0.56,0.14,-0.42,-30.5085,-37.2873,-0.793166,1014.44
25490,-0.353898,9.77523,1.07126,0.7,0,-0.21,-30.3939,-37.2005,-0.92076,1014.44
25496,-0.401722,9.78479,1.0856,0.7,0.21,-0.42,-30.5944,-36.6796,-1.34607,1014.42
25502,-0.344333,9.73697,1.11908,0.35,0.14,-0.56,-30.6517,-37.1426,-1.44531,1014.42
25508,-0.320421,9.74175,1.09517,0.63,0.07,-0.42,-31.1387,-37.3162,-1.3319,1014.42
25514,-0.387374,9.74175,1.06169,0.7,0.28,-0.49,-30.8522,-37.5767,-1.28937,1014.42
25520,-0.373027,9.79436,1.07604,0.42,0.21,-0.63,-30.2506,-37.6346,-0.934937,1014.42
25526,-0.401722,9.75131,1.06648,0.91,-0.07,-0.7,-30.9668,-37.6346,-1.58709,1014.41
25532,-0.368245,9.74175,1.06169,1.12,0.21,-0.77,-32.3705,-37.6924,-1.23266,1014.41
25538,-0.37781,9.78479,1.07126,0.84,0.21,-0.91,-31.4824,-37.6346,-1.03418,1014.43
25544,-0.392157,9.7561,1.05691,0.98,0.35,-0.35,-31.0814,-37.5477,-0.778989,1014.43
25550,-0.392157,9.78957,1.05213,0.7,-0.49,-0.63,-30.7663,-36.8821,-0.594686,1014.41
25556,-0.37781,9.80392,1.03778,0.21,-0.21,-0.42,-31.683,-37.1715,-1.31772,1014.41
25562,-0.382592,9.78957,1.04735,0.35,-0.35,-0.42,-31.196,-37.2005,-1.92734,1014.42
25568,-0.439981,9.79436,1.0856,0.91,-0.21,-0.49,-30.5657,-37.9239,-1.14759,1014.42
25574,-0.430416,9.79914,1.07126,0,0.21,0.21,-30.9382,-37.6056,-0.552154,1014.42
25580,-0.420851,9.79914,1.05213,0,-0.14,-0.35,-30.5944,-38.1844,-1.36025,1014.42
25586,-0.373027,9.73697,1.0856,0.07,-0.28,-0.35,-30.222,-37.2584,-1.31772,1014.44
25592,-0.349115,9.73218,1.14299,0.35,0.14,-0.14,-30.6803,-37.8082,-1.47367,1014.44
25598,-0.363462,9.76566,1.10952,0.35,-0.42,-0.42,-31.0527,-37.5767,-1.99822,1014.44
25604,-0.392157,9.73697,1.10473,0.77,0,-0.49,-31.5397,-37.3162,-1.13342,1014.42
25610,-0.344333,9.73218,1.09039,0.77,-0.28,-0.63,-30.4512,-37.7793,-1.61544,1014.42
25616,-0.329986,9.74175,1.06648,0.42,0.14,-0.49,-30.4225,-37.6056,-0.82152,1014.42
25622,-0.373027,9.73218,1.05213,0.7,0.56,-0.77,-31.0814,-37.6635,-2.28177,1014.42
25628,-0.387374,9.7561,1.08082,0.84,0.14,-0.7,-31.0241,-37.3162,-1.37443,1014.46
25634,-0.33955,9.72262,1.07126,0.84,0.42,-1.05,-31.1673,-37.6056,-1.74303,1014.46
25640,-0.373027,9.73218,1.07604,1.19,-0.14,-0.56,-30.8809,-37.3741,-1.95569,1014.41
25646,-0.401722,9.74175,1.09039,0.77,0.35,-0.91,-30.8522,-37.6346,-2.04075,1014.41
25652,-0.401722,9.77523,1.06169,0.77,0,-0.63,-30.4512,-37.1715,-2.52278,1014.42
25658,-0.411286,9.80392,1.05691,1.12,-0.21,-0.56,-30.5085,-37.6635,-2.06911,1014.42
25664,-0.420851,9.78957,1.02822,0.28,-0.28,-0.77,-30.7663,-38.0686,-2.23923,1014.43
25670,-0.430416,9.77044,1.05691,0,-0.49,-0.63,-30.2793,-37.0558,-1.43114,1014.43
25676,-0.363462,9.7561,1.05691,1.05,0,-0.21,-30.3366,-37.4899,-2.39518,1014.43
25682,-0.401722,9.76566,1.0856,0.42,0.42,-0.42,-30.5657,-37.2294,-1.74303,1014.42
25688,-0.439981,9.78479,1.0856,0.14,-0.35,-0.49,-30.9668,-37.7793,-2.09746,1014.42
25694,-0.392157,9.78479,1.07126,0.42,-0.07,-0.35,-30.5371,-37.2873,-1.67215,1014.43
25700,-0.35868,9.79914,1.06169,0.84,-0.49,-0.77,-31.0814,-37.7793,-1.7005,1014.43
25706,-0.411286,9.74653,1.09039,0.98,-0.07,-0.21,-30.7376,-36.9979,-1.99822,1014.43
25712,-0.392157,9.74175,1.0856,1.12,0.49,-0.28,-30.9095,-37.6056,-1.8281,1014.43
25718,-0.401722,9.8087,1.05691,0.49,-0.14,-0.7,-30.8236,-37.9818,-1.50202,1014.42
25724,-0.291726,9.72262,1.07126,0.7,0.91,-0.56,-30.1933,-37.403,-1.78557,1014.42
25730,-0.387374,9.73218,1.09039,0.77,0.7,-0.35,-31.7116,-38.7342,-3.30252,1014.41
25736,-0.382592,9.79436,1.033,0.91,0.84,-0.49,-30.5085,-37.7503,-1.78557,1014.41
25742,-0.363462,9.76088,1.06648,1.12,0.07,-0.63,-31.3965,-37.1426,-2.05493,1014.48
25748,-0.392157,9.7561,1.03778,0.98,-0.28,-0.98,-30.1647,-37.1426,-1.84227,1014.48
25754,-0.382592,9.77044,1.01865,0.98,0.21,-0.63,-30.136,-37.8661,-1.26101,1014.48
25760,-0.37781,9.77523,1.033,0.91,0,-0.98,-30.3939,-37.7214,-2.15417,1014.43
25766,-0.425634,9.78957,1.05691,0.49,0.35,-0.7,-31.1673,-38.4448,-2.46607,1014.43
25772,-0.401722,9.7561,1.07126,1.19,0.28,-0.7,-29.8496,-36.94,-0.608863,1014.43
25778,-0.439981,9.76566,1.04735,0.42,0.63,-0.77,-30.7949,-37.6635,-2.13999,1014.43
25784,-0.420851,9.77044,1.05691,0.28,0.35,-0.56,-30.9095,-37.2873,-1.34607,1014.41
25790,-0.425634,9.7561,1.08082,0.84,0.7,-0.35,-30.6803,-37.5188,-1.60126,1014.41
25796,-0.506934,9.82305,0.999522,0.42,-0.28,-0.56,-30.8809,-37.2873,-1.62962,1014.43
25802,-0.382592,9.76088,1.05691,0.42,-0.07,-0.35,-30.222,-37.1137,-1.96987,1014.43
25808,-0.382592,9.77044,1.04256,0.42,-0.42,-0.21,-29.3339,-37.1426,-1.55873,1014.45
25814,-0.392157,9.74653,1.08082,0.14,0.07,-0.42,-30.9382,-37.5188,-2.25341,1014.45
25820,-0.382592,9.74653,1.07126,0.77,0.14,-0.42,-30.1933,-37.3162,-2.5086,1014.45
25826,-0.420851,9.79436,1.05691,0.42,0.07,0.07,-31.0241,-37.3162,-1.64379,1014.45
25832,-0.401722,9.78479,1.09039,0.35,0.28,-0.21,-30.7376,-38.1555,-2.5086,1014.44
25838,-0.373027,9.7274,1.06169,0.35,0.14,-0.63,-30.222,-37.2294,-2.56531,1014.44
25844,-0.373027,9.79436,1.033,0.56,0.91,-0.56,-30.3939,-38.0686,-1.23266,1014.44
25850,-0.382592,9.76566,1.06648,0.49,0.21,-0.14,-30.9668,-37.6924,-1.21848,1014.42
25856,-0.387374,9.78001,1.04735,0,-0.07,-0.35,-30.0788,-37.9529,-1.07671,1014.42
25862,-0.430416,9.78479,1.05691,0.63,0.28,-0.21,-30.7949,-38.3001,-1.21848,1014.42
25868,-0.396939,9.7274,1.08082,0.42,-0.07,-0.63,-29.9069,-37.4609,-2.36683,1014.42
25874,-0.396939,9.78957,1.06648,0.21,0.28,-0.56,-30.3079,-37.3452,-2.05493,1014.42
25880,-0.387374,9.73697,1.0856,0.7,0,-0.63,-31.2246,-37.5188,-1.40278,1014.42
25886,-0.392157,9.76566,1.06648,0.49,0.84,-0.28,-30.5944,-37.1137,-1.67215,1014.43
25892,-0.420851,9.78957,1.07126,0.35,0.28,-0.28,-30.0501,-37.4899,-1.38861,1014.43
25898,-0.401722,9.75131,1.07126,0.56,0.21,-0.28,-30.6803,-37.403,-2.28177,1014.41
25904,-0.444763,9.80392,1.07604,0.63,0.14,-0.21,-31.0527,-37.403,-1.99822,1014.41
25910,-0.454328,9.81349,1.03778,0.42,-0.07,-0.21,-30.8809,-37.5767,-2.0124,1014.39
25916,-0.473458,9.79436,1.033,0.21,0.21,0,-31.196,-37.0847,-2.13999,1014.39
25922,-0.396939,9.81349,1.02822,0.07,-0.07,0.07,-30.8236,-37.3741,-2.11164,1014.39
25928,-0.435198,9.77523,1.09517,-0.07,-0.28,0.28,-30.5371,-37.3452,-2.36683,1014.39
25934,-0.416069,9.78957,1.03778,0.21,-0.28,0,-30.5944,-37.1715,-2.15417,1014.39
25940,-0.396939,9.78479,1.06648,0.07,-0.42,0.21,-29.9069,-37.4899,-1.48785,1014.44
25946,-0.396939,9.79914,1.05213,0.14,0.28,0.49,-30.1647,-37.1137,-2.1967,1014.44
25952,-0.37781,9.75131,1.06169,0.21,0.07,0.49,-30.3079,-37.8082,-1.96987,1014.42
25958,-0.35868,9.77523,1.02343,0.28,0.63,0.14,-30.5944,-37.5767,-2.8205,1014.42
25964,-0.37781,9.71784,1.07604,0.35,0.14,0.14,-30.9954,-36.8243,-1.67215,1014.43
25970,-0.349115,9.71784,1.07604,-0.21,0.7,-0.07,-29.9069,-37.5188,-1.91316,1014.43
25976,-0.420851,9.7274,1.07126,0.42,0.21,0,-30.8236,-37.3162,-0.892406,1014.45
25982,-0.411286,9.76088,1.05213,0.49,-0.14,-0.21,-30.1074,-38.0108,-1.8281,1014.45
25988,-0.387374,9.77523,1.05213,-0.14,-0.28,-0.49,-30.222,-37.5188,-0.708103,1014.43
25994,-0.444763,9.77044,1.04256,0.14,0.35,-0.07,-31.2246,-38.0976,-1.40278,1014.43
26000,-0.382592,9.75131,1.07604,0.42,0.56,-0.14,-30.7663,-37.6056,-0.835697,1014.43
26006,-0.425634,9.74653,1.05213,-0.21,0.35,-0.21,-30.3366,-37.2294,-0.892406,1014.44
26012,-0.406504,9.73218,1.09995,0.35,0.28,0.07,-30.1933,-37.3741,-1.94151,1014.44
26018,-0.425634,9.77044,1.07126,-0.07,-0.21,-0.21,-30.709,-37.0268,-2.38101,1014.42
26024,-0.435198,9.77044,1.10473,0.56,-0.14,-0.21,-30.0788,-37.7793,-1.95569,1014.42
26030,-0.444763,9.7561,1.05691,0.63,-0.21,0.14,-29.9642,-37.895,-1.09089,1014.4
26036,-0.416069,9.7561,1.07604,0.7,-0.14,0.14,-31.7403,-37.6346,-1.13342,1014.4
26042,-0.387374,9.77044,1.04256,0.56,0.07,0,-30.4225,-38.1844,-1.5162,1014.43
26048,-0.373027,9.74175,1.09039,0.35,0.07,0.21,-31.2533,-37.4899,-2.33847,1014.43
26054,-0.387374,9.7274,1.06648,0.07,-0.28,0.21,-30.7949,-37.9818,-1.41696,1014.46
26060,-0.382592,9.7561,1.07126,0.21,0,0,-30.3939,-38.2712,-0.835697,1014.46
26066,-0.382592,9.78479,1.06169,0.28,-0.28,-0.07,-31.597,-37.4609,-1.72886,1014.39
26072,-0.353898,9.72262,1.09039,0.98,0,-0.14,-30.9382,-38.0976,-2.11164,1014.39
26078,-0.368245,9.71784,1.05691,0.07,-0.07,-0.35,-30.2506,-37.5477,-1.21848,1014.43
26084,-0.37781,9.71784,1.07604,0.42,0.35,-0.35,-30.7663,-37.8082,-0.906583,1014.43
26090,-0.37781,9.74175,1.0856,0.84,0.42,-0.42,-30.4798,-37.432,-0.0984858,1014.43
26096,-0.396939,9.78001,1.06648,0.42,0.28,-0.21,-30.1647,-37.6924,-1.21848,1014.44
26102,-0.392157,9.76566,1.05691,0.77,0.42,-0.49,-31.2533,-37.8082,-1.13342,1014.44
26108,-0.396939,9.74653,1.09039,0.7,0.14,-0.14,-31.0814,-38.1844,-0.963291,1014.41
26114,-0.382592,9.75131,1.06169,0.35,0.56,-0.49,-30.2506,-37.403,0.128348,1014.41
26120,-0.425634,9.79436,1.05213,0.49,-0.21,-0.21,-30.7663,-37.432,-1.3319,1014.43
26126,-0.492587,9.82783,1.03778,0.14,-0.21,0.07,-30.9095,-37.3162,-1.04835,1014.43
26132,-0.47824,9.82305,1.04256,0.35,-0.63,-0.07,-30.4512,-37.7503,-1.03418,1014.41
26138,-0.401722,9.79436,1.04256,-0.07,-0.07,0.14,-30.7949,-37.6056,-1.43114,1014.41
26144,-0.411286,9.77523,1.04256,0.42,0.7,0.14,-30.8522,-37.3741,-1.94151,1014.41
26150,-0.416069,9.78001,1.0856,-0.14,0.14,0,-31.7116,-38.0976,-2.45189,1014.41
26156,-0.425634,9.76566,1.10473,0.42,0.28,0,-31.11,-37.9239,-1.81392,1014.39
26162,-0.401722,9.7561,1.04735,0.84,-0.14,0.14,-30.8236,-37.1137,-2.53695,1014.39
26168,-0.37781,9.77523,1.03778,0,0.07,0.28,-30.3366,-37.432,-1.54455,1014.39
26174,-0.416069,9.77044,1.07126,0.21,0.21,0.14,-30.9668,-38.358,-1.13342,1014.42
26180,-0.392157,9.75131,1.10952,0,0.14,0.14,-30.5085,-37.4609,-1.96987,1014.42
26186,-0.368245,9.73697,1.10952,0.35,0.63,0.21,-30.9382,-36.7664,-1.94151,1014.45
26192,-0.363462,9.74653,1.08082,0.07,0,0,-30.8522,-36.94,-2.13999,1014.45
26198,-0.37781,9.73697,1.06648,0.7,0.07,-0.21,-30.5944,-37.7214,-2.66455,1014.4
26204,-0.401722,9.73218,1.05213,0.42,0.14,-0.35,-30.9095,-37.2005,-1.14759,1014.4
26210,-0.382592,9.70827,1.06648,0.63,0.21,-0.14,-31.597,-37.1137,-1.98405,1014.44
26216,-0.396939,9.74653,1.05213,0.77,0,-0.14,-31.3106,-37.1426,-1.88481,1014.44
26222,-0.396939,9.77523,1.01865,0.49,0.07,-0.49,-31.9694,-37.2873,-2.99062,1014.42
26228,-0.411286,9.78001,1.033,0.56,0.07,-0.14,-31.3965,-37.6635,-1.61544,1014.42
26234,-0.387374,9.76088,1.06169,0.77,0,-0.42,-30.8236,-37.7214,-1.92734,1014.42
26240,-0.416069,9.76566,1.05213,0.21,0.28,-0.42,-31.2533,-37.3741,-2.09746,1014.42
26246,-0.416069,9.76566,1.07604,0.42,0.49,-0.21,-31.4538,-37.7503,-0.82152,1014.42
26252,-0.463893,9.83261,1.06648,0.63,0,0,-31.4538,-36.5638,-1.47367,1014.42
26258,-0.411286,9.7561,1.07126,-0.07,0.35,0.14,-30.8809,-37.2584,-2.05493,1014.42
26264,-0.406504,9.79436,1.03778,0.21,0.07,0.28,-31.2819,-37.5188,-1.47367,1014.42
26270,-0.444763,9.76088,1.07604,0.42,-0.49,0.07,-30.9382,-37.8082,-2.22506,1014.42
26276,-0.411286,9.78001,1.07126,0.35,-0.35,0.07,-31.2819,-37.6346,-2.1967,1014.43
26282,-0.387374,9.77523,1.09039,0.28,-0.28,0.14,-31.3392,-37.2873,-2.38101,1014.43
26288,-0.368245,9.74175,1.07126,0.21,0.63,0,-30.4225,-37.4609,-1.67215,1014.39
26294,-0.401722,9.74653,1.06648,0.14,0.35,0.07,-30.9954,-37.1426,-1.50202,1014.39
26300,-0.392157,9.75131,1.06169,0.84,0.56,0.21,-29.9355,-36.7374,-1.92734,1014.39
26306,-0.35868,9.74653,1.0856,0.91,-0.42,-0.21,-30.5085,-37.6056,-2.43771,1014.39
26312,-0.363462,9.77044,1.04256,0,1.05,0.21,-30.3652,-37.3162,-2.06911,1014.41
26318,-0.37781,9.78957,1.06169,-0.07,-0.49,-0.28,-31.0527,-37.2584,-2.0124,1014.41
26324,-0.430416,9.78957,1.05213,0.42,-0.42,-0.07,-30.7949,-37.3741,-0.552154,1014.42
26330,-0.406504,9.74175,1.0856,0.21,-0.77,0,-30.1933,-37.2294,-1.27519,1014.42
26336,-0.406504,9.77523,1.05691,-0.07,-0.21,0,-30.8522,-37.6924,-1.43114,1014.42
26342,-0.454328,9.79436,1.06648,-0.07,0.49,0.07,-30.6517,-37.3162,-0.949114,1014.41
26348,-0.47824,9.78957,1.07604,0.42,0.07,0.21,-30.9095,-37.6635,-2.06911,1014.41
26354,-0.396939,9.76088,1.05691,0.21,0,0.35,-31.1673,-37.432,-2.26759,1014.4
26360,-0.368245,9.77523,1.03778,0.07,-0.42,0,-30.5657,-37.1715,-2.06911,1014.4
26366,-0.454328,9.79914,1.06648,0.14,0,0.35,-31.0241,-36.9111,-1.5162,1014.41
26372,-0.439981,9.78957,1.04735,-0.07,-0.56,0.28,-31.2819,-37.895,-1.45949,1014.41
26378,-0.37781,9.78479,1.0856,0.14,-0.7,0.28,-30.6803,-37.2005,-1.10506,1014.42
26384,-0.329986,9.7561,1.05691,-0.21,-0.49,0.42,-31.5397,-37.7214,-1.88481,1014.42
26390,-0.353898,9.72262,1.07604,0,0.28,0.21,-31.196,-36.969,-1.41696,1014.45
26396,-0.392157,9.7274,1.09995,0.21,0.28,0,-30.6803,-38.1265,-1.92734,1014.45
26402,-0.353898,9.73697,1.09995,0.35,0.42,-0.07,-31.2246,-37.1715,-2.90556,1014.42
26408,-0.363462,9.7274,1.06169,0.56,0.42,0,-31.196,-37.2584,-2.15417,1014.42
26414,-0.401722,9.74653,1.06648,0.42,-0.21,-0.14,-31.3106,-37.3741,-2.11164,1014.42
26420,-0.37781,9.73697,1.07604,0.35,0.21,-0.28,-30.8236,-37.6924,-1.04835,1014.44
26426,-0.411286,9.75131,1.07126,0.42,-0.56,0,-30.7376,-37.895,-1.47367,1014.44
26432,-0.406504,9.78479,1.05691,0.63,-0.42,-0.28,-31.5684,-36.9979,-0.708103,1014.49
26438,-0.430416,9.77044,1.05213,0.49,-0.35,-0.07,-30.3652,-37.8082,-1.36025,1014.49
26444,-0.420851,9.82305,1.04735,0.77,-0.28,0.07,-31.4538,-37.1715,-1.65797,1014.44
26450,-0.430416,9.79436,1.04735,0.91,0.28,0.14,-31.597,-38.4448,-2.76379,1014.44
26456,-0.425634,9.79436,1.07126,0.21,-0.35,0.07,-30.5944,-37.0847,-1.03418,1014.43
26462,-0.387374,9.78479,1.05691,0.7,0.42,0.35,-31.1387,-37.9529,-2.1967,1014.43
26468,-0.416069,9.77523,1.07604,1.12,-0.7,0.21,-30.1933,-38.0686,-2.49442,1014.39
26474,-0.420851,9.80392,1.05213,-0.07,-0.28,0.56,-31.2533,-38.2133,-1.04835,1014.39
26480,-0.37781,9.73697,1.07126,0.63,-0.7,0.7,-30.2793,-38.2423,-1.72886,1014.41
26486,-0.401722,9.77523,1.05691,0.84,-0.42,0.42,-30.8809,-37.4609,-1.95569,1014.41
26492,-0.387374,9.78001,1.03778,-0.07,-0.35,0.7,-30.6803,-37.4609,-1.89898,1014.43
26498,-0.37781,9.77044,1.04735,-0.07,-0.28,0.42,-30.0501,-37.4899,-1.7005,1014.43
26504,-0.392157,9.77523,1.05691,0.14,-0.35,0.35,-30.709,-37.2294,-2.09746,1014.43
26510,-0.392157,9.77523,1.06648,0.35,-0.21,0.35,-31.1387,-37.1137,-1.21848,1014.41
26516,-0.401722,9.75131,1.04735,-0.35,-0.21,0.28,-30.4798,-37.2294,-1.57291,1014.41
26522,-0.368245,9.72262,1.06169,0.07,-0.35,0.28,-29.8209,-37.5477,-1.85645,1014.41
26528,-0.344333,9.77523,1.033,0.7,-0.21,0.21,-31.0241,-37.2005,-0.736457,1014.41
26534,-0.37781,9.71305,1.0856,-0.07,-0.49,-0.07,-30.9095,-37.5767,-1.07671,1014.42
26540,-0.406504,9.76566,1.05213,0.56,0.21,0.49,-30.5944,-36.8532,-1.72886,1014.42
26546,-0.406504,9.76566,1.05213,0.35,-0.35,0.14,-30.0788,-37.1137,-2.38101,1014.4
26552,-0.392157,9.74175,1.07604,0.84,-0.28,0,-31.3392,-37.8661,-1.2043,1014.4
26558,-0.411286,9.77044,1.05691,0.35,-0.42,0.21,-30.8236,-36.7085,-1.88481,1014.44
26564,-0.35868,9.7561,1.09039,0.98,-0.56,-0.21,-29.9642,-36.7953,-1.00582,1014.44
26570,-0.425634,9.74653,1.06169,0.56,-0.49,0.35,-30.7663,-36.8532,-0.934937,1014.43
26576,-0.416069,9.75131,1.06648,0.21,-0.42,0.49,-31.4251,-36.6217,-0.211903,1014.43
26582,-0.401722,9.78957,1.033,0,-0.49,0.07,-31.0527,-37.0268,-2.48025,1014.43
26588,-0.35868,9.77044,1.02343,0.14,-0.49,0.35,-30.5657,-36.6217,-1.28937,1014.43
26594,-0.363462,9.77523,1.07604,0.42,0,0.35,-31.4251,-37.7214,-1.30354,1014.43
26600,-0.387374,9.74175,1.07126,-0.14,-0.14,0,-31.196,-36.7664,-1.7005,1014.42
26606,-0.430416,9.79436,1.05691,-0.35,0.21,0.21,-31.5397,-37.3741,-1.48785,1014.42
26612,-0.37781,9.80392,1.03778,-0.07,-0.35,0.21,-30.623,-37.4609,-1.45949,1014.4
26618,-0.33955,9.77523,1.05691,-0.28,0.21,0,-30.9668,-37.2005,-1.03418,1014.4
26624,-0.363462,9.7561,1.10952,-0.21,-0.49,0,-31.1673,-36.7664,-1.21848,1014.41
26630,-0.387374,9.72262,1.09995,0.56,0.14,0.28,-31.0527,-36.8532,-1.17595,1014.41
26636,-0.382592,9.74175,1.09995,-0.14,-0.07,0.14,-30.7376,-36.9979,-2.06911,1014.41
26642,-0.382592,9.74653,1.1143,0.07,0.28,-0.21,-31.3392,-36.8821,-1.94151,1014.41
26648,-0.396939,9.76566,1.08082,0.56,-0.21,0.07,-30.9954,-36.7374,-0.736457,1014.46
26654,-0.37781,9.76566,1.09039,0.21,-0.35,-0.14,-31.8548,-38.2423,-2.83467,1014.46
26660,-0.387374,9.77044,1.02822,0.35,-0.28,0.21,-31.3106,-36.9111,-1.67215,1014.46
26666,-0.444763,9.79436,1.07126,0.35,-0.42,0.07,-30.3366,-37.432,-1.5162,1014.43
26672,-0.373027,9.79914,1.04256,0.14,-0.28,0.14,-31.4824,-37.432,-1.78557,1014.43
26678,-0.363462,9.79436,1.033,-0.14,-0.56,-0.14,-31.2246,-37.1715,-0.82152,1014.42
26684,-0.37781,9.76566,1.08082,0.35,-0.14,0.14,-30.9954,-36.7664,-1.78557,1014.42
26690,-0.35868,9.74175,1.0856,-0.14,-0.7,-0.35,-30.5371,-37.1426,-0.736457,1014.43
26696,-0.444763,9.73697,1.10473,0.14,-0.21,0.07,-31.0527,-36.7953,-0.608863,1014.43
26702,-0.353898,9.81349,1.00909,0.84,-0.14,0.49,-30.9095,-37.0268,-0.396206,1014.44
26708,-0.382592,9.78479,1.05691,-0.21,-0.77,0.07,-30.3939,-37.2873,-1.84227,1014.44
26714,-0.353898,9.77044,1.04256,-0.35,-0.07,0.14,-30.6517,-36.7374,-0.807343,1014.41
26720,-0.344333,9.73697,1.07604,-0.14,-0.42,0.42,-30.136,-37.3162,-1.75721,1014.41
26726,-0.416069,9.7561,1.04735,0.28,-0.35,-0.07,-31.11,-37.3162,-1.03418,1014.44
26732,-0.368245,9.76566,1.02343,-0.21,-0.14,0.07,-30.3939,-36.94,-0.438737,1014.44
26738,-0.344333,9.74653,1.09995,0.21,-0.28,0.07,-31.3679,-37.5188,-1.02,1014.4
26744,-0.363462,9.74175,1.06169,0.35,0.49,-0.21,-30.9382,-36.9111,-0.339497,1014.4
26750,-0.387374,9.72262,1.10473,0.14,-0.42,0,-31.0814,-37.2005,-0.665572,1014.4
26756,-0.392157,9.79914,1.07604,0.07,0.07,0.14,-31.1387,-36.9111,-1.45949,1014.42
26762,-0.401722,9.74175,1.0856,0.56,-0.84,-0.35,-31.3679,-37.8371,-1.19013,1014.42
26768,-0.387374,9.78479,1.05213,0.35,-0.07,0.21,-30.5944,-38.2423,-1.02,1014.41
26774,-0.387374,9.74175,1.06648,0.28,0,0.07,-30.5944,-37.6924,-0.82152,1014.41
26780,-0.35868,9.72262,1.09517,0.28,-0.14,-0.35,-30.7663,-37.5477,-0.5238,1014.39
26786,-0.392157,9.77044,1.0856,0.98,-0.28,0.21,-30.4798,-37.3452,-1.03418,1014.39
26792,-0.392157,9.78957,1.05691,1.33,-0.21,0.07,-31.3965,-36.9979,-0.835697,1014.42
26798,-0.373027,9.78001,1.04735,-0.35,-0.07,0,-30.5657,-37.403,-0.552154,1014.42
26804,-0.344333,9.77523,1.06169,0.7,-0.14,0.07,-30.5371,-37.4899,-1.44531,1014.43
26810,-0.353898,9.74175,1.08082,0.63,0.07,0,-30.6803,-36.6796,-3.03315,1014.43
26816,-0.368245,9.78479,1.09039,0.14,-0.28,0,-31.0814,-36.3902,-1.96987,1014.43
26822,-0.382592,9.76088,1.06648,0.42,-0.14,0.07,-30.2793,-36.6796,-1.14759,1014.43
26828,-0.373027,9.78001,1.033,0.42,0.14,-0.21,-30.7663,-37.2005,-1.13342,1014.43
26834,-0.373027,9.73218,1.06169,0.49,0.35,-0.35,-30.4512,-37.2294,-1.09089,1014.42
26840,-0.387374,9.72262,1.10473,0.35,-0.21,-0.21,-30.9382,-37.4609,-1.64379,1014.42
26846,-0.368245,9.70827,1.10473,0.49,-0.28,-0.35,-30.7663,-36.9111,-1.55873,1014.44
26852,-0.392157,9.74653,1.1143,1.19,-0.42,-0.28,-30.6517,-37.5477,-2.13999,1014.44
26858,-0.382592,9.70827,1.10473,0.98,-0.35,-0.42,-32.17,-37.2873,-1.95569,1014.42
26864,-0.396939,9.7561,1.0856,1.05,0.14,-0.63,-30.9668,-36.9979,-0.339497,1014.42
26870,-0.368245,9.70349,1.11908,0.77,0.14,-0.42,-30.5657,-37.1715,-0.410383,1014.45
26876,-0.411286,9.78001,1.07604,1.33,0.21,-0.56,-30.709,-37.2873,-0.949114,1014.45
26882,-0.449546,9.79436,1.06648,1.19,-0.28,-0.14,-30.7949,-37.1137,-0.793166,1014.44
26888,-0.382592,9.79436,1.05213,1.26,0.07,-0.14,-30.9382,-36.969,-1.19013,1014.44
26894,-0.392157,9.81349,1.0043,0.7,-0.63,-0.28,-31.4538,-37.5767,-0.608863,1014.46
26900,-0.382592,9.79914,1.05213,0.7,-0.63,0.21,-30.2506,-37.0268,-1.31772,1014.46
26906,-0.392157,9.80392,1.01865,0.56,-0.42,-0.21,-30.9382,-37.6635,-0.580509,1014.46
26912,-0.387374,9.77523,1.05213,0.84,-0.21,-0.28,-30.8236,-37.0847,-1.14759,1014.46
26918,-0.344333,9.75131,1.033,0.98,0.07,0.07,-30.5371,-36.969,-1.72886,1014.46
26924,-0.344333,9.73218,1.05691,0.7,0,-0.21,-31.3679,-36.7953,-1.26101,1014.43
26930,-0.329986,9.7561,1.06648,0.49,0.21,-0.49,-30.9668,-36.8532,-1.16177,1014.43
26936,-0.392157,9.75131,1.08082,0.56,0.07,0,-30.4512,-37.1137,-0.892406,1014.44
26942,-0.35868,9.77523,1.05691,0.63,0.49,-0.7,-30.623,-37.0847,-1.28937,1014.44
26948,-0.353898,9.74653,1.0856,0.21,-0.14,-0.49,-30.8522,-37.0268,-1.72886,1014.41
26954,-0.392157,9.75131,1.05213,0.56,-0.07,-0.21,-31.2819,-37.2873,-0.382029,1014.41
26960,-0.392157,9.75131,1.04735,0.56,-0.21,-0.91,-32.3132,-37.2584,-1.61544,1014.41
26966,-0.406504,9.74175,1.04735,1.05,-0.21,-0.7,-30.8809,-36.8821,-1.38861,1014.41
26972,-0.387374,9.77523,1.033,0.98,0.14,-0.35,-31.3106,-37.2873,-1.71468,1014.42
26978,-0.420851,9.74653,1.06169,0.84,-0.28,-0.77,-31.0241,-36.6506,-1.11924,1014.42
26984,-0.396939,9.76088,1.06169,0.84,-0.21,-0.42,-30.4798,-37.3452,-0.977469,1014.4
26990,-0.387374,9.78479,1.05213,1.19,-0.28,-0.35,-31.3392,-36.9979,-1.02,1014.4
26996,-0.382592,9.77523,1.04256,1.05,0.07,-0.63,-30.709,-37.2873,-1.43114,1014.4
27002,-0.373027,9.76088,1.05691,0.84,-0.14,-0.35,-31.683,-37.1137,-1.17595,1014.42
27008,-0.392157,9.78957,1.033,1.33,-0.14,-0.42,-31.4538,-37.7214,-1.40278,1014.42
27014,-0.47824,9.81827,0.989957,0.91,-0.14,0.07,-30.7663,-37.0268,-0.835697,1014.42
27020,-0.401722,9.81827,1.01865,0.77,-0.63,0.07,-30.6803,-37.3452,-1.68633,1014.42
27026,-0.325203,9.77044,1.02343,0.63,-0.63,-0.42,-30.9954,-37.432,-1.48785,1014.42
27032,-0.325203,9.76566,1.06648,0.77,-0.35,-0.21,-30.7376,-37.6924,-0.240257,1014.42
27038,-0.344333,9.74175,1.04256,0.35,-0.35,-0.14,-31.196,-37.2294,-1.13342,1014.44
27044,-0.373027,9.76088,1.06648,0.63,0.35,-0.42,-30.8236,-37.7793,-1.65797,1014.44
27050,-0.334768,9.7561,1.05691,0.49,-0.07,0,-30.6517,-36.9979,-0.750634,1014.39
27056,-0.373027,9.74653,1.07604,0.77,0.49,-0.35,-30.9382,-36.4481,-1.47367,1014.39
27062,-0.392157,9.73218,1.06169,0.63,0.14,-0.7,-32.0267,-37.6346,-2.36683,1014.45
27068,-0.35868,9.76088,1.04735,0.77,0.49,-0.35,-31.1673,-36.9979,-1.55873,1014.45
27074,-0.368245,9.7561,1.04735,0,-0.14,-0.84,-30.7949,-37.2005,-1.92734,1014.45
27080,-0.411286,9.75131,1.06648,0.56,-0.35,-0.77,-30.136,-36.8821,-1.99822,1014.44
27086,-0.406504,9.77523,1.05691,0.63,0.07,-0.49,-30.3079,-37.8371,-1.74303,1014.44
27092,-0.401722,9.78001,1.02822,0.63,-0.35,-0.91,-31.3965,-37.895,-0.864051,1014.44
27098,-0.392157,9.74653,1.04256,0.49,0,-0.98,-31.3106,-37.8371,-1.77139,1014.44
27104,-0.373027,9.77523,1.04256,0.56,-0.49,-0.84,-31.3965,-37.5188,-1.57291,1014.44
27110,-0.368245,9.74175,1.02343,0.63,0.35,-0.77,-31.2246,-37.6924,-0.906583,1014.44
27116,-0.420851,9.78001,1.07604,0.7,0.84,-0.77,-30.6517,-37.9818,-1.10506,1014.42
27122,-0.382592,9.75131,1.02822,0.35,0.35,-0.91,-31.2246,-37.7793,-1.88481,1014.42
27128,-0.387374,9.79914,0.994739,0.42,0.7,-0.91,-30.7663,-38.3291,-1.06253,1014.4
27134,-0.45911,9.7561,1.06648,0.98,-0.49,-1.12,-30.8236,-38.2133,-1.60126,1014.4
27140,-0.420851,9.79914,1.06648,0.56,-0.07,-1.26,-31.6543,-38.0976,-0.382029,1014.42
27146,-0.406504,9.77044,1.03778,0.42,-0.14,-0.91,-30.9382,-37.8661,-1.17595,1014.42
27152,-0.411286,9.81349,1.033,0.7,0.14,-0.63,-30.7949,-38.1265,-0.240257,1014.4
27158,-0.502152,9.77044,1.05213,0,0,-0.98,-31.1387,-37.7793,-1.23266,1014.4
27164,-0.468675,9.82305,1.03778,0.84,0.07,-0.35,-31.1673,-37.6346,-2.38101,1014.4
27170,-0.430416,9.76088,1.06648,0.7,0.28,-0.56,-30.7949,-37.8082,-0.92076,1014.41
27176,-0.37781,9.76566,1.04735,0.21,0,-0.63,-30.5657,-37.403,-1.04835,1014.41
27182,-0.392157,9.76088,1.07126,0.98,0.63,-0.35,-30.9954,-37.6635,-1.62962,1014.41
27188,-0.435198,9.7561,1.06648,0.42,-0.14,-0.77,-30.9668,-37.9818,-0.0417772,1014.41
27194,-0.35868,9.76566,1.07126,0.63,0.07,-0.35,-31.3106,-37.403,-0.764811,1014.43
27200,-0.406504,9.70827,1.10952,0.49,-0.28,-0.63,-30.5085,-36.969,-1.55873,1014.43
27206,-0.387374,9.72262,1.10473,0.77,0.07,-0.91,-30.0501,-37.3452,-1.54455,1014.41
27212,-0.430416,9.74653,1.07604,0.98,-0.49,-0.63,-30.4512,-37.5477,-0.949114,1014.41
27218,-0.37781,9.76566,1.04256,0.91,0.07,-0.84,-30.4225,-37.7503,-1.30354,1014.41
27224,-0.373027,9.76088,1.02822,1.4,0.14,-0.84,-30.3366,-36.7953,-0.155194,1014.41
27230,-0.387374,9.79436,1.01387,0.84,0.28,-0.77,-30.709,-37.6346,0.000754159,1014.41
27236,-0.420851,9.7561,1.033,0.91,-0.21,-0.63,-30.7376,-37.6056,-2.0124,1014.41
27242,-0.411286,9.78001,1.0043,1.19,-0.56,-0.49,-31.683,-37.6635,-2.42354,1014.41
27248,-0.396939,9.76566,1.0043,0.91,-0.14,-0.77,-29.6491,-37.1426,-0.5238,1014.44
27254,-0.468675,9.78001,1.033,1.12,-0.21,-0.42,-30.5657,-36.8243,-0.62304,1014.44
27260,-0.396939,9.76088,1.04256,0.7,0.21,-0.7,-30.2793,-36.7953,-1.53038,1014.42
27266,-0.435198,9.76566,1.05691,0.77,-0.21,-0.77,-30.0215,-37.0847,-1.10506,1014.42
27272,-0.411286,9.79436,1.01387,1.19,0.07,-0.7,-31.196,-37.3452,-1.04835,1014.41
27278,-0.439981,9.81827,1.033,0.7,-0.35,-0.77,-29.9928,-37.6924,-0.42456,1014.41
27284,-0.463893,9.7561,1.04256,0.91,-0.14,-0.56,-30.8236,-37.3741,-1.50202,1014.41
27290,-0.363462,9.73218,1.0856,1.12,-0.49,-0.56,-30.7663,-37.2873,-0.849874,1014.41
27296,-0.382592,9.74175,1.07604,0.91,-0.14,-0.7,-30.1074,-36.8821,-0.750634,1014.45
27302,-0.420851,9.76566,1.04256,1.54,-0.56,-0.56,-30.3366,-37.5767,-1.58709,1014.45
27308,-0.392157,9.80392,1.02822,1.33,0.14,-0.63,-29.9642,-36.7374,-1.31772,1014.44
27314,-0.387374,9.78479,1.03778,1.12,0.49,-0.91,-30.5944,-37.1426,-0.906583,1014.44
27320,-0.420851,9.77523,1.00909,0.84,0.77,-0.35,-30.4512,-37.8661,-1.04835,1014.44
27326,-0.420851,9.77523,1.04735,0.7,0.49,-0.84,-31.1387,-37.0558,-1.23266,1014.43
27332,-0.392157,9.80392,0.989957,0.63,-0.21,-0.84,-30.7663,-37.432,-1.02,1014.43
27338,-0.420851,9.81827,0.95648,0.84,0.42,-0.56,-30.7376,-37.8082,-1.19013,1014.46
27344,-0.406504,9.76088,0.985174,0.91,-0.21,-0.63,-31.196,-37.5188,-0.566332,1014.46
27350,-0.425634,9.7561,1.01865,0.07,0.63,-0.84,-30.6517,-37.5188,-1.58709,1014.42
27356,-0.420851,9.80392,1.02822,0.91,-0.14,-0.49,-30.623,-37.9529,-0.566332,1014.42
27362,-0.463893,9.78479,0.970827,0.21,0.56,-0.49,-30.9382,-37.7793,-1.24683,1014.43
27368,-0.473458,9.80392,1.02343,0.49,0.28,-0.56,-30.3652,-37.6924,-1.55873,1014.43
27374,-0.483022,9.80392,1.0043,0.49,0.28,-0.07,-30.6803,-37.7503,0.0716399,1014.4
27380,-0.463893,9.80392,1.01387,0.14,-0.21,-0.35,-31.4538,-37.432,-1.44531,1014.4
27386,-0.420851,9.77523,1.06169,-0.14,0.07,-0.28,-30.7376,-37.2584,-1.87063,1014.43
27392,-0.387374,9.76088,1.04256,0.42,-0.42,-0.14,-30.1933,-37.3162,-1.02,1014.43
27398,-0.420851,9.74175,1.09039,0.35,0.14,-0.77,-31.1387,-37.2873,-0.679749,1014.43
27404,-0.411286,9.76088,1.033,0.56,0.56,-0.07,-30.6803,-37.8082,-0.793166,1014.43
27410,-0.411286,9.77044,1.02343,0.42,0.35,-0.07,-30.2506,-37.1426,-0.481269,1014.43
27416,-0.411286,9.72262,1.07126,0.63,0.42,-0.28,-30.3652,-37.1426,-1.54455,1014.45
27422,-0.406504,9.7274,1.06648,0.91,-0.28,-0.42,-29.9642,-37.2584,-1.17595,1014.45
27428,-0.392157,9.71784,1.05691,1.19,0.21,-0.21,-30.4512,-36.9111,-0.963291,1014.42
27434,-0.416069,9.73697,1.03778,0.84,-0.63,-0.7,-29.7636,-36.8821,-0.679749,1014.42
27440,-0.396939,9.73697,1.01387,0.91,0,-0.49,-30.6517,-37.2873,-0.764811,1014.43
27446,-0.392157,9.7561,1.02343,0.49,-0.56,-0.7,-30.2793,-36.969,-0.835697,1014.43
27452,-0.401722,9.75131,1.04735,0.84,0.49,-0.28,-29.9069,-37.2873,-0.864051,1014.41
27458,-0.411286,9.74175,1.04256,1.26,0.63,-0.63,-30.3652,-37.2294,-1.81392,1014.41
27464,-0.401722,9.77523,1.06648,0.49,0.42,-0.28,-29.5918,-37.6924,-0.495446,1014.42
27470,-0.449546,9.77044,1.01387,0.49,0,-0.77,-30.0215,-37.4899,-0.82152,1014.42
27476,-0.463893,9.78479,1.01865,0.84,-0.28,-0.42,-30.3652,-37.2294,-0.42456,1014.44
27482,-0.416069,9.76566,1.02343,0.63,0.21,-0.49,-30.3366,-38.0108,-0.481269,1014.44
27488,-0.463893,9.78957,1.02343,0.63,-0.42,-0.63,-29.8496,-37.4899,-0.750634,1014.44
27494,-0.511717,9.82305,1.03778,0.63,-0.35,-0.28,-29.9069,-37.5767,-0.438737,1014.44
27500,-0.47824,9.79436,1.01865,0.49,-0.7,-0.42,-29.9928,-37.0847,-0.963291,1014.44
27506,-0.411286,9.76566,1.033,0.42,-0.63,-0.21,-30.2793,-36.9111,-0.963291,1014.39
27512,-0.416069,9.71305,1.09039,0.7,0.21,-0.21,-30.7663,-38.0976,-0.183549,1014.39
27518,-0.416069,9.76088,1.06169,0.7,-0.14,-0.49,-30.1647,-36.7664,-1.40278,1014.41
27524,-0.45911,9.73697,1.07604,0.98,0.21,-0.28,-29.8209,-37.8082,-0.467091,1014.41
27530,-0.406504,9.74175,1.03778,1.19,-0.07,-0.21,-30.0215,-37.2005,-0.949114,1014.39
27536,-0.37781,9.76088,1.02822,0.91,0.35,-0.21,-30.5085,-37.432,-1.94151,1014.39
27542,-0.416069,9.77523,1.033,0.98,-0.35,-0.35,-31.1387,-37.5477,-1.41696,1014.4
27548,-0.387374,9.79914,0.97561,1.12,0.21,-0.42,-30.3939,-37.3741,-0.594686,1014.4
27554,-0.425634,9.76566,0.989957,0.91,-0.42,-0.63,-30.3939,-37.4609,-0.62304,1014.44
27560,-0.420851,9.78001,1.0043,0.63,0.21,-0.56,-30.2506,-37.5767,-2.02658,1014.44
27566,-0.430416,9.77044,0.985174,0.56,0.07,-0.63,-30.3079,-37.4609,-1.09089,1014.44
27572,-0.435198,9.77523,1.033,0.7,0.14,-0.42,-30.1074,-37.6635,-0.892406,1014.42
27578,-0.435198,9.77523,0.97561,0.21,0.21,-0.35,-29.8782,-37.2584,-2.15417,1014.42
27584,-0.425634,9.78479,1.0043,0.35,-0.28,-0.21,-30.3079,-37.6056,-1.21848,1014.43
27590,-0.473458,9.77523,1.033,0.7,-0.21,-0.42,-29.7636,-37.2873,0.085817,1014.43
27596,-0.492587,9.78479,1.01387,0.63,-0.77,-0.14,-30.5085,-37.6924,-1.14759,1014.43
27602,-0.435198,9.78957,1.0043,0.35,0.28,-0.21,-29.9928,-36.7374,-1.45949,1014.43
27608,-0.411286,9.7561,1.01387,0.7,-0.21,-0.28,-29.735,-37.2584,-1.30354,1014.41
27614,-0.392157,9.76088,1.04735,0.63,0.28,-0.21,-30.4512,-37.2005,-0.849874,1014.41
27620,-0.425634,9.74653,1.05213,0.84,0.14,-0.07,-30.6803,-37.6924,-1.19013,1014.42
27626,-0.439981,9.76088,1.02822,0.7,0.35,-0.35,-30.4225,-37.4899,-1.99822,1014.42
27632,-0.368245,9.78957,1.00909,0.84,-0.35,0.07,-30.3366,-37.5477,-0.367851,1014.42
27638,-0.387374,9.76088,1.02822,0.63,0.21,-0.21,-29.9928,-37.3741,-1.27519,1014.42
27644,-0.401722,9.74653,1.02822,0.7,0,-0.35,-30.2506,-36.8821,-1.26101,1014.43
27650,-0.416069,9.74653,0.999522,0.42,0.49,-0.35,-29.9928,-36.5638,-0.32532,1014.43
27656,-0.435198,9.7561,1.00909,0.63,0,-0.21,-30.623,-37.2005,-2.15417,1014.43
27662,-0.382592,9.7561,1.00909,1.19,0.35,-0.35,-30.7663,-37.1426,-1.61544,1014.45
27668,-0.425634,9.76088,1.02343,0.56,0.28,-0.42,-30.0215,-37.4899,-1.55873,1014.45
27674,-0.416069,9.78479,0.994739,0.56,0.21,-0.56,-30.1074,-37.2005,-1.77139,1014.44
27680,-0.430416,9.77044,0.970827,0.63,0.14,-0.77,-30.2793,-37.432,-1.87063,1014.44
27686,-0.47824,9.78957,0.951698,0.56,0.14,-0.35,-30.5371,-37.3741,-1.31772,1014.41
27692,-0.483022,9.81827,0.942133,0.28,0,-0.21,-30.5371,-37.0558,-0.679749,1014.41
27698,-0.47824,9.78001,0.989957,0.7,-0.07,-0.21,-30.5657,-37.4899,-1.75721,1014.41
27704,-0.439981,9.79914,0.97561,0,0.35,-0.21,-30.8522,-37.3741,-1.3319,1014.41
27710,-0.473458,9.75131,0.980392,-0.49,-0.07,-0.35,-30.4225,-37.6346,-2.13999,1014.39
27716,-0.468675,9.81349,1.0043,0.28,0.28,-0.14,-30.222,-37.1715,-1.30354,1014.39
27722,-0.430416,9.75131,1.05213,0.07,0.07,-0.07,-30.0501,-37.1137,-2.70708,1014.41
27728,-0.435198,9.7561,1.06648,-0.14,-0.35,-0.35,-29.8782,-37.7793,-2.16835,1014.41
27734,-0.420851,9.72262,1.05691,0.77,-0.28,-0.49,-30.3652,-37.432,-1.28937,1014.41
27740,-0.439981,9.7274,1.08082,0.84,-0.21,-0.49,-30.0501,-37.8661,-0.82152,1014.42
27746,-0.416069,9.7274,1.06169,0.63,0.7,-0.21,-30.9095,-36.94,-1.8281,1014.42
27752,-0.416069,9.76088,1.02822,1.26,0.07,-0.56,-29.9928,-36.8821,-0.807343,1014.45
27758,-0.363462,9.78957,1.02343,0.91,1.12,-0.84,-30.5371,-37.2294,-0.878229,1014.45
27764,-0.454328,9.72262,1.02822,1.05,0.7,-0.49,-30.136,-36.7953,-1.14759,1014.4
27770,-0.425634,9.7561,1.033,1.33,0.91,-0.56,-29.6491,-37.5477,-1.95569,1014.4
27776,-0.416069,9.77044,1.0043,1.4,0.21,-0.63,-29.9642,-37.2294,-1.36025,1014.4
27782,-0.449546,9.74653,1.05213,1.4,0.42,-0.63,-31.196,-38.2712,-1.91316,1014.4
27788,-0.406504,9.76566,1.01387,1.61,0.42,-0.14,-29.735,-37.2294,-1.55873,1014.44
27794,-0.444763,9.78957,0.989957,1.47,0.84,-0.77,-29.8496,-37.4899,-1.14759,1014.44
27800,-0.473458,9.78479,0.966045,1.05,0.28,-0.7,-30.2506,-37.2294,-0.0417772,1014.4
27806,-0.463893,9.82783,0.970827,0.91,0.35,-0.28,-29.9642,-37.8371,-1.84227,1014.4
27812,-0.463893,9.8374,0.97561,0.7,0.14,-0.42,-29.735,-37.2005,-1.44531,1014.4
27818,-0.483022,9.82305,0.980392,0.84,0.56,-0.42,-29.9069,-38.1265,-1.48785,1014.41
27824,-0.502152,9.79914,1.01387,0.07,0.21,-0.21,-30.0501,-38.1555,-0.793166,1014.41
27830,-0.45911,9.78001,1.03778,0.28,0.07,-0.21,-29.7063,-37.5477,-1.5162,1014.4
27836,-0.420851,9.75131,1.04256,1.19,0,-0.35,-30.2506,-37.8661,-0.835697,1014.4
27842,-0.406504,9.73218,1.02343,0.21,-0.35,-0.63,-30.1933,-37.403,-0.651394,1014.42
27848,-0.468675,9.7274,1.04256,0.84,0.28,-0.35,-30.3079,-37.6635,-1.31772,1014.42
27854,-0.439981,9.78957,1.01865,1.26,0.63,-0.28,-30.0788,-38.0686,-0.92076,1014.42
27860,-0.425634,9.7561,1.01387,0.14,0.35,-0.42,-30.1647,-38.1265,-0.693926,1014.42
27866,-0.449546,9.76566,1.01865,0.98,0.21,-0.14,-30.8236,-37.7214,-1.88481,1014.42
27872,-0.454328,9.77044,1.02343,1.47,0,-0.21,-30.222,-38.2712,-1.43114,1014.42
27878,-0.439981,9.78479,0.994739,0.56,0,-0.49,-29.8782,-37.7503,-1.8281,1014.4
27884,-0.449546,9.76566,0.985174,0.84,0.07,-0.42,-30.7949,-38.1555,-1.07671,1014.4
27890,-0.439981,9.79914,0.970827,0.91,0.49,-0.35,-30.6517,-37.9818,-1.36025,1014.44
27896,-0.449546,9.7561,1.01865,1.05,0.42,-0.21,-30.1074,-37.2005,-0.509623,1014.44
27902,-0.406504,9.78001,1.01865,1.05,0.7,-0.28,-30.1933,-37.4609,-0.92076,1014.44
27908,-0.473458,9.80392,0.994739,0.56,-0.35,-0.91,-30.5657,-37.8661,-1.03418,1014.45
27914,-0.530846,9.81349,0.97561,0.98,0.07,0.14,-31.4251,-37.7793,-0.62304,1014.45
27920,-0.47824,9.83261,0.980392,0.63,-0.77,-0.28,-30.0501,-37.6924,-1.5162,1014.42
27926,-0.483022,9.79436,0.970827,0.28,0.07,0,-30.8236,-37.895,-2.16835,1014.42
27932,-0.47824,9.8374,0.97561,0.56,-0.28,0.21,-30.9382,-38.0397,-0.62304,1014.44
27938,-0.521282,9.81827,0.994739,0.63,0.35,0.7,-30.3366,-37.3741,-1.3319,1014.44
27944,-0.430416,9.76566,1.01387,0.63,-0.28,-0.14,-30.2506,-37.6346,-0.608863,1014.4
27950,-0.444763,9.75131,1.04256,0.49,0.21,0.21,-30.2793,-37.432,-0.296966,1014.4
27956,-0.420851,9.6748,1.06648,0.98,-0.21,-0.07,-30.7376,-37.0268,-0.963291,1014.43
27962,-0.420851,9.68914,1.14778,0.77,-0.42,-0.28,-30.1933,-37.2294,-2.21088,1014.43
27968,-0.406504,9.69392,1.11908,1.4,-0.07,0,-30.6803,-38.0397,-0.467091,1014.43
27974,-0.392157,9.7274,1.033,1.61,-0.35,-0.35,-31.0527,-37.7503,-0.0843086,1014.43
27980,-0.449546,9.7274,1.04256,1.75,0.28,-0.14,-30.8522,-37.1715,-0.637217,1014.43
27986,-0.45911,9.78479,1.01387,1.19,0.35,-0.56,-30.9954,-37.2294,-0.410383,1014.39
27992,-0.430416,9.76566,0.989957,1.54,0.07,-0.35,-31.1387,-37.3162,-0.736457,1014.39
27998,-0.406504,9.78479,0.97561,1.89,0,-0.49,-30.9668,-37.0268,-1.06253,1014.41
28004,-0.454328,9.8087,0.97561,1.12,0.07,-0.42,-30.2506,-36.6796,-1.03418,1014.41
28010,-0.406504,9.78001,0.951698,1.26,-0.21,-0.49,-30.623,-36.5928,-0.92076,1014.41
28016,-0.430416,9.76566,0.951698,1.33,-0.07,-0.56,-30.4225,-37.1137,-1.19013,1014.41
28022,-0.454328,9.77523,1.0043,1.26,-0.07,-0.56,-31.0814,-38.1265,-1.14759,1014.41
28028,-0.435198,9.81827,0.961262,0.98,-0.07,-0.28,-30.5371,-37.2873,-2.04075,1014.41
28034,-0.45911,9.79436,0.946915,0.7,-0.14,-0.35,-30.5657,-37.4899,-1.71468,1014.46
28040,-0.492587,9.82783,0.932568,1.33,0,-0.56,-30.7376,-37.2584,-1.94151,1014.46
28046,-0.483022,9.86609,0.932568,0.98,-0.21,-0.28,-30.6517,-37.8082,-1.21848,1014.43
28052,-0.444763,9.82783,0.966045,0.42,0,-0.14,-30.222,-37.6924,-0.736457,1014.43
28058,-0.420851,9.76088,0.97561,0.7,0.07,0.07,-30.6517,-37.6635,-1.89898,1014.43
28064,-0.368245,9.70827,1.05213,0.84,0.07,-0.07,-30.4225,-37.7503,-0.410383,1014.43
28070,-0.444763,9.73218,1.00909,0.98,0.07,-0.35,-30.6803,-37.2005,-2.04075,1014.43
28076,-0.449546,9.76566,0.970827,1.26,0.14,-0.07,-30.3079,-37.3162,-1.72886,1014.46
28082,-0.454328,9.82783,0.923003,0.77,0,-0.49,-30.623,-37.8082,-1.47367,1014.46
28088,-0.430416,9.84696,0.932568,0.35,0.28,-0.14,-31.7116,-38.5027,-2.09746,1014.44
28094,-0.454328,9.83261,0.908656,0.42,0.35,-0.35,-30.1647,-37.4899,-0.311143,1014.44
28100,-0.45911,9.79436,0.913438,0.49,0,-0.35,-30.5371,-37.4899,-0.410383,1014.42
28106,-0.444763,9.77044,0.942133,0.14,0.28,-0.35,-30.5085,-37.6924,-0.849874,1014.42
28112,-0.425634,9.76566,0.951698,-0.35,0.14,-0.35,-30.3652,-37.2584,-0.764811,1014.41
28118,-0.425634,9.74653,0.985174,-0.21,0,-0.28,-30.3652,-37.895,-1.45949,1014.41
28124,-0.449546,9.78001,0.999522,0.28,-0.07,-0.07,-30.0788,-37.5188,-1.28937,1014.41
28130,-0.439981,9.79914,0.985174,-0.14,0.35,-0.14,-31.0241,-37.4609,-1.96987,1014.41
28136,-0.473458,9.78001,0.999522,-0.28,0,-0.21,-30.1074,-37.0558,-1.38861,1014.42
28142,-0.45911,9.77523,1.01387,0.07,0,0,-30.3652,-37.6924,-2.28177,1014.42
28148,-0.430416,9.75131,1.01865,-0.21,-0.28,-0.35,-30.4512,-37.4899,-0.183549,1014.42
28154,-0.468675,9.8374,0.970827,-0.14,0.28,0.14,-30.5085,-37.8371,-0.991646,1014.43
28160,-0.545194,9.84218,0.923003,0.49,-0.07,0,-30.6803,-36.5928,-0.296966,1014.43
28166,-0.454328,9.79914,0.966045,-0.14,0.14,0.14,-30.5657,-37.432,-0.141017,1014.47
28172,-0.425634,9.73697,1.02822,0.14,-0.07,0.28,-30.9095,-37.5188,0.185057,1014.47
28178,-0.401722,9.7274,1.05691,0.56,0.14,0.28,-30.2506,-37.5188,-0.438737,1014.44
28184,-0.487805,9.80392,0.994739,0.42,0.21,0.21,-30.5944,-37.5767,-0.764811,1014.44
28190,-0.487805,9.84218,0.927786,0.07,-0.07,0.56,-31.2819,-36.94,0.000754159,1014.47
28196,-0.444763,9.8087,0.942133,-0.35,-0.07,0.28,-30.3939,-37.1137,-0.22608,1014.47
28202,-0.435198,9.74653,1.04256,0.07,0,0.49,-30.6517,-36.9111,-0.991646,1014.42
28208,-0.435198,9.73218,1.05213,0.49,0.14,0.42,-30.7949,-37.1426,-0.197726,1014.42
28214,-0.435198,9.75131,1.0043,0.49,-0.14,0,-30.3366,-37.3162,-0.42456,1014.4
28220,-0.454328,9.78001,0.970827,-0.35,-0.21,0.14,-30.3652,-37.4899,-0.0417772,1014.4
28226,-0.430416,9.7561,0.951698,0.56,0,0.07,-30.2793,-37.5767,-1.10506,1014.4
28232,-0.416069,9.80392,0.966045,0.21,0.42,-0.14,-30.4798,-37.6924,-0.764811,1014.41
28238,-0.420851,9.74653,0.999522,0.28,0.28,0.21,-30.4225,-38.5895,-1.06253,1014.41
28244,-0.449546,9.81827,0.97561,-0.35,-0.07,-0.07,-30.6517,-37.3452,-0.566332,1014.43
28250,-0.425634,9.77044,0.970827,-0.14,-0.14,-0.35,-30.6517,-38.0108,-0.906583,1014.43
28256,-0.425634,9.77044,0.980392,0.07,0,-0.14,-30.0501,-37.4899,-0.566332,1014.44
28262,-0.473458,9.74653,0.961262,0.35,0.28,0.14,-30.4798,-37.3741,-1.00582,1014.44
28268,-0.439981,9.84218,0.908656,-0.14,0,0.07,-30.3366,-37.1426,-0.793166,1014.43
28274,-0.516499,9.85653,0.946915,-0.56,0.21,0.63,-30.0215,-37.2005,-0.764811,1014.43
28280,-0.492587,9.81349,0.970827,-0.21,-0.49,0.42,-30.1647,-37.2873,-1.00582,1014.42
28286,-0.449546,9.77044,1.01865,-0.98,-0.49,0.21,-30.3939,-36.9979,-1.14759,1014.42
28292,-0.468675,9.79436,1.01865,0.07,-0.49,0.84,-30.4512,-37.2294,-1.28937,1014.44
28298,-0.454328,9.73697,1.06169,-0.21,0,0.7,-30.5085,-37.7214,-1.06253,1014.44
28304,-0.439981,9.73697,1.06648,-0.28,0.21,0.42,-30.4798,-37.9239,-1.30354,1014.44
28310,-0.406504,9.7561,1.05691,0.49,0.28,0.77,-30.1647,-37.4609,-1.58709,1014.43
28316,-0.430416,9.76566,1.04735,0.14,0.21,0.42,-30.3079,-37.1715,-0.72228,1014.43
28322,-0.435198,9.79914,0.985174,-0.28,-0.21,0.35,-30.9954,-37.1715,-0.410383,1014.41
28328,-0.430416,9.80392,0.985174,0.56,-0.28,0.63,-30.4798,-37.6346,-0.934937,1014.41
28334,-0.439981,9.80392,0.994739,0.07,0.21,0.21,-30.6517,-38.0976,-1.19013,1014.44
28340,-0.411286,9.8087,0.951698,-0.42,0.07,0.07,-30.136,-37.6056,-1.41696,1014.44
28346,-0.430416,9.83261,0.951698,-0.56,0.14,0.35,-30.1647,-37.2873,-1.5162,1014.39
28352,-0.463893,9.81349,0.946915,-0.63,0,0.42,-30.5944,-38.1265,-1.34607,1014.39
28358,-0.425634,9.79914,0.942133,-0.42,-0.21,0.56,-29.9928,-37.9529,-1.92734,1014.46
28364,-0.420851,9.83261,0.970827,-1.19,0.14,0.7,-30.3939,-37.3741,-0.849874,1014.46
28370,-0.454328,9.76088,1.02343,-0.84,0,0.7,-30.8236,-37.5188,-1.61544,1014.41
28376,-0.444763,9.77044,1.01387,-0.56,-0.56,0.7,-30.6517,-37.432,-2.13999,1014.41
28382,-0.487805,9.78001,1.00909,-0.77,-0.21,0.91,-30.0501,-37.6924,-2.46607,1014.41
28388,-0.506934,9.77044,1.02343,-1.05,-0.42,0.7,-30.7376,-37.6056,-1.68633,1014.41
28394,-0.473458,9.80392,0.989957,-0.84,0,1.12,-30.9382,-37.8661,-2.02658,1014.41
28400,-0.439981,9.78479,1.01387,-0.56,-0.28,1.19,-30.3652,-37.4609,-2.13999,1014.41
28406,-0.401722,9.74175,1.01387,-0.42,-0.21,1.12,-31.1387,-37.7503,-2.42354,1014.41
28412,-0.430416,9.73218,1.05213,-0.56,-0.98,1.19,-30.5657,-38.3291,-1.40278,1014.44
28418,-0.406504,9.72262,1.0856,-0.42,-0.35,0.7,-30.6803,-37.8661,-2.76379,1014.44
28424,-0.420851,9.71784,1.02822,0.21,-0.28,1.12,-30.5371,-36.8532,-1.58709,1014.41
28430,-0.363462,9.72262,1.06169,0.28,0.42,1.12,-30.0215,-38.0108,0.17088,1014.41
28436,-0.353898,9.73697,1.02343,0.07,0.07,0.42,-30.1647,-37.2294,-1.36025,1014.42
28442,-0.37781,9.76088,1.03778,-0.21,0.56,0.7,-30.6517,-37.0847,-0.155194,1014.42
28448,-0.430416,9.77523,1.02822,0.21,0,0.91,-30.623,-36.7664,-0.282789,1014.41
28454,-0.392157,9.76566,0.994739,-0.21,0.49,0.21,-30.9382,-36.6796,-1.27519,1014.41
28460,-0.411286,9.81827,0.942133,-0.56,-0.35,0.63,-30.4512,-36.7664,-1.36025,1014.42
28466,-0.430416,9.8087,0.966045,-0.42,-0.21,0.63,-30.4512,-36.94,-1.41696,1014.42
28472,-0.45911,9.78957,0.994739,-0.84,-0.49,0.56,-30.8809,-37.6924,-2.31012,1014.42
28478,-0.439981,9.78479,0.999522,-0.63,-0.14,0.91,-29.7063,-37.7214,-0.934937,1014.41
28484,-0.454328,9.81827,0.970827,-0.42,-0.14,0.7,-30.3652,-37.2005,-1.43114,1014.41
28490,-0.463893,9.79436,1.02343,-1.19,-0.56,1.05,-30.3366,-36.7085,-0.934937,1014.44
28496,-0.411286,9.78001,1.04256,-1.19,-0.42,1.19,-31.0527,-37.6056,-0.906583,1014.44
28502,-0.439981,9.73218,1.06648,-0.77,-0.21,0.91,-30.623,-36.3612,-1.50202,1014.47
28508,-0.430416,9.7274,1.07604,-0.77,-0.28,1.47,-31.0527,-36.969,-1.41696,1014.47
28514,-0.396939,9.74175,1.033,0,0.14,1.12,-30.7376,-37.3162,-1.16177,1014.43
28520,-0.416069,9.73218,1.06169,0.07,-0.56,0.84,-30.6517,-37.3162,-0.949114,1014.43
28526,-0.363462,9.76088,1.05213,-0.63,0.14,1.05,-30.4225,-37.3162,-1.43114,1014.41
28532,-0.416069,9.75131,1.02822,-0.35,-0.84,0.56,-30.6517,-37.2584,-0.339497,1014.41
28538,-0.35868,9.74175,1.01387,-0.07,-0.35,0.7,-30.6517,-37.2873,-1.40278,1014.44
28544,-0.387374,9.8087,0.980392,-0.14,-0.35,0.56,-30.3939,-36.8532,-1.24683,1014.44
28550,-0.468675,9.78001,0.989957,0.07,-0.14,0.7,-30.3079,-37.2005,-1.64379,1014.4
28556,-0.382592,9.76566,1.01387,-0.7,-0.07,0.28,-30.3652,-37.1715,-0.608863,1014.4
28562,-0.37781,9.7561,1.033,-0.28,-0.07,0.7,-30.1074,-37.432,-1.7005,1014.4
28568,-0.363462,9.74175,1.02343,-0.07,-0.28,0.49,-30.623,-37.2294,-1.06253,1014.43
28574,-0.37781,9.74175,1.00909,-0.42,-0.63,0.21,-29.9642,-37.1426,-1.61544,1014.43
28580,-0.382592,9.7561,1.06169,-0.56,-0.28,0.35,-30.5657,-37.0558,-0.864051,1014.42
28586,-0.382592,9.78957,0.999522,-0.42,-0.28,0.49,-30.4512,-37.8371,-0.0417772,1014.42
28592,-0.416069,9.78479,1.0043,-0.49,-0.56,0.21,-30.6803,-37.0847,-0.62304,1014.41
28598,-0.454328,9.78957,1.01387,-0.77,-0.35,0.49,-31.597,-38.1844,-2.18253,1014.41
28604,-0.45911,9.8087,1.01387,-0.56,-0.49,0.84,-30.1933,-37.895,-0.296966,1014.43
28610,-0.425634,9.8087,0.999522,-1.05,-0.63,0.56,-30.6803,-36.7664,-0.892406,1014.43
28616,-0.363462,9.76088,1.07126,-0.84,-0.77,0.77,-30.2793,-36.7085,-1.10506,1014.39
28622,-0.334768,9.7274,1.0856,-0.49,-0.21,0.56,-30.2506,-36.8532,0.241766,1014.39
28628,-0.33955,9.70827,1.11908,-0.35,-0.84,0.77,-30.2506,-37.0268,-0.934937,1014.43
28634,-0.368245,9.71784,1.11908,-0.35,-0.49,0.42,-30.136,-36.7664,-1.74303,1014.43
28640,-0.37781,9.7274,1.07604,-0.07,-0.7,0.28,-31.0241,-37.2294,-1.41696,1014.43
28646,-0.353898,9.73697,1.06169,0,0.28,0.28,-30.7376,-37.8371,-1.60126,1014.44
28652,-0.387374,9.74653,1.01865,0.07,0,0.28,-30.5944,-38.387,-0.977469,1014.44
28658,-0.382592,9.77523,1.02822,0,0.21,0.42,-30.8809,-37.4609,-2.56531,1014.43
28664,-0.33955,9.76566,0.994739,-0.21,0.07,0.49,-30.9095,-37.3162,-1.50202,1014.43
28670,-0.401722,9.81349,1.0043,-0.42,0.07,0.21,-30.3939,-37.1715,-1.40278,1014.45
28676,-0.444763,9.8087,1.0043,-0.42,0.07,0.14,-30.4512,-37.2584,-1.03418,1014.45
28682,-0.392157,9.79914,1.04256,-0.35,-0.28,0.42,-30.3652,-36.8243,-1.2043,1014.46
28688,-0.363462,9.7561,1.05213,0,-0.35,0.42,-30.3652,-37.0847,-1.44531,1014.46
28694,-0.37781,9.74653,1.07604,-0.35,-0.14,0.21,-30.7663,-37.0847,-1.77139,1014.41
28700,-0.406504,9.74653,1.02822,-0.42,-0.07,0.35,-30.6517,-36.8532,-1.27519,1014.41
28706,-0.449546,9.78001,1.01387,0.14,-0.35,0.14,-30.3939,-37.2584,-1.99822,1014.45
28712,-0.401722,9.78479,1.0043,-0.56,0,0.42,-30.709,-37.1715,-1.26101,1014.45
28718,-0.349115,9.74653,1.05213,-1.05,0.07,0.42,-30.2506,-37.5188,-1.67215,1014.45
28724,-0.37781,9.75131,1.0856,-0.35,-0.21,0.35,-30.4225,-37.1137,-2.21088,1014.45
28730,-0.392157,9.74653,1.0856,-0.28,-0.14,0.42,-30.2506,-37.2873,-1.54455,1014.45
28736,-0.396939,9.78957,1.03778,-0.7,-0.14,0.56,-30.2793,-36.7085,-0.169371,1014.48
28742,-0.37781,9.76566,1.05213,0.21,-0.35,0.56,-31.0241,-37.2584,-1.48785,1014.48
28748,-0.33955,9.73697,1.09995,-0.14,-0.49,0.35,-31.1673,-37.2873,-2.43771,1014.45
28754,-0.344333,9.74175,1.08082,-0.21,0,0.07,-30.5085,-37.3162,-1.17595,1014.45
28760,-0.35868,9.76566,1.06169,0.07,0.07,0.35,-30.3939,-37.4899,-2.22506,1014.42
28766,-0.344333,9.75131,1.03778,-0.07,-0.14,-0.35,-30.8522,-37.3452,-2.13999,1014.42
28772,-0.353898,9.76088,1.05213,0.21,-0.35,-0.14,-30.5371,-37.2584,-2.86303,1014.44
28778,-0.37781,9.8087,1.04735,0.14,0.07,0.21,-30.9668,-37.403,-1.24683,1014.44
28784,-0.439981,9.79914,1.07126,0.14,0.28,-0.14,-30.7949,-36.9979,-1.14759,1014.43
28790,-0.396939,9.8374,1.02343,-0.42,-0.07,0.35,-30.222,-37.5477,-0.693926,1014.43
28796,-0.430416,9.8087,1.00909,-0.42,-0.21,0.14,-29.735,-37.2294,-1.34607,1014.42
28802,-0.430416,9.82305,1.04256,-0.7,-0.28,0.28,-31.4251,-37.5477,-3.71366,1014.42
28808,-0.435198,9.78957,1.06648,-0.42,0,0.49,-31.0814,-37.4609,-1.50202,1014.42
28814,-0.401722,9.77044,1.07126,-0.56,-0.21,0.63,-30.4225,-37.6924,-1.81392,1014.42
28820,-0.368245,9.7561,1.04735,-0.28,-0.07,0.49,-30.623,-37.4899,-0.509623,1014.42
28826,-0.363462,9.74175,1.09039,0.07,-0.35,0.63,-30.4512,-37.5477,-2.13999,1014.44
28832,-0.35868,9.77044,1.0856,-0.35,-0.7,0,-30.8809,-36.94,-0.467091,1014.44
28838,-0.363462,9.71305,1.10473,-0.07,-0.35,0.35,-30.9095,-37.7214,-1.57291,1014.4
28844,-0.325203,9.7274,1.07604,0.14,0.49,0.35,-30.4512,-36.8532,-0.991646,1014.4
28850,-0.35868,9.71784,1.033,-0.28,0.07,0.42,-30.8236,-36.9979,-1.77139,1014.4
28856,-0.37781,9.73218,1.07604,-0.07,0.28,0.21,-30.8522,-37.2005,-1.61544,1014.4
28862,-0.344333,9.74175,1.05691,-0.07,-0.35,0.14,-30.8236,-37.3741,-0.849874,1014.41
28868,-0.373027,9.76566,1.05213,0.07,-0.14,0.21,-30.9954,-37.0268,-0.764811,1014.41
28874,-0.416069,9.72262,1.07604,0.56,-0.56,0.14,-31.11,-37.1137,-1.16177,1014.4
28880,-0.368245,9.74653,1.10473,0.21,-0.14,0,-30.709,-37.6056,-0.353674,1014.4
28886,-0.382592,9.74175,1.08082,0.28,-0.84,0,-30.4225,-37.2294,-0.693926,1014.4
28892,-0.382592,9.79914,1.10952,0.42,-0.14,0.07,-30.5944,-37.3741,-0.311143,1014.42
28898,-0.430416,9.78479,1.04256,0.28,0,-0.07,-31.196,-37.4899,-0.452914,1014.42
28904,-0.396939,9.8087,1.02822,0.21,0,0.91,-33.1153,-37.9818,-1.87063,1014.42
28910,-0.425634,9.81827,1.04735,0.21,-0.77,0.07,-30.5371,-37.1715,-1.06253,1014.42
28916,-0.401722,9.82305,1.04735,0.14,-0.7,0.35,-30.709,-37.4899,-1.74303,1014.42
28922,-0.363462,9.77044,1.09995,0.35,-0.63,0.42,-30.709,-36.9111,-0.793166,1014.42
28928,-0.368245,9.76088,1.09517,0.28,-0.49,0.49,-30.7663,-37.0268,-1.45949,1014.37
28934,-0.373027,9.70827,1.10473,0.63,-0.49,0.28,-30.9095,-37.3162,-0.367851,1014.37
28940,-0.373027,9.73218,1.05691,0,-0.07,0.35,-31.8262,-37.8082,-1.38861,1014.4
28946,-0.325203,9.73218,1.12386,0.63,-0.07,0.28,-30.8236,-37.4609,-0.693926,1014.4
28952,-0.35868,9.73218,1.08082,0.98,-0.49,-0.07,-30.709,-37.6056,-0.410383,1014.44
28958,-0.35868,9.75131,1.05213,0.35,-0.21,0.28,-31.4538,-37.2584,-1.13342,1014.44
28964,-0.344333,9.79914,1.02343,0.42,-0.63,-0.14,-30.9668,-37.1715,-2.06911,1014.44
28970,-0.353898,9.77523,1.04256,0.28,0.07,0.14,-31.5111,-37.1426,-1.45949,1014.42
28976,-0.387374,9.79914,1.04256,0.14,-0.28,-0.07,-31.4538,-37.2294,-0.793166,1014.42
28982,-0.406504,9.79914,1.05213,0.42,0.14,-0.28,-31.2533,-36.8821,-0.991646,1014.41
28988,-0.37781,9.77523,0.980392,0.49,-0.42,0,-31.2819,-36.7664,-1.75721,1014.41
28994,-0.344333,9.80392,1.04735,-0.35,-0.42,0,-31.7976,-36.9979,-1.58709,1014.41
29000,-0.392157,9.7561,1.05691,-0.21,0.07,0.07,-31.0527,-37.0558,-1.03418,1014.41
29006,-0.425634,9.78001,1.05691,0.28,0.07,0.28,-31.3392,-36.7085,-0.353674,1014.41
29012,-0.382592,9.78001,1.033,-0.56,0.07,0.14,-32.2559,-38.1265,-0.651394,1014.41
29018,-0.363462,9.78957,1.06648,-0.07,-0.21,0.56,-32.1127,-37.4899,-1.2043,1014.4
29024,-0.363462,9.72262,1.09039,0.42,0.14,0.49,-31.11,-37.0558,-1.58709,1014.4
29030,-0.401722,9.73218,1.1143,-0.07,-0.56,-0.14,-31.0527,-36.7374,-1.16177,1014.43
29036,-0.344333,9.72262,1.1143,0.14,0.28,0.35,-30.9382,-37.3452,-1.06253,1014.43
29042,-0.353898,9.7274,1.1143,0.14,-0.07,0.14,-30.4798,-37.2873,-1.79974,1014.42
29048,-0.325203,9.72262,1.12386,0.63,0.28,-0.35,-30.8809,-37.1137,-1.44531,1014.42
29054,-0.315638,9.7274,1.07604,0.28,-0.07,-0.35,-31.4251,-37.2584,-0.892406,1014.42
29060,-0.329986,9.75131,1.11908,0.28,-0.14,-0.28,-31.1673,-36.8821,-2.56531,1014.42
29066,-0.349115,9.7274,1.0856,1.05,-0.07,-0.35,-30.9954,-37.6924,-1.36025,1014.42
29072,-0.363462,9.76566,1.06648,0.91,0,-0.21,-30.5371,-36.7953,-0.793166,1014.42
29078,-0.334768,9.76088,1.04735,0.49,0.21,-0.49,-30.9668,-36.7664,-1.96987,1014.42
29084,-0.382592,9.78479,1.02822,0.84,0.42,-0.49,-31.0241,-37.2294,-1.5162,1014.42
29090,-0.387374,9.77523,1.04256,0.28,0.42,-0.42,-31.1673,-36.9111,-0.793166,1014.42
29096,-0.382592,9.8087,1.02822,0.56,-0.14,-0.07,-31.7116,-37.0268,-1.58709,1014.42
29102,-0.368245,9.76566,1.06648,0.21,-0.07,-0.21,-30.8522,-37.403,-0.410383,1014.42
29108,-0.382592,9.76088,1.05213,0.21,-0.49,-0.56,-31.2533,-37.1715,-2.18253,1014.46
29114,-0.406504,9.7561,1.09517,0.49,0.21,-0.28,-31.196,-37.1426,-1.40278,1014.46
29120,-0.430416,9.80392,1.033,0.35,-0.42,-0.21,-31.5397,-36.3902,-1.53038,1014.44
29126,-0.401722,9.84696,1.01387,0.07,0.14,0.21,-31.0527,-37.432,-0.906583,1014.44
29132,-0.33955,9.77044,1.0856,0.14,0.07,0,-31.0241,-37.5767,-1.99822,1014.44
29138,-0.353898,9.77044,1.06648,0.42,0.21,-0.21,-31.0241,-37.2294,-1.14759,1014.45
29144,-0.368245,9.7561,1.0856,0.63,-0.49,-0.42,-30.5371,-37.8661,-1.13342,1014.45
29150,-0.344333,9.75131,1.07126,0.28,-0.35,-0.07,-30.4512,-37.3741,-1.78557,1014.42
29156,-0.35868,9.7561,1.09995,0.42,-0.21,-0.49,-30.9095,-37.3452,-1.06253,1014.42
29162,-0.368245,9.75131,1.0856,0.28,-0.21,-0.7,-31.683,-37.0847,-0.778989,1014.42
29168,-0.35868,9.73218,1.08082,0.42,0.28,-0.56,-30.6803,-36.3323,-0.594686,1014.42
29174,-0.320421,9.76566,1.05213,-0.07,0.14,-0.42,-30.709,-37.0847,-0.72228,1014.44
29180,-0.392157,9.77523,1.06169,0.56,0,-0.42,-31.2246,-36.9979,-1.74303,1014.44
29186,-0.406504,9.82305,1.03778,0.49,-0.7,-0.56,-31.0814,-37.5477,-0.240257,1014.44
29192,-0.401722,9.80392,1.03778,0.07,-0.35,-0.28,-30.8522,-37.6635,-0.0134229,1014.44
29198,-0.382592,9.8087,1.01865,-0.42,-0.35,-0.35,-31.1673,-36.94,-1.27519,1014.41
29204,-0.420851,9.77044,1.0856,-0.14,0.28,-0.42,-31.0814,-36.969,-1.16177,1014.41
29210,-0.401722,9.77044,1.05691,0.07,-0.07,-0.14,-30.709,-37.2873,-1.94151,1014.43
29216,-0.416069,9.78001,1.06648,-0.7,0.28,-0.35,-31.0241,-38.5895,-2.90556,1014.43
29222,-0.349115,9.78001,1.09517,0,-0.49,0,-30.6803,-37.403,-1.8281,1014.43
29228,-0.368245,9.7561,1.08082,0,-0.28,-0.07,-30.6803,-37.2005,-1.38861,1014.47
29234,-0.416069,9.74653,1.09517,0.28,-0.21,-0.14,-31.0241,-37.2873,-0.778989,1014.47
29240,-0.392157,9.74653,1.09039,0.14,0.35,-0.14,-31.1673,-37.3162,-1.57291,1014.41
29246,-0.373027,9.73218,1.09517,0.21,0,-0.14,-30.8809,-37.0558,-1.68633,1014.41
29252,-0.387374,9.75131,1.09517,0.42,0.49,-0.07,-30.8236,-36.6506,-1.7005,1014.42
29258,-0.35868,9.76088,1.07126,0.35,-0.14,-0.35,-30.5944,-37.3162,-1.21848,1014.42
29264,-0.35868,9.74175,1.07126,0.77,0.14,0,-31.3679,-37.2873,-1.84227,1014.43
29270,-0.368245,9.74653,1.09995,0.56,-0.77,-0.42,-30.3366,-36.7664,-1.7005,1014.43
29276,-0.35868,9.73218,1.09039,0.35,-0.49,-0.56,-30.1647,-36.94,-1.43114,1014.45
29282,-0.373027,9.7561,1.0856,1.05,-0.28,-0.14,-30.3366,-36.969,-1.09089,1014.45
29288,-0.392157,9.8087,1.06169,0.42,0,-0.63,-30.6517,-37.432,-1.88481,1014.4
29294,-0.363462,9.81349,1.02822,0.28,0,-0.63,-30.6803,-37.0847,-1.24683,1014.4
29300,-0.373027,9.78479,1.02822,0.35,-0.21,-0.63,-30.3652,-37.5767,-1.36025,1014.4
29306,-0.392157,9.82783,1.04256,0.35,-0.07,-0.77,-30.9095,-36.8821,-1.5162,1014.45
29312,-0.416069,9.77523,1.03778,0.21,0.07,0,-30.9668,-36.8243,-1.75721,1014.45
29318,-0.368245,9.81827,1.07604,-0.21,0.14,-0.21,-31.9694,-37.3162,-2.08329,1014.41
29324,-0.382592,9.78479,1.09039,0.49,-0.21,-0.49,-31.5111,-37.0558,-1.99822,1014.41
29330,-0.387374,9.77523,1.0856,0.07,-0.28,0.14,-31.4824,-37.1137,-1.11924,1014.41
29336,-0.382592,9.75131,1.09995,0.14,-0.49,-0.35,-30.9954,-37.0268,-1.94151,1014.41
29342,-0.387374,9.74653,1.13343,0.14,0.35,-0.35,-31.0527,-36.969,-0.835697,1014.39
29348,-0.37781,9.79914,1.05691,0.56,-0.07,-0.07,-31.4251,-37.2294,-0.82152,1014.39
29354,-0.401722,9.7561,1.08082,0.35,-0.14,-0.49,-31.11,-37.6924,-1.5162,1014.4
29360,-0.349115,9.71784,1.09995,0.63,0.35,0,-30.9954,-37.2005,-0.892406,1014.4
29366,-0.387374,9.78957,1.04256,0.63,-0.21,-0.42,-30.9954,-37.5767,-0.240257,1014.43
29372,-0.425634,9.8087,1.02343,0.28,-0.07,-0.42,-30.7376,-37.0268,-1.2043,1014.43
29378,-0.373027,9.82783,0.97561,0.35,0,-0.14,-31.3965,-37.5188,-1.30354,1014.43
29384,-0.411286,9.79914,1.05691,-0.28,-0.14,0.14,-30.7663,-36.969,-0.963291,1014.42
29390,-0.392157,9.76566,1.07126,0.07,0.07,-0.07,-31.1673,-36.969,-0.651394,1014.42
29396,-0.368245,9.78957,1.08082,-0.21,-0.21,-0.14,-31.11,-37.3162,-1.02,1014.4
29402,-0.387374,9.78001,1.07604,0.21,0,0.07,-31.5397,-37.0558,-0.382029,1014.4
29408,-0.382592,9.79436,1.03778,-0.21,0.21,-0.35,-31.0527,-36.9979,-1.81392,1014.42
29414,-0.368245,9.77523,1.0856,-0.07,-0.21,0.21,-31.3392,-37.0558,-1.36025,1014.42
29420,-0.425634,9.8087,1.06169,0,-0.28,0.49,-31.5684,-37.0558,-1.43114,1014.43
29426,-0.420851,9.77044,1.09039,0.49,-0.28,0.14,-31.1387,-36.5349,-1.57291,1014.43
29432,-0.382592,9.74653,1.10473,0.21,-0.35,0.21,-30.9382,-37.3452,-1.19013,1014.42
29438,-0.35868,9.71305,1.10473,0.07,-0.42,0,-31.3106,-36.6796,-1.06253,1014.42
29444,-0.37781,9.75131,1.12865,0.91,-0.14,0.14,-31.1387,-36.9979,-0.62304,1014.41
29450,-0.368245,9.74653,1.10952,0.63,-0.42,0.07,-31.597,-36.6506,-0.0134229,1014.41
29456,-0.334768,9.7274,1.12865,0.56,-0.21,-0.49,-30.8809,-37.403,-2.09746,1014.46
29462,-0.325203,9.73697,1.09995,0.91,-0.35,0,-31.2819,-36.3612,-1.40278,1014.46
29468,-0.373027,9.73218,1.08082,0.84,-0.14,-0.28,-31.0241,-37.1426,-0.566332,1014.46
29474,-0.349115,9.76566,1.06648,0.28,0.07,-0.63,-31.3106,-36.4481,-0.835697,1014.43
29480,-0.401722,9.74653,1.05213,0.77,-0.28,-0.63,-29.8782,-36.9111,-0.82152,1014.43
29486,-0.373027,9.79436,1.06169,0.77,-0.14,-0.42,-30.9954,-37.2294,-1.30354,1014.45
29492,-0.387374,9.79436,1.03778,0.35,-0.07,-0.28,-30.2793,-36.8821,-0.693926,1014.45
29498,-0.382592,9.81827,1.02822,0.42,-0.21,-0.21,-30.3939,-36.8532,-1.3319,1014.4
29504,-0.37781,9.78001,1.0043,0.21,-0.14,-0.49,-30.5657,-37.432,-1.43114,1014.4
29510,-0.401722,9.8087,1.04256,0.14,-0.42,-0.07,-30.8236,-37.0558,-1.57291,1014.4
29516,-0.363462,9.78001,1.05691,-0.35,-0.42,-0.35,-31.7689,-37.1137,-1.38861,1014.4
29522,-0.37781,9.76566,1.06648,0,0.35,-0.07,-30.7376,-36.5638,-1.79974,1014.38
29528,-0.406504,9.73697,1.10952,0.63,-0.21,-0.21,-30.709,-37.1426,-1.91316,1014.38
29534,-0.325203,9.7561,1.06648,-0.14,0.07,-0.35,-31.3965,-37.7503,-1.48785,1014.44
29540,-0.37781,9.78001,1.0856,-0.21,-0.07,-0.42,-30.9382,-37.3741,-1.09089,1014.44
29546,-0.353898,9.74653,1.11908,0.63,-0.21,0.07,-31.3965,-36.7374,-0.793166,1014.44
29552,-0.363462,9.7561,1.08082,0.28,-0.35,-0.28,-30.9954,-37.2584,-1.84227,1014.45
29558,-0.37781,9.75131,1.0856,0.14,0,-0.07,-31.5111,-37.3162,-1.67215,1014.45
29564,-0.353898,9.77044,1.09995,0.56,0.7,0.21,-31.0241,-36.6796,-1.44531,1014.41
29570,-0.396939,9.7561,1.0856,0.77,0.21,-0.21,-31.1673,-35.8982,-1.79974,1014.41
29576,-0.363462,9.77523,1.08082,0.49,0.49,0,-31.196,-37.2873,-1.45949,1014.39
29582,-0.349115,9.73697,1.07604,0.35,-0.14,-0.21,-30.6517,-37.0847,-2.13999,1014.39
29588,-0.344333,9.74653,1.08082,0.35,0,-0.35,-30.5371,-36.6217,-1.10506,1014.43
29594,-0.401722,9.78957,1.06169,0.63,-0.35,0.14,-31.1387,-37.0558,-1.71468,1014.43
29600,-0.382592,9.78001,1.07126,0.35,0.21,-0.14,-31.0241,-36.94,-2.67873,1014.39
29606,-0.396939,9.78479,1.04256,0.28,-0.42,-0.14,-30.6803,-36.7374,-1.60126,1014.39
29612,-0.353898,9.79914,1.04735,0.56,0.28,-0.21,-30.9954,-37.3162,-0.467091,1014.41
29618,-0.401722,9.79914,1.06169,0.14,0,-0.14,-30.6517,-37.2584,-0.637217,1014.41
29624,-0.392157,9.78479,1.06648,0.14,-0.35,0.07,-30.7663,-37.6924,-1.55873,1014.41
29630,-0.406504,9.81349,1.04735,0.49,-0.42,0,-30.0501,-37.0558,-1.54455,1014.42
29636,-0.373027,9.77044,1.10952,0.35,0.21,-0.28,-30.8809,-37.0558,-1.04835,1014.42
29642,-0.37781,9.73697,1.11908,0.07,-0.07,0.07,-31.1387,-37.6635,-1.2043,1014.4
29648,-0.37781,9.7561,1.09039,0.21,0.35,-0.28,-31.6543,-37.5188,-1.17595,1014.4
29654,-0.396939,9.73697,1.09995,0.35,-0.21,-0.21,-30.8809,-37.0558,-2.43771,1014.44
29660,-0.37781,9.73218,1.08082,0.56,-0.07,0,-30.9382,-37.6346,-0.651394,1014.44
29666,-0.325203,9.75131,1.08082,0.42,-0.42,-0.28,-30.4798,-37.2294,-0.835697,1014.44
29672,-0.33955,9.74653,1.1143,0.98,0,-0.14,-30.7949,-37.3162,0.36936,1014.44
29678,-0.396939,9.75131,1.07126,0.77,-0.21,-0.42,-30.1933,-36.969,-1.09089,1014.41
29684,-0.382592,9.77044,1.07126,0.21,0,-0.49,-30.7376,-37.1426,-1.30354,1014.41
29690,-0.344333,9.73697,1.06648,0.77,-0.21,-0.21,-31.2246,-36.8821,-0.991646,1014.43
29696,-0.392157,9.78479,1.033,0.42,0.28,-0.28,-30.623,-37.1426,-0.296966,1014.43
29702,-0.406504,9.78957,1.04735,0.35,-0.35,-0.14,-30.2793,-37.3452,-1.40278,1014.4
29708,-0.35868,9.79914,1.07126,0.35,0.14,-0.28,-31.5684,-37.4899,-0.62304,1014.4
29714,-0.373027,9.79436,1.06648,0.35,-0.42,-0.21,-31.3392,-37.6346,-1.2043,1014.4
29720,-0.373027,9.79436,1.05691,0.21,0.35,-0.21,-31.2533,-36.7664,-1.43114,1014.4
29726,-0.420851,9.76566,1.07604,0.07,-0.07,-0.21,-32.5424,-38.2712,-1.21848,1014.4
29732,-0.396939,9.75131,1.07604,0.7,0.21,-0.42,-30.8236,-37.3741,-0.991646,1014.43
29738,-0.387374,9.76088,1.06169,0.42,0.35,0,-30.9954,-37.6635,-1.74303,1014.43
29744,-0.382592,9.76088,1.10473,0.07,0.14,-0.28,-30.6517,-36.6506,-1.92734,1014.44
29750,-0.368245,9.76566,1.09995,0.63,0.14,-0.14,-30.5371,-37.5477,-0.849874,1014.44
29756,-0.411286,9.76088,1.09517,0.98,-0.28,0,-31.0814,-37.5188,-1.38861,1014.48
29762,-0.411286,9.77523,1.06169,0.42,0.07,-0.28,-31.1387,-37.8082,-1.78557,1014.48
29768,-0.406504,9.77044,1.06648,0.7,0,0,-31.1387,-37.2005,-0.467091,1014.44
29774,-0.401722,9.77523,1.033,0.35,0.21,-0.21,-31.5684,-37.3741,-0.608863,1014.44
29780,-0.37781,9.76088,1.1143,0.42,-0.28,-0.21,-30.7376,-36.9979,-1.07671,1014.4
29786,-0.368245,9.74653,1.11908,0.7,-0.14,0.14,-30.9095,-37.6056,-0.566332,1014.4
29792,-0.37781,9.77523,1.07126,0.35,0.14,0.14,-30.8236,-37.1715,-1.10506,1014.4
29798,-0.373027,9.73697,1.07126,0.56,-0.42,-0.07,-31.597,-37.8661,-0.963291,1014.44
29804,-0.382592,9.76088,1.08082,0.91,-0.07,-0.07,-31.683,-37.6346,-1.38861,1014.44
29810,-0.37781,9.76566,1.05213,0.84,-0.21,0.07,-30.7663,-37.1137,-1.64379,1014.44
29816,-0.387374,9.78001,1.05213,0.56,-0.07,0.07,-31.4251,-37.3162,-1.02,1014.44
29822,-0.382592,9.78479,1.07126,0.07,-0.14,-0.07,-30.6517,-37.3741,-1.95569,1014.4
29828,-0.387374,9.77044,1.04256,0.07,0,0.28,-31.8548,-38.0976,-3.08986,1014.4
29834,-0.363462,9.76566,1.08082,0.07,0.07,-0.07,-31.0241,-37.6346,-0.62304,1014.4
29840,-0.387374,9.76566,1.06648,0.07,0.07,0.07,-30.3079,-36.94,0.312651,1014.4
29846,-0.411286,9.75131,1.06648,0.14,0,0.07,-30.8809,-36.7374,-1.8281,1014.41
29852,-0.363462,9.73218,1.09039,0.42,0.35,0.21,-30.5085,-36.7664,-1.75721,1014.41
29858,-0.363462,9.73218,1.1143,-0.07,0,0.14,-30.9095,-37.2584,-0.537977,1014.43
29864,-0.396939,9.78001,1.08082,0.21,0.28,0.28,-30.6517,-37.1715,-0.934937,1014.43
