Timestamp,AccX,AccY,AccZ,AngularVelX,AngularVelY,AngularVelZ,MagX,MagY,MagZ,AirPressure
565052,-0.483022,9.75131,1.21473,0.35,0.49,-0.21,27.415,-39.6892,-3.04733,1014.4
565058,-0.487805,9.77523,1.1956,0.35,0.35,-0.28,27.0999,-39.2841,-3.54353,1014.47
565064,-0.492587,9.74653,1.21473,0.77,0.07,-0.21,26.8707,-38.1555,-3.0048,1014.47
565070,-0.516499,9.77044,1.1956,0.28,0,-0.21,27.415,-38.3291,-2.89138,1014.42
565076,-0.545194,9.82783,1.17169,0.42,-0.42,0.49,26.6702,-39.6603,-1.95569,1014.42
565082,-0.559541,9.82305,1.21473,0.28,0,0.42,27.7587,-38.0976,-3.67113,1014.44
565088,-0.549976,9.77044,1.26255,-0.35,0.28,0.77,27.0999,-38.3001,-3.1891,1014.44
565094,-0.483022,9.73697,1.24342,0.14,0,0.7,27.1285,-39.5735,-4.35163,1014.44
565100,-0.430416,9.71784,1.26255,0.21,-0.49,0.42,27.0712,-39.6892,-4.02555,1014.44
565106,-0.416069,9.71784,1.26255,0.56,0.07,0.28,27.329,-38.6185,-2.18253,1014.44
565112,-0.506934,9.73697,1.26734,0.14,-0.35,0.77,27.2717,-39.6313,-2.21088,1014.45
565118,-0.401722,9.71305,1.25299,0.35,0.35,0.14,26.842,-40.268,-1.96987,1014.45
565124,-0.430416,9.74175,1.21473,-0.07,0.28,0.42,27.3577,-39.1104,-3.1891,1014.43
565130,-0.430416,9.75131,1.21951,0.21,0.14,0.42,26.928,-38.9079,-3.16075,1014.43
565136,-0.430416,9.73697,1.23864,-0.14,-0.14,0,26.3837,-39.776,-2.33847,1014.44
565142,-0.435198,9.74653,1.20038,-0.07,0.21,0.14,26.7561,-39.1394,-3.55771,1014.44
565148,-0.444763,9.74175,1.21473,-0.49,0,0,27.0999,-38.9368,-3.45847,1014.43
565154,-0.49737,9.69871,1.29125,0,0.28,0.07,26.5842,-39.776,-3.501,1014.43
565160,-0.473458,9.77044,1.23386,0.21,0.7,0.07,26.928,-40.2101,-2.57949,1014.45
565166,-0.516499,9.74175,1.25299,-0.21,0.63,0.07,27.3004,-39.3998,-3.95467,1014.45
565172,-0.449546,9.74175,1.24342,0.21,0.42,0,26.7847,-39.776,-3.16075,1014.45
565178,-0.49737,9.76088,1.21951,-0.21,-0.14,0.14,27.0139,-40.4995,-2.22506,1014.43
565184,-0.540411,9.77044,1.26734,-0.28,0,0.07,28.1025,-39.313,-3.77037,1014.43
565190,-0.526064,9.76566,1.26734,-0.28,-0.21,0.28,26.8134,-39.4577,-4.33745,1014.41
565196,-0.506934,9.76088,1.23864,0.21,0.07,0.63,25.868,-40.1522,-3.0048,1014.41
565202,-0.483022,9.77523,1.23864,0,-0.49,0.42,26.7274,-38.9079,-2.76379,1014.45
565208,-0.45911,9.69871,1.25777,0.07,-0.28,0.42,27.0999,-37.8082,-2.70708,1014.45
565214,-0.396939,9.71305,1.26734,0,0.28,0.21,27.3863,-39.3709,-1.91316,1014.42
565220,-0.473458,9.72262,1.26255,0.63,0.21,0.35,27.5868,-39.4577,-4.20986,1014.42
565226,-0.444763,9.71784,1.23864,0.49,0.42,0.14,27.0426,-38.5317,-3.24581,1014.44
565232,-0.463893,9.7274,1.24342,0.21,-0.35,0.21,26.4696,-38.7053,-2.53695,1014.44
565238,-0.425634,9.73218,1.24821,0.49,0,0.14,27.3004,-39.6024,-3.58606,1014.4
565244,-0.47824,9.74175,1.22908,0.63,-0.21,0.14,27.2144,-38.85,-3.06151,1014.4
565250,-0.425634,9.75131,1.24821,0.56,0.28,0.14,27.1571,-39.0815,-4.29492,1014.41
565256,-0.420851,9.74175,1.21951,0.28,0.21,0.56,27.0999,-40.0075,-2.72126,1014.41
565262,-0.487805,9.73697,1.23864,0.28,0.28,0.42,26.6702,-38.4738,-3.47265,1014.41
565268,-0.425634,9.74175,1.23386,0.21,0.21,0.07,27.6441,-38.6764,-3.51518,1014.43
565274,-0.463893,9.77044,1.1956,-0.21,0.56,0.35,26.6702,-39.9207,-3.60024,1014.43
565280,-0.47824,9.75131,1.21951,0,0.28,0.21,26.9853,-39.0526,-4.72023,1014.43
565286,-0.454328,9.72262,1.25299,0.14,0.14,0.42,26.8134,-38.7342,-4.02555,1014.43
565292,-0.483022,9.76566,1.27212,-0.14,0.42,0.35,27.6155,-39.5735,-3.37341,1014.42
565298,-0.521282,9.73218,1.28168,0.21,0.14,0.35,26.8993,-39.8918,-3.28834,1014.42
565304,-0.430416,9.75131,1.21473,-0.49,-0.07,0.42,27.329,-39.0815,-3.8129,1014.44
565310,-0.487805,9.73218,1.24821,0,-0.14,0.28,27.5295,-38.6185,-3.89796,1014.44
565316,-0.473458,9.73697,1.25299,0.21,-0.07,0.14,27.2431,-39.1683,-3.69948,1014.43
565322,-0.473458,9.73697,1.2769,-0.07,0.49,0.42,26.5269,-38.9368,-3.24581,1014.43
565328,-0.468675,9.74653,1.26255,0.07,-0.21,0.63,27.5582,-38.1555,-3.45847,1014.45
565334,-0.420851,9.70827,1.28647,0,0.28,-0.07,27.2144,-39.4577,-3.07569,1014.45
565340,-0.45911,9.69871,1.30081,0.42,-0.21,0.28,27.2431,-39.4577,-2.80632,1014.45
565346,-0.454328,9.72262,1.26734,0.42,0,0.21,26.9566,-38.9657,-4.23821,1014.46
565352,-0.483022,9.73697,1.25777,0.63,-0.35,-0.07,27.3863,-39.5156,-3.23163,1014.46
565358,-0.492587,9.73697,1.23386,0.28,0,0.07,26.3837,-40.4416,-3.35923,1014.42
565364,-0.511717,9.8374,1.20995,0.56,-0.07,0.49,26.5842,-39.342,-3.72783,1014.42
565370,-0.492587,9.81349,1.16212,0.07,-0.07,0.35,26.2977,-38.4448,-2.77797,1014.47
565376,-0.439981,9.76566,1.20995,0,-0.49,0.77,26.2118,-40.1522,-4.09644,1014.47
565382,-0.492587,9.76566,1.24821,-0.49,-0.56,0.28,26.6702,-39.342,-3.85543,1014.41
565388,-0.463893,9.74175,1.23864,-0.07,-0.28,0.56,27.0426,-38.3001,-3.60024,1014.41
565394,-0.444763,9.71784,1.23386,0.35,0,0.49,26.3264,-39.8629,-3.21746,1014.43
565400,-0.425634,9.7274,1.21951,-0.21,0,0.42,26.8707,-39.6024,-3.88378,1014.43
565406,-0.425634,9.69871,1.28647,-0.14,0.07,0.07,27.0712,-39.0526,-4.11062,1014.42
565412,-0.425634,9.70349,1.25777,-0.07,-0.42,-0.07,27.2431,-39.313,-4.39416,1014.42
565418,-0.392157,9.69871,1.26734,0.35,-0.07,0.07,26.2405,-39.6024,-3.501,1014.42
565424,-0.411286,9.70349,1.28647,0.56,-0.42,0,26.7274,-38.7632,-3.20328,1014.41
565430,-0.435198,9.71784,1.25777,0.28,0.07,-0.14,27.5009,-38.5895,-3.51518,1014.41
565436,-0.506934,9.71305,1.27212,0.35,0,-0.21,26.2118,-40.0365,-4.35163,1014.43
565442,-0.47824,9.73697,1.23864,0.28,0.14,0,27.0712,-39.776,-3.9972,1014.43
565448,-0.47824,9.76566,1.23386,0.42,0.21,0.14,26.3264,-38.7921,-4.37998,1014.44
565454,-0.439981,9.72262,1.26734,0.49,0,-0.28,26.7847,-39.9207,-4.69188,1014.44
565460,-0.449546,9.70349,1.29603,0.56,-0.07,-0.14,26.4983,-39.5156,-4.08226,1014.44
565466,-0.521282,9.79914,1.24821,0.21,-0.42,0.35,26.928,-38.8789,-4.29492,1014.44
565472,-0.526064,9.77044,1.24342,0.63,-0.28,0,26.7847,-38.9079,-4.45087,1014.43
565478,-0.411286,9.78001,1.25777,0.21,-0.21,0,26.6702,-40.268,-3.24581,1014.43
565484,-0.363462,9.73218,1.23864,0.28,0.07,0.35,27.2144,-39.1104,-4.20986,1014.43
565490,-0.406504,9.76088,1.24342,0.84,0.21,0.07,26.1545,-38.4448,-4.22403,1014.43
565496,-0.439981,9.74653,1.22908,0.42,-0.14,0.07,26.6415,-39.4866,-2.84885,1014.4
565502,-0.473458,9.77523,1.22908,0.28,-0.14,0.35,26.6988,-39.7471,-4.12479,1014.4
565508,-0.420851,9.73697,1.22908,0.14,-0.28,-0.21,26.2977,-38.8211,-4.59264,1014.4
565514,-0.401722,9.72262,1.25299,0.42,-0.21,-0.21,26.3264,-39.6603,-3.35923,1014.42
565520,-0.468675,9.70349,1.29125,0.77,-0.07,-0.14,26.355,-40.2391,-2.96227,1014.42
565526,-0.45911,9.71305,1.27212,0.28,-0.21,-0.35,26.5269,-38.7921,-4.39416,1014.46
565532,-0.47824,9.70349,1.26255,0.14,0.63,0.14,26.7274,-39.2551,-3.501,1014.46
565538,-0.454328,9.69871,1.29125,0.91,0.14,-0.49,26.2118,-40.0365,-3.45847,1014.42
565544,-0.468675,9.69871,1.30081,0.63,0.49,-0.28,26.6988,-39.4288,-4.05391,1014.42
565550,-0.554758,9.79436,1.22908,0.63,0.21,-0.07,27.3004,-38.8211,-3.27417,1014.4
565556,-0.526064,9.82305,1.21473,0.63,-0.84,-0.21,26.3837,-39.805,-2.55113,1014.4
565562,-0.521282,9.81349,1.20516,0.7,-0.49,0.56,26.6129,-39.7182,-3.44429,1014.42
565568,-0.487805,9.78957,1.22429,0.28,-0.35,0.49,26.8134,-38.9657,-3.85543,1014.42
565574,-0.425634,9.79914,1.20516,0.21,-0.28,0.49,26.928,-39.3709,-3.6853,1014.41
565580,-0.439981,9.77523,1.20516,-0.28,0.21,0.7,27.1858,-39.8339,-3.45847,1014.41
565586,-0.473458,9.71305,1.26255,-0.07,-0.21,0.28,26.9853,-38.5895,-4.08226,1014.41
565592,-0.420851,9.72262,1.28168,-0.28,0,0.42,27.0999,-39.4577,-2.11164,1014.42
565598,-0.392157,9.68914,1.2769,0.56,0.28,0.21,26.5842,-40.0654,-3.67113,1014.42
565604,-0.420851,9.71305,1.24821,0.42,0.21,0.28,27.0712,-38.8789,-3.48682,1014.44
565610,-0.396939,9.68436,1.2769,0.49,-0.28,-0.07,26.5842,-38.7921,-2.99062,1014.44
565616,-0.420851,9.71784,1.27212,0.42,0.49,-0.07,26.928,-39.9497,-3.03315,1014.44
565622,-0.444763,9.70349,1.26734,0.91,-0.28,-0.21,26.2691,-39.6024,-2.62202,1014.44
565628,-0.435198,9.70827,1.26734,0.14,0,-0.28,26.6988,-39.342,-3.27417,1014.43
565634,-0.444763,9.73218,1.24821,1.33,-0.63,-0.35,27.2431,-39.8918,-3.10404,1014.43
565640,-0.439981,9.72262,1.27212,1.12,-0.14,-0.49,26.2977,-39.805,-3.10404,1014.44
565646,-0.49737,9.78479,1.22908,0.28,0.14,-0.77,25.8967,-39.0526,-3.20328,1014.44
565652,-0.468675,9.66523,1.36298,1.33,0.28,-0.14,26.5842,-39.0526,-3.07569,1014.43
565658,-0.439981,9.75131,1.23864,0.98,0.14,-0.49,26.5556,-40.5285,-3.3167,1014.43
565664,-0.47824,9.75131,1.23864,0.42,-0.49,-0.35,26.8707,-38.7342,-2.99062,1014.43
565670,-0.487805,9.78479,1.24342,0.91,-0.21,-0.14,25.7821,-38.7053,-1.91316,1014.42
565676,-0.468675,9.82305,1.1956,0.49,-0.49,0.07,25.5243,-40.3259,-2.86303,1014.42
565682,-0.439981,9.73697,1.24342,0.21,-0.07,0.21,26.928,-39.3709,-2.77797,1014.45
565688,-0.449546,9.73218,1.24821,0.14,-0.49,-0.14,25.8967,-38.1265,-3.84125,1014.45
565694,-0.430416,9.72262,1.26255,0.42,-0.21,-0.28,26.2977,-40.5285,-3.17493,1014.42
565700,-0.463893,9.72262,1.28168,0.21,0.28,0.14,26.4123,-39.3709,-2.28177,1014.42
565706,-0.420851,9.71305,1.26734,0.21,0,0.07,26.8993,-38.2133,-3.58606,1014.43
565712,-0.416069,9.72262,1.29125,0.84,0.07,0.07,27.2717,-39.5156,-3.69948,1014.43
565718,-0.425634,9.69871,1.27212,1.12,-0.49,-0.35,26.5269,-40.4416,-2.91974,1014.45
565724,-0.444763,9.69392,1.31516,0.14,0.21,-0.28,26.441,-38.85,-2.56531,1014.45
565730,-0.420851,9.68914,1.26255,1.05,-0.28,-0.35,26.6702,-38.358,-3.41594,1014.44
565736,-0.454328,9.68436,1.3056,0.91,-0.63,-0.42,26.9853,-40.3548,-3.14657,1014.44
565742,-0.439981,9.70827,1.28168,1.26,-0.63,-0.56,26.4983,-39.2841,-3.37341,1014.44
565748,-0.444763,9.76088,1.24821,1.12,-0.63,-0.35,26.355,-38.9657,-3.501,1014.44
565754,-0.502152,9.78479,1.21473,1.33,-0.07,0.07,26.6702,-39.805,-3.92631,1014.44
565760,-0.483022,9.77523,1.20995,1.12,-0.49,-0.07,26.3837,-40.3259,-2.62202,1014.44
565766,-0.487805,9.80392,1.19082,0.63,-0.28,0,26.6702,-38.9079,-3.52935,1014.44
565772,-0.487805,9.81349,1.20995,0.42,-0.21,0.21,26.441,-39.8918,-2.89138,1014.43
565778,-0.435198,9.81827,1.18125,0.28,-0.42,0.21,26.2118,-41.3387,-2.76379,1014.43
565784,-0.473458,9.73218,1.23386,0.35,-0.14,0.35,26.842,-39.4577,-3.52935,1014.42
565790,-0.425634,9.7274,1.29125,0,-0.42,0.14,26.2691,-39.2551,-3.9972,1014.42
565796,-0.420851,9.71784,1.26734,0.63,-0.35,0.21,27.1571,-40.4416,-2.97645,1014.42
565802,-0.37781,9.73218,1.24821,0.07,0.07,0.21,27.2717,-39.8918,-3.04733,1014.42
565808,-0.439981,9.70349,1.26734,-0.21,-0.42,-0.21,26.1545,-38.5606,-3.03315,1014.45
565814,-0.406504,9.72262,1.27212,0.84,0.07,-0.07,26.441,-39.7182,-2.52278,1014.45
565820,-0.444763,9.68914,1.29603,0.7,-0.35,-0.35,26.5269,-40.6153,-3.71366,1014.42
565826,-0.406504,9.69871,1.30081,0.84,-0.07,-0.49,27.3004,-39.1683,-3.88378,1014.42
565832,-0.435198,9.69392,1.3056,1.12,-0.14,-0.14,27.1571,-39.5445,-3.33087,1014.42
565838,-0.487805,9.72262,1.28168,1.19,-0.07,-0.14,26.6415,-40.7889,-3.1891,1014.43
565844,-0.411286,9.71784,1.25299,0.98,-0.42,-0.7,26.2691,-39.3709,-3.23163,1014.43
565850,-0.444763,9.71784,1.26734,1.12,-0.07,-0.77,26.5556,-39.805,-2.99062,1014.45
565856,-0.435198,9.73218,1.25299,1.05,-0.28,-0.77,26.7847,-40.9336,-3.11822,1014.45
565862,-0.45911,9.73218,1.24342,1.47,-0.35,-0.91,26.5842,-39.9786,-3.77037,1014.41
565868,-0.454328,9.81349,1.18604,1.05,-0.42,-0.42,26.1259,-38.6764,-4.12479,1014.41
565874,-0.468675,9.83261,1.17647,0.91,0.14,-0.35,26.355,-39.5445,-3.14657,1014.42
565880,-0.483022,9.79914,1.14299,0.63,0.14,0.07,26.7274,-39.6313,-3.58606,1014.42
565886,-0.45911,9.79914,1.17169,0.07,-0.07,-0.28,26.8134,-38.5895,-4.59264,1014.39
565892,-0.411286,9.77044,1.24342,0.07,0.07,0.14,26.8134,-39.4577,-3.35923,1014.39
565898,-0.449546,9.76566,1.21951,0.49,-0.14,-0.07,25.8967,-39.776,-4.08226,1014.38
565904,-0.483022,9.7561,1.23386,0.14,-0.21,0.14,27.0999,-38.6764,-3.78454,1014.38
565910,-0.396939,9.73697,1.25299,0.28,0,0.21,26.8993,-38.9657,-3.71366,1014.42
565916,-0.411286,9.70349,1.27212,0.56,-0.14,0.14,27.2717,-40.1522,-3.55771,1014.42
565922,-0.45911,9.67958,1.32472,0.91,0.14,-0.28,26.5842,-39.7182,-3.60024,1014.42
565928,-0.463893,9.73697,1.24821,0.49,-0.07,-0.21,26.441,-38.3291,-4.42251,1014.43
565934,-0.444763,9.73697,1.25299,0.56,0,0.07,27.5009,-40.0365,-3.9972,1014.43
565940,-0.439981,9.73697,1.23386,1.05,-0.56,-0.21,26.7847,-39.9786,-3.13239,1014.41
565946,-0.45911,9.73218,1.24342,0.98,0.28,-0.07,25.954,-38.3001,-3.44429,1014.41
565952,-0.449546,9.71305,1.2769,0.98,0.49,-0.14,27.0712,-39.2841,-1.89898,1014.45
565958,-0.487805,9.78957,1.20995,0.63,0,-0.14,25.6102,-40.0654,-3.23163,1014.45
565964,-0.506934,9.75131,1.21473,0.77,0.21,0.07,26.7274,-38.8789,-3.48682,1014.44
565970,-0.411286,9.78001,1.21473,1.33,-0.28,-0.07,26.8707,-37.5767,-3.501,1014.44
565976,-0.463893,9.76088,1.21473,0.7,-0.14,0,26.355,-40.0944,-2.55113,1014.44
565982,-0.468675,9.81827,1.16691,0.42,-0.14,0.63,25.954,-39.0526,-3.10404,1014.44
565988,-0.49737,9.78957,1.20038,0.21,-0.21,0.35,27.2717,-38.6764,-3.1891,1014.45
565994,-0.435198,9.79436,1.20038,-0.07,-0.42,0.21,26.8707,-39.5735,-4.40834,1014.45
566000,-0.406504,9.73218,1.22429,0,-0.14,0.42,27.0139,-40.1522,-4.01138,1014.45
566006,-0.420851,9.71784,1.2769,0.35,-0.21,0.42,26.0972,-38.9368,-4.22403,1014.41
566012,-0.463893,9.76088,1.25299,-0.35,0.07,0.63,25.9826,-39.7471,-3.8129,1014.41
566018,-0.454328,9.7274,1.26734,0.14,-0.35,0.84,26.0399,-40.3838,-3.01898,1014.47
566024,-0.382592,9.71784,1.20516,0,0.14,0.21,26.355,-38.7053,-3.77037,1014.47
566030,-0.406504,9.69871,1.27212,0.42,-0.56,0.7,26.6129,-39.0526,-3.72783,1014.46
566036,-0.392157,9.68914,1.3056,0.35,0.21,0.49,26.8134,-40.3548,-2.21088,1014.46
566042,-0.425634,9.70827,1.28647,0.07,-0.14,0,27.3863,-39.6313,-2.84885,1014.42
566048,-0.416069,9.6748,1.2769,0.77,0.07,-0.07,27.329,-39.5445,-3.10404,1014.42
566054,-0.401722,9.68436,1.26255,0.49,-0.14,-0.21,26.928,-40.0944,-3.78454,1014.43
566060,-0.444763,9.73218,1.25299,0.7,-0.49,-0.49,26.842,-39.9207,-3.72783,1014.43
566066,-0.473458,9.74653,1.21951,0.63,0,-0.21,27.1285,-37.9529,-4.12479,1014.45
566072,-0.47824,9.76088,1.24342,0.28,-0.63,-0.35,26.8707,-39.6892,-3.92631,1014.45
566078,-0.487805,9.73218,1.28168,0.77,-0.35,-0.21,26.8993,-40.76,-3.25999,1014.45
566084,-0.454328,9.74653,1.23864,0.49,-0.7,-0.28,25.9826,-40.1233,-4.05391,1014.44
566090,-0.444763,9.78479,1.1956,0.84,0.14,0,26.5842,-39.4866,-2.25341,1014.44
566096,-0.492587,9.81349,1.20995,0.98,-0.14,0.21,27.2144,-40.9047,-2.72126,1014.41
566102,-0.430416,9.77523,1.22908,0.14,0.49,-0.07,27.5009,-40.4127,-3.65695,1014.41
566108,-0.406504,9.74653,1.21951,0.21,-0.07,0.14,27.1858,-38.7342,-4.03973,1014.41
566114,-0.425634,9.76566,1.22908,0.21,-0.21,-0.14,26.8134,-39.8918,-3.43011,1014.41
566120,-0.454328,9.76566,1.20516,0.14,-0.35,0.07,26.7847,-40.7021,-3.3167,1014.46
566126,-0.444763,9.73697,1.24342,0.49,0.07,0.42,26.5842,-38.4159,-4.42251,1014.46
566132,-0.454328,9.73697,1.23864,-0.21,0,0.21,25.8967,-39.6892,-4.28074,1014.43
566138,-0.416069,9.7274,1.26255,0.14,-0.42,0.07,26.5269,-40.4416,-3.88378,1014.43
566144,-0.411286,9.67958,1.28168,0.42,0.42,-0.07,25.9253,-39.4577,-4.63517,1014.43
566150,-0.425634,9.67958,1.31038,1.05,0.35,-0.28,26.928,-39.2262,-3.74201,1014.43
566156,-0.463893,9.69871,1.25777,0.98,0.07,-0.28,27.1285,-40.4127,-3.48682,1014.42
566162,-0.444763,9.73697,1.23864,1.05,0.42,-0.21,26.8707,-39.7471,-4.3091,1014.42
566168,-0.468675,9.78957,1.20516,0.91,-0.63,-0.49,25.9826,-38.7342,-4.25239,1014.42
566174,-0.45911,9.78479,1.18604,0.91,-0.21,-0.07,26.6988,-39.6603,-2.99062,1014.43
566180,-0.47824,9.79914,1.20995,0.42,-0.84,-0.28,26.8993,-38.9947,-3.17493,1014.43
566186,-0.45911,9.77523,1.21951,0.28,0.28,0.28,26.6415,-38.4448,-3.06151,1014.45
566192,-0.45911,9.78957,1.20516,0.49,-0.21,0.35,26.4123,-39.8629,-4.06809,1014.45
566198,-0.454328,9.78001,1.21473,0.21,0.35,0.35,25.5529,-40.6442,-2.80632,1014.42
566204,-0.416069,9.76566,1.24821,-0.07,0.14,0.35,26.8993,-38.3001,-3.71366,1014.42
566210,-0.382592,9.7274,1.27212,0.7,0.84,0.07,27.0139,-39.1973,-3.40176,1014.45
566216,-0.392157,9.71784,1.28168,0.28,-0.21,-0.14,27.415,-40.0365,-3.34505,1014.45
566222,-0.430416,9.7274,1.25299,0.42,-0.63,0.14,26.5842,-39.1104,-3.37341,1014.43
566228,-0.416069,9.75131,1.20038,0.63,-0.35,0.07,27.3577,-38.9079,-2.48025,1014.43
566234,-0.435198,9.75131,1.18125,0.56,-0.42,0.07,26.7847,-40.1233,-3.57189,1014.42
566240,-0.392157,9.73218,1.23864,0.35,0.14,-0.07,26.6415,-40.2101,-3.67113,1014.42
566246,-0.444763,9.73218,1.25777,0.63,-0.07,0.07,26.6415,-39.1104,-4.20986,1014.42
566252,-0.411286,9.75131,1.23386,0.42,0.49,-0.14,26.7274,-39.6892,-4.03973,1014.45
566258,-0.463893,9.73697,1.25299,0.56,0.42,0.14,27.5295,-40.3548,-3.67113,1014.45
566264,-0.416069,9.72262,1.22908,-0.14,0.21,-0.35,27.2144,-38.5895,-4.13897,1014.46
566270,-0.444763,9.70349,1.26734,0.07,0.35,-0.14,27.7874,-39.5156,-4.11062,1014.46
566276,-0.425634,9.69392,1.2769,0.42,-0.07,0.21,26.6415,-40.0654,-3.64277,1014.44
566282,-0.425634,9.69871,1.31516,0.77,0.49,-0.07,26.7847,-39.1683,-2.52278,1014.44
566288,-0.473458,9.74175,1.22429,0.91,-0.14,0,26.6988,-38.7921,-4.28074,1014.43
566294,-0.502152,9.81349,1.18125,1.33,-0.28,0.7,26.8707,-40.3838,-3.04733,1014.43
566300,-0.435198,9.81827,1.15256,0.21,-0.35,0.07,26.355,-39.6892,-3.27417,1014.43
566306,-0.401722,9.81827,1.21473,0.49,-0.28,0.56,26.1545,-38.3291,-4.37998,1014.43
566312,-0.463893,9.81349,1.20516,0.77,-0.14,0.63,26.2977,-39.4288,-4.53593,1014.4
566318,-0.463893,9.77523,1.21473,0.07,-0.21,0.56,26.5556,-40.1812,-2.62202,1014.4
566324,-0.47824,9.77523,1.24821,-0.21,-0.35,0.84,26.6988,-39.0815,-3.61442,1014.4
566330,-0.420851,9.74653,1.25299,0.42,0.42,0.63,26.8134,-38.9079,-4.11062,1014.43
566336,-0.449546,9.7561,1.23864,-0.07,0.21,0.7,26.3264,-40.8757,-3.501,1014.43
566342,-0.373027,9.72262,1.25777,0.21,0,0.63,26.8707,-39.6024,-2.91974,1014.4
566348,-0.420851,9.69392,1.28168,0.07,-0.42,0.49,27.0999,-38.8789,-2.56531,1014.4
566354,-0.396939,9.69392,1.28647,0.49,0,0.91,26.4123,-40.0654,-2.8205,1014.42
566360,-0.454328,9.71784,1.25777,0.7,-0.56,0.56,26.6702,-40.2969,-3.34505,1014.42
566366,-0.430416,9.73218,1.21951,0.21,-0.28,-0.14,26.9566,-38.2712,-3.06151,1014.43
566372,-0.444763,9.75131,1.21951,0.98,-0.56,0.49,26.7847,-39.5735,-3.52935,1014.43
566378,-0.420851,9.74653,1.18604,0.77,-0.42,0.21,26.0399,-40.0075,-2.35265,1014.41
566384,-0.449546,9.8087,1.18125,0.35,0.42,0,26.928,-39.6603,-2.57949,1014.41
566390,-0.444763,9.81827,1.16691,0,-0.07,0.49,25.9826,-39.4577,-4.35163,1014.43
566396,-0.502152,9.82305,1.18125,-0.28,0.42,0.28,26.6702,-40.2101,-3.25999,1014.43
566402,-0.449546,9.83261,1.19082,-0.63,-0.28,0.42,26.2118,-39.6313,-2.6929,1014.4
566408,-0.454328,9.78479,1.23864,-0.56,0.14,0.7,26.6988,-37.8661,-3.94049,1014.4
566414,-0.387374,9.73218,1.27212,-0.77,-0.63,0.56,26.0686,-39.7182,-3.57189,1014.4
566420,-0.420851,9.72262,1.27212,-0.56,-0.14,0.35,26.6988,-40.0654,-2.8205,1014.46
566426,-0.430416,9.71305,1.28168,0,-0.91,0.42,26.7847,-38.0397,-3.55771,1014.46
566432,-0.463893,9.70827,1.28168,-0.56,-0.77,0.42,26.3264,-39.8629,-2.59366,1014.45
566438,-0.406504,9.76566,1.24821,-0.14,0.49,0.77,27.2431,-40.8468,-2.62202,1014.45
566444,-0.420851,9.7274,1.23864,0.21,0,0.49,26.4983,-39.4866,-2.70708,1014.45
566450,-0.37781,9.71305,1.22908,0.28,0.28,0.7,26.4123,-39.342,-2.70708,1014.45
566456,-0.439981,9.73697,1.23864,0,-0.7,0.56,26.0972,-40.6442,-1.65797,1014.44
566462,-0.401722,9.74175,1.20995,0.35,-0.21,0.49,26.1259,-40.3259,-3.1891,1014.44
566468,-0.396939,9.71305,1.22908,-0.21,-0.7,0.42,26.7274,-38.9368,-3.74201,1014.43
566474,-0.363462,9.7274,1.2769,0,-0.21,0.14,26.4696,-40.2101,-2.93391,1014.43
566480,-0.416069,9.7274,1.23386,0.21,-0.84,0.35,26.0399,-40.731,-2.60784,1014.43
566486,-0.396939,9.74175,1.21473,0.21,0,-0.28,26.7274,-38.8211,-3.57189,1014.43
566492,-0.416069,9.78957,1.21473,0.21,0.49,0.14,26.1545,-39.3998,-2.90556,1014.43
566498,-0.420851,9.77523,1.1956,0.14,0.42,-0.21,26.6702,-39.5445,-2.15417,1014.45
566504,-0.435198,9.8087,1.17169,-0.07,0.56,0.21,26.7274,-39.1394,-2.83467,1014.45
566510,-0.411286,9.8087,1.16212,-0.7,0.07,0.14,26.7561,-38.7632,-3.78454,1014.41
566516,-0.45911,9.75131,1.26255,-0.49,0.21,0.28,26.4983,-40.4995,-3.03315,1014.41
566522,-0.454328,9.72262,1.25777,-0.98,-0.07,0.35,26.2691,-39.1973,-2.31012,1014.4
566528,-0.45911,9.70827,1.27212,-0.77,-0.21,0.28,26.3264,-39.1104,-2.48025,1014.4
566534,-0.449546,9.7274,1.26734,-0.07,-0.14,0.35,25.868,-40.0075,-3.40176,1014.44
566540,-0.435198,9.73697,1.2769,-0.42,-0.35,0.35,26.6988,-39.7182,-2.59366,1014.44
566546,-0.387374,9.69871,1.3056,-0.42,0.14,0.28,26.8707,-38.358,-1.8281,1014.42
566552,-0.416069,9.67958,1.3056,0.21,-0.28,0.28,26.5842,-39.4577,-2.56531,1014.42
566558,-0.411286,9.7561,1.3056,0.49,0.28,0.21,25.8394,-39.8629,-3.27417,1014.42
566564,-0.435198,9.78001,1.20995,0.07,0.07,0.07,26.3264,-39.1973,-2.83467,1014.42
566570,-0.420851,9.7561,1.23864,0.56,0.14,0.28,26.6988,-38.7053,-3.35923,1014.42
566576,-0.353898,9.73218,1.24821,0.21,-0.14,0.07,26.2405,-39.8629,-3.40176,1014.45
566582,-0.353898,9.69871,1.29603,0.07,-0.14,0.07,26.6129,-39.2551,-2.06911,1014.45
566588,-0.392157,9.72262,1.2769,0.49,0.14,0,27.0139,-38.5027,-3.91214,1014.42
566594,-0.411286,9.73218,1.20995,0.42,-0.28,-0.14,26.8707,-40.2101,-3.41594,1014.42
566600,-0.396939,9.75131,1.23864,0.14,-0.07,-0.07,26.0972,-39.3998,-2.90556,1014.43
566606,-0.401722,9.74175,1.24342,-0.07,0.21,0.21,25.8967,-39.0236,-2.67873,1014.43
566612,-0.396939,9.73218,1.25299,0,-0.35,-0.21,26.441,-39.4866,-2.70708,1014.42
566618,-0.45911,9.78957,1.21473,0.35,0.21,-0.07,25.9253,-39.7471,-3.11822,1014.42
566624,-0.483022,9.82783,1.18604,-0.07,0.14,0.21,26.7847,-39.2551,-3.9972,1014.42
566630,-0.449546,9.78001,1.24342,-0.49,-0.21,0.63,26.355,-38.9368,-3.58606,1014.42
566636,-0.349115,9.7274,1.29603,0.14,0.21,0.35,26.4983,-39.8918,-3.21746,1014.43
566642,-0.420851,9.74175,1.2769,-0.21,0.07,0,26.6415,-39.6603,-3.06151,1014.43
566648,-0.401722,9.73697,1.28647,0.07,0.56,0.21,27.0712,-38.6185,-4.03973,1014.43
566654,-0.420851,9.74653,1.24821,-0.42,-0.07,0,26.7847,-40.0075,-4.20986,1014.43
566660,-0.430416,9.71305,1.25299,0,0.56,0.21,26.3264,-40.4416,-3.25999,1014.43
566666,-0.387374,9.73697,1.28168,0.35,-0.35,0.28,26.4983,-38.2712,-3.3167,1014.39
566672,-0.368245,9.67958,1.3056,0.42,-0.14,0.28,26.2691,-39.6603,-3.30252,1014.39
566678,-0.420851,9.71784,1.30081,0.28,-0.07,-0.14,26.1545,-39.8918,-4.29492,1014.39
566684,-0.411286,9.70349,1.29603,0.91,-0.28,-0.21,27.0712,-38.5317,-3.3167,1014.39
566690,-0.387374,9.74175,1.28647,1.05,0.14,-0.21,26.4123,-39.1104,-3.14657,1014.45
566696,-0.444763,9.74653,1.28168,0.98,-0.07,-0.21,26.8707,-39.8629,-1.72886,1014.45
566702,-0.401722,9.7561,1.24821,0.84,-0.07,-0.28,26.4696,-40.0365,-2.15417,1014.44
566708,-0.406504,9.76088,1.22429,0.56,-0.07,-0.28,26.8707,-38.1265,-3.41594,1014.44
566714,-0.416069,9.7561,1.21951,0.35,-0.35,-0.21,26.4123,-40.4706,-3.1891,1014.44
566720,-0.435198,9.78001,1.23386,0.56,-0.21,-0.21,26.4696,-39.805,-2.57949,1014.44
566726,-0.454328,9.8087,1.22908,0.49,-0.21,-0.21,26.441,-39.0526,-2.93391,1014.43
566732,-0.435198,9.74175,1.26734,0.07,0.14,0,26.6702,-39.4288,-2.11164,1014.43
566738,-0.392157,9.73697,1.27212,0.56,-0.28,-0.07,26.6415,-40.0654,-3.62859,1014.43
566744,-0.411286,9.77044,1.23864,0.56,-0.42,0.07,26.8993,-39.3998,-3.3167,1014.41
566750,-0.416069,9.75131,1.2769,-0.56,-0.7,0.28,26.2977,-39.4288,-4.23821,1014.41
566756,-0.401722,9.75131,1.23864,0.21,-0.35,0.56,25.868,-40.3548,-2.86303,1014.42
566762,-0.449546,9.78001,1.20516,0.42,0.07,0,25.3238,-39.9786,-3.501,1014.42
566768,-0.363462,9.74653,1.22908,-0.56,-0.14,0.56,25.4956,-38.9947,-4.23821,1014.44
566774,-0.387374,9.69392,1.29603,0.56,0.42,0.49,25.8108,-39.0815,-3.30252,1014.44
566780,-0.387374,9.67001,1.34385,0.77,-0.14,0.07,25.0373,-40.1812,-3.91214,1014.41
566786,-0.373027,9.70349,1.31994,-0.28,-0.14,-0.14,25.8967,-38.1265,-3.35923,1014.41
566792,-0.382592,9.74653,1.27212,0.63,-0.42,-0.14,26.3264,-39.4866,-3.65695,1014.43
566798,-0.368245,9.73697,1.26255,0.77,-0.14,-0.35,25.6675,-40.4416,-4.28074,1014.43
566804,-0.416069,9.7561,1.25777,0.35,-0.28,-0.14,26.1832,-39.1394,-2.72126,1014.41
566810,-0.392157,9.71784,1.26255,0.28,0.21,-0.35,26.6988,-38.9947,-3.54353,1014.41
566816,-0.396939,9.74653,1.26734,0.35,-0.42,-0.35,26.0686,-40.2101,-3.08986,1014.43
566822,-0.411286,9.73218,1.25299,0.14,-0.14,-0.21,26.2118,-39.0815,-4.42251,1014.43
566828,-0.463893,9.73697,1.25299,0.21,-0.77,-0.35,26.4696,-38.7053,-3.43011,1014.43
566834,-0.396939,9.74653,1.24342,0.07,0.07,-0.49,25.9826,-39.6313,-2.65037,1014.42
566840,-0.35868,9.71305,1.3056,0.28,-0.28,-0.35,25.6389,-39.5156,-3.25999,1014.42
566846,-0.420851,9.79436,1.23386,0,-0.14,-0.35,25.3811,-38.85,-3.77037,1014.42
566852,-0.406504,9.79914,1.18604,0.07,0.42,-0.07,26.3837,-39.3709,-3.37341,1014.42
566858,-0.454328,9.76566,1.3056,0.14,-0.07,-0.28,26.0972,-40.731,-3.9972,1014.44
566864,-0.392157,9.79436,1.24821,0.21,-0.28,-0.42,25.3811,-39.6603,-3.3167,1014.44
566870,-0.344333,9.6461,1.34864,0.77,-0.07,-0.42,25.6389,-39.6603,-3.06151,1014.39
566876,-0.411286,9.7274,1.28647,0.56,-0.56,-0.07,25.8967,-40.76,-3.64277,1014.39
566882,-0.401722,9.76088,1.26255,0.42,-0.07,-0.35,26.0972,-39.4866,-3.57189,1014.44
566888,-0.468675,9.75131,1.2769,0.21,0.28,-0.42,26.6129,-39.1683,-3.11822,1014.44
566894,-0.411286,9.79436,1.17647,0.63,0.35,0,25.868,-40.3838,-3.01898,1014.46
566900,-0.396939,9.73697,1.23864,0.14,-0.07,-0.21,25.954,-40.0075,-3.55771,1014.46
566906,-0.392157,9.7561,1.28168,0.63,-0.28,-0.21,26.0113,-38.6474,-3.23163,1014.46
566912,-0.416069,9.7561,1.26255,-0.14,-0.07,-0.07,26.4983,-39.5735,-3.37341,1014.41
566918,-0.468675,9.74653,1.26734,0.7,-0.63,0.21,25.954,-39.4577,-2.3243,1014.41
566924,-0.449546,9.71784,1.2769,0.77,0.21,-0.21,26.3837,-39.5156,-3.58606,1014.46
566930,-0.411286,9.7561,1.22908,0.35,0,0.14,25.9826,-38.9657,-3.501,1014.46
566936,-0.430416,9.76088,1.23386,0.56,0.21,0.14,25.7248,-40.0365,-3.08986,1014.43
566942,-0.463893,9.8087,1.20516,0.14,0.07,0.14,26.1832,-39.5445,-4.19568,1014.43
566948,-0.411286,9.78001,1.22908,0.21,0.21,0.49,25.5816,-39.0236,-2.66455,1014.46
566954,-0.406504,9.77523,1.24342,0.07,-0.14,0.42,26.9566,-39.6892,-3.04733,1014.46
566960,-0.401722,9.75131,1.31038,-0.07,0,0,26.1545,-40.3838,-3.75619,1014.45
566966,-0.392157,9.70827,1.26734,-0.28,-0.07,0.49,26.0399,-38.8789,-4.13897,1014.45
566972,-0.411286,9.70827,1.31516,-0.07,0.14,0.07,26.2405,-38.7921,-4.02555,1014.46
566978,-0.368245,9.68914,1.3056,0.35,0.42,-0.14,25.8108,-40.7889,-3.55771,1014.46
566984,-0.401722,9.70827,1.27212,0.35,0.35,-0.21,26.3264,-39.0236,-4.39416,1014.46
566990,-0.373027,9.72262,1.26255,0.28,0.21,-0.14,26.7847,-38.7632,-4.81947,1014.46
566996,-0.396939,9.7561,1.25299,0.98,-0.35,-0.14,25.9826,-40.5574,-2.60784,1014.46
567002,-0.439981,9.73218,1.23864,0.21,0.07,0.14,26.6702,-40.0075,-2.79214,1014.45
567008,-0.420851,9.75131,1.23386,0.14,-0.14,-0.14,25.7821,-39.3998,-3.77037,1014.45
567014,-0.401722,9.74653,1.24821,0.56,0.35,-0.07,26.5269,-40.3548,-2.77797,1014.42
567020,-0.396939,9.77044,1.23864,0,0.21,0.07,25.6675,-40.7889,-4.01138,1014.42
567026,-0.401722,9.7561,1.23864,0.07,0.07,-0.07,26.6415,-39.1394,-3.40176,1014.42
567032,-0.435198,9.73218,1.23386,-0.14,0.14,0.14,26.4696,-39.1973,-3.27417,1014.42
567038,-0.411286,9.72262,1.24342,0.21,-0.07,0.07,26.0113,-40.6731,-3.25999,1014.42
567044,-0.401722,9.68914,1.28647,-0.07,0.35,-0.07,26.0113,-39.1973,-3.16075,1014.42
567050,-0.454328,9.77523,1.27212,0.07,0.14,0.42,26.6702,-38.6764,-3.88378,1014.43
567056,-0.454328,9.78001,1.22908,0.14,0,0.35,26.2977,-40.1233,-3.95467,1014.43
567062,-0.401722,9.78957,1.24821,0.14,0,0.49,25.8108,-39.776,-3.54353,1014.42
567068,-0.325203,9.72262,1.24342,-0.21,0.14,0.35,26.2977,-39.2551,-4.12479,1014.42
567074,-0.37781,9.71784,1.29125,0.28,0.35,0.35,26.0972,-39.4866,-3.77037,1014.42
567080,-0.411286,9.7274,1.29603,0.42,-0.14,0.28,26.2691,-39.9497,-3.34505,1014.44
567086,-0.387374,9.73697,1.27212,0.63,-0.28,0.14,26.6129,-38.6474,-3.78454,1014.44
567092,-0.37781,9.7561,1.25299,0.14,0,0.35,26.9853,-39.4288,-4.01138,1014.45
567098,-0.411286,9.74175,1.2769,0.49,0.28,0.35,26.0113,-39.5735,-2.8205,1014.45
567104,-0.382592,9.69871,1.29125,0.21,0.42,0.07,26.4983,-38.9657,-3.1891,1014.43
567110,-0.363462,9.7274,1.28168,-0.07,0.49,0.14,26.7274,-38.9947,-4.64935,1014.43
567116,-0.382592,9.70349,1.30081,0.63,-0.14,0.07,26.5842,-40.4127,-3.25999,1014.39
567122,-0.387374,9.74175,1.28168,0.91,0.07,0,26.0113,-39.6892,-3.24581,1014.39
567128,-0.45911,9.73218,1.27212,0.14,-0.21,0.14,26.355,-39.1683,-3.37341,1014.45
567134,-0.406504,9.7274,1.28647,0.63,0.14,0,26.0686,-40.7021,-3.61442,1014.45
567140,-0.416069,9.75131,1.25777,0.77,-0.14,0.14,26.1545,-39.7182,-3.501,1014.43
567146,-0.401722,9.77044,1.21951,0.14,-0.14,0.42,26.6988,-38.4159,-3.17493,1014.43
567152,-0.454328,9.81827,1.18604,0.14,-0.07,0.63,26.6702,-39.4288,-3.45847,1014.43
567158,-0.406504,9.81827,1.19082,0.07,0.21,0.63,27.0712,-40.7889,-2.83467,1014.46
567164,-0.392157,9.78957,1.23864,-0.7,0.21,0.56,26.0972,-39.2841,-3.38758,1014.46
567170,-0.334768,9.73697,1.28168,-0.7,0.28,0.63,26.8707,-39.0815,-4.08226,1014.42
567176,-0.401722,9.70827,1.28647,-0.07,-0.56,0.42,26.5842,-40.8178,-3.62859,1014.42
567182,-0.387374,9.69392,1.29603,-0.21,-0.07,0.35,26.7847,-39.9207,-2.93391,1014.44
567188,-0.416069,9.70349,1.31516,-0.49,-0.35,0.14,26.5842,-39.1394,-4.28074,1014.44
567194,-0.373027,9.70827,1.31038,-0.07,-0.21,0.14,26.2405,-39.5735,-2.65037,1014.44
567200,-0.363462,9.68914,1.29603,0.07,-0.28,0.14,26.3264,-40.4127,-3.25999,1014.44
567206,-0.37781,9.71305,1.3056,0.21,0.28,-0.07,25.7248,-38.8211,-2.90556,1014.45
567212,-0.425634,9.73697,1.29125,0.21,0.35,0.07,26.4983,-39.0815,-3.57189,1014.45
567218,-0.392157,9.73218,1.26734,0.98,0.07,0,26.2118,-39.9497,-3.33087,1014.44
567224,-0.37781,9.74175,1.26255,0.63,0.07,-0.21,26.6415,-38.9947,-3.24581,1014.44
567230,-0.382592,9.74653,1.2769,0.49,-0.07,-0.35,26.6702,-39.1104,-3.79872,1014.44
567236,-0.47824,9.77044,1.2769,0.84,-0.14,0,26.1259,-39.776,-3.33087,1014.45
567242,-0.435198,9.76088,1.26255,0.49,-0.14,0,25.8394,-39.6603,-3.79872,1014.45
567248,-0.425634,9.7274,1.25777,0.35,-0.42,-0.21,26.2977,-38.7921,-3.6853,1014.42
567254,-0.387374,9.77044,1.23864,-0.07,-0.21,0,25.9253,-39.8918,-2.91974,1014.42
567260,-0.406504,9.8087,1.21473,0.49,-0.42,0.14,26.355,-40.5574,-4.20986,1014.44
567266,-0.420851,9.74653,1.2769,0.28,0.28,0.35,26.355,-38.4448,-3.0048,1014.44
567272,-0.454328,9.78479,1.23864,0.42,-0.14,0.56,26.6129,-39.776,-4.13897,1014.41
567278,-0.363462,9.76566,1.20995,-0.35,-0.07,0.49,25.9253,-40.2101,-3.71366,1014.41
567284,-0.344333,9.76088,1.23386,-0.49,-0.07,0.28,26.2691,-38.8211,-3.27417,1014.44
567290,-0.349115,9.73697,1.3056,-0.21,0.21,0.28,26.6415,-39.4288,-3.94049,1014.44
567296,-0.37781,9.69392,1.32951,-0.14,0.42,0.35,26.928,-40.0944,-3.40176,1014.43
567302,-0.382592,9.71305,1.28647,-0.14,0.21,0.07,25.7535,-39.8339,-3.75619,1014.43
567308,-0.37781,9.72262,1.30081,0.28,0.14,0.35,25.8394,-38.387,-4.91871,1014.43
567314,-0.387374,9.70827,1.29125,0.21,-0.14,0.14,26.0399,-39.0236,-4.45087,1014.43
567320,-0.349115,9.68436,1.31994,0.28,-0.07,-0.42,26.3837,-39.2551,-3.20328,1014.43
567326,-0.430416,9.72262,1.30081,0.56,-0.07,-0.07,26.5269,-38.6764,-3.91214,1014.42
567332,-0.373027,9.73697,1.30081,0.56,-0.49,0,26.0686,-38.9079,-4.19568,1014.42
567338,-0.416069,9.71305,1.28647,0.84,0.07,-0.14,25.9826,-39.6313,-3.62859,1014.41
567344,-0.411286,9.76088,1.28647,0.42,-0.42,-0.07,25.2378,-39.4866,-4.01138,1014.41
567350,-0.416069,9.78479,1.25777,0.63,0.49,0,26.355,-38.2133,-3.38758,1014.46
567356,-0.439981,9.8374,1.20516,0.35,0.35,0.14,25.868,-40.1233,-3.27417,1014.46
567362,-0.449546,9.84696,1.20038,-0.21,0.14,0.14,25.8394,-39.7471,-3.67113,1014.43
567368,-0.37781,9.78001,1.21473,-0.14,-0.07,0.42,26.5842,-38.7921,-4.15315,1014.43
567374,-0.368245,9.79436,1.22908,-0.21,-0.07,0.49,26.355,-40.0075,-4.09644,1014.42
567380,-0.349115,9.77044,1.24342,-0.21,-0.49,0.42,26.2405,-40.1233,-3.45847,1014.42
567386,-0.396939,9.75131,1.28647,0.42,-0.07,0.21,25.6102,-38.4738,-4.26657,1014.4
567392,-0.392157,9.72262,1.29125,0,0.28,0.56,25.7821,-39.1104,-3.65695,1014.4
567398,-0.373027,9.71305,1.26734,-0.35,0.07,0.63,25.9253,-40.5863,-2.99062,1014.4
567404,-0.349115,9.68914,1.29125,0.49,0.35,0.63,25.8108,-39.8629,-3.28834,1014.42
567410,-0.349115,9.67958,1.31038,0.21,-0.14,0,26.355,-38.9947,-3.20328,1014.42
567416,-0.373027,9.70827,1.29603,0.49,0.63,0.07,26.0399,-40.6153,-3.16075,1014.42
567422,-0.392157,9.71784,1.26255,0.7,-0.35,0.42,25.9253,-39.9207,-3.71366,1014.42
567428,-0.382592,9.72262,1.23386,0.49,-0.42,-0.35,26.4696,-39.1683,-4.05391,1014.44
567434,-0.353898,9.69871,1.29603,0.21,-0.7,0.21,25.954,-40.1233,-3.08986,1014.44
567440,-0.33955,9.7274,1.30081,0.84,-0.35,-0.14,25.8394,-40.0654,-2.56531,1014.43
567446,-0.37781,9.72262,1.28647,0.63,0.35,-0.49,26.3837,-39.0236,-4.05391,1014.43
567452,-0.444763,9.78957,1.27212,-0.14,0.21,-0.14,26.9566,-39.313,-3.61442,1014.44
567458,-0.439981,9.80392,1.25299,0.28,-0.14,0.28,26.6129,-40.3259,-3.55771,1014.44
567464,-0.392157,9.78479,1.24821,0.28,-0.28,0,26.355,-39.2262,-2.42354,1014.42
567470,-0.382592,9.78001,1.23864,-0.21,-0.07,0.42,25.8394,-38.2423,-3.37341,1014.42
567476,-0.416069,9.75131,1.26734,-0.42,0,0,26.8993,-40.5285,-3.65695,1014.38
567482,-0.396939,9.73218,1.29125,0.07,-0.14,0,26.6129,-39.6313,-2.96227,1014.38
567488,-0.401722,9.76088,1.25777,-0.28,-0.35,0.49,25.4097,-38.7053,-3.55771,1014.38
567494,-0.353898,9.77523,1.25299,0.07,-0.35,0.07,26.355,-39.6892,-3.0048,1014.4
567500,-0.363462,9.73218,1.31038,-0.28,0.21,0,25.9253,-40.1233,-3.6853,1014.4
567506,-0.344333,9.70349,1.31038,0.07,0.21,0,25.8967,-38.4738,-3.44429,1014.44
567512,-0.349115,9.70827,1.30081,-0.14,0.49,-0.28,25.9826,-38.8211,-3.47265,1014.44
567518,-0.396939,9.71784,1.29603,-0.35,-0.14,0.14,25.3238,-40.9625,-3.38758,1014.42
567524,-0.373027,9.7274,1.3056,-0.28,-0.35,-0.35,25.868,-39.313,-3.8129,1014.42
567530,-0.349115,9.69392,1.31038,-0.14,-0.28,-0.21,25.9253,-38.7053,-3.58606,1014.45
567536,-0.349115,9.7274,1.30081,0.14,0.21,-0.07,26.1545,-39.8918,-2.97645,1014.45
567542,-0.387374,9.7274,1.2769,-0.14,-0.07,-0.35,25.6675,-40.2101,-3.33087,1014.43
567548,-0.396939,9.73697,1.2769,-0.21,-0.28,-0.49,25.6389,-38.1555,-3.86961,1014.43
567554,-0.411286,9.7561,1.29125,0.21,-0.49,0.07,26.0113,-39.8339,-3.3167,1014.47
567560,-0.401722,9.77044,1.23864,0.28,0,-0.35,26.4696,-39.6603,-2.53695,1014.47
567566,-0.435198,9.81827,1.23864,-0.35,0.07,0,25.6962,-38.6185,-3.33087,1014.47
567572,-0.411286,9.79914,1.23864,-0.49,-0.14,0.42,26.4123,-39.5445,-3.6853,1014.45
567578,-0.449546,9.70349,1.42516,0.35,-0.98,-0.35,26.5556,-40.1522,-3.20328,1014.45
567584,-0.373027,9.99043,1.09517,-0.63,0.14,0.7,27.2717,-39.1683,-3.48682,1014.42
567590,-0.444763,9.75131,1.25777,-0.35,-0.21,0.56,26.2118,-38.6474,-3.17493,1014.42
567596,-0.329986,9.80392,1.23864,-0.35,0.28,0.14,26.1259,-41.0204,-4.22403,1014.44
567602,-0.401722,9.68436,1.3869,-0.35,0,0.14,26.6988,-40.1233,-3.13239,1014.44
567608,-0.363462,9.73218,1.29125,0,-0.14,0.35,26.2977,-38.7342,-3.64277,1014.42
567614,-0.349115,9.74653,1.26734,0.07,-0.14,-0.35,26.0686,-40.4416,-3.04733,1014.42
567620,-0.353898,9.70349,1.29125,0,0,0,26.1832,-40.2969,-3.08986,1014.43
567626,-0.368245,9.71784,1.31038,-0.14,-0.21,-0.07,26.1832,-38.8789,-4.97542,1014.43
567632,-0.387374,9.70349,1.31516,0.07,0.07,-0.07,26.2977,-39.2551,-3.57189,1014.43
567638,-0.406504,9.78479,1.25299,0,0.07,-0.14,26.5842,-40.4706,-4.25239,1014.43
567644,-0.420851,9.80392,1.23386,0.14,-0.35,0.21,25.3238,-39.6024,-3.23163,1014.43
567650,-0.425634,9.74175,1.30081,-0.07,-0.21,0.21,25.6389,-38.85,-4.46505,1014.41
567656,-0.392157,9.73697,1.31994,0,-0.21,0.21,26.5842,-40.9915,-3.13239,1014.41
567662,-0.387374,9.71305,1.32472,-0.14,0.07,0.35,26.6129,-39.4577,-3.79872,1014.43
567668,-0.382592,9.78001,1.25777,0.21,-0.35,0.56,26.1832,-39.1394,-3.82707,1014.43
567674,-0.368245,9.78957,1.25299,-0.21,0.28,0.63,26.355,-39.2551,-3.69948,1014.41
567680,-0.349115,9.7561,1.2769,-0.42,-0.07,0.56,26.6988,-39.776,-3.14657,1014.41
567686,-0.373027,9.76566,1.26255,0.35,0.35,0.56,26.928,-39.0236,-3.61442,1014.41
567692,-0.35868,9.73697,1.29125,-0.21,-0.21,0.63,26.4696,-39.0526,-3.98302,1014.41
567698,-0.382592,9.73697,1.3056,-0.14,-0.35,0.07,25.8108,-40.4127,-2.22506,1014.44
567704,-0.344333,9.71305,1.26255,-0.14,-0.28,0.63,26.4983,-39.2551,-3.71366,1014.44
567710,-0.35868,9.7274,1.31994,0.14,-0.21,0.28,26.5842,-38.7342,-4.20986,1014.41
567716,-0.315638,9.69392,1.36298,0,0.14,0,26.0399,-40.76,-4.09644,1014.41
567722,-0.363462,9.70827,1.32951,0.28,0.07,-0.14,25.6675,-40.1522,-2.90556,1014.46
567728,-0.363462,9.71784,1.30081,-0.21,0.14,-0.07,26.5842,-38.8211,-3.88378,1014.46
567734,-0.37781,9.74175,1.31994,0,-0.35,-0.07,25.7248,-40.1812,-3.24581,1014.46
567740,-0.37781,9.75131,1.27212,-0.07,-0.42,-0.28,27.2144,-40.4416,-3.35923,1014.44
567746,-0.363462,9.71784,1.2769,-0.14,-0.07,-0.35,26.441,-38.7921,-3.67113,1014.44
567752,-0.353898,9.72262,1.3056,-0.07,0.28,-0.07,26.1259,-38.7053,-3.54353,1014.43
567758,-0.35868,9.73697,1.3056,0.28,0.07,-0.49,26.3264,-40.2101,-3.11822,1014.43
567764,-0.396939,9.7274,1.2769,-0.21,-0.56,-0.14,26.6129,-38.7342,-2.65037,1014.43
567770,-0.373027,9.75131,1.28647,0.42,-0.07,0,26.2977,-38.387,-4.55011,1014.43
567776,-0.373027,9.77044,1.28168,0.42,-0.49,-0.42,26.441,-39.7182,-3.47265,1014.44
567782,-0.416069,9.74653,1.29603,0.21,0.21,0.07,26.4983,-40.0075,-3.13239,1014.44
567788,-0.37781,9.75131,1.2769,0.07,-0.07,0,26.3837,-38.7632,-3.44429,1014.43
567794,-0.363462,9.77523,1.26255,0.21,0.07,-0.07,26.6129,-40.1233,-2.56531,1014.43
567800,-0.392157,9.75131,1.31516,0.21,-0.07,-0.14,25.6675,-39.805,-3.61442,1014.45
567806,-0.392157,9.76088,1.3056,0.07,-0.07,0.07,26.1545,-38.2133,-3.13239,1014.45
567812,-0.35868,9.72262,1.33429,-0.21,0,-0.07,26.3837,-39.6892,-2.99062,1014.45
567818,-0.363462,9.69392,1.29125,0.28,-0.14,-0.07,26.441,-40.6153,-2.94809,1014.44
567824,-0.368245,9.73218,1.3056,0.42,0,0,25.3811,-39.9207,-4.60682,1014.44
567830,-0.329986,9.72262,1.32951,0.07,0.35,-0.07,26.5269,-39.1394,-4.26657,1014.47
567836,-0.329986,9.70827,1.33429,0.28,0.35,-0.07,26.0113,-40.7021,-2.96227,1014.47
567842,-0.329986,9.71305,1.28168,0.28,0.07,-0.35,26.6988,-40.1812,-2.55113,1014.44
567848,-0.363462,9.72262,1.29125,0.35,0.14,-0.28,26.1259,-38.6474,-3.501,1014.44
567854,-0.37781,9.74175,1.28168,-0.14,-0.63,-0.28,26.3837,-39.6892,-3.3167,1014.43
567860,-0.315638,9.71305,1.32951,-0.07,-0.14,-0.7,25.8967,-40.4127,-4.03973,1014.43
567866,-0.35868,9.71305,1.31994,0.35,-0.42,-0.49,26.4983,-39.1973,-3.17493,1014.46
567872,-0.411286,9.76088,1.3056,0.07,0.14,-0.14,26.2977,-38.5895,-3.501,1014.46
567878,-0.401722,9.78479,1.27212,0.21,-0.07,0,26.5842,-40.7889,-4.37998,1014.45
567884,-0.401722,9.73697,1.28647,0.21,0.14,0.07,25.9253,-39.0526,-4.28074,1014.45
567890,-0.382592,9.76566,1.29125,0.07,-0.35,-0.21,26.4983,-38.7632,-4.39416,1014.45
567896,-0.37781,9.74175,1.31994,0.14,-0.35,-0.14,25.7535,-39.5156,-3.62859,1014.44
567902,-0.37781,9.73218,1.31994,0.49,-0.14,-0.42,26.1259,-39.805,-1.99822,1014.44
567908,-0.406504,9.73697,1.29603,0.21,-0.49,-0.14,27.0712,-38.8211,-3.44429,1014.47
567914,-0.382592,9.73218,1.30081,0.35,-0.49,0,26.2405,-39.5156,-1.74303,1014.47
567920,-0.353898,9.73218,1.28168,0,-0.35,-0.49,26.2977,-40.8757,-3.54353,1014.43
567926,-0.368245,9.77044,1.2769,-0.14,0.42,-0.14,25.6675,-40.0365,-3.03315,1014.43
567932,-0.37781,9.74175,1.29603,0.14,0,-0.07,26.1545,-40.1522,-3.9972,1014.42
567938,-0.406504,9.74175,1.3056,0.35,0.35,-0.07,25.9253,-40.0654,-4.3091,1014.42
567944,-0.368245,9.72262,1.33429,0.7,0,-0.21,26.5842,-39.3998,-3.94049,1014.42
567950,-0.368245,9.71784,1.34864,-0.07,-0.28,-0.14,26.1259,-38.9947,-3.51518,1014.42
567956,-0.416069,9.7561,1.26734,0.56,-0.07,0,26.4123,-40.268,-2.87721,1014.41
567962,-0.382592,9.77523,1.28168,0.77,-0.21,0.07,26.0686,-39.776,-3.3167,1014.41
567968,-0.373027,9.79436,1.26255,0.07,0,-0.14,26.1832,-38.8211,-3.62859,1014.41
567974,-0.382592,9.76088,1.30081,0.21,0.07,0.28,26.0399,-39.776,-3.79872,1014.41
567980,-0.401722,9.73697,1.31038,0.21,0.28,0.14,26.7847,-39.4866,-3.67113,1014.41
567986,-0.401722,9.76566,1.28647,0.14,-0.14,0.21,25.6962,-38.5317,-3.45847,1014.42
567992,-0.373027,9.70827,1.31516,0.07,0.21,-0.07,25.9826,-39.1973,-2.87721,1014.42
567998,-0.329986,9.7274,1.28168,-0.28,0.14,0.07,25.2378,-41.0204,-4.26657,1014.44
568004,-0.320421,9.70827,1.33429,0.07,-0.28,0,25.8967,-39.342,-3.96885,1014.44
568010,-0.387374,9.71305,1.31516,0.07,-0.56,-0.21,25.5529,-38.8789,-3.74201,1014.41
568016,-0.349115,9.71784,1.31516,0.28,-0.07,-0.21,25.9826,-39.9207,-3.3167,1014.41
568022,-0.349115,9.69392,1.34864,0.14,0.49,0.21,25.6389,-40.4416,-4.11062,1014.42
568028,-0.344333,9.76566,1.28647,0.63,-0.07,-0.28,25.7821,-39.5735,-4.39416,1014.42
568034,-0.373027,9.71305,1.28647,0.28,0.63,-0.21,26.4983,-39.8918,-3.58606,1014.46
568040,-0.368245,9.74175,1.27212,0.14,0.63,0.14,25.6675,-40.0075,-3.67113,1014.46
568046,-0.396939,9.7561,1.29603,0.56,0.77,-0.28,25.3811,-38.6185,-3.54353,1014.46
568052,-0.401722,9.76088,1.26734,-0.56,-0.07,-0.21,25.868,-39.4577,-4.35163,1014.46
568058,-0.35868,9.70827,1.35342,0.28,-0.35,0.07,26.3264,-40.1522,-3.54353,1014.46
568064,-0.387374,9.7274,1.3582,0.28,-0.14,-0.49,25.0373,-39.805,-3.6853,1014.44
568070,-0.315638,9.6748,1.39168,0.56,-0.07,0.21,26.1545,-38.5895,-3.84125,1014.44
568076,-0.444763,9.72262,1.3582,0.63,0,-0.14,25.9826,-39.9207,-3.72783,1014.43
568082,-0.35868,9.76088,1.29603,0.28,0,-0.14,25.8967,-39.4288,-2.26759,1014.43
568088,-0.411286,9.72262,1.33907,0.21,0.07,-0.14,26.1545,-39.0236,-3.28834,1014.47
568094,-0.363462,9.7561,1.27212,0.56,0.42,-0.07,26.5842,-39.7182,-2.99062,1014.47
568100,-0.382592,9.76566,1.29125,-0.14,0.28,-0.07,26.2691,-40.6731,-3.8129,1014.45
568106,-0.373027,9.75131,1.3056,0.49,0.42,-0.14,26.1545,-38.3001,-3.20328,1014.45
568112,-0.35868,9.73697,1.29125,0.21,-0.28,-0.21,26.2691,-39.2551,-2.86303,1014.46
568118,-0.37781,9.71784,1.31994,0.63,0.07,-0.35,25.8394,-40.0365,-3.21746,1014.46
568124,-0.35868,9.73218,1.31516,0.35,-0.7,-0.35,25.954,-39.4577,-3.58606,1014.44
568130,-0.382592,9.71305,1.29603,0.56,-0.07,-0.14,25.7248,-38.3001,-3.67113,1014.44
568136,-0.382592,9.74653,1.31994,0.28,-0.56,-0.35,25.5816,-39.3998,-3.1891,1014.44
568142,-0.473458,9.78957,1.28168,-0.21,0.07,0.14,24.6362,-40.0075,-2.80632,1014.44
568148,-0.329986,9.71784,1.31994,0.14,0.56,0,25.467,-38.3001,-3.30252,1014.44
568154,-0.396939,9.74653,1.33907,0.56,-0.28,-0.14,25.2378,-39.2551,-3.03315,1014.42
568160,-0.306074,9.69871,1.31038,0.56,0.28,-0.28,25.7248,-40.3838,-3.13239,1014.42
568166,-0.425634,9.72262,1.35342,0.42,-0.35,-0.28,26.0972,-39.0526,-3.95467,1014.42
568172,-0.373027,9.73218,1.31038,0.56,-0.07,0.07,25.6962,-39.7471,-2.93391,1014.42
568178,-0.449546,9.76088,1.32472,0.49,-0.35,0.21,25.7248,-39.6892,-2.70708,1014.46
568184,-0.416069,9.79436,1.29603,0.35,-0.21,0.07,25.954,-38.9657,-3.1891,1014.46
568190,-0.334768,9.73218,1.28168,0.63,-0.35,0.28,26.5269,-39.0236,-3.14657,1014.41
568196,-0.349115,9.72262,1.32472,0.28,0.21,-0.07,26.1832,-39.5735,-3.94049,1014.41
568202,-0.416069,9.78001,1.28168,-0.21,0.14,0.21,25.7821,-39.6313,-3.72783,1014.45
568208,-0.392157,9.78479,1.28647,0.56,0,0.21,25.8394,-37.9239,-3.58606,1014.45
568214,-0.320421,9.78479,1.2769,0.28,0.14,0.07,26.1832,-38.9079,-2.62202,1014.46
568220,-0.320421,9.7274,1.3056,0.28,-0.35,0,25.5529,-40.1812,-2.76379,1014.46
568226,-0.373027,9.70349,1.36298,-0.21,-0.35,0.21,25.8108,-38.1844,-3.74201,1014.46
568232,-0.325203,9.73218,1.31038,0.21,0.21,0.21,26.355,-38.8211,-3.60024,1014.44
568238,-0.329986,9.71305,1.29603,0.21,0.7,0.14,25.6962,-39.6603,-2.67873,1014.44
568244,-0.406504,9.7561,1.32951,-0.91,0.42,-0.07,26.4123,-39.6313,-3.48682,1014.46
568250,-0.35868,9.50263,1.51602,0.98,0.28,-0.21,26.2405,-38.7921,-4.45087,1014.46
568256,-0.373027,9.79914,1.24342,0.98,0.14,-0.14,25.8967,-40.0654,-4.08226,1014.41
568262,-0.454328,9.7274,1.3056,0.42,-0.7,-0.35,26.1832,-39.5156,-3.28834,1014.41
568268,-0.35868,9.78479,1.23386,0.28,0.21,-0.07,26.7561,-38.7632,-3.75619,1014.42
568274,-0.37781,9.69392,1.37255,0.77,-0.14,-0.07,25.8394,-38.8789,-3.30252,1014.42
568280,-0.37781,9.67958,1.3869,0.49,0,-0.14,25.6675,-39.1973,-2.83467,1014.43
568286,-0.387374,9.76088,1.30081,0.98,-0.14,0,26.842,-38.9368,-3.3167,1014.43
568292,-0.454328,9.74175,1.32951,0.56,-0.42,-0.07,26.5556,-39.805,-3.8129,1014.42
568298,-0.37781,9.78001,1.29125,0.35,-0.56,0.28,26.0686,-40.6731,-3.62859,1014.42
568304,-0.363462,9.74175,1.3056,0.49,0.14,0.14,26.2691,-39.1973,-3.82707,1014.42
568310,-0.401722,9.74175,1.30081,0.56,0.35,0.28,26.6988,-38.7053,-3.98302,1014.43
568316,-0.396939,9.84696,1.23864,0.14,0.7,0.49,26.2977,-40.2101,-4.08226,1014.43
568322,-0.425634,9.85174,1.21951,-0.28,0.07,0.49,25.9253,-39.6603,-4.26657,1014.42
568328,-0.387374,9.69871,1.31994,-0.28,-0.28,0.35,26.2691,-38.9947,-3.85543,1014.42
568334,-0.315638,9.71305,1.34864,-0.42,-0.14,0.21,26.1545,-39.5156,-3.65695,1014.45
568340,-0.344333,9.6748,1.3869,-0.14,-0.21,0.49,26.3837,-39.805,-3.58606,1014.45
568346,-0.387374,9.69871,1.33907,0.7,0.35,0.28,26.3264,-38.85,-3.86961,1014.42
568352,-0.344333,9.72262,1.31038,0,0.07,0,26.441,-38.85,-3.61442,1014.42
568358,-0.406504,9.69871,1.37733,0,0.7,-0.07,25.9826,-39.9786,-2.52278,1014.46
568364,-0.387374,9.76088,1.31994,0.35,-0.07,0.14,26.2691,-39.2262,-3.94049,1014.46
568370,-0.368245,9.73697,1.27212,0.14,0.28,-0.21,26.2405,-39.313,-4.35163,1014.42
568376,-0.37781,9.74653,1.28168,-0.07,-0.21,0.14,25.8967,-40.6153,-3.08986,1014.42
568382,-0.344333,9.70349,1.32951,0.28,-0.28,0.21,26.6415,-39.8629,-2.55113,1014.42
568388,-0.37781,9.71784,1.35342,0.14,-0.49,0,26.8134,-38.9947,-3.95467,1014.46
568394,-0.329986,9.7274,1.31994,0.28,0.28,0,26.5842,-40.0075,-3.78454,1014.46
568400,-0.344333,9.73697,1.29125,0.49,0.07,0,26.441,-40.4416,-3.64277,1014.44
568406,-0.344333,9.74653,1.34385,0.28,0.35,-0.07,26.6702,-39.313,-3.34505,1014.44
568412,-0.363462,9.76088,1.32951,0.49,-0.14,0.21,27.2144,-39.805,-3.86961,1014.42
568418,-0.373027,9.77523,1.27212,-0.21,-0.49,0.21,26.9853,-40.6731,-3.30252,1014.42
568424,-0.315638,9.7561,1.28647,0.28,-0.28,0.35,26.842,-39.3709,-3.67113,1014.44
568430,-0.353898,9.75131,1.28168,-0.14,0,0.21,26.8134,-39.4288,-4.26657,1014.44
568436,-0.37781,9.74653,1.31038,-0.49,0,-0.07,25.8108,-39.6892,-3.86961,1014.46
568442,-0.349115,9.73218,1.33429,0.35,-0.28,-0.07,25.868,-41.0204,-4.8053,1014.46
568448,-0.325203,9.73218,1.31038,-0.07,0.35,0,27.0139,-38.6764,-4.28074,1014.43
568454,-0.396939,9.7561,1.31038,-0.49,0.35,-0.07,26.5842,-39.6024,-3.67113,1014.43
568460,-0.387374,9.73697,1.36298,0.84,0.07,0,27.0999,-39.9786,-3.3167,1014.45
568466,-0.33955,9.72262,1.32951,0.63,0.42,0.14,26.928,-39.2841,-4.29492,1014.45
568472,-0.387374,9.74653,1.31038,-0.07,-0.21,-0.14,26.3837,-39.313,-3.75619,1014.45
568478,-0.416069,9.73697,1.33429,0.35,-0.14,0.07,25.9826,-40.2969,-2.87721,1014.42
568484,-0.387374,9.74175,1.32472,0.35,0,0.35,26.2691,-39.9786,-3.71366,1014.42
568490,-0.454328,9.76088,1.32472,0.14,-0.42,0.07,27.2431,-39.1683,-4.05391,1014.45
568496,-0.411286,9.81349,1.29603,0.21,-0.42,0.91,26.6702,-40.6153,-2.76379,1014.45
568502,-0.396939,9.79436,1.24821,0.21,0.14,0.7,26.6988,-39.9207,-2.89138,1014.43
568508,-0.35868,9.77044,1.29603,-0.35,0.35,0.56,26.1259,-38.8211,-4.01138,1014.43
568514,-0.349115,9.7561,1.31516,-0.49,0.42,0.77,26.6702,-40.0944,-3.77037,1014.43
568520,-0.349115,9.72262,1.34864,-0.84,0.07,0.56,26.5269,-40.3548,-3.72783,1014.43
568526,-0.349115,9.72262,1.35342,-0.56,-0.42,0.63,25.9253,-38.2712,-4.25239,1014.45
568532,-0.353898,9.69871,1.32951,0.07,-0.35,0.63,26.5556,-39.342,-4.35163,1014.45
568538,-0.329986,9.71784,1.31994,-0.42,-0.21,0.07,26.1832,-40.7889,-4.33745,1014.45
568544,-0.329986,9.68436,1.36777,-0.35,0.42,0.56,26.2691,-39.6024,-4.1815,1014.45
568550,-0.320421,9.68914,1.3582,0.56,0.28,0,26.5269,-38.8211,-3.61442,1014.45
568556,-0.306074,9.71784,1.31994,0.21,0.35,0,25.8108,-39.9786,-3.55771,1014.43
568562,-0.387374,9.73218,1.3056,-0.14,-0.63,0.21,25.9826,-40.7021,-3.41594,1014.43
568568,-0.306074,9.71784,1.30081,0.35,-0.07,-0.42,26.2691,-38.9947,-3.85543,1014.39
568574,-0.329986,9.70827,1.32472,0.21,-0.28,0.07,25.868,-39.7471,-2.83467,1014.39
568580,-0.344333,9.6748,1.35342,-0.35,0.49,0,26.5556,-40.1812,-3.69948,1014.43
568586,-0.35868,9.71784,1.35342,0.42,0.49,-0.21,25.7821,-38.7053,-3.71366,1014.43
568592,-0.401722,9.7274,1.34385,0.28,-0.14,-0.21,26.0113,-39.0815,-3.9972,1014.42
568598,-0.382592,9.73218,1.33429,0.14,-0.49,-0.21,26.1545,-40.7021,-2.99062,1014.42
568604,-0.344333,9.69392,1.35342,0.7,-0.49,-0.21,25.7821,-38.2423,-3.75619,1014.43
568610,-0.306074,9.73218,1.34385,0.21,-0.14,-0.49,26.0113,-39.0236,-4.35163,1014.43
568616,-0.487805,9.81349,1.32951,0.35,0.07,0.42,26.7561,-39.805,-4.77694,1014.47
568622,-0.430416,9.85174,1.27212,0.28,-0.28,0.07,25.6962,-39.8339,-3.38758,1014.47
568628,-0.420851,9.79914,1.2769,0.14,0.14,0.21,26.4983,-39.3709,-3.89796,1014.44
568634,-0.349115,9.76566,1.2769,0.14,-0.63,0.63,25.8108,-40.4127,-3.67113,1014.44
568640,-0.334768,9.74175,1.35342,0.35,0,0.35,26.7847,-39.2262,-4.12479,1014.44
568646,-0.33955,9.7274,1.35342,0,-0.35,0,25.9826,-38.7342,-3.37341,1014.44
568652,-0.329986,9.71784,1.32951,0.56,0.21,0.56,26.2691,-39.5445,-3.65695,1014.44
568658,-0.310856,9.72262,1.29603,0.07,-0.14,0.21,26.2405,-40.5863,-3.41594,1014.42
568664,-0.306074,9.71305,1.29125,0,0.35,0.28,26.4983,-39.4577,-2.86303,1014.42
568670,-0.325203,9.71305,1.3056,0.21,-0.14,0.42,25.7248,-38.6764,-4.43669,1014.45
568676,-0.329986,9.68436,1.29603,-0.07,0.21,-0.28,26.3837,-40.3548,-3.61442,1014.45
568682,-0.35868,9.69392,1.35342,-0.14,-0.21,0.14,26.5269,-39.1973,-3.34505,1014.46
568688,-0.349115,9.71784,1.31994,0.28,-0.35,0.28,25.8967,-38.7053,-3.9972,1014.46
568694,-0.35868,9.77044,1.29603,0.28,-0.21,-0.35,26.0972,-39.8918,-3.74201,1014.45
568700,-0.37781,9.73218,1.28168,0,-0.42,0,26.2118,-39.9786,-3.54353,1014.45
568706,-0.33955,9.7274,1.34385,0.14,0.35,0.14,26.0686,-39.6024,-2.6929,1014.45
568712,-0.392157,9.78479,1.31994,0.49,-0.14,-0.14,26.355,-39.2551,-3.1891,1014.45
568718,-0.387374,9.7561,1.33907,0.35,0.14,0.21,26.1545,-40.1522,-2.96227,1014.45
568724,-0.387374,9.75131,1.35342,0,-0.49,0.21,26.2691,-39.4288,-4.77694,1014.43
568730,-0.396939,9.76566,1.33907,0.21,-0.14,0.35,26.1259,-39.0815,-3.67113,1014.43
568736,-0.320421,9.73697,1.34385,0.07,-0.56,0.42,26.2118,-40.0654,-3.91214,1014.4
568742,-0.320421,9.73218,1.36777,0.21,-0.42,0.42,25.8108,-40.4416,-3.25999,1014.4
568748,-0.33955,9.69871,1.36777,0.35,-0.49,0.21,26.4123,-38.2423,-4.25239,1014.45
568754,-0.35868,9.70349,1.34864,0.98,-0.07,0.28,26.0399,-39.805,-4.35163,1014.45
568760,-0.301291,9.73697,1.33429,0.14,0.7,0.28,25.4383,-40.1812,-4.19568,1014.46
568766,-0.35868,9.7274,1.31038,0.63,0,-0.07,25.8394,-38.85,-3.82707,1014.46
568772,-0.325203,9.7561,1.29125,0.28,0.49,0,26.4983,-39.1104,-3.86961,1014.44
568778,-0.310856,9.71784,1.3056,0.21,0.21,-0.14,25.3524,-40.5863,-3.17493,1014.44
568784,-0.33955,9.74175,1.27212,0.56,0.91,0,26.2977,-39.1394,-3.33087,1014.44
568790,-0.329986,9.73697,1.30081,0.77,0,-0.07,25.868,-39.2262,-3.65695,1014.44
568796,-0.353898,9.74653,1.31994,0.07,-0.49,-0.56,26.3837,-40.1233,-3.24581,1014.44
568802,-0.416069,9.76566,1.31038,-0.07,-0.21,0.07,25.6102,-39.6892,-3.14657,1014.43
568808,-0.35868,9.77044,1.3056,0.21,-0.42,-0.07,26.3264,-38.7632,-3.23163,1014.43
568814,-0.35868,9.77523,1.31994,-0.7,0.14,-0.07,25.954,-40.2101,-3.1891,1014.43
568820,-0.35868,9.70349,1.3582,0.28,-0.49,0,26.2405,-40.4706,-3.33087,1014.43
568826,-0.37781,9.71305,1.39646,0,-0.14,-0.07,26.1259,-38.7342,-4.43669,1014.47
568832,-0.306074,9.6748,1.42994,0.21,-0.21,-0.14,26.0399,-39.6603,-4.1815,1014.47
568838,-0.310856,9.70349,1.37255,0.7,-0.21,0.14,26.5269,-40.2101,-3.89796,1014.41
568844,-0.296509,9.70827,1.35342,0.35,-0.49,-0.35,26.0113,-39.2551,-4.69188,1014.41
568850,-0.353898,9.70827,1.37255,0.77,0.07,-0.07,26.2691,-39.5156,-4.42251,1014.41
568856,-0.334768,9.73697,1.32472,0.35,-0.21,-0.14,26.2118,-40.0365,-4.66353,1014.41
568862,-0.325203,9.73218,1.31038,0.14,0.42,-0.28,26.0686,-39.1973,-3.67113,1014.45
568868,-0.315638,9.7274,1.3056,0.35,0.21,-0.21,25.7821,-39.0526,-3.62859,1014.45
568874,-0.310856,9.7561,1.2769,0.14,0.35,-0.56,26.0686,-40.268,-4.06809,1014.45
568880,-0.353898,9.70827,1.33429,0.21,0.14,-0.35,25.3238,-40.1522,-3.9972,1014.45
568886,-0.325203,9.7274,1.31994,0.07,-0.21,-0.42,25.8108,-38.0976,-3.96885,1014.45
568892,-0.353898,9.78001,1.29603,0.35,0.07,-0.42,26.5556,-38.9368,-4.19568,1014.42
568898,-0.382592,9.7561,1.33907,-0.21,0.07,-0.42,25.4097,-39.9207,-2.56531,1014.42
568904,-0.320421,9.73697,1.31516,-0.14,-0.14,0.21,26.6415,-39.313,-3.501,1014.39
568910,-0.363462,9.75131,1.31994,-0.49,-0.14,-0.42,26.4123,-38.8211,-5.00378,1014.39
568916,-0.349115,9.76566,1.26734,-0.7,-0.07,0.14,26.5556,-40.3548,-2.63619,1014.44
568922,-0.382592,9.72262,1.31994,-0.42,-0.21,0.35,26.6988,-40.3838,-3.23163,1014.44
568928,-0.349115,9.73218,1.33907,0,-0.28,-0.21,26.6129,-38.7921,-4.52175,1014.43
568934,-0.35868,9.73218,1.36298,-0.42,-0.28,0.14,27.2717,-39.9497,-4.12479,1014.43
568940,-0.349115,9.69871,1.3869,-0.14,0.28,0.42,26.7274,-40.4706,-4.86201,1014.43
568946,-0.349115,9.69392,1.36777,0.42,-0.21,-0.42,26.6988,-39.0526,-4.26657,1014.43
568952,-0.368245,9.72262,1.34864,0.07,0.14,0.21,27.0712,-39.2262,-3.38758,1014.47
568958,-0.334768,9.73697,1.33429,0.35,0.07,0.42,26.2118,-40.2101,-3.44429,1014.47
568964,-0.406504,9.76088,1.36777,0.42,-0.14,0,26.1832,-39.9207,-3.71366,1014.47
568970,-0.363462,9.74175,1.31038,0.14,0.28,0.21,26.6415,-38.0108,-3.07569,1014.42
568976,-0.396939,9.74175,1.35342,-0.21,-0.21,0.21,25.8394,-40.3838,-3.62859,1014.42
568982,-0.33955,9.76088,1.30081,0.28,0.49,0.21,25.3238,-39.4866,-3.01898,1014.44
568988,-0.291726,9.7561,1.30081,0.07,-0.35,0.07,25.7535,-38.8789,-2.70708,1014.44
568994,-0.329986,9.71784,1.32951,0.28,-0.42,0.49,26.1545,-40.0365,-4.09644,1014.45
569000,-0.329986,9.71784,1.34385,0.14,0.07,0.14,25.5529,-39.4577,-3.85543,1014.45
569006,-0.310856,9.73218,1.32951,-0.07,-0.35,0.14,25.7821,-39.3998,-3.79872,1014.43
569012,-0.301291,9.71305,1.35342,0.21,0.14,-0.28,26.4123,-39.5156,-3.43011,1014.43
569018,-0.325203,9.70827,1.34385,0.07,-0.07,-0.35,26.441,-40.8178,-3.86961,1014.46
569024,-0.33955,9.66523,1.41559,0.84,0.42,-0.35,25.8394,-39.1973,-3.44429,1014.46
569030,-0.392157,9.70349,1.36777,0.63,0.07,-0.21,26.6988,-39.2551,-4.06809,1014.43
569036,-0.344333,9.7274,1.33429,1.12,0.21,-0.21,25.9826,-39.8918,-3.28834,1014.43
569042,-0.349115,9.71305,1.33907,1.12,0.07,-0.42,26.4696,-40.6731,-2.77797,1014.43
569048,-0.325203,9.7274,1.33429,0.49,-0.21,-0.63,25.8108,-39.0236,-4.79112,1014.45
569054,-0.33955,9.71305,1.33907,0.77,-0.21,-0.14,26.7274,-40.2969,-3.51518,1014.45
569060,-0.37781,9.77044,1.31994,0.56,-0.28,-0.49,25.868,-40.8468,-3.38758,1014.42
569066,-0.387374,9.77044,1.32472,0.84,-0.49,-0.35,26.6988,-38.5606,-3.06151,1014.42
569072,-0.334768,9.75131,1.31038,0.42,-0.77,-0.35,26.5556,-38.8789,-3.98302,1014.41
569078,-0.33955,9.69871,1.37255,0.7,-0.21,-0.56,26.2405,-40.0365,-4.16733,1014.41
569084,-0.33955,9.7274,1.37255,0.84,0.21,-0.42,26.4123,-39.6313,-2.5086,1014.45
569090,-0.35868,9.74175,1.31994,0.49,-0.21,-0.42,26.928,-39.1683,-4.40834,1014.45
569096,-0.344333,9.7274,1.34385,0.63,0.07,-0.42,26.3264,-40.0944,-2.86303,1014.43
569102,-0.301291,9.7274,1.34864,0.98,-0.14,-0.63,26.0686,-39.6024,-4.12479,1014.43
569108,-0.329986,9.7274,1.3582,0.77,-0.07,-0.49,26.5556,-39.0815,-3.08986,1014.42
569114,-0.344333,9.71305,1.3582,1.19,-0.07,-0.56,26.3837,-40.2969,-3.58606,1014.42
569120,-0.35868,9.73218,1.29603,0.91,-0.21,-0.56,26.6415,-40.5285,-2.55113,1014.45
569126,-0.329986,9.76566,1.31038,0.56,0.07,-0.49,25.6102,-39.0236,-2.66455,1014.45
569132,-0.33955,9.77044,1.28647,0.28,-0.07,-0.42,27.0999,-39.1683,-3.03315,1014.45
569138,-0.334768,9.7561,1.29125,0.63,-0.42,-0.14,26.7561,-41.194,-4.02555,1014.44
569144,-0.35868,9.74653,1.32951,-0.07,-0.21,-0.42,26.6988,-39.0815,-3.501,1014.44
569150,-0.37781,9.75131,1.31516,0.07,-0.63,-0.28,26.6988,-38.9947,-4.74859,1014.44
569156,-0.344333,9.73218,1.31516,0.63,0.28,0,26.2405,-39.776,-3.60024,1014.44
569162,-0.320421,9.71305,1.34385,0.14,-0.14,-0.7,25.5243,-40.1522,-2.52278,1014.42
569168,-0.315638,9.70827,1.39168,0.35,0.28,-0.14,26.5556,-38.7053,-3.82707,1014.42
569174,-0.392157,9.70827,1.3582,0.35,0.21,-0.42,26.0686,-39.805,-3.72783,1014.46
569180,-0.392157,9.72262,1.33907,0.49,0.28,0.07,26.5842,-40.5863,-2.87721,1014.46
569186,-0.37781,9.72262,1.37255,0.91,-0.35,-0.14,26.441,-39.0815,-3.38758,1014.43
569192,-0.210426,9.77044,1.19082,1.12,-0.07,-0.21,25.7248,-39.1973,-3.86961,1014.43
569198,-0.334768,9.80392,1.22908,-0.56,0.56,0,25.9826,-41.1362,-3.14657,1014.43
569204,-0.382592,9.66045,1.41559,0.14,-0.7,-0.35,27.0999,-39.5445,-2.5086,1014.43
569210,-0.282162,9.71305,1.33429,0.77,0.07,-0.35,26.8134,-39.6313,-3.62859,1014.43
569216,-0.33955,9.67001,1.41559,0.77,-0.56,-0.56,26.6988,-40.2391,-3.34505,1014.45
569222,-0.315638,9.74175,1.26734,0.63,0.42,-0.7,26.1832,-39.4866,-2.59366,1014.45
569228,-0.320421,9.72262,1.31994,1.05,0,-0.77,27.0712,-38.4738,-3.65695,1014.42
569234,-0.353898,9.70349,1.34385,0.98,-0.07,-0.7,26.8707,-39.8629,-2.29594,1014.42
569240,-0.325203,9.70827,1.31516,0.56,0,-0.77,26.2977,-40.1522,-2.97645,1014.42
569246,-0.382592,9.73218,1.32472,0.84,-0.63,-0.77,26.441,-38.1555,-3.34505,1014.42
569252,-0.35868,9.7274,1.31516,0.42,-0.07,-0.77,26.5842,-38.6185,-3.06151,1014.4
569258,-0.392157,9.78479,1.29603,0.14,-0.49,-1.19,25.6102,-41.0204,-3.67113,1014.4
569264,-0.306074,9.73218,1.31038,0.91,-0.14,-0.63,26.2405,-39.342,-3.45847,1014.45
569270,-0.35868,9.72262,1.31516,0.49,-0.63,-0.98,26.0972,-38.9079,-3.8129,1014.45
569276,-0.373027,9.7274,1.37255,0.28,0.28,-0.84,26.6415,-40.4127,-3.96885,1014.43
569282,-0.449546,9.76566,1.33907,0.84,0.21,-0.56,26.5556,-39.7182,-2.87721,1014.43
569288,-0.392157,9.73218,1.32951,0.84,-0.28,-0.98,26.5556,-38.358,-3.62859,1014.43
569294,-0.315638,9.75131,1.31038,0.91,0.42,-0.49,26.1832,-40.2391,-3.51518,1014.41
569300,-0.363462,9.74653,1.29603,0.91,-0.07,-0.56,26.355,-39.8918,-2.90556,1014.41
569306,-0.344333,9.7274,1.3056,1.26,0.21,-0.63,26.3264,-38.6474,-3.88378,1014.42
569312,-0.396939,9.74175,1.31994,0.98,-0.84,-0.35,25.8394,-38.8789,-3.61442,1014.42
569318,-0.325203,9.7561,1.33429,0.91,-0.14,-0.56,25.5816,-39.9497,-3.03315,1014.41
569324,-0.329986,9.7274,1.32951,0.7,-0.56,-0.63,26.0113,-39.4577,-3.27417,1014.41
569330,-0.334768,9.69392,1.34385,1.05,-0.07,-0.84,26.2977,-39.0236,-2.63619,1014.42
569336,-0.382592,9.70827,1.34385,1.12,0.21,-0.91,26.4696,-40.4127,-3.16075,1014.42
569342,-0.373027,9.73697,1.31994,1.26,0.21,-0.49,26.4123,-39.2841,-4.08226,1014.42
569348,-0.344333,9.72262,1.31994,0.84,-0.28,-1.26,26.2405,-38.9368,-3.44429,1014.42
569354,-0.344333,9.71784,1.29603,0.7,-0.49,-1.26,25.868,-39.6024,-3.13239,1014.4
569360,-0.325203,9.74175,1.28647,1.61,-0.14,-0.84,25.1805,-40.2101,-3.57189,1014.4
569366,-0.387374,9.73697,1.31038,0.84,-0.49,-1.12,26.0686,-38.8211,-3.65695,1014.46
569372,-0.387374,9.74653,1.31038,0.49,-0.07,-1.05,26.842,-38.8789,-3.01898,1014.46
569378,-0.387374,9.77044,1.3056,0.98,-0.35,-0.77,26.5269,-40.1812,-2.76379,1014.46
569384,-0.420851,9.78001,1.2769,0.77,-0.14,-0.84,26.1545,-39.1394,-4.23821,1014.45
569390,-0.368245,9.73218,1.31516,0.84,0.07,-0.84,26.1545,-38.0686,-4.74859,1014.45
569396,-0.416069,9.75131,1.31994,0.91,0.14,-0.63,25.8967,-39.6024,-3.43011,1014.42
569402,-0.449546,9.77044,1.31994,1.12,0.35,-0.42,26.1832,-39.313,-3.43011,1014.42
569408,-0.382592,9.77044,1.30081,0.7,-0.21,-0.56,26.1259,-38.4159,-4.4934,1014.44
569414,-0.344333,9.72262,1.28647,0.63,0.49,-0.49,26.3264,-39.5445,-4.6777,1014.44
569420,-0.315638,9.72262,1.34864,1.05,-0.49,-0.84,26.0972,-39.7471,-3.23163,1014.45
569426,-0.325203,9.75131,1.29603,0.42,-0.49,-0.63,26.441,-38.3291,-3.89796,1014.45
569432,-0.387374,9.74175,1.31516,0.84,-0.49,-0.49,26.0686,-38.6474,-3.16075,1014.49
569438,-0.363462,9.73697,1.29603,0.56,-0.21,-0.77,26.441,-40.4127,-3.64277,1014.49
569444,-0.329986,9.74175,1.29603,0.77,0.49,-0.84,26.1259,-38.9947,-2.05493,1014.44
569450,-0.344333,9.72262,1.31516,0.56,-0.07,-1.26,26.6129,-38.5895,-3.52935,1014.44
569456,-0.396939,9.77044,1.24342,0.56,0.21,-0.7,26.0399,-39.9786,-3.95467,1014.44
569462,-0.392157,9.72262,1.33907,0.84,-0.21,-0.77,25.5243,-39.8339,-4.03973,1014.43
569468,-0.344333,9.73697,1.33429,0.77,0.14,-0.91,26.6702,-37.895,-3.86961,1014.43
569474,-0.35868,9.70349,1.31516,1.12,-0.49,-0.98,26.4123,-39.3998,-2.63619,1014.41
569480,-0.349115,9.74653,1.25777,0.63,-0.14,-0.56,25.9826,-40.2101,-3.03315,1014.41
569486,-0.487805,9.79914,1.31994,0.77,-0.28,-0.84,26.2977,-38.8789,-4.81947,1014.43
569492,-0.396939,9.77044,1.26255,0.84,-0.21,-0.63,26.0686,-39.805,-4.08226,1014.43
569498,-0.425634,9.7561,1.30081,0.7,-0.84,-0.84,26.0399,-40.268,-3.77037,1014.44
569504,-0.425634,9.70827,1.34864,1.19,-0.21,-0.28,26.4696,-38.9947,-3.82707,1014.44
569510,-0.363462,9.74653,1.29125,0.56,-0.21,-0.56,26.0686,-39.1973,-4.63517,1014.45
569516,-0.33955,9.70349,1.31994,0.91,-0.42,-0.42,25.8394,-40.2101,-3.28834,1014.45
569522,-0.349115,9.69392,1.36298,0.98,-0.14,-0.56,25.9253,-39.0236,-3.41594,1014.46
569528,-0.291726,9.67958,1.34385,1.05,0,-0.84,26.5842,-38.6474,-4.13897,1014.46
569534,-0.363462,9.71784,1.36298,1.12,0.35,-1.12,26.0686,-40.1522,-3.40176,1014.41
569540,-0.368245,9.73218,1.27212,1.19,-0.35,-0.98,26.3264,-40.5285,-3.94049,1014.41
569546,-0.368245,9.73697,1.26734,1.47,0.21,-1.19,25.9826,-38.6185,-3.60024,1014.41
569552,-0.363462,9.77044,1.21473,0.91,0,-0.98,26.2118,-39.3709,-3.78454,1014.44
569558,-0.353898,9.79436,1.21951,0.14,0.35,-1.4,26.7561,-40.4995,-3.94049,1014.44
569564,-0.396939,9.77523,1.24342,0.35,-0.42,-0.91,27.0139,-39.6892,-3.9972,1014.45
569570,-0.35868,9.73697,1.29603,0.35,-0.35,-1.05,26.441,-39.342,-3.45847,1014.45
569576,-0.406504,9.68914,1.34864,0.56,-0.56,-0.98,25.8967,-40.3548,-2.42354,1014.45
569582,-0.37781,9.68914,1.33907,0.7,-0.35,-0.7,25.5243,-40.8757,-3.85543,1014.45
569588,-0.444763,9.7274,1.31516,0.77,0.63,-1.12,26.6988,-38.9657,-3.45847,1014.44
569594,-0.454328,9.72262,1.32472,0.77,0.14,-0.84,26.4123,-40.0654,-3.04733,1014.44
569600,-0.468675,9.7561,1.31994,1.61,0,-0.84,25.868,-39.9786,-1.75721,1014.41
569606,-0.454328,9.78479,1.31994,1.33,-0.91,-0.35,26.842,-39.2262,-3.77037,1014.41
569612,-0.392157,9.76566,1.28647,0.84,-0.63,-0.56,26.928,-39.0236,-4.53593,1014.41
569618,-0.37781,9.76088,1.28168,1.05,-0.49,-0.42,26.7274,-40.268,-3.51518,1014.41
569624,-0.411286,9.71305,1.34864,1.26,-0.14,-0.77,26.2118,-39.0526,-2.79214,1014.41
569630,-0.401722,9.70827,1.35342,0.98,-0.49,-0.42,26.6702,-38.8211,-4.93289,1014.42
569636,-0.373027,9.74175,1.3056,1.33,0.21,-0.77,26.2118,-40.3548,-2.74961,1014.42
569642,-0.368245,9.71784,1.31038,1.19,0.42,-0.91,25.7535,-39.4866,-2.96227,1014.45
569648,-0.387374,9.72262,1.3056,1.4,0.49,-0.84,26.5556,-38.9368,-3.54353,1014.45
569654,-0.396939,9.7274,1.31516,1.33,0.35,-0.77,26.5269,-39.342,-3.62859,1014.43
569660,-0.37781,9.74653,1.27212,0.56,-0.28,-0.84,26.5842,-39.2262,-4.09644,1014.43
569666,-0.392157,9.73218,1.28168,1.19,0.21,-0.98,25.3524,-39.8918,-4.90454,1014.41
569672,-0.382592,9.75131,1.30081,0.84,-0.49,-0.91,26.4123,-38.5895,-3.57189,1014.41
569678,-0.392157,9.71784,1.26734,1.19,-0.21,-1.12,26.0686,-40.3838,-2.70708,1014.41
569684,-0.401722,9.75131,1.26734,0.7,-0.42,-1.12,26.2977,-39.9786,-2.94809,1014.41
569690,-0.396939,9.77523,1.22908,0.63,-0.28,-1.33,26.5556,-38.5317,-4.37998,1014.42
569696,-0.420851,9.76566,1.25299,0.91,0.35,-0.84,26.9566,-40.3838,-4.22403,1014.42
569702,-0.37781,9.73697,1.2769,0.56,-0.07,-0.98,26.7561,-40.0944,-3.65695,1014.42
569708,-0.416069,9.69871,1.31516,0.91,0.49,-0.77,27.1858,-39.0236,-3.8129,1014.43
569714,-0.416069,9.69392,1.32951,1.05,-0.14,-0.77,27.5009,-40.0365,-3.8129,1014.43
569720,-0.439981,9.77523,1.24342,0.56,0.28,-0.56,26.928,-40.2101,-2.96227,1014.44
569726,-0.468675,9.78957,1.31516,0.42,-0.7,-0.84,27.0712,-38.7921,-4.22403,1014.44
569732,-0.396939,9.75131,1.27212,0.63,-0.56,-0.63,26.5556,-38.4159,-3.08986,1014.42
569738,-0.368245,9.73218,1.30081,0.77,-0.49,-1.05,26.441,-40.8757,-4.01138,1014.42
569744,-0.411286,9.70349,1.32472,0.91,-0.35,-0.91,27.0712,-39.4577,-3.64277,1014.45
569750,-0.368245,9.71305,1.31994,1.4,0.07,-0.63,26.6702,-38.5895,-3.86961,1014.45
569756,-0.387374,9.7274,1.30081,1.26,-0.28,-1.26,26.8707,-40.3259,-3.51518,1014.47
569762,-0.37781,9.70349,1.28647,1.05,0.49,-1.05,25.9253,-39.776,-3.69948,1014.47
569768,-0.368245,9.7274,1.33429,1.54,0.28,-0.91,26.4123,-39.2551,-3.71366,1014.46
569774,-0.382592,9.7274,1.28168,1.4,0.63,-1.4,26.4983,-39.8918,-3.71366,1014.46
569780,-0.353898,9.7561,1.22908,1.19,0.28,-0.84,26.1832,-40.3548,-3.01898,1014.42
569786,-0.396939,9.78479,1.23864,1.19,-0.49,-1.12,26.6988,-39.2262,-4.19568,1014.42
569792,-0.435198,9.74653,1.25777,1.05,-0.14,-1.26,26.0399,-38.6185,-3.78454,1014.42
569798,-0.425634,9.70827,1.33907,1.19,-0.7,-1.05,26.0113,-39.6313,-2.87721,1014.45
569804,-0.406504,9.68914,1.31994,1.12,-0.14,-1.12,26.4983,-38.9947,-3.86961,1014.45
569810,-0.444763,9.73697,1.3056,1.4,-0.56,-1.05,27.0712,-38.6764,-3.71366,1014.46
569816,-0.454328,9.7561,1.26734,1.05,-0.21,-0.84,26.6415,-40.4416,-3.28834,1014.46
569822,-0.449546,9.75131,1.23864,1.12,0.14,-0.98,27.2144,-40.1233,-3.79872,1014.46
569828,-0.468675,9.75131,1.28168,0.84,-0.35,-0.56,26.6988,-38.9079,-3.11822,1014.46
569834,-0.401722,9.75131,1.27212,1.33,0.07,-0.77,27.5582,-39.8629,-3.27417,1014.44
569840,-0.444763,9.75131,1.28168,1.12,0.42,-0.91,26.355,-40.5863,-2.18253,1014.44
569846,-0.444763,9.73697,1.31994,1.26,-0.07,-0.98,26.5556,-38.4738,-3.61442,1014.48
569852,-0.439981,9.73697,1.26734,0.91,0.14,-0.42,27.2144,-38.5027,-3.64277,1014.48
569858,-0.425634,9.72262,1.29603,1.4,-0.49,-0.7,26.842,-40.1233,-2.91974,1014.47
569864,-0.406504,9.73697,1.27212,1.26,0.21,-0.77,26.8134,-39.2262,-3.11822,1014.47
569870,-0.483022,9.75131,1.27212,1.19,-0.91,-0.77,27.1571,-38.0686,-4.1815,1014.47
569876,-0.420851,9.77044,1.22908,0.84,-0.77,-0.56,26.9853,-39.4288,-2.91974,1014.45
569882,-0.430416,9.79436,1.22429,1.26,-0.84,-0.35,26.4123,-40.0654,-3.10404,1014.45
569888,-0.406504,9.7561,1.24342,0.91,-0.28,-0.42,26.7847,-39.5156,-3.75619,1014.39
569894,-0.406504,9.78479,1.24821,0.63,0.56,-0.77,26.4696,-40.1522,-3.01898,1014.39
569900,-0.439981,9.7274,1.28647,1.19,0.07,-0.35,26.2118,-39.9786,-2.89138,1014.42
569906,-0.411286,9.7274,1.28168,1.05,0.35,-0.77,26.2405,-38.1265,-3.65695,1014.42
569912,-0.435198,9.7274,1.2769,0.98,0,-0.49,26.2405,-38.85,-4.08226,1014.43
569918,-0.439981,9.75131,1.23864,0.56,0.28,-0.28,26.9566,-39.8918,-4.23821,1014.43
569924,-0.473458,9.77044,1.24342,0.7,0.14,-0.07,26.8134,-39.6313,-3.51518,1014.45
569930,-0.45911,9.7561,1.25299,0.98,-0.14,-0.07,27.1858,-39.2841,-4.03973,1014.45
569936,-0.430416,9.73218,1.27212,0.21,0.07,-0.42,26.9566,-40.0075,-3.72783,1014.45
569942,-0.463893,9.71305,1.32951,0.77,-0.21,-0.28,27.0139,-40.1812,-3.35923,1014.45
569948,-0.449546,9.76088,1.2769,1.05,-0.77,-0.56,27.3004,-38.5895,-4.23821,1014.45
569954,-0.463893,9.7274,1.30081,0.56,-0.21,-0.14,26.4983,-39.2551,-3.1891,1014.42
569960,-0.396939,9.74175,1.2769,0.49,-0.84,-0.42,26.5842,-40.7021,-3.23163,1014.42
569966,-0.396939,9.70827,1.31038,0.77,0.28,-0.21,26.842,-38.9079,-4.39416,1014.45
569972,-0.420851,9.76088,1.25777,0.98,-0.42,-0.28,27.2431,-38.4159,-4.09644,1014.45
569978,-0.420851,9.7274,1.23864,0.84,0.49,-0.28,26.6988,-39.6024,-3.55771,1014.46
569984,-0.435198,9.74653,1.26255,0.42,0.63,-0.35,26.7274,-38.9079,-3.3167,1014.46
569990,-0.416069,9.7561,1.25777,1.12,0.42,-0.49,26.4696,-38.0397,-3.501,1014.46
569996,-0.396939,9.7274,1.25299,0.91,0.7,-0.35,26.0972,-39.6603,-2.83467,1014.46
570002,-0.435198,9.76566,1.17647,0.21,-0.07,-0.56,27.0999,-40.3259,-3.30252,1014.43
570008,-0.435198,9.62697,1.39646,1.12,-0.07,-0.77,27.4436,-38.2712,-4.01138,1014.43
570014,-0.396939,9.72262,1.26734,1.33,0.07,-0.84,26.2977,-39.5735,-3.75619,1014.44
570020,-0.502152,9.75131,1.27212,1.19,-0.07,-0.42,26.6415,-40.76,-3.61442,1014.44
570026,-0.549976,9.84696,1.15734,1.26,0,0,26.3264,-38.5317,-3.25999,1014.4
570032,-0.506934,9.89479,1.14778,0.7,-0.07,0.21,27.0426,-39.1683,-3.98302,1014.4
570038,-0.47824,9.7561,1.26255,-0.07,-0.07,0.49,26.1832,-40.5863,-3.67113,1014.4
570044,-0.444763,9.78957,1.27212,0.63,0,0.56,26.5842,-38.7921,-4.97542,1014.42
570050,-0.444763,9.81349,1.22908,0.35,0.35,0.98,26.5556,-39.2262,-4.19568,1014.42
570056,-0.47824,9.76566,1.23386,-0.28,-0.21,0.63,26.1832,-39.8339,-2.55113,1014.42
570062,-0.401722,9.76088,1.25299,0.28,-0.28,0.7,26.355,-40.0654,-3.74201,1014.42
570068,-0.406504,9.67958,1.31516,0.35,-0.14,0.42,25.9253,-38.7632,-4.20986,1014.45
570074,-0.411286,9.6748,1.3582,0.56,0.49,0.28,26.2691,-39.9207,-3.25999,1014.45
570080,-0.401722,9.67958,1.3056,0.91,0.28,0.49,26.4696,-40.268,-3.41594,1014.43
570086,-0.396939,9.69871,1.28647,0.98,0.28,0.14,26.5556,-39.0236,-2.86303,1014.43
570092,-0.406504,9.70827,1.28168,0.56,0.21,-0.14,26.5556,-39.4288,-4.25239,1014.43
570098,-0.387374,9.7274,1.26255,1.05,0.21,-0.49,25.5816,-40.4416,-3.03315,1014.43
570104,-0.420851,9.73218,1.2769,0.84,0.14,-0.42,26.8707,-39.2841,-3.71366,1014.41
570110,-0.45911,9.78957,1.23864,0.42,-0.28,0.07,26.6702,-38.85,-3.92631,1014.41
570116,-0.487805,9.88522,1.18604,0.49,-0.07,0.42,26.7274,-39.6603,-2.36683,1014.41
570122,-0.468675,9.92826,1.09995,0.42,-0.07,0.56,27.0139,-39.6313,-3.25999,1014.47
570128,-0.506934,9.88044,1.17647,-0.7,0.56,0.91,26.842,-39.0526,-3.47265,1014.47
570134,-0.430416,9.7561,1.28647,-0.14,0.14,0.7,27.3577,-39.9786,-2.99062,1014.46
570140,-0.435198,9.73218,1.32951,0.28,0.42,0.77,26.2691,-40.3548,-3.37341,1014.46
570146,-0.483022,9.73697,1.30081,0.07,-0.07,0.7,26.1259,-38.6185,-4.01138,1014.4
570152,-0.530846,9.82305,1.22908,-0.07,0.49,0.91,26.8993,-39.1973,-3.77037,1014.4
570158,-0.45911,9.72262,1.26255,-0.07,0.21,1.33,27.0999,-40.5863,-3.03315,1014.43
570164,-0.37781,9.72262,1.31038,0.28,-0.35,1.33,26.5269,-39.4577,-2.96227,1014.43
570170,-0.401722,9.69871,1.3056,0.07,0,1.4,26.8993,-38.4738,-3.04733,1014.45
570176,-0.382592,9.7561,1.24342,-0.14,-0.28,1.33,26.7847,-40.4416,-2.86303,1014.45
570182,-0.368245,9.76566,1.22908,-0.14,0.21,0.84,26.2118,-39.342,-2.8205,1014.43
570188,-0.387374,9.72262,1.26734,-0.63,0.07,1.12,27.2431,-37.8661,-3.37341,1014.43
570194,-0.382592,9.68436,1.28168,-0.28,0.56,0.98,26.4123,-39.1104,-2.73543,1014.43
570200,-0.382592,9.68914,1.29125,0,0.07,1.26,25.7535,-40.4127,-3.21746,1014.44
570206,-0.396939,9.71784,1.2769,0,0.56,0.63,26.0399,-39.313,-3.86961,1014.44
570212,-0.425634,9.74653,1.24821,-0.28,-0.42,0.63,26.6129,-39.1683,-2.97645,1014.45
570218,-0.353898,9.69392,1.28647,-0.14,0.14,0.56,27.0999,-40.5863,-3.1891,1014.45
570224,-0.382592,9.69392,1.26734,0.14,-0.21,0.14,26.7274,-39.4866,-3.41594,1014.43
570230,-0.392157,9.68436,1.30081,0.42,0.28,0.07,26.355,-38.6185,-4.20986,1014.43
570236,-0.439981,9.73697,1.28168,0.35,-0.42,0.35,26.3264,-40.4127,-3.16075,1014.44
570242,-0.406504,9.77044,1.20995,-0.21,0.42,0.56,26.441,-40.5863,-3.72783,1014.44
570248,-0.492587,9.81349,1.20516,-0.21,-0.42,0.91,26.0399,-38.8789,-3.45847,1014.44
570254,-0.430416,9.80392,1.23386,0.07,-0.49,0.7,26.441,-39.8918,-3.3167,1014.44
570260,-0.435198,9.76566,1.25777,-0.07,-0.28,0.77,26.6988,-41.0783,-3.08986,1014.46
570266,-0.47824,9.8374,1.20038,-0.42,0.07,0.98,26.5842,-38.7921,-3.71366,1014.46
570272,-0.473458,9.81349,1.20995,-0.77,0.42,0.98,26.8134,-39.6892,-3.48682,1014.44
570278,-0.45911,9.81349,1.22429,-0.42,0.14,0.98,26.6415,-40.2391,-2.36683,1014.44
570284,-0.334768,9.73697,1.26255,-0.77,0.63,1.05,26.2691,-38.8211,-3.37341,1014.44
570290,-0.315638,9.61741,1.33907,-0.77,-0.21,0.63,26.355,-38.7921,-4.22403,1014.42
570296,-0.349115,9.68914,1.32472,0.14,1.12,0.56,26.0399,-40.0944,-3.43011,1014.42
570302,-0.411286,9.68914,1.34864,-0.35,-0.14,0.21,26.7847,-40.2969,-2.89138,1014.43
570308,-0.363462,9.70349,1.28168,-0.35,0,0.28,26.4696,-38.85,-4.20986,1014.43
570314,-0.334768,9.70349,1.3056,0.49,-0.14,0.21,27.1571,-39.6024,-3.16075,1014.46
570320,-0.392157,9.69392,1.30081,0.14,-0.07,0.21,26.842,-40.8468,-2.40936,1014.46
570326,-0.33955,9.69392,1.27212,0.21,0.21,-0.07,26.441,-37.5188,-2.72126,1014.45
570332,-0.392157,9.70349,1.30081,0.7,0.07,0.21,26.4983,-38.85,-2.97645,1014.45
570338,-0.401722,9.70827,1.26255,0.28,0.21,-0.07,26.2691,-39.6603,-3.33087,1014.44
570344,-0.382592,9.71305,1.28647,0.35,0.49,-0.21,26.3837,-39.5735,-2.67873,1014.44
570350,-0.411286,9.7274,1.28647,0.91,0.35,-0.07,26.1545,-38.2712,-4.05391,1014.44
570356,-0.411286,9.75131,1.21951,0.42,0.35,-0.56,26.6988,-39.9786,-3.07569,1014.44
570362,-0.47824,9.8087,1.23386,0.35,-0.42,0,26.0399,-39.7471,-3.78454,1014.44
570368,-0.454328,9.81349,1.21951,0.14,0.07,0.14,26.1259,-39.2262,-3.48682,1014.44
570374,-0.37781,9.78957,1.24821,-0.07,-0.7,0.35,26.441,-39.9497,-3.38758,1014.44
570380,-0.401722,9.77523,1.20995,-0.21,-0.42,0.63,26.8134,-39.9497,-3.95467,1014.42
570386,-0.463893,9.7561,1.26255,-0.35,-0.7,0.49,26.0113,-39.2551,-3.30252,1014.42
570392,-0.439981,9.74175,1.29603,-0.28,-0.28,0.77,26.0399,-38.6474,-4.16733,1014.44
570398,-0.349115,9.73218,1.28168,-0.07,0.42,0.35,25.868,-40.3548,-2.84885,1014.44
570404,-0.353898,9.66523,1.31516,0,-0.14,0,26.2405,-39.313,-3.16075,1014.43
570410,-0.353898,9.68436,1.3582,0.28,0.35,0.21,26.3837,-38.7342,-4.29492,1014.43
570416,-0.353898,9.70349,1.32951,0.77,0.28,0.07,25.7535,-39.7182,-5.14555,1014.43
570422,-0.344333,9.68914,1.3056,0.77,0.35,-0.28,25.8108,-39.6313,-3.8129,1014.43
570428,-0.315638,9.7274,1.25777,0.7,0.56,0.07,25.7535,-38.4159,-3.52935,1014.42
570434,-0.37781,9.76088,1.22429,0.56,-0.28,-0.35,26.0686,-39.5735,-3.58606,1014.42
570440,-0.396939,9.74653,1.21951,0.63,0,-0.56,26.2977,-40.4127,-3.94049,1014.43
570446,-0.416069,9.79914,1.21473,0.07,-0.14,-0.28,25.868,-38.9947,-3.0048,1014.43
570452,-0.416069,9.78957,1.16212,-0.07,0.21,-0.35,26.3264,-39.5156,-3.04733,1014.43
570458,-0.435198,9.79914,1.22429,0.21,-0.35,-0.14,26.2691,-40.3548,-2.77797,1014.43
570464,-0.454328,9.81349,1.22429,-0.35,0.28,0.14,25.6962,-39.4577,-4.43669,1014.43
570470,-0.396939,9.77523,1.21473,-1.12,0.35,0,26.4696,-38.4159,-4.77694,1014.44
570476,-0.396939,9.76088,1.25299,-0.21,0.42,0.49,26.1545,-39.8629,-3.1891,1014.44
570482,-0.449546,9.78479,1.29125,-0.56,0.63,0.42,26.3837,-38.9947,-4.16733,1014.42
570488,-0.483022,9.78001,1.28647,-1.12,-0.56,0.49,26.842,-38.8211,-4.6777,1014.42
570494,-0.373027,9.71305,1.30081,-0.42,-0.28,0.7,26.2691,-39.7471,-3.95467,1014.42
570500,-0.344333,9.6748,1.32951,-0.14,-0.77,0.14,26.0686,-40.2391,-3.92631,1014.42
570506,-0.344333,9.69392,1.31994,-0.21,-0.07,0.21,26.4696,-38.9368,-3.64277,1014.44
570512,-0.387374,9.68914,1.31038,0.28,-0.77,0.14,26.2405,-38.9368,-4.3091,1014.44
570518,-0.353898,9.66045,1.37733,0.84,-0.49,0,26.1545,-40.5574,-4.15315,1014.4
570524,-0.315638,9.6748,1.31994,0.49,0.35,-0.28,26.4123,-39.5445,-3.72783,1014.4
570530,-0.334768,9.73218,1.31516,1.05,0.42,0.07,26.5269,-39.2262,-4.9896,1014.4
570536,-0.37781,9.7274,1.30081,0.56,0.21,-0.49,26.9566,-40.1522,-4.46505,1014.44
570542,-0.35868,9.71784,1.2769,0.98,-0.77,-0.35,26.5269,-39.6892,-3.65695,1014.44
570548,-0.401722,9.75131,1.25777,0.35,0.07,-0.28,26.842,-39.1683,-5.01795,1014.42
570554,-0.406504,9.7274,1.26734,0.91,-0.7,-0.07,25.9253,-39.7182,-3.16075,1014.42
570560,-0.444763,9.78001,1.26734,0.84,-0.63,-0.07,25.868,-40.5574,-3.20328,1014.45
570566,-0.411286,9.78001,1.23386,0.7,-0.77,-0.21,25.9826,-38.8789,-3.61442,1014.45
570572,-0.35868,9.76088,1.29603,0.21,-0.14,0.07,26.0972,-39.3709,-3.13239,1014.44
570578,-0.439981,9.79914,1.20516,0.21,0.28,0.28,26.2118,-40.8757,-4.11062,1014.44
570584,-0.492587,9.88044,1.18125,-0.07,-0.21,0.42,26.7274,-39.2841,-3.28834,1014.42
570590,-0.382592,9.8087,1.24342,0.28,-0.14,0.84,27.2431,-38.4738,-4.11062,1014.42
570596,-0.315638,9.8374,1.21951,-0.35,-0.49,0.77,26.8134,-39.6892,-4.86201,1014.44
570602,-0.392157,9.78001,1.29603,-0.14,-0.07,0.84,26.2977,-39.6603,-3.10404,1014.44
570608,-0.387374,9.7561,1.2769,-0.21,-0.28,0.84,26.9566,-37.7503,-4.47922,1014.44
570614,-0.35868,9.71305,1.32472,-0.35,-0.07,0.42,26.6129,-39.8629,-4.26657,1014.38
570620,-0.373027,9.68436,1.33429,0,-0.56,0.56,26.5556,-39.7471,-3.78454,1014.38
570626,-0.325203,9.71784,1.3056,0.63,0.21,0.63,26.3837,-38.4448,-3.91214,1014.43
570632,-0.363462,9.7274,1.29125,0.07,0.49,0.07,26.6415,-39.1104,-3.72783,1014.43
570638,-0.35868,9.69392,1.33429,0.28,0.28,0.07,26.1545,-40.5285,-3.44429,1014.44
570644,-0.35868,9.68436,1.30081,0.35,0.21,0.21,26.4696,-38.9368,-3.20328,1014.44
570650,-0.363462,9.68914,1.27212,0.14,0.07,-0.07,26.3837,-38.8211,-3.67113,1014.43
570656,-0.363462,9.68436,1.31516,0.21,0.42,0.14,26.2405,-40.4995,-2.42354,1014.43
570662,-0.411286,9.72262,1.30081,0.56,-0.14,-0.56,26.0972,-39.9497,-3.11822,1014.43
570668,-0.382592,9.74175,1.26255,0.42,-0.42,-0.42,26.355,-38.85,-3.3167,1014.43
570674,-0.416069,9.77044,1.25299,0.7,-0.35,0.07,26.5269,-39.8918,-3.62859,1014.43
570680,-0.396939,9.78479,1.26255,0.21,-0.07,-0.07,26.5269,-40.9915,-3.24581,1014.43
570686,-0.387374,9.78957,1.28168,0.21,0.42,0.14,26.5556,-38.5317,-3.30252,1014.43
570692,-0.382592,9.77044,1.25777,-0.07,0.21,0,26.6702,-39.0236,-3.41594,1014.43
570698,-0.387374,9.76088,1.29603,0.14,0.21,-0.28,26.5556,-40.6442,-2.86303,1014.43
570704,-0.425634,9.75131,1.29125,0.07,0,-0.28,26.0972,-39.7182,-3.65695,1014.44
570710,-0.406504,9.71305,1.32951,0.63,0.35,0.07,25.9826,-38.9947,-4.97542,1014.44
570716,-0.363462,9.74175,1.31038,0.77,0,-0.35,26.355,-40.1233,-1.8281,1014.44
570722,-0.35868,9.67001,1.34864,0.56,-0.42,-0.28,26.3837,-39.805,-2.99062,1014.44
570728,-0.353898,9.71305,1.32472,0.56,0.07,-0.28,27.0712,-38.5895,-3.35923,1014.4
570734,-0.401722,9.71784,1.30081,1.12,-0.63,-0.35,26.1545,-39.8339,-3.92631,1014.4
570740,-0.430416,9.77523,1.25299,0.98,0,0,26.0399,-39.8629,-3.28834,1014.46
570746,-0.430416,9.81349,1.24342,0.56,-0.35,0,26.2691,-38.9368,-2.99062,1014.46
570752,-0.344333,9.78479,1.22429,0.07,0.63,-0.14,26.6702,-39.6024,-3.14657,1014.42
570758,-0.35868,9.6748,1.36298,0.63,-0.21,-0.35,26.7274,-39.776,-3.08986,1014.42
570764,-0.33955,9.7561,1.25299,0.56,0.42,-0.14,25.868,-39.2262,-3.3167,1014.45
570770,-0.425634,9.74175,1.28168,0.63,-0.21,-0.14,26.1832,-38.5895,-2.79214,1014.45
570776,-0.344333,9.78479,1.20516,0.49,-0.35,-0.21,25.9253,-39.5156,-3.67113,1014.45
570782,-0.396939,9.76088,1.22908,0.28,-0.14,-0.21,25.8394,-39.9207,-3.30252,1014.45
570788,-0.401722,9.73697,1.29125,0.21,-0.21,-0.42,25.6962,-38.85,-2.65037,1014.45
570794,-0.430416,9.80392,1.23864,-0.28,0.14,-0.07,26.6129,-40.5863,-3.28834,1014.43
570800,-0.439981,9.80392,1.23864,0.21,-0.35,-0.28,26.0686,-40.9625,-3.24581,1014.43
570806,-0.430416,9.83261,1.1956,-0.35,-0.07,0.14,25.9253,-39.4288,-3.1891,1014.4
570812,-0.401722,9.78479,1.26255,-0.56,-0.35,0.28,26.5556,-38.6474,-3.78454,1014.4
570818,-0.35868,9.7274,1.34864,-0.56,0,0.14,26.2118,-41.0204,-3.67113,1014.44
570824,-0.392157,9.71305,1.31516,-0.42,-0.28,0.49,26.2691,-39.6892,-3.54353,1014.44
570830,-0.401722,9.69871,1.34864,0.07,0.07,0.49,26.1545,-38.9079,-2.42354,1014.44
570836,-0.420851,9.71305,1.31038,-0.14,-0.49,-0.14,26.4123,-39.6603,-3.03315,1014.44
570842,-0.373027,9.70827,1.29125,0.21,0.28,0.7,25.8967,-40.3838,-2.80632,1014.43
570848,-0.325203,9.69871,1.29125,0.42,0,0.49,26.3264,-38.9947,-3.95467,1014.43
570854,-0.401722,9.70827,1.29603,0.21,-0.14,0.07,26.1545,-39.1683,-3.60024,1014.43
570860,-0.401722,9.73218,1.26255,0.21,0.07,0.21,26.4123,-40.0075,-3.74201,1014.45
570866,-0.396939,9.7561,1.29603,0.35,-0.77,0.14,26.8134,-39.0815,-3.27417,1014.45
570872,-0.396939,9.72262,1.30081,0,-0.49,-0.14,26.6702,-38.85,-4.32327,1014.46
570878,-0.329986,9.71305,1.29603,0.35,-0.35,0.56,26.2691,-40.268,-3.13239,1014.46
570884,-0.430416,9.76566,1.29125,0.77,-0.07,0.07,26.2691,-39.1683,-3.06151,1014.42
570890,-0.420851,9.79914,1.24821,0.28,-0.49,0.56,26.0399,-38.5606,-4.60682,1014.42
570896,-0.37781,9.79914,1.25777,0.14,0.07,0.56,26.2405,-39.4288,-3.08986,1014.42
570902,-0.325203,9.77044,1.26255,-0.42,0.28,0.56,25.7248,-40.1233,-1.99822,1014.42
570908,-0.315638,9.70349,1.31516,-0.49,0.56,0.35,26.5556,-38.1555,-3.89796,1014.41
570914,-0.363462,9.72262,1.33429,-0.28,-0.14,0.63,26.0113,-40.0075,-3.55771,1014.41
570920,-0.325203,9.7274,1.27212,0.35,-0.84,0.14,25.954,-40.1522,-2.46607,1014.46
570926,-0.35868,9.70349,1.30081,-0.21,-0.63,0.14,25.8108,-38.387,-3.51518,1014.46
570932,-0.353898,9.68436,1.31994,0,-0.42,0.07,26.7561,-39.3709,-2.79214,1014.45
570938,-0.363462,9.71784,1.31516,0.77,0.7,-0.14,25.4956,-40.4127,-4.50758,1014.45
570944,-0.334768,9.71305,1.29125,0.07,-0.07,-0.42,25.8108,-39.7471,-3.28834,1014.45
570950,-0.353898,9.73697,1.27212,-0.14,0.07,-0.28,26.1545,-38.7342,-3.8129,1014.43
570956,-0.37781,9.77523,1.31516,0.35,-0.35,-0.14,26.2118,-39.7182,-3.40176,1014.43
570962,-0.392157,9.76566,1.26255,0.35,0.21,-0.21,26.4696,-38.8211,-3.48682,1014.42
570968,-0.37781,9.77523,1.30081,0.21,-0.7,-0.21,26.0972,-38.387,-4.32327,1014.42
570974,-0.37781,9.68914,1.31516,0.21,-0.35,0,25.954,-39.6603,-3.94049,1014.46
570980,-0.373027,9.76088,1.30081,0.35,-0.21,-0.21,25.8108,-40.6153,-3.51518,1014.46
570986,-0.387374,9.73218,1.3056,0.42,-0.21,-0.07,26.1259,-39.1104,-4.40834,1014.47
570992,-0.387374,9.75131,1.28168,0.14,0.14,-0.07,26.2691,-38.5895,-4.69188,1014.47
570998,-0.35868,9.73218,1.32472,0.63,0.14,0.07,25.4956,-41.1362,-4.62099,1014.43
571004,-0.353898,9.76566,1.29125,0.7,0.35,0,26.5269,-39.5445,-3.61442,1014.43
571010,-0.373027,9.76566,1.28168,0.28,0.28,-0.07,26.1545,-38.9368,-3.51518,1014.43
571016,-0.411286,9.79914,1.2769,0,0.49,0.28,26.0972,-39.9786,-3.43011,1014.43
571022,-0.373027,9.76566,1.25299,0,-0.42,0.14,25.868,-39.9786,-2.93391,1014.43
571028,-0.334768,9.76088,1.27212,0.56,-0.35,0.35,26.7847,-38.7053,-3.75619,1014.43
571034,-0.35868,9.75131,1.2769,-0.35,-0.42,-0.07,26.2405,-39.6603,-4.96125,1014.43
571040,-0.368245,9.70349,1.30081,-0.07,0,-0.14,26.355,-40.2391,-2.91974,1014.42
571046,-0.344333,9.72262,1.31516,0.28,0.42,-0.14,26.5556,-39.1973,-3.38758,1014.42
571052,-0.334768,9.70827,1.27212,-0.07,0.28,-0.28,25.954,-38.8211,-3.64277,1014.43
571058,-0.368245,9.73218,1.29125,0.14,0.28,-0.14,26.1545,-39.9497,-3.07569,1014.43
571064,-0.363462,9.73697,1.24821,0.63,-0.49,-0.21,26.2405,-39.9786,-3.48682,1014.42
571070,-0.387374,9.73697,1.29125,-0.07,-0.14,-0.21,26.8134,-38.5606,-3.74201,1014.42
571076,-0.382592,9.70349,1.29125,0.21,-0.14,0.07,26.3264,-39.9497,-3.95467,1014.47
571082,-0.401722,9.78001,1.2769,0.77,0.07,0,25.7248,-40.4127,-3.06151,1014.47
571088,-0.37781,9.7274,1.29603,0,0.14,0.14,26.4696,-38.4448,-3.3167,1014.44
571094,-0.33955,9.71784,1.3056,0,-0.63,0,25.4956,-39.6892,-3.89796,1014.44
571100,-0.349115,9.70349,1.32951,0.14,0,0.35,25.8967,-40.5574,-2.33847,1014.42
571106,-0.406504,9.72262,1.32472,0.49,-0.63,-0.28,26.4696,-38.85,-3.84125,1014.42
571112,-0.373027,9.7274,1.31038,0.14,-0.07,-0.07,25.8394,-38.8211,-4.59264,1014.42
571118,-0.353898,9.72262,1.30081,0.56,-0.14,-0.07,25.3524,-40.8757,-3.58606,1014.42
571124,-0.33955,9.74175,1.29125,0.07,0,-0.35,26.0113,-40.5574,-3.52935,1014.42
571130,-0.344333,9.71305,1.29603,-0.28,0.14,0,26.2405,-38.7921,-3.91214,1014.47
571136,-0.368245,9.70349,1.28647,0.35,0.07,-0.21,26.0399,-40.3838,-3.82707,1014.47
571142,-0.353898,9.7274,1.30081,0.56,0.21,-0.77,26.1545,-40.0654,-5.35821,1014.42
571148,-0.344333,9.70349,1.29125,0.63,0,-0.21,26.2691,-38.8789,-3.6853,1014.42
571154,-0.334768,9.77523,1.25777,0.42,-0.07,-0.35,26.2118,-39.2841,-4.13897,1014.46
571160,-0.382592,9.8087,1.21951,0.21,0.21,-0.35,26.6988,-40.0075,-4.90454,1014.46
571166,-0.392157,9.77044,1.25777,0.07,-0.56,-0.28,26.355,-39.1683,-3.51518,1014.43
571172,-0.382592,9.73218,1.31516,0.21,-0.21,-0.35,26.0113,-39.6603,-3.95467,1014.43
571178,-0.420851,9.74175,1.31516,0.42,-0.42,-0.35,26.0399,-40.6442,-3.45847,1014.44
571184,-0.396939,9.81349,1.24821,0,-0.21,0.07,25.8967,-40.4706,-3.71366,1014.44
571190,-0.363462,9.73697,1.26255,-0.07,0,-0.49,26.2405,-38.7053,-3.78454,1014.44
571196,-0.387374,9.72262,1.32951,-0.14,-0.14,-0.21,26.4123,-40.1233,-2.94809,1014.46
571202,-0.396939,9.70827,1.36777,0.35,-0.14,0.07,25.0659,-40.4995,-4.37998,1014.46
571208,-0.392157,9.73697,1.29125,0.49,-0.56,-0.07,25.954,-38.7632,-4.15315,1014.42
571214,-0.33955,9.74653,1.25777,-0.07,-0.07,-0.07,25.6675,-39.7471,-3.01898,1014.42
571220,-0.363462,9.73218,1.31038,-0.21,-0.28,-0.07,25.7535,-39.776,-2.84885,1014.43
571226,-0.401722,9.68914,1.33907,0.28,-0.07,0,26.2405,-39.1394,-4.46505,1014.43
571232,-0.353898,9.67001,1.3582,0.07,-0.21,-0.28,25.4383,-39.1104,-4.26657,1014.44
571238,-0.344333,9.70827,1.32472,0.42,0,-0.21,25.8967,-40.0075,-3.47265,1014.44
571244,-0.334768,9.70349,1.33907,0.42,0.28,-0.42,25.8108,-39.9207,-2.91974,1014.45
571250,-0.349115,9.67958,1.34385,0.77,0.07,-0.49,26.5556,-38.7921,-4.1815,1014.45
571256,-0.35868,9.7274,1.31038,0.7,0.07,-0.56,26.6415,-39.9207,-3.3167,1014.48
571262,-0.387374,9.68914,1.31038,0.91,-0.56,-0.49,26.5556,-39.9497,-2.36683,1014.48
571268,-0.349115,9.71305,1.32472,1.26,-0.56,-1.19,26.2691,-38.4159,-2.70708,1014.48
571274,-0.329986,9.70349,1.27212,1.12,-0.63,-1.12,25.8394,-39.0236,-2.73543,1014.44
571280,-0.401722,9.69871,1.31516,0.77,-0.14,-1.4,26.0113,-40.2969,-3.30252,1014.44
571286,-0.387374,9.73218,1.3056,2.03,-0.28,-1.33,26.3837,-39.6603,-3.44429,1014.45
571292,-0.373027,9.76088,1.24821,0.84,-0.35,-1.33,26.6702,-39.1973,-3.55771,1014.45
571298,-0.425634,9.78957,1.24821,0.84,-0.14,-0.77,25.954,-40.0654,-3.64277,1014.43
571304,-0.483022,9.84218,1.24821,1.05,-0.35,-0.84,26.0972,-39.2551,-4.73441,1014.43
571310,-0.420851,9.79914,1.24342,0.7,-0.35,-0.7,26.5269,-38.9368,-3.40176,1014.43
571316,-0.349115,9.74653,1.29603,0.56,-0.21,-0.63,26.2977,-39.776,-3.43011,1014.43
571322,-0.33955,9.74653,1.28168,0.77,-0.21,-0.98,25.9253,-39.9497,-2.59366,1014.47
571328,-0.435198,9.71784,1.32472,0.98,-0.42,-0.91,26.355,-39.2841,-4.32327,1014.47
571334,-0.463893,9.7274,1.28647,0.63,-0.77,-0.7,26.7847,-39.8918,-2.53695,1014.4
571340,-0.353898,9.73697,1.28647,0.49,-0.63,-0.63,26.5556,-39.3709,-3.13239,1014.4
571346,-0.353898,9.71305,1.32951,0.84,-0.7,-0.77,25.4383,-39.6892,-3.85543,1014.43
571352,-0.349115,9.69871,1.32951,0.84,-0.21,-1.26,25.868,-38.8211,-4.33745,1014.43
571358,-0.37781,9.71305,1.32472,0.84,-0.42,-0.98,26.6702,-40.731,-4.11062,1014.43
571364,-0.382592,9.69871,1.30081,1.26,-0.28,-0.84,26.2118,-39.7471,-3.23163,1014.43
571370,-0.396939,9.69392,1.2769,0.77,-0.21,-1.19,26.2691,-39.0236,-3.88378,1014.43
571376,-0.363462,9.69871,1.3056,0.98,-0.14,-0.98,26.2691,-40.4127,-2.97645,1014.43
571382,-0.392157,9.76088,1.23386,0.63,0.07,-1.26,26.6702,-41.1072,-2.93391,1014.43
571388,-0.425634,9.79436,1.23386,0.49,-0.84,-1.12,26.0399,-38.3291,-3.8129,1014.39
571394,-0.439981,9.82783,1.19082,0.07,-0.42,-0.98,26.8134,-39.9497,-3.501,1014.39
571400,-0.406504,9.81827,1.21473,0,-0.7,-0.91,26.4983,-40.3548,-3.07569,1014.42
571406,-0.449546,9.80392,1.26734,-0.21,-0.84,-0.63,25.2092,-39.8339,-4.19568,1014.42
571412,-0.435198,9.79914,1.25777,-0.49,-0.7,-0.7,27.1285,-38.4448,-3.92631,1014.4
571418,-0.454328,9.78001,1.29603,-0.07,-1.05,-0.49,25.1519,-40.4127,-4.06809,1014.4
571424,-0.406504,9.76566,1.3056,0.14,-0.49,-0.42,26.4696,-39.6892,-3.52935,1014.4
571430,-0.349115,9.7274,1.34385,-0.21,-0.35,-0.28,25.3524,-38.6185,-4.37998,1014.4
571436,-0.349115,9.70827,1.35342,0.07,-0.07,-0.49,25.6675,-39.6024,-2.94809,1014.4
571442,-0.401722,9.75131,1.31038,0.14,0,-0.63,25.4956,-39.776,-3.52935,1014.41
571448,-0.396939,9.71784,1.31038,0.07,0,-0.63,26.1545,-38.8211,-3.61442,1014.41
571454,-0.382592,9.7274,1.30081,0.14,0,-0.98,26.1832,-39.5445,-3.27417,1014.42
571460,-0.353898,9.69871,1.35342,0.77,-0.07,-0.7,25.6389,-40.0075,-3.41594,1014.42
571466,-0.349115,9.73218,1.28168,0.49,0.07,-0.49,25.1805,-38.9657,-3.77037,1014.41
571472,-0.396939,9.70349,1.28647,0.35,-0.42,-0.91,26.6129,-38.7053,-3.25999,1014.41
571478,-0.411286,9.71305,1.31038,0.84,-0.77,-1.05,25.7821,-40.5285,-3.60024,1014.44
571484,-0.37781,9.69871,1.31038,0.56,-0.56,-0.91,25.7821,-39.8339,-3.69948,1014.44
571490,-0.373027,9.68436,1.31516,0.84,0.14,-0.91,25.6962,-38.9657,-4.05391,1014.45
571496,-0.425634,9.7561,1.29603,0.98,0.42,-0.77,26.0686,-40.7889,-4.3091,1014.45
571502,-0.420851,9.79436,1.22429,0.84,0.28,-0.63,26.0113,-39.8339,-3.85543,1014.42
571508,-0.487805,9.81827,1.24821,0.28,0.14,-0.35,26.5556,-38.9079,-3.21746,1014.42
571514,-0.406504,9.74175,1.24342,-0.21,0.14,-0.42,26.4696,-39.342,-3.84125,1014.42
571520,-0.439981,9.75131,1.28168,0.28,0.14,-0.49,26.928,-40.3838,-2.77797,1014.46
571526,-0.425634,9.74653,1.30081,-0.07,-0.21,-0.35,26.7561,-38.9368,-3.35923,1014.46
571532,-0.420851,9.76088,1.29125,-0.28,-0.56,-0.49,26.355,-39.0815,-3.501,1014.44
571538,-0.363462,9.7561,1.27212,0.14,-0.56,-0.28,26.355,-40.0654,-3.48682,1014.44
571544,-0.334768,9.69392,1.34864,0.35,-0.35,-0.63,26.4123,-39.313,-2.96227,1014.46
571550,-0.382592,9.70349,1.3056,0.56,0.35,-0.7,26.5556,-38.6185,-3.61442,1014.46
571556,-0.382592,9.71784,1.25299,0.21,-0.14,-0.7,26.3264,-39.8339,-4.46505,1014.43
571562,-0.406504,9.74653,1.28647,0.07,0.49,-0.63,25.5529,-39.5445,-3.28834,1014.43
571568,-0.382592,9.69392,1.33429,0.21,0.14,-1.12,25.1805,-38.5606,-2.89138,1014.44
571574,-0.411286,9.66523,1.36298,0.56,0.56,-0.91,26.0972,-39.805,-3.77037,1014.44
571580,-0.353898,9.6748,1.34385,0.98,-0.07,-1.05,26.4696,-40.2101,-3.06151,1014.46
571586,-0.406504,9.68436,1.34385,0.98,-0.49,-0.91,26.1259,-39.3709,-3.47265,1014.46
571592,-0.411286,9.72262,1.31516,0.98,-0.14,-1.26,26.355,-39.4577,-3.69948,1014.4
571598,-0.473458,9.7561,1.28647,0.49,-0.42,-0.98,25.954,-39.9207,-3.43011,1014.4
571604,-0.454328,9.8087,1.25299,0.98,0.14,-0.56,26.6988,-39.7182,-3.71366,1014.4
571610,-0.463893,9.84218,1.20038,0.63,-0.42,-1.05,26.1832,-38.9947,-3.501,1014.46
571616,-0.473458,9.88044,1.20995,-0.14,-0.07,-0.56,25.8394,-40.5574,-4.3091,1014.46
571622,-0.454328,9.83261,1.23386,0.14,0.35,-0.63,26.441,-39.9786,-2.80632,1014.44
571628,-0.392157,9.79914,1.25777,0,0.14,-0.63,25.7821,-38.6474,-3.57189,1014.44
571634,-0.396939,9.77044,1.27212,-0.49,0,-0.35,25.9253,-39.6313,-3.58606,1014.4
571640,-0.382592,9.73218,1.28647,-0.7,-0.35,-0.21,26.2405,-40.2969,-3.48682,1014.4
571646,-0.363462,9.71784,1.33429,0.07,0.28,-0.56,25.3238,-39.5445,-3.74201,1014.4
571652,-0.35868,9.68436,1.31994,0,-0.35,-0.63,26.6129,-39.0815,-3.94049,1014.4
571658,-0.406504,9.69871,1.33429,0.14,0.28,-0.63,26.5269,-40.2969,-3.48682,1014.43
571664,-0.396939,9.68914,1.34385,0.49,-0.07,-0.77,25.5529,-39.0526,-3.61442,1014.43
571670,-0.373027,9.68436,1.34385,0.35,0.14,-0.77,26.355,-39.5156,-3.84125,1014.43
571676,-0.382592,9.64132,1.35342,0.77,0.63,-0.7,26.8707,-40.0944,-3.64277,1014.43
571682,-0.392157,9.65088,1.34864,1.19,0.07,-1.33,26.6415,-40.5285,-3.20328,1014.43
571688,-0.401722,9.6748,1.33907,1.33,0.07,-1.47,25.8967,-38.7342,-2.77797,1014.41
571694,-0.396939,9.71305,1.31516,1.4,0.07,-1.4,25.6102,-39.4866,-3.85543,1014.41
571700,-0.416069,9.73218,1.31994,1.12,0.42,-1.47,25.868,-40.268,-3.17493,1014.41
571706,-0.435198,9.7274,1.32951,0.91,-0.49,-1.61,26.2405,-38.8211,-3.79872,1014.41
571712,-0.473458,9.75131,1.30081,1.54,-0.91,-1.26,26.5842,-38.3291,-3.25999,1014.44
571718,-0.483022,9.78479,1.25777,1.19,-0.84,-1.19,25.8108,-40.5574,-3.17493,1014.44
571724,-0.463893,9.78001,1.26255,1.47,-0.77,-1.19,26.1832,-39.805,-2.66455,1014.41
571730,-0.530846,9.81827,1.26255,1.19,-0.14,-0.63,26.7847,-38.85,-3.43011,1014.41
571736,-0.530846,9.80392,1.25777,0.77,-0.98,-0.63,26.2977,-39.9497,-3.24581,1014.42
571742,-0.363462,9.73218,1.25777,0.63,0.14,-0.49,26.441,-40.0365,-3.37341,1014.42
571748,-0.363462,9.7274,1.32951,0.56,-0.28,-0.84,26.0399,-39.313,-3.10404,1014.44
571754,-0.439981,9.70827,1.29125,0.91,0.07,-0.63,26.355,-39.6024,-3.43011,1014.44
571760,-0.435198,9.75131,1.26734,0.77,-0.49,-1.19,26.1545,-40.3259,-3.47265,1014.45
571766,-0.435198,9.73697,1.31994,1.33,-0.56,-0.98,25.8394,-39.2262,-4.46505,1014.45
571772,-0.420851,9.73218,1.3056,0.7,-1.05,-1.12,25.954,-39.1973,-3.13239,1014.45
571778,-0.387374,9.73697,1.27212,1.05,-0.07,-0.91,25.4383,-40.7021,-3.37341,1014.43
571784,-0.444763,9.69871,1.33907,1.61,0.21,-1.12,24.9514,-40.0075,-3.92631,1014.43
571790,-0.420851,9.69392,1.31516,1.12,-0.14,-1.33,26.1832,-39.342,-3.23163,1014.45
571796,-0.401722,9.69392,1.31994,1.26,0.14,-1.26,26.2118,-39.6603,-3.91214,1014.45
571802,-0.420851,9.69871,1.31038,1.54,-0.63,-1.54,26.5269,-40.5285,-3.44429,1014.42
571808,-0.449546,9.69871,1.26734,1.4,-0.21,-1.12,26.1545,-38.7632,-4.19568,1014.42
571814,-0.439981,9.76566,1.22908,1.19,-0.77,-1.47,25.9826,-39.8629,-3.16075,1014.44
571820,-0.454328,9.7561,1.23386,1.47,-0.28,-1.47,25.2378,-40.9625,-3.501,1014.44
571826,-0.444763,9.84218,1.21473,0.84,-0.35,-1.05,25.4383,-38.8211,-4.16733,1014.42
571832,-0.473458,9.82305,1.20995,0.77,0.14,-0.91,26.5269,-38.5895,-3.84125,1014.42
571838,-0.545194,9.87087,1.22908,0.56,0.07,-0.42,26.7274,-40.731,-4.22403,1014.44
571844,-0.521282,9.80392,1.25299,0.28,-0.21,-0.35,26.6988,-39.3709,-3.38758,1014.44
571850,-0.430416,9.74175,1.31038,0.49,-0.63,-0.42,26.355,-37.8661,-4.62099,1014.44
571856,-0.430416,9.71784,1.28168,0.91,-0.42,-0.35,26.1259,-39.8629,-4.20986,1014.45
571862,-0.463893,9.78957,1.26255,0.49,-0.49,-0.07,26.0686,-40.1233,-3.86961,1014.45
571868,-0.468675,9.76088,1.25299,0.42,0.07,-0.21,25.9826,-38.8211,-2.89138,1014.44
571874,-0.411286,9.69392,1.31516,0.56,0.42,-0.56,26.2977,-39.5735,-3.47265,1014.44
571880,-0.416069,9.68914,1.2769,0.91,0.28,-0.49,26.5842,-39.8629,-2.39518,1014.45
571886,-0.416069,9.69871,1.26255,0.63,0.07,-0.49,26.9566,-38.8789,-3.17493,1014.45
571892,-0.420851,9.70827,1.26734,1.05,-0.42,-0.77,26.842,-38.5606,-3.57189,1014.44
571898,-0.416069,9.71784,1.27212,0.49,0.07,-0.63,25.868,-40.8178,-4.19568,1014.44
571904,-0.416069,9.68914,1.2769,0.7,-0.63,-1.12,25.9826,-39.0815,-3.62859,1014.44
571910,-0.411286,9.71305,1.31038,1.19,0.21,-1.12,26.6988,-38.2712,-2.8205,1014.44
571916,-0.411286,9.70827,1.28647,1.26,-0.42,-1.19,26.2691,-40.2969,-2.53695,1014.44
571922,-0.45911,9.69871,1.3056,0.98,0.49,-0.98,25.8394,-40.2391,-2.31012,1014.44
571928,-0.492587,9.78479,1.22908,0.84,0.56,-0.91,26.6129,-38.387,-4.8053,1014.44
571934,-0.483022,9.79436,1.20995,1.19,0.42,-0.77,26.4123,-39.4288,-2.6929,1014.42
571940,-0.439981,9.76566,1.26734,1.05,0.07,-0.91,26.4696,-39.9207,-2.31012,1014.42
571946,-0.502152,9.79436,1.24342,0.56,-0.42,-0.91,26.2691,-38.85,-2.90556,1014.42
571952,-0.502152,9.84696,1.18604,0.77,-0.14,-0.56,26.7847,-38.6764,-2.60784,1014.42
571958,-0.540411,9.8374,1.21473,0.49,-0.35,-0.56,26.6988,-40.4127,-2.62202,1014.45
571964,-0.45911,9.73697,1.26734,-0.14,0.21,-0.35,26.1259,-39.1394,-2.87721,1014.45
571970,-0.387374,9.67958,1.33429,1.19,0.28,-0.56,26.928,-38.85,-3.8129,1014.42
571976,-0.47824,9.71305,1.32472,0.91,0.28,-0.56,26.7274,-40.3259,-3.33087,1014.42
571982,-0.49737,9.73697,1.25777,0.49,-0.07,0,26.0972,-40.3838,-1.75721,1014.41
571988,-0.420851,9.75131,1.20038,0.63,-0.21,-0.49,26.2977,-38.7632,-3.92631,1014.41
571994,-0.35868,9.71305,1.24342,0.35,-0.56,-0.84,26.7274,-39.4288,-4.01138,1014.47
572000,-0.411286,9.68914,1.31038,0.49,0.21,-0.77,26.355,-40.6153,-3.27417,1014.47
572006,-0.444763,9.70827,1.25777,1.12,-0.28,-0.63,26.3264,-39.1683,-3.16075,1014.42
572012,-0.420851,9.70827,1.27212,0.7,0.7,-0.91,26.1545,-39.1104,-3.71366,1014.42
572018,-0.420851,9.67958,1.31516,0.56,0.28,-1.19,26.4983,-40.268,-2.70708,1014.42
572024,-0.411286,9.69871,1.3056,1.12,0.49,-1.26,26.441,-39.4288,-3.45847,1014.43
572030,-0.439981,9.71305,1.29125,2.03,0.28,-1.19,26.8134,-38.1844,-3.88378,1014.43
572036,-0.468675,9.72262,1.26255,1.75,0.28,-1.26,25.954,-40.3838,-4.09644,1014.46
572042,-0.439981,9.74175,1.25777,1.4,0.49,-1.26,26.1832,-39.6024,-2.67873,1014.46
572048,-0.468675,9.78957,1.24342,1.05,0.28,-0.98,26.928,-38.5895,-3.03315,1014.43
572054,-0.530846,9.77044,1.24821,1.12,-0.07,-1.19,25.9826,-39.7182,-2.6929,1014.43
572060,-0.506934,9.75131,1.24342,1.05,0.21,-0.77,26.8134,-40.9047,-3.3167,1014.41
572066,-0.49737,9.75131,1.26255,1.12,-0.07,-0.98,26.3837,-38.4159,-3.27417,1014.41
572072,-0.549976,9.8087,1.20995,1.54,0.28,-0.49,26.2691,-38.7053,-3.82707,1014.43
572078,-0.540411,9.8374,1.20995,0.7,0,-0.21,26.441,-40.0654,-2.60784,1014.43
572084,-0.487805,9.79914,1.24821,0.42,-0.07,0,26.0972,-39.7471,-3.03315,1014.45
572090,-0.47824,9.76566,1.26255,1.12,0,-0.14,27.3863,-38.7632,-4.33745,1014.45
572096,-0.449546,9.74175,1.22429,0.98,0.21,-0.14,26.4983,-39.7182,-2.65037,1014.45
572102,-0.45911,9.70349,1.28647,1.19,-0.14,-0.35,26.4123,-39.5445,-3.11822,1014.41
572108,-0.449546,9.7561,1.19082,0.98,-0.07,-0.21,26.6415,-38.9368,-3.35923,1014.41
572114,-0.473458,9.78479,1.20038,1.05,0.35,-0.21,26.2977,-39.4577,-2.70708,1014.47
572120,-0.439981,9.74653,1.23386,0.7,-0.56,0,26.4983,-40.1233,-3.25999,1014.47
572126,-0.401722,9.77523,1.21473,0.84,0.28,-0.28,26.7274,-38.8789,-3.38758,1014.45
572132,-0.463893,9.75131,1.20995,0.28,-0.07,-0.49,27.0426,-39.0526,-3.11822,1014.45
572138,-0.449546,9.75131,1.18125,0.14,0,-0.35,27.0999,-40.4416,-1.87063,1014.43
572144,-0.45911,9.74175,1.21951,0.14,-0.21,-0.42,26.441,-38.7053,-2.25341,1014.43
572150,-0.492587,9.72262,1.23386,0.07,0.21,-0.49,27.329,-38.2423,-3.52935,1014.42
572156,-0.449546,9.71305,1.23386,0,-0.07,-0.21,26.8993,-40.0075,-2.74961,1014.42
572162,-0.487805,9.73218,1.25299,0.21,0,-0.42,27.1858,-40.6153,-2.6929,1014.45
572168,-0.511717,9.73218,1.26255,0.21,0,-0.42,27.0139,-38.5606,-3.55771,1014.45
572174,-0.549976,9.73697,1.30081,0.49,0.21,-0.07,27.1571,-40.1233,-3.21746,1014.45
572180,-0.502152,9.74653,1.27212,0.56,-0.07,0.14,26.441,-40.4995,-3.17493,1014.43
572186,-0.530846,9.76088,1.24821,0.7,0.35,-0.07,25.7535,-39.776,-3.21746,1014.43
572192,-0.564323,9.83261,1.20038,0.49,-0.28,0.28,26.3264,-38.85,-3.84125,1014.45
572198,-0.521282,9.8087,1.22908,0.35,-0.98,0.49,26.9566,-39.9786,-3.43011,1014.45
572204,-0.430416,9.70349,1.29125,0.7,-0.77,0.63,26.7561,-39.8918,-2.87721,1014.42
572210,-0.420851,9.68914,1.31516,0.84,-0.35,0.7,26.6415,-38.5317,-3.51518,1014.42
572216,-0.439981,9.67001,1.31038,0.98,0.14,0.07,26.5842,-39.776,-3.88378,1014.46
572222,-0.468675,9.72262,1.26255,1.54,-0.35,0.42,26.5556,-39.4866,-3.33087,1014.46
572228,-0.45911,9.73218,1.22429,1.12,0.14,0.35,26.1545,-38.6764,-3.6853,1014.42
572234,-0.444763,9.74653,1.26734,0.77,0.14,-0.35,26.4983,-38.8211,-3.43011,1014.42
572240,-0.411286,9.69392,1.2769,1.54,0.14,0.28,26.1545,-40.268,-2.52278,1014.43
572246,-0.435198,9.70827,1.24342,1.61,-0.14,-0.07,26.5556,-38.7053,-3.67113,1014.43
572252,-0.449546,9.70349,1.22908,0.91,-0.35,-0.91,26.2118,-38.7632,-3.72783,1014.46
572258,-0.435198,9.74175,1.22908,1.19,-0.07,-0.42,26.7561,-39.4866,-3.24581,1014.46
572264,-0.454328,9.76566,1.22429,1.4,-0.14,-0.56,26.3837,-39.4288,-2.56531,1014.46
572270,-0.454328,9.74175,1.22429,0.98,-0.14,-0.7,26.5842,-38.6764,-3.57189,1014.43
572276,-0.487805,9.75131,1.22908,0.84,-0.35,-0.21,26.6988,-39.8339,-3.86961,1014.43
572282,-0.463893,9.78479,1.21473,0.7,-0.14,-0.07,26.6129,-39.5445,-2.60784,1014.46
572288,-0.502152,9.74653,1.20516,0.56,0,-0.14,26.8993,-38.3001,-3.96885,1014.46
572294,-0.49737,9.70827,1.28168,1.19,-0.42,0.07,26.5269,-38.8789,-3.07569,1014.47
572300,-0.487805,9.78001,1.21951,1.05,0,-0.21,26.5842,-40.2969,-3.25999,1014.47
572306,-0.502152,9.76566,1.21473,0.14,0.07,-0.35,26.2691,-38.8211,-3.55771,1014.44
572312,-0.468675,9.78957,1.17647,0.35,0,0.07,26.928,-38.7053,-3.3167,1014.44
572318,-0.49737,9.73697,1.23386,0.63,0.35,0.07,26.7847,-39.9207,-2.72126,1014.44
572324,-0.492587,9.76088,1.24821,0.42,-0.28,0.14,26.6988,-39.6313,-2.74961,1014.44
572330,-0.454328,9.71784,1.24821,0.84,0.07,0.21,26.9853,-38.6474,-3.88378,1014.45
572336,-0.420851,9.71305,1.25299,0.84,-0.21,-0.35,26.2977,-40.0365,-3.64277,1014.45
572342,-0.444763,9.69871,1.23386,0.98,-0.28,-0.07,26.5556,-39.8629,-2.74961,1014.45
572348,-0.473458,9.74175,1.24821,0.84,-0.21,-0.21,26.3837,-39.2551,-3.35923,1014.45
572354,-0.449546,9.76088,1.21951,1.05,-0.35,-0.35,26.6129,-39.7182,-3.45847,1014.45
572360,-0.430416,9.7274,1.20995,0.63,0,-0.21,25.9253,-40.3259,-2.59366,1014.44
572366,-0.439981,9.73697,1.20038,0.28,0.07,-0.49,26.1259,-39.4288,-4.23821,1014.44
572372,-0.468675,9.7561,1.20038,0.91,0.28,-0.21,26.4696,-38.7342,-3.33087,1014.43
572378,-0.444763,9.71305,1.21951,0.84,0.07,-0.35,26.2691,-40.6442,-2.23923,1014.43
572384,-0.473458,9.68436,1.23864,0.63,0.07,-0.42,26.3837,-39.8629,-3.60024,1014.43
572390,-0.425634,9.71784,1.28168,0.63,0.07,-0.42,25.7821,-39.0236,-3.25999,1014.43
572396,-0.487805,9.74175,1.22908,1.05,0.07,-0.14,26.0686,-40.4127,-3.41594,1014.44
572402,-0.487805,9.74175,1.23386,1.26,-0.35,-0.56,26.2118,-40.76,-3.25999,1014.44
572408,-0.506934,9.74653,1.20995,0.77,0.14,-0.21,26.2405,-38.9657,-4.33745,1014.44
572414,-0.492587,9.77044,1.21473,0.49,-0.42,-0.07,26.3837,-40.0075,-3.65695,1014.44
572420,-0.554758,9.77523,1.21473,0.84,-0.35,-0.14,26.2118,-40.268,-3.58606,1014.44
572426,-0.502152,9.82783,1.16691,0.21,-0.21,0,26.2977,-38.6474,-2.89138,1014.44
572432,-0.483022,9.77523,1.20038,-0.07,-0.56,0.14,26.0399,-39.5156,-3.96885,1014.44
572438,-0.416069,9.73697,1.23386,0.56,-0.07,-0.07,26.928,-40.6153,-2.90556,1014.44
572444,-0.449546,9.74653,1.23864,0.14,0,0,27.2144,-39.5445,-3.13239,1014.44
572450,-0.430416,9.7274,1.23864,0.42,-0.49,0,27.0139,-38.7632,-2.8205,1014.46
572456,-0.449546,9.72262,1.21951,0.49,-0.21,0,27.2717,-40.1522,-2.46607,1014.46
572462,-0.406504,9.69392,1.20995,0.49,-0.42,-0.14,27.0999,-39.4288,-2.70708,1014.42
572468,-0.435198,9.72262,1.25777,0.35,0.07,-0.21,27.0426,-38.9368,-2.46607,1014.42
572474,-0.45911,9.71305,1.23864,0.84,-0.49,0.07,26.7847,-39.3998,-3.21746,1014.45
572480,-0.411286,9.71305,1.24342,0.7,0.07,-0.35,26.4696,-40.3259,-2.52278,1014.45
572486,-0.454328,9.7274,1.22908,0.7,0.14,-0.98,26.5269,-38.9368,-3.01898,1014.47
572492,-0.439981,9.74175,1.20995,1.12,0.28,-0.63,27.0139,-38.9368,-3.89796,1014.47
572498,-0.492587,9.70827,1.2769,0.91,0,-0.49,26.1545,-40.2101,-2.77797,1014.45
572504,-0.430416,9.69871,1.25777,0.84,-0.42,-0.7,26.5842,-39.9786,-3.28834,1014.45
572510,-0.420851,9.7274,1.20038,1.19,0.07,-0.98,27.1285,-38.5895,-3.24581,1014.45
572516,-0.545194,9.70827,1.28647,0.98,-0.49,-0.77,26.928,-39.342,-2.18253,1014.44
572522,-0.506934,9.86131,1.15734,0.84,-0.42,-0.56,26.928,-39.1683,-2.56531,1014.44
572528,-0.516499,9.76566,1.20995,0.98,-0.56,-0.49,27.0139,-39.1683,-4.01138,1014.47
572534,-0.473458,9.78957,1.21951,1.12,-0.56,0.07,25.4956,-40.6153,-3.07569,1014.47
572540,-0.549976,9.79436,1.1956,0.77,-0.49,-0.21,26.928,-40.3838,-1.74303,1014.41
572546,-0.492587,9.79436,1.20516,0.56,-0.56,0,26.5556,-38.4738,-1.96987,1014.41
572552,-0.502152,9.79436,1.18604,0.63,-0.35,0,26.2691,-38.6185,-3.64277,1014.43
572558,-0.430416,9.76566,1.17647,0.35,0.28,0.21,27.0999,-40.2101,-2.5086,1014.43
572564,-0.49737,9.74653,1.22429,0.63,0.07,0.07,26.2405,-39.3709,-2.87721,1014.46
572570,-0.473458,9.74653,1.24821,0.49,0.35,0.07,26.2405,-38.7632,-3.67113,1014.46
572576,-0.483022,9.6748,1.24342,0.63,-0.07,-0.07,26.1545,-39.805,-4.16733,1014.4
572582,-0.401722,9.75131,1.22429,0.77,-0.07,0,26.6988,-40.4995,-2.65037,1014.4
572588,-0.416069,9.71305,1.22908,0.63,0.14,-0.42,27.0139,-38.6474,-4.12479,1014.4
572594,-0.47824,9.70349,1.21951,1.12,0.42,0.21,26.1832,-40.4127,-4.03973,1014.47
572600,-0.444763,9.73218,1.21473,0.28,0,-0.63,25.7821,-40.3838,-3.10404,1014.47
572606,-0.463893,9.73697,1.22429,0.77,0.49,-0.07,26.6129,-39.3709,-2.90556,1014.45
572612,-0.454328,9.71784,1.20516,0.49,0.14,-0.14,26.4123,-39.1683,-3.52935,1014.45
572618,-0.473458,9.73697,1.24821,0.49,0.42,-0.56,26.1545,-40.9047,-3.07569,1014.43
572624,-0.49737,9.70349,1.25777,0.7,-0.14,-0.28,26.0972,-39.805,-3.44429,1014.43
572630,-0.47824,9.71305,1.21473,0.77,-0.35,-0.14,26.4696,-38.9947,-3.79872,1014.44
572636,-0.463893,9.7274,1.24342,1.12,-0.07,-0.77,26.0113,-41.223,-3.28834,1014.44
572642,-0.473458,9.71305,1.23864,1.05,-0.63,-0.56,26.5842,-40.5285,-3.79872,1014.42
572648,-0.473458,9.70827,1.21951,0.98,-0.49,-0.56,26.6415,-38.9079,-3.1891,1014.42
572654,-0.411286,9.71784,1.22908,1.47,-0.56,-0.63,26.4983,-39.8339,-2.67873,1014.44
572660,-0.439981,9.72262,1.1956,1.12,-0.28,-0.49,25.8967,-40.5285,-2.79214,1014.44
572666,-0.554758,9.77523,1.24821,0.98,0.28,-0.42,26.441,-38.9657,-2.46607,1014.45
572672,-0.593018,9.74175,1.23864,1.61,-0.42,-0.35,26.7561,-39.6603,-3.54353,1014.45
572678,-0.449546,9.77044,1.16691,1.47,-0.14,-0.14,26.5842,-41.0783,-2.65037,1014.45
572684,-0.425634,9.73218,1.24342,1.54,0,-0.56,26.842,-39.7471,-2.86303,1014.43
572690,-0.502152,9.79436,1.17169,0.84,0.42,0.07,26.6988,-39.2841,-4.08226,1014.43
572696,-0.530846,9.76088,1.15734,0.84,-0.14,-0.07,26.7561,-40.0365,-2.67873,1014.43
572702,-0.439981,9.73697,1.1956,0.91,-0.77,-0.49,26.3837,-40.1812,-2.45189,1014.43
572708,-0.430416,9.68436,1.2769,0.63,0.14,-0.56,27.3577,-38.8789,-3.14657,1014.42
572714,-0.47824,9.68914,1.25777,1.4,-0.56,-0.49,27.329,-40.0075,-2.96227,1014.42
572720,-0.483022,9.74175,1.20516,1.4,-0.35,-0.77,26.2977,-40.0075,-3.54353,1014.46
572726,-0.463893,9.74653,1.20038,1.12,-0.35,-0.42,26.8707,-39.2262,-3.82707,1014.46
572732,-0.444763,9.74653,1.20038,1.12,0,-0.63,26.2977,-39.805,-3.60024,1014.45
572738,-0.463893,9.7561,1.18604,1.47,0.49,-0.63,26.6988,-40.8757,-3.54353,1014.45
572744,-0.49737,9.72262,1.23386,1.05,0.14,-0.56,27.0139,-39.8339,-3.40176,1014.46
572750,-0.425634,9.74175,1.18125,0.91,0.14,-0.98,26.6129,-38.9657,-3.47265,1014.46
572756,-0.468675,9.76088,1.18604,0.91,-0.42,-0.98,26.355,-40.6731,-2.89138,1014.46
572762,-0.487805,9.73697,1.20995,1.33,0.07,-0.7,26.2977,-40.7021,-2.52278,1014.43
572768,-0.506934,9.76566,1.1956,1.4,-0.56,-0.7,26.8993,-39.342,-2.86303,1014.43
572774,-0.47824,9.76088,1.20995,0.91,-0.77,-1.05,27.1285,-39.7182,-2.80632,1014.43
572780,-0.506934,9.78479,1.16691,0.98,-0.35,-0.77,26.6702,-40.7889,-2.86303,1014.43
572786,-0.506934,9.7561,1.20038,0.84,-0.77,-0.91,27.7301,-39.8918,-3.04733,1014.47
572792,-0.47824,9.74653,1.18125,0.98,-0.07,-0.91,25.868,-39.4577,-3.04733,1014.47
572798,-0.483022,9.69392,1.24342,1.12,-0.42,-0.98,26.6415,-39.9207,-1.65797,1014.47
572804,-0.468675,9.70827,1.22429,1.19,0.07,-0.98,26.4123,-39.8339,-2.22506,1014.47
572810,-0.45911,9.74653,1.23864,1.12,-0.42,-1.19,25.6102,-39.2841,-3.41594,1014.42
572816,-0.47824,9.73218,1.20038,1.26,-0.07,-1.19,26.5269,-39.8918,-3.1891,1014.42
572822,-0.47824,9.78001,1.1956,0.77,-0.35,-1.33,27.0139,-40.6731,-1.78557,1014.45
572828,-0.540411,9.74653,1.22429,1.68,0,-0.84,27.0139,-39.1394,-2.91974,1014.45
572834,-0.492587,9.75131,1.18125,1.33,0.21,-1.12,26.8707,-39.9497,-2.57949,1014.43
572840,-0.559541,9.78479,1.18125,0.77,0.21,-1.05,26.8707,-40.7021,-2.43771,1014.43
572846,-0.516499,9.80392,1.14778,0.91,-0.35,-0.77,26.2691,-39.776,-2.25341,1014.43
572852,-0.545194,9.8374,1.15734,1.4,0.07,-0.77,26.2118,-39.3998,-3.501,1014.44
572858,-0.540411,9.85174,1.14299,0.56,-0.56,-0.56,26.3837,-40.4706,-2.83467,1014.44
572864,-0.621712,9.84696,1.16212,0.56,0,0,26.7561,-39.6313,-1.7005,1014.44
572870,-0.57867,9.84218,1.12386,0.21,-0.91,0.21,27.0712,-39.1104,-3.10404,1014.44
572876,-0.449546,9.78957,1.15256,0.35,-0.56,0.14,26.9853,-40.3259,-2.74961,1014.47
572882,-0.444763,9.73218,1.19082,0.28,0.35,0,26.5842,-40.3259,-2.35265,1014.47
572888,-0.47824,9.74175,1.19082,0.21,-0.07,-0.28,26.3264,-39.4288,-3.57189,1014.45
572894,-0.535629,9.79436,1.15734,-0.21,0.49,0,26.8993,-39.7471,-3.08986,1014.45
572900,-0.49737,9.83261,1.14299,0.14,0.07,0.07,26.4696,-40.8468,-3.34505,1014.44
572906,-0.487805,9.79436,1.17647,-0.14,0.35,-0.21,25.868,-39.5445,-3.89796,1014.44
572912,-0.516499,9.76088,1.23386,-0.07,0.07,-0.14,26.5842,-38.9657,-3.88378,1014.44
572918,-0.49737,9.76566,1.19082,0.07,0.28,0.35,26.4983,-39.805,-2.87721,1014.44
572924,-0.473458,9.78001,1.16691,-0.35,0.35,-0.14,25.6962,-39.5156,-3.69948,1014.44
572930,-0.47824,9.74653,1.18125,-0.42,0.21,0.42,26.2118,-38.2712,-4.33745,1014.45
572936,-0.463893,9.69871,1.32472,0.49,-0.14,-0.07,26.5269,-39.9497,-3.58606,1014.45
572942,-0.45911,9.88044,1.09995,0.14,0.84,0,25.3524,-41.1072,-3.16075,1014.43
572948,-0.583453,9.86131,1.15256,-0.14,0.28,0.84,26.2977,-39.4288,-3.74201,1014.43
572954,-0.540411,9.91392,1.10952,-0.07,0.28,0.7,26.842,-39.1683,-3.75619,1014.44
572960,-0.530846,9.87087,1.13821,-0.77,0.28,0.7,26.3264,-40.3548,-2.48025,1014.44
572966,-0.564323,9.82783,1.21473,-0.42,0.21,1.47,26.7847,-39.2841,-3.52935,1014.41
572972,-0.602582,9.85174,1.16691,-0.42,0.56,1.75,26.1832,-38.6185,-3.75619,1014.41
572978,-0.61693,9.87087,1.16212,-1.26,0.63,2.24,26.2977,-40.3838,-4.59264,1014.42
572984,-0.521282,9.92348,1.13343,-1.4,0.98,2.66,25.954,-40.6442,-2.53695,1014.42
572990,-0.530846,9.93783,1.12386,-1.68,1.4,2.73,26.8707,-39.0526,-2.93391,1014.42
572996,-0.483022,9.85174,1.17169,-1.61,1.75,2.8,26.355,-40.268,-3.9972,1014.42
573002,-0.483022,9.8087,1.20516,-1.75,1.47,3.08,26.1832,-40.3838,-3.17493,1014.42
573008,-0.47824,9.74653,1.24821,-1.47,1.19,2.73,27.1571,-39.0815,-4.03973,1014.41
573014,-0.487805,9.63175,1.31516,-0.91,1.19,3.15,26.2691,-39.8918,-3.78454,1014.41
573020,-0.435198,9.64132,1.33429,-0.07,1.12,2.8,26.5842,-40.5285,-3.61442,1014.42
573026,-0.416069,9.64132,1.25777,-0.35,1.54,2.1,26.8134,-39.5156,-3.43011,1014.42
573032,-0.444763,9.67958,1.21951,-0.28,1.47,2.45,26.928,-38.9368,-3.77037,1014.41
573038,-0.449546,9.69871,1.1956,-0.28,1.12,1.89,25.5529,-40.8178,-3.04733,1014.41
573044,-0.420851,9.71305,1.20995,0.21,1.33,1.89,26.2405,-39.7182,-4.02555,1014.42
573050,-0.444763,9.69871,1.20516,0.07,0.98,1.89,26.9853,-38.4738,-2.90556,1014.42
573056,-0.411286,9.7561,1.19082,-0.21,1.61,1.89,26.2405,-39.7471,-2.63619,1014.42
573062,-0.454328,9.78479,1.17169,-0.07,1.05,1.54,26.0686,-39.9207,-2.13999,1014.42
573068,-0.425634,9.77523,1.15256,-0.56,1.26,1.82,26.1259,-39.1394,-3.03315,1014.42
573074,-0.420851,9.73697,1.19082,-0.49,1.26,2.03,26.2977,-39.7182,-3.08986,1014.42
573080,-0.463893,9.73218,1.19082,-0.63,1.68,2.1,26.6988,-40.9047,-2.59366,1014.48
573086,-0.435198,9.70349,1.20516,-0.7,1.19,2.1,26.7274,-39.0236,-2.6929,1014.48
573092,-0.521282,9.82783,1.17169,-0.63,1.82,2.31,25.954,-38.9657,-3.25999,1014.48
573098,-0.468675,9.82783,1.16691,-0.98,1.33,2.59,26.5842,-40.1522,-3.04733,1014.41
573104,-0.473458,9.73697,1.23864,-1.12,1.26,2.45,25.4097,-39.7182,-3.55771,1014.41
573110,-0.401722,9.72262,1.25299,-0.91,0.91,2.52,26.0972,-38.8211,-2.46607,1014.48
573116,-0.430416,9.70349,1.26734,-0.63,1.19,2.31,25.7821,-39.8629,-2.99062,1014.48
573122,-0.406504,9.69392,1.28647,-0.7,0.84,2.45,25.8967,-40.0944,-3.13239,1014.41
573128,-0.363462,9.67001,1.30081,-0.7,1.26,2.1,25.9826,-39.4866,-3.03315,1014.41
573134,-0.35868,9.68914,1.29125,-0.21,2.03,1.68,25.8967,-39.9497,-3.14657,1014.46
573140,-0.387374,9.66523,1.28168,0.56,1.68,1.68,25.8108,-41.9175,-1.68633,1014.46
573146,-0.37781,9.66523,1.26255,0.07,2.1,1.47,25.6962,-39.9207,-3.58606,1014.46
573152,-0.392157,9.6748,1.3056,0.35,1.4,1.75,26.1259,-39.805,-3.52935,1014.46
573158,-0.411286,9.74653,1.22429,0.49,1.89,1.47,26.3837,-40.6731,-3.55771,1014.46
573164,-0.35868,9.69392,1.22908,0.42,1.33,1.05,26.0113,-40.4706,-3.16075,1014.46
573170,-0.382592,9.67001,1.2769,0.7,1.05,1.26,26.4983,-39.2262,-2.63619,1014.46
573176,-0.416069,9.66523,1.25777,1.19,1.12,1.12,24.6649,-40.0075,-3.16075,1014.43
573182,-0.186514,9.71305,1.14299,0.7,1.47,0.49,25.4956,-40.4706,-2.56531,1014.43
573188,-0.879962,9.90913,1.42037,0.14,-1.96,1.26,26.0972,-38.9947,-3.01898,1014.45
573194,0.0621712,9.52176,0.989957,2.52,2.8,-0.7,25.2951,-39.9207,-2.99062,1014.45
573200,-1.01865,9.80392,1.25299,1.05,-0.98,0.35,25.467,-40.731,-2.84885,1014.45
573206,-0.109995,9.73697,1.04735,0.98,2.59,0.49,25.6675,-39.2841,-3.40176,1014.45
573212,-0.798661,9.91392,1.28647,1.12,-0.07,0.42,25.9826,-39.3998,-4.20986,1014.46
573218,-0.162602,9.75131,1.1143,1.54,1.61,0.07,26.355,-41.5992,-3.58606,1014.46
573224,-0.664754,9.77044,1.1956,0.98,1.05,0.91,26.0399,-40.0654,-2.52278,1014.45
573230,-0.746054,10.0909,1.18604,1.26,0.07,1.68,26.3264,-38.9947,-3.78454,1014.45
573236,-0.564323,10.0622,0.884744,0.42,1.47,2.03,25.954,-40.2391,-2.56531,1014.44
573242,-0.626494,9.92348,1.09517,-1.19,0,1.82,26.0113,-41.1651,-2.36683,1014.44
573248,-0.0621712,9.55045,1.31516,0.35,1.19,1.96,25.8108,-39.7182,-4.46505,1014.44
573254,-0.349115,9.67001,1.37255,0.42,0.49,0.91,26.4123,-39.6024,-3.11822,1014.44
573260,-0.420851,9.63654,1.44907,1.61,0.98,0.77,25.3524,-41.0493,-3.08986,1014.44
573266,-0.349115,9.55045,1.2769,2.31,1.75,0.91,25.868,-39.7471,-3.6853,1014.45
573272,-0.329986,9.60306,1.28168,2.38,1.19,0.56,25.954,-39.5735,-3.91214,1014.45
573278,-0.349115,9.52176,1.34385,3.01,0.35,-0.28,26.4983,-40.8757,-4.11062,1014.47
573284,-0.363462,9.47872,1.36777,3.22,0.91,-0.84,26.0399,-39.6024,-2.08329,1014.47
573290,-0.282162,9.54567,1.31038,3.92,0.07,-1.19,26.2977,-39.8339,-4.02555,1014.41
573296,-0.105213,9.67001,1.16212,3.36,0.21,-2.52,25.6389,-40.6442,-3.84125,1014.41
573302,-0.530846,9.46915,1.55428,5.11,-1.19,-2.52,25.7248,-40.4995,-3.33087,1014.45
573308,-0.0860832,9.51698,1.05213,6.58,1.54,-3.99,25.8394,-39.7182,-3.9972,1014.45
573314,-0.765184,9.68914,1.24342,3.85,-1.4,-3.64,26.2118,-40.2391,-3.54353,1014.44
573320,0.0860832,9.23003,1.34385,4.83,0.77,-4.34,25.954,-41.223,-2.31012,1014.44
573326,-0.813008,9.68436,1.39168,6.79,-1.68,-5.11,26.6129,-39.5445,-2.59366,1014.46
573332,-0.196078,9.69392,1.05213,6.65,-0.42,-4.55,26.6415,-39.0526,-3.10404,1014.46
573338,-0.703013,10.0574,0.95648,4.69,-1.75,-4.13,26.5556,-40.9625,-2.43771,1014.46
573344,-0.449546,9.71784,1.1956,5.81,-1.61,-4.2,26.2691,-40.4995,-3.37341,1014.46
573350,-0.683883,10.0622,0.923003,4.76,-1.33,-3.5,26.5269,-39.6892,-3.07569,1014.46
573356,-0.760402,10.0717,1.03778,4.13,-1.47,-2.45,26.4696,-40.0365,-2.63619,1014.41
573362,-0.511717,9.82783,1.08082,4.69,-0.91,-2.24,27.1285,-40.6442,-3.64277,1014.41
573368,-0.573888,9.90435,1.01387,3.22,-2.66,-1.89,26.355,-39.0526,-2.96227,1014.45
573374,-0.172166,9.60306,1.31038,4.13,-0.77,-2.03,26.6702,-39.1683,-3.51518,1014.45
573380,-0.33955,9.58393,1.31994,5.95,-1.47,-2.24,26.6415,-40.3259,-3.0048,1014.43
573386,-0.396939,9.79436,1.16212,4.62,-1.05,-2.45,27.0139,-39.8339,-2.99062,1014.43
573392,-0.277379,9.4022,1.39646,5.53,-0.77,-2.8,26.0113,-38.387,-3.10404,1014.44
573398,-0.33955,9.38307,1.42994,7,-0.56,-3.36,26.7274,-40.7021,-2.36683,1014.44
573404,-0.325203,9.63175,1.09517,7.14,0.56,-3.43,26.5269,-40.5863,-3.24581,1014.45
573410,-0.463893,9.5935,1.13821,7.35,-0.28,-3.99,25.954,-39.1683,-1.92734,1014.45
573416,-0.382592,9.77523,1.06648,6.86,0,-3.99,25.6102,-40.0944,-3.47265,1014.45
573422,-0.382592,9.75131,0.951698,7.56,0.77,-3.36,26.1259,-40.1522,-2.89138,1014.43
573428,-0.392157,9.88522,0.875179,5.88,0,-4.06,25.3524,-39.5445,-2.84885,1014.43
573434,-0.191296,9.85174,1.20516,7.63,2.1,-4.55,26.1259,-39.313,-3.01898,1014.44
573440,-0.942133,10.1196,1.1143,4.41,-0.84,-4.41,25.8394,-41.0204,-2.60784,1014.44
573446,0.181731,9.39742,0.899091,7.91,3.22,-4.76,26.5556,-39.6603,-2.87721,1014.43
573452,-0.382592,9.61741,1.04735,8.4,2.1,-3.92,26.9566,-39.1683,-3.55771,1014.43
573458,-1.07604,10.4448,0.420851,3.01,-1.61,-3.15,25.0946,-40.9336,-3.04733,1014.42
573464,-0.286944,9.63175,1.11908,6.65,2.38,-2.17,25.8967,-39.776,-2.65037,1014.42
573470,-1.17647,10.4878,0.487805,3.36,-3.08,-0.84,25.6962,-38.8789,-3.16075,1014.46
573476,-0.224773,10.0526,0.526064,1.68,1.54,0.28,26.2691,-40.1233,-2.77797,1014.46
573482,-0.913438,9.44524,1.31994,3.78,-2.31,0.35,26.6415,-40.0944,-2.56531,1014.44
573488,-0.21999,9.58871,1.14778,3.22,0.07,0.21,26.8993,-38.5895,-3.10404,1014.44
573494,-0.439981,9.35916,1.45385,5.53,0.21,-0.21,26.2118,-39.4577,-2.97645,1014.44
573500,-0.387374,9.54089,1.33907,6.09,-0.07,-0.84,26.6415,-40.0944,-2.40936,1014.45
573506,-0.526064,9.85174,1.16691,5.32,-0.49,-0.98,26.9566,-38.9947,-3.1891,1014.45
573512,-0.353898,9.6461,1.32951,7.14,2.45,-1.19,27.3004,-38.9947,-2.90556,1014.43
573518,-0.607365,9.58871,1.25299,7,-0.35,-1.61,26.2977,-40.6442,-1.99822,1014.43
573524,0.569106,9.21568,1.27212,9.8,6.58,-0.91,26.7847,-39.3998,-1.98405,1014.45
573530,-1.13821,9.85653,1.01387,8.47,-3.01,-2.24,27.2431,-38.9947,-2.48025,1014.45
573536,0.368245,9.64132,0.879962,8.4,4.9,-2.24,26.8134,-39.776,-1.79974,1014.42
573542,-0.932568,10.0478,0.789096,8.47,-1.12,-2.8,27.1858,-39.8339,-2.63619,1014.42
573548,0.162602,10.1578,0.45911,9.87,6.02,-2.24,26.7847,-38.9657,-2.73543,1014.44
573554,-1.5495,10.9278,0.722142,3.92,-4.06,-2.73,26.842,-39.2841,-2.66455,1014.44
573560,0.430416,9.9187,0.703013,5.25,4.2,-1.54,26.3837,-40.1522,-1.10506,1014.43
573566,-1.78862,10.263,0.449546,1.26,-4.2,-2.87,26.5842,-39.2262,-1.17595,1014.43
573572,0.363462,9.76088,0.607365,3.15,2.52,-0.91,26.6702,-39.2551,-1.78557,1014.42
573578,-1.23864,9.93304,1.0043,2.87,-0.77,-2.24,27.4723,-40.6731,-2.11164,1014.42
573584,0.0095648,10.0717,0.487805,-2.1,0.35,0.21,26.6702,-40.0365,-0.977469,1014.42
573590,-0.746054,9.65088,1.033,3.08,2.94,-0.14,27.2144,-38.7632,-1.62962,1014.42
573596,-1.25777,10.2535,0.908656,-0.21,-0.7,1.61,26.5842,-40.0944,-1.72886,1014.42
573602,-0.521282,9.65567,1.22429,0.07,3.71,0.28,26.6129,-40.3548,-1.85645,1014.44
573608,-1.10952,9.70827,1.43472,2.94,-0.91,1.61,26.842,-39.0236,-1.89898,1014.44
573614,-0.306074,9.84696,0.870397,-0.07,3.08,1.54,26.7274,-39.1104,-2.48025,1014.44
573620,-0.846485,9.53132,1.40124,1.89,1.54,3.15,26.6129,-40.4706,-1.19013,1014.44
573626,-0.45911,9.98565,1.02822,1.26,3.5,3.01,26.8707,-39.4577,-2.36683,1014.44
573632,-1.08082,9.78001,1.29603,2.24,2.87,3.78,26.842,-39.0526,-1.62962,1014.44
573638,-0.640842,10.0143,0.726925,1.4,3.01,4.2,26.6129,-40.7889,-3.30252,1014.43
573644,-1.04256,10.0717,0.923003,0.56,2.31,4.34,26.8993,-40.1233,-1.81392,1014.43
573650,-0.353898,10.0096,0.693448,-0.56,2.38,4.97,26.6988,-38.7342,-2.70708,1014.41
573656,-0.760402,9.82783,0.846485,-1.26,1.4,4.62,26.8993,-40.1522,-1.89898,1014.41
573662,-0.435198,9.85653,0.746054,-1.33,1.54,4.76,27.0139,-41.2809,-1.94151,1014.41
573668,-0.707795,10.2822,0.449546,-4.27,0.42,4.69,26.7847,-38.9947,-1.57291,1014.43
573674,-0.468675,9.78001,0.832138,-3.99,0.84,4.9,27.1858,-39.2551,-2.96227,1014.43
573680,-0.731707,10.1483,0.583453,-6.23,-1.4,5.25,26.6129,-41.3677,-1.28937,1014.45
573686,-0.502152,9.65567,1.05213,-4.62,0.07,4.97,26.5556,-39.7182,-2.0124,1014.45
573692,-0.755619,9.95696,0.789096,-5.18,-1.4,6.02,26.2977,-39.6603,-2.48025,1014.42
573698,-0.755619,10.0383,0.71736,-7.28,-2.31,6.16,26.355,-40.5574,-1.06253,1014.42
573704,-0.444763,9.75131,1.00909,-5.67,-0.84,6.3,25.6675,-40.2969,-2.31012,1014.41
573710,-0.683883,9.84218,0.923003,-6.37,-1.89,6.51,26.6415,-39.313,-3.52935,1014.41
573716,-0.573888,9.87087,0.97561,-7,-1.19,6.65,26.0399,-40.1522,-1.91316,1014.45
573722,-0.554758,9.78957,1.01865,-6.3,-1.68,7,25.8967,-40.1522,-1.94151,1014.45
573728,-0.454328,9.97609,0.803443,-6.93,-2.1,7.28,26.1545,-39.342,-1.74303,1014.44
573734,-0.612147,9.88522,0.980392,-6.72,-2.17,8.05,26.0686,-39.6603,-2.49442,1014.44
573740,-0.659971,10.1339,0.535629,-9.66,-3.36,8.33,26.4983,-40.4127,-1.74303,1014.42
573746,-0.439981,9.78001,0.980392,-8.33,-2.31,8.26,25.868,-39.5735,-2.87721,1014.42
573752,-0.707795,10.1004,0.789096,-11.06,-3.78,9.03,25.7248,-39.4866,-2.57949,1014.42
573758,-0.37781,9.66045,1.12386,-10.78,-3.08,9.59,25.7535,-40.5285,-3.3167,1014.46
573764,-0.396939,9.62697,1.17647,-9.52,-4.55,9.59,25.4097,-40.0944,-3.17493,1014.46
573770,-0.282162,9.66523,1.08082,-10.5,-4.48,9.45,26.2118,-39.6024,-2.96227,1014.42
573776,-0.215208,9.82783,0.95648,-10.92,-3.64,9.1,25.7821,-40.1233,-2.87721,1014.42
573782,-0.473458,9.8087,1.20516,-9.38,-3.99,9.1,25.8394,-40.2969,-3.43011,1014.42
573788,0.0095648,9.65088,1.06648,-9.03,-2.87,9.17,25.0086,-38.9657,-2.40936,1014.42
573794,-0.903874,10.33,0.999522,-11.55,-5.18,9.52,26.1832,-39.6892,-2.09746,1014.42
573800,0.301291,9.65567,1.033,-11.83,-1.68,9.52,25.3811,-41.3966,-2.36683,1014.42
573806,-0.545194,9.71305,1.41081,-10.43,-2.87,10.57,25.4383,-40.1812,-2.77797,1014.44
573812,-0.61693,10.4687,0.827355,-13.09,-2.38,10.57,25.6102,-39.9497,-2.23923,1014.44
573818,-0.186514,9.86131,1.15734,-12.39,0.49,10.99,25.0373,-41.4834,-1.91316,1014.46
