Timestamp,AccX,AccY,AccZ,AngularVelX,AngularVelY,AngularVelZ,MagX,MagY,MagZ,AirPressure
182462,-4.58632,0.420851,8.62267,0.28,-0.49,0,27.5582,-25.6249,-26.5247,1014.44
182468,-4.62458,0.449546,8.62267,0.7,-0.7,0.28,27.3577,-25.3934,-26.3404,1014.43
182474,-4.62458,0.45911,8.60832,0.98,-0.77,0.07,27.1571,-25.1619,-26.4396,1014.43
182480,-4.5911,0.483022,8.62745,0.35,-0.84,0.21,26.2691,-26.7246,-26.1419,1014.42
182486,-4.54806,0.492587,8.62267,0.21,-0.07,0.21,27.5582,-25.3934,-26.4396,1014.42
182492,-4.51459,0.487805,8.59397,0.35,0.56,-0.28,26.6129,-25.0751,-27.1201,1014.41
182498,-4.60545,0.425634,8.62267,-0.42,0.77,-0.35,27.5582,-25.5381,-27.1201,1014.41
182504,-4.69153,0.411286,8.60832,0.07,0.21,0.35,26.9566,-26.1458,-26.2411,1014.45
182510,-4.65328,0.425634,8.62267,0.77,-0.35,-0.07,26.7274,-25.3645,-26.3687,1014.45
182516,-4.63893,0.435198,8.63223,1.05,-0.63,0.28,27.7874,-25.3645,-26.553,1014.45
182522,-4.63415,0.430416,8.62267,0.91,-1.54,0.56,27.0426,-25.4802,-26.8224,1014.43
182528,-4.64849,0.425634,8.59876,1.33,-1.19,0.14,26.441,-26.2326,-26.6523,1014.43
182534,-4.63415,0.454328,8.61789,1.47,-2.24,0.49,27.329,-25.7696,-27.6021,1014.44
182540,-4.6724,0.439981,8.63223,1.96,-2.73,0.84,27.0426,-25.5381,-27.1059,1014.44
182546,-4.69632,0.439981,8.62745,2.24,-3.57,0.7,26.7274,-25.596,-26.95,1014.43
182552,-4.6724,0.435198,8.65136,2.59,-4.2,1.54,27.8733,-25.3645,-27.0067,1014.43
182558,-4.62936,0.435198,8.60354,2.8,-5.04,1.68,27.3004,-25.4802,-26.3404,1014.44
182564,-4.61023,0.45911,8.62745,3.08,-5.11,1.68,26.8993,-25.3934,-26.5389,1014.44
182570,-4.57197,0.463893,8.66571,2.94,-5.32,1.89,26.7561,-25.596,-26.1135,1014.44
182576,-4.57197,0.49737,8.62745,2.8,-4.83,1.82,26.8993,-26.8693,-27.7723,1014.44
182582,-4.50024,0.559541,8.61789,2.24,-4.48,1.19,25.954,-25.8564,-26.2978,1014.41
182588,-4.49546,0.535629,8.6418,1.54,-3.08,0.84,26.1259,-25.7696,-27.4037,1014.41
182594,-4.40459,0.564323,8.6131,1.05,-2.66,0.7,25.6389,-26.0011,-27.0634,1014.41
182600,-4.52415,0.540411,8.65614,0.56,-1.68,0.49,25.954,-26.1747,-26.1277,1014.42
182606,-4.74892,0.45911,8.6944,1.47,-3.64,1.19,27.3863,-25.8854,-26.709,1014.42
182612,-4.97848,0.659971,8.73744,1.05,-7.84,4.9,27.902,-25.9432,-26.3546,1014.45
182618,-4.99283,1.04256,8.77092,-2.59,-11.76,10.5,27.0712,-25.9143,-26.4396,1014.45
182624,-5.055,1.39646,8.75657,-9.38,-16.03,16.1,27.0139,-26.0301,-27.1485,1014.45
182630,-5.03108,1.13343,8.8044,-16.52,-22.33,15.75,26.2405,-25.6249,-26.2978,1014.45
182636,-5.24629,0.875179,8.90005,-18.69,-31.92,16.52,26.8134,-25.8564,-25.8584,1014.42
182642,-5.68627,0.549976,8.88092,-18.27,-42.63,22.61,26.5269,-25.1619,-27.3611,1014.42
182648,-6.04974,0.664754,9.05308,-20.65,-58.45,26.53,26.4983,-25.8564,-26.5672,1014.43
182654,-6.31755,0.755619,9.12482,-23.38,-74.27,29.4,26.0113,-26.2326,-27.0776,1014.43
182660,-6.47059,0.731707,9.43089,-27.16,-90.86,30.45,25.5816,-25.0751,-27.6589,1014.46
182666,-6.39407,0.420851,9.98087,-30.03,-100.1,29.4,24.7222,-24.6989,-28.0133,1014.46
182672,-5.73888,0.0573888,10.3348,-32.62,-98.7,24.85,24.5217,-24.612,-28.5804,1014.39
182678,-5.16021,-0.282162,10.88,-30.52,-87.29,19.18,24.0633,-25.3645,-28.9348,1014.39
182684,-4.06982,-1.04735,10.9087,-17.99,-76.23,21.35,24.092,-25.1329,-28.552,1014.39
182690,-3.27116,-1.31994,10.6026,-5.95,-65.1,24.5,23.8341,-25.3355,-28.7363,1014.51
182696,-2.7164,-1.40124,10.6887,1.12,-52.22,23.94,23.3471,-24.641,-29.3318,1014.51
182702,-2.66858,-1.22908,10.8417,-0.07,-41.23,22.96,23.605,-24.641,-29.6295,1014.52
182708,-2.76423,-0.961262,10.966,-7.63,-34.23,24.15,22.3732,-24.641,-29.913,1014.52
182714,-2.91726,-0.774749,11.1478,-21.56,-30.1,26.39,22.6883,-25.3355,-29.7854,1014.52
182720,-3.02726,-0.722142,11.2912,-38.78,-30.8,27.93,23.519,-25.4223,-29.828,1014.52
182726,-3.93592,-0.411286,11.6165,-55.79,-38.57,30.38,22.5164,-25.0172,-30.1682,1014.46
182732,-4.09373,-0.35868,11.6547,-74.48,-49.21,32.13,22.7169,-25.0461,-31.189,1014.46
182738,-3.88331,-0.0382592,11.3391,-89.88,-58.59,33.32,22.3159,-25.596,-30.4517,1014.51
182744,-3.70636,0.0621712,11.253,-101.64,-66.85,30.87,20.9122,-24.0333,-30.8487,1014.51
182750,-3.69201,0.196078,11.2434,-108.92,-74.34,30.87,20.9122,-24.149,-31.2457,1014.5
182756,-3.91679,0.712578,11.4586,-111.02,-79.94,35.35,21.1414,-23.6571,-32.6776,1014.5
182762,-4.03635,0.841702,11.5399,-108.43,-82.46,41.79,20.7403,-23.2519,-33.6132,1014.5
182768,-4.16547,1.00909,11.3773,-101.78,-82.88,51.17,20.3679,-23.3098,-32.9895,1014.51
182774,-3.9407,0.722142,11.2291,-91,-79.17,58.73,20.8262,-22.731,-33.6132,1014.51
182780,-3.71114,0.253467,11.2673,-79.24,-76.65,60.48,19.8809,-22.4127,-34.0953,1014.49
182786,-3.43855,-0.401722,11.296,-67.34,-75.18,57.82,18.5345,-21.7471,-34.5915,1014.49
182792,-3.19464,-0.755619,11.2386,-59.99,-75.95,51.03,18.1048,-22.3548,-34.2512,1014.53
182798,-2.99856,-1.07604,11.2243,-60.83,-78.26,42.77,18.1621,-21.4866,-34.7758,1014.53
182804,-2.89813,-1.35342,11.2626,-65.1,-82.74,31.64,17.3887,-20.9368,-36.0375,1014.49
182810,-2.85988,-1.45863,11.2386,-72.66,-89.11,21.98,16.7298,-21.1394,-35.1727,1014.49
182816,-2.71162,-1.56863,11.143,-81.34,-92.96,14.21,16.959,-20.5895,-35.0451,1014.5
182822,-2.5538,-1.48733,10.9326,-90.58,-95.69,8.33,16.472,-20.0397,-35.5839,1014.5
182828,-2.57771,-0.951698,10.6695,-102.48,-96.25,5.88,15.9277,-19.2873,-36.8315,1014.52
182834,-2.23816,-0.741272,10.5022,-111.86,-92.89,5.53,15.6412,-19.0558,-36.1368,1014.52
182840,-2.11382,-0.234338,10.2582,-120.33,-88.06,8.05,15.5553,-18.2455,-37.3277,1014.5
182846,-2.02774,0.0334768,10.3491,-126.63,-83.51,11.9,15.011,-17.6378,-37.6254,1014.5
182852,-1.8747,0.325203,10.1865,-134.4,-80.5,14.63,14.7532,-17.5799,-38.3626,1014.5
182858,-1.72645,0.401722,10.0574,-139.72,-79.8,16.31,14.0657,-16.8854,-38.1074,1014.51
182864,-1.86514,0.124342,10.2296,-139.37,-81.83,13.44,14.0943,-16.9143,-39.1707,1014.51
182870,-2.22382,-0.320421,10.3204,-135.31,-88.13,7.91,13.1203,-15.7857,-39.0714,1014.52
182876,-2.18556,-0.588235,10.1387,-128.66,-94.78,-1.61,13.149,-15.1201,-39.4968,1014.52
182882,-2.23338,-0.707795,9.69392,-122.08,-100.1,-8.26,12.6047,-14.0783,-40.5317,1014.5
182888,-2.29555,-0.913438,9.35437,-119.91,-101.43,-11.41,11.9458,-13.9047,-39.9221,1014.5
182894,-1.99904,-1.40124,8.78527,-117.67,-96.18,-12.95,12.3182,-13.4416,-40.5459,1014.52
182900,-1.77905,-1.85079,8.55093,-117.88,-87.92,-15.61,11.6593,-12.5445,-40.4892,1014.52
182906,-1.56384,-2.08513,8.36442,-120.26,-79.45,-17.22,10.5708,-11.5895,-41.0846,1014.47
182912,-1.67384,-2.09947,8.31181,-121.1,-70.84,-20.09,10.6281,-11.5895,-42.0061,1014.47
182918,-1.67384,-2.00383,8.20182,-122.08,-65.66,-23.8,10.7426,-10.3741,-42.6299,1014.53
182924,-1.6834,-1.95122,8.19225,-125.44,-59.99,-23.66,10.4562,-10.0268,-42.5165,1014.53
182930,-1.70732,-1.82209,8.00096,-127.96,-53.13,-22.68,9.45355,-9.10079,-40.9995,1014.53
182936,-1.68819,-1.71688,7.90053,-128.03,-45.29,-19.32,10.1411,-8.57989,-41.5241,1014.5
182942,-2.28599,-1.2769,7.50359,-127.89,-36.61,-11.62,9.36761,-7.19083,-42.1479,1014.5
182948,-2.3099,-1.91296,7.70923,-126.14,-27.79,-3.43,8.96655,-6.52523,-42.559,1014.46
182954,-1.52559,-3.38116,7.84314,-124.53,-18.34,-2.24,9.36761,-6.26478,-42.8709,1014.46
182960,-2.19034,-3.89287,8.24486,-123.83,-15.47,0.77,8.59415,-5.80176,-42.9418,1014.53
182966,-2.68293,-4.12721,8.19225,-134.61,-21.21,0.21,8.30768,-4.87571,-43.2962,1014.53
182972,-1.64036,-4.28503,7.42229,-152.53,-25.76,-2.59,8.68009,-4.84677,-44.0051,1014.5
182978,-1.09517,-4.17504,7.69488,-172.27,-27.86,-4.2,9.65408,-3.6024,-42.9418,1014.5
182984,-0.401722,-4.24677,7.57532,-192.43,-29.05,-6.93,8.90926,-2.96575,-44.0618,1014.51
182990,-0.205643,-4.27068,7.51315,-206.71,-27.65,-9.17,8.25039,-1.72137,-43.7074,1014.51
182996,-0.487805,-4.14634,7.56576,-215.88,-30.1,-13.16,8.50821,-0.216549,-43.8633,1014.51
183002,-0.970827,-4.04113,7.81922,-224.28,-38.99,-18.27,8.22175,0.622678,-44.3028,1014.51
183008,-0.970827,-4.05548,8.02009,-226.24,-47.95,-22.68,8.36498,1.2304,-43.7783,1014.49
183014,-0.927786,-4.23242,7.79531,-225.05,-55.16,-24.78,7.67746,2.73522,-44.6289,1014.49
183020,-0.602582,-4.56719,7.75705,-222.67,-60.41,-28.91,7.44829,4.09535,-44.3453,1014.49
183026,-0.636059,-4.72501,7.4175,-220.5,-62.44,-28.98,5.93002,4.41368,-45.1818,1014.49
183032,-0.205643,-4.88761,7.21186,-213.99,-57.75,-29.61,7.27641,6.35258,-43.7357,1014.49
183038,-0.301291,-4.64371,7.12578,-211.26,-57.54,-25.55,6.44566,8.20467,-43.5089,1014.46
183044,-0.153037,-4.65806,6.84361,-207.06,-54.74,-19.6,5.55761,8.98602,-43.7783,1014.46
183050,-0.11956,-4.43807,6.58536,-206.29,-52.99,-14,5.93002,9.88313,-43.5373,1014.52
183056,-0.0047824,-4.66762,6.29842,-207.34,-53.2,-10.43,5.58626,11.822,-43.041,1014.52
183062,0.023912,-4.98804,6.088,-204.68,-52.78,-9.59,5.55761,12.9507,-43.4947,1014.49
183068,0.401722,-5.37542,5.75801,-203.63,-52.29,-11.9,4.69821,13.6162,-42.8426,1014.49
183074,0.248685,-5.93974,6.10713,-199.92,-50.33,-11.06,5.04197,14.3976,-43.8066,1014.51
183080,0.416069,-6.54232,6.19321,-197.61,-50.54,-5.95,4.92739,15.5841,-43.6507,1014.51
183086,0.296509,-6.82449,6.23147,-195.93,-52.5,4.2,4.26851,16.3365,-42.7433,1014.51
183092,0.10043,-7.02535,6.28886,-199.71,-55.79,18.69,4.4404,18.2175,-43.5089,1014.51
183098,0.37781,-7.09708,6.21234,-204.61,-63.77,33.67,3.72423,18.6516,-42.7575,1014.51
183104,0.234338,-6.84361,6.24103,-208.53,-66.85,50.05,3.06536,19.3462,-42.8284,1014.46
183110,0.363462,-6.96317,6.26494,-212.1,-74.76,64.75,3.38047,20.6195,-42.4173,1014.46
183116,0.932568,-7.43663,5.5715,-222.6,-77.14,73.5,2.43513,21.7481,-41.8502,1014.49
183122,0.71736,-7.25012,5.11717,-219.03,-79.87,75.95,2.20596,22.4716,-40.9854,1014.49
183128,0.81779,-7.77618,5.18412,-220.08,-81.76,75.46,2.49243,23.658,-41.2264,1014.49
183134,0.841702,-7.71879,4.65328,-223.3,-73.5,77.63,2.23461,24.2368,-39.8795,1014.49
183140,0.506934,-7.72358,4.23721,-215.53,-75.32,68.04,2.14867,25.3365,-40.0639,1014.49
183146,0.21999,-7.99617,4.03156,-210.35,-70.35,66.36,1.83355,26.1179,-38.5752,1014.49
183152,0.200861,-8.49833,3.79244,-208.46,-56.35,69.51,2.14867,27.0728,-38.3909,1014.51
183158,-0.0286944,-9.20134,3.65375,-188.79,-53.62,57.61,1.31792,28.1725,-38.2066,1014.51
183164,-0.13869,-9.4022,3.44333,-181.09,-35.42,64.47,1.54709,28.7224,-37.4411,1014.54
183170,-0.5978,-9.26829,3.14204,-177.59,-34.58,86.17,1.89085,30.0246,-36.9591,1014.54
183176,-0.602582,-9.53611,2.69249,-162.54,-28.91,78.61,1.8622,30.1982,-37.2851,1014.52
183182,-0.774749,-9.56002,2.64467,-166.32,-29.61,93.94,2.32055,31.6452,-37.0583,1014.52
183188,-0.946915,-9.68914,2.48685,-168.21,-30.94,112.77,2.80754,31.9346,-36.4345,1014.52
183194,-1.14299,-9.70827,2.1473,-165.76,-29.19,109.27,2.34919,32.0793,-36.0942,1014.49
183200,-1.24342,-9.90435,2.02774,-169.26,-30.8,125.93,2.77889,33.4973,-35.031,1014.49
183206,-1.29603,-10.22,2.22382,-171.36,-28.91,136.15,2.97942,33.6999,-34.8892,1014.49
183212,-1.56863,-10.2056,2.00861,-167.65,-31.5,135.59,3.46641,33.7577,-33.5707,1014.49
183218,-2.01339,-10.1291,1.74558,-163.38,-28.7,156.03,2.86483,34.0761,-34.3788,1014.53
183224,-2.16164,-10.1913,1.82688,-163.31,-29.61,173.53,4.55498,34.9732,-33.996,1014.53
183230,-2.3099,-9.6461,1.16212,-164.22,-32.2,184.17,4.52633,36.478,-32.394,1014.51
183236,-2.23816,-9.31133,0.961262,-170.94,-31.57,204.4,5.09927,36.5069,-31.9971,1014.51
183242,-1.65949,-9.30655,0.918221,-181.44,-32.41,221.06,6.24513,36.5359,-31.9829,1014.53
183248,-1.3582,-9.35916,0.884744,-185.78,-32.13,232.61,6.50295,37.3462,-31.2031,1014.53
183254,-1.32472,-9.31133,0.774749,-192.64,-34.02,248.5,7.44829,37.5198,-29.431,1014.47
183260,1.64515,-8.91918,2.11382,-193.06,-38.78,247.8,8.1931,37.6934,-28.8639,1014.47
183266,8.2592,-7.35533,4.12243,-170.03,-18.41,210.07,9.0525,38.2722,-29.3176,1014.47
183272,1.956,-7.56097,4.13678,-148.75,-26.53,190.19,10.0265,39.1404,-27.9707,1014.5
183278,0.822573,-7.22621,3.70636,-134.68,-41.72,181.16,10.1411,39.1404,-27.5171,1014.5
183284,0.13869,-6.92013,3.17073,-121.66,-48.93,168.21,10.5135,38.9378,-27.0492,1014.5
183290,-1.48254,-6.56145,1.6021,-112.07,-58.52,165.2,11.0578,38.5037,-27.9424,1014.5
183296,-2.97465,-6.88666,2.27642,-91.63,-66.36,167.79,12.089,38.4169,-26.5814,1014.53
183302,-4.8924,-7.34577,2.52032,-59.99,-61.25,174.16,12.4614,38.9089,-26.9642,1014.53
183308,-4.17982,-7.89096,0.932568,-37.24,-49.35,181.65,12.6906,39.2851,-27.0776,1014.49
183314,-4.84457,-7.53228,-1.34385,-50.4,-47.39,181.23,13.4641,38.9378,-26.9075,1014.49
183320,-4.72023,-7.40794,-0.822573,-54.25,-42.98,194.32,12.7479,37.8381,-27.914,1014.5
183326,-5.35151,-7.02535,0.0621712,-52.22,-33.39,224.42,14.4381,38.7931,-25.7875,1014.5
183332,-5.95409,-7.34098,0.10043,-59.57,-36.4,255.01,15.1542,38.2722,-26.0994,1014.5
183338,-6.29842,-7.71401,0.296509,-57.33,-39.27,280.56,16.386,37.0857,-26.4538,1014.5
183344,-6.07843,-7.72358,0.162602,-47.88,-38.99,309.89,16.8444,36.478,-26.3404,1014.52
183350,-6.17886,-7.45098,0.176949,-45.29,-33.88,332.85,18.1621,36.2175,-25.4047,1014.52
183356,-6.5758,-7.08752,0.133907,-46.06,-30.8,353.43,19.709,35.1757,-25.4047,1014.52
183362,-6.59971,-6.86274,-0.071736,-46.2,-28.14,370.51,21.2273,34.8863,-24.8801,1014.49
183368,-6.89144,-6.56145,-0.353898,-44.59,-22.89,384.51,22.4305,34.0182,-25.8725,1014.49
183374,-6.96317,-6.13582,-0.889526,-44.31,-14.98,390.74,23.3758,32.8317,-25.6741,1014.48
183380,-6.87231,-6.49928,-0.148254,-33.81,-12.74,388.99,24.7222,32.2818,-25.4756,1014.48
183386,-6.28407,-6.69536,-1.15256,-25.34,-8.82,373.03,25.1805,31.0375,-24.4548,1014.49
183392,-6.54232,-6.30799,-0.903874,-22.12,-3.71,357.77,26.928,29.7352,-25.2204,1014.49
183398,-6.83405,-6.65232,-0.755619,-13.72,0.84,340.83,28.3889,28.9828,-24.951,1014.53
183404,-7.02535,-7.16882,-0.334768,0.28,-0.63,323.68,29.4775,27.3333,-25.4472,1014.53
183410,-7.40794,-7.3362,0.545194,21.35,-9.31,308.56,30.5947,26.6966,-24.9368,1014.5
183416,-8.28312,-7.33142,1.20995,62.16,-11.62,299.74,30.8812,25.3654,-25.5606,1014.5
183422,-9.42611,-5.89192,0.97561,78.33,-32.97,294.98,31.6547,24.613,-25.8442,1014.49
183428,-9.46437,-5.12195,0.506934,84.28,-57.82,301.07,32.0271,22.9635,-25.9009,1014.49
183434,-8.24008,-5.48063,0.564323,89.81,-68.74,315.56,32.5427,20.9957,-26.5247,1014.49
183440,-8.19225,-4.80153,0.0430416,91,-73.57,346.15,33.5167,19.404,-26.3262,1014.51
183446,-8.98135,-4.48589,1.02822,94.01,-91.98,382.83,33.4021,18.1018,-28.07,1014.51
183452,-9.52654,-4.39981,0.918221,95.9,-120.05,426.16,33.7459,15.7867,-27.3044,1014.51
183458,-10.043,-4.95935,0.435198,103.32,-138.46,463.33,34.1183,13.6452,-27.4037,1014.51
183464,-10.2152,-5.80583,-0.0286944,117.46,-139.51,479.57,34.4907,11.6195,-29.431,1014.5
183470,-9.8374,-6.46581,0.114778,142.24,-134.68,466.69,34.1183,9.76737,-30.7353,1014.5
183476,-10.8895,-5.22238,0.918221,168.21,-143.43,446.11,35.0636,7.10499,-30.8771,1014.49
183482,-10.6361,-4.30416,1.54472,191.45,-154.98,433.58,34.6053,5.19503,-31.8128,1014.49
183488,-10.1004,-2.98422,2.08034,215.18,-162.4,428.05,33.9177,2.56159,-32.0679,1014.5
183494,-9.52176,-1.20516,1.49689,205.38,-162.26,417.76,33.9177,0.593742,-33.6132,1014.5
183500,-8.97657,-0.21999,1.69297,198.94,-156.8,416.78,32.4854,-2.21333,-33.996,1014.51
183506,-8.81875,0.530846,1.50167,192.36,-139.51,418.25,32.4281,-4.41269,-33.9251,1014.51
183512,-9.08656,1.27212,1.52559,181.09,-133.21,408.31,31.8265,-6.17796,-33.8117,1014.56
183518,-8.57006,1.96557,1.11908,159.81,-121.24,385.77,30.4515,-8.78247,-33.8259,1014.56
183524,-8.93831,2.58728,1.40603,132.02,-104.86,360.22,29.8786,-9.73745,-33.8543,1014.56
183530,-9.1296,3.33333,3.54376,104.51,-82.95,333.62,28.6181,-11.7921,-34.4639,1014.52
183536,-9.22047,3.6968,3.11334,75.74,-65.1,303.45,28.7041,-12.5156,-33.8401,1014.52
183542,-9.35916,3.72549,3.38594,48.51,-49.14,280.07,27.6155,-14.8018,-33.9393,1014.54
183548,-9.86609,3.48159,3.86418,31.01,-38.99,257.95,27.0139,-15.0043,-34.3646,1014.54
183554,-10.6934,4.3472,3.56767,13.51,-42.56,255.57,26.7847,-16.2487,-34.4072,1014.57
183560,-10.44,4.25155,3.61549,8.47,-52.15,263.06,26.1259,-16.6538,-33.911,1014.57
183566,-10.6839,4.13199,3.38594,2.03,-66.99,286.09,25.3238,-17.2905,-34.6624,1014.47
183572,-10.7652,4.00765,3.37637,3.5,-85.89,318.43,23.605,-18.1876,-34.9884,1014.47
183578,-9.93783,3.33812,3.87374,20.65,-103.18,342.65,22.6596,-18.5638,-33.9819,1014.49
183584,-9.41655,3.099,3.69201,45.99,-119.49,354.69,22.2872,-19.8082,-35.4421,1014.49
183590,-9.42611,2.59206,3.45289,70.63,-129.15,355.95,21.5138,-21.3709,-35.1302,1014.53
183596,-8.35007,1.06648,3.06074,112.98,-127.05,335.16,19.1075,-21.8629,-35.3996,1014.53
183602,-7.47967,0.267814,2.39598,147.28,-112.84,291.83,17.9902,-22.5284,-35.5272,1014.53
183608,-7.15447,1.50167,2.00861,155.54,-100.17,251.23,16.2141,-24.2069,-35.1444,1014.53
183614,-7.11143,3.24725,2.33859,141.82,-84.42,215.6,15.5266,-24.7857,-34.6198,1014.53
183620,-6.04974,5.52845,1.97991,113.89,-59.29,194.39,15.4407,-25.104,-33.9535,1014.58
183626,-5.38498,6.48015,2.16164,84.21,-40.32,179.2,14.0084,-26.3194,-33.7976,1014.58
183632,-5.19369,7.43663,2.54902,55.86,-24.85,169.26,13.1776,-26.7246,-34.0102,1014.61
183638,-5.05021,7.66619,2.80249,38.15,-13.86,167.23,13.0057,-28.1426,-34.7474,1014.61
183644,-4.80631,7.30273,3.93592,33.11,-8.26,155.61,12.7479,-27.4191,-33.6558,1014.59
183650,-4.93065,7.76184,4.47154,30.45,-3.43,137.55,12.2323,-27.8243,-33.7125,1014.59
183656,-5.36585,8.20182,4.7011,24.64,2.59,119.84,12.1177,-28.1137,-35.1869,1014.56
183662,-5.16499,8.44572,4.5098,13.79,16.94,105.49,11.688,-28.432,-33.7125,1014.56
183668,-5.34672,8.2879,4.51937,24.08,46.69,99.96,11.3442,-28.1715,-33.8826,1014.52
183674,-4.73936,8.08704,4.06026,24.08,64.47,80.43,10.8859,-29.3001,-34.3221,1014.52
183680,-4.28981,9.87087,3.22334,-3.99,65.73,63,10.9432,-28.7503,-33.5424,1014.51
183686,-3.68723,10.2535,3.37637,-34.16,81.76,62.44,10.7999,-29.6764,-32.55,1014.51
183692,-3.45289,9.34959,3.82592,-46.34,109.13,67.41,11.7453,-29.2712,-33.4148,1014.51
183698,-4.28025,8.93831,4.31372,-56.7,117.11,65.31,11.8026,-28.3452,-33.1596,1014.49
183704,-4.93544,8.02009,5.12673,-69.44,108.43,61.95,11.3442,-28.2005,-33.6416,1014.49
183710,-5.33716,8.28312,4.63415,-85.05,94.22,65.8,11.7166,-28.1715,-32.5641,1014.55
183716,-5.43759,7.90531,3.63941,-91.91,93.24,74.27,12.1177,-27.2455,-33.1738,1014.55
183722,-5.83453,7.34098,3.06074,-90.65,93.24,84.21,12.2609,-28.2584,-34.0386,1014.5
183728,-6.15495,7.36011,2.9077,-89.04,86.03,91.98,12.089,-27.7085,-33.3297,1014.5
183734,-6.61406,8.05834,2.05165,-89.88,81.27,102.9,11.7453,-28.8661,-35.7256,1014.54
183740,-6.6571,8.17312,2.05643,-90.3,77.21,118.86,12.1463,-27.7085,-33.7125,1014.54
183746,-6.67623,7.76184,2.7977,-86.1,70.7,128.17,11.2869,-27.2165,-34.0811,1014.51
183752,-6.83405,7.54184,4.02678,-82.95,63.14,129.29,11.3156,-26.6378,-34.4213,1014.51
183758,-6.98709,7.58967,4.36155,-81.62,60.2,124.53,11.7739,-26.8114,-34.9034,1014.49
183764,-7.16404,7.87183,4.33764,-81.97,60.13,117.88,12.089,-26.0011,-34.9317,1014.49
183770,-7.12099,7.95791,4.31851,-82.39,59.57,112.14,11.602,-26.4352,-35.1018,1014.49
183776,-7.16882,8.22095,4.34242,-81.34,57.19,108.78,11.4302,-26.4063,-34.6056,1014.49
183782,-7.12099,8.43615,4.25634,-83.58,48.65,109.41,11.0864,-25.9722,-35.5839,1014.49
183788,-6.7671,8.40268,4.40459,-78.47,40.53,114.03,11.0291,-25.8564,-35.6548,1014.51
183794,-6.2506,7.67575,4.79675,-62.93,30.1,120.75,10.6567,-26.1458,-35.4563,1014.51
183800,-5.75323,6.8197,5.15064,-44.38,9.94,112.7,10.3989,-25.3066,-35.1444,1014.49
183806,-4.7011,5.87757,3.12291,-33.95,-24.5,100.59,10.9718,-25.8275,-36.2218,1014.49
183812,-5.7054,5.53324,1.85079,-28.91,-45.22,108.36,9.94054,-25.6828,-35.3145,1014.5
183818,-5.50933,4.68197,3.33812,-6.37,-36.33,111.37,8.93791,-25.7696,-35.995,1014.5
183824,-3.6681,5.46628,4.07939,11.62,-22.19,104.16,9.16708,-25.104,-35.8107,1014.5
183830,-2.78336,5.69584,4.31372,29.4,-15.61,90.93,9.45355,-25.7407,-36.4203,1014.5
183836,-1.93209,6.44668,3.45768,51.8,-18.76,94.22,8.93791,-26.0011,-36.0801,1014.49
183842,6.28886,8.68962,-0.0813008,128.1,-40.32,185.01,7.79205,-27.1876,-34.9601,1014.49
183848,-4.10808,7.85748,6.10234,115.01,-61.6,164.43,7.16182,-27.7375,-35.7115,1014.51
183854,-1.90818,8.13964,5.28455,61.95,-31.36,131.18,6.58889,-27.8243,-34.2087,1014.51
183860,-2.63032,10.4782,2.07078,11.55,-11.83,154.98,5.70084,-27.7953,-34.5915,1014.51
183866,-4.52893,8.49354,-6.22669,-57.75,36.75,155.12,6.1019,-28.4609,-34.7616,1014.47
183872,-5.60976,9.53611,2.57293,-74.48,17.85,145.81,5.09927,-28.4899,-35.8391,1014.47
183878,-6.91535,10.6074,1.06648,-80.01,16.52,153.44,5.21385,-27.7953,-35.2011,1014.49
183884,-7.73314,9.9187,1.01865,-95.55,17.29,158.27,4.61227,-26.9272,-35.2862,1014.49
183890,-7.83357,9.29699,3.62028,-92.54,-2.94,154.91,4.3831,-26.4641,-35.6264,1014.54
183896,-5.37064,9.44524,5.33238,-84.56,-14.84,154.7,2.97942,-26.6378,-35.8674,1014.54
183902,-2.94596,9.16308,4.39024,-86.38,-2.8,148.61,1.80491,-26.4063,-36.718,1014.52
183908,-3.0703,8.13964,4.3759,-80.08,8.82,143.22,2.46378,-25.567,-36.7606,1014.52
183914,-3.08943,7.34577,5.23195,-65.73,6.79,135.1,1.46115,-25.4802,-36.1651,1014.48
183920,1.56384,4.92587,1.7934,-51.03,23.17,136.99,0.830924,-24.9593,-36.8031,1014.48
183926,1.84122,4.60067,2.51554,-21,36.96,159.74,1.28927,-25.0461,-37.512,1014.5
183932,-8.15399,7.57054,7.92444,7.49,6.93,194.18,0.114759,-25.3645,-37.6537,1014.5
183938,-6.7671,9.49306,4.03156,35,-7.63,233.73,0.429872,-24.8725,-36.7322,1014.5
183944,-4.61023,9.24438,4.21329,47.39,9.66,262.64,-0.601406,-25.0172,-36.3069,1014.5
183950,-1.26734,7.41272,5.00239,70.21,26.11,269.99,-1.17434,-25.4513,-36.1368,1014.5
183956,-0.894309,6.70014,4.50502,93.03,40.46,266.91,-2.52073,-26.0301,-35.4988,1014.48
183962,-1.83166,6.62841,4.5098,111.72,49.98,269.85,-3.06501,-25.5381,-35.2153,1014.48
183968,-3.15638,7.34098,4.7824,127.19,55.65,283.57,-2.52073,-26.8403,-35.4279,1014.51
183974,-2.94596,9.07221,5.68627,105.07,38.15,325.22,-4.21088,-27.8532,-34.4922,1014.51
183980,-1.57819,9.35437,3.19943,71.89,30.24,372.26,-4.95569,-27.3902,-34.9034,1014.53
183986,-0.927786,9.36872,3.19464,51.17,22.54,408.03,-5.75779,-27.5638,-34.4781,1014.53
183992,0.779531,7.9627,3.98374,48.79,17.64,426.65,-6.81772,-27.5638,-33.911,1014.54
183998,1.1956,7.69966,3.99809,58.87,7.56,418.6,-9.10945,-27.5928,-35.4279,1014.54
184004,0.621712,9.06265,4.08417,80.71,3.5,423.15,-10.3412,-27.1587,-34.5489,1014.49
184010,1.53515,10.1961,3.27116,94.15,-4.27,418.81,-11.9741,-26.4641,-33.8684,1014.49
184016,1.40603,11.1669,2.68293,86.31,-20.09,417.76,-13.4637,-26.8982,-33.4289,1014.5
184022,2.39598,10.0765,2.81683,81.48,-32.06,411.39,-14.7815,-26.1747,-32.5783,1014.5
184028,2.72119,9.76566,3.07508,90.86,-39.27,405.65,-15.3544,-26.2037,-32.5641,1014.5
184034,2.89813,10.2535,2.70684,93.38,-40.39,407.4,-17.0159,-25.7407,-31.4725,1014.47
184040,2.73553,10.8274,2.57771,86.73,-45.99,416.57,-18.1331,-25.2487,-32.2806,1014.47
184046,2.89813,10.483,2.91248,84.49,-50.54,428.82,-20.4535,-25.4513,-31.6284,1014.5
184052,3.00813,9.76088,3.3429,92.61,-55.79,447.58,-21.7999,-24.4095,-31.4725,1014.5
184058,3.16595,9.23481,3.27594,100.8,-59.57,467.25,-23.6906,-23.223,-31.7986,1014.49
184064,2.96987,9.1296,3.35246,102.97,-64.26,494.41,-25.2375,-22.9047,-30.4376,1014.49
184070,3.44333,8.32616,3.2616,104.79,-64.89,514.5,-27.2714,-21.4288,-30.4376,1014.53
184076,3.90244,6.94883,3.19464,112.63,-60.83,523.95,-28.6178,-20.2133,-30.8487,1014.53
184082,3.39072,6.80057,1.82209,105.35,-77.63,535.57,-30.4512,-19.4899,-29.4593,1014.52
184088,5.64801,4.40459,1.34864,59.92,-79.31,514.5,-31.8262,-17.9561,-28.4386,1014.52
184094,6.68101,2.23816,1.84601,74.69,-79.59,491.75,-32.8575,-16.1908,-28.9206,1014.49
184100,6.1693,3.52941,0.148254,71.12,-67.13,469.35,-34.6049,-15.7857,-28.2685,1014.49
184106,7.2836,4.02678,-1.16212,34.16,-61.39,421.75,-36.7248,-13.8757,-27.7864,1014.49
184112,8.71832,3.912,0.932568,31.64,-40.25,361.9,-37.0972,-12.3998,-27.7439,1014.5
184118,8.44572,5.15064,1.64993,39.83,-35.28,288.54,-37.9566,-11.3291,-27.4462,1014.5
184124,7.43185,5.5715,2.14252,45.15,-38.08,236.32,-38.243,-11.1265,-26.8082,1014.49
184130,6.52319,5.27021,2.28599,61.32,-56.49,214.41,-38.9019,-9.65063,-27.2477,1014.49
184136,6.77188,5.03587,1.25299,67.76,-62.02,213.08,-38.9878,-9.10079,-25.9292,1014.47
184142,7.4988,3.65375,1.35342,64.26,-52.57,259.56,-39.6467,-8.84035,-26.468,1014.47
184148,8.57963,2.50598,1.22429,59.71,-37.66,303.17,-40.7926,-7.01719,-25.9718,1014.53
184154,10.0717,2.42468,0.564323,54.39,-26.74,325.43,-41.5374,-6.49629,-26.3546,1014.53
184160,10.5117,1.84601,0.0860832,53.06,-23.17,331.52,-41.3942,-5.10723,-26.5814,1014.42
184166,10.7461,0.813008,-0.679101,47.6,-19.39,323.82,-42.0817,-3.7471,-26.2553,1014.42
184172,10.813,0.483022,-1.02822,34.86,-18.41,306.04,-43.3135,-2.90787,-25.9009,1014.4
184178,11.0521,0.224773,-1.11908,22.54,-19.95,284.76,-43.3994,-1.66349,-25.8584,1014.4
184184,10.966,-0.0573888,-0.798661,9.52,-21.98,264.39,-42.9411,-0.361244,-25.6599,1014.4
184190,10.8704,-0.162602,-0.607365,1.12,-21.21,239.75,-43.7432,0.825252,-25.6173,1014.4
184196,10.4208,0.124342,-0.186514,1.19,-19.53,215.25,-44.2875,1.92493,-24.9652,1014.4
184202,10.1435,0.473458,-0.0334768,4.27,-16.45,193.06,-43.5999,2.38795,-24.5541,1014.37
184208,9.6461,0.860832,0.196078,6.44,-11.76,171.5,-43.4854,3.57445,-24.8518,1014.37
184214,9.24438,1.01387,0.526064,9.03,-7.21,156.24,-44.2875,3.45869,-25.83,1014.39
184220,9.03395,1.20516,0.545194,11.27,-0.56,141.89,-44.3161,4.67413,-24.9652,1014.39
184226,9.34959,1.15256,0.368245,11.97,11.97,132.86,-43.7718,4.78988,-25.107,1014.39
184232,9.51219,1.01387,0.416069,13.02,25.97,127.26,-43.3421,5.36866,-25.8016,1014.39
184238,9.88522,1.09039,0.650406,11.69,37.1,120.68,-43.9724,6.20789,-25.1778,1014.42
184244,10.0096,1.24821,0.808226,7.7,39.13,115.85,-44.1156,5.83168,-26.6523,1014.42
184250,10.3109,1.22429,0.851267,2.45,34.3,114.17,-43.4567,7.45226,-25.1637,1014.4
184256,9.33046,2.42946,1.82688,6.72,25.83,133.35,-43.6286,7.39438,-25.4189,1014.4
184262,9.35916,1.74558,3.73027,33.53,11.41,154.28,-43.4854,7.91528,-25.3622,1014.41
184268,9.86131,3.73505,2.00861,30.8,-1.82,171.15,-43.4281,8.75451,-25.6032,1014.41
184274,10.263,3.37637,1.69297,12.67,-16.94,187.6,-43.4281,8.63876,-25.9009,1014.41
184280,9.89957,1.52559,3.61549,22.61,-25.69,210,-43.7145,9.76737,-25.3196,1014.37
184286,9.30655,0.463893,4.1033,56.56,-37.59,221.13,-44.0583,10.6355,-24.8943,1014.37
184292,10.3156,0.196078,2.65423,82.53,-40.81,222.74,-43.7432,11.4458,-25.107,1014.46
184298,11.6499,-1.45863,-0.191296,82.88,-36.68,202.02,-43.9724,11.5616,-24.6108,1014.46
184304,10.5308,-1.88905,-0.420851,73.92,-30.59,198.66,-43.9151,12.8638,-26.468,1014.47
184310,9.22525,-3.72071,2.17121,107.03,-14.84,212.8,-43.0557,13.0085,-25.107,1014.47
184316,9.5935,-3.95026,1.73123,134.54,-5.88,217.77,-43.4854,14.0214,-25.2346,1014.47
184322,10.4113,-2.78814,-0.267814,134.4,1.4,208.81,-43.4854,13.5005,-25.4897,1014.47
184328,11.0043,-2.85509,-1.42037,115.78,-0.49,193.2,-42.6546,14.0214,-26.2411,1014.44
184334,10.5165,-3.10378,-1.62602,67.06,-8.4,172.27,-43.4854,15.0632,-24.71,1014.44
184340,10.1865,-2.94118,-0.884744,30.87,-4.48,157.5,-42.8838,15.613,-25.0644,1014.43
184346,9.61262,-2.76423,0.133907,9.66,4.27,151.06,-43.3135,15.7288,-25.7875,1014.43
184352,9.13438,-2.38642,0.97561,-3.15,10.08,146.37,-42.0817,15.9024,-25.2204,1014.43
184358,7.94835,-9.09134,2.22382,11.9,-7.28,63.63,-42.139,16.4233,-25.0928,1014.46
184364,7.84792,-14.7011,0.267814,-14.49,-19.18,-145.67,-42.3681,16.6838,-25.1778,1014.46
184370,7.91965,-4.95935,-6.13582,-42.84,39.34,-207.83,-42.8265,15.9024,-26.071,1014.47
184376,7.75227,-0.186514,-5.6528,-56.56,85.82,-180.6,-42.9124,14.7449,-25.8867,1014.47
184382,7.45576,-2.4725,0.688666,-40.88,83.93,-140.21,-42.5973,15.0632,-25.8442,1014.44
184388,6.13582,-2.08034,3.3142,-32.97,53.06,-86.94,-42.9697,14.9474,-26.2837,1014.44
184394,6.5758,-2.52511,4.57676,-36.68,38.57,-46.13,-43.2848,14.5134,-25.7449,1014.45
184400,8.46963,-2.07556,3.3429,-30.24,37.73,-19.39,-42.3681,14.0793,-25.7591,1014.45
184406,8.21138,-2.15208,2.16643,-4.13,34.93,-34.16,-42.5973,14.2818,-26.5956,1014.48
184412,8.71832,0.0765184,-0.167384,-10.99,34.09,-40.74,-42.1103,13.5873,-26.6523,1014.48
184418,9.45002,-1.24821,1.06169,-2.94,49.07,-38.99,-42.4827,14.0214,-26.3829,1014.46
184424,9.35437,-0.526064,1.61645,-5.95,47.74,-32.13,-41.3082,13.9346,-27.191,1014.46
184430,9.7561,0.746054,1.39168,-23.94,48.09,0.49,-41.9384,14.1371,-27.5596,1014.48
184436,11.0043,0.133907,2.26686,-38.57,53.69,39.97,-41.6233,13.8767,-28.0558,1014.48
184442,11.143,-0.731707,3.48159,-41.58,48.16,64.61,-41.4801,14.6291,-28.1125,1014.48
184448,10.7413,-0.167384,3.1803,-44.31,35.21,75.46,-41.9671,14.6002,-27.914,1014.49
184454,9.46437,-1.27212,6.26494,-26.18,-1.12,76.58,-41.079,15.7577,-28.0416,1014.49
184460,9.3735,-1.80296,4.98804,-20.3,-21.98,72.45,-41.9098,13.8478,-29.7145,1014.48
184466,10.44,-0.554758,2.13773,-24.92,-28.49,70,-40.7639,15.4683,-28.2543,1014.48
184472,10.4926,-0.0286944,0.0669536,-28.07,-30.31,73.15,-41.079,16.6548,-27.9282,1014.46
184478,9.70827,-1.50646,1.74558,-23.52,-36.05,86.38,-41.1936,16.9732,-26.5389,1014.46
184484,9.82783,-2.86466,2.76423,-18.34,-36.96,101.99,-41.2796,16.8285,-26.95,1014.47
184490,10.0813,-3.09421,1.80775,-16.73,-33.67,116.06,-40.9072,17.6677,-27.7439,1014.47
184496,9.6461,-2.59206,0.492587,-20.51,-35.28,128.24,-41.3369,18.5937,-27.1343,1014.48
184502,9.44524,-2.31468,0.454328,-23.45,-36.89,140.35,-40.1337,19.3172,-26.7515,1014.48
184508,8.62745,-3.06552,1.27212,-15.82,-31.36,161.77,-40.9072,19.3462,-26.4538,1014.48
184514,8.6944,-3.51028,2.53945,6.58,-17.5,177.59,-40.6493,20.1564,-26.6239,1014.48
184520,9.21568,-1.12865,1.26255,12.74,-28.63,172.48,-40.7353,20.6773,-26.3971,1014.48
184526,9.08178,-0.143472,0.769966,14.84,-49.35,158.13,-40.9072,20.7352,-26.7373,1014.48
184532,9.76088,-1.44907,0.674318,25.48,-55.65,134.26,-40.9931,21.4008,-25.5039,1014.48
184538,10.5595,-3.21377,0.545194,25.62,-51.38,110.46,-39.5035,22.4426,-25.7024,1014.49
184544,10.8417,-3.76375,0.712578,4.13,-43.19,113.75,-40.3056,22.5005,-26.0427,1014.49
184550,10.4113,-3.61071,0.832138,-35.7,-39.34,146.16,-40.5061,21.777,-27.3895,1014.49
184556,9.93783,-2.26686,1.54472,-68.53,-37.8,207.27,-39.2743,23.4265,-25.5323,1014.49
184562,9.73218,-3.36681,2.27164,-75.25,-42.84,282.8,-39.7613,25.4233,-25.4897,1014.5
184568,9.89479,-7.58489,2.80249,-61.32,-65.66,299.39,-39.2457,26.2336,-24.4832,1014.5
184574,10.9182,-8.37877,0.865614,-55.09,-76.72,273.98,-38.3003,27.015,-23.5617,1014.5
184580,10.813,-8.95744,-0.535629,-50.4,-75.74,223.58,-38.1284,28.7224,-24.3414,1014.5
184586,8.11573,-7.09708,-1.88905,-35.91,-57.68,193.13,-37.842,29.2433,-23.6325,1014.47
184592,7.23577,-6.31755,-2.29555,-27.58,-37.66,179.06,-37.8133,29.388,-23.7034,1014.47
184598,6.901,-5.87757,-2.03252,-31.22,-29.33,168.14,-37.5842,30.6613,-24.1855,1014.47
184604,6.80536,-6.02582,-1.04256,-37.45,-31.15,163.94,-37.0972,31.0953,-23.2639,1014.47
184610,6.91057,-6.35581,-0.23912,-33.53,-29.4,163.66,-37.0972,32.0214,-23.0796,1014.47
184616,6.80057,-6.26973,-0.559541,-34.44,-29.89,163.1,-36.4956,32.658,-22.7252,1014.49
184622,7.2549,-6.03061,-1.10473,-42.35,-28.14,159.6,-36.2091,33.613,-22.626,1014.49
184628,7.80966,-6.67145,-1.24342,-39.69,-24.85,143.71,-35.6075,33.3526,-22.5976,1014.46
184634,7.34577,-6.32233,-1.27212,-35.42,-23.94,125.09,-35.0919,34.5101,-22.9804,1014.46
184640,7.67097,-5.92061,-0.999522,-33.18,-20.79,108.71,-35.0346,33.9314,-21.9455,1014.44
184646,7.32185,-5.60019,-1.06648,-35.35,-19.67,98.84,-35.1492,34.6548,-23.1789,1014.44
184652,7.18795,-6.07365,-0.875179,-38.22,-17.5,92.26,-34.1466,35.523,-21.6761,1014.45
184658,7.03969,-7.17838,-0.229555,-31.01,-14.63,86.38,-33.8315,35.8703,-21.0807,1014.45
184664,6.86753,-7.35533,-0.329986,-20.44,-12.81,83.86,-34.433,36.0439,-21.7612,1014.49
184670,6.81014,-7.5801,-0.502152,-8.47,-12.04,81.13,-33.6309,36.5937,-21.6052,1014.49
184676,6.78144,-7.58489,-0.746054,-0.91,-12.39,77.07,-33.6596,36.5937,-20.5986,1014.47
184682,7.05882,-7.4462,-0.980392,6.79,-10.5,70.07,-33.1439,36.6227,-21.3642,1014.47
184688,7.30751,-6.85796,-1.31038,10.15,-6.79,64.89,-32.9148,37.2015,-21.1799,1014.47
184694,7.12099,-6.29364,-1.33429,2.45,-10.01,60.83,-32.9148,37.6066,-22.47,1014.49
184700,6.50885,-6.43711,-0.879962,-6.51,-15.33,58.17,-32.571,37.3172,-22.1439,1014.49
184706,6.3032,-7.11621,-0.966045,-16.45,-15.82,50.54,-32.571,37.3172,-21.8037,1014.46
184712,5.38498,-7.77618,-0.803443,-24.08,-12.88,39.97,-32.3705,37.7224,-21.1232,1014.46
184718,5.12195,-7.90053,-0.583453,-21.42,-9.24,30.52,-32.5137,38.2433,-21.6619,1014.49
184724,5.25108,-7.9627,-0.253467,-10.15,-9.94,17.5,-32.7142,37.9828,-21.5769,1014.49
184730,5.6241,-7.51315,-0.133907,6.3,-10.64,6.79,-32.9434,37.6066,-20.7262,1014.48
184736,5.82018,-6.92013,-0.506934,21.77,-5.6,4.41,-33.4877,37.6934,-20.6412,1014.48
184742,6.24103,-7.03969,-0.0526064,45.36,3.08,6.86,-32.3132,37.7513,-21.0665,1014.47
184748,6.93448,-7.42229,0.0047824,69.37,6.37,-0.28,-32.5424,37.9539,-21.7186,1014.47
184754,8.33572,-7.15447,-1.29125,77.28,9.87,-3.64,-33.3445,36.6806,-22.3282,1014.44
184760,7.16882,-6.43233,-0.430416,78.12,4.41,-5.25,-32.8575,37.7802,-21.8037,1014.44
184766,7.54663,-6.52798,0.10043,85.47,-5.74,-9.59,-32.7142,37.6934,-22.1156,1014.45
184772,11.8747,-3.48159,2.07078,81.06,13.86,-10.29,-33.5163,36.449,-21.4493,1014.45
184778,9.89957,-3.70636,1.76949,43.19,58.03,8.96,-32.6569,36.4201,-23.0938,1014.45
184784,6.94883,-4.91152,1.6834,-4.76,52.99,44.66,-31.9121,36.9989,-23.7318,1014.49
184790,7.72836,-6.14538,1.14778,-32.41,50.61,80.22,-32.2272,36.6227,-23.6042,1014.49
184796,8.27833,-7.30751,0.526064,-53.76,61.04,101.15,-31.7976,36.9121,-23.6184,1014.46
184802,7.82401,-7.64706,-0.368245,-72.8,62.23,104.09,-29.9928,37.9249,-23.5617,1014.46
184808,7.14491,-7.2836,-0.73649,-89.39,60.69,110.88,-30.0501,37.7802,-23.1789,1014.48
184814,6.15017,-7.9627,0.0813008,-100.73,52.01,112.84,-29.8496,38.9667,-22.3991,1014.48
184820,5.27021,-7.79531,0.573888,-97.51,40.04,115.99,-28.6178,38.9089,-22.1298,1014.48
184826,2.00861,-4.40937,0.454328,-80.22,31.22,142.38,-28.0448,39.6034,-21.832,1014.48
184832,6.0593,-9.3209,-2.37685,-69.37,40.6,122.36,-27.3,39.7481,-21.7895,1014.44
184838,6.15973,-9.86131,-3.00813,-21.7,74.2,114.94,-27.3,39.9507,-21.2933,1014.44
184844,5.40889,-6.95361,-1.71688,29.54,82.25,124.18,-25.925,40.1243,-22.0447,1014.49
184850,5.79149,-6.48972,-1.09995,58.24,86.87,131.11,-25.6099,40.7609,-22.385,1014.49
184856,4.17504,-6.15973,-0.0813008,57.75,86.94,134.26,-25.2661,40.9056,-23.2498,1014.49
184862,2.84553,-6.29842,0.463893,45.43,78.75,133.56,-25.3234,40.2111,-24.6108,1014.45
184868,2.41511,-6.62841,0.923003,25.9,72.1,136.78,-23.8051,40.8188,-24.0295,1014.45
184874,1.87948,-7.64706,1.09517,11.27,59.36,154.7,-22.4588,40.7899,-23.8594,1014.46
184880,3.51506,-7.93878,0.927786,5.25,60.13,172.62,-23.0317,40.5873,-24.9368,1014.46
184886,5.28455,-8.48876,0.248685,6.3,76.44,195.65,-21.4561,41.5712,-24.228,1014.49
184892,5.6241,-8.84266,-0.129125,14.28,91.98,213.85,-20.3389,42.2658,-24.1713,1014.49
184898,6.16451,-8.9957,-0.827355,16.59,101.78,234.15,-18.6488,41.6002,-25.2204,1014.44
184904,6.40842,-9.24438,-0.746054,15.82,120.19,263.76,-17.1305,42.3236,-25.0644,1014.44
184910,6.04974,-9.5648,-0.0286944,12.95,145.67,303.03,-16.0133,42.2368,-24.2989,1014.47
184916,5.12673,-9.79436,0.650406,16.94,151.48,334.74,-14.2372,42.4105,-24.7951,1014.47
184922,5.15064,-9.69392,0.640842,26.95,160.65,360.29,-13.034,42.9892,-25.5465,1014.44
184928,4.81588,-9.56958,0.33955,43.26,171.29,374.71,-9.62508,42.9314,-25.7733,1014.44
184934,4.21329,-8.94787,0.0047824,58.31,178.22,380.94,-7.67711,42.6998,-25.9859,1014.33
184940,3.82592,-8.31659,-0.0860832,70.49,183.61,382.41,-5.52862,41.2818,-26.6523,1014.33
184946,3.27116,-7.64706,0.0430416,78.26,184.52,378.21,-2.89313,41.8317,-27.0351,1014.33
184952,2.70206,-7.31707,0.363462,78.68,181.58,369.18,-1.26028,41.2818,-27.4462,1014.35
184958,1.47298,-6.89622,0.650406,68.46,173.04,358.75,0.343931,40.0664,-29.0057,1014.35
184964,0.181731,-6.66667,1.15256,51.03,159.6,354.76,2.37784,40.7031,-27.8857,1014.35
184970,-1.44428,-6.27929,1.6308,24.71,145.46,365.4,4.21122,40.4426,-26.794,1014.35
184976,-3.83548,-6.61406,2.56337,11.27,133.35,372.61,7.30506,39.4008,-27.6163,1014.37
184982,-1.77905,-5.68627,1.81731,-56.7,114.38,319.06,8.13581,39.3429,-27.7297,1014.37
184988,0.387374,-5.2176,1.19082,-84.07,91.98,246.68,9.79731,38.5037,-27.7723,1014.41
184994,2.27164,-12.6734,3.14682,2.8,116.06,173.11,11.4302,38.7642,-27.0634,1014.41
185000,-0.463893,-12.7164,1.4395,50.33,108.71,134.61,11.8312,38.0696,-27.1201,1014.37
185006,-3.07987,-11.0617,0.215208,66.99,90.58,142.59,13.3495,36.9989,-26.9642,1014.37
185012,-2.83596,-9.6461,-0.640842,46.83,92.96,174.37,13.55,37.0568,-27.8006,1014.38
185018,-1.9847,-8.66093,0.57867,26.25,117.39,205.66,14.9537,36.6806,-27.1059,1014.38
185024,-2.23816,-8.67049,0.865614,9.1,125.16,218.05,15.899,35.8703,-26.5956,1014.38
185030,-3.13247,-8.40268,0.774749,-15.05,119.35,227.85,17.2454,35.2626,-26.5814,1014.39
185036,-3.11334,-8.16834,0.640842,-47.39,109.27,234.29,18.735,34.8285,-25.8725,1014.39
185042,-3.2616,-8.43615,1.15734,-75.25,99.33,230.23,19.4512,35.0021,-26.3262,1014.39
185048,-3.88331,-8.60832,1.09517,-107.73,87.36,229.95,20.5684,34.3365,-24.5966,1014.39
185054,-4.08895,-9.21568,1.05213,-128.1,81.06,234.85,20.9408,33.4394,-25.0219,1014.43
185060,-3.912,-10.7126,0.879962,-127.12,83.79,237.37,23.2326,33.642,-23.9161,1014.43
185066,-3.72071,-11.8077,1.2769,-98.77,93.24,238.91,23.1466,33.15,-23.1505,1014.41
185072,-3.67767,-12.0086,0.970827,-64.89,102.9,235.76,24.8941,32.5712,-22.7819,1014.41
185078,-3.57245,-11.2434,1.23386,-38.43,109.97,226.38,26.0399,31.5005,-22.2432,1014.43
185084,-3.45289,-10.5643,1.49211,-18.06,115.01,212.03,27.4723,31.1822,-22.2148,1014.43
185090,-4.27068,-9.84218,1.66906,-6.3,109.83,200.41,27.415,31.0085,-21.9313,1014.4
185096,-4.19416,-9.12482,0.999522,-1.82,105.28,194.18,28.79,30.2272,-21.0948,1014.4
185102,-4.57676,-7.71401,0.707795,-14.63,96.32,188.93,29.1624,28.8671,-21.5201,1014.42
185108,-4.66762,-7.98661,0.320421,-23.03,87.5,179.55,30.7666,28.5487,-21.3926,1014.42
185114,-4.79675,-7.66141,0.095648,-30.03,78.82,173.74,31.2536,27.5359,-20.2584,1014.42
185120,-5.02152,-8.01052,0.267814,-26.39,71.89,171.5,31.8265,27.7095,-19.1384,1014.44
185126,-5.19847,-8.58919,0.320421,-12.53,73.71,175.21,32.9724,26.9281,-18.8123,1014.44
185132,-6.75275,-7.39837,-0.21999,-10.92,71.19,190.47,33.9177,25.8863,-19.507,1014.45
185138,-7.55619,-7.07795,-0.186514,-15.68,68.11,217.35,34.462,24.9024,-18.5004,1014.45
185144,-7.97704,-6.8484,-0.291726,-28.21,63.77,243.67,35.3501,23.9764,-18.8123,1014.49
185150,-8.4792,-6.901,-0.196078,-39.76,54.18,264.6,36.41,23.2818,-18.2027,1014.49
185156,-8.10139,-7.03013,-0.282162,-52.92,45.85,279.58,36.897,21.9796,-18.5571,1014.48
185162,-7.91965,-7.08273,-0.492587,-62.72,34.44,283.22,37.1262,21.8638,-17.905,1014.48
185168,-7.54184,-7.86227,-0.406504,-60.13,27.3,279.37,38.1574,20.6195,-17.8908,1014.47
185174,-6.69058,-8.60354,-0.176949,-51.59,18.9,261.8,39.3892,19.0568,-16.9551,1014.47
185180,-6.56624,-8.27833,-0.0813008,-53.9,6.44,234.78,39.7903,18.3622,-17.4088,1014.48
185186,-6.92492,-7.43185,-0.454328,-65.87,-13.51,215.95,40.22,17.0889,-17.3662,1014.48
185192,-8.07269,-5.61454,-1.07126,-91.07,-14.77,202.44,40.2486,15.8735,-17.2245,1014.48
185198,-8.85222,-4.60067,-1.00909,-111.86,-27.51,211.4,40.2486,15.3815,-17.8624,1014.49
185204,-9.30177,-6.03061,-3.4242,-92.61,-19.04,232.05,41.3945,14.6291,-16.9551,1014.49
185210,-8.73744,-5.8154,-0.999522,-74.2,-16.8,240.94,41.9961,14.1082,-17.7774,1014.52
185216,-10.0765,-6.13104,2.44381,-32.13,-21.56,237.79,41.6523,13.0953,-16.8842,1014.52
185222,-7.92444,-8.57006,2.67336,34.3,-15.19,209.51,42.1966,12.5455,-17.5647,1014.51
185228,-8.27833,-7.51793,2.18556,71.89,-7,182.28,42.168,10.6645,-18.1318,1014.51
185234,-8.60832,-5.71975,1.18604,78.12,0.35,157.29,42.3112,9.53586,-17.8908,1014.56
185240,-8.89526,-4.62458,0.645624,69.79,-4.34,137.48,42.7982,8.60982,-17.0685,1014.56
185246,-6.99187,-4.03156,-0.444763,51.87,7.98,109.69,42.8268,7.33651,-17.6781,1014.56
185252,-8.19225,-4.6724,-0.181731,46.62,8.82,95.97,42.4544,7.85741,-17.9333,1014.56
185258,-8.1779,-5.04543,-0.33955,48.3,10.85,76.72,43.1706,6.90242,-17.2245,1014.51
185264,-8.83309,-5.15064,-0.263032,53.2,14.77,56.28,43.3998,5.97638,-16.9409,1014.51
185270,-9.50741,-5.12673,-0.0860832,50.4,14.84,32.06,43.543,6.58409,-17.3662,1014.53
185276,-10.6504,-7.58967,3.56289,60.27,3.57,2.66,42.9987,5.97638,-16.7566,1014.53
185282,-9.60306,-5.2989,0.186514,62.72,6.93,-27.65,42.7122,6.41046,-16.8842,1014.53
185288,-9.24438,-5.14108,-0.439981,55.3,7.49,-66.71,43.5144,6.75773,-18.5713,1014.54
185294,-8.95265,-3.9933,-0.722142,30.17,14.98,-104.3,43.9727,6.67091,-17.2103,1014.54
185300,-9.01004,-4.84935,-0.176949,29.19,19.32,-150.57,43.3425,6.67091,-15.9627,1014.51
185306,-9.5648,-6.17886,0.325203,27.79,10.64,-188.37,42.4544,8.03104,-16.7141,1014.51
185312,-10.1387,-6.70014,0.636059,34.72,-4.27,-205.73,43.2279,8.89921,-16.4164,1014.53
185318,-11.0378,-6.89622,0.559541,60.62,-21.56,-214.69,42.569,10.0857,-16.8984,1014.53
185324,-11.4969,-6.30799,-0.0047824,61.88,-34.79,-208.95,42.082,10.6066,-17.5647,1014.5
185330,-10.5978,-6.18364,-0.746054,61.32,-39.83,-206.64,42.082,12.0535,-17.3521,1014.5
185336,-9.89957,-6.23625,-0.664754,40.81,-44.38,-211.47,42.3112,12.5455,-17.664,1014.54
185342,-9.06743,-6.69058,-0.229555,26.74,-53.62,-222.81,40.8216,13.2979,-17.6498,1014.54
185348,-7.37446,-7.23577,0.224773,30.31,-58.59,-243.39,40.4778,14.8606,-18.4295,1014.5
185354,-6.59493,-7.48924,0.105213,38.71,-60.13,-268.59,40.2773,15.6709,-19.2376,1014.5
185360,-5.56671,-7.84314,0.0573888,50.75,-54.81,-304.15,39.5325,16.6838,-19.2518,1014.5
185366,-4.74892,-8.79005,0.392157,60.97,-52.43,-348.18,38.2147,18.5359,-19.0533,1014.48
185372,-4.77284,-9.53611,0.683883,66.08,-59.36,-385.49,37.5559,19.6934,-19.5353,1014.48
185378,-5.44715,-9.96652,0.47824,70.49,-70.49,-413.84,36.2381,21.314,-20.0741,1014.45
185384,-6.25538,-10.3061,0.707795,74.9,-79.31,-443.24,35.4074,22.9635,-20.6837,1014.45
185390,-7.9627,-10.6217,0.985174,76.02,-86.38,-452.2,34.3474,25.0182,-21.6903,1014.47
185396,-8.02487,-11.186,0.970827,71.68,-101.29,-457.24,32.5141,25.8574,-21.7328,1014.47
185402,-7.90531,-11.6069,2.1999,77.91,-115.15,-481.81,30.8812,27.449,-22.626,1014.44
185408,-6.91057,-12.3434,3.32855,79.03,-142.87,-524.3,29.2483,28.3462,-23.3348,1014.44
185414,-7.97226,-11.8125,3.72071,86.17,-175,-576.38,27.4723,29.7352,-23.3632,1014.44
185420,-8.41224,-11.0187,3.51028,101.08,-201.25,-636.3,23.605,31.8478,-24.7951,1014.44
185426,-8.7757,-9.93304,2.52989,114.24,-230.3,-678.58,21.3992,33.9603,-24.8943,1014.41
185432,-8.09182,-9.46915,1.02343,113.05,-250.6,-704.97,18.1621,35.0889,-26.1561,1014.41
185438,-9.97609,-5.6241,-0.860832,88.2,-261.03,-681.24,15.1829,36.2754,-27.1059,1014.37
185444,-8.71832,-5.38498,-1.36777,45.92,-255.01,-627.2,11.5448,37.5777,-27.7156,1014.37
185450,-6.1406,-4.93544,-0.363462,4.13,-249.62,-558.11,8.36498,38.9378,-27.8857,1014.37
185456,-3.67767,-5.94931,0.21999,-26.95,-244.02,-495.95,5.55761,39.4008,-28.3677,1014.36
185462,-0.47824,-7.11621,1.3582,-52.57,-238.21,-440.44,3.46641,40.7031,-27.9707,1014.36
185468,1.39168,-9.41176,1.86514,-59.01,-238.63,-427.42,0.286638,40.5005,-27.8432,1014.36
185474,2.55858,-10.5548,2.47728,-47.32,-240.73,-439.46,-3.35148,40.3269,-27.0067,1014.36
185480,3.16117,-9.89479,1.43472,-28.42,-239.82,-457.45,-4.52599,41.8317,-27.673,1014.36
185486,3.70158,-9.94739,1.53993,-1.33,-235.76,-479.29,-8.27869,41.7449,-27.1627,1014.36
185492,3.25681,-8.5318,0.755619,18.41,-231.84,-480.34,-10.4558,41.1371,-27.1059,1014.33
185498,2.69727,-7.16404,0.320421,31.64,-221.97,-456.4,-13.521,41.1082,-27.0918,1014.33
185504,2.88379,-6.57102,-0.277379,36.33,-204.26,-412.44,-15.469,41.7159,-26.7799,1014.35
185510,3.77331,-6.88187,-0.650406,46.13,-177.03,-364.77,-17.7607,40.3269,-26.2411,1014.35
185516,3.18986,-6.0593,-0.506934,46.27,-154.35,-300.16,-19.9092,40.0375,-26.8224,1014.37
185522,5.40411,-9.41176,1.65949,60.48,-143.29,-272.58,-20.4821,40.1243,-27.2902,1014.37
185528,5.70062,-9.88044,2.10904,67.34,-149.17,-277.83,-23.2895,38.5905,-27.0776,1014.37
185534,6.0593,-8.95744,1.11908,77.49,-160.72,-294,-24.3781,37.9539,-26.3687,1014.38
185540,6.61406,-8.55093,-0.153037,97.79,-154.35,-316.89,-25.3521,37.1725,-26.0427,1014.38
185546,5.62888,-7.53706,0.253467,85.47,-153.58,-313.81,-27.4719,36.5069,-26.0568,1014.36
185552,7.16404,-7.73792,-0.703013,101.29,-136.15,-296.87,-28.9329,35.3783,-26.0994,1014.36
185558,4.85414,-4.62458,-1.23386,98.35,-114.52,-231.63,-30.4225,34.3076,-26.1277,1014.46
185564,6.03539,-3.40029,-1.4395,63.77,-83.51,-173.39,-30.5944,34.4233,-26.4963,1014.46
185570,8.06791,-3.89287,-0.483022,32.62,-53.9,-129.99,-31.597,33.6999,-25.192,1014.44
185576,8.44094,-4.49067,-0.320421,2.94,-39.13,-102.41,-33.5736,32.5423,-26.5956,1014.44
185582,8.93352,-6.03061,1.00909,-8.68,-37.03,-108.78,-32.2272,32.4555,-26.1986,1014.46
185588,7.16882,-5.41846,0.636059,-31.85,-52.71,-97.02,-32.8575,32.8317,-26.0001,1014.46
185594,8.34051,-6.69058,0.650406,20.79,-33.81,-114.45,-33.6023,32.0503,-26.6665,1014.46
185600,8.48398,-6.56624,0.277379,9.87,-53.48,-127.12,-34.2039,31.9635,-25.4189,1014.46
185606,8.44094,-5.42802,-0.483022,5.11,-43.54,-126.49,-34.6049,31.8478,-26.0852,1014.48
185612,7.93878,-5.19847,0.0765184,24.36,-38.15,-136.71,-35.6362,31.4137,-25.5606,1014.48
185618,8.1779,-5.94452,0.153037,28.28,-36.33,-132.72,-35.3211,29.851,-26.2128,1014.48
185624,3.93592,-2.31468,-3.29029,26.67,-7.14,-103.25,-35.9799,29.388,-25.3905,1014.46
185630,5.82496,0.105213,-3.07508,51.31,33.04,-83.93,-36.0945,29.0117,-25.5465,1014.46
185636,8.58919,-3.35724,-1.84601,67.06,17.15,-83.44,-36.5815,29.359,-26.5672,1014.45
185642,7.96748,-4.55285,-1.36298,44.59,-3.99,-89.53,-37.0972,28.3172,-26.1986,1014.45
185648,8.57006,-5.055,0.439981,15.47,-22.33,-107.87,-37.7847,28.433,-25.4614,1014.48
185654,7.86227,-4.69153,1.42037,-6.44,-29.75,-100.59,-37.4409,28.2015,-26.5247,1014.48
185660,7.82879,-3.70158,1.27212,-5.81,-31.5,-81.76,-38.5581,28.6934,-26.8366,1014.48
185666,8.02487,-2.96509,-0.363462,17.29,-5.95,-31.78,-37.756,27.5069,-26.2411,1014.48
185672,9.67001,-7.65184,0.215208,33.6,3.92,-44.03,-37.4982,27.7963,-27.2194,1014.47
185678,5.83453,-5.868,0.454328,39.2,10.29,-66.08,-37.9852,26.6966,-26.227,1014.47
185684,6.0593,-0.420851,0.726925,13.44,17.99,-23.31,-38.0712,26.1757,-26.1561,1014.45
185690,9.25873,-5.38498,1.74079,-0.42,17.15,-43.75,-37.7274,26.9281,-25.83,1014.45
185696,6.06887,-5.63367,1.68819,-3.99,9.1,-26.25,-37.6128,27.8253,-26.553,1014.45
185702,7.64706,-6.48972,2.49163,2.8,15.4,-39.06,-37.269,26.0889,-26.3687,1014.47
185708,5.96365,-4.28503,2.31946,6.37,10.22,-15.47,-38.2717,27.2175,-25.3196,1014.47
185714,7.60402,-4.56241,1.47776,-7.98,17.57,-6.09,-38.4436,26.6098,-25.9292,1014.45
185720,8.32616,-6.18843,1.41559,-7.98,26.18,-15.54,-37.9566,26.4651,-25.433,1014.45
185726,7.14969,-5.978,0.626494,-3.08,26.25,-19.11,-38.3003,26.4362,-26.2553,1014.47
185732,8.24486,-5.47585,-0.444763,5.95,37.1,-23.66,-37.7847,25.7417,-26.6239,1014.47
185738,10.0383,-5.44237,-0.0286944,14.07,32.69,-43.61,-37.9279,26.4072,-25.8158,1014.48
185744,9.47394,-4.50502,0.793878,12.32,27.72,-49.21,-37.1258,25.5391,-25.8016,1014.48
185750,9.69871,-4.33285,0.554758,15.96,31.36,-42.91,-38.0712,25.7417,-27.0209,1014.48
185756,10.1435,-4.17504,0.640842,12.67,39.76,-36.75,-37.6128,25.4523,-26.6665,1014.48
185762,11.1047,-5.16499,0.492587,-3.43,41.44,-39.48,-38.6154,25.6548,-26.9075,1014.46
185768,10.3635,-4.04113,0.0047824,-31.71,43.12,-32.13,-36.4383,25.1339,-26.8508,1014.46
185774,10.2774,-3.55332,0.0860832,-47.6,57.61,-20.44,-37.7847,25.4523,-27.3611,1014.47
185780,10.4113,-4.01243,0.549976,-71.75,63.21,-14.49,-38.1571,24.8445,-27.829,1014.47
185786,9.9713,-4.40459,1.06648,-88.62,64.82,-9.45,-36.9539,25.8863,-27.3895,1014.47
185792,9.8087,-4.40937,1.21473,-72.31,67.34,-0.49,-36.5242,26.7256,-27.3044,1014.47
185798,9.8087,-5.5428,0.875179,-64.19,84.7,19.88,-36.7248,26.3783,-27.7723,1014.47
185804,9.86609,-5.22716,0.243902,-37.66,109.97,38.78,-35.894,26.0021,-27.9282,1014.46
185810,8.13486,-4.25155,0.13869,-17.36,128.87,46.13,-35.9513,26.3783,-28.0983,1014.46
185816,7.84314,-4.16547,-0.215208,4.83,138.25,37.73,-35.3784,26.3204,-28.3961,1014.43
185822,8.52224,-3.9933,-0.114778,38.43,147.42,25.69,-34.4617,25.4812,-29.1616,1014.43
185828,8.47441,-3.60115,0.779531,75.53,142.66,21.14,-34.0606,26.5809,-29.6153,1014.42
185834,8.34529,-2.8264,1.75036,92.33,118.72,3.78,-33.8028,25.568,-29.3176,1014.42
185840,7.7714,-2.68771,2.78814,91,83.79,-15.68,-33.2585,25.6838,-30.8771,1014.43
185846,7.27881,-4.03635,3.71592,82.04,45.5,-41.23,-33.2012,25.0471,-29.9272,1014.43
185852,4.58154,-7.23577,6.28886,90.37,4.83,-65.38,-32.7142,24.642,-31.6852,1014.45
185858,3.87374,-6.59493,7.27881,96.88,-42.14,-86.87,-32.5137,24.1211,-30.9196,1014.45
185864,5.47585,-5.49498,5.82018,94.36,-61.32,-91.07,-34.5476,23.5423,-31.3024,1014.45
185870,7.45576,-3.79723,2.46294,81.55,-58.45,-69.37,-34.1752,23.1661,-30.2391,1014.44
185876,8.1779,-3.46724,2.05165,69.09,-43.4,-31.5,-34.6909,23.658,-31.0188,1014.44
185882,8.84744,-4.16547,2.67814,60.48,-34.58,-11.83,-34.6622,22.9346,-31.8553,1014.44
185888,8.27833,-4.11765,2.48685,52.85,-38.29,-7.14,-34.5476,22.5584,-31.0897,1014.44
185894,7.86227,-3.97896,1.47776,52.85,-40.18,-4.06,-34.3757,22.24,-31.3307,1014.48
185900,9.19656,-4.72979,1.98948,60.76,-33.04,-12.04,-34.9773,21.8928,-30.9479,1014.48
185906,8.24486,-4.71066,2.75466,84.35,-28.7,-3.5,-35.6362,21.806,-32.3373,1014.46
185912,8.22573,-4.32329,2.73075,95.69,-23.45,6.16,-34.9773,21.5455,-31.8269,1014.46
185918,7.47011,-3.84505,2.53467,95.83,-22.47,19.6,-35.2065,20.9957,-31.1606,1014.45
185924,8.25442,-4.14634,2.64945,99.33,-19.67,20.44,-34.8627,20.7931,-30.5085,1014.45
185930,6.99187,-4.61502,4.31372,110.25,-46.27,10.64,-35.8081,20.9378,-31.4016,1014.45
185936,10.6934,-6.51841,4.84457,112,-70.42,-58.03,-35.6075,20.2722,-31.9262,1014.45
185942,10.5308,-7.94357,2.36729,107.1,-107.45,-138.6,-36.1518,18.9989,-30.7636,1014.47
185948,9.34959,-7.98661,1.23864,102.97,-145.53,-229.81,-37.2404,18.5648,-30.1824,1014.47
185954,5.76279,-6.12625,0.0621712,85.4,-151.34,-284.9,-37.5269,17.4362,-30.395,1014.47
185960,5.56193,-3.8594,-1.37733,70.63,-140.98,-296.24,-38.0712,15.3815,-30.0973,1014.5
185966,5.7054,-0.554758,-0.746054,57.61,-124.39,-274.54,-39.7327,15.0053,-29.8705,1014.5
185972,6.79101,0.196078,0.683883,51.59,-117.53,-249.41,-40.3342,13.4716,-29.5869,1014.47
185978,8.2879,-0.176949,1.91774,73.22,-105.84,-239.75,-40.8785,12.2561,-28.9348,1014.47
185984,8.73266,-0.105213,2.04208,101.43,-104.23,-241.22,-42.0817,10.9539,-29.7287,1014.49
185990,8.06791,-0.234338,1.24821,116.41,-115.29,-239.47,-41.5087,10.0857,-28.0133,1014.49
185996,7.8814,-1.48254,0.382592,132.02,-126.7,-243.81,-41.6233,9.53586,-27.7156,1014.47
186002,8.14921,-1.85557,0.0813008,149.87,-131.88,-257.32,-42.8265,7.27863,-26.794,1014.47
186008,7.87661,-1.02343,0,159.88,-129.15,-264.67,-41.8239,5.97638,-27.3186,1014.47
186014,7.15447,-1.2769,-0.25825,161.28,-102.62,-277.27,-42.7405,4.3558,-27.673,1014.47
186020,6.59015,-1.84601,0.0430416,144.55,-86.45,-302.75,-43.6572,2.24326,-26.794,1014.49
186026,6.89622,-1.54472,1.68819,122.57,-96.6,-331.45,-43.4281,1.0857,-25.8016,1014.49
186032,7.19751,-1.32472,1.66906,102.27,-112.42,-361.62,-43.8005,-0.679571,-26.0143,1014.49
186038,7.70923,-0.693448,1.09039,92.33,-118.3,-384.23,-43.7145,-2.44484,-24.2138,1014.49
186044,8.00574,0.463893,0.640842,77.07,-121.52,-395.92,-43.5713,-4.52845,-23.7885,1014.49
186050,10.8034,-1.32472,0.841702,106.4,-119.56,-442.33,-43.2848,-6.23584,-23.3065,1014.46
186056,7.15447,2.77379,0.430416,100.8,-126.49,-452.97,-42.8265,-9.01398,-22.7677,1014.46
186062,7.56576,3.43855,-0.229555,68.39,-136.99,-441,-43.3421,-9.96896,-22.4558,1014.47
186068,8.41702,3.75418,-0.798661,84.56,-125.23,-426.09,-42.139,-11.5606,-22.1581,1014.47
186074,8.81396,2.74988,0.310856,108.43,-127.68,-446.95,-41.2796,-14.4545,-21.4634,1014.53
186080,7.46054,3.3429,0.894309,118.44,-138.25,-447.79,-41.1936,-17.4352,-19.3936,1014.53
186086,7.63271,3.46246,-0.210426,151.83,-145.81,-442.05,-40.5061,-19.432,-18.4437,1014.48
186092,6.94404,4.22286,-0.368245,183.4,-148.4,-435.82,-40.0764,-21.6603,-18.9824,1014.48
186098,7.2549,5.26064,-1.06648,182.35,-153.16,-412.65,-38.329,-23.0204,-17.267,1014.49
186104,7.19273,5.82496,-0.923003,174.09,-165.62,-410.2,-37.7274,-24.6699,-15.4665,1014.49
186110,7.26447,5.95887,-0.683883,159.46,-160.86,-406.56,-37.0685,-26.6088,-14.6726,1014.46
186116,6.73362,6.02104,-1.1143,123.62,-151.06,-379.4,-35.4643,-28.6056,-13.907,1014.46
186122,6.93926,6.75275,-1.93687,52.5,-137.55,-356.58,-34.4903,-29.5895,-12.5744,1014.46
186128,8.29268,9.25873,-2.59684,4.06,-110.39,-351.89,-33.0294,-30.7471,-12.702,1014.5
186134,9.31612,9.57915,-2.33859,-52.01,-98.98,-361.76,-32.5997,-31.7889,-12.6736,1014.5
186140,9.33525,7.75705,-1.85557,-88.97,-96.74,-380.52,-30.4798,-32.6281,-12.4326,1014.52
186146,8.71353,7.42707,-1.72645,-109.48,-96.04,-385.84,-29.8496,-34.0751,-13.4817,1014.52
186152,7.79531,7.53228,-1.63558,-121.31,-99.54,-384.16,-27.9876,-35.4352,-13.2974,1014.48
186158,7.43185,7.39359,-1.20038,-122.57,-105.14,-378,-26.5266,-35.1747,-12.4042,1014.48
186164,7.45098,7.76662,-1.3056,-116.9,-105,-366.1,-25.2375,-36.6217,-14.0346,1014.52
186170,7.55619,8.25442,-1.79818,-121.45,-108.36,-357.98,-23.1463,-36.8821,-14.3182,1014.52
186176,6.96317,8.73744,-2.21425,-114.8,-109.69,-340.13,-22.5161,-37.5477,-15.1971,1014.52
186182,6.21712,9.7274,-2.44381,-107.94,-113.19,-318.29,-20.6254,-38.5895,-15.2255,1014.52
186188,6.0593,9.91392,-2.7977,-99.12,-113.61,-301.91,-19.5941,-39.4577,-14.8144,1014.49
186194,5.60976,10.1196,-2.86944,-81.62,-111.86,-282.1,-17.5602,-39.9497,-15.0837,1014.49
186200,4.60067,10.593,-2.91726,-63.91,-107.73,-261.87,-17.3883,-39.776,-15.5799,1014.49
186206,3.99809,10.6265,-2.76901,-47.74,-101.01,-245.7,-16.2424,-39.3998,-15.5516,1014.49
186212,3.52463,10.2774,-2.61597,-31.36,-95.55,-232.89,-14.8388,-40.4995,-16.3171,1014.49
186218,2.85988,10.3013,-2.51076,-22.54,-86.38,-222.32,-14.7815,-41.4256,-15.7642,1014.48
186224,2.47728,9.90913,-2.2286,-22.96,-72.31,-216.58,-13.4924,-41.5124,-15.6933,1014.48
186230,1.89383,8.84266,-1.1956,-29.19,-60.2,-221.9,-12.8908,-41.5702,-16.0619,1014.53
186236,1.81253,8.41224,-0.172166,-61.04,-56.21,-224.42,-11.7163,-42.0043,-15.424,1014.53
186242,4.67719,7.82401,6.44189,-236.46,-20.3,-215.39,-10.2267,-42.1201,-16.0194,1014.53
186248,1.43472,4.4572,-4.97848,-308.98,-78.61,-239.89,-9.02351,-41.4545,-18.0751,1014.53
186254,0.884744,3.19464,-1.97991,-284.62,-64.96,-304.36,-7.70576,-40.8468,-19.748,1014.48
186260,2.08513,3.51985,-6.51841,-191.17,3.85,-344.82,-6.44531,-40.2391,-20.0174,1014.48
186266,-1.56863,8.9957,3.54376,-154.63,-39.55,-288.26,-4.92704,-39.7471,-20.5986,1014.52
186272,-0.167384,10.6887,-0.387374,-116.83,-37.52,-263.76,-3.20825,-40.4416,-20.5136,1014.52
186278,1.30081,13.9742,-1.73123,-145.53,-30.73,-260.4,-1.74727,-40.0944,-22.3991,1014.49
186284,2.57771,14.5289,-1.04256,-177.31,-27.09,-258.51,-1.26028,-39.805,-21.8746,1014.49
186290,2.05643,13.0225,-1.07126,-161.98,-11.76,-242.41,-0.544113,-38.7921,-22.4558,1014.49
186296,1.14299,13.0655,-0.846485,-146.65,-6.79,-203.98,0.000171967,-38.9657,-23.9303,1014.46
186302,0.985174,13.6155,-1.20516,-136.92,0.14,-168.21,0.974157,-38.5317,-23.3915,1014.46
186308,0.966045,13.0081,-1.26255,-122.99,16.66,-126.07,1.51844,-38.1844,-25.4897,1014.48
186314,1.05213,11.0617,-0.913438,-102.06,33.6,-91.56,1.66167,-36.7953,-25.0361,1014.48
186320,-0.047824,11.2099,-0.071736,-76.16,36.33,-86.24,3.12265,-37.4609,-25.8158,1014.53
186326,-3.76375,12.6303,2.28599,-54.95,0.49,-88.2,2.77889,-37.3162,-25.7024,1014.53
186332,-2.45337,10.4256,0.200861,-29.05,-14.35,-92.54,3.46641,-36.9111,-26.2553,1014.53
186338,-1.66428,8.35485,-0.430416,-4.62,-10.5,-115.57,4.41175,-36.9111,-25.8016,1014.53
186344,-3.05117,7.73792,1.48254,17.85,-17.29,-139.65,5.2425,-36.8532,-25.8158,1014.53
186350,-3.04161,8.37877,1.85557,30.24,-31.5,-155.05,5.32844,-36.4481,-26.0285,1014.53
186356,-3.11812,9.95696,1.71688,25.06,-36.33,-159.04,5.15656,-37.3741,-25.4897,1014.53
186362,-2.60641,10.5022,1.9847,3.85,-24.43,-152.67,5.87273,-36.7664,-26.0001,1014.53
186368,-1.75514,10.4926,1.58297,-33.81,-12.46,-149.1,6.61754,-36.7664,-25.8016,1014.53
186374,-0.832138,10.3252,1.50167,-69.02,-5.88,-149.87,6.73212,-36.6796,-26.3829,1014.52
186380,-0.573888,10.4639,1.16212,-85.89,-6.58,-149.73,7.70611,-35.9561,-27.4037,1014.52
186386,-0.449546,10.7269,0.0191296,-73.92,-4.9,-137.06,7.73475,-35.0879,-26.6948,1014.49
186392,-0.0813008,11.6069,-0.731707,-47.74,0.77,-112.21,9.33896,-35.3194,-27.7581,1014.49
186398,-0.636059,12.8455,-0.841702,-17.29,3.57,-71.19,9.59678,-35.2037,-27.6021,1014.5
186404,-1.75514,12.9794,-0.0813008,9.59,7.56,-28.42,9.68272,-34.0461,-25.9151,1014.5
186410,-1.95122,12.6638,0.0669536,23.59,24.64,11.55,9.68272,-34.9722,-26.6097,1014.52
186416,-1.86035,10.9708,0.291726,34.16,44.45,25.34,9.33896,-34.9432,-28.0558,1014.52
186422,-2.83596,9.48828,0.153037,48.3,47.74,14.7,9.02385,-35.6957,-26.2695,1014.51
186428,-4.50502,10.0191,1.50167,43.33,35.14,-0.56,9.10979,-35.3773,-26.071,1014.51
186434,-4.39024,10.043,1.25777,49.42,27.72,-8.26,8.85197,-35.6088,-26.6948,1014.54
186440,-3.61071,9.34959,0.487805,40.32,27.02,-25.9,9.96919,-35.0879,-26.9783,1014.54
186446,-2.91248,8.24008,1.39646,25.41,22.82,-51.52,10.5135,-35.985,-25.4047,1014.54
186452,-2.59206,7.67097,1.89383,-0.14,17.08,-73.01,10.0551,-35.551,-26.1986,1014.53
186458,-2.15686,7.91009,1.57819,-21.98,13.79,-90.37,10.5708,-35.0879,-26.1277,1014.53
186464,-1.88905,8.14921,0.961262,-38.71,11.76,-102.27,11.0005,-35.3484,-25.7308,1014.55
186470,-1.61645,8.64658,0.559541,-42.42,15.05,-102.83,11.4588,-35.522,-25.9859,1014.55
186476,-1.45385,9.00048,0.23912,-49.35,17.22,-104.72,11.3442,-35.7535,-26.6665,1014.52
186482,-1.49689,9.68436,-0.157819,-55.58,25.97,-106.26,12.089,-34.6249,-26.1135,1014.52
186488,-1.34864,9.89,-0.502152,-82.04,44.38,-109.76,13.0344,-33.8725,-27.0918,1014.52
186494,-1.48254,10.8704,-0.0621712,-115.36,65.73,-106.12,13.8365,-34.2198,-27.1343,1014.52
186500,-2.2286,11.8843,-0.425634,-163.52,89.6,-96.46,14.6099,-34.0461,-27.7723,1014.54
186506,-3.55332,11.7886,0.851267,-198.52,104.51,-89.67,15.3261,-32.7728,-27.5029,1014.54
186512,-4.49067,10.8847,1.94165,-204.05,113.05,-80.36,16.5579,-31.9625,-29.2325,1014.5
186518,-5.37064,8.9957,2.54902,-191.24,112.28,-76.02,16.6152,-31.3837,-29.0199,1014.5
186524,-6.0593,8.60832,3.08465,-176.33,89.53,-75.95,16.959,-30.2841,-29.4735,1014.47
186530,-6.25538,8.07269,2.56815,-164.29,64.61,-71.47,17.8184,-29.1265,-29.9981,1014.47
186536,-5.92061,8.0966,2.38164,-155.05,43.47,-62.58,17.6751,-30.0526,-29.7287,1014.47
186542,-5.12673,7.89096,2.2286,-145.81,29.12,-53.55,17.2454,-27.94,-30.6219,1014.51
186548,-4.46676,7.90053,2.01817,-136.99,26.6,-51.38,18.9069,-28.4609,-30.9338,1014.51
186554,-3.50072,7.75227,1.73601,-131.6,28.56,-56.7,19.1934,-27.477,-31.756,1014.5
186560,-2.01339,6.72884,1.44907,-125.44,35.84,-72.1,18.1048,-27.6217,-32.5358,1014.5
186566,-2.05643,6.23625,1.20038,-122.78,43.68,-81.9,19.0788,-26.3484,-31.7986,1014.52
186572,-2.80249,5.07891,1.84122,-112.07,52.64,-83.86,19.4226,-25.0172,-31.9545,1014.52
186578,-3.74462,4.74892,2.38642,-95.2,52.36,-82.46,20.282,-24.9014,-32.4649,1014.45
186584,-3.36203,5.055,2.17121,-83.44,55.93,-86.73,21.1127,-24.612,-32.2948,1014.45
186590,-2.83596,6.59971,3.17073,-72.17,71.68,-108.29,21.7429,-23.9754,-32.1105,1014.51
186596,-3.07987,7.38881,4.41416,-52.85,84.77,-124.46,21.7429,-23.6571,-32.1246,1014.51
186602,-4.62458,7.96748,5.92061,-19.67,77.98,-128.17,23.0034,-23.2809,-32.635,1014.52
186608,-6.36059,9.29699,6.40363,16.66,57.4,-102.69,23.118,-22.5284,-32.55,1014.52
186614,-8.11573,11.3486,6.19321,38.36,31.01,-54.6,23.9201,-22.6442,-30.4517,1014.52
186620,-9.01482,12.2573,5.21282,44.17,11.48,-6.93,23.4617,-22.8757,-31.9687,1014.5
186626,-9.11047,12.176,4.40937,45.57,-4.13,37.03,23.5477,-23.0493,-31.3591,1014.5
186632,-8.58441,10.9613,2.99856,47.6,-8.4,69.44,23.4044,-23.686,-30.6644,1014.47
186638,-8.21616,10.0096,1.69775,45.01,-5.39,84.84,23.7482,-23.6281,-31.8128,1014.47
186644,-7.12578,8.25442,0.961262,40.95,0.98,83.86,24.1206,-24.149,-32.3231,1014.52
186650,-5.52845,6.901,0.593018,44.31,7.98,70.63,23.032,-24.4095,-31.5292,1014.52
186656,-4.69153,6.3032,0.765184,47.88,18.83,48.37,22.8888,-25.0461,-30.31,1014.5
186662,-2.78814,5.93018,0.526064,56,50.4,23.73,22.8888,-24.641,-31.1039,1014.5
186668,-2.69727,7.61358,1.47298,54.74,70.14,14.84,23.3185,-25.6828,-30.7495,1014.47
186674,-3.82114,9.22047,3.27116,49.07,49.14,25.97,22.6596,-26.1747,-30.31,1014.47
186680,-4.25155,9.4022,4.10808,43.19,10.85,51.66,23.4617,-25.9722,-30.0973,1014.53
186686,-4.70588,9.64132,5.0263,45.15,-12.81,71.89,23.5477,-26.1169,-29.3176,1014.53
186692,-4.57676,9.26829,4.25634,51.73,-27.44,85.61,23.0034,-26.551,-29.5302,1014.52
186698,-4.21808,8.94309,4.08895,60.13,-34.86,89.04,22.9174,-26.4931,-29.4168,1014.52
186704,-3.61549,7.8527,3.71592,76.72,-37.17,80.22,21.1987,-26.8403,-29.7287,1014.52
186710,-3.41463,7.89096,3.65375,95.48,-39.83,67.62,21.2846,-27.8532,-29.1474,1014.48
186716,-2.83596,8.5605,3.52463,114.52,-51.52,54.46,20.9981,-28.403,-29.5161,1014.48
186722,-2.41511,8.31659,2.7977,131.32,-60.41,33.6,21.1127,-28.8371,-29.672,1014.49
186728,-2.67814,8.00096,2.15208,147.21,-61.74,15.75,21.0268,-29.1265,-29.7004,1014.49
186734,-3.2616,6.52798,1.9034,165.9,-57.47,1.26,20.8262,-29.3291,-29.034,1014.51
186740,-3.70636,5.52845,1.67384,180.53,-51.87,-6.3,20.9122,-30.5445,-28.4102,1014.51
186746,-3.50072,4.39503,1.4682,191.87,-51.24,-14.07,20.3106,-30.6892,-28.0133,1014.48
186752,-3.20421,4.19895,1.48254,198.1,-56.91,-21.14,19.795,-31.4127,-26.6523,1014.48
186758,-2.91248,4.1846,1.0856,202.02,-62.79,-32.69,20.5398,-31.3259,-26.312,1014.51
186764,-2.58728,4.82544,0.746054,199.22,-65.94,-46.06,20.3393,-32.3677,-25.5606,1014.51
186770,-2.33381,5.53324,0.23912,188.65,-63.77,-58.66,19.0502,-33.0043,-25.6741,1014.5
186776,-2.37685,6.81014,-0.224773,174.23,-59.99,-66.01,20.0528,-32.9175,-25.1353,1014.5
186782,-2.67814,7.42229,-0.401722,164.15,-56.7,-68.46,19.709,-33.149,-24.228,1014.5
186788,-3.06074,8.0153,-0.215208,158.97,-52.64,-70.84,19.6517,-33.612,-24.4123,1014.48
186794,-3.37159,8.26877,-0.176949,161.63,-46.9,-74.9,19.9096,-34.7696,-24.4406,1014.48
186800,-3.9407,8.43615,-0.267814,168.35,-44.1,-80.85,20.8835,-34.6249,-23.3206,1014.51
186806,-4.28025,8.59397,-0.607365,171.22,-38.36,-88.55,20.8835,-35.2616,-22.7394,1014.51
186812,-4.66284,8.74701,-0.631277,173.32,-36.96,-95.27,21.5997,-34.8854,-22.0022,1014.5
186818,-5.39455,9.19656,-0.71736,179.06,-39.9,-100.73,21.4278,-35.7535,-21.6194,1014.5
186824,-5.53802,9.50263,-0.750837,185.85,-44.17,-104.58,21.8002,-36.3902,-21.1515,1014.53
186830,-6.62841,9.54567,-0.97561,195.58,-52.71,-102.97,21.5424,-36.1587,-19.3227,1014.53
186836,-7.1736,9.76566,-1.34385,202.3,-54.95,-96.04,21.8862,-36.4191,-18.4721,1014.53
186842,-7.13534,10.1052,-1.84601,202.23,-51.8,-77.14,22.5164,-36.6217,-18.387,1014.53
186848,-6.69058,8.8044,-1.69775,194.74,-61.39,-66.01,22.8029,-37.6635,-18.4154,1014.57
186854,-3.4242,4.39981,-0.449546,181.16,-83.72,-88.41,22.4305,-36.9979,-17.4513,1014.57
186860,-2.8264,3.62506,-1.15734,147,-45.78,-91.07,22.7169,-37.4609,-17.0969,1014.58
186866,-4.81588,5.67671,-1.01387,147.14,-21.84,-83.09,22.2872,-37.6635,-16.9268,1014.58
186872,-5.43281,7.56097,-2.46294,134.75,-22.47,-95.9,23.1753,-37.8661,-16.2604,1014.58
186878,-6.48015,8.32616,-2.96509,121.73,-25.13,-120.89,23.8628,-38.7053,-16.0761,1014.55
186884,-6.64275,6.88187,-2.34338,109.83,-23.52,-146.86,24.7795,-37.8661,-14.5875,1014.55
186890,-4.91152,5.55715,-0.33955,118.65,-19.53,-179.76,24.1206,-37.7503,-16.1328,1014.58
186896,-4.36155,7.011,0.334768,142.52,-26.18,-221.13,25.5243,-37.2294,-15.4949,1014.58
186902,-5.99235,9.94739,-0.884744,150.01,-48.86,-234.85,27.5582,-37.6924,-14.786,1014.57
186908,-5.73888,10.6217,-3.1803,133.7,-56.77,-246.54,26.4983,-36.7664,-13.8503,1014.57
186914,-7.12099,9.78479,-4.25155,100.66,-49.49,-262.29,27.4723,-36.2455,-13.9637,1014.61
186920,-8.2066,9.2109,-4.2659,68.11,-33.67,-256.83,29.0478,-35.9272,-13.8361,1014.61
186926,-9.06743,8.46007,-3.9933,47.81,-22.54,-231.21,30.1937,-35.0011,-13.5526,1014.57
186932,-10.703,6.54232,-2.53467,37.45,-25.13,-192.5,30.4515,-34.4802,-13.7369,1014.57
186938,-10.2104,6.20756,-2.74032,22.82,-26.81,-150.43,31.7692,-34.3645,-13.0847,1014.59
186944,-9.4835,5.27499,-3.07987,14.14,-30.94,-127.12,32.2849,-33.4384,-13.6093,1014.59
186950,-7.58967,5.51411,-3.40985,8.82,-37.52,-119,31.9411,-33.2648,-13.8928,1014.59
186956,-7.28838,6.07365,-4.37111,1.47,-52.36,-124.53,32.4281,-32.9754,-14.3323,1014.56
186962,-7.30273,7.96748,-4.85414,-10.43,-60.97,-136.08,32.6,-32.4834,-14.7009,1014.56
186968,-7.78096,7.54663,-4.65328,-26.04,-61.6,-138.88,32.3422,-31.7021,-14.6868,1014.61
186974,-9.25394,7.69966,-1.89861,-25.2,-60.9,-127.61,33.001,-32.0783,-14.6301,1014.61
186980,-8.62745,7.27881,-0.85605,-33.95,-54.6,-113.96,34.3188,-31.3837,-14.8994,1014.59
186986,-8.65136,6.94404,0.205643,-42.91,-48.16,-107.94,33.975,-31.0944,-14.9561,1014.59
186992,-8.97657,5.93496,1.09517,-46.06,-46.55,-116.97,34.4334,-31.0075,-14.9703,1014.59
186998,-9.91392,6.28886,0.93735,-50.47,-61.25,-140.28,34.7198,-29.387,-15.7784,1014.59
187004,-10.2104,5.71019,0.827355,-56.84,-72.73,-171.36,34.5766,-28.6635,-15.3389,1014.55
187010,-10.3539,5.43759,1.21951,-64.12,-78.82,-198.59,35.6652,-27.8532,-17.8341,1014.55
187016,-9.54567,4.90196,1.83166,-71.61,-88.62,-221.27,35.7511,-27.1587,-16.303,1014.58
187022,-8.85222,4.41416,2.10904,-66.43,-102.34,-234.22,36.3527,-25.8564,-17.5647,1014.58
187028,-8.06791,4.28503,1.0856,-52.15,-114.87,-235.97,36.7538,-24.612,-17.9333,1014.61
187034,-8.00096,2.92683,-0.870397,-41.02,-120.75,-232.68,36.8111,-24.8725,-18.5288,1014.61
187040,-7.8527,4.022,-2.18556,-32.34,-116.2,-211.96,37.4413,-23.3966,-19.8472,1014.61
187046,-8.25442,3.51506,-2.28599,-21.42,-103.46,-193.13,37.6418,-22.3838,-19.5212,1014.57
187052,-9.32568,2.29555,-2.01817,-16.03,-95.62,-186.83,36.9256,-21.5156,-19.3652,1014.57
187058,-10.0909,2.11382,-1.75036,-12.25,-87.71,-185.99,37.5272,-20.6185,-19.8047,1014.61
187064,-9.90913,1.75992,-1.20038,2.45,-75.88,-182.63,37.8996,-20.0686,-20.9105,1014.61
187070,-10.1626,1.42516,-0.808226,26.18,-71.96,-176.61,37.9856,-19.4899,-19.8614,1014.6
187076,-9.87566,1.45385,0.0334768,56.49,-76.09,-175.14,38.7304,-18.6506,-21.1799,1014.6
187082,-9.2109,1.17169,0.224773,81.62,-84.56,-187.74,37.8423,-17.8114,-21.8179,1014.58
187088,-8.95265,1.1956,0.071736,96.46,-88.55,-203.91,38.0715,-17.5799,-21.4493,1014.58
187094,-9.23481,1.46341,-0.726925,102.41,-90.3,-213.5,38.3007,-16.3645,-22.1439,1014.59
187100,-9.74653,1.66428,-0.832138,104.65,-85.61,-213.5,38.2147,-16.3355,-21.9738,1014.59
187106,-10.8608,1.7121,-0.81779,103.6,-78.89,-205.73,38.4439,-15.3227,-21.9596,1014.52
187112,-11.2195,1.59254,-0.49737,102.13,-73.5,-192.22,39.8189,-15.3805,-21.8746,1014.52
187118,-11.2339,1.83644,-0.669536,98.14,-71.05,-170.31,39.8189,-14.4545,-21.747,1014.52
187124,-10.8704,2.57771,-1.04735,89.81,-70.07,-150.5,39.4752,-13.6153,-22.1156,1014.53
187130,-10.6408,1.70253,-0.559541,91.84,-67.55,-118.72,39.6757,-14.1651,-22.5693,1014.53
187136,-10.067,2.17599,0.023912,73.15,-71.68,-109.76,38.9309,-13.9336,-23.6325,1014.51
187142,-9.93304,3.47202,-0.47824,36.54,-75.53,-127.61,39.0168,-13.5863,-23.8736,1014.51
187148,-8.90005,4.40937,-0.540411,-6.16,-75.18,-143.29,39.246,-13.0944,-23.2639,1014.53
187154,-8.32138,3.03682,-0.573888,-37.8,-63.42,-148.96,38.7877,-11.9079,-24.3698,1014.53
187160,-8.03921,2.49163,-1.033,-62.58,-42.77,-140.63,38.5871,-11.85,-24.1855,1014.58
187166,-8.22573,1.89861,-0.349115,-86.94,-10.22,-126.56,39.2747,-10.403,-23.9728,1014.58
187172,-8.75179,1.01865,-0.176949,-94.5,21.98,-115.15,38.6158,-9.88214,-24.228,1014.57
187178,-9.20612,-1.20516,0.196078,-95.69,37.38,-108.08,39.3033,-8.86928,-23.8594,1014.57
187184,-8.62745,-1.72645,-0.813008,-99.89,25.13,-133.07,39.1028,-8.55095,-24.1146,1014.57
187190,-9.60306,-1.6308,-1.20516,-104.51,-1.26,-168.63,38.9595,-7.33552,-24.5966,1014.57
187196,-10.1769,-1.1143,-1.20995,-111.79,-16.24,-204.82,39.8762,-6.14902,-23.3915,1014.58
187202,-10.6456,-3.12291,1.29125,-105.98,-12.39,-224.56,39.7043,-5.02041,-24.4973,1014.58
187208,-11.3104,-2.81683,1.20038,-97.93,-2.03,-212.8,38.9882,-3.7471,-24.8801,1014.58
187214,-11.4299,-2.5825,0.966045,-92.47,-2.73,-187.11,39.6757,-2.58954,-23.2072,1014.56
187220,-10.8369,-2.50598,0.435198,-80.85,-0.07,-153.51,39.7903,-1.92394,-24.1855,1014.56
187226,-10.3395,-2.80727,0.224773,-58.87,8.12,-120.68,39.6471,-0.332304,-23.3632,1014.54
187232,-9.92826,-3.28551,0.923003,-39.06,8.82,-95.55,40.2486,0.246473,-24.5824,1014.54
187238,-9.92826,-2.99378,0.85605,-18.55,-2.17,-83.44,39.4179,0.188595,-25.6882,1014.56
187244,-11.0617,-2.06121,0.722142,-30.1,10.08,-108.57,39.6757,1.05676,-24.0295,1014.56
187250,-10.3348,-1.42994,0.124342,-32.76,3.29,-120.89,39.4752,0.883129,-23.8877,1014.54
187256,-9.71305,-2.93639,0.999522,-17.99,17.85,-134.54,39.9049,1.57766,-24.0295,1014.54
187262,-9.13917,-3.41463,0.368245,-9.59,17.5,-145.81,39.9908,2.21432,-24.8801,1014.54
187268,-9.55523,-4.1846,0.162602,-2.45,25.83,-161,40.0195,2.76416,-24.4548,1014.54
187274,-9.6748,-3.87374,-0.023912,-10.29,23.38,-185.64,40.3346,3.60339,-23.4908,1014.52
187280,-10.5261,-4.93065,0.25825,-10.08,27.44,-208.95,40.707,4.84776,-23.6893,1014.52
187286,-10.2869,-4.14156,-1.64515,-18.34,35.84,-220.22,39.9622,5.65805,-22.7677,1014.52
187292,-10.5117,-3.89287,0.0047824,-15.68,30.73,-218.54,39.4465,6.90242,-23.3348,1014.54
187298,-9.7561,-3.6968,-0.344333,-6.72,32.27,-214.9,39.1028,7.82847,-23.9161,1014.54
187304,-8.93831,-3.65854,-0.573888,1.89,32.83,-212.87,39.3033,8.87027,-23.987,1014.54
187310,-5.86322,-8.86179,-2.76901,19.18,52.29,-242.41,38.6444,9.27541,-23.2781,1014.54
187316,-8.53658,-4.05548,-2.17121,24.29,51.17,-250.32,38.4439,10.7224,-22.6685,1014.53
187322,-6.97752,-3.51985,-3.29986,30.1,68.74,-251.51,38.4439,11.8799,-23.0796,1014.53
187328,-8.66093,-1.59732,-0.148254,30.38,54.32,-233.17,38.7877,13.0085,-22.8528,1014.52
187334,-8.11573,-2.58728,-0.0669536,36.05,49.56,-217.42,38.1574,14.0793,-22.4275,1014.52
187340,-9.42611,-2.84553,0.167384,44.45,42.21,-206.78,37.1835,14.224,-23.3206,1014.52
187346,-9.70827,-3.0703,0.583453,50.47,34.3,-205.24,37.9283,14.5134,-21.2224,1014.52
187352,-10,-3.48637,0.47824,48.51,21.14,-206.08,37.3267,15.3815,-22.711,1014.53
187358,-9.92826,-3.81636,0.674318,45.71,13.51,-207.62,37.4413,16.6259,-22.1156,1014.53
187364,-8.95265,-5.27977,0.25825,33.6,4.62,-220.43,37.0402,16.7127,-23.4766,1014.54
187370,-9.55045,-6.1406,0.659971,22.4,-7.91,-243.88,36.6965,18.1886,-23.0513,1014.54
187376,-9.08178,-6.0593,0.272597,15.54,-14.56,-258.3,35.4933,19.3172,-23.6042,1014.54
187382,-8.21616,-5.71019,0.71736,19.53,-16.38,-268.59,35.7225,19.9539,-23.2072,1014.54
187388,-8.59876,-5.51889,0.793878,26.11,-32.13,-280.28,34.6912,21.2851,-22.3708,1014.54
187394,-8.55571,-7.20229,-0.0286944,34.86,-45.29,-300.02,33.4307,21.7191,-23.1363,1014.53
187400,-8.42181,-6.17886,-0.172166,39.69,-55.65,-308.21,33.2016,23.3976,-22.8812,1014.53
187406,-7.62793,-5.91105,0.49737,36.4,-77.84,-297.57,32.3995,23.9764,-23.9161,1014.49
187412,-7.39837,-6.15973,0.85605,30.8,-87.85,-281.82,30.8526,24.3815,-24.6958,1014.49
187418,-8.40746,-6.43711,0.73649,27.44,-108.57,-262.43,29.9359,25.9732,-25.0503,1014.49
187424,-8.69919,-5.79627,1.17647,17.64,-117.25,-239.26,28.7614,27.2465,-25.4472,1014.49
187430,-8.51745,-5.81062,1.62602,6.58,-116.62,-221.41,28.4749,27.478,-25.4614,1014.49
187436,-8.27355,-5.77236,1.9034,-2.24,-113.26,-200.06,26.842,28.4908,-26.3829,1014.49
187442,-8.19225,-6.02104,1.64993,-8.75,-111.09,-176.12,25.5816,28.896,-25.7733,1014.47
187448,-7.44141,-6.05452,1.45863,-13.23,-102.27,-158.76,24.9514,29.7931,-26.4821,1014.47
187454,-6.50885,-6.94404,2.56337,-20.3,-71.96,-134.96,24.2638,30.0825,-26.3404,1014.47
187460,-6.02104,-7.66141,2.44859,-29.89,-47.6,-113.96,23.2899,30.6034,-26.6239,1014.48
187466,-5.42802,-7.40794,1.81253,-37.17,-37.59,-96.53,22.6023,31.5584,-25.5039,1014.48
187472,-4.69153,-7.72836,1.49211,-42.77,-24.01,-82.11,22.7742,31.9346,-27.6872,1014.51
187478,-4.49067,-8.2879,1.83166,-101.78,-35.7,-102.83,22.6883,32.6002,-25.6457,1014.51
187484,-5.33716,-7.50837,-0.0191296,-124.67,-43.89,-161.91,22.4305,33.2658,-25.3905,1014.4
187490,-4.13678,-7.14969,-1.18125,-183.96,-27.44,-163.94,20.6257,33.9892,-25.9009,1014.4
187496,-5.50454,-8.02965,0.559541,-171.71,-26.74,-138.74,20.1674,34.568,-24.2705,1014.51
187502,-4.6198,-8.1779,0.129125,-152.53,-17.85,-123.48,19.5371,35.523,-23.2639,1014.51
187508,-5.45194,-8.84266,0.726925,-105.14,-3.43,-101.01,19.2793,36.7963,-23.0087,1014.49
187514,-6.18364,-9.69871,0.985174,-54.32,6.09,-88.83,19.0788,37.6066,-23.9019,1014.49
187520,-5.93018,-9.6461,1.26734,-21.63,2.87,-86.31,18.0762,36.5359,-23.0371,1014.5
187526,-5.71019,-8.08226,0.760402,-6.02,-12.04,-76.23,17.9329,37.1146,-22.9379,1014.5
187532,-5.42802,-7.3362,0.741272,-0.98,-26.6,-69.44,18.2481,36.5648,-23.7176,1014.51
187538,-4.51459,-6.75275,0.215208,-11.55,-30.38,-71.33,17.8756,37.896,-23.6609,1014.51
187544,-4.12721,-6.06408,-0.109995,-29.4,-27.79,-62.37,16.7871,37.7513,-23.2923,1014.51
187550,-4.33764,-5.64801,0.124342,-56.42,-21.63,-56.14,17.4746,38.3301,-23.2072,1014.53
187556,-4.41894,-7.00143,-1.01865,-68.53,-17.5,-68.46,16.5006,38.1275,-22.8103,1014.53
187562,-3.65854,-8.87613,-0.0143472,-77.77,-15.19,-82.11,16.5865,39.4008,-23.1931,1014.48
187568,-4.02678,-8.44094,-1.03778,-82.95,-10.78,-95.76,15.3834,39.0246,-22.8953,1014.48
187574,-4.09852,-7.40316,-1.36777,-103.81,-9.45,-100.87,15.3261,39.8638,-21.6194,1014.48
187580,-4.90674,-8.21138,0.148254,-114.94,-18.2,-100.17,15.2688,40.0953,-21.3784,1014.48
187586,-5.36585,-9.19177,0.798661,-96.18,-28.84,-105.07,14.8964,41.0503,-21.109,1014.54
187592,-4.97848,-9.56958,0.205643,-72.24,-35,-114.24,14.2948,41.2529,-20.6979,1014.54
187598,-4.46676,-8.35964,-0.626494,-65.1,-41.09,-110.53,13.5214,40.7899,-20.7688,1014.53
187604,-4.41894,-8.19225,-0.200861,-61.39,-41.3,-89.18,13.0057,42.613,-20.4569,1014.53
187610,-3.62984,-9.36872,0.320421,-43.19,-31.57,-69.3,12.2896,42.3236,-20.1733,1014.47
187616,-3.22334,-9.69871,-0.468675,-27.72,-16.8,-50.61,11.688,42.9024,-19.9323,1014.47
187622,-2.7164,-9.89,-0.186514,-21.28,-3.08,-41.51,12.2036,43.0471,-19.9607,1014.47
187628,-2.37207,-10.6026,-0.320421,-12.32,8.4,-40.88,11.5448,43.2786,-20.3293,1014.52
187634,-2.86466,-11.1765,-0.353898,3.5,11.83,-52.85,11.9172,43.0182,-20.9247,1014.52
187640,-3.00813,-9.9187,-1.20516,7.07,18.34,-69.79,10.9145,43.568,-20.0315,1014.49
187646,-3.1803,-8.71832,-1.39168,12.95,20.44,-81.55,11.3729,42.8156,-19.6204,1014.49
187652,-3.10856,-8.76136,-0.750837,23.73,22.89,-87.78,10.7426,43.3654,-20.0457,1014.5
187658,-3.45289,-9.06743,-0.248685,32.97,23.66,-88.62,10.8286,42.9024,-20.6553,1014.5
187664,-3.72071,-9.82305,0.0813008,44.03,22.54,-85.82,9.4249,43.568,-21.1941,1014.51
187670,-3.12769,-9.82783,0.234338,50.89,20.93,-79.17,9.68272,42.8735,-20.627,1014.51
187676,-2.76901,-9.53132,0.272597,51.03,19.39,-71.12,9.59678,43.5101,-21.4493,1014.49
187682,-2.91726,-8.60354,-0.162602,44.59,17.85,-58.87,9.94054,43.7706,-21.3075,1014.49
187688,-3.12291,-8.1779,-0.291726,30.24,13.93,-49.42,9.25302,43.8863,-21.5769,1014.5
187694,-3.43376,-8.87135,-0.248685,22.19,7,-51.59,8.70874,43.4233,-20.6837,1014.5
187700,-2.53945,-15.4806,2.03252,26.25,-16.8,-90.93,9.0525,42.7577,-21.4918,1014.5
187706,-1.47298,-17.0445,2.19034,42.49,-30.66,-143.43,7.19047,43.2497,-21.7328,1014.49
187712,-2.58728,-10.7078,1.24821,38.78,-28.49,-148.89,7.64881,43.6548,-21.6903,1014.49
187718,-2.63032,-6.58536,-0.0621712,25.27,-22.75,-128.17,6.76077,43.3076,-22.3282,1014.48
187724,-3.04639,-5.19369,-1.39168,-11.34,-21.91,-113.96,5.87273,44.3783,-22.3282,1014.48
187730,-4.63893,-4.24199,-2.01817,-22.54,-33.11,-95.34,5.12791,44.4072,-20.8538,1014.49
187736,-3.37159,-4.59589,-1.47776,-43.75,-31.43,-78.89,5.04197,45.015,-21.591,1014.49
187742,-2.32903,-6.66667,-1.23386,-57.12,-28.7,-61.39,4.89874,44.6966,-21.8037,1014.5
187748,-1.36777,-8.61789,-1.49689,-68.53,-20.93,-56.63,3.66694,45.015,-21.4634,1014.5
187754,-0.683883,-10.1483,-1.13343,-85.12,-13.44,-65.1,4.03934,45.2175,-22.3708,1014.52
187760,-0.808226,-9.90435,-1.39646,-101.36,-5.39,-72.38,3.35182,45.3044,-21.0098,1014.52
187766,-0.540411,-9.54567,-1.91296,-114.03,3.64,-72.66,3.06536,46.2304,-21.3642,1014.47
187772,-0.731707,-8.2879,-2.87422,-126.84,15.54,-67.27,2.97942,46.2015,-20.0032,1014.47
187778,-0.741272,-7.60402,-2.73553,-130.9,24.71,-49.7,2.89348,46.5777,-19.266,1014.49
187784,-1.18125,-9.67001,-0.703013,-119.63,21,-48.58,2.43513,46.3751,-19.4503,1014.49
187790,0.679101,-10.7365,-3.19943,-99.26,44.24,-36.47,2.97942,47.5037,-19.5495,1014.49
187796,-0.961262,-10.44,-0.186514,-78.19,42.49,-14.42,2.46378,47.6773,-18.0893,1014.5
187802,-0.483022,-10.4687,-0.373027,-60.2,48.16,15.82,1.8622,47.6773,-17.1111,1014.5
187808,-2.21903,-10.2009,0.49737,-21.84,34.3,0.7,1.71897,47.7063,-16.9835,1014.51
187814,-2.29077,-8.94787,1.20995,8.61,17.99,8.96,2.54972,47.3011,-17.0543,1014.51
187820,-0.25825,-9.79436,-0.0143472,-7.07,22.19,10.36,1.91949,48.0246,-16.6007,1014.49
187826,-0.923003,-10.0383,-1.69775,-24.64,32.13,14.07,1.66167,47.7352,-19.7055,1014.49
187832,-1.33429,-9.6748,-1.64036,-19.39,32.27,12.11,2.63566,47.6773,-17.1961,1014.5
187838,-1.1143,-9.40698,-0.966045,-22.47,22.89,17.78,3.581,46.8381,-16.9693,1014.5
187844,-1.17647,-9.60784,-1.15734,-23.24,20.02,-4.34,3.23724,47.9957,-16.0336,1014.51
187850,-0.913438,-9.61262,-1.24821,-37.24,20.51,-8.47,2.66431,48.2851,-17.0969,1014.51
187856,-0.884744,-9.38785,-1.08082,-35.28,21.28,-12.53,3.1513,47.9957,-15.7217,1014.5
187862,-0.784314,-9.58393,-1.02343,-40.11,16.24,-10.71,2.95077,48.1693,-16.3313,1014.5
187868,-0.612147,-9.82305,-1.73123,-51.45,15.19,-7.91,2.37784,48.0535,-16.2888,1014.5
187874,-0.454328,-9.4835,-1.68819,-58.1,18.9,-3.22,2.7216,47.7352,-15.1971,1014.51
187880,-1.07126,-8.80918,-2.51554,-46.27,31.99,13.51,2.97942,47.6773,-15.0412,1014.51
187886,-0.310856,-10.2582,-1.6308,-44.94,34.44,23.1,2.75025,48.8928,-15.2538,1014.53
187892,-1.1143,-10.3013,-2.61119,-38.08,39.83,30.87,3.581,48.806,-14.3323,1014.53
187898,-1.75514,-8.67049,-1.5208,-37.38,40.46,39.9,3.81017,48.5166,-15.3673,1014.47
187904,-1.51124,-9.21568,-1.70732,-35.63,41.93,46.83,4.0107,48.2851,-15.2397,1014.47
187910,-1.31038,-9.4835,-1.74079,-35.49,39.34,52.15,4.09664,48.6323,-14.4032,1014.5
187916,-1.10473,-9.90435,-1.75992,-28.84,40.53,55.16,5.55761,48.2851,-14.063,1014.5
187922,-1.14299,-9.86131,-1.60689,-21.14,38.57,58.17,4.78415,48.5744,-13.8645,1014.51
187928,-0.980392,-9.98565,-1.87948,-13.09,39.55,58.8,5.41438,48.6902,-14.7435,1014.51
187934,-0.999522,-9.87087,-1.96557,-4.55,39.9,59.36,4.89874,48.4298,-13.3541,1014.5
187940,-1.31038,-9.46437,-2.48685,1.47,45.64,58.52,5.84408,48.806,-12.9997,1014.5
187946,-2.10426,-9.56002,-2.13295,6.51,42.77,54.46,5.70084,47.4169,-12.8437,1014.45
187952,-2.13295,-9.79914,-1.83644,7.14,35.7,41.09,6.61754,48.1693,-13.7794,1014.45
187958,-1.94644,-9.50741,-2.21425,9.03,30.73,31.01,6.67483,47.5905,-13.2265,1014.45
187964,-1.3582,-9.52654,-2.80727,7.21,27.3,23.52,6.61754,47.2433,-12.4042,1014.48
187970,-1.46341,-9.67001,-3.53419,0.77,22.54,16.17,6.58889,48.0825,-13.6235,1014.48
187976,-1.41081,-9.54567,-3.38116,-18.83,14.98,10.08,6.41701,48.1114,-13.8928,1014.49
187982,-1.13821,-9.31612,-3.76375,-43.54,11.27,7.56,7.59152,47.851,-13.2265,1014.49
187988,-1.47298,-9.68914,-1.37255,-103.18,-14.07,-6.16,6.4743,47.8799,-12.6169,1014.5
187994,-1.59254,-9.39263,-2.18556,-160.58,-19.88,-18.41,6.84671,48.3429,-11.667,1014.5
188000,-4.08895,-8.52702,-3.73505,-183.26,-15.61,-24.57,7.36235,48.2561,-11.5394,1014.51
188006,-2.43424,-9.4835,-3.54376,-178.85,-5.88,-27.02,7.3337,48.8928,-9.90907,1014.51
188012,-1.6021,-8.89048,-0.526064,-174.72,-27.51,-25.2,7.01859,48.9796,-9.85236,1014.52
188018,-1.65949,-7.32185,-1.65949,-172.62,-41.93,-8.68,6.58889,49.0375,-8.40629,1014.52
188024,-1.18125,-7.28838,-3.25681,-161.56,-43.54,7.42,7.50558,49.6741,-8.37794,1014.53
188030,-0.93735,-7.65184,-4.94978,-164.71,-35.28,9.24,6.76077,48.777,-7.49895,1014.53
188036,-0.822573,-9.68914,-5.83453,-168.21,-16.45,-6.09,7.10453,49.9056,-6.98858,1014.53
188042,-0.703013,-10.0622,-5.83453,-176.19,-3.22,-30.31,6.58889,50.3397,-6.43567,1014.51
188048,-0.798661,-9.5935,-5.69106,-186.2,0.84,-50.26,5.87273,50.7159,-5.58504,1014.51
188054,-0.942133,-9.26829,-5.69584,-195.16,3.29,-60.2,6.27378,50.7449,-4.25239,1014.49
188060,-1.09039,-9.56002,-5.20325,-198.73,6.16,-61.95,5.6722,51.1211,-2.89138,1014.49
188066,-1.29125,-9.95696,-4.65806,-205.66,5.32,-59.99,4.84145,50.9764,-2.08329,1014.47
188072,-1.36777,-9.98087,-4.24677,-206.78,2.31,-55.51,4.95603,50.8896,-0.537977,1014.47
188078,-1.35342,-9.7274,-4.52415,-207.9,2.24,-47.11,4.3831,51.5262,-0.112663,1014.49
188084,-1.13343,-9.34959,-4.6198,-201.53,2.52,-36.19,4.09664,51.9024,0.553663,1014.49
188090,-1.22908,-8.82831,-4.79197,-194.39,5.81,-23.38,4.35446,51.0632,1.7729,1014.47
188096,-1.41559,-8.36442,-4.93544,-190.19,12.04,-13.02,4.21122,51.2658,3.14808,1014.47
188102,-1.34385,-7.88618,-5.50454,-196.21,14.35,-3.92,4.15393,51.1211,4.66503,1014.51
188108,-1.66428,-7.98661,-5.47107,-197.61,15.05,-5.95,4.41175,51.1211,4.65086,1014.51
188114,-1.67384,-7.34577,-5.5428,-212.45,8.4,-13.72,4.69821,51.1789,7.17439,1014.52
188120,-1.43472,-7.26925,-6.01148,-240.03,1.54,-20.3,4.55498,50.8027,6.59313,1014.52
188126,-0.760402,-6.97274,-6.4945,-265.86,1.12,-20.51,4.66957,50.6002,7.16021,1014.52
188132,-1.17647,-6.94404,-6.81014,-297.5,-0.21,-17.78,3.92476,50.8896,8.50704,1014.49
188138,-1.67384,-6.60449,-7.90053,-329.77,-3.36,-5.95,3.86746,50.4844,12.4625,1014.49
188144,-0.932568,-7.63749,-7.60402,-340.13,3.29,-0.35,4.15393,49.2111,12.9303,1014.5
188150,-1.3056,-7.02056,-7.47967,-358.47,4.55,9.73,4.29716,49.3558,14.6032,1014.5
188156,-1.67384,-7.27403,-7.7714,-366.31,7,17.22,4.12528,49.1532,16.1627,1014.52
188162,-1.76949,-6.37016,-8.31181,-376.67,0.91,22.61,4.18258,48.2561,17.2969,1014.52
188168,-1.23864,-5.50454,-9.58871,-384.58,-1.33,26.46,4.69821,47.5326,19.9055,1014.53
188174,-0.253467,-5.80105,-8.89526,-384.79,7.28,31.64,5.04197,47.388,22.0462,1014.53
188180,-0.81779,-4.30894,-9.22525,-387.38,19.74,44.87,4.21122,45.7674,23.393,1014.48
188186,-1.58776,-4.03635,-9.28264,-390.25,22.96,53.06,4.95603,45.3912,25.2928,1014.48
188192,-1.77905,-4.55285,-8.86657,-392.49,27.09,57.96,5.27114,44.1757,27.0366,1014.52
188198,-1.55906,-4.51937,-9.3735,-389.76,28.77,53.83,4.78415,42.4973,28.8654,1014.52
188204,-2.33859,-4.40459,-9.35437,-403.55,27.58,58.73,5.18521,42.3815,29.9287,1014.52
188210,-3.10378,-3.6681,-9.37829,-413.91,25.48,75.39,5.64355,40.4716,32.2679,1014.48
188216,-2.62554,-4.17025,-10.0239,-425.11,30.38,88.2,5.72949,39.0535,34.1677,1014.48
188222,-1.25777,-4.41894,-9.60784,-435.96,26.46,82.32,5.27114,37.4908,36.9889,1014.51
188228,-1.69775,-2.7451,-10.2391,-451.36,26.6,83.51,6.93265,35.4362,36.4218,1014.51
188234,-1.51602,-1.93209,-11.7982,-461.23,33.32,82.18,6.64618,33.7577,38.5484,1014.49
188240,-1.32951,-1.89861,-12.3912,-483.56,36.82,74.41,6.58889,31.3847,39.8385,1014.49
188246,-1.42037,-1.13343,-12.7547,-508.41,42.21,76.79,6.93265,30.1693,41.2137,1014.5
188252,-1.37733,-0.0095648,-12.6399,-535.78,46.97,75.6,7.10453,26.986,42.8015,1014.5
188258,-1.46341,-0.545194,-11.2243,-545.93,45.99,79.38,7.21911,25.1339,45.4527,1014.51
188264,-2.5538,0.282162,-9.12004,-539.77,32.62,87.71,6.41701,22.7899,45.5519,1014.51
188270,-1.83166,0.703013,-8.44094,-515.97,18.83,94.08,7.36235,19.1146,47.3382,1014.52
188276,-0.502152,1.89861,-9.09134,-493.01,12.95,90.44,7.19047,17.0889,47.1539,1014.52
188282,-0.13869,2.85988,-9.27786,-472.43,10.22,83.86,7.30506,14.2818,48.6425,1014.54
188288,-0.143472,2.5825,-8.91918,-457.94,12.39,82.39,6.98994,12.2272,49.0395,1014.54
188294,-0.693448,3.13247,-9.14395,-443.24,11.34,84.84,7.07588,10.1725,49.7625,1014.54
188300,-0.411286,4.022,-9.36872,-434,21.77,83.3,7.3337,7.45226,50.5848,1014.5
188306,-0.392157,4.30416,-9.83261,-437.29,23.03,82.46,6.87536,5.07927,49.7483,1014.5
188312,-0.57867,5.38976,-9.56002,-450.59,26.32,78.19,7.50558,2.90885,49.9894,1014.5
188318,-0.540411,5.69584,-9.03874,-468.3,21.98,70.14,7.07588,0.217535,49.3372,1014.5
188324,-0.703013,5.14108,-7.86227,-470.68,10.08,64.61,7.01859,-1.92394,49.564,1014.46
188330,-1.05691,3.9933,-8.12052,-460.6,2.1,55.02,6.58889,-4.7889,48.444,1014.46
188336,-0.779531,3.48159,-7.70445,-434.07,-3.29,47.18,6.98994,-7.65385,49.1387,1014.51
188342,-0.234338,4.2946,-7.55619,-411.6,-1.19,38.22,6.76077,-9.50594,48.0896,1014.51
188348,0.291726,4.57197,-6.54711,-391.3,4.69,30.31,6.93265,-10.9529,48.5433,1014.52
188354,0.401722,4.69632,-5.60976,-350.63,7.07,20.72,6.73212,-12.6024,48.2739,1014.52
188360,1.24821,5.68149,-5.38976,-324.17,17.22,14.28,7.7634,-14.8307,46.842,1014.5
188366,0.985174,6.8197,-4.07939,-297.85,17.71,10.15,6.81806,-16.0172,46.8562,1014.5
188372,1.29603,8.60832,-4.78718,-282.73,25.2,4.83,7.19047,-17.6088,45.9914,1014.5
188378,1.12865,9.54567,-5.75801,-267.75,34.02,7.63,6.27378,-19.2294,46.0056,1014.48
188384,1.55428,9.65088,-6.54711,-252,44.38,6.79,6.5316,-19.4899,45.8496,1014.48
188390,2.50598,8.46963,-6.82927,-233.8,49.07,-2.87,6.50295,-20.8789,44.4177,1014.52
188396,2.20947,7.28838,-6.20756,-217.14,44.8,-13.65,5.64355,-21.805,44.3185,1014.52
188402,2.52989,5.14108,-5.05978,-195.23,43.26,-38.15,5.6149,-23.0204,44.0633,1014.52
188408,2.16164,5.03587,-3.73984,-174.93,32.83,-59.71,5.27114,-23.0493,43.0567,1014.52
188414,1.20995,5.23195,-3.55332,-164.29,21,-68.6,6.24513,-24.178,42.4329,1014.51
188420,-0.487805,6.2219,-4.21808,-158.41,14,-73.64,6.01596,-25.2487,41.5256,1014.51
188426,-0.899091,7.67575,-6.48972,-175.42,19.46,-72.73,6.30242,-26.059,41.9793,1014.5
188432,-1.57341,9.59828,-7.70445,-204.68,24.22,-59.36,6.73212,-26.4063,41.5398,1014.5
188438,-1.88427,9.87087,-8.22095,-241.57,29.12,-38.15,6.35972,-27.5638,38.9312,1014.5
188444,-2.12817,9.74653,-8.19703,-271.39,43.26,-17.36,6.58889,-28.895,38.8461,1014.5
188450,-1.77427,10.0143,-8.68006,-293.16,68.95,-5.32,5.38573,-29.9657,39.2856,1014.51
188456,-2.09947,10.6361,-7.92922,-328.44,87.57,1.19,5.58626,-31.2391,38.5342,1014.51
188462,-1.68819,11.1286,-6.39407,-367.43,94.15,11.69,4.92739,-32.4256,36.1525,1014.51
188468,-1.7934,11.0043,-4.82066,-402.64,92.89,17.01,5.2425,-33.4384,34.7773,1014.52
188474,-0.798661,9.0483,-2.56337,-413.63,92.96,19.6,4.46904,-34.4223,33.5864,1014.52
188480,-0.951698,8.5605,-0.569106,-400.47,88.34,23.73,3.66694,-36.0719,31.9419,1014.5
188486,-1.21473,8.26877,0.85605,-379.19,81.76,28.28,3.66694,-37.5767,31.0345,1014.5
188492,-1.45863,8.70397,1.84122,-345.66,76.79,33.88,3.1513,-38.4448,29.9003,1014.5
188498,-0.875179,8.42659,2.38164,-310.94,73.29,27.16,3.66694,-38.7342,27.8021,1014.5
188504,2.07556,8.79962,2.71162,-286.02,76.72,8.4,3.00807,-40.0075,27.8163,1014.5
188510,3.51028,8.96222,2.14252,-270.2,79.59,-20.93,2.26325,-40.8757,26.6254,1014.5
188516,3.46246,8.91439,1.42037,-261.1,84.49,-58.66,2.54972,-41.4834,24.4563,1014.47
188522,2.34338,9.41176,1.86035,-253.54,87.85,-85.47,2.69295,-41.1072,22.826,1014.47
188528,0.913438,10.4878,2.22382,-247.31,89.95,-97.86,2.89348,-42.7857,21.7343,1014.5
188534,-1.70253,11.3965,2.65423,-246.33,83.44,-98.35,2.20596,-42.5831,21.1956,1014.5
188540,-2.96987,11.3104,3.55811,-251.3,68.81,-94.5,2.89348,-42.8146,20.6001,1014.5
188546,-6.59015,9.44524,5.54758,-238.42,36.47,-64.61,4.0107,-43.6539,19.2817,1014.5
188552,-8.16356,7.95313,7.34098,-186.13,-22.68,-15.75,3.89611,-43.9722,17.6796,1014.5
188558,-6.54711,6.06887,5.82975,-141.82,-50.33,4.55,4.35446,-43.8854,17.0842,1014.51
188564,-2.23338,4.7011,4.60067,-113.19,-56.98,0.49,4.8128,-44.6088,16.0635,1014.51
188570,0.133907,4.78718,3.64419,-97.37,-51.31,-13.02,4.12528,-44.7535,15.5247,1014.49
188576,-0.932568,6.77188,2.23338,-96.32,-46.97,-21.42,4.35446,-45.0719,14.8726,1014.49
188582,-2.17121,8.26877,2.20947,-99.19,-52.64,-15.47,5.15656,-45.0719,13.9511,1014.46
188588,-0.932568,8.50311,2.34816,-103.74,-51.17,-14,5.64355,-45.7374,13.5116,1014.46
188594,0.483022,7.51793,2.05165,-105.56,-41.79,-22.75,5.6149,-45.4191,13.9369,1014.5
188600,0.559541,6.6571,2.60641,-105.49,-36.68,-43.4,5.50032,-45.6506,13.3414,1014.5
188606,0.124342,7.13056,1.70253,-110.67,-31.43,-54.39,5.58626,-46.4609,12.7602,1014.49
188612,-0.487805,8.82353,2.67336,-140.07,-37.24,-67.13,6.44566,-45.969,12.2782,1014.49
188618,-0.865614,11.3199,1.77427,-174.16,-25.76,-75.67,6.1019,-46.1715,10.6903,1014.49
188624,-1.45863,11.583,2.46294,-219.38,-28.77,-76.44,6.56024,-45.7085,10.1091,1014.49
188630,-0.908656,10.7078,3.14204,-246.82,-36.19,-73.01,7.44829,-45.7374,9.91058,1014.49
188636,-2.31468,9.71784,-6.65232,-282.87,24.5,-64.89,8.02122,-46.2005,8.43615,1014.49
188642,1.07604,9.59828,-4.87805,-345.38,34.44,-63.77,7.87799,-46.1426,5.62908,1014.49
188648,-1.033,5.80105,8.56528,-308.63,18.55,-53.06,7.56287,-46.5767,4.06959,1014.44
188654,-3.15638,4.24199,9.16308,-235.48,15.26,-50.47,8.13581,-47.2712,4.05542,1014.44
188660,-3.33333,4.41416,7.35055,-184.17,11.9,-49.98,8.02122,-47.0108,2.87871,1014.49
188666,-3.73984,7.07317,7.19273,-155.54,16.8,-37.59,8.76603,-46.8661,2.4534,1014.49
188672,-4.83501,8.26877,7.18317,-137.48,1.26,-15.68,9.28167,-46.2005,1.50353,1014.51
188678,-4.7824,9.04352,5.2989,-151.2,-12.95,6.51,9.25302,-45.9979,1.20581,1014.51
188684,-4.19416,9.04352,5.27499,-173.81,-21.91,19.04,9.16708,-46.432,-0.963291,1014.48
188690,-2.41989,7.64706,6.24581,-185.08,-20.65,25.69,8.13581,-46.4899,-0.5238,1014.48
188696,1.68819,4.97848,6.61884,-150.78,18.55,17.22,8.68009,-46.1426,-2.0124,1014.48
188702,2.49641,4.6198,6.79579,-115.64,19.18,-17.15,7.93528,-46.1715,-3.30252,1014.48
188708,0.645624,8.17312,5.13152,-129.71,23.17,-29.26,8.56551,-46.0847,-3.0048,1014.48
188714,-0.57867,8.51745,5.77236,-154.35,30.66,-18.9,8.59415,-45.969,-4.50758,1014.48
188720,-1.12865,8.00096,5.4902,-162.61,31.85,-13.44,8.07851,-45.7953,-4.33745,1014.48
188726,-1.47776,7.25012,6.94883,-162.4,20.93,-10.36,9.36761,-45.5928,-5.44327,1014.48
188732,-1.64515,6.87709,6.9297,-158.2,15.33,-1.68,8.88062,-44.8982,-5.4858,1014.48
188738,-1.34385,6.55189,6.87709,-156.87,7.07,-0.84,9.79731,-45.2744,-7.03111,1014.49
188744,-1.32472,6.82927,6.9297,-155.75,3.57,5.39,8.88062,-45.3612,-8.16528,1014.49
188750,-1.39168,8.03921,7.23099,-156.87,-1.47,18.97,9.10979,-44.8982,-8.23617,1014.51
188756,-0.473458,8.00574,7.71879,-147.35,-8.33,15.33,9.0525,-44.3194,-8.22199,1014.51
188762,-1.3056,7.14012,9.78001,-103.11,-14.28,31.57,8.39363,-44.7246,-9.15768,1014.52
188768,-0.540411,7.9627,8.62267,-73.36,-18.97,40.88,8.90926,-44.1169,-10.0225,1014.52
188774,-0.267814,8.42181,7.78096,-65.45,-17.29,45.57,8.9952,-44.8982,-9.71059,1014.46
188780,-0.913438,7.23577,7.95313,-58.66,-15.89,50.33,7.67746,-44.5799,-11.2701,1014.46
188786,-1.35342,5.93496,7.77618,-46.76,-8.54,44.8,7.84934,-44.9272,-11.3551,1014.5
188792,-1.92252,5.08369,7.16404,-46.27,-7.07,33.11,8.16445,-44.4352,-11.4118,1014.5
188798,-1.98948,4.58632,7.21664,-45.71,-3.01,24.5,7.90663,-44.3484,-11.0432,1014.5
188804,-0.707795,4.04113,7.22142,-33.39,6.02,7.84,6.93265,-45.014,-11.3126,1014.49
188810,-0.511717,4.2659,6.58536,-22.82,16.31,1.47,7.59152,-44.2326,-11.3977,1014.49
188816,-0.047824,4.40459,7.01578,-15.96,17.22,-8.26,8.13581,-44.3194,-10.9582,1014.48
188822,1.03778,3.73505,10.0574,-21.42,-13.02,-26.6,7.62017,-44.0301,-11.9364,1014.48
188828,-1.89861,5.47107,12.4916,-73.57,-81.41,-51.17,7.21911,-44.0011,-11.5394,1014.52
188834,-3.78766,8.6131,7.92444,-104.44,-105.7,-28,7.7634,-43.8564,-13.8361,1014.52
188840,-1.69297,7.02056,5.62888,-85.12,-73.15,-2.52,7.56287,-43.7696,-12.7729,1014.51
188846,-0.989957,7.011,7.36011,-93.52,-63.7,-0.21,7.01859,-43.4223,-13.7794,1014.51
188852,-0.755619,7.31229,7.75227,-88.55,-42.49,-4.69,7.47693,-43.3355,-14.2473,1014.48
188858,-0.143472,5.74844,9.06265,-73.85,-36.05,-21.21,7.16182,-43.1619,-13.9779,1014.48
188864,0.334768,6.51841,9.45481,-59.64,-34.93,-11.69,7.01859,-43.1619,-14.9561,1014.51
188870,0.602582,4.72501,8.92396,-58.66,-32.06,-9.52,7.59152,-43.0751,-15.5374,1014.51
188876,0.602582,2.77379,7.76184,-61.04,-21.77,-30.59,7.44829,-43.1908,-15.4807,1014.51
188882,0.205643,1.96557,7.78096,-59.57,-9.87,-53.06,6.84671,-42.9014,-15.4382,1014.47
188888,0.0669536,3.35724,7.28838,-71.89,5.39,-64.47,7.99257,-43.4223,-15.5516,1014.47
188894,-1.55906,6.81492,7.74749,-73.71,11.69,-55.93,8.36498,-42.9304,-16.5865,1014.48
188900,-2.12339,7.04926,8.07747,-34.79,15.61,-58.52,8.53686,-42.0911,-15.7359,1014.48
188906,0.253467,4.46198,9.66523,-5.32,-1.33,-59.43,9.51084,-42.149,-16.2463,1014.49
188912,0.559541,4.27547,8.87613,-12.25,-24.08,-48.02,9.19573,-42.0911,-16.1187,1014.49
188918,0.23912,4.32807,8.23051,-20.44,-34.51,-38.92,9.8546,-41.8018,-16.2321,1014.48
188924,-0.272597,4.25634,8.14921,-23.94,-44.03,-32.34,9.53949,-42.5542,-16.147,1014.48
188930,-0.282162,4.14156,8.24008,-37.17,-48.51,-25.83,9.4249,-41.7149,-17.1111,1014.51
188936,-1.12865,4.47633,7.84792,-54.6,-53.76,-20.44,9.56814,-41.8307,-17.1252,1014.51
188942,-2.04208,5.0263,7.66619,-69.37,-57.19,-12.67,9.91189,-41.686,-18.5713,1014.48
188948,-2.63988,5.38498,7.5275,-77.98,-63.98,-5.25,8.9952,-41.3966,-18.5429,1014.48
188954,-2.7451,5.42802,6.99187,-82.81,-61.39,-2.59,8.85197,-41.8018,-17.1536,1014.5
188960,-2.77857,5.29412,6.82927,-82.18,-55.44,0.35,8.90926,-40.9915,-18.4437,1014.5
188966,-2.25729,4.79675,6.80536,-86.87,-44.94,3.57,8.42227,-40.5285,-19.507,1014.5
188972,-1.92252,5.05978,6.7384,-101.08,-33.95,4.9,9.22438,-40.8178,-20.3151,1014.52
188978,-1.62123,4.72979,7.67575,-116.97,-26.74,7.98,8.90926,-40.4127,-20.6837,1014.52
188984,-1.43472,4.55763,8.51745,-132.37,-23.1,10.01,8.96655,-39.6892,-21.7045,1014.46
188990,-1.1143,4.86848,8.73266,-142.73,-24.85,9.17,8.73738,-39.7182,-21.591,1014.46
188996,-0.559541,4.11286,9.88522,-146.3,-25.9,7.63,9.22438,-39.6892,-22.2715,1014.48
189002,-0.49737,4.43328,9.46915,-144.76,-21.07,4.83,8.50821,-38.6474,-22.9379,1014.48
189008,-0.153037,3.99809,9.88044,-133.63,-20.93,-4.83,8.36498,-38.9079,-23.7176,1014.46
189014,-0.439981,4.61023,9.72262,-122.71,-22.12,-8.19,8.79468,-38.0397,-24.5682,1014.46
189020,-0.416069,5.08369,9.23003,-116.9,-19.32,-3.29,8.27904,-37.4899,-24.9368,1014.53
189026,-0.0573888,4.16547,9.21568,-111.09,-23.45,-2.38,8.50821,-37.1426,-24.3981,1014.53
189032,-0.181731,3.81157,9.35437,-95.13,-30.31,5.74,8.50821,-36.7085,-25.4614,1014.48
189038,-0.631277,3.56289,9.48828,-88.55,-48.93,14,8.47956,-36.1587,-25.2062,1014.48
189044,-0.793878,3.38116,9.24916,-94.78,-59.71,17.01,7.24776,-36.3902,-26.709,1014.48
189050,-1.26734,3.70158,8.57484,-104.23,-66.99,28.35,7.90663,-36.1008,-27.5313,1014.45
189056,-1.48733,3.73984,7.94357,-126,-63.07,33.25,7.3337,-35.7535,-27.1627,1014.45
189062,-1.67384,3.56289,8.00096,-146.51,-56.84,31.99,7.56287,-34.9722,-27.7156,1014.47
189068,-1.59732,2.50598,8.79483,-154.84,-44.38,22.96,6.78942,-35.1169,-28.0133,1014.47
189074,-1.64036,3.45768,8.44572,-156.31,-40.39,17.78,6.76077,-33.641,-29.2609,1014.48
189080,-1.5495,3.70158,9.01482,-160.23,-35.07,27.09,5.84408,-34.104,-30.4376,1014.48
189086,-0.296509,3.46724,8.95265,-138.39,-31.78,20.72,5.35709,-33.0333,-30.3525,1014.47
189092,-0.640842,3.48159,9.77523,-99.33,-30.38,15.96,5.98731,-32.5413,-30.8629,1014.47
189098,-0.49737,3.60115,9.72262,-71.47,-30.31,14.35,6.18784,-32.3966,-30.0406,1014.45
189104,-0.832138,4.25634,9.8374,-51.87,-26.67,13.93,5.84408,-31.5863,-31.2457,1014.45
189110,-0.569106,3.59158,9.01004,-42.35,-15.19,9.73,5.35709,-31.5574,-32.1814,1014.48
189116,-0.918221,3.38594,9.26829,-34.86,-4.83,13.16,5.09927,-31.9625,-31.5009,1014.48
189122,-0.875179,3.099,9.24916,-38.08,5.25,12.39,4.92739,-30.805,-32.153,1014.45
189128,-0.396939,2.62076,9.36394,-35.07,7.77,9.17,5.07062,-31.4416,-31.4867,1014.45
189134,0.286944,2.16643,9.63175,-28.07,7.42,7.28,5.72949,-31.268,-32.309,1014.45
189140,-0.143472,1.97513,9.19177,-31.85,0.98,9.73,6.0446,-31.731,-32.55,1014.47
189146,0.454328,1.13821,9.12482,-41.86,-7.7,8.47,4.92739,-30.7471,-32.6776,1014.47
189152,0.363462,1.1143,9.39742,-47.74,-16.45,9.31,4.75551,-30.9207,-32.6634,1014.51
189158,0.985174,0.913438,9.68436,-58.1,-24.78,7.98,4.84145,-30.3998,-32.7484,1014.51
189164,0.669536,1.37733,9.96174,-65.52,-28.91,10.29,4.41175,-30.2551,-32.2522,1014.53
189170,0.47824,2.12817,10.2869,-67.55,-29.26,10.08,3.1513,-31.1522,-33.9251,1014.53
189176,-0.463893,3.10856,11.1382,-68.18,-28.07,9.8,3.9534,-29.4738,-32.8902,1014.51
189182,-0.769966,2.24295,10.8513,-55.23,-23.1,11.48,3.9534,-29.4738,-33.67,1014.51
189188,-0.157819,2.29077,9.94261,-43.54,-16.31,11.69,3.92476,-29.6474,-34.3646,1014.48
189194,-0.722142,3.4242,10.0956,-38.36,-12.11,12.32,4.12528,-29.1844,-33.4573,1014.48
189200,-1.10473,3.12291,10.3874,-34.86,-5.95,13.51,3.83882,-29.8211,-34.6482,1014.48
189206,-0.779531,2.48685,10.1913,-28.49,3.5,14.14,3.60964,-29.6764,-33.032,1014.48
189212,-0.267814,2.10904,10.067,-18.55,17.57,13.86,3.75288,-29.9368,-34.3079,1014.48
189218,0.0430416,1.56384,10.6982,-6.58,27.16,11.83,3.78152,-29.358,-34.6056,1014.48
189224,0.167384,1.86992,10.77,2.73,28.49,8.33,4.21122,-29.0976,-35.031,1014.48
189230,0.329986,1.43472,10.6982,10.99,26.18,6.79,3.5237,-29.9368,-34.5631,1014.5
189236,0.516499,1.22429,10.33,16.31,10.78,10.64,4.41175,-29.5895,-33.3439,1014.5
189242,0.468675,1.22429,10.6504,15.19,-1.68,6.51,4.09664,-29.3291,-34.0102,1014.48
189248,0.57867,-0.229555,8.29746,-0.21,17.43,4.69,4.8128,-29.4159,-33.1596,1014.48
189254,-0.0621712,1.5208,9.54567,-10.43,-5.6,16.94,4.52633,-29.5027,-33.5282,1014.49
189260,0.0382592,1.36298,9.53132,-19.32,-12.6,26.04,3.81017,-29.5606,-34.2229,1014.49
189266,0.483022,1.16691,10.1626,-16.52,-29.47,24.36,3.66694,-29.3291,-34.1803,1014.5
189272,0.85605,1.47298,10.55,-12.04,-29.47,21.98,3.81017,-29.0397,-34.4639,1014.5
189278,0.722142,1.47298,10.8608,-7.91,-29.12,16.59,3.43776,-29.3291,-33.6132,1014.53
189284,0.540411,1.21951,11.2721,-0.42,-21.56,9.31,3.32318,-28.7214,-33.6841,1014.53
189290,0.511717,1.36298,10.9613,-0.56,-15.47,0.77,3.32318,-28.895,-34.4213,1014.5
189296,0.516499,1.07126,10.9517,0.77,-17.57,-3.08,3.69558,-29.4159,-33.8826,1014.5
189302,0.765184,1.20995,10.9708,3.08,-20.02,-7.84,2.43513,-29.6185,-34.4072,1014.5
189308,0.449546,1.48254,10,2.1,-17.36,-10.01,3.03671,-28.3162,-34.4639,1014.48
189314,0.243902,1.49211,10.153,0.35,-16.1,-9.24,3.55235,-29.2712,-34.1803,1014.48
189320,0.162602,1.4682,10.3826,3.43,-19.32,-8.47,2.69295,-29.4448,-33.3155,1014.48
189326,0.301291,1.20038,10.0574,17.64,-20.79,-9.73,2.69295,-28.9818,-34.4639,1014.48
189332,-5.21282,1.81253,4.76327,-48.65,-7.77,33.6,2.7216,-28.6346,-34.1662,1014.47
189338,1.9847,-4.52415,5.00239,-118.86,10.57,32.27,1.89085,-28.6635,-34.7474,1014.47
189344,1.20038,-0.35868,18.0918,-5.46,-57.05,5.32,1.8622,-28.3162,-34.875,1014.47
189350,4.43328,-0.0621712,13.3285,0.21,-100.38,-1.4,1.91949,-27.7664,-35.1018,1014.47
189356,2.46294,-0.71736,6.07365,-42,-142.73,45.5,1.4898,-27.94,-35.4988,1014.48
189362,1.22429,-0.650406,10.6887,-51.52,-137.83,40.04,-0.74464,-28.5477,-35.513,1014.48
189368,4.50502,1.33907,9.89479,-61.18,-91.84,23.87,-0.48682,-27.6217,-35.2011,1014.5
189374,3.78766,2.5012,8.09182,-47.6,-71.68,5.39,-0.801932,-26.9272,-36.0234,1014.5
189380,1.73601,3.1516,7.51793,-33.25,-79.45,-10.78,-1.0311,-26.6088,-35.3287,1014.5
189386,-0.439981,4.09852,7.56576,-24.43,-76.16,-10.22,-1.26028,-27.2165,-34.8608,1014.47
189392,-1.73601,4.57197,7.28838,-26.67,-97.44,-13.16,-1.31757,-27.0429,-34.9743,1014.47
189398,0.13869,2.72597,8.4792,-22.75,-99.47,-28.35,-1.86186,-26.3484,-35.9808,1014.53
189404,0.435198,4.83501,7.15447,-54.39,-91,-27.72,-2.23426,-26.3484,-36.0375,1014.53
189410,0.989957,4.28981,8.07747,-100.73,-73.85,-45.29,-1.91915,-26.2905,-35.9383,1014.53
189416,0.607365,5.80105,8.08226,-160.51,-62.72,-50.68,-2.09103,-26.1169,-36.5054,1014.53
189422,2.31468,5.12673,9.30655,-225.26,-49.91,-50.61,-1.97644,-24.0333,-37.597,1014.51
189428,4.43807,4.23721,9.33046,-300.09,-29.54,-55.16,-2.57802,-23.4834,-37.3844,1014.51
189434,4.28503,3.96461,9.49306,-377.79,-21.91,-54.46,-2.43479,-21.9497,-38.6603,1014.53
189440,3.06074,3.0703,10.1626,-468.65,-22.19,-55.58,-2.40614,-20.7053,-39.1282,1014.53
189446,1.80296,1.94644,12.1043,-560.7,-41.3,-56.56,-2.80719,-17.5799,-41.0279,1014.47
189452,1.53037,1.32472,12.6638,-650.86,-55.72,-66.78,-2.52073,-14.4256,-41.9494,1014.47
189458,2.00861,-2.75944,10.6791,-721.42,-39.69,-86.94,-2.86449,-10.1426,-42.4598,1014.5
189464,2.0373,-6.62841,9.08178,-733.67,-19.53,-112.91,-3.32283,-6.69887,-43.3246,1014.5
189470,0.832138,-10.0335,6.63797,-680.89,1.61,-120.4,-4.44005,-4.81783,-45.6922,1014.5
189476,0.908656,-8.66093,5.63845,-540.19,18.48,-78.96,-2.60667,-0.419122,-44.6431,1014.53
189482,2.33381,-9.19177,2.92205,-353.71,28.28,9.1,-2.97907,2.1275,-44.2886,1014.53
189488,3.38116,-12.9842,1.17647,-125.09,9.45,125.72,-3.03637,4.18216,-44.7423,1014.5
189494,6.78623,-13.7494,-1.54472,110.6,63.28,171.29,-2.60667,3.6902,-43.2395,1014.5
189500,4.30416,-7.18795,5.69584,175.98,106.33,176.4,-1.71862,2.59053,-44.955,1014.49
189506,1.56384,-3.5868,9.30177,133.7,72.03,153.93,-1.4608,0.941009,-44.5155,1014.49
189512,1.94644,-3.03204,10.3491,59.01,74.48,114.1,-0.715993,0.738435,-45.3377,1014.52
189518,1.46341,-4.04591,9.82305,39.27,63.91,92.61,-0.0571209,0.564802,-44.317,1014.52
189524,1.37255,-6.01626,8.68962,41.86,53.2,80.71,-0.257647,-0.129732,-44.6147,1014.5
189530,2.09947,-5.72453,8.63223,21.14,40.6,66.92,0.172052,0.0728402,-45.9899,1014.5
189536,2.53467,-5.39455,9.7561,-3.01,41.37,60.41,-0.200354,-0.332304,-45.0542,1014.49
189542,2.46772,-4.25155,9.77044,-29.4,29.4,66.78,0.143405,-0.0429167,-45.0117,1014.49
189548,2.77379,-4.59589,9.5648,-62.44,28.49,70.77,-0.200354,-0.216549,-44.9691,1014.49
189554,-13.2472,-4.96891,4.68675,-94.71,-12.11,63.56,0.974157,0.420107,-45.4512,1014.5
189560,0.454328,-3.37637,5.53324,-88.9,31.36,11.2,0.487164,1.78024,-45.4086,1014.5
189566,8.98135,-0.741272,4.91631,-78.19,51.59,9.38,0.716337,1.54872,-44.5296,1014.52
189572,-5.09804,-5.41368,15.2176,-67.55,4.13,-29.54,-0.343586,0.651617,-45.8198,1014.52
189578,-3.48637,-6.92492,9.8087,-99.4,-33.39,-55.86,-0.200354,2.50371,-44.558,1014.51
189584,-1.24821,-0.286944,7.50837,-165.76,-54.11,-27.86,0.630398,3.66126,-45.0684,1014.51
189590,3.68245,-4.49546,4.92109,-202.09,-11.41,1.61,-0.0284745,3.95065,-44.9266,1014.49
189596,2.60641,-5.10282,8.19703,-219.94,2.73,37.03,0.401224,5.54229,-45.5646,1014.49
189602,1.50167,-4.93544,7.934,-243.6,15.26,72.8,0.200699,6.87348,-45.437,1014.48
189608,0.607365,-4.96891,7.80966,-267.61,28.35,88.34,0.200699,7.45226,-45.0967,1014.48
189614,0.879962,-6.21712,8.07269,-272.65,30.17,98.35,0.429872,9.44905,-44.955,1014.52
189620,1.67862,-7.0636,7.3362,-282.52,33.46,102.48,0.573104,10.1725,-44.7848,1014.52
189626,2.22382,-7.30273,7.65662,-287.35,31.71,113.89,0.630398,12.0825,-43.4522,1014.52
189632,2.41989,-8.78527,6.60449,-269.99,37.31,112.49,0.974157,13.24,-43.4238,1014.52
189638,1.43472,-9.15351,7.29316,-254.31,32.83,105,1.91949,14.4265,-43.2962,1014.52
189644,0.0095648,-8.29746,6.88666,-251.23,24.85,107.73,2.14867,15.2079,-42.6299,1014.47
189650,-0.181731,-8.10139,6.63797,-248.36,17.92,108.5,1.94814,16.4233,-43.1119,1014.47
189656,-0.726925,-7.81444,6.68101,-244.3,11.2,104.44,2.37784,17.8703,-43.3104,1014.51
189662,-0.779531,-7.64228,5.76279,-245.7,7.07,98.42,2.66431,19.7802,-42.4456,1014.51
189668,-1.13821,-7.1736,5.2989,-249.27,8.19,100.45,3.094,20.5326,-40.8578,1014.46
189674,-1.51602,-7.10186,4.75849,-253.89,12.32,111.23,3.75288,21.2851,-40.7585,1014.46
189680,-0.755619,-8.40268,4.2659,-273.21,26.25,113.61,3.26588,21.7481,-41.5524,1014.49
189686,-1.23386,-9.65088,5.44715,-261.52,32.48,120.12,3.83882,23.4265,-39.0856,1014.49
189692,-1.06648,-9.53132,5.09326,-251.44,35.77,126.98,4.61227,24.6709,-39.7661,1014.5
189698,-1.22908,-9.98565,5.08847,-244.09,29.82,137.69,5.38573,25.568,-38.9155,1014.5
189704,-1.02822,-10.0956,5.14586,-234.22,23.17,149.45,5.64355,26.6677,-37.2284,1014.53
189710,-0.320421,-9.5648,4.11286,-243.32,26.46,151.13,5.58626,27.478,-36.477,1014.53
189716,-1.13821,-9.26351,3.53419,-264.11,27.51,151.69,6.33107,28.3751,-37.3985,1014.53
189722,-0.784314,-9.41655,3.01291,-281.47,30.73,145.67,6.27378,29.7063,-35.0593,1014.53
189728,-2.04208,-9.60306,3.82114,-285.25,21.49,139.79,8.02122,30.314,-34.0953,1014.53
189734,-2.15686,-9.34481,3.50072,-283.29,12.95,139.37,7.82069,31.1532,-34.4213,1014.47
189740,-1.99426,-9.42133,3.33333,-281.4,4.9,140.21,8.07851,31.6741,-34.4922,1014.47
189746,-1.70732,-9.76566,2.86944,-283.36,3.64,136.99,8.85197,32.6291,-32.4365,1014.48
189752,-1.75992,-10.7604,3.09421,-284.69,1.96,131.88,9.48219,33.7867,-31.43,1014.48
189758,-1.71688,-11.6834,2.0373,-283.36,1.75,122.08,10.1124,34.8285,-30.792,1014.5
189764,-2.41511,-11.5925,1.49689,-285.18,4.62,107.66,10.0551,35.7256,-30.5226,1014.5
189770,-3.14204,-11.1382,0.334768,-290.22,12.11,92.26,11.5161,36.6227,-29.2892,1014.5
189776,-3.68245,-10.5595,-0.0191296,-296.59,19.53,77.56,11.3156,37.6645,-26.9216,1014.5
189782,-4.02678,-10.3395,-0.0573888,-297.36,27.37,64.89,11.2296,38.3301,-27.4887,1014.49
189788,-3.62028,-10.1626,-1.14778,-301.07,36.47,59.78,12.3182,38.5905,-24.8376,1014.49
189794,-3.40985,-9.66045,-1.20995,-304.5,40.81,68.18,12.1463,39.6323,-24.2563,1014.5
189800,-2.76423,-8.04878,-0.966045,-302.4,40.32,89.46,12.2609,40.1532,-22.6543,1014.5
189806,-2.63032,-7.64706,-0.349115,-294.21,32.34,116.34,12.662,40.9056,-21.1657,1014.5
189812,-2.3912,-7.2836,-0.526064,-287.28,25.27,136.5,13.55,42.179,-20.5136,1014.48
189818,-2.69249,-6.67145,-0.722142,-273.84,17.64,152.25,15.2975,41.9474,-19.11,1014.48
189824,-2.879,-6.55189,-0.645624,-260.61,7.42,161.42,15.7558,42.3815,-18.2452,1014.46
189830,-2.93161,-5.32281,-1.99426,-252.7,9.03,165.41,16.2714,42.1211,-16.3455,1014.46
189836,-3.31899,-4.9737,-0.81779,-244.16,2.24,173.04,17.1022,42.8735,-15.2113,1014.51
189842,-2.8264,-6.73362,-1.55428,-233.03,3.36,165.2,17.1308,43.4812,-14.8569,1014.51
189848,-3.49593,-8.52702,-1.81731,-214.55,6.09,147,18.3626,42.613,-13.7794,1014.51
189854,-4.74892,-9.44524,-2.43902,-190.82,7.91,126,18.7923,43.1339,-11.6387,1014.51
189860,-5.16021,-9.34481,-2.93161,-176.89,9.24,107.24,20.0528,43.0471,-12.2199,1014.5
189866,-4.33285,-9.17264,-2.69727,-171.36,12.74,89.25,20.7976,43.3076,-11.1283,1014.5
189872,-4.03635,-8.94787,-1.21951,-160.58,9.59,70.77,20.683,43.0471,-10.5612,1014.49
189878,-5.64323,-6.72405,4.20851,-145.81,-24.71,58.1,20.5398,43.5101,-9.69641,1014.49
189884,0.114778,-9.24438,-6.74318,-143.36,17.29,29.12,20.1101,43.5101,-9.11515,1014.49
189890,-3.89766,-10.5452,-2.70684,-104.37,16.31,9.59,20.9408,43.2497,-9.12933,1014.47
189896,-4.64849,-9.34003,-2.6351,-77.84,16.24,2.8,20.1101,42.8156,-9.17186,1014.47
189902,-3.77331,-9.46437,-2.96987,-65.45,18.69,-0.63,20.282,43.0182,-7.95262,1014.49
189908,-3.73984,-9.2109,-2.34816,-69.37,10.15,0.63,20.7976,42.8735,-8.17946,1014.49
189914,-4.02678,-8.62745,-2.57771,-82.46,0.07,10.92,21.6284,43.2786,-6.49238,1014.53
189920,-4.2946,-8.1253,-2.94118,-99.4,-5.67,22.33,21.4851,43.2497,-7.24376,1014.53
189926,-4.58154,-8.11095,-3.4242,-119.98,-9.24,38.5,21.1987,43.7417,-6.83263,1014.51
189932,-4.99283,-7.74271,-3.45289,-136.57,-13.86,45.15,21.5711,43.1339,-5.57086,1014.51
189938,-4.82066,-7.15925,-3.86896,-140.77,-11.97,48.3,22.0294,43.105,-6.12377,1014.49
189944,-5.30368,-6.56145,-4.09373,-135.17,-15.54,44.87,21.5997,43.1339,-5.24479,1014.49
189950,-5.4902,-6.27451,-4.68197,-122.5,-11.9,32.9,22.4305,43.3365,-3.84125,1014.49
189956,-5.6241,-6.70493,-4.56719,-100.45,-7.28,20.58,21.9435,43.6259,-2.74961,1014.49
189962,-5.49976,-6.48493,-4.98804,-79.66,-3.78,8.19,22.2586,43.7417,-2.80632,1014.52
189968,-6.23147,-4.87327,-4.30416,-73.22,-8.19,6.16,22.9174,43.597,-2.83467,1014.52
189974,-5.79627,-7.0923,-4.63415,-57.12,-5.32,-4.69,21.9721,43.1918,-3.17493,1014.52
189980,-5.05021,-7.96748,-4.36155,-32.69,4.27,-22.05,21.0554,42.5552,-3.20328,1014.48
189986,-3.71592,-8.82831,-4.3472,-19.88,8.82,-34.65,21.6856,43.3944,-2.59366,1014.48
189992,-3.19943,-9.39263,-3.57724,-15.12,17.99,-44.59,21.9721,43.7706,-2.79214,1014.5
189998,-2.86466,-9.25394,-3.62984,-12.6,25.06,-51.52,21.6284,44.2336,-2.87721,1014.5
190004,-4.46198,-9.20612,-3.06074,-11.13,17.01,-49.21,21.2846,44.0889,-1.54455,1014.51
190010,-3.23768,-8.70397,-4.33764,-21.91,12.88,-45.15,20.5111,44.0021,-2.90556,1014.51
190016,-4.41894,-9.2922,-3.67767,-28.77,5.18,-31.43,21.3419,44.6677,-2.39518,1014.52
190022,-3.24247,-9.01482,-4.43328,-44.03,3.71,-27.65,21.5424,44.4651,-1.92734,1014.52
190028,-3.81157,-9.11047,-4.28025,-51.38,1.75,-21.28,21.4565,43.8863,-1.10506,1014.53
190034,-3.90244,-8.82831,-4.09852,-55.72,-0.91,-18.69,20.5111,44.6677,-1.75721,1014.53
190040,-3.62984,-8.67049,-4.08417,-51.31,0.07,-16.45,20.5971,44.7835,-1.43114,1014.51
190046,-3.30464,-8.14443,-4.1846,-48.72,-3.01,-15.54,20.5398,45.3622,-2.22506,1014.51
190052,-3.60115,-8.39789,-5.16977,-48.72,-0.91,-15.82,21.2273,44.9571,-0.580509,1014.51
190058,-5.77236,-8.35007,-5.6528,-55.3,2.03,-19.11,21.2559,45.1886,-0.42456,1014.52
190064,-6.00669,-7.43185,-5.69584,-68.11,2.94,-30.24,20.4538,45.449,0.525308,1014.52
190070,-9.07221,-5.94452,-2.64945,-42.14,-9.31,-5.46,20.1387,45.6227,0.66708,1014.49
190076,-2.07556,-5.63845,-5.44237,-23.03,-31.29,-27.3,20.3679,44.2915,1.03569,1014.49
190082,-3.40507,-4.39981,-9.02917,-23.24,18.48,-19.95,20.0814,45.7963,1.2767,1014.46
190088,-4.16069,-7.04448,-5.42802,-23.24,59.08,-14.28,19.1647,43.7706,-1.00582,1014.46
190094,-4.32807,-8.02965,-4.72501,-10.78,67.48,-16.38,20.1387,44.523,0.525308,1014.47
190100,-4.28981,-8.1779,-4.49546,8.26,70.42,-9.8,20.1387,45.449,1.67366,1014.47
190106,-3.9933,-6.58058,-4.75849,15.47,69.51,-1.12,19.7663,45.3333,1.06404,1014.52
190112,-3.29029,-6.2506,-5.44237,7.84,71.4,-1.61,19.4226,44.2336,1.71619,1014.52
190118,-2.6638,-6.99665,-6.26494,-7.98,78.54,-11.9,20.1674,44.4941,1.67366,1014.47
190124,-2.73553,-6.68101,-6.80057,-37.52,99.33,-15.05,19.5944,45.3622,1.61695,1014.47
190130,-2.99856,-6.02582,-7.26447,-77.63,118.93,-13.72,19.3653,44.8703,1.16328,1014.48
190136,-1.94165,-6.2219,-7.70923,-106.12,123.69,-17.64,19.2507,45.5937,3.41745,1014.48
190142,-1.53037,-6.43711,-7.70923,-135.38,125.09,-20.37,18.821,45.3622,4.18301,1014.48
190148,-1.97513,-6.94883,-6.54711,-155.96,128.8,-18.27,18.1621,45.8542,5.20376,1014.49
190154,-2.36729,-7.16404,-6.34146,-172.55,130.69,-19.95,19.8236,45.3044,5.41642,1014.49
190160,-2.41511,-6.80057,-6.85318,-191.45,131.6,-12.95,19.308,45.6516,6.83414,1014.52
190166,-2.56337,-6.67145,-6.72884,-199.43,126.77,4.83,18.821,45.5937,8.15261,1014.52
190172,-2.27164,-6.50885,-6.7671,-210.91,118.79,22.96,19.1934,45.9989,9.81134,1014.51
190178,-2.31468,-5.86322,-6.87709,-227.01,103.32,36.96,19.1075,45.7384,10.024,1014.51
190184,-1.92731,-5.38498,-7.43663,-256.41,95.2,45.78,18.3053,45.3333,11.6969,1014.48
190190,-2.86466,-5.67671,-7.53706,-291.69,105.84,46.69,18.9642,44.4362,12.8594,1014.48
190196,-2.72119,-5.17934,-7.72358,-326.55,123.27,50.75,19.4226,43.8285,15.2695,1014.47
190202,-2.2286,-4.44285,-7.49402,-354.83,139.86,57.61,19.1647,42.8156,16.6164,1014.47
190208,-2.02296,-4.03635,-7.53228,-376.04,148.19,55.16,19.4512,43.2207,19.0407,1014.48
190214,-1.83644,-5.15064,-7.27403,-382.2,158.27,39.2,19.1361,42.0921,20.5009,1014.48
190220,-2.64945,-5.44715,-7.66141,-370.93,161.77,15.12,19.4799,40.5294,21.7627,1014.48
190226,-2.69249,-5.99713,-7.9627,-353.99,167.23,-14,18.2767,40.2111,24.0877,1014.49
190232,-1.97035,-6.75275,-8.76614,-330.33,173.46,-42.91,18.0189,39.4008,26.1718,1014.49
190238,-2.21425,-6.51363,-8.26877,-305.2,172.69,-58.66,17.4173,39.4008,27.5186,1014.46
190244,-2.42946,-6.41798,-8.05834,-279.58,158.69,-75.32,16.2141,38.2143,28.6386,1014.46
190250,-3.6681,-5.67671,-7.7714,-248.71,135.87,-79.94,16.386,37.9539,30.4958,1014.49
190256,-3.29986,-5.57628,-8.00096,-216.44,113.26,-86.03,14.8678,37.5487,31.2755,1014.49
190262,-2.70206,-5.23195,-8.62267,-191.45,97.16,-88.34,14.2948,36.3044,32.75,1014.52
190268,-2.46294,-4.51459,-9.23481,-172.41,82.39,-78.96,13.8078,35.7256,32.9768,1014.52
190274,-2.16164,-4.06504,-9.47394,-159.25,65.1,-69.09,12.9771,36.2754,33.9267,1014.48
190280,-2.26686,-3.80679,-9.52176,-148.82,46.62,-58.45,12.7766,35.6098,33.8558,1014.48
190286,-2.15208,-3.22334,-9.96174,-143.78,29.61,-45.36,12.3755,35.6677,35.1459,1014.51
190292,-2.11382,-2.80249,-9.96652,-138.6,17.64,-30.59,13.063,34.6838,35.6563,1014.51
190298,-1.76471,-2.95552,-9.96174,-134.96,10.71,-21.56,12.6333,33.642,35.9682,1014.48
190304,-1.57341,-2.77379,-9.99043,-131.18,5.53,-12.32,11.9172,33.9314,36.6203,1014.48
190310,-0.980392,-2.74032,-10.5643,-134.05,5.74,-5.81,11.7166,33.8445,36.3651,1014.48
190316,-0.559541,-2.85988,-10.2917,-133.98,12.81,-2.59,12.0604,33.179,37.2866,1014.53
190322,-0.329986,-2.30512,-10.1483,-134.19,23.87,-3.29,11.9458,32.5134,38.0664,1014.53
190328,-0.37781,-2.0373,-9.83261,-136.5,33.25,-6.3,11.201,31.5005,38.4208,1014.47
190334,-0.674318,-1.99904,-9.59828,-141.68,36.33,-11.83,11.4875,30.6902,38.435,1014.47
190340,-0.760402,-1.91774,-9.53132,-145.6,39.55,-21.91,11.3729,30.4298,38.6193,1014.48
190346,-0.822573,-1.8747,-9.69871,-151.41,44.03,-32.55,10.9145,29.851,39.9236,1014.48
190352,-1.13821,-1.57341,-9.5935,-155.68,44.87,-35.7,10.5421,29.0117,38.8887,1014.49
190358,-1.28168,-1.45385,-9.7274,-165.97,45.5,-31.85,10.8859,28.2015,40.4198,1014.49
190364,-1.37255,-1.3056,-9.9187,-179.97,44.1,-28.77,9.88325,28.1725,40.675,1014.48
190370,-1.38211,-1.12386,-9.78479,-188.65,40.95,-23.59,9.56814,27.941,41.1286,1014.48
190376,-1.02822,-0.961262,-10.0574,-196.07,39.27,-18.48,9.8546,26.986,42.1352,1014.46
190382,-0.69823,-0.593018,-10.2296,-201.67,38.15,-13.51,8.59415,26.0021,42.4046,1014.46
190388,-0.45911,-0.124342,-10.2535,-200.27,37.17,-8.05,8.65144,25.5391,43.1985,1014.46
190394,-0.23912,0.569106,-10.0622,-186.62,35.91,-2.66,8.73738,24.15,44.1058,1014.52
190400,-0.13869,0.712578,-10.1291,-169.68,34.3,3.22,8.56551,23.3687,44.2618,1014.52
190406,0.487805,0.392157,-10.263,-144.97,38.71,7.07,8.82332,22.9346,45.0415,1014.51
190412,0.645624,0.401722,-10.5739,-119.98,44.59,13.51,8.25039,22.3847,43.7939,1014.51
190418,0.33955,0.234338,-10.7891,-97.79,50.19,17.15,8.73738,22.2979,44.517,1014.5
190424,-0.0669536,0.373027,-10.8752,-82.18,54.25,18.69,8.53686,21.0825,43.7231,1014.5
190430,-0.430416,0.396939,-10.7795,-71.75,58.03,16.59,7.84934,20.822,45.1266,1014.47
190436,-3.17551,2.30033,-10.1435,-64.54,67.41,4.9,7.96393,20.8799,45.637,1014.47
190442,-4.2946,6.54711,-6.46102,-89.95,49.35,7.21,6.87536,20.4458,46.119,1014.51
190448,1.47298,-2.18556,-10.483,-78.4,50.61,18.62,6.76077,20.1564,44.5737,1014.51
190454,1.40603,-1.60689,-10.5595,-66.01,40.74,13.79,7.24776,19.5777,46.6436,1014.51
190460,-0.263032,0.664754,-10.5835,-66.78,35.14,6.93,6.76077,19.4619,46.2041,1014.51
190466,-1.02822,3.23768,-9.15351,-68.81,24.22,9.73,6.78942,19.433,46.5443,1014.5
190472,-0.368245,3.35246,-8.24964,-57.19,12.18,11.06,6.93265,17.8124,46.7003,1014.5
190478,0.540411,2.38164,-8.94309,-42.63,14.14,5.11,6.70347,18.5359,45.9489,1014.5
190484,0.726925,1.46341,-10.1387,-37.94,39.13,-9.94,6.87536,18.478,47.239,1014.5
190490,-1.20516,0.712578,-9.88522,-41.09,65.31,-31.29,5.04197,17.2626,47.4658,1014.5
190496,-1.16691,-0.789096,-9.70349,-41.93,77.91,-52.71,6.18784,18.1018,46.4592,1014.49
190502,-1.58776,-0.655189,-9.87566,-44.38,81.69,-70.77,4.84145,18.6806,46.9696,1014.49
190508,-1.82209,0.535629,-9.44046,-47.11,75.25,-78.89,4.66957,17.8124,47.3949,1014.51
190514,-1.60689,1.45385,-9.07699,-70.14,60.41,-78.47,5.07062,18.1597,46.5868,1014.51
190520,20.0287,5.20325,-5.41368,-132.79,122.57,-61.39,3.9534,16.9442,47.3808,1014.49
190526,4.99283,12.1234,-6.34624,-232.05,213.57,-61.74,3.06536,15.7867,47.8344,1014.49
190532,-2.18077,7.23099,-10.9995,-314.09,217.07,-9.03,1.69032,15.3526,47.9053,1014.48
190538,-2.75944,4.81109,-10.7939,-374.01,174.16,29.61,0.888217,13.1243,48.359,1014.48
190544,-0.157819,3.55332,-10.33,-437.57,143.99,31.99,-0.114415,10.8671,49.1387,1014.52
190550,1.3056,1.89383,-12.0612,-463.05,137.2,8.12,-1.20298,9.01496,49.479,1014.52
190556,-0.0526064,3.57724,-10.9852,-490.35,124.46,14.91,-0.544113,6.67091,50.0319,1014.52
190562,-3.35246,5.14108,-3.37159,-470.61,66.85,32.9,-1.83321,4.67413,49.7767,1014.5
190568,2.89813,5.05021,-14.3759,-446.11,87.57,9.8,-2.3202,1.63554,49.6066,1014.5
190574,1.62602,4.84935,-12.2382,-436.38,87.85,-16.45,-2.83584,-0.853204,49.8759,1014.5
190580,0.530846,5.82975,-8.17312,-405.58,57.19,-18.9,-3.20825,-2.32909,50.1737,1014.5
190586,0.310856,6.16451,-7.47489,-377.51,33.32,-19.53,-3.15095,-5.59919,49.7058,1014.51
190592,0.416069,5.68149,-5.24629,-344.54,9.59,-19.11,-4.66922,-8.34838,48.9261,1014.51
190598,1.06169,5.85844,-4.73458,-316.19,-2.94,-25.55,-3.66659,-8.78247,49.6916,1014.52
190604,1.45863,5.87279,-5.89192,-299.95,-5.39,-40.53,-3.12231,-10.2005,48.8127,1014.52
190610,0.889526,6.27451,-5.71497,-295.05,-17.57,-42.91,-3.06501,-11.4448,48.8835,1014.47
190616,-0.0334768,5.92539,-5.28455,-287.42,-34.51,-31.99,-2.66396,-13.4706,47.7777,1014.47
190622,-0.176949,5.31325,-4.64849,-254.73,-46.27,-23.03,-2.7499,-15.1201,47.3949,1014.49
190628,0.143472,5.53324,-5.10282,-237.37,-62.02,-3.15,-3.09366,-16.3355,47.2957,1014.49
190634,0.0765184,6.34146,-7.3362,-224.84,-64.12,22.75,-2.03374,-16.596,46.1899,1014.5
190640,0.306074,8.68962,-7.87183,-221.06,-58.73,46.13,-0.945166,-17.9272,46.0056,1014.5
190646,0.516499,9.34003,-8.55093,-244.86,-45.99,75.6,-1.86186,-18.7664,46.2466,1014.5
190652,0.683883,9.07699,-7.51793,-269.15,-31.29,92.82,-1.0884,-20.4448,44.4744,1014.48
190658,0.353898,8.54137,-6.14538,-283.64,-28.91,99.05,-1.97644,-21.6892,44.8289,1014.48
190664,0.951698,7.80009,-4.83501,-287.35,-25.76,98.98,-2.23426,-22.6442,44.0633,1014.5
190670,1.36298,7.73314,-3.84983,-288.33,-26.81,93.8,-2.23426,-23.3966,42.8299,1014.5
190676,1.56863,7.78575,-3.02248,-280.14,-38.78,84.84,-2.06238,-25.6828,41.8233,1014.46
190682,2.68293,9.10091,-2.76901,-265.37,-54.53,79.73,-1.71862,-26.6667,41.1428,1014.46
190688,2.88379,9.22525,-2.03252,-247.52,-65.59,79.94,-1.97644,-28.0558,40.9585,1014.52
190694,3.34768,9.58871,-2.15208,-230.02,-74.83,84.07,-1.8905,-29.1265,40.6466,1014.52
190700,3.16595,9.10569,-2.5825,-209.37,-80.5,91.98,-1.74727,-29.6764,39.8811,1014.47
190706,3.36203,8.82831,-2.64467,-194.32,-79.8,93.17,-2.20562,-30.3709,39.6259,1014.47
190712,3.67767,8.86179,-2.97465,-176.4,-73.5,90.79,-2.63531,-30.7471,38.435,1014.49
190718,3.56289,9.03874,-3.48637,-168.21,-67.83,80.22,-1.91915,-31.8468,37.1732,1014.49
190724,3.76375,9.21568,-3.4768,-159.25,-58.17,68.39,-2.46343,-32.4256,37.5844,1014.49
190730,3.51506,9.74653,-3.1516,-150.64,-49.42,57.89,-1.68998,-33.0333,36.3651,1014.48
190736,3.18986,10.0478,-3.01769,-149.38,-40.25,46.83,-2.3202,-33.9014,36.195,1014.48
190742,2.78814,10.0048,-2.24773,-156.52,-39.27,48.51,-2.03374,-34.0172,35.5003,1014.5
190748,2.52989,9.37829,-1.86035,-160.86,-49,55.93,-2.20562,-34.7696,36.2234,1014.5
190754,1.51602,8.0153,-1.91296,-158.34,-59.99,63.35,-1.86186,-36.0429,34.6497,1014.49
190760,1.47298,6.96317,-1.73123,-148.26,-70.35,63.91,-2.43479,-35.985,34.1677,1014.49
190766,3.70158,7.50837,-2.51076,-137.76,-70.14,52.71,-1.4608,-36.3323,32.0836,1014.51
190772,6.42276,8.46485,-3.61071,-138.53,-37.73,25.06,-1.9478,-36.1297,32.3672,1014.51
190778,6.82927,8.91918,-4.36633,-150.85,-4.83,-6.86,-1.71862,-37.1137,30.8644,1014.48
190784,5.24151,10.7269,-5.00239,-171.71,21.14,-25.9,-2.34885,-38.3001,32.2821,1014.48
190790,3.43376,11.7073,-4.25155,-212.73,28.91,-23.31,-1.97644,-38.0108,30.1272,1014.48
190796,1.6308,13.3716,-3.48637,-264.04,23.59,2.73,-2.97907,-39.4577,29.8153,1014.48
190802,1.89383,12.9555,-3.31899,-300.79,14.7,25.83,-2.17697,-39.9497,28.2274,1014.51
190808,3.55332,11.1956,-3.07508,-331.31,17.99,35.49,-2.26291,-40.7021,26.5687,1014.51
190814,4.49546,9.79436,-2.07078,-356.44,29.05,24.85,-2.17697,-42.1201,24.7824,1014.51
190820,5.00239,9.34959,-1.13343,-366.73,45.29,9.94,-2.52073,-41.8307,22.8827,1014.51
190826,4.77762,10.0478,-1.35342,-371,73.5,-1.75,-2.52073,-43.0751,21.9753,1014.51
190832,3.33812,9.62219,-1.14299,-371.56,104.37,-8.75,-2.92178,-44.0301,20.7277,1014.51
