Timestamp,AccX,AccY,AccZ,AngularVelX,AngularVelY,AngularVelZ,MagX,MagY,MagZ,AirPressure
42842,0.157819,9.78001,1.07604,-0.28,0.07,0.28,25.5243,-41.223,-4.05391,1014.51
42848,0.176949,9.75131,1.0856,-0.07,0.35,0.49,25.8967,-42.0333,-3.34505,1014.52
42854,0.148254,9.76088,1.07126,-0.14,0.07,0.28,25.7535,-41.686,-3.45847,1014.52
42860,0.148254,9.78001,1.06169,-0.28,0.28,0.21,25.3524,-41.9175,-3.89796,1014.52
42866,0.157819,9.80392,1.07604,-0.42,0.14,0.21,25.6389,-42.5252,-2.45189,1014.5
42872,0.11956,9.78001,1.08082,-0.7,0.07,0.14,25.5816,-43.0751,-3.16075,1014.5
42878,0.148254,9.74175,1.10473,-0.49,0.35,0.42,25.3524,-41.9175,-4.15315,1014.54
42884,0.196078,9.71784,1.11908,0,-0.07,0.49,25.5816,-41.7149,-3.61442,1014.54
42890,0.129125,9.7274,1.13821,-0.07,0.42,-0.14,25.3811,-43.0751,-1.96987,1014.52
42896,0.143472,9.70349,1.14299,0,-0.21,0.21,24.6362,-41.9465,-3.65695,1014.52
42902,0.148254,9.71784,1.11908,0.42,-17.64,-0.14,25.954,-41.9175,-3.38758,1014.54
42908,0.133907,9.71784,1.09517,0.42,-0.21,-0.28,25.9253,-42.6989,-2.31012,1014.54
42914,0.153037,9.7274,1.1143,0.21,-0.42,-0.14,24.9227,-42.2358,-3.17493,1014.5
42920,0.143472,9.73218,1.12865,0.91,-0.35,-0.21,25.0659,-41.7439,-3.65695,1014.5
42926,0.162602,9.7561,1.1143,0.77,-0.35,-0.42,25.8108,-42.6989,-3.20328,1014.49
42932,0.133907,9.75131,1.08082,0.63,-0.84,-0.14,25.2378,-43.4223,-4.1815,1014.49
42938,0.13869,9.78479,1.09039,0.98,-0.35,-0.07,26.0686,-42.0043,-3.14657,1014.53
42944,0.129125,9.84218,1.05691,0.49,-0.35,0,25.868,-41.8307,-3.96885,1014.53
42950,0.148254,9.83261,1.02822,0.28,0,-0.07,24.579,-43.2487,-2.90556,1014.53
42956,0.153037,9.82305,1.05691,-0.07,0,-0.14,25.6389,-42.178,-3.40176,1014.52
42962,0.11956,9.81349,1.04735,-0.21,-0.21,0.14,25.9253,-41.223,-3.52935,1014.52
42968,0.129125,9.78479,1.08082,0.07,-0.07,0.07,25.467,-42.4963,-3.28834,1014.53
42974,0.153037,9.80392,1.05213,-0.07,-0.07,0.14,25.6962,-42.5542,-4.13897,1014.53
42980,0.153037,9.7274,1.10952,-0.07,-0.35,0,25.6675,-41.5702,-3.37341,1014.48
42986,0.153037,9.70827,1.14778,0.14,0.07,0,25.8108,-42.0622,-3.48682,1014.48
42992,0.167384,9.69392,1.17169,0.63,17.36,-0.35,25.4383,-42.6989,-3.48682,1014.55
42998,0.148254,9.71305,1.13821,0.56,0.07,-0.35,26.1832,-41.194,-3.20328,1014.55
43004,0.153037,9.72262,1.08082,0.84,0.28,-0.42,26.3264,-41.8018,-3.52935,1014.5
43010,0.162602,9.74175,1.1143,0.84,0,-0.28,25.6102,-43.4223,-3.14657,1014.5
43016,0.167384,9.74175,1.0856,1.05,0.07,-0.49,26.355,-42.4384,-3.95467,1014.51
43022,0.191296,9.73218,1.11908,0.56,0.14,-0.77,26.0686,-41.5702,-3.82707,1014.51
43028,0.162602,9.75131,1.09039,1.19,-0.14,-0.91,25.1232,-43.0461,-3.51518,1014.51
43034,0.109995,9.78001,1.07126,1.12,-0.21,-0.42,25.6675,-42.2358,-2.87721,1014.53
43040,0.109995,9.79436,1.06648,1.26,-0.42,-0.56,25.7248,-41.1651,-2.80632,1014.53
43046,0.157819,9.76566,1.0856,0.7,-0.49,-0.7,25.5529,-42.2648,-2.94809,1014.52
43052,0.11956,9.81827,1.03778,0.84,-0.56,-0.63,25.467,-42.8436,-2.42354,1014.52
43058,0.0908656,9.8374,1.03778,0.77,-0.14,-0.14,25.0659,-41.7439,-3.75619,1014.53
43064,0.105213,9.8087,1.03778,0.21,-0.28,-0.49,26.1832,-41.8307,-2.89138,1014.53
43070,0.13869,9.8087,1.0856,0.77,0,-0.07,25.4383,-43.4802,-2.76379,1014.52
43076,0.133907,9.75131,1.1143,0.77,0.28,-0.28,25.9826,-41.8018,-3.16075,1014.52
43082,0.162602,9.79436,1.04735,0.56,0.28,-0.07,25.4956,-41.5124,-3.38758,1014.51
43088,0.148254,9.77044,1.06648,0.56,0.42,-0.07,25.1805,-42.3805,-3.3167,1014.51
43094,0.157819,9.78957,1.09517,0.84,-0.21,-0.21,26.1259,-42.8725,-2.15417,1014.53
43100,0.153037,9.7561,1.10952,0.49,0.07,-0.35,25.8394,-42.0622,-2.52278,1014.53
43106,0.167384,9.75131,1.09995,0.98,-0.28,-0.49,26.0686,-42.6699,-3.58606,1014.5
43112,0.172166,9.73218,1.10473,0.84,0.14,-0.42,25.3811,-42.8436,-2.91974,1014.5
43118,0.148254,9.76088,1.12386,0.77,0.14,-0.28,25.4383,-42.0622,-2.87721,1014.5
43124,0.153037,9.73218,1.1143,0.84,0.21,-0.91,26.0972,-41.5413,-3.23163,1014.5
43130,0.109995,9.78957,1.09039,0.7,-0.49,-0.49,25.467,-42.9883,-2.36683,1014.5
43136,0.124342,9.80392,1.06648,1.12,-0.21,-0.35,25.3524,-42.7278,-2.60784,1014.51
43142,0.109995,9.81349,1.04735,0.63,-0.63,-0.91,25.0373,-42.0622,-3.24581,1014.51
43148,0.11956,9.78479,1.09039,0.49,-0.42,-0.91,25.6102,-42.5542,-2.60784,1014.5
43154,0.13869,9.7561,1.1143,1.12,-0.84,-0.7,26.1259,-42.0911,-3.40176,1014.5
43160,0.153037,9.85174,1.01387,0.7,0.21,-0.77,25.6675,-41.9465,-4.3091,1014.48
43166,0.109995,9.78001,1.07126,0.35,-0.14,-0.42,26.2691,-42.4384,-2.97645,1014.48
43172,0.148254,9.77523,1.09995,0.91,0.28,-0.21,25.0086,-43.1329,-2.62202,1014.51
43178,0.0860832,9.76088,1.07126,0.91,-0.14,-0.35,25.3238,-41.8886,-3.20328,1014.51
43184,0.13869,9.85174,1.01865,0.84,-0.42,-0.28,25.5243,-41.3098,-4.46505,1014.51
43190,0.143472,9.78957,1.07604,0.7,0,-17.92,25.0946,-42.9304,-4.40834,1014.51
43196,0.167384,9.73697,1.13343,0.77,-0.42,-0.14,25.5816,-42.0333,-3.51518,1014.51
43202,0.153037,9.73697,1.09995,0.63,-0.42,-0.28,25.9826,-41.5413,-3.25999,1014.5
43208,0.153037,9.75131,1.0856,0.49,-0.28,-0.56,24.9227,-42.3516,-3.0048,1014.5
43214,0.153037,9.74653,1.09517,0.49,-0.21,-0.35,24.9514,-42.7278,-3.03315,1014.51
43220,0.167384,9.74175,1.07126,0.77,-0.21,-0.77,25.0086,-40.4416,-4.33745,1014.51
43226,0.13869,9.70349,1.13821,0.63,-0.49,-0.49,25.7821,-42.3805,-3.30252,1014.51
43232,0.13869,9.72262,1.11908,1.12,-0.07,-0.63,25.2092,-43.2776,-3.11822,1014.51
43238,0.176949,9.70827,1.12386,0.63,-0.28,-0.91,25.6962,-41.1362,-4.20986,1014.54
43244,0.186514,9.7274,1.09517,1.47,-0.07,-0.98,24.9514,-41.6571,-3.62859,1014.54
43250,0.114778,9.71784,1.12865,1.05,-0.35,-1.05,25.3524,-42.3805,-2.76379,1014.51
43256,0.109995,9.75131,1.13343,1.33,0.07,-0.98,25.2951,-41.9175,-2.5086,1014.51
43262,0.124342,9.82305,1.05213,0.98,-0.35,-0.84,25.5816,-41.6571,-3.44429,1014.49
43268,0.129125,9.84218,0.980392,0.49,0.21,-0.7,25.6675,-43.0461,-2.45189,1014.49
43274,0.11956,9.84218,1.033,0.84,-0.07,-0.84,25.4956,-42.0333,-3.45847,1014.5
43280,0.0813008,9.82305,1.04256,0.56,-0.14,-0.63,25.4383,-42.0911,-3.51518,1014.5
43286,0.095648,9.85653,1.01387,0.56,-0.07,-0.63,25.3524,-42.0333,-4.05391,1014.5
43292,0.172166,9.78479,1.05213,0,-0.14,-0.35,25.7535,-42.5831,-2.73543,1014.56
43298,0.176949,9.72262,1.12386,0.84,0.07,-0.49,25.868,-41.3098,-3.03315,1014.56
43304,0.129125,9.73218,1.13821,1.05,-0.28,-0.35,25.868,-41.9465,-3.91214,1014.55
43310,0.133907,9.76566,1.0856,0.84,-0.28,-0.91,24.8368,-42.8436,-2.72126,1014.55
43316,0.157819,9.75131,1.09517,0.91,0.14,-0.56,25.4097,-41.8307,-2.86303,1014.48
43322,0.181731,9.71784,1.11908,0.63,-0.14,-0.77,25.9253,-41.194,-3.57189,1014.48
43328,0.148254,9.73218,1.10473,0.84,0.21,-0.98,25.1805,-42.149,-3.67113,1014.47
43334,0.13869,9.74653,1.10473,1.4,0.21,-0.7,25.2092,-42.4963,-3.72783,1014.47
43340,0.133907,9.73218,1.09039,1.54,0.49,-0.98,25.3238,-41.0783,-3.23163,1014.5
43346,0.153037,9.74653,1.09039,1.12,-0.28,-1.19,25.7821,-41.5702,-3.78454,1014.5
43352,0.114778,9.76566,1.05691,1.47,0.07,-0.7,24.579,-43.0751,-4.09644,1014.5
43358,0.143472,9.82305,1.02822,1.4,0.07,-0.91,25.3524,-41.5413,-4.09644,1014.5
43364,0.0765184,9.85174,1.01387,1.05,-0.91,-0.7,24.4357,-42.0622,-3.77037,1014.5
43370,0.0669536,9.82305,1.02822,0.84,-0.35,-0.63,25.1232,-42.6989,-3.34505,1014.5
43376,0.114778,9.82305,1.03778,0.56,-0.35,-0.7,25.467,-41.8886,-3.40176,1014.5
43382,0.105213,9.83261,1.03778,0.49,-0.56,-0.7,25.4383,-41.6281,-3.98302,1014.49
43388,0.095648,9.82783,1.06648,0.42,-0.42,-0.42,25.6102,-42.4384,-3.501,1014.49
43394,0.124342,9.78479,1.06648,0.7,-0.56,-0.49,25.1519,-42.0043,-3.33087,1014.5
43400,0.105213,9.75131,1.07604,0.7,0.28,-0.14,25.2378,-41.3677,-3.69948,1014.5
43406,0.11956,9.76088,1.09039,0.56,-0.42,-0.21,25.0373,-41.7439,-4.20986,1014.49
43412,0.148254,9.78001,1.09039,0.35,0.42,-0.63,25.0373,-42.2358,-2.89138,1014.49
43418,0.143472,9.73218,1.07126,0.98,0.21,-0.21,25.4956,-41.5124,-3.37341,1014.5
43424,0.176949,9.7561,1.07604,0.77,0.42,-0.56,25.5529,-42.2358,-3.88378,1014.5
43430,0.157819,9.74653,1.07126,0.77,0.35,-0.35,25.0659,-43.1329,-1.85645,1014.5
43436,0.162602,9.76566,1.02343,0.98,-0.35,-0.84,25.1519,-42.178,-3.71366,1014.5
43442,0.13869,9.7561,1.05691,0.49,0.07,-0.7,25.7535,-41.5992,-2.96227,1014.5
43448,0.13869,9.78479,1.05691,0.35,-0.14,-0.77,25.868,-42.641,-2.5086,1014.51
43454,0.0860832,9.77044,1.03778,0.84,0.14,-0.49,25.6675,-42.149,-2.97645,1014.51
43460,0.0813008,9.82783,1.033,0.28,-0.35,-0.56,25.4097,-41.7149,-4.11062,1014.52
43466,0.133907,9.84696,1.01865,0.42,-0.14,-0.7,25.7821,-42.2648,-4.03973,1014.52
43472,0.0765184,9.80392,1.07604,0.49,-0.21,-0.21,25.1805,-42.5542,-3.48682,1014.48
43478,0.0813008,9.80392,1.07126,0.21,-0.35,-0.28,24.8368,-41.8018,-3.28834,1014.48
43484,0.105213,9.86131,1.02822,0.21,0.14,0.07,24.6076,-42.5542,-3.89796,1014.52
43490,0.071736,9.84696,0.994739,0,0.35,-0.49,25.1232,-43.596,-2.63619,1014.52
43496,0.114778,9.80392,1.06648,0.7,-0.14,0.21,25.6102,-41.5702,-2.97645,1014.48
43502,0.109995,9.79914,1.07604,0.7,0.07,0.14,25.3524,-41.194,-3.17493,1014.48
43508,0.129125,9.7274,1.09517,0.14,0.07,0.07,24.9227,-42.0911,-2.87721,1014.49
43514,0.124342,9.73218,1.05213,0.56,0.14,-0.35,25.1519,-42.3516,-3.17493,1014.49
43520,0.148254,9.7561,1.0856,0,0,-0.56,25.2378,-41.4545,-3.96885,1014.51
43526,0.143472,9.75131,1.09039,0.42,-0.14,-0.28,25.868,-42.178,-2.33847,1014.51
43532,0.13869,9.74175,1.07604,0.56,-0.14,-0.21,25.4383,-41.9754,-3.10404,1014.51
43538,0.109995,9.77523,1.04256,0.21,0.07,-0.56,26.0113,-41.5124,-2.56531,1014.48
43544,0.129125,9.7561,1.05213,0.7,-0.49,-0.49,25.8967,-41.0493,-3.37341,1014.48
43550,0.109995,9.7561,1.09039,0.49,-0.35,-0.7,25.5816,-43.0172,-2.62202,1014.51
43556,0.114778,9.76566,1.05213,0.49,-0.49,-0.63,26.1259,-41.6281,-3.92631,1014.51
43562,0.114778,9.78001,1.06648,0.42,-0.28,-0.14,26.355,-41.3677,-3.55771,1014.5
43568,0.105213,9.74653,1.07126,0.28,-0.35,-0.49,25.4383,-42.3227,-3.21746,1014.5
43574,0.0860832,9.74175,1.07126,0.63,-0.14,-0.7,25.4956,-42.0333,-3.23163,1014.53
43580,0.0430416,9.82305,1.00909,0.56,-0.28,-0.07,24.7795,-41.5413,-3.43011,1014.53
43586,0.047824,9.82305,1.03778,0.7,-0.28,-0.07,25.6675,-42.7567,-3.72783,1014.47
43592,0.157819,9.78957,1.05213,0.28,-0.14,0.07,24.7508,-42.0043,-3.41594,1014.47
43598,0.148254,9.75131,1.09517,0.77,-0.42,-0.07,25.6675,-41.0783,-4.12479,1014.53
43604,0.13869,9.7274,1.09995,0.7,-0.49,-0.42,25.7248,-41.686,-4.25239,1014.53
43610,0.129125,9.75131,1.07604,1.12,-0.21,0,25.5529,-41.7728,-3.27417,1014.53
43616,0.153037,9.74653,1.09517,0.98,0,-0.21,25.3238,-41.2809,-3.0048,1014.53
43622,0.153037,9.75131,1.04256,0.49,0.14,-0.49,25.6675,-40.76,-3.08986,1014.53
43628,0.129125,9.7561,1.06648,0.91,0.28,-0.35,25.8967,-42.5542,-3.69948,1014.49
43634,0.133907,9.73697,1.05691,1.12,-0.07,-0.56,25.0086,-41.9754,-3.3167,1014.49
43640,0.143472,9.73218,1.08082,0.77,0,-0.84,25.2665,-40.9915,-3.92631,1014.55
43646,0.133907,9.74653,1.06169,1.26,-0.56,-1.12,25.5243,-42.0333,-3.61442,1014.55
43652,0.0860832,9.77523,1.07604,0.7,-0.56,-0.84,25.9826,-42.2937,-3.24581,1014.53
43658,0.10043,9.76088,1.04735,1.47,-0.42,-0.84,25.2092,-40.6731,-4.08226,1014.53
43664,0.071736,9.82305,1.02343,1.19,-0.63,-0.91,25.5529,-42.3516,-3.72783,1014.52
43670,0.0526064,9.82783,1.02343,0.63,-0.35,-0.7,25.2665,-42.5252,-3.40176,1014.52
43676,0.0765184,9.83261,1.03778,1.19,-0.21,-1.05,25.3238,-41.5124,-3.86961,1014.47
43682,0.105213,9.76566,1.02822,0.42,-0.28,-0.35,25.2951,-41.1072,-3.65695,1014.47
43688,0.0860832,9.78001,1.02343,0.56,-0.63,-0.42,25.7248,-42.0622,-3.6853,1014.51
43694,0.095648,9.79914,1.02822,0.77,-0.07,-0.49,25.868,-41.5413,-4.52175,1014.51
43700,0.13869,9.77523,1.05691,0.77,-0.35,-0.35,25.7248,-40.76,-4.1815,1014.51
43706,0.162602,9.77044,1.06648,0.49,0.07,-0.49,25.5243,-41.9465,-4.03973,1014.49
43712,0.167384,9.73218,1.05691,0.98,0.28,-0.77,25.6389,-41.7439,-3.51518,1014.49
43718,0.114778,9.75131,1.08082,1.05,0,-0.84,25.7535,-41.4834,-3.62859,1014.5
43724,0.124342,9.7274,1.04735,0.77,-0.28,-0.77,26.0113,-41.5124,-3.98302,1014.5
43730,0.124342,9.76088,1.04735,0.77,0.07,-0.84,25.5243,-42.5542,-3.9972,1014.54
43736,0.109995,9.73697,1.08082,1.05,0.14,-1.19,26.3264,-42.0911,-3.27417,1014.54
43742,0.095648,9.7561,1.06169,1.33,-0.14,-1.19,26.3264,-41.8018,-3.30252,1014.51
43748,0.105213,9.76566,1.04256,0.98,-0.07,-1.05,25.1519,-42.612,-3.0048,1014.51
43754,0.105213,9.74653,1.04256,1.05,0,-1.05,25.6102,-41.7149,-2.09746,1014.5
43760,0.124342,9.77044,1.07126,1.47,-0.42,-1.33,25.5529,-41.3387,-3.98302,1014.5
43766,0.109995,9.77523,1.04735,1.12,-0.21,-1.33,25.7248,-41.6571,-3.11822,1014.5
43772,0.0765184,9.77523,1.04256,0.98,-0.35,-1.33,25.5816,-42.2069,-2.6929,1014.5
43778,0.047824,9.78001,1.05213,1.05,-0.35,-1.12,26.0399,-41.686,-3.23163,1014.5
43784,0.105213,9.78479,1.05213,1.75,-0.14,-0.91,26.842,-41.3966,-3.06151,1014.53
43790,0.047824,9.8087,0.999522,1.33,-0.07,-0.91,26.2118,-42.7278,-3.41594,1014.53
43796,0.023912,9.85653,0.994739,0.84,-0.42,-0.77,26.2691,-41.7149,-3.74201,1014.53
43802,0.0669536,9.82783,0.989957,1.75,-0.35,-0.49,26.0399,-40.9047,-3.40176,1014.53
43808,0.133907,9.78957,1.04256,0.98,-0.42,-0.7,26.1259,-42.1201,-3.6853,1014.54
43814,0.11956,9.76566,1.01387,0.77,-0.35,-0.84,25.7821,-42.0911,-3.37341,1014.54
43820,0.0621712,9.78479,1.04735,1.33,-0.49,-0.63,25.6675,-41.2809,-4.26657,1014.51
43826,0.071736,9.75131,1.02822,1.05,-0.56,-0.91,25.5529,-41.9465,-3.60024,1014.51
43832,0.133907,9.78479,1.02343,0.77,0.07,-1.19,24.9514,-42.641,-4.09644,1014.51
43838,0.0860832,9.7274,1.07126,1.05,-0.49,-1.05,26.4696,-41.0204,-3.60024,1014.51
43844,0.109995,9.73218,1.09039,1.05,-0.14,-1.26,25.2665,-42.2069,-2.08329,1014.5
43850,0.0813008,9.7274,1.06648,1.19,0.35,-1.19,25.5529,-42.2937,-2.02658,1014.5
43856,0.0765184,9.73218,1.07604,1.12,-0.49,-1.4,25.4956,-41.7149,-2.87721,1014.54
43862,0.109995,9.79436,1.033,0.77,0.14,-1.4,25.954,-41.0783,-3.28834,1014.54
43868,0.0860832,9.76088,1.03778,1.33,0.07,-1.26,26.0972,-42.6989,-2.53695,1014.54
43874,0.0813008,9.77044,1.02343,1.68,0.21,-1.47,25.6675,-42.6699,-3.67113,1014.5
43880,0.0813008,9.8087,0.994739,1.19,-0.28,-1.33,25.868,-40.731,-2.93391,1014.5
43886,0.0860832,9.79436,1.04256,1.61,-1.05,-1.12,25.2378,-42.4384,-3.16075,1014.51
43892,0.071736,9.79436,1.033,1.19,-0.28,-1.12,25.4383,-42.2648,-3.07569,1014.51
43898,0.023912,9.82305,0.994739,1.4,-0.77,-1.05,25.6962,-40.6153,-3.75619,1014.5
43904,-0.0047824,9.88044,0.980392,1.05,-0.21,-0.63,26.0399,-41.5124,-4.32327,1014.5
43910,-0.0191296,9.90435,0.899091,0.77,-0.77,-0.42,25.6102,-42.149,-3.54353,1014.47
43916,0.0334768,9.87087,0.951698,0.63,-0.07,-0.14,26.2405,-41.8886,-3.0048,1014.47
43922,0.109995,9.77523,1.00909,0.21,0.07,-0.21,25.954,-40.76,-2.93391,1014.5
43928,0.0813008,9.75131,1.06648,0.56,0.42,-0.07,26.0113,-41.9754,-2.70708,1014.5
43934,0.095648,9.74175,1.06648,0.56,-0.21,0.07,24.98,-41.7439,-1.99822,1014.49
43940,0.10043,9.7561,1.04256,0.84,-0.63,-0.49,25.8967,-40.8178,-3.60024,1014.49
43946,0.0860832,9.78957,1.0043,0.7,-0.35,-0.28,25.7535,-41.8018,-2.57949,1014.49
43952,0.095648,9.7561,1.03778,0.63,-0.42,-0.42,25.4097,-42.4384,-3.34505,1014.51
43958,0.095648,9.76088,1.06169,0.56,-0.28,-0.42,25.8394,-41.7149,-3.35923,1014.51
43964,0.095648,9.76088,1.03778,1.05,-0.56,-0.7,26.2691,-41.8018,-2.80632,1014.52
43970,0.095648,9.76088,1.05213,0.56,0,-0.7,26.0686,-42.4963,-3.03315,1014.52
43976,0.109995,9.77044,1.0043,1.33,-0.21,-0.63,25.3524,-41.8596,-3.1891,1014.55
43982,0.071736,9.77044,0.999522,0.84,-0.07,-0.77,24.8654,-41.1362,-3.17493,1014.55
43988,0.047824,9.76566,1.033,0.84,-0.07,-0.63,25.8394,-42.3805,-2.22506,1014.49
43994,0.0765184,9.74653,1.02822,1.05,-0.77,-0.42,25.4383,-42.3516,-2.53695,1014.49
44000,0.0573888,9.78957,1.02822,0.84,0,-0.84,25.9826,-41.6281,-3.54353,1014.49
44006,0.0621712,9.78479,1.0043,1.05,-0.91,-0.7,25.5529,-42.0043,-3.04733,1014.49
44012,0.023912,9.79914,0.994739,0.98,-0.77,-0.56,25.8394,-41.5702,-2.94809,1014.5
44018,0.023912,9.81349,0.994739,1.05,-0.77,-0.42,25.3524,-40.8468,-2.97645,1014.5
44024,0.047824,9.8374,0.985174,0.84,-0.98,-0.49,25.0659,-42.641,-3.6853,1014.51
44030,0.047824,9.84696,0.980392,0.77,0,0.07,25.1519,-42.2937,-2.49442,1014.51
44036,0.0286944,9.85174,0.95648,0.56,-0.77,-0.28,25.5816,-42.1201,-3.92631,1014.51
44042,0.0669536,9.84696,0.961262,0.14,-0.07,0.14,26.6702,-41.1362,-4.09644,1014.49
44048,0.129125,9.76566,1.01865,0.07,0.21,0.42,26.0686,-42.3516,-3.60024,1014.49
44054,0.114778,9.75131,1.05213,0.49,-0.14,0.07,26.1545,-42.3805,-4.01138,1014.51
44060,0.0860832,9.73218,1.05213,0.42,0.35,0.21,24.8081,-41.8307,-4.06809,1014.51
44066,0.105213,9.7561,1.05213,0.7,0.14,0,25.868,-41.8018,-4.36581,1014.52
44072,0.124342,9.74175,1.05691,0.7,0.14,-0.07,24.6649,-42.5542,-3.79872,1014.52
44078,0.10043,9.75131,1.02343,0.56,0.35,-0.14,25.467,-41.1651,-4.84783,1014.5
44084,0.11956,9.74653,1.02343,0.84,0.14,-0.14,25.7248,-41.8596,-3.28834,1014.5
44090,0.124342,9.74175,0.994739,0.7,0.56,-0.7,25.5243,-42.641,-3.61442,1014.52
44096,0.109995,9.7561,1.00909,0.56,0.07,-0.63,25.4956,-41.3387,-3.78454,1014.52
44102,0.0813008,9.76088,1.01387,0.7,-0.42,-0.91,26.0686,-41.5992,-4.37998,1014.5
44108,0.10043,9.76566,1.01865,0.7,0,-0.98,25.5816,-41.9465,-3.07569,1014.5
44114,0.047824,9.77044,0.999522,0.84,-0.42,-0.56,25.7821,-41.8018,-3.57189,1014.5
44120,0.0669536,9.82305,0.980392,0.77,-0.07,-0.56,25.8967,-41.1362,-4.39416,1014.5
44126,0.0621712,9.78001,0.994739,0.28,-0.07,-0.49,25.1232,-42.4963,-4.47922,1014.5
44132,0.0430416,9.8087,1.0043,0.56,-0.14,-0.84,25.6962,-41.8886,-2.90556,1014.5
44138,0.0526064,11.0139,0.985174,0.91,-0.07,-0.56,25.3811,-41.8886,-3.94049,1014.5
44144,0.0430416,9.81827,1.00909,0.84,-0.07,-0.49,26.441,-41.7728,-3.58606,1014.51
44150,0.0430416,9.79914,1.03778,0.7,-0.42,-0.56,25.0373,-42.7278,-3.3167,1014.51
44156,0.0765184,9.81827,0.966045,0.98,-0.21,-0.14,25.5816,-41.8018,-3.96885,1014.52
44162,0.0765184,9.8087,1.01387,0.28,-0.14,-0.28,25.8394,-41.6571,-4.08226,1014.52
44168,0.047824,9.79436,1.0043,0.21,0.14,-0.21,26.1545,-42.2358,-3.40176,1014.54
44174,0.0526064,9.79436,1.02822,0.56,0.07,0,25.6389,-41.9175,-3.85543,1014.54
44180,0.0908656,9.76088,1.01387,0.56,0.28,-0.28,25.5529,-41.0204,-3.33087,1014.5
44186,0.071736,9.73697,1.04256,0.42,0,-0.7,27.0139,-42.5831,-3.01898,1014.5
44192,0.10043,9.74653,1.04256,0.98,-0.28,-0.49,25.467,-42.2937,-3.35923,1014.5
44198,0.0573888,9.77044,1.01387,0.35,-0.14,-0.63,26.3837,-41.6571,-3.13239,1014.54
44204,0.0765184,9.78001,0.980392,0.91,-0.14,-0.35,25.0946,-41.8596,-2.65037,1014.54
44210,0.095648,9.78001,1.02343,0.49,0.07,-0.63,26.0399,-42.5542,-3.60024,1014.53
44216,0.105213,9.77523,1.01387,0.28,0.21,-0.49,25.4097,-40.9915,-3.06151,1014.53
44222,0.047824,9.77523,1.00909,0.28,0.28,-0.7,26.7274,-41.5413,-2.6929,1014.49
44228,0.0813008,9.81349,0.994739,0.21,0.14,-0.49,26.2977,-42.5252,-3.16075,1014.49
44234,0.047824,9.83261,0.980392,0.35,0.21,-0.35,26.2977,-41.0783,-3.44429,1014.51
44240,0.0813008,9.7561,1.01387,0.21,-0.07,-0.21,26.6988,-40.5285,-3.86961,1014.51
44246,0.0143472,9.82305,1.0043,0.35,0.14,-0.28,25.954,-42.2358,-2.73543,1014.51
44252,0.0047824,9.85174,0.985174,0.42,0,-0.07,25.9826,-42.641,-3.11822,1014.51
44258,0.023912,9.90913,0.923003,-0.49,0.28,0.21,25.2665,-41.5992,-2.73543,1014.51
44264,0.0765184,9.85174,0.95648,-0.49,0.28,0.35,25.1519,-42.3227,-4.29492,1014.51
44270,0.0621712,9.76088,1.06648,-0.28,0.07,0.07,25.4097,-42.4674,-2.65037,1014.5
44276,0.0430416,9.74175,1.06169,-0.28,0.28,0,26.3264,-42.149,-3.10404,1014.5
44282,0.0669536,9.75131,1.04735,0,0.14,0.21,25.7821,-42.0043,-3.57189,1014.5
44288,0.0813008,9.7561,1.06169,0.42,0.07,-0.35,25.5816,-42.641,-2.77797,1014.46
44294,0.0765184,9.78957,1.01865,0.07,0.14,0.21,25.8967,-41.8596,-2.87721,1014.46
44300,0.0813008,9.79436,1.033,0.28,-0.28,0.14,25.1805,-40.9336,-3.10404,1014.48
44306,0.10043,9.77523,1.02343,0.21,0.07,-0.35,24.9514,-42.3805,-3.45847,1014.48
44312,0.0765184,9.7561,1.02822,-0.14,0,-0.14,25.6962,-42.2069,-2.55113,1014.49
44318,0.0143472,9.78957,1.01865,0.49,-0.35,0,25.6675,-41.5702,-2.28177,1014.49
44324,0.071736,9.79914,0.989957,0.28,-0.07,-0.35,25.5529,-41.3677,-2.87721,1014.49
44330,0.114778,9.82783,0.927786,-0.07,-0.07,-0.21,25.2378,-42.0911,-3.10404,1014.49
44336,0.0860832,9.78001,0.985174,0.14,0.14,-0.14,25.8967,-41.7728,-3.23163,1014.52
44342,0.0526064,9.78479,0.989957,-0.21,0.14,-0.56,25.4956,-40.9047,-2.72126,1014.52
44348,0.0526064,9.76088,0.985174,0,-0.07,0.07,25.0946,-42.0622,-2.0124,1014.49
44354,0.0430416,9.79436,1.0043,0.07,0,0,25.2378,-41.9754,-2.80632,1014.49
44360,0.0526064,9.76566,1.01865,0.21,-0.21,-0.14,25.2665,-41.3966,-3.1891,1014.49
44366,0.0621712,9.75131,1.033,0.21,-0.28,0.21,24.4071,-43.0461,-2.74961,1014.49
44372,0.0813008,9.74175,1.04256,0.35,0.28,0.21,25.2665,-42.0911,-3.14657,1014.49
44378,0.0621712,9.78957,0.95648,0.14,-0.35,-0.14,25.7535,-41.2809,-3.98302,1014.49
44384,0.047824,9.78957,1.02822,0.14,-0.14,0.35,25.4383,-42.0911,-2.49442,1014.49
44390,0.0621712,9.83261,1.01387,0.35,0.21,-0.07,25.7248,-42.8436,-3.08986,1014.53
44396,0.047824,9.8087,0.97561,0.14,0.07,0.42,25.6675,-41.5702,-2.97645,1014.53
44402,0.0382592,9.8374,0.97561,0.14,0.14,0.21,26.5269,-41.3387,-3.64277,1014.49
44408,0.0526064,9.8087,1.0043,0.21,-0.07,0.21,25.5816,-42.4384,-1.81392,1014.49
44414,0.0669536,9.77044,1.01865,0.14,-0.07,0.35,25.9826,-42.0333,-2.91974,1014.51
44420,0.0286944,9.78957,1.00909,0.35,0.14,0.42,25.8108,-41.7728,-3.06151,1014.51
44426,0.129125,9.77523,0.961262,0,0.07,0.21,25.0946,-41.8886,-2.56531,1014.46
44432,0.11956,9.74175,1.04256,0.21,0.14,0.42,25.4383,-42.149,-3.3167,1014.46
44438,0.095648,9.77044,1.02343,0.35,0.21,0.42,25.4956,-41.5413,-3.08986,1014.52
44444,0.0813008,9.76088,0.989957,0,0.42,0.14,25.5529,-41.686,-4.63517,1014.52
44450,0.0813008,9.74175,1.01387,0.14,0.35,0.21,24.6935,-42.2069,-1.37443,1014.52
44456,0.0621712,9.82783,0.994739,0.14,0.49,0.35,25.8394,-41.6281,-2.25341,1014.51
44462,0.047824,9.80392,0.994739,0,-0.07,0.07,25.868,-41.3387,-3.86961,1014.51
44468,0.047824,9.83261,1.01387,-0.21,-0.07,0.28,25.2951,-43.3066,-2.67873,1014.53
44474,0.0573888,9.7561,1.02822,-0.28,0,0.28,25.954,-43.1329,-3.25999,1014.53
44480,0.10043,9.7561,1.01387,-0.21,0.07,0.14,25.5243,-41.7439,-2.87721,1014.48
44486,0.124342,9.7274,1.02822,0.56,0,-0.07,25.6389,-42.2358,-3.13239,1014.48
44492,0.071736,9.83261,0.918221,0.07,0.35,-0.07,25.0659,-42.4963,-2.65037,1014.51
44498,1.20038,9.79436,0.985174,-0.21,0.07,0.49,25.6962,-41.223,-3.67113,1014.51
44504,0.095648,9.86131,0.961262,-0.28,0.49,0.21,25.5816,-41.8018,-3.28834,1014.5
44510,-0.0143472,9.77523,1.02343,-0.14,-0.42,0.35,24.9514,-42.8436,-1.75721,1014.5
44516,0.124342,9.76088,1.01387,-0.14,0.21,0.28,25.5243,-41.7149,-2.74961,1014.5
44522,0.071736,9.76566,1.033,-0.21,-0.07,0.14,25.6962,-41.6571,-2.79214,1014.5
44528,0.0669536,9.79914,1.00909,-0.21,-0.28,0.49,25.4097,-42.7857,-2.74961,1014.5
44534,0.0908656,9.77523,1.03778,-0.07,-0.21,0.49,26.2118,-42.2648,-2.53695,1014.53
44540,0.109995,9.74175,1.05213,-0.14,0,0.28,26.441,-40.7889,-2.28177,1014.53
44546,0.109995,9.74653,1.04256,-0.42,0.49,0.07,25.7821,-42.2648,-3.14657,1014.51
44552,0.105213,9.76088,1.033,0.7,0.07,0.28,25.6962,-42.2937,-2.52278,1014.51
44558,0.0908656,9.76566,1.01387,-0.07,0.28,-0.21,25.7821,-41.2519,-3.11822,1014.53
44564,0.10043,9.77044,0.980392,-0.14,0.28,-0.07,26.2118,-42.0911,-3.65695,1014.53
44570,0.0813008,9.78001,0.999522,0.14,-0.28,-0.07,25.3524,-41.9754,-2.40936,1014.55
44576,0.109995,9.7274,1.02343,-0.56,-0.49,-0.35,26.0686,-40.731,-3.77037,1014.55
44582,0.071736,9.76088,1.01865,-0.21,-0.07,-0.14,25.3811,-41.4834,-4.63517,1014.54
44588,0.0908656,9.74653,1.04735,0.77,-0.07,-0.42,25.6675,-42.4674,-2.48025,1014.54
44594,0.0573888,9.77044,1.04256,0.07,0.07,-0.35,25.8967,-42.0911,-2.23923,1014.52
44600,0.0143472,9.81827,0.999522,0.07,0.14,-0.14,26.2118,-41.2519,-3.61442,1014.52
44606,0.0765184,9.83261,0.994739,0.07,-0.14,0,25.1805,-42.4963,-2.91974,1014.5
44612,0.0860832,9.82305,1.00909,0.21,0.14,0,25.954,-42.2069,-2.93391,1014.5
44618,0.0573888,9.81827,1.01387,0.14,-0.21,0.21,26.2691,-40.76,-4.72023,1014.5
44624,0.0047824,9.80392,1.01865,0.14,-0.35,0.42,25.7821,-42.3227,-3.67113,1014.51
44630,0.0573888,9.83261,0.994739,0.07,-0.07,0.63,25.4383,-42.4674,-1.75721,1014.51
44636,0.13869,9.77523,1.03778,-0.56,-0.35,0.21,25.2951,-41.9465,-3.34505,1014.5
44642,0.143472,9.74653,1.04735,-0.28,-0.14,-0.07,25.2092,-41.7728,-3.91214,1014.5
44648,0.0860832,9.7274,1.09517,0.91,-0.28,0.07,25.5816,-42.3227,-2.97645,1014.51
44654,0.0908656,9.76088,1.05691,0.49,-0.21,0.14,25.8967,-41.9465,-2.1967,1014.51
44660,0.10043,9.74175,1.01387,0.07,-0.42,-0.35,26.1832,-41.5702,-3.1891,1014.53
44666,0.0908656,9.74653,1.04735,0.63,-0.14,0.07,25.5243,-42.8146,-3.16075,1014.53
44672,0.10043,9.7561,1.05691,0.35,0.07,-0.21,26.1259,-42.7567,-2.80632,1014.49
44678,0.095648,9.74175,1.03778,0.42,-0.14,-0.42,26.0972,-41.4834,-3.41594,1014.49
44684,0.10043,9.76088,0.999522,0.28,-0.21,-0.28,25.1805,-42.3805,-4.03973,1014.5
44690,0.0860832,9.79914,1.0043,0.56,-0.07,-0.7,25.6962,-43.2776,-3.51518,1014.5
44696,0.0813008,9.78479,1.03778,0.28,0.42,-0.7,26.0972,-41.5413,-3.37341,1014.5
44702,0.0573888,9.76566,1.02343,0.7,-0.07,-0.49,26.1545,-41.2519,-4.02555,1014.5
44708,0.071736,9.78001,1.01865,0.49,0.07,-0.7,26.1832,-42.612,-4.56429,1014.5
44714,0.0573888,9.80392,0.999522,0,0.28,-0.35,25.6102,-42.1201,-2.91974,1014.49
44720,0.0143472,9.81827,0.980392,0.35,-0.14,0,26.2405,-41.3387,-3.98302,1014.49
44726,0.0526064,9.86131,0.966045,0.07,-0.07,-0.14,25.6675,-42.4963,-3.04733,1014.54
44732,0.0860832,9.74653,1.03778,0.21,-0.21,0.07,25.6962,-42.0333,-3.60024,1014.54
44738,0.133907,9.78001,1.033,0.28,0.35,-0.28,25.954,-41.8596,-3.45847,1014.51
44744,0.0430416,9.75131,1.06169,0,-0.14,-0.21,25.9253,-42.2358,-3.74201,1014.51
44750,0.0860832,9.77523,1.00909,0.42,-0.21,-0.21,25.868,-43.8564,-3.85543,1014.51
44756,0.10043,9.77523,0.994739,0.35,0,-0.07,26.0972,-41.7149,-3.11822,1014.51
44762,0.143472,9.73218,1.03778,0.49,0.28,-0.35,25.2665,-41.4545,-3.48682,1014.48
44768,0.124342,9.77523,1.06648,0.35,-0.07,-0.42,25.1232,-42.9014,-3.48682,1014.48
44774,0.0765184,9.75131,1.02822,0.56,0.28,-0.21,24.8081,-42.7857,-2.94809,1014.49
44780,0.10043,9.7561,0.999522,0.42,0.14,-0.42,24.8654,-41.2809,-3.21746,1014.49
44786,0.0573888,9.80392,0.994739,0.49,-0.49,-0.35,25.2092,-42.9593,-2.84885,1014.49
44792,0.0813008,9.77523,1.02343,0.35,-0.07,-0.28,25.1805,-42.7278,-3.95467,1014.54
44798,0.0765184,9.7561,1.04735,0.35,-0.35,-0.28,25.0373,-41.194,-3.92631,1014.54
44804,0.0765184,9.81349,1.02822,0.49,-0.07,-0.07,25.8108,-41.5124,-3.24581,1014.5
44810,0.0765184,9.77523,0.97561,0.7,0,-0.28,25.5816,-42.0043,-2.76379,1014.5
44816,0.0382592,9.78479,1.0043,0.14,-0.42,-0.42,25.8394,-41.1651,-3.17493,1014.51
44822,0.0095648,9.79436,0.994739,0.28,-0.63,-0.07,25.8967,-42.0622,-3.86961,1014.51
44828,0.0669536,9.80392,1.01387,0.14,-0.56,-0.14,25.8108,-42.4963,-2.73543,1014.51
44834,0.047824,9.82783,0.999522,0.49,0.42,0,25.3524,-42.4963,-3.23163,1014.51
44840,0.0621712,9.79914,1.01865,0.28,0.56,0.56,25.0373,-40.9047,-3.60024,1014.53
44846,0.105213,9.78001,1.04735,-0.07,0.56,0.14,26.1545,-42.0043,-2.90556,1014.53
44852,0.0813008,9.78001,1.01387,0,0.28,0.28,25.6962,-42.7278,-2.5086,1014.54
44858,0.0430416,9.79436,1.02822,0.14,-0.63,0.49,26.1832,-41.5124,-3.78454,1014.54
44864,0.095648,9.75131,1.00909,0.42,-0.14,0.07,25.8108,-42.2937,-3.58606,1014.54
44870,0.114778,9.76088,1.02343,0.42,-0.28,0,25.4097,-43.3355,-2.91974,1014.5
44876,0.071736,9.78001,1.02343,0.21,0.14,0.14,26.1832,-42.2648,-3.74201,1014.5
44882,0.10043,9.74175,1.04256,0.07,-0.14,-0.28,25.9253,-41.6281,-3.74201,1014.48
44888,0.0813008,9.7561,1.033,0.21,0.14,0.07,25.954,-42.4963,-3.07569,1014.48
44894,0.0860832,9.73697,1.03778,0.49,0,0.07,25.6389,-42.6699,-3.25999,1014.51
44900,0.114778,9.7561,1.04735,0.35,0.28,-0.35,25.7248,-41.8307,-3.9972,1014.51
44906,0.095648,9.78479,1.02343,0.14,-0.28,-0.35,25.2665,-42.0911,-3.501,1014.49
44912,0.0621712,9.79914,1.0043,0.49,0,0.07,25.954,-42.5252,-2.43771,1014.49
44918,0.0430416,9.79436,0.966045,0.14,-0.63,-0.42,25.2378,-41.0204,-3.27417,1014.51
44924,0.047824,9.82305,0.999522,0.14,-0.07,0.21,26.0686,-41.9754,-3.04733,1014.51
44930,0.0573888,9.77044,1.04256,0.14,0.35,0.28,25.5243,-42.0043,-3.58606,1014.49
44936,0.0860832,9.77523,1.06648,0.35,-0.28,0.07,25.4097,-41.2809,-4.12479,1014.49
44942,0.0669536,9.79914,1.0043,0.21,0.35,0.42,25.8967,-41.2519,-3.62859,1014.52
44948,0.0621712,9.79436,1.02343,0.07,0.07,0.14,24.98,-41.9754,-3.07569,1014.52
44954,0.0860832,9.78957,1.02822,0.42,0,0.07,25.4956,-42.4095,-3.85543,1014.52
44960,0.148254,9.74175,1.05213,0.42,-0.07,0.14,25.6962,-41.2519,-4.06809,1014.5
44966,0.124342,9.77523,1.04735,0.35,-0.21,0.07,25.2378,-41.686,-3.48682,1014.5
44972,0.0573888,9.78479,1.05691,0.07,0.42,0,25.6675,-41.8886,-3.6853,1014.5
44978,0.0573888,9.81827,1.0043,0.14,-0.21,0.14,25.4956,-41.2519,-3.30252,1014.5
44984,0.0813008,9.76566,1.033,-0.21,-0.56,-0.14,24.6649,-42.3805,-3.501,1014.5
44990,0.129125,9.74653,1.04256,0.07,0,-0.14,25.467,-42.8146,-3.6853,1014.5
44996,0.0621712,9.78479,1.05213,0.28,0,0.28,25.6102,-41.7149,-3.84125,1014.5
45002,0.023912,9.81827,1.01387,0.63,-0.42,0.14,25.9253,-40.9625,-3.74201,1014.5
45008,0.0669536,9.85174,0.97561,-0.21,0,0.35,25.868,-42.2937,-3.69948,1014.49
45014,0.109995,9.80392,0.980392,0.21,0.07,0.49,25.2092,-42.0911,-3.43011,1014.49
45020,0.0813008,9.79436,1.01865,0.28,0.28,0.56,25.6675,-41.1651,-3.91214,1014.53
45026,0.0669536,9.8087,1.033,-0.07,-0.21,0.28,25.4097,-42.3805,-3.65695,1014.53
45032,0.0191296,9.78001,0.994739,-0.07,0,0.63,25.8394,-41.9175,-3.34505,1014.53
45038,0.095648,9.8087,0.999522,0.07,0.21,0.14,25.8108,-40.9336,-4.01138,1014.53
45044,0.0908656,9.78957,1.02343,-0.21,-0.35,0.56,25.7535,-42.0333,-3.14657,1014.53
45050,0.0860832,9.79914,0.994739,-0.07,0.21,0.77,25.7821,-42.3516,-3.62859,1014.52
45056,0.0573888,9.76566,1.05213,-0.14,0.63,0.49,25.8394,-41.1362,-3.62859,1014.52
45062,0.109995,9.73697,1.07126,-0.21,0.21,0.35,25.954,-41.8018,-3.30252,1014.49
45068,0.109995,9.72262,1.1143,0.28,0.14,0.49,24.7508,-42.5831,-2.90556,1014.49
45074,0.10043,9.70827,1.1143,0.56,-0.21,-0.07,26.6702,-41.9175,-3.37341,1014.52
45080,0.105213,9.74175,1.05213,0.28,0.07,0.35,25.8394,-41.0204,-3.501,1014.52
45086,0.095648,9.75131,1.02822,0,-0.14,0.07,26.4696,-42.0043,-3.94049,1014.52
45092,0.0621712,9.80392,1.01865,0.49,0.35,-0.14,25.3524,-42.3516,-2.66455,1014.52
45098,0.0621712,9.83261,1.00909,0.07,0.28,0.35,25.2092,-41.0783,-3.95467,1014.49
45104,0.0765184,9.82305,1.02343,0.14,0.28,0.28,25.5529,-41.7149,-4.3091,1014.49
45110,0.10043,9.83261,1.0043,0.14,0.21,0.56,25.3524,-43.0172,-4.08226,1014.49
45116,0.0765184,9.82305,0.970827,0.28,0.07,0.63,26.2977,-41.0783,-2.90556,1014.48
45122,0.0382592,9.81827,1.01865,0.21,-0.21,0.49,25.868,-41.6571,-4.39416,1014.48
45128,0.071736,9.87087,0.999522,-0.35,0.35,0.84,25.954,-43.1329,-3.79872,1014.53
45134,0.105213,9.82305,1.0043,-0.35,0,1.12,25.7535,-42.2648,-3.51518,1014.53
45140,0.124342,9.81349,0.989957,-0.35,0.49,0.98,26.1545,-41.7439,-3.98302,1014.53
45146,0.105213,9.77523,1.04256,-0.42,0.35,0.84,25.4097,-42.641,-3.78454,1014.53
45152,0.109995,9.74653,1.09517,-0.63,0.21,0.91,25.8108,-43.567,-3.33087,1014.53
45158,0.124342,9.71305,1.11908,0.21,0.56,1.12,25.6962,-41.0783,-3.98302,1014.53
45164,0.114778,9.7274,1.10952,0.07,0.07,0.42,25.5816,-42.5831,-4.19568,1014.49
45170,0.157819,9.73697,1.04735,0.21,0.14,0.7,25.3238,-42.9593,-2.89138,1014.49
45176,0.095648,9.76088,1.06648,0.49,0.14,0.35,25.6102,-41.8596,-3.95467,1014.53
45182,0.133907,9.75131,1.04256,0.35,0.14,0,25.5816,-41.7149,-3.24581,1014.53
45188,0.129125,9.7561,1.01865,0.56,0.21,0.56,25.5243,-42.8436,-3.17493,1014.51
45194,0.0860832,9.79436,1.02822,0.28,0.21,0.28,25.7821,-42.0333,-2.79214,1014.51
45200,0.0860832,9.77523,1.01387,-0.35,0.49,0.21,26.2118,-41.7149,-2.89138,1014.51
45206,0.095648,9.80392,1.033,0.07,0.07,0.56,25.1805,-42.4384,-3.52935,1014.5
45212,0.105213,9.7561,1.02822,-0.14,0.21,0,25.868,-42.4384,-4.01138,1014.5
45218,0.095648,9.77523,1.03778,-0.42,0.07,0.28,26.7274,-41.4256,-3.37341,1014.52
45224,0.109995,9.82783,1.06169,-0.14,0.21,0.56,25.7535,-41.8596,-3.86961,1014.52
45230,0.0908656,9.79436,1.04735,-0.21,0.07,0.21,25.9253,-42.2069,-3.86961,1014.47
45236,0.13869,9.76088,1.033,-0.21,0.07,0.14,25.9253,-41.4834,-3.61442,1014.47
45242,0.129125,9.76088,1.06648,0,-0.07,0.35,25.5816,-41.8596,-3.89796,1014.51
45248,0.114778,9.75131,1.08082,-0.21,0.21,0.28,25.954,-42.5831,-2.55113,1014.51
45254,0.129125,9.76566,1.09039,-0.28,0.14,0.35,25.3811,-41.9754,-2.66455,1014.49
45260,0.10043,9.75131,1.09995,0.21,0.07,0,26.1832,-41.3966,-4.29492,1014.49
45266,0.148254,9.73218,1.0856,0,0,-0.21,25.7248,-42.5252,-2.52278,1014.5
45272,0.148254,9.72262,1.09517,0.42,-0.21,0,25.5816,-42.3805,-3.74201,1014.5
45278,0.129125,9.77044,1.04256,0.21,0.42,-0.21,26.1259,-41.1072,-2.79214,1014.5
45284,0.105213,9.78957,1.04256,0.49,0,0,26.4983,-42.2069,-2.73543,1014.48
45290,0.095648,9.78001,1.04256,0.35,-0.42,0.07,26.1545,-42.3805,-2.62202,1014.48
45296,0.129125,9.8087,1.00909,0.07,-0.14,-0.07,25.5529,-41.7149,-3.61442,1014.52
45302,0.124342,9.77523,1.04256,0.28,-0.42,0,26.1259,-41.223,-3.34505,1014.52
45308,0.0765184,9.78001,1.05691,17.64,0.21,0.14,26.441,-42.5542,-3.04733,1014.5
45314,0.0813008,9.8087,1.02822,-0.35,-0.14,0.28,26.2118,-41.9754,-3.27417,1014.5
45320,0.105213,9.78001,1.033,-0.14,0.14,-0.21,26.5269,-41.686,-3.82707,1014.52
45326,0.124342,9.7561,1.04735,0.35,0.35,0.21,26.1545,-42.3805,-2.89138,1014.52
45332,0.109995,9.7561,1.06648,0,0.07,0.07,26.1832,-42.7278,-3.57189,1014.55
45338,0.114778,9.78001,1.07604,0,0.14,0.21,26.0399,-40.9047,-3.04733,1014.55
45344,0.114778,9.78957,1.033,0.28,-0.35,-0.07,26.5269,-42.3516,-1.77139,1014.56
45350,0.11956,9.75131,1.05691,0.14,0.07,-0.21,25.3238,-42.9883,-3.08986,1014.56
45356,0.133907,9.70349,1.09039,0.35,-0.07,0.14,25.868,-41.8886,-3.51518,1014.5
45362,0.157819,9.74653,1.09039,0,0.07,-0.14,25.2951,-41.9175,-4.46505,1014.5
45368,0.13869,9.72262,1.0856,1.05,-0.14,-0.07,25.2951,-43.2198,-3.58606,1014.5
45374,0.109995,9.73697,1.0856,0.91,0.07,-0.42,25.1805,-41.6571,-3.74201,1014.5
45380,0.0908656,9.76566,1.08082,1.12,-0.07,-0.56,25.467,-41.8018,-3.91214,1014.5
45386,0.114778,9.76088,1.05213,0.98,0.35,-0.35,25.6675,-42.5831,-2.84885,1014.56
45392,0.133907,9.82305,1.02822,0.35,0.35,-0.49,24.7795,-43.3355,-3.37341,1014.56
45398,0.095648,9.81349,1.02343,0.7,-0.14,-0.7,26.2691,-41.3098,-3.38758,1014.53
45404,0.0765184,9.8087,1.02822,0.35,0.14,-0.42,26.1259,-42.5252,-3.8129,1014.53
45410,0.105213,9.78001,1.02822,0.7,-0.21,-0.28,25.9826,-42.9883,-2.6929,1014.51
45416,0.143472,9.75131,1.08082,0.14,-0.21,-0.35,26.3837,-41.6281,-3.64277,1014.51
45422,0.105213,9.78001,1.05691,0.63,-0.35,-0.7,25.6675,-41.4834,-3.52935,1014.52
45428,0.109995,9.7561,1.06648,1.12,-0.14,-0.35,25.8108,-43.2776,-2.11164,1014.52
45434,0.0765184,9.76566,1.08082,0.7,-0.56,-0.56,25.9826,-41.7728,-3.60024,1014.53
45440,0.0813008,9.84218,1.04256,0.49,-0.56,-0.35,26.3264,-41.2809,-3.71366,1014.53
45446,0.11956,9.82305,1.02822,0.28,-0.28,-0.56,25.9826,-42.5831,-4.03973,1014.53
45452,0.095648,9.79436,1.05691,0.56,-0.28,-0.49,25.868,-42.5831,-3.08986,1014.54
45458,0.105213,9.78479,1.06169,0.91,-0.14,-0.07,25.6675,-41.9175,-3.33087,1014.54
45464,0.114778,9.83261,1.01387,0.28,0,-0.21,25.7248,-42.2648,-3.11822,1014.51
45470,0.10043,9.81827,1.01387,0.35,0,0,25.7248,-42.7567,-1.79974,1014.51
45476,0.11956,9.7561,1.05213,0.07,0.35,-0.28,25.8108,-41.8018,-3.27417,1014.49
45482,0.133907,9.75131,1.06169,0.21,0.07,-0.56,26.6415,-41.3966,-4.33745,1014.49
45488,0.13869,9.74175,1.07604,0.42,-0.14,-0.07,25.4097,-42.8146,-3.20328,1014.49
45494,0.10043,9.75131,1.09039,0.28,-0.07,-0.63,25.3524,-41.5992,-2.29594,1014.49
45500,0.114778,9.77523,1.06648,-0.28,-0.56,-0.63,25.2665,-41.6571,-3.67113,1014.48
45506,0.109995,9.73697,1.06648,0.91,-0.07,-0.21,25.3811,-42.6989,-3.16075,1014.48
45512,0.11956,9.74653,1.06169,0.7,-0.42,-0.77,25.3811,-42.7278,-3.14657,1014.51
45518,0.10043,9.77523,1.06648,0.56,0.14,-0.63,25.467,-41.7439,-4.1815,1014.51
45524,0.124342,9.77044,1.05213,0.7,0.14,-0.07,25.6389,-41.8596,-3.23163,1014.53
45530,0.153037,9.7274,1.05691,0.77,0.07,-0.77,25.5243,-42.9014,-3.45847,1014.53
45536,0.0908656,9.79436,1.06169,0.35,0.21,-0.63,25.3811,-41.8886,-3.37341,1014.53
45542,0.095648,9.78957,0.999522,1.05,-0.14,-0.56,26.2118,-41.9754,-2.96227,1014.51
45548,0.0813008,9.79436,1.02343,0.35,0,-0.35,25.8108,-42.612,-3.01898,1014.51
45554,0.0573888,9.86131,0.999522,0.07,-0.28,-0.21,25.6389,-42.2648,-4.16733,1014.49
45560,0.0669536,9.81827,1.01865,0.35,-17.64,0.07,25.4383,-41.7728,-5.11719,1014.49
45566,0.114778,9.8087,1.00909,-0.14,-0.42,-0.28,25.7248,-43.104,-2.42354,1014.5
45572,0.0669536,9.80392,1.02343,0,-0.14,0,25.8108,-42.178,-4.20986,1014.5
45578,0.109995,9.82783,1.00909,0.14,17.29,0.07,25.6102,-41.3966,-3.85543,1014.5
45584,0.157819,9.78001,1.05691,0.28,0.07,0.07,25.8394,-42.641,-3.03315,1014.5
45590,0.13869,9.76566,1.07126,-0.35,0.49,-0.28,25.4956,-42.2937,-3.23163,1014.52
45596,0.11956,9.74653,1.07604,0.42,0.07,0.21,25.954,-41.5702,-3.54353,1014.52
45602,0.109995,9.74175,1.07126,0.21,0.35,-0.35,25.2092,-41.9175,-4.1815,1014.49
45608,0.109995,9.73218,1.07604,-0.28,-0.07,-0.14,25.9253,-42.9014,-3.30252,1014.49
45614,0.133907,9.74175,1.10952,1.68,-17.92,0.07,26.0972,-42.2937,-3.71366,1014.49
45620,0.148254,9.74175,1.09039,0.84,-0.42,-0.84,26.0399,-41.3677,-3.08986,1014.52
45626,0.095648,9.77523,1.06648,0.35,-0.28,-0.63,25.9253,-42.5831,-3.37341,1014.52
45632,0.114778,9.77523,1.04256,1.05,17.43,-0.56,25.954,-42.6989,-4.01138,1014.5
45638,0.109995,9.78957,1.04256,0.7,-0.14,-0.98,25.9253,-41.2519,-3.41594,1014.5
45644,0.124342,9.82305,0.994739,0.49,0.35,-0.21,25.3524,-41.5702,-3.84125,1014.52
45650,0.095648,9.82783,0.994739,0.84,-0.21,-0.21,25.954,-42.2937,-3.01898,1014.52
45656,0.0765184,9.85653,0.989957,-0.14,0,-0.42,25.7248,-41.4545,-3.61442,1014.51
45662,0.095648,9.81349,1.02343,0.28,-0.28,0,25.3238,-41.3966,-3.86961,1014.51
45668,0.0621712,9.81349,1.02822,0.56,-0.49,-0.21,25.2665,-41.9175,-3.48682,1014.51
45674,0.10043,9.78001,1.03778,-0.07,-0.28,0.14,25.8394,-42.0622,-3.67113,1014.51
45680,0.0908656,9.75131,1.01865,-0.14,0.35,-0.07,25.2092,-41.3098,-3.85543,1014.53
45686,0.0765184,9.77523,1.08082,0.35,-0.21,-0.14,25.2665,-42.178,-3.94049,1014.53
45692,0.10043,9.7561,1.07126,0.56,-0.21,-0.07,25.3238,-41.2809,-3.07569,1014.54
45698,0.153037,9.75131,1.08082,0.49,0,-0.07,25.7535,-40.7889,-4.59264,1014.54
45704,0.129125,9.78479,1.09039,0.77,-0.28,0,25.3811,-41.7439,-3.30252,1014.54
45710,0.0765184,9.7561,1.05691,0.7,0,0.07,25.4956,-42.9593,-2.28177,1014.52
45716,0.105213,9.78479,1.04256,0.77,-0.07,-0.07,25.6675,-41.1362,-3.86961,1014.52
45722,0.11956,9.77044,1.06169,0.49,0,0,25.3524,-41.5413,-3.35923,1014.53
45728,0.162602,9.79914,1.00909,0.56,0.07,-0.14,25.1232,-42.2069,-2.97645,1014.53
45734,0.124342,9.78957,1.04735,0.42,-0.35,-0.35,25.8967,-41.2809,-3.69948,1014.51
45740,0.0860832,9.76566,1.03778,0.77,-0.07,-0.21,25.7248,-41.3387,-3.28834,1014.51
45746,0.10043,9.79436,1.033,0.42,-0.49,0.35,25.3238,-42.178,-2.8205,1014.51
45752,0.105213,9.82305,1.00909,0.35,0.07,-0.07,25.0946,-43.0461,-3.94049,1014.51
45758,0.114778,9.8087,0.994739,0.28,0,-0.42,25.4383,-41.3387,-3.86961,1014.49
45764,0.109995,9.76566,1.04256,0.07,0.07,-0.42,25.4097,-42.3805,-3.38758,1014.49
45770,0.10043,9.73697,1.04735,0.21,-0.07,-0.14,25.2378,-42.2937,-2.35265,1014.5
45776,0.095648,9.76566,1.033,0.49,-0.56,17.5,25.3524,-40.8178,-3.23163,1014.5
45782,0.0813008,9.80392,1.01387,0.28,0,-0.14,25.7248,-40.9336,-3.92631,1014.5
45788,0.0860832,9.81349,1.033,-0.07,0.14,0,25.6389,-42.2069,-2.38101,1014.54
45794,0.0860832,9.78957,1.07126,0.35,-0.14,-17.78,25.868,-41.4545,-2.74961,1014.54
45800,0.10043,9.77044,1.06169,0.77,0.07,0,24.3211,-41.8018,-3.88378,1014.49
45806,0.0860832,9.79914,1.07126,0.7,0.14,0.14,25.9826,-42.0043,-2.72126,1014.49
45812,0.109995,9.74653,1.06169,0.49,0.28,17.78,25.4956,-42.4674,-2.59366,1014.5
45818,0.124342,9.76088,1.06648,0.56,-0.07,-0.14,24.7795,-41.4545,-2.76379,1014.5
45824,0.13869,9.77523,1.06169,0.49,-0.28,-0.07,25.2092,-41.8886,-2.89138,1014.49
45830,0.114778,9.74653,1.05213,0.63,0.28,0.07,25.2092,-42.7278,-2.21088,1014.49
45836,0.13869,9.7561,1.05691,0.42,-0.07,0,25.1805,-41.4256,-3.88378,1014.53
45842,0.124342,9.7561,1.04256,0.49,-0.14,-0.14,26.0686,-41.1651,-3.501,1014.53
45848,0.0908656,9.78479,1.06169,0,-0.07,-0.28,25.5243,-41.8018,-3.17493,1014.53
45854,0.105213,9.76566,1.04735,0.49,0.28,-0.14,25.1232,-41.2809,-3.43011,1014.53
45860,0.0908656,9.78957,1.02343,0.56,0.42,-0.14,25.3524,-40.5285,-3.45847,1014.52
45866,0.105213,9.82305,1.0043,0.35,0.21,-0.49,25.7248,-42.5831,-3.54353,1014.52
45872,0.0621712,9.79914,1.033,0.56,0.07,0,25.2378,-42.0043,-3.10404,1014.52
45878,0.0860832,9.81349,1.01865,0.56,-0.42,0.07,26.5842,-41.3098,-3.84125,1014.49
45884,0.109995,9.76566,1.04735,0.21,-0.07,-17.78,25.868,-41.5702,-3.13239,1014.49
45890,0.105213,9.77044,1.06648,0.63,-0.07,0.21,26.355,-42.612,-3.16075,1014.55
45896,0.105213,9.78001,1.05691,0.14,-0.14,-0.07,25.3524,-41.4256,-3.501,1014.55
45902,0.124342,9.78001,1.05691,0.14,-0.42,0.14,26.355,-40.76,-4.03973,1014.49
45908,0.114778,9.73697,1.02343,0.42,0,-0.07,25.6102,-42.0622,-2.87721,1014.49
45914,0.129125,9.78001,1.03778,0.49,-0.07,-0.07,24.3211,-42.178,-3.60024,1014.47
45920,0.109995,9.78001,1.04735,0.42,-0.28,-0.14,26.3264,-41.1651,-4.03973,1014.47
45926,0.114778,9.75131,1.04735,0.7,0,0.21,24.98,-41.9175,-3.25999,1014.52
45932,0.13869,9.77523,1.06169,0.84,0,-0.49,25.6389,-41.5413,-2.90556,1014.52
45938,0.105213,9.7561,1.06648,0.28,-0.28,0.21,25.0373,-40.8757,-3.30252,1014.49
45944,0.13869,9.76088,1.033,0.21,-0.21,0.07,24.9514,-41.5124,-2.94809,1014.49
45950,0.124342,9.81827,1.02343,0.56,-0.28,-0.42,26.2118,-42.0043,-2.80632,1014.49
45956,0.105213,9.79914,1.04256,0.56,-0.14,0.07,24.8081,-41.1362,-3.40176,1014.5
45962,0.0813008,9.78957,1.08082,0.35,-0.14,-0.35,25.1232,-41.194,-3.06151,1014.5
45968,0.109995,9.7561,1.04256,0.07,0.35,-0.49,24.98,-41.8886,-2.66455,1014.51
45974,0.109995,9.74653,1.06169,0.91,-0.14,0,25.5816,-41.1651,-3.25999,1014.51
45980,0.11956,9.75131,1.04256,0.7,-0.07,-0.07,26.0399,-41.3966,-3.51518,1014.49
45986,0.0908656,9.79436,1.06169,0.28,-0.14,-0.14,25.3238,-41.7439,-2.79214,1014.49
45992,0.109995,9.76088,1.02822,0.7,-0.07,-0.21,25.2951,-41.4545,-3.52935,1014.52
45998,0.10043,9.78479,1.04256,0.28,0,-0.42,25.7248,-40.8757,-3.98302,1014.52
46004,0.095648,9.81349,1.05691,0,-0.14,-0.21,25.7248,-41.3677,-3.79872,1014.52
46010,0.095648,9.81349,1.00909,0.21,-0.07,0.21,25.5243,-42.0333,-3.08986,1014.52
46016,0.109995,9.79914,1.01387,-0.28,0.28,-0.28,25.9826,-41.1651,-3.6853,1014.52
46022,0.133907,9.78479,1.06169,-0.14,0.07,0.07,25.8394,-41.1072,-3.27417,1014.52
46028,0.129125,9.74653,1.06648,0.49,0.21,-0.21,25.7248,-41.9754,-2.97645,1014.52
46034,0.10043,9.76088,1.08082,0.28,-0.21,-0.56,25.6389,-41.9465,-3.41594,1014.49
46040,0.11956,9.76088,1.04735,0.42,-0.28,-0.35,25.3524,-41.5702,-3.8129,1014.49
46046,0.114778,9.77523,1.00909,0.35,-0.21,-0.28,25.5243,-42.8146,-3.25999,1014.49
46052,0.0813008,9.77523,1.03778,0.63,0,-0.35,25.2951,-42.0622,-3.8129,1014.49
46058,0.095648,9.78001,1.02343,0.14,0.21,-0.21,25.6962,-41.1072,-3.6853,1014.51
46064,0.105213,9.78001,1.04735,0.56,-0.14,-0.28,26.6702,-41.8596,-3.89796,1014.51
46070,0.095648,9.78957,1.07126,0.21,0.07,-0.28,26.0399,-42.3227,-3.21746,1014.5
46076,0.0813008,9.79436,1.04735,0,0.28,0,26.2691,-41.8886,-4.35163,1014.5
46082,0.071736,9.81827,1.05691,0.56,-0.35,-0.21,26.1259,-41.2519,-3.25999,1014.5
46088,0.0908656,9.79436,1.033,0.21,-0.14,-0.07,25.6389,-42.8725,-3.57189,1014.5
46094,0.114778,9.78479,1.01865,0.14,0.42,0.07,25.8108,-41.686,-3.47265,1014.5
46100,0.114778,9.80392,1.01865,0.28,0.07,-0.14,26.4123,-40.8757,-3.37341,1014.5
46106,0.0765184,9.82305,1.033,0.14,0.07,-0.07,25.3238,-41.8886,-4.15315,1014.5
46112,0.10043,9.81349,1.00909,0,0.42,0.35,25.0659,-41.8596,-3.11822,1014.5
46118,0.0669536,9.79914,1.02822,0.21,0.7,0.35,25.3238,-40.76,-4.11062,1014.5
46124,0.095648,9.77523,1.05691,-0.49,-0.14,0.14,26.2118,-42.2648,-3.25999,1014.53
46130,0.109995,9.73218,1.0856,-0.21,-0.28,0.42,24.98,-41.9754,-3.07569,1014.53
46136,0.143472,9.76088,1.09517,0,0.14,-0.07,25.6675,-41.2519,-2.77797,1014.5
46142,0.13869,9.74653,1.07126,0.14,-0.49,-0.21,25.4956,-41.5413,-3.45847,1014.5
46148,0.148254,9.74175,1.04735,0.42,0,0.42,25.6102,-42.6989,-3.51518,1014.52
46154,0.114778,9.77044,1.05213,0.28,-0.07,-0.14,25.2665,-41.2519,-2.70708,1014.52
46160,0.0621712,9.80392,1.02822,0.14,0,0.14,25.3238,-41.0493,-3.24581,1014.52
46166,0.105213,9.8087,1.03778,0.07,0.14,0.56,25.5816,-42.3227,-2.87721,1014.52
46172,0.143472,9.78957,1.02822,-0.07,0.14,0,26.0113,-41.8596,-3.3167,1014.51
46178,0.133907,9.80392,1.07126,-0.28,0.7,0.21,25.2951,-41.1362,-2.87721,1014.51
46184,0.11956,9.7561,1.08082,-0.42,0,0.49,25.3524,-42.1201,-3.57189,1014.51
46190,0.133907,9.75131,1.08082,0.28,0.42,0,25.7535,-42.5831,-2.5086,1014.51
46196,0.10043,9.76088,1.04735,0,0,0,25.3238,-41.194,-3.501,1014.51
46202,0.124342,9.82783,1.04256,0.35,-0.42,0.42,25.8394,-41.8307,-3.10404,1014.51
46208,0.129125,9.78479,1.01865,0.14,0.14,-0.14,24.9227,-42.3805,-3.37341,1014.51
46214,0.11956,9.75131,1.06648,-0.14,-0.42,-0.07,25.2951,-42.0333,-2.99062,1014.54
46220,0.114778,9.78001,1.06648,0.21,-0.14,0.49,25.467,-41.1362,-3.27417,1014.54
46226,0.13869,9.77044,1.09039,0.7,-0.56,-0.14,25.5816,-42.6989,-2.70708,1014.51
46232,0.133907,9.74175,1.09517,0.42,-0.28,-0.21,25.6962,-42.0333,-4.02555,1014.51
46238,0.124342,9.7561,1.09039,0.07,0.35,-0.35,26.2691,-41.6281,-4.55011,1014.52
46244,0.153037,9.76088,1.08082,0.49,-0.14,-0.07,25.2951,-41.8596,-4.13897,1014.52
46250,0.129125,9.74653,1.04256,0.7,0.14,-0.21,25.6675,-42.5542,-2.8205,1014.5
46256,0.105213,9.78479,1.04256,0.42,0.28,-0.28,25.5529,-40.9336,-3.01898,1014.5
46262,0.0908656,9.8087,1.03778,0.14,0.28,-0.21,26.2405,-41.8307,-2.57949,1014.53
46268,0.071736,9.78957,1.033,0.49,0,0,25.2092,-42.2358,-2.99062,1014.53
46274,0.11956,9.79436,1.06648,0.35,0.21,0.07,25.7821,-41.8018,-3.23163,1014.47
46280,0.0860832,9.81827,1.033,0.07,0.14,0.21,24.6362,-40.9336,-4.3091,1014.47
46286,0.0860832,9.80392,1.033,0.07,0.35,0.14,25.2092,-42.3516,-2.6929,1014.47
46292,0.047824,9.73697,1.15256,0.14,-0.14,-0.07,25.5529,-42.0622,-3.64277,1014.49
46298,0.10043,9.74653,1.10952,0.63,-0.21,0,25.3238,-40.731,-4.28074,1014.49
46304,0.0908656,9.79914,1.07604,0.49,0.21,0.14,25.1519,-42.0333,-3.77037,1014.49
46310,0.114778,9.79914,1.04256,0.7,0.35,-0.07,24.6076,-42.2937,-3.48682,1014.49
46316,0.0765184,9.78957,1.06648,-0.07,0.28,0.21,24.98,-41.3098,-3.77037,1014.54
46322,0.153037,9.75131,1.08082,0.49,-0.07,-0.14,25.7535,-41.6571,-3.40176,1014.54
46328,0.11956,9.79914,1.02343,0.49,0,0.07,25.1519,-42.2069,-3.57189,1014.49
46334,0.0908656,9.8087,1.04735,0.14,-0.07,0,25.0946,-41.1362,-2.66455,1014.49
46340,0.10043,9.77523,1.02343,0.07,-0.28,0,25.2092,-40.9625,-4.1815,1014.5
46346,0.109995,9.75131,1.09039,0.42,-0.21,-0.07,25.1232,-42.2069,-3.3167,1014.5
46352,0.105213,9.77523,1.02822,-0.07,-0.35,-0.07,25.5243,-41.8018,-2.94809,1014.51
46358,0.148254,9.78479,1.05213,0.35,-0.07,0.14,25.4956,-40.4416,-3.78454,1014.51
46364,0.0908656,9.76088,1.04256,0.63,0.07,0.07,25.3811,-42.0911,-2.76379,1014.51
46370,0.10043,9.77044,1.07126,-0.28,0.21,-0.35,25.8967,-42.0622,-3.16075,1014.52
46376,0.143472,9.72262,1.06648,-0.07,0.14,-0.14,25.1232,-41.223,-4.23821,1014.52
46382,0.129125,9.73697,1.09039,0.7,-0.42,0.14,25.3811,-41.7149,-3.71366,1014.5
46388,0.148254,9.74653,1.10952,0,-0.42,-0.56,25.5243,-43.104,-3.17493,1014.5
46394,0.114778,9.76088,1.05213,0.63,-0.14,-0.14,25.0659,-42.2358,-3.8129,1014.5
46400,0.124342,9.78957,1.09517,0.84,-0.35,-0.14,25.6962,-41.1362,-3.91214,1014.5
46406,0.0669536,9.82783,1.04735,0.35,0.07,-0.07,25.5529,-42.4963,-3.28834,1014.54
46412,0.095648,9.82783,1.03778,0.42,-0.49,0.14,25.5816,-42.9883,-3.06151,1014.54
46418,0.10043,9.78957,1.06169,0.07,-0.21,0.07,25.2378,-40.9336,-4.22403,1014.51
46424,0.153037,9.7561,1.05691,0.28,-0.35,-0.14,25.4383,-41.9175,-3.14657,1014.51
46430,0.114778,9.79914,1.06648,-0.14,-0.07,-0.14,25.2665,-42.4674,-3.04733,1014.48
46436,0.124342,9.78479,1.05691,-0.07,-0.07,0,25.3238,-41.0493,-3.65695,1014.48
46442,0.176949,9.75131,1.09039,0.42,-0.07,-0.42,25.9253,-41.3098,-4.69188,1014.49
46448,0.129125,9.74653,1.0856,0.07,0.21,0,24.9514,-43.0461,-3.07569,1014.49
46454,0.148254,9.76566,1.08082,0.14,-0.07,-0.28,25.0659,-41.7439,-3.28834,1014.49
46460,0.124342,9.79436,1.04256,0.42,-0.35,-0.35,25.6675,-41.0493,-3.17493,1014.49
46466,0.124342,9.75131,1.07604,0.35,-0.07,-0.42,25.6962,-42.641,-3.54353,1014.49
46472,0.114778,9.76088,1.07126,0.21,0.35,-0.07,25.8108,-41.223,-4.37998,1014.5
46478,0.109995,9.81349,1.033,0.63,0.42,-0.35,25.8394,-41.223,-4.96125,1014.5
46484,0.10043,9.78001,1.05691,0.35,-0.21,-0.56,25.467,-41.9465,-3.37341,1014.48
46490,0.114778,9.78001,1.05213,0.21,0.07,-0.07,25.4097,-42.0911,-4.26657,1014.48
46496,0.095648,9.81349,1.03778,0.56,-0.35,-0.42,24.8941,-40.9915,-3.98302,1014.51
46502,0.129125,9.77044,1.04735,0.35,-0.07,-0.21,26.0113,-41.686,-2.80632,1014.51
46508,0.109995,9.73218,1.06648,0.49,0.35,0,25.6675,-42.178,-3.34505,1014.45
46514,0.109995,9.71784,1.07604,0.35,0.14,-0.77,26.0113,-40.5574,-3.62859,1014.45
46520,0.071736,9.78479,1.07126,0.77,0.14,-0.14,25.4956,-40.2101,-4.1815,1014.49
46526,0.095648,9.85653,1.0043,0.42,0.21,-0.14,25.4383,-42.641,-2.86303,1014.49
46532,0.0860832,9.78479,1.033,0.63,-0.07,0.14,25.0659,-41.8886,-3.03315,1014.49
46538,0.129125,9.77523,1.04735,0.63,0,-0.28,25.7821,-41.0204,-4.35163,1014.52
46544,0.0813008,9.8087,1.02343,-0.14,0.21,0,25.1805,-42.6699,-3.07569,1014.52
46550,0.0813008,9.84218,1.04256,0.56,0.07,0.21,25.7248,-42.5831,-3.25999,1014.49
46556,0.11956,9.78957,1.05213,0.35,0.07,-0.07,25.7248,-41.1072,-4.36581,1014.49
46562,0.129125,9.73218,1.09995,0.28,-0.07,0.07,24.9514,-41.686,-3.69948,1014.52
46568,0.157819,9.78001,1.06648,0.56,0.35,0.21,25.7535,-42.149,-4.12479,1014.52
46574,0.124342,9.77044,1.0856,0.21,0.21,-0.28,25.6962,-41.7439,-3.77037,1014.5
46580,0.148254,9.76566,1.04256,0.56,-0.21,-0.21,25.7821,-41.5124,-3.65695,1014.5
46586,0.133907,9.78957,1.04256,0.28,0.42,0,25.5243,-42.2358,-3.61442,1014.54
46592,0.133907,9.78001,1.06169,0.28,-0.14,-0.49,24.98,-41.7439,-3.07569,1014.54
46598,0.148254,9.77044,1.05213,0.14,-0.35,-0.28,25.467,-41.5124,-3.10404,1014.51
46604,0.129125,9.74175,1.0856,0.56,0,0.14,25.6389,-42.5831,-3.65695,1014.51
46610,0.109995,9.71305,1.0856,0.35,-0.56,-0.35,25.467,-42.0043,-3.3167,1014.54
46616,0.133907,9.7561,1.06169,0.35,-0.21,-0.56,24.8081,-41.223,-4.05391,1014.54
46622,0.105213,9.78957,1.03778,0.21,-0.28,-0.14,25.2665,-41.6281,-3.3167,1014.54
46628,0.105213,9.78479,1.05691,0.21,-0.28,-0.42,25.4097,-42.4095,-3.58606,1014.5
46634,0.10043,9.79436,1.07604,0.21,-0.14,0.07,25.3811,-41.4545,-4.3091,1014.5
46640,0.0813008,9.73697,1.10473,0.28,-0.49,-0.28,25.1232,-41.5702,-3.64277,1014.48
46646,0.0765184,9.79436,1.05691,0.21,-0.35,-0.21,25.4097,-42.8725,-4.32327,1014.48
46652,0.071736,9.82783,1.02822,0.35,-0.49,-0.14,25.467,-42.4095,-3.44429,1014.51
46658,0.114778,9.77523,1.0856,0.21,-0.49,-0.28,25.1519,-41.2809,-3.3167,1014.51
46664,0.124342,9.76566,1.07604,0.49,-0.42,0.14,24.7508,-41.7439,-3.85543,1014.48
46670,0.148254,9.78001,1.06648,0.14,0.07,0.21,25.2665,-41.8596,-3.45847,1014.48
46676,0.0908656,9.81349,1.05213,0.14,-0.21,-0.28,25.3811,-41.1362,-3.91214,1014.49
46682,0.105213,9.78001,1.03778,0.35,-0.07,-0.21,25.3811,-41.6281,-3.72783,1014.49
46688,0.153037,9.78001,1.06169,0.42,0.28,0,25.1232,-42.8725,-3.52935,1014.51
46694,0.109995,9.76088,1.07604,0.42,0.07,0,25.0659,-41.686,-4.59264,1014.51
46700,0.129125,9.78001,1.05213,0.35,0.07,-0.07,25.868,-41.0493,-3.98302,1014.51
46706,0.11956,9.77523,1.07126,-0.07,-0.14,-0.28,25.6102,-42.7278,-3.74201,1014.5
46712,0.0908656,9.78001,1.0856,0.7,0.49,-0.07,25.2951,-41.5702,-4.01138,1014.5
46718,0.133907,9.78957,1.04256,0.35,0.49,-0.14,25.0946,-41.2519,-4.32327,1014.5
46724,0.11956,9.78957,1.033,0.21,-0.56,-0.14,25.3524,-41.7149,-3.91214,1014.5
46730,0.105213,9.80392,1.03778,0.49,0.07,0.14,24.6649,-42.178,-4.03973,1014.48
46736,0.0765184,9.78957,1.05691,0.49,-0.42,-0.35,26.1259,-40.8468,-3.86961,1014.48
46742,0.114778,9.77044,1.07126,0.42,-0.21,-0.14,25.8394,-41.3966,-4.20986,1014.49
46748,0.148254,9.7561,1.07126,0.42,-0.63,0,24.9514,-42.3516,-3.84125,1014.49
46754,0.11956,9.76566,1.07126,0.42,-0.07,0.14,25.6962,-41.3677,-3.58606,1014.5
46760,0.0669536,9.78479,1.06648,0.14,0.63,0.14,26.2977,-41.223,-4.01138,1014.5
46766,0.11956,9.78957,1.02343,0.77,0,0.14,25.2092,-43.0172,-3.78454,1014.5
46772,0.11956,9.78001,1.05691,0.49,0.14,0.07,25.8108,-42.5252,-3.88378,1014.5
46778,0.114778,9.77044,1.06648,0.49,-0.42,0.14,25.8108,-40.5574,-4.13897,1014.5
46784,0.143472,9.78001,1.09039,0.21,0.14,0,25.3524,-41.9465,-4.26657,1014.5
46790,0.129125,9.76088,1.08082,0.21,-0.42,-0.28,25.5529,-42.2648,-4.06809,1014.5
46796,0.162602,9.76088,1.08082,0.56,-0.07,0,25.4383,-41.1651,-5.15973,1014.51
46802,0.129125,9.72262,1.09039,0.49,0,0,25.7535,-41.3677,-4.4934,1014.51
46808,0.114778,9.76088,1.0856,0.42,-0.21,-0.42,26.0113,-43.2487,-4.20986,1014.51
46814,0.11956,9.7561,1.0856,0.49,0,-0.42,25.3811,-41.3098,-4.12479,1014.51
46820,0.0813008,9.77523,1.08082,0,0.21,-0.14,25.3811,-41.686,-3.77037,1014.53
46826,0.071736,9.78001,1.03778,0.21,0,0,25.2951,-42.4963,-4.89036,1014.53
46832,0.11956,9.79914,1.02343,0.21,-0.35,-0.07,25.3811,-42.2069,-4.32327,1014.5
46838,0.105213,9.79914,1.05213,0.21,-0.14,-0.35,25.1232,-41.3098,-4.22403,1014.5
46844,0.105213,9.80392,1.05691,0.35,-0.07,0,25.2665,-41.8596,-3.34505,1014.52
46850,0.0430416,9.81349,1.04735,0.14,0.14,0.07,25.4097,-42.178,-3.28834,1014.52
46856,0.0860832,9.8087,1.033,0.21,-0.21,0,26.0972,-41.686,-3.41594,1014.54
46862,0.143472,9.77044,1.07604,0.28,-0.07,0.49,25.5816,-41.8018,-3.14657,1014.54
46868,0.153037,9.75131,1.09995,0.42,-0.35,0.07,25.7248,-42.2358,-3.92631,1014.54
46874,0.11956,9.76566,1.06169,0.14,-0.14,-0.21,25.7821,-41.9754,-3.28834,1014.52
46880,0.129125,9.77044,1.05691,0.28,-0.42,0.21,25.6962,-41.6571,-4.28074,1014.52
46886,0.148254,9.76566,1.07604,0.49,-0.14,0.35,25.4956,-42.7278,-4.35163,1014.52
46892,0.13869,9.77523,1.09039,0.56,-0.21,-0.14,25.6102,-42.0911,-4.63517,1014.52
46898,0.143472,9.76566,1.04256,0.07,-0.21,-0.07,26.0972,-40.9336,-4.13897,1014.5
46904,0.109995,9.74653,1.06648,-0.07,0,0.07,25.5816,-41.8018,-3.9972,1014.5
46910,0.124342,9.78001,1.0856,0.49,0.14,-0.42,26.4123,-42.2648,-3.40176,1014.51
46916,0.129125,9.78479,1.06648,-0.07,-0.21,-0.28,25.9253,-41.2809,-4.70606,1014.51
46922,0.13869,9.78001,1.05213,0.42,0.28,0.14,26.0972,-41.6281,-3.75619,1014.5
46928,0.124342,9.75131,1.07604,-0.14,-0.49,-0.42,25.0373,-42.6989,-3.67113,1014.5
46934,0.124342,9.74653,1.08082,0.14,0.14,-0.28,25.6962,-42.4963,-4.36581,1014.51
46940,0.105213,9.79436,1.08082,0.42,0.56,0.07,26.4696,-41.8307,-3.94049,1014.51
46946,0.129125,9.76088,1.04256,0.14,0.35,-0.07,25.5529,-42.4963,-2.94809,1014.51
46952,0.11956,9.76566,1.08082,0.21,0.07,-0.14,25.0946,-42.4384,-3.58606,1014.53
46958,0.0908656,9.76566,1.09995,1.05,0,-0.14,26.4696,-41.1651,-3.79872,1014.53
46964,0.095648,9.78479,1.0856,0.07,-0.21,-0.21,25.5816,-42.5542,-3.6853,1014.52
46970,0.114778,9.79914,1.05691,0.42,0.14,0.21,25.4956,-41.9754,-3.85543,1014.52
46976,0.11956,9.81349,1.03778,0.21,0.07,0,25.8108,-41.7728,-4.40834,1014.5
46982,0.153037,9.76566,1.09517,0.28,0.28,-0.14,26.2118,-41.5992,-4.01138,1014.5
46988,0.114778,9.77523,1.06169,0.56,-0.21,0.35,25.0946,-42.0911,-3.08986,1014.48
46994,0.071736,9.81827,1.05691,0.56,-0.07,0.21,25.868,-41.2809,-4.53593,1014.48
47000,0.105213,9.80392,1.04256,0.21,-0.07,0.28,25.4956,-41.3966,-3.6853,1014.52
47006,0.157819,9.73697,1.07604,0.42,-0.21,0.07,25.2665,-42.8146,-4.32327,1014.52
47012,0.109995,9.76566,1.08082,0.35,0.35,0,25.0946,-42.0043,-3.86961,1014.52
47018,0.133907,9.7274,1.08082,0.42,0.63,0.14,26.2691,-41.0783,-4.09644,1014.52
47024,0.11956,9.7561,1.09517,0.56,0.28,0.14,25.2951,-42.2648,-4.16733,1014.52
47030,0.105213,9.78001,1.06169,-0.14,-0.35,-0.28,24.5217,-42.0911,-3.82707,1014.52
47036,0.148254,9.77523,1.06169,0.56,0.07,0.07,25.868,-41.0783,-3.91214,1014.52
47042,0.157819,9.75131,1.05691,0.42,-0.21,-0.35,25.2092,-41.6281,-3.85543,1014.5
47048,0.124342,9.7561,1.0856,0.42,0.07,-0.56,24.98,-41.5124,-3.77037,1014.5
47054,0.157819,9.79914,1.05691,0.84,-0.42,0,25.9253,-41.2809,-5.13137,1014.53
47060,0.109995,9.8087,1.04735,0.56,0,-0.49,25.868,-41.0783,-4.03973,1014.53
47066,0.0765184,9.84218,1.02343,0.42,-0.07,-0.35,25.1519,-42.0911,-3.98302,1014.54
47072,0.071736,9.85653,1.02822,-0.07,0.42,0.42,25.0086,-41.6281,-4.32327,1014.54
47078,0.109995,9.89,0.989957,0,0.7,0.28,25.5529,-41.0783,-3.77037,1014.5
47084,0.114778,9.83261,1.02343,-0.56,-0.42,0.21,25.8394,-42.5542,-4.74859,1014.5
47090,0.129125,9.7561,1.10952,0.21,0.14,0.28,24.579,-42.1201,-2.90556,1014.46
47096,0.143472,9.74175,1.09517,0.07,-0.35,0.14,25.3524,-40.731,-3.37341,1014.46
47102,0.13869,9.73697,1.10952,0.07,0.07,0.07,25.0946,-42.2069,-3.94049,1014.49
47108,0.148254,9.70827,1.11908,0.14,0,0,25.2665,-42.0911,-2.18253,1014.49
47114,0.162602,9.73218,1.1143,0.14,0.14,-0.49,25.8967,-41.1651,-4.20986,1014.49
47120,0.129125,9.7274,1.08082,0.14,0,-0.21,25.4956,-41.5124,-3.17493,1014.52
47126,0.143472,9.75131,1.07604,0.77,0.21,-0.35,25.4097,-43.0172,-3.08986,1014.52
47132,0.114778,9.73697,1.05691,0.77,-0.07,-0.49,24.9227,-42.8436,-4.64935,1014.5
47138,0.11956,9.76566,1.08082,0.28,-0.14,0,25.2092,-41.3098,-3.52935,1014.5
47144,0.124342,9.8087,1.05691,0.21,-0.35,-0.35,25.6962,-42.4963,-3.77037,1014.5
47150,0.114778,9.78479,1.05691,0.56,0,-0.07,25.4956,-42.4674,-3.38758,1014.5
47156,0.114778,9.79914,1.05691,0.91,0.14,-0.07,25.4097,-41.4256,-3.67113,1014.52
47162,0.11956,9.79436,1.05691,0.14,-0.07,-0.28,25.954,-41.4834,-3.04733,1014.52
47168,0.0860832,9.79914,1.05691,0.35,0.21,-0.28,24.5503,-42.2937,-3.24581,1014.51
47174,0.0669536,9.77044,1.07126,0.77,-0.21,0.35,25.6962,-41.223,-2.65037,1014.51
47180,0.071736,9.78957,1.05691,0.21,-0.21,-0.07,25.6389,-41.5702,-3.17493,1014.5
47186,0.176949,9.78001,1.06169,0.35,-0.28,0.07,25.8108,-42.2937,-4.08226,1014.5
47192,0.124342,9.75131,1.10473,0.28,-0.35,0.07,25.6102,-41.9754,-3.01898,1014.52
47198,0.0526064,9.7274,1.10473,0.35,-0.42,-0.21,25.2092,-41.6571,-4.6777,1014.52
47204,0.124342,9.75131,1.1143,0.7,-0.56,0.07,25.6102,-42.4384,-3.28834,1014.52
47210,0.124342,9.73697,1.09995,0.63,-0.28,0.21,25.7535,-43.3645,-2.77797,1014.51
47216,0.148254,9.76566,1.10952,0.98,-0.63,-0.35,25.6962,-41.7728,-3.57189,1014.51
47222,0.11956,9.76088,1.06169,0.77,0,0.14,26.0972,-41.6281,-3.64277,1014.52
47228,0.162602,9.89479,0.851267,0.63,0.84,0.14,25.5529,-42.5252,-3.21746,1014.52
47234,0.0286944,9.76088,1.16691,0.21,-0.63,-0.28,25.5816,-41.8307,-3.77037,1014.5
47240,0.325203,9.79914,1.03778,0.49,0.42,-0.07,25.954,-41.1362,-3.72783,1014.5
47246,0.0765184,9.70827,1.16212,1.26,-0.7,-0.35,25.6962,-42.4384,-3.17493,1014.5
47252,0.267814,9.82305,0.918221,0.77,0.07,-0.49,24.6649,-41.8018,-4.43669,1014.5
47258,0.095648,9.79436,1.02343,0.14,0.07,-0.28,26.1259,-41.4256,-3.88378,1014.49
47264,0.10043,9.75131,1.03778,0.56,-0.07,-0.35,25.4956,-41.9754,-3.24581,1014.49
47270,0.0860832,9.86609,0.994739,0.07,0.21,-0.35,25.5529,-42.8146,-2.8205,1014.54
47276,0.0860832,9.8087,1.05213,0,0,-0.07,25.6962,-41.8307,-3.71366,1014.54
47282,0.114778,9.84696,0.989957,-0.14,-0.28,0,25.954,-41.8596,-3.04733,1014.54
47288,0.0860832,9.77044,1.05691,0.07,-0.21,0.07,25.954,-42.4674,-3.52935,1014.48
47294,0.0765184,9.79914,1.05213,-0.28,-0.49,0.21,25.3524,-41.4834,-3.64277,1014.48
47300,0.0813008,9.7561,1.1143,0.56,-0.56,0.21,25.3811,-41.5702,-3.10404,1014.51
47306,0.133907,9.76566,1.09995,0.14,-0.21,-0.07,26.0972,-43.5092,-2.83467,1014.51
47312,0.133907,9.73697,1.0856,0.28,-0.7,-0.07,25.3811,-42.8436,-4.11062,1014.49
47318,0.153037,9.73697,1.09517,0.42,0,0.42,25.868,-41.194,-3.60024,1014.49
47324,0.0860832,9.77523,1.04735,0.21,-0.14,0,24.7508,-42.149,-3.38758,1014.52
47330,0.114778,9.82305,1.01865,0.42,-0.21,0.14,24.8368,-42.2937,-3.06151,1014.52
47336,0.148254,9.77044,0.989957,0.07,-0.35,0.42,24.9514,-41.9175,-4.57846,1014.52
47342,0.13869,9.76088,1.02822,-0.07,0,0.35,25.6962,-42.2648,-3.47265,1014.52
47348,0.124342,9.78957,1.05213,-0.07,0,0.35,25.3811,-42.7857,-3.64277,1014.53
47354,0.13869,9.78479,1.06169,0.21,0.07,0.21,25.5243,-42.2358,-3.61442,1014.53
47360,0.148254,9.76566,1.06648,-0.21,0.14,0.14,26.0972,-41.8018,-4.1815,1014.51
47366,0.148254,9.73697,1.06648,-0.42,-0.35,0.07,25.0373,-42.4095,-2.49442,1014.51
47372,0.157819,9.77044,1.07126,0.14,0.07,0.21,25.467,-42.4674,-3.51518,1014.51
47378,0.095648,9.82305,1.01865,0.14,-0.07,-0.35,25.6389,-41.5413,-3.44429,1014.51
47384,0.071736,9.81827,1.04735,-0.07,-0.21,0.35,25.5529,-42.4674,-2.80632,1014.51
47390,0.0860832,9.83261,1.02822,-0.35,0.21,0.49,25.7248,-42.612,-3.78454,1014.49
47396,0.10043,9.78957,1.08082,-0.35,-0.07,0.28,24.9227,-40.9047,-3.98302,1014.49
47402,0.114778,9.76088,1.09995,-0.42,0.35,0.63,25.1519,-42.2648,-4.01138,1014.51
47408,0.11956,9.73218,1.11908,0.14,-0.35,0.77,25.2092,-42.4384,-3.40176,1014.51
47414,0.148254,9.73697,1.1143,-0.07,-0.28,0.63,24.98,-41.3966,-3.62859,1014.51
47420,0.181731,9.71305,1.12865,0.14,0.28,0.21,25.7248,-41.9754,-4.16733,1014.51
47426,0.148254,9.73218,1.09995,0.28,0.07,0.14,25.0373,-42.8436,-2.86303,1014.48
47432,0.148254,9.74175,1.09039,0.28,0,0.14,25.3811,-42.4384,-3.08986,1014.48
47438,0.172166,9.75131,1.10473,0.28,0.07,-0.28,25.3811,-41.2809,-3.30252,1014.53
47444,0.162602,9.77044,1.06169,-0.07,-0.14,-0.21,24.8941,-42.3516,-3.74201,1014.53
47450,0.191296,9.75131,1.05213,0.56,-0.07,-0.49,24.98,-41.8596,-3.16075,1014.53
47456,0.153037,9.76088,1.033,0.7,-0.14,-0.35,26.3264,-41.1651,-4.39416,1014.5
47462,0.109995,9.77523,1.07126,0.28,0.14,-0.35,25.7248,-42.2937,-4.19568,1014.5
47468,0.129125,9.73697,1.08082,0.28,-0.21,-0.49,25.8967,-42.3227,-3.04733,1014.5
47474,0.13869,9.76088,1.06648,0.35,0.07,-0.56,26.3264,-41.686,-3.16075,1014.5
47480,0.11956,9.75131,1.04735,0.63,0,-0.35,26.0686,-41.4834,-4.01138,1014.5
47486,0.0908656,9.77523,1.06169,0.63,0.14,-0.84,25.5529,-42.6989,-3.52935,1014.5
47492,0.124342,9.79436,1.07604,0.35,0.28,-0.35,24.9227,-42.1201,-4.70606,1014.43
47498,0.148254,9.7561,1.0856,0.98,-0.14,-0.35,25.2665,-41.0783,-3.57189,1014.43
47504,0.133907,9.77523,1.06648,0.42,0.49,-0.28,26.2118,-42.3516,-3.11822,1014.5
47510,0.133907,9.80392,1.04735,0.56,-0.35,-0.42,25.6675,-42.3805,-3.75619,1014.5
47516,0.133907,9.79436,1.02822,0.42,-0.21,0,25.7535,-41.1072,-4.59264,1014.5
47522,0.10043,9.78479,1.07604,-0.07,-0.21,-0.07,25.6102,-41.5702,-3.35923,1014.5
47528,0.095648,9.7561,1.09039,0.28,-0.35,-0.21,25.4383,-42.4095,-2.96227,1014.49
47534,0.114778,9.7561,1.09517,0.7,0,-0.28,25.3524,-41.2809,-4.01138,1014.49
47540,0.143472,9.73697,1.09517,0.28,-0.07,-0.42,24.9227,-41.8018,-5.14555,1014.49
47546,0.10043,9.76088,1.1143,0.42,-0.21,-0.21,25.0659,-42.3805,-3.72783,1014.52
47552,0.133907,9.77523,1.09517,0.56,0,0.14,25.7821,-41.7439,-4.40834,1014.52
47558,0.133907,9.8087,1.06648,0.77,0,0.14,25.8967,-40.9625,-4.28074,1014.51
47564,0.143472,9.77523,1.07126,0.63,0.28,-0.21,25.2665,-42.178,-4.11062,1014.51
47570,0.124342,9.80392,1.05213,0.63,0.07,-0.14,25.1519,-42.1201,-4.15315,1014.53
47576,0.105213,9.79914,1.033,1.05,0.07,-0.07,26.4696,-41.4256,-4.11062,1014.53
47582,0.105213,9.77523,1.04735,0.63,-0.07,-0.14,26.0686,-41.2519,-4.56429,1014.51
47588,0.109995,9.78001,1.06169,0,0,-0.56,25.4383,-42.8725,-4.4934,1014.51
47594,0.129125,9.79914,1.08082,0.63,-0.14,0,25.5816,-41.8018,-3.94049,1014.5
47600,0.13869,9.77044,1.02822,0.49,0.14,-0.42,26.4983,-41.0204,-3.34505,1014.5
47606,0.114778,9.78001,1.05213,0.49,-0.07,-0.28,25.0946,-42.9304,-3.48682,1014.51
47612,0.0860832,9.78001,1.04735,0.49,0.14,-0.14,25.868,-42.2648,-3.60024,1014.51
47618,0.129125,9.7561,1.08082,0.35,-0.28,-0.35,25.1519,-41.5992,-3.71366,1014.51
47624,0.157819,9.73218,1.06648,0.07,-0.63,-0.42,25.4383,-42.3516,-3.24581,1014.49
47630,0.133907,9.75131,1.08082,0.42,-0.28,-0.21,25.4956,-42.2358,-3.34505,1014.49
47636,0.095648,9.7274,1.1143,0,-0.21,-0.42,25.6675,-41.5702,-4.13897,1014.54
47642,0.109995,9.73697,1.09517,0.98,-0.14,-0.49,26.1259,-42.9014,-4.90454,1014.54
47648,0.143472,9.8087,0.999522,0.35,-0.07,-0.28,25.0086,-42.5831,-4.22403,1014.49
47654,0.124342,9.7561,1.0856,0.35,-0.42,-0.35,24.5217,-41.8018,-4.1815,1014.49
47660,0.176949,9.74175,1.09517,0.7,-0.42,-0.42,25.5816,-41.8596,-3.38758,1014.49
47666,0.114778,9.73218,1.10473,0.77,-0.35,-0.42,26.4123,-42.5542,-3.03315,1014.49
47672,0.133907,9.80392,1.06648,0.42,-0.07,-0.49,24.8368,-42.0911,-4.16733,1014.49
47678,0.0765184,9.79436,1.033,0.21,-0.07,-0.28,25.467,-40.76,-3.57189,1014.49
47684,0.143472,9.78479,1.04735,0.7,-0.42,-0.35,24.7222,-41.8886,-5.25897,1014.51
47690,0.114778,9.76088,1.05691,0.56,0.14,-0.63,25.5529,-42.0043,-3.88378,1014.51
47696,0.129125,9.76566,1.09517,0.63,0.35,-0.21,24.9514,-41.4256,-4.39416,1014.5
47702,0.105213,9.75131,1.07604,1.12,0.07,-0.49,25.3811,-41.9754,-2.94809,1014.5
47708,0.105213,9.79914,1.03778,0.07,-0.07,-0.42,25.3811,-41.8018,-3.6853,1014.5
47714,0.133907,9.79436,1.04256,0.28,-0.49,-0.14,25.2378,-41.7439,-4.50758,1014.52
47720,0.157819,9.78001,1.05691,0.49,-0.14,-0.7,25.9826,-41.0783,-3.8129,1014.52
47726,0.109995,9.7274,1.08082,0.14,-0.42,-0.42,25.6102,-42.2648,-4.11062,1014.51
47732,0.10043,9.78001,1.06169,0.49,-0.07,-0.35,25.4956,-41.8596,-3.21746,1014.51
47738,0.114778,9.7561,1.033,0.56,-0.28,-0.63,25.6102,-40.8757,-4.56429,1014.49
47744,0.153037,9.76088,1.06169,0.42,-0.21,-0.42,25.6962,-41.8018,-3.54353,1014.49
47750,0.162602,9.76566,1.07604,0,0.35,-0.28,25.7535,-42.5542,-3.03315,1014.57
47756,0.114778,9.77523,1.07604,1.05,-0.28,-0.77,25.6389,-40.9336,-3.40176,1014.57
47762,0.105213,9.77044,1.06169,0.42,-0.07,-0.56,25.7248,-42.0333,-3.23163,1014.5
47768,0.148254,9.82783,1.01865,0.42,0.49,-0.63,25.3524,-42.3805,-3.38758,1014.5
47774,0.0860832,9.78001,1.11908,0.35,0.28,-0.56,25.9253,-41.8886,-3.48682,1014.52
47780,0.157819,9.77044,1.04256,0.35,0.21,-0.84,25.5816,-40.9336,-3.86961,1014.52
47786,0.143472,9.72262,1.10473,0.21,-0.35,-0.07,26.0686,-41.7439,-2.40936,1014.52
47792,0.13869,9.80392,1.033,0.77,0.35,-0.7,25.1232,-41.223,-3.44429,1014.5
47798,0.071736,9.8087,1.03778,0.49,-0.21,-0.49,25.5243,-41.686,-3.64277,1014.5
47804,0.129125,9.79436,1.03778,0.49,-0.56,-0.28,24.8368,-42.1201,-3.3167,1014.53
47810,0.196078,9.7561,1.07604,0.49,-0.07,-0.56,25.0659,-42.3227,-3.35923,1014.53
47816,0.13869,9.77044,1.09517,0.84,-0.28,-0.63,25.6675,-41.5124,-4.09644,1014.5
47822,0.124342,9.76088,1.07126,0.77,-0.28,-0.42,26.5556,-42.178,-4.15315,1014.5
47828,0.114778,9.76088,1.09995,0.56,0.07,-0.7,24.8368,-42.3227,-3.94049,1014.49
47834,0.124342,9.73697,1.06648,0.77,-0.21,-0.7,25.3238,-41.3677,-3.84125,1014.49
47840,0.11956,9.76088,1.06648,0.77,-0.21,-0.77,26.0972,-41.1072,-4.25239,1014.5
47846,0.109995,9.77523,1.07604,0.98,0.07,-0.56,25.6962,-42.4384,-3.84125,1014.5
47852,0.095648,9.78479,1.02822,0.91,-0.28,-0.84,25.6102,-41.2809,-3.14657,1014.52
47858,0.0765184,9.82783,1.00909,0.42,-0.14,-0.42,25.7821,-41.686,-3.72783,1014.52
47864,0.0813008,9.79914,1.01865,0.91,-0.21,-0.42,24.9514,-42.0333,-4.22403,1014.5
47870,0.133907,9.78957,1.07604,0.91,-0.35,-0.84,25.8108,-41.4834,-3.1891,1014.5
47876,0.133907,9.7561,1.06169,0.42,0.14,-0.49,25.1805,-40.9336,-3.85543,1014.5
47882,0.109995,9.7561,1.09517,0.91,-0.07,-0.42,25.6962,-42.0043,-3.69948,1014.53
47888,0.114778,9.76566,1.04735,0.7,0.21,-0.7,25.2951,-41.8307,-3.01898,1014.53
47894,0.129125,9.7561,1.06169,0.42,-0.07,-0.7,25.5816,-41.5124,-3.95467,1014.53
47900,0.095648,9.78001,1.05213,0.91,0.28,-0.56,25.7535,-41.3966,-2.8205,1014.53
47906,0.0908656,9.78479,1.05213,0.56,-0.21,-0.7,25.7535,-42.5542,-3.16075,1014.53
47912,0.105213,9.78479,1.04735,0.84,-0.49,-0.56,25.2092,-41.7439,-3.3167,1014.53
47918,0.095648,9.78001,1.03778,0.42,-0.21,-0.49,25.1805,-40.9915,-3.48682,1014.51
47924,0.105213,9.81827,1.05213,0.56,-0.35,-0.56,25.3524,-42.3227,-2.76379,1014.51
47930,0.11956,9.77044,1.05213,0.91,-0.07,-0.63,25.8108,-42.2937,-2.87721,1014.54
47936,0.114778,9.76566,1.08082,0.7,-0.28,-0.7,25.3524,-41.3098,-4.08226,1014.54
47942,0.10043,9.79914,1.06169,0.56,-0.14,-0.14,25.2378,-41.8018,-3.95467,1014.51
47948,0.105213,9.76566,1.04735,0.7,-0.28,-0.14,25.1805,-42.0911,-2.43771,1014.51
47954,0.129125,9.81349,1.05691,0.49,0.07,-0.56,25.7821,-40.8178,-2.74961,1014.51
47960,0.11956,9.75131,1.05691,0.35,0,-0.77,25.4956,-41.5992,-3.501,1014.48
47966,0.109995,9.76566,1.04735,1.05,0,-0.49,25.6962,-42.8146,-4.01138,1014.48
47972,0.114778,9.78957,1.03778,0.63,0.07,-0.49,25.4383,-41.7149,-3.28834,1014.51
47978,0.109995,9.79914,1.06169,0.35,-0.07,-0.56,24.9514,-40.7889,-4.23821,1014.51
47984,0.109995,9.74653,1.03778,0.77,0,-0.28,24.5217,-41.9465,-3.14657,1014.51
47990,0.13869,9.76088,1.07126,0.63,0,-0.49,24.8941,-42.7857,-4.20986,1014.51
47996,0.133907,9.77523,1.03778,0.21,-0.35,-0.49,25.0659,-41.0783,-3.71366,1014.5
48002,0.124342,9.77523,1.04735,1.05,-0.21,-0.35,25.7248,-41.7149,-3.44429,1014.5
48008,0.129125,9.7561,1.05213,0.7,-0.35,-0.63,25.0373,-41.9175,-4.12479,1014.53
48014,0.114778,9.75131,1.05691,0.21,-0.28,-0.63,25.5816,-41.5702,-3.14657,1014.53
48020,0.105213,9.76566,1.05691,1.12,-0.07,-0.84,25.0086,-41.8018,-3.71366,1014.51
48026,0.11956,9.78001,1.04256,0.84,-0.56,-1.12,25.7821,-42.7567,-3.1891,1014.51
48032,0.105213,9.76088,1.03778,0.28,-0.21,-1.12,25.3524,-41.8307,-4.33745,1014.51
48038,0.133907,9.73218,1.04735,0.98,0,-0.84,25.6962,-40.8178,-4.9896,1014.49
48044,0.0860832,9.78957,1.033,0.91,0.14,-1.05,25.1519,-42.0333,-3.92631,1014.49
48050,0.0286944,9.80392,1.05213,0.21,-0.21,-0.98,25.1519,-41.5413,-3.58606,1014.48
48056,0.0382592,9.84218,0.999522,0.98,-0.56,-0.21,25.9253,-41.0204,-3.64277,1014.48
48062,0.109995,9.79436,1.02822,0.35,-0.21,-0.91,25.5529,-41.5124,-3.58606,1014.49
48068,0.124342,9.78001,1.05691,0.42,-0.35,-0.77,24.6935,-42.1201,-2.89138,1014.49
48074,0.0908656,9.74175,1.0856,1.12,-0.21,-0.35,25.1519,-41.194,-3.21746,1014.56
48080,0.10043,9.78479,1.09517,0.63,-0.35,-0.91,25.2665,-41.5702,-3.16075,1014.56
48086,0.0813008,9.78957,1.05213,0.28,-0.7,-0.42,24.5217,-42.3516,-2.6929,1014.53
48092,0.0813008,9.76566,1.06169,0.7,-0.42,-0.07,24.9227,-41.9175,-3.74201,1014.53
48098,0.133907,9.76088,1.06169,0.63,-0.28,-0.84,24.9514,-40.5863,-4.46505,1014.51
48104,0.10043,9.77523,1.04735,0.63,-0.14,-0.49,25.0373,-42.3227,-3.8129,1014.51
48110,0.133907,9.78957,1.01865,0.63,17.57,-0.14,25.1519,-41.9175,-2.84885,1014.51
48116,0.10043,9.81349,0.999522,1.05,-0.14,-0.56,25.7535,-41.3677,-3.24581,1014.51
48122,0.0813008,9.77044,1.03778,0.63,-0.35,-0.35,26.0113,-42.0043,-3.1891,1014.51
48128,0.114778,9.76566,1.06648,0.21,17.78,-0.56,25.1519,-42.612,-2.99062,1014.52
48134,0.10043,9.76088,1.07126,0.42,-0.56,-0.49,25.6675,-41.6571,-4.37998,1014.52
48140,0.0813008,9.78479,1.04256,0.56,-0.21,-0.14,25.4097,-41.5702,-3.13239,1014.51
48146,0.0860832,9.8087,1.03778,0.63,17.5,-0.14,25.6102,-42.1201,-3.58606,1014.51
48152,0.047824,9.78957,1.05213,0.84,-0.07,-0.63,25.4097,-41.8886,-3.41594,1014.53
48158,0.0669536,9.78479,1.04256,0.49,-0.42,-0.28,25.1232,-41.194,-3.47265,1014.53
48164,0.0669536,9.78001,1.02343,0.7,-17.92,-0.49,25.2092,-41.6281,-3.67113,1014.51
48170,0.0813008,9.81349,1.02822,0.63,-0.35,-0.42,25.0086,-42.3516,-3.69948,1014.51
48176,0.10043,9.78957,1.02822,0.21,-0.56,-0.28,25.3811,-41.6281,-3.34505,1014.52
48182,0.105213,9.77523,1.033,0.84,17.36,0,25.0946,-42.0333,-4.15315,1014.52
48188,0.071736,9.81349,1.04735,0.77,-0.49,-0.14,25.1519,-43.0751,-3.30252,1014.53
48194,0.071736,9.78479,1.02343,0.28,-0.35,-0.07,25.4097,-41.194,-3.75619,1014.53
48200,0.13869,9.76088,1.033,0.14,-0.21,-0.07,25.4097,-41.0493,-3.10404,1014.53
48206,0.114778,9.73218,1.10473,0.49,-0.28,-0.35,25.5816,-42.2069,-2.25341,1014.52
48212,0.114778,9.75131,1.04735,0.49,-0.21,-0.56,25.467,-41.223,-3.61442,1014.52
48218,0.0813008,9.78001,1.04256,0.77,17.78,-0.35,25.7535,-41.1072,-3.37341,1014.53
48224,0.095648,9.76088,1.03778,0.7,0.14,-0.35,25.1519,-41.8018,-3.17493,1014.53
48230,0.10043,9.7561,1.01387,0.49,0,-0.28,25.7248,-42.0333,-3.75619,1014.51
48236,0.10043,9.75131,1.03778,0.77,0.14,-0.21,25.8394,-40.8757,-3.6853,1014.51
48242,0.0908656,9.78957,1.05691,0.28,0.28,-0.56,25.467,-41.7439,-2.8205,1014.57
48248,0.095648,9.77044,1.05691,0.28,-0.21,-0.28,25.2665,-42.612,-3.1891,1014.57
48254,0.095648,9.75131,1.06169,0.98,17.78,0,25.7535,-40.9625,-3.57189,1014.53
48260,0.0765184,9.77044,1.02822,0.56,-0.07,-0.56,25.4383,-41.223,-3.67113,1014.53
48266,0.0813008,9.79436,1.06648,0.35,-0.21,-0.49,25.467,-42.4963,-3.79872,1014.53
48272,0.109995,9.78479,1.02343,0.42,-0.21,-0.49,25.2092,-41.3387,-3.69948,1014.53
48278,0.0860832,9.80392,1.01865,0.63,-0.14,-0.28,25.954,-40.731,-3.34505,1014.49
48284,0.0382592,9.82305,1.0043,0.63,-0.07,-0.35,25.2951,-41.8018,-3.44429,1014.49
48290,0.0382592,9.78957,1.02822,0.21,-0.28,-0.07,25.0086,-42.0622,-3.28834,1014.49
48296,0.095648,9.74175,1.11908,0.63,-0.49,-0.28,24.98,-41.0493,-3.54353,1014.53
48302,0.10043,9.88522,0.966045,0.28,0.21,0.21,25.3811,-42.5252,-4.45087,1014.53
48308,0.047824,9.78001,1.04735,0.21,-0.35,-17.85,25.4956,-42.6989,-4.77694,1014.53
48314,0.148254,9.79436,1.05213,0.42,0.35,-0.07,25.1519,-40.8757,-4.33745,1014.53
48320,0.0860832,9.72262,1.09995,0.28,0.14,0.21,25.467,-41.194,-3.98302,1014.49
48326,0.129125,9.74653,1.04256,0.42,0.35,-0.07,24.9227,-41.8018,-4.09644,1014.49
48332,0.0860832,9.77044,1.033,0.49,0,-0.21,24.8368,-41.3677,-3.74201,1014.49
48338,0.10043,9.79914,1.033,0.56,0.21,-0.28,25.6675,-41.4545,-3.77037,1014.49
48344,0.105213,9.76566,1.02343,0.35,-0.28,-0.42,25.7535,-42.1201,-3.8129,1014.5
48350,0.11956,9.76566,1.033,0.56,-0.21,-0.56,25.2951,-41.8307,-3.0048,1014.5
48356,0.095648,9.79436,1.02822,0.28,0.21,0,25.3811,-41.4834,-5.40074,1014.49
48362,0.0621712,9.77044,1.05691,0.28,0.21,-0.07,25.868,-42.0622,-4.28074,1014.49
48368,0.105213,9.7561,1.02343,0.56,0.07,-0.35,24.5217,-42.4674,-4.37998,1014.49
48374,0.0669536,9.75131,1.0856,0,-0.14,-0.35,24.8941,-41.3677,-4.25239,1014.49
48380,0.124342,9.71784,1.07126,0.56,-0.21,-0.42,25.6389,-41.7149,-4.22403,1014.49
48386,0.0813008,9.7561,1.02822,0.77,0.28,-0.21,24.98,-43.3934,-2.56531,1014.51
48392,0.023912,9.84218,1.00909,0.49,-0.14,0,25.0086,-42.149,-3.17493,1014.51
48398,0.0621712,9.86609,0.93735,0.14,0.14,0.14,25.1519,-41.4256,-4.19568,1014.51
48404,0.0860832,9.81349,1.0043,-0.14,0.07,0.21,25.7248,-42.4963,-4.02555,1014.51
48410,0.0621712,9.82305,1.02343,-0.28,-0.21,0.28,25.3811,-42.4095,-3.6853,1014.5
48416,0.0621712,9.75131,1.09039,0.14,-0.42,0.14,25.0946,-42.3227,-2.94809,1014.5
48422,0.143472,9.74653,1.06169,0.56,-0.21,0,25.9826,-42.2648,-4.76277,1014.51
48428,0.105213,9.78001,1.04735,0.77,0,0,25.1805,-42.0911,-2.77797,1014.51
48434,0.0908656,9.74175,1.04256,0.14,-0.07,0.14,25.8108,-41.1362,-4.03973,1014.48
48440,0.0860832,9.77044,1.06169,0.21,0.07,-0.21,25.6389,-41.3098,-3.35923,1014.48
48446,0.13869,9.77523,1.05213,0.28,-0.14,-0.35,25.9253,-41.8018,-3.06151,1014.5
48452,0.10043,9.7274,1.05213,0.84,-0.21,-0.28,26.2405,-41.1072,-3.8129,1014.5
48458,0.148254,9.74175,1.04256,0.56,-0.21,-0.56,25.6962,-41.0783,-4.64935,1014.5
48464,0.11956,9.76088,1.033,0.49,-0.35,-0.28,25.2378,-42.3227,-4.02555,1014.52
48470,0.114778,9.73697,1.07604,0.77,-0.28,-0.42,25.2665,-42.1201,-2.73543,1014.52
48476,0.105213,9.7561,1.06169,0.35,0.14,-0.63,24.8368,-41.5702,-4.11062,1014.48
48482,0.0813008,9.74175,1.05691,0.49,-0.07,-0.7,25.3524,-41.9175,-4.39416,1014.48
48488,0.095648,9.8087,1.02343,0.77,-0.21,-0.63,24.8081,-42.9014,-3.03315,1014.5
48494,0.0813008,9.79436,0.994739,0.63,-0.14,-0.49,25.3238,-41.223,-3.75619,1014.5
48500,0.0621712,9.79436,1.02822,0,0.07,-0.49,25.9253,-41.1651,-4.01138,1014.51
48506,0.071736,9.78001,1.04735,0.91,-0.21,-0.35,25.868,-43.1619,-3.6853,1014.51
48512,0.047824,9.79436,1.02822,0.63,-0.7,-0.49,25.5816,-41.3966,-4.86201,1014.51
48518,0.0908656,9.76566,1.04256,0,-0.91,-0.28,26.2405,-41.7728,-4.6777,1014.51
48524,0.10043,9.78001,1.06169,0.7,-0.63,-0.35,25.4383,-42.9014,-3.85543,1014.49
48530,0.109995,9.79914,1.03778,0.35,-0.49,-0.63,26.0972,-42.1201,-4.01138,1014.49
48536,0.0860832,9.76088,1.04735,0.42,-0.21,-0.21,26.1832,-40.9625,-3.74201,1014.49
48542,0.114778,9.76088,1.03778,0.56,-0.63,-0.42,25.4956,-42.178,-2.91974,1014.5
48548,0.071736,9.77044,1.04735,0.98,0.07,-0.63,25.6962,-42.1201,-4.06809,1014.5
48554,0.109995,9.78001,1.02822,0.28,0.42,-0.28,26.2691,-41.1072,-4.42251,1014.52
48560,0.129125,9.77044,1.04256,0.28,0,-0.77,26.2118,-41.1651,-3.60024,1014.52
48566,0.0908656,9.76088,1.07604,0.42,0.21,-0.98,25.3524,-42.9304,-4.69188,1014.52
48572,0.105213,9.76088,1.05691,0.63,0,-0.07,25.4956,-42.0333,-4.93289,1014.52
48578,0.0621712,9.78957,1.02343,0.35,-0.21,-0.49,26.0972,-41.6281,-4.12479,1014.55
48584,0.10043,9.79914,1.05213,0.49,-0.07,-0.21,25.6389,-42.5542,-4.16733,1014.55
48590,0.0860832,9.78001,1.03778,0.63,0.14,-0.07,25.1232,-41.4545,-2.93391,1014.47
48596,0.10043,9.78001,1.01387,0.35,-0.07,-0.42,25.7248,-41.5413,-4.32327,1014.47
48602,0.0813008,9.77523,1.033,0.35,0.21,-0.42,25.5529,-41.9754,-3.17493,1014.5
48608,0.071736,9.82305,1.01387,0.21,0.14,0,26.0686,-43.104,-3.98302,1014.5
48614,0.0526064,9.82783,0.994739,0.21,-0.07,-0.14,25.4097,-41.6281,-4.08226,1014.52
48620,0.0860832,9.79914,1.03778,0.07,-0.21,-0.07,25.3524,-42.1201,-3.20328,1014.52
48626,0.133907,9.77523,1.033,-0.14,0.28,0.21,25.2665,-42.612,-3.62859,1014.52
48632,0.0813008,9.76566,1.0856,0.21,-0.14,-0.28,25.1519,-41.3677,-4.32327,1014.48
48638,0.095648,9.76566,1.05213,0.35,0.28,0,26.0972,-41.4545,-3.64277,1014.48
48644,0.071736,9.78001,1.06169,0.35,0.28,0.42,25.0373,-42.0333,-3.501,1014.49
48650,0.105213,9.74175,1.03778,0.77,0.07,-0.35,25.1805,-42.4095,-3.43011,1014.49
48656,0.109995,9.7561,1.07604,0.42,0.07,-0.35,25.6675,-41.3677,-4.55011,1014.52
48662,0.105213,9.78001,1.03778,0.28,0.21,0.07,25.868,-41.8018,-3.48682,1014.52
48668,0.10043,9.77044,1.0043,1.05,0.21,-0.7,24.8081,-43.0751,-3.8129,1014.51
48674,0.095648,9.81349,0.999522,0.21,0.21,-0.56,25.8394,-40.9915,-3.74201,1014.51
48680,0.10043,9.8087,1.02343,0.14,-0.07,-0.28,25.5243,-41.5992,-4.11062,1014.5
48686,0.114778,9.80392,1.01387,0.42,0.7,-0.14,25.2951,-42.5831,-2.80632,1014.5
48692,0.114778,9.75131,1.04735,0.07,-0.28,-0.21,25.1805,-41.6571,-3.8129,1014.51
48698,0.0860832,9.77523,1.04256,-0.07,-0.14,0,25.2092,-41.0783,-3.71366,1014.51
48704,0.095648,9.77523,1.06169,0.56,0.35,-0.21,25.2378,-42.8436,-2.80632,1014.51
48710,0.0860832,9.77044,1.05213,0.42,-0.14,-0.21,25.5816,-42.4674,-4.13897,1014.48
48716,0.0669536,9.80392,1.03778,0,-0.42,0,24.8368,-41.5992,-4.01138,1014.48
48722,0.0813008,9.8087,1.03778,0.98,-0.28,-0.14,25.9826,-42.0043,-3.3167,1014.5
48728,0.0860832,9.78001,1.04256,0.56,-0.28,-0.07,25.868,-42.8146,-4.26657,1014.5
48734,0.071736,9.77523,1.05213,0.07,-0.42,0.35,25.4956,-41.0783,-4.25239,1014.54
48740,0.105213,9.78479,1.04735,0.84,-0.21,0.07,25.3811,-41.4545,-4.20986,1014.54
48746,0.0908656,9.77523,1.05213,0.42,0,0,25.0373,-42.178,-3.91214,1014.5
48752,0.124342,9.7561,1.06169,-0.42,-0.21,0.07,25.5529,-41.8307,-4.3091,1014.5
48758,0.0860832,9.77044,1.04256,0.77,0.14,-0.28,25.4383,-40.4416,-4.11062,1014.51
48764,0.10043,9.78001,1.02343,0.14,0.14,0,25.2951,-42.6699,-4.74859,1014.51
48770,0.109995,9.78479,1.033,0.42,-0.07,0.21,25.6962,-42.641,-5.32985,1014.53
48776,0.0860832,9.75131,1.01865,0.28,0,0,26.2405,-41.1072,-4.87618,1014.53
48782,0.0908656,9.73218,1.05691,0.21,-0.35,0.07,25.8394,-42.3227,-4.64935,1014.52
48788,0.105213,9.7561,1.08082,0.63,-0.21,-0.07,25.1232,-42.0333,-4.46505,1014.52
48794,0.114778,9.7561,1.033,0.35,-0.14,-0.28,25.4956,-41.3387,-4.4934,1014.52
48800,0.124342,9.77044,1.05691,0.63,-0.35,0.07,25.1232,-41.6281,-3.78454,1014.51
48806,0.0908656,9.78957,1.04256,0.7,0.14,-0.07,26.0686,-42.2358,-4.19568,1014.51
48812,0.0860832,9.77523,1.02822,0.28,-0.63,-0.56,25.3811,-41.0204,-3.25999,1014.51
48818,0.0765184,9.76566,1.02822,0.77,0,-0.21,25.4956,-41.5992,-4.47922,1014.51
48824,0.0669536,9.82305,1.00909,0.42,0.42,-0.14,24.8081,-42.0043,-3.89796,1014.5
48830,0.0526064,9.79436,1.00909,0.28,0,-0.21,25.954,-41.8018,-3.98302,1014.5
48836,0.095648,9.75131,1.033,0.35,-0.07,-0.21,25.5529,-40.8178,-3.6853,1014.47
48842,0.0860832,9.75131,1.05691,0.56,-0.56,-0.35,26.3264,-41.8018,-3.44429,1014.47
48848,0.0908656,9.76088,1.05213,0.49,-0.14,-0.07,26.0972,-42.7278,-3.48682,1014.53
48854,0.0621712,9.76566,1.05691,0.35,-0.28,0.14,25.954,-40.7889,-4.36581,1014.53
48860,0.0621712,9.81349,1.06169,0.77,-0.28,0,25.3524,-41.8307,-5.27314,1014.5
48866,0.109995,9.79914,1.02822,0,0.14,-0.07,25.3524,-41.686,-3.24581,1014.5
48872,0.0908656,9.77044,1.01865,0.42,0,0.21,25.6675,-40.9625,-3.3167,1014.5
48878,0.10043,9.76566,1.04256,1.05,-0.28,0.14,25.8108,-41.1362,-4.45087,1014.53
48884,0.0669536,9.78001,1.04256,0.35,0,-0.14,25.9253,-42.3516,-3.78454,1014.53
48890,0.10043,9.78957,0.966045,0.35,0.35,0,25.6102,-42.2648,-3.95467,1014.52
48896,0.047824,9.69871,1.14299,0.77,-0.7,0,25.4097,-40.8757,-4.26657,1014.52
48902,0.172166,9.73218,1.08082,0.42,0.42,-0.42,25.2092,-41.7728,-3.62859,1014.5
48908,0.0430416,9.75131,1.04735,0.28,0,-0.07,25.4956,-42.4095,-2.60784,1014.5
48914,0.105213,9.75131,1.0856,0.7,-0.42,-0.28,25.1805,-41.4256,-4.01138,1014.49
48920,0.10043,9.80392,0.980392,0.35,0.14,-0.07,25.6389,-41.5702,-5.76934,1014.49
48926,0.023912,9.78957,1.04256,0.49,-0.56,0.07,25.4097,-42.4095,-4.37998,1014.5
48932,0.10043,9.84696,0.946915,-0.28,-0.07,0.07,25.7821,-41.5992,-4.16733,1014.5
48938,0.114778,9.75131,1.0856,0.35,-0.49,0.07,25.6389,-41.7149,-4.59264,1014.52
48944,0.109995,9.79436,1.05213,0.42,0.21,0.07,25.2378,-43.6249,-4.4934,1014.52
48950,0.0813008,9.77523,1.06169,0.35,0.21,0.07,25.5243,-42.612,-3.67113,1014.52
48956,0.095648,9.81827,1.00909,0.35,0.21,0.35,26.0686,-41.0783,-3.72783,1014.51
48962,0.0526064,9.85174,0.966045,0.7,0.07,0.28,26.0972,-41.3387,-3.95467,1014.51
48968,0.0908656,9.81349,1.033,-0.14,0.07,0.07,25.1805,-42.9883,-3.35923,1014.51
48974,0.0813008,9.81349,1.03778,0,-0.07,0.21,25.3524,-40.9047,-5.31567,1014.51
48980,0.10043,9.73697,1.06648,0.07,0.14,0.14,25.6389,-41.7439,-3.44429,1014.54
48986,0.095648,9.73697,1.10473,0.07,0.21,0.07,25.4383,-42.0911,-3.54353,1014.54
48992,0.0573888,9.8087,1.03778,0.91,0.42,0.56,25.4956,-41.3966,-4.40834,1014.51
48998,0.0430416,9.80392,1.02343,0.35,0.07,0.35,26.6702,-41.0204,-4.56429,1014.51
49004,0.143472,9.75131,1.03778,0.35,0,0,25.6675,-42.4095,-3.35923,1014.51
49010,0.124342,9.76566,1.04256,0.21,0.49,0.14,25.2378,-41.6571,-3.79872,1014.51
49016,0.0669536,9.8374,1.01387,0.21,0,0.07,25.1232,-40.268,-3.60024,1014.5
49022,0.095648,9.8087,0.989957,0.14,-0.28,0.07,25.0373,-41.8596,-4.35163,1014.5
49028,0.0860832,9.78001,0.999522,-0.28,-0.28,0.07,25.6962,-43.0172,-3.82707,1014.54
49034,0.0765184,9.78001,1.05691,0,-0.49,0.14,24.9227,-41.194,-4.11062,1014.54
49040,0.10043,9.77044,1.03778,-0.28,-0.07,0.07,25.0946,-41.6281,-5.68428,1014.54
49046,0.0430416,9.82305,1.04735,0.56,-0.28,0.49,25.6102,-41.9754,-3.45847,1014.53
49052,0.105213,9.80392,1.01387,-0.14,0.07,0.07,24.9227,-41.6281,-3.8129,1014.53
49058,0.105213,9.78001,1.03778,-0.42,0.35,0,24.8941,-40.7889,-4.64935,1014.51
49064,0.071736,9.74653,1.033,0.42,0.35,0.7,24.98,-41.8307,-3.86961,1014.51
49070,0.0908656,9.81349,1.07126,-0.07,0.42,0.28,24.8941,-41.7728,-3.8129,1014.47
49076,0.0765184,9.81349,1.02822,-0.35,0,0.63,25.2378,-41.0204,-3.57189,1014.47
49082,0.0573888,9.87087,0.961262,0.07,-0.14,0.56,25.4383,-41.3098,-4.64935,1014.51
49088,0.10043,9.79436,0.999522,-0.07,0.07,0.35,24.9514,-41.9754,-3.47265,1014.51
49094,0.095648,9.7561,1.04256,-0.77,0,0.42,25.3811,-41.0783,-4.19568,1014.52
49100,0.13869,9.73697,1.06169,0.35,0.14,0.42,25.7535,-41.8307,-3.86961,1014.52
49106,0.11956,9.74653,1.06648,0.07,0.07,0.49,25.6675,-41.9175,-4.20986,1014.49
49112,0.105213,9.77044,1.06648,-0.28,0,0.56,25.2951,-41.7439,-3.92631,1014.49
49118,0.114778,9.75131,1.05213,-0.28,0.21,0.21,25.9253,-41.5413,-4.94707,1014.49
49124,0.109995,9.7561,1.04735,0.63,0.21,0.49,24.6076,-42.178,-4.15315,1014.52
49130,0.10043,9.79436,1.01865,-0.07,0.07,0.56,25.5243,-41.5124,-2.97645,1014.52
49136,0.0813008,9.80392,1.02343,-0.21,-0.35,0.21,25.2092,-40.9625,-4.84783,1014.5
49142,0.0813008,9.78479,1.01387,0.14,0.07,0.49,25.8967,-41.8018,-3.30252,1014.5
49148,0.095648,9.79914,0.999522,0.14,0,0.35,25.2665,-42.641,-4.12479,1014.52
49154,0.133907,9.7561,1.07126,-0.49,0.28,0.7,25.0946,-41.7728,-4.1815,1014.52
49160,0.105213,9.78001,1.09039,-0.21,0.21,0.7,25.8967,-41.0783,-4.57846,1014.5
49166,0.143472,9.73218,1.02822,0.42,0.14,0.42,25.3811,-42.9014,-3.75619,1014.5
49172,0.13869,9.78001,1.06648,-0.56,-0.14,0.21,25.4956,-40.9047,-4.40834,1014.52
49178,0.133907,9.74653,1.07126,-0.28,0.35,0.56,25.6389,-41.2809,-4.66353,1014.52
49184,0.0813008,9.76088,1.05213,0.21,0.49,0.35,24.3211,-42.8725,-3.1891,1014.52
49190,0.0765184,9.78001,1.03778,-0.49,-0.14,0.63,25.8394,-42.2648,-3.86961,1014.52
49196,0.109995,9.79436,1.04256,-0.63,0.14,0.56,25.4383,-41.5992,-3.07569,1014.49
49202,0.105213,9.8087,1.01387,0.07,0.35,0.7,25.1805,-42.5252,-4.53593,1014.49
49208,0.11956,9.82305,1.033,-0.77,0.35,0.49,25.1519,-42.7857,-3.92631,1014.49
49214,0.109995,9.78479,1.05691,-0.07,-0.07,0.91,26.355,-41.6281,-4.8053,1014.5
49220,0.148254,9.74653,1.07126,-0.14,-0.14,0.63,26.1545,-41.8596,-4.20986,1014.5
49226,0.13869,9.77044,1.05213,-0.56,-0.21,0.84,25.0946,-42.9593,-3.60024,1014.54
49232,0.0765184,9.76566,1.07604,-0.49,-0.28,0.7,25.5529,-41.4545,-4.59264,1014.54
49238,0.11956,9.78957,1.04256,-0.49,0.28,0.56,26.0399,-40.8178,-4.08226,1014.55
49244,0.0908656,9.77044,1.07604,0,-0.14,0.35,26.1832,-42.2358,-2.94809,1014.55
49250,0.13869,9.74653,1.09039,-0.07,0.56,0.42,25.4097,-42.0333,-3.52935,1014.51
49256,0.143472,9.73697,1.13343,0.14,0.7,0.63,25.6389,-40.8178,-4.01138,1014.51
49262,0.129125,9.74653,1.07126,0.21,0.49,0.14,25.2378,-42.1201,-3.35923,1014.52
49268,0.153037,9.79436,1.04735,0.42,0.56,0.42,25.2092,-41.9465,-4.39416,1014.52
49274,0.10043,9.79436,1.03778,-0.35,-0.14,0.14,24.8368,-40.9336,-3.94049,1014.51
49280,0.114778,9.75131,1.07126,0.63,0.49,0.49,24.8081,-41.4545,-3.67113,1014.51
49286,0.105213,9.77044,1.08082,0.14,-0.28,0.21,25.9253,-42.5252,-3.91214,1014.51
49292,0.095648,9.77523,1.06648,-0.07,-0.07,0,25.1519,-41.0783,-4.45087,1014.51
49298,0.114778,9.80392,1.05213,0.14,-0.14,0.21,25.4383,-40.8468,-4.03973,1014.51
49304,0.071736,9.79914,1.06169,-0.14,0.14,0.21,25.1232,-41.9465,-3.58606,1014.52
49310,0.109995,9.78001,1.0856,-0.07,0,0.07,25.0946,-41.6281,-3.38758,1014.52
49316,0.157819,9.78957,1.06169,0.14,0.07,0.28,25.0946,-40.6731,-3.92631,1014.46
49322,0.153037,9.78957,1.02343,0.07,0.28,0.35,25.467,-41.7728,-5.20226,1014.46
49328,0.124342,9.76088,1.08082,-0.14,-0.35,0.21,25.2951,-42.2648,-3.03315,1014.51
49334,0.129125,9.78479,1.07604,0,-0.14,0.14,25.7248,-40.9047,-4.56429,1014.51
49340,0.133907,9.74653,1.10473,-0.21,-0.42,-0.07,26.1832,-41.3098,-4.16733,1014.49
49346,0.186514,9.74653,1.09039,0.28,-0.07,0.07,25.5243,-41.8886,-3.48682,1014.49
49352,0.133907,9.76566,1.07126,0.07,-0.56,-0.42,25.6962,-41.7439,-4.84783,1014.51
49358,0.153037,9.75131,1.08082,-0.07,-0.07,-0.42,25.9253,-40.4127,-4.40834,1014.51
49364,0.153037,9.78001,1.07126,-0.14,0.28,0.14,25.0086,-42.3805,-3.65695,1014.51
49370,0.133907,9.74653,1.09039,0.07,-0.21,-0.42,25.2092,-41.6281,-3.23163,1014.51
49376,0.13869,9.74175,1.07126,0.28,0.14,-0.28,25.6962,-40.7021,-4.16733,1014.51
49382,0.095648,9.7561,1.09517,0.84,0.07,-0.14,25.4097,-42.178,-3.54353,1014.52
49388,0.133907,9.74175,1.05691,0.35,-0.21,-0.49,25.2378,-41.9465,-3.501,1014.52
49394,0.157819,9.76566,1.07604,0.21,-0.21,-0.21,26.355,-41.7149,-3.98302,1014.49
49400,0.157819,9.77523,1.05691,0.35,-0.42,-0.14,26.2118,-41.4256,-4.09644,1014.49
49406,0.129125,9.74653,1.04735,0.21,-0.14,-0.49,25.2951,-42.8146,-4.4934,1014.52
49412,0.114778,9.78001,1.06648,0.21,-0.07,-0.14,25.2951,-41.8596,-4.16733,1014.52
49418,0.071736,9.82783,1.01865,0.63,0,0.14,25.0659,-40.8468,-4.39416,1014.5
49424,0.0813008,9.81827,0.994739,-0.14,0.21,-0.49,25.467,-42.0622,-3.92631,1014.5
49430,0.10043,9.78001,1.09995,0.07,-0.07,0.07,25.4956,-41.9754,-3.96885,1014.53
49436,0.124342,9.74653,1.09039,0.42,-0.07,0.35,25.7821,-40.5285,-3.98302,1014.53
49442,0.0908656,9.77523,1.09517,0.21,0.07,0,24.9514,-41.686,-5.10302,1014.49
49448,0.124342,9.78001,1.07126,0.49,-0.56,0.14,25.9253,-41.8596,-4.1815,1014.49
49454,0.129125,9.76566,1.10473,0.42,-0.63,0,25.2951,-41.1651,-3.67113,1014.49
49460,0.11956,9.73697,1.0856,0.35,-0.56,0,25.7535,-41.4834,-3.47265,1014.51
49466,0.105213,9.74653,1.09517,0.63,-0.28,0.07,25.6675,-41.6281,-3.43011,1014.51
49472,0.143472,9.77044,1.05213,0.49,0,0.07,24.8654,-41.1072,-4.06809,1014.51
49478,0.13869,9.78957,1.00909,0.07,-0.21,-0.42,25.467,-40.9047,-3.71366,1014.51
49484,0.13869,9.79914,1.01865,-0.07,0.14,0.07,25.2665,-41.8018,-3.13239,1014.5
49490,0.129125,9.78479,1.06648,0.49,-0.07,0.14,25.4097,-41.5992,-3.33087,1014.5
49496,0.114778,9.76088,1.1143,-0.07,0,0.35,26.0686,-40.9915,-4.12479,1014.51
49502,0.10043,9.8087,1.03778,-0.14,-0.21,0.07,25.2951,-41.3677,-3.04733,1014.51
49508,0.124342,9.81827,1.03778,0.14,-0.28,0,25.1232,-42.2648,-3.11822,1014.52
49514,0.0860832,9.7561,1.11908,0.07,0.07,-0.07,25.2378,-41.0493,-4.05391,1014.52
49520,0.0908656,9.76088,1.1143,-0.07,-0.07,0.07,25.3811,-41.3966,-3.60024,1014.48
49526,0.0860832,9.77523,1.03778,0.21,0,0.07,25.3238,-42.3516,-4.81947,1014.48
49532,0.0765184,9.81827,1.04256,0,-0.21,0.28,25.3238,-41.7439,-4.50758,1014.52
49538,0.133907,9.79436,1.0856,-0.21,-0.21,0.28,24.98,-40.7889,-4.12479,1014.52
49544,0.162602,9.7561,1.09517,0.21,-0.35,0.21,24.7795,-42.0911,-3.75619,1014.52
49550,0.124342,9.79436,1.07604,0.28,0.07,0.14,24.9227,-41.686,-4.40834,1014.51
49556,0.124342,9.76566,1.06169,-0.56,-0.21,0.21,24.98,-41.0204,-4.45087,1014.51
49562,0.095648,9.81827,1.03778,-0.7,-0.14,0.42,24.6935,-41.6281,-3.0048,1014.52
49568,0.148254,9.78479,1.05691,0.14,-0.21,0.42,24.8654,-41.6571,-4.11062,1014.52
49574,0.162602,9.75131,1.06648,-0.07,0,-0.21,24.7508,-41.5413,-4.4934,1014.53
49580,0.157819,9.73697,1.10473,-0.63,0.42,0.28,24.5503,-41.2519,-3.94049,1014.53
49586,0.109995,9.73218,1.10952,1.26,0,0.35,25.8394,-42.641,-3.01898,1014.49
49592,0.153037,9.75131,1.10473,0.42,-0.21,0.07,24.3211,-41.9175,-3.52935,1014.49
49598,0.148254,9.77523,1.08082,-0.35,-0.07,-0.14,24.8368,-40.4706,-3.75619,1014.51
49604,0.124342,9.78479,1.033,0.56,0.35,0.21,24.9227,-42.6989,-3.52935,1014.51
49610,0.129125,9.7561,1.06648,-0.14,0.14,-0.07,25.2665,-41.5702,-3.47265,1014.5
49616,0.143472,9.78957,1.08082,0,0.35,-0.28,25.3238,-40.8757,-4.73441,1014.5
49622,0.13869,9.76566,1.05213,0.63,0.49,-0.28,25.7821,-42.0043,-4.77694,1014.5
49628,0.148254,9.78957,1.05213,-0.07,0.49,-0.14,25.4097,-41.7149,-3.0048,1014.54
49634,0.109995,9.77523,1.06169,-0.21,0,0.21,25.7535,-41.0204,-3.61442,1014.54
49640,0.114778,9.78957,1.06648,0.35,0,-0.07,25.9253,-41.7149,-4.25239,1014.5
49646,0.124342,9.79914,1.05213,-0.07,0.07,-0.07,25.3238,-42.2358,-3.61442,1014.5
49652,0.124342,9.78001,1.05691,-0.07,0.07,0.07,25.5529,-41.5702,-4.74859,1014.49
49658,0.148254,9.79914,1.05691,0.14,0,-0.07,25.4097,-41.0783,-4.37998,1014.49
49664,0.114778,9.75131,1.09039,-0.35,0.28,0.07,25.4956,-42.0911,-3.71366,1014.47
49670,0.153037,9.78957,1.10473,0.77,0.28,0.42,25.0373,-41.7728,-3.55771,1014.47
49676,0.167384,9.73697,1.09517,-0.14,0.42,-0.28,25.3238,-40.9336,-4.16733,1014.52
49682,0.162602,9.77523,1.06169,0.56,0.21,0.07,25.6962,-41.9465,-3.89796,1014.52
49688,0.13869,9.78001,1.07604,0.35,-0.63,0.07,26.1259,-42.2358,-2.87721,1014.52
49694,0.143472,9.79914,1.08082,0.56,0.14,-0.21,25.868,-40.7889,-3.78454,1014.52
49700,0.129125,9.83261,1.04256,0.77,0,0.21,26.0972,-41.4256,-4.52175,1014.54
49706,0.143472,9.81827,1.00909,0.14,0,0.42,24.8081,-42.0911,-3.72783,1014.54
49712,0.124342,9.76566,1.01387,-0.07,-0.21,0.21,25.2951,-40.6153,-3.1891,1014.54
49718,0.143472,9.75131,1.09517,0.28,0.07,0.56,24.9227,-40.5863,-3.77037,1014.52
49724,0.114778,9.78001,1.08082,0.07,0.21,0.21,25.2665,-41.3966,-3.8129,1014.52
49730,0.13869,9.78957,1.04735,-0.07,0.07,0.63,25.4097,-41.1072,-3.86961,1014.52
49736,0.133907,9.7561,1.0856,0.35,-0.07,0.56,25.6389,-40.2969,-3.77037,1014.52
49742,0.167384,9.76088,1.1143,0.21,0.07,0.14,25.3811,-41.686,-3.52935,1014.51
49748,0.153037,9.74653,1.12386,-0.07,-0.14,0.21,25.3524,-41.1362,-3.69948,1014.51
49754,0.129125,9.7561,1.09517,0.49,0.21,0,25.7248,-40.9915,-3.40176,1014.51
49760,0.148254,9.74175,1.07604,0.35,0,-0.07,25.6675,-41.194,-4.1815,1014.51
49766,0.157819,9.77044,1.05213,0.14,-0.07,0.14,24.6935,-42.0911,-2.45189,1014.54
49772,0.133907,9.7561,1.07604,0.07,0.21,-0.42,24.4357,-41.0783,-4.05391,1014.54
49778,0.157819,9.77523,1.09039,0.14,-0.07,-0.56,25.1232,-41.0204,-3.77037,1014.51
49784,0.148254,9.7561,1.07126,0.49,0.35,0.07,24.8368,-42.2937,-2.97645,1014.51
49790,0.133907,9.78479,1.05691,0.21,0,0.07,25.467,-41.7728,-3.0048,1014.51
49796,0.114778,9.79914,1.05213,0.56,-0.21,-0.14,25.9253,-40.7889,-3.55771,1014.51
49802,0.148254,9.79436,1.06169,-0.14,-0.14,-0.14,25.1805,-41.5124,-4.02555,1014.51
49808,0.124342,9.78001,1.10473,0.07,-0.28,0,25.2378,-42.0043,-4.74859,1014.51
49814,0.124342,9.73218,1.10952,0.21,-0.21,-0.28,25.0659,-41.1362,-5.00378,1014.51
49820,0.148254,9.74653,1.09039,0.35,0,0.21,26.0686,-41.2519,-4.20986,1014.47
49826,0.129125,9.73218,1.13343,0.49,-0.07,0.07,25.467,-42.612,-3.77037,1014.47
49832,0.133907,9.77044,1.06648,0.77,0.14,-0.21,24.7222,-40.5285,-2.94809,1014.5
49838,0.0908656,9.76566,1.10952,0.28,-0.07,-0.21,25.7248,-40.3548,-3.501,1014.5
49844,0.172166,9.80392,1.07126,0.35,-0.07,0.07,26.3837,-42.4095,-2.99062,1014.53
49850,0.11956,9.76088,1.10473,0.14,-0.35,-0.07,25.9826,-41.3387,-4.1815,1014.53
49856,0.133907,9.80392,1.06648,0.21,-0.14,-0.28,25.4097,-41.3387,-3.8129,1014.51
49862,0.114778,9.79436,1.05691,0.14,-0.56,-0.07,25.2092,-41.0204,-3.0048,1014.51
49868,0.148254,9.78001,1.05691,0.21,-0.28,-0.07,25.467,-41.6281,-3.91214,1014.52
49874,0.143472,9.7561,1.09517,0.21,-0.07,-0.07,25.5529,-41.0204,-3.94049,1014.52
49880,0.167384,9.78001,1.09039,0.28,-0.07,-0.35,25.2951,-41.1362,-3.9972,1014.52
49886,0.162602,9.76088,1.07604,0.42,0,-0.21,24.579,-41.8307,-3.30252,1014.51
49892,0.148254,9.73697,1.10473,0.35,-0.28,-0.28,25.2665,-40.8178,-4.79112,1014.51
49898,0.124342,9.7561,1.1143,0.14,-0.42,-0.35,25.4956,-41.0493,-4.13897,1014.55
49904,0.153037,9.77044,1.09039,0.7,-0.14,-0.42,24.9514,-42.6989,-3.51518,1014.55
49910,0.133907,9.74175,1.06648,0.35,-0.14,-0.35,25.0946,-42.0622,-3.89796,1014.51
49916,0.133907,9.76088,1.10952,0.35,0.07,-0.21,25.1805,-40.4127,-3.96885,1014.51
49922,0.133907,9.76566,1.09517,0.56,0.28,-0.28,25.5816,-41.8307,-3.67113,1014.52
49928,0.129125,9.78479,1.09039,0.35,-0.56,-0.28,25.2951,-41.8596,-2.79214,1014.52
49934,0.148254,9.77044,1.04735,0.49,0.28,-0.42,25.3811,-40.6731,-5.1739,1014.5
49940,0.133907,9.76566,1.09995,1.05,0.14,-0.63,25.8394,-41.3966,-3.47265,1014.5
49946,0.129125,9.7561,1.09517,0.07,-0.35,-0.35,25.4097,-42.0911,-3.65695,1014.51
49952,0.11956,9.76566,1.08082,0.35,0.14,-0.21,25.1232,-41.3387,-3.92631,1014.51
49958,0.129125,9.77044,1.06169,0.77,0.07,-0.42,25.2092,-40.9336,-4.25239,1014.51
49964,0.133907,9.79436,1.06648,0.28,0.21,-0.63,26.441,-41.9754,-4.08226,1014.53
49970,0.10043,9.79914,1.06169,0,0.49,-0.42,25.6102,-41.9465,-4.37998,1014.53
49976,0.11956,9.82305,1.05213,0.28,-0.21,-0.21,25.3238,-40.6153,-4.32327,1014.51
49982,0.114778,9.82783,1.02822,-0.21,0.21,0,24.4644,-41.4545,-4.13897,1014.51
49988,0.109995,9.77044,1.07126,0.35,-0.21,-0.21,25.3524,-41.5124,-4.20986,1014.51
49994,0.11956,9.77044,1.08082,0.56,0.28,0.28,25.4383,-40.2391,-5.04631,1014.51
50000,0.114778,9.78957,1.10473,0,-0.21,-0.35,25.868,-40.9625,-4.22403,1014.52
50006,0.129125,9.77044,1.04735,0.21,-0.07,0,25.2665,-41.5992,-4.01138,1014.52
50012,0.167384,9.80392,1.02343,0.42,0.28,-0.07,25.7821,-40.6731,-4.12479,1014.51
50018,0.11956,9.73218,1.10952,0,0,0.14,25.7821,-40.3838,-3.82707,1014.51
50024,0.167384,9.71305,1.10952,0.49,0.07,-0.28,25.6962,-42.149,-4.74859,1014.53
50030,0.095648,9.73697,1.1143,0.35,-0.35,-0.49,24.8654,-41.686,-3.6853,1014.53
50036,0.129125,9.78001,1.07604,0.42,-0.28,-0.42,25.5816,-40.4127,-3.86961,1014.53
50042,0.114778,9.77523,1.08082,0.63,0.21,-0.21,25.3238,-42.1201,-4.16733,1014.49
50048,0.114778,9.75131,1.04735,0.35,0.35,-0.28,24.8941,-41.8018,-3.01898,1014.49
50054,0.133907,9.76088,1.07126,0.91,0.35,-0.35,25.5529,-40.3548,-4.19568,1014.5
50060,0.133907,9.78479,1.05691,0.77,-0.07,-0.28,25.6389,-41.223,-3.91214,1014.5
50066,0.105213,9.79914,1.07126,0.77,-0.07,-0.28,25.7248,-41.7439,-4.06809,1014.5
50072,0.095648,9.82783,1.04735,0.14,-0.21,-0.14,26.0113,-41.0783,-3.91214,1014.5
50078,0.114778,9.78957,1.06169,0.35,-0.14,0.28,26.0686,-40.2391,-3.69948,1014.49
50084,0.148254,9.76566,1.09995,0.21,0.21,-0.35,25.6102,-42.6989,-4.03973,1014.49
50090,0.109995,9.77044,1.09039,0.77,0.21,0.28,26.0399,-41.6281,-4.15315,1014.5
50096,0.109995,9.79914,1.06169,0.14,0.42,0.35,25.4956,-40.5285,-4.02555,1014.5
50102,0.095648,9.77523,1.08082,0.35,-0.21,-0.14,24.6935,-40.9625,-3.41594,1014.47
50108,0.148254,9.76088,1.07604,0.56,0,0.28,25.8108,-41.7439,-2.66455,1014.47
50114,0.157819,9.75131,1.07604,0.63,-0.07,0.14,25.4956,-40.6442,-3.54353,1014.5
50120,0.148254,9.74175,1.09039,0.7,-0.07,-0.07,26.1259,-41.5413,-3.82707,1014.5
50126,0.148254,9.76566,1.07604,0.35,-0.07,-0.21,25.6389,-42.5252,-1.79974,1014.5
50132,0.143472,9.74653,1.09039,0.42,0.28,-0.28,25.2665,-40.76,-3.71366,1014.54
50138,0.153037,9.7561,1.10473,0.63,-0.07,-0.42,25.5816,-41.0493,-4.02555,1014.54
50144,0.148254,9.77044,1.0856,0.35,0.21,-0.21,26.8993,-42.641,-2.42354,1014.5
50150,0.162602,9.74653,1.06169,0.63,-0.28,-0.07,25.7535,-41.5413,-3.41594,1014.5
50156,0.109995,9.77523,1.07604,0.63,0,-0.28,25.8967,-40.9915,-3.6853,1014.5
50162,0.13869,9.74175,1.0856,0.28,-0.14,-0.49,25.1519,-42.2358,-2.80632,1014.5
50168,0.13869,9.77523,1.07126,0.28,-0.21,-0.49,26.0972,-41.7149,-3.08986,1014.49
50174,0.13869,9.80392,1.033,0.56,0,-0.35,26.2977,-41.1072,-3.89796,1014.49
50180,0.114778,9.8087,1.04735,0.21,-0.28,-0.14,26.3264,-41.6571,-3.57189,1014.51
50186,0.109995,9.82305,1.0856,0.21,-0.42,-0.14,25.6962,-42.0911,-2.90556,1014.51
50192,0.133907,9.78001,1.06169,0.49,0,-0.21,25.5243,-41.5124,-3.08986,1014.51
50198,0.143472,9.76088,1.08082,0,-0.56,-0.28,25.6962,-41.3387,-3.94049,1014.51
50204,0.114778,9.80392,1.07604,0.14,0.14,-0.35,25.5816,-42.4384,-3.92631,1014.51
50210,0.153037,9.78001,1.09517,0.21,0.28,-0.21,25.2951,-42.178,-4.11062,1014.52
50216,0.11956,9.76566,1.09995,0.35,0.35,0.07,26.2977,-40.0075,-4.28074,1014.52
50222,0.153037,9.7561,1.09039,0.35,0.07,0.07,25.8967,-41.6281,-2.89138,1014.51
50228,0.129125,9.77044,1.06648,0.07,0,0.07,25.5816,-41.6571,-2.93391,1014.51
50234,0.153037,9.74653,1.0856,0.63,0.21,-0.28,25.2092,-40.4995,-2.74961,1014.52
50240,0.11956,9.73697,1.13343,0.63,0,-0.35,26.1832,-40.9336,-4.05391,1014.52
50246,0.148254,9.77044,1.06648,-0.07,-0.28,-0.28,25.6389,-42.2937,-3.06151,1014.5
50252,0.129125,9.77044,1.07604,0.84,0,0,26.4123,-41.7149,-2.97645,1014.5
50258,0.143472,9.75131,1.09039,0.07,-0.21,-0.49,25.7535,-40.7021,-4.50758,1014.51
50264,0.13869,9.76566,1.09517,0.77,-0.14,-0.49,25.3811,-42.2069,-3.48682,1014.51
50270,0.148254,9.7561,1.07126,0.63,0,-0.28,25.0946,-41.6571,-3.91214,1014.5
50276,0.114778,9.79914,1.05691,0.42,-0.21,-0.35,26.3264,-40.9625,-3.95467,1014.5
50282,0.129125,9.82305,1.02822,0.42,-0.21,-0.07,25.4097,-42.0622,-3.25999,1014.51
50288,0.105213,9.80392,1.05691,0.42,0,-0.49,25.3238,-41.8307,-3.85543,1014.51
50294,0.0813008,9.78957,1.09039,0.42,-0.14,-0.07,25.2665,-40.7889,-3.3167,1014.51
50300,0.0813008,9.79436,1.05691,0.42,-0.21,-0.14,25.7821,-41.223,-4.32327,1014.49
50306,0.124342,9.81349,1.07604,0,0.07,0.07,24.2925,-42.5542,-4.62099,1014.49
50312,0.153037,9.81349,1.05213,0.14,0.07,0.28,25.2665,-40.9336,-4.23821,1014.49
50318,0.153037,9.78001,1.08082,0.42,0.07,0.07,25.4956,-40.5285,-5.25897,1014.49
50324,0.105213,9.76566,1.1143,-0.07,0.14,-0.14,25.4097,-41.9754,-3.51518,1014.5
50330,0.153037,9.76566,1.07604,0.14,0,0,25.2092,-41.5124,-3.14657,1014.5
50336,0.124342,9.74653,1.08082,0.21,0.14,0.14,25.1519,-41.223,-4.47922,1014.5
50342,0.133907,9.77523,1.07604,0.21,0.21,0.14,25.5243,-42.4674,-4.13897,1014.5
50348,0.124342,9.77044,1.0856,0.21,0.21,0,25.0373,-41.9754,-4.23821,1014.54
50354,0.13869,9.73218,1.06169,-0.07,-0.21,0.07,25.5816,-41.1072,-4.89036,1014.54
50360,0.095648,9.77044,1.06169,0.28,0,-0.14,25.7248,-41.4834,-4.36581,1014.52
50366,0.133907,9.78001,1.06648,0.35,0,0.14,25.1519,-41.7149,-3.88378,1014.52
50372,0.129125,9.8087,1.05213,0,0.28,-0.07,26.1259,-41.3387,-5.01795,1014.52
50378,0.133907,9.81827,1.05213,0,0.07,0.21,25.6102,-41.3387,-4.15315,1014.55
50384,0.11956,9.77044,1.08082,0.21,0.42,0.21,25.1805,-42.9014,-3.16075,1014.55
50390,0.124342,9.79436,1.07604,-0.07,0.56,0.21,25.0659,-41.1651,-3.62859,1014.55
50396,0.0860832,9.80392,1.07604,-0.14,0.14,0.14,25.4956,-41.3677,-3.52935,1014.55
50402,0.11956,9.78001,1.08082,0.28,0,-0.07,25.4956,-41.7149,-4.19568,1014.49
50408,0.071736,9.82783,1.05691,0.14,-0.07,0.35,25.868,-41.7439,-3.6853,1014.49
50414,0.114778,9.81349,1.08082,0.07,0.28,0.42,25.7248,-40.9625,-5.42909,1014.49
50420,0.114778,9.81349,1.03778,0.21,0,0.42,25.2092,-41.3677,-4.96125,1014.49
50426,0.13869,9.83261,1.00909,-0.35,0.07,0.63,25.4097,-42.0622,-4.76277,1014.5
50432,0.11956,9.8087,1.04735,-0.42,-0.21,0.35,25.2951,-41.3387,-4.96125,1014.5
50438,0.153037,9.8087,1.09039,-0.28,-0.21,0.56,25.4383,-41.3387,-4.72023,1014.52
50444,0.13869,9.81349,1.0856,-17.64,0.42,0.49,25.3238,-42.149,-4.15315,1014.52
50450,0.153037,9.78001,1.1143,-0.07,0.14,0.56,25.868,-40.9336,-4.22403,1014.54
50456,0.129125,9.74175,1.09517,-0.42,0.28,0.42,25.6962,-41.6571,-4.45087,1014.54
50462,0.153037,9.79436,1.07604,-17.92,0.14,0.7,25.7821,-42.5542,-4.25239,1014.54
50468,0.172166,9.76566,1.09039,-0.28,0.21,0.28,25.4956,-41.9465,-5.25897,1014.49
50474,0.157819,9.78957,1.09517,-0.28,0.07,0.14,25.4097,-40.731,-4.40834,1014.49
50480,0.11956,9.79436,1.0856,-0.14,0.14,0.28,25.0373,-41.3677,-4.1815,1014.48
50486,0.162602,9.7561,1.09039,-0.14,-0.14,0.56,25.2665,-41.9465,-3.88378,1014.48
50492,0.153037,9.75131,1.10952,-0.07,0,0.21,25.4383,-40.3838,-4.84783,1014.5
50498,0.124342,9.7274,1.13821,-0.21,0.07,0.42,26.4123,-40.7021,-4.20986,1014.5
50504,0.143472,9.75131,1.12865,0.14,0.42,0.14,25.868,-42.2648,-3.47265,1014.52
50510,0.13869,9.75131,1.09995,0.42,-0.21,0.28,25.3811,-41.5992,-3.92631,1014.52
50516,0.143472,9.79914,1.07126,17.71,-0.07,0.21,26.0686,-40.2101,-5.31567,1014.55
50522,0.105213,9.83261,1.02343,0.07,0,0.35,26.2405,-41.3966,-4.47922,1014.55
50528,0.11956,9.83261,1.07126,-0.14,-0.14,0.49,25.5529,-41.9465,-4.66353,1014.53
50534,0.191296,9.7561,1.0856,0,0.14,0.56,25.4383,-41.1651,-4.15315,1014.53
50540,0.191296,9.79914,1.08082,-0.35,0.21,0.56,26.4123,-41.7149,-4.76277,1014.53
50546,0.148254,9.8087,1.08082,0.07,0,0.7,24.9227,-42.2358,-3.35923,1014.47
50552,0.191296,9.75131,1.10952,-0.56,-0.42,0.35,26.1832,-41.3677,-4.50758,1014.47
50558,0.205643,9.71784,1.10473,-0.56,0.42,0.35,25.7821,-41.2519,-4.20986,1014.48
50564,0.191296,9.69392,1.18125,0.35,-0.21,0,24.8368,-42.3805,-3.61442,1014.48
50570,0.167384,9.74175,1.13343,0.07,-0.28,-0.14,24.8941,-41.686,-3.08986,1014.52
50576,0.162602,9.74175,1.08082,-0.21,0,-0.14,25.5243,-40.9915,-3.34505,1014.52
50582,0.143472,9.74175,1.11908,0.14,-0.14,0.14,24.9514,-40.9336,-3.64277,1014.52
50588,0.13869,9.73218,1.1143,0.35,-0.14,0,24.6935,-41.7439,-4.32327,1014.52
50594,0.176949,9.77044,1.1143,0.42,-0.21,-0.35,25.2378,-40.5574,-4.81947,1014.51
50600,0.148254,9.77044,1.10473,0.14,-0.21,-0.21,25.6962,-41.4834,-3.96885,1014.51
50606,0.153037,9.74175,1.12386,0.77,-17.85,0.07,24.8654,-42.5542,-3.01898,1014.53
50612,0.13869,9.76566,1.1143,0.77,-0.35,-0.07,25.6102,-41.2519,-4.4934,1014.53
50618,0.133907,9.79914,1.09517,0.56,0,-0.07,25.2665,-40.9047,-5.31567,1014.5
50624,0.176949,9.77044,1.09039,0.21,0,-0.21,24.9227,-42.0622,-3.89796,1014.5
50630,0.153037,9.77044,1.09039,0.21,0.14,0.07,26.0972,-41.8018,-5.34403,1014.5
50636,0.143472,9.77523,1.09039,0.21,0.07,-0.07,25.5243,-40.6442,-4.53593,1014.49
50642,0.148254,9.81349,1.06648,-0.14,0,-0.14,25.8394,-41.8886,-4.79112,1014.49
50648,0.157819,9.77044,1.07126,-0.07,0.21,-0.35,25.1805,-41.4545,-4.20986,1014.5
50654,0.153037,9.79914,1.09039,0.28,0.56,-0.07,24.98,-40.76,-4.19568,1014.5
50660,0.157819,9.74175,1.09995,0.28,0,0,24.8941,-41.8307,-4.43669,1014.52
50666,0.143472,9.75131,1.11908,0.42,0.49,-0.07,25.2092,-41.6281,-4.62099,1014.52
50672,0.124342,9.74653,1.10473,0.56,-0.14,0.14,25.868,-40.6442,-4.22403,1014.52
50678,0.143472,9.81349,1.06648,0.14,-0.07,-0.14,25.4383,-41.5992,-4.22403,1014.52
50684,0.162602,9.76566,1.07604,0.35,-0.14,-0.07,26.0399,-42.5542,-4.29492,1014.53
50690,0.162602,9.75131,1.09039,0.77,-0.21,-0.21,25.7535,-41.7149,-4.97542,1014.53
50696,0.162602,9.74175,1.12386,0.14,17.57,-0.07,25.0086,-41.223,-4.1815,1014.5
50702,0.129125,9.76566,1.09995,0.14,-0.07,0.07,25.2665,-42.0043,-4.97542,1014.5
50708,0.157819,9.74175,1.10473,0.77,-0.07,-0.63,25.5816,-41.9465,-4.59264,1014.5
50714,0.186514,9.73218,1.09995,0.21,17.78,-0.7,25.1805,-40.4416,-4.86201,1014.51
50720,0.153037,9.7274,1.10473,0.77,-0.14,-0.49,25.4097,-42.0043,-5.27314,1014.51
50726,0.162602,9.75131,1.11908,0.63,-0.42,-0.49,25.1519,-42.3516,-3.25999,1014.49
50732,0.114778,9.79436,1.09517,0.28,-0.35,-0.63,25.3524,-40.9047,-4.33745,1014.49
50738,0.148254,9.80392,1.04735,0.63,-0.28,-0.07,25.7821,-40.8757,-3.65695,1014.48
50744,0.176949,9.7561,1.07126,1.19,-0.21,-0.14,24.2925,-41.8307,-3.64277,1014.48
50750,0.129125,9.76566,1.12386,0.35,17.57,-0.7,24.7795,-41.0783,-3.57189,1014.52
50756,0.143472,9.78001,1.09517,0.77,-0.28,-0.14,26.1259,-40.731,-5.00378,1014.52
50762,0.129125,9.79914,1.09039,0.77,-0.28,-0.14,24.98,-41.194,-4.35163,1014.5
50768,0.129125,9.84218,1.04735,0.42,-0.49,-0.42,25.8394,-41.1362,-4.12479,1014.5
50774,0.167384,9.76566,1.10952,0.63,-0.35,-0.07,25.3238,-40.9625,-3.86961,1014.5
50780,0.13869,9.74175,1.12386,0.56,0.21,-0.42,25.868,-42.0622,-4.52175,1014.5
50786,0.162602,9.76566,1.12386,0.56,-0.07,-0.77,25.6675,-41.9465,-2.62202,1014.5
50792,0.11956,9.77523,1.08082,0.77,0.07,0.07,25.7248,-41.5413,-4.43669,1014.5
50798,0.172166,9.77044,1.1143,0.49,0.35,-0.21,26.4123,-40.9625,-3.9972,1014.5
50804,0.162602,9.75131,1.1143,0.7,-17.92,-0.56,25.8394,-42.2358,-4.8053,1014.53
50810,0.148254,9.77044,1.09039,0.7,0.07,-0.42,25.5816,-41.3387,-4.74859,1014.53
50816,0.109995,9.8087,1.0856,0.91,-0.14,-0.56,25.2951,-41.0783,-5.68428,1014.51
50822,0.114778,9.78957,1.09995,0.42,-0.14,-0.28,25.5816,-41.6571,-4.84783,1014.51
50828,0.153037,9.78957,1.09995,0.28,-0.14,0,24.8654,-41.1651,-4.09644,1014.51
50834,0.153037,9.78479,1.05213,0.91,0.07,-0.42,25.2951,-40.4706,-3.74201,1014.51
50840,0.124342,9.79914,1.07126,0,-0.28,0.07,25.467,-41.5413,-4.97542,1014.51
50846,0.114778,9.78479,1.08082,0.14,0.07,-0.14,25.5243,-41.2809,-3.6853,1014.51
50852,0.105213,9.76088,1.10952,0.42,0.21,0,25.8108,-40.9625,-3.95467,1014.49
50858,0.157819,9.77044,1.13821,0.49,0,-17.78,25.0086,-40.9915,-4.40834,1014.49
50864,0.129125,9.76088,1.09039,0.28,-0.28,-0.21,25.2951,-42.0043,-3.25999,1014.54
50870,0.167384,9.75131,1.11908,0.35,-0.21,-0.21,25.7535,-41.1651,-3.74201,1014.54
50876,0.129125,9.73218,1.11908,0.49,-0.28,-0.28,25.7248,-40.6442,-3.45847,1014.54
50882,0.157819,9.78957,1.09517,0.77,-0.42,-0.42,25.0946,-41.6281,-3.47265,1014.51
50888,0.133907,9.79914,1.0856,0.63,0,-0.14,25.4383,-41.2519,-3.3167,1014.51
50894,0.157819,9.78479,1.09039,0.28,-0.07,-0.07,25.0946,-40.3548,-3.69948,1014.53
50900,0.162602,9.78479,1.09995,0.28,0.14,0,25.4956,-41.4256,-3.33087,1014.53
50906,0.105213,9.79914,1.08082,0.21,-0.35,-0.14,24.493,-41.5992,-2.72126,1014.5
50912,0.109995,9.81349,1.04735,0.77,-0.28,17.71,25.7821,-41.1651,-4.02555,1014.5
50918,0.114778,9.8087,1.05213,0.07,-0.21,0.07,25.5816,-40.6731,-4.33745,1014.52
50924,0.162602,9.76088,1.09995,-0.21,0.14,0.07,25.1232,-42.0911,-4.06809,1014.52
50930,0.176949,9.75131,1.10952,0.84,-0.21,17.85,25.8108,-40.9047,-2.67873,1014.52
50936,0.153037,9.76566,1.10952,0.07,-0.07,-0.14,26.1259,-40.5863,-3.30252,1014.52
50942,0.153037,9.78479,1.12865,-0.07,-0.14,0,25.4097,-42.0911,-2.89138,1014.52
50948,0.129125,9.74653,1.13821,0.98,-0.56,17.78,25.1232,-41.9465,-2.5086,1014.52
50954,0.162602,9.78001,1.09995,0.28,0.21,-0.28,25.5816,-40.9047,-3.25999,1014.52
50960,0.172166,9.74653,1.09039,0.28,0.07,-0.21,25.6389,-41.7149,-4.13897,1014.52
50966,0.176949,9.77044,1.09517,0.91,-0.49,17.5,25.3238,-41.9754,-3.89796,1014.52
50972,0.13869,9.7561,1.09995,0.49,0,-0.56,24.9514,-40.8178,-4.22403,1014.51
50978,0.162602,9.74653,1.10473,0.42,0.14,-0.35,25.6675,-41.223,-3.89796,1014.51
50984,0.162602,9.78957,1.05691,0.7,-0.21,-0.35,25.5816,-43.0461,-3.91214,1014.5
50990,0.157819,9.78479,1.033,0.14,0.21,-0.14,25.5529,-41.194,-3.89796,1014.5
50996,0.105213,9.79436,1.05691,-0.35,0.56,0.21,25.6389,-40.6153,-5.24479,1014.51
51002,0.148254,9.78479,1.1143,0.35,0,-0.07,25.5529,-42.2358,-3.88378,1014.51
51008,0.143472,9.77044,1.10473,0.14,0.35,-0.14,25.0659,-42.2358,-4.13897,1014.49
51014,0.153037,9.79436,1.09039,0,0.07,0.14,26.0113,-40.8468,-4.23821,1014.49
51020,0.13869,9.78957,1.08082,0.7,0.28,0.07,25.0373,-41.5702,-3.69948,1014.49
51026,0.129125,9.74175,1.12865,0,-0.42,0,25.5243,-42.3516,-4.4934,1014.49
51032,0.162602,9.73697,1.12865,0.98,-0.07,0.07,25.3238,-41.0204,-3.85543,1014.5
51038,0.153037,9.7274,1.10473,0.7,-0.07,-0.28,25.0086,-41.6571,-4.56429,1014.5
51044,0.143472,9.76088,1.10473,0.56,0.07,0.14,25.2951,-42.0622,-3.1891,1014.5
51050,0.148254,9.75131,1.1143,0.84,0.14,0.21,25.1519,-41.8018,-3.10404,1014.51
51056,0.172166,9.78001,1.07604,0.49,0.07,0.35,25.4383,-41.3966,-4.01138,1014.51
51062,0.176949,9.78479,1.06169,0.91,-0.14,-0.28,25.2665,-42.0622,-3.98302,1014.51
51068,0.13869,9.79436,1.05213,0.49,0.14,0,25.0946,-41.7728,-4.13897,1014.51
51074,0.124342,9.79914,1.05691,0.56,0.14,0.14,25.7535,-41.8886,-4.19568,1014.51
51080,0.167384,9.78479,1.06648,0.42,0.07,0,26.0113,-41.3966,-5.3015,1014.51
51086,0.148254,9.78957,1.07126,0.07,0.14,-0.07,26.0113,-42.178,-3.40176,1014.52
51092,0.148254,9.77044,1.09039,0.14,0.07,-0.14,25.4097,-41.6571,-2.40936,1014.52
51098,0.157819,9.75131,1.13343,0.07,0.21,0.21,25.7821,-41.3098,-4.8053,1014.5
51104,0.162602,9.74653,1.11908,0.07,-0.42,-0.07,25.4383,-42.6699,-3.92631,1014.5
51110,0.167384,9.7274,1.13343,0.77,-0.42,0.21,24.9514,-41.5413,-4.39416,1014.55
51116,0.13869,9.75131,1.12386,0.42,-0.07,-0.14,25.467,-40.9915,-4.12479,1014.55
51122,0.0908656,9.82305,1.09039,0.14,-0.07,0.14,25.8967,-42.4963,-3.37341,1014.5
51128,0.157819,9.83261,1.02343,0.56,-0.35,0.07,25.6389,-41.5992,-2.84885,1014.5
51134,0.157819,9.78957,1.09039,0.49,-0.28,0.14,25.4097,-41.8018,-5.61339,1014.5
51140,0.181731,9.74653,1.12865,0.63,0.21,-0.14,25.5529,-41.8307,-3.72783,1014.52
51146,0.186514,9.74175,1.09039,0.28,0.21,-0.35,25.6389,-42.4095,-4.25239,1014.52
51152,0.157819,9.73218,1.1143,0.21,-0.21,-0.35,26.0113,-41.3966,-4.25239,1014.51
51158,0.172166,9.76566,1.0856,0.42,0.35,0,25.8108,-41.3966,-4.8053,1014.51
51164,0.143472,9.74653,1.09039,0.7,0.07,-0.42,24.8368,-42.2069,-4.40834,1014.51
51170,0.148254,9.78957,1.04735,0.42,-0.21,-0.49,24.8654,-40.9915,-3.84125,1014.51
51176,0.148254,9.75131,1.09517,0.14,0.14,-0.14,25.2378,-40.7889,-3.38758,1014.52
51182,0.167384,9.76088,1.07126,0.63,0.07,-0.35,25.0086,-42.4674,-3.74201,1014.52
51188,0.133907,9.74175,1.11908,0.84,-0.21,-0.49,25.6962,-40.7021,-4.1815,1014.53
51194,0.13869,9.77044,1.0856,0.35,0,-0.28,25.8967,-40.5863,-3.38758,1014.53
51200,0.167384,9.76566,1.12865,0.91,0.07,-0.56,25.2951,-41.8596,-4.08226,1014.52
51206,0.172166,9.78001,1.09995,0.7,-0.14,-0.7,25.1519,-42.0043,-3.38758,1014.52
51212,0.114778,9.76566,1.10473,0.77,-0.21,-0.42,25.1519,-40.5574,-3.84125,1014.52
51218,0.129125,9.8087,1.07604,0.91,-0.14,-0.42,25.8108,-41.5702,-3.28834,1014.53
51224,0.148254,9.78957,1.12386,0.7,-0.28,-0.42,25.2951,-42.2648,-4.20986,1014.53
51230,0.143472,9.79914,1.0856,0,-0.21,0.14,25.7535,-41.2809,-3.71366,1014.51
51236,0.153037,9.78957,1.0856,1.19,0.14,-0.28,25.7248,-40.0654,-3.84125,1014.51
51242,0.162602,9.81827,1.08082,0.56,-0.21,-0.63,25.4383,-42.2069,-3.58606,1014.5
51248,0.148254,9.77523,1.07604,0.35,-0.07,-0.28,24.9227,-41.6281,-3.95467,1014.5
51254,0.157819,9.77044,1.1143,1.05,-0.28,-0.42,25.8967,-41.0204,-4.64935,1014.47
51260,0.157819,9.74175,1.09039,0.63,-0.21,-0.7,25.3238,-41.686,-4.32327,1014.47
51266,0.143472,9.73218,1.09995,0.35,-0.07,-0.28,25.7248,-41.9754,-4.46505,1014.51
51272,0.13869,9.73697,1.1143,0.77,0.35,-0.49,25.2378,-40.6731,-3.33087,1014.51
51278,0.13869,9.77523,1.1143,0.7,-0.14,-0.56,25.4383,-42.1201,-4.1815,1014.53
51284,0.153037,9.76566,1.06648,0.7,-0.49,-0.63,25.2378,-42.2069,-3.3167,1014.53
51290,0.157819,9.75131,1.09995,0.49,0,-0.63,25.0946,-40.9336,-3.96885,1014.55
51296,0.157819,9.77044,1.09995,0.63,0.07,-0.49,25.6389,-40.8468,-4.09644,1014.55
51302,0.129125,9.7561,1.10473,0.98,-0.35,-0.35,25.868,-42.178,-4.13897,1014.55
51308,0.157819,9.78001,1.06648,0.63,0,-0.77,25.868,-41.5413,-4.08226,1014.51
51314,0.11956,9.78001,1.08082,0.56,-0.49,-0.77,26.2977,-40.6731,-4.70606,1014.51
51320,0.114778,9.79914,1.08082,0.91,-0.35,-0.28,25.5243,-41.223,-5.13137,1014.45
51326,0.095648,9.77044,1.1143,0.77,-0.21,-0.14,25.4097,-41.8886,-3.62859,1014.45
51332,0.148254,9.79914,1.09517,0.56,-0.28,-0.42,25.5816,-40.4706,-3.58606,1014.48
51338,0.109995,9.80392,1.03778,0.49,-0.42,0.21,25.2951,-41.194,-3.40176,1014.48
51344,0.11956,9.78957,1.05213,0.49,-0.28,-0.35,25.6675,-41.9754,-4.47922,1014.48
51350,0.129125,9.8087,1.07126,0.28,-0.42,-0.7,24.9227,-41.1651,-3.65695,1014.48
51356,0.11956,9.79436,1.07126,0.56,-0.07,0.14,25.4383,-40.9047,-3.34505,1014.49
51362,0.13869,9.80392,1.06648,0.35,-0.14,-0.14,25.1232,-42.0043,-3.03315,1014.49
51368,0.148254,9.76088,1.06169,0.21,0.35,-0.14,25.6962,-41.9754,-4.09644,1014.5
51374,0.162602,9.7561,1.0856,0.91,0.14,-0.21,25.3238,-40.7889,-3.85543,1014.5
51380,0.153037,9.7274,1.10473,0.28,0.14,-0.42,25.8394,-41.3098,-4.94707,1014.5
51386,0.124342,9.7274,1.09995,0.49,0,-0.28,25.2951,-42.0911,-3.74201,1014.48
51392,0.148254,9.78001,1.09039,0.42,-0.28,-0.21,25.9826,-40.9336,-4.16733,1014.48
51398,0.133907,9.76088,1.11908,0.63,-0.49,-0.35,25.7248,-41.2519,-4.77694,1014.51
51404,0.143472,9.74653,1.09039,0.84,-0.56,-0.42,25.1232,-41.9465,-3.45847,1014.51
51410,0.133907,9.76566,1.10473,0.91,0.28,-0.21,25.1805,-41.7728,-4.15315,1014.48
51416,0.109995,9.78957,1.07126,0.42,-0.21,-0.42,25.6675,-40.6442,-4.15315,1014.48
51422,0.143472,9.77523,1.05691,0.42,0.42,-0.21,25.8394,-41.8018,-3.91214,1014.5
51428,0.172166,9.78001,1.07604,0.63,0.21,0,25.6962,-42.149,-3.07569,1014.5
51434,0.129125,9.78957,1.10952,0.77,0.7,-0.42,25.467,-41.194,-3.21746,1014.5
51440,0.153037,9.77523,1.05213,0.77,-0.56,-0.35,25.7535,-41.8596,-3.34505,1014.5
51446,0.143472,9.74653,1.08082,0.28,-0.63,-0.28,25.6102,-42.2648,-3.501,1014.47
51452,0.11956,9.78001,1.09995,0.7,-0.91,-0.14,25.9253,-41.4545,-3.40176,1014.47
51458,0.172166,9.78957,1.06648,0.7,0,-0.35,25.3811,-41.8018,-4.26657,1014.5
51464,0.172166,9.74175,1.13821,0.91,0.35,-0.56,25.9826,-42.4095,-3.74201,1014.5
51470,0.133907,9.75131,1.09995,0.56,0.21,-0.42,25.8967,-41.3677,-4.29492,1014.5
51476,0.124342,9.76088,1.0856,0.84,0.21,-0.21,25.6389,-41.1651,-4.56429,1014.47
51482,0.133907,9.80392,1.06648,0.49,-0.49,-0.49,25.0373,-41.686,-3.08986,1014.47
51488,0.157819,9.76088,1.09039,0.91,-0.14,-0.14,24.8368,-41.3387,-3.13239,1014.48
51494,0.133907,9.7561,1.11908,1.05,-0.28,-0.35,25.0086,-40.5863,-3.20328,1014.48
51500,0.148254,9.76566,1.07604,0.7,-0.42,-0.42,24.6649,-41.7149,-3.61442,1014.49
51506,0.13869,9.77044,1.07126,0.7,-0.21,-0.21,25.3238,-41.8018,-3.33087,1014.49
51512,0.148254,9.79436,1.06648,0.84,-0.21,-0.35,25.1232,-41.2809,-3.52935,1014.51
51518,0.124342,9.79914,1.07604,0.7,-0.49,-0.28,25.4097,-40.8757,-4.94707,1014.51
51524,0.148254,9.78479,1.0856,0.91,-0.35,-0.35,25.3238,-41.3098,-3.35923,1014.52
51530,0.129125,9.77044,1.0856,0.42,-0.14,-0.56,25.3524,-41.3966,-4.06809,1014.52
51536,0.133907,9.77044,1.07126,0.7,-0.35,-0.49,24.4357,-41.0204,-4.11062,1014.48
51542,0.133907,9.77523,1.07126,0.56,-0.35,-0.28,25.6675,-41.5413,-4.05391,1014.48
51548,0.153037,9.77044,1.05213,0.49,-0.42,-0.49,25.0086,-41.0493,-3.30252,1014.48
51554,0.143472,9.77523,1.07604,0.35,0,-0.28,24.9514,-41.3098,-4.20986,1014.49
51560,0.148254,9.76088,1.08082,0.21,-0.28,-0.49,25.4383,-41.7439,-4.6777,1014.49
51566,0.095648,9.77044,1.07126,0.35,0,-0.49,25.7821,-42.0333,-3.43011,1014.46
51572,0.133907,9.81827,1.02822,0.56,-0.28,-0.21,25.467,-41.2519,-3.94049,1014.46
51578,0.109995,9.83261,1.02343,0.14,0.28,-0.35,25.5243,-41.223,-3.21746,1014.55
51584,0.129125,9.79436,1.04735,-0.35,-0.28,-0.07,24.8654,-42.0043,-3.501,1014.55
51590,0.148254,9.74653,1.11908,0,0,0.35,26.0399,-41.7149,-4.3091,1014.5
51596,0.148254,9.73218,1.13821,0.42,-0.35,-0.14,26.5842,-40.5863,-3.67113,1014.5
51602,0.133907,9.74653,1.10473,0.35,-0.28,0,25.2378,-41.5124,-3.23163,1014.51
51608,0.143472,9.74653,1.09517,0.98,0.14,0,25.4383,-41.8018,-3.86961,1014.51
51614,0.157819,9.78479,1.06648,0.63,0.14,-0.35,26.355,-40.7889,-4.60682,1014.51
51620,0.133907,9.7561,1.07126,0.63,0.63,0,26.0686,-41.7439,-4.01138,1014.51
51626,0.181731,9.77044,1.06169,0.77,-0.42,-0.21,25.3811,-42.149,-3.44429,1014.51
51632,0.143472,9.7561,1.04735,0.49,-0.07,-0.21,26.9566,-41.4545,-3.55771,1014.52
51638,0.129125,9.7561,1.08082,0.28,-0.63,-0.35,25.8967,-41.0204,-3.69948,1014.52
51644,0.148254,9.74175,1.06648,0.49,-0.07,-0.14,25.2665,-42.7857,-4.42251,1014.53
51650,0.133907,9.73697,1.09039,0.84,-0.42,-0.35,25.4383,-41.4545,-3.98302,1014.53
51656,0.157819,9.74175,1.09039,0.56,0.14,-0.42,25.9253,-40.9336,-3.92631,1014.49
51662,0.148254,9.77044,1.07126,0.35,-0.07,-0.56,25.8394,-41.5992,-4.56429,1014.49
51668,0.153037,9.76566,1.0856,1.05,-0.49,-0.7,24.7508,-41.8596,-4.19568,1014.5
51674,0.143472,9.81349,1.05213,0.56,0.14,-0.42,26.0113,-40.4706,-3.77037,1014.5
51680,0.124342,9.78957,1.03778,0.63,0.14,-0.35,26.441,-41.6281,-4.35163,1014.53
51686,0.10043,9.81827,1.033,0.28,-0.14,-0.35,24.9227,-42.0043,-3.75619,1014.53
51692,0.129125,9.81827,1.07604,0.42,-0.35,0.07,25.2951,-41.4545,-4.06809,1014.47
51698,0.10043,9.80392,1.05213,0.35,-0.07,-0.07,25.4097,-41.223,-4.15315,1014.47
51704,0.148254,9.77044,1.09995,0.49,-0.28,-0.07,24.3498,-42.0333,-3.88378,1014.5
51710,0.143472,9.79436,1.09039,0.49,0,-0.07,25.467,-41.0493,-3.23163,1014.5
51716,0.157819,9.78479,1.10473,0.7,0.07,-0.07,25.1805,-41.1072,-3.47265,1014.5
51722,0.162602,9.78957,1.09039,0.49,-0.21,-0.28,25.1519,-42.0333,-4.74859,1014.51
51728,0.13869,9.78001,1.05213,0.63,-0.35,0.07,25.2665,-41.4545,-3.94049,1014.51
51734,0.0908656,9.79436,1.01865,0.28,-0.21,0.28,25.8967,-41.3387,-4.16733,1014.52
51740,0.11956,9.86131,1.01387,0.56,-0.28,-0.42,25.7821,-41.5992,-3.65695,1014.52
51746,0.176949,9.78001,1.07604,0.14,-0.28,0.14,25.3811,-42.0333,-3.6853,1014.53
51752,0.157819,9.79436,1.06648,0.42,-0.07,0.07,25.9253,-41.3387,-4.33745,1014.53
51758,0.133907,9.8374,0.918221,-0.07,-0.28,-0.21,25.5529,-41.3387,-3.34505,1014.52
51764,0.224773,9.52654,1.27212,1.19,-0.63,-0.07,25.5816,-43.1908,-4.01138,1014.52
51770,0.306074,9.81827,0.989957,0.56,0.91,-0.35,25.6962,-41.9465,-3.54353,1014.52
51776,0.0621712,9.76088,1.09039,1.4,-0.63,-0.49,26.1832,-40.9047,-3.62859,1014.52
51782,0.186514,9.88044,0.95648,0.28,0.7,-0.21,25.6389,-42.3227,-2.56531,1014.5
51788,0.114778,9.76566,1.14778,0.14,-0.14,-0.28,25.7535,-42.0333,-4.12479,1014.5
51794,0.13869,9.77044,1.09039,1.05,0.14,-0.35,25.6389,-41.5702,-4.05391,1014.5
51800,0.129125,9.79914,1.03778,0.98,-0.14,0.07,25.2951,-41.4834,-3.62859,1014.49
51806,0.11956,9.8087,1.05213,-0.28,-0.42,-0.35,25.5529,-42.5542,-3.91214,1014.49
51812,0.143472,9.78001,1.04256,0.63,0,0.28,25.7535,-40.8757,-4.26657,1014.52
51818,0.11956,9.78001,1.0856,0.42,0.07,-0.21,25.9826,-41.3966,-4.16733,1014.52
51824,0.095648,9.78957,1.04256,0.14,-0.35,-0.21,25.8108,-42.4384,-2.21088,1014.51
51830,0.105213,9.8087,1.04256,0.42,-0.21,0.28,25.4956,-41.1362,-3.88378,1014.51
51836,0.167384,9.78479,1.07126,0.21,0.56,0,25.868,-40.731,-4.35163,1014.52
