TimeSinceCollection,Timestamp,AccX,AccY,AccZ,AngleRoll,AnglePitch,AngleYaw,AngularVelX,AngularVelY,AngularVelZ,Q1,Q2,Q3,Q4,MagX,MagY,MagZ,Height,Airpressure
0,202666,-9.79521,0.119629,-0.248828,155.385,88.2642,99.8108,0,0,0,0.618927,0.338043,0.631989,-0.321106,-27,19.8,-29.4667,-7069,-28895
6,202672,-9.80957,0.129199,-0.272754,155.385,88.2642,99.8108,0,0,0,0.618927,0.338043,0.631989,-0.321106,-27.025,19.7667,-29.4917,-7069,-28895
12,202678,-9.79043,0.143555,-0.272754,155.38,88.2642,99.8108,0,0,0,0.618958,0.338043,0.631989,-0.321106,-27.0417,19.7667,-29.5,-7069,-28895
18,202684,-9.79043,0.129199,-0.282324,155.38,88.2642,99.8108,0,0,0,0.618958,0.338043,0.631989,-0.321106,-27.0583,19.7667,-29.5333,-7069,-28895
24,202690,-9.80957,0.129199,-0.272754,155.38,88.2642,99.8108,0,0,0,0.618958,0.338043,0.631989,-0.321075,-27.0667,19.7667,-29.5417,-7069,-28895
30,202696,-9.80957,0.119629,-0.258398,155.38,88.2642,99.8108,0,0,0,0.618958,0.338013,0.631989,-0.321075,-27.0583,19.7833,-29.5167,-7069,-28895
36,202702,-9.80957,0.133984,-0.277539,155.38,88.2642,99.8108,0,0,0,0.618958,0.338013,0.631989,-0.321075,-27.05,19.7667,-29.5167,-7069,-28895
42,202708,-9.79521,0.129199,-0.263184,155.38,88.2642,99.8108,0,0,0,0.618958,0.338013,0.632019,-0.321075,-27.0333,19.7583,-29.5167,-7069,-28895
48,202714,-9.78086,0.105273,-0.248828,155.38,88.2642,99.8108,0,0,0,0.618958,0.338013,0.632019,-0.321075,-27.025,19.7583,-29.5333,-7069,-28895
54,202720,-9.81436,0.114844,-0.287109,155.38,88.2642,99.8108,0,0,0,0.618958,0.338013,0.632019,-0.321075,-27.0417,19.75,-29.5667,-7069,-28895
60,202726,-9.79521,0.124414,-0.277539,155.38,88.2642,99.8108,0,0,0,0.618958,0.338013,0.632019,-0.321045,-27.025,19.7583,-29.575,-7069,-28895
66,202732,-9.81436,0.129199,-0.29668,155.38,88.2642,99.8108,0,0,0,0.618958,0.338013,0.632019,-0.321045,-27.0083,19.775,-29.6,-7069,-28895
72,202738,-9.80479,0.133984,-0.291895,155.38,88.2642,99.8108,0,0,0,0.618958,0.338013,0.632019,-0.321045,-26.975,19.8083,-29.6083,-7069,-28895
78,202744,-9.80957,0.133984,-0.29668,155.38,88.2642,99.8163,0,0,0,0.618958,0.338013,0.632019,-0.321045,-26.95,19.8333,-29.6417,-7069,-28895
84,202750,-9.80957,0.13877,-0.272754,155.38,88.2642,99.8163,0,0,0,0.618958,0.338013,0.632019,-0.321045,-26.9417,19.85,-29.6917,-7069,-28895
90,202756,-9.81914,0.133984,-0.287109,155.38,88.2642,99.8163,0,0,0,0.618958,0.337982,0.632019,-0.321045,-26.95,19.8333,-29.7167,-7069,-28895
96,202762,-9.80479,0.129199,-0.277539,155.374,88.2642,99.8163,0,0,0,0.618958,0.337982,0.632019,-0.321045,-26.9583,19.825,-29.725,-7069,-28895
102,202768,-9.79521,0.114844,-0.267969,155.374,88.2642,99.8163,0,0,0,0.618958,0.337982,0.632019,-0.321014,-26.9667,19.825,-29.6917,-7069,-28895
108,202774,-9.8,0.0861328,-0.258398,155.374,88.2642,99.8163,0,0,0,0.618958,0.337982,0.632019,-0.321014,-26.9667,19.8333,-29.675,-7069,-28895
114,202780,-9.80479,0.124414,-0.253613,155.38,88.2642,99.8163,0,0,0,0.618958,0.337982,0.632019,-0.321014,-26.95,19.8667,-29.7,-7069,-28895
120,202786,-9.81436,0.114844,-0.272754,155.38,88.2642,99.8163,0,0,0,0.618958,0.337982,0.632019,-0.321014,-26.95,19.9167,-29.775,-7069,-28895
126,202792,-9.80957,0.129199,-0.272754,155.38,88.2642,99.8163,0,0,0,0.618958,0.337982,0.632019,-0.321014,-26.95,19.9083,-29.7917,-7069,-28895
132,202798,-9.81914,0.114844,-0.287109,155.38,88.2642,99.8163,0,0,0,0.618958,0.337982,0.632019,-0.321014,-26.9583,19.8917,-29.7667,-7069,-28895
138,202804,-9.79043,0.13877,-0.263184,155.38,88.2642,99.8163,0,0,0,0.618958,0.337982,0.632019,-0.321014,-26.9583,19.875,-29.7333,-7069,-28895
144,202810,-9.8,0.129199,-0.244043,155.38,88.2642,99.8163,0,0,0,0.618958,0.337982,0.632019,-0.321014,-26.95,19.8583,-29.6917,-7069,-28895
150,202816,-9.80479,0.105273,-0.267969,155.38,88.2642,99.8163,0,0,0,0.618958,0.338013,0.632019,-0.321014,-26.925,19.825,-29.525,-7069,-28895
156,202822,-9.79521,0.100488,-0.272754,155.38,88.2642,99.8163,0,0,0,0.618958,0.338013,0.632019,-0.321045,-26.95,19.8417,-29.5167,-7069,-28895
162,202828,-9.8,0.114844,-0.277539,155.385,88.2642,99.8218,0,0,0,0.618958,0.338013,0.632019,-0.321045,-26.975,19.875,-29.5083,-7069,-28895
168,202834,-9.80957,0.110059,-0.253613,155.385,88.2642,99.8218,0,0,0,0.618958,0.338013,0.632019,-0.321045,-27.0083,19.9167,-29.55,-7069,-28895
174,202840,-9.80957,0.114844,-0.263184,155.385,88.2587,99.8218,0,0,0,0.618958,0.338013,0.632019,-0.321045,-27.0417,19.9583,-29.6167,-7069,-28895
180,202846,-9.8,0.114844,-0.253613,155.385,88.2642,99.8218,0,0,0,0.618958,0.338043,0.632019,-0.321045,-27.0417,19.975,-29.6167,-7069,-28895
186,202852,-9.81914,0.119629,-0.248828,155.391,88.2587,99.8218,0,0,0,0.618958,0.338043,0.632019,-0.321075,-27.025,19.975,-29.625,-7069,-28895
192,202858,-9.80957,0.110059,-0.277539,155.391,88.2587,99.8218,0,0,0,0.618927,0.338043,0.632019,-0.321075,-27.0083,19.9667,-29.625,-7069,-28895
198,202864,-9.80957,0.114844,-0.277539,155.391,88.2587,99.8218,0,0,0,0.618927,0.338043,0.632019,-0.321075,-26.9833,19.95,-29.625,-7069,-28895
204,202870,-9.77607,0.100488,-0.258398,155.396,88.2587,99.8218,0,0,0,0.618927,0.338043,0.632019,-0.321075,-26.9333,19.9083,-29.575,-7069,-28895
210,202876,-9.79043,0.105273,-0.291895,155.402,88.2587,99.8218,0,0,0,0.618927,0.338074,0.631989,-0.321106,-26.925,19.9167,-29.5667,-7069,-28895
216,202882,-9.80957,0.114844,-0.244043,155.402,88.2587,99.8218,0,0,0,0.618896,0.338104,0.631989,-0.321136,-26.9167,19.9333,-29.575,-7069,-28895
222,202888,-9.80957,0.114844,-0.258398,155.407,88.2587,99.8218,0,0,0,0.618896,0.338104,0.631989,-0.321136,-26.9333,19.95,-29.5417,-7069,-28895
228,202894,-9.80479,0.124414,-0.248828,155.407,88.2587,99.8218,0,0,0,0.618896,0.338135,0.631958,-0.321167,-26.9333,19.9583,-29.5083,-7069,-28895
234,202900,-9.80957,0.105273,-0.267969,155.413,88.2642,99.8218,0,0,0,0.618896,0.338135,0.631958,-0.321167,-26.9333,19.9083,-29.3917,-7069,-28895
240,202906,-9.80957,0.119629,-0.258398,155.413,88.2587,99.8218,0,0,0,0.618866,0.338165,0.631958,-0.321198,-26.9333,19.8833,-29.3583,-7069,-28895
246,202912,-9.8,0.124414,-0.244043,155.418,88.2587,99.8218,0,0,0,0.618866,0.338165,0.631958,-0.321198,-26.9167,19.85,-29.35,-7069,-28895
252,202918,-9.80957,0.124414,-0.277539,155.418,88.2642,99.8273,0,0,0,0.618866,0.338165,0.631958,-0.321198,-26.9083,19.825,-29.3667,-7069,-28895
258,202924,-9.80957,0.124414,-0.29668,155.418,88.2587,99.8273,0,0,0,0.618866,0.338165,0.631927,-0.321198,-26.8917,19.8,-29.3917,-7069,-28895
264,202930,-9.80479,0.129199,-0.239258,155.424,88.2587,99.8273,0,0,0,0.618866,0.338196,0.631927,-0.321228,-26.875,19.775,-29.45,-7069,-28895
270,202936,-9.81914,0.114844,-0.244043,155.424,88.2642,99.8273,0,0,0,0.618866,0.338196,0.631927,-0.321228,-26.8667,19.7667,-29.475,-7069,-28895
276,202942,-9.80957,0.114844,-0.267969,155.424,88.2642,99.8273,0,0,0,0.618835,0.338196,0.631927,-0.321228,-26.8583,19.7583,-29.4917,-7069,-28895
282,202948,-9.8,0.119629,-0.267969,155.429,88.2587,99.8273,0,0,0,0.618835,0.338196,0.631927,-0.321228,-26.8583,19.7583,-29.4583,-7069,-28895
288,202954,-9.8,0.110059,-0.263184,155.429,88.2642,99.8273,0,0,0,0.618835,0.338226,0.631927,-0.321259,-26.8583,19.7583,-29.4333,-7069,-28895
294,202960,-9.78086,0.114844,-0.277539,155.429,88.2642,99.8273,0,0,0,0.618835,0.338226,0.631927,-0.321259,-26.9,19.7667,-29.3833,-7069,-28895
300,202966,-9.8,0.133984,-0.267969,155.435,88.2642,99.8273,0,0,0,0.618835,0.338226,0.631897,-0.321259,-26.9083,19.7583,-29.3583,-7069,-28895
306,202972,-9.80479,0.124414,-0.263184,155.435,88.2642,99.8273,0,0,0,0.618835,0.338226,0.631897,-0.321289,-26.925,19.7583,-29.3583,-7069,-28895
312,202978,-9.8335,0.100488,-0.29668,155.435,88.2642,99.8273,0,0,0,0.618835,0.338257,0.631897,-0.321289,-26.9417,19.7583,-29.35,-7069,-28895
318,202984,-9.79043,0.114844,-0.272754,155.44,88.2642,99.8273,0,0,0,0.618805,0.338257,0.631897,-0.321289,-26.95,19.75,-29.3333,-7069,-28895
324,202990,-9.82871,0.105273,-0.267969,155.446,88.2642,99.8273,0,0,0,0.618805,0.338257,0.631897,-0.32132,-26.9417,19.7667,-29.3,-7069,-28895
330,202996,-9.79521,0.14834,-0.244043,155.446,88.2642,99.8273,0,0,0,0.618805,0.338287,0.631897,-0.32132,-26.9333,19.7583,-29.2667,-7069,-28895
336,203002,-9.82393,0.14834,-0.248828,155.446,88.2642,99.8273,0,0,0,0.618805,0.338287,0.631897,-0.32132,-26.925,19.7417,-29.2667,-7069,-28895
342,203008,-9.79043,0.100488,-0.277539,155.446,88.2642,99.8273,0,0,0,0.618805,0.338287,0.631897,-0.32132,-26.95,19.725,-29.2583,-7069,-28895
348,203014,-9.81436,0.124414,-0.263184,155.446,88.2642,99.8328,0,0,0,0.618805,0.338287,0.631897,-0.32132,-26.9583,19.7333,-29.25,-7069,-28895
354,203020,-9.79043,0.114844,-0.263184,155.446,88.2642,99.8328,0,0,0,0.618805,0.338287,0.631866,-0.32132,-26.9833,19.7917,-29.2167,-7069,-28895
360,203026,-9.80479,0.114844,-0.253613,155.451,88.2642,99.8328,0,0,0,0.618805,0.338318,0.631866,-0.32135,-26.9917,19.825,-29.175,-7069,-28895
366,203032,-9.8,0.119629,-0.272754,155.451,88.2642,99.8328,0,0,0,0.618805,0.338318,0.631866,-0.32135,-27.0083,19.8333,-29.1417,-7069,-28895
372,203038,-9.82393,0.133984,-0.258398,155.451,88.2642,99.8328,0,0,0,0.618805,0.338318,0.631866,-0.32135,-27.025,19.825,-29.125,-7069,-28895
378,203044,-9.78086,0.124414,-0.244043,155.451,88.2642,99.8328,0,0,0,0.618805,0.338318,0.631866,-0.32135,-27.0417,19.8083,-29.1,-7069,-28895
384,203050,-9.79043,0.124414,-0.277539,155.451,88.2642,99.8328,0,0,0,0.618805,0.338318,0.631866,-0.32135,-27.0167,19.7667,-29.1917,-7069,-28895
390,203056,-9.79521,0.090918,-0.272754,155.451,88.2642,99.8328,0,0,0,0.618774,0.338318,0.631866,-0.32135,-27.0167,19.7417,-29.25,-7069,-28895
396,203062,-9.80957,0.110059,-0.253613,155.457,88.2642,99.8328,0,0,0,0.618774,0.338318,0.631866,-0.321381,-26.9917,19.7333,-29.3417,-7069,-28895
402,203068,-9.81914,0.129199,-0.244043,155.457,88.2642,99.8328,0,0,0,0.618774,0.338318,0.631866,-0.321381,-26.975,19.7333,-29.3833,-7069,-28895
408,203074,-9.8,0.114844,-0.258398,155.457,88.2642,99.8328,0,0,0,0.618774,0.338318,0.631866,-0.321381,-26.9583,19.7417,-29.4083,-7069,-28895
414,203080,-9.80957,0.129199,-0.29668,155.457,88.2642,99.8328,0,0,0,0.618774,0.338318,0.631866,-0.321381,-26.9417,19.7833,-29.425,-7069,-28895
420,203086,-9.79521,0.133984,-0.263184,155.457,88.2642,99.8328,0,0,0,0.618774,0.338318,0.631866,-0.321381,-26.9417,19.7917,-29.4,-7069,-28895
426,203092,-9.79043,0.105273,-0.272754,155.457,88.2642,99.8328,0,0,0,0.618774,0.338318,0.631866,-0.321381,-26.9417,19.7917,-29.4,-7069,-28895
432,203098,-9.80957,0.100488,-0.263184,155.462,88.2642,99.8328,0,0,0,0.618774,0.338348,0.631836,-0.321381,-26.9333,19.8,-29.4167,-7069,-28895
438,203104,-9.8,0.0957031,-0.258398,155.462,88.2642,99.8328,0,0,0,0.618774,0.338348,0.631836,-0.321411,-26.9417,19.8083,-29.4167,-7069,-28895
444,203110,-9.80957,0.0957031,-0.277539,155.462,88.2642,99.8328,0,0,0,0.618774,0.338348,0.631836,-0.321411,-26.9417,19.85,-29.4583,-7069,-28895
450,203116,-9.81436,0.110059,-0.263184,155.468,88.2642,99.8328,0,0,0,0.618774,0.338348,0.631836,-0.321411,-26.95,19.875,-29.4667,-7069,-28895
456,203122,-9.82393,0.105273,-0.282324,155.468,88.2642,99.8383,0,0,0,0.618744,0.338379,0.631836,-0.321442,-26.95,19.8833,-29.475,-7069,-28895
462,203128,-9.79521,0.114844,-0.287109,155.473,88.2642,99.8383,0,0,0,0.618744,0.338379,0.631836,-0.321442,-26.95,19.9,-29.4667,-7069,-28895
468,203134,-9.79043,0.129199,-0.29668,155.473,88.2642,99.8383,0,0,0,0.618744,0.338409,0.631805,-0.321442,-26.95,19.8833,-29.4583,-7069,-28895
474,203140,-9.77607,0.0957031,-0.263184,155.479,88.2642,99.8383,0,0,0,0.618744,0.338409,0.631805,-0.321472,-26.9667,19.8417,-29.4417,-7069,-28895
480,203146,-9.83828,0.114844,-0.267969,155.479,88.2642,99.8383,0,0,0,0.618713,0.33844,0.631805,-0.321503,-26.9833,19.825,-29.4167,-7069,-28895
486,203152,-9.81914,0.143555,-0.272754,155.484,88.2642,99.8383,0,0,0,0.618713,0.33844,0.631805,-0.321503,-27.0167,19.8167,-29.4083,-7069,-28895
492,203158,-9.80957,0.143555,-0.272754,155.484,88.2642,99.8383,0,0,0,0.618713,0.33844,0.631775,-0.321503,-27.025,19.8167,-29.3917,-7069,-28895
498,203164,-9.8,0.119629,-0.258398,155.484,88.2642,99.8383,0,0,0,0.618713,0.33847,0.631775,-0.321503,-27.025,19.825,-29.3833,-7069,-28895
504,203170,-9.80479,0.0957031,-0.267969,155.49,88.2642,99.8383,0,0,0,0.618713,0.33847,0.631775,-0.321503,-27.0167,19.8083,-29.3083,-7069,-28895
510,203176,-9.82871,0.14834,-0.272754,155.49,88.2642,99.8383,0,0,0,0.618713,0.33847,0.631775,-0.321533,-27.0083,19.8083,-29.2667,-7069,-28895
516,203182,-9.84307,0.0957031,-0.239258,155.49,88.2642,99.8383,0,0,0,0.618713,0.33847,0.631775,-0.321533,-27.025,19.8083,-29.275,-7069,-28895
522,203188,-9.83828,0.129199,-0.229688,155.49,88.2642,99.8383,0,0,0,0.618713,0.33847,0.631775,-0.321533,-27.0333,19.8,-29.2667,-7069,-28895
528,203194,-9.77607,0.124414,-0.272754,155.49,88.2642,99.8383,0,0,0,0.618713,0.33847,0.631775,-0.321533,-27.0417,19.775,-29.2583,-7069,-28895
534,203200,-9.78086,0.143555,-0.258398,155.49,88.2642,99.8383,0,0,0,0.618713,0.33847,0.631775,-0.321533,-27.0083,19.7083,-29.2667,-7069,-28895
540,203206,-9.8,0.0717773,-0.239258,155.49,88.2642,99.8383,0,0,0,0.618713,0.33847,0.631775,-0.321533,-27,19.6917,-29.275,-7069,-28895
546,203212,-9.81914,0.114844,-0.277539,155.49,88.2642,99.8383,0,0,0,0.618713,0.33847,0.631775,-0.321533,-27,19.6833,-29.2833,-7069,-28895
552,203218,-9.81914,0.119629,-0.258398,155.49,88.2642,99.8383,0,0,0,0.618713,0.33847,0.631775,-0.321533,-26.9917,19.675,-29.3,-7069,-28895
558,203224,-9.80479,0.129199,-0.258398,155.49,88.2642,99.8383,0,0,0,0.618713,0.33847,0.631775,-0.321533,-27,19.6667,-29.35,-7069,-28895
564,203230,-9.81914,0.129199,-0.267969,155.49,88.2642,99.8383,0,0,0,0.618713,0.33847,0.631775,-0.321533,-27.0083,19.6417,-29.4167,-7069,-28895
570,203236,-9.80479,0.110059,-0.267969,155.49,88.2642,99.8383,0,0,0,0.618713,0.33847,0.631775,-0.321533,-27.0167,19.6167,-29.4333,-7069,-28895
576,203242,-9.83828,0.114844,-0.272754,155.49,88.2642,99.8438,0,0,0,0.618713,0.33847,0.631775,-0.321533,-27.025,19.6083,-29.4333,-7069,-28895
582,203248,-9.82393,0.124414,-0.258398,155.49,88.2642,99.8438,0,0,0,0.618713,0.33847,0.631775,-0.321533,-27.0333,19.6167,-29.4333,-7069,-28895
588,203254,-9.81914,0.13877,-0.258398,155.49,88.2642,99.8438,0,0,0,0.618713,0.33844,0.631775,-0.321533,-27.05,19.65,-29.475,-7069,-28895
594,203260,-9.79043,0.124414,-0.258398,155.49,88.2642,99.8438,0,0,0,0.618713,0.33844,0.631775,-0.321503,-27.0333,19.7167,-29.55,-7069,-28895
600,203266,-9.79043,0.13877,-0.263184,155.49,88.2642,99.8438,0,0,0,0.618713,0.33844,0.631805,-0.321503,-27.0167,19.7333,-29.55,-7069,-28895
606,203272,-9.80479,0.114844,-0.263184,155.484,88.2642,99.8438,0,0,0,0.618744,0.338409,0.631805,-0.321503,-27,19.7333,-29.4917,-7069,-28895
612,203278,-9.81436,0.129199,-0.277539,155.484,88.2642,99.8438,0,0,0,0.618744,0.338409,0.631805,-0.321472,-26.9833,19.725,-29.4083,-7069,-28895
618,203284,-9.8,0.105273,-0.277539,155.484,88.2642,99.8438,0,0,0,0.618744,0.338409,0.631805,-0.321472,-26.9583,19.7167,-29.325,-7069,-28895
624,203290,-9.78086,0.119629,-0.244043,155.479,88.2642,99.8438,0,0,0,0.618744,0.338379,0.631805,-0.321472,-26.9333,19.7417,-29.2583,-7069,-28895
630,203296,-9.79043,0.133984,-0.277539,155.479,88.2642,99.8438,0,0,0,0.618744,0.338379,0.631805,-0.321472,-26.9333,19.7667,-29.2583,-7069,-28895
636,203302,-9.8,0.133984,-0.277539,155.479,88.2642,99.8438,0,0,0,0.618744,0.338379,0.631805,-0.321442,-26.95,19.7917,-29.2667,-7069,-28895
642,203308,-9.81914,0.119629,-0.258398,155.479,88.2642,99.8438,0,0,0,0.618774,0.338379,0.631836,-0.321442,-26.9583,19.8083,-29.2667,-7069,-28895
648,203314,-9.79521,0.114844,-0.267969,155.479,88.2642,99.8438,0,0,0,0.618774,0.338348,0.631836,-0.321442,-26.95,19.8167,-29.2667,-7069,-28895
654,203320,-9.81436,0.110059,-0.267969,155.473,88.2642,99.8438,0,0,0,0.618774,0.338348,0.631836,-0.321442,-26.925,19.8333,-29.275,-7069,-28895
660,203326,-9.80479,0.143555,-0.239258,155.473,88.2642,99.8438,0,0,0,0.618774,0.338348,0.631836,-0.321411,-26.9,19.85,-29.2917,-7069,-28895
666,203332,-9.82393,0.114844,-0.277539,155.473,88.2642,99.8438,0,0,0,0.618774,0.338348,0.631836,-0.321411,-26.8917,19.875,-29.325,-7069,-28895
672,203338,-9.8,0.124414,-0.272754,155.473,88.2642,99.8438,0,0,0,0.618774,0.338318,0.631836,-0.321411,-26.8917,19.8917,-29.3417,-7069,-28895
678,203344,-9.82393,0.114844,-0.282324,155.473,88.2642,99.8438,0,0,0,0.618774,0.338318,0.631836,-0.321411,-26.9167,19.9167,-29.3917,-7069,-28895
684,203350,-9.79521,0.114844,-0.220117,155.473,88.2642,99.8438,0,0,0,0.618774,0.338318,0.631836,-0.321411,-26.9333,19.925,-29.425,-7069,-28895
690,203356,-9.77607,0.105273,-0.272754,155.468,88.2642,99.8438,0,0,0,0.618774,0.338318,0.631836,-0.321381,-26.9167,19.925,-29.4417,-7069,-28895
696,203362,-9.78086,0.114844,-0.267969,155.468,88.2642,99.8438,0,0,0,0.618805,0.338318,0.631836,-0.321381,-26.875,19.9,-29.4333,-7069,-28895
702,203368,-9.78564,0.143555,-0.253613,155.468,88.2642,99.8492,0,0,0,0.618805,0.338318,0.631836,-0.321381,-26.85,19.8833,-29.3917,-7069,-28895
708,203374,-9.81436,0.119629,-0.287109,155.468,88.2642,99.8492,0,0,0,0.618805,0.338287,0.631866,-0.321381,-26.8333,19.8833,-29.3917,-7069,-28895
714,203380,-9.81436,0.114844,-0.267969,155.468,88.2642,99.8492,0,0,0,0.618805,0.338287,0.631866,-0.321381,-26.825,19.8917,-29.3583,-7069,-28895
720,203386,-9.80479,0.114844,-0.267969,155.468,88.2642,99.8492,0,0,0,0.618805,0.338287,0.631866,-0.32135,-26.8667,19.9,-29.3667,-7069,-28895
726,203392,-9.81914,0.14834,-0.287109,155.462,88.2642,99.8492,0,0,0,0.618805,0.338287,0.631866,-0.32135,-26.875,19.9083,-29.4,-7069,-28895
732,203398,-9.82393,0.119629,-0.267969,155.462,88.2642,99.8492,0,0,0,0.618805,0.338257,0.631866,-0.32135,-26.9,19.9167,-29.4417,-7069,-28895
738,203404,-9.8,0.119629,-0.263184,155.462,88.2642,99.8492,0,0,0,0.618805,0.338257,0.631866,-0.32135,-26.9167,19.925,-29.4917,-7069,-28895
744,203410,-9.80479,0.114844,-0.287109,155.462,88.2642,99.8492,0,0,0,0.618835,0.338257,0.631866,-0.32132,-26.925,19.9417,-29.5667,-7069,-28895
750,203416,-9.82393,0.110059,-0.253613,155.462,88.2642,99.8492,0,0,0,0.618835,0.338257,0.631866,-0.32132,-26.9333,19.9333,-29.6,-7069,-28895
756,203422,-9.80479,0.110059,-0.272754,155.462,88.2642,99.8492,0,0,0,0.618835,0.338257,0.631866,-0.32132,-26.9583,19.9083,-29.6167,-7069,-28895
762,203428,-9.81436,0.110059,-0.277539,155.462,88.2642,99.8492,0,0,0,0.618835,0.338257,0.631866,-0.32132,-26.975,19.9,-29.6333,-7069,-28895
768,203434,-9.80957,0.14834,-0.253613,155.462,88.2642,99.8492,0,0,0,0.618835,0.338257,0.631866,-0.32132,-26.9833,19.9,-29.6,-7069,-28895
774,203440,-9.80479,0.114844,-0.287109,155.462,88.2642,99.8492,0,0,0,0.618835,0.338257,0.631866,-0.32135,-26.9667,19.9167,-29.5083,-7069,-28895
780,203446,-9.80957,0.110059,-0.277539,155.462,88.2642,99.8492,0,0,0,0.618835,0.338257,0.631866,-0.32135,-26.95,19.925,-29.475,-7069,-28895
786,203452,-9.82393,0.124414,-0.272754,155.462,88.2642,99.8492,0,0,0,0.618805,0.338257,0.631866,-0.32135,-26.9417,19.925,-29.45,-7069,-28895
792,203458,-9.79521,0.129199,-0.253613,155.468,88.2642,99.8492,0,0,0,0.618805,0.338257,0.631866,-0.32135,-26.9417,19.9333,-29.4333,-7069,-28895
798,203464,-9.81914,0.110059,-0.272754,155.468,88.2642,99.8492,0,0,0,0.618805,0.338257,0.631866,-0.32135,-26.95,19.9333,-29.45,-7069,-28895
804,203470,-9.79043,0.110059,-0.301465,155.468,88.2642,99.8492,0,0,0,0.618805,0.338257,0.631866,-0.32135,-26.9583,19.9333,-29.475,-7069,-28895
810,203476,-9.81914,0.124414,-0.277539,155.468,88.2642,99.8492,0,0,0,0.618805,0.338257,0.631866,-0.32135,-26.975,19.9417,-29.45,-7069,-28895
816,203482,-9.82393,0.0957031,-0.267969,155.468,88.2642,99.8492,0,0,0,0.618805,0.338287,0.631866,-0.32135,-26.9833,19.95,-29.4167,-7069,-28895
822,203488,-9.78086,0.133984,-0.277539,155.468,88.2642,99.8492,0,0,0,0.618805,0.338287,0.631866,-0.32135,-27.0083,19.9583,-29.3833,-7069,-28895
828,203494,-9.79521,0.105273,-0.277539,155.473,88.2642,99.8492,0,0,0,0.618805,0.338287,0.631866,-0.321381,-27.025,19.975,-29.3417,-7069,-28895
834,203500,-9.80479,0.14834,-0.258398,155.473,88.2642,99.8547,0,0,0,0.618805,0.338287,0.631866,-0.321381,-27.0417,19.975,-29.275,-7069,-28895
840,203506,-9.81436,0.119629,-0.253613,155.473,88.2642,99.8547,0,0,0,0.618805,0.338287,0.631866,-0.321381,-27.0417,19.9667,-29.2417,-7069,-28895
846,203512,-9.82871,0.129199,-0.277539,155.473,88.2642,99.8547,0,0,0,0.618805,0.338287,0.631866,-0.321381,-27.025,19.9417,-29.2417,-7069,-28895
852,203518,-9.80957,0.129199,-0.287109,155.473,88.2642,99.8547,0,0,0,0.618805,0.338287,0.631866,-0.321381,-27,19.9167,-29.25,-7069,-28895
858,203524,-9.8,0.124414,-0.248828,155.473,88.2642,99.8547,0,0,0,0.618805,0.338287,0.631866,-0.321381,-26.9833,19.9,-29.2833,-7069,-28895
864,203530,-9.82393,0.133984,-0.272754,155.473,88.2642,99.8547,0,0,0,0.618805,0.338287,0.631866,-0.321381,-26.9667,19.8833,-29.3333,-7069,-28895
870,203536,-9.80479,0.105273,-0.272754,155.473,88.2642,99.8547,0,0,0,0.618805,0.338287,0.631866,-0.321381,-26.9917,19.8833,-29.35,-7069,-28895
876,203542,-9.81914,0.124414,-0.282324,155.473,88.2642,99.8547,0,0,0,0.618805,0.338287,0.631866,-0.321381,-27,19.8917,-29.3667,-7069,-28895
882,203548,-9.79521,0.114844,-0.272754,155.473,88.2642,99.8547,0,0,0,0.618805,0.338287,0.631866,-0.321381,-27.0083,19.8917,-29.375,-7069,-28895
888,203554,-9.8,0.110059,-0.291895,155.473,88.2642,99.8547,0,0,0,0.618805,0.338287,0.631866,-0.321381,-27.0167,19.8833,-29.375,-7069,-28895
894,203560,-9.8,0.110059,-0.272754,155.479,88.2642,99.8547,0,0,0,0.618805,0.338287,0.631866,-0.321381,-26.9833,19.9,-29.4167,-7069,-28895
900,203566,-9.79521,0.114844,-0.282324,155.479,88.2642,99.8547,0,0,0,0.618805,0.338318,0.631866,-0.321381,-26.9583,19.9167,-29.45,-7069,-28895
906,203572,-9.79521,0.114844,-0.253613,155.479,88.2642,99.8547,0,0,0,0.618774,0.338318,0.631836,-0.321381,-26.95,19.925,-29.4583,-7069,-28895
912,203578,-9.79521,0.114844,-0.272754,155.479,88.2642,99.8547,0,0,0,0.618774,0.338318,0.631836,-0.321411,-26.9417,19.9167,-29.4833,-7069,-28895
918,203584,-9.8,0.133984,-0.282324,155.484,88.2642,99.8547,0,0,0,0.618774,0.338318,0.631836,-0.321411,-26.9667,19.9083,-29.4917,-7069,-28895
924,203590,-9.8,0.129199,-0.263184,155.484,88.2642,99.8547,0,0,0,0.618774,0.338318,0.631836,-0.321411,-27.0583,19.9,-29.5333,-7069,-28895
930,203596,-9.8,0.133984,-0.258398,155.484,88.2642,99.8547,0,0,0,0.618774,0.338318,0.631836,-0.321411,-27.0917,19.9083,-29.55,-7069,-28895
936,203602,-9.83828,0.119629,-0.272754,155.484,88.2642,99.8547,0,0,0,0.618774,0.338318,0.631836,-0.321411,-27.125,19.925,-29.5583,-7069,-28895
942,203608,-9.81436,0.119629,-0.263184,155.484,88.2642,99.8547,0,0,0,0.618774,0.338318,0.631836,-0.321411,-27.15,19.9333,-29.5917,-7069,-28895
948,203614,-9.79043,0.133984,-0.272754,155.484,88.2642,99.8547,0,0,0,0.618774,0.338318,0.631836,-0.321411,-27.2083,19.9333,-29.6583,-7069,-28895
954,203620,-9.79521,0.119629,-0.287109,155.484,88.2642,99.8547,0,0,0,0.618774,0.338318,0.631836,-0.321411,-27.2333,19.9333,-29.6917,-7069,-28895
960,203626,-9.79521,0.129199,-0.263184,155.484,88.2642,99.8547,0,0,0,0.618774,0.338318,0.631836,-0.321411,-27.2667,19.9583,-29.6833,-7069,-28895
966,203632,-9.8,0.114844,-0.267969,155.484,88.2642,99.8547,0,0,0,0.618774,0.338318,0.631836,-0.321411,-27.2833,19.9833,-29.6667,-7069,-28895
972,203638,-9.79043,0.143555,-0.267969,155.479,88.2642,99.8547,0,0,0,0.618774,0.338318,0.631866,-0.321381,-27.3,20.025,-29.6667,-7069,-28895
978,203644,-9.81914,0.124414,-0.282324,155.479,88.2642,99.8547,0,0,0,0.618774,0.338318,0.631866,-0.321381,-27.3167,20.0833,-29.7083,-7069,-28895
984,203650,-9.81436,0.114844,-0.287109,155.479,88.2642,99.8602,0,0,0,0.618805,0.338287,0.631866,-0.321381,-27.325,20.1,-29.7,-7069,-28895
990,203656,-9.8,0.114844,-0.287109,155.479,88.2642,99.8602,0,0,0,0.618805,0.338287,0.631866,-0.321381,-27.3083,20.1167,-29.7,-7069,-28895
996,203662,-9.81436,0.119629,-0.291895,155.479,88.2642,99.8602,0,0,0,0.618805,0.338287,0.631866,-0.321381,-27.275,20.1083,-29.675,-7069,-28895
1002,203668,-9.8,0.124414,-0.277539,155.479,88.2642,99.8602,0,0,0,0.618805,0.338287,0.631866,-0.321381,-27.2583,20.0917,-29.6583,-7069,-28895
1008,203674,-9.82393,0.133984,-0.267969,155.479,88.2642,99.8602,0,0,0,0.618805,0.338318,0.631866,-0.321381,-27.2333,20.075,-29.6417,-7069,-28895
1014,203680,-9.79521,0.143555,-0.272754,155.479,88.2642,99.8602,0,0,0,0.618805,0.338287,0.631866,-0.321381,-27.2333,20.0667,-29.7,-7069,-28895
1020,203686,-9.80957,0.110059,-0.267969,155.479,88.2642,99.8602,0,0,0,0.618805,0.338287,0.631866,-0.321381,-27.25,20.0667,-29.7667,-7069,-28895
1026,203692,-9.81914,0.124414,-0.277539,155.479,88.2642,99.8602,0,0,0,0.618805,0.338287,0.631866,-0.32135,-27.2417,20.0667,-29.825,-7069,-28895
1032,203698,-9.82871,0.105273,-0.291895,155.479,88.2642,99.8602,0,0,0,0.618805,0.338287,0.631866,-0.321381,-27.2333,20.0667,-29.85,-7069,-28895
1038,203704,-9.8,0.0957031,-0.277539,155.484,88.2642,99.8602,0,0,0,0.618774,0.338318,0.631866,-0.321381,-27.1667,20.0667,-29.8417,-7069,-28895
1044,203710,-9.81914,0.129199,-0.253613,155.484,88.2642,99.8602,0,0,0,0.618774,0.338318,0.631866,-0.321381,-27.15,20.075,-29.8,-7069,-28895
1050,203716,-9.80479,0.110059,-0.287109,155.484,88.2642,99.8602,0,0,0,0.618774,0.338318,0.631866,-0.321381,-27.125,20.0833,-29.7583,-7069,-28895
1056,203722,-9.8,0.119629,-0.248828,155.484,88.2642,99.8602,0,0,0,0.618774,0.338318,0.631866,-0.321381,-27.1083,20.0917,-29.725,-7069,-28895
1062,203728,-9.8,0.100488,-0.277539,155.484,88.2642,99.8602,0,0,0,0.618774,0.338348,0.631866,-0.321411,-27.0917,20.0917,-29.6917,-7069,-28895
1068,203734,-9.81436,0.105273,-0.253613,155.49,88.2642,99.8602,0,0,0,0.618774,0.338348,0.631836,-0.321411,-27.0583,20.0583,-29.7,-7069,-28895
1074,203740,-9.80957,0.114844,-0.301465,155.49,88.2642,99.8602,0,0,0,0.618744,0.338348,0.631836,-0.321411,-27.0417,20.05,-29.7167,-7069,-28895
1080,203746,-9.80479,0.114844,-0.239258,155.495,88.2642,99.8602,0,0,0,0.618744,0.338379,0.631836,-0.321442,-27.0417,20.025,-29.725,-7069,-28895
1086,203752,-9.80957,0.124414,-0.287109,155.495,88.2642,99.8602,0,0,0,0.618744,0.338379,0.631836,-0.321442,-27.05,19.9917,-29.7417,-7069,-28895
1092,203758,-9.81436,0.110059,-0.229688,155.495,88.2642,99.8602,0,0,0,0.618744,0.338379,0.631836,-0.321442,-27.0583,19.9417,-29.775,-7069,-28895
1098,203764,-9.80479,0.114844,-0.258398,155.5,88.2642,99.8602,0,0,0,0.618744,0.338379,0.631836,-0.321442,-27.125,19.875,-29.775,-7069,-28895
1104,203770,-9.78564,0.114844,-0.291895,155.5,88.2642,99.8602,0,0,0,0.618744,0.338409,0.631805,-0.321472,-27.1667,19.8667,-29.725,-7069,-28895
1110,203776,-9.78086,0.105273,-0.272754,155.5,88.2642,99.8602,0,0,0,0.618744,0.338409,0.631805,-0.321472,-27.2,19.8583,-29.6917,-7069,-28895
1116,203782,-9.80479,0.124414,-0.263184,155.506,88.2642,99.8602,0,0,0,0.618713,0.338409,0.631805,-0.321472,-27.2333,19.8667,-29.6583,-7069,-28895
1122,203788,-9.82393,0.143555,-0.258398,155.506,88.2642,99.8602,0,0,0,0.618713,0.338409,0.631805,-0.321472,-27.25,19.85,-29.65,-7069,-28895
1128,203794,-9.80479,0.143555,-0.263184,155.506,88.2642,99.8602,0,0,0,0.618713,0.338409,0.631805,-0.321472,-27.275,19.8333,-29.7083,-7069,-28895
1134,203800,-9.79521,0.14834,-0.263184,155.506,88.2642,99.8602,0,0,0,0.618713,0.338409,0.631805,-0.321472,-27.2833,19.8,-29.7417,-7069,-28895
1140,203806,-9.81436,0.114844,-0.258398,155.5,88.2642,99.8602,0,0,0,0.618713,0.338409,0.631805,-0.321472,-27.3083,19.775,-29.7667,-7069,-28895
1146,203812,-9.78086,0.133984,-0.258398,155.5,88.2642,99.8602,0,0,0,0.618744,0.338409,0.631805,-0.321472,-27.3167,19.7667,-29.8083,-7069,-28895
1152,203818,-9.79043,0.129199,-0.282324,155.5,88.2642,99.8602,0,0,0,0.618744,0.338409,0.631805,-0.321472,-27.3167,19.75,-29.8417,-7069,-28895
1158,203824,-9.79521,0.124414,-0.272754,155.5,88.2642,99.8657,0,0,0,0.618744,0.338409,0.631836,-0.321442,-27.2917,19.725,-29.8667,-7069,-28895
1164,203830,-9.80479,0.0957031,-0.277539,155.5,88.2642,99.8657,0,0,0,0.618744,0.338379,0.631836,-0.321442,-27.2917,19.7083,-29.825,-7069,-28895
1170,203836,-9.8,0.110059,-0.277539,155.5,88.2642,99.8657,0,0,0,0.618744,0.338379,0.631836,-0.321442,-27.3,19.7083,-29.8333,-7069,-28895
1176,203842,-9.80479,0.110059,-0.267969,155.5,88.2642,99.8657,0,0,0,0.618744,0.338379,0.631836,-0.321442,-27.3083,19.7083,-29.825,-7069,-28895
1182,203848,-9.82871,0.119629,-0.267969,155.5,88.2642,99.8657,0,0,0,0.618744,0.338409,0.631836,-0.321442,-27.325,19.7167,-29.8083,-7069,-28895
1188,203854,-9.8,0.162695,-0.272754,155.5,88.2642,99.8657,0,0,0,0.618744,0.338409,0.631836,-0.321442,-27.3417,19.725,-29.775,-7069,-28895
1194,203860,-9.78086,0.133984,-0.272754,155.5,88.2642,99.8657,0,0,0,0.618744,0.338379,0.631836,-0.321442,-27.3417,19.7417,-29.7583,-7069,-28895
1200,203866,-9.79521,0.114844,-0.248828,155.495,88.2642,99.8657,0,0,0,0.618744,0.338379,0.631836,-0.321442,-27.3583,19.75,-29.75,-7069,-28895
1206,203872,-9.8,0.129199,-0.272754,155.495,88.2642,99.8657,0,0,0,0.618744,0.338379,0.631836,-0.321411,-27.3583,19.75,-29.7667,-7069,-28895
1212,203878,-9.79043,0.133984,-0.258398,155.495,88.2642,99.8657,0,0,0,0.618744,0.338348,0.631836,-0.321411,-27.3583,19.7333,-29.775,-7069,-28895
1218,203884,-9.79521,0.119629,-0.263184,155.49,88.2642,99.8657,0,0,0,0.618774,0.338318,0.631866,-0.321381,-27.3667,19.6917,-29.7583,-7069,-28895
1224,203890,-9.80957,0.105273,-0.263184,155.49,88.2642,99.8657,0,0,0,0.618774,0.338318,0.631866,-0.321381,-27.375,19.6833,-29.7083,-7069,-28895
1230,203896,-9.80479,0.133984,-0.282324,155.484,88.2642,99.8657,0,0,0,0.618774,0.338318,0.631866,-0.321381,-27.4083,19.6833,-29.65,-7069,-28895
1236,203902,-9.80957,0.119629,-0.277539,155.484,88.2642,99.8657,0,0,0,0.618774,0.338287,0.631866,-0.32135,-27.4417,19.675,-29.6,-7069,-28895
1242,203908,-9.81914,0.143555,-0.272754,155.484,88.2642,99.8657,0,0,0,0.618805,0.338287,0.631866,-0.32135,-27.475,19.65,-29.55,-7069,-28895
1248,203914,-9.81436,0.124414,-0.263184,155.479,88.2642,99.8657,0,0,0,0.618805,0.338287,0.631897,-0.32132,-27.475,19.575,-29.4833,-7069,-28895
1254,203920,-9.79521,0.114844,-0.277539,155.479,88.2642,99.8657,0,0,0,0.618805,0.338257,0.631897,-0.32132,-27.4417,19.5417,-29.4333,-7069,-28895
1260,203926,-9.80479,0.133984,-0.263184,155.479,88.2642,99.8657,0,0,0,0.618805,0.338257,0.631897,-0.32132,-27.4167,19.5333,-29.4167,-7069,-28895
1266,203932,-9.8335,0.133984,-0.267969,155.473,88.2642,99.8657,0,0,0,0.618805,0.338257,0.631897,-0.321289,-27.3917,19.5333,-29.4417,-7069,-28895
1272,203938,-9.78564,0.129199,-0.263184,155.473,88.2642,99.8657,0,0,0,0.618835,0.338226,0.631897,-0.321289,-27.3917,19.525,-29.4417,-7069,-28895
1278,203944,-9.79043,0.129199,-0.277539,155.468,88.2642,99.8657,0,0,0,0.618835,0.338226,0.631927,-0.321259,-27.4083,19.525,-29.4417,-7069,-28895
1284,203950,-9.79043,0.143555,-0.272754,155.468,88.2642,99.8657,0,0,0,0.618835,0.338196,0.631927,-0.321259,-27.4167,19.5167,-29.4333,-7069,-28895
1290,203956,-9.80479,0.129199,-0.320605,155.468,88.2642,99.8657,0,0,0,0.618835,0.338196,0.631927,-0.321228,-27.4333,19.525,-29.4417,-7069,-28895
1296,203962,-9.80957,0.133984,-0.267969,155.462,88.2642,99.8657,0,0,0,0.618866,0.338165,0.631927,-0.321228,-27.4333,19.5333,-29.4917,-7069,-28895
1302,203968,-9.79043,0.129199,-0.263184,155.462,88.2642,99.8657,0,0,0,0.618866,0.338165,0.631958,-0.321228,-27.425,19.5417,-29.5417,-7069,-28895
1308,203974,-9.8,0.124414,-0.267969,155.457,88.2642,99.8657,0,0,0,0.618866,0.338135,0.631958,-0.321198,-27.4167,19.6,-29.6667,-7069,-28895
1314,203980,-9.80479,0.090918,-0.272754,155.457,88.2642,99.8657,0,0,0,0.618866,0.338135,0.631958,-0.321198,-27.4083,19.6333,-29.7167,-7069,-28895
1320,203986,-9.80479,0.110059,-0.282324,155.457,88.2642,99.8657,0,0,0,0.618866,0.338135,0.631958,-0.321167,-27.4167,19.6583,-29.7333,-7069,-28895
1326,203992,-9.8,0.143555,-0.267969,155.457,88.2587,99.8657,0,0,0,0.618866,0.338135,0.631958,-0.321167,-27.4167,19.6917,-29.75,-7069,-28895
1332,203998,-9.79043,0.133984,-0.267969,155.451,88.2587,99.8657,0,0,0,0.618896,0.338135,0.631989,-0.321167,-27.4167,19.7,-29.7333,-7069,-28895
1338,204004,-9.81436,0.114844,-0.248828,155.451,88.2587,99.8657,0,0,0,0.618896,0.338104,0.631989,-0.321136,-27.425,19.7083,-29.725,-7069,-28895
1344,204010,-9.82393,0.110059,-0.291895,155.451,88.2587,99.8657,0,0,0,0.618896,0.338104,0.631989,-0.321136,-27.425,19.7083,-29.7167,-7069,-28895
1350,204016,-9.82393,0.114844,-0.263184,155.451,88.2587,99.8712,0,0,0,0.618896,0.338104,0.631989,-0.321136,-27.4083,19.6833,-29.725,-7069,-28895
1356,204022,-9.79521,0.124414,-0.244043,155.446,88.2587,99.8712,0,0,0,0.618896,0.338104,0.631989,-0.321136,-27.4083,19.6667,-29.75,-7069,-28895
1362,204028,-9.80479,0.133984,-0.277539,155.446,88.2587,99.8712,0,0,0,0.618896,0.338074,0.631989,-0.321136,-27.3917,19.6333,-29.75,-7069,-28895
1368,204034,-9.80957,0.124414,-0.301465,155.446,88.2587,99.8712,0,0,0,0.618896,0.338074,0.631989,-0.321106,-27.4,19.5917,-29.6833,-7069,-28895
1374,204040,-9.80479,0.119629,-0.258398,155.446,88.2587,99.8712,0,0,0,0.618896,0.338074,0.632019,-0.321106,-27.4083,19.5833,-29.6667,-7069,-28895
1380,204046,-9.81914,0.100488,-0.253613,155.446,88.2587,99.8712,0,0,0,0.618896,0.338074,0.632019,-0.321106,-27.4333,19.5917,-29.6417,-7069,-28895
1386,204052,-9.80479,0.143555,-0.248828,155.446,88.2587,99.8712,0,0,0,0.618927,0.338074,0.632019,-0.321106,-27.4583,19.6,-29.6417,-7069,-28895
1392,204058,-9.80957,0.124414,-0.29668,155.44,88.2587,99.8712,0,0,0,0.618927,0.338043,0.632019,-0.321075,-27.475,19.625,-29.6833,-7069,-28895
1398,204064,-9.79043,0.119629,-0.239258,155.44,88.2587,99.8712,0,0,0,0.618927,0.338043,0.632019,-0.321075,-27.4667,19.6833,-29.7833,-7069,-28895
1404,204070,-9.8,0.129199,-0.287109,155.44,88.2587,99.8712,0,0,0,0.618927,0.338043,0.632019,-0.321075,-27.4667,19.7167,-29.8667,-7069,-28895
1410,204076,-9.8,0.124414,-0.282324,155.435,88.2587,99.8712,0,0,0,0.618927,0.338013,0.632019,-0.321045,-27.4583,19.7333,-29.95,-7069,-28895
1416,204082,-9.78564,0.110059,-0.267969,155.435,88.2587,99.8712,0,0,0,0.618927,0.338013,0.632019,-0.321045,-27.475,19.7583,-29.9833,-7069,-28895
1422,204088,-9.8335,0.124414,-0.267969,155.435,88.2587,99.8712,0,0,0,0.618927,0.338013,0.63205,-0.321045,-27.4917,19.775,-30,-7069,-28895
1428,204094,-9.79043,0.114844,-0.267969,155.435,88.2587,99.8712,0,0,0,0.618958,0.338013,0.63205,-0.321045,-27.4917,19.7833,-29.9333,-7069,-28895
1434,204100,-9.81436,0.119629,-0.248828,155.435,88.2587,99.8712,0,0,0,0.618958,0.338013,0.63205,-0.321014,-27.475,19.7583,-29.9167,-7069,-28895
1440,204106,-9.82871,0.119629,-0.277539,155.429,88.2587,99.8712,0,0,0,0.618958,0.337982,0.63205,-0.321014,-27.45,19.75,-29.9167,-7069,-28895
1446,204112,-9.8,0.119629,-0.277539,155.429,88.2587,99.8712,0,0,0,0.618958,0.337982,0.63205,-0.321014,-27.425,19.7333,-29.9167,-7069,-28895
1452,204118,-9.78564,0.110059,-0.263184,155.429,88.2587,99.8712,0,0,0,0.618958,0.337982,0.63205,-0.321014,-27.4167,19.7333,-29.9167,-7069,-28895
1458,204124,-9.79043,0.105273,-0.267969,155.435,88.2587,99.8712,0,0,0,0.618958,0.337982,0.63205,-0.321014,-27.4167,19.7417,-29.9417,-7069,-28895
1464,204130,-9.81436,0.129199,-0.29668,155.435,88.2587,99.8712,0,0,0,0.618958,0.337982,0.63205,-0.321014,-27.4167,19.7417,-29.9583,-7069,-28895
1470,204136,-9.79521,0.100488,-0.311035,155.435,88.2587,99.8712,0,0,0,0.618958,0.338013,0.63205,-0.321014,-27.4167,19.7333,-29.9833,-7069,-28895
1476,204142,-9.79043,0.124414,-0.277539,155.435,88.2587,99.8712,0,0,0,0.618927,0.338013,0.63205,-0.321045,-27.4083,19.725,-30.0083,-7069,-28895
1482,204148,-9.80957,0.124414,-0.282324,155.435,88.2587,99.8712,0,0,0,0.618927,0.338013,0.63205,-0.321045,-27.425,19.7167,-30.025,-7069,-28895
1488,204154,-9.81436,0.105273,-0.277539,155.44,88.2587,99.8712,0,0,0,0.618927,0.338043,0.632019,-0.321045,-27.4417,19.725,-29.9917,-7069,-28895
1494,204160,-9.81436,0.124414,-0.272754,155.44,88.2587,99.8712,0,0,0,0.618927,0.338043,0.632019,-0.321075,-27.4583,19.7333,-29.9667,-7069,-28895
1500,204166,-9.81914,0.133984,-0.244043,155.446,88.2587,99.8712,0,0,0,0.618927,0.338043,0.632019,-0.321075,-27.4667,19.7333,-29.9333,-7069,-28895
1506,204172,-9.81436,0.129199,-0.258398,155.446,88.2587,99.8712,0,0,0,0.618927,0.338043,0.632019,-0.321075,-27.4833,19.7167,-29.9417,-7069,-28895
1512,204178,-9.80479,0.105273,-0.244043,155.446,88.2587,99.8712,0,0,0,0.618927,0.338043,0.632019,-0.321075,-27.5,19.7,-29.9667,-7069,-28895
1518,204184,-9.8,0.119629,-0.253613,155.446,88.2587,99.8712,0,0,0,0.618927,0.338074,0.632019,-0.321075,-27.4917,19.6667,-29.9833,-7069,-28895
1524,204190,-9.81914,0.105273,-0.239258,155.446,88.2587,99.8712,0,0,0,0.618896,0.338074,0.632019,-0.321106,-27.4917,19.6333,-29.9583,-7069,-28895
1530,204196,-9.80479,0.124414,-0.248828,155.446,88.2587,99.8712,0,0,0,0.618896,0.338074,0.632019,-0.321106,-27.5,19.6083,-29.9167,-7069,-28895
1536,204202,-9.80957,0.143555,-0.253613,155.446,88.2587,99.8712,0,0,0,0.618896,0.338074,0.632019,-0.321106,-27.525,19.6,-29.8667,-7069,-28895
1542,204208,-9.81436,0.090918,-0.239258,155.446,88.2587,99.8767,0,0,0,0.618927,0.338074,0.632019,-0.321075,-27.55,19.6,-29.8417,-7069,-28895
1548,204214,-9.80957,0.114844,-0.263184,155.446,88.2587,99.8767,0,0,0,0.618927,0.338074,0.632019,-0.321075,-27.5667,19.65,-29.8583,-7069,-28895
1554,204220,-9.81436,0.110059,-0.263184,155.446,88.2587,99.8767,0,0,0,0.618927,0.338074,0.632019,-0.321106,-27.5583,19.6917,-29.875,-7069,-28895
1560,204226,-9.79521,0.105273,-0.263184,155.451,88.2587,99.8767,0,0,0,0.618927,0.338074,0.632019,-0.321106,-27.55,19.7417,-29.9,-7069,-28895
1566,204232,-9.8,0.124414,-0.258398,155.451,88.2587,99.8767,0,0,0,0.618896,0.338074,0.632019,-0.321106,-27.5583,19.7917,-29.925,-7069,-28895
1572,204238,-9.8335,0.119629,-0.248828,155.451,88.2587,99.8767,0,0,0,0.618896,0.338074,0.632019,-0.321106,-27.575,19.8167,-29.9333,-7069,-28895
1578,204244,-9.77607,0.13877,-0.263184,155.451,88.2587,99.8767,0,0,0,0.618896,0.338074,0.632019,-0.321106,-27.625,19.8333,-29.9833,-7069,-28895
1584,204250,-9.81436,0.133984,-0.244043,155.451,88.2587,99.8767,0,0,0,0.618927,0.338074,0.632019,-0.321106,-27.625,19.8083,-30.0167,-7069,-28895
1590,204256,-9.81914,0.133984,-0.263184,155.446,88.2587,99.8767,0,0,0,0.618927,0.338043,0.632019,-0.321075,-27.625,19.8,-30.0417,-7069,-28895
1596,204262,-9.80957,0.114844,-0.263184,155.446,88.2587,99.8767,0,0,0,0.618927,0.338043,0.632019,-0.321075,-27.6167,19.8,-30.0917,-7069,-28895
1602,204268,-9.80479,0.133984,-0.277539,155.446,88.2587,99.8767,0,0,0,0.618927,0.338043,0.632019,-0.321075,-27.5833,19.8,-30.1167,-7069,-28895
1608,204274,-9.80957,0.129199,-0.272754,155.44,88.2587,99.8767,0,0,0,0.618927,0.338013,0.632019,-0.321045,-27.575,19.8167,-30.1333,-7069,-28895
1614,204280,-9.79521,0.119629,-0.267969,155.44,88.2587,99.8767,0,0,0,0.618958,0.338013,0.63205,-0.321045,-27.5667,19.8083,-30.1333,-7069,-28895
1620,204286,-9.81436,0.14834,-0.282324,155.44,88.2587,99.8767,0,0,0,0.618958,0.337982,0.63205,-0.321014,-27.5667,19.8,-30.1333,-7069,-28895
1626,204292,-9.79521,0.129199,-0.287109,155.435,88.2587,99.8767,0,0,0,0.618958,0.337982,0.63205,-0.321014,-27.5667,19.7917,-30.1583,-7069,-28895
1632,204298,-9.81914,0.124414,-0.244043,155.429,88.2587,99.8767,0,0,0,0.618958,0.337982,0.63205,-0.321014,-27.5583,19.7833,-30.1917,-7069,-28895
1638,204304,-9.8,0.105273,-0.267969,155.429,88.2587,99.8767,0,0,0,0.618988,0.337952,0.63208,-0.320984,-27.55,19.775,-30.2083,-7069,-28895
1644,204310,-9.78564,0.133984,-0.248828,155.429,88.2587,99.8767,0,0,0,0.618988,0.337921,0.63208,-0.320984,-27.55,19.775,-30.2167,-7069,-28895
1650,204316,-9.82393,0.133984,-0.239258,155.424,88.2587,99.8767,0,0,0,0.618988,0.337921,0.63208,-0.320953,-27.525,19.7833,-30.2,-7069,-28895
1656,204322,-9.84785,0.105273,-0.258398,155.424,88.2642,99.8767,0,0,0,0.618988,0.337891,0.63208,-0.320953,-27.4833,19.7917,-30.1917,-7069,-28895
1662,204328,-9.8,0.105273,-0.253613,155.418,88.2642,99.8767,0,0,0,0.619019,0.337891,0.632111,-0.320923,-27.4583,19.825,-30.1667,-7069,-28895
1668,204334,-9.79043,0.114844,-0.263184,155.418,88.2642,99.8767,0,0,0,0.619019,0.33786,0.632111,-0.320892,-27.4833,19.8333,-30.1417,-7069,-28895
1674,204340,-9.79521,0.129199,-0.239258,155.413,88.2642,99.8767,0,0,0,0.619019,0.33786,0.632111,-0.320892,-27.5,19.8583,-30.1333,-7069,-28895
1680,204346,-9.82393,0.0957031,-0.234473,155.413,88.2642,99.8767,0,0,0,0.619049,0.33783,0.632111,-0.320892,-27.5083,19.8667,-30.125,-7069,-28895
1686,204352,-9.80957,0.100488,-0.244043,155.407,88.2642,99.8767,0,0,0,0.619049,0.33783,0.632111,-0.320862,-27.5083,19.8833,-30.125,-7069,-28895
1692,204358,-9.79043,0.100488,-0.272754,155.407,88.2642,99.8767,0,0,0,0.619049,0.33783,0.632141,-0.320862,-27.5,19.9167,-30.1333,-7069,-28895
1698,204364,-9.79521,0.133984,-0.277539,155.407,88.2642,99.8767,0,0,0,0.619049,0.337799,0.632141,-0.320862,-27.5083,19.925,-30.1417,-7069,-28895
1704,204370,-9.81436,0.129199,-0.277539,155.402,88.2642,99.8767,0,0,0,0.619049,0.337799,0.632141,-0.320831,-27.5,19.9417,-30.1417,-7069,-28895
1710,204376,-9.82393,0.133984,-0.248828,155.402,88.2642,99.8767,0,0,0,0.61908,0.337799,0.632141,-0.320831,-27.475,19.95,-30.125,-7069,-28895
1716,204382,-9.80479,0.114844,-0.277539,155.402,88.2642,99.8767,0,0,0,0.61908,0.337769,0.632141,-0.320831,-27.4417,19.9417,-30.1167,-7069,-28895
1722,204388,-9.8,0.129199,-0.267969,155.396,88.2642,99.8767,0,0,0,0.61908,0.337769,0.632141,-0.320831,-27.425,19.9167,-30.0417,-7069,-28895
1728,204394,-9.8,0.153125,-0.272754,155.396,88.2642,99.8767,0,0,0,0.61908,0.337738,0.632172,-0.320801,-27.425,19.9083,-30.0583,-7069,-28895
1734,204400,-9.81914,0.105273,-0.248828,155.396,88.2642,99.8767,0,0,0,0.61908,0.337738,0.632172,-0.320801,-27.4167,19.8917,-30.0333,-7069,-28895
1740,204406,-9.81436,0.124414,-0.291895,155.396,88.2642,99.8767,0,0,0,0.61911,0.337738,0.632172,-0.32077,-27.3833,19.8583,-30.0083,-7069,-28895
1746,204412,-9.77129,0.124414,-0.258398,155.391,88.2642,99.8767,0,0,0,0.61911,0.337708,0.632172,-0.32077,-27.35,19.825,-29.9667,-7069,-28895
1752,204418,-9.79043,0.14834,-0.272754,155.385,88.2642,99.8767,0,0,0,0.61911,0.337708,0.632172,-0.32077,-27.3,19.7833,-29.8583,-7069,-28895
1758,204424,-9.78564,0.114844,-0.272754,155.385,88.2642,99.8822,0,0,0,0.61911,0.337677,0.632202,-0.32074,-27.2917,19.8,-29.8333,-7069,-28895
1764,204430,-9.78564,0.119629,-0.287109,155.385,88.2642,99.8822,0,0,0,0.619141,0.337677,0.632202,-0.32074,-27.2917,19.8167,-29.825,-7069,-28895
1770,204436,-9.80479,0.133984,-0.253613,155.385,88.2642,99.8822,0,0,0,0.619141,0.337677,0.632202,-0.320709,-27.3167,19.8417,-29.7833,-7069,-28895
1776,204442,-9.81436,0.124414,-0.282324,155.38,88.2642,99.8822,0,0,0,0.619141,0.337646,0.632202,-0.320709,-27.35,19.8833,-29.7417,-7069,-28895
1782,204448,-9.78086,0.124414,-0.258398,155.38,88.2642,99.8822,0,0,0,0.619141,0.337646,0.632202,-0.320709,-27.3917,19.925,-29.6583,-7069,-28895
1788,204454,-9.78564,0.124414,-0.277539,155.374,88.2642,99.8822,0,0,0,0.619141,0.337646,0.632233,-0.320679,-27.4083,19.9333,-29.625,-7069,-28895
1794,204460,-9.80957,0.119629,-0.244043,155.374,88.2642,99.8822,0,0,0,0.619141,0.337616,0.632233,-0.320679,-27.3833,19.9167,-29.6083,-7069,-28895
1800,204466,-9.80479,0.133984,-0.263184,155.374,88.2642,99.8822,0,0,0,0.619171,0.337616,0.632233,-0.320648,-27.375,19.9083,-29.6167,-7069,-28895
1806,204472,-9.82871,0.110059,-0.287109,155.374,88.2642,99.8822,0,0,0,0.619171,0.337616,0.632233,-0.320648,-27.3667,19.9083,-29.675,-7069,-28895
1812,204478,-9.79521,0.143555,-0.267969,155.369,88.2642,99.8822,0,0,0,0.619171,0.337585,0.632233,-0.320648,-27.3833,19.925,-29.825,-7069,-28895
1818,204484,-9.80479,0.124414,-0.248828,155.363,88.2642,99.8822,0,0,0,0.619202,0.337555,0.632263,-0.320618,-27.4,19.9167,-29.8833,-7069,-28895
1824,204490,-9.80957,0.143555,-0.272754,155.363,88.2642,99.8822,0,0,0,0.619202,0.337555,0.632263,-0.320587,-27.4,19.925,-29.95,-7069,-28895
1830,204496,-9.80957,0.0957031,-0.291895,155.363,88.2642,99.8822,0,0,0,0.619202,0.337555,0.632263,-0.320587,-27.4167,19.9083,-29.95,-7069,-28895
1836,204502,-9.82393,0.133984,-0.272754,155.358,88.2642,99.8822,0,0,0,0.619202,0.337524,0.632263,-0.320587,-27.4417,19.9,-29.9333,-7069,-28895
1842,204508,-9.79521,0.0957031,-0.248828,155.358,88.2642,99.8822,0,0,0,0.619202,0.337524,0.632263,-0.320557,-27.4833,19.9167,-29.9083,-7069,-28895
1848,204514,-9.8,0.119629,-0.277539,155.358,88.2642,99.8822,0,0,0,0.619202,0.337524,0.632294,-0.320557,-27.475,19.9333,-29.925,-7069,-28895
1854,204520,-9.81914,0.100488,-0.263184,155.358,88.2642,99.8822,0,0,0,0.619202,0.337524,0.632294,-0.320557,-27.4583,19.9417,-29.9917,-7069,-28895
1860,204526,-9.80957,0.0957031,-0.258398,155.358,88.2642,99.8822,0,0,0,0.619202,0.337524,0.632294,-0.320557,-27.4583,19.95,-30.0417,-7069,-28895
1866,204532,-9.80957,0.124414,-0.29668,155.358,88.2642,99.8822,0,0,0,0.619202,0.337524,0.632263,-0.320557,-27.4417,19.95,-30.0833,-7069,-28895
1872,204538,-9.78564,0.110059,-0.291895,155.363,88.2642,99.8822,0,0,0,0.619202,0.337524,0.632263,-0.320587,-27.45,19.925,-30.1583,-7069,-28895
1878,204544,-9.8,0.124414,-0.277539,155.363,88.2642,99.8822,0,0,0,0.619202,0.337555,0.632263,-0.320587,-27.4417,19.9167,-30.1583,-7069,-28895
1884,204550,-9.80957,0.0861328,-0.248828,155.363,88.2642,99.8822,0,0,0,0.619202,0.337555,0.632263,-0.320587,-27.4417,19.925,-30.175,-7069,-28895
1890,204556,-9.8,0.105273,-0.282324,155.369,88.2642,99.8822,0,0,0,0.619171,0.337555,0.632263,-0.320618,-27.4333,19.8917,-30.1667,-7069,-28895
1896,204562,-9.80957,0.129199,-0.277539,155.369,88.2642,99.8822,0,0,0,0.619171,0.337585,0.632263,-0.320618,-27.4167,19.8667,-30.1333,-7069,-28895
1902,204568,-9.8,0.13877,-0.253613,155.374,88.2642,99.8822,0,0,0,0.619171,0.337585,0.632233,-0.320648,-27.4333,19.8333,-30.1167,-7069,-28895
1908,204574,-9.79521,0.143555,-0.253613,155.374,88.2642,99.8822,0,0,0,0.619171,0.337616,0.632233,-0.320648,-27.45,19.85,-30.1,-7069,-28895
1914,204580,-9.79043,0.124414,-0.282324,155.374,88.2642,99.8822,0,0,0,0.619171,0.337616,0.632233,-0.320648,-27.45,19.85,-30.075,-7069,-28895
1920,204586,-9.79043,0.110059,-0.258398,155.38,88.2642,99.8822,0,0,0,0.619171,0.337616,0.632233,-0.320679,-27.425,19.8667,-30.0417,-7069,-28895
1926,204592,-9.82871,0.110059,-0.282324,155.38,88.2642,99.8822,0,0,0,0.619141,0.337616,0.632233,-0.320679,-27.4167,19.875,-30.0667,-7069,-28895
1932,204598,-9.8,0.129199,-0.282324,155.38,88.2642,99.8822,0,0,0,0.619141,0.337646,0.632233,-0.320679,-27.4083,19.9,-30.075,-7069,-28895
1938,204604,-9.81436,0.124414,-0.282324,155.38,88.2642,99.8822,0,0,0,0.619141,0.337646,0.632202,-0.320679,-27.425,19.9167,-30.1,-7069,-28895
1944,204610,-9.81914,0.110059,-0.282324,155.385,88.2642,99.8822,0,0,0,0.619141,0.337646,0.632202,-0.320709,-27.4417,19.9417,-30.1083,-7069,-28895
1950,204616,-9.78564,0.110059,-0.287109,155.385,88.2642,99.8822,0,0,0,0.619141,0.337677,0.632202,-0.320709,-27.4417,19.9667,-30.1,-7069,-28895
1956,204622,-9.79521,0.110059,-0.272754,155.385,88.2642,99.8822,0,0,0,0.619141,0.337677,0.632202,-0.320709,-27.45,19.9833,-30.1333,-7069,-28895
1962,204628,-9.80957,0.133984,-0.291895,155.391,88.2642,99.8822,0,0,0,0.61911,0.337677,0.632202,-0.32074,-27.4333,20.0167,-30.1833,-7069,-28895
1968,204634,-9.80957,0.105273,-0.263184,155.391,88.2642,99.8822,0,0,0,0.61911,0.337708,0.632202,-0.32074,-27.45,20.025,-30.1667,-7069,-28895
1974,204640,-9.81436,0.110059,-0.263184,155.396,88.2642,99.8822,0,0,0,0.61911,0.337708,0.632172,-0.32077,-27.4583,20.025,-30.1583,-7069,-28895
1980,204646,-9.78086,0.13877,-0.282324,155.396,88.2642,99.8822,0,0,0,0.61911,0.337708,0.632172,-0.32077,-27.4667,20.0333,-30.1417,-7069,-28895
1986,204652,-9.78564,0.114844,-0.248828,155.396,88.2642,99.8822,0,0,0,0.61911,0.337738,0.632172,-0.32077,-27.4833,20.0333,-30.125,-7069,-28895
1992,204658,-9.81914,0.129199,-0.248828,155.402,88.2642,99.8822,0,0,0,0.61908,0.337738,0.632172,-0.320801,-27.525,20.025,-30.1167,-7069,-28895
1998,204664,-9.80479,0.110059,-0.263184,155.402,88.2642,99.8822,0,0,0,0.61908,0.337738,0.632172,-0.320801,-27.5417,20.0083,-30.0917,-7069,-28895
2004,204670,-9.80479,0.129199,-0.244043,155.402,88.2642,99.8822,0,0,0,0.61908,0.337769,0.632172,-0.320801,-27.5417,19.9917,-30.075,-7069,-28895
2010,204676,-9.79521,0.110059,-0.263184,155.407,88.2642,99.8877,0,0,0,0.61908,0.337769,0.632141,-0.320801,-27.5583,20,-30.0667,-7069,-28895
2016,204682,-9.78564,0.105273,-0.291895,155.407,88.2642,99.8877,0,0,0,0.61908,0.337769,0.632141,-0.320801,-27.5667,20,-30.05,-7069,-28895
2022,204688,-9.81436,0.13877,-0.263184,155.407,88.2642,99.8877,0,0,0,0.61908,0.337769,0.632141,-0.320831,-27.5667,20.0083,-30.0667,-7069,-28895
2028,204694,-9.80957,0.153125,-0.272754,155.407,88.2642,99.8877,0,0,0,0.61908,0.337769,0.632141,-0.320831,-27.55,20.0083,-30.05,-7069,-28895
2034,204700,-9.79043,0.110059,-0.248828,155.407,88.2642,99.8877,0,0,0,0.61908,0.337769,0.632141,-0.320831,-27.5333,20,-30.0667,-7069,-28895
2040,204706,-9.78086,0.13877,-0.253613,155.407,88.2642,99.8877,0,0,0,0.61908,0.337769,0.632141,-0.320801,-27.5167,20.0167,-30.0833,-7069,-28895
2046,204712,-9.8,0.14834,-0.267969,155.407,88.2642,99.8877,0,0,0,0.61908,0.337769,0.632141,-0.320801,-27.5083,20.0167,-30.0917,-7069,-28895
2052,204718,-9.80957,0.129199,-0.229688,155.402,88.2642,99.8877,0,0,0,0.61908,0.337738,0.632172,-0.320801,-27.5333,19.9917,-30.0833,-7069,-28895
2058,204724,-9.82393,0.105273,-0.282324,155.402,88.2642,99.8877,0,0,0,0.61908,0.337738,0.632172,-0.320801,-27.55,19.975,-30.0917,-7069,-28895
2064,204730,-9.81914,0.119629,-0.248828,155.402,88.2642,99.8877,0,0,0,0.61911,0.337738,0.632172,-0.32077,-27.5667,19.9583,-30.0667,-7069,-28895
2070,204736,-9.79043,0.133984,-0.229688,155.396,88.2642,99.8877,0,0,0,0.61911,0.337708,0.632172,-0.32077,-27.5833,19.9333,-30.0667,-7069,-28895
2076,204742,-9.80479,0.110059,-0.272754,155.396,88.2642,99.8877,0,0,0,0.61911,0.337708,0.632172,-0.32077,-27.5833,19.9167,-30.0833,-7069,-28895
2082,204748,-9.7665,0.129199,-0.272754,155.391,88.2642,99.8877,0,0,0,0.61911,0.337677,0.632202,-0.32074,-27.5833,19.8917,-30.0583,-7069,-28895
2088,204754,-9.80957,0.13877,-0.287109,155.391,88.2642,99.8877,0,0,0,0.619141,0.337677,0.632202,-0.32074,-27.5833,19.8917,-30.0417,-7069,-28895
2094,204760,-9.78086,0.110059,-0.267969,155.391,88.2642,99.8877,0,0,0,0.619141,0.337677,0.632202,-0.320709,-27.5917,19.8917,-30.025,-7069,-28895
2100,204766,-9.80957,0.090918,-0.234473,155.391,88.2642,99.8877,0,0,0,0.619141,0.337646,0.632202,-0.320709,-27.5833,19.8917,-30.0333,-7069,-28895
2106,204772,-9.79043,0.129199,-0.263184,155.391,88.2642,99.8877,0,0,0,0.619141,0.337646,0.632202,-0.320709,-27.575,19.8917,-30.0667,-7069,-28895
2112,204778,-9.8,0.129199,-0.287109,155.385,88.2642,99.8877,0,0,0,0.619141,0.337646,0.632202,-0.320709,-27.55,19.9167,-30.125,-7069,-28895
2118,204784,-9.81914,0.129199,-0.287109,155.385,88.2642,99.8877,0,0,0,0.619141,0.337646,0.632202,-0.320709,-27.5417,19.9417,-30.125,-7069,-28895
2124,204790,-9.81436,0.129199,-0.234473,155.385,88.2642,99.8877,0,0,0,0.619141,0.337646,0.632233,-0.320679,-27.5417,19.975,-30.1417,-7069,-28895
2130,204796,-9.8,0.129199,-0.282324,155.385,88.2642,99.8877,0,0,0,0.619141,0.337616,0.632233,-0.320679,-27.5167,19.9833,-30.1833,-7069,-28895
2136,204802,-9.80957,0.129199,-0.291895,155.38,88.2642,99.8877,0,0,0,0.619171,0.337616,0.632233,-0.320679,-27.5083,20,-30.2167,-7069,-28895
2142,204808,-9.79043,0.100488,-0.267969,155.38,88.2642,99.8877,0,0,0,0.619171,0.337616,0.632233,-0.320648,-27.5,19.975,-30.2083,-7069,-28895
2148,204814,-9.81436,0.133984,-0.282324,155.38,88.2642,99.8877,0,0,0,0.619171,0.337585,0.632233,-0.320648,-27.5,19.95,-30.15,-7069,-28895
2154,204820,-9.80479,0.133984,-0.263184,155.38,88.2642,99.8877,0,0,0,0.619171,0.337585,0.632233,-0.320648,-27.5083,19.95,-30.0833,-7069,-28895
2160,204826,-9.80479,0.119629,-0.258398,155.374,88.2642,99.8877,0,0,0,0.619171,0.337585,0.632233,-0.320648,-27.525,19.9583,-30.0417,-7069,-28895
2166,204832,-9.78086,0.133984,-0.287109,155.374,88.2642,99.8877,0,0,0,0.619171,0.337585,0.632233,-0.320618,-27.5333,19.9833,-30,-7069,-28895
2172,204838,-9.8,0.124414,-0.263184,155.374,88.2642,99.8877,0,0,0,0.619202,0.337555,0.632263,-0.320618,-27.5,20.025,-30.075,-7069,-28895
2178,204844,-9.80957,0.100488,-0.272754,155.374,88.2642,99.8877,0,0,0,0.619202,0.337555,0.632263,-0.320618,-27.4667,20.0333,-30.1083,-7069,-28895
2184,204850,-9.8,0.119629,-0.210547,155.369,88.2642,99.8877,0,0,0,0.619202,0.337555,0.632263,-0.320618,-27.4333,20.0417,-30.1667,-7069,-28895
2190,204856,-9.80957,0.124414,-0.282324,155.369,88.2642,99.8877,0,0,0,0.619202,0.337555,0.632263,-0.320587,-27.4083,20.0333,-30.225,-7069,-28895
2196,204862,-9.8,0.114844,-0.282324,155.369,88.2642,99.8877,0,0,0,0.619202,0.337524,0.632263,-0.320587,-27.3833,20.0167,-30.2333,-7069,-28895
2202,204868,-9.78086,0.110059,-0.244043,155.369,88.2642,99.8877,0,0,0,0.619202,0.337524,0.632263,-0.320587,-27.3667,19.9917,-30.0917,-7069,-28895
2208,204874,-9.80957,0.124414,-0.301465,155.369,88.2642,99.8877,0,0,0,0.619202,0.337524,0.632263,-0.320587,-27.3583,19.9833,-30.025,-7069,-28895
2214,204880,-9.81436,0.114844,-0.253613,155.369,88.2642,99.8877,0,0,0,0.619202,0.337524,0.632263,-0.320587,-27.3667,19.975,-29.975,-7069,-28895
2220,204886,-9.79043,0.15791,-0.267969,155.363,88.2642,99.8877,0,0,0,0.619202,0.337524,0.632294,-0.320557,-27.3583,19.9667,-29.9917,-7069,-28895
2226,204892,-9.79043,0.114844,-0.253613,155.363,88.2642,99.8877,0,0,0,0.619202,0.337494,0.632294,-0.320557,-27.3583,19.95,-30.025,-7069,-28895
2232,204898,-9.80957,0.119629,-0.267969,155.363,88.2642,99.8877,0,0,0,0.619232,0.337494,0.632294,-0.320557,-27.3333,19.9417,-30.1917,-7069,-28895
2238,204904,-9.79521,0.124414,-0.263184,155.358,88.2642,99.8877,0,0,0,0.619232,0.337494,0.632294,-0.320557,-27.3083,19.9417,-30.2583,-7069,-28895
2244,204910,-9.80479,0.129199,-0.244043,155.358,88.2642,99.8877,0,0,0,0.619232,0.337494,0.632294,-0.320526,-27.2667,19.95,-30.3,-7069,-28895
2250,204916,-9.80479,0.114844,-0.263184,155.358,88.2642,99.8877,0,0,0,0.619232,0.337463,0.632294,-0.320526,-27.2333,19.9583,-30.3333,-7069,-28895
2256,204922,-9.81436,0.133984,-0.272754,155.352,88.2642,99.8877,0,0,0,0.619232,0.337463,0.632294,-0.320526,-27.1917,19.9583,-30.325,-7069,-28895
2262,204928,-9.79521,0.110059,-0.253613,155.352,88.2642,99.8877,0,0,0,0.619263,0.337433,0.632324,-0.320496,-27.225,19.9667,-30.2833,-7069,-28895
2268,204934,-9.82393,0.129199,-0.239258,155.352,88.2642,99.8877,0,0,0,0.619263,0.337433,0.632324,-0.320496,-27.225,19.9667,-30.2417,-7069,-28895
2274,204940,-9.78564,0.124414,-0.272754,155.347,88.2642,99.8877,0,0,0,0.619263,0.337433,0.632324,-0.320465,-27.2333,19.975,-30.1833,-7069,-28895
2280,204946,-9.79521,0.110059,-0.253613,155.347,88.2642,99.8932,0,0,0,0.619263,0.337402,0.632324,-0.320465,-27.2333,19.9833,-30.125,-7069,-28895
2286,204952,-9.78564,0.14834,-0.267969,155.347,88.2642,99.8877,0,0,0,0.619263,0.337402,0.632324,-0.320465,-27.2417,20.0083,-30.05,-7069,-28895
2292,204958,-9.8,0.119629,-0.277539,155.341,88.2642,99.8877,0,0,0,0.619293,0.337372,0.632355,-0.320435,-27.3083,20.0333,-29.95,-7069,-28895
2298,204964,-9.79521,0.133984,-0.263184,155.341,88.2642,99.8877,0,0,0,0.619293,0.337372,0.632355,-0.320435,-27.3583,20.0667,-29.9333,-7069,-28895
2304,204970,-9.77607,0.124414,-0.282324,155.341,88.2642,99.8932,0,0,0,0.619293,0.337372,0.632355,-0.320435,-27.3833,20.0583,-29.9333,-7069,-28895
2310,204976,-9.80957,0.133984,-0.267969,155.336,88.2642,99.8932,0,0,0,0.619293,0.337341,0.632355,-0.320404,-27.3833,20.0667,-29.975,-7069,-28895
2316,204982,-9.78564,0.119629,-0.277539,155.336,88.2642,99.8932,0,0,0,0.619293,0.337341,0.632355,-0.320404,-27.3917,20.05,-29.9917,-7069,-28895
2322,204988,-9.82393,0.129199,-0.248828,155.33,88.2642,99.8932,0,0,0,0.619324,0.337341,0.632355,-0.320374,-27.375,20.0833,-30.025,-7069,-28895
2328,204994,-9.80479,0.14834,-0.248828,155.33,88.2642,99.8932,0,0,0,0.619324,0.337311,0.632385,-0.320374,-27.3667,20.1167,-30,-7069,-28895
2334,205000,-9.79521,0.124414,-0.263184,155.325,88.2642,99.8932,0,0,0,0.619324,0.337311,0.632385,-0.320343,-27.35,20.15,-30.0083,-7069,-28895
2340,205006,-9.78086,0.133984,-0.272754,155.325,88.2642,99.8932,0,0,0,0.619354,0.33728,0.632385,-0.320343,-27.3333,20.1667,-30.0333,-7069,-28895
2346,205012,-9.81914,0.110059,-0.277539,155.319,88.2642,99.8932,0,0,0,0.619354,0.33728,0.632385,-0.320343,-27.3167,20.1667,-30.0583,-7069,-28895
2352,205018,-9.79043,0.13877,-0.263184,155.319,88.2642,99.8932,0,0,0,0.619354,0.33725,0.632416,-0.320313,-27.3,20.2,-30.1667,-7069,-28895
2358,205024,-9.79521,0.133984,-0.277539,155.314,88.2642,99.8932,0,0,0,0.619354,0.337219,0.632416,-0.320282,-27.3083,20.225,-30.2333,-7069,-28895
2364,205030,-9.79521,0.124414,-0.272754,155.314,88.2642,99.8932,0,0,0,0.619385,0.337219,0.632416,-0.320282,-27.3,20.25,-30.2583,-7069,-28895
2370,205036,-9.79043,0.143555,-0.29668,155.308,88.2642,99.8932,0,0,0,0.619385,0.337219,0.632446,-0.320251,-27.3167,20.2583,-30.2417,-7069,-28895
2376,205042,-9.80957,0.110059,-0.263184,155.308,88.2642,99.8932,0,0,0,0.619385,0.337189,0.632446,-0.320251,-27.3417,20.2417,-30.2167,-7069,-28895
2382,205048,-9.80479,0.119629,-0.267969,155.303,88.2642,99.8932,0,0,0,0.619385,0.337189,0.632446,-0.320221,-27.35,20.2167,-30.15,-7069,-28895
2388,205054,-9.80479,0.119629,-0.291895,155.303,88.2642,99.8932,0,0,0,0.619415,0.337158,0.632446,-0.320221,-27.3417,20.2,-30.1083,-7069,-28895
2394,205060,-9.80957,0.13877,-0.267969,155.303,88.2642,99.8932,0,0,0,0.619415,0.337158,0.632446,-0.320221,-27.3333,20.1917,-30.1,-7069,-28895
2400,205066,-9.8,0.124414,-0.272754,155.303,88.2642,99.8932,0,0,0,0.619415,0.337158,0.632477,-0.32019,-27.3167,20.2,-30.1,-7069,-28895
2406,205072,-9.8335,0.114844,-0.272754,155.297,88.2642,99.8932,0,0,0,0.619415,0.337158,0.632477,-0.32019,-27.3333,20.2167,-30.2333,-7069,-28895
2412,205078,-9.81436,0.0957031,-0.272754,155.297,88.2642,99.8932,0,0,0,0.619415,0.337128,0.632477,-0.32019,-27.35,20.2083,-30.2917,-7069,-28895
2418,205084,-9.80957,0.110059,-0.291895,155.297,88.2642,99.8932,0,0,0,0.619415,0.337128,0.632477,-0.32019,-27.3917,20.2,-30.3083,-7069,-28895
2424,205090,-9.80957,0.0957031,-0.277539,155.297,88.2642,99.8932,0,0,0,0.619415,0.337128,0.632477,-0.32019,-27.4167,20.1917,-30.2667,-7069,-28895
2430,205096,-9.80479,0.105273,-0.277539,155.297,88.2642,99.8932,0,0,0,0.619415,0.337158,0.632477,-0.32019,-27.4417,20.175,-30.2667,-7069,-28895
2436,205102,-9.82393,0.110059,-0.239258,155.303,88.2642,99.8932,0,0,0,0.619415,0.337158,0.632477,-0.32019,-27.4583,20.175,-30.325,-7069,-28895
2442,205108,-9.8,0.090918,-0.263184,155.303,88.2642,99.8932,0,0,0,0.619385,0.337189,0.632446,-0.320221,-27.4583,20.1583,-30.4,-7069,-28895
2448,205114,-9.80479,0.129199,-0.272754,155.308,88.2642,99.8932,0,0,0,0.619385,0.337189,0.632446,-0.320221,-27.4583,20.15,-30.4583,-7069,-28895
2454,205120,-9.82393,0.119629,-0.272754,155.308,88.2642,99.8932,0,0,0,0.619385,0.337189,0.632446,-0.320251,-27.45,20.15,-30.4417,-7069,-28895
2460,205126,-9.8,0.110059,-0.277539,155.308,88.2642,99.8932,0,0,0,0.619385,0.337189,0.632446,-0.320251,-27.4333,20.15,-30.4417,-7069,-28895
2466,205132,-9.81436,0.129199,-0.267969,155.314,88.2642,99.8932,0,0,0,0.619385,0.337219,0.632446,-0.320251,-27.3917,20.1333,-30.3833,-7069,-28895
2472,205138,-9.82871,0.129199,-0.253613,155.314,88.2642,99.8932,0,0,0,0.619354,0.337219,0.632416,-0.320282,-27.4083,20.1167,-30.375,-7069,-28895
2478,205144,-9.78086,0.124414,-0.267969,155.314,88.2642,99.8932,0,0,0,0.619354,0.337219,0.632416,-0.320282,-27.425,20.0917,-30.3333,-7069,-28895
2484,205150,-9.8,0.143555,-0.267969,155.314,88.2642,99.8932,0,0,0,0.619354,0.337219,0.632416,-0.320282,-27.4417,20.05,-30.3167,-7069,-28895
2490,205156,-9.78564,0.13877,-0.253613,155.314,88.2642,99.8932,0,0,0,0.619354,0.337219,0.632416,-0.320282,-27.475,20.0167,-30.2917,-7069,-28895
2496,205162,-9.80479,0.119629,-0.258398,155.314,88.2642,99.8932,0,0,0,0.619354,0.337219,0.632416,-0.320282,-27.5333,19.9833,-30.275,-7069,-28895
2502,205168,-9.79521,0.143555,-0.248828,155.314,88.2642,99.8932,0,0,0,0.619385,0.337219,0.632446,-0.320282,-27.5667,20,-30.25,-7069,-28895
2508,205174,-9.8,0.129199,-0.287109,155.314,88.2642,99.8932,0,0,0,0.619385,0.337219,0.632446,-0.320251,-27.5833,20.025,-30.2333,-7069,-28895
2514,205180,-9.81914,0.114844,-0.272754,155.314,88.2642,99.8932,0,0,0,0.619385,0.337219,0.632446,-0.320251,-27.6083,20.0417,-30.2417,-7069,-28895
2520,205186,-9.8335,0.110059,-0.29668,155.314,88.2642,99.8932,0,0,0,0.619385,0.337219,0.632446,-0.320251,-27.625,20.05,-30.2167,-7069,-28895
2526,205192,-9.80957,0.153125,-0.263184,155.314,88.2642,99.8932,0,0,0,0.619385,0.337219,0.632446,-0.320251,-27.6333,20.05,-30.25,-7069,-28895
2532,205198,-9.8,0.105273,-0.287109,155.314,88.2642,99.8932,0,0,0,0.619385,0.337219,0.632446,-0.320251,-27.6333,20.0167,-30.2667,-7069,-28895
2538,205204,-9.80479,0.114844,-0.248828,155.314,88.2642,99.8932,0,0,0,0.619385,0.337219,0.632446,-0.320282,-27.6167,20.0083,-30.3167,-7069,-28895
2544,205210,-9.8,0.110059,-0.263184,155.314,88.2642,99.8932,0,0,0,0.619385,0.337219,0.632416,-0.320282,-27.6083,20,-30.3417,-7069,-28895
2550,205216,-9.80479,0.129199,-0.272754,155.314,88.2642,99.8932,0,0,0,0.619354,0.337219,0.632416,-0.320282,-27.6083,20.0083,-30.3833,-7069,-28895
2556,205222,-9.80479,0.124414,-0.253613,155.319,88.2642,99.8932,0,0,0,0.619354,0.337219,0.632416,-0.320282,-27.575,20.0167,-30.3667,-7069,-28895
2562,205228,-9.80957,0.133984,-0.263184,155.319,88.2642,99.8932,0,0,0,0.619354,0.33725,0.632416,-0.320282,-27.55,20.025,-30.3583,-7069,-28895
2568,205234,-9.79521,0.119629,-0.253613,155.319,88.2642,99.8932,0,0,0,0.619354,0.33725,0.632416,-0.320282,-27.5333,20.025,-30.3167,-7069,-28895
2574,205240,-9.80957,0.090918,-0.244043,155.319,88.2642,99.8932,0,0,0,0.619354,0.33725,0.632416,-0.320282,-27.5333,20.025,-30.2833,-7069,-28895
2580,205246,-9.80479,0.119629,-0.263184,155.319,88.2642,99.8932,0,0,0,0.619354,0.33725,0.632416,-0.320282,-27.5333,20.0417,-30.2917,-7069,-28895
2586,205252,-9.79521,0.114844,-0.267969,155.319,88.2642,99.8932,0,0,0,0.619354,0.33725,0.632416,-0.320282,-27.575,20.075,-30.3417,-7069,-28895
2592,205258,-9.79521,0.110059,-0.267969,155.319,88.2642,99.8932,0,0,0,0.619354,0.33725,0.632416,-0.320282,-27.5667,20.0583,-30.3917,-7069,-28895
2598,205264,-9.78086,0.133984,-0.239258,155.319,88.2642,99.8932,0,0,0,0.619354,0.33725,0.632416,-0.320282,-27.55,20.0667,-30.45,-7069,-28895
2604,205270,-9.77129,0.129199,-0.272754,155.319,88.2642,99.8932,0,0,0,0.619354,0.33725,0.632416,-0.320282,-27.5417,20.0583,-30.4917,-7069,-28895
2610,205276,-9.8,0.133984,-0.267969,155.319,88.2642,99.8932,0,0,0,0.619354,0.33725,0.632416,-0.320282,-27.525,20.0667,-30.55,-7069,-28895
2616,205282,-9.78564,0.100488,-0.272754,155.314,88.2642,99.8932,0,0,0,0.619385,0.337219,0.632416,-0.320282,-27.5167,20.1167,-30.6083,-7069,-28895
2622,205288,-9.79521,0.114844,-0.282324,155.314,88.2642,99.8932,0,0,0,0.619385,0.337219,0.632416,-0.320282,-27.5167,20.1333,-30.6083,-7069,-28895
2628,205294,-9.80957,0.124414,-0.30625,155.314,88.2642,99.8932,0,0,0,0.619385,0.337219,0.632416,-0.320282,-27.5083,20.1333,-30.5583,-7069,-28895
2634,205300,-9.8,0.114844,-0.277539,155.314,88.2642,99.8932,0,0,0,0.619385,0.337219,0.632416,-0.320282,-27.5083,20.1333,-30.5333,-7069,-28895
2640,205306,-9.80957,0.124414,-0.267969,155.314,88.2642,99.8932,0,0,0,0.619385,0.337219,0.632416,-0.320282,-27.5083,20.1333,-30.5417,-7069,-28895
2646,205312,-9.79521,0.105273,-0.253613,155.314,88.2642,99.8932,0,0,0,0.619385,0.337219,0.632416,-0.320282,-27.525,20.125,-30.5833,-7069,-28895
2652,205318,-9.8,0.124414,-0.248828,155.319,88.2642,99.8932,0,0,0,0.619354,0.337219,0.632416,-0.320282,-27.525,20.1333,-30.6,-7069,-28895
2658,205324,-9.80479,0.119629,-0.229688,155.319,88.2642,99.8932,0,0,0,0.619354,0.337219,0.632416,-0.320282,-27.525,20.15,-30.575,-7069,-28895
2664,205330,-9.79521,0.129199,-0.244043,155.319,88.2642,99.8932,0,0,0,0.619385,0.337219,0.632416,-0.320282,-27.5333,20.1417,-30.5,-7069,-28895
2670,205336,-9.81436,0.124414,-0.253613,155.319,88.2642,99.8932,0,0,0,0.619385,0.337219,0.632416,-0.320282,-27.5333,20.15,-30.475,-7069,-28895
2676,205342,-9.80957,0.124414,-0.248828,155.314,88.2642,99.8932,0,0,0,0.619385,0.337219,0.632416,-0.320282,-27.5167,20.15,-30.3667,-7069,-28895
2682,205348,-9.80479,0.114844,-0.248828,155.314,88.2642,99.8932,0,0,0,0.619385,0.337219,0.632446,-0.320251,-27.5,20.1667,-30.35,-7069,-28895
2688,205354,-9.8,0.119629,-0.277539,155.314,88.2642,99.8932,0,0,0,0.619385,0.337219,0.632446,-0.320251,-27.4833,20.1667,-30.3333,-7069,-28895
2694,205360,-9.80479,0.124414,-0.253613,155.314,88.2642,99.8932,0,0,0,0.619385,0.337189,0.632446,-0.320251,-27.4917,20.175,-30.2917,-7069,-28895
2700,205366,-9.79521,0.133984,-0.277539,155.314,88.2642,99.8932,0,0,0,0.619385,0.337189,0.632446,-0.320251,-27.4583,20.175,-30.2583,-7069,-28895
2706,205372,-9.81436,0.143555,-0.263184,155.308,88.2642,99.8932,0,0,0,0.619385,0.337189,0.632446,-0.320221,-27.425,20.1583,-30.175,-7069,-28895
2712,205378,-9.81436,0.133984,-0.287109,155.308,88.2642,99.8932,0,0,0,0.619415,0.337158,0.632446,-0.320221,-27.375,20.1417,-30.125,-7069,-28895
2718,205384,-9.79043,0.129199,-0.277539,155.308,88.2642,99.8932,0,0,0,0.619415,0.337158,0.632446,-0.320221,-27.35,20.1167,-30.1167,-7069,-28895
2724,205390,-9.78086,0.124414,-0.282324,155.303,88.2642,99.8932,0,0,0,0.619415,0.337158,0.632446,-0.320221,-27.325,20.1083,-30.1167,-7069,-28895
2730,205396,-9.78086,0.114844,-0.253613,155.303,88.2642,99.8932,0,0,0,0.619415,0.337158,0.632477,-0.32019,-27.3167,20.1,-30.1083,-7069,-28895
2736,205402,-9.80479,0.129199,-0.272754,155.297,88.2642,99.8932,0,0,0,0.619415,0.337128,0.632477,-0.32019,-27.3667,20.1417,-30.1333,-7069,-28895
2742,205408,-9.83828,0.124414,-0.263184,155.297,88.2642,99.8932,0,0,0,0.619415,0.337128,0.632477,-0.32016,-27.375,20.15,-30.1083,-7069,-28895
2748,205414,-9.79043,0.133984,-0.282324,155.297,88.2642,99.8932,0,0,0,0.619446,0.337097,0.632477,-0.32016,-27.3917,20.15,-30.1083,-7069,-28895
2754,205420,-9.8,0.105273,-0.287109,155.297,88.2642,99.8932,0,0,0,0.619446,0.337097,0.632477,-0.32016,-27.3917,20.15,-30.1167,-7069,-28895
2760,205426,-9.8,0.124414,-0.253613,155.292,88.2642,99.8932,0,0,0,0.619446,0.337097,0.632477,-0.32016,-27.375,20.1333,-30.125,-7069,-28895
2766,205432,-9.81436,0.129199,-0.277539,155.292,88.2642,99.8932,0,0,0,0.619446,0.337067,0.632507,-0.320129,-27.3417,20.1167,-30.1583,-7069,-28895
2772,205438,-9.80957,0.0957031,-0.282324,155.292,88.2642,99.8932,0,0,0,0.619446,0.337067,0.632507,-0.320129,-27.3333,20.1167,-30.1667,-7069,-28895
2778,205444,-9.8,0.124414,-0.272754,155.286,88.2642,99.8932,0,0,0,0.619446,0.337067,0.632507,-0.320129,-27.325,20.125,-30.1667,-7069,-28895
2784,205450,-9.78564,0.110059,-0.263184,155.286,88.2642,99.8932,0,0,0,0.619446,0.337067,0.632507,-0.320099,-27.3083,20.1417,-30.1917,-7069,-28895
2790,205456,-9.79043,0.110059,-0.248828,155.286,88.2642,99.8987,0,0,0,0.619446,0.337067,0.632507,-0.320099,-27.2917,20.1667,-30.2083,-7069,-28895
2796,205462,-9.78564,0.124414,-0.263184,155.286,88.2642,99.8987,0,0,0,0.619446,0.337067,0.632507,-0.320099,-27.275,20.1917,-30.25,-7069,-28895
2802,205468,-9.81914,0.110059,-0.277539,155.286,88.2642,99.8987,0,0,0,0.619446,0.337067,0.632507,-0.320099,-27.2667,20.2167,-30.275,-7069,-28895
2808,205474,-9.81436,0.0813477,-0.272754,155.292,88.2642,99.8987,0,0,0,0.619446,0.337067,0.632507,-0.320129,-27.2833,20.2083,-30.25,-7069,-28895
2814,205480,-9.81436,0.090918,-0.258398,155.292,88.2642,99.8932,0,0,0,0.619446,0.337067,0.632507,-0.320129,-27.3,20.2,-30.2583,-7069,-28895
2820,205486,-9.78564,0.114844,-0.267969,155.292,88.2642,99.8932,0,0,0,0.619446,0.337097,0.632507,-0.320129,-27.3417,20.1917,-30.2417,-7069,-28895
2826,205492,-9.77607,0.114844,-0.263184,155.297,88.2642,99.8932,0,0,0,0.619446,0.337097,0.632477,-0.32016,-27.3833,20.175,-30.2667,-7069,-28895
2832,205498,-9.80957,0.114844,-0.267969,155.297,88.2642,99.8987,0,0,0,0.619415,0.337128,0.632477,-0.32019,-27.375,20.1667,-30.2917,-7069,-28895
2838,205504,-9.80957,0.114844,-0.258398,155.303,88.2642,99.8987,0,0,0,0.619415,0.337128,0.632477,-0.32019,-27.3333,20.1583,-30.3167,-7069,-28895
2844,205510,-9.81436,0.119629,-0.263184,155.303,88.2642,99.8987,0,0,0,0.619415,0.337158,0.632477,-0.32019,-27.3167,20.15,-30.325,-7069,-28895
2850,205516,-9.79043,0.124414,-0.272754,155.308,88.2642,99.8987,0,0,0,0.619415,0.337158,0.632446,-0.320221,-27.3,20.1333,-30.3417,-7069,-28895
2856,205522,-9.79521,0.105273,-0.272754,155.308,88.2642,99.8987,0,0,0,0.619385,0.337189,0.632446,-0.320251,-27.325,20.0833,-30.2917,-7069,-28895
2862,205528,-9.80479,0.124414,-0.263184,155.314,88.2642,99.8987,0,0,0,0.619385,0.337189,0.632446,-0.320251,-27.3583,20.0583,-30.3083,-7069,-28895
2868,205534,-9.79521,0.119629,-0.277539,155.314,88.2642,99.8987,0,0,0,0.619385,0.337189,0.632446,-0.320251,-27.3833,20.0333,-30.2917,-7069,-28895
2874,205540,-9.81914,0.13877,-0.287109,155.319,88.2642,99.8987,0,0,0,0.619385,0.337219,0.632416,-0.320282,-27.3917,20.0083,-30.2917,-7069,-28895
2880,205546,-9.80479,0.119629,-0.267969,155.319,88.2642,99.8987,0,0,0,0.619354,0.337219,0.632416,-0.320282,-27.4,19.9917,-30.2833,-7069,-28895
2886,205552,-9.8,0.114844,-0.29668,155.325,88.2642,99.8987,0,0,0,0.619354,0.33725,0.632416,-0.320313,-27.4167,20.0083,-30.2833,-7069,-28895
2892,205558,-9.80957,0.124414,-0.301465,155.33,88.2642,99.8987,0,0,0,0.619354,0.33728,0.632385,-0.320343,-27.4417,20.0333,-30.3167,-7069,-28895
2898,205564,-9.8,0.13877,-0.287109,155.33,88.2642,99.8987,0,0,0,0.619324,0.33728,0.632385,-0.320343,-27.475,20.075,-30.3583,-7069,-28895
2904,205570,-9.80479,0.114844,-0.277539,155.336,88.2642,99.8987,0,0,0,0.619324,0.337311,0.632385,-0.320374,-27.5083,20.0917,-30.45,-7069,-28895
2910,205576,-9.79521,0.114844,-0.29668,155.336,88.2642,99.8987,0,0,0,0.619324,0.337311,0.632385,-0.320374,-27.5333,20.0917,-30.5417,-7069,-28895
2916,205582,-9.78564,0.129199,-0.267969,155.341,88.2642,99.8987,0,0,0,0.619293,0.337341,0.632355,-0.320404,-27.575,20.075,-30.6917,-7069,-28895
2922,205588,-9.77607,0.133984,-0.272754,155.347,88.2642,99.8987,0,0,0,0.619293,0.337372,0.632355,-0.320435,-27.575,20.0417,-30.7,-7069,-28895
2928,205594,-9.80957,0.14834,-0.272754,155.347,88.2642,99.8987,0,0,0,0.619293,0.337372,0.632355,-0.320435,-27.575,20.0167,-30.65,-7069,-28895
2934,205600,-9.81436,0.133984,-0.272754,155.347,88.2642,99.8987,0,0,0,0.619293,0.337372,0.632355,-0.320435,-27.5833,19.9833,-30.5917,-7069,-28895
2940,205606,-0.851758,6.7375,-1.11016,154.38,88.2092,98.9319,-0.854492,7.8125,11.1694,0.619232,0.337738,0.632416,-0.320038,-27.575,19.95,-30.5417,-7069,-28895
2946,205612,-13.5755,-4.96699,-2.81846,154.045,88.3356,98.5583,3.72314,-19.7144,-11.1084,0.619659,0.337372,0.631805,-0.320831,-27.6,19.9167,-30.4667,-7069,-28895
2952,205618,-19.5139,3.2874,12.1112,151.342,88.2422,95.8777,-5.92041,11.5967,23.1934,0.619781,0.338013,0.631775,-0.319946,-27.6,19.9167,-30.4667,-7069,-28895
2958,205624,-10.5752,2.21074,-0.00957031,155.517,88.0884,100.036,2.31934,41.3208,-10.2539,0.6185,0.338379,0.632935,-0.319763,-27.6333,19.8917,-30.45,-7069,-28895
2964,205630,-24.4665,-11.6231,-24.7967,164.954,88.4674,109.523,-7.26318,-53.772,-77.2705,0.618927,0.335236,0.632813,-0.322418,-27.6417,19.8833,-30.4417,-7069,-28895
2970,205636,-5.52686,6.91455,2.11025,158.879,88.4344,103.475,-4.94385,-4.21143,35.8887,0.619629,0.335907,0.632294,-0.321411,-27.6333,19.875,-30.425,-7069,-28895
2976,205642,-12.1208,-5.60342,-4.11523,163.597,88.0554,108.177,5.92041,29.7241,3.11279,0.617279,0.337097,0.634491,-0.320404,-27.6,19.8583,-30.35,-7069,-28895
2982,205648,-8.46494,2.77061,-2.45479,160.906,88.0884,105.507,-4.39453,-11.5356,17.395,0.617859,0.337219,0.634033,-0.320007,-27.5917,19.8583,-30.2917,-7069,-28895
2988,205654,-9.43633,1.26328,-0.492871,162.609,88.2202,107.188,4.57764,-22.0947,-16.7236,0.618164,0.336487,0.633636,-0.320953,-27.5833,19.8333,-30.2583,-7069,-28895
2994,205660,-10.7044,-2.67969,-0.378027,160.906,88.3136,105.485,1.58691,-21.4233,6.10352,0.618805,0.336334,0.633026,-0.321167,-27.6083,19.8417,-30.2333,-7069,-28895
3000,205666,-10.7235,-1.25371,-0.985742,159.538,88.385,104.101,3.35693,-15.7471,4.57764,0.619232,0.336273,0.632507,-0.321411,-27.6167,19.825,-30.1917,-7069,-28895
3006,205672,-9.69473,0.76084,1.70352,159.67,88.4619,104.255,-4.5166,-4.08936,-0.915527,0.619598,0.335754,0.632263,-0.321686,-27.6417,19.8167,-30.1167,-7069,-28895
3012,205678,-11.1159,-1.54082,-1.01924,158.752,88.4784,103.359,-3.84521,-4.63867,5.18799,0.619843,0.335663,0.632141,-0.321533,-27.65,19.8083,-30.0917,-7069,-28895
3018,205684,-9.46504,1.31113,-1.24414,156.852,88.5553,101.475,-2.31934,-17.5781,5.06592,0.620422,0.335449,0.631683,-0.321625,-27.6667,19.8167,-30.0667,-7069,-28895
3024,205690,-9.50811,0.186621,1.76094,156.006,88.6102,100.629,-1.0376,-12.085,0.732422,0.620758,0.335205,0.631378,-0.321777,-27.6917,19.8333,-30.0417,-7069,-28895
3030,205696,-9.53203,0.813477,0.114844,155.781,88.5663,100.415,-0.305176,15.8691,4.45557,0.620636,0.335388,0.631531,-0.321503,-27.7083,19.825,-30.0333,-7069,-28895
3036,205702,-10.1015,-0.282324,-0.803906,156.967,88.4509,101.607,0.793457,8.8501,1.89209,0.620026,0.335815,0.632111,-0.321045,-27.7083,19.775,-29.95,-7069,-28895
3042,205708,-9.75215,0.320605,0.679492,157.214,88.4235,101.854,-1.2207,5.85938,2.01416,0.619934,0.335876,0.632263,-0.320923,-27.7083,19.75,-29.9583,-7069,-28895
3048,205714,-9.69951,0.425879,-0.062207,158.456,88.3905,103.101,-1.58691,9.46045,-2.74658,0.619659,0.335876,0.632599,-0.320862,-27.7167,19.7333,-29.9583,-7069,-28895
3054,205720,-10.0249,-0.253613,-1.8375,158.923,88.385,103.579,-0.427246,2.56348,-0.854492,0.619568,0.335846,0.63269,-0.320862,-27.725,19.725,-29.9583,-7069,-28895
3060,205726,-9.57031,0.00478516,0.354102,158.802,88.4125,103.453,0,-1.83105,-1.46484,0.61969,0.335724,0.632568,-0.320984,-27.7167,19.7167,-29.9583,-7069,-28895
3066,205732,-9.66123,-0.0143555,0.229688,159.406,88.407,104.057,0.366211,4.63867,0.610352,0.619568,0.335693,0.63266,-0.321045,-27.6917,19.725,-29.95,-7069,-28895
3072,205738,-9.8,0.162695,-0.894824,159.78,88.396,104.425,0.488281,3.11279,-0.244141,0.619476,0.335724,0.632721,-0.321045,-27.6917,19.7417,-29.975,-7069,-28895
3078,205744,-9.94355,-0.0334961,-0.818262,159.736,88.4125,104.381,0.0610352,-3.41797,-0.183105,0.619568,0.335632,0.63266,-0.321136,-27.6833,19.7667,-29.9667,-7069,-28895
3084,205750,-9.77129,0.129199,0.29668,159.681,88.429,104.326,0.12207,-3.17383,-0.12207,0.619629,0.335571,0.632568,-0.321198,-27.675,19.7833,-29.9667,-7069,-28895
3090,205756,-9.74736,0.272754,-0.631641,159.829,88.418,104.469,0.0610352,2.92969,0.854492,0.619568,0.335632,0.632629,-0.321198,-27.675,19.8083,-29.975,-7069,-28895
3096,205762,-9.84785,0.162695,-0.851758,160.06,88.418,104.7,0,-2.0752,-0.610352,0.619537,0.335602,0.63266,-0.321228,-27.6917,19.8667,-29.9583,-7069,-28895
3102,205768,-9.86699,0.0239258,-0.0669922,159.895,88.4344,104.535,-0.0610352,-3.23486,0.366211,0.619629,0.335541,0.632568,-0.321289,-27.7,19.8833,-29.9417,-7069,-28895
3108,205774,-9.77607,0.272754,0.267969,160.087,88.4344,104.727,0.0610352,0.976563,-0.244141,0.619568,0.335541,0.632599,-0.321289,-27.675,19.9,-29.8917,-7069,-28895
3114,205780,-9.90049,0,-0.430664,160.356,88.4235,104.991,0.12207,2.38037,-0.183105,0.619507,0.335571,0.63266,-0.321289,-27.6583,19.9167,-29.825,-7069,-28895
3120,205786,-9.75693,0.100488,-0.215332,160.378,88.429,105.018,0.12207,-2.68555,-0.671387,0.619537,0.335541,0.63266,-0.32132,-27.65,19.9333,-29.7667,-7069,-28895
3126,205792,-9.7043,0.129199,0.177051,160.422,88.4454,105.057,0,0.244141,0.427246,0.619568,0.33548,0.632599,-0.321381,-27.675,19.9917,-29.7,-7069,-28895
3132,205798,-9.73779,0.143555,-0.186621,160.719,88.4344,105.359,0,2.68555,-0.427246,0.619507,0.33548,0.63266,-0.321381,-27.7,19.9917,-29.725,-7069,-28895
3138,205804,-9.84785,0.062207,-0.593359,160.818,88.429,105.458,0,0.732422,0.0610352,0.619476,0.33548,0.63269,-0.321381,-27.6917,19.9833,-29.775,-7069,-28895
3144,205810,-9.80957,0.0957031,-0.406738,160.79,88.4399,105.43,0,-1.64795,-0.0610352,0.619507,0.335449,0.63266,-0.321411,-27.7,19.9667,-29.875,-7069,-28895
3150,205816,-9.7665,0.172266,-0.100488,160.911,88.4399,105.546,0.0610352,1.52588,-0.0610352,0.619537,0.335449,0.632629,-0.321442,-27.7,19.9583,-29.9917,-7069,-28895
3156,205822,-9.8335,0.0765625,-0.521582,161.005,88.429,105.639,0.0610352,1.46484,0.244141,0.619446,0.33548,0.63269,-0.321442,-27.725,19.9583,-30.0833,-7069,-28895
3162,205828,-9.82393,0.162695,-0.545508,160.988,88.4399,105.617,0.12207,-1.15967,0,0.619446,0.33548,0.63266,-0.321472,-27.7583,19.95,-30.1,-7069,-28895
3168,205834,-9.79521,0.191406,-0.13877,160.966,88.4454,105.595,0.0610352,-1.52588,-0.183105,0.619507,0.335449,0.632629,-0.321503,-27.7583,19.95,-30.1167,-7069,-28895
3174,205840,-9.85264,0.0287109,-0.00478516,161.027,88.4454,105.656,-0.0610352,0.488281,0.0610352,0.619476,0.335449,0.632629,-0.321533,-27.7583,19.925,-30.15,-7069,-28895
3180,205846,-9.8335,0.14834,-0.559863,161.147,88.4399,105.771,0,-0.732422,-0.244141,0.619415,0.33551,0.63266,-0.321503,-27.7167,19.9083,-30.2167,-7069,-28895
3186,205852,-9.78086,0.0957031,-0.16748,161.065,88.4509,105.683,-0.0610352,-1.77002,0.0610352,0.619476,0.33548,0.632599,-0.321594,-27.6583,19.8917,-30.3083,-7069,-28895
3192,205858,-9.74258,0.15791,0.062207,161.098,88.4454,105.71,0,0.305176,0.0610352,0.619446,0.33548,0.632599,-0.321594,-27.6333,19.8917,-30.3167,-7069,-28895
3198,205864,-9.77129,0.119629,-0.224902,161.252,88.4399,105.87,0,1.58691,-0.244141,0.619385,0.33551,0.632629,-0.321594,-27.6167,19.9,-30.35,-7069,-28895
3204,205870,-9.8335,0.133984,-0.502441,161.367,88.4399,105.98,-0.0610352,0.488281,-0.366211,0.619385,0.335541,0.632629,-0.321625,-27.6167,19.9083,-30.3417,-7069,-28895
3210,205876,-9.8,0.129199,-0.0717773,161.323,88.4454,105.93,0.0610352,-0.0610352,0,0.619385,0.33551,0.632599,-0.321655,-27.6167,19.9083,-30.2917,-7069,-28895
3216,205882,-9.81436,0.0813477,-0.181836,161.422,88.4399,106.029,0,1.28174,-0.0610352,0.619354,0.335571,0.632629,-0.321686,-27.6167,19.9,-30.2417,-7069,-28895
3222,205888,-9.79043,0.153125,-0.483301,161.461,88.4399,106.062,-0.0610352,0.549316,0.0610352,0.619324,0.335571,0.632629,-0.321686,-27.625,19.9083,-30.1833,-7069,-28895
3228,205894,-9.80479,0.129199,-0.435449,161.411,88.4454,106.013,0,-1.2207,-0.0610352,0.619354,0.335571,0.632599,-0.321716,-27.6333,19.9167,-30.175,-7069,-28895
3234,205900,-9.81914,0.0717773,-0.153125,161.406,88.4454,106.002,0.0610352,-0.732422,-0.12207,0.619354,0.335571,0.632568,-0.321747,-27.65,19.925,-30.175,-7069,-28895
3240,205906,-9.82393,0.0957031,-0.354102,161.505,88.4454,106.095,-0.0610352,0.610352,-0.183105,0.619354,0.335602,0.632568,-0.321747,-27.65,19.9333,-30.15,-7069,-28895
3246,205912,-9.82393,0.114844,-0.387598,161.455,88.4454,106.046,0,-0.610352,0.12207,0.619324,0.335602,0.632568,-0.321777,-27.6583,19.9667,-30.0917,-7069,-28895
3252,205918,-9.74736,0.153125,-0.181836,161.395,88.4509,105.985,-0.0610352,-1.09863,0,0.619354,0.335602,0.632538,-0.321808,-27.6583,19.9833,-30.05,-7069,-28895
3258,205924,-9.75693,0.0957031,-0.090918,161.422,88.4509,106.007,0.0610352,0.183105,-0.0610352,0.619354,0.335602,0.632538,-0.321808,-27.6667,19.9917,-30.0083,-7069,-28895
3264,205930,-9.79521,0.14834,-0.277539,161.428,88.4454,106.007,0.12207,0.976563,0.305176,0.619324,0.335632,0.632538,-0.321808,-27.6667,19.9833,-29.9667,-7069,-28895
3270,205936,-9.8335,0.129199,-0.253613,161.356,88.4509,105.936,-0.0610352,-0.915527,0,0.619293,0.335663,0.632538,-0.321808,-27.6667,19.9583,-29.975,-7069,-28895
3276,205942,-9.80957,0.162695,-0.143555,161.367,88.4509,105.947,0.12207,0.12207,-0.0610352,0.619324,0.335663,0.632507,-0.321838,-27.6833,19.9083,-30.0417,-7069,-28895
3282,205948,-24.1076,-12.3696,-0.579004,154.457,88.3191,99.0417,-1.2207,9.27734,47.8516,0.61972,0.337006,0.632111,-0.320435,-27.6833,19.9,-30.0833,-7069,-28895
3288,205954,-10.2785,14.3268,-1.59824,154.028,88.4399,98.6572,-9.52148,-23.2544,-8.97217,0.620361,0.336212,0.631744,-0.32074,-27.7167,19.8833,-30.0667,-7069,-28895
3294,205960,-14.1019,-10.2929,7.11553,153.171,88.407,97.8003,-0.976563,5.24902,8.78906,0.620361,0.336456,0.631775,-0.320465,-27.7583,19.875,-30.075,-7069,-28895
3300,205966,-17.1261,-9.90049,4.85693,174.067,88.1323,118.669,18.5547,49.8047,-0.610352,0.618073,0.333893,0.634399,-0.322418,-27.8,19.8667,-30.0417,-7069,-28895
3306,205972,-10.0345,3.84248,-1.49775,173.342,87.7863,117.916,6.53076,67.3828,14.1602,0.614563,0.336456,0.637115,-0.321045,-27.8917,19.8583,-30.025,-7069,-28895
3312,205978,-11.4796,-0.966602,-6.49346,175.089,87.6819,119.531,28.2593,19.8975,-9.33838,0.613434,0.337189,0.637482,-0.321747,-27.9167,19.8583,-29.9833,-7069,-28895
3318,205984,-10.3024,-0.14834,-7.34521,174.155,87.8522,118.581,4.39453,-37.1094,5.5542,0.61441,0.336884,0.636475,-0.322205,-27.9333,19.8583,-29.9333,-7069,-28895
3324,205990,-8.65156,2.0002,2.85674,174.76,88.0005,119.18,3.11279,-31.4331,-6.22559,0.615112,0.336304,0.635773,-0.322876,-27.95,19.8667,-29.8833,-7069,-28895
3330,205996,-10.5034,-0.535937,-2.90937,175.842,87.8522,120.251,-1.70898,14.5874,1.52588,0.614532,0.336517,0.636139,-0.322998,-27.975,19.925,-29.8083,-7069,-28895
3336,206002,-10.7666,-0.430664,-2.91895,175.347,87.9236,119.773,-2.31934,-16.8457,3.54004,0.614655,0.336395,0.63623,-0.322693,-27.9833,19.9583,-29.8,-7069,-28895
3342,206008,-11.3025,-0.952246,-1.78008,171.705,88.0664,116.197,-11.7798,-32.7148,23.0103,0.615997,0.336212,0.635284,-0.322174,-27.9833,19.9833,-29.8083,-7069,-28895
3348,206014,-8.94346,3.35918,0.598145,169.893,88.2202,114.439,-9.27734,-34.2407,7.08008,0.617157,0.335632,0.63446,-0.322174,-27.9917,20.0083,-29.7917,-7069,-28895
3354,206020,-10.1589,-1.24893,2.50264,169.739,88.2861,114.329,-6.71387,-14.7705,-0.793457,0.617615,0.335205,0.634247,-0.322205,-28.0167,20.0167,-29.7833,-7069,-28895
3360,206026,-9.68516,-0.387598,-2.36387,166.893,88.3411,111.522,0.610352,-14.6484,6.10352,0.617859,0.335236,0.634216,-0.321777,-28,20,-29.825,-7069,-28895
3366,206032,-9.25928,0.722559,1.49775,165.157,88.4125,109.808,-4.02832,-18.1274,6.5918,0.618927,0.334961,0.633331,-0.321747,-27.9833,19.9917,-29.8667,-7069,-28895
3372,206038,-9.53682,0.732129,3.23955,165.723,88.363,110.385,-2.2583,9.82666,0,0.618652,0.335022,0.633667,-0.321533,-27.95,19.9917,-29.9,-7069,-28895
3378,206044,-10.4699,-0.44502,-0.741699,166.536,88.2422,111.198,0.488281,23.5596,1.70898,0.617981,0.335388,0.634308,-0.321167,-27.9333,19.9833,-29.9417,-7069,-28895
3384,206050,-9.99619,0.607715,-3.6415,166.465,88.2092,111.132,0.610352,5.79834,2.68555,0.617828,0.335541,0.63446,-0.320984,-27.925,19.975,-29.9583,-7069,-28895
3390,206056,-9.68994,-0.885254,1.55518,166.333,88.3026,111,0,-8.36182,0.976563,0.618103,0.335266,0.634216,-0.321289,-27.9333,19.95,-29.9667,-7069,-28895
3396,206062,-9.0918,0.933105,1.36855,166.679,88.2532,111.352,0,9.39941,0.671387,0.618042,0.335297,0.634277,-0.321198,-27.925,19.925,-29.9167,-7069,-28895
3402,206068,-9.96748,-0.29668,-1.27285,167.624,88.2037,112.291,1.15967,9.82666,-3.11279,0.617676,0.335388,0.634613,-0.321167,-27.925,19.9083,-29.8667,-7069,-28895
3408,206074,-10.1732,-0.282324,-1.66523,167.36,88.2202,112.028,-0.488281,-4.3335,1.40381,0.617798,0.335327,0.634521,-0.321167,-27.925,19.8833,-29.8417,-7069,-28895
3414,206080,-9.75693,0.344531,0.330176,167.311,88.2642,111.989,-0.793457,-9.39941,-1.28174,0.618042,0.335144,0.634338,-0.321289,-27.925,19.875,-29.8417,-7069,-28895
3420,206086,-9.46504,0.535937,-0.344531,167.476,88.2092,112.154,-0.12207,8.72803,1.46484,0.617981,0.335175,0.634369,-0.321259,-27.9083,19.875,-29.85,-7069,-28895
3426,206092,-9.7665,0.14834,-1.75615,167.816,88.2037,112.495,0.488281,0.976563,-1.46484,0.617676,0.335297,0.634674,-0.321106,-27.8917,19.8917,-29.825,-7069,-28895
3432,206098,-9.80957,-0.0287109,-0.689063,167.492,88.2367,112.17,0.12207,-7.44629,0.915527,0.617859,0.335205,0.634491,-0.321167,-27.8833,19.9083,-29.8,-7069,-28895
3438,206104,-9.71865,0.339746,0.861328,167.492,88.2477,112.17,0.0610352,-2.92969,-0.244141,0.61792,0.335175,0.63443,-0.321228,-27.8583,19.9167,-29.8083,-7069,-28895
3444,206110,-10.068,-0.16748,0.301465,167.701,88.2202,112.379,0,5.43213,0.244141,0.617767,0.335236,0.634613,-0.321136,-27.8583,19.9167,-29.8333,-7069,-28895
3450,206116,-9.90049,0.062207,-1.04316,167.778,88.2147,112.456,0,-4.39453,-0.671387,0.617676,0.335297,0.634705,-0.321075,-27.8667,19.95,-29.8417,-7069,-28895
3456,206122,-9.63252,0.133984,0.248828,167.52,88.2367,112.203,-0.12207,-4.88281,0.854492,0.617889,0.335175,0.634491,-0.321167,-27.875,19.9583,-29.8333,-7069,-28895
3462,206128,-9.55117,0.30625,0.531152,167.679,88.2257,112.363,0,2.44141,-0.244141,0.617828,0.335205,0.634583,-0.321136,-27.85,19.9583,-29.8417,-7069,-28895
3468,206134,-9.85264,-0.0334961,-0.555078,167.882,88.2037,112.566,0.0610352,4.45557,-0.12207,0.617676,0.335266,0.634705,-0.321075,-27.8167,19.9417,-29.8583,-7069,-28895
3474,206140,-9.83828,0.253613,-0.961816,167.964,88.2037,112.648,-0.12207,-1.0376,-0.549316,0.617676,0.335236,0.634705,-0.321106,-27.7917,19.9,-29.8667,-7069,-28895
3480,206146,-9.78086,0.0574219,0.363672,167.822,88.2202,112.505,0.0610352,0.183105,0.854492,0.617767,0.335175,0.634613,-0.321167,-27.7917,19.8667,-29.8333,-7069,-28895
3486,206152,-9.69473,0.330176,-0.224902,167.943,88.2037,112.621,0.12207,3.54004,0.12207,0.617676,0.335266,0.634705,-0.321106,-27.8083,19.8667,-29.825,-7069,-28895
3492,206158,-9.81914,0.00957031,-0.846973,167.981,88.1982,112.665,-0.12207,0.671387,0,0.617645,0.335266,0.634735,-0.321075,-27.8,19.9083,-29.8417,-7069,-28895
3498,206164,-9.70908,0.29668,-0.526367,167.893,88.2092,112.571,0,-2.68555,0.12207,0.617706,0.335236,0.634674,-0.321136,-27.7667,19.9417,-29.8917,-7069,-28895
3504,206170,-9.82871,0.090918,0.124414,167.932,88.2147,112.615,0,-1.40381,-0.488281,0.617737,0.335205,0.634644,-0.321167,-27.7333,19.9833,-29.925,-7069,-28895
3510,206176,-9.8957,0.177051,-0.60293,168.036,88.1927,112.714,-0.0610352,1.58691,-0.183105,0.617676,0.335266,0.634705,-0.321106,-27.6833,20.0417,-29.975,-7069,-28895
3516,206182,-9.90049,0.0669922,-0.626855,167.948,88.2037,112.632,0.0610352,-2.01416,0.183105,0.617645,0.335266,0.634705,-0.321106,-27.6667,20.05,-29.9583,-7069,-28895
3522,206188,-9.72344,0.200977,-0.0287109,167.86,88.2092,112.538,0,-2.19727,0.12207,0.617706,0.335266,0.634644,-0.321136,-27.6583,20.0667,-29.9417,-7069,-28895
3528,206194,-9.75693,0.0574219,0.119629,167.915,88.2037,112.593,-0.0610352,1.40381,-0.0610352,0.617676,0.335266,0.634705,-0.321136,-27.65,20.0833,-29.9333,-7069,-28895
3534,206200,-9.7665,0.15791,-0.44502,167.986,88.1927,112.665,0.0610352,2.13623,0,0.617615,0.335327,0.634735,-0.321106,-27.6417,20.1,-29.9083,-7069,-28895
3540,206206,-9.85742,0.0382813,-0.15791,167.981,88.2037,112.659,0.12207,-2.13623,-0.12207,0.617615,0.335297,0.634735,-0.321106,-27.625,20.15,-29.9583,-7069,-28895
3546,206212,-9.80479,0.119629,0.114844,168.025,88.2037,112.698,0.12207,0.488281,-0.183105,0.617645,0.335297,0.634705,-0.321167,-27.625,20.1417,-29.9917,-7069,-28895
3552,206218,-9.82871,0.0239258,-0.287109,168.041,88.1927,112.714,-0.0610352,2.0752,0.305176,0.617584,0.335327,0.634766,-0.321106,-27.6,20.1333,-30.0167,-7069,-28895
3558,206224,-9.73779,0.172266,-0.607715,168.03,88.1927,112.703,0,0,0.0610352,0.617584,0.335327,0.634766,-0.321106,-27.5833,20.125,-30.0333,-7069,-28895
3564,206230,-9.77129,0.143555,-0.334961,167.997,88.1982,112.67,0.0610352,-1.83105,-0.244141,0.617615,0.335327,0.634705,-0.321167,-27.5667,20.0833,-29.9917,-7069,-28895
3570,206236,-9.80479,0.143555,-0.172266,167.975,88.1927,112.648,0,1.77002,0.183105,0.617615,0.335327,0.634705,-0.321167,-27.575,20.0417,-29.95,-7069,-28895
3576,206242,-9.90527,0.0669922,-0.550293,167.97,88.1873,112.637,0,0.549316,0.12207,0.617554,0.335388,0.634735,-0.321106,-27.6,20.0417,-29.9417,-7069,-28895
3582,206248,-9.81914,0.124414,-0.440234,167.899,88.1927,112.566,0,-1.58691,0.0610352,0.617615,0.335358,0.634705,-0.321136,-27.625,20.0583,-29.9667,-7069,-28895
3588,206254,-9.75693,0.14834,-0.0430664,167.838,88.1982,112.505,0.0610352,-1.15967,0.0610352,0.617615,0.335358,0.634674,-0.321167,-27.65,20.0667,-30,-7069,-28895
3594,206260,-9.73301,0.143555,-0.0717773,167.86,88.1927,112.522,0.12207,1.0376,0,0.617584,0.335388,0.634674,-0.321167,-27.675,20.075,-30.025,-7069,-28895
3600,206266,-12.3505,12.561,-0.746484,162.784,88.1543,107.545,-14.1602,-11.4746,-5.24902,0.617889,0.336487,0.634491,-0.319824,-27.6917,20.0667,-30.075,-7069,-28895
3606,206272,-15.1115,-8.36924,5.21104,161.895,88.0939,106.655,-1.0376,10.0708,10.8032,0.618225,0.336151,0.634613,-0.319336,-27.7167,20.0583,-30.0417,-7069,-28895
3612,206278,-7.36436,6.78535,2.79932,160.675,87.8906,105.469,-6.65283,37.1094,21.6064,0.617615,0.337036,0.635345,-0.318054,-27.7583,20.0583,-29.9833,-7069,-28895
3618,206284,4.45977,3.46924,-9.27842,179.225,88.006,124.014,3.23486,0.488281,-134.338,0.615662,0.333435,0.637299,-0.321747,-27.8,20.0583,-29.95,-7069,-28895
3624,206290,-5.99102,8.01992,4.50762,177.962,87.951,122.58,35.2173,11.7798,12.6953,0.615021,0.334778,0.636932,-0.322266,-27.8583,20.0667,-29.8917,-7069,-28895
3630,206296,-11.7523,-2.47871,-6.35469,177.605,87.215,122.234,3.84521,71.0449,-17.7002,0.611084,0.337006,0.640778,-0.319824,-27.9667,20.0583,-29.8417,-7069,-28895
3636,206302,-11.0585,-0.598145,-7.18252,176.27,87.2479,120.932,-5.92041,-6.46973,13.6108,0.611542,0.337067,0.640503,-0.319397,-28.0083,20.025,-29.8167,-7069,-28895
3642,206308,-9.39805,3.50273,-0.45459,178.017,87.3907,122.662,5.06592,-27.2217,-16.9067,0.612,0.336334,0.639984,-0.320404,-28.025,19.975,-29.7667,-7069,-28895
3648,206314,-11.4222,-3.46445,0.808691,179.561,87.55,124.129,16.2964,-32.2876,-12.4512,0.612488,0.335907,0.639099,-0.321655,-28.0167,19.9417,-29.675,-7069,-28895
3654,206320,-9.17314,0.172266,3.36875,178.632,87.5281,123.206,-1.28174,6.10352,9.09424,0.612488,0.336151,0.63913,-0.32132,-28.0083,19.9333,-29.625,-7069,-28895
3660,206326,-10.4699,-0.550293,-2.8041,177.133,87.8192,121.75,-3.96729,-53.0396,10.6201,0.61438,0.335358,0.637543,-0.321686,-27.9917,19.9333,-29.5583,-7069,-28895
3666,206332,-9.4459,0.775195,2.30166,176.342,88.0829,120.976,-1.83105,-53.1616,3.54004,0.615936,0.334595,0.636139,-0.322296,-28,19.9167,-29.5167,-7069,-28895
3672,206338,-9.51289,0.459375,4.34014,175.919,88.1653,120.564,-3.17383,-16.2964,2.38037,0.616455,0.33432,0.635712,-0.322418,-28.0083,19.8833,-29.4917,-7069,-28895
3678,206344,-9.72344,0.325391,-0.62207,175.523,88.1488,120.174,0,3.11279,3.479,0.616425,0.334412,0.635742,-0.322266,-28.0333,19.8583,-29.475,-7069,-28895
3684,206350,-9.78564,-0.0382813,0.401953,175.089,88.1982,119.745,-1.34277,-10.8032,2.56348,0.616791,0.334259,0.635468,-0.322327,-28.05,19.8583,-29.4667,-7069,-28895
3690,206356,-9.8957,-0.191406,0.512012,172.776,88.2751,117.499,-6.95801,-3.479,7.44629,0.617615,0.334045,0.63501,-0.321899,-28.0667,19.8917,-29.5083,-7069,-28895
3696,206362,-9.08223,1.73701,2.26816,173.145,88.2422,117.878,-2.0752,7.75146,-1.0376,0.617401,0.334045,0.635254,-0.321777,-28.0583,19.9,-29.525,-7069,-28895
3702,206368,-10.6948,-1.44512,-1.14365,173.589,88.1873,118.312,1.89209,12.085,-0.732422,0.617035,0.334198,0.635559,-0.321686,-28.0583,19.8917,-29.5083,-7069,-28895
3708,206374,-9.66123,0.971387,-1.92363,172.958,88.1873,117.68,-0.793457,-0.366211,4.39453,0.617126,0.33429,0.635498,-0.321564,-28.075,19.8583,-29.5,-7069,-28895
3714,206380,-10.0584,-1.40684,0.923535,174.084,88.2257,118.812,0,-6.83594,-7.56836,0.617218,0.333984,0.635437,-0.321899,-28.1,19.825,-29.5083,-7069,-28895
3720,206386,-9.01045,1.6748,0.124414,173.996,88.1982,118.729,-0.305176,7.01904,-0.183105,0.617096,0.334045,0.63559,-0.321747,-28.1583,19.775,-29.5,-7069,-28895
3726,206392,-10.3503,-0.990527,-1.24893,174.732,88.1873,119.46,1.15967,2.80762,-3.96729,0.616943,0.334015,0.635712,-0.321869,-28.1667,19.7583,-29.525,-7069,-28895
3732,206398,-9.86221,0.133984,-0.708203,174.078,88.2092,118.806,-0.549316,-5.00488,3.96729,0.617126,0.334015,0.635529,-0.321808,-28.1667,19.7417,-29.5583,-7069,-28895
3738,206404,-9.7043,0.220117,0.665137,174.738,88.2257,119.46,0.610352,-2.74658,-4.08936,0.617157,0.333862,0.635498,-0.321991,-28.1583,19.725,-29.6083,-7069,-28895
3744,206410,-9.20186,1.14844,-0.698633,174.37,88.2092,119.092,0.0610352,3.72314,3.05176,0.617096,0.334015,0.635529,-0.321899,-28.15,19.7167,-29.675,-7069,-28895
3750,206416,-10.068,-0.607715,-0.937891,174.787,88.2147,119.509,0,-3.11279,-1.83105,0.617065,0.333923,0.635559,-0.321991,-28.15,19.6833,-29.7833,-7069,-28895
3756,206422,-9.66123,0.334961,0.0669922,174.353,88.2312,119.075,-0.366211,-3.72314,2.56348,0.617188,0.333954,0.635406,-0.321991,-28.15,19.6833,-29.825,-7069,-28895
3762,206428,-9.8,0.253613,0.301465,174.754,88.2257,119.471,0.427246,1.46484,-2.13623,0.617126,0.333923,0.635468,-0.322052,-28.1583,19.675,-29.8333,-7069,-28895
3768,206434,-10.1206,-0.435449,-0.430664,174.556,88.2092,119.268,0,3.11279,1.77002,0.617065,0.334015,0.635529,-0.321991,-28.1417,19.6833,-29.8417,-7069,-28895
3774,206440,-9.88135,-0.172266,-0.330176,174.523,88.2147,119.235,0.12207,-0.793457,0.244141,0.617065,0.334015,0.635498,-0.321991,-28.1417,19.7,-29.825,-7069,-28895
3780,206446,-9.61338,0.354102,0.239258,174.402,88.2367,119.108,-0.12207,-0.549316,1.2207,0.617188,0.333984,0.635345,-0.322083,-28.1083,19.7,-29.8,-7069,-28895
3786,206452,-9.77129,0.239258,-0.13877,174.71,88.2257,119.416,-0.0610352,3.05176,-1.58691,0.617096,0.333984,0.635437,-0.322083,-28.0917,19.6833,-29.7917,-7069,-28895
3792,206458,-9.98184,-0.0239258,-0.722559,174.688,88.2202,119.394,-0.244141,0.671387,0.244141,0.617065,0.334015,0.635468,-0.322083,-28.0583,19.6667,-29.8083,-7069,-28895
3798,206464,-9.82393,0.416309,-0.397168,174.809,88.2312,119.515,0,-1.95313,-0.976563,0.617126,0.333954,0.635406,-0.322144,-28.025,19.6417,-29.7917,-7069,-28895
3804,206470,-9.61816,0.416309,-0.0717773,174.749,88.2422,119.454,0.0610352,0.976563,0.793457,0.617157,0.333954,0.635345,-0.322174,-28,19.65,-29.775,-7069,-28895
3810,206476,-9.72822,0.0861328,-0.416309,174.836,88.2312,119.531,0,1.15967,-1.2207,0.617065,0.334015,0.635406,-0.322205,-28,19.7,-29.7583,-7069,-28895
3816,206482,-9.78564,0.0382813,-0.440234,174.672,88.2367,119.366,0,-0.549316,0.915527,0.617096,0.334045,0.635345,-0.322174,-28.0083,19.7333,-29.7667,-7069,-28895
3822,206488,-9.68994,0.344531,-0.15791,174.749,88.2422,119.443,0.305176,-0.915527,-0.671387,0.617126,0.334015,0.635315,-0.322235,-28.0083,19.7417,-29.775,-7069,-28895
3828,206494,-9.92441,-0.14834,-0.110059,174.71,88.2422,119.399,-0.0610352,0.12207,0.183105,0.617126,0.334045,0.635315,-0.322235,-28.0083,19.7417,-29.8167,-7069,-28895
3834,206500,-9.91484,0.0861328,-0.478516,174.644,88.2367,119.333,0,-0.183105,-0.610352,0.617096,0.334076,0.635315,-0.322235,-28.0083,19.7417,-29.8333,-7069,-28895
3840,206506,-9.82393,0.110059,-0.325391,174.534,88.2477,119.218,0,-1.28174,0.915527,0.617157,0.334076,0.635254,-0.322266,-27.9917,19.7583,-29.8167,-7069,-28895
3846,206512,-9.69473,0.330176,-0.124414,174.589,88.2477,119.268,0.12207,-0.549316,-0.549316,0.617157,0.334076,0.635223,-0.322296,-27.9667,19.775,-29.7583,-7069,-28895
3852,206518,-9.85264,0,-0.205762,174.562,88.2477,119.24,-0.0610352,0.671387,0.0610352,0.617126,0.334106,0.635223,-0.322296,-27.9417,19.775,-29.725,-7069,-28895
3858,206524,-9.78564,0.215332,-0.373242,174.523,88.2422,119.196,0,0.671387,0.12207,0.617126,0.334137,0.635254,-0.322296,-27.9,19.775,-29.65,-7069,-28895
3864,206530,-9.84307,0.0717773,-0.143555,174.562,88.2477,119.24,0,-0.793457,0.366211,0.617126,0.334106,0.635223,-0.322327,-27.8583,19.75,-29.6083,-7069,-28895
3870,206536,-9.78086,0.119629,-0.0717773,174.501,88.2477,119.169,0,0.549316,-0.366211,0.617126,0.334137,0.635193,-0.322327,-27.8,19.725,-29.6,-7069,-28895
3876,206542,-9.77607,0.0287109,-0.30625,174.452,88.2422,119.125,-0.0610352,0.915527,0.183105,0.617126,0.334167,0.635193,-0.322327,-27.7833,19.725,-29.675,-7069,-28895
3882,206548,-9.69951,0.162695,-0.387598,174.49,88.2477,119.158,0.12207,0.0610352,-0.427246,0.617096,0.334167,0.635193,-0.322357,-27.7667,19.7333,-29.725,-7069,-28895
3888,206554,-9.81914,0,-0.277539,174.479,88.2477,119.147,-0.0610352,-0.610352,-0.183105,0.617126,0.334167,0.635162,-0.322388,-27.75,19.7333,-29.775,-7069,-28895
3894,206560,-9.82393,0.0765625,-0.277539,174.43,88.2477,119.092,0.12207,0.915527,-0.366211,0.617096,0.334198,0.635162,-0.322388,-27.75,19.725,-29.7667,-7069,-28895
3900,206566,-9.86221,0.0526367,-0.425879,174.375,88.2422,119.031,0.0610352,0,0.427246,0.617096,0.334259,0.635162,-0.322388,-27.7417,19.7417,-29.6833,-7069,-28895
3906,206572,-12.8912,8.50322,-12.317,167.009,88.2587,111.698,-7.8125,-12.146,42.0532,0.618073,0.335114,0.634369,-0.321136,-27.7417,19.7417,-29.6083,-7069,-28895
3912,206578,-10.0201,-3.50273,7.76152,168.679,88.2587,113.39,-4.94385,1.46484,-10.9253,0.61795,0.334747,0.634613,-0.321259,-27.7583,19.7583,-29.5917,-7069,-28895
3918,206584,-8.45059,-0.890039,2.98594,165.245,88.0884,109.973,-4.21143,28.8086,28.3813,0.617615,0.335846,0.63501,-0.319977,-27.8,19.75,-29.6,-7069,-28895
3924,206590,-15.346,-15.8915,5.48857,-178.852,88.2642,125.739,27.0996,-41.5649,-97.0459,0.617004,0.335999,0.63559,-0.319855,-27.825,19.7417,-29.625,-7069,-28895
3930,206596,-7.77588,-5.31631,7.30693,175.139,88.2312,119.663,14.7095,7.8125,39.5508,0.616577,0.3349,0.634918,-0.323181,-27.8917,19.7417,-29.6333,-7069,-28895
3936,206602,-5.42158,8.90039,1.0958,176.567,88.0005,121.031,11.7188,48.645,-5.00488,0.615021,0.335724,0.636078,-0.322998,-27.9167,19.7667,-29.6333,-7069,-28895
3942,206608,-12.7381,-4.93828,-10.9293,178.506,88.0609,122.948,4.76074,-10.0708,-12.207,0.615051,0.335327,0.635925,-0.323608,-27.9417,19.8083,-29.625,-7069,-28895
3948,206614,-8.73291,4.45977,-0.880469,176.677,88.3685,121.135,-2.86865,-62.0728,9.27734,0.616943,0.334595,0.634186,-0.324219,-27.95,19.8417,-29.6583,-7069,-28895
3954,206620,-10.6518,-2.45479,3.22041,-178.654,88.4894,125.799,-1.64795,10.0098,-1.95313,0.617493,0.333527,0.633606,-0.325348,-27.95,19.8583,-29.6917,-7069,-28895
3960,206626,-9.91963,0.234473,-3.17734,179.511,88.4674,123.986,-4.15039,6.04248,10.3149,0.61731,0.333771,0.633942,-0.324829,-27.9083,19.8667,-29.7833,-7069,-28895
3966,206632,-10.3886,0.358887,-2.44521,178.813,88.5883,123.3,-1.34277,-23.8647,3.84521,0.618042,0.333466,0.63327,-0.325073,-27.8917,19.8833,-29.85,-7069,-28895
3972,206638,-10.0919,0.0765625,2.01934,177.127,88.6707,121.646,-6.83594,-15.625,7.93457,0.618713,0.333252,0.632813,-0.324921,-27.8667,19.925,-29.9,-7069,-28895
3978,206644,-9.52246,0.535937,2.08154,176.331,88.6487,120.877,-6.28662,5.18799,4.3335,0.618744,0.333252,0.632935,-0.324615,-27.85,19.9667,-29.9583,-7069,-28895
3984,206650,-9.9292,-0.483301,0.0143555,173.969,88.4839,118.531,-3.11279,20.3857,12.146,0.618439,0.333496,0.63327,-0.32428,-27.8667,20.0083,-30,-7069,-28895
3990,206656,-9.22578,1.74658,-1.82314,173.232,88.4015,117.817,-3.41797,17.334,6.04248,0.617798,0.33432,0.634064,-0.323151,-27.875,20.075,-29.975,-7069,-28895
3996,206662,-9.94355,-0.143555,-2.14375,173.397,88.407,117.982,0,-0.305176,-0.732422,0.617798,0.33429,0.634033,-0.323212,-27.8833,20.0917,-29.9333,-7069,-28895
4002,206668,-9.71865,0.119629,-0.105273,173.205,88.418,117.801,-2.38037,-2.0752,0.976563,0.61792,0.334198,0.633972,-0.323151,-27.8917,20.0917,-29.8833,-7069,-28895
4008,206674,-9.50811,0.29668,0.114844,173.15,88.3905,117.735,0.305176,6.71387,1.28174,0.617767,0.33432,0.634125,-0.323059,-27.9,20.0833,-29.8583,-7069,-28895
4014,206680,-9.79043,0.301465,-1.60781,173.364,88.3411,117.949,0.183105,0.915527,0.0610352,0.617493,0.334473,0.634369,-0.322937,-27.9083,20.05,-29.8583,-7069,-28895
4020,206686,-9.64688,0.090918,-0.507227,173.342,88.363,117.927,0.0610352,-4.82178,-0.366211,0.617615,0.334412,0.634247,-0.323029,-27.9333,20.0083,-29.8417,-7069,-28895
4026,206692,-9.72822,0.0526367,0.526367,173.276,88.3685,117.856,0.0610352,-0.12207,0.427246,0.617615,0.334412,0.634216,-0.323029,-27.9417,20,-29.875,-7069,-28895
4032,206698,-9.69473,0.277539,-0.0717773,173.507,88.3411,118.087,0.0610352,5.7373,-0.671387,0.617462,0.334473,0.634369,-0.322998,-27.95,20.0083,-29.875,-7069,-28895
4038,206704,-10.044,-0.196191,-1.16279,173.584,88.3356,118.163,0.0610352,1.83105,-0.183105,0.617401,0.334503,0.634399,-0.322998,-27.9583,20.0167,-29.8417,-7069,-28895
4044,206710,-9.72822,-0.0669922,0.421094,173.414,88.374,117.993,0.366211,-3.05176,-0.366211,0.617554,0.334473,0.634277,-0.323059,-27.9667,20.0083,-29.8083,-7069,-28895
4050,206716,-9.68994,0.0287109,0.244043,173.26,88.3575,117.834,0.12207,3.05176,1.28174,0.617554,0.334503,0.634216,-0.323059,-27.95,19.9667,-29.8167,-7069,-28895
4056,206722,-9.70908,0.387598,-0.679492,173.315,88.3466,117.883,0,2.92969,0,0.617493,0.334534,0.634308,-0.323029,-27.95,19.9333,-29.825,-7069,-28895
4062,206728,-10.0201,-0.153125,-0.756055,173.238,88.3575,117.812,-0.12207,-2.13623,0.183105,0.617554,0.334503,0.634216,-0.323059,-27.9333,19.9,-29.8583,-7069,-28895
4068,206734,-9.82871,0.244043,0.0669922,173.013,88.374,117.587,-0.183105,-3.2959,0.854492,0.617645,0.334503,0.634125,-0.32309,-27.9333,19.8917,-29.8833,-7069,-28895
4074,206740,-9.92441,0.090918,-0.387598,172.952,88.3521,117.515,0.0610352,3.17383,0.793457,0.617615,0.334534,0.634125,-0.32309,-27.925,19.8917,-29.85,-7069,-28895
4080,206746,-9.77129,0.358887,-0.851758,172.936,88.3575,117.499,0,-0.488281,-0.0610352,0.617554,0.334595,0.634186,-0.323059,-27.8667,19.9,-29.8333,-7069,-28895
4086,206752,-9.81436,0.090918,-0.291895,172.996,88.374,117.559,0,-3.11279,-0.854492,0.617645,0.334534,0.634094,-0.32312,-27.8417,19.9,-29.8167,-7069,-28895
4092,206758,-9.75693,0.119629,0.344531,173.018,88.374,117.581,0,0.0610352,-0.244141,0.617645,0.334534,0.634094,-0.323151,-27.8167,19.9,-29.7833,-7069,-28895
4098,206764,-9.8,0.124414,-0.14834,173.194,88.3575,117.757,0,3.60107,-0.732422,0.617523,0.334564,0.634186,-0.32312,-27.8083,19.9083,-29.775,-7069,-28895
4104,206770,-9.81914,0.062207,-0.507227,173.156,88.3685,117.713,0.0610352,-2.56348,0,0.617493,0.334595,0.634216,-0.32312,-27.8417,19.925,-29.6417,-7069,-28895
4110,206776,-9.68994,0.110059,0.143555,173.095,88.374,117.658,-0.0610352,-1.58691,0,0.617615,0.334534,0.634094,-0.323181,-27.8583,19.925,-29.5833,-7069,-28895
4116,206782,-9.71387,0.0669922,0.0382813,173.101,88.363,117.658,-0.0610352,2.44141,0.12207,0.617554,0.334595,0.634125,-0.323151,-27.8333,19.9167,-29.5417,-7069,-28895
4122,206788,-9.77607,0.0813477,-0.650781,173.051,88.3521,117.609,0.0610352,2.19727,0.427246,0.617523,0.334625,0.634186,-0.32309,-27.8167,19.9167,-29.5333,-7069,-28895
4128,206794,-9.8,0.196191,-0.708203,172.93,88.363,117.488,0,-2.0752,0.305176,0.617584,0.334625,0.634125,-0.32312,-27.8083,19.9333,-29.5583,-7069,-28895
4134,206800,-9.86221,0.0669922,0.100488,172.776,88.374,117.334,0,0.915527,0.549316,0.617645,0.334595,0.634033,-0.323181,-27.775,20.0083,-29.6667,-7069,-28895
4140,206806,-9.8335,0.234473,-0.421094,172.716,88.363,117.268,0.12207,1.89209,0.427246,0.617584,0.334656,0.634094,-0.32312,-27.7833,20.025,-29.7333,-7069,-28895
4146,206812,-9.86221,0.124414,-0.655566,172.716,88.3685,117.268,-0.0610352,-1.0376,-0.305176,0.617615,0.334656,0.634064,-0.32312,-27.8,20.05,-29.7833,-7069,-28895
4152,206818,-9.75215,0.143555,-0.196191,172.584,88.3795,117.136,0,-2.44141,0.244141,0.617676,0.334625,0.633972,-0.323151,-27.8,20.0583,-29.875,-7069,-28895
4158,206824,-9.72344,0.210547,0.110059,172.573,88.3795,117.125,-0.0610352,0.427246,-0.12207,0.617676,0.334656,0.634003,-0.323151,-27.8083,20.0583,-29.9583,-7069,-28895
4164,206830,-9.83828,0.133984,-0.569434,172.612,88.3685,117.158,-0.0610352,0.305176,0.0610352,0.617615,0.334686,0.634033,-0.323151,-27.7917,20.0583,-29.95,-7069,-28895
4170,206836,-9.82871,0.110059,-0.325391,172.606,88.3795,117.153,0.0610352,-1.70898,-0.427246,0.617645,0.334686,0.634003,-0.323181,-27.7667,20.0583,-29.925,-7069,-28895
4176,206842,-9.79521,0.0526367,0.0334961,172.573,88.3795,117.114,0.12207,0,0,0.617645,0.334686,0.633972,-0.323181,-27.7583,20.05,-29.85,-7069,-28895
4182,206848,-9.74736,0.119629,-0.16748,172.562,88.3685,117.109,0,1.83105,0.0610352,0.617584,0.334717,0.634033,-0.323151,-27.75,20.025,-29.8083,-7069,-28895
4188,206854,-9.79521,0.0765625,-0.535937,172.59,88.363,117.131,0.0610352,0.976563,-0.244141,0.617554,0.334747,0.634033,-0.323151,-27.725,20.0083,-29.75,-7069,-28895
4194,206860,-9.79043,0.105273,-0.153125,172.425,88.374,116.966,0.0610352,-1.09863,0.183105,0.617584,0.334747,0.634003,-0.323151,-27.6917,19.9833,-29.6333,-7069,-28895
4200,206866,-9.8,0.100488,-0.0813477,172.414,88.374,116.955,0,0.671387,-0.0610352,0.617615,0.334747,0.633972,-0.323181,-27.6667,19.975,-29.6417,-7069,-28895
4206,206872,-9.85264,0.0813477,-0.401953,172.37,88.3685,116.911,0,0.976563,0.183105,0.617584,0.334778,0.634003,-0.323151,-27.6667,19.975,-29.65,-7069,-28895
4212,206878,-9.81436,0.119629,-0.512012,172.321,88.374,116.856,0.0610352,-0.793457,0,0.617615,0.334778,0.633972,-0.323151,-27.6667,19.9917,-29.7,-7069,-28895
4218,206884,-9.77607,0.15791,-0.200977,172.233,88.3795,116.768,0.0610352,-1.58691,0.0610352,0.617676,0.334778,0.633911,-0.323181,-27.6667,19.9917,-29.7667,-7069,-28895
4224,206890,-9.79043,0.162695,-0.244043,172.161,88.374,116.691,0.12207,1.09863,0.183105,0.617676,0.334778,0.633911,-0.323181,-27.6833,19.9917,-29.8083,-7069,-28895
4230,206896,-9.85742,0.13877,-0.45459,172.15,88.374,116.68,0,-0.0610352,-0.183105,0.617645,0.334839,0.633911,-0.323181,-27.7167,19.9833,-29.775,-7069,-28895
4236,206902,-11.7715,-15.3364,-0.45459,168.316,88.374,112.868,-2.80762,-3.78418,23.8037,0.618103,0.335236,0.633575,-0.32254,-27.7667,19.9417,-29.725,-7069,-28895
4242,206908,-10.58,14.1832,-20.112,-168.821,88.4894,135.681,11.3525,-25.4517,-124.146,0.616821,0.331787,0.634644,-0.326477,-27.8,19.9167,-29.7167,-7069,-28895
4248,206914,-20.8441,-20.2938,14.6234,-172.189,88.1818,132.094,47.2412,63.5376,13.4277,0.614532,0.334167,0.635559,-0.326508,-27.8583,19.9,-29.725,-7069,-28895
4254,206920,-10.9389,4.88564,-12.0586,-175.347,87.2974,128.859,16.5405,50.1709,-41.687,0.611694,0.337341,0.638245,-0.323395,-27.9333,19.8917,-29.7167,-7069,-28895
4260,206926,-13.8961,-7.56055,-11.8768,-173.919,87.5281,130.243,11.3525,-52.124,-6.16455,0.610535,0.336609,0.638794,-0.325287,-27.975,19.9,-29.7167,-7069,-28895
4266,206932,-7.68496,2.33994,5.10576,-175.298,87.9071,128.903,-4.21143,-76.7822,19.043,0.612915,0.335846,0.636658,-0.325684,-28.0167,19.9167,-29.6833,-7069,-28895
4272,206938,-8.2209,0.679492,8.32617,-174.359,87.8961,129.858,-2.01416,-1.09863,-6.04248,0.612854,0.335571,0.636841,-0.325745,-28.0417,19.9333,-29.6833,-7069,-28895
4278,206944,-10.8814,-2.64141,-4.61289,-176.748,87.8082,127.502,-4.27246,17.5781,17.7002,0.61264,0.336121,0.637238,-0.324829,-28.05,19.9417,-29.7083,-7069,-28895
4284,206950,-9.5751,1.63652,2.17725,178.945,88.2477,123.393,-23.0103,-52.5513,5.92041,0.614258,0.335907,0.636017,-0.324371,-28.05,19.9583,-29.7667,-7069,-28895
4290,206956,-10.3312,-0.77998,3.21084,177.193,88.3466,121.718,-13.1226,-22.8271,10.3149,0.616974,0.334229,0.634521,-0.323883,-28.0333,19.9583,-29.8167,-7069,-28895
4296,206962,-9.52246,1.46904,0.191406,176.693,88.407,121.234,-2.13623,-14.3433,2.80762,0.617401,0.334015,0.634216,-0.323914,-28.025,19.95,-29.85,-7069,-28895
4302,206968,-9.81436,-0.0957031,0.0765625,176.484,88.4674,121.036,-0.244141,-14.1602,1.09863,0.617767,0.333801,0.633881,-0.324036,-28.0167,19.9417,-29.8833,-7069,-28895
4308,206974,-9.42197,0.291895,1.63174,176.193,88.4454,120.767,-4.5166,2.56348,2.31934,0.617767,0.333771,0.634064,-0.323761,-28.0083,19.925,-29.9167,-7069,-28895
4314,206980,-9.3502,0.827832,2.5792,176.841,88.3246,121.454,-1.34277,16.6016,-3.05176,0.617645,0.33374,0.634338,-0.323486,-27.9667,19.875,-29.9417,-7069,-28895
4320,206986,-10.1685,-0.277539,-0.387598,177.808,88.1873,122.421,1.34277,26.1841,-4.27246,0.616302,0.334137,0.635651,-0.323029,-27.9583,19.8583,-29.9333,-7069,-28895
4326,206992,-10.2211,0.129199,-2.68926,178.407,88.1268,123.019,-0.305176,10.9863,-3.17383,0.615936,0.334198,0.636047,-0.322906,-27.9583,19.825,-29.8917,-7069,-28895
4332,206998,-10.2402,-0.521582,-1.43076,178.72,88.1543,123.338,-0.610352,-7.01904,-1.83105,0.616089,0.334015,0.635956,-0.322998,-27.9833,19.8,-29.8333,-7069,-28895
4338,207004,-9.88613,-0.153125,0.416309,178.517,88.1873,123.146,-0.305176,-7.56836,1.46484,0.616272,0.333923,0.635773,-0.323059,-28.0167,19.7583,-29.7667,-7069,-28895
4344,207010,-9.72344,-0.062207,-0.655566,178.528,88.0994,123.151,0.671387,10.0098,0.366211,0.615814,0.334198,0.63623,-0.322784,-28.0333,19.675,-29.7167,-7069,-28895
4350,207016,-9.65645,0.210547,-1.16279,178.539,88.1049,123.162,1.34277,-1.34277,0.183105,0.615814,0.334198,0.6362,-0.322815,-28.0417,19.65,-29.7167,-7069,-28895
4356,207022,-10.0153,-0.430664,0.177051,178.566,88.1268,123.19,0.183105,-5.43213,0,0.615936,0.334137,0.636078,-0.322906,-28.05,19.625,-29.7333,-7069,-28895
4362,207028,-9.77607,-0.0717773,0.913965,178.341,88.1049,122.964,-0.610352,3.54004,1.89209,0.615845,0.334198,0.6362,-0.322784,-28.05,19.625,-29.7,-7069,-28895
4368,207034,-9.70908,0.15791,-0.569434,178.187,88.0609,122.816,-0.427246,8.66699,1.52588,0.615631,0.334351,0.636414,-0.322601,-28.0583,19.6333,-29.6917,-7069,-28895
4374,207040,-9.5751,0.234473,-0.641211,178.154,88.0719,122.783,0.12207,-5.43213,-0.671387,0.615601,0.334412,0.636475,-0.32251,-28.075,19.6667,-29.6417,-7069,-28895
4380,207046,-9.67559,-0.114844,0.502441,178.116,88.0829,122.745,0.244141,-2.68555,0.366211,0.615784,0.33429,0.636292,-0.322632,-28.0667,19.6667,-29.6833,-7069,-28895
4386,207052,-9.71865,0.229688,0.224902,178.061,88.0609,122.69,0.244141,4.02832,0.671387,0.615662,0.334351,0.636414,-0.322571,-28.0583,19.6917,-29.7,-7069,-28895
4392,207058,-9.9627,-0.0574219,-0.736914,178.138,88.0444,122.767,0.244141,3.35693,-0.244141,0.61554,0.334412,0.636505,-0.32251,-28.0417,19.7,-29.7333,-7069,-28895
4398,207064,-9.72822,0.287109,0.090918,177.995,88.0554,122.624,0.366211,-2.80762,1.0376,0.615601,0.334412,0.636444,-0.32254,-28.0417,19.7083,-29.75,-7069,-28895
4404,207070,-9.75693,0.0669922,0.344531,177.907,88.0609,122.536,0.366211,1.28174,0.183105,0.615662,0.334412,0.636383,-0.32254,-28.05,19.7167,-29.7333,-7069,-28895
4410,207076,-9.77607,0.244043,-0.45459,177.786,88.0444,122.41,0.244141,3.479,1.0376,0.61557,0.334503,0.636475,-0.322479,-28.0417,19.7167,-29.7333,-7069,-28895
4416,207082,-9.84785,0.277539,-0.846973,177.885,88.0499,122.509,0,-1.0376,-0.732422,0.61557,0.334473,0.636444,-0.32251,-28.0333,19.7167,-29.725,-7069,-28895
4422,207088,-9.91006,0.062207,-0.0813477,178.022,88.0609,122.646,-0.12207,-3.2959,-1.0376,0.615631,0.334381,0.636383,-0.322571,-28.025,19.7083,-29.7167,-7069,-28895
4428,207094,-9.84307,0.0669922,-0.330176,178.061,88.0609,122.69,-0.12207,0.732422,-0.305176,0.615601,0.334412,0.636414,-0.322571,-27.9833,19.675,-29.6667,-7069,-28895
4434,207100,-9.77129,0.191406,-0.846973,178.011,88.0389,122.635,0,-0.12207,0,0.615509,0.334473,0.636505,-0.32251,-27.9417,19.6083,-29.5417,-7069,-28895
4440,207106,-9.65645,0.143555,-0.263184,178.083,88.0554,122.706,-0.0610352,-3.23486,-0.671387,0.615601,0.334412,0.636444,-0.322571,-27.925,19.6,-29.5417,-7069,-28895
4446,207112,-9.68516,0.090918,0.282324,178.066,88.0554,122.69,-0.12207,0,0,0.615601,0.334412,0.636444,-0.322571,-27.9333,19.6083,-29.575,-7069,-28895
4452,207118,-9.77129,0.100488,-0.143555,178.11,88.0389,122.734,0.183105,3.23486,-0.305176,0.615479,0.334473,0.636505,-0.32254,-27.925,19.6333,-29.6833,-7069,-28895
4458,207124,-9.83828,0.234473,-0.459375,178.044,88.0334,122.662,0.183105,0.854492,0.366211,0.615448,0.334503,0.636536,-0.32251,-27.9167,19.6583,-29.7917,-7069,-28895
4464,207130,-9.83828,0.0430664,0.14834,177.984,88.0554,122.596,0,-1.40381,0,0.61557,0.334473,0.636414,-0.322601,-27.8667,19.7,-29.9,-7069,-28895
4470,207136,-9.78564,0.181836,-0.062207,177.808,88.0389,122.426,0.12207,2.38037,1.09863,0.615509,0.334564,0.636444,-0.32254,-27.85,19.7083,-29.8833,-7069,-28895
4476,207142,-9.81436,0.234473,-0.660352,177.797,88.0334,122.41,0.0610352,1.40381,-0.0610352,0.615479,0.334595,0.636475,-0.32251,-27.8583,19.7167,-29.8417,-7069,-28895
4482,207148,-9.86699,0.0813477,-0.535937,177.77,88.0444,122.377,-0.0610352,-2.0752,-0.0610352,0.61554,0.334564,0.636414,-0.32254,-27.875,19.7417,-29.8083,-7069,-28895
4488,207154,-9.86221,0.0765625,0.0526367,177.742,88.0499,122.355,-0.0610352,-1.77002,-0.12207,0.61557,0.334564,0.636383,-0.322571,-27.9,19.7583,-29.8167,-7069,-28895
4494,207160,-9.86699,0.0669922,-0.416309,177.759,88.0389,122.366,-0.0610352,1.77002,0.0610352,0.615479,0.334625,0.636444,-0.32254,-27.9333,19.8,-29.875,-7069,-28895
4500,207166,-9.8,0.133984,-0.607715,177.753,88.0389,122.36,0,-0.976563,-0.244141,0.615509,0.334625,0.636414,-0.322571,-27.925,19.8167,-29.9,-7069,-28895
4506,207172,-9.75215,0.0526367,-0.13877,177.781,88.0499,122.388,0.12207,-1.77002,-0.488281,0.61554,0.334595,0.636353,-0.322601,-27.9167,19.8417,-29.9167,-7069,-28895
4512,207178,-9.69473,0.0957031,0.062207,177.764,88.0444,122.366,-0.0610352,0.732422,-0.0610352,0.615509,0.334625,0.636383,-0.322601,-27.9083,19.8583,-29.9167,-7069,-28895
4518,207184,-9.82393,0.0717773,-0.588574,177.748,88.0334,122.349,0,0.183105,-0.183105,0.615448,0.334656,0.636444,-0.322571,-27.9083,19.875,-29.8917,-7069,-28895
4524,207190,-9.85264,0.0191406,-0.334961,177.693,88.0444,122.294,0.12207,-1.64795,0.0610352,0.615509,0.334656,0.636383,-0.322601,-27.9083,19.8833,-29.7917,-7069,-28895
4530,207196,-9.78564,0.129199,-0.0717773,177.66,88.0444,122.256,0.0610352,-0.488281,0,0.615509,0.334656,0.636353,-0.322601,-27.9333,19.875,-29.7083,-7069,-28895
4536,207202,-9.77129,0.133984,-0.196191,177.61,88.0389,122.206,0,1.2207,0.12207,0.615479,0.334686,0.636383,-0.322601,-27.9333,19.8583,-29.6417,-7069,-28895
4542,207208,-9.82871,0.0957031,-0.502441,177.55,88.0389,122.146,-0.0610352,0.488281,0.183105,0.615479,0.334717,0.636383,-0.322571,-27.9333,19.8333,-29.5917,-7069,-28895
4548,207214,-9.82871,0.105273,-0.0526367,177.479,88.0444,122.075,-0.0610352,-1.2207,-0.244141,0.61554,0.334717,0.636322,-0.322571,-27.925,19.8167,-29.525,-7069,-28895
4554,207220,-9.8335,0.133984,-0.0334961,177.413,88.0499,122.003,0.0610352,0.671387,0.12207,0.61554,0.334717,0.636292,-0.322601,-27.9083,19.825,-29.4417,-7069,-28895
4560,207226,-9.8335,0.191406,-0.31582,177.413,88.0444,122.003,0,1.0376,-0.244141,0.61554,0.334717,0.636322,-0.322571,-27.9083,19.8333,-29.4333,-7069,-28895
4566,207232,-9.83828,0.0957031,-0.363672,177.363,88.0499,121.954,0,-0.793457,0,0.61554,0.334717,0.636292,-0.322601,-27.9,19.8417,-29.45,-7069,-28895
4572,207238,-9.77129,0.143555,-0.143555,177.292,88.0554,121.888,0.0610352,-0.976563,0.12207,0.615601,0.334717,0.636261,-0.322601,-27.9,19.825,-29.475,-7069,-28895
4578,207244,-9.78564,0.0813477,-0.29668,177.308,88.0554,121.899,0,1.34277,-0.244141,0.61557,0.334747,0.636261,-0.322601,-27.9,19.7917,-29.5083,-7069,-28895
4584,207250,-9.80957,0.119629,-0.449805,177.297,88.0499,121.888,0.0610352,0.12207,-0.244141,0.61554,0.334778,0.636292,-0.322601,-27.8833,19.7667,-29.5167,-7069,-28895
4590,207256,-9.8335,0.0813477,-0.277539,177.292,88.0554,121.882,0.0610352,-0.732422,-0.305176,0.61557,0.334778,0.636261,-0.322632,-27.8833,19.7583,-29.5,-7069,-28895
4596,207262,-9.78564,0.090918,-0.133984,177.248,88.0554,121.833,-0.0610352,0,0,0.61557,0.334778,0.63623,-0.322632,-27.8917,19.7333,-29.4833,-7069,-28895
4602,207268,-9.77129,0.13877,-0.30625,177.209,88.0499,121.794,0.0610352,0.915527,0,0.61554,0.334808,0.636261,-0.322601,-27.8917,19.725,-29.4833,-7069,-28895
4608,207274,-9.79043,0.0861328,-0.330176,177.166,88.0499,121.745,0,-1.0376,0.0610352,0.61554,0.334808,0.63623,-0.322601,-27.8917,19.7167,-29.475,-7069,-28895
4614,207280,-9.77607,0.0957031,-0.177051,177.056,88.0609,121.635,0,-0.549316,0,0.615601,0.334808,0.636169,-0.322632,-27.85,19.7333,-29.5083,-7069,-28895
4620,207286,-9.77607,0.0861328,-0.16748,177.039,88.0609,121.619,0.12207,0.244141,-0.183105,0.615601,0.334839,0.636169,-0.322632,-27.8417,19.7417,-29.5417,-7069,-28895
4626,207292,-9.82871,0.0861328,-0.330176,176.957,88.0609,121.531,0.0610352,0.305176,0.305176,0.615601,0.334869,0.636139,-0.322632,-27.8417,19.7333,-29.575,-7069,-28895
4632,207298,-9.79043,0.143555,-0.334961,176.907,88.0609,121.481,0,-0.549316,0,0.615631,0.334869,0.636108,-0.322662,-27.85,19.725,-29.625,-7069,-28895
4638,207304,-9.80479,0.110059,-0.143555,176.847,88.0664,121.421,0,0.610352,0.0610352,0.615631,0.334869,0.636108,-0.322662,-27.8667,19.7,-29.6833,-7069,-28895
4644,207310,-9.80479,0.16748,-0.301465,176.77,88.0609,121.339,0,0.854492,-0.0610352,0.615601,0.33493,0.636108,-0.322662,-27.8833,19.6833,-29.775,-7069,-28895
4650,207316,-9.84785,0.129199,-0.354102,176.732,88.0609,121.295,0.0610352,0,-0.0610352,0.615601,0.334961,0.636078,-0.322662,-27.8667,19.6833,-29.8083,-7069,-28895
4656,207322,-9.81914,0.0957031,-0.258398,176.721,88.0609,121.284,0,-0.183105,-0.244141,0.615601,0.334961,0.636078,-0.322693,-27.8417,19.6917,-29.8167,-7069,-28895
4662,207328,-9.81914,0.172266,-0.196191,176.699,88.0609,121.262,0,0.183105,-0.183105,0.615601,0.334991,0.636047,-0.322693,-27.8083,19.7,-29.8083,-7069,-28895
4668,207334,-9.80479,0.153125,-0.387598,176.6,88.0609,121.152,-0.0610352,0.12207,0,0.615601,0.335022,0.636047,-0.322693,-27.7667,19.7083,-29.7917,-7069,-28895
4674,207340,-9.7665,0.124414,-0.287109,176.534,88.0664,121.091,-0.0610352,-0.427246,0.0610352,0.615601,0.335052,0.636017,-0.322693,-27.7083,19.6917,-29.7417,-7069,-28895
4680,207346,-9.78564,0.0813477,-0.181836,176.484,88.0664,121.036,0.0610352,-0.12207,0,0.615631,0.335052,0.635986,-0.322693,-27.7,19.675,-29.7667,-7069,-28895
4686,207352,-9.79521,0.124414,-0.234473,176.385,88.0664,120.932,-0.0610352,0.305176,0.366211,0.615631,0.335114,0.635986,-0.322693,-27.6917,19.65,-29.7917,-7069,-28895
4692,207358,-9.78564,0.129199,-0.344531,176.375,88.0664,120.916,0.244141,0.12207,-0.244141,0.615601,0.335114,0.635956,-0.322723,-27.6833,19.6333,-29.825,-7069,-28895
4698,207364,-9.77607,0.114844,-0.210547,176.226,88.0719,120.762,0.0610352,-0.183105,0.183105,0.615631,0.335144,0.635925,-0.322723,-27.675,19.625,-29.8917,-7069,-28895
4704,207370,-9.79043,0.143555,-0.220117,176.199,88.0719,120.729,0.0610352,0.183105,-0.12207,0.615631,0.335205,0.635895,-0.322754,-27.6417,19.6083,-29.9583,-7069,-28895
4710,207376,-9.81436,0.0957031,-0.30625,176.16,88.0719,120.69,-0.0610352,0.305176,-0.0610352,0.615601,0.335236,0.635895,-0.322754,-27.65,19.5833,-29.9583,-7069,-28895
4716,207382,-9.80957,0.13877,-0.339746,176.127,88.0719,120.657,0,0,-0.12207,0.615601,0.335236,0.635864,-0.322784,-27.6583,19.5667,-29.9167,-7069,-28895
4722,207388,-9.81914,0.105273,-0.258398,176.111,88.0719,120.635,0,-0.305176,-0.244141,0.615631,0.335266,0.635834,-0.322815,-27.675,19.5417,-29.8917,-7069,-28895
4728,207394,-9.81436,0.124414,-0.282324,176.001,88.0719,120.52,0,0.244141,0.12207,0.615601,0.335297,0.635834,-0.322815,-27.7,19.5167,-29.8833,-7069,-28895
4734,207400,-9.78564,0.133984,-0.320605,175.99,88.0719,120.504,0,-0.0610352,-0.244141,0.615601,0.335327,0.635803,-0.322845,-27.75,19.5167,-29.9583,-7069,-28895
4740,207406,-9.78564,0.100488,-0.224902,175.935,88.0774,120.443,-0.0610352,-0.549316,0,0.615631,0.335358,0.635773,-0.322845,-27.7583,19.5333,-30,-7069,-28895
4746,207412,-9.77129,0.100488,-0.234473,175.875,88.0774,120.383,-0.0610352,-0.183105,0.0610352,0.615631,0.335358,0.635742,-0.322876,-27.775,19.55,-30.0167,-7069,-28895
4752,207418,-9.79521,0.0813477,-0.248828,175.858,88.0774,120.361,0.0610352,0.244141,-0.183105,0.615631,0.335388,0.635712,-0.322876,-27.7833,19.5583,-30.0083,-7069,-28895
4758,207424,-9.77607,0.124414,-0.277539,175.776,88.0829,120.278,0,-0.244141,-0.183105,0.615631,0.335419,0.635712,-0.322906,-27.7667,19.5667,-30.0167,-7069,-28895
4764,207430,-9.78564,0.110059,-0.215332,175.721,88.0829,120.212,-0.0610352,-0.183105,0.0610352,0.615631,0.335449,0.635651,-0.322937,-27.75,19.6083,-30.05,-7069,-28895
4770,207436,-9.82393,0.100488,-0.229688,175.666,88.0829,120.157,0.183105,0.244141,0.0610352,0.615631,0.33548,0.635651,-0.322937,-27.725,19.6333,-30.075,-7069,-28895
4776,207442,-9.79521,0.143555,-0.29668,175.633,88.0829,120.119,-0.0610352,0.183105,-0.0610352,0.615631,0.33551,0.63562,-0.322937,-27.7083,19.675,-30.0417,-7069,-28895
4782,207448,-9.81914,0.105273,-0.282324,175.551,88.0829,120.037,0,-0.244141,0.183105,0.615631,0.335541,0.63559,-0.322968,-27.7083,19.6833,-30,-7069,-28895
