TimeSinceCollection,Timestamp,AccX,AccY,AccZ,AngleRoll,AnglePitch,AngleYaw,AngularVelX,AngularVelY,AngularVelZ,Q1,Q2,Q3,Q4,MagX,MagY,MagZ,Height,Airpressure
0,38832,9.78086,-0.119629,-0.401953,-165.635,-87.4677,-68.1372,0,0,0,0.309448,0.642181,-0.330017,0.618713,-111.725,60.7417,-36.125,-7788,-28808
6,38838,9.79521,-0.100488,-0.421094,-165.635,-87.4677,-68.1372,0,0,0,0.309448,0.642181,-0.330017,0.618744,-111.725,60.7417,-36.125,-7788,-28808
12,38844,9.81436,-0.100488,-0.401953,-165.635,-87.4677,-68.1372,0,0,0,0.309448,0.642181,-0.330017,0.618744,-111.717,60.75,-36.125,-7788,-28808
18,38850,9.80957,-0.0957031,-0.392383,-165.635,-87.4677,-68.1372,0,0,0,0.309448,0.642181,-0.330017,0.618744,-111.708,60.775,-36.1083,-7788,-28808
24,38856,9.79521,-0.110059,-0.392383,-165.635,-87.4677,-68.1372,0,0,0,0.309448,0.642181,-0.330017,0.618744,-111.692,60.8333,-36.075,-7788,-28808
30,38862,9.8,-0.110059,-0.401953,-165.635,-87.4677,-68.1372,0,0,0,0.309448,0.642181,-0.330017,0.618744,-111.7,60.875,-36.05,-7788,-28808
36,38868,9.78564,-0.124414,-0.406738,-165.635,-87.4677,-68.1372,0,0,0,0.309418,0.642181,-0.329987,0.618744,-111.725,60.9167,-36.0167,-7788,-28808
42,38874,9.79521,-0.110059,-0.392383,-165.635,-87.4677,-68.1372,0,0,0,0.309418,0.642181,-0.329987,0.618744,-111.725,60.9167,-36,-7788,-28808
48,38880,9.81436,-0.090918,-0.392383,-165.586,-87.4677,-68.1921,-0.12207,-0.12207,0.488281,0.309418,0.642181,-0.329987,0.618744,-111.717,60.9167,-35.975,-7788,-28808
54,38886,9.82393,-0.100488,-0.392383,-165.564,-87.4677,-68.2086,0.0610352,0.12207,0.12207,0.309387,0.642181,-0.329987,0.618744,-111.692,60.8667,-36.0167,-7788,-28808
60,38892,9.79521,-0.114844,-0.421094,-165.569,-87.4677,-68.2031,0,0.0610352,-0.0610352,0.309387,0.642181,-0.329987,0.618744,-111.667,60.8667,-36.0167,-7788,-28808
66,38898,9.79043,-0.110059,-0.416309,-165.575,-87.4677,-68.1921,0.12207,0,-0.0610352,0.309387,0.642181,-0.329987,0.618744,-111.658,60.8583,-36,-7788,-28808
72,38904,9.79521,-0.090918,-0.425879,-165.575,-87.4677,-68.1921,0,0,0,0.309387,0.642181,-0.329987,0.618774,-111.658,60.8667,-35.975,-7788,-28808
78,38910,9.80479,-0.0861328,-0.401953,-165.591,-87.4677,-68.1757,0.0610352,0,0,0.309387,0.642181,-0.329956,0.618774,-111.667,60.8667,-35.975,-7788,-28808
84,38916,9.82393,-0.105273,-0.406738,-165.575,-87.4677,-68.1921,0,-0.183105,0.183105,0.309387,0.642212,-0.329987,0.618774,-111.708,60.9083,-36.0083,-7788,-28808
90,38922,9.81436,-0.119629,-0.430664,-165.602,-87.4677,-68.1647,-0.0610352,0,-0.244141,0.309387,0.642212,-0.329956,0.618774,-111.708,60.925,-36.075,-7788,-28808
96,38928,9.79521,-0.090918,-0.392383,-165.602,-87.4677,-68.1647,-0.0610352,0,0,0.309387,0.642212,-0.329956,0.618774,-111.717,60.9333,-36.1333,-7788,-28808
102,38934,9.80479,-0.114844,-0.387598,-165.624,-87.4677,-68.1427,0.0610352,0,-0.183105,0.309387,0.642212,-0.329956,0.618774,-111.725,60.925,-36.1917,-7788,-28808
108,38940,9.79521,-0.124414,-0.401953,-165.624,-87.4731,-68.1427,-0.12207,0,-0.0610352,0.309387,0.642212,-0.329956,0.618774,-111.742,60.9167,-36.2,-7788,-28808
114,38946,9.79521,-0.105273,-0.411523,-165.624,-87.4731,-68.1427,0.0610352,0.0610352,0,0.309387,0.642212,-0.329926,0.618774,-111.775,60.9167,-36.1917,-7788,-28808
120,38952,9.78564,-0.090918,-0.397168,-165.624,-87.4731,-68.1372,-0.12207,0.0610352,-0.0610352,0.309387,0.642212,-0.329926,0.618774,-111.792,60.9083,-36.1917,-7788,-28808
126,38958,9.81436,-0.105273,-0.416309,-165.619,-87.4731,-68.1427,-0.0610352,0,0.0610352,0.309357,0.642212,-0.329926,0.618774,-111.792,60.8917,-36.2167,-7788,-28808
132,38964,9.78564,-0.114844,-0.411523,-165.619,-87.4731,-68.1427,0,0,0,0.309357,0.642212,-0.329926,0.618774,-111.792,60.875,-36.2833,-7788,-28808
138,38970,9.81436,-0.119629,-0.425879,-165.597,-87.4731,-68.1702,-0.0610352,0,-0.244141,0.309357,0.642212,-0.329926,0.618805,-111.8,60.8667,-36.3333,-7788,-28808
144,38976,9.82393,-0.100488,-0.421094,-165.586,-87.4731,-68.1757,0,0,0.0610352,0.309357,0.642212,-0.329926,0.618805,-111.817,60.875,-36.3167,-7788,-28808
150,38982,9.82393,-0.110059,-0.430664,-165.575,-87.4731,-68.1866,0.12207,0,0.12207,0.309357,0.642212,-0.329926,0.618805,-111.85,60.8917,-36.2833,-7788,-28808
156,38988,9.78564,-0.090918,-0.416309,-165.558,-87.4731,-68.2031,0,0,0.12207,0.309357,0.642212,-0.329926,0.618805,-111.867,60.9,-36.25,-7788,-28808
162,38994,9.8,-0.090918,-0.421094,-165.569,-87.4731,-68.1921,0,-0.12207,-0.0610352,0.309357,0.642212,-0.329926,0.618805,-111.867,60.8833,-36.2333,-7788,-28808
168,39000,9.81914,-0.119629,-0.411523,-165.58,-87.4731,-68.1812,0,0,-0.183105,0.309357,0.642212,-0.329926,0.618805,-111.9,60.8917,-36.2083,-7788,-28808
174,39006,9.8,-0.062207,-0.411523,-165.591,-87.4731,-68.1702,0.0610352,0,-0.12207,0.309357,0.642212,-0.329926,0.618805,-111.917,60.9,-36.2167,-7788,-28808
180,39012,9.79043,-0.100488,-0.406738,-165.597,-87.4731,-68.1647,-0.0610352,-0.0610352,0,0.309357,0.642212,-0.329926,0.618805,-111.925,60.9167,-36.2667,-7788,-28808
186,39018,9.79043,-0.105273,-0.416309,-165.591,-87.4731,-68.1702,0,0,0.0610352,0.309357,0.642212,-0.329926,0.618774,-111.925,60.9333,-36.325,-7788,-28808
192,39024,9.8,-0.0861328,-0.421094,-165.586,-87.4731,-68.1757,0,0.12207,0,0.309357,0.642212,-0.329926,0.618805,-111.892,60.9417,-36.3667,-7788,-28808
198,39030,9.82871,-0.0957031,-0.411523,-165.597,-87.4731,-68.1702,-0.0610352,0.0610352,-0.12207,0.309387,0.642181,-0.329926,0.618774,-111.842,60.9417,-36.4,-7788,-28808
204,39036,9.8,-0.110059,-0.430664,-165.597,-87.4731,-68.1702,0,0,0,0.309387,0.642181,-0.329956,0.618774,-111.833,60.9417,-36.3833,-7788,-28808
210,39042,9.80479,-0.0813477,-0.430664,-165.575,-87.4731,-68.1976,-0.0610352,0.183105,0.183105,0.309387,0.642181,-0.329956,0.618774,-111.833,60.925,-36.3833,-7788,-28808
216,39048,9.80479,-0.133984,-0.416309,-165.564,-87.4731,-68.2031,0.12207,0.0610352,0.0610352,0.309387,0.642181,-0.329956,0.618774,-111.842,60.925,-36.3583,-7788,-28808
222,39054,9.80479,-0.110059,-0.421094,-165.547,-87.4731,-68.2251,-0.183105,0,0.183105,0.309418,0.642151,-0.329987,0.618774,-111.85,60.9083,-36.3083,-7788,-28808
228,39060,9.8335,-0.114844,-0.430664,-165.52,-87.4731,-68.2526,-0.0610352,-0.0610352,0,0.309418,0.642151,-0.329987,0.618774,-111.875,60.8917,-36.35,-7788,-28808
234,39066,9.80479,-0.105273,-0.425879,-165.531,-87.4731,-68.2471,-0.0610352,0,-0.0610352,0.309418,0.642151,-0.329987,0.618774,-111.892,60.9,-36.4083,-7788,-28808
240,39072,9.8,-0.129199,-0.416309,-165.531,-87.4731,-68.2471,0.0610352,0,0,0.309418,0.642151,-0.329987,0.618774,-111.908,60.9,-36.4833,-7788,-28808
246,39078,9.80479,-0.0957031,-0.416309,-165.526,-87.4731,-68.2526,0.0610352,0,0.0610352,0.309418,0.642151,-0.329987,0.618774,-111.933,60.925,-36.5167,-7788,-28808
252,39084,9.82871,-0.114844,-0.411523,-165.52,-87.4731,-68.2581,-0.0610352,0.12207,0,0.309418,0.642151,-0.329987,0.618774,-111.942,60.9333,-36.5083,-7788,-28808
258,39090,9.79521,-0.0957031,-0.416309,-165.504,-87.4731,-68.2745,0,-0.0610352,0.183105,0.309418,0.642151,-0.330017,0.618774,-111.958,60.9583,-36.45,-7788,-28808
264,39096,9.8,-0.090918,-0.401953,-165.504,-87.4731,-68.2745,0,0,0,0.309418,0.642151,-0.330017,0.618774,-111.983,60.9417,-36.4,-7788,-28808
270,39102,9.79521,-0.119629,-0.411523,-165.504,-87.4731,-68.2745,0,0,0,0.309418,0.642151,-0.330017,0.618774,-112.017,60.925,-36.375,-7788,-28808
276,39108,9.77607,-0.0957031,-0.421094,-165.487,-87.4731,-68.291,-0.0610352,-0.0610352,0.183105,0.309418,0.642151,-0.330017,0.618774,-112.05,60.875,-36.3333,-7788,-28808
282,39114,9.8,-0.124414,-0.406738,-165.487,-87.4731,-68.291,-0.0610352,0.12207,-0.0610352,0.309418,0.64212,-0.330017,0.618774,-112.058,60.825,-36.3167,-7788,-28808
288,39120,9.80479,-0.0717773,-0.401953,-165.476,-87.4731,-68.302,0,0.12207,0.0610352,0.309418,0.64212,-0.330017,0.618774,-112.033,60.7833,-36.3417,-7788,-28808
294,39126,9.81914,-0.105273,-0.425879,-165.482,-87.4731,-68.2965,0,-0.183105,0,0.309448,0.64212,-0.330048,0.618774,-112.008,60.775,-36.325,-7788,-28808
300,39132,9.81914,-0.100488,-0.406738,-165.476,-87.4731,-68.3075,0,0,0.0610352,0.309448,0.64212,-0.330048,0.618774,-111.983,60.7833,-36.3,-7788,-28808
306,39138,9.80479,-0.105273,-0.435449,-165.476,-87.4731,-68.3075,-0.0610352,0.0610352,0,0.309448,0.64212,-0.330048,0.618774,-111.967,60.775,-36.25,-7788,-28808
312,39144,9.81436,-0.105273,-0.440234,-165.449,-87.4731,-68.335,0.0610352,0,0.244141,0.309448,0.64212,-0.330048,0.618774,-111.95,60.7333,-36.2167,-7788,-28808
318,39150,9.81914,-0.0765625,-0.425879,-165.454,-87.4731,-68.3295,0,0.12207,0.12207,0.309448,0.64212,-0.330048,0.618774,-111.892,60.6833,-36.2333,-7788,-28808
324,39156,9.79521,-0.100488,-0.401953,-165.443,-87.4731,-68.3459,0.0610352,0,0.12207,0.309479,0.64209,-0.330078,0.618744,-111.858,60.6583,-36.225,-7788,-28808
330,39162,9.8,-0.100488,-0.401953,-165.46,-87.4731,-68.3295,-0.0610352,0,-0.12207,0.309479,0.64209,-0.330078,0.618744,-111.85,60.65,-36.1917,-7788,-28808
336,39168,9.79521,-0.114844,-0.440234,-165.46,-87.4731,-68.3295,0,0,0,0.309479,0.64209,-0.330109,0.618744,-111.85,60.65,-36.1333,-7788,-28808
342,39174,9.80957,-0.129199,-0.416309,-165.476,-87.4731,-68.3185,0.12207,0,-0.12207,0.309509,0.64209,-0.330109,0.618744,-111.842,60.625,-36.0667,-7788,-28808
348,39180,9.79521,-0.100488,-0.430664,-165.421,-87.4731,-68.3734,0.0610352,0,0.183105,0.309509,0.64209,-0.330109,0.618744,-111.842,60.6083,-35.9917,-7788,-28808
354,39186,9.79521,-0.105273,-0.430664,-165.405,-87.4731,-68.3899,0,0.305176,0.0610352,0.309509,0.642059,-0.330139,0.618744,-111.817,60.6,-35.9917,-7788,-28808
360,39192,9.79521,-0.100488,-0.449805,-165.41,-87.4731,-68.3899,0,0,0,0.309509,0.642059,-0.330139,0.618744,-111.808,60.5833,-35.9667,-7788,-28808
366,39198,9.80479,-0.114844,-0.406738,-165.41,-87.4731,-68.3899,0.12207,0,0,0.309509,0.642059,-0.330139,0.618744,-111.792,60.5667,-35.95,-7788,-28808
372,39204,9.81914,-0.105273,-0.406738,-165.405,-87.4731,-68.3899,-0.0610352,0.12207,0,0.309509,0.642059,-0.330139,0.618744,-111.792,60.575,-35.9333,-7788,-28808
378,39210,9.82871,-0.105273,-0.401953,-165.399,-87.4731,-68.4009,0,0,-0.0610352,0.309509,0.642059,-0.330139,0.618744,-111.8,60.6167,-35.925,-7788,-28808
384,39216,9.79521,-0.105273,-0.411523,-165.388,-87.4731,-68.4119,0,0,0.12207,0.30954,0.642059,-0.33017,0.618744,-111.817,60.65,-35.9167,-7788,-28808
390,39222,9.81914,-0.110059,-0.430664,-165.388,-87.4731,-68.4174,0,0.12207,0,0.30954,0.642029,-0.33017,0.618744,-111.808,60.675,-35.9417,-7788,-28808
396,39228,9.80479,-0.129199,-0.406738,-165.388,-87.4786,-68.4119,0,0.12207,-0.0610352,0.30954,0.642029,-0.33017,0.618744,-111.8,60.7,-35.9833,-7788,-28808
402,39234,9.80957,-0.105273,-0.406738,-165.421,-87.4731,-68.3844,-0.0610352,-0.0610352,-0.244141,0.30954,0.642029,-0.33017,0.618744,-111.8,60.725,-36.0167,-7788,-28808
408,39240,9.79043,-0.090918,-0.411523,-165.41,-87.4786,-68.3899,0,-0.0610352,-0.12207,0.30957,0.642029,-0.33017,0.618744,-111.825,60.7417,-36.075,-7788,-28808
414,39246,9.8,-0.105273,-0.401953,-165.377,-87.4731,-68.4229,0,-0.0610352,0.305176,0.30954,0.642029,-0.33017,0.618744,-111.833,60.7417,-36.0583,-7788,-28808
420,39252,9.8,-0.0957031,-0.406738,-165.383,-87.4731,-68.4229,0,0,0,0.30957,0.642029,-0.3302,0.618744,-111.85,60.7583,-36.025,-7788,-28808
426,39258,9.80957,-0.105273,-0.430664,-165.383,-87.4731,-68.4229,0,0,0,0.30957,0.642029,-0.3302,0.618713,-111.85,60.7667,-35.9833,-7788,-28808
432,39264,9.79521,-0.100488,-0.425879,-165.394,-87.4731,-68.4119,-0.0610352,0.0610352,-0.12207,0.30957,0.642029,-0.3302,0.618713,-111.85,60.775,-35.9333,-7796,-28807
438,39270,9.81914,-0.110059,-0.406738,-165.399,-87.4731,-68.4119,-0.12207,0,0,0.30957,0.642029,-0.3302,0.618713,-111.85,60.7667,-35.8167,-7796,-28807
444,39276,9.82393,-0.090918,-0.435449,-165.394,-87.4731,-68.4174,-0.0610352,-0.0610352,0.0610352,0.309601,0.642029,-0.330231,0.618713,-111.85,60.7333,-35.8083,-7796,-28807
450,39282,9.78086,-0.0957031,-0.401953,-165.366,-87.4731,-68.4448,0,0.12207,0.244141,0.309601,0.641998,-0.330231,0.618713,-111.842,60.7167,-35.8083,-7796,-28807
456,39288,9.78086,-0.0957031,-0.416309,-165.366,-87.4731,-68.4448,0.0610352,0,0,0.309601,0.641998,-0.330231,0.618713,-111.817,60.7167,-35.8583,-7796,-28807
462,39294,9.8,-0.124414,-0.421094,-165.366,-87.4731,-68.4448,-0.0610352,0,0,0.309601,0.641998,-0.330231,0.618713,-111.8,60.725,-35.9083,-7796,-28807
468,39300,9.81436,-0.100488,-0.406738,-165.35,-87.4731,-68.4668,-0.0610352,0,0.12207,0.309601,0.641998,-0.330261,0.618713,-111.758,60.75,-35.975,-7796,-28807
474,39306,9.81436,-0.105273,-0.401953,-165.35,-87.4731,-68.4668,-0.0610352,0,0,0.309631,0.641998,-0.330261,0.618713,-111.758,60.7583,-35.975,-7796,-28807
480,39312,9.8,-0.124414,-0.440234,-165.339,-87.4731,-68.4833,-0.0610352,0.0610352,0.12207,0.309631,0.641998,-0.330261,0.618713,-111.75,60.75,-35.9667,-7796,-28807
486,39318,9.80479,-0.110059,-0.430664,-165.311,-87.4731,-68.5107,0,0.0610352,0.244141,0.309631,0.641968,-0.330292,0.618713,-111.742,60.75,-35.9667,-7796,-28807
492,39324,9.83828,-0.0957031,-0.421094,-165.306,-87.4731,-68.5162,0,0,0.0610352,0.309631,0.641968,-0.330292,0.618713,-111.742,60.7583,-35.975,-7796,-28807
498,39330,9.78564,-0.110059,-0.406738,-165.273,-87.4731,-68.5492,-0.12207,0.12207,-0.12207,0.309631,0.641968,-0.330322,0.618713,-111.725,60.7667,-36.0333,-7796,-28807
504,39336,9.8,-0.100488,-0.425879,-165.262,-87.4731,-68.5657,-0.0610352,0.0610352,0.12207,0.309631,0.641937,-0.330322,0.618713,-111.717,60.775,-36.0417,-7796,-28807
510,39342,9.80957,-0.110059,-0.411523,-165.256,-87.4731,-68.5712,0,-0.0610352,0.0610352,0.309631,0.641937,-0.330322,0.618683,-111.717,60.7667,-36.05,-7796,-28807
516,39348,9.79521,-0.119629,-0.425879,-165.267,-87.4731,-68.5547,0,-0.183105,-0.0610352,0.309662,0.641968,-0.330322,0.618683,-111.708,60.7583,-36.0583,-7796,-28807
522,39354,9.83828,-0.114844,-0.430664,-165.273,-87.4731,-68.5547,-0.0610352,0,0,0.309662,0.641937,-0.330353,0.618683,-111.708,60.75,-36.0333,-7796,-28807
528,39360,9.81436,-0.0957031,-0.416309,-165.273,-87.4731,-68.5547,-0.12207,0,-0.0610352,0.309662,0.641937,-0.330353,0.618683,-111.742,60.7083,-35.9417,-7796,-28807
534,39366,9.80957,-0.105273,-0.397168,-165.267,-87.4731,-68.5657,0,0.12207,0.0610352,0.309662,0.641937,-0.330353,0.618683,-111.775,60.6833,-35.9417,-7796,-28807
540,39372,9.82871,-0.0861328,-0.425879,-165.262,-87.4731,-68.5657,0.0610352,0.0610352,0,0.309662,0.641937,-0.330353,0.618683,-111.808,60.65,-35.925,-7796,-28807
546,39378,9.82393,-0.114844,-0.440234,-165.278,-87.4731,-68.5547,0.0610352,0.0610352,-0.12207,0.309692,0.641937,-0.330353,0.618683,-111.817,60.6333,-35.9667,-7796,-28807
552,39384,9.8335,-0.114844,-0.401953,-165.267,-87.4731,-68.5657,0,0.0610352,-0.183105,0.309692,0.641937,-0.330383,0.618683,-111.817,60.6167,-36.0583,-7796,-28807
558,39390,9.80957,-0.119629,-0.435449,-165.289,-87.4731,-68.5492,0,0,0,0.309692,0.641937,-0.330383,0.618683,-111.775,60.6333,-36.1333,-7796,-28807
564,39396,9.80479,-0.090918,-0.425879,-165.3,-87.4786,-68.5327,0.0610352,0,-0.12207,0.309723,0.641937,-0.330383,0.618652,-111.775,60.6333,-36.1417,-7796,-28807
570,39402,9.81914,-0.0765625,-0.421094,-165.273,-87.4731,-68.5657,-0.183105,0,0.305176,0.309723,0.641907,-0.330383,0.618652,-111.742,60.6333,-36.1417,-7796,-28807
576,39408,9.77607,-0.062207,-0.397168,-165.284,-87.4731,-68.5547,0,0,-0.12207,0.309723,0.641907,-0.330414,0.618652,-111.717,60.65,-36.15,-7796,-28807
582,39414,9.79043,-0.100488,-0.425879,-165.267,-87.4731,-68.5712,0,0.12207,0.0610352,0.309753,0.641907,-0.330414,0.618652,-111.717,60.6667,-36.1917,-7796,-28807
588,39420,9.77607,-0.0861328,-0.411523,-165.262,-87.4786,-68.5822,0,0,0,0.309784,0.641876,-0.330444,0.618622,-111.75,60.7333,-36.2667,-7796,-28807
594,39426,9.80957,-0.124414,-0.397168,-165.245,-87.4786,-68.6096,0,0.12207,0.183105,0.309784,0.641876,-0.330475,0.618622,-111.792,60.75,-36.3,-7796,-28807
600,39432,9.82871,-0.124414,-0.397168,-165.245,-87.4786,-68.6096,-0.0610352,0.0610352,0,0.309784,0.641876,-0.330475,0.618622,-111.808,60.7583,-36.325,-7796,-28807
606,39438,9.81914,-0.119629,-0.406738,-165.218,-87.4786,-68.6371,-0.0610352,0.0610352,0.244141,0.309814,0.641846,-0.330505,0.618622,-111.817,60.7833,-36.3333,-7796,-28807
612,39444,9.82393,-0.119629,-0.406738,-165.245,-87.4786,-68.6096,0,0,0.0610352,0.309814,0.641846,-0.330505,0.618622,-111.817,60.8083,-36.3583,-7796,-28807
618,39450,9.81436,-0.114844,-0.425879,-165.234,-87.4786,-68.6261,0,0,0.0610352,0.309814,0.641846,-0.330505,0.618622,-111.825,60.9,-36.3583,-7796,-28807
624,39456,9.80957,-0.090918,-0.397168,-165.229,-87.4786,-68.6261,-0.12207,0.12207,0,0.309814,0.641846,-0.330505,0.618622,-111.808,60.9083,-36.3667,-7796,-28807
630,39462,9.81914,-0.105273,-0.416309,-165.234,-87.4786,-68.6261,0,0,0,0.309845,0.641846,-0.330505,0.618622,-111.792,60.9083,-36.3667,-7796,-28807
636,39468,9.81436,-0.090918,-0.406738,-165.262,-87.4786,-68.5986,0.12207,0,-0.244141,0.309845,0.641846,-0.330505,0.618622,-111.758,60.8917,-36.35,-7796,-28807
642,39474,9.78564,-0.110059,-0.421094,-165.273,-87.4786,-68.5931,0.0610352,-0.183105,-0.0610352,0.309845,0.641846,-0.330536,0.618591,-111.733,60.8667,-36.3417,-7796,-28807
648,39480,9.78564,-0.105273,-0.430664,-165.251,-87.4731,-68.6096,0,0,0.183105,0.309845,0.641846,-0.330536,0.618591,-111.7,60.8083,-36.35,-7796,-28807
654,39486,9.80479,-0.119629,-0.425879,-165.256,-87.4731,-68.6096,0,0,0,0.309845,0.641846,-0.330536,0.618591,-111.717,60.8,-36.375,-7796,-28807
660,39492,9.79043,-0.090918,-0.44502,-165.245,-87.4731,-68.6206,0,-0.12207,0.12207,0.309845,0.641846,-0.330566,0.618591,-111.742,60.7917,-36.375,-7796,-28807
666,39498,9.80479,-0.110059,-0.397168,-165.24,-87.4731,-68.6261,0.12207,-0.0610352,0.0610352,0.309845,0.641846,-0.330566,0.618591,-111.75,60.7917,-36.4,-7796,-28807
672,39504,9.8,-0.114844,-0.382813,-165.234,-87.4731,-68.6316,0,-0.0610352,0.0610352,0.309875,0.641815,-0.330566,0.618591,-111.758,60.7917,-36.3667,-7796,-28807
678,39510,9.81436,-0.100488,-0.397168,-165.229,-87.4731,-68.6426,0,0,0.0610352,0.309875,0.641815,-0.330566,0.618591,-111.708,60.775,-36.3667,-7796,-28807
684,39516,9.78564,-0.124414,-0.44502,-165.229,-87.4731,-68.6371,0.12207,-0.0610352,0,0.309875,0.641815,-0.330566,0.618591,-111.675,60.75,-36.35,-7796,-28807
690,39522,9.79521,-0.110059,-0.430664,-165.229,-87.4731,-68.6426,-0.12207,-0.183105,0.0610352,0.309875,0.641815,-0.330597,0.618561,-111.65,60.7417,-36.3333,-7796,-28807
696,39528,9.80957,-0.114844,-0.397168,-165.256,-87.4731,-68.6151,0.0610352,0,-0.244141,0.309875,0.641846,-0.330566,0.618561,-111.642,60.7167,-36.2917,-7796,-28807
702,39534,9.8,-0.100488,-0.45459,-165.234,-87.4731,-68.6316,0.12207,0,0.183105,0.309875,0.641846,-0.330566,0.618561,-111.642,60.6917,-36.2417,-7796,-28807
708,39540,9.82393,-0.0957031,-0.392383,-165.24,-87.4731,-68.6316,0.0610352,0,0,0.309875,0.641815,-0.330597,0.618561,-111.658,60.6917,-36.1583,-7796,-28807
714,39546,9.79521,-0.0765625,-0.411523,-165.207,-87.4731,-68.6646,0,0.183105,0.244141,0.309875,0.641815,-0.330597,0.618591,-111.683,60.7083,-36.1333,-7796,-28807
720,39552,9.80479,-0.124414,-0.435449,-165.157,-87.4731,-68.714,0,0.0610352,0.427246,0.309875,0.641815,-0.330627,0.618591,-111.692,60.7167,-36.0917,-7796,-28807
726,39558,9.80479,-0.114844,-0.416309,-165.146,-87.4731,-68.725,-0.0610352,0,0.12207,0.309875,0.641815,-0.330627,0.618591,-111.7,60.7167,-36.075,-7796,-28807
732,39564,9.80957,-0.105273,-0.425879,-165.168,-87.4731,-68.703,-0.12207,0,0,0.309875,0.641815,-0.330627,0.618561,-111.708,60.725,-36.0667,-7796,-28807
738,39570,9.81436,-0.105273,-0.430664,-165.185,-87.4731,-68.692,0.183105,0,-0.12207,0.309906,0.641785,-0.330627,0.618561,-111.667,60.7333,-36.1583,-7796,-28807
744,39576,9.81436,-0.0861328,-0.411523,-165.163,-87.4731,-68.714,0,0.12207,0.183105,0.309906,0.641785,-0.330658,0.618561,-111.65,60.7417,-36.2167,-7796,-28807
750,39582,9.81436,-0.114844,-0.421094,-165.19,-87.4731,-68.692,0,0,-0.244141,0.309906,0.641785,-0.330627,0.618561,-111.642,60.7583,-36.3083,-7796,-28807
756,39588,9.8,-0.13877,-0.430664,-165.19,-87.4731,-68.6865,-0.12207,-0.0610352,0,0.309906,0.641785,-0.330658,0.618561,-111.65,60.7667,-36.3417,-7796,-28807
762,39594,9.78564,-0.0861328,-0.411523,-165.196,-87.4731,-68.6865,0,0,0.244141,0.309937,0.641785,-0.330658,0.618561,-111.658,60.7833,-36.4,-7796,-28807
768,39600,9.78086,-0.114844,-0.378027,-165.196,-87.4731,-68.6865,0,0.0610352,0,0.309937,0.641785,-0.330658,0.618561,-111.65,60.8083,-36.425,-7796,-28807
774,39606,9.80957,-0.100488,-0.397168,-165.196,-87.4731,-68.6865,0.0610352,0,0,0.309937,0.641785,-0.330658,0.618561,-111.633,60.8083,-36.4083,-7796,-28807
780,39612,9.80479,-0.114844,-0.435449,-165.19,-87.4731,-68.6975,0,0,0.0610352,0.309937,0.641785,-0.330688,0.618561,-111.633,60.825,-36.4083,-7788,-28808
786,39618,9.81914,-0.105273,-0.421094,-165.179,-87.4731,-68.7085,0,-0.0610352,0.12207,0.309937,0.641785,-0.330688,0.61853,-111.65,60.85,-36.4,-7788,-28808
792,39624,9.81436,-0.124414,-0.44502,-165.174,-87.4731,-68.7085,0.12207,0.0610352,0.0610352,0.309937,0.641785,-0.330688,0.61853,-111.683,60.8917,-36.4333,-7788,-28808
798,39630,9.81914,-0.110059,-0.440234,-165.196,-87.4731,-68.6865,0,-0.0610352,-0.183105,0.309937,0.641785,-0.330688,0.61853,-111.692,60.9,-36.45,-7796,-28807
804,39636,9.79043,-0.0765625,-0.416309,-165.174,-87.4731,-68.714,0,-0.0610352,0.244141,0.309967,0.641754,-0.330719,0.61853,-111.7,60.875,-36.4583,-7796,-28807
810,39642,9.80479,-0.124414,-0.401953,-165.207,-87.4731,-68.681,-0.0610352,0.0610352,-0.305176,0.309967,0.641754,-0.330719,0.61853,-111.683,60.8333,-36.475,-7796,-28807
816,39648,9.79521,-0.0861328,-0.411523,-165.212,-87.4731,-68.681,0.0610352,-0.0610352,0,0.309967,0.641754,-0.330719,0.6185,-111.692,60.8167,-36.475,-7796,-28807
822,39654,9.78564,-0.0813477,-0.401953,-165.229,-87.4731,-68.6646,-0.12207,0.0610352,0,0.309998,0.641754,-0.330719,0.6185,-111.717,60.8,-36.5167,-7796,-28807
828,39660,9.81436,-0.100488,-0.449805,-165.223,-87.4731,-68.6755,0.0610352,0,0.0610352,0.309998,0.641754,-0.33075,0.6185,-111.717,60.8,-36.5417,-7796,-28807
834,39666,9.80479,-0.129199,-0.416309,-165.218,-87.4731,-68.681,0,0,0.0610352,0.310028,0.641754,-0.33075,0.6185,-111.7,60.8083,-36.5333,-7796,-28807
840,39672,9.80957,-0.119629,-0.425879,-165.218,-87.4731,-68.681,0,0,0,0.310028,0.641754,-0.33075,0.6185,-111.667,60.8083,-36.55,-7796,-28807
846,39678,9.81436,-0.124414,-0.421094,-165.229,-87.4731,-68.6755,0,0,-0.0610352,0.310028,0.641754,-0.33078,0.6185,-111.65,60.8083,-36.5333,-7796,-28807
852,39684,9.82871,-0.14834,-0.392383,-165.234,-87.4731,-68.67,-0.0610352,0.0610352,0.0610352,0.310059,0.641724,-0.33078,0.618469,-111.667,60.8333,-36.3917,-7796,-28807
858,39690,9.82393,-0.124414,-0.421094,-165.229,-87.4731,-68.6755,-0.0610352,0,0.0610352,0.310059,0.641724,-0.33078,0.618469,-111.708,60.8583,-36.3167,-7796,-28807
864,39696,9.8,-0.0957031,-0.401953,-165.223,-87.4731,-68.681,0,0.12207,0,0.310059,0.641724,-0.33078,0.618469,-111.742,60.875,-36.2417,-7796,-28807
870,39702,9.82393,-0.119629,-0.368457,-165.223,-87.4731,-68.681,0.0610352,0,0,0.310059,0.641724,-0.33078,0.618469,-111.775,60.8833,-36.1917,-7796,-28807
876,39708,9.80479,-0.0861328,-0.416309,-165.223,-87.4731,-68.6865,-0.0610352,0.12207,0,0.310059,0.641724,-0.33078,0.618469,-111.8,60.8833,-36.1667,-7796,-28807
882,39714,9.79521,-0.129199,-0.421094,-165.24,-87.4731,-68.67,-0.12207,-0.0610352,-0.12207,0.310059,0.641724,-0.330811,0.618469,-111.817,60.8667,-36.1917,-7796,-28807
888,39720,9.8,-0.119629,-0.411523,-165.234,-87.4731,-68.6755,0,0,0.0610352,0.310089,0.641724,-0.330811,0.618469,-111.808,60.8417,-36.1833,-7796,-28807
894,39726,9.77607,-0.124414,-0.425879,-165.218,-87.4731,-68.692,-0.0610352,-0.12207,0.183105,0.310059,0.641724,-0.330811,0.618469,-111.792,60.8083,-36.1583,-7796,-28807
900,39732,9.79521,-0.100488,-0.435449,-165.218,-87.4731,-68.6865,0.12207,-0.12207,0,0.310059,0.641724,-0.330811,0.618469,-111.775,60.7833,-36.15,-7796,-28807
906,39738,9.80479,-0.105273,-0.425879,-165.218,-87.4731,-68.692,0,0.12207,0,0.310059,0.641724,-0.330811,0.618469,-111.767,60.775,-36.125,-7796,-28807
912,39744,9.81436,-0.119629,-0.435449,-165.157,-87.4731,-68.7524,0,0.0610352,0.183105,0.310059,0.641724,-0.330811,0.618469,-111.75,60.8083,-36.1333,-7796,-28807
918,39750,9.81914,-0.119629,-0.421094,-165.135,-87.4731,-68.7744,0,0.0610352,0.183105,0.310059,0.641693,-0.330841,0.618469,-111.733,60.825,-36.1167,-7796,-28807
924,39756,9.79043,-0.105273,-0.430664,-165.13,-87.4731,-68.7854,-0.0610352,0.0610352,0.0610352,0.310059,0.641693,-0.330841,0.618469,-111.7,60.825,-36.125,-7796,-28807
930,39762,9.82393,-0.100488,-0.411523,-165.125,-87.4731,-68.7854,0.0610352,0.0610352,0,0.310059,0.641693,-0.330841,0.618469,-111.658,60.8083,-36.125,-7796,-28807
936,39768,9.80479,-0.0813477,-0.435449,-165.119,-87.4731,-68.7964,0,0.12207,0.0610352,0.310089,0.641693,-0.330872,0.618469,-111.633,60.8,-36.1333,-7796,-28807
942,39774,9.79043,-0.119629,-0.421094,-165.103,-87.4731,-68.8129,-0.0610352,-0.0610352,0,0.310089,0.641663,-0.330872,0.618469,-111.575,60.7667,-36.1417,-7796,-28807
948,39780,9.78564,-0.100488,-0.397168,-165.108,-87.4731,-68.8074,-0.12207,-0.12207,0,0.310089,0.641663,-0.330902,0.618469,-111.583,60.7583,-36.15,-7796,-28807
954,39786,9.79521,-0.0957031,-0.392383,-165.092,-87.4731,-68.8239,0.0610352,-0.12207,0.183105,0.310089,0.641663,-0.330902,0.618439,-111.583,60.75,-36.1667,-7796,-28807
960,39792,9.78564,-0.124414,-0.411523,-165.081,-87.4731,-68.8403,0,0,0.12207,0.310089,0.641663,-0.330902,0.618439,-111.592,60.7417,-36.2,-7796,-28807
966,39798,9.79521,-0.119629,-0.425879,-165.081,-87.4731,-68.8403,-0.12207,0,0,0.310089,0.641663,-0.330933,0.618439,-111.6,60.7417,-36.2333,-7796,-28807
972,39804,9.82871,-0.110059,-0.416309,-165.075,-87.4731,-68.8458,0,0,-0.0610352,0.31012,0.641663,-0.330933,0.618439,-111.608,60.725,-36.2083,-7796,-28807
978,39810,9.8,-0.110059,-0.421094,-165.053,-87.4731,-68.8733,0,0.12207,0.183105,0.31012,0.641632,-0.330933,0.618439,-111.625,60.7167,-36.1583,-7796,-28807
984,39816,9.82393,-0.105273,-0.406738,-165.081,-87.4731,-68.8458,0,0,-0.244141,0.31012,0.641663,-0.330933,0.618439,-111.633,60.7167,-36.1,-7796,-28807
990,39822,9.81914,-0.114844,-0.411523,-165.092,-87.4731,-68.8293,0,0,-0.12207,0.31012,0.641663,-0.330933,0.618439,-111.642,60.7333,-36.0583,-7796,-28807
996,39828,9.80957,-0.119629,-0.416309,-165.086,-87.4731,-68.8403,0.12207,0.12207,0.0610352,0.31012,0.641632,-0.330933,0.618439,-111.65,60.75,-36.0583,-7796,-28807
1002,39834,9.78086,-0.100488,-0.425879,-165.097,-87.4731,-68.8293,0,-0.0610352,-0.12207,0.31015,0.641632,-0.330933,0.618439,-111.633,60.75,-36.05,-7796,-28807
1008,39840,9.79521,-0.0861328,-0.425879,-165.092,-87.4731,-68.8348,0,0.183105,0,0.31015,0.641632,-0.330933,0.618439,-111.625,60.7583,-36.0167,-7796,-28807
1014,39846,9.78564,-0.110059,-0.416309,-165.108,-87.4731,-68.8239,-0.0610352,0,-0.12207,0.31015,0.641632,-0.330933,0.618439,-111.625,60.7667,-35.975,-7796,-28807
1020,39852,9.79521,-0.100488,-0.459375,-165.108,-87.4731,-68.8239,-0.12207,0,0,0.310181,0.641632,-0.330963,0.618439,-111.625,60.775,-35.9083,-7796,-28807
1026,39858,9.79521,-0.0957031,-0.406738,-165.108,-87.4731,-68.8239,-0.0610352,0,0,0.310181,0.641632,-0.330963,0.618439,-111.642,60.7917,-35.9083,-7796,-28807
1032,39864,9.82393,-0.114844,-0.416309,-165.119,-87.4731,-68.8129,-0.0610352,-0.0610352,-0.244141,0.310181,0.641632,-0.330963,0.618439,-111.7,60.7917,-35.9583,-7796,-28807
1038,39870,9.81436,-0.105273,-0.416309,-165.103,-87.4731,-68.8293,-0.12207,-0.0610352,0.183105,0.310181,0.641632,-0.330994,0.618408,-111.725,60.7917,-36.0083,-7796,-28807
1044,39876,9.82393,-0.090918,-0.406738,-165.135,-87.4731,-68.8019,0.0610352,-0.12207,-0.244141,0.310211,0.641632,-0.330994,0.618408,-111.758,60.7917,-36.0583,-7796,-28807
1050,39882,9.82393,-0.090918,-0.425879,-165.13,-87.4731,-68.8074,0,-0.0610352,0.0610352,0.310211,0.641632,-0.330994,0.618408,-111.792,60.8167,-36.0917,-7796,-28807
1056,39888,9.8335,-0.105273,-0.406738,-165.135,-87.4731,-68.8074,0,0,0,0.310211,0.641602,-0.331024,0.618378,-111.817,60.825,-36.125,-7796,-28807
1062,39894,9.8,-0.143555,-0.387598,-165.135,-87.4731,-68.8074,0,0,0,0.310242,0.641602,-0.331024,0.618378,-111.817,60.8333,-36.1167,-7796,-28807
1068,39900,9.80957,-0.105273,-0.397168,-165.135,-87.4731,-68.8074,0,0,0,0.310242,0.641602,-0.331024,0.618378,-111.817,60.825,-36.075,-7796,-28807
1074,39906,9.80479,-0.110059,-0.435449,-165.135,-87.4731,-68.8074,0,0,0,0.310242,0.641602,-0.331024,0.618378,-111.825,60.8083,-36.0417,-7796,-28807
1080,39912,9.8,-0.090918,-0.392383,-165.141,-87.4731,-68.8074,0,0,0,0.310242,0.641602,-0.331024,0.618378,-111.833,60.7833,-36.0083,-7796,-28807
1086,39918,9.79521,-0.100488,-0.45459,-165.141,-87.4731,-68.8074,0,0,0,0.310242,0.641602,-0.331024,0.618378,-111.85,60.7583,-36.0083,-7796,-28807
1092,39924,9.80957,-0.110059,-0.406738,-165.141,-87.4731,-68.8074,0,0,0,0.310242,0.641602,-0.331055,0.618378,-111.867,60.725,-36,-7796,-28807
1098,39930,9.80479,-0.100488,-0.440234,-165.141,-87.4731,-68.8074,0,0,0,0.310272,0.641602,-0.331055,0.618378,-111.858,60.7083,-35.975,-7796,-28807
1104,39936,9.79043,-0.124414,-0.397168,-165.141,-87.4731,-68.8074,0,0,0,0.310272,0.641602,-0.331055,0.618378,-111.858,60.7167,-35.9667,-7796,-28807
1110,39942,9.80479,-0.110059,-0.416309,-165.141,-87.4731,-68.8074,0,0,0,0.310272,0.641602,-0.331055,0.618347,-111.825,60.725,-35.9833,-7796,-28807
1116,39948,9.80957,-0.0957031,-0.411523,-165.146,-87.4731,-68.8074,0,0,0,0.310272,0.641571,-0.331055,0.618347,-111.817,60.7333,-36,-7796,-28807
1122,39954,9.81914,-0.090918,-0.411523,-165.146,-87.4731,-68.8074,0,0,0,0.310303,0.641571,-0.331085,0.618347,-111.833,60.7583,-36.0917,-7796,-28807
1128,39960,9.8,-0.0861328,-0.411523,-165.146,-87.4731,-68.8074,0,0,0,0.310303,0.641571,-0.331085,0.618347,-111.825,60.7583,-36.1417,-7796,-28807
1134,39966,9.80479,-0.119629,-0.382813,-165.146,-87.4731,-68.8074,0,0,0,0.310303,0.641571,-0.331085,0.618347,-111.817,60.7667,-36.2083,-7796,-28807
1140,39972,9.83828,-0.124414,-0.411523,-165.152,-87.4731,-68.8074,0,0,0,0.310303,0.641571,-0.331085,0.618347,-111.783,60.7667,-36.325,-7796,-28807
1146,39978,9.79521,-0.119629,-0.421094,-165.152,-87.4731,-68.8074,0,0,0,0.310303,0.641571,-0.331085,0.618347,-111.775,60.7667,-36.3917,-7796,-28807
1152,39984,9.80957,-0.100488,-0.425879,-165.152,-87.4731,-68.8074,0,0,0,0.310303,0.641571,-0.331116,0.618347,-111.767,60.725,-36.425,-7796,-28807
1158,39990,9.81914,-0.129199,-0.382813,-165.152,-87.4731,-68.8074,0,0,0,0.310303,0.641571,-0.331116,0.618347,-111.775,60.725,-36.4167,-7796,-28807
1164,39996,9.82393,-0.114844,-0.425879,-165.152,-87.4731,-68.8074,0,0,0,0.310303,0.641571,-0.331116,0.618347,-111.783,60.7333,-36.4,-7796,-28807
1170,40002,9.81914,-0.114844,-0.435449,-165.152,-87.4731,-68.8074,0,0,0,0.310303,0.641571,-0.331116,0.618347,-111.783,60.7583,-36.3667,-7796,-28807
1176,40008,9.79521,-0.105273,-0.382813,-165.152,-87.4731,-68.8074,0,0,0,0.310333,0.641571,-0.331116,0.618347,-111.8,60.8,-36.3667,-7796,-28807
1182,40014,9.8,-0.100488,-0.392383,-165.152,-87.4731,-68.8074,0,0,0,0.310333,0.641571,-0.331116,0.618347,-111.8,60.9,-36.35,-7796,-28807
1188,40020,9.80479,-0.124414,-0.421094,-165.152,-87.4731,-68.8074,0,0,0,0.310303,0.641571,-0.331116,0.618347,-111.8,60.9417,-36.3833,-7796,-28807
1194,40026,9.80479,-0.100488,-0.401953,-165.152,-87.4731,-68.8074,0,0,0,0.310303,0.641571,-0.331116,0.618347,-111.8,60.975,-36.3917,-7796,-28807
1200,40032,9.80479,-0.105273,-0.392383,-165.152,-87.4731,-68.8074,0,0,0,0.310303,0.641571,-0.331116,0.618347,-111.783,60.975,-36.425,-7796,-28807
1206,40038,9.83828,-0.090918,-0.382813,-165.152,-87.4731,-68.8074,0,0,0,0.310303,0.641571,-0.331085,0.618347,-111.775,61,-36.4583,-7796,-28807
1212,40044,9.8,-0.114844,-0.382813,-165.152,-87.4731,-68.8074,0,0,0,0.310303,0.641571,-0.331085,0.618347,-111.758,61,-36.425,-7796,-28807
1218,40050,9.82393,-0.110059,-0.397168,-165.152,-87.4731,-68.8074,0,0,0,0.310303,0.641571,-0.331085,0.618347,-111.775,61.0083,-36.375,-7796,-28807
1224,40056,9.82393,-0.114844,-0.406738,-165.146,-87.4731,-68.8074,0,0,0,0.310303,0.641571,-0.331085,0.618347,-111.792,60.9833,-36.35,-7796,-28807
1230,40062,9.8,-0.114844,-0.430664,-165.146,-87.4731,-68.8074,0,0,0,0.310303,0.641571,-0.331085,0.618347,-111.792,60.95,-36.3083,-7796,-28807
1236,40068,9.79521,-0.100488,-0.430664,-165.146,-87.4731,-68.8074,0,0,0,0.310303,0.641571,-0.331085,0.618347,-111.775,60.925,-36.275,-7796,-28807
1242,40074,9.81914,-0.0861328,-0.416309,-165.146,-87.4731,-68.8074,0,0,0,0.310303,0.641571,-0.331085,0.618347,-111.7,60.875,-36.2167,-7796,-28807
1248,40080,9.80479,-0.105273,-0.401953,-165.146,-87.4731,-68.8074,0,0,0,0.310303,0.641571,-0.331085,0.618347,-111.65,60.8417,-36.2167,-7796,-28807
1254,40086,9.7665,-0.100488,-0.430664,-165.146,-87.4731,-68.8074,0,0,0,0.310303,0.641571,-0.331085,0.618347,-111.633,60.8333,-36.2333,-7796,-28807
1260,40092,9.79043,-0.100488,-0.378027,-165.152,-87.4731,-68.8074,0,0,0,0.310303,0.641571,-0.331085,0.618347,-111.625,60.8333,-36.2417,-7796,-28807
1266,40098,9.78564,-0.100488,-0.401953,-165.152,-87.4731,-68.8074,0,0,0,0.310303,0.641571,-0.331085,0.618347,-111.633,60.85,-36.2583,-7796,-28807
1272,40104,9.83828,-0.129199,-0.411523,-165.152,-87.4731,-68.8074,0,0,0,0.310303,0.641571,-0.331085,0.618347,-111.683,60.9,-36.3083,-7796,-28807
1278,40110,9.8,-0.114844,-0.421094,-165.146,-87.4731,-68.8074,0,0,0,0.310303,0.641571,-0.331085,0.618347,-111.7,60.9,-36.325,-7796,-28807
1284,40116,9.80479,-0.110059,-0.416309,-165.146,-87.4731,-68.8074,0,0,0,0.310303,0.641571,-0.331085,0.618347,-111.7,60.8917,-36.3167,-7796,-28807
1290,40122,9.81914,-0.114844,-0.411523,-165.146,-87.4731,-68.8074,0,0,0,0.310303,0.641571,-0.331085,0.618347,-111.683,60.8667,-36.275,-7796,-28807
1296,40128,9.80479,-0.100488,-0.406738,-165.146,-87.4731,-68.8074,0,0,0,0.310303,0.641571,-0.331085,0.618347,-111.675,60.8417,-36.225,-7796,-28807
1302,40134,9.82393,-0.114844,-0.397168,-165.146,-87.4731,-68.8074,0,0,0,0.310303,0.641571,-0.331085,0.618347,-111.683,60.8,-36.1,-7796,-28807
1308,40140,9.78564,-0.110059,-0.416309,-165.146,-87.4731,-68.8074,0,0,0,0.310303,0.641571,-0.331085,0.618378,-111.692,60.7917,-36.0917,-7796,-28807
1314,40146,9.80957,-0.090918,-0.397168,-165.146,-87.4731,-68.8074,0,0,0,0.310303,0.641571,-0.331085,0.618378,-111.692,60.7833,-36.075,-7796,-28807
1320,40152,9.78564,-0.0813477,-0.416309,-165.146,-87.4731,-68.8074,0,0,0,0.310303,0.641571,-0.331085,0.618347,-111.683,60.7833,-36.0667,-7796,-28807
1326,40158,9.79043,-0.100488,-0.425879,-165.152,-87.4731,-68.8074,0,0,0,0.310303,0.641571,-0.331085,0.618347,-111.667,60.8167,-36.0833,-7796,-28807
1332,40164,9.80479,-0.090918,-0.411523,-165.152,-87.4731,-68.8074,0,0,0,0.310333,0.641571,-0.331085,0.618347,-111.667,60.8333,-36.0917,-7796,-28807
1338,40170,9.8,-0.119629,-0.411523,-165.152,-87.4731,-68.8074,0,0,0,0.310333,0.641541,-0.331085,0.618347,-111.675,60.85,-36.1417,-7796,-28807
1344,40176,9.80479,-0.110059,-0.397168,-165.152,-87.4731,-68.8074,0,0,0,0.310333,0.641541,-0.331116,0.618347,-111.683,60.8583,-36.1833,-7796,-28807
1350,40182,9.79521,-0.100488,-0.397168,-165.157,-87.4731,-68.8074,0,0,0,0.310333,0.641541,-0.331116,0.618347,-111.675,60.85,-36.175,-7796,-28807
1356,40188,9.81436,-0.110059,-0.449805,-165.157,-87.4731,-68.8074,0,0,0,0.310364,0.641541,-0.331116,0.618347,-111.667,60.8417,-36.1833,-7796,-28807
1362,40194,9.80957,-0.114844,-0.435449,-165.157,-87.4731,-68.8074,0,0,0,0.310364,0.641541,-0.331116,0.618347,-111.625,60.85,-36.125,-7796,-28807
1368,40200,9.79043,-0.124414,-0.416309,-165.157,-87.4731,-68.8074,0,0,0,0.310364,0.641541,-0.331146,0.618347,-111.625,60.825,-36.1417,-7796,-28807
1374,40206,9.80479,-0.100488,-0.406738,-165.157,-87.4731,-68.8074,0,0,0,0.310364,0.641541,-0.331146,0.618317,-111.633,60.8417,-36.1917,-7796,-28807
1380,40212,9.80957,-0.105273,-0.401953,-165.163,-87.4731,-68.8074,0,0,0,0.310394,0.641541,-0.331146,0.618317,-111.642,60.8417,-36.2083,-7796,-28807
1386,40218,9.81436,-0.124414,-0.411523,-165.163,-87.4731,-68.8074,0,0,0,0.310394,0.641541,-0.331146,0.618317,-111.65,60.825,-36.2417,-7796,-28807
1392,40224,9.79521,-0.105273,-0.406738,-165.163,-87.4731,-68.8074,0,0,0,0.310394,0.64151,-0.331146,0.618317,-111.642,60.825,-36.3167,-7796,-28807
1398,40230,9.79043,-0.114844,-0.425879,-165.163,-87.4731,-68.8074,0,0,0,0.310394,0.64151,-0.331146,0.618317,-111.617,60.8167,-36.3333,-7796,-28807
1404,40236,9.79521,-0.105273,-0.435449,-165.163,-87.4731,-68.8074,0,0,0,0.310394,0.64151,-0.331146,0.618317,-111.608,60.825,-36.3583,-7796,-28807
1410,40242,9.8,-0.13877,-0.406738,-165.163,-87.4731,-68.8074,0,0,0,0.310394,0.64151,-0.331146,0.618317,-111.592,60.825,-36.325,-7796,-28807
1416,40248,9.84785,-0.105273,-0.416309,-165.168,-87.4731,-68.8074,0,0,0,0.310394,0.64151,-0.331177,0.618317,-111.583,60.85,-36.3083,-7796,-28807
1422,40254,9.78086,-0.0957031,-0.416309,-165.168,-87.4731,-68.8074,0,0,0,0.310425,0.64151,-0.331177,0.618317,-111.608,60.8583,-36.3,-7796,-28807
1428,40260,9.79043,-0.0957031,-0.416309,-165.168,-87.4731,-68.8074,0,0,0,0.310425,0.64151,-0.331177,0.618317,-111.633,60.8667,-36.325,-7796,-28807
1434,40266,9.80479,-0.114844,-0.387598,-165.168,-87.4731,-68.8074,0,0,0,0.310425,0.64151,-0.331177,0.618317,-111.658,60.875,-36.325,-7796,-28807
1440,40272,9.80479,-0.119629,-0.406738,-165.168,-87.4731,-68.8074,0,0,0,0.310425,0.64151,-0.331177,0.618317,-111.683,60.8833,-36.2667,-7796,-28807
1446,40278,9.81914,-0.100488,-0.416309,-165.168,-87.4731,-68.8074,0,0,0,0.310425,0.64151,-0.331177,0.618317,-111.7,60.9167,-36.2167,-7796,-28807
1452,40284,9.81436,-0.105273,-0.421094,-165.174,-87.4731,-68.8074,0,0,0,0.310455,0.64151,-0.331207,0.618286,-111.675,60.9417,-36.1417,-7796,-28807
1458,40290,9.82871,-0.100488,-0.425879,-165.174,-87.4731,-68.8074,0,0,0,0.310455,0.641479,-0.331207,0.618286,-111.675,60.95,-36.1417,-7796,-28807
1464,40296,9.8335,-0.110059,-0.416309,-165.174,-87.4731,-68.8074,0,0,0,0.310455,0.641479,-0.331207,0.618286,-111.642,60.9667,-36.15,-7796,-28807
1470,40302,9.80479,-0.119629,-0.416309,-165.174,-87.4731,-68.8074,0,0,0,0.310455,0.641479,-0.331207,0.618286,-111.633,60.975,-36.1333,-7796,-28807
1476,40308,9.80479,-0.100488,-0.392383,-165.174,-87.4731,-68.8074,0,0,0,0.310455,0.641479,-0.331207,0.618286,-111.625,60.975,-36.125,-7796,-28807
1482,40314,9.8,-0.105273,-0.406738,-165.174,-87.4731,-68.8074,0,0,0,0.310486,0.641479,-0.331207,0.618286,-111.6,60.95,-36.0667,-7796,-28807
1488,40320,9.82871,-0.110059,-0.401953,-165.179,-87.4731,-68.8074,0,0,0,0.310486,0.641479,-0.331238,0.618286,-111.592,60.9583,-36.0667,-7796,-28807
1494,40326,9.80957,-0.100488,-0.387598,-165.179,-87.4731,-68.8074,0,0,0,0.310486,0.641479,-0.331238,0.618286,-111.567,60.9667,-36.0583,-7796,-28807
1500,40332,9.79521,-0.114844,-0.397168,-165.179,-87.4731,-68.8074,0,0,0,0.310486,0.641479,-0.331238,0.618286,-111.542,61,-36.0667,-7796,-28807
1506,40338,9.79043,-0.129199,-0.392383,-165.179,-87.4731,-68.8074,0,0,0,0.310486,0.641479,-0.331238,0.618286,-111.533,61,-36.1,-7796,-28807
1512,40344,9.80957,-0.114844,-0.416309,-165.174,-87.4731,-68.8074,0,0,0,0.310486,0.641479,-0.331238,0.618286,-111.517,61.0083,-36.1417,-7796,-28807
1518,40350,9.81914,-0.100488,-0.406738,-165.174,-87.4731,-68.8074,0,0,0,0.310486,0.641479,-0.331207,0.618286,-111.508,61.0083,-36.1917,-7796,-28807
1524,40356,9.81914,-0.13877,-0.435449,-165.174,-87.4731,-68.8074,0,0,0,0.310455,0.641479,-0.331207,0.618286,-111.5,61.0167,-36.2333,-7796,-28807
1530,40362,9.82393,-0.119629,-0.397168,-165.174,-87.4786,-68.8074,0,0,0,0.310455,0.641479,-0.331207,0.618286,-111.492,61.0083,-36.2833,-7796,-28807
1536,40368,9.79521,-0.110059,-0.425879,-165.174,-87.4731,-68.8074,0,0,0,0.310455,0.641479,-0.331207,0.618286,-111.517,61,-36.275,-7796,-28807
1542,40374,9.79521,-0.105273,-0.406738,-165.174,-87.4731,-68.8074,0,0,0,0.310455,0.641479,-0.331207,0.618317,-111.542,60.9917,-36.2833,-7796,-28807
1548,40380,9.81436,-0.110059,-0.435449,-165.168,-87.4731,-68.8074,0,0,0,0.310455,0.641479,-0.331177,0.618317,-111.567,60.9917,-36.3083,-7796,-28807
1554,40386,9.81436,-0.129199,-0.416309,-165.168,-87.4731,-68.8074,0,0,0,0.310425,0.64151,-0.331177,0.618317,-111.575,60.9917,-36.3083,-7796,-28807
1560,40392,9.82871,-0.114844,-0.392383,-165.168,-87.4786,-68.8074,0,0,0,0.310425,0.64151,-0.331177,0.618317,-111.592,60.9917,-36.325,-7796,-28807
1566,40398,9.78564,-0.090918,-0.435449,-165.168,-87.4731,-68.8074,0,0,0,0.310425,0.64151,-0.331177,0.618317,-111.633,60.9917,-36.3083,-7796,-28807
1572,40404,9.80957,-0.124414,-0.401953,-165.168,-87.4731,-68.8074,0,0,0,0.310425,0.64151,-0.331177,0.618317,-111.633,60.9917,-36.3083,-7796,-28807
1578,40410,9.82393,-0.0957031,-0.416309,-165.163,-87.4731,-68.8074,0,0,0,0.310425,0.64151,-0.331177,0.618317,-111.625,61,-36.35,-7796,-28807
1584,40416,9.80957,-0.100488,-0.44502,-165.163,-87.4731,-68.8074,0,0,0,0.310425,0.64151,-0.331177,0.618317,-111.608,60.9917,-36.3667,-7796,-28807
1590,40422,9.82871,-0.090918,-0.421094,-165.163,-87.4731,-68.8074,0,0,0,0.310425,0.64151,-0.331177,0.618317,-111.6,60.975,-36.3583,-7796,-28807
1596,40428,9.78564,-0.100488,-0.425879,-165.168,-87.4731,-68.8074,0,0,0,0.310425,0.64151,-0.331177,0.618317,-111.608,60.9667,-36.3167,-7796,-28807
1602,40434,9.80479,-0.100488,-0.406738,-165.168,-87.4731,-68.8074,0,0,0,0.310425,0.64151,-0.331177,0.618317,-111.633,60.9583,-36.2583,-7796,-28807
1608,40440,9.80957,-0.119629,-0.387598,-165.168,-87.4731,-68.8074,0,0,0,0.310425,0.64151,-0.331177,0.618317,-111.642,60.95,-36.2417,-7796,-28807
1614,40446,9.79521,-0.090918,-0.430664,-165.168,-87.4731,-68.8074,0,0,0,0.310425,0.64151,-0.331177,0.618317,-111.65,60.9333,-36.2333,-7796,-28807
1620,40452,9.80957,-0.090918,-0.411523,-165.168,-87.4731,-68.8074,0,0,0,0.310425,0.64151,-0.331177,0.618317,-111.658,60.9417,-36.2333,-7796,-28807
1626,40458,9.8,-0.105273,-0.397168,-165.174,-87.4731,-68.8074,0,0,0,0.310455,0.64151,-0.331207,0.618317,-111.658,60.9667,-36.2833,-7796,-28807
1632,40464,9.82871,-0.110059,-0.411523,-165.174,-87.4786,-68.8074,0,0,0,0.310455,0.641479,-0.331207,0.618286,-111.658,60.9583,-36.3,-7796,-28807
1638,40470,9.81914,-0.119629,-0.421094,-165.174,-87.4731,-68.8074,0,0,0,0.310455,0.641479,-0.331207,0.618286,-111.667,60.9417,-36.3,-7796,-28807
1644,40476,9.79043,-0.114844,-0.406738,-165.174,-87.4731,-68.8074,0,0,0,0.310455,0.641479,-0.331207,0.618286,-111.65,60.9167,-36.3,-7796,-28807
1650,40482,9.81914,-0.100488,-0.416309,-165.174,-87.4731,-68.8074,0,0,0,0.310455,0.641479,-0.331207,0.618286,-111.642,60.9083,-36.2917,-7796,-28807
1656,40488,9.80479,-0.100488,-0.449805,-165.174,-87.4731,-68.8074,0,0,0,0.310455,0.641479,-0.331207,0.618286,-111.642,60.875,-36.2333,-7796,-28807
1662,40494,9.79043,-0.0957031,-0.411523,-165.174,-87.4731,-68.8074,0,0,0,0.310486,0.641479,-0.331207,0.618286,-111.658,60.875,-36.2333,-7796,-28807
1668,40500,9.79521,-0.090918,-0.416309,-165.179,-87.4731,-68.8074,0,0,0,0.310486,0.641479,-0.331238,0.618286,-111.675,60.8833,-36.2083,-7796,-28807
1674,40506,9.80479,-0.0861328,-0.430664,-165.179,-87.4731,-68.8074,0,0,0,0.310486,0.641479,-0.331238,0.618286,-111.683,60.9167,-36.1917,-7796,-28807
1680,40512,9.80957,-0.114844,-0.421094,-165.179,-87.4731,-68.8074,0,0,0,0.310486,0.641479,-0.331238,0.618286,-111.708,60.95,-36.1583,-7796,-28807
1686,40518,9.80957,-0.119629,-0.440234,-165.185,-87.4731,-68.8074,0,0,0,0.310516,0.641449,-0.331268,0.618256,-111.725,61.0083,-36.2,-7796,-28807
1692,40524,9.81914,-0.0861328,-0.401953,-165.185,-87.4731,-68.8074,0,0,0,0.310516,0.641449,-0.331268,0.618256,-111.742,61.0167,-36.2417,-7796,-28807
1698,40530,9.80957,-0.0861328,-0.397168,-165.19,-87.4731,-68.8074,0,0,0,0.310547,0.641449,-0.331299,0.618256,-111.75,61.0167,-36.2833,-7796,-28807
1704,40536,9.81914,-0.105273,-0.416309,-165.19,-87.4731,-68.8074,0,0,0,0.310547,0.641449,-0.331299,0.618256,-111.742,61.0167,-36.325,-7796,-28807
1710,40542,9.81436,-0.100488,-0.430664,-165.196,-87.4731,-68.8074,0,0,0,0.310577,0.641449,-0.331329,0.618225,-111.758,61.0167,-36.3583,-7796,-28807
1716,40548,9.81436,-0.110059,-0.382813,-165.196,-87.4731,-68.8074,0,0,0,0.310577,0.641418,-0.331329,0.618225,-111.783,61,-36.3833,-7796,-28807
1722,40554,9.81436,-0.110059,-0.430664,-165.201,-87.4731,-68.8074,0,0,0,0.310608,0.641418,-0.33136,0.618225,-111.8,60.9917,-36.4,-7796,-28807
1728,40560,9.80957,-0.114844,-0.425879,-165.201,-87.4731,-68.8074,0,0,0,0.310608,0.641418,-0.33136,0.618225,-111.817,60.9833,-36.4,-7796,-28807
1734,40566,9.81436,-0.110059,-0.421094,-165.201,-87.4731,-68.8074,0,0,0,0.310608,0.641418,-0.33136,0.618225,-111.833,60.9667,-36.4167,-7796,-28807
1740,40572,9.80957,-0.110059,-0.435449,-165.201,-87.4731,-68.8074,0,0,0,0.310638,0.641418,-0.33136,0.618195,-111.833,60.9583,-36.4083,-7796,-28807
1746,40578,9.80479,-0.119629,-0.411523,-165.207,-87.4731,-68.8074,0,0,0,0.310638,0.641418,-0.33139,0.618195,-111.817,60.925,-36.325,-7796,-28807
1752,40584,9.79043,-0.090918,-0.406738,-165.207,-87.4731,-68.8074,0,0,0,0.310638,0.641388,-0.33139,0.618195,-111.783,60.9083,-36.2833,-7796,-28807
1758,40590,9.80957,-0.114844,-0.387598,-165.207,-87.4731,-68.8074,0,0,0,0.310638,0.641388,-0.33139,0.618195,-111.75,60.9,-36.2667,-7796,-28807
1764,40596,9.80479,-0.0765625,-0.421094,-165.212,-87.4731,-68.8074,0,0,0,0.310669,0.641388,-0.331421,0.618195,-111.717,60.8833,-36.2667,-7796,-28807
1770,40602,9.80479,-0.114844,-0.411523,-165.212,-87.4731,-68.8074,0,0,0,0.310669,0.641388,-0.331421,0.618195,-111.692,60.8667,-36.2583,-7796,-28807
1776,40608,9.80479,-0.105273,-0.421094,-165.212,-87.4731,-68.8074,0,0,0,0.310669,0.641388,-0.331421,0.618195,-111.65,60.8,-36.25,-7796,-28807
1782,40614,9.81914,-0.119629,-0.430664,-165.218,-87.4731,-68.8074,0,0,0,0.310699,0.641388,-0.331421,0.618164,-111.65,60.7583,-36.25,-7796,-28807
1788,40620,9.82393,-0.090918,-0.421094,-165.218,-87.4731,-68.8074,0,0,0,0.310699,0.641357,-0.331451,0.618164,-111.633,60.7333,-36.2583,-7796,-28807
1794,40626,9.80957,-0.0861328,-0.416309,-165.218,-87.4731,-68.8074,0,0,0,0.310699,0.641357,-0.331451,0.618164,-111.625,60.7083,-36.2583,-7796,-28807
1800,40632,9.80957,-0.100488,-0.406738,-165.223,-87.4731,-68.8074,0,0,0,0.31073,0.641357,-0.331451,0.618164,-111.608,60.7,-36.2833,-7796,-28807
1806,40638,9.80479,-0.090918,-0.421094,-165.223,-87.4731,-68.8074,0,0,0,0.31073,0.641357,-0.331482,0.618164,-111.6,60.7417,-36.2583,-7796,-28807
1812,40644,9.81914,-0.090918,-0.401953,-165.229,-87.4731,-68.8074,0,0,0,0.31076,0.641357,-0.331512,0.618134,-111.6,60.75,-36.2,-7796,-28807
1818,40650,9.80957,-0.0957031,-0.421094,-165.229,-87.4731,-68.8074,0,0,0,0.31076,0.641327,-0.331512,0.618134,-111.617,60.7667,-36.1667,-7796,-28807
1824,40656,9.78564,-0.110059,-0.416309,-165.234,-87.4731,-68.8074,0,0,0,0.310791,0.641327,-0.331512,0.618134,-111.625,60.775,-36.1583,-7796,-28807
1830,40662,9.80957,-0.105273,-0.421094,-165.234,-87.4731,-68.8074,0,0,0,0.310791,0.641327,-0.331543,0.618103,-111.642,60.8167,-36.2,-7796,-28807
1836,40668,9.8,-0.100488,-0.392383,-165.24,-87.4731,-68.8074,0,0,0,0.310822,0.641296,-0.331573,0.618103,-111.625,60.8833,-36.3083,-7796,-28807
1842,40674,9.8,-0.110059,-0.406738,-165.24,-87.4731,-68.8074,0,0,0,0.310852,0.641296,-0.331573,0.618103,-111.625,60.925,-36.3667,-7796,-28807
1848,40680,9.78086,-0.0861328,-0.449805,-165.245,-87.4731,-68.8074,0,0,0,0.310852,0.641296,-0.331604,0.618103,-111.608,60.9417,-36.3917,-7796,-28807
1854,40686,9.81436,-0.114844,-0.440234,-165.245,-87.4731,-68.8074,0,0,0,0.310883,0.641296,-0.331604,0.618073,-111.6,60.9667,-36.3833,-7796,-28807
1860,40692,9.80957,-0.0957031,-0.401953,-165.251,-87.4731,-68.8074,0,0,0,0.310883,0.641296,-0.331635,0.618073,-111.6,60.9833,-36.3667,-7796,-28807
1866,40698,9.79043,-0.129199,-0.411523,-165.256,-87.4731,-68.8074,0,0,0,0.310913,0.641266,-0.331665,0.618042,-111.583,61,-36.3,-7796,-28807
1872,40704,9.79521,-0.110059,-0.406738,-165.256,-87.4731,-68.8074,0,0,0,0.310944,0.641266,-0.331665,0.618042,-111.575,61.0167,-36.3083,-7796,-28807
1878,40710,9.80957,-0.100488,-0.406738,-165.262,-87.4731,-68.8074,0,0,0,0.310944,0.641266,-0.331665,0.618042,-111.567,61.05,-36.3417,-7796,-28807
1884,40716,9.81914,-0.0861328,-0.401953,-165.262,-87.4731,-68.8074,0,0,0,0.310974,0.641235,-0.331696,0.618042,-111.575,61.0833,-36.3917,-7796,-28807
1890,40722,9.80479,-0.0717773,-0.387598,-165.267,-87.4731,-68.8074,0,0,0,0.310974,0.641235,-0.331696,0.618042,-111.583,61.1083,-36.4167,-7796,-28807
1896,40728,9.79043,-0.124414,-0.430664,-165.273,-87.4731,-68.8074,0,0,0,0.311005,0.641235,-0.331726,0.618011,-111.625,61.1583,-36.4583,-7796,-28807
1902,40734,9.77607,-0.114844,-0.430664,-165.273,-87.4731,-68.8074,0,0,0,0.311005,0.641205,-0.331757,0.618011,-111.633,61.1667,-36.4417,-7796,-28807
1908,40740,9.80957,-0.124414,-0.435449,-165.278,-87.4731,-68.8074,0,0,0,0.311035,0.641205,-0.331757,0.618011,-111.625,61.1583,-36.45,-7796,-28807
1914,40746,9.80479,-0.114844,-0.416309,-165.278,-87.4731,-68.8074,0,0,0,0.311035,0.641205,-0.331757,0.617981,-111.608,61.1167,-36.425,-7796,-28807
1920,40752,9.81436,-0.0957031,-0.416309,-165.278,-87.4731,-68.8074,0,0,0,0.311035,0.641205,-0.331787,0.617981,-111.608,61.075,-36.425,-7796,-28807
1926,40758,9.78564,-0.119629,-0.430664,-165.284,-87.4731,-68.8074,0,0,0,0.311066,0.641205,-0.331787,0.617981,-111.65,61,-36.4833,-7796,-28807
1932,40764,9.80479,-0.0957031,-0.425879,-165.284,-87.4731,-68.8074,0,0,0,0.311066,0.641205,-0.331818,0.617981,-111.658,60.9917,-36.5083,-7796,-28807
1938,40770,9.80479,-0.105273,-0.421094,-165.284,-87.4731,-68.8074,0,0,0,0.311096,0.641174,-0.331818,0.617981,-111.658,61.0083,-36.525,-7796,-28807
1944,40776,9.79043,-0.110059,-0.416309,-165.289,-87.4731,-68.8074,0,0,0,0.311096,0.641174,-0.331818,0.61795,-111.625,61.0083,-36.5333,-7796,-28807
1950,40782,9.81914,-0.105273,-0.401953,-165.289,-87.4731,-68.8074,0,0,0,0.311096,0.641174,-0.331818,0.61795,-111.592,61,-36.5167,-7796,-28807
1956,40788,9.82393,-0.0813477,-0.397168,-165.295,-87.4731,-68.8074,0,0,0,0.311127,0.641174,-0.331848,0.61795,-111.558,60.95,-36.4917,-7796,-28807
1962,40794,9.80957,-0.114844,-0.430664,-165.295,-87.4731,-68.8074,0,0,0,0.311127,0.641174,-0.331848,0.61795,-111.558,60.9333,-36.4667,-7796,-28807
1968,40800,9.80957,-0.124414,-0.401953,-165.295,-87.4731,-68.8074,0,0,0,0.311127,0.641174,-0.331879,0.61795,-111.533,60.9167,-36.475,-7796,-28807
1974,40806,9.80957,-0.110059,-0.425879,-165.295,-87.4731,-68.8074,0,0,0,0.311127,0.641174,-0.331879,0.61795,-111.508,60.9,-36.475,-7796,-28807
1980,40812,9.81914,-0.100488,-0.392383,-165.295,-87.4731,-68.8074,0,0,0,0.311157,0.641144,-0.331879,0.61795,-111.483,60.8833,-36.4667,-7796,-28807
1986,40818,9.82393,-0.100488,-0.416309,-165.3,-87.4731,-68.8074,0,0,0,0.311157,0.641144,-0.331879,0.61792,-111.408,60.8667,-36.4833,-7796,-28807
1992,40824,9.78564,-0.0861328,-0.440234,-165.3,-87.4731,-68.8074,0,0,0,0.311157,0.641144,-0.331879,0.61792,-111.383,60.8667,-36.4833,-7796,-28807
1998,40830,9.79043,-0.100488,-0.421094,-165.3,-87.4731,-68.8074,0,0,0,0.311157,0.641144,-0.331879,0.61792,-111.342,60.8583,-36.4583,-7796,-28807
2004,40836,9.79521,-0.110059,-0.435449,-165.3,-87.4731,-68.8074,0,0,0,0.311157,0.641144,-0.331909,0.61792,-111.317,60.8333,-36.45,-7796,-28807
2010,40842,9.80479,-0.129199,-0.430664,-165.3,-87.4731,-68.8074,0,0,0,0.311188,0.641144,-0.331909,0.61792,-111.317,60.825,-36.4417,-7796,-28807
2016,40848,9.80479,-0.0813477,-0.421094,-165.306,-87.4731,-68.8074,0,0,0,0.311188,0.641144,-0.331909,0.61792,-111.283,60.8,-36.4,-7796,-28807
2022,40854,9.82393,-0.100488,-0.411523,-165.306,-87.4731,-68.8074,0,0,0,0.311188,0.641144,-0.33194,0.61792,-111.283,60.8083,-36.3667,-7796,-28807
2028,40860,9.79043,-0.090918,-0.430664,-165.311,-87.4731,-68.8074,0,0,0,0.311218,0.641113,-0.33194,0.617889,-111.275,60.825,-36.3583,-7796,-28807
2034,40866,9.81914,-0.0957031,-0.406738,-165.311,-87.4731,-68.8074,0,0,0,0.311218,0.641113,-0.33194,0.617889,-111.308,60.8667,-36.3667,-7796,-28807
2040,40872,9.79043,-0.114844,-0.406738,-165.317,-87.4731,-68.8074,0,0,0,0.311218,0.641113,-0.33197,0.617889,-111.333,60.8917,-36.3667,-7796,-28807
2046,40878,9.81914,-0.110059,-0.430664,-165.317,-87.4731,-68.8074,0,0,0,0.311249,0.641113,-0.33197,0.617889,-111.375,60.9167,-36.4,-7796,-28807
2052,40884,9.80957,-0.110059,-0.421094,-165.317,-87.4731,-68.8074,0,0,0,0.311249,0.641113,-0.33197,0.617889,-111.375,60.9083,-36.3917,-7796,-28807
2058,40890,9.8335,-0.119629,-0.406738,-165.317,-87.4731,-68.8074,0,0,0,0.311249,0.641113,-0.332001,0.617859,-111.383,60.9,-36.375,-7796,-28807
2064,40896,9.80957,-0.100488,-0.406738,-165.322,-87.4731,-68.8074,0,0,0,0.311279,0.641113,-0.332001,0.617859,-111.4,60.8833,-36.325,-7796,-28807
2070,40902,9.79043,-0.114844,-0.430664,-165.322,-87.4731,-68.8074,0,0,0,0.311279,0.641083,-0.332001,0.617859,-111.408,60.9083,-36.2917,-7796,-28807
2076,40908,9.8335,-0.114844,-0.406738,-165.322,-87.4731,-68.8074,0,0,0,0.311279,0.641083,-0.332001,0.617859,-111.417,60.95,-36.275,-7796,-28807
2082,40914,9.80479,-0.100488,-0.425879,-165.322,-87.4731,-68.8074,0,0,0,0.311279,0.641083,-0.332001,0.617859,-111.417,60.9667,-36.3083,-7796,-28807
2088,40920,9.80957,-0.090918,-0.440234,-165.322,-87.4731,-68.8074,0,0,0,0.311279,0.641083,-0.332031,0.617859,-111.408,60.95,-36.3167,-7796,-28807
2094,40926,9.81436,-0.129199,-0.401953,-165.322,-87.4731,-68.8074,0,0,0,0.31131,0.641083,-0.332031,0.617859,-111.408,60.9167,-36.2833,-7796,-28807
2100,40932,9.78086,-0.119629,-0.406738,-165.328,-87.4731,-68.8074,0,0,0,0.31131,0.641083,-0.332031,0.617859,-111.4,60.8917,-36.2667,-7796,-28807
2106,40938,9.81436,-0.090918,-0.421094,-165.328,-87.4731,-68.8074,0,0,0,0.31131,0.641083,-0.332031,0.617859,-111.417,60.8833,-36.3417,-7796,-28807
2112,40944,9.82871,-0.100488,-0.397168,-165.328,-87.4731,-68.8074,0,0,0,0.31131,0.641083,-0.332031,0.617859,-111.417,60.875,-36.3833,-7796,-28807
2118,40950,9.79521,-0.100488,-0.406738,-165.328,-87.4731,-68.8074,0,0,0,0.31131,0.641083,-0.332031,0.617859,-111.425,60.875,-36.4083,-7796,-28807
2124,40956,9.81436,-0.100488,-0.421094,-165.328,-87.4731,-68.8074,0,0,0,0.31131,0.641083,-0.332031,0.617859,-111.425,60.8583,-36.3917,-7796,-28807
2130,40962,9.80479,-0.119629,-0.421094,-165.328,-87.4731,-68.8074,0,0,0,0.31131,0.641083,-0.332031,0.617859,-111.417,60.8583,-36.375,-7796,-28807
2136,40968,9.79043,-0.119629,-0.411523,-165.328,-87.4731,-68.8074,0,0,0,0.31131,0.641083,-0.332031,0.617828,-111.425,60.8917,-36.3583,-7796,-28807
2142,40974,9.78086,-0.100488,-0.416309,-165.328,-87.4731,-68.8074,0,0,0,0.31131,0.641083,-0.332031,0.617828,-111.425,60.9083,-36.375,-7796,-28807
2148,40980,9.82393,-0.105273,-0.425879,-165.328,-87.4731,-68.8074,0,0,0,0.31131,0.641083,-0.332062,0.617828,-111.433,60.925,-36.4,-7796,-28807
2154,40986,9.80479,-0.110059,-0.392383,-165.328,-87.4731,-68.8074,0,0,0,0.31131,0.641083,-0.332062,0.617828,-111.425,60.9083,-36.3833,-7796,-28807
2160,40992,9.80479,-0.0717773,-0.435449,-165.328,-87.4731,-68.8074,0,0,0,0.31131,0.641083,-0.332062,0.617828,-111.417,60.8917,-36.3667,-7796,-28807
2166,40998,9.81436,-0.0957031,-0.411523,-165.333,-87.4731,-68.8074,0,0,0,0.31134,0.641083,-0.332062,0.617828,-111.392,60.8583,-36.375,-7796,-28807
2172,41004,9.81914,-0.090918,-0.416309,-165.333,-87.4731,-68.8074,0,0,0,0.31134,0.641052,-0.332062,0.617828,-111.375,60.8583,-36.3917,-7796,-28807
2178,41010,9.8,-0.110059,-0.387598,-165.333,-87.4731,-68.8019,0,0,0,0.31134,0.641052,-0.332062,0.617828,-111.383,60.875,-36.4333,-7796,-28807
2184,41016,9.81914,-0.114844,-0.416309,-165.333,-87.4731,-68.8074,0,0,0,0.31134,0.641052,-0.332062,0.617828,-111.375,60.8917,-36.4667,-7796,-28807
2190,41022,9.80479,-0.124414,-0.430664,-165.333,-87.4731,-68.8074,0,0,0,0.31134,0.641052,-0.332062,0.617828,-111.375,60.9333,-36.5083,-7796,-28807
2196,41028,9.79043,-0.090918,-0.44502,-165.339,-87.4731,-68.8074,0,0,0,0.311371,0.641052,-0.332092,0.617828,-111.375,60.9417,-36.525,-7796,-28807
2202,41034,9.80957,-0.0957031,-0.411523,-165.339,-87.4731,-68.8074,0,0,0,0.311371,0.641052,-0.332092,0.617828,-111.383,60.9583,-36.55,-7796,-28807
2208,41040,9.80957,-0.119629,-0.392383,-165.339,-87.4731,-68.8074,0,0,0,0.311371,0.641052,-0.332092,0.617828,-111.375,60.95,-36.575,-7796,-28807
2214,41046,9.80479,-0.105273,-0.416309,-165.339,-87.4731,-68.8074,0,0,0,0.311371,0.641052,-0.332092,0.617828,-111.4,60.95,-36.5833,-7796,-28807
2220,41052,9.80479,-0.114844,-0.425879,-165.344,-87.4731,-68.8019,0,0,0,0.311371,0.641052,-0.332123,0.617798,-111.4,60.925,-36.625,-7796,-28807
2226,41058,9.8,-0.0813477,-0.425879,-165.344,-87.4731,-68.8074,0,0,0,0.311401,0.641022,-0.332123,0.617798,-111.392,60.9083,-36.6083,-7796,-28807
2232,41064,9.8,-0.100488,-0.416309,-165.344,-87.4731,-68.8019,0,0,0,0.311401,0.641022,-0.332123,0.617798,-111.375,60.8833,-36.5833,-7796,-28807
2238,41070,9.80479,-0.100488,-0.397168,-165.35,-87.4731,-68.8074,0,0,0,0.311432,0.641022,-0.332153,0.617798,-111.35,60.8667,-36.5583,-7796,-28807
2244,41076,9.8335,-0.105273,-0.416309,-165.35,-87.4731,-68.8074,0,0,0,0.311432,0.641022,-0.332153,0.617798,-111.367,60.8667,-36.5667,-7796,-28807
2250,41082,9.80479,-0.0957031,-0.421094,-165.355,-87.4731,-68.8074,0,0,0,0.311432,0.641022,-0.332153,0.617767,-111.408,60.875,-36.625,-7796,-28807
2256,41088,9.77607,-0.0957031,-0.435449,-165.355,-87.4731,-68.8074,0,0,0,0.311462,0.640991,-0.332184,0.617767,-111.425,60.8667,-36.6417,-7796,-28807
2262,41094,9.82393,-0.114844,-0.421094,-165.355,-87.4731,-68.8074,0,0,0,0.311462,0.640991,-0.332184,0.617767,-111.417,60.8583,-36.6417,-7796,-28807
2268,41100,9.80957,-0.124414,-0.416309,-165.361,-87.4731,-68.8074,0,0,0,0.311493,0.640991,-0.332214,0.617767,-111.408,60.8333,-36.625,-7796,-28807
2274,41106,9.81914,-0.090918,-0.397168,-165.361,-87.4731,-68.8074,0,0,0,0.311493,0.640991,-0.332214,0.617767,-111.408,60.8333,-36.6,-7796,-28807
2280,41112,9.8,-0.090918,-0.406738,-165.361,-87.4731,-68.8074,0,0,0,0.311493,0.640991,-0.332214,0.617737,-111.425,60.85,-36.5667,-7796,-28807
2286,41118,9.80957,-0.114844,-0.421094,-165.366,-87.4731,-68.8074,0,0,0,0.311523,0.640991,-0.332245,0.617737,-111.433,60.8583,-36.5667,-7796,-28807
2292,41124,9.79521,-0.114844,-0.397168,-165.366,-87.4731,-68.8074,0,0,0,0.311523,0.640961,-0.332245,0.617737,-111.433,60.875,-36.575,-7796,-28807
2298,41130,9.79521,-0.114844,-0.425879,-165.366,-87.4731,-68.8074,0,0,0,0.311523,0.640961,-0.332245,0.617737,-111.433,60.8917,-36.5833,-7796,-28807
2304,41136,9.80957,-0.0861328,-0.416309,-165.366,-87.4731,-68.8074,0,0,0,0.311523,0.640961,-0.332245,0.617737,-111.425,60.9,-36.6,-7796,-28807
2310,41142,9.80479,-0.119629,-0.406738,-165.372,-87.4731,-68.8074,0,0,0,0.311554,0.640961,-0.332275,0.617737,-111.425,60.9083,-36.5833,-7796,-28807
2316,41148,9.78086,-0.100488,-0.406738,-165.372,-87.4731,-68.8074,0,0,0,0.311554,0.640961,-0.332275,0.617737,-111.433,60.8917,-36.5917,-7796,-28807
2322,41154,9.79043,-0.114844,-0.401953,-165.372,-87.4731,-68.8074,0,0,0,0.311554,0.640961,-0.332275,0.617706,-111.45,60.8917,-36.6167,-7796,-28807
2328,41160,9.79043,-0.119629,-0.449805,-165.372,-87.4731,-68.8074,0,0,0,0.311554,0.640961,-0.332275,0.617706,-111.45,60.8917,-36.6,-7796,-28807
2334,41166,9.78564,-0.110059,-0.430664,-165.372,-87.4731,-68.8074,0,0,0,0.311554,0.640961,-0.332275,0.617706,-111.433,60.8833,-36.6,-7796,-28807
2340,41172,9.80957,-0.0957031,-0.397168,-165.372,-87.4731,-68.8019,0,0,0,0.311554,0.640961,-0.332275,0.617706,-111.375,60.9,-36.55,-7796,-28807
2346,41178,9.80479,-0.105273,-0.416309,-165.377,-87.4731,-68.8074,0,0,0,0.311584,0.640961,-0.332275,0.617706,-111.375,60.8917,-36.525,-7796,-28807
2352,41184,9.8,-0.124414,-0.449805,-165.377,-87.4731,-68.8074,0,0,0,0.311584,0.640961,-0.332306,0.617706,-111.375,60.8917,-36.4833,-7796,-28807
2358,41190,9.79043,-0.105273,-0.411523,-165.377,-87.4731,-68.8074,0,0,0,0.311584,0.640961,-0.332306,0.617706,-111.35,60.875,-36.4583,-7796,-28807
2364,41196,9.80957,-0.100488,-0.421094,-165.377,-87.4731,-68.8074,0,0,0,0.311584,0.640961,-0.332306,0.617706,-111.35,60.8583,-36.4167,-7796,-28807
2370,41202,9.80479,-0.124414,-0.421094,-165.377,-87.4731,-68.8074,0,0,0,0.311584,0.64093,-0.332306,0.617706,-111.367,60.85,-36.425,-7796,-28807
2376,41208,9.80957,-0.119629,-0.416309,-165.377,-87.4731,-68.8019,0,0,0,0.311584,0.64093,-0.332306,0.617706,-111.392,60.8667,-36.4833,-7796,-28807
2382,41214,9.77607,-0.100488,-0.401953,-165.377,-87.4731,-68.8074,0,0,0,0.311584,0.64093,-0.332306,0.617706,-111.4,60.8833,-36.5167,-7796,-28807
2388,41220,9.79521,-0.110059,-0.411523,-165.377,-87.4731,-68.8019,0,0,0,0.311584,0.64093,-0.332306,0.617706,-111.417,60.9083,-36.5667,-7796,-28807
2394,41226,9.79521,-0.100488,-0.397168,-165.377,-87.4731,-68.8074,0,0,0,0.311584,0.64093,-0.332306,0.617706,-111.4,60.9083,-36.6,-7796,-28807
2400,41232,9.79521,-0.110059,-0.416309,-165.377,-87.4731,-68.8074,0,0,0,0.311584,0.64093,-0.332306,0.617706,-111.35,60.9,-36.5667,-7796,-28807
2406,41238,9.81914,-0.114844,-0.430664,-165.377,-87.4731,-68.8074,0,0,0,0.311584,0.64093,-0.332306,0.617706,-111.333,60.8917,-36.5417,-7796,-28807
2412,41244,9.81436,-0.105273,-0.382813,-165.377,-87.4731,-68.8074,0,0,0,0.311584,0.64093,-0.332306,0.617706,-111.325,60.9,-36.4833,-7788,-28808
2418,41250,9.80479,-0.0957031,-0.430664,-165.377,-87.4731,-68.8074,0,0,0,0.311615,0.64093,-0.332306,0.617706,-111.35,60.9,-36.4667,-7788,-28808
2424,41256,9.79043,-0.0957031,-0.421094,-165.383,-87.4731,-68.8074,0,0,0,0.311615,0.64093,-0.332336,0.617706,-111.392,60.9,-36.4333,-7788,-28808
2430,41262,9.81914,-0.100488,-0.440234,-165.383,-87.4731,-68.8074,0,0,0,0.311615,0.64093,-0.332336,0.617706,-111.467,60.925,-36.4167,-7788,-28808
2436,41268,9.82871,-0.105273,-0.416309,-165.383,-87.4731,-68.8074,0,0,0,0.311615,0.64093,-0.332336,0.617676,-111.483,60.9417,-36.4583,-7788,-28808
2442,41274,9.78564,-0.105273,-0.416309,-165.383,-87.4731,-68.8074,0,0,0,0.311615,0.64093,-0.332336,0.617676,-111.475,60.9417,-36.5083,-7788,-28808
2448,41280,9.79521,-0.119629,-0.421094,-165.383,-87.4731,-68.8074,0,0,0,0.311615,0.64093,-0.332336,0.617676,-111.442,60.9333,-36.55,-7788,-28808
2454,41286,9.78564,-0.119629,-0.416309,-165.383,-87.4731,-68.8074,0,0,0,0.311615,0.64093,-0.332336,0.617676,-111.408,60.9083,-36.5833,-7788,-28808
2460,41292,9.78086,-0.0813477,-0.421094,-165.383,-87.4731,-68.8074,0,0,0,0.311615,0.64093,-0.332336,0.617676,-111.35,60.8833,-36.6667,-7788,-28808
2466,41298,9.80479,-0.090918,-0.401953,-165.388,-87.4731,-68.8074,0,0,0,0.311646,0.64093,-0.332367,0.617676,-111.317,60.8667,-36.65,-7788,-28808
2472,41304,9.81436,-0.119629,-0.425879,-165.388,-87.4731,-68.8074,0,0,0,0.311646,0.64093,-0.332367,0.617676,-111.292,60.8667,-36.6583,-7788,-28808
2478,41310,9.79521,-0.0861328,-0.411523,-165.388,-87.4731,-68.8074,0,0,0,0.311646,0.64093,-0.332367,0.617676,-111.267,60.8833,-36.6333,-7788,-28808
2484,41316,9.79043,-0.119629,-0.416309,-165.388,-87.4731,-68.8074,0,0,0,0.311646,0.6409,-0.332367,0.617676,-111.258,60.9,-36.5917,-7788,-28808
2490,41322,9.81436,-0.129199,-0.392383,-165.388,-87.4731,-68.8074,0,0,0,0.311646,0.6409,-0.332367,0.617676,-111.283,60.8917,-36.55,-7788,-28808
2496,41328,9.81914,-0.090918,-0.411523,-165.388,-87.4731,-68.8074,0,0,0,0.311676,0.6409,-0.332367,0.617676,-111.283,60.8833,-36.5083,-7788,-28808
2502,41334,9.82393,-0.110059,-0.401953,-165.394,-87.4731,-68.8074,0,0,0,0.311676,0.6409,-0.332367,0.617676,-111.283,60.8833,-36.5,-7788,-28808
2508,41340,9.80957,-0.105273,-0.425879,-165.394,-87.4731,-68.8074,0,0,0,0.311676,0.6409,-0.332397,0.617645,-111.25,60.8833,-36.4917,-7788,-28808
2514,41346,9.77607,-0.119629,-0.397168,-165.394,-87.4731,-68.8074,0,0,0,0.311676,0.6409,-0.332397,0.617645,-111.225,60.875,-36.4667,-7788,-28808
2520,41352,9.79521,-0.105273,-0.416309,-165.394,-87.4731,-68.8019,0,0,0,0.311676,0.6409,-0.332367,0.617676,-111.2,60.8417,-36.475,-7788,-28808
2526,41358,9.82393,-0.105273,-0.401953,-165.394,-87.4731,-68.8074,0,0,0,0.311676,0.6409,-0.332367,0.617676,-111.208,60.8083,-36.4667,-7796,-28807
2532,41364,9.79521,-0.100488,-0.382813,-165.388,-87.4731,-68.8074,0,0,0,0.311676,0.6409,-0.332367,0.617676,-111.225,60.7667,-36.45,-7796,-28807
2538,41370,9.81914,-0.124414,-0.425879,-165.388,-87.4731,-68.8074,0,0,0,0.311646,0.6409,-0.332367,0.617676,-111.225,60.7333,-36.425,-7796,-28807
2544,41376,9.77129,-0.129199,-0.44502,-165.388,-87.4731,-68.8074,0,0,0,0.311646,0.6409,-0.332367,0.617676,-111.225,60.725,-36.4333,-7796,-28807
2550,41382,9.8,-0.114844,-0.435449,-165.388,-87.4731,-68.8074,0,0,0,0.311646,0.6409,-0.332367,0.617676,-111.217,60.7417,-36.375,-7796,-28807
2556,41388,9.78564,-0.100488,-0.421094,-165.388,-87.4731,-68.8019,0,0,0,0.311646,0.64093,-0.332367,0.617676,-111.217,60.7583,-36.35,-7796,-28807
2562,41394,9.82393,-0.0957031,-0.416309,-165.388,-87.4731,-68.8074,0,0,0,0.311646,0.64093,-0.332367,0.617676,-111.225,60.7833,-36.3,-7796,-28807
2568,41400,9.80957,-0.100488,-0.430664,-165.388,-87.4731,-68.8074,0,0,0,0.311646,0.64093,-0.332367,0.617676,-111.242,60.8083,-36.2417,-7796,-28807
2574,41406,9.80479,-0.114844,-0.392383,-165.388,-87.4731,-68.8019,0,0,0,0.311646,0.6409,-0.332367,0.617676,-111.283,60.825,-36.1833,-7796,-28807
2580,41412,9.79521,-0.124414,-0.440234,-165.388,-87.4731,-68.8019,0,0,0,0.311646,0.6409,-0.332367,0.617676,-111.358,60.8583,-36.1667,-7796,-28807
2586,41418,9.8,-0.090918,-0.411523,-165.388,-87.4731,-68.8019,0,0,0,0.311646,0.6409,-0.332367,0.617676,-111.4,60.8667,-36.1917,-7796,-28807
2592,41424,9.81914,-0.090918,-0.397168,-165.388,-87.4731,-68.8019,0,0,0,0.311646,0.6409,-0.332367,0.617676,-111.4,60.8833,-36.2667,-7796,-28807
2598,41430,9.81914,-0.110059,-0.425879,-165.388,-87.4731,-68.8019,0,0,0,0.311646,0.6409,-0.332367,0.617676,-111.4,60.8833,-36.3417,-7796,-28807
2604,41436,9.80957,-0.124414,-0.425879,-165.388,-87.4731,-68.8019,0,0,0,0.311646,0.6409,-0.332367,0.617676,-111.4,60.875,-36.3833,-7796,-28807
2610,41442,9.79043,-0.110059,-0.425879,-165.394,-87.4731,-68.8019,0,0,0,0.311676,0.6409,-0.332367,0.617676,-111.433,60.8417,-36.4083,-7796,-28807
2616,41448,9.80957,-0.100488,-0.416309,-165.394,-87.4731,-68.8019,0,0,0,0.311676,0.6409,-0.332367,0.617676,-111.442,60.8167,-36.375,-7796,-28807
2622,41454,9.80479,-0.114844,-0.401953,-165.394,-87.4731,-68.8019,0,0,0,0.311676,0.6409,-0.332367,0.617676,-111.458,60.8083,-36.35,-7796,-28807
2628,41460,9.83828,-0.114844,-0.435449,-165.394,-87.4731,-68.8019,0,0,0,0.311676,0.6409,-0.332397,0.617676,-111.458,60.8,-36.3167,-7796,-28807
2634,41466,9.80957,-0.114844,-0.416309,-165.394,-87.4731,-68.8019,0,0,0,0.311676,0.6409,-0.332397,0.617676,-111.458,60.8083,-36.275,-7796,-28807
2640,41472,9.80957,-0.105273,-0.411523,-165.394,-87.4731,-68.8019,0,0,0,0.311676,0.6409,-0.332397,0.617676,-111.45,60.85,-36.275,-7796,-28807
2646,41478,9.8,-0.0957031,-0.416309,-165.394,-87.4731,-68.8019,0,0,0,0.311676,0.6409,-0.332397,0.617676,-111.467,60.875,-36.275,-7796,-28807
2652,41484,9.80479,-0.0813477,-0.416309,-165.394,-87.4731,-68.8019,0,0,0,0.311676,0.6409,-0.332397,0.617645,-111.475,60.8833,-36.2917,-7796,-28807
2658,41490,9.78086,-0.0861328,-0.392383,-165.394,-87.4731,-68.8019,0,0,0,0.311676,0.6409,-0.332397,0.617645,-111.5,60.8917,-36.2833,-7796,-28807
2664,41496,9.79043,-0.090918,-0.421094,-165.394,-87.4731,-68.8019,0,0,0,0.311676,0.6409,-0.332397,0.617645,-111.5,60.9083,-36.3,-7796,-28807
2670,41502,9.80957,-0.124414,-0.397168,-165.399,-87.4731,-68.8019,0,0,0,0.311707,0.6409,-0.332397,0.617645,-111.475,60.9333,-36.3583,-7796,-28807
2676,41508,9.78564,-0.105273,-0.430664,-165.399,-87.4731,-68.8019,0,0,0,0.311707,0.6409,-0.332428,0.617645,-111.45,60.9167,-36.4333,-7796,-28807
2682,41514,9.80479,-0.114844,-0.425879,-165.399,-87.4731,-68.8019,0,0,0,0.311707,0.640869,-0.332428,0.617645,-111.442,60.8917,-36.4667,-7796,-28807
2688,41520,9.81914,-0.114844,-0.416309,-165.399,-87.4731,-68.8019,0,0,0,0.311707,0.640869,-0.332428,0.617645,-111.442,60.8833,-36.5167,-7796,-28807
2694,41526,9.80957,-0.0861328,-0.425879,-165.399,-87.4731,-68.8019,0,0,0,0.311707,0.640869,-0.332428,0.617645,-111.442,60.875,-36.5583,-7796,-28807
2700,41532,9.82393,-0.119629,-0.416309,-165.405,-87.4731,-68.8019,0,0,0,0.311737,0.640869,-0.332428,0.617645,-111.45,60.875,-36.5833,-7796,-28807
2706,41538,9.80957,-0.0861328,-0.397168,-165.405,-87.4731,-68.8019,0,0,0,0.311737,0.640869,-0.332458,0.617645,-111.45,60.8833,-36.6167,-7796,-28807
2712,41544,9.80957,-0.110059,-0.425879,-165.405,-87.4731,-68.8019,0,0,0,0.311737,0.640869,-0.332458,0.617615,-111.442,60.8833,-36.625,-7796,-28807
2718,41550,9.80479,-0.114844,-0.411523,-165.405,-87.4731,-68.8019,0,0,0,0.311737,0.640869,-0.332458,0.617615,-111.425,60.8833,-36.6333,-7796,-28807
2724,41556,9.81436,-0.110059,-0.416309,-165.405,-87.4731,-68.8019,0,0,0,0.311737,0.640869,-0.332458,0.617615,-111.417,60.8667,-36.625,-7796,-28807
2730,41562,9.81436,-0.105273,-0.406738,-165.405,-87.4731,-68.8019,0,0,0,0.311768,0.640869,-0.332458,0.617615,-111.417,60.825,-36.575,-7796,-28807
2736,41568,9.81914,-0.0813477,-0.468945,-165.41,-87.4731,-68.8019,0,0,0,0.311768,0.640869,-0.332458,0.617615,-111.417,60.8083,-36.5417,-7796,-28807
2742,41574,9.82871,-0.105273,-0.411523,-165.41,-87.4731,-68.8019,0,0,0,0.311768,0.640869,-0.332489,0.617615,-111.425,60.8,-36.5083,-7796,-28807
2748,41580,9.81914,-0.114844,-0.435449,-165.41,-87.4731,-68.8019,0,0,0,0.311768,0.640839,-0.332489,0.617615,-111.442,60.8167,-36.4667,-7796,-28807
2754,41586,9.81914,-0.105273,-0.406738,-165.41,-87.4731,-68.8019,0,0,0,0.311768,0.640839,-0.332489,0.617615,-111.442,60.8167,-36.4417,-7796,-28807
2760,41592,9.81436,-0.0861328,-0.411523,-165.416,-87.4731,-68.8019,0,0,0,0.311798,0.640839,-0.332489,0.617615,-111.425,60.8167,-36.4083,-7788,-28808
2766,41598,9.79521,-0.090918,-0.397168,-165.416,-87.4731,-68.8074,0,0,0,0.311798,0.640839,-0.33252,0.617584,-111.433,60.8167,-36.4083,-7788,-28808
2772,41604,9.79521,-0.110059,-0.416309,-165.416,-87.4731,-68.8019,0,0,0,0.311798,0.640839,-0.33252,0.617584,-111.45,60.825,-36.4083,-7788,-28808
2778,41610,9.80957,-0.0957031,-0.416309,-165.421,-87.4731,-68.8019,0,0,0,0.311829,0.640839,-0.33252,0.617584,-111.492,60.8083,-36.3917,-7788,-28808
2784,41616,9.8335,-0.0957031,-0.416309,-165.421,-87.4731,-68.8019,0,0,0,0.311829,0.640839,-0.33252,0.617584,-111.525,60.8083,-36.4083,-7788,-28808
2790,41622,9.82393,-0.100488,-0.411523,-165.421,-87.4731,-68.8019,0,0,0,0.311859,0.640808,-0.33255,0.617584,-111.55,60.8333,-36.45,-7788,-28808
2796,41628,9.80957,-0.110059,-0.435449,-165.427,-87.4731,-68.8019,0,0,0,0.311859,0.640808,-0.33255,0.617584,-111.533,60.85,-36.4917,-7788,-28808
2802,41634,9.79521,-0.110059,-0.406738,-165.427,-87.4731,-68.8019,0,0,0,0.311859,0.640808,-0.33255,0.617554,-111.533,60.8583,-36.4917,-7788,-28808
2808,41640,9.79043,-0.114844,-0.406738,-165.427,-87.4731,-68.8074,0,0,0,0.311859,0.640808,-0.332581,0.617554,-111.517,60.85,-36.45,-7788,-28808
2814,41646,9.80957,-0.100488,-0.421094,-165.427,-87.4731,-68.8019,0,0,0,0.311859,0.640808,-0.332581,0.617554,-111.492,60.8417,-36.4083,-7788,-28808
2820,41652,9.80957,-0.0861328,-0.401953,-165.432,-87.4731,-68.8019,0,0,0,0.31189,0.640808,-0.332581,0.617554,-111.45,60.8083,-36.375,-7788,-28808
2826,41658,9.80479,-0.114844,-0.411523,-165.432,-87.4731,-68.8019,0,0,0,0.31189,0.640808,-0.332581,0.617554,-111.425,60.8,-36.4,-7788,-28808
2832,41664,9.81436,-0.0861328,-0.421094,-165.432,-87.4731,-68.8019,0,0,0,0.31189,0.640778,-0.332611,0.617554,-111.383,60.7833,-36.45,-7788,-28808
2838,41670,9.8,-0.129199,-0.416309,-165.432,-87.4731,-68.8019,0,0,0,0.31192,0.640778,-0.332611,0.617554,-111.367,60.7917,-36.525,-7788,-28808
2844,41676,9.83828,-0.129199,-0.406738,-165.438,-87.4731,-68.8019,0,0,0,0.31192,0.640778,-0.332611,0.617554,-111.358,60.8,-36.6,-7788,-28808
2850,41682,9.81436,-0.100488,-0.397168,-165.438,-87.4731,-68.8019,0,0,0,0.31192,0.640778,-0.332611,0.617554,-111.358,60.825,-36.675,-7788,-28808
2856,41688,9.79521,-0.114844,-0.44502,-165.438,-87.4731,-68.8019,0,0,0,0.31192,0.640778,-0.332611,0.617523,-111.375,60.8167,-36.7083,-7788,-28808
2862,41694,9.77607,-0.100488,-0.416309,-165.438,-87.4731,-68.8019,0,0,0,0.31192,0.640778,-0.332611,0.617523,-111.375,60.8083,-36.7417,-7788,-28808
2868,41700,9.81914,-0.114844,-0.421094,-165.438,-87.4731,-68.8019,0,0,0,0.31192,0.640778,-0.332611,0.617523,-111.358,60.8083,-36.725,-7788,-28808
2874,41706,9.80479,-0.110059,-0.430664,-165.438,-87.4731,-68.8019,0,0,0,0.31192,0.640778,-0.332611,0.617523,-111.35,60.8083,-36.7333,-7788,-28808
2880,41712,9.82393,-0.100488,-0.416309,-165.438,-87.4731,-68.8019,0,0,0,0.31192,0.640778,-0.332611,0.617523,-111.333,60.8333,-36.6833,-7788,-28808
2886,41718,9.79521,-0.0765625,-0.387598,-165.438,-87.4731,-68.8019,0,0,0,0.31192,0.640778,-0.332642,0.617523,-111.325,60.8333,-36.675,-7788,-28808
2892,41724,9.79043,-0.100488,-0.363672,-165.438,-87.4731,-68.8019,0,0,0,0.311951,0.640778,-0.332642,0.617523,-111.333,60.825,-36.675,-7788,-28808
2898,41730,9.79521,-0.100488,-0.401953,-165.438,-87.4731,-68.8019,0,0,0,0.311951,0.640778,-0.332642,0.617523,-111.333,60.8167,-36.6667,-7788,-28808
2904,41736,9.81436,-0.100488,-0.416309,-165.443,-87.4786,-68.8019,0,0,0,0.311951,0.640778,-0.332642,0.617523,-111.342,60.8167,-36.675,-7788,-28808
2910,41742,9.82393,-0.100488,-0.416309,-165.443,-87.4786,-68.8019,0,0,0,0.311951,0.640778,-0.332642,0.617523,-111.392,60.825,-36.6,-7788,-28808
2916,41748,9.81436,-0.0861328,-0.397168,-165.443,-87.4786,-68.8074,0,0,0,0.311951,0.640747,-0.332642,0.617523,-111.417,60.825,-36.5417,-7788,-28808
2922,41754,9.80479,-0.110059,-0.397168,-165.443,-87.4786,-68.8019,0,0,0,0.311951,0.640747,-0.332642,0.617523,-111.433,60.8083,-36.5,-7788,-28808
2928,41760,9.79521,-0.119629,-0.440234,-165.443,-87.4786,-68.8019,0,0,0,0.311981,0.640747,-0.332642,0.617523,-111.442,60.8,-36.4583,-7788,-28808
2934,41766,9.79043,-0.105273,-0.411523,-165.443,-87.4786,-68.8019,0,0,0,0.311981,0.640747,-0.332672,0.617523,-111.433,60.8333,-36.4917,-7788,-28808
2940,41772,9.81914,-0.0861328,-0.406738,-165.443,-87.4786,-68.8019,0,0,0,0.311981,0.640747,-0.332672,0.617523,-111.4,60.8333,-36.4917,-7788,-28808
2946,41778,9.81436,-0.100488,-0.421094,-165.449,-87.4786,-68.8019,0,0,0,0.311981,0.640747,-0.332672,0.617523,-111.383,60.8333,-36.5,-7788,-28808
2952,41784,9.82871,-0.13877,-0.397168,-165.449,-87.4786,-68.8019,0,0,0,0.311981,0.640747,-0.332672,0.617523,-111.367,60.8083,-36.475,-7788,-28808
2958,41790,9.80957,-0.114844,-0.435449,-165.449,-87.4786,-68.8019,0,0,0,0.311981,0.640747,-0.332672,0.617523,-111.358,60.7917,-36.475,-7788,-28808
2964,41796,9.79043,-0.0957031,-0.416309,-165.449,-87.4786,-68.8019,0,0,0,0.311981,0.640747,-0.332672,0.617523,-111.342,60.75,-36.45,-7788,-28808
2970,41802,9.80479,-0.100488,-0.440234,-165.449,-87.4786,-68.8019,0,0,0,0.311981,0.640747,-0.332672,0.617523,-111.35,60.7333,-36.4333,-7788,-28808
2976,41808,9.81436,-0.119629,-0.421094,-165.449,-87.4786,-68.8019,0,0,0,0.311981,0.640747,-0.332672,0.617523,-111.367,60.7083,-36.4417,-7788,-28808
2982,41814,9.81914,-0.0813477,-0.425879,-165.449,-87.4786,-68.8074,0,0,0,0.311981,0.640747,-0.332672,0.617523,-111.383,60.7083,-36.4333,-7788,-28808
2988,41820,9.80479,-0.0957031,-0.430664,-165.449,-87.4786,-68.8074,0,0,0,0.312012,0.640747,-0.332672,0.617493,-111.408,60.7083,-36.425,-7788,-28808
2994,41826,9.77607,-0.090918,-0.440234,-165.454,-87.4786,-68.8074,0,0,0,0.312012,0.640747,-0.332672,0.617493,-111.458,60.7083,-36.4,-7788,-28808
3000,41832,9.80479,-0.100488,-0.425879,-165.454,-87.4786,-68.8074,0,0,0,0.312012,0.640717,-0.332703,0.617493,-111.483,60.7,-36.375,-7788,-28808
3006,41838,9.79043,-0.0861328,-0.387598,-165.454,-87.4786,-68.8019,0,0,0,0.312042,0.640717,-0.332703,0.617493,-111.508,60.675,-36.3583,-7788,-28808
3012,41844,9.80957,-0.124414,-0.430664,-165.454,-87.4786,-68.8074,0,0,0,0.312042,0.640717,-0.332703,0.617493,-111.525,60.625,-36.3667,-7788,-28808
3018,41850,9.81436,-0.110059,-0.387598,-165.454,-87.4786,-68.8074,0,0,0,0.312042,0.640717,-0.332733,0.617493,-111.533,60.6,-36.3917,-7788,-28808
3024,41856,9.79521,-0.100488,-0.392383,-165.46,-87.4786,-68.8019,0,0,0,0.312042,0.640717,-0.332733,0.617493,-111.517,60.5917,-36.4333,-7788,-28808
3030,41862,9.80479,-0.100488,-0.411523,-165.46,-87.4786,-68.8019,0,0,0,0.312042,0.640717,-0.332733,0.617493,-111.517,60.6,-36.4583,-7788,-28808
3036,41868,9.81914,-0.0861328,-0.397168,-165.46,-87.4786,-68.8074,0,0,0,0.312073,0.640717,-0.332733,0.617493,-111.5,60.6083,-36.4583,-7788,-28808
3042,41874,9.80479,-0.119629,-0.411523,-165.46,-87.4786,-68.8019,0,0,0,0.312073,0.640717,-0.332733,0.617493,-111.475,60.6167,-36.475,-7788,-28808
3048,41880,9.81914,-0.100488,-0.401953,-165.46,-87.4786,-68.8074,0,0,0,0.312073,0.640717,-0.332733,0.617462,-111.442,60.6333,-36.475,-7788,-28808
3054,41886,9.78564,-0.0861328,-0.421094,-165.465,-87.4786,-68.8074,0,0,0,0.312073,0.640717,-0.332733,0.617462,-111.375,60.675,-36.4667,-7788,-28808
3060,41892,9.79521,-0.0957031,-0.416309,-165.465,-87.4786,-68.8074,0,0,0,0.312073,0.640686,-0.332764,0.617462,-111.35,60.6917,-36.4333,-7788,-28808
3066,41898,9.80479,-0.110059,-0.406738,-165.465,-87.4786,-68.8019,0,0,0,0.312103,0.640686,-0.332764,0.617462,-111.317,60.7167,-36.4333,-7788,-28808
3072,41904,5.33545,9.16836,-3.9334,-172.134,-87.5061,-62.3694,-22.583,-4.94385,-56.0913,0.31485,0.641022,-0.33255,0.615845,-111.3,60.725,-36.4,-7788,-28808
3078,41910,11.3217,-2.48828,7.96729,-173.051,-87.4292,-61.7706,-26.1841,-15.3809,-3.72314,0.316498,0.640594,-0.334381,0.614441,-111.275,60.7417,-36.3417,-7788,-28808
3084,41916,10.8862,0.985742,-8.76641,-171.359,-87.171,-63.7701,5.06592,5.61523,31.1279,0.316925,0.641602,-0.335968,0.612305,-111.25,60.7583,-36.25,-7788,-28808
3090,41922,12.9965,-3.65586,-0.44502,-169.755,-87.4567,-65.473,1.28174,60.3027,6.04248,0.318054,0.638733,-0.337311,0.613983,-111.267,60.75,-36.1917,-7788,-28808
3096,41928,8.61807,0.631641,5.89053,-172.178,-87.4951,-63.2098,-2.62451,4.63867,-21.1182,0.31958,0.638458,-0.337494,0.613342,-111.292,60.75,-36.1583,-7788,-28808
3102,41934,8.61807,1.53604,-1.20107,-172.145,-87.3248,-63.3856,2.68555,-33.3252,6.04248,0.319733,0.638855,-0.338928,0.612061,-111.325,60.725,-36.1167,-7788,-28808
3108,41940,10.6135,-1.1915,-4.17266,-171.645,-87.3578,-63.9844,3.11279,7.69043,4.3335,0.320251,0.638336,-0.339478,0.61203,-111.342,60.7,-36.0833,-7788,-28808
3114,41946,9.94834,0.0574219,0.75127,-169.761,-87.4786,-66.1157,0.671387,5.43213,13.1836,0.321198,0.63739,-0.339844,0.612335,-111.375,60.6833,-36.05,-7788,-28808
3120,41952,10.8527,-1.02402,-0.440234,-169.42,-87.4896,-66.5771,-1.15967,3.54004,3.2959,0.322235,0.63623,-0.341492,0.612061,-111.367,60.6667,-36.0333,-7788,-28808
3126,41958,10.068,0.186621,-1.12451,-169.14,-87.5391,-66.9672,-0.549316,10.5591,1.34277,0.322937,0.635651,-0.34198,0.612061,-111.35,60.675,-36.05,-7788,-28808
3132,41964,9.47939,-0.191406,0.124414,-168.525,-87.5885,-67.6923,-1.95313,10.6201,4.08936,0.323608,0.634979,-0.34256,0.612061,-111.342,60.6917,-36.0833,-7788,-28808
3138,41970,9.21621,-0.497656,1.2585,-169.08,-87.5281,-67.2253,3.35693,-13.0005,-1.64795,0.323944,0.635101,-0.34314,0.61142,-111.325,60.7167,-36.0917,-7788,-28808
3144,41976,10.9484,-1.65566,-1.31113,-168.19,-87.4622,-68.2745,3.23486,5.98145,6.40869,0.324066,0.635193,-0.344025,0.610748,-111.358,60.75,-36.025,-7788,-28808
3150,41982,9.84307,0.0334961,0.593359,-169.42,-87.5061,-67.1155,-0.366211,6.5918,-11.8408,0.325165,0.634552,-0.344452,0.610596,-111.375,60.7583,-35.95,-7788,-28808
3156,41988,9.14922,1.03838,0.880469,-168.651,-87.4731,-67.9834,1.46484,-4.94385,8.48389,0.325378,0.634277,-0.345276,0.610321,-111.408,60.7583,-35.8833,-7788,-28808
3162,41994,10.781,-1.75137,-0.76084,-168.992,-87.4347,-67.7032,-0.183105,-8.30078,-1.09863,0.325623,0.634338,-0.345703,0.609894,-111.417,60.7667,-35.825,-7788,-28808
3168,42000,9.09658,1.08623,-1.39727,-169.338,-87.4731,-67.4396,-0.854492,7.38525,-3.96729,0.326324,0.633972,-0.345917,0.609772,-111.408,60.775,-35.7667,-7788,-28808
3174,42006,9.5751,-0.0957031,0.0191406,-169.508,-87.4512,-67.4121,-0.854492,-10.8643,-4.15039,0.32666,0.633514,-0.346344,0.609802,-111.367,60.7917,-35.7917,-7788,-28808
3180,42012,9.82393,0.325391,-1.77051,-169.085,-87.4512,-67.9065,0.0610352,0.305176,4.21143,0.327301,0.633392,-0.34726,0.6091,-111.358,60.8,-35.8167,-7788,-28808
3186,42018,10.3455,-0.808691,-0.224902,-169.338,-87.4896,-67.7087,-0.915527,8.11768,-3.479,0.32782,0.633057,-0.347351,0.6091,-111.367,60.8167,-35.9083,-7788,-28808
3192,42024,9.12051,1.05752,0.502441,-169.448,-87.4841,-67.6758,-0.366211,-1.64795,-0.183105,0.328217,0.632874,-0.347778,0.608826,-111.375,60.825,-36.0083,-7788,-28808
3198,42030,9.81914,-0.291895,-1.37334,-169.085,-87.4512,-68.1042,0.183105,-6.16455,4.82178,0.328339,0.632782,-0.348328,0.608551,-111.375,60.8167,-36.05,-7788,-28808
3204,42036,9.50332,0.29668,0.0669922,-169.211,-87.5006,-68.0933,0,6.53076,1.34277,0.328796,0.632599,-0.348511,0.608398,-111.367,60.7917,-36.0417,-7788,-28808
3210,42042,9.95313,-0.344531,0.30625,-169.404,-87.4677,-67.9559,-0.244141,-6.53076,-0.183105,0.329407,0.632233,-0.349152,0.608093,-111.35,60.7917,-36.0167,-7788,-28808
3216,42048,9.9627,0.162695,-1.40205,-169.398,-87.4512,-68.0164,0,-3.11279,0.915527,0.32962,0.632141,-0.349518,0.607849,-111.333,60.7833,-36.025,-7788,-28808
3222,42054,10.2067,-0.502441,-0.679492,-169.343,-87.4896,-68.1207,-0.12207,7.01904,-0.549316,0.330017,0.631805,-0.34964,0.60788,-111.325,60.7917,-36.0667,-7788,-28808
3228,42060,9.73779,-0.0574219,-0.488086,-169.574,-87.4896,-67.934,-0.0610352,0.0610352,-1.83105,0.330322,0.631683,-0.349854,0.607727,-111.292,60.7917,-36.1167,-7788,-28808
3234,42066,9.99619,-0.512012,-1.14365,-169.563,-87.4677,-68.0383,-0.0610352,1.0376,-1.64795,0.330688,0.631531,-0.350433,0.60733,-111.283,60.775,-36.1583,-7788,-28808
3240,42072,9.54639,0.253613,-0.191406,-169.601,-87.4896,-68.0438,0,5.24902,-1.09863,0.331024,0.631287,-0.350586,0.60733,-111.317,60.7667,-36.1333,-7788,-28808
3246,42078,9.75693,-0.0813477,0.267969,-169.596,-87.4731,-68.0878,0.0610352,-3.66211,0.915527,0.331177,0.631256,-0.350891,0.607147,-111.342,60.7583,-36.1417,-7788,-28808
3252,42084,9.93398,-0.0574219,-1.01445,-169.678,-87.4512,-68.0493,0.0610352,-4.3335,0.244141,0.331329,0.631226,-0.351166,0.606903,-111.375,60.7417,-36.1583,-7788,-28808
3258,42090,9.56553,0.00478516,0.220117,-169.612,-87.4786,-68.1482,-0.0610352,5.00488,-0.183105,0.331635,0.630981,-0.351318,0.606903,-111.408,60.7417,-36.175,-7788,-28808
3264,42096,9.72344,-0.0239258,-0.478516,-169.596,-87.4622,-68.2471,0,-4.69971,2.13623,0.33197,0.630829,-0.351807,0.606598,-111.45,60.7333,-36.2167,-7788,-28808
3270,42102,10.001,-0.401953,-1.02881,-169.623,-87.4677,-68.2526,0.0610352,0.915527,-0.305176,0.332184,0.630707,-0.351959,0.606537,-111.483,60.7417,-36.2333,-7788,-28808
3276,42108,9.72822,0.090918,-0.239258,-169.678,-87.4896,-68.2361,-0.12207,4.15039,-1.09863,0.332458,0.630493,-0.352051,0.606537,-111.492,60.75,-36.2583,-7788,-28808
3282,42114,9.78564,-0.0430664,0.13877,-169.612,-87.4731,-68.3295,0.183105,-2.62451,1.15967,0.33255,0.630463,-0.352295,0.606384,-111.5,60.7667,-36.2833,-7788,-28808
3288,42120,9.9292,-0.220117,-0.732129,-169.629,-87.4567,-68.3459,0.183105,-3.11279,0.549316,0.332672,0.630432,-0.352539,0.606201,-111.508,60.7583,-36.3083,-7788,-28808
3294,42126,9.63731,-0.0430664,0.143555,-169.667,-87.4841,-68.3624,-0.12207,1.28174,-0.732422,0.333069,0.630127,-0.352753,0.606171,-111.508,60.7583,-36.3083,-7788,-28808
3300,42132,9.71865,0,-0.291895,-169.645,-87.4622,-68.4119,0.12207,-4.15039,1.0376,0.33313,0.630157,-0.352966,0.605988,-111.533,60.7667,-36.3417,-7788,-28808
3306,42138,9.97705,-0.301465,-0.856543,-169.662,-87.4622,-68.4283,-0.0610352,0,-0.0610352,0.333282,0.630066,-0.353119,0.605896,-111.55,60.7833,-36.3667,-7788,-28808
3312,42144,9.80957,0.0191406,-0.334961,-169.733,-87.4841,-68.3789,-0.0610352,3.54004,-1.2207,0.333496,0.629913,-0.35318,0.605927,-111.575,60.8,-36.4167,-7788,-28808
3318,42150,-1.0623,7.39785,-4.31621,-169.706,-87.4731,-68.4338,-7.99561,1.40381,9.15527,0.333588,0.629883,-0.353363,0.605804,-111.592,60.8083,-36.425,-7788,-28808
3324,42156,14.0349,-1.87578,1.86621,-169.124,-87.5226,-69.2743,5.37109,11.3525,-3.96729,0.335083,0.628723,-0.354706,0.605377,-111.583,60.8,-36.45,-7788,-28808
3330,42162,26.2705,-21.404,3.79463,178.781,-87.3193,-56.9806,2.62451,-49.4385,-107.788,0.33606,0.632263,-0.351532,0.603027,-111.55,60.8083,-36.45,-7788,-28808
3336,42168,7.05332,10.9628,-2.64619,170.178,-87.1326,-48.5266,-51.3306,-28.6255,-85.2051,0.338715,0.63385,-0.350403,0.600494,-111.542,60.775,-36.4583,-7788,-28808
3342,42174,9.75215,4.10088,-0.45459,170.53,-87.1216,-48.8342,5.37109,-3.54004,2.2583,0.338348,0.634033,-0.350281,0.600586,-111.567,60.7417,-36.4333,-7788,-28808
3348,42180,11.5466,-3.24434,2.65098,174.65,-87.3743,-52.9816,9.58252,37.7197,38.7573,0.337952,0.63208,-0.351013,0.602448,-111.583,60.7,-36.4083,-7788,-28808
3354,42186,11.3552,-1.47383,0.660352,177.973,-87.5116,-56.1676,4.88281,-12.5732,-9.15527,0.336761,0.631348,-0.350708,0.604034,-111.625,60.6167,-36.3583,-7788,-28808
3360,42192,8.71855,1.85186,-3.86162,178.863,-87.55,-57.052,2.68555,7.8125,7.44629,0.336639,0.631042,-0.3508,0.60437,-111.633,60.6,-36.3417,-7788,-28808
3366,42198,9.34541,-0.062207,0.244043,-179.094,-87.6654,-59.0955,1.70898,22.583,16.7236,0.336578,0.630157,-0.350983,0.605225,-111.642,60.5833,-36.3167,-7788,-28808
3372,42204,9.68037,-0.320605,2.56484,-176.765,-87.6324,-61.4301,0.366211,-6.40869,19.104,0.335968,0.630035,-0.351593,0.605347,-111.642,60.6,-36.3,-7788,-28808
3378,42210,10.6613,-0.837402,-2.1916,-174.43,-87.4951,-63.7537,0.976563,-14.5264,17.0898,0.334961,0.630371,-0.352509,0.60498,-111.642,60.6083,-36.2917,-7788,-28808
3384,42216,10.0058,-1.01445,-1.20107,-172.046,-87.4567,-66.1377,-1.28174,8.54492,4.15039,0.33429,0.630188,-0.35318,0.605164,-111.667,60.6583,-36.3833,-7788,-28808
3390,42222,9.3167,0.00478516,0.526367,-172.441,-87.4786,-65.7422,-1.28174,3.66211,-4.3335,0.334442,0.630157,-0.352966,0.605255,-111.667,60.6833,-36.4333,-7788,-28808
3396,42228,9.19707,0.430664,0.0239258,-172.15,-87.4402,-66.0278,0.610352,-7.99561,3.35693,0.334198,0.630341,-0.353149,0.605103,-111.675,60.7083,-36.4917,-7788,-28808
3402,42234,10.178,-0.775195,-1.29199,-172.26,-87.4182,-65.9015,0.671387,-5.00488,-0.732422,0.334076,0.630493,-0.353149,0.605011,-111.675,60.7083,-36.5083,-7788,-28808
3408,42240,9.98184,0,0.579004,-172.436,-87.4512,-65.7422,0.671387,2.2583,2.19727,0.33432,0.63031,-0.353058,0.605103,-111.675,60.7,-36.4667,-7788,-28808
3414,42246,9.84307,-0.114844,-0.172266,-172.354,-87.4237,-65.8356,0.244141,-8.54492,-1.09863,0.334229,0.630402,-0.353241,0.60495,-111.7,60.6917,-36.4,-7788,-28808
3420,42252,9.74258,0.196191,-1.55518,-172.172,-87.4292,-66.0388,0,1.09863,1.34277,0.334351,0.63028,-0.353394,0.60495,-111.708,60.6833,-36.3583,-7788,-28808
3426,42258,9.8957,-0.540723,-0.220117,-172.2,-87.4677,-66.0223,-0.244141,7.20215,-1.46484,0.334564,0.630066,-0.353302,0.605103,-111.7,60.7167,-36.375,-7788,-28808
3432,42264,9.14922,0.358887,0.339746,-172.337,-87.4567,-65.9015,0,-2.74658,-1.0376,0.334625,0.630096,-0.353394,0.60498,-111.683,60.7417,-36.4167,-7788,-28808
3438,42270,10.1972,-0.291895,-1.03838,-171.98,-87.4292,-66.275,-0.183105,4.08936,-1.95313,0.334534,0.630096,-0.353668,0.604858,-111.675,60.7667,-36.4333,-7788,-28808
3444,42276,9.66123,0.440234,0.114844,-172.095,-87.4731,-66.2091,-0.183105,4.45557,-0.549316,0.334991,0.629761,-0.35376,0.604919,-111.65,60.7833,-36.475,-7788,-28808
3450,42282,9.74258,-0.124414,0.13877,-171.898,-87.4512,-66.4343,-0.244141,-4.94385,2.38037,0.334991,0.629761,-0.354034,0.604736,-111.65,60.7917,-36.4833,-7788,-28808
3456,42288,9.89092,-0.301465,-1.13887,-171.903,-87.4402,-66.4508,-0.12207,-1.95313,0.12207,0.335114,0.62973,-0.354187,0.604614,-111.625,60.8083,-36.4917,-7788,-28808
3462,42294,9.77129,-0.143555,-0.593359,-171.876,-87.4731,-66.5002,-0.0610352,5.79834,-0.732422,0.335327,0.629517,-0.354218,0.604706,-111.6,60.8,-36.4833,-7788,-28808
3468,42300,9.94834,0,-0.531152,-171.804,-87.4457,-66.6266,0,-5.37109,1.52588,0.335449,0.629456,-0.35434,0.604645,-111.592,60.8083,-36.4583,-7788,-28808
3474,42306,10.135,-0.363672,-1.00488,-171.788,-87.4512,-66.665,0,1.77002,-0.244141,0.335602,0.629364,-0.354706,0.604431,-111.558,60.8,-36.475,-7788,-28808
3480,42312,9.6708,0.0957031,-0.0382813,-171.892,-87.4731,-66.5826,-0.183105,3.2959,-1.52588,0.335846,0.629211,-0.354767,0.604431,-111.55,60.7917,-36.4917,-7796,-28807
3486,42318,9.65645,0.00957031,-0.00478516,-171.771,-87.4512,-66.731,0.0610352,-3.78418,1.52588,0.335876,0.629211,-0.35498,0.604279,-111.567,60.7583,-36.5083,-7796,-28807
3492,42324,9.86221,-0.229688,-0.91875,-171.815,-87.4402,-66.709,0.0610352,-2.44141,-0.183105,0.335968,0.629181,-0.355133,0.604156,-111.558,60.725,-36.5417,-7796,-28807
3498,42330,9.63252,0.0287109,0.14834,-171.843,-87.4677,-66.7365,-0.0610352,0.305176,0,0.336212,0.628998,-0.355194,0.604156,-111.567,60.6917,-36.55,-7796,-28807
3504,42336,9.82393,0.0143555,-0.468945,-171.81,-87.4457,-66.7969,0,-4.08936,0.793457,0.336426,0.628906,-0.355591,0.603912,-111.567,60.6333,-36.5167,-7796,-28807
3510,42342,9.9627,-0.16748,-0.933105,-171.76,-87.4512,-66.8793,0,1.0376,0.244141,0.336578,0.628784,-0.355743,0.603882,-111.567,60.6083,-36.475,-7796,-28807
3516,42348,9.73301,-0.0526367,-0.258398,-171.727,-87.4677,-66.9397,-0.12207,3.60107,-0.305176,0.336823,0.628601,-0.355835,0.603882,-111.575,60.6,-36.4333,-7796,-28807
3522,42354,9.55596,0.00957031,-0.0382813,-171.672,-87.4567,-67.0276,0.12207,-2.0752,0.732422,0.336914,0.62854,-0.356049,0.60376,-111.567,60.5917,-36.3917,-7796,-28807
3528,42360,14.5325,-4.46934,-1.03359,-167.574,-87.3083,-71.0101,2.68555,-4.76074,-45.7764,0.334076,0.627838,-0.358459,0.604645,-111.567,60.6,-36.35,-7796,-28807
3534,42366,6.58916,6.3834,-0.961816,-165.504,-87.3358,-73.1305,2.74658,10.1929,17.5171,0.334747,0.628174,-0.357483,0.604492,-111.525,60.6583,-36.3833,-7796,-28807
3540,42372,13.3171,-6.32598,2.0002,-165.663,-87.3468,-72.8943,1.15967,1.28174,-2.99072,0.334442,0.628418,-0.356995,0.604736,-111.517,60.7,-36.4417,-7796,-28807
3546,42378,6.58916,4.40713,-0.502441,-167.113,-87.3248,-71.4606,-2.01416,-7.87354,-12.085,0.334717,0.628723,-0.356873,0.604309,-111.5,60.7417,-36.4833,-7796,-28807
3552,42384,9.65645,-11.2882,-0.0143555,-168.157,-87.3138,-70.2795,3.479,-4.63867,-11.2305,0.334167,0.629425,-0.355957,0.604431,-111.5,60.7917,-36.5583,-7796,-28807
3558,42390,4.85693,7.17295,0.636426,176.534,-87.1545,-55.2722,-8.23975,-18.1274,9.15527,0.338806,0.631836,-0.353058,0.601013,-111.492,60.8167,-36.6,-7796,-28807
3564,42396,10.3599,-1.97627,-7.32607,-179.522,-87.3633,-59.2383,8.30078,43.1519,38.147,0.338715,0.630035,-0.354919,0.601868,-111.5,60.8,-36.6333,-7796,-28807
3570,42402,10.5656,-1.65566,1.65088,-179.11,-87.6489,-59.6997,0.549316,58.8379,2.56348,0.339783,0.628357,-0.354401,0.603333,-111.508,60.75,-36.6,-7796,-28807
3576,42408,9.02481,-0.0430664,3.38311,179.934,-87.5995,-58.7933,0.427246,-8.97217,-8.05664,0.340088,0.628571,-0.354584,0.602814,-111.525,60.7,-36.5833,-7796,-28807
3582,42414,9.98184,0.45459,-3.22041,179.495,-87.5665,-58.4033,1.34277,-5.85938,-4.02832,0.340302,0.628693,-0.354828,0.602417,-111.525,60.6417,-36.5583,-7796,-28807
3588,42420,7.55576,2.17725,1.68438,-177.435,-87.6544,-61.5894,2.31934,1.89209,22.8271,0.340759,0.628052,-0.354919,0.602783,-111.525,60.5917,-36.5417,-7788,-28808
3594,42426,10.2785,-0.526367,0.875684,-173.458,-87.5006,-65.6433,3.17383,-26.9775,36.0718,0.3396,0.62735,-0.357758,0.602478,-111.558,60.5333,-36.5333,-7788,-28808
3600,42432,11.7667,-1.73223,-2.75146,-171.931,-87.4292,-67.2473,-0.793457,-11.9019,15.3198,0.339386,0.627228,-0.358765,0.602112,-111.567,60.5333,-36.5667,-7788,-28808
3606,42438,10.1158,0.191406,-1.30156,-171.101,-87.4731,-68.1537,-0.12207,11.4136,5.92041,0.339783,0.626648,-0.359192,0.602264,-111.567,60.575,-36.6,-7788,-28808
3612,42444,9.32148,-0.0526367,1.59824,-170.057,-87.4567,-69.2743,0.305176,-1.34277,9.82666,0.339874,0.626312,-0.359863,0.602142,-111.55,60.6167,-36.625,-7788,-28808
3618,42450,9.44111,0.0813477,-2.14854,-170.239,-87.4072,-69.2139,0.12207,5.7373,-0.12207,0.339966,0.626526,-0.360443,0.601563,-111.542,60.6667,-36.6667,-7788,-28808
3624,42456,9.70908,-0.378027,0.531152,-170.31,-87.4512,-69.2029,-0.12207,9.52148,-2.19727,0.340881,0.625793,-0.36084,0.601532,-111.542,60.7417,-36.7083,-7788,-28808
3630,42462,9.50332,0.6125,0.626855,-170.491,-87.4072,-69.0875,-0.0610352,-8.8501,0,0.341095,0.625824,-0.361359,0.601074,-111.542,60.75,-36.7083,-7788,-28808
3636,42468,10.4699,-0.253613,-1.40205,-170.195,-87.3688,-69.4446,0.610352,-5.7373,3.84521,0.341217,0.625732,-0.361877,0.600769,-111.533,60.725,-36.6833,-7788,-28808
3642,42474,10.1541,-0.31582,-1.03838,-170.414,-87.4127,-69.2908,-0.488281,8.42285,-3.35693,0.341736,0.625397,-0.36203,0.600769,-111.542,60.7,-36.675,-7788,-28808
3648,42480,9.60859,-0.416309,-0.0239258,-170.079,-87.3798,-69.7577,0.244141,-8.78906,3.35693,0.342133,0.625092,-0.362366,0.600647,-111.55,60.6333,-36.6417,-7788,-28808
3654,42486,9.86699,-0.368457,-1.64131,-170.217,-87.3743,-69.6698,0,-0.732422,-1.09863,0.342529,0.624939,-0.36322,0.600067,-111.592,60.6333,-36.6417,-7788,-28808
3660,42492,9.85742,-0.0669922,-0.320605,-170.184,-87.4182,-69.7632,0,8.72803,-1.09863,0.342987,0.624573,-0.363373,0.600098,-111.625,60.65,-36.6417,-7788,-28808
3666,42498,9.82871,0.205762,0.650781,-170.321,-87.4017,-69.6863,-0.12207,-2.50244,-0.732422,0.343292,0.624451,-0.363708,0.599823,-111.633,60.6583,-36.6333,-7788,-28808
3672,42504,10.0967,0.0382813,-0.856543,-170.217,-87.3688,-69.8511,0,-6.40869,2.19727,0.343445,0.62442,-0.364197,0.599487,-111.65,60.6583,-36.65,-7788,-28808
3678,42510,9.39326,0.162695,0.215332,-170.316,-87.4127,-69.8676,-0.305176,4.63867,-1.34277,0.343811,0.624146,-0.364441,0.599426,-111.658,60.6667,-36.65,-7788,-28808
3684,42516,9.42676,-0.00478516,0.16748,-170.167,-87.3798,-70.0708,0.244141,-5.67627,2.44141,0.34436,0.62381,-0.365112,0.59903,-111.667,60.6667,-36.6333,-7788,-28808
3690,42522,9.94834,-0.349316,-1.1293,-170.277,-87.3633,-70.0159,0.12207,-3.479,-0.366211,0.344604,0.623749,-0.365448,0.598785,-111.675,60.6667,-36.6083,-7788,-28808
3696,42528,9.90049,0.0143555,-0.555078,-170.359,-87.3907,-69.9829,-0.244141,6.28662,-1.77002,0.345032,0.623444,-0.365601,0.598755,-111.667,60.65,-36.6,-7788,-28808
3702,42534,9.79043,0.119629,0.401953,-170.387,-87.3907,-70.0159,0,-0.427246,-0.0610352,0.345306,0.623291,-0.365906,0.598572,-111.633,60.6167,-36.6083,-7788,-28808
3708,42540,9.95791,-0.311035,-1.16758,-170.321,-87.3688,-70.1862,0,2.44141,0.0610352,0.345459,0.62323,-0.366333,0.598267,-111.617,60.6,-36.7,-7788,-28808
3714,42546,9.57988,-0.062207,-0.0765625,-170.387,-87.3907,-70.1697,-0.12207,4.39453,-1.28174,0.346161,0.622772,-0.36676,0.598083,-111.625,60.6083,-36.7083,-7788,-28808
3720,42552,9.5416,0.0382813,0.119629,-170.338,-87.3743,-70.274,0.183105,-3.72314,1.15967,0.346313,0.622681,-0.367126,0.59787,-111.633,60.6167,-36.7,-7788,-28808
3726,42558,10.0345,-0.258398,-0.913965,-170.343,-87.3578,-70.318,0.305176,-3.2959,0.549316,0.346497,0.62262,-0.367432,0.597626,-111.633,60.6083,-36.6583,-7788,-28808
3732,42564,10.0153,-0.100488,-0.756055,-170.403,-87.3743,-70.3015,-0.0610352,4.3335,-1.28174,0.346863,0.622375,-0.367615,0.597565,-111.625,60.6167,-36.6167,-7788,-28808
3738,42570,9.80479,-0.0717773,-0.287109,-170.359,-87.3578,-70.4443,0,-4.88281,1.15967,0.347137,0.622162,-0.367859,0.597473,-111.625,60.6333,-36.5667,-7788,-28808
3744,42576,9.84785,-0.258398,-1.02402,-170.343,-87.3578,-70.5048,0,0.244141,0.12207,0.347534,0.621979,-0.368469,0.597076,-111.625,60.6417,-36.5333,-7788,-28808
3750,42582,9.65166,-0.090918,-0.272754,-170.376,-87.3798,-70.5212,-0.12207,4.08936,-0.976563,0.34787,0.621735,-0.368652,0.597015,-111.633,60.6583,-36.525,-7788,-28808
3756,42588,9.59902,0.0813477,0.114844,-170.403,-87.3688,-70.5432,0,-2.0752,0.183105,0.348053,0.621643,-0.368927,0.596832,-111.617,60.6667,-36.5083,-7788,-28808
3762,42594,6.04844,8.46494,2.13418,-161.927,-87.204,-79.1895,11.4136,-12.085,86.853,0.346466,0.620056,-0.372345,0.59729,-111.625,60.6667,-36.5,-7788,-28808
3768,42600,2.76104,8.73291,-1.14844,-164.636,-87.149,-76.5198,0.854492,-17.0898,-7.38525,0.346039,0.620789,-0.371185,0.597473,-111.633,60.675,-36.4833,-7788,-28808
3774,42606,11.8433,-5.02441,-1.08145,-161.768,-87.1106,-79.4366,3.35693,0.427246,29.9683,0.346436,0.620117,-0.37326,0.596649,-111.633,60.6833,-36.4667,-7788,-28808
3780,42612,9.75693,0.172266,-1.13408,-164.707,-87.1655,-76.5692,-3.84521,2.01416,-30.8838,0.347687,0.6203,-0.372772,0.596008,-111.633,60.6917,-36.4417,-7788,-28808
3786,42618,8.16348,-4.59854,-7.7998,177.116,-87.16,-58.4198,-10.9863,-20.2637,-178.528,0.352173,0.623596,-0.3685,0.59259,-111.592,60.6917,-36.4,-7788,-28808
3792,42624,0.736914,10.7762,2.2251,173.057,-86.9293,-54.635,-31.189,-41.8091,-43.457,0.354126,0.624512,-0.369446,0.589874,-111.558,60.6833,-36.3583,-7788,-28808
3798,42630,11.0394,-0.794336,-1.92363,-179.286,-87.3138,-62.4023,-2.2583,60.3027,34.4238,0.353119,0.623413,-0.370453,0.591034,-111.55,60.6417,-36.25,-7788,-28808
3804,42636,10.9149,-2.90937,3.48359,-178.198,-87.4347,-63.5834,-0.12207,25.6348,9.70459,0.35437,0.619934,-0.37146,0.593292,-111.558,60.6167,-36.225,-7788,-28808
3810,42642,10.2977,-0.430664,-1.14365,179.539,-87.3578,-61.3971,-0.0610352,-14.2212,-20.2637,0.355042,0.620422,-0.371582,0.592316,-111.567,60.5917,-36.2167,-7788,-28808
3816,42648,8.95303,1.37334,-2.3208,178.901,-87.3798,-60.8423,-0.366211,6.83594,-5.61523,0.355743,0.620087,-0.371826,0.592102,-111.575,60.5667,-36.2167,-7788,-28808
3822,42654,9.01045,0.583789,-0.220117,179.962,-87.4512,-62.0013,0,15.1978,10.0098,0.356171,0.619293,-0.372375,0.592316,-111.55,60.5333,-36.2333,-7788,-28808
3828,42660,10.135,-0.47373,0.564648,-175.139,-87.4292,-67.099,1.70898,-6.5918,21.6675,0.356232,0.618439,-0.373444,0.592529,-111.542,60.4917,-36.3083,-7788,-28808
3834,42666,10.0297,0.00957031,0.0382813,-173.496,-87.3303,-68.8348,2.74658,-17.2119,17.2729,0.355804,0.617859,-0.375916,0.591827,-111.533,60.4917,-36.3583,-7788,-28808
3840,42672,10.4795,-0.77041,-0.947461,-171.942,-87.2864,-70.4938,-0.12207,-6.53076,16.1133,0.355804,0.617462,-0.376984,0.591553,-111.55,60.5167,-36.425,-7788,-28808
3846,42678,9.91963,-0.866113,-0.15791,-171.398,-87.2919,-71.1365,-2.0752,2.50244,5.37109,0.356201,0.617004,-0.377625,0.59137,-111.567,60.5333,-36.4667,-7788,-28808
3852,42684,9.50811,-0.397168,-0.186621,-171.623,-87.2809,-70.9991,-1.0376,-1.40381,-1.52588,0.356659,0.616791,-0.378082,0.591003,-111.575,60.5667,-36.5,-7788,-28808
3858,42690,9.99619,-0.272754,-0.77041,-171.722,-87.2589,-71.0706,-0.12207,0.366211,0.305176,0.357056,0.616608,-0.378601,0.590607,-111.558,60.6,-36.5417,-7788,-28808
3864,42696,10.1062,0.105273,-0.45459,-171.969,-87.2589,-70.9058,-0.244141,0.366211,-2.0752,0.357941,0.61615,-0.379425,0.590057,-111.533,60.625,-36.575,-7788,-28808
3870,42702,9.88613,0.330176,-0.349316,-171.887,-87.2534,-71.0706,0,-0.793457,1.28174,0.358337,0.615875,-0.379913,0.589783,-111.533,60.65,-36.5917,-7788,-28808
3876,42708,9.9292,-0.210547,-0.588574,-171.887,-87.2424,-71.1475,0.0610352,-1.09863,0.488281,0.358704,0.615662,-0.380371,0.589478,-111.55,60.675,-36.6167,-7788,-28808
3882,42714,9.53682,-0.133984,-0.291895,-171.958,-87.2479,-71.1584,-0.12207,1.28174,-0.488281,0.359161,0.615387,-0.380768,0.589233,-111.575,60.7,-36.6333,-7788,-28808
3888,42720,9.69951,-0.0861328,-0.459375,-171.991,-87.2369,-71.2793,0.183105,-2.0752,-0.549316,0.359528,0.615112,-0.381226,0.58902,-111.608,60.6833,-36.5917,-7788,-28808
3894,42726,9.91006,0.0813477,-0.717773,-171.953,-87.2369,-71.3892,0,0.305176,0.610352,0.360291,0.614685,-0.38205,0.58847,-111.633,60.6583,-36.5833,-7788,-28808
3900,42732,10.044,-0.0574219,-0.334961,-171.974,-87.2424,-71.4441,0.12207,1.58691,-0.12207,0.360687,0.61441,-0.382416,0.588257,-111.65,60.6417,-36.6,-7788,-28808
3906,42738,9.75215,0.244043,-0.229688,-172.018,-87.2369,-71.4825,-0.244141,-0.366211,0,0.361084,0.614166,-0.382874,0.587982,-111.675,60.6417,-36.6333,-7788,-28808
3912,42744,9.64688,-0.239258,-0.526367,-171.909,-87.2314,-71.6638,0,-0.610352,1.46484,0.36142,0.613922,-0.383301,0.587738,-111.692,60.65,-36.6667,-7788,-28808
3918,42750,9.62773,-0.00478516,-0.248828,-171.98,-87.2369,-71.7297,0,0.366211,0.244141,0.362152,0.613464,-0.384033,0.58728,-111.717,60.6833,-36.7417,-7788,-28808
3924,42756,9.91963,-0.129199,-0.31582,-172.035,-87.226,-71.7462,0,-1.70898,-0.0610352,0.362488,0.613281,-0.384399,0.587036,-111.725,60.6917,-36.775,-7788,-28808
3930,42762,9.98662,0,-0.569434,-172.062,-87.2205,-71.7847,-0.12207,-0.244141,0,0.362823,0.613068,-0.384766,0.586792,-111.75,60.7083,-36.7667,-7788,-28808
3936,42768,9.93877,-0.124414,-0.387598,-172.079,-87.226,-71.8341,-0.0610352,1.34277,-0.12207,0.36319,0.612854,-0.385071,0.586609,-111.775,60.7083,-36.75,-7788,-28808
3942,42774,9.70908,-0.0574219,-0.516797,-172.128,-87.226,-71.8451,0,-0.427246,-0.244141,0.363495,0.61264,-0.385406,0.586395,-111.775,60.7083,-36.7333,-7788,-28808
3948,42780,9.72822,-0.181836,-0.526367,-172.178,-87.2205,-71.9165,0,0.549316,-0.244141,0.364105,0.612274,-0.386078,0.585999,-111.808,60.7,-36.7583,-7788,-28808
3954,42786,9.7043,0.00957031,-0.330176,-172.244,-87.2205,-71.911,-0.0610352,0.244141,-0.488281,0.364441,0.612091,-0.386353,0.585785,-111.825,60.675,-36.7667,-7788,-28808
3960,42792,9.82871,-0.0478516,-0.349316,-172.216,-87.215,-71.9934,-0.0610352,-1.0376,0.549316,0.364716,0.611908,-0.386719,0.585571,-111.858,60.6583,-36.7917,-7788,-28808
3966,42798,9.94355,-0.0669922,-0.516797,-172.222,-87.215,-72.0428,0.12207,-0.244141,0.12207,0.36499,0.611725,-0.387024,0.585388,-111.883,60.6167,-36.7667,-7788,-28808
3972,42804,9.73301,-0.0717773,-0.272754,-172.216,-87.2205,-72.1088,-0.0610352,1.09863,0.0610352,0.365295,0.611511,-0.387299,0.585236,-111.883,60.575,-36.7417,-7788,-28808
3978,42810,9.73779,-0.14834,-0.435449,-172.172,-87.215,-72.2626,0,-0.915527,0.549316,0.365814,0.611145,-0.387909,0.584869,-111.85,60.525,-36.65,-7788,-28808
3984,42816,9.8,-0.162695,-0.468945,-172.156,-87.215,-72.323,0,0.305176,0.183105,0.366089,0.610992,-0.388184,0.584717,-111.808,60.5167,-36.6,-7788,-28808
3990,42822,9.85264,-0.0574219,-0.339746,-172.172,-87.2205,-72.3615,0,0.610352,-0.12207,0.366333,0.610809,-0.388428,0.584564,-111.783,60.5417,-36.5333,-7788,-28808
3996,42828,-1.29199,14.2263,7.91943,-168.019,-87.0996,-76.7889,2.13623,-14.8926,47.4854,0.366302,0.609528,-0.391296,0.583984,-111.775,60.5667,-36.5,-7788,-28808
4002,42834,7.50791,1.47383,-3.63193,-160.615,-86.814,-83.9355,10.8032,-33.0811,-54.3213,0.362061,0.609741,-0.392822,0.585388,-111.758,60.5917,-36.475,-7788,-28808
4008,42840,7.64189,3.8377,-4.96699,-162.471,-86.7096,-81.9745,3.11279,4.27246,41.4429,0.36142,0.610992,-0.392395,0.584778,-111.692,60.6083,-36.425,-7788,-28808
4014,42846,27.907,-35.257,2.37344,-172.441,-86.7755,-71.7133,10.8643,-8.72803,-118.713,0.362701,0.614166,-0.388062,0.583557,-111.642,60.6333,-36.4167,-7788,-28808
4020,42852,-2.34473,17.4563,3.17256,174.018,-86.6162,-58.0902,-33.6914,-33.8745,-156.555,0.365753,0.617859,-0.384064,0.580383,-111.583,60.6333,-36.4083,-7788,-28808
4026,42858,5.31631,7.929,-1.38291,177.984,-86.5723,-61.7102,36.8652,-11.7798,42.7246,0.362579,0.618561,-0.383606,0.58194,-111.55,60.6083,-36.4,-7788,-28808
4032,42864,11.6088,-1.87578,-1.53125,-176.913,-86.77,-66.5936,-5.79834,32.5928,10.0708,0.360596,0.61731,-0.383331,0.584656,-111.525,60.5833,-36.4,-7788,-28808
4038,42870,11.3121,-2.69883,-1.37334,-178.412,-87.0007,-64.9292,-14.8926,13.0005,-30.7617,0.360992,0.617004,-0.381287,0.58606,-111.517,60.475,-36.3667,-7788,-28808
4044,42876,8.17305,2.39736,-1.50254,178.841,-87.0392,-62.1991,-23.8647,9.09424,-28.8696,0.361938,0.617218,-0.380463,0.585815,-111.5,60.4333,-36.325,-7788,-28808
4050,42882,8.89082,1.13887,-0.378027,179.522,-87.1051,-62.8802,-17.2729,12.7563,6.71387,0.361938,0.616791,-0.380432,0.586273,-111.492,60.3833,-36.3083,-7788,-28808
4056,42888,9.23535,1.21064,-1.5791,-178.083,-87.215,-65.2148,0.183105,22.522,22.4609,0.36142,0.616028,-0.380402,0.587402,-111.483,60.3583,-36.3,-7788,-28808
4062,42894,10.4269,-0.224902,0.784766,-175.995,-87.2919,-67.1979,3.11279,-7.08008,-3.41797,0.360657,0.615631,-0.380096,0.588501,-111.508,60.35,-36.3417,-7788,-28808
4068,42900,9.02002,1.41162,-0.961816,-175.111,-87.2314,-67.9065,1.09863,-4.27246,10.498,0.359314,0.616364,-0.379578,0.588898,-111.583,60.3,-36.325,-7788,-28808
4074,42906,9.52725,-0.172266,-0.215332,-172.667,-87.2205,-70.2905,1.15967,0,23.0103,0.358398,0.61618,-0.379883,0.589447,-111.6,60.2667,-36.3,-7788,-28808
4080,42912,9.79043,-0.722559,0.478516,-171.161,-87.171,-71.7297,0,-7.08008,15.0146,0.357483,0.616333,-0.380035,0.589752,-111.6,60.2333,-36.2917,-7788,-28808
4086,42918,9.38848,-0.387598,-0.0239258,-169.948,-87.0941,-72.8668,-0.0610352,-13.6719,13.6719,0.356506,0.616669,-0.380219,0.589844,-111.583,60.2333,-36.2833,-7788,-28808
4092,42924,9.43633,1.04316,-0.77041,-170.2,-87.0831,-72.5427,-0.732422,11.6577,-6.04248,0.35614,0.617035,-0.379822,0.589966,-111.583,60.2583,-36.3417,-7788,-28808
4098,42930,9.77129,0.0669922,1.28721,-170.035,-87.1271,-72.5812,0.244141,-2.50244,4.57764,0.355682,0.617188,-0.379028,0.590576,-111.575,60.3333,-36.525,-7788,-28808
4104,42936,9.98662,-0.334961,-0.971387,-170.321,-87.0667,-72.2351,0.183105,-12.5122,-1.52588,0.355164,0.617737,-0.378845,0.590424,-111.575,60.3667,-36.6,-7788,-28808
4110,42942,9.65166,0.234473,-1.871,-170.156,-87.0996,-72.3615,-0.0610352,6.40869,0,0.355011,0.617706,-0.37854,0.590759,-111.542,60.3917,-36.6333,-7788,-28808
4116,42948,9.53682,-0.239258,0.483301,-170.167,-87.1381,-72.301,-0.427246,7.32422,-2.01416,0.35495,0.617706,-0.378143,0.591064,-111.5,60.4083,-36.6417,-7788,-28808
4122,42954,10.178,-0.46416,-1.58867,-170.239,-87.0941,-72.1802,0.12207,-2.86865,2.68555,0.354553,0.618042,-0.378052,0.591003,-111.475,60.3917,-36.6083,-7788,-28808
4128,42960,9.85264,0.0334961,-0.736914,-170.195,-87.1216,-72.1582,-0.427246,8.36182,-4.15039,0.354309,0.618134,-0.377563,0.591339,-111.458,60.375,-36.5833,-7788,-28808
4134,42966,9.4124,0.617285,0.655566,-170.008,-87.1271,-72.323,-0.12207,0.793457,1.40381,0.354156,0.618164,-0.377472,0.591492,-111.458,60.3667,-36.5917,-7788,-28808
4140,42972,9.88135,-0.239258,-0.502441,-169.871,-87.0831,-72.4274,0,-8.05664,2.44141,0.353821,0.618408,-0.377502,0.5914,-111.467,60.3917,-36.6083,-7788,-28808
4146,42978,9.94834,-0.162695,-1.55996,-169.854,-87.0941,-72.4274,-0.12207,2.2583,-0.549316,0.35376,0.618408,-0.37738,0.591522,-111.475,60.4167,-36.6,-7788,-28808
4152,42984,9.68516,0.129199,0.411523,-169.739,-87.1106,-72.5098,0,-4.82178,0.732422,0.35379,0.618286,-0.377167,0.591766,-111.475,60.425,-36.5917,-7788,-28808
4158,42990,10.0919,-0.129199,-1.10537,-169.585,-87.0831,-72.6471,0.244141,-4.94385,2.19727,0.353363,0.618591,-0.377228,0.591675,-111.483,60.4667,-36.5167,-7788,-28808
4164,42996,10.1302,-0.344531,-0.952246,-169.601,-87.1161,-72.6196,-0.305176,5.85938,-1.46484,0.353455,0.6185,-0.377014,0.591858,-111.492,60.475,-36.5167,-7788,-28808
4170,43002,9.60859,0.119629,0.330176,-169.612,-87.1326,-72.5922,-0.12207,3.17383,-0.976563,0.353455,0.618469,-0.376892,0.591949,-111.508,60.4917,-36.5083,-7788,-28808
4176,43008,9.73779,-0.090918,-0.0574219,-169.53,-87.0996,-72.6581,0.183105,-6.10352,1.70898,0.35321,0.618622,-0.376923,0.591888,-111.525,60.5,-36.5083,-7788,-28808
4182,43014,9.73301,-0.0382813,-0.330176,-169.629,-87.1271,-72.5317,0.0610352,5.7373,-1.83105,0.353149,0.618713,-0.376862,0.591919,-111.542,60.5167,-36.5167,-7788,-28808
4188,43020,9.61816,0.062207,0.416309,-169.618,-87.1216,-72.5317,0.0610352,-1.64795,0.183105,0.353088,0.618713,-0.376617,0.592102,-111.558,60.4833,-36.5167,-7788,-28808
4194,43026,9.87178,-0.105273,-0.626855,-169.563,-87.0941,-72.5702,0.12207,-5.61523,1.34277,0.352905,0.618866,-0.376648,0.59201,-111.592,60.45,-36.525,-7788,-28808
4200,43032,9.95313,-0.244043,-1.03359,-169.541,-87.1051,-72.5867,-0.183105,2.56348,-0.427246,0.352905,0.618835,-0.376556,0.592102,-111.65,60.4417,-36.5,-7788,-28808
4206,43038,9.63731,0.0239258,0.0334961,-169.547,-87.1271,-72.5647,-0.12207,3.72314,-0.976563,0.352936,0.618774,-0.376434,0.592224,-111.7,60.4333,-36.475,-7788,-28808
4212,43044,9.94355,-0.287109,-0.985742,-169.437,-87.0941,-72.6636,0,-2.38037,0.854492,0.352783,0.618866,-0.376465,0.592194,-111.758,60.4333,-36.4667,-7788,-28808
4218,43050,9.85742,-0.16748,-0.669922,-169.437,-87.1216,-72.6526,-0.183105,4.69971,-1.09863,0.352753,0.618866,-0.376343,0.592316,-111.758,60.4,-36.425,-7788,-28808
4224,43056,9.67559,0.090918,0.200977,-169.387,-87.1271,-72.6965,-0.183105,1.0376,0.183105,0.352722,0.618835,-0.376282,0.592377,-111.767,60.3583,-36.4417,-7788,-28808
4230,43062,9.87656,-0.100488,-0.387598,-169.316,-87.1051,-72.757,0.0610352,-4.3335,1.34277,0.3526,0.618958,-0.376343,0.592285,-111.767,60.3333,-36.425,-7788,-28808
4236,43068,10.0058,-0.267969,-0.995313,-169.283,-87.1106,-72.7899,0,1.0376,0,0.35257,0.618927,-0.376312,0.592346,-111.783,60.3167,-36.4,-7788,-28808
4242,43074,9.64688,0.0478516,0.0861328,-169.277,-87.1216,-72.7844,0,-2.01416,0.305176,0.352631,0.618866,-0.37619,0.592468,-111.792,60.3167,-36.3917,-7788,-28808
4248,43080,9.91484,-0.133984,-0.717773,-169.261,-87.1051,-72.7954,0,-2.99072,0.610352,0.352478,0.618988,-0.376251,0.592407,-111.783,60.3417,-36.4333,-7788,-28808
4254,43086,9.90049,-0.114844,-0.722559,-169.288,-87.1216,-72.7679,-0.183105,2.68555,-0.915527,0.352539,0.618927,-0.37616,0.592468,-111.75,60.35,-36.4833,-7788,-28808
4260,43092,9.68516,0.114844,0.0143555,-169.294,-87.1326,-72.757,-0.12207,1.34277,-0.427246,0.35257,0.618896,-0.376129,0.592499,-111.733,60.3667,-36.525,-7788,-28808
4266,43098,9.73779,0.0143555,-0.277539,-169.255,-87.1106,-72.8009,0,-3.72314,1.0376,0.352509,0.618958,-0.376221,0.592407,-111.708,60.3583,-36.5417,-7788,-28808
4272,43104,9.74258,-0.0191406,-0.521582,-169.299,-87.1271,-72.7625,-0.12207,3.17383,-1.0376,0.352509,0.618958,-0.376251,0.592377,-111.708,60.35,-36.5167,-7788,-28808
4278,43110,9.64688,0.0574219,-0.0765625,-169.261,-87.1216,-72.8064,0,-0.793457,0.488281,0.352631,0.618866,-0.376251,0.592438,-111.708,60.3083,-36.5417,-7788,-28808
4284,43116,9.8335,-0.0717773,-0.617285,-169.25,-87.1106,-72.8284,-0.12207,-2.86865,0.671387,0.3526,0.618896,-0.376343,0.592346,-111.717,60.3167,-36.525,-7788,-28808
4290,43122,9.90049,-0.14834,-0.827832,-169.272,-87.1216,-72.8119,0,1.70898,-0.610352,0.352692,0.618835,-0.376343,0.592346,-111.717,60.3417,-36.4917,-7788,-28808
4296,43128,9.73301,0.00478516,-0.181836,-169.25,-87.1326,-72.8394,0,2.2583,-0.244141,0.352783,0.618744,-0.376343,0.592377,-111.708,60.3833,-36.4833,-7788,-28808
4302,43134,9.87178,-0.15791,-0.708203,-169.151,-87.1216,-72.9602,-0.0610352,-0.732422,0.549316,0.352783,0.618744,-0.376465,0.592346,-111.7,60.4167,-36.4167,-7788,-28808
4308,43140,9.84307,-0.133984,-0.497656,-169.151,-87.1326,-72.9712,-0.12207,2.74658,-0.549316,0.352905,0.618622,-0.376526,0.592346,-111.683,60.4083,-36.3583,-7788,-28808
4314,43146,9.70908,-0.0191406,-0.0191406,-169.167,-87.1381,-72.9602,-0.12207,0.183105,-0.244141,0.352966,0.618591,-0.376556,0.592316,-111.667,60.4,-36.325,-7788,-28808
4320,43152,9.84785,-0.129199,-0.363672,-169.14,-87.1271,-72.9987,0.12207,-2.38037,0.732422,0.352936,0.618622,-0.376617,0.592255,-111.625,60.4083,-36.3333,-7788,-28808
4326,43158,9.93398,-0.205762,-0.655566,-169.151,-87.1326,-72.9932,0.0610352,0.793457,-0.305176,0.352997,0.618591,-0.376648,0.592255,-111.592,60.425,-36.3333,-7788,-28808
4332,43164,9.75693,-0.0669922,-0.16748,-169.107,-87.1326,-73.0426,0.0610352,-2.0752,0.549316,0.353058,0.6185,-0.376617,0.592285,-111.567,60.4333,-36.3583,-7788,-28808
4338,43170,9.91006,-0.177051,-0.650781,-169.091,-87.1271,-73.0591,0,-1.40381,0.366211,0.353027,0.618561,-0.37674,0.592194,-111.558,60.425,-36.35,-7788,-28808
4344,43176,9.85264,-0.124414,-0.521582,-169.135,-87.1381,-73.0261,0,1.77002,-0.793457,0.353119,0.6185,-0.376709,0.592224,-111.558,60.4333,-36.3583,-7788,-28808
4350,43182,9.73779,0.00478516,-0.15791,-169.189,-87.1381,-72.9767,0.0610352,-0.0610352,-0.610352,0.353149,0.6185,-0.376709,0.592224,-111.558,60.4333,-36.375,-7788,-28808
4356,43188,9.80479,-0.0382813,-0.492871,-169.2,-87.1271,-72.9657,0.0610352,-2.19727,0.244141,0.353149,0.61853,-0.376801,0.592133,-111.558,60.45,-36.3917,-7788,-28808
4362,43194,9.74258,-0.0191406,-0.373242,-169.222,-87.1381,-72.9602,0,1.89209,-0.427246,0.35318,0.6185,-0.376801,0.592133,-111.575,60.45,-36.4,-7788,-28808
4368,43200,9.69473,0.0382813,-0.248828,-169.239,-87.1381,-72.9547,-0.12207,-0.915527,0,0.353302,0.618408,-0.376862,0.592102,-111.575,60.4417,-36.375,-7788,-28808
4374,43206,9.80957,-0.062207,-0.626855,-169.233,-87.1326,-72.9712,0,-1.15967,0.305176,0.353363,0.618378,-0.376953,0.592041,-111.575,60.4167,-36.3583,-7788,-28808
4380,43212,9.84307,-0.0669922,-0.60293,-169.211,-87.1381,-73.0042,-0.0610352,1.52588,-0.0610352,0.353455,0.618317,-0.376984,0.592072,-111.575,60.3917,-36.35,-7788,-28808
4386,43218,9.72344,0,-0.239258,-169.2,-87.1436,-73.0261,-0.183105,0.732422,0,0.353516,0.618256,-0.377045,0.592041,-111.567,60.3833,-36.35,-7788,-28808
4392,43224,9.87656,-0.14834,-0.669922,-169.135,-87.1381,-73.1195,0.0610352,0.183105,0.305176,0.353546,0.618225,-0.377136,0.59198,-111.575,60.3833,-36.325,-7788,-28808
4398,43230,9.8,-0.0669922,-0.358887,-169.14,-87.149,-73.1305,-0.244141,1.64795,-0.305176,0.353729,0.618103,-0.377258,0.591949,-111.592,60.3833,-36.3167,-7788,-28808
4404,43236,9.78086,-0.0382813,-0.172266,-169.096,-87.1436,-73.1799,0,-0.549316,0.549316,0.35376,0.618042,-0.377319,0.591919,-111.608,60.4,-36.3333,-7788,-28808
4410,43242,9.87178,-0.13877,-0.468945,-169.069,-87.1381,-73.2239,-0.0610352,-1.46484,0.610352,0.35379,0.618042,-0.377441,0.591858,-111.617,60.4167,-36.3583,-7788,-28808
4416,43248,9.88135,-0.162695,-0.535937,-169.085,-87.1436,-73.2129,0,0.915527,-0.366211,0.353882,0.617981,-0.377472,0.591858,-111.608,60.4167,-36.3583,-7788,-28808
4422,43254,9.80479,-0.0478516,-0.301465,-169.091,-87.1436,-73.2294,-0.0610352,-1.46484,0.244141,0.353943,0.61792,-0.377502,0.591827,-111.608,60.425,-36.3667,-7788,-28808
4428,43260,9.84307,-0.119629,-0.564648,-169.14,-87.1436,-73.1909,0,-0.488281,-0.427246,0.354034,0.61792,-0.377625,0.591736,-111.625,60.4417,-36.3583,-7788,-28808
4434,43266,9.78564,-0.105273,-0.440234,-169.14,-87.149,-73.2019,0,1.0376,-0.183105,0.354095,0.617859,-0.377625,0.591736,-111.633,60.4583,-36.3833,-7788,-28808
4440,43272,9.72344,-0.0191406,-0.277539,-169.146,-87.149,-73.2019,-0.183105,-0.366211,0,0.354156,0.617828,-0.377686,0.591705,-111.633,60.4667,-36.4083,-7788,-28808
4446,43278,9.79043,-0.0813477,-0.45459,-169.135,-87.1381,-73.2239,0,-1.52588,0.427246,0.354156,0.617828,-0.377777,0.591644,-111.625,60.4833,-36.4583,-7788,-28808
4452,43284,9.79043,-0.0382813,-0.320605,-169.124,-87.149,-73.2568,-0.0610352,0.793457,-0.12207,0.354248,0.617767,-0.377808,0.591614,-111.583,60.4833,-36.5417,-7788,-28808
4458,43290,9.77607,-0.0334961,-0.311035,-169.113,-87.1436,-73.2788,-0.183105,-0.915527,0.305176,0.35437,0.617676,-0.37793,0.591553,-111.592,60.475,-36.5833,-7788,-28808
4464,43296,9.84307,-0.0861328,-0.569434,-169.102,-87.1436,-73.3008,0,-0.610352,0.244141,0.354401,0.617645,-0.378021,0.591522,-111.608,60.4667,-36.6083,-7788,-28808
4470,43302,9.82393,-0.100488,-0.492871,-169.124,-87.149,-73.2898,-0.12207,0.915527,-0.366211,0.354492,0.617584,-0.378052,0.591522,-111.608,60.4583,-36.6083,-7788,-28808
4476,43308,9.7665,-0.0382813,-0.277539,-169.085,-87.1545,-73.3392,-0.12207,0.488281,0.305176,0.354553,0.617523,-0.378113,0.591492,-111.608,60.4583,-36.5833,-7788,-28808
4482,43314,9.85742,-0.119629,-0.550293,-169.074,-87.149,-73.3777,-0.305176,0.366211,-0.0610352,0.354614,0.617493,-0.378204,0.591431,-111.583,60.4917,-36.5583,-7788,-28808
4488,43320,9.8335,-0.0526367,-0.358887,-169.08,-87.1545,-73.3832,0,0.732422,-0.183105,0.354767,0.617401,-0.378296,0.5914,-111.575,60.5167,-36.5083,-7788,-28808
4494,43326,9.77607,-0.0382813,-0.325391,-169.091,-87.1545,-73.3832,0.0610352,-0.549316,0,0.354828,0.617371,-0.378357,0.591339,-111.592,60.525,-36.4833,-7788,-28808
4500,43332,9.82393,-0.110059,-0.507227,-169.058,-87.1545,-73.4271,-0.0610352,-0.610352,0.488281,0.354858,0.61734,-0.378448,0.591309,-111.6,60.5417,-36.4667,-7788,-28808
4506,43338,9.81914,-0.0765625,-0.488086,-169.058,-87.1545,-73.4381,0,0.732422,-0.12207,0.35495,0.617279,-0.378479,0.591309,-111.608,60.5583,-36.45,-7788,-28808
4512,43344,9.78564,-0.0526367,-0.387598,-169.069,-87.1545,-73.4546,0,-0.915527,0.0610352,0.355011,0.617218,-0.37854,0.591278,-111.608,60.5833,-36.4417,-7788,-28808
4518,43350,9.82393,-0.0813477,-0.526367,-169.041,-87.1545,-73.493,-0.12207,-0.0610352,0.305176,0.355133,0.617126,-0.378693,0.591187,-111.6,60.575,-36.3917,-7788,-28808
4524,43356,9.78564,-0.0669922,-0.387598,-169.058,-87.16,-73.4875,-0.0610352,0.549316,-0.244141,0.355225,0.617096,-0.378723,0.591156,-111.583,60.5417,-36.35,-7788,-28808
4530,43362,9.75693,-0.0382813,-0.339746,-169.03,-87.16,-73.5315,0,-0.0610352,0.366211,0.355286,0.617035,-0.378815,0.591125,-111.55,60.5167,-36.3,-7788,-28808
4536,43368,9.82393,-0.090918,-0.45459,-169.003,-87.16,-73.5754,0,-0.549316,0.427246,0.355347,0.617004,-0.378906,0.591095,-111.508,60.5,-36.2417,-7788,-28808
4542,43374,9.78086,-0.0478516,-0.339746,-168.964,-87.1655,-73.6359,0.0610352,0.488281,0,0.355408,0.616943,-0.378967,0.591064,-111.442,60.5083,-36.175,-7788,-28808
4548,43380,9.80479,-0.090918,-0.349316,-168.959,-87.1655,-73.6523,-0.0610352,-0.427246,0.183105,0.35553,0.616852,-0.379089,0.591003,-111.408,60.5083,-36.1417,-7788,-28808
4554,43386,9.84307,-0.110059,-0.468945,-168.953,-87.1655,-73.6688,0,0,0.0610352,0.355591,0.616791,-0.37915,0.590973,-111.358,60.4917,-36.15,-7788,-28808
4560,43392,9.79521,-0.0861328,-0.397168,-168.942,-87.171,-73.6963,-0.12207,0.549316,0.0610352,0.355682,0.61673,-0.379181,0.590973,-111.317,60.475,-36.2083,-7788,-28808
4566,43398,9.77129,-0.100488,-0.29668,-168.97,-87.171,-73.6743,0,-0.183105,-0.244141,0.355743,0.616699,-0.379242,0.590912,-111.292,60.4417,-36.2667,-7788,-28808
4572,43404,9.81914,-0.0861328,-0.46416,-168.964,-87.171,-73.6963,0,0.305176,-0.0610352,0.355774,0.616669,-0.379303,0.590881,-111.267,60.3833,-36.3917,-7788,-28808
4578,43410,9.79043,-0.0382813,-0.358887,-168.981,-87.171,-73.6963,-0.12207,0.0610352,-0.12207,0.355896,0.616608,-0.379395,0.59082,-111.267,60.3583,-36.425,-7788,-28808
4584,43416,9.78086,-0.062207,-0.392383,-168.992,-87.171,-73.6963,0.0610352,-0.488281,0,0.355957,0.616577,-0.379456,0.59079,-111.275,60.3417,-36.4667,-7788,-28808
4590,43422,9.82393,-0.0813477,-0.521582,-168.997,-87.171,-73.7018,0.0610352,-0.244141,0,0.355988,0.616547,-0.379517,0.590759,-111.3,60.35,-36.5417,-7788,-28808
4596,43428,9.77129,-0.0478516,-0.358887,-168.975,-87.171,-73.7292,0,0.488281,0.12207,0.356079,0.616486,-0.379547,0.590759,-111.317,60.3667,-36.6083,-7788,-28808
4602,43434,9.8,-0.0574219,-0.449805,-168.948,-87.171,-73.7842,0,-0.549316,0.610352,0.35614,0.616455,-0.379608,0.590698,-111.375,60.4083,-36.75,-7788,-28808
4608,43440,9.81436,-0.0813477,-0.521582,-168.964,-87.1765,-73.7787,0.12207,0.12207,-0.183105,0.356262,0.616364,-0.37973,0.590637,-111.392,60.425,-36.8,-7788,-28808
4614,43446,9.8,-0.0191406,-0.401953,-168.959,-87.1765,-73.8007,-0.244141,0.244141,0.0610352,0.356323,0.616302,-0.379822,0.590607,-111.408,60.4333,-36.7917,-7788,-28808
4620,43452,9.79043,-0.0478516,-0.382813,-168.953,-87.1765,-73.8171,0,-0.427246,0.183105,0.356384,0.616272,-0.379883,0.590546,-111.4,60.45,-36.7667,-7788,-28808
4626,43458,9.80479,-0.0574219,-0.435449,-168.959,-87.1765,-73.8226,0,-0.183105,0,0.356476,0.616211,-0.379974,0.590515,-111.392,60.475,-36.7667,-7788,-28808
4632,43464,9.77607,-0.0717773,-0.330176,-168.942,-87.1765,-73.8666,0,0.0610352,0.244141,0.356628,0.616119,-0.380096,0.590454,-111.392,60.5083,-36.7167,-7788,-28808
4638,43470,9.80479,-0.0717773,-0.406738,-168.981,-87.1765,-73.8446,0.0610352,-0.427246,-0.244141,0.356689,0.616089,-0.380157,0.590393,-111.4,60.525,-36.6833,-7788,-28808
4644,43476,9.8335,-0.124414,-0.440234,-168.953,-87.1765,-73.8831,0,0,0.305176,0.35675,0.616028,-0.380219,0.590363,-111.417,60.5417,-36.6583,-7788,-28808
4650,43482,9.82393,-0.0861328,-0.406738,-168.964,-87.182,-73.8831,0,0.244141,-0.12207,0.356812,0.615967,-0.38028,0.590332,-111.433,60.5583,-36.6333,-7788,-28808
