TimeSinceCollection,Timestamp,AccX,AccY,AccZ,AngleRoll,AnglePitch,AngleYaw,AngularVelX,AngularVelY,AngularVelZ,Q1,Q2,Q3,Q4,MagX,MagY,MagZ,Height,Airpressure
0,61758,0,0,0,-124.42,-89.1156,-172.853,9.81436,-0.129199,-0.0669922,0.598785,0.365753,-0.608704,0.370209,-115.642,44.9167,-30.6167,-7094,-28892
6,61764,0,0,0,-124.42,-89.1156,-172.848,9.81914,-0.13877,-0.0574219,0.598785,0.365753,-0.608673,0.370209,-115.625,44.875,-30.6,-7094,-28892
12,61770,0,0,0,-124.409,-89.1211,-172.848,9.8335,-0.124414,-0.0669922,0.598785,0.365784,-0.608673,0.370239,-115.6,44.8583,-30.5833,-7094,-28892
18,61776,0,0,0,-124.409,-89.1211,-172.848,9.82871,-0.105273,-0.090918,0.598755,0.365814,-0.608643,0.37027,-115.6,44.8667,-30.5917,-7094,-28892
24,61782,0,0,0,-124.409,-89.1211,-172.848,9.81436,-0.13877,-0.129199,0.598755,0.365814,-0.608643,0.37027,-115.592,44.8917,-30.6083,-7094,-28892
30,61788,0,0,0,-124.409,-89.1211,-172.853,9.81914,-0.129199,-0.0765625,0.598755,0.365814,-0.608643,0.37027,-115.575,44.9083,-30.6417,-7094,-28892
36,61794,0,0,0,-124.404,-89.1211,-172.848,9.83828,-0.124414,-0.110059,0.598755,0.365814,-0.608643,0.37027,-115.558,44.9167,-30.6667,-7094,-28892
42,61800,0,0,0,-124.409,-89.1211,-172.853,9.80957,-0.124414,-0.090918,0.598755,0.365814,-0.608643,0.37027,-115.575,44.9167,-30.6833,-7094,-28892
48,61806,0,0,0,-124.409,-89.1211,-172.853,9.81914,-0.13877,-0.090918,0.598755,0.365814,-0.608643,0.370239,-115.6,44.9083,-30.6583,-7094,-28892
54,61812,0,0,0,-124.409,-89.1211,-172.853,9.8,-0.13877,-0.0765625,0.598785,0.365784,-0.608673,0.370239,-115.633,44.9167,-30.6083,-7094,-28892
60,61818,0,0,0,-124.415,-89.1211,-172.853,9.82393,-0.133984,-0.0813477,0.598785,0.365784,-0.608673,0.370239,-115.658,44.9167,-30.575,-7094,-28892
66,61824,0,0,0,-124.415,-89.1211,-172.853,9.8,-0.0957031,-0.0717773,0.598785,0.365784,-0.608673,0.370239,-115.65,44.9083,-30.5417,-7094,-28892
72,61830,0,0,0,-124.415,-89.1211,-172.853,9.81914,-0.110059,-0.0669922,0.598785,0.365784,-0.608673,0.370209,-115.633,44.9167,-30.4917,-7094,-28892
78,61836,0,0,0,-124.415,-89.1211,-172.848,9.80957,-0.0957031,-0.0861328,0.598785,0.365784,-0.608673,0.370209,-115.633,44.9167,-30.4917,-7094,-28892
84,61842,0,0,0,-124.415,-89.1211,-172.853,9.80957,-0.124414,-0.129199,0.598785,0.365753,-0.608673,0.370209,-115.642,44.925,-30.45,-7094,-28892
90,61848,0,0,0,-124.42,-89.1211,-172.853,9.79521,-0.124414,-0.0813477,0.598816,0.365753,-0.608704,0.370178,-115.658,44.9167,-30.4333,-7094,-28892
96,61854,0,0,0,-124.426,-89.1211,-172.853,9.82393,-0.129199,-0.0861328,0.598816,0.365723,-0.608704,0.370178,-115.658,44.9083,-30.4,-7094,-28892
102,61860,0,0,0,-124.431,-89.1211,-172.853,9.81914,-0.124414,-0.0813477,0.598846,0.365692,-0.608734,0.370148,-115.642,44.8833,-30.425,-7094,-28892
108,61866,0,0,0,-124.437,-89.1211,-172.853,9.80479,-0.129199,-0.0861328,0.598846,0.365662,-0.608734,0.370117,-115.625,44.8667,-30.4583,-7094,-28892
114,61872,0,0,0,-124.437,-89.1211,-172.853,9.80957,-0.119629,-0.0861328,0.598846,0.365662,-0.608734,0.370087,-115.6,44.85,-30.5083,-7094,-28892
120,61878,0,0,0,-124.442,-89.1211,-172.853,9.81914,-0.090918,-0.0765625,0.598877,0.365631,-0.608765,0.370087,-115.575,44.8417,-30.5583,-7094,-28892
126,61884,0,0,0,-124.448,-89.1156,-172.853,9.82393,-0.124414,-0.114844,0.598877,0.365601,-0.608765,0.370056,-115.558,44.8333,-30.575,-7094,-28892
132,61890,0,0,0,-124.459,-89.1211,-172.853,9.79521,-0.110059,-0.0765625,0.598907,0.36557,-0.608795,0.369995,-115.542,44.7917,-30.5917,-7094,-28892
138,61896,0,0,0,-124.459,-89.1211,-172.853,9.81436,-0.13877,-0.105273,0.598938,0.36554,-0.608826,0.369965,-115.533,44.7917,-30.5417,-7094,-28892
144,61902,0,0,0,-124.464,-89.1211,-172.853,9.82871,-0.133984,-0.090918,0.598938,0.365509,-0.608826,0.369965,-115.533,44.7833,-30.525,-7094,-28892
150,61908,0,0,0,-124.47,-89.1211,-172.853,9.81914,-0.114844,-0.062207,0.598969,0.365479,-0.608856,0.369934,-115.542,44.7833,-30.5167,-7094,-28892
156,61914,0,0,0,-124.475,-89.1156,-172.853,9.8335,-0.129199,-0.0861328,0.598969,0.365448,-0.608856,0.369904,-115.533,44.7833,-30.5167,-7094,-28892
162,61920,0,0,0,-124.481,-89.1156,-172.853,9.82871,-0.129199,-0.0765625,0.598999,0.365417,-0.608887,0.369873,-115.533,44.8,-30.6167,-7094,-28892
168,61926,0,0,0,-124.486,-89.1211,-172.853,9.82871,-0.133984,-0.0717773,0.598999,0.365417,-0.608887,0.369843,-115.525,44.8083,-30.6583,-7094,-28892
174,61932,0,0,0,-124.486,-89.1156,-172.853,9.81436,-0.114844,-0.0669922,0.598999,0.365387,-0.608917,0.369843,-115.533,44.825,-30.7167,-7094,-28892
180,61938,0,0,0,-124.492,-89.1156,-172.853,9.85264,-0.119629,-0.0861328,0.59903,0.365387,-0.608917,0.369812,-115.55,44.85,-30.7917,-7094,-28892
186,61944,0,0,0,-124.492,-89.1156,-172.853,9.81436,-0.133984,-0.0765625,0.59903,0.365356,-0.608917,0.369812,-115.558,44.8667,-30.8417,-7094,-28892
192,61950,0,0,0,-124.497,-89.1211,-172.853,9.81436,-0.124414,-0.0861328,0.59903,0.365356,-0.608948,0.369781,-115.567,44.8917,-30.875,-7094,-28892
198,61956,0,0,0,-124.497,-89.1156,-172.853,9.80957,-0.105273,-0.0717773,0.59906,0.365326,-0.608948,0.369781,-115.575,44.9,-30.8333,-7094,-28892
204,61962,0,0,0,-124.503,-89.1156,-172.853,9.79521,-0.110059,-0.0574219,0.59906,0.365326,-0.608948,0.369781,-115.575,44.9083,-30.8333,-7094,-28892
210,61968,0,0,0,-124.503,-89.1211,-172.853,9.8335,-0.110059,-0.0669922,0.59906,0.365326,-0.608948,0.369751,-115.583,44.9167,-30.875,-7094,-28892
216,61974,0,0,0,-124.503,-89.1156,-172.853,9.82393,-0.105273,-0.0765625,0.59906,0.365326,-0.608948,0.369751,-115.575,44.925,-30.9417,-7094,-28892
222,61980,0,0,0,-124.503,-89.1156,-172.853,9.79521,-0.110059,-0.0669922,0.59906,0.365295,-0.608948,0.369751,-115.6,44.9333,-31.0583,-7094,-28892
228,61986,0,0,0,-124.503,-89.1211,-172.853,9.77129,-0.110059,-0.0765625,0.59906,0.365295,-0.608978,0.369751,-115.617,44.925,-31.075,-7094,-28892
234,61992,0,0,0,-124.503,-89.1211,-172.853,9.82871,-0.119629,-0.0669922,0.59906,0.365295,-0.608978,0.369751,-115.625,44.9167,-31.0667,-7094,-28892
240,61998,0,0,0,-124.503,-89.1211,-172.853,9.80479,-0.119629,-0.0669922,0.59906,0.365295,-0.608978,0.369751,-115.625,44.9,-31.05,-7094,-28892
246,62004,0,0,0,-124.503,-89.1211,-172.853,9.81914,-0.114844,-0.090918,0.59906,0.365295,-0.608948,0.369751,-115.633,44.8917,-31.0083,-7094,-28892
252,62010,0,0,0,-124.503,-89.1211,-172.853,9.80957,-0.114844,-0.090918,0.59906,0.365295,-0.608948,0.369751,-115.65,44.8583,-30.9667,-7094,-28892
258,62016,0,0,0,-124.503,-89.1211,-172.853,9.80479,-0.124414,-0.0669922,0.59906,0.365295,-0.608948,0.369751,-115.658,44.8417,-30.9417,-7094,-28892
264,62022,0,0,0,-124.503,-89.1211,-172.853,9.80957,-0.13877,-0.0813477,0.59906,0.365295,-0.608948,0.369751,-115.667,44.8167,-30.9167,-7094,-28892
270,62028,0,0,0,-124.503,-89.1211,-172.853,9.82393,-0.100488,-0.0861328,0.59906,0.365326,-0.608948,0.369751,-115.675,44.8083,-30.9,-7094,-28892
276,62034,0,0,0,-124.503,-89.1211,-172.853,9.81436,-0.0957031,-0.090918,0.59906,0.365326,-0.608948,0.369751,-115.667,44.7917,-30.8917,-7094,-28892
282,62040,0,0,0,-124.508,-89.1211,-172.853,9.78564,-0.105273,-0.0861328,0.599091,0.365295,-0.608978,0.36972,-115.633,44.75,-30.9167,-7094,-28892
288,62046,0,0,0,-124.508,-89.1211,-172.853,9.82393,-0.13877,-0.090918,0.599091,0.365295,-0.608978,0.36972,-115.625,44.7417,-30.9167,-7094,-28892
294,62052,0,0,0,-124.514,-89.1211,-172.853,9.81436,-0.105273,-0.105273,0.599091,0.365265,-0.608978,0.36969,-115.625,44.7167,-30.8917,-7094,-28892
300,62058,0,0,0,-124.514,-89.1211,-172.853,9.81436,-0.114844,-0.0957031,0.599121,0.365234,-0.609009,0.36969,-115.65,44.725,-30.875,-7094,-28892
306,62064,0,0,0,-124.525,-89.1211,-172.853,9.8,-0.114844,-0.110059,0.599121,0.365234,-0.609009,0.369659,-115.658,44.7167,-30.8333,-7094,-28892
312,62070,0,0,0,-124.53,-89.1211,-172.853,9.81436,-0.119629,-0.110059,0.599152,0.365173,-0.609039,0.369598,-115.683,44.6917,-30.8417,-7094,-28892
318,62076,0,0,0,-124.536,-89.1211,-172.853,9.8,-0.133984,-0.0717773,0.599182,0.365143,-0.60907,0.369568,-115.675,44.6833,-30.8417,-7094,-28892
324,62082,0,0,0,-124.541,-89.1211,-172.853,9.80479,-0.13877,-0.0765625,0.599182,0.365112,-0.60907,0.369537,-115.658,44.7,-30.8417,-7094,-28892
330,62088,0,0,0,-124.547,-89.1211,-172.853,9.80957,-0.0957031,-0.0957031,0.599213,0.365082,-0.6091,0.369537,-115.642,44.7167,-30.8667,-7094,-28892
336,62094,0,0,0,-124.557,-89.1211,-172.853,9.82393,-0.124414,-0.105273,0.599213,0.365051,-0.6091,0.369507,-115.633,44.7333,-30.8417,-7094,-28892
342,62100,0,0,0,-124.563,-89.1211,-172.853,9.80957,-0.119629,-0.0765625,0.599274,0.365021,-0.609131,0.369446,-115.633,44.7583,-30.8,-7094,-28892
348,62106,0,0,0,-124.568,-89.1211,-172.853,9.83828,-0.124414,-0.0861328,0.599274,0.36499,-0.609161,0.369415,-115.633,44.7833,-30.7583,-7094,-28892
354,62112,0,0,0,-124.568,-89.1211,-172.853,9.82871,-0.110059,-0.0669922,0.599274,0.36496,-0.609161,0.369385,-115.625,44.8083,-30.725,-7094,-28892
360,62118,0,0,0,-124.574,-89.1211,-172.853,9.81436,-0.133984,-0.062207,0.599304,0.364929,-0.609192,0.369354,-115.625,44.8333,-30.6667,-7094,-28892
366,62124,0,0,0,-124.579,-89.1211,-172.853,9.82393,-0.114844,-0.0765625,0.599304,0.364929,-0.609192,0.369354,-115.617,44.8417,-30.6083,-7094,-28892
372,62130,0,0,0,-124.585,-89.1211,-172.853,9.79521,-0.133984,-0.0861328,0.599335,0.364899,-0.609222,0.369324,-115.65,44.825,-30.5667,-7094,-28892
378,62136,0,0,0,-124.585,-89.1211,-172.853,9.81436,-0.129199,-0.0861328,0.599335,0.364899,-0.609222,0.369324,-115.642,44.8167,-30.5917,-7094,-28892
384,62142,0,0,0,-124.585,-89.1211,-172.853,9.80957,-0.114844,-0.0765625,0.599335,0.364868,-0.609222,0.369324,-115.625,44.8167,-30.6583,-7094,-28892
390,62148,0,0,0,-124.585,-89.1211,-172.853,9.82393,-0.13877,-0.0957031,0.599335,0.364868,-0.609222,0.369293,-115.608,44.8083,-30.7,-7094,-28892
396,62154,0,0,0,-124.59,-89.1211,-172.853,9.82871,-0.110059,-0.0861328,0.599335,0.364868,-0.609222,0.369293,-115.583,44.8083,-30.7333,-7094,-28892
402,62160,0,0,0,-124.596,-89.1211,-172.853,9.80957,-0.119629,-0.090918,0.599365,0.364838,-0.609253,0.369263,-115.558,44.7833,-30.75,-7094,-28892
408,62166,0,0,0,-124.596,-89.1211,-172.853,9.81436,-0.110059,-0.0861328,0.599365,0.364807,-0.609253,0.369263,-115.533,44.7583,-30.7583,-7094,-28892
414,62172,0,0,0,-124.601,-89.1211,-172.853,9.80957,-0.119629,-0.105273,0.599396,0.364807,-0.609283,0.369232,-115.525,44.7417,-30.7417,-7094,-28892
420,62178,0,0,0,-124.607,-89.1211,-172.853,9.82393,-0.105273,-0.0861328,0.599396,0.364777,-0.609283,0.369202,-115.525,44.725,-30.7083,-7094,-28892
426,62184,0,0,0,-124.618,-89.1211,-172.853,9.80479,-0.133984,-0.090918,0.599426,0.364746,-0.609314,0.369171,-115.5,44.725,-30.6833,-7094,-28892
432,62190,0,0,0,-124.623,-89.1211,-172.853,9.81914,-0.114844,-0.0765625,0.599457,0.364685,-0.609344,0.36911,-115.492,44.6833,-30.6667,-7094,-28892
438,62196,0,0,0,-124.629,-89.1211,-172.853,9.81436,-0.110059,-0.0765625,0.599487,0.364655,-0.609344,0.36908,-115.492,44.675,-30.7083,-7094,-28892
444,62202,0,0,0,-124.634,-89.1211,-172.853,9.80957,-0.119629,-0.062207,0.599487,0.364624,-0.609375,0.369049,-115.517,44.6583,-30.7167,-7094,-28892
450,62208,0,0,0,-124.64,-89.1211,-172.853,9.80957,-0.119629,-0.0861328,0.599518,0.364624,-0.609375,0.369019,-115.542,44.6667,-30.7083,-7094,-28892
456,62214,0,0,0,-124.645,-89.1211,-172.853,9.80479,-0.14834,-0.105273,0.599518,0.364594,-0.609406,0.369019,-115.558,44.6833,-30.6833,-7094,-28892
462,62220,0,0,0,-124.651,-89.1211,-172.853,9.80957,-0.13877,-0.0669922,0.599548,0.364563,-0.609406,0.368988,-115.583,44.675,-30.6667,-7094,-28892
468,62226,0,0,0,-124.651,-89.1211,-172.853,9.80957,-0.124414,-0.0765625,0.599548,0.364563,-0.609436,0.368958,-115.6,44.65,-30.675,-7094,-28892
474,62232,0,0,0,-124.651,-89.1211,-172.853,9.80479,-0.119629,-0.0478516,0.599548,0.364563,-0.609436,0.368958,-115.608,44.6333,-30.7167,-7094,-28892
480,62238,0,0,0,-124.651,-89.1211,-172.853,9.8,-0.110059,-0.0861328,0.599548,0.364563,-0.609406,0.368988,-115.633,44.6083,-30.75,-7094,-28892
486,62244,0,0,0,-124.651,-89.1211,-172.853,9.79521,-0.110059,-0.105273,0.599548,0.364563,-0.609406,0.368988,-115.617,44.55,-30.7833,-7094,-28892
492,62250,0,0,0,-124.651,-89.1211,-172.853,9.77607,-0.114844,-0.0861328,0.599548,0.364563,-0.609406,0.368988,-115.633,44.55,-30.775,-7094,-28892
498,62256,0,0,0,-124.651,-89.1211,-172.853,9.79521,-0.100488,-0.0861328,0.599548,0.364563,-0.609436,0.368958,-115.65,44.5333,-30.75,-7094,-28892
504,62262,0,0,0,-124.651,-89.1211,-172.853,9.82393,-0.133984,-0.062207,0.599548,0.364532,-0.609436,0.368958,-115.667,44.525,-30.725,-7094,-28892
510,62268,0,0,0,-124.651,-89.1211,-172.853,9.80957,-0.129199,-0.119629,0.599548,0.364532,-0.609436,0.368958,-115.683,44.5333,-30.725,-7094,-28892
516,62274,0,0,0,-124.651,-89.1211,-172.853,9.8,-0.119629,-0.0813477,0.599548,0.364532,-0.609436,0.368958,-115.692,44.6,-30.7667,-7094,-28892
522,62280,0,0,0,-124.656,-89.1211,-172.853,9.81914,-0.143555,-0.062207,0.599548,0.364502,-0.609436,0.368927,-115.683,44.625,-30.825,-7094,-28892
528,62286,0,0,0,-124.656,-89.1211,-172.853,9.8335,-0.133984,-0.105273,0.599579,0.364502,-0.609436,0.368927,-115.658,44.6583,-30.85,-7094,-28892
534,62292,0,0,0,-124.656,-89.1211,-172.853,9.81914,-0.14834,-0.0861328,0.599579,0.364502,-0.609436,0.368927,-115.633,44.6667,-30.8333,-7094,-28892
540,62298,0,0,0,-124.656,-89.1211,-172.853,9.8,-0.105273,-0.0861328,0.599579,0.364502,-0.609467,0.368927,-115.6,44.6583,-30.7833,-7094,-28892
546,62304,0,0,0,-124.662,-89.1211,-172.853,9.79521,-0.14834,-0.090918,0.599579,0.364502,-0.609467,0.368896,-115.608,44.6917,-30.6333,-7094,-28892
552,62310,0,0,0,-124.662,-89.1211,-172.853,9.80479,-0.090918,-0.0813477,0.599579,0.364471,-0.609467,0.368896,-115.625,44.725,-30.5833,-7094,-28892
558,62316,0,0,0,-124.667,-89.1211,-172.853,9.79043,-0.105273,-0.090918,0.599579,0.364471,-0.609467,0.368896,-115.65,44.7583,-30.5583,-7094,-28892
564,62322,0,0,0,-124.667,-89.1211,-172.853,9.81436,-0.143555,-0.0669922,0.599609,0.364441,-0.609467,0.368866,-115.683,44.775,-30.5417,-7094,-28892
570,62328,0,0,0,-124.667,-89.1211,-172.853,9.80957,-0.124414,-0.105273,0.599609,0.364441,-0.609497,0.368866,-115.708,44.7667,-30.5833,-7094,-28892
576,62334,0,0,0,-124.673,-89.1211,-172.853,9.81436,-0.110059,-0.090918,0.599609,0.364441,-0.609497,0.368866,-115.708,44.775,-30.65,-7094,-28892
582,62340,0,0,0,-124.678,-89.1211,-172.853,9.80957,-0.129199,-0.0717773,0.59964,0.36441,-0.609497,0.368835,-115.7,44.775,-30.7167,-7094,-28892
588,62346,0,0,0,-124.678,-89.1211,-172.853,9.81914,-0.143555,-0.0813477,0.59964,0.36441,-0.609497,0.368835,-115.683,44.775,-30.7833,-7094,-28892
594,62352,0,0,0,-124.678,-89.1211,-172.853,9.81914,-0.13877,-0.0813477,0.59964,0.36441,-0.609497,0.368835,-115.675,44.7833,-30.8583,-7094,-28892
600,62358,0,0,0,-124.678,-89.1211,-172.853,9.81914,-0.129199,-0.090918,0.59964,0.36441,-0.609497,0.368835,-115.667,44.775,-30.9167,-7094,-28892
606,62364,0,0,0,-124.678,-89.1211,-172.853,9.80957,-0.110059,-0.0861328,0.59964,0.36441,-0.609497,0.368835,-115.642,44.7583,-30.9167,-7094,-28892
612,62370,0,0,0,-124.678,-89.1211,-172.853,9.80479,-0.124414,-0.0861328,0.59964,0.36441,-0.609528,0.368835,-115.633,44.7583,-30.9,-7102,-28891
618,62376,0,0,0,-124.678,-89.1211,-172.853,9.81914,-0.129199,-0.0957031,0.59964,0.36441,-0.609528,0.368805,-115.625,44.7667,-30.9,-7102,-28891
624,62382,0,0,0,-124.678,-89.1211,-172.853,9.80479,-0.124414,-0.062207,0.59964,0.36438,-0.609528,0.368805,-115.617,44.775,-30.9,-7102,-28891
630,62388,0,0,0,-124.678,-89.1211,-172.853,9.80957,-0.100488,-0.0765625,0.59964,0.36438,-0.609528,0.368805,-115.6,44.7833,-30.8917,-7102,-28891
636,62394,0,0,0,-124.678,-89.1211,-172.853,9.81436,-0.119629,-0.0861328,0.59964,0.36438,-0.609528,0.368805,-115.567,44.7583,-30.8917,-7102,-28891
642,62400,0,0,0,-124.684,-89.1211,-172.853,9.81914,-0.110059,-0.0526367,0.59964,0.36438,-0.609528,0.368805,-115.55,44.75,-30.8833,-7102,-28891
648,62406,0,0,0,-124.684,-89.1211,-172.853,9.82871,-0.0813477,-0.090918,0.59964,0.36438,-0.609528,0.368805,-115.533,44.7417,-30.875,-7102,-28891
654,62412,0,0,0,-124.684,-89.1211,-172.853,9.80957,-0.105273,-0.0669922,0.59964,0.36438,-0.609528,0.368774,-115.533,44.7333,-30.8583,-7102,-28891
660,62418,0,0,0,-124.684,-89.1211,-172.853,9.82393,-0.143555,-0.0861328,0.59964,0.364349,-0.609528,0.368774,-115.542,44.7333,-30.8333,-7102,-28891
666,62424,0,0,0,-124.689,-89.1211,-172.853,9.79043,-0.119629,-0.0861328,0.59967,0.364349,-0.609528,0.368774,-115.558,44.75,-30.7583,-7102,-28891
672,62430,0,0,0,-124.689,-89.1211,-172.853,9.8,-0.133984,-0.0765625,0.59967,0.364349,-0.609558,0.368774,-115.583,44.7667,-30.775,-7102,-28891
678,62436,0,0,0,-124.689,-89.1211,-172.853,9.80957,-0.119629,-0.0669922,0.59967,0.364349,-0.609558,0.368744,-115.592,44.7667,-30.8,-7102,-28891
684,62442,0,0,0,-124.689,-89.1211,-172.853,9.81436,-0.119629,-0.0717773,0.59967,0.364349,-0.609558,0.368744,-115.583,44.7583,-30.8,-7102,-28891
690,62448,0,0,0,-124.689,-89.1211,-172.853,9.80479,-0.110059,-0.0526367,0.59967,0.364349,-0.609558,0.368744,-115.592,44.75,-30.7583,-7102,-28891
696,62454,0,0,0,-124.684,-89.1211,-172.853,9.79521,-0.114844,-0.0765625,0.59967,0.364349,-0.609558,0.368774,-115.575,44.775,-30.7,-7102,-28891
702,62460,0,0,0,-124.684,-89.1211,-172.853,9.80479,-0.110059,-0.0813477,0.59964,0.364349,-0.609528,0.368774,-115.575,44.7833,-30.65,-7102,-28891
708,62466,0,0,0,-124.684,-89.1211,-172.853,9.81914,-0.129199,-0.0861328,0.59964,0.36438,-0.609528,0.368774,-115.567,44.8,-30.6667,-7102,-28891
714,62472,0,0,0,-124.684,-89.1211,-172.853,9.8,-0.110059,-0.0669922,0.59964,0.36438,-0.609528,0.368805,-115.575,44.825,-30.6417,-7102,-28891
720,62478,0,0,0,-124.678,-89.1211,-172.853,9.80957,-0.114844,-0.0574219,0.59964,0.36438,-0.609528,0.368805,-115.575,44.8417,-30.6167,-7102,-28891
726,62484,0,0,0,-124.678,-89.1211,-172.853,9.80957,-0.133984,-0.100488,0.59964,0.36441,-0.609528,0.368805,-115.575,44.875,-30.6167,-7102,-28891
732,62490,0,0,0,-124.673,-89.1211,-172.853,9.81914,-0.124414,-0.0813477,0.599609,0.364441,-0.609497,0.368835,-115.6,44.8583,-30.6167,-7102,-28891
738,62496,0,0,0,-124.673,-89.1211,-172.853,9.80957,-0.114844,-0.0765625,0.599609,0.364441,-0.609497,0.368866,-115.633,44.85,-30.6333,-7102,-28891
744,62502,0,0,0,-124.667,-89.1211,-172.853,9.79043,-0.129199,-0.062207,0.599609,0.364441,-0.609467,0.368866,-115.65,44.875,-30.6417,-7102,-28891
750,62508,0,0,0,-124.662,-89.1211,-172.853,9.81436,-0.100488,-0.100488,0.599579,0.364471,-0.609467,0.368896,-115.658,44.875,-30.625,-7102,-28891
756,62514,0,0,0,-124.662,-89.1211,-172.853,9.81436,-0.105273,-0.062207,0.599579,0.364502,-0.609467,0.368896,-115.675,44.9333,-30.575,-7102,-28891
762,62520,0,0,0,-124.656,-89.1211,-172.853,9.8,-0.124414,-0.062207,0.599579,0.364502,-0.609436,0.368927,-115.683,44.9167,-30.5583,-7102,-28891
768,62526,0,0,0,-124.656,-89.1211,-172.853,9.8,-0.13877,-0.0957031,0.599579,0.364532,-0.609436,0.368927,-115.7,44.9,-30.575,-7102,-28891
774,62532,0,0,0,-124.651,-89.1211,-172.853,9.81436,-0.13877,-0.0957031,0.599548,0.364532,-0.609436,0.368958,-115.717,44.9,-30.6083,-7102,-28891
780,62538,0,0,0,-124.651,-89.1211,-172.853,9.80957,-0.16748,-0.0957031,0.599548,0.364563,-0.609406,0.368958,-115.733,44.875,-30.6333,-7102,-28891
786,62544,0,0,0,-124.645,-89.1211,-172.853,9.80957,-0.13877,-0.100488,0.599548,0.364563,-0.609406,0.368988,-115.725,44.875,-30.6417,-7102,-28891
792,62550,0,0,0,-124.645,-89.1211,-172.853,9.81914,-0.129199,-0.0717773,0.599518,0.364594,-0.609406,0.368988,-115.7,44.8583,-30.65,-7102,-28891
798,62556,0,0,0,-124.64,-89.1211,-172.853,9.80479,-0.110059,-0.062207,0.599518,0.364594,-0.609375,0.369019,-115.667,44.8417,-30.65,-7102,-28891
804,62562,0,0,0,-124.634,-89.1211,-172.853,9.82393,-0.110059,-0.062207,0.599518,0.364624,-0.609375,0.369049,-115.633,44.825,-30.6833,-7102,-28891
810,62568,0,0,0,-124.634,-89.1211,-172.853,9.80957,-0.13877,-0.110059,0.599487,0.364655,-0.609375,0.369049,-115.592,44.825,-30.7333,-7102,-28891
816,62574,0,0,0,-124.629,-89.1211,-172.853,9.79043,-0.13877,-0.0765625,0.599487,0.364685,-0.609344,0.36908,-115.558,44.8417,-30.8083,-7102,-28891
822,62580,0,0,0,-124.623,-89.1211,-172.853,9.82393,-0.124414,-0.062207,0.599457,0.364685,-0.609314,0.36911,-115.542,44.8333,-30.8333,-7102,-28891
828,62586,0,0,0,-124.618,-89.1211,-172.853,9.81436,-0.110059,-0.090918,0.599426,0.364716,-0.609314,0.369141,-115.533,44.825,-30.85,-7102,-28891
834,62592,0,0,0,-124.612,-89.1211,-172.853,9.82393,-0.119629,-0.0861328,0.599426,0.364746,-0.609283,0.369171,-115.525,44.8167,-30.8667,-7102,-28891
840,62598,0,0,0,-124.607,-89.1211,-172.853,9.78564,-0.133984,-0.090918,0.599426,0.364777,-0.609283,0.369171,-115.517,44.7917,-30.8583,-7102,-28891
846,62604,0,0,0,-124.601,-89.1211,-172.853,9.8,-0.105273,-0.090918,0.599396,0.364807,-0.609253,0.369232,-115.517,44.7583,-30.8,-7102,-28891
852,62610,0,0,0,-124.596,-89.1211,-172.853,9.82393,-0.124414,-0.0957031,0.599396,0.364807,-0.609253,0.369232,-115.525,44.7417,-30.7583,-7102,-28891
858,62616,0,0,0,-124.596,-89.1211,-172.853,9.81914,-0.119629,-0.0717773,0.599365,0.364838,-0.609253,0.369263,-115.533,44.7417,-30.75,-7102,-28891
864,62622,0,0,0,-124.59,-89.1211,-172.853,9.82871,-0.119629,-0.100488,0.599365,0.364838,-0.609222,0.369263,-115.533,44.75,-30.775,-7102,-28891
870,62628,0,0,0,-124.59,-89.1211,-172.853,9.8335,-0.114844,-0.0717773,0.599365,0.364868,-0.609222,0.369263,-115.542,44.7583,-30.8167,-7102,-28891
876,62634,0,0,0,-124.59,-89.1211,-172.853,9.82871,-0.100488,-0.0717773,0.599365,0.364868,-0.609222,0.369293,-115.55,44.75,-30.925,-7102,-28891
882,62640,0,0,0,-124.585,-89.1211,-172.853,9.81914,-0.13877,-0.0717773,0.599365,0.364868,-0.609222,0.369293,-115.558,44.7333,-30.95,-7102,-28891
888,62646,0,0,0,-124.585,-89.1211,-172.853,9.81436,-0.133984,-0.0765625,0.599335,0.364868,-0.609222,0.369293,-115.558,44.7083,-30.95,-7102,-28891
894,62652,0,0,0,-124.585,-89.1211,-172.853,9.82393,-0.110059,-0.0669922,0.599335,0.364899,-0.609192,0.369324,-115.542,44.675,-30.9583,-7102,-28891
900,62658,0,0,0,-124.579,-89.1211,-172.853,9.81914,-0.133984,-0.0813477,0.599335,0.364899,-0.609192,0.369324,-115.533,44.65,-30.975,-7102,-28891
906,62664,0,0,0,-124.574,-89.1211,-172.853,9.82871,-0.133984,-0.090918,0.599304,0.364929,-0.609192,0.369354,-115.5,44.6,-30.9833,-7102,-28891
912,62670,0,0,0,-124.574,-89.1211,-172.853,9.8,-0.133984,-0.0526367,0.599304,0.36496,-0.609161,0.369354,-115.483,44.6,-31,-7102,-28891
918,62676,0,0,0,-124.568,-89.1211,-172.853,9.82393,-0.133984,-0.062207,0.599304,0.36496,-0.609161,0.369385,-115.458,44.5917,-30.9667,-7102,-28891
924,62682,0,0,0,-124.563,-89.1211,-172.853,9.80479,-0.129199,-0.0526367,0.599274,0.36499,-0.609131,0.369415,-115.45,44.5833,-30.9333,-7102,-28891
930,62688,0,0,0,-124.557,-89.1211,-172.853,9.8335,-0.110059,-0.0574219,0.599243,0.365021,-0.609131,0.369446,-115.442,44.5917,-30.8917,-7102,-28891
936,62694,0,0,0,-124.541,-89.1211,-172.853,9.84785,-0.114844,-0.090918,0.599213,0.365112,-0.60907,0.369537,-115.475,44.5667,-30.8167,-7102,-28891
942,62700,0,0,0,-124.541,-89.1211,-172.853,9.84307,-0.143555,-0.062207,0.599182,0.365143,-0.60907,0.369568,-115.492,44.5583,-30.8,-7102,-28891
948,62706,0,0,0,-124.53,-89.1211,-172.853,9.82871,-0.13877,-0.0813477,0.599182,0.365173,-0.609039,0.369598,-115.508,44.5417,-30.8,-7102,-28891
954,62712,0,0,0,-124.525,-89.1211,-172.853,9.81914,-0.133984,-0.105273,0.599152,0.365204,-0.609009,0.369629,-115.517,44.5417,-30.8,-7102,-28891
960,62718,0,0,0,-124.519,-89.1211,-172.853,9.79521,-0.114844,-0.0861328,0.599121,0.365234,-0.609009,0.369659,-115.525,44.5417,-30.7833,-7102,-28891
966,62724,0,0,0,-124.508,-89.1211,-172.853,9.81436,-0.110059,-0.0669922,0.599091,0.365295,-0.608948,0.36972,-115.533,44.5333,-30.7583,-7102,-28891
972,62730,0,0,0,-124.503,-89.1211,-172.853,9.81436,-0.100488,-0.0765625,0.599091,0.365326,-0.608948,0.369751,-115.542,44.55,-30.7333,-7102,-28891
978,62736,0,0,0,-124.497,-89.1211,-172.853,9.81914,-0.114844,-0.0813477,0.59906,0.365326,-0.608917,0.369751,-115.533,44.55,-30.7,-7102,-28891
984,62742,0,0,0,-124.497,-89.1211,-172.853,9.81436,-0.129199,-0.0813477,0.59906,0.365356,-0.608917,0.369781,-115.508,44.5583,-30.7,-7102,-28891
990,62748,0,0,0,-124.492,-89.1211,-172.853,9.82871,-0.133984,-0.0669922,0.59906,0.365387,-0.608917,0.369812,-115.458,44.575,-30.7167,-7102,-28891
996,62754,0,0,0,-124.481,-89.1211,-172.848,9.81436,-0.13877,-0.0717773,0.59903,0.365448,-0.608856,0.369873,-115.342,44.625,-30.7083,-7102,-28891
1002,62760,0,0,0,-124.475,-89.1211,-172.848,9.81436,-0.119629,-0.0957031,0.598999,0.365479,-0.608856,0.369904,-115.317,44.6667,-30.6833,-7102,-28891
1008,62766,0,0,0,-124.47,-89.1211,-172.853,9.80957,-0.119629,-0.0717773,0.598969,0.365479,-0.608826,0.369904,-115.283,44.7,-30.6417,-7102,-28891
1014,62772,0,0,0,-124.464,-89.1211,-172.853,9.81914,-0.14834,-0.105273,0.598969,0.365509,-0.608826,0.369934,-115.25,44.725,-30.6167,-7102,-28891
1020,62778,0,0,0,-124.464,-89.1211,-172.853,9.81436,-0.14834,-0.0765625,0.598938,0.36554,-0.608795,0.369965,-115.242,44.7333,-30.575,-7102,-28891
1026,62784,0,0,0,-124.453,-89.1211,-172.853,9.8,-0.110059,-0.062207,0.598907,0.365601,-0.608765,0.370026,-115.225,44.75,-30.55,-7102,-28891
1032,62790,0,0,0,-124.442,-89.1211,-172.853,9.80957,-0.129199,-0.0813477,0.598907,0.365631,-0.608765,0.370056,-115.217,44.7667,-30.525,-7102,-28891
1038,62796,0,0,0,-124.437,-89.1211,-172.853,9.82393,-0.100488,-0.0765625,0.598877,0.365662,-0.608734,0.370087,-115.2,44.7917,-30.575,-7102,-28891
1044,62802,0,0,0,-124.431,-89.1211,-172.853,9.82393,-0.119629,-0.0669922,0.598846,0.365692,-0.608704,0.370117,-115.192,44.7917,-30.6333,-7102,-28891
1050,62808,0,0,0,-124.426,-89.1211,-172.853,9.79043,-0.13877,-0.090918,0.598846,0.365723,-0.608704,0.370148,-115.183,44.7833,-30.7,-7102,-28891
1056,62814,0,0,0,-124.415,-89.1211,-172.853,9.82393,-0.13877,-0.0957031,0.598816,0.365784,-0.608673,0.370209,-115.167,44.7833,-30.775,-7102,-28891
1062,62820,0,0,0,-124.409,-89.1211,-172.853,9.82393,-0.133984,-0.100488,0.598785,0.365814,-0.608643,0.370239,-115.183,44.7917,-30.775,-7102,-28891
1068,62826,0,0,0,-124.404,-89.1211,-172.853,9.81436,-0.119629,-0.090918,0.598785,0.365814,-0.608643,0.37027,-115.175,44.8,-30.7417,-7102,-28891
1074,62832,0,0,0,-124.404,-89.1211,-172.853,9.81914,-0.129199,-0.0813477,0.598755,0.365845,-0.608612,0.37027,-115.183,44.8167,-30.7333,-7094,-28892
1080,62838,0,0,0,-124.398,-89.1211,-172.853,9.80957,-0.133984,-0.0957031,0.598755,0.365875,-0.608612,0.3703,-115.208,44.8417,-30.7083,-7094,-28892
1086,62844,0,0,0,-124.393,-89.1211,-172.853,9.82393,-0.124414,-0.0813477,0.598724,0.365906,-0.608582,0.370361,-115.233,44.8667,-30.7083,-7094,-28892
1092,62850,0,0,0,-124.387,-89.1211,-172.853,9.81914,-0.133984,-0.0717773,0.598694,0.365936,-0.608551,0.370361,-115.242,44.8833,-30.7083,-7094,-28892
1098,62856,0,0,0,-124.382,-89.1211,-172.853,9.8335,-0.13877,-0.0957031,0.598694,0.365967,-0.608551,0.370392,-115.242,44.9083,-30.6917,-7094,-28892
1104,62862,0,0,0,-124.376,-89.1211,-172.853,9.80957,-0.13877,-0.0717773,0.598663,0.365997,-0.608521,0.370422,-115.25,44.9083,-30.65,-7094,-28892
1110,62868,0,0,0,-124.365,-89.1211,-172.853,9.80957,-0.129199,-0.0813477,0.598663,0.366028,-0.608521,0.370453,-115.242,44.9167,-30.6417,-7094,-28892
1116,62874,0,0,0,-124.36,-89.1211,-172.853,9.80957,-0.13877,-0.0765625,0.598633,0.366058,-0.60849,0.370514,-115.225,44.9083,-30.6583,-7094,-28892
1122,62880,0,0,0,-124.354,-89.1211,-172.853,9.82393,-0.13877,-0.110059,0.598602,0.366089,-0.608459,0.370544,-115.2,44.9167,-30.675,-7094,-28892
1128,62886,0,0,0,-124.349,-89.1211,-172.853,9.82871,-0.119629,-0.0861328,0.598602,0.366119,-0.608459,0.370575,-115.175,44.9417,-30.7083,-7094,-28892
1134,62892,0,0,0,-124.343,-89.1211,-172.853,9.81914,-0.13877,-0.0717773,0.598572,0.36615,-0.608429,0.370575,-115.158,44.9583,-30.75,-7094,-28892
1140,62898,0,0,0,-124.332,-89.1211,-172.853,9.82871,-0.114844,-0.0717773,0.598572,0.36618,-0.608429,0.370605,-115.158,44.9917,-30.7417,-7094,-28892
1146,62904,0,0,0,-124.332,-89.1211,-172.853,9.82393,-0.114844,-0.062207,0.598541,0.366211,-0.608398,0.370667,-115.217,45,-30.75,-7094,-28892
1152,62910,0,0,0,-124.327,-89.1211,-172.853,9.81914,-0.100488,-0.0669922,0.598511,0.366241,-0.608368,0.370697,-115.258,44.9917,-30.75,-7094,-28892
1158,62916,0,0,0,-124.321,-89.1211,-172.853,9.79521,-0.124414,-0.0813477,0.598511,0.366272,-0.608368,0.370697,-115.283,44.9917,-30.7917,-7094,-28892
1164,62922,0,0,0,-124.316,-89.1211,-172.853,9.79043,-0.129199,-0.0717773,0.59848,0.366272,-0.608337,0.370728,-115.292,44.975,-30.8,-7094,-28892
1170,62928,0,0,0,-124.31,-89.1211,-172.853,9.80957,-0.119629,-0.0669922,0.59848,0.366302,-0.608337,0.370758,-115.3,44.9667,-30.85,-7094,-28892
1176,62934,0,0,0,-124.305,-89.1211,-172.853,9.79521,-0.114844,-0.0765625,0.59845,0.366364,-0.608307,0.370789,-115.317,44.9833,-30.875,-7094,-28892
1182,62940,0,0,0,-124.299,-89.1211,-172.853,9.80957,-0.110059,-0.0813477,0.59845,0.366364,-0.608307,0.370819,-115.35,44.9917,-30.8917,-7094,-28892
1188,62946,0,0,0,-124.299,-89.1211,-172.853,9.79043,-0.124414,-0.0861328,0.598419,0.366394,-0.608276,0.370819,-115.367,45,-30.8667,-7094,-28892
1194,62952,0,0,0,-124.294,-89.1211,-172.853,9.81436,-0.143555,-0.0717773,0.598419,0.366394,-0.608276,0.37085,-115.383,45,-30.8417,-7094,-28892
1200,62958,0,0,0,-124.288,-89.1211,-172.853,9.80957,-0.105273,-0.0717773,0.598419,0.366425,-0.608276,0.37085,-115.375,44.9917,-30.8,-7094,-28892
1206,62964,0,0,0,-124.288,-89.1211,-172.853,9.80479,-0.15791,-0.0957031,0.598389,0.366455,-0.608246,0.37088,-115.333,44.9583,-30.775,-7094,-28892
1212,62970,0,0,0,-124.283,-89.1211,-172.853,9.80957,-0.124414,-0.090918,0.598389,0.366455,-0.608246,0.370911,-115.308,44.9417,-30.7833,-7094,-28892
1218,62976,0,0,0,-124.283,-89.1211,-172.853,9.81914,-0.119629,-0.0813477,0.598358,0.366486,-0.608215,0.370911,-115.292,44.9417,-30.8083,-7094,-28892
1224,62982,0,0,0,-124.277,-89.1211,-172.853,9.82871,-0.124414,-0.062207,0.598358,0.366486,-0.608215,0.370941,-115.275,44.9333,-30.825,-7094,-28892
1230,62988,0,0,0,-124.272,-89.1211,-172.853,9.80957,-0.124414,-0.0765625,0.598358,0.366516,-0.608215,0.370941,-115.258,44.9167,-30.8167,-7094,-28892
1236,62994,0,0,0,-124.266,-89.1211,-172.853,9.81436,-0.105273,-0.0765625,0.598328,0.366547,-0.608185,0.371002,-115.25,44.9083,-30.8,-7094,-28892
1242,63000,0,0,0,-124.266,-89.1211,-172.853,9.81914,-0.13877,-0.0669922,0.598328,0.366547,-0.608185,0.371002,-115.258,44.9083,-30.8,-7094,-28892
1248,63006,0,0,0,-124.261,-89.1211,-172.853,9.82871,-0.129199,-0.0717773,0.598297,0.366577,-0.608154,0.371033,-115.258,44.9167,-30.7917,-7094,-28892
1254,63012,0,0,0,-124.255,-89.1211,-172.853,9.80957,-0.114844,-0.0717773,0.598297,0.366608,-0.608154,0.371063,-115.258,44.9083,-30.7917,-7094,-28892
1260,63018,0,0,0,-124.244,-89.1211,-172.853,9.82871,-0.14834,-0.0813477,0.598267,0.366638,-0.608124,0.371063,-115.267,44.8667,-30.8,-7094,-28892
1266,63024,0,0,0,-124.239,-89.1211,-172.853,9.82393,-0.114844,-0.100488,0.598236,0.366669,-0.608093,0.371124,-115.283,44.8417,-30.8333,-7094,-28892
1272,63030,0,0,0,-124.239,-89.1211,-172.853,9.80479,-0.124414,-0.0669922,0.598236,0.366699,-0.608093,0.371155,-115.3,44.825,-30.8667,-7094,-28892
1278,63036,0,0,0,-124.233,-89.1211,-172.853,9.79043,-0.143555,-0.090918,0.598236,0.36673,-0.608063,0.371185,-115.292,44.825,-30.9,-7094,-28892
1284,63042,0,0,0,-124.228,-89.1211,-172.853,9.80957,-0.110059,-0.0813477,0.598206,0.36673,-0.608063,0.371185,-115.25,44.8333,-30.9167,-7094,-28892
1290,63048,0,0,0,-124.222,-89.1211,-172.853,9.82393,-0.110059,-0.0765625,0.598206,0.36676,-0.608063,0.371216,-115.217,44.8417,-30.9333,-7094,-28892
1296,63054,0,0,0,-124.217,-89.1211,-172.853,9.79521,-0.124414,-0.062207,0.598175,0.366791,-0.608032,0.371246,-115.217,44.8333,-30.9417,-7094,-28892
1302,63060,0,0,0,-124.211,-89.1211,-172.853,9.79521,-0.124414,-0.100488,0.598175,0.366821,-0.608002,0.371277,-115.225,44.8333,-30.9417,-7094,-28892
1308,63066,0,0,0,-124.211,-89.1211,-172.853,9.80479,-0.133984,-0.0861328,0.598145,0.366821,-0.608002,0.371277,-115.258,44.825,-30.9167,-7094,-28892
1314,63072,0,0,0,-124.211,-89.1211,-172.853,9.80479,-0.114844,-0.062207,0.598145,0.366852,-0.608002,0.371307,-115.275,44.8333,-30.8833,-7094,-28892
1320,63078,0,0,0,-124.2,-89.1211,-172.853,9.82393,-0.124414,-0.0717773,0.598145,0.366882,-0.607971,0.371338,-115.267,44.7833,-30.7333,-7094,-28892
1326,63084,0,0,0,-124.195,-89.1211,-172.853,9.81914,-0.119629,-0.0957031,0.598114,0.366913,-0.607971,0.371368,-115.258,44.775,-30.6667,-7094,-28892
1332,63090,0,0,0,-124.195,-89.1211,-172.853,9.8335,-0.105273,-0.062207,0.598114,0.366913,-0.607941,0.371368,-115.242,44.7333,-30.6,-7094,-28892
1338,63096,0,0,0,-124.195,-89.1211,-172.853,9.80479,-0.13877,-0.0765625,0.598083,0.366943,-0.607941,0.371399,-115.217,44.7167,-30.5917,-7094,-28892
1344,63102,0,0,0,-124.189,-89.1211,-172.853,9.80479,-0.090918,-0.0813477,0.598083,0.366943,-0.607941,0.371399,-115.208,44.7167,-30.5917,-7094,-28892
1350,63108,0,0,0,-124.184,-89.1211,-172.853,9.81436,-0.129199,-0.0813477,0.598083,0.366974,-0.60791,0.371429,-115.2,44.7,-30.675,-7094,-28892
1356,63114,0,0,0,-124.184,-89.1211,-172.853,9.81436,-0.119629,-0.0861328,0.598053,0.367004,-0.60791,0.37146,-115.192,44.6917,-30.7083,-7094,-28892
1362,63120,0,0,0,-124.178,-89.1211,-172.853,9.80957,-0.119629,-0.0957031,0.598053,0.367004,-0.60791,0.37146,-115.2,44.7,-30.7667,-7094,-28892
1368,63126,0,0,0,-124.178,-89.1211,-172.853,9.82393,-0.129199,-0.0717773,0.598053,0.367004,-0.60788,0.37146,-115.2,44.7083,-30.7917,-7094,-28892
1374,63132,0,0,0,-124.173,-89.1211,-172.853,9.8,-0.143555,-0.110059,0.598022,0.367035,-0.60788,0.37149,-115.2,44.7333,-30.8417,-7094,-28892
1380,63138,0,0,0,-124.173,-89.1211,-172.853,9.82871,-0.110059,-0.0717773,0.598022,0.367035,-0.60788,0.37149,-115.217,44.7667,-30.875,-7094,-28892
1386,63144,0,0,0,-124.173,-89.1211,-172.853,9.80479,-0.105273,-0.0765625,0.598022,0.367065,-0.60788,0.371521,-115.25,44.7917,-30.8917,-7094,-28892
1392,63150,0,0,0,-124.167,-89.1211,-172.853,9.81436,-0.14834,-0.062207,0.598022,0.367065,-0.607849,0.371521,-115.275,44.8,-30.8917,-7094,-28892
1398,63156,0,0,0,-124.162,-89.1211,-172.853,9.81436,-0.105273,-0.0765625,0.597992,0.367096,-0.607849,0.371552,-115.3,44.8083,-30.9333,-7094,-28892
1404,63162,0,0,0,-124.162,-89.1211,-172.853,9.79043,-0.129199,-0.0717773,0.597992,0.367096,-0.607849,0.371552,-115.292,44.8,-30.975,-7094,-28892
1410,63168,0,0,0,-124.151,-89.1211,-172.853,9.81436,-0.105273,-0.0574219,0.597992,0.367126,-0.607819,0.371582,-115.208,44.7583,-31.05,-7102,-28891
1416,63174,0,0,0,-124.151,-89.1211,-172.853,9.8335,-0.119629,-0.0813477,0.597961,0.367157,-0.607788,0.371613,-115.175,44.7417,-31.0333,-7102,-28891
1422,63180,0,0,0,-124.146,-89.1211,-172.853,9.82393,-0.129199,-0.090918,0.597931,0.367188,-0.607788,0.371643,-115.167,44.7417,-31.0167,-7102,-28891
1428,63186,0,0,0,-124.14,-89.1211,-172.853,9.8,-0.124414,-0.0574219,0.597931,0.367218,-0.607758,0.371674,-115.158,44.7583,-31.0083,-7102,-28891
1434,63192,0,0,0,-124.135,-89.1211,-172.853,9.8335,-0.129199,-0.0861328,0.597931,0.367218,-0.607758,0.371674,-115.175,44.7833,-31.0167,-7102,-28891
1440,63198,0,0,0,-124.129,-89.1211,-172.853,9.82871,-0.13877,-0.090918,0.5979,0.367249,-0.607727,0.371704,-115.192,44.8417,-31.0167,-7102,-28891
1446,63204,0,0,0,-124.124,-89.1211,-172.853,9.80957,-0.119629,-0.110059,0.59787,0.36731,-0.607727,0.371765,-115.217,44.875,-31.05,-7102,-28891
1452,63210,0,0,0,-124.124,-89.1211,-172.853,9.80479,-0.114844,-0.0669922,0.59787,0.36731,-0.607697,0.371765,-115.233,44.8917,-31.075,-7102,-28891
1458,63216,0,0,0,-124.118,-89.1211,-172.853,9.80957,-0.124414,-0.0765625,0.59787,0.36731,-0.607697,0.371765,-115.25,44.9167,-31.125,-7102,-28891
1464,63222,0,0,0,-124.118,-89.1211,-172.853,9.82871,-0.129199,-0.0813477,0.59787,0.36734,-0.607697,0.371796,-115.275,44.9333,-31.2,-7102,-28891
1470,63228,0,0,0,-124.113,-89.1211,-172.853,9.83828,-0.110059,-0.0813477,0.597839,0.36734,-0.607697,0.371796,-115.308,44.975,-31.3167,-7102,-28891
1476,63234,0,0,0,-124.113,-89.1211,-172.853,9.80479,-0.124414,-0.090918,0.597839,0.367371,-0.607666,0.371826,-115.317,44.9917,-31.3167,-7102,-28891
1482,63240,0,0,0,-124.107,-89.1211,-172.853,9.80957,-0.119629,-0.0717773,0.597839,0.367371,-0.607666,0.371826,-115.333,45,-31.3,-7102,-28891
1488,63246,0,0,0,-124.107,-89.1211,-172.853,9.81436,-0.133984,-0.0765625,0.597809,0.367401,-0.607666,0.371857,-115.367,44.9833,-31.275,-7102,-28891
1494,63252,0,0,0,-124.107,-89.1211,-172.853,9.80479,-0.114844,-0.0861328,0.597809,0.367401,-0.607635,0.371857,-115.383,44.975,-31.2333,-7102,-28891
1500,63258,0,0,0,-124.102,-89.1211,-172.853,9.8335,-0.114844,-0.0717773,0.597809,0.367401,-0.607635,0.371857,-115.408,44.9333,-31.1833,-7102,-28891
1506,63264,0,0,0,-124.102,-89.1211,-172.853,9.80479,-0.114844,-0.100488,0.597809,0.367432,-0.607635,0.371887,-115.392,44.9167,-31.15,-7102,-28891
1512,63270,0,0,0,-124.102,-89.1211,-172.853,9.8335,-0.133984,-0.0861328,0.597809,0.367432,-0.607635,0.371887,-115.367,44.9083,-31.1333,-7102,-28891
1518,63276,0,0,0,-124.102,-89.1211,-172.853,9.79043,-0.124414,-0.0717773,0.597809,0.367432,-0.607635,0.371887,-115.35,44.9083,-31.125,-7102,-28891
1524,63282,0,0,0,-124.096,-89.1211,-172.853,9.81436,-0.13877,-0.090918,0.597778,0.367432,-0.607635,0.371887,-115.317,44.9083,-31.1417,-7102,-28891
1530,63288,0,0,0,-124.096,-89.1211,-172.853,9.85264,-0.124414,-0.105273,0.597778,0.367432,-0.607635,0.371887,-115.292,44.9333,-31.2333,-7094,-28892
1536,63294,0,0,0,-124.096,-89.1211,-172.853,9.82871,-0.124414,-0.0957031,0.597778,0.367432,-0.607635,0.371887,-115.308,44.925,-31.25,-7094,-28892
1542,63300,0,0,0,-124.102,-89.1211,-172.853,9.8335,-0.124414,-0.0861328,0.597809,0.367432,-0.607635,0.371887,-115.317,44.9,-31.2583,-7102,-28891
1548,63306,0,0,0,-124.102,-89.1211,-172.853,9.80479,-0.114844,-0.0813477,0.597809,0.367432,-0.607635,0.371887,-115.317,44.8833,-31.2583,-7102,-28891
1554,63312,0,0,0,-124.102,-89.1211,-172.853,9.82393,-0.129199,-0.0717773,0.597809,0.367401,-0.607635,0.371857,-115.308,44.85,-31.225,-7102,-28891
1560,63318,0,0,0,-124.107,-89.1211,-172.853,9.80957,-0.110059,-0.0765625,0.597809,0.367401,-0.607635,0.371857,-115.267,44.8,-31.175,-7102,-28891
1566,63324,0,0,0,-124.107,-89.1211,-172.853,9.80957,-0.133984,-0.0957031,0.597809,0.367401,-0.607666,0.371857,-115.258,44.775,-31.1667,-7102,-28891
1572,63330,0,0,0,-124.107,-89.1211,-172.853,9.82393,-0.129199,-0.0717773,0.597809,0.367401,-0.607666,0.371857,-115.292,44.7417,-31.1417,-7102,-28891
1578,63336,0,0,0,-124.107,-89.1211,-172.853,9.8,-0.124414,-0.0957031,0.597809,0.367401,-0.607666,0.371857,-115.317,44.7167,-31.125,-7102,-28891
1584,63342,0,0,0,-124.107,-89.1211,-172.853,9.80957,-0.114844,-0.090918,0.597809,0.367371,-0.607666,0.371826,-115.35,44.7167,-31.1083,-7102,-28891
1590,63348,0,0,0,-124.113,-89.1211,-172.853,9.82871,-0.100488,-0.105273,0.597839,0.36734,-0.607666,0.371826,-115.383,44.7417,-31.05,-7102,-28891
1596,63354,0,0,0,-124.118,-89.1211,-172.853,9.8,-0.143555,-0.0574219,0.597839,0.36734,-0.607697,0.371796,-115.4,44.7833,-31.0417,-7102,-28891
1602,63360,0,0,0,-124.118,-89.1211,-172.848,9.8,-0.119629,-0.0813477,0.59787,0.36734,-0.607697,0.371796,-115.417,44.8,-31.0833,-7102,-28891
1608,63366,0,0,0,-124.124,-89.1211,-172.848,9.82871,-0.119629,-0.0813477,0.59787,0.36731,-0.607697,0.371765,-115.45,44.8083,-31.1333,-7102,-28891
1614,63372,0,0,0,-124.124,-89.1211,-172.848,9.81914,-0.110059,-0.0861328,0.59787,0.36731,-0.607697,0.371765,-115.475,44.8167,-31.1917,-7102,-28891
1620,63378,0,0,0,-124.129,-89.1211,-172.848,9.81914,-0.133984,-0.0717773,0.59787,0.367279,-0.607727,0.371735,-115.433,44.775,-31.3,-7102,-28891
1626,63384,0,0,0,-124.129,-89.1211,-172.848,9.80957,-0.114844,-0.100488,0.59787,0.367279,-0.607727,0.371735,-115.417,44.75,-31.3083,-7102,-28891
1632,63390,0,0,0,-124.129,-89.1211,-172.848,9.79043,-0.0957031,-0.0717773,0.5979,0.367279,-0.607727,0.371735,-115.392,44.725,-31.325,-7102,-28891
1638,63396,0,0,0,-124.135,-89.1211,-172.848,9.80479,-0.119629,-0.0765625,0.5979,0.367249,-0.607727,0.371704,-115.383,44.7167,-31.3333,-7102,-28891
1644,63402,0,0,0,-124.135,-89.1211,-172.848,9.8,-0.114844,-0.105273,0.5979,0.367249,-0.607758,0.371704,-115.383,44.7083,-31.35,-7102,-28891
1650,63408,0,0,0,-124.14,-89.1211,-172.848,9.82393,-0.129199,-0.0765625,0.597931,0.367218,-0.607758,0.371674,-115.375,44.6917,-31.425,-7102,-28891
1656,63414,0,0,0,-124.146,-89.1211,-172.848,9.82871,-0.119629,-0.0861328,0.597931,0.367188,-0.607788,0.371643,-115.383,44.6917,-31.4583,-7102,-28891
1662,63420,0,0,0,-124.146,-89.1211,-172.848,9.8,-0.119629,-0.090918,0.597961,0.367188,-0.607788,0.371643,-115.375,44.6667,-31.45,-7102,-28891
1668,63426,0,0,0,-124.151,-89.1211,-172.848,9.79043,-0.129199,-0.0574219,0.597961,0.367157,-0.607788,0.371613,-115.375,44.6583,-31.4,-7102,-28891
1674,63432,0,0,0,-124.151,-89.1211,-172.848,9.82871,-0.114844,-0.0765625,0.597961,0.367157,-0.607819,0.371613,-115.367,44.65,-31.3083,-7102,-28891
1680,63438,0,0,0,-124.156,-89.1211,-172.848,9.83828,-0.119629,-0.0957031,0.597992,0.367126,-0.607819,0.371582,-115.367,44.6333,-31.1917,-7102,-28891
1686,63444,0,0,0,-124.162,-89.1211,-172.848,9.81914,-0.129199,-0.0765625,0.597992,0.367126,-0.607819,0.371582,-115.383,44.625,-31.1667,-7102,-28891
1692,63450,0,0,0,-124.162,-89.1211,-172.848,9.82393,-0.124414,-0.0813477,0.597992,0.367096,-0.607819,0.371552,-115.392,44.625,-31.1417,-7102,-28891
1698,63456,0,0,0,-124.162,-89.1211,-172.848,9.80479,-0.133984,-0.090918,0.597992,0.367096,-0.607849,0.371552,-115.4,44.625,-31.1333,-7102,-28891
1704,63462,0,0,0,-124.167,-89.1211,-172.848,9.80957,-0.124414,-0.114844,0.597992,0.367096,-0.607849,0.371552,-115.4,44.5917,-31.1333,-7102,-28891
1710,63468,0,0,0,-124.167,-89.1211,-172.848,9.81914,-0.124414,-0.0717773,0.598022,0.367065,-0.607849,0.371521,-115.417,44.5833,-31.1583,-7102,-28891
1716,63474,0,0,0,-124.173,-89.1211,-172.848,9.81436,-0.13877,-0.0765625,0.598022,0.367065,-0.60788,0.371521,-115.433,44.6,-31.15,-7102,-28891
1722,63480,0,0,0,-124.173,-89.1211,-172.848,9.78564,-0.13877,-0.100488,0.598022,0.367035,-0.60788,0.37149,-115.458,44.625,-31.15,-7102,-28891
1728,63486,0,0,0,-124.173,-89.1211,-172.848,9.80957,-0.119629,-0.0765625,0.598022,0.367035,-0.60788,0.37149,-115.483,44.65,-31.15,-7102,-28891
1734,63492,0,0,0,-124.178,-89.1211,-172.848,9.8,-0.13877,-0.0717773,0.598022,0.367035,-0.60788,0.37149,-115.483,44.6917,-31.1667,-7102,-28891
1740,63498,0,0,0,-124.178,-89.1211,-172.848,9.80957,-0.129199,-0.0717773,0.598022,0.367035,-0.60788,0.37149,-115.467,44.6917,-31.1917,-7102,-28891
1746,63504,0,0,0,-124.178,-89.1211,-172.848,9.81436,-0.110059,-0.0957031,0.598053,0.367035,-0.60788,0.37149,-115.458,44.675,-31.1833,-7102,-28891
1752,63510,0,0,0,-124.178,-89.1211,-172.848,9.81914,-0.119629,-0.062207,0.598053,0.367035,-0.60788,0.37146,-115.458,44.6417,-31.1833,-7102,-28891
1758,63516,0,0,0,-124.178,-89.1211,-172.848,9.82393,-0.100488,-0.090918,0.598053,0.367004,-0.60788,0.37146,-115.458,44.6333,-31.2,-7102,-28891
1764,63522,0,0,0,-124.184,-89.1211,-172.848,9.80957,-0.124414,-0.114844,0.598053,0.367004,-0.60791,0.37146,-115.458,44.6333,-31.2333,-7102,-28891
1770,63528,0,0,0,-124.189,-89.1211,-172.848,9.81914,-0.114844,-0.100488,0.598083,0.366974,-0.60791,0.371429,-115.458,44.675,-31.3333,-7102,-28891
1776,63534,0,0,0,-124.189,-89.1211,-172.848,9.82871,-0.100488,-0.0957031,0.598083,0.366974,-0.607941,0.371399,-115.467,44.675,-31.3417,-7102,-28891
1782,63540,0,0,0,-124.195,-89.1211,-172.848,9.80957,-0.133984,-0.0765625,0.598083,0.366943,-0.607941,0.371399,-115.492,44.6833,-31.3417,-7102,-28891
1788,63546,0,0,0,-124.2,-89.1211,-172.848,9.81914,-0.124414,-0.0574219,0.598114,0.366913,-0.607941,0.371368,-115.517,44.675,-31.3083,-7102,-28891
1794,63552,0,0,0,-124.2,-89.1211,-172.848,9.81914,-0.119629,-0.0765625,0.598114,0.366913,-0.607971,0.371368,-115.533,44.675,-31.25,-7102,-28891
1800,63558,0,0,0,-124.206,-89.1211,-172.848,9.80957,-0.110059,-0.0813477,0.598114,0.366882,-0.607971,0.371338,-115.567,44.675,-31.1833,-7102,-28891
1806,63564,0,0,0,-124.206,-89.1211,-172.848,9.8,-0.133984,-0.0717773,0.598145,0.366882,-0.607971,0.371338,-115.567,44.6583,-31.1917,-7102,-28891
1812,63570,0,0,0,-124.206,-89.1211,-172.848,9.81914,-0.124414,-0.0861328,0.598145,0.366852,-0.607971,0.371307,-115.558,44.6417,-31.2167,-7102,-28891
1818,63576,0,0,0,-124.211,-89.1211,-172.848,9.81914,-0.0957031,-0.0717773,0.598145,0.366852,-0.608002,0.371307,-115.533,44.6333,-31.2417,-7102,-28891
1824,63582,0,0,0,-124.211,-89.1211,-172.848,9.80479,-0.119629,-0.0717773,0.598145,0.366852,-0.608002,0.371307,-115.508,44.625,-31.2833,-7102,-28891
1830,63588,0,0,0,-124.211,-89.1211,-172.848,9.8,-0.124414,-0.090918,0.598145,0.366852,-0.608002,0.371307,-115.458,44.625,-31.3417,-7102,-28891
1836,63594,0,0,0,-124.211,-89.1211,-172.848,9.8335,-0.133984,-0.090918,0.598145,0.366852,-0.608002,0.371307,-115.45,44.6167,-31.3167,-7102,-28891
1842,63600,0,0,0,-124.211,-89.1211,-172.848,9.79521,-0.129199,-0.0717773,0.598145,0.366852,-0.608002,0.371307,-115.45,44.625,-31.2833,-7102,-28891
1848,63606,0,0,0,-124.211,-89.1211,-172.848,9.81914,-0.129199,-0.062207,0.598145,0.366852,-0.608002,0.371307,-115.442,44.625,-31.2417,-7102,-28891
1854,63612,0,0,0,-124.206,-89.1211,-172.848,9.79521,-0.119629,-0.0765625,0.598145,0.366852,-0.607971,0.371307,-115.45,44.6333,-31.175,-7102,-28891
1860,63618,0,0,0,-124.206,-89.1211,-172.848,9.80957,-0.110059,-0.100488,0.598114,0.366882,-0.607971,0.371338,-115.475,44.6667,-31.1167,-7102,-28891
1866,63624,0,0,0,-124.206,-89.1211,-172.848,9.8,-0.13877,-0.105273,0.598145,0.366882,-0.607971,0.371338,-115.508,44.6833,-31.1417,-7102,-28891
1872,63630,0,0,0,-124.206,-89.1211,-172.848,9.80957,-0.124414,-0.114844,0.598145,0.366852,-0.607971,0.371307,-115.525,44.7,-31.175,-7102,-28891
1878,63636,0,0,0,-124.211,-89.1211,-172.848,9.81436,-0.124414,-0.0717773,0.598145,0.366852,-0.608002,0.371307,-115.542,44.6917,-31.225,-7102,-28891
1884,63642,0,0,0,-124.211,-89.1211,-172.848,9.82393,-0.110059,-0.0813477,0.598145,0.366852,-0.608002,0.371277,-115.55,44.6833,-31.25,-7102,-28891
1890,63648,0,0,0,-124.217,-89.1211,-172.848,9.78086,-0.124414,-0.0957031,0.598175,0.366821,-0.608032,0.371277,-115.558,44.65,-31.275,-7102,-28891
1896,63654,0,0,0,-124.222,-89.1211,-172.848,9.82393,-0.0957031,-0.0813477,0.598175,0.366791,-0.608032,0.371246,-115.567,44.6417,-31.2583,-7102,-28891
1902,63660,0,0,0,-124.222,-89.1211,-172.848,9.82871,-0.129199,-0.0717773,0.598175,0.366791,-0.608032,0.371246,-115.567,44.625,-31.2333,-7102,-28891
1908,63666,0,0,0,-124.228,-89.1211,-172.848,9.8335,-0.124414,-0.100488,0.598206,0.36676,-0.608063,0.371216,-115.575,44.6,-31.2417,-7102,-28891
1914,63672,0,0,0,-124.233,-89.1211,-172.848,9.81914,-0.14834,-0.0669922,0.598206,0.36676,-0.608063,0.371216,-115.575,44.5833,-31.2167,-7102,-28891
1920,63678,0,0,0,-124.233,-89.1211,-172.848,9.82393,-0.124414,-0.0574219,0.598206,0.36673,-0.608063,0.371185,-115.575,44.5417,-31.2167,-7102,-28891
1926,63684,0,0,0,-124.233,-89.1211,-172.848,9.80957,-0.14834,-0.090918,0.598206,0.36673,-0.608063,0.371185,-115.567,44.525,-31.2083,-7102,-28891
1932,63690,0,0,0,-124.233,-89.1211,-172.848,9.82393,-0.129199,-0.0717773,0.598206,0.36673,-0.608063,0.371185,-115.567,44.5083,-31.175,-7102,-28891
1938,63696,0,0,0,-124.233,-89.1211,-172.848,9.81436,-0.119629,-0.0957031,0.598206,0.36673,-0.608063,0.371185,-115.575,44.525,-31.1583,-7102,-28891
1944,63702,0,0,0,-124.233,-89.1211,-172.848,9.84785,-0.110059,-0.100488,0.598206,0.36673,-0.608063,0.371185,-115.55,44.5333,-31.1333,-7102,-28891
1950,63708,0,0,0,-124.233,-89.1211,-172.848,9.81436,-0.129199,-0.0669922,0.598206,0.36673,-0.608063,0.371185,-115.517,44.575,-31.125,-7102,-28891
1956,63714,0,0,0,-124.233,-89.1211,-172.848,9.78564,-0.119629,-0.119629,0.598206,0.36673,-0.608063,0.371185,-115.5,44.575,-31.1333,-7102,-28891
1962,63720,0,0,0,-124.239,-89.1211,-172.848,9.80957,-0.110059,-0.0861328,0.598236,0.366699,-0.608093,0.371155,-115.508,44.5583,-31.1583,-7102,-28891
1968,63726,0,0,0,-124.239,-89.1211,-172.848,9.82393,-0.110059,-0.0813477,0.598236,0.366699,-0.608093,0.371155,-115.517,44.5333,-31.2083,-7102,-28891
1974,63732,0,0,0,-124.244,-89.1211,-172.848,9.8,-0.110059,-0.0765625,0.598236,0.366669,-0.608093,0.371124,-115.533,44.5083,-31.2167,-7102,-28891
1980,63738,0,0,0,-124.25,-89.1211,-172.848,9.82393,-0.119629,-0.0813477,0.598267,0.366638,-0.608124,0.371094,-115.558,44.5083,-31.2,-7102,-28891
1986,63744,0,0,0,-124.255,-89.1211,-172.848,9.8,-0.13877,-0.100488,0.598267,0.366638,-0.608154,0.371063,-115.567,44.5333,-31.1917,-7102,-28891
1992,63750,0,0,0,-124.261,-89.1211,-172.848,9.81914,-0.110059,-0.0813477,0.598297,0.366608,-0.608154,0.371063,-115.575,44.525,-31.175,-7102,-28891
1998,63756,0,0,0,-124.261,-89.1211,-172.848,9.80479,-0.129199,-0.0957031,0.598297,0.366577,-0.608154,0.371033,-115.592,44.525,-31.15,-7102,-28891
2004,63762,0,0,0,-124.272,-89.1211,-172.848,9.81436,-0.114844,-0.105273,0.598297,0.366577,-0.608185,0.371002,-115.592,44.5083,-31.1333,-7102,-28891
2010,63768,0,0,0,-124.277,-89.1211,-172.848,9.82871,-0.129199,-0.0765625,0.598358,0.366516,-0.608215,0.370972,-115.608,44.4917,-31.1,-7102,-28891
2016,63774,0,0,0,-124.283,-89.1211,-172.848,9.82871,-0.13877,-0.100488,0.598358,0.366486,-0.608215,0.370941,-115.6,44.5167,-31.1417,-7102,-28891
2022,63780,0,0,0,-124.283,-89.1211,-172.848,9.8,-0.105273,-0.105273,0.598358,0.366455,-0.608246,0.370911,-115.592,44.5417,-31.175,-7102,-28891
2028,63786,0,0,0,-124.288,-89.1211,-172.848,9.81436,-0.119629,-0.0574219,0.598389,0.366425,-0.608246,0.37088,-115.575,44.5667,-31.1917,-7102,-28891
2034,63792,0,0,0,-124.299,-89.1211,-172.848,9.80957,-0.124414,-0.0957031,0.598389,0.366425,-0.608276,0.37085,-115.533,44.6083,-31.2083,-7102,-28891
2040,63798,0,0,0,-124.305,-89.1211,-172.848,9.82393,-0.105273,-0.062207,0.598419,0.366364,-0.608307,0.370819,-115.433,44.6167,-31.2083,-7102,-28891
2046,63804,0,0,0,-124.31,-89.1211,-172.848,9.81436,-0.124414,-0.090918,0.59845,0.366333,-0.608307,0.370789,-115.4,44.6167,-31.2083,-7102,-28891
2052,63810,0,0,0,-124.31,-89.1211,-172.848,9.80479,-0.143555,-0.0861328,0.59845,0.366333,-0.608337,0.370789,-115.392,44.5833,-31.1833,-7102,-28891
2058,63816,0,0,0,-124.316,-89.1211,-172.848,9.81436,-0.119629,-0.0957031,0.59845,0.366302,-0.608337,0.370758,-115.375,44.5667,-31.1583,-7102,-28891
2064,63822,0,0,0,-124.321,-89.1211,-172.848,9.82871,-0.133984,-0.0813477,0.59848,0.366302,-0.608337,0.370728,-115.358,44.5333,-31.15,-7102,-28891
2070,63828,0,0,0,-124.327,-89.1211,-172.848,9.80479,-0.114844,-0.0765625,0.59848,0.366272,-0.608368,0.370728,-115.367,44.55,-31.1417,-7102,-28891
2076,63834,0,0,0,-124.327,-89.1211,-172.848,9.8,-0.124414,-0.0765625,0.598511,0.366241,-0.608368,0.370697,-115.383,44.5833,-31.1667,-7102,-28891
2082,63840,0,0,0,-124.327,-89.1211,-172.848,9.8335,-0.124414,-0.0765625,0.598511,0.366241,-0.608398,0.370697,-115.392,44.625,-31.1667,-7102,-28891
2088,63846,0,0,0,-124.332,-89.1211,-172.848,9.82393,-0.0861328,-0.090918,0.598511,0.366241,-0.608398,0.370667,-115.392,44.65,-31.1917,-7102,-28891
2094,63852,0,0,0,-124.338,-89.1211,-172.848,9.83828,-0.129199,-0.0717773,0.598511,0.366211,-0.608398,0.370667,-115.375,44.6667,-31.2083,-7102,-28891
2100,63858,0,0,0,-124.338,-89.1211,-172.848,9.80957,-0.133984,-0.110059,0.598541,0.36618,-0.608398,0.370636,-115.383,44.7,-31.2583,-7102,-28891
2106,63864,0,0,0,-124.343,-89.1211,-172.848,9.81436,-0.124414,-0.0813477,0.598541,0.36618,-0.608429,0.370636,-115.4,44.7083,-31.3083,-7102,-28891
2112,63870,0,0,0,-124.343,-89.1211,-172.848,9.8,-0.124414,-0.100488,0.598541,0.36615,-0.608429,0.370605,-115.425,44.725,-31.3667,-7102,-28891
2118,63876,0,0,0,-124.343,-89.1211,-172.848,9.82393,-0.143555,-0.0717773,0.598572,0.36615,-0.608429,0.370605,-115.442,44.725,-31.4167,-7102,-28891
2124,63882,0,0,0,-124.349,-89.1211,-172.848,9.81436,-0.114844,-0.0957031,0.598572,0.36615,-0.608459,0.370605,-115.392,44.7167,-31.5083,-7102,-28891
2130,63888,0,0,0,-124.349,-89.1211,-172.848,6.2877,17.1691,6.54131,0.598572,0.366119,-0.608459,0.370575,-115.383,44.7083,-31.5,-7102,-28891
2136,63894,-0.183105,-6.34766,35.5225,-121.223,-88.9508,-176.32,39.1952,-24.1315,6.41211,0.598877,0.363556,-0.610321,0.369537,-115.367,44.6833,-31.4917,-7102,-28891
2142,63900,1.0376,3.11279,28.0151,-116.554,-88.83,179.242,-5.69434,-15.7384,-0.995313,0.597748,0.363953,-0.609955,0.371613,-115.358,44.6833,-31.4583,-7102,-28891
2148,63906,-6.28662,-7.93457,-49.9878,-124.601,-89.0057,-172.573,1.77051,15.59,-9.90527,0.597839,0.365997,-0.609009,0.370972,-115.342,44.6917,-31.3917,-7102,-28891
2154,63912,11.2915,-10.437,1.83105,-116.537,-89.1431,179.555,18.7674,-3.80898,5.98623,0.599365,0.365509,-0.607635,0.371246,-115.233,44.7583,-31.2917,-7102,-28891
2160,63918,6.71387,-31.0059,-4.63867,-125.491,-89.0771,-171.249,11.7619,-2.70361,-3.48838,0.596802,0.368561,-0.607239,0.372955,-115.192,44.8083,-31.25,-7102,-28891
2166,63924,-3.479,14.7095,32.7759,-116.592,-88.9728,179.956,9.53203,-0.842188,3.46445,0.596283,0.368011,-0.607056,0.374664,-115.158,44.8167,-31.2417,-7102,-28891
2172,63930,-2.0752,15.1978,-16.7847,-114.401,-89.0717,177.918,9.54639,-1.0623,1.41162,0.596436,0.368988,-0.605896,0.375336,-115.133,44.8167,-31.225,-7102,-28891
2178,63936,0,4.57764,-0.732422,-112.835,-89.0826,176.534,9.79043,0.0861328,-1.54082,0.595978,0.369812,-0.605225,0.376373,-115.125,44.825,-31.2417,-7102,-28891
2184,63942,-7.99561,28.2593,-3.23486,-102.997,-89.2035,166.926,10.0105,-0.13877,-1.26328,0.595917,0.370789,-0.60434,0.376892,-115.1,44.85,-31.375,-7102,-28891
2190,63948,-2.99072,4.15039,-1.34277,-101.195,-89.209,165.317,10.0153,0.363672,0.291895,0.595886,0.371765,-0.60257,0.378845,-115.083,44.8583,-31.4417,-7102,-28891
2196,63954,4.08936,-25.0854,6.71387,-108.523,-89.1376,172.881,11.2643,-1.02402,-3.63672,0.59433,0.373169,-0.602539,0.379913,-115.067,44.8667,-31.475,-7102,-28891
2202,63960,-0.854492,3.84521,-2.74658,-107.276,-89.1486,171.804,9.12051,0.717773,-0.0239258,0.593903,0.374023,-0.601868,0.380829,-115.075,44.8417,-31.45,-7102,-28891
2208,63966,-3.17383,15.3198,-0.915527,-102.036,-89.165,166.723,8.76641,-0.334961,3.34004,0.593781,0.374603,-0.600952,0.381927,-115.05,44.825,-31.4583,-7102,-28891
2214,63972,3.90625,-26.9775,0.305176,-113.17,-89.0662,178.292,10.1685,-0.205762,-0.732129,0.592621,0.375732,-0.600677,0.382996,-115.017,44.7917,-31.4,-7102,-28891
2220,63978,1.83105,-10.0098,1.58691,-115.411,-89.0332,-179.269,9.85742,-0.191406,-0.0191406,0.59021,0.378387,-0.600311,0.384674,-114.983,44.7833,-31.4083,-7102,-28891
2226,63984,1.15967,-0.976563,2.86865,-115.01,-89.0167,-179.484,9.91484,-0.411523,1.03838,0.589508,0.379272,-0.599762,0.385742,-114.967,44.7667,-31.375,-7102,-28891
2232,63990,0,-8.54492,4.02832,-116.384,-88.9728,-177.913,9.8957,-0.334961,-0.617285,0.588562,0.38028,-0.599396,0.386749,-114.95,44.7583,-31.3333,-7102,-28891
2238,63996,0.0610352,-5.79834,-1.77002,-117.757,-88.9673,-176.353,9.62295,-0.0191406,-0.645996,0.58783,0.381348,-0.598907,0.387573,-114.942,44.7417,-31.2667,-7110,-28890
2244,64002,-0.305176,3.72314,-2.0752,-115.093,-88.9893,-178.682,9.60381,-0.267969,0.569434,0.587402,0.38208,-0.598206,0.38858,-114.967,44.7417,-31.175,-7110,-28890
2250,64008,0.0610352,-5.37109,1.2207,-116.032,-88.9673,-177.55,10.2785,-0.478516,-0.588574,0.586151,0.383942,-0.597046,0.390411,-114.983,44.7333,-31.1417,-7110,-28890
2256,64014,0.12207,-3.54004,0.305176,-116.636,-88.9563,-176.781,9.78564,0.253613,-0.478516,0.58548,0.384857,-0.596588,0.391266,-114.983,44.7417,-31.125,-7110,-28890
2262,64020,0.12207,4.02832,-1.09863,-115.56,-88.9673,-177.698,9.80479,-0.16748,0.411523,0.585052,0.38562,-0.595917,0.392151,-114.983,44.75,-31.1417,-7110,-28890
2268,64026,-0.12207,2.92969,0.915527,-114.494,-88.9673,-178.599,9.62295,-0.0143555,0.162695,0.584534,0.386353,-0.595306,0.393097,-114.975,44.7583,-31.1333,-7110,-28890
2274,64032,0.0610352,-1.83105,1.40381,-115.252,-88.9508,-177.517,9.80957,-0.229688,-0.483301,0.583893,0.387268,-0.594818,0.393921,-114.942,44.7917,-31.1167,-7110,-28890
2280,64038,-0.12207,2.92969,-1.52588,-114.527,-88.9618,-178.099,9.68994,0.119629,0.253613,0.582886,0.388763,-0.593781,0.395508,-114.925,44.7833,-31.1,-7110,-28890
2286,64044,0.0610352,1.89209,0.976563,-113.769,-88.9563,-178.709,10.0249,-0.29668,0.172266,0.582428,0.389465,-0.593231,0.396332,-114.917,44.7667,-31.075,-7110,-28890
2292,64050,0,-2.80762,0.183105,-114.274,-88.9508,-178.05,9.85264,0.0287109,-0.387598,0.581818,0.390259,-0.592773,0.397095,-114.925,44.75,-31.0667,-7110,-28890
2298,64056,0.0610352,-1.64795,0.244141,-114.505,-88.9453,-177.682,9.92441,-0.344531,-0.267969,0.581299,0.390991,-0.592346,0.397797,-114.942,44.7417,-31.0667,-7110,-28890
2304,64062,-0.183105,1.15967,-0.549316,-113.472,-88.9508,-178.456,9.62773,-0.00478516,0.105273,0.580902,0.391602,-0.591858,0.398499,-114.975,44.7333,-31.0917,-7110,-28890
2310,64068,0.0610352,-1.70898,0.0610352,-113.752,-88.9508,-178.044,9.82871,-0.0526367,-0.277539,0.580017,0.392914,-0.590973,0.399811,-114.975,44.75,-31.1083,-7110,-28890
2316,64074,0.244141,-1.70898,-1.2207,-114.192,-88.9508,-177.49,9.86699,-0.062207,-0.248828,0.579559,0.393585,-0.590576,0.40036,-114.958,44.7333,-31.1417,-7110,-28890
2322,64080,0.244141,1.40381,0.671387,-113.654,-88.9508,-177.913,9.86699,-0.172266,0.114844,0.579224,0.394104,-0.590179,0.40097,-114.95,44.7083,-31.1667,-7110,-28890
2328,64086,0.0610352,1.09863,-0.549316,-113.324,-88.9508,-178.132,9.72822,0.0239258,0.0574219,0.578857,0.394653,-0.589752,0.40155,-114.942,44.6917,-31.2167,-7110,-28890
2334,64092,0.305176,-1.15967,0.12207,-113.654,-88.9453,-177.583,9.83828,-0.258398,-0.200977,0.57843,0.395233,-0.589386,0.40213,-114.983,44.65,-31.2583,-7110,-28890
2340,64098,-0.12207,1.2207,0.183105,-113.242,-88.9453,-177.907,9.83828,-0.253613,0.0526367,0.577728,0.39624,-0.588684,0.403168,-115.017,44.65,-31.275,-7110,-28890
2346,64104,0,1.28174,0.12207,-112.819,-88.9508,-178.237,9.74736,-0.0430664,0.129199,0.577454,0.396667,-0.588348,0.403656,-115.033,44.675,-31.225,-7110,-28890
2352,64110,0.0610352,-1.09863,-0.244141,-113.022,-88.9453,-177.929,9.95313,-0.14834,-0.14834,0.577087,0.397186,-0.588013,0.404144,-115.025,44.6833,-31.2167,-7110,-28890
2358,64116,0,-0.915527,0.732422,-113.088,-88.9398,-177.775,9.90049,-0.13877,-0.215332,0.576721,0.397644,-0.587708,0.404633,-115.017,44.675,-31.2167,-7110,-28890
2364,64122,-0.0610352,1.09863,0.427246,-112.385,-88.9453,-178.314,9.79043,-0.110059,0.0478516,0.576477,0.398041,-0.587402,0.405029,-114.983,44.6667,-31.2,-7110,-28890
2370,64128,0.244141,-1.15967,-0.12207,-112.61,-88.9453,-178.006,9.76172,-0.0717773,-0.205762,0.575897,0.398895,-0.586823,0.405884,-114.992,44.65,-31.1583,-7110,-28890
2376,64134,0,-0.915527,0,-112.775,-88.9453,-177.764,9.8957,-0.191406,-0.177051,0.575623,0.399261,-0.586578,0.40625,-114.992,44.65,-31.1167,-7110,-28890
2382,64140,0,0.915527,-0.305176,-112.516,-88.9453,-177.957,9.77129,-0.0143555,0.0382813,0.575409,0.399597,-0.586334,0.406586,-114.992,44.6667,-31.1,-7110,-28890
2388,64146,0,0.610352,-0.427246,-112.352,-88.9508,-178.061,9.85742,-0.143555,0.0191406,0.575226,0.399933,-0.58606,0.406921,-114.992,44.6417,-31.1,-7110,-28890
2394,64152,0.0610352,-0.732422,-0.183105,-112.692,-88.9508,-177.594,9.80957,-0.0669922,-0.244043,0.574738,0.400604,-0.585663,0.407532,-114.942,44.6,-31.1417,-7110,-28890
2400,64158,0.0610352,0.915527,0.305176,-112.39,-88.9508,-177.847,9.73301,-0.0957031,0.0143555,0.574615,0.400787,-0.58548,0.407776,-114.942,44.575,-31.125,-7110,-28890
2406,64164,0.0610352,0.488281,-0.488281,-112.28,-88.9508,-177.913,9.79043,-0.105273,-0.062207,0.574463,0.401031,-0.585297,0.40802,-114.958,44.5667,-31.1,-7110,-28890
2412,64170,0.244141,-0.793457,0.183105,-112.423,-88.9508,-177.726,9.86221,-0.119629,-0.196191,0.57428,0.401276,-0.585144,0.408234,-114.983,44.575,-31.0833,-7110,-28890
2418,64176,0,-0.305176,-0.244141,-112.5,-88.9508,-177.616,9.85264,-0.0813477,-0.110059,0.574158,0.401459,-0.585022,0.408417,-115.025,44.575,-31.0917,-7110,-28890
2424,64182,0,0.183105,0,-112.126,-88.9563,-177.924,9.82871,-0.13877,0.0717773,0.573975,0.401764,-0.584778,0.408752,-115.058,44.5583,-31.1917,-7110,-28890
2430,64188,0,-0.915527,0.183105,-112.308,-88.9563,-177.704,9.82871,-0.181836,-0.153125,0.573822,0.401947,-0.584656,0.408905,-115.083,44.5667,-31.25,-7110,-28890
2436,64194,0.183105,0,-0.183105,-112.308,-88.9563,-177.676,9.78564,-0.133984,-0.0478516,0.57373,0.4021,-0.584534,0.409058,-115.1,44.5833,-31.3167,-7110,-28890
2442,64200,-0.0610352,0.854492,0,-112.066,-88.9563,-177.891,9.80957,-0.153125,0.0430664,0.573639,0.402252,-0.584412,0.40921,-115.133,44.6,-31.375,-7110,-28890
2448,64206,0,0.12207,0.183105,-111.989,-88.9563,-177.935,9.82393,-0.129199,-0.0334961,0.573547,0.402405,-0.58432,0.409393,-115.167,44.6167,-31.4167,-7110,-28890
2454,64212,0,-0.183105,0.12207,-112.258,-88.9563,-177.61,9.86221,-0.129199,-0.14834,0.573303,0.40271,-0.584106,0.409668,-115.192,44.625,-31.4417,-7110,-28890
2460,64218,-0.0610352,0.610352,-0.12207,-112.094,-88.9563,-177.748,9.78086,-0.114844,0.0191406,0.573242,0.402832,-0.584015,0.40979,-115.2,44.6083,-31.4417,-7110,-28890
2466,64224,0,0,0.12207,-112.061,-88.9563,-177.753,9.78564,-0.143555,-0.0861328,0.573151,0.402954,-0.583923,0.409912,-115.2,44.6167,-31.4333,-7110,-28890
2472,64230,0,-0.854492,-0.183105,-112.28,-88.9563,-177.506,9.80479,-0.0861328,-0.181836,0.573059,0.403107,-0.583862,0.410034,-115.2,44.6167,-31.4167,-7110,-28890
2478,64236,0,-0.12207,-0.12207,-112.313,-88.9563,-177.457,9.84785,-0.110059,-0.100488,0.572998,0.403198,-0.583801,0.410095,-115.183,44.6167,-31.4,-7110,-28890
2484,64242,0.0610352,0,-0.12207,-112.253,-88.9618,-177.495,9.79521,-0.0717773,-0.00957031,0.572906,0.40332,-0.583679,0.410217,-115.2,44.6333,-31.375,-7110,-28890
2490,64248,0,-0.488281,0.183105,-112.352,-88.9618,-177.385,9.8,-0.105273,-0.153125,0.572876,0.403381,-0.583679,0.410248,-115.225,44.625,-31.3417,-7110,-28890
2496,64254,0.0610352,0,-0.0610352,-112.363,-88.9618,-177.374,9.01045,-0.220117,-0.0765625,0.572876,0.403381,-0.583649,0.410278,-115.25,44.625,-31.3167,-7110,-28890
2502,64260,-0.0610352,0.854492,0.183105,-112.126,-88.9618,-177.61,5.41201,-5.22539,-10.3886,0.572876,0.403381,-0.583618,0.410309,-115.275,44.6167,-31.2917,-7110,-28890
2508,64266,0.793457,19.7754,43.7622,-104.172,-88.775,174.331,9.23535,0.334961,-2.21553,0.572906,0.401398,-0.58432,0.411255,-115.258,44.6167,-31.2667,-7110,-28890
2514,64272,40.3442,-21.3623,-98.877,-135.038,-89.1431,-154.863,21.5188,3.52188,-3.18691,0.573669,0.40509,-0.584045,0.406891,-115.183,44.6333,-31.275,-7110,-28890
2520,64278,-52.7954,15.686,27.8931,-125.975,-89.0771,-164.372,10.135,-0.76084,-3.09121,0.575073,0.401886,-0.585785,0.405609,-115.133,44.6667,-31.3,-7110,-28890
2526,64284,-3.84521,-40.4663,4.57764,-134.357,-88.9178,-156.182,9.01045,1.59824,-5.6752,0.574554,0.40152,-0.587646,0.404022,-115.108,44.6583,-31.3,-7110,-28890
2532,64290,10.0098,-16.6016,23.6816,-133.561,-88.7585,-157.121,12.1543,-3.10078,-0.875684,0.574097,0.400513,-0.58905,0.403625,-115.067,44.6583,-31.2833,-7110,-28890
2538,64296,-2.2583,-1.77002,-9.94873,-130.342,-88.808,-160.499,8.43145,1.0001,2.88066,0.575073,0.399353,-0.589203,0.403168,-115.05,44.6833,-31.2917,-7110,-28890
2544,64302,1.70898,-12.6343,-1.46484,-135.242,-88.7805,-155.94,10.0584,0.186621,-2.97158,0.575928,0.398163,-0.590729,0.400879,-114.983,44.6917,-31.2833,-7110,-28890
2550,64308,-1.28174,19.8364,-2.80762,-132.556,-88.8409,-158.802,10.2833,-0.363672,0.30625,0.576996,0.397003,-0.590881,0.400238,-114.967,44.7083,-31.2417,-7110,-28890
2556,64314,-1.09863,29.9683,0.671387,-126.859,-88.9233,-164.663,9.11094,1.47861,0.966602,0.578278,0.395599,-0.59082,0.399902,-114.967,44.7083,-31.1917,-7110,-28890
2562,64320,1.77002,19.4092,6.10352,-122.047,-88.9398,-169.651,10.7905,-1.93799,-0.0717773,0.579163,0.394257,-0.591095,0.399536,-114.983,44.7417,-31.1417,-7110,-28890
2568,64326,-1.64795,9.27734,-3.54004,-119.086,-88.9893,-172.787,9.04395,0.904395,0.358887,0.5802,0.393158,-0.591309,0.398804,-114.992,44.7667,-31.1083,-7110,-28890
2574,64332,-0.549316,-3.479,13.2446,-117.263,-88.9398,-174.957,9.77607,-0.6125,-1.11016,0.581207,0.391083,-0.592621,0.397369,-115.008,44.7917,-31.175,-7110,-28890
2580,64338,0.0610352,-6.34766,-6.34766,-119.982,-88.9453,-172.386,9.38848,0.521582,-0.0765625,0.581635,0.390564,-0.593292,0.396301,-115.008,44.7917,-31.2167,-7110,-28890
2586,64344,-0.183105,-5.24902,6.22559,-120.718,-88.8959,-171.815,10.2689,-0.976172,0.186621,0.581879,0.389679,-0.594147,0.395538,-115.017,44.7833,-31.225,-7110,-28890
2592,64350,-0.488281,-12.5732,-1.77002,-123.975,-88.8629,-168.706,9.73779,0.660352,-1.33027,0.582031,0.389191,-0.595001,0.394501,-115.025,44.7917,-31.2083,-7110,-28890
2598,64356,-0.183105,7.8125,3.17383,-126.024,-88.8464,-166.811,10.1876,-0.411523,-1.02881,0.582367,0.38858,-0.595703,0.393524,-115.033,44.7917,-31.2,-7110,-28890
2604,64362,-1.28174,6.10352,-4.63867,-123.948,-88.8739,-169.2,9.18272,0.29668,0.660352,0.58371,0.38678,-0.596497,0.39212,-115.017,44.775,-31.2,-7110,-28890
2610,64368,0.366211,-6.04248,2.74658,-125.068,-88.8409,-168.234,10.0584,-0.574219,-0.674707,0.583984,0.386047,-0.59726,0.391296,-114.983,44.7417,-31.2083,-7110,-28890
2616,64374,0.427246,-7.14111,-2.0752,-127.018,-88.819,-166.426,9.74736,0.354102,-0.899609,0.58429,0.385468,-0.597931,0.39035,-114.983,44.7333,-31.2083,-7110,-28890
2622,64380,0,5.92041,0.305176,-126.063,-88.83,-167.536,9.98662,-0.358887,0.521582,0.5849,0.384583,-0.598358,0.389679,-114.992,44.7333,-31.1833,-7110,-28890
2628,64386,0.12207,-4.57764,0.671387,-125.453,-88.8464,-168.294,9.4459,0.425879,0.535937,0.58551,0.383759,-0.598755,0.388947,-115,44.7583,-31.1917,-7110,-28890
2634,64392,0.305176,-4.63867,1.34277,-127.392,-88.797,-166.646,9.63731,0.0574219,-0.631641,0.586151,0.382355,-0.600067,0.387329,-115,44.8083,-31.275,-7110,-28890
2640,64398,-0.12207,4.21143,-1.2207,-126.974,-88.8135,-167.217,9.61338,-0.224902,0.325391,0.586761,0.381561,-0.600494,0.386566,-114.983,44.8417,-31.35,-7110,-28890
2646,64404,-0.0610352,4.57764,1.28174,-126.096,-88.8135,-168.234,9.74736,-0.124414,0.483301,0.587311,0.380707,-0.600891,0.385925,-114.967,44.875,-31.425,-7110,-28890
2652,64410,0.0610352,-3.41797,-0.915527,-127.068,-88.808,-167.404,9.98662,0,-0.378027,0.587646,0.380066,-0.601471,0.385132,-114.967,44.9167,-31.45,-7110,-28890
2658,64416,-0.12207,2.2583,-0.793457,-127.595,-88.7915,-167.151,10.135,-0.282324,-0.468945,0.587982,0.379364,-0.602051,0.384369,-114.95,44.925,-31.475,-7110,-28890
2664,64422,-0.244141,3.78418,0.915527,-126.914,-88.797,-167.97,9.8335,-0.440234,0.382813,0.588989,0.377838,-0.602875,0.383057,-114.908,44.9,-31.5167,-7110,-28890
2670,64428,0.12207,-1.95313,0.0610352,-127.419,-88.786,-167.591,9.66123,-0.0334961,-0.244043,0.589355,0.377228,-0.603363,0.382355,-114.9,44.8833,-31.5333,-7110,-28890
2676,64434,0.183105,-3.35693,-0.610352,-128.265,-88.775,-166.866,9.97227,-0.272754,-0.459375,0.589661,0.376648,-0.603882,0.381622,-114.908,44.875,-31.5583,-7110,-28890
2682,64440,0,1.28174,-0.12207,-128.183,-88.7805,-167.075,9.8,-0.0239258,0.0861328,0.590088,0.376007,-0.604248,0.381012,-114.925,44.875,-31.5583,-7110,-28890
2688,64446,0,-1.34277,0.610352,-127.958,-88.7915,-167.421,9.83828,-0.0957031,0.267969,0.590546,0.375366,-0.604584,0.380402,-114.958,44.8667,-31.55,-7110,-28890
2694,64452,0.12207,-2.99072,-0.671387,-128.99,-88.775,-166.613,9.73779,-0.0143555,-0.44502,0.591156,0.374268,-0.605469,0.37912,-115.033,44.8417,-31.525,-7110,-28890
2700,64458,0.0610352,0.915527,0.549316,-128.859,-88.7695,-166.86,9.78564,-0.253613,0.0191406,0.591553,0.373627,-0.605835,0.378571,-115.058,44.825,-31.5417,-7110,-28890
2706,64464,0,2.68555,0,-128.474,-88.7805,-167.355,9.57031,0.00957031,0.215332,0.591949,0.373016,-0.60614,0.378021,-115.083,44.8,-31.575,-7110,-28890
2712,64470,0,-0.610352,0.0610352,-128.672,-88.775,-167.261,9.89092,-0.234473,-0.0861328,0.592285,0.372467,-0.606506,0.377472,-115.092,44.7917,-31.6,-7110,-28890
2718,64476,-0.12207,0.305176,0,-129.282,-88.764,-166.86,9.86221,-0.00957031,-0.378027,0.592529,0.372009,-0.606934,0.376892,-115.092,44.8,-31.6167,-7110,-28890
2724,64482,-0.12207,2.50244,0.488281,-128.848,-88.7695,-167.393,9.79043,-0.124414,0.172266,0.593231,0.37088,-0.607544,0.375885,-115.092,44.7833,-31.5667,-7110,-28890
2730,64488,0,-0.12207,0.0610352,-128.941,-88.7695,-167.393,9.77129,-0.124414,-0.110059,0.593536,0.370392,-0.607849,0.375366,-115.1,44.7833,-31.5167,-7110,-28890
2736,64494,0.12207,-1.95313,0.427246,-129.309,-88.7585,-167.119,9.87178,-0.248828,-0.334961,0.593781,0.369934,-0.608215,0.374878,-115.108,44.775,-31.5167,-7110,-28890
2742,64500,0,0,-0.549316,-129.463,-88.764,-167.053,9.74736,-0.0765625,-0.100488,0.594055,0.369476,-0.60849,0.37439,-115.133,44.775,-31.55,-7110,-28890
2748,64506,0.0610352,0.0610352,-0.183105,-129.227,-88.7695,-167.448,9.8335,-0.181836,0.153125,0.594391,0.368988,-0.608734,0.373962,-115.142,44.7583,-31.5833,-7110,-28890
2754,64512,0.12207,-1.89209,-0.183105,-129.655,-88.764,-167.102,9.92441,-0.13877,-0.272754,0.594849,0.368225,-0.609283,0.373108,-115.158,44.7417,-31.6417,-7110,-28890
2760,64518,0,-0.366211,0.0610352,-129.776,-88.7585,-167.064,9.78564,-0.0717773,-0.110059,0.595093,0.367828,-0.609558,0.372681,-115.158,44.7583,-31.6417,-7110,-28890
2766,64524,-0.183105,1.64795,-0.183105,-129.567,-88.7695,-167.349,9.72822,-0.114844,0.119629,0.595398,0.367371,-0.609772,0.372284,-115.167,44.75,-31.6083,-7110,-28890
2772,64530,0.0610352,0.0610352,0,-129.611,-88.7695,-167.377,9.72822,-0.143555,-0.0430664,0.595642,0.367004,-0.609985,0.371918,-115.183,44.75,-31.5833,-7110,-28890
2778,64536,0,-0.0610352,0.12207,-130.056,-88.764,-167.069,9.79521,-0.090918,-0.282324,0.595825,0.366699,-0.610229,0.371521,-115.2,44.7417,-31.5667,-7110,-28890
2784,64542,0,1.40381,0.12207,-129.836,-88.7695,-167.355,9.79043,-0.0239258,0.0861328,0.596283,0.365936,-0.610657,0.370819,-115.258,44.7083,-31.5,-7110,-28890
2790,64548,0,0.366211,0.12207,-129.803,-88.7695,-167.459,9.84307,-0.153125,-0.0478516,0.596527,0.36557,-0.61087,0.370483,-115.275,44.6917,-31.4833,-7110,-28890
2796,64554,0.0610352,-1.15967,0.305176,-130.007,-88.764,-167.316,9.80479,-0.129199,-0.220117,0.59668,0.365265,-0.611084,0.370148,-115.283,44.6833,-31.4667,-7110,-28890
2802,64560,0.0610352,-0.244141,0.183105,-130.062,-88.764,-167.316,9.80479,-0.172266,-0.0957031,0.596863,0.36496,-0.611298,0.369812,-115.292,44.6583,-31.425,-7110,-28890
2808,64566,0,0.183105,-0.12207,-129.869,-88.7695,-167.618,9.79521,-0.14834,0.0813477,0.597107,0.364624,-0.61145,0.369507,-115.292,44.625,-31.4167,-7110,-28890
2814,64572,0,-1.0376,0.0610352,-130.073,-88.764,-167.465,9.87178,-0.15791,-0.196191,0.597382,0.364136,-0.611786,0.368988,-115.308,44.55,-31.4083,-7110,-28890
2820,64578,0.0610352,0,-0.244141,-130.139,-88.7695,-167.443,9.83828,-0.090918,-0.0813477,0.597534,0.363892,-0.611908,0.368744,-115.325,44.525,-31.4167,-7110,-28890
2826,64584,0,1.0376,0,-129.979,-88.7695,-167.646,9.7665,-0.133984,0.062207,0.597717,0.363647,-0.61203,0.3685,-115.342,44.5167,-31.425,-7110,-28890
2832,64590,0,0,-0.0610352,-130.012,-88.775,-167.657,5.01963,-0.526367,-0.143555,0.597839,0.363434,-0.612152,0.368317,-115.35,44.525,-31.425,-7110,-28890
2838,64596,-0.793457,-0.244141,66.8945,-122.08,-88.4839,-175.704,5.97666,-5.29238,-12.2835,0.59787,0.363312,-0.612274,0.368195,-115.367,44.55,-31.4833,-7110,-28890
2844,64602,-0.549316,-48.8281,-39.6729,-134.143,-88.4784,-163.735,48.5215,-20.4661,-4.00039,0.596588,0.362335,-0.614716,0.367126,-115.358,44.5583,-31.4833,-7110,-28890
2850,64608,-5.49316,-51.5137,-53.2227,-147.607,-88.4235,-150.293,6.36904,12.0299,-8.68984,0.596008,0.36441,-0.615417,0.364868,-115.317,44.575,-31.4583,-7110,-28890
2856,64614,-35.5225,61.9507,-21.9116,-144.399,-88.7256,-153.759,8.18262,-2.53613,3.63672,0.598724,0.36264,-0.61438,0.363922,-115.292,44.6,-31.3917,-7110,-28890
2862,64620,14.0991,1.28174,33.2642,-138.494,-88.6047,-159.653,9.00088,0.583789,3.67021,0.598083,0.361755,-0.614929,0.364929,-115.258,44.6167,-31.3333,-7110,-28890
2868,64626,2.31934,-13.7329,20.9351,-140.735,-88.2037,-157.418,12.3218,-1.86143,-2.27295,0.596252,0.362213,-0.616577,0.364685,-115.183,44.6917,-31.2583,-7110,-28890
2874,64632,1.70898,5.7373,-13.1836,-141.735,-88.2532,-156.451,8.90518,0.90918,-1.90449,0.595947,0.361725,-0.617279,0.364502,-115.133,44.7167,-31.2833,-7110,-28890
2880,64638,1.70898,14.1602,-9.70459,-141.476,-88.3246,-156.753,9.44111,0.378027,0.0334961,0.596527,0.361511,-0.616974,0.364258,-115.075,44.725,-31.3167,-7110,-28890
2886,64644,1.52588,22.2168,-3.78418,-139.466,-88.407,-158.813,10.446,-1.42598,-0.172266,0.59726,0.360992,-0.616577,0.364288,-115.017,44.7417,-31.375,-7110,-28890
2892,64650,-7.38525,36.1938,-2.13623,-135.17,-88.5333,-163.196,9.45547,0.526367,0.526367,0.59845,0.359985,-0.615967,0.364349,-114.992,44.7583,-31.425,-7110,-28890
2898,64656,-2.44141,31.25,-0.0610352,-126.722,-88.7201,-171.777,11.7858,-1.7418,-0.550293,0.599396,0.359314,-0.615448,0.364319,-115.017,44.775,-31.475,-7110,-28890
2904,64662,-2.0752,13.0005,-8.97217,-125.574,-88.786,-172.963,9.13008,-0.531152,0.995313,0.600891,0.358276,-0.614624,0.364288,-115.017,44.775,-31.4583,-7110,-28890
2910,64668,2.50244,-25.6958,11.7798,-128.562,-88.6487,-169.98,10.0153,-0.698633,-1.96191,0.599976,0.358307,-0.61554,0.364197,-115.017,44.7583,-31.4333,-7110,-28890
2916,64674,7.44629,-17.8833,-4.94385,-132.034,-88.6047,-166.487,9.87656,0.162695,-1.71787,0.599487,0.358765,-0.615936,0.363892,-114.992,44.75,-31.4167,-7110,-28890
2922,64680,-0.915527,11.4746,0.0610352,-130.259,-88.6267,-168.305,9.50332,-0.354102,4.04346,0.599854,0.358337,-0.615814,0.363861,-114.967,44.7417,-31.3917,-7110,-28890
2928,64686,0.305176,-21.3623,2.13623,-132.847,-88.5553,-165.729,9.42676,0.320605,0.808691,0.600006,0.358246,-0.615784,0.3638,-114.942,44.7417,-31.3583,-7110,-28890
2934,64692,3.17383,-18.6157,2.74658,-135,-88.4784,-163.553,10.178,-0.14834,-2.21074,0.598694,0.358856,-0.616882,0.363464,-114.958,44.7417,-31.3333,-7110,-28890
2940,64698,-0.610352,6.22559,-0.854492,-134.253,-88.4949,-164.328,9.43154,0.0382813,-0.339746,0.598907,0.358643,-0.616821,0.363434,-114.975,44.7417,-31.3167,-7110,-28890
2946,64704,-2.68555,14.5874,-2.62451,-132.55,-88.5498,-166.069,9.12529,0.0813477,1.45947,0.599426,0.358246,-0.616547,0.363403,-114.983,44.7583,-31.3083,-7110,-28890
2952,64710,0.12207,-2.80762,0.610352,-132.847,-88.5278,-165.784,10.0058,-0.373242,0.29668,0.599335,0.358215,-0.616699,0.363342,-114.975,44.7667,-31.2917,-7110,-28890
2958,64716,1.15967,-0.793457,-1.15967,-134.984,-88.4729,-163.658,10.1541,0.14834,-2.27773,0.598938,0.358459,-0.617065,0.36319,-115,44.8167,-31.2667,-7110,-28890
2964,64722,-0.366211,10.9253,-0.0610352,-133.511,-88.5059,-165.163,9.47939,0.0861328,1.73701,0.599335,0.358032,-0.617035,0.363037,-115.008,44.8167,-31.2333,-7110,-28890
2970,64728,-1.52588,2.80762,0,-133.105,-88.5114,-165.591,9.62295,-0.0717773,0.215332,0.599457,0.357849,-0.617035,0.362976,-115.033,44.7917,-31.2,-7110,-28890
2976,64734,0.427246,-7.93457,1.95313,-133.918,-88.4729,-164.784,9.86699,-0.229688,-0.784766,0.599213,0.35788,-0.61731,0.362885,-115.067,44.775,-31.175,-7110,-28890
2982,64740,1.15967,-3.23486,-0.854492,-134.445,-88.4619,-164.268,9.7043,0.0478516,-0.559863,0.599121,0.35788,-0.617432,0.362762,-115.1,44.75,-31.1167,-7110,-28890
2988,64746,-0.427246,4.08936,0.488281,-132.902,-88.4894,-165.855,9.80479,-0.143555,0.531152,0.599365,0.357635,-0.617371,0.362732,-115.133,44.75,-31.0833,-7110,-28890
2994,64752,0.12207,-4.69971,0.183105,-133.506,-88.4729,-165.256,10.0153,-0.16748,-0.507227,0.599396,0.357483,-0.617523,0.36261,-115.158,44.75,-31.1,-7110,-28890
3000,64758,0.183105,-3.90625,0.366211,-133.973,-88.4564,-164.806,9.87178,-0.143555,-0.579004,0.599304,0.357452,-0.617676,0.362518,-115.175,44.75,-31.1167,-7110,-28890
3006,64764,-0.305176,3.54004,0.12207,-133.478,-88.4619,-165.322,9.70908,-0.200977,0.224902,0.599457,0.357269,-0.617676,0.362457,-115.183,44.7667,-31.175,-7110,-28890
3012,64770,-0.305176,4.5166,0.366211,-132.808,-88.4729,-166.009,9.72822,-0.177051,0.440234,0.599609,0.357086,-0.617615,0.362457,-115.175,44.775,-31.2333,-7110,-28890
3018,64776,0.366211,-4.76074,0,-133.808,-88.4509,-165.015,9.85742,-0.0765625,-0.29668,0.599579,0.357117,-0.617706,0.362396,-115.158,44.825,-31.3417,-7110,-28890
3024,64782,0,1.58691,-0.0610352,-133.594,-88.4564,-165.245,9.82871,-0.0813477,0.0669922,0.599518,0.357056,-0.617859,0.362244,-115.15,44.8417,-31.4417,-7110,-28890
3030,64788,-0.183105,4.08936,-0.610352,-133.11,-88.4674,-165.745,9.68994,-0.129199,0.440234,0.599701,0.356903,-0.617798,0.362213,-115.15,44.85,-31.525,-7110,-28890
3036,64794,0.244141,-1.09863,0.12207,-133.226,-88.4619,-165.63,9.69951,-0.124414,-0.15791,0.59967,0.356903,-0.617828,0.362213,-115.142,44.8583,-31.6083,-7110,-28890
3042,64800,0.12207,-4.08936,0,-133.759,-88.4509,-165.103,9.81436,-0.172266,-0.550293,0.599548,0.356964,-0.61795,0.362122,-115.15,44.8583,-31.675,-7110,-28890
3048,64806,-0.0610352,3.72314,-0.610352,-133.11,-88.4674,-165.767,9.72822,-0.0957031,0.0478516,0.599609,0.356873,-0.61795,0.362091,-115.15,44.8583,-31.6667,-7110,-28890
3054,64812,0.12207,-0.610352,0.366211,-133.127,-88.4619,-165.751,9.89092,-0.119629,-0.14834,0.599731,0.356781,-0.617889,0.362091,-115.15,44.8583,-31.6167,-7110,-28890
3060,64818,0.12207,-3.60107,0.244141,-133.566,-88.4509,-165.311,9.9292,-0.100488,-0.502441,0.599609,0.356842,-0.617981,0.362061,-115.15,44.85,-31.575,-7110,-28890
3066,64824,0,0.732422,0.610352,-133.38,-88.4509,-165.509,9.83828,-0.16748,-0.0765625,0.59967,0.35675,-0.618011,0.36203,-115.15,44.825,-31.5417,-7110,-28890
3072,64830,-0.183105,3.41797,-0.0610352,-132.918,-88.4619,-165.981,9.7043,-0.119629,0.272754,0.599792,0.356628,-0.61795,0.36203,-115.158,44.8333,-31.5417,-7110,-28890
3078,64836,0.0610352,-3.05176,0.366211,-133.231,-88.4509,-165.663,9.8335,-0.191406,-0.0765625,0.599792,0.356628,-0.617981,0.36203,-115.158,44.8167,-31.5667,-7110,-28890
3084,64842,0.0610352,0.0610352,-0.366211,-133.259,-88.4509,-165.641,9.87656,-0.0957031,-0.100488,0.599731,0.356659,-0.618042,0.361969,-115.167,44.8083,-31.5583,-7110,-28890
3090,64848,0,2.86865,-0.732422,-132.957,-88.4619,-165.954,9.77607,-0.0717773,0.253613,0.599823,0.356567,-0.617981,0.361969,-115.192,44.7917,-31.5583,-7110,-28890
3096,64854,-0.183105,0.0610352,0.12207,-132.918,-88.4619,-165.998,9.80479,-0.0765625,-0.00478516,0.599854,0.356567,-0.617981,0.361969,-115.217,44.775,-31.5667,-7110,-28890
3102,64860,0.0610352,-2.68555,0.549316,-133.193,-88.4509,-165.718,9.80957,-0.143555,-0.387598,0.599762,0.356598,-0.618073,0.361938,-115.242,44.775,-31.575,-7110,-28890
3108,64866,-0.0610352,2.2583,-0.183105,-132.984,-88.4619,-165.943,9.75693,-0.0765625,-0.153125,0.599854,0.356506,-0.618042,0.361908,-115.267,44.7333,-31.6083,-7110,-28890
3114,64872,0,0.793457,0,-132.858,-88.4619,-166.064,9.78086,-0.0717773,0.00478516,0.599884,0.356506,-0.618011,0.361908,-115.275,44.7167,-31.6083,-7110,-28890
3120,64878,0,-2.0752,0,-133.127,-88.4564,-165.795,9.87656,-0.100488,-0.31582,0.599823,0.356537,-0.618073,0.361877,-115.283,44.7167,-31.6083,-7110,-28890
3126,64884,-0.12207,-0.854492,0.244141,-133.204,-88.4564,-165.723,9.86221,-0.110059,-0.181836,0.599823,0.356506,-0.618103,0.361847,-115.283,44.7,-31.5833,-7110,-28890
3132,64890,-0.0610352,1.77002,0,-132.957,-88.4619,-165.981,9.73779,-0.114844,0.110059,0.599915,0.356445,-0.618073,0.361816,-115.292,44.6917,-31.55,-7110,-28890
3138,64896,0.0610352,-1.34277,0.427246,-132.858,-88.4619,-166.08,9.79521,-0.14834,0.0191406,0.599915,0.356415,-0.618103,0.361847,-115.283,44.6917,-31.4833,-7110,-28890
3144,64902,0,-0.732422,0.0610352,-132.935,-88.4564,-166.003,9.85742,-0.181836,-0.186621,0.599884,0.356415,-0.618103,0.361816,-115.283,44.7,-31.4667,-7110,-28890
3150,64908,0,1.46484,-0.12207,-132.742,-88.4619,-166.201,9.82393,-0.133984,0.110059,0.599945,0.356384,-0.618073,0.361816,-115.275,44.7333,-31.4833,-7110,-28890
3156,64914,0,0.976563,0,-132.589,-88.4674,-166.349,9.8335,-0.129199,0.0717773,0.599976,0.356384,-0.618011,0.361877,-115.267,44.75,-31.4833,-7110,-28890
3162,64920,0,-1.2207,0.0610352,-132.731,-88.4674,-166.196,9.85742,-0.14834,-0.181836,0.599915,0.356445,-0.618011,0.361908,-115.233,44.7583,-31.5,-7110,-28890
3168,64926,0,0.976563,-0.183105,-132.715,-88.4674,-166.196,9.8335,-0.143555,-0.181836,0.599884,0.356537,-0.61795,0.361969,-115.183,44.7833,-31.525,-7110,-28890
3174,64932,0,0.793457,-0.244141,-132.616,-88.4729,-166.289,9.76172,-0.105273,0.0478516,0.599915,0.356567,-0.617889,0.36203,-115.158,44.775,-31.5417,-7110,-28890
3180,64938,0.12207,-1.15967,-0.305176,-132.792,-88.4729,-166.097,9.85742,-0.124414,-0.162695,0.599823,0.356689,-0.617859,0.362091,-115.15,44.7917,-31.5417,-7110,-28890
3186,64944,0.12207,-1.2207,0,-132.935,-88.4674,-165.938,-3.4166,-1.16758,-1.23457,0.599762,0.356781,-0.617828,0.362152,-115.158,44.825,-31.5167,-7110,-28890
3192,64950,2.50244,2.44141,0.915527,-132.457,-88.4729,-166.41,8.90996,1.20107,-5.42637,0.599792,0.356781,-0.617767,0.362274,-115.183,44.8417,-31.4833,-7110,-28890
3198,64956,28.2593,-31.189,-145.264,-154.984,-88.5883,-143.795,2.05762,-14.8866,3.97646,0.599854,0.36084,-0.617157,0.359131,-115.225,44.8583,-31.4417,-7110,-28890
3204,64962,-74.2188,-8.8501,22.4609,-152.221,-88.4894,-147.068,16.9251,-5.65605,-3.8042,0.6008,0.357666,-0.619415,0.356842,-115.233,44.85,-31.425,-7110,-28890
3210,64968,17.7002,-21.7285,47.8516,-146.766,-88.2587,-152.534,9.78086,0.746484,0.727344,0.599396,0.356659,-0.620819,0.357727,-115.225,44.825,-31.3667,-7110,-28890
3216,64974,11.2305,-35.6445,8.54492,-148.563,-88.0774,-150.776,11.0154,-1.61738,-3.5793,0.598358,0.35675,-0.62207,0.357208,-115.2,44.8083,-31.3167,-7110,-28890
3222,64980,-4.69971,5.37109,18.5547,-145.849,-88.0334,-153.616,10.2833,-1.33984,0.239258,0.598541,0.355469,-0.622681,0.357117,-115.167,44.8,-31.25,-7110,-28890
3228,64986,-1.52588,-1.58691,-3.72314,-148.107,-88.1378,-151.556,8.02471,1.52646,1.0958,0.599792,0.354889,-0.622711,0.35556,-115.108,44.7833,-31.1083,-7110,-28890
3234,64992,0.366211,5.5542,1.95313,-147.398,-88.1433,-152.369,10.7092,-0.775195,-1.06709,0.600128,0.354187,-0.622986,0.355194,-115.092,44.7667,-31.0667,-7110,-28890
3240,64998,-6.5918,46.7529,6.34766,-142.256,-88.3026,-157.648,10.4508,-0.775195,-0.13877,0.601654,0.35257,-0.622345,0.355377,-115.075,44.7417,-31.0083,-7110,-28890
3246,65004,-8.36182,40.8936,-0.671387,-137.791,-88.4509,-162.257,10.0345,0.090918,0.521582,0.603119,0.351196,-0.621765,0.355255,-115.083,44.7333,-30.9917,-7110,-28890
3252,65010,2.2583,20.2637,-5.61523,-135.994,-88.5333,-164.136,9.14443,0.569434,3.19648,0.603943,0.350586,-0.62146,0.35498,-115.075,44.725,-31.0167,-7110,-28890
3258,65016,2.68555,-25.4517,2.80762,-137.631,-88.3795,-162.625,9.71865,-0.339746,-2.33994,0.603333,0.349915,-0.622833,0.354248,-115.083,44.7417,-31.175,-7110,-28890
3264,65022,0.549316,-13.0615,3.35693,-138.746,-88.3136,-161.592,10.0249,-0.387598,-0.837402,0.603119,0.349609,-0.623535,0.353729,-115.092,44.75,-31.275,-7110,-28890
3270,65028,-1.09863,4.88281,-1.0376,-138.367,-88.3246,-162.059,9.80957,-0.220117,0.478516,0.603516,0.34906,-0.623688,0.353302,-115.092,44.75,-31.3417,-7110,-28890
3276,65034,-2.01416,2.01416,-1.34277,-138.351,-88.3301,-162.164,10.5561,-0.937891,-0.60293,0.60379,0.348602,-0.623932,0.352844,-115.092,44.75,-31.3667,-7110,-28890
3282,65040,0.305176,8.78906,4.45557,-140.268,-88.3466,-160.313,8.85254,1.6748,-1.27285,0.604034,0.348602,-0.624115,0.352142,-115.092,44.7583,-31.3833,-7110,-28890
3288,65046,-2.50244,6.34766,-17.334,-140.367,-88.4344,-160.373,8.31182,2.05283,-0.30625,0.605072,0.347839,-0.624084,0.351166,-115.058,44.7583,-31.35,-7110,-28890
3294,65052,1.64795,-1.95313,-0.732422,-140.729,-88.4235,-160.087,10.3024,-0.846973,-0.937891,0.605225,0.347473,-0.62439,0.350739,-115.05,44.7667,-31.3,-7110,-28890
3300,65058,-0.12207,4.57764,0.671387,-140.131,-88.4344,-160.763,9.25928,0.937891,-0.210547,0.60556,0.346924,-0.624542,0.350403,-115.042,44.7667,-31.2583,-7110,-28890
3306,65064,-0.427246,7.99561,1.95313,-138.966,-88.4509,-162.032,9.84785,-0.129199,1.0623,0.606018,0.346222,-0.624695,0.350037,-115.025,44.7667,-31.225,-7110,-28890
3312,65070,0.671387,-17.8833,3.54004,-138.604,-88.407,-162.477,9.88613,-0.162695,0.574219,0.605988,0.345642,-0.625214,0.349701,-115.008,44.7417,-31.2083,-7110,-28890
3318,65076,1.28174,-11.9019,7.62939,-140.532,-88.2532,-160.703,10.6374,-1.30156,-1.15801,0.605469,0.34494,-0.626648,0.348724,-114.967,44.6917,-31.2417,-7110,-28890
3324,65082,-0.183105,2.74658,-0.915527,-140.389,-88.2642,-160.928,8.94346,0.91875,-0.0287109,0.605774,0.344513,-0.626831,0.348328,-114.958,44.675,-31.25,-7110,-28890
3330,65088,-0.488281,10.8643,-1.64795,-139.488,-88.3081,-161.927,9.91484,-0.689063,1.08623,0.606384,0.343842,-0.626831,0.3479,-114.95,44.675,-31.275,-7110,-28890
3336,65094,-1.40381,-0.12207,2.92969,-139.158,-88.2971,-162.334,9.7043,0.277539,0.114844,0.606567,0.343353,-0.627106,0.347565,-114.942,44.6833,-31.2917,-7110,-28890
3342,65100,0.793457,-0.915527,4.5166,-140.609,-88.2642,-160.95,10.1876,0.0574219,-1.48818,0.606537,0.343201,-0.627533,0.346985,-114.95,44.6917,-31.3167,-7110,-28890
3348,65106,-0.305176,7.8125,-3.35693,-139.812,-88.2861,-161.917,9.24014,0.401953,0.660352,0.607208,0.342133,-0.62793,0.346191,-114.933,44.7167,-31.2917,-7110,-28890
3354,65112,0,2.99072,2.50244,-139.219,-88.2861,-162.603,10.0249,-0.832617,0.488086,0.607483,0.341553,-0.628143,0.345825,-114.925,44.725,-31.2917,-7110,-28890
3360,65118,0.427246,-7.08008,-0.12207,-140.01,-88.2642,-161.867,9.61338,0.253613,-0.765625,0.607483,0.34137,-0.62851,0.345428,-114.892,44.7417,-31.2583,-7110,-28890
3366,65124,0.549316,-3.84521,-0.854492,-140.548,-88.2477,-161.395,10.2498,-0.540723,-0.488086,0.607605,0.341034,-0.628815,0.34494,-114.867,44.75,-31.225,-7110,-28890
3372,65130,-0.12207,3.90625,-2.62451,-139.911,-88.2642,-162.109,9.68516,0.105273,0.421094,0.607941,0.340576,-0.628906,0.344696,-114.858,44.7333,-31.2167,-7110,-28890
3378,65136,0.183105,-3.60107,2.2583,-139.966,-88.2697,-162.175,9.93398,-0.325391,-0.425879,0.608307,0.339905,-0.629242,0.344025,-114.9,44.775,-31.2917,-7110,-28890
3384,65142,0.183105,-5.00488,-1.77002,-140.729,-88.2532,-161.461,9.57988,0.129199,-0.645996,0.608368,0.339752,-0.629486,0.343628,-114.925,44.7917,-31.3167,-7110,-28890
3390,65148,0,2.68555,1.28174,-140.312,-88.2642,-161.949,9.83828,-0.46416,0.16748,0.608612,0.339325,-0.629639,0.343353,-114.942,44.8167,-31.3083,-7110,-28890
3396,65154,-0.244141,4.5166,-1.2207,-139.999,-88.2806,-162.312,9.4124,0.239258,0.435449,0.608917,0.338989,-0.629669,0.343079,-114.967,44.825,-31.25,-7110,-28890
3402,65160,0,-4.57764,0.915527,-140.169,-88.2806,-162.191,9.99619,-0.349316,-0.114844,0.609039,0.338745,-0.629852,0.342804,-114.975,44.825,-31.1917,-7110,-28890
3408,65166,-0.12207,0.366211,-0.854492,-140.63,-88.2642,-161.829,9.8957,-0.13877,-0.110059,0.609222,0.338257,-0.630249,0.342194,-114.992,44.8333,-31.0917,-7110,-28890
3414,65172,-0.12207,4.27246,1.28174,-140.032,-88.2751,-162.482,9.77129,-0.200977,0.354102,0.609497,0.33786,-0.63031,0.34201,-115.033,44.8417,-31.1083,-7110,-28890
3420,65178,-0.12207,0,-0.732422,-140.131,-88.2806,-162.427,9.68516,0.00478516,-0.0717773,0.609619,0.337646,-0.630432,0.341766,-115.067,44.8417,-31.15,-7110,-28890
3426,65184,0.12207,-3.90625,1.34277,-140.383,-88.2642,-162.219,10.0297,-0.397168,-0.531152,0.609619,0.337463,-0.630646,0.341492,-115.092,44.825,-31.2167,-7110,-28890
3432,65190,0,3.479,-0.244141,-140.257,-88.2751,-162.438,9.77607,0.0765625,-0.229688,0.609741,0.33725,-0.630798,0.341248,-115.125,44.8083,-31.2667,-7110,-28890
3438,65196,0,1.34277,0.244141,-140.081,-88.2806,-162.647,9.75693,0.0430664,0.0669922,0.610168,0.3367,-0.63089,0.340851,-115.15,44.775,-31.3,-7110,-28890
3444,65202,0.12207,-2.92969,-0.854492,-140.504,-88.2751,-162.257,9.89092,-0.162695,-0.349316,0.610199,0.336609,-0.631042,0.340607,-115.183,44.7583,-31.2833,-7110,-28890
3450,65208,0.12207,-1.52588,0.976563,-140.548,-88.2697,-162.252,9.79043,-0.119629,-0.291895,0.61026,0.336395,-0.631226,0.340393,-115.192,44.725,-31.25,-7110,-28890
3456,65214,-0.12207,2.2583,-0.915527,-140.433,-88.2806,-162.411,9.68037,-0.0191406,0.200977,0.610474,0.336151,-0.631256,0.340179,-115.2,44.7083,-31.1833,-7110,-28890
3462,65220,0.12207,-2.44141,-0.854492,-140.581,-88.2806,-162.318,9.7665,-0.153125,0.13877,0.610626,0.335907,-0.631317,0.340027,-115.2,44.7,-31.1583,-7110,-28890
3468,65226,0,-1.58691,0.427246,-140.702,-88.2751,-162.235,9.94355,-0.200977,-0.272754,0.610718,0.335663,-0.631561,0.33963,-115.225,44.7417,-31.175,-7110,-28890
3474,65232,0,1.83105,0,-140.51,-88.2861,-162.466,9.70908,-0.00478516,0.0669922,0.61087,0.335449,-0.631622,0.339447,-115.242,44.7667,-31.2,-7110,-28890
3480,65238,0,1.70898,0,-140.334,-88.2916,-162.675,9.80479,-0.220117,0.105273,0.611053,0.335236,-0.631683,0.339294,-115.225,44.7833,-31.225,-7110,-28890
3486,65244,0,-1.28174,0.732422,-140.372,-88.2861,-162.664,9.81914,-0.13877,-0.210547,0.611084,0.335083,-0.631775,0.339172,-115.208,44.7667,-31.2083,-7110,-28890
3492,65250,0.183105,1.40381,0.427246,-140.334,-88.2916,-162.751,9.85742,-0.186621,-0.291895,0.611115,0.334991,-0.631866,0.33902,-115.183,44.725,-31.2,-7110,-28890
3498,65256,-0.0610352,2.0752,-0.671387,-140.191,-88.3026,-162.916,9.78564,-0.0813477,0.124414,0.611389,0.334656,-0.631897,0.338806,-115.167,44.7083,-31.2333,-7110,-28890
3504,65262,0.12207,-0.488281,0.183105,-140.208,-88.3026,-162.911,9.91484,-0.220117,-0.0957031,0.61142,0.334595,-0.631958,0.338715,-115.167,44.7083,-31.2583,-7110,-28890
3510,65268,0.183105,-1.89209,0,-140.4,-88.2971,-162.729,9.82871,-0.0861328,-0.258398,0.61142,0.334564,-0.632019,0.338654,-115.167,44.7167,-31.2667,-7110,-28890
3516,65274,0,0.549316,0,-140.328,-88.3026,-162.817,9.82393,-0.172266,-0.00957031,0.611481,0.334473,-0.632019,0.338562,-115.175,44.725,-31.3167,-7110,-28890
3522,65280,0.0610352,-0.427246,-0.427246,-140.246,-88.3136,-162.916,9.71387,-0.0669922,0.16748,0.611572,0.334381,-0.631989,0.338531,-115.167,44.7333,-31.3667,-7110,-28890
3528,65286,1.09863,-2.19727,8.11768,-139.493,-88.2806,-163.773,10.1493,-3.72764,-9.55596,0.611755,0.333649,-0.632477,0.338104,-115.158,44.75,-31.3833,-7110,-28890
3534,65292,-2.13623,-7.69043,58.2275,-133.802,-88.0444,-169.585,15.614,-0.641211,-1.20586,0.610992,0.331482,-0.633911,0.338898,-115.15,44.7583,-31.35,-7110,-28890
3540,65298,-5.5542,-40.2832,-43.0908,-142.526,-88.0334,-160.988,8.02949,5.36895,-3.99082,0.61084,0.332581,-0.634766,0.336456,-115.158,44.7667,-31.325,-7110,-28890
3546,65304,5.67627,-26.4893,32.7759,-141.356,-87.8192,-162.301,4.14395,-26.0169,-7.13945,0.609985,0.331268,-0.636414,0.336151,-115.142,44.775,-31.325,-7110,-28890
3552,65310,-83.1909,94.7266,-2.68555,-142.976,-88.9728,-161.142,-6.59873,20.6336,-13.0396,0.614319,0.334564,-0.631653,0.334015,-115.075,44.8417,-31.3917,-7110,-28890
3558,65316,-0.427246,-22.7661,65.6128,-134.912,-88.6377,-169.338,11.6997,-0.593359,-1.55039,0.616974,0.328033,-0.632996,0.333008,-115.042,44.8833,-31.4167,-7110,-28890
3564,65322,12.4512,-38.5132,3.78418,-139.675,-88.4564,-164.63,11.0872,-1.62695,-3.20127,0.615875,0.328156,-0.63446,0.332245,-115,44.9,-31.4333,-7110,-28890
3570,65328,-3.11279,15.0757,6.34766,-137.126,-88.4619,-167.316,9.85264,-1.13408,2.2873,0.616394,0.326996,-0.634705,0.33194,-114.975,44.9167,-31.4667,-7110,-28890
3576,65334,-5.18799,16.4185,-22.7661,-138.422,-88.5718,-166.157,8.94824,0.842188,-0.090918,0.617401,0.326599,-0.634491,0.330841,-114.967,44.9333,-31.5333,-7110,-28890
3582,65340,-5.5542,7.87354,-7.50732,-140.07,-88.6432,-164.784,9.63252,-0.105273,-0.516797,0.617981,0.326141,-0.634674,0.329865,-114.925,44.9167,-31.7333,-7110,-28890
3588,65346,-2.86865,4.3335,-2.92969,-140.081,-88.6432,-164.894,10.3599,0.062207,0.349316,0.618927,0.324768,-0.635223,0.328339,-114.95,44.8917,-31.825,-7110,-28890
3594,65352,3.66211,6.46973,11.2915,-137.521,-88.6102,-167.547,9.91963,-0.325391,2.8041,0.61908,0.323822,-0.63559,0.328247,-114.975,44.8667,-31.875,-7110,-28890
3600,65358,2.80762,-14.5874,-2.38037,-139.905,-88.5498,-165.251,9.94834,0.0143555,-0.923535,0.618866,0.323608,-0.636292,0.327545,-115,44.8417,-31.9,-7110,-28890
3606,65364,4.21143,-14.7705,9.33838,-140.4,-88.4454,-164.839,9.79043,-0.478516,-0.397168,0.618469,0.32309,-0.637146,0.327148,-115.025,44.8083,-31.8667,-7110,-28890
3612,65370,0.793457,-6.22559,8.11768,-140.652,-88.3356,-164.773,9.1875,0.215332,0.320605,0.618408,0.322632,-0.637726,0.326599,-115.025,44.7667,-31.8,-7110,-28890
3618,65376,1.0376,-14.0381,6.95801,-141.273,-88.2477,-164.246,9.42197,0.215332,-0.349316,0.618011,0.321442,-0.63916,0.325714,-115.017,44.7667,-31.775,-7110,-28890
3624,65382,0.488281,-19.4702,3.72314,-142.751,-88.1488,-162.861,10.0153,-0.368457,-0.277539,0.617615,0.321075,-0.640076,0.325043,-115.008,44.775,-31.75,-7110,-28890
3630,65388,-0.488281,-16.4795,5.5542,-143.602,-88.0554,-162.103,11.2547,-1.89971,-1.18193,0.617279,0.320587,-0.64093,0.324432,-114.992,44.7917,-31.7333,-7110,-28890
3636,65394,0.793457,-6.46973,-19.8364,-146.552,-88.0774,-159.23,8.62285,1.96191,-0.512012,0.617554,0.320801,-0.641083,0.323425,-114.992,44.8167,-31.725,-7110,-28890
3642,65400,0.12207,-0.488281,-5.31006,-146.937,-88.0939,-159.022,10.2737,-1.29199,0.526367,0.61792,0.320221,-0.641266,0.322968,-114.983,44.8333,-31.6333,-7110,-28890
3648,65406,0.305176,-2.86865,-1.28174,-147.349,-88.0774,-158.708,10.1541,-0.636426,-0.258398,0.618286,0.319458,-0.641876,0.321777,-114.967,44.8333,-31.6,-7110,-28890
3654,65412,0.549316,-0.549316,4.5166,-146.838,-88.0554,-159.307,9.57031,0.330176,-0.0334961,0.618408,0.318817,-0.642242,0.321442,-114.942,44.8333,-31.5667,-7110,-28890
3660,65418,0.366211,0.0610352,-0.12207,-146.865,-88.0499,-159.368,9.75215,0.14834,-0.258398,0.618652,0.318329,-0.642517,0.320923,-114.908,44.8583,-31.5417,-7110,-28890
3666,65424,0,0.0610352,6.5918,-146.085,-88.028,-160.247,9.90049,-0.13877,-0.248828,0.618774,0.317566,-0.642944,0.320587,-114.9,44.8833,-31.5667,-7110,-28890
3672,65430,0.0610352,1.95313,-0.732422,-145.261,-88.0225,-161.263,9.96748,-0.574219,0.263184,0.619049,0.316833,-0.643219,0.32019,-114.883,44.9167,-31.5667,-7110,-28890
3678,65436,0.244141,-2.01416,-0.183105,-145.475,-88.0115,-161.142,9.94834,-0.349316,-0.191406,0.619507,0.315857,-0.643768,0.319183,-114.883,44.8917,-31.55,-7110,-28890
3684,65442,0.183105,-2.74658,1.89209,-145.503,-87.9895,-161.208,9.80957,0.0813477,-0.435449,0.619629,0.315338,-0.644135,0.318726,-114.9,44.8583,-31.525,-7110,-28890
3690,65448,-0.244141,0.793457,-0.976563,-145.585,-87.995,-161.219,9.90527,-0.0813477,-0.0239258,0.619904,0.314819,-0.644409,0.318176,-114.917,44.8333,-31.475,-7110,-28890
3696,65454,0,3.66211,1.95313,-145.085,-88.0005,-161.807,9.89092,-0.234473,0.354102,0.620209,0.314209,-0.644592,0.31778,-114.925,44.825,-31.4667,-7110,-28890
3702,65460,0.183105,-3.11279,1.77002,-145.311,-87.9785,-161.757,9.64688,0.133984,-0.0287109,0.620453,0.313751,-0.644836,0.317291,-114.917,44.8,-31.475,-7110,-28890
3708,65466,-0.12207,-0.671387,0.366211,-145.344,-87.973,-161.807,9.69951,0,-0.177051,0.620758,0.312775,-0.645477,0.316345,-114.908,44.7917,-31.475,-7110,-28890
3714,65472,0.0610352,3.05176,-0.732422,-145.206,-87.984,-162.032,9.89092,-0.30625,0.277539,0.621063,0.312286,-0.64563,0.315918,-114.883,44.7917,-31.5083,-7110,-28890
3720,65478,0,0.854492,0.305176,-145.118,-87.9895,-162.197,9.82871,-0.0717773,0.0669922,0.621307,0.311829,-0.645813,0.315521,-114.883,44.7917,-31.5083,-7110,-28890
3726,65484,0,-2.80762,-0.793457,-145.453,-87.9785,-161.933,9.91963,-0.13877,-0.330176,0.621429,0.311493,-0.646088,0.315063,-114.883,44.8,-31.4917,-7110,-28890
3732,65490,-0.0610352,1.89209,-1.09863,-145.453,-87.9785,-162.076,9.87656,-0.253613,-0.224902,0.621582,0.311066,-0.646332,0.314667,-114.933,44.8,-31.4583,-7118,-28889
3738,65496,0,1.46484,0.183105,-145.327,-87.984,-162.274,9.79043,-0.277539,0.119629,0.62204,0.310272,-0.646637,0.313904,-114.975,44.8,-31.45,-7118,-28889
3744,65502,0.0610352,-1.40381,-0.183105,-145.47,-87.9785,-162.191,9.68994,0.00957031,-0.215332,0.622192,0.309937,-0.64682,0.313568,-115,44.7917,-31.4417,-7118,-28889
3750,65508,0,-1.70898,-0.305176,-145.651,-87.973,-162.076,9.87178,-0.181836,-0.248828,0.622314,0.309601,-0.647034,0.313171,-115.017,44.775,-31.4417,-7118,-28889
3756,65514,0,0.976563,0.427246,-145.536,-87.973,-162.257,9.78086,-0.0430664,-0.00478516,0.622528,0.309204,-0.647186,0.312836,-115.017,44.7583,-31.4417,-7118,-28889
3762,65520,0.12207,-0.488281,0.732422,-145.448,-87.9785,-162.466,9.79043,-0.0669922,0.0478516,0.622742,0.308838,-0.647339,0.3125,-115,44.7417,-31.4333,-7118,-28889
3768,65526,0,-1.52588,-0.12207,-145.591,-87.973,-162.378,9.8,-0.0382813,-0.277539,0.622986,0.308197,-0.647705,0.311859,-115.017,44.7417,-31.45,-7118,-28889
3774,65532,0,0.244141,0.427246,-145.536,-87.973,-162.499,9.90049,-0.263184,-0.105273,0.623169,0.307831,-0.647858,0.311523,-115.025,44.725,-31.45,-7118,-28889
3780,65538,0,1.2207,-0.183105,-145.464,-87.9785,-162.625,9.77607,-0.0239258,0.0526367,0.623352,0.307526,-0.64798,0.311249,-115.042,44.725,-31.45,-7118,-28889
3786,65544,0,0.0610352,-0.244141,-145.492,-87.984,-162.653,9.90049,-0.16748,-0.0478516,0.623505,0.30722,-0.648102,0.310944,-115.067,44.7167,-31.4417,-7118,-28889
3792,65550,0.0610352,-0.427246,-0.305176,-145.64,-87.9785,-162.603,9.84785,-0.0526367,-0.196191,0.623627,0.306946,-0.648285,0.310638,-115.1,44.7083,-31.3417,-7118,-28889
3798,65556,0,0.854492,0.244141,-145.552,-87.984,-162.746,9.77607,-0.124414,0.0526367,0.623932,0.306366,-0.648529,0.310089,-115.092,44.7,-31.3083,-7118,-28889
3804,65562,0.0610352,0.427246,-0.610352,-145.591,-87.9895,-162.757,9.6708,0,0.0191406,0.624084,0.306122,-0.648621,0.309814,-115.083,44.7,-31.2833,-7118,-28889
3810,65568,-0.0610352,-1.0376,0.0610352,-145.668,-87.984,-162.724,9.80957,-0.14834,-0.153125,0.624207,0.305847,-0.648773,0.30954,-115.058,44.725,-31.3083,-7118,-28889
3816,65574,0,-0.793457,-0.0610352,-145.739,-87.984,-162.697,9.75693,-0.0382813,-0.172266,0.624298,0.305634,-0.648895,0.309296,-115.033,44.725,-31.35,-7118,-28889
3822,65580,0.0610352,0.610352,0.12207,-145.668,-87.995,-162.861,9.81436,-0.090918,-0.00957031,0.624481,0.305359,-0.648987,0.309021,-115.05,44.725,-31.35,-7118,-28889
3828,65586,0,-0.732422,0.183105,-145.706,-87.9895,-162.867,9.81436,-0.105273,-0.143555,0.624725,0.304871,-0.6492,0.308563,-115.067,44.725,-31.3167,-7118,-28889
3834,65592,0,-0.793457,0.488281,-145.712,-87.9895,-162.9,9.85264,-0.220117,-0.14834,0.624817,0.304626,-0.649323,0.308319,-115.092,44.725,-31.2833,-7118,-28889
3840,65598,0,0.366211,-0.0610352,-145.69,-87.995,-162.96,9.78564,-0.129199,-0.0239258,0.624939,0.304413,-0.649414,0.308136,-115.117,44.7417,-31.275,-7118,-28889
3846,65604,-0.183105,1.09863,0.305176,-145.563,-88.0005,-163.125,9.84307,-0.200977,0.00957031,0.625092,0.304169,-0.649445,0.307953,-115.142,44.7583,-31.275,-7118,-28889
3852,65610,0.0610352,-0.305176,0,-145.574,-88.0005,-163.163,9.84785,-0.133984,-0.0526367,0.625183,0.304016,-0.649506,0.3078,-115.142,44.7417,-31.3,-7110,-28890
3858,65616,0,0.305176,0,-145.536,-88.006,-163.224,9.82393,-0.133984,-0.0239258,0.625336,0.303741,-0.649628,0.307526,-115.125,44.7167,-31.325,-7110,-28890
3864,65622,-0.12207,0.610352,-0.244141,-145.503,-88.0115,-163.279,9.7665,-0.124414,0.0765625,0.625427,0.30365,-0.649628,0.307434,-115.108,44.6917,-31.35,-7110,-28890
3870,65628,0,0,-0.12207,-145.497,-88.017,-163.295,9.77607,-0.129199,-0.0478516,0.625488,0.303558,-0.649658,0.307343,-115.092,44.6833,-31.3833,-7110,-28890
3876,65634,-0.0610352,-0.854492,-0.183105,-145.569,-88.017,-163.235,9.80479,-0.114844,-0.14834,0.625488,0.303528,-0.649689,0.307281,-115.092,44.6917,-31.4167,-7110,-28890
3882,65640,0,0.305176,-0.366211,-145.569,-88.0225,-163.257,9.83828,-0.13877,-0.105273,0.62561,0.303406,-0.649689,0.307159,-115.058,44.7667,-31.4,-7110,-28890
3888,65646,0.0610352,0.0610352,0,-145.541,-88.0225,-163.295,9.82393,-0.105273,-0.0861328,0.625641,0.303345,-0.649689,0.307098,-115.042,44.8083,-31.3917,-7110,-28890
3894,65652,0,-0.671387,0.12207,-145.563,-88.0225,-163.279,9.81914,-0.0717773,-0.181836,0.625671,0.303314,-0.649719,0.307068,-115.017,44.8333,-31.375,-7110,-28890
3900,65658,0,-0.12207,-0.0610352,-145.563,-88.028,-163.29,9.82393,-0.0861328,-0.129199,0.625702,0.303223,-0.64975,0.306976,-115.025,44.85,-31.3583,-7110,-28890
3906,65664,0.0610352,0.610352,0.12207,-145.486,-88.0334,-163.389,9.75693,-0.0813477,-0.0478516,0.625793,0.303131,-0.64975,0.306915,-115.033,44.85,-31.3667,-7110,-28890
3912,65670,0.0610352,-0.0610352,0.427246,-145.366,-88.0389,-163.537,9.77607,-0.0861328,-0.090918,0.625916,0.302948,-0.64978,0.306763,-115.033,44.8417,-31.3583,-7110,-28890
3918,65676,0.0610352,0,-0.0610352,-145.36,-88.0389,-163.559,9.82393,-0.0957031,-0.105273,0.625977,0.302856,-0.649811,0.306671,-115.042,44.85,-31.3583,-7110,-28890
3924,65682,0.0610352,0.610352,0.366211,-145.25,-88.0444,-163.685,9.82393,-0.105273,0,0.626068,0.302765,-0.649811,0.30661,-115.05,44.8583,-31.3667,-7110,-28890
3930,65688,0,0.488281,0.12207,-145.179,-88.0499,-163.768,9.78086,-0.100488,-0.00957031,0.626129,0.302673,-0.649841,0.306549,-115.067,44.875,-31.3417,-7110,-28890
3936,65694,0,-0.0610352,-0.244141,-145.201,-88.0554,-163.762,9.81914,-0.13877,-0.0478516,0.62616,0.302612,-0.649841,0.306488,-115.083,44.9,-31.325,-7110,-28890
3942,65700,0.0610352,0.0610352,0,-145.157,-88.0609,-163.812,9.82393,-0.13877,-0.0717773,0.626221,0.302551,-0.649841,0.306427,-115.117,44.925,-31.3167,-7110,-28890
3948,65706,0,0.183105,0,-145.118,-88.0609,-163.856,9.8335,-0.14834,-0.00957031,0.626251,0.302551,-0.649811,0.306427,-115.158,44.925,-31.35,-7110,-28890
3954,65712,0,-0.305176,0,-145.118,-88.0664,-163.85,9.80957,-0.119629,-0.0717773,0.626251,0.302551,-0.64978,0.306427,-115.183,44.925,-31.4083,-7110,-28890
3960,65718,0.0610352,-0.427246,0,-145.129,-88.0664,-163.839,9.83828,-0.162695,-0.0861328,0.626251,0.302582,-0.64978,0.306458,-115.208,44.9333,-31.4917,-7110,-28890
3966,65724,0.12207,-0.0610352,-0.12207,-145.118,-88.0719,-163.839,9.80479,-0.13877,-0.0861328,0.626251,0.302612,-0.64975,0.306488,-115.225,44.9417,-31.55,-7110,-28890
3972,65730,0,0.12207,-0.0610352,-145.042,-88.0774,-163.9,9.80479,-0.124414,-0.0574219,0.626282,0.302704,-0.649658,0.30658,-115.2,44.9667,-31.6167,-7110,-28890
3978,65736,0.0610352,-0.12207,-0.0610352,-145.031,-88.0774,-163.905,9.78086,-0.0957031,-0.124414,0.626282,0.302734,-0.649628,0.30661,-115.167,44.975,-31.6,-7110,-28890
3984,65742,0,-0.12207,0.12207,-145.003,-88.0829,-163.927,9.78564,-0.0813477,-0.0861328,0.626282,0.302765,-0.649597,0.306641,-115.125,44.975,-31.5917,-7110,-28890
3990,65748,0,0.427246,-0.12207,-144.954,-88.0884,-163.971,9.77129,-0.0669922,-0.0430664,0.626282,0.302795,-0.649536,0.306671,-115.108,44.975,-31.5417,-7110,-28890
3996,65754,0.0610352,0.12207,0.244141,-144.888,-88.0884,-164.037,9.81914,-0.105273,-0.062207,0.626312,0.302795,-0.649506,0.306702,-115.083,44.9667,-31.5083,-7110,-28890
4002,65760,-0.0610352,-0.12207,0.12207,-144.838,-88.0939,-164.075,9.8,-0.090918,-0.100488,0.626312,0.302826,-0.649445,0.306763,-115.083,44.975,-31.525,-7110,-28890
4008,65766,0,0.0610352,-0.0610352,-144.816,-88.0994,-164.097,9.82393,-0.090918,-0.090918,0.626343,0.302856,-0.649414,0.306793,-115.075,44.9667,-31.5,-7110,-28890
4014,65772,0,0.12207,-0.183105,-144.805,-88.1049,-164.103,9.8335,-0.0957031,-0.0765625,0.626343,0.302887,-0.649384,0.306793,-115.067,44.95,-31.5083,-7110,-28890
4020,65778,0,-0.183105,0.0610352,-144.789,-88.1049,-164.119,9.82871,-0.114844,-0.105273,0.626343,0.302887,-0.649353,0.306824,-115.067,44.9333,-31.4667,-7110,-28890
4026,65784,0.0610352,-0.244141,0.12207,-144.767,-88.1104,-164.13,9.8,-0.110059,-0.129199,0.626373,0.302917,-0.649353,0.306824,-115.05,44.925,-31.3833,-7110,-28890
4032,65790,-0.12207,0.305176,-0.12207,-144.684,-88.1158,-164.218,9.82393,-0.13877,-0.090918,0.626404,0.302917,-0.649292,0.306854,-115.083,44.9417,-31.225,-7110,-28890
4038,65796,0,0,0.12207,-144.646,-88.1213,-164.251,9.82393,-0.110059,-0.0526367,0.626434,0.302917,-0.649261,0.306854,-115.092,44.9417,-31.1833,-7110,-28890
4044,65802,0.12207,-0.0610352,0.12207,-144.608,-88.1213,-164.284,9.79043,-0.105273,-0.0669922,0.626434,0.302948,-0.649231,0.306885,-115.092,44.925,-31.1917,-7110,-28890
4050,65808,-0.0610352,0.12207,0.0610352,-144.564,-88.1268,-164.323,9.81436,-0.105273,-0.0574219,0.626434,0.302948,-0.6492,0.306915,-115.1,44.9333,-31.2167,-7110,-28890
4056,65814,0,0.183105,-0.183105,-144.547,-88.1323,-164.339,9.80957,-0.110059,-0.0478516,0.626465,0.302979,-0.64917,0.306946,-115.108,44.925,-31.275,-7110,-28890
4062,65820,0,0,0.244141,-144.443,-88.1378,-164.427,9.81436,-0.110059,-0.0526367,0.626465,0.30304,-0.649078,0.307037,-115.133,44.95,-31.2917,-7110,-28890
4068,65826,0.0610352,0.305176,-0.183105,-144.41,-88.1378,-164.454,9.80957,-0.114844,-0.0765625,0.626465,0.303101,-0.649048,0.307098,-115.125,44.9583,-31.2917,-7110,-28890
4074,65832,0.0610352,0.0610352,0.0610352,-144.366,-88.1433,-164.487,9.82871,-0.153125,-0.0430664,0.626465,0.303162,-0.648987,0.307159,-115.108,44.9417,-31.275,-7110,-28890
4080,65838,0,0,0.0610352,-144.327,-88.1488,-164.509,9.81436,-0.129199,-0.062207,0.626465,0.303223,-0.648926,0.30722,-115.092,44.9167,-31.25,-7110,-28890
4086,65844,0,-0.0610352,0.12207,-144.311,-88.1488,-164.515,9.82871,-0.124414,-0.0957031,0.626434,0.303284,-0.648895,0.307281,-115.092,44.9,-31.25,-7110,-28890
4092,65850,-0.0610352,0.12207,-0.183105,-144.256,-88.1543,-164.548,9.82393,-0.114844,-0.0813477,0.626404,0.303436,-0.648773,0.307434,-115.142,44.8583,-31.25,-7110,-28890
4098,65856,0.0610352,0.0610352,0.427246,-144.163,-88.1598,-164.625,9.80957,-0.143555,-0.0717773,0.626373,0.303497,-0.648712,0.307526,-115.158,44.85,-31.2417,-7110,-28890
4104,65862,0,-0.12207,0.0610352,-144.135,-88.1598,-164.636,9.79521,-0.105273,-0.062207,0.626373,0.303589,-0.648682,0.307617,-115.175,44.85,-31.2417,-7110,-28890
4110,65868,0,0.0610352,0,-144.097,-88.1653,-164.663,9.82871,-0.0957031,-0.0717773,0.626343,0.30365,-0.648621,0.307678,-115.175,44.85,-31.275,-7110,-28890
4116,65874,0,-0.0610352,-0.0610352,-144.047,-88.1653,-164.696,9.82393,-0.0813477,-0.0382813,0.626343,0.303741,-0.64856,0.30777,-115.175,44.8667,-31.3,-7110,-28890
4122,65880,0,-0.12207,0,-144.009,-88.1763,-164.707,9.80479,-0.0861328,-0.0669922,0.626282,0.303894,-0.648438,0.307922,-115.167,44.925,-31.2917,-7110,-28890
4128,65886,0,-0.183105,0.0610352,-143.987,-88.1763,-164.713,9.78564,-0.110059,-0.090918,0.626282,0.303986,-0.648376,0.308014,-115.158,44.95,-31.2333,-7110,-28890
4134,65892,0,0.0610352,0,-143.948,-88.1818,-164.734,9.81914,-0.110059,-0.0717773,0.626251,0.304047,-0.648315,0.308105,-115.167,44.9667,-31.1833,-7110,-28890
4140,65898,0,0,0.0610352,-143.91,-88.1818,-164.762,9.8,-0.110059,-0.090918,0.626251,0.304108,-0.648254,0.308167,-115.158,44.9667,-31.15,-7110,-28890
4146,65904,0,0,0,-143.882,-88.1873,-164.778,9.81914,-0.119629,-0.105273,0.626221,0.304199,-0.648224,0.308228,-115.15,44.9417,-31.1,-7110,-28890
4152,65910,0,0.12207,0.0610352,-143.806,-88.1927,-164.833,9.79521,-0.119629,-0.062207,0.626221,0.304321,-0.648102,0.30838,-115.1,44.9167,-31.0583,-7110,-28890
4158,65916,-0.0610352,0,0.0610352,-143.767,-88.1927,-164.861,9.81436,-0.110059,-0.0478516,0.62619,0.304382,-0.648071,0.308441,-115.092,44.925,-31.0417,-7110,-28890
4164,65922,0.0610352,0,-0.0610352,-143.74,-88.1982,-164.866,9.80957,-0.124414,-0.0574219,0.62616,0.304474,-0.64801,0.308533,-115.1,44.9167,-31.0333,-7110,-28890
4170,65928,0,0,0.183105,-143.685,-88.2037,-164.91,9.81914,-0.143555,-0.0574219,0.62616,0.304535,-0.647949,0.308624,-115.108,44.925,-31.0167,-7110,-28890
4176,65934,0,0.12207,0,-143.652,-88.2037,-164.927,9.82393,-0.105273,-0.0382813,0.626129,0.304626,-0.647888,0.308716,-115.108,44.9167,-31.0083,-7110,-28890
4182,65940,-0.0610352,-0.183105,-0.183105,-143.613,-88.2092,-164.927,9.82871,-0.153125,-0.0574219,0.626068,0.30484,-0.647736,0.308929,-115.092,44.9167,-31.025,-7110,-28890
4188,65946,0,-0.0610352,-0.0610352,-143.591,-88.2147,-164.927,9.81436,-0.124414,-0.0765625,0.626007,0.304993,-0.647644,0.309052,-115.075,44.925,-31.075,-7110,-28890
4194,65952,0,0,-0.0610352,-143.558,-88.2147,-164.932,9.81914,-0.129199,-0.0239258,0.625977,0.305115,-0.647583,0.309174,-115.058,44.925,-31.125,-7110,-28890
4200,65958,0.0610352,0,-0.0610352,-143.531,-88.2202,-164.943,9.8335,-0.114844,-0.062207,0.625946,0.305237,-0.647491,0.309326,-115.033,44.9333,-31.1917,-7110,-28890
4206,65964,0.0610352,-0.183105,0,-143.487,-88.2257,-164.954,9.81436,-0.129199,-0.0717773,0.625885,0.305389,-0.6474,0.309448,-115.017,44.9417,-31.225,-7110,-28890
4212,65970,0,-0.12207,-0.0610352,-143.448,-88.2257,-164.943,9.82393,-0.0957031,-0.0717773,0.625793,0.305664,-0.647217,0.309753,-114.992,44.9417,-31.3,-7110,-28890
4218,65976,0.0610352,0,0,-143.41,-88.2312,-164.96,9.79521,-0.0813477,-0.0717773,0.625732,0.305817,-0.647156,0.309875,-114.983,44.9417,-31.3667,-7110,-28890
4224,65982,0.0610352,-0.0610352,-0.12207,-143.394,-88.2367,-164.954,9.78564,-0.0813477,-0.0526367,0.625702,0.305939,-0.647064,0.310028,-115,44.9417,-31.4583,-7110,-28890
4230,65988,-0.0610352,0,0,-143.355,-88.2367,-164.965,9.79043,-0.0957031,-0.0861328,0.625641,0.306061,-0.646973,0.31015,-115.033,44.9583,-31.5167,-7110,-28890
4236,65994,0.0610352,0,-0.12207,-143.317,-88.2422,-164.96,9.80957,-0.0813477,-0.0669922,0.62561,0.306183,-0.646912,0.310272,-115.067,44.9583,-31.5333,-7110,-28890
4242,66000,0,0,0.0610352,-143.273,-88.2477,-164.987,9.80479,-0.114844,-0.0669922,0.625549,0.306396,-0.646759,0.310486,-115.125,44.9417,-31.5417,-7110,-28890
4248,66006,0,0.0610352,0.12207,-143.218,-88.2477,-165.026,9.8335,-0.114844,-0.0717773,0.625519,0.306488,-0.646698,0.310577,-115.133,44.925,-31.5167,-7110,-28890
4254,66012,0,0.0610352,0.0610352,-143.174,-88.2532,-165.053,9.82871,-0.124414,-0.062207,0.625488,0.30658,-0.646606,0.310669,-115.125,44.9333,-31.4583,-7110,-28890
4260,66018,0,0.244141,0.427246,-143.058,-88.2587,-165.146,9.82871,-0.105273,-0.0669922,0.625458,0.306671,-0.646545,0.310791,-115.125,44.9333,-31.4,-7110,-28890
4266,66024,0.0610352,0.0610352,-0.12207,-142.987,-88.2642,-165.185,9.80479,-0.143555,-0.0717773,0.625458,0.306763,-0.646484,0.310883,-115.133,44.9667,-31.3667,-7110,-28890
4272,66030,0.0610352,-0.0610352,0.183105,-142.938,-88.2642,-165.218,9.81914,-0.14834,-0.0669922,0.625366,0.306976,-0.646332,0.311096,-115.142,44.9917,-31.2833,-7110,-28890
4278,66036,0.12207,0.0610352,0.244141,-142.861,-88.2697,-165.273,9.81914,-0.119629,-0.0574219,0.625336,0.307098,-0.646271,0.311218,-115.175,44.9917,-31.2917,-7110,-28890
4284,66042,0,0,-0.183105,-142.85,-88.2697,-165.262,9.82871,-0.124414,-0.062207,0.625305,0.30722,-0.646179,0.31134,-115.2,45.0083,-31.3167,-7110,-28890
4290,66048,0.183105,-0.0610352,0,-142.817,-88.2751,-165.273,9.77607,-0.13877,-0.0430664,0.625244,0.307343,-0.646118,0.311462,-115.233,45.0417,-31.3417,-7110,-28890
4296,66054,0,0.0610352,-0.0610352,-142.734,-88.2806,-165.306,9.8,-0.110059,-0.0861328,0.625214,0.307465,-0.646027,0.311615,-115.242,45.0583,-31.3667,-7110,-28890
4302,66060,0,0,-0.244141,-142.729,-88.2861,-165.289,9.80479,-0.100488,-0.0574219,0.625122,0.307709,-0.645874,0.311859,-115.275,45.0417,-31.325,-7110,-28890
4308,66066,0,0,0.12207,-142.674,-88.2861,-165.322,9.82393,-0.114844,-0.0574219,0.625092,0.307831,-0.645813,0.311981,-115.3,45.025,-31.3,-7110,-28890
4314,66072,0,0,0,-142.641,-88.2916,-165.339,9.79043,-0.129199,-0.0478516,0.625061,0.307953,-0.645721,0.312103,-115.308,44.9833,-31.2583,-7110,-28890
4320,66078,0,0.0610352,0.366211,-142.548,-88.2916,-165.41,9.82393,-0.105273,-0.090918,0.625,0.308075,-0.64563,0.312225,-115.325,44.95,-31.2333,-7118,-28889
4326,66084,0,0.0610352,0.183105,-142.46,-88.2971,-165.449,9.82871,-0.0957031,-0.0717773,0.624969,0.308197,-0.645569,0.312347,-115.325,44.925,-31.2333,-7118,-28889
4332,66090,0,0,0,-142.427,-88.3026,-165.471,9.82393,-0.090918,-0.0574219,0.624908,0.30838,-0.645416,0.312561,-115.292,44.8917,-31.2583,-7118,-28889
4338,66096,-0.0610352,-0.0610352,-0.183105,-142.427,-88.3026,-165.454,9.81914,-0.0957031,-0.0861328,0.624878,0.308472,-0.645355,0.312653,-115.275,44.9,-31.2917,-7118,-28889
4344,66102,0,0,0.0610352,-142.383,-88.3081,-165.482,9.8335,-0.0861328,-0.0669922,0.624878,0.308563,-0.645325,0.312714,-115.258,44.9,-31.2917,-7118,-28889
4350,66108,0,0,0.0610352,-142.344,-88.3081,-165.504,9.80957,-0.119629,-0.0669922,0.624847,0.308624,-0.645264,0.312805,-115.258,44.9,-31.3167,-7118,-28889
4356,66114,0.0610352,-0.0610352,-0.0610352,-142.295,-88.3136,-165.526,9.8,-0.119629,-0.0813477,0.624817,0.308716,-0.645203,0.312897,-115.267,44.8833,-31.3167,-7118,-28889
4362,66120,0,0.0610352,-0.12207,-142.273,-88.3191,-165.531,9.8,-0.0957031,-0.0574219,0.624786,0.308868,-0.645081,0.313049,-115.292,44.85,-31.3083,-7118,-28889
4368,66126,0.0610352,0,0,-142.24,-88.3191,-165.547,9.82871,-0.119629,-0.0669922,0.624756,0.30896,-0.64502,0.313141,-115.275,44.8417,-31.3083,-7118,-28889
4374,66132,0,-0.0610352,0.0610352,-142.207,-88.3246,-165.569,9.81914,-0.119629,-0.110059,0.624725,0.309052,-0.644958,0.313232,-115.267,44.8417,-31.2833,-7118,-28889
4380,66138,0,0.0610352,0.12207,-142.152,-88.3246,-165.608,9.81436,-0.105273,-0.0765625,0.624695,0.309113,-0.644897,0.313324,-115.267,44.8583,-31.2667,-7118,-28889
4386,66144,0,-0.12207,0.183105,-142.064,-88.3301,-165.668,9.80479,-0.110059,-0.0717773,0.624695,0.309204,-0.644836,0.313385,-115.275,44.8333,-31.2417,-7118,-28889
4392,66150,0,-0.0610352,0,-142.037,-88.3356,-165.679,9.8,-0.114844,-0.062207,0.624634,0.309326,-0.644745,0.313538,-115.283,44.8083,-31.2167,-7118,-28889
4398,66156,0.12207,0,0.0610352,-141.998,-88.3356,-165.707,9.82393,-0.114844,-0.0957031,0.624603,0.309418,-0.644684,0.313629,-115.292,44.7833,-31.2083,-7118,-28889
4404,66162,0,-0.0610352,0.0610352,-141.965,-88.3356,-165.729,9.81436,-0.105273,-0.0669922,0.624603,0.309509,-0.644623,0.313721,-115.3,44.7667,-31.2167,-7118,-28889
4410,66168,0,-0.0610352,0,-141.938,-88.3411,-165.74,9.80479,-0.119629,-0.0526367,0.624573,0.30957,-0.644592,0.313782,-115.308,44.75,-31.2333,-7118,-28889
4416,66174,-0.0610352,0,-0.0610352,-141.894,-88.3466,-165.751,9.80957,-0.15791,-0.0717773,0.624542,0.309662,-0.644531,0.313873,-115.3,44.75,-31.325,-7118,-28889
4422,66180,-0.0610352,-0.183105,0.12207,-141.866,-88.3466,-165.762,9.80957,-0.110059,-0.0430664,0.624512,0.309814,-0.644409,0.314056,-115.3,44.7583,-31.35,-7118,-28889
4428,66186,0.12207,-0.12207,0,-141.844,-88.3521,-165.767,9.80479,-0.124414,-0.0717773,0.624451,0.309906,-0.644348,0.314148,-115.292,44.7667,-31.3417,-7118,-28889
4434,66192,0,-0.0610352,-0.183105,-141.844,-88.3521,-165.756,9.80957,-0.110059,-0.0765625,0.624451,0.310028,-0.644287,0.314209,-115.325,44.7917,-31.325,-7118,-28889
4440,66198,0,0,-0.12207,-141.828,-88.3575,-165.756,9.81436,-0.124414,-0.0334961,0.62442,0.31012,-0.644226,0.314301,-115.358,44.8,-31.2833,-7118,-28889
4446,66204,0.183105,0,0.0610352,-141.746,-88.363,-165.795,9.8,-0.090918,-0.0717773,0.62439,0.310211,-0.644165,0.314423,-115.392,44.7583,-31.2,-7118,-28889
4452,66210,0,-0.12207,0.0610352,-141.718,-88.363,-165.811,9.80479,-0.105273,-0.0765625,0.624329,0.310394,-0.644043,0.314606,-115.392,44.7417,-31.1833,-7118,-28889
4458,66216,0,0.0610352,0.0610352,-141.674,-88.363,-165.844,9.82393,-0.105273,-0.0765625,0.624298,0.310455,-0.643982,0.314667,-115.375,44.7333,-31.2083,-7118,-28889
4464,66222,0,-0.0610352,-0.0610352,-141.658,-88.3685,-165.844,9.8335,-0.0861328,-0.0574219,0.624298,0.310516,-0.643951,0.314728,-115.367,44.7333,-31.2,-7118,-28889
4470,66228,0,0.0610352,0.0610352,-141.614,-88.3685,-165.877,9.80479,-0.0765625,-0.0765625,0.624268,0.310577,-0.64389,0.314819,-115.367,44.7417,-31.175,-7118,-28889
4476,66234,0,0.12207,0.0610352,-141.515,-88.374,-165.954,9.80479,-0.124414,-0.0813477,0.624268,0.310638,-0.64386,0.31488,-115.392,44.7417,-31.1333,-7118,-28889
4482,66240,0,0.0610352,0.0610352,-141.471,-88.3795,-165.987,9.80479,-0.129199,-0.090918,0.624237,0.31076,-0.643768,0.315002,-115.4,44.7583,-31.1417,-7118,-28889
4488,66246,0,0.12207,-0.12207,-141.449,-88.385,-166.003,9.82871,-0.100488,-0.0669922,0.624237,0.310822,-0.643707,0.315033,-115.408,44.7667,-31.15,-7118,-28889
4494,66252,0,0,0,-141.416,-88.385,-166.025,9.79521,-0.0957031,-0.0957031,0.624237,0.310852,-0.643677,0.315094,-115.4,44.775,-31.1417,-7118,-28889
4500,66258,0.0610352,0.0610352,0.0610352,-141.378,-88.385,-166.058,9.81914,-0.124414,-0.0861328,0.624207,0.310883,-0.643616,0.315155,-115.392,44.775,-31.1083,-7118,-28889
4506,66264,0,0.0610352,0,-141.334,-88.3905,-166.086,9.81436,-0.119629,-0.0574219,0.624207,0.310944,-0.643585,0.315186,-115.375,44.7917,-30.9833,-7118,-28889
4512,66270,0.0610352,0,0.0610352,-141.295,-88.396,-166.113,9.81436,-0.105273,-0.114844,0.624207,0.311035,-0.643524,0.315277,-115.367,44.7917,-30.9167,-7118,-28889
4518,66276,0,0,0,-141.273,-88.396,-166.135,9.8335,-0.124414,-0.0574219,0.624207,0.311066,-0.643494,0.315308,-115.358,44.7833,-30.8667,-7118,-28889
4524,66282,0,0.0610352,-0.12207,-141.251,-88.4015,-166.141,9.80957,-0.124414,-0.0430664,0.624207,0.311096,-0.643433,0.315369,-115.358,44.775,-30.8833,-7118,-28889
4530,66288,0,0.0610352,0.0610352,-141.207,-88.4015,-166.179,9.81436,-0.110059,-0.0526367,0.624176,0.311157,-0.643402,0.315399,-115.358,44.775,-30.925,-7118,-28889
4536,66294,0,0.0610352,0.0610352,-141.158,-88.407,-166.212,9.80479,-0.114844,-0.0765625,0.624176,0.311218,-0.643341,0.31546,-115.4,44.7417,-31.0583,-7118,-28889
4542,66300,0.0610352,0,0,-141.125,-88.4125,-166.229,9.80957,-0.105273,-0.100488,0.624146,0.31134,-0.64328,0.315582,-115.417,44.75,-31.1167,-7118,-28889
4548,66306,0.0610352,0,-0.0610352,-141.103,-88.4125,-166.24,9.8,-0.110059,-0.0717773,0.624146,0.311401,-0.643219,0.315643,-115.408,44.7583,-31.1333,-7118,-28889
4554,66312,0.244141,0,0.12207,-141.059,-88.418,-166.278,9.81436,-0.119629,-0.0574219,0.624115,0.311432,-0.643188,0.315704,-115.392,44.775,-31.1333,-7118,-28889
4560,66318,0.0610352,0.183105,0,-141.01,-88.418,-166.317,9.82393,-0.133984,-0.0574219,0.624115,0.311493,-0.643127,0.315765,-115.367,44.7833,-31.1,-7118,-28889
4566,66324,0,0,0.12207,-140.927,-88.4235,-166.371,9.82871,-0.105273,-0.0239258,0.624115,0.311554,-0.643097,0.315826,-115.308,44.7833,-31.025,-7118,-28889
4572,66330,0.183105,0,0.0610352,-140.889,-88.4235,-166.399,9.81914,-0.100488,-0.0765625,0.624054,0.311676,-0.642975,0.315979,-115.3,44.7917,-31.0083,-7118,-28889
4578,66336,0,-0.183105,0,-140.878,-88.429,-166.399,9.81436,-0.0957031,-0.110059,0.624054,0.311768,-0.642944,0.31604,-115.292,44.7833,-30.9833,-7118,-28889
4584,66342,0,0.0610352,0.0610352,-140.834,-88.429,-166.432,9.82871,-0.105273,-0.0765625,0.624023,0.311798,-0.642914,0.316101,-115.292,44.7917,-30.9917,-7118,-28889
4590,66348,0,0,0,-140.806,-88.4344,-166.454,9.80957,-0.143555,-0.062207,0.624023,0.311859,-0.642853,0.316132,-115.308,44.8083,-31,-7118,-28889
4596,66354,0,-0.183105,0.0610352,-140.74,-88.4344,-166.492,9.80479,-0.119629,-0.0669922,0.624023,0.31192,-0.642822,0.316193,-115.292,44.7917,-31.0917,-7118,-28889
4602,66360,0.0610352,-0.12207,0.0610352,-140.713,-88.4399,-166.509,9.80957,-0.110059,-0.062207,0.623962,0.312042,-0.642731,0.316345,-115.292,44.775,-31.1667,-7118,-28889
4608,66366,0,0.183105,0,-140.663,-88.4399,-166.547,9.82871,-0.110059,-0.0765625,0.623962,0.312103,-0.64267,0.316406,-115.283,44.7583,-31.225,-7118,-28889
4614,66372,0.0610352,0,-0.183105,-140.658,-88.4454,-166.542,9.79521,-0.133984,-0.0478516,0.623932,0.312195,-0.642609,0.316498,-115.283,44.7583,-31.2333,-7118,-28889
4620,66378,-0.0610352,0.12207,0.12207,-140.592,-88.4454,-166.591,9.8,-0.119629,-0.0478516,0.623901,0.312256,-0.642578,0.316559,-115.283,44.7583,-31.2167,-7118,-28889
4626,66384,0,0,-0.12207,-140.548,-88.4509,-166.608,9.81436,-0.124414,-0.062207,0.623871,0.312347,-0.642517,0.31665,-115.258,44.7917,-31.1917,-7118,-28889
4632,66390,0,0.12207,-0.0610352,-140.504,-88.4509,-166.63,9.8335,-0.100488,-0.105273,0.62381,0.312531,-0.642395,0.316833,-115.267,44.8083,-31.1917,-7118,-28889
4638,66396,0.0610352,0,0,-140.471,-88.4564,-166.646,9.80479,-0.119629,-0.0478516,0.62381,0.312622,-0.642334,0.316925,-115.292,44.8167,-31.2083,-7118,-28889
