TimeSinceCollection,Timestamp,AccX,AccY,AccZ,AngleRoll,AnglePitch,AngleYaw,AngularVelX,AngularVelY,AngularVelZ,Q1,Q2,Q3,Q4,MagX,MagY,MagZ,Height,Airpressure
0,443141,0,0,0,161.702,85.9845,78.1842,-9.77129,0.234473,-0.626855,-0.514771,-0.492065,-0.539459,0.449158,-30.9583,3.23333,-26.8583,-6978,-28906
6,443147,0,0,0,161.702,85.9845,78.1842,-9.8,0.210547,-0.669922,-0.514771,-0.492065,-0.539459,0.449158,-30.9417,3.24167,-26.8833,-6978,-28906
12,443153,0,0,0,161.702,85.9845,78.1842,-9.79521,0.205762,-0.641211,-0.514771,-0.492065,-0.53949,0.449158,-30.8583,3.2,-26.95,-6978,-28906
18,443159,0,0,0,161.702,85.9845,78.1842,-9.77129,0.215332,-0.665137,-0.514771,-0.492065,-0.53949,0.449158,-30.8333,3.15833,-26.9917,-6978,-28906
24,443165,0,0,0,161.702,85.9845,78.1842,-9.77607,0.210547,-0.645996,-0.514771,-0.492065,-0.53949,0.449158,-30.7917,3.13333,-27,-6978,-28906
30,443171,0,0,0,161.697,85.9845,78.1842,-9.78564,0.220117,-0.636426,-0.514771,-0.492065,-0.53949,0.449158,-30.7917,3.11667,-26.975,-6978,-28906
36,443177,0,0,0,161.697,85.9845,78.1842,-9.79043,0.191406,-0.660352,-0.514771,-0.492035,-0.53949,0.449158,-30.7833,3.08333,-26.9333,-6978,-28906
42,443183,0,0,0,161.697,85.9845,78.1842,-9.78564,0.215332,-0.636426,-0.514771,-0.492035,-0.53949,0.449158,-30.8,3.04167,-26.8417,-6978,-28906
48,443189,0,0,0,161.697,85.9845,78.1842,-9.7665,0.205762,-0.636426,-0.514771,-0.492035,-0.53949,0.449158,-30.7917,3.00833,-26.8167,-6978,-28906
54,443195,0,0,0,161.697,85.9845,78.1842,-9.79043,0.215332,-0.655566,-0.514771,-0.492035,-0.53949,0.449158,-30.775,2.99167,-26.8,-6978,-28906
60,443201,0,0,0,161.697,85.9845,78.1842,-9.80479,0.210547,-0.650781,-0.514771,-0.492035,-0.53949,0.449158,-30.7417,2.975,-26.7833,-6978,-28906
66,443207,0,0,0,161.697,85.9845,78.1842,-9.79521,0.205762,-0.645996,-0.514771,-0.492035,-0.53949,0.449158,-30.7167,2.975,-26.7833,-6978,-28906
72,443213,0,0,0,161.697,85.9845,78.1842,-9.7665,0.210547,-0.641211,-0.514771,-0.492035,-0.53949,0.449158,-30.7167,2.975,-26.825,-6978,-28906
78,443219,0,0,0,161.697,85.9845,78.1842,-9.7665,0.215332,-0.626855,-0.514771,-0.492035,-0.53949,0.449158,-30.7167,2.975,-26.85,-6978,-28906
84,443225,0,0,0,161.697,85.9845,78.1842,-9.78564,0.229688,-0.641211,-0.514771,-0.492035,-0.53949,0.449158,-30.7417,2.96667,-26.875,-6978,-28906
90,443231,0,0,0,161.697,85.9845,78.1842,-9.77607,0.196191,-0.650781,-0.514771,-0.492035,-0.53949,0.449158,-30.7333,2.95833,-26.9,-6978,-28906
96,443237,0,0,0,161.697,85.9845,78.1842,-9.79043,0.229688,-0.631641,-0.514771,-0.492035,-0.53949,0.449158,-30.7333,2.96667,-26.9,-6978,-28906
102,443243,0,0,0,161.697,85.9845,78.1842,-9.79521,0.200977,-0.641211,-0.514771,-0.492035,-0.53949,0.449158,-30.7417,3.00833,-26.925,-6978,-28906
108,443249,0,0,0,161.697,85.9845,78.1842,-9.78086,0.205762,-0.645996,-0.514771,-0.492035,-0.53949,0.449158,-30.7417,3.03333,-26.9167,-6978,-28906
114,443255,0,0,0,161.697,85.9845,78.1842,-9.77129,0.196191,-0.660352,-0.514771,-0.492035,-0.53949,0.449158,-30.7417,3.05,-26.8833,-6978,-28906
120,443261,0,0,0,161.697,85.9845,78.1842,-9.8,0.210547,-0.655566,-0.514771,-0.492035,-0.53949,0.449158,-30.7333,3.05833,-26.825,-6978,-28906
126,443267,0,0,0,161.697,85.9845,78.1842,-9.78086,0.220117,-0.650781,-0.514771,-0.492035,-0.53949,0.449158,-30.725,3.06667,-26.7667,-6978,-28906
132,443273,0,0,0,161.697,85.9845,78.1842,-9.78086,0.220117,-0.660352,-0.514771,-0.492035,-0.53949,0.449158,-30.7083,3.05833,-26.6417,-6978,-28906
138,443279,0,0,0,161.697,85.9845,78.1842,-9.78086,0.210547,-0.665137,-0.514771,-0.492035,-0.53949,0.449158,-30.6917,3.03333,-26.625,-6978,-28906
144,443285,0,0,0,161.697,85.9845,78.1842,-9.79043,0.196191,-0.631641,-0.514771,-0.492035,-0.53949,0.449158,-30.6917,3.00833,-26.575,-6978,-28906
150,443291,0,0,0,161.697,85.9845,78.1842,-9.77129,0.210547,-0.655566,-0.514771,-0.492035,-0.53949,0.449158,-30.6833,2.98333,-26.5583,-6978,-28906
156,443297,0,0,0,161.697,85.9845,78.1842,-9.78086,0.220117,-0.669922,-0.514771,-0.492035,-0.53949,0.449158,-30.6583,2.95,-26.5417,-6978,-28906
162,443303,0,0,0,161.697,85.9845,78.1842,-9.79043,0.210547,-0.645996,-0.514771,-0.492035,-0.53949,0.449158,-30.6167,2.925,-26.6333,-6978,-28906
168,443309,0,0,0,161.697,85.9845,78.1842,-9.79043,0.196191,-0.636426,-0.514771,-0.492035,-0.53949,0.449158,-30.6,2.93333,-26.725,-6986,-28905
174,443315,0,0,0,161.697,85.9845,78.1842,-9.78086,0.205762,-0.655566,-0.514771,-0.492035,-0.53949,0.449158,-30.6,2.94167,-26.7917,-6986,-28905
180,443321,0,0,0,161.697,85.9845,78.1842,-9.7665,0.229688,-0.665137,-0.514771,-0.492035,-0.53949,0.449158,-30.6333,2.95,-26.8667,-6986,-28905
186,443327,0,0,0,161.697,85.9845,78.1842,-9.78564,0.196191,-0.645996,-0.514771,-0.492035,-0.53949,0.449158,-30.6583,2.96667,-26.95,-6986,-28905
192,443333,0,0,0,161.702,85.9845,78.1842,-9.77607,0.215332,-0.641211,-0.514771,-0.492065,-0.539459,0.449158,-30.6833,2.95,-26.9917,-6986,-28905
198,443339,0,0,0,161.702,85.9845,78.1842,-9.79043,0.224902,-0.631641,-0.514771,-0.492065,-0.539459,0.449158,-30.6917,2.925,-26.9667,-6986,-28905
204,443345,0,0,0,161.702,85.9845,78.1842,-9.78564,0.229688,-0.650781,-0.514771,-0.492065,-0.539459,0.449158,-30.6917,2.90833,-26.9417,-6986,-28905
210,443351,0,0,0,161.702,85.9845,78.1842,-9.79043,0.191406,-0.660352,-0.514771,-0.492065,-0.539459,0.449158,-30.7083,2.91667,-26.9167,-6986,-28905
216,443357,0,0,0,161.702,85.9845,78.1842,-9.77129,0.220117,-0.645996,-0.514771,-0.492065,-0.539459,0.449158,-30.7417,2.94167,-26.925,-6986,-28905
222,443363,0,0,0,161.702,85.9845,78.1842,-9.79043,0.229688,-0.655566,-0.514771,-0.492065,-0.539459,0.449158,-30.8,2.99167,-26.8917,-6986,-28905
228,443369,0,0,0,161.702,85.9845,78.1842,-9.78564,0.210547,-0.665137,-0.514771,-0.492065,-0.539459,0.449158,-30.8167,3.01667,-26.8583,-6986,-28905
234,443375,0,0,0,161.702,85.9845,78.1842,-9.79521,0.210547,-0.660352,-0.514771,-0.492065,-0.539459,0.449188,-30.8417,3.025,-26.8333,-6986,-28905
240,443381,0,0,0,161.702,85.9845,78.1842,-9.78564,0.215332,-0.641211,-0.51474,-0.492065,-0.539459,0.449188,-30.8583,3.03333,-26.8333,-6986,-28905
246,443387,0,0,0,161.702,85.9845,78.1842,-9.77607,0.210547,-0.650781,-0.51474,-0.492065,-0.539459,0.449188,-30.8667,3.05,-26.8417,-6986,-28905
252,443393,0,0,0,161.702,85.9845,78.1842,-9.79043,0.200977,-0.655566,-0.51474,-0.492065,-0.539459,0.449188,-30.8667,3.11667,-26.8667,-6986,-28905
258,443399,0,0,0,161.708,85.9845,78.1842,-9.77129,0.239258,-0.655566,-0.51474,-0.492065,-0.539459,0.449188,-30.8667,3.13333,-26.8417,-6986,-28905
264,443405,0,0,0,161.708,85.9845,78.1842,-9.79521,0.210547,-0.650781,-0.51474,-0.492065,-0.539459,0.449188,-30.8583,3.15833,-26.8583,-6986,-28905
270,443411,0,0,0,161.708,85.9845,78.1842,-9.78564,0.234473,-0.631641,-0.51474,-0.492096,-0.539459,0.449188,-30.85,3.15,-26.9083,-6986,-28905
276,443417,0,0,0,161.708,85.9845,78.1842,-9.77129,0.191406,-0.650781,-0.51474,-0.492096,-0.539459,0.449188,-30.875,3.13333,-26.9417,-6986,-28905
282,443423,0,0,0,161.708,85.9845,78.1842,-9.77129,0.229688,-0.650781,-0.51474,-0.492096,-0.539459,0.449188,-30.8917,3.10833,-26.95,-6986,-28905
288,443429,0,0,0,161.708,85.9845,78.1842,-9.78564,0.191406,-0.655566,-0.51474,-0.492096,-0.539429,0.449188,-30.8917,3.1,-26.9333,-6986,-28905
294,443435,0,0,0,161.708,85.9845,78.1842,-9.80479,0.220117,-0.641211,-0.51474,-0.492096,-0.539429,0.449188,-30.8917,3.08333,-26.8917,-6986,-28905
300,443441,0,0,0,161.708,85.9845,78.1842,-9.78086,0.205762,-0.641211,-0.51474,-0.492096,-0.539429,0.449188,-30.8833,3.075,-26.8667,-6986,-28905
306,443447,0,0,0,161.708,85.9845,78.1842,-9.7665,0.196191,-0.626855,-0.51474,-0.492096,-0.539429,0.449219,-30.875,3.05,-26.85,-6986,-28905
312,443453,0,0,0,161.708,85.9845,78.1842,-9.79043,0.205762,-0.631641,-0.514709,-0.492096,-0.539429,0.449219,-30.875,3.01667,-26.8667,-6986,-28905
318,443459,0,0,0,161.708,85.9845,78.1842,-9.8,0.200977,-0.674707,-0.514709,-0.492096,-0.539429,0.449219,-30.875,3.01667,-26.9167,-6986,-28905
324,443465,0,0,0,161.713,85.9845,78.1842,-9.79521,0.210547,-0.655566,-0.514709,-0.492096,-0.539429,0.449219,-30.85,3,-27,-6986,-28905
330,443471,0,0,0,161.713,85.9845,78.1842,-9.79043,0.220117,-0.645996,-0.514709,-0.492096,-0.539429,0.449219,-30.825,3,-27.125,-6986,-28905
336,443477,0,0,0,161.713,85.9845,78.1842,-9.78086,0.196191,-0.636426,-0.514709,-0.492096,-0.539429,0.449219,-30.8083,3.01667,-27.2333,-6986,-28905
342,443483,0,0,0,161.713,85.9845,78.1842,-9.79043,0.200977,-0.650781,-0.514709,-0.492126,-0.539429,0.449219,-30.8083,3.09167,-27.3917,-6986,-28905
348,443489,0,0,0,161.713,85.9845,78.1842,-9.76172,0.196191,-0.679492,-0.514709,-0.492126,-0.539429,0.449219,-30.825,3.125,-27.3917,-6986,-28905
354,443495,0,0,0,161.713,85.9845,78.1842,-9.79043,0.200977,-0.62207,-0.514709,-0.492126,-0.539429,0.449249,-30.825,3.15833,-27.3583,-6986,-28905
360,443501,0,0,0,161.713,85.9845,78.1842,-9.77129,0.220117,-0.636426,-0.514709,-0.492126,-0.539398,0.449249,-30.825,3.175,-27.3,-6986,-28905
366,443507,0,0,0,161.719,85.9845,78.1842,-9.79043,0.205762,-0.660352,-0.514709,-0.492126,-0.539398,0.449249,-30.8,3.175,-27.2167,-6986,-28905
372,443513,0,0,0,161.719,85.9845,78.1842,-9.78564,0.244043,-0.655566,-0.514679,-0.492126,-0.539398,0.449249,-30.8,3.175,-27.0417,-6986,-28905
378,443519,0,0,0,161.719,85.9845,78.1842,-9.76172,0.253613,-0.636426,-0.514679,-0.492126,-0.539398,0.449249,-30.8167,3.175,-26.975,-6986,-28905
384,443525,0,0,0,161.719,85.9845,78.1842,-9.73779,0.224902,-0.598145,-0.514679,-0.492126,-0.539398,0.449249,-30.8417,3.19167,-26.925,-6986,-28905
390,443531,0,0,0,161.719,85.9845,78.1842,-9.79521,0.196191,-0.665137,-0.514679,-0.492126,-0.539398,0.449249,-30.875,3.19167,-26.9,-6994,-28904
396,443537,0,0,0,161.713,85.9845,78.1842,-9.78086,0.258398,-0.679492,-0.514709,-0.492126,-0.539398,0.449249,-30.8833,3.2,-26.9,-6994,-28904
402,443543,0,0,0,161.713,85.9845,78.1842,-9.84785,0.177051,-0.626855,-0.514709,-0.492126,-0.539398,0.449249,-30.875,3.19167,-26.8833,-6994,-28904
408,443549,0,0,0,161.713,85.9845,78.1842,-9.80957,0.186621,-0.717773,-0.514709,-0.492126,-0.539398,0.449249,-30.8667,3.19167,-26.8667,-6994,-28904
414,443555,0,0,0,161.713,85.9845,78.1842,-9.76172,0.229688,-0.669922,-0.514709,-0.492126,-0.539398,0.449249,-30.8583,3.2,-26.825,-6994,-28904
420,443561,0,0,0,161.719,85.9845,78.1842,-9.74258,0.181836,-0.660352,-0.514709,-0.492126,-0.539398,0.449249,-30.8417,3.20833,-26.8417,-6994,-28904
426,443567,0,0,0,161.719,85.9845,78.1842,-9.73779,0.177051,-0.679492,-0.514679,-0.492126,-0.539398,0.449249,-30.8167,3.18333,-26.775,-6994,-28904
432,443573,0,0,0,161.719,85.9845,78.1842,-9.78086,0.177051,-0.655566,-0.514679,-0.492157,-0.539398,0.449249,-30.8167,3.16667,-26.7417,-6994,-28904
438,443579,0,0,0,161.724,85.9845,78.1842,-9.73779,0.224902,-0.641211,-0.514679,-0.492157,-0.539368,0.44928,-30.825,3.16667,-26.7167,-6994,-28904
444,443585,0,0,0,161.724,85.9845,78.1842,-9.75215,0.191406,-0.631641,-0.514648,-0.492157,-0.539368,0.44928,-30.8333,3.19167,-26.7,-6994,-28904
450,443591,0,0,0,161.724,85.9845,78.1842,-9.73779,0.253613,-0.636426,-0.514648,-0.492157,-0.539368,0.44928,-30.8583,3.225,-26.75,-6994,-28904
456,443597,0.0610352,-0.427246,0.305176,161.697,85.99,78.1512,-9.75693,0.287109,-0.607715,-0.514648,-0.492188,-0.539368,0.44931,-30.8667,3.275,-26.875,-6994,-28904
462,443603,0.12207,-0.0610352,0.0610352,161.691,85.99,78.1458,-9.85742,0.287109,-0.626855,-0.514679,-0.492188,-0.539337,0.44931,-30.8667,3.275,-26.9,-6994,-28904
468,443609,0.0610352,-0.0610352,-0.0610352,161.686,85.99,78.1403,-9.89092,0.248828,-0.60293,-0.514679,-0.492188,-0.539337,0.44931,-30.8667,3.275,-26.8833,-6994,-28904
474,443615,-0.0610352,-0.0610352,-0.0610352,161.686,85.99,78.1403,-9.81914,0.272754,-0.579004,-0.514679,-0.492157,-0.539337,0.44931,-30.8833,3.26667,-26.875,-6994,-28904
480,443621,0,0.549316,-0.244141,161.686,85.99,78.1458,-9.77607,0.263184,-0.62207,-0.514679,-0.492157,-0.539337,0.44928,-30.8833,3.275,-26.825,-6994,-28904
486,443627,-0.0610352,0.183105,-0.244141,161.73,85.9845,78.1952,-9.73301,0.282324,-0.665137,-0.514679,-0.492126,-0.539368,0.44928,-30.8583,3.28333,-26.7333,-6994,-28904
492,443633,0.0610352,0.427246,-0.12207,161.752,85.9845,78.2172,-9.77129,0.177051,-0.588574,-0.514709,-0.492096,-0.539429,0.449249,-30.825,3.26667,-26.6833,-6994,-28904
498,443639,0,0.488281,-0.366211,161.763,85.9845,78.2391,-9.7665,0.172266,-0.703418,-0.514709,-0.492096,-0.539459,0.449219,-30.8083,3.24167,-26.6583,-6994,-28904
504,443645,0,-0.183105,0.0610352,161.796,85.9845,78.2721,-9.74736,0.162695,-0.722559,-0.514679,-0.492096,-0.53949,0.449219,-30.775,3.225,-26.6417,-6994,-28904
510,443651,0,-0.183105,0.0610352,161.79,85.9845,78.2666,-9.73779,0.191406,-0.669922,-0.514709,-0.492065,-0.53949,0.449219,-30.7417,3.20833,-26.6583,-6994,-28904
516,443657,-0.0610352,0,0.12207,161.768,85.9845,78.2501,-9.74736,0.181836,-0.62207,-0.514709,-0.492065,-0.53949,0.449219,-30.7,3.13333,-26.7167,-6994,-28904
522,443663,-0.0610352,-0.305176,0.0610352,161.763,85.9845,78.2391,-9.82871,0.205762,-0.693848,-0.514709,-0.492065,-0.539459,0.449219,-30.6833,3.11667,-26.725,-6994,-28904
528,443669,-0.12207,-0.244141,0.183105,161.752,85.9845,78.2281,-9.84785,0.200977,-0.631641,-0.51474,-0.492065,-0.539459,0.449219,-30.675,3.09167,-26.7417,-6994,-28904
534,443675,-0.12207,0,0.12207,161.735,85.99,78.2117,-9.81436,0.205762,-0.669922,-0.51474,-0.492065,-0.539459,0.449219,-30.65,3.075,-26.7667,-6994,-28904
540,443681,0,-0.12207,-0.0610352,161.724,85.99,78.2007,-9.79043,0.224902,-0.693848,-0.51474,-0.492065,-0.539459,0.449219,-30.6333,3.06667,-26.7917,-6994,-28904
546,443687,0,-0.244141,-0.0610352,161.724,85.99,78.2007,-9.77607,0.239258,-0.6125,-0.51474,-0.492065,-0.539459,0.449219,-30.6083,3.08333,-26.7583,-6994,-28904
552,443693,0,0.366211,-0.183105,161.741,85.99,78.2172,-9.79521,0.220117,-0.650781,-0.51474,-0.492065,-0.539459,0.449219,-30.6167,3.1,-26.7,-6994,-28904
558,443699,0,0,-0.244141,161.757,85.9845,78.2391,-9.80479,0.200977,-0.650781,-0.51474,-0.492065,-0.539459,0.449219,-30.6417,3.10833,-26.6417,-6994,-28904
564,443705,0,0.305176,-0.0610352,161.774,85.99,78.2556,-9.8,0.191406,-0.583789,-0.514709,-0.492065,-0.539459,0.449219,-30.6417,3.1,-26.6583,-6994,-28904
570,443711,-0.12207,0.12207,0.244141,161.785,85.9845,78.2666,-9.72822,0.210547,-0.674707,-0.514709,-0.492065,-0.53949,0.449219,-30.6583,3.075,-26.65,-6994,-28904
576,443717,-0.12207,0,0,161.774,85.9845,78.2501,-9.75693,0.244043,-0.703418,-0.514709,-0.492065,-0.53949,0.449188,-30.675,3.03333,-26.65,-6994,-28904
582,443723,0,-0.0610352,0.244141,161.741,85.9845,78.2227,-9.77129,0.234473,-0.607715,-0.51474,-0.492065,-0.539459,0.449188,-30.7,3.01667,-26.6833,-6994,-28904
588,443729,0,-0.12207,0,161.724,85.9845,78.2062,-9.80957,0.248828,-0.679492,-0.51474,-0.492065,-0.539459,0.449188,-30.725,3.01667,-26.6833,-6994,-28904
594,443735,0,-0.183105,0.244141,161.719,85.9845,78.2007,-9.8335,0.239258,-0.693848,-0.51474,-0.492065,-0.539459,0.449188,-30.7333,3.03333,-26.675,-6994,-28904
600,443741,-0.12207,-0.305176,-0.0610352,161.697,85.99,78.1787,-9.80479,0.258398,-0.626855,-0.514771,-0.492065,-0.539459,0.449188,-30.725,3.04167,-26.65,-6994,-28904
606,443747,0,0,0.0610352,161.691,85.99,78.1732,-9.82393,0.229688,-0.607715,-0.514771,-0.492035,-0.539459,0.449188,-30.7167,3.05833,-26.6,-6994,-28904
612,443753,0,0.0610352,0,161.702,85.99,78.1897,-9.78086,0.205762,-0.617285,-0.514801,-0.492004,-0.53949,0.449158,-30.7167,3.06667,-26.6,-6994,-28904
618,443759,-0.12207,0.244141,-0.305176,161.702,85.99,78.1897,-9.78086,0.205762,-0.60293,-0.514801,-0.492004,-0.53949,0.449158,-30.7167,3.09167,-26.6333,-6994,-28904
624,443765,-0.12207,0.244141,-0.0610352,161.724,85.99,78.2172,-9.76172,0.196191,-0.626855,-0.514801,-0.492004,-0.53952,0.449127,-30.7167,3.10833,-26.6583,-6994,-28904
630,443771,0,0.305176,0,161.73,85.9845,78.2281,-9.79043,0.177051,-0.665137,-0.514801,-0.491974,-0.53952,0.449127,-30.7167,3.11667,-26.725,-6994,-28904
636,443777,0.0610352,-0.0610352,0.0610352,161.73,85.9845,78.2281,-9.75215,0.177051,-0.708203,-0.514801,-0.491974,-0.539551,0.449097,-30.7417,3.125,-26.825,-6994,-28904
642,443783,-0.0610352,0,0.183105,161.724,85.9845,78.2227,-9.75693,0.181836,-0.703418,-0.514801,-0.491974,-0.539551,0.449097,-30.725,3.125,-26.8833,-6994,-28904
648,443789,-0.0610352,-0.0610352,0,161.713,85.9845,78.2117,-9.75693,0.181836,-0.727344,-0.514801,-0.492004,-0.539551,0.449097,-30.7417,3.125,-26.9083,-6994,-28904
654,443795,0,-0.12207,0.0610352,161.713,85.9845,78.2117,-9.76172,0.177051,-0.674707,-0.514801,-0.492004,-0.53952,0.449097,-30.7583,3.11667,-26.8917,-6994,-28904
660,443801,0.0610352,-0.183105,0.12207,161.708,85.9845,78.2007,-9.77607,0.215332,-0.626855,-0.514801,-0.492004,-0.53952,0.449127,-30.775,3.11667,-26.8667,-6994,-28904
666,443807,0,-0.183105,-0.0610352,161.697,85.9845,78.1897,-9.79521,0.224902,-0.650781,-0.514801,-0.492004,-0.53952,0.449127,-30.825,3.08333,-26.7417,-6994,-28904
672,443813,-0.0610352,-0.183105,0,161.691,85.99,78.1787,-9.79521,0.258398,-0.588574,-0.514801,-0.492004,-0.53949,0.449158,-30.85,3.075,-26.7083,-6994,-28904
678,443819,-0.0610352,-0.0610352,0.0610352,161.686,85.99,78.1787,-9.80479,0.220117,-0.583789,-0.514801,-0.492004,-0.53949,0.449158,-30.8667,3.05,-26.675,-6994,-28904
684,443825,-0.12207,0,-0.0610352,161.68,85.99,78.1732,-9.8,0.263184,-0.62207,-0.514801,-0.492004,-0.53949,0.449158,-30.9,3.03333,-26.6333,-6994,-28904
690,443831,-0.0610352,0.0610352,0,161.686,85.99,78.1732,-9.79043,0.234473,-0.60293,-0.514832,-0.492004,-0.53949,0.449158,-30.925,3.04167,-26.6083,-6994,-28904
696,443837,-0.0610352,0.244141,0,161.686,85.99,78.1842,-9.80479,0.215332,-0.62207,-0.514832,-0.491974,-0.53949,0.449127,-30.9333,3.05833,-26.575,-6994,-28904
702,443843,0.0610352,0.0610352,-0.12207,161.719,85.99,78.2172,-9.75693,0.220117,-0.645996,-0.514832,-0.491974,-0.53952,0.449127,-30.9333,3.06667,-26.575,-6994,-28904
708,443849,0,0.183105,-0.0610352,161.73,85.99,78.2281,-9.76172,0.196191,-0.607715,-0.514832,-0.491974,-0.539551,0.449097,-30.925,3.06667,-26.6,-6994,-28904
714,443855,0,0.0610352,-0.244141,161.735,85.9845,78.2336,-9.76172,0.196191,-0.655566,-0.514832,-0.491974,-0.539551,0.449097,-30.9,3.06667,-26.6333,-6994,-28904
720,443861,0,0,0,161.752,85.9845,78.2501,-9.75693,0.205762,-0.679492,-0.514832,-0.491943,-0.539551,0.449097,-30.8833,3.05,-26.6583,-6994,-28904
726,443867,0,0.0610352,-0.12207,161.757,85.9845,78.2611,-9.77129,0.181836,-0.674707,-0.514832,-0.491943,-0.539581,0.449097,-30.8583,3.025,-26.6667,-6986,-28905
732,443873,0,0,0.244141,161.768,85.99,78.2721,-9.78564,0.200977,-0.636426,-0.514832,-0.491913,-0.539581,0.449097,-30.8833,3.03333,-26.65,-6986,-28905
738,443879,0,-0.183105,0,161.752,85.99,78.2556,-9.79043,0.196191,-0.660352,-0.514832,-0.491943,-0.539581,0.449097,-30.875,3.03333,-26.6667,-6986,-28905
744,443885,0,0,0,161.746,85.99,78.2501,-9.79521,0.239258,-0.645996,-0.514832,-0.491943,-0.539581,0.449097,-30.8667,3.05,-26.6833,-6986,-28905
750,443891,-0.0610352,-0.12207,0.12207,161.746,85.99,78.2501,-9.80479,0.196191,-0.636426,-0.514832,-0.491913,-0.539581,0.449097,-30.85,3.05833,-26.7083,-6986,-28905
756,443897,0,-0.0610352,0.0610352,161.73,85.99,78.2336,-9.79521,0.248828,-0.645996,-0.514862,-0.491913,-0.539551,0.449097,-30.7917,3.08333,-26.7583,-6986,-28905
762,443903,0,-0.0610352,0.0610352,161.741,85.99,78.2446,-9.80479,0.215332,-0.626855,-0.514862,-0.491913,-0.539581,0.449097,-30.7667,3.08333,-26.75,-6986,-28905
768,443909,-0.12207,0.183105,0,161.735,85.99,78.2391,-9.78564,0.234473,-0.645996,-0.514862,-0.491913,-0.539581,0.449097,-30.7583,3.08333,-26.7167,-6986,-28905
774,443915,0,0,-0.366211,161.735,85.99,78.2446,-9.79521,0.239258,-0.669922,-0.514862,-0.491913,-0.539581,0.449097,-30.7417,3.1,-26.6833,-6986,-28905
780,443921,-0.0610352,0,-0.0610352,161.763,85.99,78.2666,-9.75693,0.220117,-0.641211,-0.514862,-0.491913,-0.539581,0.449097,-30.7167,3.1,-26.6583,-6986,-28905
786,443927,0,-0.12207,-0.244141,161.774,85.99,78.2886,-9.78086,0.220117,-0.660352,-0.514862,-0.491882,-0.539612,0.449097,-30.7,3.15,-26.6,-6986,-28905
792,443933,-0.0610352,-0.0610352,0,161.774,85.99,78.2886,-9.78086,0.220117,-0.641211,-0.514862,-0.491882,-0.539612,0.449066,-30.7083,3.15833,-26.6083,-6986,-28905
798,443939,0.0610352,-0.183105,0.0610352,161.774,85.99,78.2831,-9.78086,0.196191,-0.631641,-0.514862,-0.491852,-0.539612,0.449066,-30.7083,3.15833,-26.6167,-6986,-28905
804,443945,0,-0.12207,0,161.763,85.99,78.2776,-9.78564,0.200977,-0.631641,-0.514893,-0.491852,-0.539612,0.449066,-30.7167,3.16667,-26.6417,-6986,-28905
810,443951,-0.0610352,-0.12207,0.0610352,161.757,85.99,78.2721,-9.79043,0.205762,-0.641211,-0.514893,-0.491852,-0.539612,0.449066,-30.7333,3.16667,-26.6833,-6986,-28905
816,443957,0,-0.183105,0,161.746,85.9955,78.2611,-9.79521,0.224902,-0.636426,-0.514923,-0.491852,-0.539612,0.449066,-30.7833,3.13333,-26.6583,-6986,-28905
822,443963,0,0.12207,-0.12207,161.741,85.9955,78.2611,-9.79521,0.229688,-0.631641,-0.514923,-0.491821,-0.539612,0.449066,-30.7917,3.14167,-26.6833,-6986,-28905
828,443969,-0.0610352,-0.0610352,0,161.752,85.9955,78.2721,-9.79521,0.224902,-0.665137,-0.514923,-0.491821,-0.539642,0.449036,-30.8,3.14167,-26.6583,-6986,-28905
834,443975,0,0,-0.12207,161.746,85.9955,78.2666,-9.78086,0.210547,-0.669922,-0.514923,-0.491821,-0.539642,0.449036,-30.7833,3.125,-26.6917,-6986,-28905
840,443981,-0.0610352,0,0.0610352,161.752,85.9955,78.2776,-9.78086,0.205762,-0.660352,-0.514923,-0.491791,-0.539642,0.449036,-30.7667,3.11667,-26.7083,-6986,-28905
846,443987,0.183105,0.0610352,0.12207,161.741,85.9955,78.2666,-9.78564,0.215332,-0.641211,-0.514954,-0.491791,-0.539642,0.449036,-30.75,3.075,-26.775,-6978,-28906
852,443993,-0.0610352,-0.0610352,0,161.741,85.9955,78.2666,-9.76172,0.191406,-0.626855,-0.514954,-0.491791,-0.539642,0.449005,-30.75,3.06667,-26.8083,-6978,-28906
858,443999,0,-0.12207,0,161.735,85.9955,78.2666,-9.8,0.191406,-0.655566,-0.514954,-0.491791,-0.539642,0.449005,-30.7583,3.06667,-26.8417,-6978,-28906
864,444005,-0.0610352,0,0.12207,161.735,85.9955,78.2611,-9.77607,0.191406,-0.636426,-0.514954,-0.491791,-0.539642,0.449005,-30.75,3.05,-26.8667,-6986,-28905
870,444011,-0.12207,-0.183105,0,161.724,85.9955,78.2556,-9.78086,0.191406,-0.62207,-0.514954,-0.491791,-0.539642,0.449005,-30.7417,3.05,-26.8833,-6986,-28905
876,444017,-0.12207,0,-0.0610352,161.724,85.9955,78.2556,-9.78564,0.234473,-0.631641,-0.514984,-0.49176,-0.539642,0.449005,-30.725,3.03333,-26.9833,-6986,-28905
882,444023,0,0,0.183105,161.719,85.9955,78.2501,-9.78086,0.205762,-0.669922,-0.514984,-0.49176,-0.539642,0.449005,-30.7167,3.05,-27.0083,-6986,-28905
888,444029,-0.12207,-0.0610352,0.0610352,161.708,85.9955,78.2391,-9.79043,0.239258,-0.669922,-0.514984,-0.49176,-0.539642,0.449005,-30.725,3.08333,-27.0083,-6986,-28905
894,444035,0,0,0,161.702,85.9955,78.2336,-9.79043,0.210547,-0.631641,-0.514984,-0.49176,-0.539642,0.449005,-30.7333,3.1,-27,-6986,-28905
900,444041,-0.12207,0.12207,-0.244141,161.702,85.9955,78.2336,-9.78086,0.248828,-0.6125,-0.514984,-0.49176,-0.539642,0.449005,-30.75,3.13333,-26.9667,-6986,-28905
906,444047,0,0,0.0610352,161.713,85.9955,78.2501,-9.78086,0.229688,-0.655566,-0.515015,-0.49176,-0.539673,0.448975,-30.7583,3.15,-26.9167,-6986,-28905
912,444053,0.0610352,-0.0610352,-0.12207,161.702,85.9955,78.2391,-9.79043,0.205762,-0.665137,-0.515015,-0.49176,-0.539673,0.448975,-30.7583,3.15,-26.8667,-6986,-28905
918,444059,-0.0610352,0,0.0610352,161.713,85.9955,78.2501,-9.77607,0.229688,-0.6125,-0.515015,-0.49173,-0.539673,0.448975,-30.75,3.15833,-26.8583,-6986,-28905
924,444065,-0.183105,0,-0.183105,161.708,85.9955,78.2446,-9.79043,0.220117,-0.641211,-0.515015,-0.49173,-0.539673,0.448975,-30.7167,3.15,-26.8667,-6986,-28905
930,444071,0,0.0610352,-0.183105,161.713,85.9955,78.2556,-9.79521,0.200977,-0.636426,-0.515015,-0.49173,-0.539703,0.448975,-30.7167,3.15,-26.925,-6986,-28905
936,444077,0,0.183105,0.12207,161.724,85.9955,78.2666,-9.77129,0.196191,-0.679492,-0.515015,-0.49173,-0.539703,0.448944,-30.7167,3.13333,-27.025,-6986,-28905
942,444083,0,0,0.244141,161.724,85.9955,78.2666,-9.78086,0.220117,-0.645996,-0.515015,-0.491699,-0.539703,0.448944,-30.7417,3.14167,-27.0333,-6986,-28905
948,444089,0.12207,0,0.12207,161.708,85.9955,78.2501,-9.80479,0.191406,-0.626855,-0.515045,-0.491699,-0.539703,0.448944,-30.7583,3.15833,-27.05,-6986,-28905
954,444095,0.0610352,0.0610352,-0.183105,161.697,85.9955,78.2391,-9.7665,0.200977,-0.641211,-0.515045,-0.49173,-0.539703,0.448944,-30.7833,3.175,-27.025,-6986,-28905
960,444101,-0.12207,0,-0.12207,161.713,85.9955,78.2556,-9.80957,0.215332,-0.636426,-0.515045,-0.491699,-0.539703,0.448944,-30.8167,3.18333,-27,-6986,-28905
966,444107,0.0610352,0,-0.244141,161.735,85.9955,78.2776,-9.77129,0.181836,-0.665137,-0.515045,-0.491699,-0.539734,0.448944,-30.875,3.14167,-26.9417,-6978,-28906
972,444113,0,0,0,161.73,85.9955,78.2776,-9.77129,0.200977,-0.660352,-0.515045,-0.491699,-0.539734,0.448944,-30.9,3.11667,-26.9167,-6978,-28906
978,444119,0.12207,-0.12207,0.0610352,161.73,85.9955,78.2776,-9.79043,0.205762,-0.641211,-0.515045,-0.491699,-0.539734,0.448944,-30.9083,3.10833,-26.8583,-6978,-28906
984,444125,0,0.183105,-0.0610352,161.724,85.9955,78.2721,-9.78564,0.215332,-0.650781,-0.515045,-0.491699,-0.539703,0.448944,-30.9083,3.1,-26.8167,-6978,-28906
990,444131,-0.0610352,0,0.0610352,161.735,85.9955,78.2776,-9.78086,0.234473,-0.645996,-0.515015,-0.491699,-0.539734,0.448944,-30.9167,3.1,-26.8,-6978,-28906
996,444137,0,-0.0610352,0.0610352,161.724,85.9955,78.2666,-9.77129,0.196191,-0.641211,-0.515045,-0.491699,-0.539703,0.448944,-30.8833,3.125,-26.8833,-6978,-28906
1002,444143,0,0,0,161.724,85.9955,78.2666,-9.79521,0.234473,-0.645996,-0.515045,-0.491699,-0.539703,0.448944,-30.8583,3.125,-26.95,-6978,-28906
1008,444149,-0.0610352,0,-0.12207,161.724,85.9955,78.2666,-9.78086,0.220117,-0.641211,-0.515045,-0.491699,-0.539703,0.448944,-30.8333,3.125,-26.9917,-6978,-28906
1014,444155,-0.0610352,-0.12207,0.0610352,161.73,85.9955,78.2776,-9.79521,0.210547,-0.645996,-0.515045,-0.491699,-0.539734,0.448944,-30.8083,3.125,-27.025,-6978,-28906
1020,444161,0,-0.0610352,-0.0610352,161.724,85.9955,78.2721,-9.78564,0.244043,-0.655566,-0.515045,-0.491699,-0.539734,0.448944,-30.8083,3.13333,-27.05,-6978,-28906
1026,444167,0.0610352,0,-0.0610352,161.741,85.9955,78.2886,-9.78564,0.210547,-0.645996,-0.515045,-0.491669,-0.539734,0.448944,-30.8167,3.175,-27.05,-6978,-28906
1032,444173,-0.0610352,0,0,161.741,85.9955,78.2886,-9.77607,0.210547,-0.679492,-0.515045,-0.491669,-0.539734,0.448944,-30.8417,3.19167,-27.0667,-6978,-28906
1038,444179,0,-0.0610352,-0.183105,161.741,85.9955,78.2886,-9.77129,0.200977,-0.669922,-0.515045,-0.491669,-0.539734,0.448944,-30.825,3.20833,-27.0833,-6978,-28906
1044,444185,0.0610352,0.12207,-0.244141,161.752,85.9955,78.2996,-9.78086,0.191406,-0.660352,-0.515045,-0.491669,-0.539734,0.448944,-30.8167,3.225,-27.0833,-6978,-28906
1050,444191,-0.0610352,-0.0610352,0.183105,161.757,85.9955,78.3051,-9.78564,0.220117,-0.641211,-0.515045,-0.491669,-0.539734,0.448944,-30.7917,3.24167,-27.1,-6978,-28906
1056,444197,0,0,-0.183105,161.746,85.9955,78.2996,-9.77607,0.224902,-0.669922,-0.515045,-0.491669,-0.539734,0.448944,-30.7417,3.25833,-27.1083,-6978,-28906
1062,444203,0,0,0,161.763,86.001,78.3105,-9.79521,0.200977,-0.62207,-0.515045,-0.491669,-0.539734,0.448944,-30.75,3.25,-27.0583,-6978,-28906
1068,444209,0,0,0,161.763,85.9955,78.3105,-9.77607,0.224902,-0.669922,-0.515045,-0.491669,-0.539734,0.448944,-30.7583,3.23333,-27.025,-6978,-28906
1074,444215,0,-0.0610352,-0.305176,161.763,85.9955,78.3105,-9.77607,0.239258,-0.641211,-0.515045,-0.491669,-0.539734,0.448944,-30.7583,3.225,-26.975,-6978,-28906
1080,444221,-0.0610352,0.0610352,0.0610352,161.774,86.001,78.327,-9.79521,0.215332,-0.655566,-0.515045,-0.491638,-0.539764,0.448944,-30.775,3.20833,-26.8833,-6978,-28906
1086,444227,0.12207,-0.183105,-0.0610352,161.746,86.001,78.2996,-9.78086,0.210547,-0.62207,-0.515045,-0.491669,-0.539764,0.448944,-30.8083,3.16667,-26.775,-6978,-28906
1092,444233,-0.0610352,0.0610352,0.0610352,161.746,86.001,78.2996,-9.79521,0.200977,-0.626855,-0.515045,-0.491638,-0.539734,0.448944,-30.8167,3.15833,-26.75,-6978,-28906
1098,444239,0.0610352,0,-0.0610352,161.746,86.001,78.2996,-9.79521,0.210547,-0.636426,-0.515076,-0.491638,-0.539734,0.448944,-30.825,3.14167,-26.7583,-6970,-28907
1104,444245,-0.12207,0,0.12207,161.752,86.001,78.3051,-9.78564,0.215332,-0.650781,-0.515076,-0.491638,-0.539764,0.448944,-30.8167,3.15833,-26.7417,-6970,-28907
1110,444251,0.0610352,0,-0.183105,161.752,86.001,78.3051,-9.80479,0.210547,-0.641211,-0.515076,-0.491638,-0.539764,0.448914,-30.8167,3.175,-26.7333,-6970,-28907
1116,444257,-0.12207,-0.0610352,0.183105,161.746,86.001,78.2996,-9.80957,0.215332,-0.674707,-0.515076,-0.491638,-0.539764,0.448914,-30.825,3.225,-26.8083,-6970,-28907
1122,444263,0,0.0610352,0,161.735,86.001,78.2886,-9.81436,0.229688,-0.641211,-0.515076,-0.491638,-0.539764,0.448914,-30.8333,3.21667,-26.8333,-6970,-28907
1128,444269,0.0610352,-0.0610352,0.12207,161.735,86.001,78.2886,-9.77607,0.229688,-0.636426,-0.515076,-0.491638,-0.539764,0.448914,-30.8417,3.2,-26.85,-6970,-28907
1134,444275,0,0.0610352,0,161.724,86.001,78.2776,-9.77129,0.205762,-0.655566,-0.515076,-0.491638,-0.539764,0.448914,-30.8583,3.19167,-26.8167,-6970,-28907
1140,444281,-0.12207,-0.183105,0.366211,161.697,86.001,78.2501,-9.80479,0.210547,-0.669922,-0.515076,-0.491638,-0.539764,0.448914,-30.8333,3.20833,-26.7917,-6970,-28907
1146,444287,0,0.0610352,-0.12207,161.697,86.001,78.2556,-9.79043,0.205762,-0.631641,-0.515106,-0.491638,-0.539734,0.448914,-30.825,3.24167,-26.8,-6970,-28907
1152,444293,-0.0610352,-0.0610352,0,161.708,86.001,78.2666,-9.77607,0.215332,-0.655566,-0.515106,-0.491638,-0.539764,0.448914,-30.8083,3.25833,-26.8167,-6970,-28907
1158,444299,0,-0.183105,0.12207,161.708,86.001,78.2611,-9.78086,0.239258,-0.650781,-0.515106,-0.491638,-0.539764,0.448914,-30.8,3.29167,-26.8167,-6970,-28907
1164,444305,0,0.183105,0,161.691,86.001,78.2501,-9.78086,0.215332,-0.650781,-0.515106,-0.491638,-0.539764,0.448914,-30.8,3.30833,-26.8333,-6970,-28907
1170,444311,0,-0.183105,0.12207,161.686,86.001,78.2446,-9.78564,0.205762,-0.641211,-0.515106,-0.491638,-0.539764,0.448883,-30.8,3.3,-26.8,-6970,-28907
1176,444317,-0.0610352,0,0,161.68,86.001,78.2391,-9.80957,0.229688,-0.679492,-0.515106,-0.491638,-0.539764,0.448883,-30.7917,3.30833,-26.7833,-6970,-28907
1182,444323,-0.0610352,-0.0610352,0.0610352,161.68,86.001,78.2391,-9.78086,0.191406,-0.669922,-0.515106,-0.491638,-0.539764,0.448883,-30.7917,3.29167,-26.7833,-6970,-28907
1188,444329,-0.12207,-0.0610352,-0.305176,161.675,86.001,78.2336,-9.7665,0.215332,-0.669922,-0.515137,-0.491638,-0.539764,0.448883,-30.7917,3.275,-26.75,-6970,-28907
1194,444335,0,-0.183105,0,161.691,86.001,78.2556,-9.77607,0.196191,-0.631641,-0.515106,-0.491608,-0.539764,0.448883,-30.7833,3.25833,-26.7417,-6970,-28907
1200,444341,0.12207,0,0,161.691,86.001,78.2501,-9.77607,0.196191,-0.665137,-0.515137,-0.491608,-0.539764,0.448883,-30.7417,3.20833,-26.775,-6970,-28907
1206,444347,-0.12207,0.0610352,-0.244141,161.691,86.001,78.2501,-9.78086,0.210547,-0.650781,-0.515137,-0.491608,-0.539764,0.448883,-30.7167,3.2,-26.7833,-6970,-28907
1212,444353,-0.0610352,-0.183105,0.244141,161.708,86.001,78.2721,-9.79521,0.181836,-0.650781,-0.515106,-0.491608,-0.539764,0.448914,-30.7167,3.19167,-26.8083,-6970,-28907
1218,444359,-0.0610352,-0.0610352,0,161.691,86.001,78.2501,-9.78086,0.234473,-0.641211,-0.515137,-0.491608,-0.539764,0.448914,-30.7083,3.18333,-26.875,-6970,-28907
1224,444365,0,0,0.0610352,161.686,86.001,78.2501,-9.78564,0.205762,-0.665137,-0.515137,-0.491608,-0.539764,0.448914,-30.7167,3.175,-26.8917,-6970,-28907
1230,444371,-0.0610352,0,0,161.686,86.001,78.2446,-9.78086,0.244043,-0.669922,-0.515137,-0.491608,-0.539734,0.448914,-30.725,3.13333,-26.9167,-6970,-28907
1236,444377,-0.0610352,0,0.0610352,161.68,86.001,78.2391,-9.8,0.220117,-0.655566,-0.515106,-0.491608,-0.539734,0.448914,-30.7333,3.125,-26.9083,-6970,-28907
1242,444383,0,0.12207,-0.427246,161.675,86.001,78.2336,-9.78564,0.224902,-0.645996,-0.515137,-0.491608,-0.539734,0.448914,-30.7417,3.10833,-26.9167,-6970,-28907
1248,444389,-0.0610352,0.0610352,-0.305176,161.708,86.001,78.2666,-9.77129,0.210547,-0.655566,-0.515106,-0.491608,-0.539764,0.448914,-30.7583,3.10833,-26.9417,-6970,-28907
1254,444395,-0.0610352,0,0,161.73,86.001,78.2886,-9.78086,0.220117,-0.650781,-0.515106,-0.491608,-0.539764,0.448914,-30.8,3.13333,-27.0167,-6970,-28907
1260,444401,-0.12207,-0.0610352,0.0610352,161.724,86.001,78.2831,-9.78564,0.205762,-0.679492,-0.515106,-0.491608,-0.539764,0.448914,-30.8667,3.15,-27.125,-6970,-28907
1266,444407,0.0610352,0,0,161.719,86.001,78.2776,-9.78564,0.215332,-0.636426,-0.515106,-0.491608,-0.539764,0.448914,-30.9083,3.15833,-27.175,-6970,-28907
1272,444413,0,0,-0.305176,161.719,86.001,78.2776,-9.78086,0.220117,-0.631641,-0.515106,-0.491608,-0.539764,0.448914,-30.9333,3.175,-27.2083,-6970,-28907
1278,444419,0,0,0,161.741,86.001,78.2996,-9.78564,0.215332,-0.665137,-0.515106,-0.491608,-0.539764,0.448914,-30.9583,3.175,-27.225,-6970,-28907
1284,444425,-0.0610352,-0.0610352,-0.183105,161.741,86.001,78.2996,-9.78086,0.220117,-0.645996,-0.515106,-0.491608,-0.539764,0.448914,-30.975,3.2,-27.2167,-6970,-28907
1290,444431,-0.12207,0,0.0610352,161.746,86.001,78.3051,-9.78564,0.210547,-0.669922,-0.515106,-0.491577,-0.539764,0.448914,-30.9917,3.19167,-27.2333,-6970,-28907
1296,444437,-0.12207,-0.0610352,0,161.746,86.001,78.3051,-9.79043,0.200977,-0.665137,-0.515106,-0.491577,-0.539764,0.448914,-30.9667,3.18333,-27.2083,-6970,-28907
1302,444443,0.0610352,-0.0610352,-0.0610352,161.746,86.001,78.3051,-9.75693,0.215332,-0.631641,-0.515106,-0.491577,-0.539764,0.448914,-30.9333,3.175,-27.2083,-6970,-28907
1308,444449,-0.12207,-0.0610352,-0.0610352,161.746,86.001,78.3105,-9.79521,0.200977,-0.641211,-0.515106,-0.491577,-0.539764,0.448914,-30.9083,3.16667,-27.1667,-6970,-28907
1314,444455,0.0610352,0,-0.0610352,161.752,86.001,78.3105,-9.78086,0.229688,-0.660352,-0.515106,-0.491577,-0.539764,0.448914,-30.8833,3.15833,-27.0917,-6970,-28907
1320,444461,0,-0.0610352,0.12207,161.746,86.001,78.3051,-9.77129,0.191406,-0.631641,-0.515106,-0.491577,-0.539764,0.448914,-30.9,3.2,-26.9083,-6978,-28906
1326,444467,0,0.0610352,0.0610352,161.752,86.001,78.3105,-9.77607,0.220117,-0.665137,-0.515106,-0.491577,-0.539764,0.448914,-30.9083,3.23333,-26.85,-6978,-28906
1332,444473,0,0.0610352,0,161.746,86.001,78.3105,-9.80479,0.220117,-0.655566,-0.515106,-0.491577,-0.539764,0.448914,-30.9167,3.275,-26.775,-6978,-28906
1338,444479,0.12207,0.0610352,0.0610352,161.746,86.001,78.3105,-9.79521,0.210547,-0.660352,-0.515106,-0.491608,-0.539764,0.448914,-30.9167,3.28333,-26.7583,-6978,-28906
1344,444485,0.0610352,-0.0610352,0.0610352,161.746,86.001,78.3051,-9.77607,0.205762,-0.645996,-0.515106,-0.491608,-0.539764,0.448914,-30.9333,3.3,-26.7667,-6978,-28906
1350,444491,0,-0.0610352,0.0610352,161.735,86.001,78.2941,-9.78086,0.220117,-0.655566,-0.515106,-0.491608,-0.539764,0.448914,-30.9167,3.29167,-26.8417,-6978,-28906
1356,444497,0.0610352,0,0.0610352,161.735,86.001,78.2941,-9.78564,0.205762,-0.650781,-0.515106,-0.491608,-0.539764,0.448914,-30.9167,3.3,-26.875,-6978,-28906
1362,444503,0,-0.0610352,0,161.73,86.001,78.2941,-9.78086,0.215332,-0.655566,-0.515106,-0.491608,-0.539764,0.448914,-30.9167,3.3,-26.875,-6978,-28906
1368,444509,-0.183105,0,-0.183105,161.73,86.001,78.2886,-9.77129,0.191406,-0.62207,-0.515106,-0.491608,-0.539764,0.448914,-30.95,3.3,-26.8917,-6978,-28906
1374,444515,0,0.12207,0.0610352,161.741,86.001,78.3051,-9.80479,0.215332,-0.631641,-0.515106,-0.491608,-0.539764,0.448914,-30.95,3.29167,-26.9083,-6978,-28906
1380,444521,0,0.12207,0,161.746,86.001,78.3051,-9.78564,0.220117,-0.607715,-0.515106,-0.491608,-0.539764,0.448914,-30.9167,3.23333,-26.9,-6978,-28906
1386,444527,0.0610352,0,0.0610352,161.741,86.001,78.2996,-9.80957,0.220117,-0.650781,-0.515106,-0.491608,-0.539764,0.448914,-30.8833,3.2,-26.9333,-6978,-28906
1392,444533,0,-0.0610352,0.12207,161.735,86.001,78.2996,-9.80479,0.229688,-0.660352,-0.515106,-0.491608,-0.539764,0.448914,-30.8667,3.175,-26.95,-6978,-28906
1398,444539,-0.12207,-0.12207,-0.183105,161.724,86.001,78.2886,-9.78086,0.205762,-0.665137,-0.515106,-0.491608,-0.539764,0.448883,-30.8583,3.175,-27.0083,-6978,-28906
1404,444545,0,0.0610352,0,161.735,86.001,78.2996,-9.79521,0.186621,-0.655566,-0.515106,-0.491608,-0.539795,0.448914,-30.85,3.175,-27.0667,-6978,-28906
1410,444551,0,-0.0610352,0.0610352,161.73,86.001,78.2941,-9.77129,0.200977,-0.650781,-0.515106,-0.491608,-0.539764,0.448914,-30.8167,3.21667,-27.1083,-6978,-28906
1416,444557,0,0.183105,0,161.746,86.001,78.3051,-9.77607,0.200977,-0.636426,-0.515106,-0.491608,-0.539795,0.448914,-30.7917,3.225,-27.0917,-6978,-28906
1422,444563,-0.0610352,0.0610352,0,161.752,86.001,78.3105,-9.79043,0.220117,-0.645996,-0.515106,-0.491608,-0.539795,0.448914,-30.7667,3.225,-27.0917,-6978,-28906
1428,444569,0,-0.183105,0,161.752,86.001,78.3105,-9.77129,0.181836,-0.631641,-0.515106,-0.491608,-0.539795,0.448883,-30.7417,3.225,-27.1,-6978,-28906
1434,444575,-0.0610352,-0.0610352,-0.12207,161.746,86.001,78.3105,-9.79521,0.205762,-0.669922,-0.515106,-0.491608,-0.539795,0.448914,-30.725,3.225,-27.0917,-6978,-28906
1440,444581,0,-0.0610352,0.0610352,161.746,86.001,78.3105,-9.79043,0.210547,-0.655566,-0.515106,-0.491608,-0.539795,0.448914,-30.75,3.275,-27.0917,-6978,-28906
1446,444587,-0.0610352,0,0,161.757,86.001,78.316,-9.77129,0.191406,-0.655566,-0.515106,-0.491608,-0.539795,0.448914,-30.775,3.29167,-27.075,-6978,-28906
1452,444593,0,0,0.0610352,161.757,86.001,78.316,-9.78086,0.220117,-0.636426,-0.515106,-0.491608,-0.539795,0.448914,-30.7917,3.30833,-27.0583,-6978,-28906
1458,444599,0,0,0,161.752,86.001,78.3105,-9.79043,0.220117,-0.626855,-0.515106,-0.491608,-0.539764,0.448914,-30.7917,3.31667,-27.0333,-6978,-28906
1464,444605,0.0610352,-0.12207,0,161.752,86.001,78.3105,-9.77607,0.220117,-0.650781,-0.515106,-0.491608,-0.539764,0.448914,-30.7917,3.325,-27.0333,-6978,-28906
1470,444611,-0.0610352,0,0.12207,161.741,86.001,78.2996,-9.79521,0.220117,-0.626855,-0.515106,-0.491608,-0.539764,0.448914,-30.8083,3.33333,-27.05,-6978,-28906
1476,444617,-0.0610352,0.0610352,0.12207,161.73,86.001,78.2941,-9.78086,0.191406,-0.655566,-0.515106,-0.491608,-0.539764,0.448914,-30.8167,3.33333,-27.0333,-6978,-28906
1482,444623,0,0,-0.366211,161.724,86.001,78.2831,-9.77129,0.210547,-0.665137,-0.515106,-0.491608,-0.539764,0.448914,-30.8333,3.34167,-27.075,-6978,-28906
1488,444629,0,0,-0.0610352,161.752,86.001,78.3105,-9.7665,0.220117,-0.645996,-0.515106,-0.491608,-0.539764,0.448914,-30.8167,3.35,-27.1,-6978,-28906
1494,444635,-0.0610352,0,-0.244141,161.752,86.001,78.316,-9.81436,0.215332,-0.641211,-0.515106,-0.491608,-0.539764,0.448914,-30.825,3.35833,-27.125,-6978,-28906
1500,444641,0,-0.12207,0.0610352,161.763,86.001,78.3215,-9.7665,0.229688,-0.650781,-0.515106,-0.491577,-0.539764,0.448914,-30.8333,3.34167,-27.125,-6978,-28906
1506,444647,0.0610352,0.0610352,0,161.79,86.001,78.349,-9.79043,0.205762,-0.669922,-0.515076,-0.491577,-0.539795,0.448914,-30.8417,3.325,-27.1,-6978,-28906
1512,444653,0,-0.0610352,-0.0610352,161.79,86.001,78.3545,-9.79521,0.220117,-0.626855,-0.515076,-0.491577,-0.539795,0.448914,-30.8417,3.3,-27.075,-6978,-28906
1518,444659,-0.12207,-0.183105,0.0610352,161.796,86.001,78.3545,-9.77129,0.244043,-0.626855,-0.515076,-0.491577,-0.539795,0.448944,-30.85,3.275,-27.0667,-6978,-28906
1524,444665,0.0610352,0.0610352,0.0610352,161.785,86.001,78.349,-9.79521,0.210547,-0.641211,-0.515106,-0.491577,-0.539795,0.448914,-30.8417,3.25833,-27.1,-6978,-28906
1530,444671,0,0.0610352,0,161.785,86.001,78.3435,-9.78564,0.200977,-0.636426,-0.515106,-0.491577,-0.539795,0.448914,-30.85,3.24167,-27.1583,-6978,-28906
1536,444677,0,0,0.0610352,161.785,86.001,78.3435,-9.80479,0.200977,-0.645996,-0.515106,-0.491577,-0.539795,0.448914,-30.8583,3.225,-27.1333,-6978,-28906
1542,444683,-0.12207,0,-0.183105,161.779,86.001,78.3435,-9.77607,0.215332,-0.660352,-0.515106,-0.491577,-0.539795,0.448914,-30.8667,3.225,-27.125,-6978,-28906
1548,444689,0,0,0.12207,161.79,86.001,78.3545,-9.78564,0.224902,-0.626855,-0.515106,-0.491547,-0.539795,0.448914,-30.875,3.225,-27.0917,-6978,-28906
1554,444695,0,0,0.0610352,161.779,86.001,78.349,-9.79043,0.229688,-0.636426,-0.515106,-0.491547,-0.539795,0.448914,-30.8833,3.20833,-27.0583,-6978,-28906
1560,444701,-0.0610352,0,-0.0610352,161.779,86.001,78.3435,-9.78564,0.229688,-0.650781,-0.515137,-0.491547,-0.539825,0.448883,-30.875,3.2,-26.975,-6978,-28906
1566,444707,-0.0610352,-0.0610352,-0.244141,161.779,86.001,78.349,-9.79521,0.224902,-0.641211,-0.515137,-0.491547,-0.539825,0.448883,-30.8833,3.19167,-26.9333,-6978,-28906
1572,444713,0,0,0,161.796,86.001,78.3655,-9.78564,0.215332,-0.626855,-0.515137,-0.491547,-0.539825,0.448883,-30.875,3.19167,-26.9167,-6978,-28906
1578,444719,0.0610352,0,-0.12207,161.79,86.001,78.3655,-9.75215,0.205762,-0.655566,-0.515137,-0.491516,-0.539825,0.448883,-30.8917,3.2,-26.925,-6978,-28906
1584,444725,-0.0610352,0.12207,-0.12207,161.801,86.001,78.371,-9.7665,0.205762,-0.631641,-0.515137,-0.491516,-0.539825,0.448883,-30.9,3.18333,-26.9417,-6978,-28906
1590,444731,0,0.0610352,0.12207,161.801,86.001,78.3765,-9.77129,0.224902,-0.655566,-0.515137,-0.491516,-0.539856,0.448883,-30.9167,3.15,-26.9917,-6978,-28906
1596,444737,0,0,-0.183105,161.796,86.001,78.371,-9.77607,0.234473,-0.679492,-0.515137,-0.491516,-0.539856,0.448853,-30.9167,3.125,-26.9833,-6978,-28906
1602,444743,0,0.12207,0,161.807,86.001,78.382,-9.79043,0.215332,-0.650781,-0.515137,-0.491516,-0.539856,0.448853,-30.9083,3.11667,-26.9667,-6978,-28906
1608,444749,-0.12207,0,-0.0610352,161.807,86.001,78.3875,-9.79043,0.229688,-0.636426,-0.515137,-0.491516,-0.539856,0.448853,-30.9083,3.11667,-26.9417,-6978,-28906
1614,444755,-0.0610352,0,-0.244141,161.812,86.001,78.3875,-9.78086,0.215332,-0.660352,-0.515167,-0.491486,-0.539886,0.448853,-30.9417,3.11667,-26.9,-6978,-28906
1620,444761,-0.183105,-0.0610352,-0.12207,161.829,86.001,78.4149,-9.77607,0.215332,-0.636426,-0.515167,-0.491455,-0.539917,0.448822,-30.9667,3.13333,-26.7583,-6978,-28906
1626,444767,0,0,-0.12207,161.812,86.001,78.3984,-9.76172,0.205762,-0.679492,-0.515167,-0.491455,-0.539917,0.448822,-30.9833,3.13333,-26.7,-6978,-28906
1632,444773,0,-0.12207,0.366211,161.818,86.001,78.4039,-9.79521,0.200977,-0.617285,-0.515167,-0.491455,-0.539917,0.448822,-30.9667,3.13333,-26.6667,-6978,-28906
1638,444779,0,0.12207,-0.0610352,161.79,86.001,78.3765,-9.78086,0.215332,-0.641211,-0.515198,-0.491455,-0.539917,0.448792,-30.975,3.16667,-26.6917,-6978,-28906
1644,444785,0,-0.0610352,0.244141,161.796,86.001,78.382,-9.78086,0.196191,-0.650781,-0.515198,-0.491455,-0.539917,0.448792,-30.9833,3.19167,-26.7583,-6978,-28906
1650,444791,-0.12207,-0.0610352,-0.183105,161.785,86.001,78.3765,-9.8,0.215332,-0.62207,-0.515198,-0.491455,-0.539917,0.448792,-30.9833,3.29167,-26.825,-6978,-28906
1656,444797,0,-0.12207,0.0610352,161.779,86.001,78.3765,-9.77607,0.196191,-0.62207,-0.515228,-0.491425,-0.539917,0.448792,-30.9667,3.31667,-26.85,-6978,-28906
1662,444803,0.0610352,-0.183105,-0.183105,161.774,86.001,78.3655,-9.78564,0.220117,-0.645996,-0.515228,-0.491425,-0.539917,0.448792,-30.925,3.31667,-26.825,-6978,-28906
1668,444809,-0.12207,-0.12207,0.12207,161.779,86.0065,78.3765,-9.77607,0.205762,-0.645996,-0.515228,-0.491425,-0.539917,0.448792,-30.8833,3.3,-26.825,-6978,-28906
1674,444815,-0.183105,-0.12207,0,161.768,86.0065,78.3655,-9.77129,0.224902,-0.641211,-0.515228,-0.491425,-0.539917,0.448792,-30.85,3.3,-26.825,-6978,-28906
1680,444821,-0.0610352,-0.183105,-0.183105,161.774,86.0065,78.371,-9.77607,0.220117,-0.665137,-0.515259,-0.491394,-0.539948,0.448761,-30.825,3.28333,-26.7917,-6978,-28906
1686,444827,0,0,0.0610352,161.785,86.0065,78.382,-9.8,0.215332,-0.655566,-0.515259,-0.491364,-0.539948,0.448761,-30.8417,3.29167,-26.7833,-6978,-28906
1692,444833,-0.0610352,0,0.0610352,161.779,86.0065,78.3765,-9.77607,0.205762,-0.645996,-0.515259,-0.491364,-0.539948,0.448761,-30.8667,3.30833,-26.7917,-6978,-28906
1698,444839,0,0.305176,-0.244141,161.774,86.0065,78.3765,-9.79043,0.215332,-0.641211,-0.515289,-0.491364,-0.539948,0.448761,-30.9167,3.33333,-26.8417,-6978,-28906
1704,444845,0,0,0,161.79,86.0065,78.3984,-9.8,0.205762,-0.660352,-0.515259,-0.491364,-0.539978,0.448761,-30.9417,3.35833,-26.9167,-6978,-28906
1710,444851,0,0,0,161.79,86.0065,78.3984,-9.78086,0.224902,-0.650781,-0.515289,-0.491364,-0.539978,0.44873,-30.9917,3.375,-26.9583,-6978,-28906
1716,444857,0,0,0,161.79,86.0065,78.3984,-9.76172,0.215332,-0.650781,-0.515289,-0.491333,-0.539978,0.44873,-30.9917,3.375,-26.9583,-6978,-28906
1722,444863,0,0,0,161.79,86.0065,78.3984,-9.79043,0.205762,-0.669922,-0.515289,-0.491333,-0.539978,0.44873,-31.0083,3.375,-26.95,-6978,-28906
1728,444869,0,0,0,161.79,86.0065,78.3984,-9.80957,0.210547,-0.655566,-0.515289,-0.491333,-0.539978,0.44873,-31.0167,3.36667,-26.9583,-6978,-28906
1734,444875,0,0,0,161.785,86.0065,78.3984,-9.8,0.224902,-0.650781,-0.515289,-0.491333,-0.539978,0.44873,-31.025,3.35,-26.9667,-6978,-28906
1740,444881,0,0,0,161.785,86.0065,78.3984,-9.79521,0.220117,-0.645996,-0.515289,-0.491333,-0.540009,0.4487,-31.0417,3.30833,-26.9667,-6978,-28906
1746,444887,0,0,0,161.785,86.0065,78.3984,-9.77607,0.200977,-0.636426,-0.515289,-0.491333,-0.540009,0.4487,-31.0333,3.3,-26.975,-6978,-28906
1752,444893,0,0,0,161.785,86.0065,78.3984,-9.79043,0.196191,-0.636426,-0.515289,-0.491333,-0.540009,0.4487,-31.0167,3.30833,-26.9833,-6978,-28906
1758,444899,0,0,0,161.785,86.0065,78.3984,-9.79521,0.205762,-0.660352,-0.51532,-0.491333,-0.540009,0.4487,-31.0167,3.33333,-26.9667,-6978,-28906
1764,444905,0,0,0,161.785,86.0065,78.3984,-9.77129,0.205762,-0.650781,-0.51532,-0.491333,-0.540009,0.4487,-31.0167,3.36667,-26.9667,-6978,-28906
1770,444911,0,0,0,161.785,86.0065,78.3984,-9.77129,0.210547,-0.631641,-0.51532,-0.491333,-0.540009,0.4487,-31.05,3.39167,-26.9833,-6978,-28906
1776,444917,0,0,0,161.785,86.0065,78.3984,-9.78086,0.205762,-0.645996,-0.51532,-0.491333,-0.540009,0.4487,-31.05,3.4,-26.9917,-6978,-28906
1782,444923,0,0,0,161.785,86.0065,78.3984,-9.79043,0.210547,-0.660352,-0.51532,-0.491333,-0.540009,0.4487,-31.0667,3.4,-27.0167,-6978,-28906
1788,444929,0,0,0,161.785,86.0065,78.3984,-9.79521,0.200977,-0.645996,-0.51532,-0.491333,-0.540009,0.4487,-31.1,3.4,-27.0167,-6978,-28906
1794,444935,0,0,0,161.785,86.0065,78.3984,-9.77607,0.215332,-0.655566,-0.51532,-0.491333,-0.540009,0.4487,-31.1083,3.38333,-26.975,-6978,-28906
1800,444941,0,0,0,161.785,86.0065,78.3984,-9.8,0.200977,-0.6125,-0.51532,-0.491333,-0.540009,0.4487,-31.175,3.35833,-26.9333,-6978,-28906
1806,444947,0,0,0,161.785,86.0065,78.3984,-9.78086,0.196191,-0.655566,-0.51532,-0.491333,-0.540009,0.4487,-31.2,3.36667,-26.9167,-6978,-28906
1812,444953,0,0,0,161.785,86.0065,78.3984,-9.79043,0.191406,-0.660352,-0.51532,-0.491333,-0.540009,0.4487,-31.2,3.375,-26.925,-6978,-28906
1818,444959,0,0,0,161.785,86.0065,78.3984,-9.78086,0.196191,-0.660352,-0.51532,-0.491333,-0.540009,0.4487,-31.2167,3.39167,-26.95,-6978,-28906
1824,444965,0,0,0,161.785,86.0065,78.3984,-9.8,0.215332,-0.650781,-0.51532,-0.491333,-0.540009,0.4487,-31.225,3.40833,-26.9583,-6978,-28906
1830,444971,0,0,0,161.785,86.0065,78.3984,-9.78564,0.200977,-0.655566,-0.515289,-0.491333,-0.540009,0.4487,-31.275,3.45,-26.9917,-6978,-28906
1836,444977,0,0,0,161.785,86.0065,78.3984,-9.78086,0.229688,-0.641211,-0.515289,-0.491333,-0.540009,0.4487,-31.2833,3.45833,-26.9583,-6978,-28906
1842,444983,0,0,0,161.785,86.0065,78.3984,-9.78564,0.215332,-0.674707,-0.515289,-0.491333,-0.540009,0.4487,-31.2833,3.46667,-26.95,-6978,-28906
1848,444989,0,0,0,161.79,86.0065,78.3984,-9.77607,0.224902,-0.650781,-0.515289,-0.491333,-0.540009,0.4487,-31.2667,3.45833,-26.95,-6978,-28906
1854,444995,0,0,0,161.79,86.0065,78.3984,-9.79521,0.224902,-0.669922,-0.515289,-0.491333,-0.540009,0.4487,-31.1667,3.40833,-26.8667,-6978,-28906
1860,445001,0,0,0,161.79,86.0065,78.3984,-9.80957,0.205762,-0.650781,-0.515289,-0.491333,-0.540009,0.44873,-31.15,3.4,-26.8167,-6978,-28906
1866,445007,0,0,0,161.79,86.0065,78.3984,-9.79043,0.229688,-0.641211,-0.515289,-0.491333,-0.539978,0.44873,-31.15,3.38333,-26.75,-6978,-28906
1872,445013,0,0,0,161.79,86.0065,78.3984,-9.79043,0.215332,-0.636426,-0.515289,-0.491333,-0.539978,0.44873,-31.1667,3.35833,-26.6833,-6978,-28906
1878,445019,0,0,0,161.79,86.0065,78.3984,-9.77129,0.205762,-0.650781,-0.515289,-0.491333,-0.540009,0.44873,-31.1917,3.33333,-26.6417,-6978,-28906
1884,445025,0,0,0,161.79,86.0065,78.3984,-9.76172,0.220117,-0.631641,-0.515289,-0.491333,-0.540009,0.4487,-31.25,3.28333,-26.65,-6978,-28906
1890,445031,0,0,0,161.79,86.0065,78.3984,-9.79521,0.229688,-0.650781,-0.515289,-0.491333,-0.540009,0.4487,-31.2833,3.24167,-26.6583,-6978,-28906
1896,445037,0,0,0,161.785,86.0065,78.3984,-9.79043,0.210547,-0.650781,-0.515289,-0.491333,-0.540009,0.4487,-31.2917,3.23333,-26.6667,-6978,-28906
1902,445043,0,0,0,161.785,86.0065,78.3984,-9.79521,0.215332,-0.655566,-0.515289,-0.491333,-0.540009,0.4487,-31.2917,3.20833,-26.675,-6978,-28906
1908,445049,0,0,0,161.785,86.0065,78.3984,-9.8,0.210547,-0.655566,-0.515289,-0.491333,-0.540009,0.4487,-31.2667,3.2,-26.675,-6978,-28906
1914,445055,0,0,0,161.785,86.0065,78.3984,-9.78564,0.210547,-0.665137,-0.515289,-0.491333,-0.540009,0.4487,-31.2333,3.23333,-26.7333,-6978,-28906
1920,445061,0,0,0,161.785,86.001,78.3984,-9.78564,0.200977,-0.660352,-0.515289,-0.491333,-0.540009,0.4487,-31.2167,3.25833,-26.7667,-6978,-28906
1926,445067,0,0,0,161.785,86.0065,78.3984,-9.81436,0.200977,-0.641211,-0.515289,-0.491333,-0.540009,0.4487,-31.1917,3.26667,-26.8083,-6978,-28906
1932,445073,0,0,0,161.785,86.001,78.3984,-9.78564,0.191406,-0.674707,-0.515289,-0.491333,-0.540009,0.4487,-31.1583,3.26667,-26.8583,-6978,-28906
1938,445079,0,0,0,161.785,86.001,78.3984,-9.8,0.229688,-0.636426,-0.515289,-0.491333,-0.540009,0.4487,-31.1333,3.26667,-26.85,-6978,-28906
1944,445085,0,0,0,161.785,86.001,78.3984,-9.78564,0.220117,-0.6125,-0.515289,-0.491333,-0.540009,0.4487,-31.1083,3.29167,-26.8917,-6978,-28906
1950,445091,0,0,0,161.785,86.001,78.3984,-9.79043,0.200977,-0.617285,-0.515289,-0.491333,-0.540009,0.4487,-31.125,3.31667,-26.9167,-6978,-28906
1956,445097,0,0,0,161.785,86.001,78.3984,-9.78086,0.205762,-0.636426,-0.515289,-0.491333,-0.540009,0.4487,-31.125,3.33333,-26.95,-6978,-28906
1962,445103,0,0,0,161.785,86.001,78.3984,-9.77607,0.210547,-0.655566,-0.515289,-0.491333,-0.540009,0.4487,-31.1083,3.35833,-26.9667,-6978,-28906
1968,445109,0,0,0,161.785,86.001,78.3984,-9.79043,0.196191,-0.631641,-0.515289,-0.491333,-0.540009,0.4487,-31.1,3.35833,-26.9917,-6978,-28906
1974,445115,0,0,0,161.785,86.001,78.3984,-9.78086,0.196191,-0.645996,-0.515289,-0.491333,-0.540009,0.4487,-31.0583,3.36667,-27.0167,-6978,-28906
1980,445121,0,0,0,161.785,86.001,78.3984,-9.80479,0.191406,-0.62207,-0.515289,-0.491333,-0.540009,0.4487,-31.0333,3.35,-27.0833,-6978,-28906
1986,445127,0,0,0,161.785,86.001,78.3984,-9.77129,0.205762,-0.62207,-0.515289,-0.491333,-0.540009,0.4487,-31.0167,3.34167,-27.1333,-6978,-28906
1992,445133,0,0,0,161.79,86.001,78.3984,-9.7665,0.205762,-0.660352,-0.515289,-0.491333,-0.540009,0.4487,-31.0167,3.33333,-27.2167,-6978,-28906
1998,445139,0,0,0,161.79,86.001,78.3984,-9.79521,0.229688,-0.645996,-0.515289,-0.491333,-0.540009,0.4487,-31.025,3.33333,-27.275,-6978,-28906
2004,445145,0,0,0,161.79,86.0065,78.3984,-9.79043,0.210547,-0.636426,-0.515289,-0.491333,-0.539978,0.44873,-31.0583,3.325,-27.3667,-6978,-28906
2010,445151,0,0,0,161.79,86.0065,78.3984,-9.80479,0.191406,-0.660352,-0.515289,-0.491364,-0.539978,0.44873,-31.075,3.325,-27.375,-6978,-28906
2016,445157,0,0,0,161.79,86.0065,78.3984,-9.78086,0.215332,-0.631641,-0.515289,-0.491364,-0.539978,0.44873,-31.1083,3.325,-27.3667,-6978,-28906
2022,445163,0,0,0,161.79,86.0065,78.3984,-9.76172,0.210547,-0.660352,-0.515289,-0.491364,-0.539978,0.44873,-31.125,3.33333,-27.375,-6978,-28906
2028,445169,0,0,0,161.79,86.0065,78.3984,-9.78564,0.210547,-0.650781,-0.515259,-0.491364,-0.539978,0.44873,-31.125,3.33333,-27.3167,-6978,-28906
2034,445175,0,0,0,161.79,86.0065,78.3984,-9.77607,0.229688,-0.631641,-0.515259,-0.491364,-0.539978,0.44873,-31.125,3.3,-27.2417,-6978,-28906
2040,445181,0,0,0,161.796,86.0065,78.3984,-9.77607,0.220117,-0.645996,-0.515259,-0.491364,-0.539978,0.44873,-31.125,3.28333,-27.2,-6978,-28906
2046,445187,0,0,0,161.796,86.0065,78.3984,-9.78086,0.210547,-0.636426,-0.515259,-0.491364,-0.539978,0.44873,-31.1417,3.25,-27.1583,-6978,-28906
2052,445193,0,0,0,161.796,86.0065,78.3984,-9.77607,0.200977,-0.641211,-0.515259,-0.491364,-0.539978,0.44873,-31.1417,3.23333,-27.1417,-6978,-28906
2058,445199,0,0,0,161.796,86.0065,78.3984,-9.78086,0.205762,-0.645996,-0.515259,-0.491364,-0.539978,0.44873,-31.15,3.23333,-27.1167,-6978,-28906
2064,445205,0,0,0,161.796,86.0065,78.3984,-9.7665,0.205762,-0.650781,-0.515259,-0.491364,-0.539978,0.44873,-31.1417,3.29167,-27.1167,-6978,-28906
2070,445211,0,0,0,161.796,86.0065,78.3984,-9.8,0.210547,-0.660352,-0.515259,-0.491364,-0.539978,0.44873,-31.1333,3.30833,-27.1083,-6978,-28906
2076,445217,0,0,0,161.796,86.0065,78.3984,-9.79043,0.196191,-0.631641,-0.515259,-0.491364,-0.539978,0.448761,-31.1167,3.31667,-27.1,-6978,-28906
2082,445223,0,0,0,161.796,86.0065,78.3984,-9.78086,0.234473,-0.631641,-0.515259,-0.491394,-0.539978,0.448761,-31.1083,3.31667,-27.1,-6978,-28906
2088,445229,0,0,0,161.796,86.0065,78.3984,-9.78086,0.210547,-0.669922,-0.515259,-0.491394,-0.539948,0.448761,-31.0917,3.325,-27.15,-6978,-28906
2094,445235,0,0,0,161.796,86.0065,78.3984,-9.77607,0.210547,-0.655566,-0.515259,-0.491394,-0.539948,0.448761,-31.15,3.33333,-27.15,-6978,-28906
2100,445241,0,0,0,161.796,86.0065,78.3984,-9.8,0.224902,-0.626855,-0.515259,-0.491394,-0.539948,0.448761,-31.175,3.31667,-27.1417,-6978,-28906
2106,445247,0,0,0,161.796,86.0065,78.3984,-9.77607,0.234473,-0.62207,-0.515259,-0.491394,-0.539948,0.448761,-31.225,3.3,-27.0917,-6978,-28906
2112,445253,0,0,0,161.796,86.0065,78.3984,-9.77607,0.229688,-0.645996,-0.515259,-0.491394,-0.539948,0.448761,-31.2583,3.28333,-27.0667,-6978,-28906
2118,445259,0,0,0,161.796,86.0065,78.3984,-9.79043,0.234473,-0.650781,-0.515259,-0.491394,-0.539948,0.448761,-31.2833,3.275,-27.0833,-6978,-28906
2124,445265,0,0,0,161.796,86.0065,78.3984,-9.77129,0.200977,-0.674707,-0.515259,-0.491394,-0.539978,0.448761,-31.25,3.26667,-27.0667,-6978,-28906
2130,445271,0,0,0,161.796,86.0065,78.3984,-9.80957,0.220117,-0.669922,-0.515259,-0.491364,-0.539978,0.448761,-31.2333,3.25,-27.0583,-6978,-28906
2136,445277,0,0,0,161.796,86.0065,78.3984,-9.75693,0.210547,-0.650781,-0.515259,-0.491364,-0.539978,0.448761,-31.225,3.20833,-27.0333,-6978,-28906
2142,445283,0,0,0,161.796,86.0065,78.3984,-9.77607,0.196191,-0.62207,-0.515259,-0.491364,-0.539978,0.44873,-31.225,3.18333,-27,-6978,-28906
2148,445289,0,0,0,161.796,86.0065,78.3984,-9.78564,0.200977,-0.660352,-0.515259,-0.491364,-0.539978,0.44873,-31.2167,3.15833,-27.0083,-6978,-28906
2154,445295,0,0,0,161.796,86.001,78.3984,-9.78086,0.244043,-0.655566,-0.515259,-0.491364,-0.539978,0.44873,-31.2167,3.11667,-27.0667,-6970,-28907
2160,445301,0,0,0,161.796,86.0065,78.3984,-9.8,0.215332,-0.636426,-0.515259,-0.491364,-0.539978,0.44873,-31.2,3.1,-27.0917,-6970,-28907
2166,445307,0,0,0,161.796,86.001,78.3984,-9.79521,0.220117,-0.655566,-0.515259,-0.491364,-0.539978,0.44873,-31.2083,3.075,-27.0833,-6970,-28907
2172,445313,0,0,0,161.79,86.0065,78.3984,-9.8,0.196191,-0.641211,-0.515259,-0.491364,-0.539978,0.44873,-31.2,3.05833,-27.1,-6970,-28907
2178,445319,0,0,0,161.79,86.0065,78.3984,-9.79043,0.191406,-0.655566,-0.515259,-0.491364,-0.539978,0.44873,-31.2083,3.06667,-27.1083,-6970,-28907
2184,445325,0,0,0,161.79,86.001,78.3984,-9.78564,0.191406,-0.645996,-0.515259,-0.491364,-0.539978,0.44873,-31.2417,3.1,-27.2333,-6970,-28907
2190,445331,0,0,0,161.79,86.0065,78.3984,-9.79043,0.229688,-0.669922,-0.515259,-0.491364,-0.539978,0.44873,-31.2583,3.10833,-27.2583,-6970,-28907
2196,445337,0,0,0,161.79,86.0065,78.3984,-9.77607,0.220117,-0.650781,-0.515259,-0.491364,-0.539978,0.44873,-31.2833,3.125,-27.3,-6970,-28907
2202,445343,0,0,0,161.79,86.0065,78.3984,-9.8,0.220117,-0.645996,-0.515259,-0.491364,-0.539978,0.44873,-31.2833,3.11667,-27.2917,-6970,-28907
2208,445349,0,0,0,161.79,86.0065,78.3984,-9.78086,0.196191,-0.650781,-0.515259,-0.491364,-0.539978,0.44873,-31.2917,3.13333,-27.2667,-6970,-28907
2214,445355,0,0,0,161.796,86.0065,78.3984,-9.76172,0.196191,-0.655566,-0.515259,-0.491364,-0.539978,0.44873,-31.2417,3.13333,-27.2333,-6970,-28907
2220,445361,0,0,0,161.796,86.001,78.3984,-9.81436,0.215332,-0.655566,-0.515259,-0.491364,-0.539978,0.44873,-31.25,3.125,-27.2167,-6970,-28907
2226,445367,0,0,0,161.796,86.001,78.3984,-9.77129,0.220117,-0.645996,-0.515259,-0.491364,-0.539978,0.44873,-31.2667,3.11667,-27.1917,-6970,-28907
2232,445373,0,0,0,161.796,86.001,78.3984,-9.78564,0.215332,-0.660352,-0.515259,-0.491364,-0.539978,0.44873,-31.275,3.10833,-27.1667,-6970,-28907
2238,445379,0,0,0,161.796,86.001,78.3984,-9.78086,0.205762,-0.650781,-0.515259,-0.491364,-0.539978,0.44873,-31.2833,3.09167,-27.1583,-6970,-28907
2244,445385,0,0,0,161.796,86.001,78.3984,-9.8,0.210547,-0.645996,-0.515259,-0.491394,-0.539978,0.448761,-31.2667,3.10833,-27.1667,-6970,-28907
2250,445391,0,0,0,161.796,86.001,78.3984,-9.78564,0.200977,-0.655566,-0.515259,-0.491394,-0.539978,0.448761,-31.2583,3.13333,-27.1833,-6970,-28907
2256,445397,0,0,0,161.796,86.001,78.3984,-9.77129,0.220117,-0.684277,-0.515259,-0.491394,-0.539948,0.448761,-31.2583,3.15,-27.1667,-6970,-28907
2262,445403,0,0,0,161.796,86.001,78.3984,-9.79043,0.181836,-0.655566,-0.515259,-0.491394,-0.539948,0.448761,-31.2667,3.19167,-27.1667,-6970,-28907
2268,445409,0,0,0,161.801,86.001,78.3984,-9.7665,0.215332,-0.660352,-0.515228,-0.491394,-0.539948,0.448761,-31.2667,3.20833,-27.15,-6970,-28907
2274,445415,0,0,0,161.801,86.001,78.3984,-9.78564,0.205762,-0.660352,-0.515228,-0.491394,-0.539948,0.448761,-31.2167,3.225,-27.1417,-6978,-28906
2280,445421,0,0,0,161.801,86.001,78.3984,-9.77129,0.220117,-0.669922,-0.515228,-0.491394,-0.539948,0.448761,-31.2,3.24167,-27.1583,-6978,-28906
2286,445427,0,0,0,161.801,86.001,78.3984,-9.78086,0.224902,-0.636426,-0.515228,-0.491425,-0.539948,0.448792,-31.1917,3.25833,-27.1917,-6978,-28906
2292,445433,0,0,0,161.801,86.001,78.3984,-9.78564,0.215332,-0.660352,-0.515228,-0.491425,-0.539948,0.448792,-31.1917,3.28333,-27.225,-6978,-28906
2298,445439,0,0,0,161.807,86.001,78.3984,-9.79043,0.215332,-0.636426,-0.515228,-0.491425,-0.539948,0.448792,-31.225,3.30833,-27.2583,-6978,-28906
2304,445445,0,0,0,161.807,86.001,78.3984,-9.77129,0.210547,-0.626855,-0.515198,-0.491425,-0.539917,0.448792,-31.2917,3.34167,-27.3,-6978,-28906
2310,445451,0,0,0,161.807,86.001,78.3984,-9.78086,0.220117,-0.641211,-0.515198,-0.491425,-0.539917,0.448792,-31.3167,3.33333,-27.3,-6978,-28906
2316,445457,0,0,0,161.807,86.001,78.3984,-9.79043,0.196191,-0.631641,-0.515198,-0.491425,-0.539917,0.448792,-31.35,3.325,-27.3,-6978,-28906
2322,445463,0,0,0,161.807,86.001,78.3984,-9.8,0.215332,-0.650781,-0.515198,-0.491425,-0.539917,0.448792,-31.3667,3.31667,-27.2917,-6978,-28906
2328,445469,0,0,0,161.807,86.001,78.3984,-9.80957,0.229688,-0.674707,-0.515198,-0.491425,-0.539917,0.448792,-31.3833,3.31667,-27.2417,-6978,-28906
2334,445475,0,0,0,161.807,86.001,78.3984,-9.78564,0.210547,-0.669922,-0.515198,-0.491455,-0.539917,0.448792,-31.4167,3.33333,-27.15,-6978,-28906
2340,445481,0,0,0,161.807,86.001,78.3984,-9.76172,0.205762,-0.650781,-0.515198,-0.491455,-0.539917,0.448792,-31.4,3.325,-27.0833,-6978,-28906
2346,445487,0,0,0,161.812,86.001,78.3984,-9.77129,0.205762,-0.665137,-0.515198,-0.491455,-0.539917,0.448792,-31.3833,3.31667,-27.0333,-6978,-28906
2352,445493,0,0,0,161.812,86.001,78.3984,-9.7665,0.196191,-0.665137,-0.515198,-0.491455,-0.539917,0.448792,-31.3417,3.33333,-26.9833,-6978,-28906
2358,445499,0,0,0,161.812,86.001,78.3984,-9.76172,0.210547,-0.645996,-0.515198,-0.491455,-0.539917,0.448822,-31.325,3.35833,-26.925,-6978,-28906
2364,445505,0,0,0,161.812,86.001,78.3984,-9.75693,0.205762,-0.641211,-0.515167,-0.491455,-0.539917,0.448822,-31.3167,3.40833,-26.875,-6978,-28906
2370,445511,0,0,0,161.812,86.001,78.3984,-9.77129,0.220117,-0.645996,-0.515167,-0.491455,-0.539917,0.448822,-31.3083,3.4,-26.85,-6978,-28906
2376,445517,0,0,0,161.812,86.001,78.3984,-9.77129,0.248828,-0.650781,-0.515167,-0.491486,-0.539886,0.448822,-31.275,3.375,-26.8667,-6978,-28906
2382,445523,0,0,0,161.812,86.001,78.3984,-9.81914,0.229688,-0.62207,-0.515167,-0.491486,-0.539886,0.448822,-31.25,3.36667,-26.8917,-6978,-28906
2388,445529,0,0,0,161.812,86.001,78.3984,-9.80957,0.234473,-0.631641,-0.515167,-0.491486,-0.539886,0.448822,-31.225,3.34167,-26.9083,-6978,-28906
2394,445535,0,0,0,161.812,86.001,78.3984,-9.79043,0.229688,-0.617285,-0.515167,-0.491455,-0.539917,0.448822,-31.225,3.325,-26.9583,-6978,-28906
2400,445541,0,0,0,161.812,86.001,78.3984,-9.7665,0.239258,-0.645996,-0.515167,-0.491455,-0.539917,0.448822,-31.2333,3.31667,-26.925,-6978,-28906
2406,445547,0,0,0,161.812,86.001,78.3984,-9.79043,0.205762,-0.617285,-0.515167,-0.491455,-0.539917,0.448822,-31.2333,3.31667,-26.9167,-6978,-28906
2412,445553,0,0,0,161.812,86.001,78.3984,-9.78086,0.191406,-0.650781,-0.515198,-0.491455,-0.539917,0.448792,-31.225,3.33333,-26.9,-6978,-28906
2418,445559,0,0,0,161.807,86.001,78.3984,-9.78564,0.196191,-0.655566,-0.515198,-0.491455,-0.539917,0.448792,-31.2333,3.34167,-26.925,-6978,-28906
2424,445565,0,0,0,161.807,86.001,78.3984,-9.77607,0.186621,-0.679492,-0.515198,-0.491455,-0.539917,0.448792,-31.225,3.33333,-26.9833,-6978,-28906
2430,445571,0,0,0,161.807,86.001,78.3984,-9.75693,0.186621,-0.655566,-0.515198,-0.491455,-0.539917,0.448792,-31.2417,3.325,-27.0083,-6978,-28906
2436,445577,0,0,0,161.807,86.001,78.3984,-9.8,0.215332,-0.679492,-0.515198,-0.491455,-0.539917,0.448792,-31.25,3.30833,-26.9917,-6978,-28906
2442,445583,0,0,0,161.807,86.001,78.3984,-9.77607,0.234473,-0.660352,-0.515198,-0.491455,-0.539917,0.448792,-31.25,3.3,-26.9917,-6978,-28906
2448,445589,0,0,0,161.807,86.001,78.3984,-9.8,0.234473,-0.645996,-0.515198,-0.491455,-0.539917,0.448792,-31.25,3.31667,-26.9917,-6978,-28906
2454,445595,0,0,0,161.807,86.001,78.3984,-9.78086,0.196191,-0.655566,-0.515198,-0.491455,-0.539917,0.448792,-31.2083,3.35833,-27.0667,-6978,-28906
2460,445601,0,0,0,161.807,86.001,78.3984,-9.78564,0.224902,-0.645996,-0.515198,-0.491455,-0.539917,0.448792,-31.2,3.375,-27.1333,-6978,-28906
2466,445607,0,0,0,161.807,86.001,78.3984,-9.78564,0.196191,-0.631641,-0.515198,-0.491455,-0.539917,0.448792,-31.2167,3.39167,-27.1583,-6978,-28906
2472,445613,0,0,0,161.807,86.001,78.3984,-9.79521,0.196191,-0.660352,-0.515198,-0.491455,-0.539917,0.448792,-31.2333,3.40833,-27.1583,-6978,-28906
2478,445619,0,0,0,161.807,86.001,78.3984,-9.78086,0.210547,-0.669922,-0.515198,-0.491455,-0.539917,0.448792,-31.2417,3.425,-27.175,-6978,-28906
2484,445625,0,0,0,161.812,86.001,78.3984,-9.77129,0.220117,-0.650781,-0.515198,-0.491455,-0.539917,0.448792,-31.2667,3.49167,-27.175,-6970,-28907
2490,445631,0,0,0,161.812,86.001,78.3984,-9.77129,0.220117,-0.650781,-0.515198,-0.491455,-0.539917,0.448792,-31.275,3.53333,-27.1833,-6970,-28907
2496,445637,0,0,0,161.812,86.001,78.3984,-9.78086,0.215332,-0.655566,-0.515198,-0.491455,-0.539917,0.448792,-31.2833,3.56667,-27.15,-6970,-28907
2502,445643,0,0,0,161.812,86.001,78.3984,-9.78086,0.234473,-0.626855,-0.515167,-0.491455,-0.539917,0.448792,-31.2917,3.59167,-27.1083,-6970,-28907
2508,445649,0,0,0,161.812,86.001,78.3984,-9.78086,0.220117,-0.660352,-0.515198,-0.491455,-0.539917,0.448792,-31.2917,3.61667,-27.1,-6970,-28907
2514,445655,0,0,0,161.807,86.001,78.3984,-9.8,0.234473,-0.641211,-0.515198,-0.491455,-0.539917,0.448792,-31.2833,3.63333,-27.075,-6970,-28907
2520,445661,0,0,0,161.807,86.001,78.3984,-9.80957,0.224902,-0.6125,-0.515198,-0.491455,-0.539917,0.448792,-31.2833,3.64167,-27.0583,-6970,-28907
2526,445667,0,0,0,161.807,86.001,78.3984,-9.78564,0.205762,-0.617285,-0.515198,-0.491455,-0.539917,0.448792,-31.275,3.65,-27.075,-6970,-28907
2532,445673,0,0,0,161.807,86.001,78.3984,-9.79521,0.191406,-0.636426,-0.515198,-0.491455,-0.539948,0.448792,-31.275,3.65,-27.0917,-6970,-28907
2538,445679,0,0,0,161.807,86.001,78.3984,-9.78086,0.200977,-0.650781,-0.515198,-0.491455,-0.539948,0.448761,-31.275,3.65833,-27.125,-6970,-28907
2544,445685,0,0,0,161.807,86.001,78.3984,-9.8,0.205762,-0.631641,-0.515198,-0.491425,-0.539948,0.448761,-31.25,3.675,-27.225,-6970,-28907
2550,445691,0,0,0,161.807,86.001,78.3984,-9.77607,0.186621,-0.645996,-0.515198,-0.491425,-0.539948,0.448761,-31.2583,3.7,-27.2667,-6970,-28907
2556,445697,0,0,0,161.801,86.001,78.3984,-9.77129,0.177051,-0.645996,-0.515198,-0.491425,-0.539948,0.448761,-31.2667,3.68333,-27.3,-6970,-28907
2562,445703,0,0,0,161.807,86.001,78.3984,-9.78086,0.16748,-0.684277,-0.515198,-0.491425,-0.539948,0.448761,-31.2833,3.65833,-27.3083,-6970,-28907
2568,445709,0,0,0,161.807,86.001,78.3984,-9.79521,0.205762,-0.655566,-0.515198,-0.491425,-0.539948,0.448761,-31.3333,3.575,-27.2417,-6970,-28907
2574,445715,0,0,0,161.807,86.001,78.3984,-9.79043,0.196191,-0.650781,-0.515198,-0.491455,-0.539948,0.448792,-31.3583,3.55833,-27.2167,-6970,-28907
2580,445721,0,0,0,161.807,86.001,78.3984,-9.79043,0.224902,-0.645996,-0.515198,-0.491455,-0.539917,0.448792,-31.3667,3.54167,-27.2167,-6970,-28907
2586,445727,0,0,0,161.807,86.001,78.3984,-9.80479,0.215332,-0.641211,-0.515198,-0.491455,-0.539917,0.448792,-31.35,3.53333,-27.2333,-6970,-28907
2592,445733,0,0,0,161.807,86.001,78.3984,-9.77129,0.239258,-0.645996,-0.515198,-0.491455,-0.539917,0.448792,-31.3333,3.50833,-27.2667,-6970,-28907
2598,445739,0,0,0,161.807,86.001,78.3984,-9.8,0.210547,-0.6125,-0.515198,-0.491455,-0.539917,0.448792,-31.3167,3.45833,-27.275,-6978,-28906
2604,445745,0,0,0,161.807,86.001,78.3984,-9.79521,0.229688,-0.669922,-0.515198,-0.491455,-0.539917,0.448792,-31.3167,3.43333,-27.2667,-6978,-28906
2610,445751,0,0,0,161.807,86.001,78.3984,-9.81436,0.239258,-0.641211,-0.515198,-0.491455,-0.539917,0.448792,-31.3083,3.425,-27.2583,-6970,-28907
2616,445757,0,0,0,161.807,86.001,78.3984,-9.79043,0.215332,-0.626855,-0.515198,-0.491455,-0.539917,0.448792,-31.3083,3.425,-27.2333,-6970,-28907
2622,445763,0,0,0,161.807,86.001,78.3984,-9.79043,0.224902,-0.679492,-0.515198,-0.491455,-0.539948,0.448792,-31.3,3.45,-27.2583,-6970,-28907
2628,445769,0,0,0,161.807,86.001,78.3984,-9.77607,0.224902,-0.617285,-0.515198,-0.491425,-0.539948,0.448761,-31.275,3.45,-27.2167,-6970,-28907
2634,445775,0,0,0,161.801,86.001,78.3984,-9.77129,0.205762,-0.665137,-0.515228,-0.491425,-0.539948,0.448761,-31.25,3.45,-27.2333,-6970,-28907
2640,445781,0,0,0,161.801,86.001,78.3984,-9.78086,0.205762,-0.660352,-0.515228,-0.491425,-0.539948,0.448761,-31.2333,3.45,-27.225,-6970,-28907
2646,445787,0,0,0,161.801,86.001,78.3984,-9.79521,0.186621,-0.655566,-0.515228,-0.491425,-0.539948,0.448761,-31.2333,3.425,-27.225,-6970,-28907
2652,445793,0,0,0,161.801,86.001,78.3984,-9.78564,0.205762,-0.626855,-0.515228,-0.491425,-0.539948,0.448761,-31.25,3.4,-27.2667,-6970,-28907
2658,445799,0,0,0,161.801,86.001,78.3984,-9.77129,0.210547,-0.669922,-0.515228,-0.491425,-0.539948,0.448761,-31.3083,3.39167,-27.35,-6970,-28907
2664,445805,0,0,0,161.801,86.001,78.3984,-9.79521,0.215332,-0.626855,-0.515228,-0.491425,-0.539948,0.448761,-31.325,3.4,-27.3667,-6970,-28907
2670,445811,0,0,0,161.801,86.001,78.3984,-9.78564,0.200977,-0.626855,-0.515228,-0.491425,-0.539948,0.448761,-31.3417,3.425,-27.3833,-6970,-28907
2676,445817,0,0,0,161.801,86.001,78.3984,-9.79521,0.215332,-0.645996,-0.515228,-0.491425,-0.539948,0.448761,-31.35,3.43333,-27.4083,-6970,-28907
2682,445823,0,0,0,161.801,86.001,78.3984,-9.79043,0.191406,-0.636426,-0.515228,-0.491425,-0.539948,0.448761,-31.3583,3.45,-27.4417,-6970,-28907
2688,445829,0,0,0,161.801,86.001,78.3984,-9.80957,0.220117,-0.645996,-0.515228,-0.491425,-0.539948,0.448761,-31.3333,3.39167,-27.4333,-6970,-28907
2694,445835,0,0,0,161.801,86.001,78.3984,-9.77129,0.224902,-0.641211,-0.515228,-0.491425,-0.539948,0.448761,-31.3333,3.39167,-27.425,-6970,-28907
2700,445841,0,0,0,161.801,86.001,78.3984,-9.80479,0.215332,-0.679492,-0.515228,-0.491425,-0.539948,0.448761,-31.3333,3.4,-27.4083,-6970,-28907
2706,445847,0,0,0,161.801,86.001,78.3984,-9.78086,0.215332,-0.650781,-0.515228,-0.491425,-0.539948,0.448761,-31.3333,3.43333,-27.4083,-6970,-28907
2712,445853,0,0,0,161.801,86.001,78.3984,-9.77129,0.186621,-0.665137,-0.515228,-0.491425,-0.539948,0.448761,-31.325,3.46667,-27.425,-6970,-28907
2718,445859,0,0,0,161.801,86.001,78.3984,-9.78086,0.248828,-0.641211,-0.515228,-0.491425,-0.539948,0.448761,-31.3167,3.48333,-27.35,-6970,-28907
2724,445865,0,0,0,161.801,86.001,78.3984,-9.77607,0.229688,-0.665137,-0.515228,-0.491425,-0.539948,0.448761,-31.3167,3.475,-27.2917,-6978,-28906
2730,445871,0,0,0,161.801,86.001,78.3984,-9.79043,0.234473,-0.650781,-0.515228,-0.491425,-0.539948,0.448761,-31.3167,3.46667,-27.2417,-6978,-28906
2736,445877,0,0,0,161.801,86.001,78.3984,-9.79521,0.229688,-0.660352,-0.515228,-0.491425,-0.539978,0.448761,-31.325,3.48333,-27.2,-6978,-28906
2742,445883,0,0,0,161.801,86.001,78.3984,-9.78086,0.229688,-0.631641,-0.515228,-0.491394,-0.539978,0.44873,-31.3417,3.50833,-27.2083,-6978,-28906
2748,445889,0,0,0,161.796,86.001,78.3984,-9.79043,0.239258,-0.645996,-0.515228,-0.491394,-0.539978,0.44873,-31.3833,3.55,-27.2167,-6978,-28906
2754,445895,0,0,0,161.796,86.001,78.3984,-9.80957,0.215332,-0.665137,-0.515259,-0.491394,-0.539978,0.44873,-31.4083,3.58333,-27.25,-6978,-28906
2760,445901,0,0,0,161.796,86.001,78.3984,-9.8,0.215332,-0.660352,-0.515259,-0.491394,-0.539978,0.44873,-31.4417,3.61667,-27.3,-6978,-28906
2766,445907,0,0,0,161.79,86.001,78.3984,-9.7665,0.210547,-0.641211,-0.515259,-0.491394,-0.539978,0.4487,-31.45,3.64167,-27.3667,-6978,-28906
2772,445913,0,0,0,161.79,86.001,78.3984,-9.77129,0.210547,-0.660352,-0.515259,-0.491364,-0.540009,0.4487,-31.475,3.65833,-27.4333,-6978,-28906
2778,445919,0,0,0,161.79,86.001,78.3984,-9.79043,0.205762,-0.679492,-0.515259,-0.491364,-0.540009,0.4487,-31.4917,3.65,-27.5167,-6978,-28906
2784,445925,0,0,0,161.79,86.001,78.3984,-9.8,0.200977,-0.674707,-0.515289,-0.491364,-0.540009,0.4487,-31.475,3.64167,-27.5,-6978,-28906
2790,445931,0,0,0,161.785,86.001,78.3984,-9.78564,0.196191,-0.660352,-0.515289,-0.491364,-0.540009,0.448669,-31.4417,3.64167,-27.5167,-6978,-28906
2796,445937,0,0,0,161.785,86.001,78.3984,-9.78086,0.177051,-0.660352,-0.515289,-0.491364,-0.540009,0.448669,-31.4,3.65,-27.5333,-6978,-28906
2802,445943,0,0,0,161.785,86.001,78.3984,-9.78564,0.205762,-0.631641,-0.515289,-0.491364,-0.540009,0.448669,-31.35,3.675,-27.55,-6978,-28906
2808,445949,0,0,0,161.785,86.001,78.3984,-9.79043,0.215332,-0.660352,-0.515289,-0.491364,-0.540009,0.448669,-31.3083,3.64167,-27.65,-6978,-28906
2814,445955,0,0,0,161.785,86.001,78.3984,-9.76172,0.229688,-0.62207,-0.515289,-0.491364,-0.540009,0.448669,-31.3,3.625,-27.6917,-6978,-28906
2820,445961,0,0,0,161.785,86.001,78.3984,-9.79521,0.210547,-0.660352,-0.515289,-0.491364,-0.540009,0.448669,-31.2833,3.6,-27.6917,-6978,-28906
2826,445967,0,0,0,161.785,86.001,78.3984,-9.79043,0.229688,-0.650781,-0.515289,-0.491364,-0.540009,0.448669,-31.2833,3.575,-27.6583,-6978,-28906
2832,445973,0,0,0,161.785,86.001,78.3984,-9.7665,0.210547,-0.62207,-0.515289,-0.491364,-0.540009,0.448669,-31.275,3.575,-27.6417,-6978,-28906
2838,445979,0,0,0,161.785,86.001,78.3984,-9.79043,0.220117,-0.631641,-0.515289,-0.491364,-0.540009,0.448669,-31.275,3.53333,-27.5333,-6978,-28906
2844,445985,0,0,0,161.785,86.001,78.3984,-9.77607,0.229688,-0.655566,-0.515289,-0.491364,-0.540039,0.448669,-31.2583,3.50833,-27.5,-6970,-28907
2850,445991,0,0,0,161.785,86.001,78.3984,-9.78086,0.220117,-0.674707,-0.515289,-0.491333,-0.540039,0.448669,-31.25,3.49167,-27.4667,-6970,-28907
2856,445997,0,0,0,161.785,86.001,78.3984,-9.79043,0.224902,-0.655566,-0.515289,-0.491333,-0.540039,0.448669,-31.2583,3.5,-27.4167,-6970,-28907
2862,446003,0,0,0,161.785,86.001,78.3984,-9.78086,0.215332,-0.665137,-0.515289,-0.491333,-0.540039,0.448669,-31.2667,3.50833,-27.4,-6970,-28907
2868,446009,0,0,0,161.779,86.001,78.3984,-9.79043,0.244043,-0.655566,-0.515289,-0.491333,-0.540039,0.448639,-31.2833,3.525,-27.4167,-6970,-28907
2874,446015,0,0,0,161.779,86.001,78.3984,-9.77607,0.215332,-0.674707,-0.51532,-0.491333,-0.540039,0.448639,-31.2917,3.53333,-27.4417,-6970,-28907
2880,446021,0,0,0,161.779,85.9955,78.3984,-9.78564,0.210547,-0.641211,-0.51532,-0.491333,-0.540039,0.448639,-31.2833,3.525,-27.4417,-6970,-28907
2886,446027,0,0,0,161.779,85.9955,78.3984,-9.75693,0.200977,-0.641211,-0.51532,-0.491333,-0.540039,0.448639,-31.2667,3.50833,-27.425,-6970,-28907
2892,446033,0,0,0,161.779,85.9955,78.3984,-9.78564,0.220117,-0.679492,-0.51532,-0.491333,-0.54007,0.448639,-31.2667,3.49167,-27.4167,-6970,-28907
2898,446039,0,0,0,161.779,85.9955,78.3984,-9.80957,0.220117,-0.655566,-0.51532,-0.491333,-0.54007,0.448639,-31.225,3.45,-27.4,-6970,-28907
2904,446045,0,0,0,161.774,85.9955,78.3984,-9.77607,0.229688,-0.607715,-0.51532,-0.491333,-0.54007,0.448608,-31.2167,3.44167,-27.4417,-6970,-28907
2910,446051,0,0,0,161.774,85.9955,78.3984,-9.78564,0.200977,-0.650781,-0.51532,-0.491333,-0.54007,0.448608,-31.2,3.43333,-27.45,-6970,-28907
2916,446057,0,0,0,161.774,85.9955,78.3984,-9.78564,0.215332,-0.641211,-0.51532,-0.491302,-0.54007,0.448608,-31.2,3.40833,-27.4917,-6970,-28907
2922,446063,0,0,0,161.774,85.9955,78.3984,-9.78564,0.205762,-0.665137,-0.51532,-0.491302,-0.54007,0.448608,-31.2083,3.40833,-27.5667,-6970,-28907
2928,446069,0,0,0,161.774,85.9955,78.3984,-9.79043,0.234473,-0.636426,-0.51532,-0.491302,-0.54007,0.448608,-31.175,3.35833,-27.6667,-6970,-28907
2934,446075,0,0,0,161.774,85.9955,78.3984,-9.79521,0.191406,-0.626855,-0.51535,-0.491302,-0.54007,0.448608,-31.1417,3.34167,-27.6583,-6970,-28907
2940,446081,0,0,0,161.774,85.9955,78.3984,-9.79043,0.200977,-0.641211,-0.51535,-0.491302,-0.54007,0.448608,-31.1167,3.3,-27.6417,-6970,-28907
2946,446087,0,0,0,161.774,85.9955,78.3984,-9.80479,0.248828,-0.617285,-0.51535,-0.491302,-0.54007,0.448578,-31.0917,3.28333,-27.6083,-6970,-28907
2952,446093,0,0,0,161.768,85.9955,78.3984,-9.78086,0.229688,-0.641211,-0.51535,-0.491302,-0.5401,0.448578,-31.0833,3.25,-27.5917,-6978,-28906
2958,446099,0,0,0,161.768,85.9955,78.3984,-9.7665,0.205762,-0.62207,-0.51535,-0.491302,-0.5401,0.448578,-31.1,3.20833,-27.5833,-6978,-28906
2964,446105,0,0,0,161.768,85.9955,78.3984,-9.79521,0.220117,-0.626855,-0.51535,-0.491272,-0.5401,0.448578,-31.1,3.225,-27.5583,-6978,-28906
2970,446111,0,0,0,161.768,85.9955,78.3984,-9.79521,0.205762,-0.660352,-0.51535,-0.491272,-0.5401,0.448578,-31.1083,3.23333,-27.5333,-6978,-28906
2976,446117,0,0,0,161.768,85.9955,78.3984,-9.8,0.200977,-0.660352,-0.51535,-0.491272,-0.5401,0.448578,-31.1083,3.25,-27.5,-6978,-28906
2982,446123,0,0,0,161.768,85.9955,78.3984,-9.79521,0.210547,-0.650781,-0.51535,-0.491272,-0.5401,0.448578,-31.1167,3.26667,-27.4583,-6978,-28906
2988,446129,0,0,0,161.763,85.9955,78.3984,-9.7665,0.205762,-0.660352,-0.515381,-0.491272,-0.5401,0.448547,-31.1417,3.31667,-27.3583,-6978,-28906
2994,446135,0,0,0,161.763,85.9955,78.3984,-9.77607,0.200977,-0.636426,-0.515381,-0.491272,-0.5401,0.448547,-31.1583,3.35,-27.375,-6978,-28906
3000,446141,0,0,0,161.763,85.9955,78.3984,-9.79043,0.220117,-0.650781,-0.515381,-0.491272,-0.5401,0.448547,-31.175,3.38333,-27.3667,-6978,-28906
3006,446147,0,0,0,161.763,85.9955,78.3984,-9.81436,0.205762,-0.655566,-0.515381,-0.491272,-0.5401,0.448547,-31.1833,3.4,-27.3583,-6978,-28906
3012,446153,0,0,0,161.763,85.9955,78.3984,-9.8,0.205762,-0.645996,-0.515381,-0.491272,-0.5401,0.448547,-31.1917,3.40833,-27.35,-6978,-28906
3018,446159,0,0,0,161.763,85.9955,78.3984,-9.8,0.220117,-0.650781,-0.515381,-0.491272,-0.5401,0.448547,-31.25,3.425,-27.2833,-6978,-28906
3024,446165,0,0,0,161.763,85.9955,78.3984,-9.8,0.220117,-0.641211,-0.515381,-0.491272,-0.5401,0.448547,-31.2917,3.45,-27.275,-6978,-28906
3030,446171,0,0,0,161.763,85.9955,78.3984,-9.8,0.215332,-0.645996,-0.515381,-0.491272,-0.540131,0.448547,-31.3167,3.475,-27.2833,-6978,-28906
3036,446177,0,0,0,161.763,85.9955,78.3984,-9.79521,0.210547,-0.645996,-0.515381,-0.491272,-0.540131,0.448547,-31.3167,3.45833,-27.2833,-6978,-28906
3042,446183,0,0,0,161.763,85.9955,78.3984,-9.78086,0.205762,-0.641211,-0.515381,-0.491272,-0.540131,0.448547,-31.3083,3.44167,-27.275,-6978,-28906
3048,446189,0,0,0,161.763,85.9955,78.3984,-9.77607,0.239258,-0.636426,-0.515381,-0.491272,-0.540131,0.448547,-31.275,3.4,-27.2917,-6978,-28906
3054,446195,0,0,0,161.763,85.9955,78.3984,-9.79043,0.229688,-0.631641,-0.515381,-0.491241,-0.540131,0.448547,-31.2667,3.35833,-27.2583,-6978,-28906
3060,446201,0,0,0,161.757,85.9955,78.3984,-9.78086,0.210547,-0.641211,-0.515381,-0.491241,-0.540131,0.448547,-31.2667,3.34167,-27.2417,-6978,-28906
3066,446207,0,0,0,161.757,85.9955,78.3984,-9.77607,0.196191,-0.631641,-0.515381,-0.491241,-0.540131,0.448517,-31.275,3.29167,-27.2417,-6978,-28906
3072,446213,0,0,0,161.757,85.9955,78.3984,-9.78086,0.229688,-0.655566,-0.515411,-0.491241,-0.540131,0.448517,-31.3,3.25833,-27.2833,-6978,-28906
3078,446219,0,0,0,161.757,85.9955,78.3984,-9.81436,0.205762,-0.62207,-0.515411,-0.491241,-0.540161,0.448517,-31.325,3.21667,-27.3917,-6978,-28906
3084,446225,0,0,0,161.757,85.9955,78.3984,-9.79521,0.210547,-0.655566,-0.515411,-0.491241,-0.540161,0.448517,-31.3417,3.225,-27.45,-6978,-28906
3090,446231,0,0,0,161.752,85.9955,78.3984,-9.76172,0.215332,-0.626855,-0.515411,-0.491211,-0.540161,0.448517,-31.3417,3.25,-27.475,-6978,-28906
3096,446237,0,0,0,161.752,85.9955,78.3984,-9.77607,0.220117,-0.636426,-0.515411,-0.491211,-0.540161,0.448517,-31.325,3.25,-27.4417,-6978,-28906
3102,446243,0,0,0,161.752,85.9955,78.3984,-9.78086,0.210547,-0.660352,-0.515411,-0.491211,-0.540161,0.448486,-31.3167,3.23333,-27.375,-6978,-28906
3108,446249,0,0,0,161.752,85.9955,78.3984,-9.7665,0.215332,-0.631641,-0.515442,-0.491211,-0.540161,0.448486,-31.3167,3.20833,-27.25,-6978,-28906
3114,446255,0,0,0,161.752,85.9955,78.3984,-9.77129,0.205762,-0.655566,-0.515442,-0.491211,-0.540161,0.448486,-31.3333,3.20833,-27.225,-6978,-28906
3120,446261,0,0,0,161.746,85.9955,78.3984,-9.77129,0.177051,-0.655566,-0.515442,-0.491211,-0.540161,0.448486,-31.3417,3.225,-27.2167,-6978,-28906
3126,446267,0,0,0,161.746,85.9955,78.3984,-9.77129,0.224902,-0.650781,-0.515442,-0.491211,-0.540161,0.448486,-31.3417,3.225,-27.225,-6978,-28906
3132,446273,0,0,0,161.746,85.9955,78.3984,-9.79521,0.205762,-0.655566,-0.515442,-0.49118,-0.540192,0.448486,-31.325,3.24167,-27.2333,-6978,-28906
3138,446279,0,0,0,161.746,85.9955,78.3984,-9.79043,0.229688,-0.62207,-0.515442,-0.49118,-0.540192,0.448486,-31.3167,3.23333,-27.2167,-6978,-28906
3144,446285,0,0,0,161.746,85.9955,78.3984,-9.78564,0.210547,-0.645996,-0.515442,-0.49118,-0.540192,0.448486,-31.325,3.25,-27.2083,-6978,-28906
3150,446291,0,0,0,161.746,85.9955,78.3984,-9.79043,0.234473,-0.665137,-0.515442,-0.49118,-0.540192,0.448486,-31.35,3.25833,-27.1917,-6978,-28906
3156,446297,0,0,0,161.746,85.9955,78.3984,-9.79521,0.220117,-0.650781,-0.515442,-0.49118,-0.540192,0.448456,-31.3667,3.26667,-27.2,-6978,-28906
3162,446303,0,0,0,161.741,85.9955,78.3984,-9.8,0.215332,-0.645996,-0.515472,-0.49118,-0.540192,0.448456,-31.3917,3.3,-27.1917,-6978,-28906
3168,446309,0,0,0,161.741,85.9955,78.3984,-9.8,0.215332,-0.655566,-0.515472,-0.49118,-0.540192,0.448456,-31.4,3.325,-27.225,-6978,-28906
3174,446315,0,0,0,161.741,85.9955,78.3984,-9.78564,0.200977,-0.650781,-0.515472,-0.49115,-0.540192,0.448456,-31.4,3.35,-27.25,-6978,-28906
3180,446321,0,0,0,161.741,85.9955,78.3984,-9.78086,0.220117,-0.645996,-0.515472,-0.49115,-0.540192,0.448456,-31.3833,3.35833,-27.2667,-6978,-28906
3186,446327,0,0,0,161.741,85.9955,78.3984,-9.78086,0.200977,-0.645996,-0.515472,-0.49115,-0.540222,0.448456,-31.3583,3.375,-27.2917,-6978,-28906
3192,446333,0,0,0,161.735,85.9955,78.3984,-9.77129,0.239258,-0.665137,-0.515472,-0.49115,-0.540222,0.448425,-31.3417,3.35833,-27.2917,-6978,-28906
3198,446339,0,0,0,161.735,85.9955,78.3984,-9.79043,0.229688,-0.669922,-0.515503,-0.49115,-0.540222,0.448425,-31.3,3.31667,-27.2667,-6970,-28907
3204,446345,0,0,0,161.735,85.9955,78.3984,-9.78564,0.224902,-0.655566,-0.515503,-0.49115,-0.540222,0.448425,-31.3,3.3,-27.2333,-6970,-28907
3210,446351,0,0,0,161.735,85.9955,78.3984,-9.81436,0.220117,-0.674707,-0.515503,-0.49115,-0.540222,0.448425,-31.2917,3.3,-27.2,-6970,-28907
3216,446357,0,0,0,161.735,85.9955,78.3984,-9.80479,0.200977,-0.645996,-0.515503,-0.491119,-0.540222,0.448425,-31.275,3.325,-27.1583,-6970,-28907
3222,446363,0,0,0,161.73,85.9955,78.3984,-9.78564,0.205762,-0.650781,-0.515503,-0.491119,-0.540222,0.448425,-31.25,3.36667,-27.1333,-6970,-28907
3228,446369,0,0,0,161.73,85.9955,78.3984,-9.7665,0.215332,-0.62207,-0.515503,-0.491119,-0.540253,0.448395,-31.2083,3.45833,-27.1333,-6970,-28907
3234,446375,0,0,0,161.73,85.9955,78.3984,-9.78086,0.210547,-0.665137,-0.515503,-0.491119,-0.540253,0.448395,-31.2083,3.49167,-27.1583,-6970,-28907
3240,446381,0,0,0,161.73,85.9955,78.3984,-9.80479,0.205762,-0.660352,-0.515503,-0.491119,-0.540253,0.448395,-31.2083,3.5,-27.1833,-6970,-28907
3246,446387,0,0,0,161.73,85.9955,78.3984,-9.77129,0.239258,-0.631641,-0.515503,-0.491119,-0.540253,0.448395,-31.2083,3.51667,-27.2083,-6970,-28907
3252,446393,0,0,0,161.73,85.9955,78.3984,-9.7665,0.16748,-0.641211,-0.515533,-0.491119,-0.540253,0.448395,-31.2333,3.55833,-27.2417,-6970,-28907
3258,446399,0,0,0,161.73,85.9955,78.3984,-9.8,0.224902,-0.655566,-0.515533,-0.491119,-0.540253,0.448395,-31.2667,3.60833,-27.275,-6970,-28907
3264,446405,0,0,0,161.73,85.9955,78.3984,-9.77607,0.215332,-0.655566,-0.515533,-0.491119,-0.540253,0.448395,-31.3083,3.64167,-27.275,-6970,-28907
3270,446411,0,0,0,161.73,85.9955,78.3984,-9.78086,0.224902,-0.665137,-0.515533,-0.491119,-0.540253,0.448395,-31.3417,3.65833,-27.3083,-6970,-28907
3276,446417,0,0,0,161.73,85.9955,78.3984,-9.77607,0.210547,-0.650781,-0.515533,-0.491119,-0.540253,0.448395,-31.375,3.68333,-27.3,-6970,-28907
3282,446423,0,0,0,161.73,85.9955,78.3984,-9.78086,0.215332,-0.626855,-0.515533,-0.491119,-0.540253,0.448395,-31.4083,3.70833,-27.3083,-6970,-28907
3288,446429,0,0,0,161.73,85.9955,78.3984,-9.78564,0.210547,-0.645996,-0.515533,-0.491119,-0.540253,0.448395,-31.4,3.73333,-27.35,-6970,-28907
3294,446435,0,0,0,161.73,85.9955,78.3984,-9.80957,0.229688,-0.645996,-0.515533,-0.491119,-0.540253,0.448395,-31.4,3.76667,-27.3833,-6970,-28907
3300,446441,0,0,0,161.724,85.9955,78.3984,-9.79043,0.210547,-0.641211,-0.515533,-0.491089,-0.540253,0.448395,-31.3833,3.79167,-27.4167,-6970,-28907
3306,446447,0,0,0,161.724,85.9955,78.3984,-9.78564,0.191406,-0.669922,-0.515533,-0.491089,-0.540253,0.448364,-31.3833,3.79167,-27.4417,-6970,-28907
3312,446453,0,0,0,161.724,85.9955,78.3984,-9.79043,0.205762,-0.645996,-0.515533,-0.491089,-0.540253,0.448364,-31.3917,3.81667,-27.5,-6970,-28907
3318,446459,0,0,0,161.724,85.9955,78.3984,-9.78564,0.200977,-0.645996,-0.515533,-0.491089,-0.540253,0.448364,-31.4,3.80833,-27.5417,-6978,-28906
3324,446465,0,0,0,161.724,85.9955,78.3984,-9.77607,0.205762,-0.645996,-0.515533,-0.491089,-0.540253,0.448364,-31.4083,3.79167,-27.55,-6978,-28906
3330,446471,0,0,0,161.724,85.9955,78.3984,-9.78564,0.191406,-0.655566,-0.515533,-0.491119,-0.540253,0.448364,-31.4167,3.76667,-27.55,-6978,-28906
3336,446477,0,0,0,161.73,85.9955,78.3984,-9.79521,0.215332,-0.655566,-0.515533,-0.491119,-0.540253,0.448395,-31.425,3.775,-27.5917,-6978,-28906
3342,446483,0,0,0,161.73,85.9955,78.3984,-9.75693,0.210547,-0.636426,-0.515533,-0.491119,-0.540253,0.448395,-31.4,3.8,-27.6417,-6978,-28906
3348,446489,0,0,0,161.73,85.9955,78.3984,-9.77607,0.210547,-0.645996,-0.515533,-0.491119,-0.540253,0.448395,-31.3833,3.825,-27.675,-6978,-28906
3354,446495,0,0,0,161.73,85.9955,78.3984,-9.79521,0.215332,-0.645996,-0.515503,-0.491119,-0.540253,0.448395,-31.375,3.84167,-27.7167,-6978,-28906
3360,446501,0,0,0,161.73,85.9955,78.3984,-9.79043,0.205762,-0.645996,-0.515503,-0.491119,-0.540253,0.448395,-31.3667,3.84167,-27.725,-6978,-28906
3366,446507,0,0,0,161.73,85.9955,78.3984,-9.77607,0.205762,-0.641211,-0.515503,-0.491119,-0.540253,0.448395,-31.35,3.83333,-27.7417,-6978,-28906
3372,446513,0,0,0,161.73,85.9955,78.3984,-9.77607,0.215332,-0.631641,-0.515503,-0.491119,-0.540253,0.448395,-31.3167,3.80833,-27.7083,-6978,-28906
3378,446519,0,0,0,161.73,85.9955,78.3984,-9.78086,0.210547,-0.636426,-0.515503,-0.491119,-0.540253,0.448395,-31.2917,3.80833,-27.6833,-6978,-28906
3384,446525,0,0,0,161.73,85.9955,78.3984,-9.79521,0.196191,-0.645996,-0.515503,-0.491119,-0.540253,0.448395,-31.275,3.8,-27.6333,-6978,-28906
3390,446531,0,0,0,161.735,85.9955,78.3984,-9.78086,0.200977,-0.60293,-0.515503,-0.491119,-0.540253,0.448395,-31.2583,3.80833,-27.5917,-6978,-28906
3396,446537,0,0,0,161.735,85.9955,78.3984,-9.78086,0.215332,-0.641211,-0.515503,-0.49115,-0.540222,0.448395,-31.25,3.825,-27.6,-6978,-28906
3402,446543,0,0,0,161.735,85.9955,78.3984,-9.78086,0.200977,-0.660352,-0.515503,-0.49115,-0.540222,0.448395,-31.2583,3.83333,-27.5917,-6978,-28906
3408,446549,0,0,0,161.735,85.9955,78.3984,-9.7665,0.215332,-0.655566,-0.515503,-0.49115,-0.540222,0.448425,-31.2667,3.825,-27.575,-6978,-28906
3414,446555,0,0,0,161.735,85.9955,78.3984,-9.78564,0.229688,-0.669922,-0.515503,-0.49115,-0.540222,0.448425,-31.2917,3.81667,-27.5667,-6978,-28906
3420,446561,0,0,0,161.735,85.9955,78.3984,-9.7665,0.220117,-0.62207,-0.515503,-0.49115,-0.540222,0.448425,-31.3083,3.8,-27.5083,-6970,-28907
3426,446567,0,0,0,161.735,85.9955,78.3984,-9.78086,0.196191,-0.645996,-0.515503,-0.49115,-0.540222,0.448425,-31.325,3.79167,-27.4667,-6970,-28907
3432,446573,0,0,0,161.735,85.9955,78.3984,-9.77607,0.196191,-0.655566,-0.515503,-0.49115,-0.540222,0.448425,-31.3083,3.76667,-27.3917,-6970,-28907
3438,446579,0,0,0,161.735,85.9955,78.3984,-9.78564,0.200977,-0.655566,-0.515472,-0.49115,-0.540222,0.448425,-31.275,3.73333,-27.3583,-6970,-28907
3444,446585,0,0,0,161.735,85.9955,78.3984,-9.77607,0.220117,-0.626855,-0.515472,-0.49115,-0.540222,0.448425,-31.2417,3.7,-27.325,-6970,-28907
3450,446591,0,0,0,161.735,85.9955,78.3984,-9.79043,0.200977,-0.679492,-0.515472,-0.49115,-0.540222,0.448425,-31.225,3.65,-27.2833,-6970,-28907
3456,446597,0,0,0,161.735,85.9955,78.3984,-9.79043,0.200977,-0.626855,-0.515472,-0.49115,-0.540222,0.448425,-31.2,3.60833,-27.3,-6970,-28907
3462,446603,0,0,0,161.741,85.9955,78.3984,-9.78086,0.200977,-0.655566,-0.515472,-0.49115,-0.540222,0.448425,-31.1917,3.525,-27.35,-6970,-28907
3468,446609,0,0,0,161.741,85.9955,78.3984,-9.80479,0.205762,-0.62207,-0.515472,-0.49115,-0.540222,0.448425,-31.2,3.51667,-27.375,-6970,-28907
3474,446615,0,0,0,161.741,85.9955,78.3984,-9.7665,0.234473,-0.636426,-0.515472,-0.49118,-0.540222,0.448425,-31.2167,3.50833,-27.3667,-6970,-28907
3480,446621,0,0,0,161.741,85.9955,78.3984,-9.79043,0.205762,-0.665137,-0.515472,-0.49118,-0.540222,0.448456,-31.2083,3.50833,-27.3583,-6970,-28907
3486,446627,0,0,0,161.741,85.9955,78.3984,-9.78564,0.224902,-0.660352,-0.515472,-0.49118,-0.540192,0.448456,-31.225,3.50833,-27.3333,-6970,-28907
3492,446633,0,0,0,161.741,85.9955,78.3984,-9.79043,0.196191,-0.631641,-0.515472,-0.49118,-0.540192,0.448456,-31.2083,3.51667,-27.3583,-6970,-28907
3498,446639,0,0,0,161.741,85.9955,78.3984,-9.79043,0.220117,-0.626855,-0.515472,-0.49118,-0.540192,0.448456,-31.2083,3.55833,-27.3833,-6970,-28907
3504,446645,0,0,0,161.741,85.9955,78.3984,-9.77607,0.200977,-0.645996,-0.515472,-0.49118,-0.540192,0.448456,-31.2083,3.59167,-27.45,-6970,-28907
3510,446651,0,0,0,161.746,85.9955,78.3984,-9.79043,0.210547,-0.641211,-0.515442,-0.49118,-0.540192,0.448456,-31.2,3.625,-27.525,-6970,-28907
3516,446657,0,0,0,161.746,85.9955,78.3984,-9.79043,0.220117,-0.665137,-0.515442,-0.49118,-0.540192,0.448456,-31.2083,3.66667,-27.5833,-6970,-28907
3522,446663,0,0,0,161.746,85.9955,78.3984,-9.79043,0.220117,-0.645996,-0.515442,-0.49118,-0.540192,0.448456,-31.2167,3.7,-27.6083,-6970,-28907
3528,446669,0,0,0,161.746,85.9955,78.3984,-9.80479,0.215332,-0.650781,-0.515442,-0.49118,-0.540192,0.448456,-31.2083,3.71667,-27.5917,-6970,-28907
3534,446675,0,0,0,161.746,85.9955,78.3984,-9.75693,0.205762,-0.655566,-0.515442,-0.49118,-0.540192,0.448456,-31.1833,3.725,-27.5417,-6978,-28906
3540,446681,0,0,0,161.746,85.9955,78.3984,-9.7665,0.210547,-0.669922,-0.515442,-0.49118,-0.540192,0.448456,-31.175,3.74167,-27.525,-6978,-28906
3546,446687,0,0,0,161.746,85.9955,78.3984,-9.77129,0.239258,-0.665137,-0.515442,-0.49118,-0.540192,0.448456,-31.15,3.75833,-27.5083,-6978,-28906
3552,446693,0,0,0,161.746,85.9955,78.3984,-9.79521,0.210547,-0.636426,-0.515442,-0.49118,-0.540192,0.448456,-31.1,3.75,-27.475,-6970,-28907
3558,446699,0,0,0,161.746,85.9955,78.3984,-9.79043,0.224902,-0.645996,-0.515442,-0.49118,-0.540192,0.448456,-31.0917,3.725,-27.45,-6970,-28907
3564,446705,0,0,0,161.746,85.9955,78.3984,-9.79043,0.224902,-0.645996,-0.515442,-0.49118,-0.540192,0.448456,-31.0833,3.71667,-27.4333,-6970,-28907
3570,446711,0,0,0,161.746,85.9955,78.3984,-9.7665,0.224902,-0.674707,-0.515442,-0.49118,-0.540192,0.448456,-31.0917,3.70833,-27.4,-6970,-28907
3576,446717,0,0,0,161.746,85.9955,78.3984,-9.80957,0.220117,-0.645996,-0.515442,-0.49118,-0.540192,0.448456,-31.1,3.71667,-27.4,-6970,-28907
3582,446723,0,0,0,161.746,85.9955,78.3984,-9.77129,0.205762,-0.665137,-0.515442,-0.49118,-0.540192,0.448456,-31.1167,3.71667,-27.4083,-6970,-28907
3588,446729,0,0,0,161.746,85.9955,78.3984,-9.78564,0.220117,-0.626855,-0.515442,-0.49118,-0.540192,0.448456,-31.1083,3.70833,-27.4417,-6970,-28907
3594,446735,0,0,0,161.741,85.9955,78.3984,-9.79043,0.205762,-0.641211,-0.515442,-0.49118,-0.540192,0.448456,-31.1,3.70833,-27.4833,-6970,-28907
3600,446741,0,0,0,161.741,85.9955,78.3984,-9.78086,0.205762,-0.641211,-0.515442,-0.49118,-0.540192,0.448456,-31.1083,3.725,-27.525,-6970,-28907
3606,446747,0,0,0,161.741,85.9955,78.3984,-9.78086,0.234473,-0.650781,-0.515442,-0.49118,-0.540192,0.448456,-31.1083,3.74167,-27.575,-6970,-28907
3612,446753,0,0,0,161.741,85.9955,78.3984,-9.78564,0.210547,-0.626855,-0.515442,-0.49118,-0.540192,0.448456,-31.125,3.775,-27.6417,-6970,-28907
3618,446759,0,0,0,161.741,85.9955,78.3984,-9.77607,0.220117,-0.631641,-0.515472,-0.49118,-0.540192,0.448456,-31.125,3.8,-27.6667,-6970,-28907
3624,446765,0,0,0,161.741,85.9955,78.3984,-9.78086,0.224902,-0.645996,-0.515472,-0.49118,-0.540192,0.448456,-31.1333,3.8,-27.675,-6970,-28907
3630,446771,0,0,0,161.741,85.9955,78.3984,-9.78564,0.196191,-0.669922,-0.515472,-0.49118,-0.540192,0.448456,-31.1333,3.80833,-27.675,-6970,-28907
3636,446777,0,0,0,161.741,85.9955,78.3984,-9.79043,0.205762,-0.631641,-0.515472,-0.49118,-0.540222,0.448456,-31.1333,3.8,-27.6833,-6970,-28907
3642,446783,0,0,0,161.741,85.9955,78.3984,-9.77607,0.215332,-0.650781,-0.515472,-0.49118,-0.540222,0.448425,-31.1417,3.78333,-27.6833,-6970,-28907
3648,446789,0,0,0,161.741,85.9955,78.3984,-9.78564,0.234473,-0.669922,-0.515472,-0.49118,-0.540222,0.448425,-31.1333,3.775,-27.6833,-6970,-28907
3654,446795,0,0,0,161.741,85.9955,78.3984,-9.76172,0.229688,-0.655566,-0.515472,-0.49118,-0.540222,0.448425,-31.1417,3.75833,-27.6583,-6970,-28907
3660,446801,0,0,0,161.741,85.9955,78.3984,-9.78564,0.205762,-0.665137,-0.515472,-0.49118,-0.540222,0.448425,-31.1667,3.725,-27.6167,-6970,-28907
3666,446807,0,0,0,161.741,85.9955,78.3984,-9.77607,0.205762,-0.641211,-0.515472,-0.49118,-0.540222,0.448425,-31.175,3.69167,-27.5917,-6970,-28907
3672,446813,0,0,0,161.741,85.9955,78.3984,-9.78564,0.181836,-0.660352,-0.515472,-0.49118,-0.540222,0.448425,-31.175,3.63333,-27.5,-6970,-28907
3678,446819,0,0,0,161.741,85.9955,78.3984,-9.79043,0.215332,-0.645996,-0.515472,-0.49118,-0.540222,0.448425,-31.1833,3.625,-27.4583,-6970,-28907
3684,446825,0,0,0,161.741,85.9955,78.3984,-9.79043,0.210547,-0.631641,-0.515472,-0.49118,-0.540222,0.448425,-31.1917,3.63333,-27.4333,-6970,-28907
3690,446831,0,0,0,161.741,85.9955,78.3984,-9.78086,0.220117,-0.650781,-0.515472,-0.49118,-0.540222,0.448425,-31.2167,3.625,-27.3833,-6970,-28907
3696,446837,0,0,0,161.741,85.9955,78.3984,-9.77607,0.229688,-0.660352,-0.515472,-0.49118,-0.540222,0.448425,-31.2417,3.63333,-27.3583,-6970,-28907
3702,446843,0,0,0,161.741,85.9955,78.3984,-9.79043,0.215332,-0.631641,-0.515472,-0.49118,-0.540222,0.448425,-31.2667,3.66667,-27.35,-6970,-28907
3708,446849,0,0,0,161.741,85.9955,78.3984,-9.8,0.224902,-0.645996,-0.515472,-0.49118,-0.540222,0.448425,-31.2583,3.7,-27.3667,-6970,-28907
3714,446855,0,0,0,161.741,85.9955,78.3984,-9.78564,0.196191,-0.641211,-0.515472,-0.49118,-0.540222,0.448425,-31.2583,3.73333,-27.4083,-6970,-28907
3720,446861,0,0,0,161.741,85.9955,78.3984,-9.80479,0.234473,-0.631641,-0.515472,-0.49118,-0.540222,0.448425,-31.25,3.75,-27.4333,-6970,-28907
3726,446867,0,0,0,161.735,85.9955,78.3984,-9.78564,0.215332,-0.660352,-0.515472,-0.49115,-0.540222,0.448425,-31.25,3.75833,-27.4417,-6970,-28907
3732,446873,0,0,0,161.735,85.9955,78.3984,-9.79521,0.220117,-0.60293,-0.515472,-0.49115,-0.540222,0.448425,-31.225,3.775,-27.4333,-6970,-28907
3738,446879,0,0,0,161.735,85.9955,78.3984,-9.80957,0.210547,-0.660352,-0.515472,-0.49115,-0.540222,0.448425,-31.2,3.775,-27.3917,-6970,-28907
3744,446885,0,0,0,161.735,85.9955,78.3984,-9.80479,0.215332,-0.626855,-0.515472,-0.49115,-0.540222,0.448425,-31.175,3.76667,-27.375,-6970,-28907
3750,446891,0,0,0,161.735,85.9955,78.3984,-9.77129,0.215332,-0.645996,-0.515503,-0.49115,-0.540222,0.448395,-31.1417,3.74167,-27.375,-6970,-28907
3756,446897,0,0,0,161.735,85.9955,78.3984,-9.79521,0.210547,-0.655566,-0.515503,-0.49115,-0.540222,0.448395,-31.125,3.71667,-27.3917,-6970,-28907
3762,446903,0,0,0,161.73,85.9955,78.3984,-9.79043,0.200977,-0.645996,-0.515503,-0.49115,-0.540253,0.448395,-31.1333,3.69167,-27.5,-6970,-28907
3768,446909,0,0,0,161.73,85.9955,78.3984,-9.79521,0.229688,-0.665137,-0.515503,-0.491119,-0.540253,0.448395,-31.1333,3.70833,-27.5417,-6978,-28906
3774,446915,0,0,0,161.73,85.9955,78.3984,-9.78564,0.191406,-0.665137,-0.515503,-0.491119,-0.540253,0.448395,-31.1417,3.725,-27.5833,-6978,-28906
3780,446921,0,0,0,161.73,85.9955,78.3984,-9.78086,0.191406,-0.641211,-0.515503,-0.491119,-0.540253,0.448395,-31.15,3.74167,-27.6167,-6978,-28906
3786,446927,0,0,0,161.73,85.9955,78.3984,-9.79043,0.220117,-0.631641,-0.515503,-0.491119,-0.540253,0.448395,-31.1667,3.74167,-27.5917,-6978,-28906
3792,446933,0,0,0,161.73,85.9955,78.3984,-9.78086,0.224902,-0.607715,-0.515503,-0.491119,-0.540253,0.448395,-31.1917,3.69167,-27.4417,-6978,-28906
3798,446939,0,0,0,161.73,85.9955,78.3984,-9.79043,0.205762,-0.641211,-0.515503,-0.491119,-0.540253,0.448395,-31.2,3.65833,-27.325,-6978,-28906
3804,446945,0,0,0,161.73,85.9955,78.3984,-9.80479,0.220117,-0.665137,-0.515503,-0.491119,-0.540253,0.448395,-31.1917,3.64167,-27.25,-6978,-28906
3810,446951,0,0,0,161.73,85.9955,78.3984,-9.77607,0.200977,-0.660352,-0.515503,-0.491119,-0.540253,0.448395,-31.1917,3.625,-27.2,-6978,-28906
3816,446957,0,0,0,161.73,85.9955,78.3984,-9.79043,0.196191,-0.631641,-0.515503,-0.491119,-0.540253,0.448395,-31.1917,3.60833,-27.175,-6978,-28906
3822,446963,0,0,0,161.73,85.9955,78.3984,-9.78564,0.224902,-0.641211,-0.515503,-0.491119,-0.540253,0.448395,-31.2,3.59167,-27.2333,-6978,-28906
3828,446969,0,0,0,161.73,85.9955,78.3984,-9.78564,0.210547,-0.650781,-0.515503,-0.491119,-0.540253,0.448395,-31.2083,3.6,-27.2833,-6978,-28906
3834,446975,0,0,0,161.73,85.9955,78.3984,-9.79043,0.244043,-0.645996,-0.515533,-0.491119,-0.540253,0.448395,-31.2333,3.59167,-27.325,-6978,-28906
3840,446981,0,0,0,161.73,85.9955,78.3984,-9.79521,0.229688,-0.650781,-0.515533,-0.491119,-0.540253,0.448395,-31.2667,3.60833,-27.35,-6978,-28906
3846,446987,0,0,0,161.724,85.9955,78.3984,-9.78086,0.200977,-0.669922,-0.515533,-0.491119,-0.540253,0.448364,-31.2833,3.61667,-27.3667,-6978,-28906
3852,446993,0,0,0,161.724,85.9955,78.3984,-9.79043,0.215332,-0.660352,-0.515533,-0.491119,-0.540253,0.448364,-31.2917,3.68333,-27.3833,-6978,-28906
3858,446999,0,0,0,161.724,85.9955,78.3984,-9.79521,0.210547,-0.631641,-0.515533,-0.491119,-0.540253,0.448364,-31.2833,3.7,-27.3667,-6978,-28906
3864,447005,0,0,0,161.724,85.9955,78.3984,-9.8,0.215332,-0.641211,-0.515533,-0.491089,-0.540253,0.448364,-31.2917,3.69167,-27.325,-6978,-28906
3870,447011,0,0,0,161.724,85.9955,78.3984,-9.77607,0.186621,-0.665137,-0.515533,-0.491089,-0.540253,0.448364,-31.3083,3.68333,-27.2917,-6978,-28906
3876,447017,0,0,0,161.724,85.9955,78.3984,-9.80479,0.200977,-0.631641,-0.515533,-0.491089,-0.540253,0.448364,-31.3167,3.675,-27.2917,-6978,-28906
3882,447023,0,0,0,161.724,85.9955,78.3984,-9.80957,0.210547,-0.650781,-0.515533,-0.491089,-0.540253,0.448364,-31.3167,3.68333,-27.3583,-6978,-28906
3888,447029,0,0,0,161.724,85.9955,78.3984,-9.79521,0.196191,-0.660352,-0.515533,-0.491119,-0.540253,0.448364,-31.2833,3.68333,-27.4083,-6970,-28907
3894,447035,0,0,0,161.724,85.9955,78.3984,-9.78086,0.215332,-0.641211,-0.515533,-0.491119,-0.540253,0.448364,-31.25,3.675,-27.4167,-6970,-28907
3900,447041,0,0,0,161.724,85.9955,78.3984,-9.77607,0.215332,-0.631641,-0.515533,-0.491119,-0.540253,0.448364,-31.2167,3.65833,-27.3917,-6970,-28907
3906,447047,0,0,0,161.73,85.9955,78.3984,-9.78086,0.220117,-0.626855,-0.515533,-0.491119,-0.540253,0.448364,-31.1833,3.66667,-27.3583,-6978,-28906
3912,447053,0,0,0,161.73,85.9955,78.3984,-9.78564,0.210547,-0.650781,-0.515533,-0.491119,-0.540253,0.448364,-31.1583,3.69167,-27.2833,-6978,-28906
3918,447059,0,0,0,161.73,85.9955,78.3984,-9.78564,0.196191,-0.655566,-0.515533,-0.491119,-0.540253,0.448364,-31.1583,3.70833,-27.2917,-6978,-28906
3924,447065,0,0,0,161.73,85.9955,78.3984,-9.79521,0.215332,-0.645996,-0.515533,-0.491119,-0.540253,0.448364,-31.175,3.73333,-27.3,-6978,-28906
3930,447071,0,0,0,161.73,85.9955,78.3984,-9.78564,0.210547,-0.660352,-0.515533,-0.491119,-0.540253,0.448364,-31.1833,3.74167,-27.325,-6978,-28906
3936,447077,0,0,0,161.73,85.9955,78.3984,-9.79043,0.205762,-0.62207,-0.515533,-0.491119,-0.540253,0.448395,-31.1917,3.75833,-27.3667,-6978,-28906
3942,447083,0,0,0,161.73,85.9955,78.3984,-9.80479,0.215332,-0.665137,-0.515533,-0.491119,-0.540253,0.448395,-31.2,3.79167,-27.3167,-6978,-28906
3948,447089,0,0,0,161.73,85.9955,78.3984,-9.78564,0.200977,-0.655566,-0.515533,-0.491119,-0.540253,0.448395,-31.2,3.8,-27.3,-6978,-28906
3954,447095,0,0,0,161.73,85.9955,78.3984,-9.79043,0.205762,-0.636426,-0.515533,-0.491119,-0.540253,0.448395,-31.2083,3.81667,-27.2917,-6978,-28906
3960,447101,0,0,0,161.73,85.9955,78.3984,-9.8,0.215332,-0.650781,-0.515533,-0.491119,-0.540253,0.448395,-31.2,3.81667,-27.275,-6978,-28906
3966,447107,0,0,0,161.73,85.9955,78.3984,-9.74736,0.215332,-0.655566,-0.515503,-0.491119,-0.540253,0.448395,-31.2,3.81667,-27.2917,-6978,-28906
3972,447113,0,0,0,161.73,85.9955,78.3984,-9.78086,0.210547,-0.650781,-0.515503,-0.491119,-0.540253,0.448395,-31.2167,3.775,-27.325,-6978,-28906
3978,447119,0,0,0,161.73,85.9955,78.3984,-9.79043,0.186621,-0.650781,-0.515503,-0.491119,-0.540253,0.448395,-31.2167,3.74167,-27.3167,-6978,-28906
3984,447125,0,0,0,161.73,85.9955,78.3984,-9.77129,0.229688,-0.641211,-0.515503,-0.491119,-0.540253,0.448395,-31.2083,3.73333,-27.325,-6978,-28906
3990,447131,0,0,0,161.73,85.9955,78.3984,-9.78564,0.215332,-0.650781,-0.515503,-0.491119,-0.540253,0.448395,-31.2083,3.725,-27.3333,-6978,-28906
3996,447137,0,0,0,161.73,85.9955,78.3984,-9.79521,0.220117,-0.641211,-0.515503,-0.491119,-0.540253,0.448395,-31.175,3.74167,-27.3583,-6978,-28906
4002,447143,0,0,0,161.73,85.9955,78.3984,-9.79043,0.200977,-0.636426,-0.515503,-0.491119,-0.540253,0.448395,-31.15,3.74167,-27.3583,-6970,-28907
4008,447149,0,0,0,161.73,85.9955,78.3984,-9.81436,0.224902,-0.641211,-0.515503,-0.491119,-0.540253,0.448395,-31.1417,3.75833,-27.3833,-6970,-28907
4014,447155,0,0,0,161.73,85.9955,78.3984,-9.79043,0.210547,-0.665137,-0.515503,-0.491119,-0.540253,0.448395,-31.1333,3.78333,-27.3833,-6970,-28907
4020,447161,0,0,0,161.73,85.9955,78.3984,-9.77607,0.215332,-0.660352,-0.515503,-0.491119,-0.540253,0.448395,-31.1333,3.79167,-27.3667,-6970,-28907
4026,447167,0,0,0,161.73,85.9955,78.3984,-9.8,0.220117,-0.607715,-0.515503,-0.491119,-0.540253,0.448395,-31.1583,3.78333,-27.325,-6970,-28907
4032,447173,0,0,0,161.73,85.9955,78.3984,-9.77129,0.196191,-0.636426,-0.515503,-0.491119,-0.540253,0.448395,-31.1417,3.775,-27.3,-6970,-28907
4038,447179,0,0,0,161.73,85.9955,78.3984,-9.79521,0.220117,-0.655566,-0.515503,-0.491119,-0.540253,0.448395,-31.125,3.79167,-27.3,-6970,-28907
4044,447185,0,0,0,161.73,85.9955,78.3984,-9.7665,0.215332,-0.665137,-0.515503,-0.491119,-0.540253,0.448395,-31.0833,3.79167,-27.275,-6970,-28907
4050,447191,0,0,0,161.73,85.9955,78.3984,-9.78564,0.210547,-0.645996,-0.515503,-0.491119,-0.540253,0.448395,-31.05,3.80833,-27.2167,-6970,-28907
4056,447197,0,0,0,161.73,85.9955,78.3984,-9.79521,0.196191,-0.645996,-0.515533,-0.491119,-0.540253,0.448395,-31.025,3.83333,-27.1583,-6970,-28907
4062,447203,0,0,0,161.73,85.9955,78.3984,-9.77129,0.215332,-0.655566,-0.515533,-0.491119,-0.540253,0.448395,-31.0333,3.85,-27.1,-6970,-28907
4068,447209,0,0,0,161.73,85.9955,78.3984,-9.79043,0.224902,-0.645996,-0.515533,-0.491119,-0.540253,0.448395,-31.0583,3.85,-27.0917,-6970,-28907
4074,447215,0,0,0,161.73,85.9955,78.3984,-9.78564,0.229688,-0.631641,-0.515533,-0.491119,-0.540253,0.448395,-31.075,3.85,-27.05,-6970,-28907
4080,447221,0,0,0,161.73,85.9955,78.3984,-9.77607,0.205762,-0.665137,-0.515533,-0.491119,-0.540253,0.448395,-31.1,3.85833,-27.0083,-6970,-28907
4086,447227,0,0,0,161.724,85.9955,78.3984,-9.77607,0.215332,-0.655566,-0.515533,-0.491119,-0.540253,0.448364,-31.1667,3.875,-26.95,-6970,-28907
4092,447233,0,0,0,161.724,85.9955,78.3984,-9.78086,0.229688,-0.660352,-0.515533,-0.491119,-0.540253,0.448364,-31.1417,3.875,-26.9667,-6970,-28907
4098,447239,0,0,0,161.724,85.9955,78.3984,-9.79043,0.196191,-0.650781,-0.515533,-0.491089,-0.540253,0.448364,-31.125,3.875,-26.975,-6970,-28907
4104,447245,0,0,0,161.724,85.9955,78.3984,-9.79043,0.200977,-0.655566,-0.515533,-0.491089,-0.540253,0.448364,-31.075,3.875,-27.0083,-6970,-28907
4110,447251,0,0,0,161.724,85.9955,78.3984,-9.78086,0.215332,-0.636426,-0.515533,-0.491089,-0.540253,0.448364,-31.025,3.86667,-27.0583,-6970,-28907
4116,447257,0,0,0,161.724,85.9955,78.3984,-9.79521,0.205762,-0.655566,-0.515533,-0.491089,-0.540253,0.448364,-30.9917,3.85833,-27.0583,-6970,-28907
4122,447263,0,0,0,161.724,85.9955,78.3984,-9.79043,0.220117,-0.650781,-0.515533,-0.491089,-0.540253,0.448364,-31.0167,3.875,-27.0833,-6978,-28906
4128,447269,0,0,0,161.724,85.9955,78.3984,-9.78564,0.215332,-0.641211,-0.515533,-0.491089,-0.540253,0.448364,-31.0333,3.86667,-27.075,-6978,-28906
4134,447275,0,0,0,161.724,85.9955,78.3984,-9.78086,0.239258,-0.669922,-0.515533,-0.491089,-0.540283,0.448364,-31.05,3.86667,-27.0583,-6978,-28906
4140,447281,0,0,0,161.724,85.9955,78.3984,-9.76172,0.210547,-0.626855,-0.515533,-0.491089,-0.540283,0.448364,-31.0417,3.85833,-27.0167,-6978,-28906
4146,447287,0,0,0,161.724,85.9955,78.3984,-9.79043,0.210547,-0.669922,-0.515533,-0.491089,-0.540283,0.448364,-31.0333,3.85833,-26.9917,-6978,-28906
4152,447293,0,0,0,161.724,85.9955,78.3984,-9.80479,0.205762,-0.660352,-0.515533,-0.491089,-0.540283,0.448364,-31.025,3.85,-26.9667,-6978,-28906
4158,447299,0,0,0,161.724,85.9955,78.3984,-9.78086,0.224902,-0.655566,-0.515533,-0.491089,-0.540283,0.448364,-31.0333,3.83333,-26.975,-6978,-28906
4164,447305,0,0,0,161.724,85.9955,78.3984,-9.78564,0.215332,-0.650781,-0.515533,-0.491089,-0.540283,0.448364,-31.0417,3.83333,-27,-6978,-28906
4170,447311,0,0,0,161.724,85.9955,78.3984,-9.77129,0.215332,-0.665137,-0.515533,-0.491089,-0.540283,0.448364,-31.05,3.84167,-27.0333,-6978,-28906
4176,447317,0,0,0,161.724,85.9955,78.3984,-9.77607,0.196191,-0.674707,-0.515533,-0.491089,-0.540283,0.448364,-31.05,3.825,-27.075,-6978,-28906
4182,447323,0,0,0,161.724,85.9955,78.3984,-9.79043,0.224902,-0.665137,-0.515533,-0.491089,-0.540283,0.448364,-31.0667,3.79167,-27.15,-6978,-28906
4188,447329,0,0,0,161.724,85.9955,78.3984,-9.77129,0.200977,-0.655566,-0.515533,-0.491119,-0.540283,0.448364,-31.075,3.75,-27.175,-6978,-28906
4194,447335,0,0,0,161.724,85.9955,78.3984,-9.78564,0.239258,-0.641211,-0.515533,-0.491119,-0.540283,0.448364,-31.1083,3.74167,-27.225,-6978,-28906
4200,447341,0,0,0,161.724,85.9955,78.3984,-9.79043,0.196191,-0.641211,-0.515533,-0.491119,-0.540283,0.448364,-31.1083,3.725,-27.225,-6978,-28906
4206,447347,0,0,0,161.724,85.9955,78.3984,-9.79043,0.220117,-0.650781,-0.515533,-0.491119,-0.540283,0.448364,-31.1167,3.725,-27.225,-6978,-28906
4212,447353,0,0,0,161.724,85.9955,78.3984,-9.78086,0.191406,-0.636426,-0.515533,-0.491119,-0.540283,0.448364,-31.1333,3.7,-27.1833,-6978,-28906
4218,447359,0,0,0,161.724,85.9955,78.3984,-9.77607,0.210547,-0.641211,-0.515533,-0.491119,-0.540283,0.448364,-31.1333,3.675,-27.225,-6978,-28906
4224,447365,0,0,0,161.724,85.9955,78.3984,-9.79043,0.196191,-0.650781,-0.515533,-0.491119,-0.540283,0.448364,-31.1417,3.65833,-27.225,-6978,-28906
4230,447371,0,0,0,161.724,85.9955,78.3984,-9.77129,0.224902,-0.641211,-0.515533,-0.491119,-0.540283,0.448364,-31.125,3.63333,-27.25,-6978,-28906
4236,447377,0,0,0,161.724,85.9955,78.3984,-9.78564,0.215332,-0.655566,-0.515533,-0.491119,-0.540253,0.448364,-31.1,3.61667,-27.2583,-6978,-28906
4242,447383,0,0,0,161.724,85.9955,78.3984,-9.79043,0.224902,-0.645996,-0.515533,-0.491119,-0.540253,0.448364,-31.1,3.60833,-27.2083,-6978,-28906
4248,447389,0,0,0,161.724,85.9955,78.3984,-9.78086,0.229688,-0.655566,-0.515533,-0.491119,-0.540253,0.448364,-31.1,3.6,-27.2,-6978,-28906
4254,447395,0,0,0,161.724,85.9955,78.3984,-9.8,0.220117,-0.660352,-0.515533,-0.491119,-0.540253,0.448364,-31.1167,3.60833,-27.1583,-6978,-28906
4260,447401,0,0,0,161.724,85.9955,78.3984,-9.79043,0.224902,-0.650781,-0.515533,-0.491119,-0.540253,0.448364,-31.1167,3.61667,-27.1083,-6978,-28906
4266,447407,0,0,0,161.724,85.9955,78.3984,-9.8,0.215332,-0.650781,-0.515533,-0.491119,-0.540253,0.448364,-31.1333,3.65833,-27,-6978,-28906
4272,447413,0,0,0,161.724,85.9955,78.3984,-9.77607,0.234473,-0.641211,-0.515533,-0.491119,-0.540283,0.448364,-31.1333,3.68333,-26.9917,-6978,-28906
4278,447419,0,0,0,161.724,85.9955,78.3984,-9.75693,0.244043,-0.655566,-0.515533,-0.491119,-0.540283,0.448364,-31.15,3.7,-27,-6978,-28906
4284,447425,0,0,0,161.724,85.9955,78.3984,-9.79043,0.215332,-0.650781,-0.515533,-0.491089,-0.540283,0.448364,-31.1667,3.70833,-27.0083,-6978,-28906
4290,447431,0,0,0,161.724,85.9955,78.3984,-9.79043,0.191406,-0.660352,-0.515533,-0.491089,-0.540283,0.448364,-31.1583,3.71667,-27.0417,-6978,-28906
4296,447437,0,0,0,161.724,85.9955,78.3984,-9.77607,0.196191,-0.660352,-0.515533,-0.491089,-0.540283,0.448364,-31.1667,3.73333,-27.125,-6978,-28906
4302,447443,0,0,0,161.724,85.9955,78.3984,-9.76172,0.196191,-0.655566,-0.515533,-0.491089,-0.540283,0.448334,-31.1667,3.75,-27.1333,-6978,-28906
4308,447449,0,0,0,161.724,85.9955,78.3984,-9.78564,0.205762,-0.669922,-0.515533,-0.491089,-0.540283,0.448334,-31.175,3.75,-27.125,-6978,-28906
4314,447455,0,0,0,161.724,85.9955,78.3984,-9.78086,0.215332,-0.645996,-0.515533,-0.491089,-0.540283,0.448334,-31.1667,3.725,-27.1167,-6978,-28906
4320,447461,0,0,0,161.724,85.9955,78.3984,-9.78564,0.210547,-0.650781,-0.515533,-0.491089,-0.540283,0.448334,-31.1667,3.7,-27.0833,-6978,-28906
4326,447467,0,0,0,161.724,85.9955,78.3984,-9.78564,0.177051,-0.641211,-0.515533,-0.491089,-0.540283,0.448334,-31.1667,3.65,-27.0333,-6978,-28906
4332,447473,0,0,0,161.724,85.9955,78.3984,-9.8,0.196191,-0.679492,-0.515533,-0.491089,-0.540283,0.448334,-31.175,3.64167,-27.0083,-6978,-28906
4338,447479,0,0,0,161.724,85.9955,78.3984,-9.79043,0.205762,-0.655566,-0.515533,-0.491089,-0.540283,0.448334,-31.175,3.63333,-27,-6978,-28906
4344,447485,0,0,0,161.724,85.9955,78.3984,-9.80957,0.215332,-0.636426,-0.515533,-0.491119,-0.540283,0.448364,-31.1917,3.625,-27.025,-6978,-28906
4350,447491,0,0,0,161.724,85.9955,78.3984,-9.79521,0.196191,-0.636426,-0.515533,-0.491119,-0.540283,0.448364,-31.2083,3.625,-27.0583,-6978,-28906
4356,447497,0,0,0,161.724,85.9955,78.3984,-9.78564,0.224902,-0.660352,-0.515533,-0.491119,-0.540283,0.448364,-31.2167,3.625,-27.1667,-6978,-28906
4362,447503,0,0,0,161.724,85.9955,78.3984,-9.78086,0.215332,-0.626855,-0.515533,-0.491119,-0.540283,0.448364,-31.2333,3.625,-27.2583,-6978,-28906
4368,447509,0,0,0,161.724,85.9955,78.3984,-9.78564,0.205762,-0.660352,-0.515533,-0.491119,-0.540283,0.448364,-31.225,3.61667,-27.3083,-6978,-28906
4374,447515,0,0,0,161.73,85.9955,78.3984,-9.79043,0.210547,-0.669922,-0.515503,-0.491119,-0.540283,0.448364,-31.225,3.60833,-27.3583,-6978,-28906
4380,447521,0,0,0,161.73,85.9955,78.3984,-9.77607,0.244043,-0.626855,-0.515503,-0.491119,-0.540253,0.448364,-31.2333,3.61667,-27.3333,-6978,-28906
4386,447527,0,0,0,161.73,85.9955,78.3984,-9.79521,0.234473,-0.655566,-0.515503,-0.491119,-0.540253,0.448364,-31.2583,3.61667,-27.225,-6978,-28906
4392,447533,0,0,0,161.73,85.9955,78.3984,-9.8,0.229688,-0.62207,-0.515503,-0.491119,-0.540253,0.448364,-31.2667,3.60833,-27.1917,-6978,-28906
4398,447539,0,0,0,161.73,85.9955,78.3984,-9.7665,0.215332,-0.645996,-0.515503,-0.491119,-0.540283,0.448364,-31.2583,3.6,-27.1917,-6978,-28906
4404,447545,0,0,0,161.724,85.9955,78.3984,-9.79043,0.215332,-0.665137,-0.515533,-0.491119,-0.540283,0.448364,-31.25,3.6,-27.1917,-6978,-28906
4410,447551,0,0,0,161.724,85.9955,78.3984,-9.8,0.224902,-0.674707,-0.515533,-0.491119,-0.540283,0.448364,-31.2417,3.6,-27.2167,-6978,-28906
4416,447557,0,0,0,161.724,85.9955,78.3984,-9.78086,0.191406,-0.641211,-0.515533,-0.491119,-0.540283,0.448364,-31.2333,3.59167,-27.3083,-6978,-28906
4422,447563,0,0,0,161.724,85.9955,78.3984,-9.79043,0.220117,-0.655566,-0.515533,-0.491119,-0.540283,0.448364,-31.2333,3.58333,-27.3583,-6978,-28906
4428,447569,0,0,0,161.724,85.99,78.3984,-9.79043,0.205762,-0.655566,-0.515533,-0.491119,-0.540283,0.448364,-31.2167,3.59167,-27.4083,-6978,-28906
4434,447575,0,0,0,161.724,85.99,78.3984,-9.79521,0.220117,-0.669922,-0.515533,-0.491119,-0.540283,0.448334,-31.1917,3.6,-27.45,-6978,-28906
4440,447581,0,0,0,161.724,85.99,78.3984,-9.8,0.210547,-0.655566,-0.515533,-0.491119,-0.540283,0.448334,-31.1667,3.625,-27.4667,-6978,-28906
4446,447587,0,0,0,161.724,85.99,78.3984,-9.78086,0.205762,-0.636426,-0.515533,-0.491119,-0.540283,0.448334,-31.1583,3.65833,-27.4583,-6978,-28906
4452,447593,0,0,0,161.724,85.99,78.3984,-9.77607,0.220117,-0.660352,-0.515533,-0.491119,-0.540283,0.448334,-31.1667,3.675,-27.45,-6978,-28906
4458,447599,0,0,0,161.724,85.99,78.3984,-9.77607,0.210547,-0.655566,-0.515533,-0.491119,-0.540283,0.448334,-31.1667,3.675,-27.475,-6978,-28906
4464,447605,0,0,0,161.724,85.99,78.3984,-9.77607,0.224902,-0.645996,-0.515533,-0.491119,-0.540283,0.448334,-31.1667,3.68333,-27.4833,-6978,-28906
4470,447611,0,0,0,161.724,85.99,78.3984,-9.77607,0.210547,-0.655566,-0.515533,-0.491119,-0.540283,0.448334,-31.1667,3.70833,-27.5,-6978,-28906
4476,447617,0,0,0,161.724,85.99,78.3984,-9.8,0.239258,-0.669922,-0.515533,-0.491119,-0.540283,0.448334,-31.15,3.70833,-27.4167,-6978,-28906
4482,447623,0,0,0,161.719,85.99,78.3984,-9.78086,0.215332,-0.650781,-0.515533,-0.491089,-0.540283,0.448334,-31.15,3.69167,-27.3333,-6978,-28906
4488,447629,0,0,0,161.719,85.99,78.3984,-9.79043,0.220117,-0.636426,-0.515533,-0.491089,-0.540314,0.448334,-31.1583,3.66667,-27.2667,-6978,-28906
4494,447635,0,0,0,161.719,85.99,78.3984,-9.79043,0.215332,-0.626855,-0.515533,-0.491089,-0.540314,0.448303,-31.1667,3.64167,-27.2,-6978,-28906
4500,447641,0,0,0,161.719,85.99,78.3984,-9.79521,0.210547,-0.631641,-0.515533,-0.491089,-0.540314,0.448303,-31.1917,3.63333,-27.15,-6978,-28906
4506,447647,0,0,0,161.719,85.99,78.3984,-9.79521,0.215332,-0.645996,-0.515564,-0.491089,-0.540314,0.448303,-31.1833,3.61667,-27.05,-6978,-28906
4512,447653,-18.3105,-23.0103,17.334,160.955,85.979,77.6404,-2.76104,12.5132,-3.36875,-0.515808,-0.491302,-0.54007,0.448059,-31.1917,3.6,-27.0167,-6978,-28906
4518,447659,8.8501,31.189,-22.2778,159.044,86.0504,75.8057,-19.5952,-4.27793,1.37813,-0.517059,-0.490936,-0.53949,0.447723,-31.1917,3.58333,-27,-6978,-28906
4524,447665,-2.01416,16.6016,31.9214,161.307,85.9406,78.0304,-15.0876,6.87148,-12.9104,-0.515717,-0.491241,-0.540466,0.447784,-31.1833,3.575,-26.9917,-6978,-28906
4530,447671,4.02832,-20.6299,-30.3955,159.543,85.7977,76.2616,-5.53164,1.18193,-1.78486,-0.51593,-0.492401,-0.540161,0.446625,-31.175,3.55833,-27,-6978,-28906
4536,447677,1.58691,-16.4795,11.7798,159.818,85.9845,76.4923,-12.0395,-5.16318,3.34004,-0.516235,-0.491547,-0.539581,0.447906,-31.1833,3.575,-27.05,-6978,-28906
4542,447683,-2.01416,-36.438,-29.9072,160.631,85.8801,77.2998,-16.4609,-14.0588,-8.16348,-0.515564,-0.491943,-0.540161,0.44754,-31.2,3.59167,-27.0667,-6978,-28906
4548,447689,-7.20215,-33.4473,19.3481,161.922,86.0944,78.6127,-0.224902,9.37412,12.3266,-0.515839,-0.490479,-0.540131,0.448883,-31.2083,3.61667,-27.0833,-6978,-28906
4554,447695,6.10352,26.123,-29.1748,159.653,86.2207,76.3715,-12.2165,-6.2877,0.368457,-0.517151,-0.490143,-0.539063,0.449005,-31.225,3.625,-27.1583,-6978,-28906
4560,447701,-3.05176,8.91113,33.1421,162.416,86.1493,79.1071,-11.738,0.641211,-2.87109,-0.515869,-0.490082,-0.540161,0.449249,-31.25,3.63333,-27.2083,-6978,-28906
4566,447707,4.45557,-9.21631,-25.2686,161.889,86.1328,78.5797,-9.94834,3.44531,-4.72295,-0.515991,-0.490265,-0.539978,0.449097,-31.225,3.65833,-27.275,-6978,-28906
4572,447713,0.0610352,4.27246,-15.1978,160.862,86.2482,77.5635,-8.6707,1.80879,2.39736,-0.516754,-0.489838,-0.539337,0.449432,-31.2083,3.68333,-27.275,-6978,-28906
4578,447719,-0.549316,4.88281,6.83594,162.043,86.2537,78.75,-11.36,-2.56963,-2.64619,-0.516357,-0.489563,-0.539764,0.449707,-31.175,3.70833,-27.2917,-6978,-28906
4584,447725,0.244141,0.549316,-4.27246,161.691,86.2152,78.3984,-9.06787,2.44521,0.301465,-0.516388,-0.489777,-0.539764,0.449432,-31.1583,3.70833,-27.2917,-6978,-28906
4590,447731,-0.183105,6.89697,1.83105,162.004,86.2207,78.7115,-11.1829,-1.66045,-0.358887,-0.516296,-0.489716,-0.539856,0.449524,-31.1583,3.74167,-27.2917,-6978,-28906
4596,447737,0.793457,4.45557,0.793457,162.098,86.1658,78.8049,-9.53203,1.49297,-1.33506,-0.516083,-0.48999,-0.540039,0.449219,-31.1667,3.74167,-27.3,-6978,-28906
4602,447743,-2.80762,11.2915,3.90625,162.257,86.1658,78.9642,-9.42676,0.411523,2.10068,-0.516022,-0.48996,-0.5401,0.449249,-31.15,3.73333,-27.2917,-6978,-28906
4608,447749,-0.976563,18.7378,4.69971,162.224,86.1053,78.9423,-9.91963,-0.114844,-1.90449,-0.5159,-0.490204,-0.540314,0.448883,-31.125,3.725,-27.3,-6978,-28906
4614,447755,0.0610352,2.62451,4.63867,162.318,86.012,79.0411,-9.38848,0.904395,-2.39258,-0.515564,-0.490631,-0.540649,0.448364,-31.1,3.73333,-27.3333,-6978,-28906
4620,447761,0.793457,0,0.549316,162.065,85.9955,78.7885,-9.8957,-0.196191,-0.100488,-0.515594,-0.490784,-0.540619,0.448181,-31.0833,3.74167,-27.3333,-6978,-28906
4626,447767,-1.09863,5.18799,5.06592,161.818,85.9625,78.5522,-10.0536,0.0478516,-1.36855,-0.515625,-0.490997,-0.540649,0.447937,-31.1083,3.78333,-27.3417,-6978,-28906
4632,447773,0.488281,-3.66211,2.62451,161.647,85.979,78.382,-9.8,-0.478516,0.794336,-0.515747,-0.490906,-0.540558,0.447998,-31.1167,3.79167,-27.35,-6978,-28906
4638,447779,-1.15967,10.8032,4.57764,161.406,85.9955,78.1403,-9.29277,0.971387,-0.0191406,-0.515869,-0.490906,-0.540405,0.448029,-31.125,3.78333,-27.3917,-6978,-28906
4644,447785,-0.12207,1.0376,0.0610352,161.34,85.9351,78.0798,-9.79521,0.196191,-2.75146,-0.515747,-0.49118,-0.540588,0.447662,-31.1417,3.79167,-27.3917,-6978,-28906
4650,447791,0.0610352,-8.11768,1.46484,161.373,85.9296,78.1128,-9.84307,0.44502,-0.645996,-0.515717,-0.491211,-0.540619,0.447632,-31.1583,3.79167,-27.3833,-6978,-28906
4656,447797,0.183105,1.40381,0,161.136,85.957,77.8821,-9.85742,0.0526367,0.794336,-0.5159,-0.491089,-0.540436,0.447723,-31.1917,3.8,-27.325,-6978,-28906
4662,447803,0.183105,-2.13623,-1.2207,161.115,85.9241,77.8546,-9.73779,0.535937,-1.78008,-0.515808,-0.491272,-0.540527,0.44754,-31.2083,3.80833,-27.2917,-6978,-28906
4668,447809,-0.12207,-6.22559,0.0610352,161.153,85.9351,77.8986,-9.86221,-0.143555,-0.200977,-0.515839,-0.491211,-0.540527,0.447601,-31.225,3.8,-27.275,-6978,-28906
4674,447815,-0.305176,3.72314,-0.244141,161.016,85.968,77.7612,-9.47461,0.440234,0.574219,-0.515991,-0.491058,-0.540405,0.447723,-31.25,3.79167,-27.275,-6978,-28906
4680,447821,-0.0610352,5.24902,0.183105,161.12,85.9515,77.8656,-9.90527,-0.0239258,-1.43076,-0.5159,-0.491119,-0.540497,0.447662,-31.2833,3.75833,-27.2667,-6978,-28906
4686,447827,-0.0610352,-4.5166,0.0610352,161.131,85.946,77.8821,-9.72822,0.641211,-1.42598,-0.5159,-0.49115,-0.540527,0.447632,-31.3667,3.71667,-27.3,-6978,-28906
4692,447833,0,4.88281,1.77002,161.175,85.9625,77.926,-9.88613,0.00478516,0.0813477,-0.51593,-0.491028,-0.540466,0.447723,-31.4,3.7,-27.3083,-6978,-28906
4698,447839,0,2.68555,-0.244141,161.175,85.9351,77.9205,-9.66602,0.535937,-1.64131,-0.515839,-0.49118,-0.540558,0.447601,-31.4167,3.69167,-27.3083,-6978,-28906
4704,447845,-0.366211,-5.37109,-0.488281,161.252,85.9241,78.0029,-9.79521,0.090918,-1.0958,-0.515778,-0.491211,-0.540619,0.44754,-31.4417,3.7,-27.325,-6978,-28906
4710,447851,0,-0.854492,-0.244141,161.169,85.9515,77.9205,-9.6708,0.272754,0.406738,-0.5159,-0.491089,-0.540527,0.447662,-31.4417,3.69167,-27.3083,-6978,-28906
4716,447857,-0.0610352,5.06592,0.671387,161.241,85.9296,77.9919,-9.79043,0.47373,-1.52646,-0.515808,-0.49118,-0.540619,0.44754,-31.45,3.675,-27.2667,-6978,-28906
4722,447863,0,-4.57764,-0.732422,161.235,85.9296,77.9865,-9.90049,0.0526367,-0.526367,-0.515808,-0.49115,-0.540619,0.447571,-31.4417,3.66667,-27.2417,-6978,-28906
4728,447869,0.12207,1.15967,0.610352,161.186,85.957,77.937,-9.75215,0.153125,0.191406,-0.5159,-0.491058,-0.540527,0.447662,-31.4417,3.65833,-27.2,-6978,-28906
4734,447875,-0.0610352,3.90625,0.0610352,161.175,85.9515,77.926,-9.73779,0.220117,-0.894824,-0.5159,-0.491089,-0.540527,0.447632,-31.4417,3.65,-27.1583,-6978,-28906
4740,447881,-0.0610352,-1.95313,-0.0610352,161.263,85.9296,78.0139,-9.75693,0.229688,-1.35898,-0.515808,-0.49118,-0.540619,0.44754,-31.4333,3.63333,-27.1,-6978,-28906
4746,447887,0,-3.17383,-0.732422,161.208,85.957,77.959,-9.85742,0.0382813,-0.0717773,-0.5159,-0.491058,-0.540527,0.447693,-31.4083,3.6,-27.05,-6978,-28906
4752,447893,0.0610352,2.56348,0.488281,161.235,85.9406,77.9919,-9.80479,0.373242,-1.11016,-0.515869,-0.491119,-0.540588,0.447601,-31.3917,3.58333,-27.025,-6978,-28906
4758,447899,0,-2.99072,-0.305176,161.268,85.9296,78.0194,-9.8335,0.224902,-1.10059,-0.515808,-0.49118,-0.540619,0.44754,-31.3917,3.58333,-27.0333,-6978,-28906
4764,447905,-0.0610352,-1.64795,-0.305176,161.224,85.946,77.9755,-9.73301,0.196191,-0.0191406,-0.515869,-0.491119,-0.540558,0.447632,-31.3917,3.56667,-27.0667,-6978,-28906
4770,447911,-0.0610352,3.2959,0.183105,161.208,85.9515,77.959,-9.7665,0.119629,-0.425879,-0.5159,-0.491058,-0.540527,0.447662,-31.3917,3.55833,-27.0667,-6978,-28906
4776,447917,-0.0610352,0.610352,0,161.285,85.9351,78.0359,-9.80957,0.16748,-0.679492,-0.515808,-0.49115,-0.540619,0.447601,-31.375,3.575,-27.1167,-6978,-28906
4782,447923,0,0.366211,0.0610352,161.274,85.9515,78.0249,-9.79521,0.105273,-0.0143555,-0.515869,-0.491058,-0.540558,0.447662,-31.35,3.59167,-27.1333,-6978,-28906
4788,447929,0.0610352,3.05176,0.305176,161.279,85.9515,78.0304,-9.80957,0.205762,-0.708203,-0.515839,-0.491089,-0.540558,0.447662,-31.3333,3.61667,-27.1417,-6978,-28906
4794,447935,-0.0610352,-0.915527,0,161.329,85.9351,78.0798,-9.79521,0.215332,-1.20586,-0.515778,-0.49115,-0.540619,0.447601,-31.325,3.61667,-27.125,-6978,-28906
4800,447941,0,-2.19727,-0.305176,161.312,85.9406,78.0634,-9.70908,0.191406,-0.339746,-0.515808,-0.491119,-0.540619,0.447632,-31.3333,3.625,-27.075,-6978,-28906
4806,447947,0,2.01416,0.488281,161.301,85.9406,78.0524,-9.75693,0.311035,-0.985742,-0.515808,-0.491119,-0.540588,0.447632,-31.375,3.61667,-26.9667,-6978,-28906
