Timestamp,AccX,AccY,AccZ,AngularVelX,AngularVelY,AngularVelZ,MagX,MagY,MagZ,AirPressure
224192,2.39415,9.71157,0.340541,-3.883,1.296,-2.373,14.1331,-50.223,-22.7432,1013.27
224198,2.70022,9.51071,0.206634,-5.213,-0.454,-2.023,14.5399,-51.0865,-23.0387,1013.26
224204,3.0063,9.4868,0.149245,-6.403,-0.454,-2.513,15.615,-49.7295,-23.0387,1013.26
224210,3.09238,9.36724,0.24011,-7.243,0.386,-3.143,14.7433,-50.0379,-22.8023,1013.27
224216,3.06368,9.20464,0.464883,-7.103,0.246,-4.403,14.598,-51.5183,-23.4968,1013.27
224222,3.10194,9.19029,0.560531,-7.103,-0.034,-5.383,14.8305,-50.3463,-23.6298,1013.27
224228,3.10673,9.1616,0.603573,-6.263,0.036,-6.853,15.3245,-49.0819,-23.1569,1013.27
224234,2.99195,9.15681,0.665744,-5.913,0.316,-7.623,14.9467,-50.7164,-22.9944,1013.27
224240,2.82456,9.17116,0.708786,-4.793,0.106,-8.393,16.0218,-50.6547,-22.6693,1013.3
224246,2.77196,9.20464,0.732698,-3.953,-0.314,-8.603,15.092,-49.1436,-22.6841,1013.3
224252,2.61892,9.24768,0.780522,-2.693,-0.384,-8.393,14.8305,-49.7912,-23.5116,1013.27
224258,2.55675,9.30985,0.809216,-1.853,-1.084,-8.043,15.1211,-50.8706,-22.0783,1013.27
224264,2.63805,9.35289,0.622702,-0.873,-2.064,-7.693,15.092,-50.1305,-24.2504,1013.3
224270,2.68109,9.41506,0.493578,-0.663,-1.854,-7.203,14.8886,-48.8044,-23.482,1013.3
224276,2.69066,9.42463,0.407494,-0.313,-0.874,-6.853,14.5109,-50.3155,-22.2851,1013.3
224282,2.59979,9.50115,0.493578,-0.593,-0.594,-6.153,14.569,-49.8837,-25.8906,1013.32
224288,2.705,9.38637,0.440971,-1.083,-0.804,-5.873,14.5109,-48.681,-23.8514,1013.32
224294,2.78631,9.37681,0.455318,-1.083,-0.454,-5.733,14.8595,-50.0688,-23.8514,1013.27
224300,2.88674,9.34811,0.407494,-1.293,-0.244,-6.083,15.0339,-49.9763,-21.1621,1013.27
224306,2.96325,9.29072,0.412277,-1.153,0.106,-6.643,14.6852,-49.1744,-24.605,1013.27
224312,3.00151,9.28594,0.39793,-0.943,0.596,-7.273,15.2954,-50.9015,-23.9844,1013.27
224318,2.93456,9.2955,0.426624,-0.733,1.436,-7.973,14.4527,-50.3772,-23.3195,1013.28
224324,2.82456,9.31942,0.455318,-0.733,1.786,-8.463,15.2373,-49.3286,-22.7728,1013.28
224330,2.72413,9.33855,0.555749,-0.453,1.646,-8.603,14.3946,-48.7427,-22.7432,1013.28
224336,2.63327,9.36724,0.589226,-0.523,1.506,-8.533,15.2663,-50.5931,-23.9549,1013.28
224342,2.51371,9.4055,0.660962,-0.733,0.666,-8.183,15.2663,-49.8837,-24.6937,1013.28
224348,2.51849,9.37202,0.713568,-1.013,-0.244,-7.903,15.3245,-49.1128,-24.3982,1013.32
224354,2.61414,9.35289,0.660962,-1.083,-1.224,-7.693,14.8014,-49.7912,-21.5759,1013.32
224360,2.6524,9.30507,0.651397,-1.223,-1.434,-7.693,15.3535,-50.408,-22.0044,1013.28
224366,2.60936,9.24768,0.689656,-0.313,-0.454,-7.483,15.6441,-49.3903,-24.2504,1013.28
224372,2.37502,9.36246,0.852258,0.527,-0.244,-6.643,14.6271,-49.8221,-24.4277,1013.29
224378,2.41328,9.34811,0.818781,0.387,-2.624,-5.943,15.4988,-50.408,-23.9844,1013.29
224384,2.62849,9.30507,0.684874,0.737,-3.254,-5.803,14.9177,-49.1128,-26.0531,1013.3
224390,2.70979,9.34811,0.613138,0.877,-3.044,-5.733,15.4407,-48.8969,-23.6298,1013.3
224396,2.74326,9.30507,0.59879,1.157,-2.904,-5.873,15.8765,-50.2847,-23.5559,1013.3
224402,2.75761,9.33376,0.579661,1.577,-3.114,-6.363,14.7143,-49.452,-22.9944,1013.3
224408,2.76718,9.33855,0.555749,1.717,-2.974,-6.713,15.1792,-48.7427,-23.6889,1013.3
224414,2.67153,9.35289,0.579661,1.857,-2.974,-6.853,15.1211,-49.7604,-22.9205,1013.3
224420,2.61892,9.38637,0.603573,1.577,-3.254,-6.853,15.9637,-49.8221,-23.3934,1013.3
224426,2.60936,9.41028,0.570096,1.577,-3.534,-6.783,16.109,-48.3726,-23.3786,1013.29
224432,2.59023,9.43898,0.546184,0.877,-3.744,-6.783,15.092,-49.3903,-24.2504,1013.29
224438,2.67631,9.39115,0.546184,0.597,-3.954,-6.713,15.3245,-49.6062,-22.0783,1013.3
224444,2.76718,9.36246,0.512707,0.597,-4.094,-7.133,15.9346,-49.3595,-24.3243,1013.3
224450,2.77196,9.34811,0.503142,0.457,-3.954,-7.553,15.7312,-49.0819,-23.5559,1013.3
224456,2.73848,9.33376,0.541402,0.107,-4.094,-8.043,16.0799,-50.0071,-23.7332,1013.29
224462,2.70979,9.30029,0.536619,0.177,-4.234,-8.393,16.0799,-49.9454,-22.8762,1013.29
224468,2.66196,9.31463,0.512707,0.807,-2.904,-8.463,15.6441,-49.3595,-23.3934,1013.29
224474,2.4898,9.39594,0.613138,1.087,-2.204,-8.253,15.4697,-50.0379,-23.5264,1013.29
224480,2.37502,9.44376,0.665744,0.597,-3.044,-7.413,15.8184,-49.8221,-23.7037,1013.31
224486,2.42763,9.4055,0.622702,0.317,-3.254,-6.853,15.2373,-48.4651,-26.4669,1013.31
224492,2.48023,9.39115,0.608355,-0.173,-3.114,-6.433,15.3245,-48.681,-23.5411,1013.29
224498,2.49458,9.35768,0.656179,-0.243,-2.904,-6.083,15.4116,-50.3772,-23.1126,1013.29
224504,2.50414,9.34811,0.73748,-0.033,-2.764,-5.663,15.9346,-49.0819,-24.0288,1013.28
224510,2.48501,9.31463,0.785304,0.247,-2.974,-5.453,15.2082,-49.2053,-25.1665,1013.28
224516,2.58544,9.29072,0.732698,0.947,-2.974,-5.173,14.8595,-49.4212,-24.2652,1013.28
224522,2.59023,9.28594,0.694438,1.577,-2.484,-5.173,15.7022,-49.7295,-24.1617,1013.31
224528,2.48501,9.36724,0.689656,1.857,-2.064,-4.823,15.5569,-48.866,-25.8906,1013.31
224534,2.4611,9.34811,0.727915,1.857,-2.204,-4.543,15.1501,-49.5753,-23.8958,1013.28
224540,2.51371,9.39594,0.656179,1.857,-2.624,-4.263,15.1501,-50.0379,-22.9353,1013.28
224546,2.59979,9.37681,0.603573,1.857,-3.044,-4.263,15.4988,-48.3418,-24.605,1013.28
224552,2.61414,9.37202,0.59879,1.787,-2.974,-4.263,15.8184,-49.0202,-24.2652,1013.28
224558,2.57588,9.41506,0.589226,1.577,-3.044,-4.333,15.2954,-50.8089,-23.3638,1013.3
224564,2.53762,9.41506,0.594008,1.367,-3.324,-4.403,15.092,-49.5445,-25.0779,1013.3
224570,2.51849,9.41506,0.584443,1.087,-3.674,-4.193,15.3245,-49.2669,-24.9597,1013.3
224576,2.53762,9.42463,0.594008,0.667,-4.024,-4.263,15.8475,-49.9146,-22.9501,1013.3
224582,2.54719,9.43419,0.550966,0.107,-4.304,-4.193,16.109,-49.2053,-23.7923,1013.3
224588,2.53284,9.39115,0.584443,-0.103,-4.514,-4.193,16.2252,-48.496,-27.5603,1013.29
224594,2.53762,9.38159,0.641832,-0.383,-4.794,-3.983,15.4988,-50.0071,-23.4672,1013.29
224600,2.55197,9.34333,0.680091,-0.383,-4.934,-4.053,15.8765,-49.8837,-22.891,1013.29
224606,2.59979,9.25246,0.71835,0.107,-4.934,-4.123,15.8765,-48.9586,-25.27,1013.29
224612,2.57588,9.26681,0.785304,0.667,-4.654,-4.053,15.4988,-49.2361,-25.137,1013.31
224618,2.53762,9.22855,0.794869,1.577,-4.374,-3.983,15.5278,-49.8221,-22.9648,1013.31
224624,2.52806,9.24768,0.75661,2.417,-4.444,-3.843,15.7312,-48.9894,-23.5116,1013.31
224630,2.52327,9.32898,0.684874,3.117,-4.024,-3.633,15.4697,-49.5753,-24.3538,1013.33
224636,2.51849,9.38637,0.622702,3.047,-3.534,-3.493,15.7603,-50.5314,-22.359,1013.33
224642,2.44197,9.5155,0.512707,2.417,-3.114,-3.003,15.2373,-49.1744,-22.7137,1013.3
224648,2.4611,9.53462,0.512707,1.577,-2.904,-2.723,15.8765,-48.1567,-24.8267,1013.3
224654,2.50414,9.51071,0.546184,0.807,-2.764,-2.303,16.0509,-50.0688,-23.4672,1013.32
224660,2.50893,9.4868,0.594008,0.387,-2.624,-2.093,16.2833,-49.3595,-23.0978,1013.32
224666,2.6237,9.35768,0.63705,0.247,-2.834,-2.023,16.0799,-49.4212,-23.1126,1013.29
224672,2.63805,9.39594,0.651397,0.527,-2.554,-2.093,16.0799,-49.7912,-24.871,1013.29
224678,2.6237,9.4055,0.584443,0.457,-2.134,-2.303,15.1501,-50.4389,-24.3982,1013.26
224684,2.59023,9.4055,0.63705,0.527,-2.204,-2.443,16.0509,-49.2053,-24.4573,1013.26
224690,2.59023,9.43419,0.613138,0.457,-2.414,-2.443,15.2663,-49.4212,-25.4473,1013.26
224696,2.59979,9.41028,0.574878,0.177,-2.554,-2.653,15.4116,-50.5314,-23.5707,1013.29
224702,2.61414,9.42463,0.536619,0.107,-2.764,-2.723,15.6731,-49.2978,-24.9449,1013.29
224708,2.59023,9.45332,0.512707,-0.383,-2.484,-2.933,15.5278,-47.8792,-26.5703,1013.26
224714,2.56153,9.43898,0.579661,-0.593,-2.624,-3.003,15.7312,-49.7912,-24.5016,1013.26
224720,2.55197,9.41985,0.627485,-0.873,-2.764,-2.933,15.9928,-49.3286,-23.8367,1013.29
224726,2.58544,9.40072,0.622702,-0.803,-2.974,-3.003,15.7022,-48.866,-24.4425,1013.29
224732,2.59023,9.34811,0.665744,-0.803,-2.834,-3.143,15.7894,-49.2669,-24.5903,1013.28
224738,2.57588,9.3242,0.71835,-0.523,-2.694,-3.143,16.0799,-49.8221,-22.7137,1013.28
224744,2.52806,9.35289,0.75661,-0.033,-2.624,-3.143,15.8765,-48.1259,-24.9006,1013.28
224750,2.50893,9.35768,0.742262,0.107,-2.694,-3.003,16.0509,-48.2801,-24.7823,1013.26
224756,2.55675,9.35289,0.723133,0.247,-2.764,-2.863,15.7022,-50.0071,-24.4425,1013.26
224762,2.54719,9.35289,0.71835,0.387,-2.694,-2.793,15.8475,-49.2669,-23.482,1013.31
224768,2.57588,9.35768,0.713568,0.597,-2.484,-2.723,16.2252,-47.5091,-25.5064,1013.31
224774,2.57588,9.40072,0.694438,0.807,-2.624,-2.723,15.7603,-49.3595,-24.1174,1013.29
224780,2.56632,9.42463,0.680091,0.737,-2.484,-2.723,15.8475,-49.6062,-22.9648,1013.29
224786,2.59979,9.42941,0.656179,0.737,-2.414,-2.863,15.9928,-48.4343,-23.1569,1013.25
224792,2.59979,9.44854,0.660962,0.527,-2.554,-2.863,15.7022,-49.3903,-24.7971,1013.25
224798,2.61892,9.39594,0.694438,0.457,-2.554,-3.073,15.9637,-50.8398,-24.5459,1013.25
224804,2.66675,9.38637,0.708786,0.877,-2.694,-3.213,16.1962,-49.4212,-24.4129,1013.29
224810,2.67153,9.40072,0.675309,0.877,-2.764,-3.633,15.4697,-48.9586,-24.5607,1013.29
224816,2.66675,9.44854,0.627485,1.087,-2.764,-3.843,16.0799,-49.3595,-23.4377,1013.34
224822,2.6237,9.44854,0.594008,0.877,-3.114,-4.193,15.4697,-49.637,-23.2604,1013.34
224828,2.60457,9.43898,0.63705,0.807,-3.254,-4.263,16.0218,-48.5576,-25.2552,1013.3
224834,2.58544,9.44376,0.699221,0.737,-3.324,-4.473,15.4407,-49.0511,-24.4573,1013.3
224840,2.59979,9.43898,0.708786,0.737,-3.674,-4.683,15.5278,-49.7604,-24.2799,1013.3
224846,2.68109,9.46289,0.63705,0.877,-4.164,-4.963,15.7022,-48.0334,-25.2552,1013.3
224852,2.70022,9.44854,0.61792,0.807,-4.234,-5.313,15.8184,-49.2361,-24.472,1013.26
224858,2.66675,9.46289,0.622702,0.667,-4.374,-5.733,15.615,-49.8837,-22.7137,1013.26
224864,2.63327,9.43419,0.660962,0.807,-4.584,-6.083,15.8184,-48.6502,-24.5903,1013.26
224870,2.57588,9.42941,0.73748,0.947,-4.934,-6.363,15.7894,-48.9277,-24.7528,1013.31
224876,2.55197,9.42941,0.766174,1.157,-5.214,-6.433,15.2373,-49.4212,-24.0879,1013.31
224882,2.53762,9.43419,0.723133,1.297,-5.914,-6.433,15.2082,-48.7118,-23.4229,1013.29
224888,2.53762,9.46289,0.689656,1.437,-6.404,-6.573,16.9807,-48.8352,-24.8562,1013.29
224894,2.61892,9.49158,0.622702,1.297,-7.874,-6.993,15.8765,-49.5137,-23.9253,1013.31
224900,2.80544,9.52028,0.531837,0.807,-9.134,-8.043,15.615,-49.5753,-24.3834,1013.31
224906,3.00151,9.70679,0.264022,-0.173,-10.184,-9.933,15.615,-48.3418,-23.7776,1013.27
224912,3.04456,9.70679,0.27837,-1.083,-11.794,-11.543,15.6441,-48.496,-24.8119,1013.27
224918,3.41758,9.90765,0.0392496,-2.553,-15.014,-15.463,16.2252,-50.9015,-25.2256,1013.27
224924,3.42236,9.97461,-0.0324864,-3.043,-16.134,-17.913,15.7894,-48.8044,-24.7823,1013.29
224930,3.46062,10.0176,-0.0803104,-4.513,-18.374,-21.693,16.3124,-48.3109,-25.7576,1013.29
224936,3.25498,9.97461,-0.0707456,-4.513,-19.214,-23.513,16.3124,-50.1305,-23.9105,1013.28
224942,2.80065,9.77374,0.0249024,-4.163,-20.964,-25.613,16.8645,-49.637,-24.147,1013.28
224948,3.35063,10.6298,1.11529,0.247,-41.614,-32.403,15.9637,-47.0773,-27.7229,1013.34
224954,7.50175,14.5514,0.230546,-6.823,-52.324,-41.783,16.9226,-49.2361,-24.9153,1013.34
224960,6.78439,11.988,-0.615939,-24.673,-17.114,-57.253,16.3705,-49.0202,-24.9597,1013.27
224966,6.33006,10.0176,2.58827,-1.433,-4.794,-68.103,17.5909,-47.4166,-25.8906,1013.27
224972,9.01299,16.5839,0.144462,-4.303,-22.784,-87.353,17.7943,-48.681,-24.1322,1013.27
224978,9.3095,14.4748,-0.501162,-27.123,-7.734,-98.483,18.2011,-48.8969,-24.6641,1013.27
224984,6.35876,10.3476,1.40223,-18.303,16.696,-113.323,17.678,-47.5091,-26.127,1013.27
224990,3.94365,11.218,2.1722,-5.773,11.796,-120.883,18.8113,-48.0334,-25.3586,1013.28
224996,4.61318,12.6384,1.72265,0.247,-7.734,-131.943,19.8864,-48.4034,-24.9153,1013.28
225002,6.10051,12.844,1.42615,2.627,-9.204,-140.273,20.1188,-47.4166,-25.0927,1013.31
225008,6.71266,13.6618,0.0392496,3.817,-3.254,-149.933,21.7751,-46.5531,-25.6394,1013.31
225014,6.92308,13.7336,-0.864624,2.907,2.206,-159.523,22.0075,-47.324,-23.2604,1013.3
225020,5.84226,14.757,0.125333,-1.013,11.236,-175.833,22.1237,-47.6324,-24.8415,1013.3
225026,5.27315,14.3362,0.268805,-3.673,8.296,-182.763,23.7509,-45.7821,-25.3882,1013.3
225032,5.67009,15.2831,-0.23813,-2.273,10.886,-186.123,23.7509,-46.4297,-25.403,1013.3
225038,5.6127,14.5561,1.09138,-8.013,12.146,-191.163,25.2038,-46.5222,-24.5903,1013.3
225044,5.51227,12.4567,-0.0468336,-3.113,15.366,-197.533,25.843,-44.5485,-24.1617,1013.29
225050,4.72796,12.2702,0.307064,0.947,21.246,-202.083,26.5694,-44.5176,-24.3095,1013.29
225056,2.74805,10.295,1.0579,1.367,20.966,-206.703,27.8189,-45.1036,-22.9796,1013.29
225062,2.10242,8.13816,0.0822912,10.047,12.636,-203.343,28.4872,-44.2401,-24.147,1013.29
225068,0.399888,7.64079,-0.386384,30.347,6.826,-199.633,28.4872,-43.8083,-24.7232,1013.26
225074,-0.719194,9.80722,1.42136,37.347,-10.044,-196.343,30.0272,-43.9008,-23.0387,1013.26
225080,2.73848,11.658,-1.04636,36.787,-37.484,-167.853,30.434,-44.3018,-22.492,1013.28
225086,7.83652,10.2998,-2.65802,24.327,-47.774,-129.563,31.0732,-42.2663,-24.2652,1013.28
225092,13.9676,8.53032,-4.16926,3.467,-31.604,-109.613,31.0732,-42.7289,-24.6937,1013.28
225098,12.2937,8.89857,-2.51933,-7.733,12.986,-91.203,31.8287,-43.7466,-23.5264,1013.3
225104,7.65001,11.2993,-0.209435,-9.483,29.576,-71.393,31.5962,-41.4953,-24.5755,1013.3
225110,9.82122,6.08173,-0.644634,-13.123,11.446,-38.353,32.3227,-41.8037,-24.0731,1013.27
225116,11.5142,2.53797,-2.1224,-9.973,23.766,-19.803,31.974,-42.5439,-23.0831,1013.27
225122,9.68731,1.17499,-1.20417,-0.803,34.336,3.157,32.1774,-43.0065,-22.7432,1013.3
225128,9.50558,1.33281,-0.644634,6.967,28.386,12.467,31.7415,-40.8785,-23.2752,1013.3
225134,9.69209,1.23238,-0.754629,20.547,22.506,18.697,31.1604,-42.7598,-23.6002,1013.28
225140,9.62036,1.09847,-1.14679,28.877,21.036,21.497,32.0612,-42.6364,-22.8614,1013.28
225146,9.12299,1.6341,-1.31895,37.347,17.396,27.657,31.5091,-42.1738,-23.8662,1013.28
225152,9.06081,2.51884,-1.2233,40.567,11.866,33.187,32.1193,-42.4822,-22.0339,1013.28
225158,9.5008,4.01573,-1.10374,41.267,5.916,42.217,32.3808,-44.0242,-20.6154,1013.28
225164,9.57731,4.67571,-1.20896,38.467,5.426,48.867,31.7125,-42.7289,-21.1178,1013.25
225170,9.45775,5.01526,-0.988966,33.847,3.326,59.787,30.6955,-43.1298,-21.8566,1013.25
225176,9.31906,5.32611,-1.03679,29.437,2.766,67.977,31.0151,-44.7952,-20.0982,1013.19
225182,8.86952,5.18264,-0.788106,23.417,3.116,80.017,30.7536,-44.3634,-20.4824,1013.19
225188,8.31476,4.90526,-0.510726,21.737,1.646,88.277,29.8528,-43.099,-22.1078,1013.27
225194,7.48262,5.15873,-0.0850928,23.207,-3.114,101.437,29.7947,-45.0419,-20.8666,1013.27
225200,6.92308,5.34524,0.125333,23.627,-7.524,111.797,29.6494,-45.7204,-21.4724,1013.25
225206,6.66005,5.63697,0.254458,26.357,-16.904,128.037,28.1966,-45.3811,-24.2799,1013.25
225212,6.90873,6.09608,0.197069,28.037,-22.364,138.257,27.7026,-45.3811,-22.4625,1013.25
225218,7.28176,6.81344,0.211416,29.717,-27.614,151.277,27.0634,-47.0773,-20.6154,1013.24
225224,7.47784,7.26777,0.206634,30.487,-30.344,161.427,26.6566,-45.412,-21.103,1013.24
225230,7.61175,7.9373,0.264022,31.117,-30.414,166.817,26.2207,-47.6324,-22.1226,1013.24
225236,7.49697,8.59727,0.350106,30.977,-29.924,173.887,24.4773,-48.2492,-20.5563,1013.24
225242,7.40132,8.99421,0.35967,30.767,-28.734,177.667,23.809,-48.6193,-21.2508,1013.26
225248,7.09525,9.46289,0.440971,30.837,-26.074,182.357,22.6177,-47.5708,-22.359,1013.26
225254,6.81787,9.78809,0.522272,30.697,-24.814,184.597,22.24,-49.1128,-20.8666,1013.24
225260,6.5118,10.2376,0.522272,31.467,-22.084,186.417,21.6298,-49.9763,-21.0587,1013.24
225266,6.23442,10.4959,0.613138,31.887,-20.474,186.557,20.0607,-49.1436,-21.9305,1013.24
225272,5.99051,10.9454,0.536619,33.287,-18.514,184.667,19.3924,-50.3155,-21.3542,1013.24
225278,5.84226,11.3902,0.488795,34.057,-17.114,182.077,18.2011,-51.5491,-20.5415,1013.24
225284,5.67009,12.031,0.421842,34.477,-15.294,175.777,17.5618,-50.6856,-21.2065,1013.24
225290,5.60792,12.5428,0.292717,34.757,-13.614,170.527,16.8354,-50.5931,-21.5168,1013.24
225296,5.44054,13.4132,0.02012,34.477,-8.504,162.337,15.6731,-52.3201,-19.8914,1013.22
225302,4.90013,13.9296,0.044032,33.847,-3.884,158.207,15.4407,-52.2584,-19.7879,1013.22
225308,3.73322,14.4175,0.125333,32.797,0.246,156.177,14.8305,-52.3509,-22.8614,1013.23
225314,3.18803,14.7235,0.067944,32.657,1.366,157.787,13.2614,-53.3378,-19.2412,1013.23
225320,2.705,15.1779,-0.142482,32.727,3.606,164.017,12.6512,-52.8444,-19.7584,1013.26
225326,2.34632,15.3596,-0.175958,32.657,6.826,170.247,12.1863,-52.135,-19.5811,1013.26
225332,1.96373,15.4361,-0.362472,31.677,10.396,181.727,10.9078,-52.1659,-20.9257,1013.26
225338,2.05938,15.2783,-0.510726,31.117,13.476,189.287,10.2686,-53.677,-17.9852,1013.26
225344,2.41806,15.1348,-0.730717,30.627,20.476,197.337,9.57121,-52.3818,-19.0639,1013.26
225350,2.51849,14.977,-0.878971,29.717,26.986,199.927,7.88592,-52.6593,-19.3299,1013.24
225356,2.24589,14.6948,-0.898101,28.527,37.766,199.507,6.9561,-53.8929,-18.7092,1013.24
225362,1.79157,14.3457,-0.831147,27.407,49.246,194.397,6.11346,-52.8752,-18.266,1013.28
225368,0.361629,13.4992,0.0392496,27.617,54.006,188.867,5.50326,-52.4126,-19.9209,1013.28
225374,-1.01092,13.3749,0.732698,31.397,54.846,178.157,3.70174,-53.3995,-19.4776,1013.26
225380,-1.88132,13.6236,0.9766,33.427,56.386,169.617,3.70174,-53.7696,-18.133,1013.26
225386,-3.29691,14.2883,1.17746,35.387,58.136,155.407,3.23684,-52.9677,-19.6697,1013.26
225392,-4.22469,14.6327,1.06268,34.127,57.086,145.607,2.77193,-52.6285,-19.4628,1013.23
225398,-5.34377,15.2496,0.704003,30.977,53.726,129.507,1.1738,-54.2013,-18.458,1013.23
225404,-6.01809,15.7374,0.383582,26.497,51.976,118.237,1.31909,-52.8135,-19.4037,1013.27
225410,-6.89805,16.2013,-0.31943,14.527,50.156,100.527,0.650783,-52.3509,-19.9652,1013.27
225416,-7.68237,16.1535,-0.864624,6.547,49.666,88.907,-0.133751,-54.1396,-18.0295,1013.31
225422,-8.99275,16.2587,-1.40504,-6.823,45.956,73.717,0.098704,-53.0602,-18.591,1013.31
225428,-9.63359,15.68,-1.64894,-15.783,43.436,65.807,0.127761,-52.1042,-18.6354,1013.29
225434,-10.7718,14.6614,-2.39499,-25.933,38.676,57.477,-0.0175235,-53.1219,-18.3103,1013.29
225440,-11.36,13.6236,-2.63889,-31.533,33.776,53.487,0.273046,-52.9677,-19.6106,1013.29
225446,-12.1874,11.7584,-2.68194,-33.493,22.506,48.867,-0.104693,-51.4566,-20.1869,1013.28
225452,-12.5413,10.4385,-2.50977,-30.553,11.866,45.787,-0.191863,-51.765,-20.2755,1013.28
225458,-12.4217,8.73596,-1.87849,-20.263,-7.174,38.787,-1.96433,-52.2584,-19.5072,1013.28
225464,-12.0296,7.88948,-1.13722,-8.993,-20.474,31.087,-1.17979,-52.0734,-20.2903,1013.28
225470,-10.9535,7.4495,-0.285954,9.697,-38.324,15.057,-1.61564,-51.7341,-21.0144,1013.28
225476,-9.97792,7.66471,0.101421,21.107,-46.234,2.317,-2.77792,-53.3686,-19.5663,1013.28
225482,-7.14674,9.05638,2.30611,33.707,-51.904,-18.613,-2.08055,-52.2584,-19.1673,1013.3
225488,12.0259,30.405,19.6806,164.537,-191.834,-136.493,-1.00545,-51.3949,-20.1869,1013.3
225494,5.81356,26.5361,-8.68863,-90.053,92.156,-160.713,-1.58659,-52.8444,-18.8275,1013.3
225500,-3.19648,-2.24921,-0.960272,-95.583,196.596,-178.143,0.0405907,-53.3995,-18.2807,1013.3
225512,0.835086,14.8431,2.66479,-28.803,-74.164,-169.603,2.24891,-52.4126,-19.847,1013.32
225518,11.7007,13.5949,0.091856,-59.393,-85.644,-167.013,2.39419,-53.307,-21.1769,1013.32
225524,14.8332,4.80961,0.503142,-58.903,5.076,-167.223,3.75986,-52.3201,-20.7632,1013.3
225530,9.48167,5.36437,4.01342,-5.143,75.566,-156.093,5.29987,-52.3818,-21.8714,1013.3
225536,2.45154,6.62693,5.04642,25.027,66.326,-142.653,5.50326,-53.5845,-19.389,1013.3
225542,1.1029,7.2869,5.3525,33.007,50.996,-151.683,6.7527,-52.5668,-19.0491,1013.3
225548,-0.250518,10.9072,4.10429,35.107,23.346,-159.243,6.98516,-52.5668,-21.5315,1013.28
225554,-1.40786,14.1305,1.35441,21.527,8.926,-160.713,7.53724,-53.7079,-17.9704,1013.28
225560,-0.89136,14.2501,0.249675,-5.493,-17.254,-151.193,8.37988,-53.7387,-18.9752,1013.28
225566,0.873346,13.6379,0.550966,-7.593,-26.354,-142.443,9.48404,-51.765,-21.1178,1013.28
225572,2.61892,15.2783,-3.42321,-12.423,-23.134,-125.083,10.5591,-53.0294,-20.6302,1013.28
225578,4.50797,13.021,-3.9971,-23.903,-9.274,-118.363,10.3267,-53.3686,-19.5367,1013.28
225584,4.47449,10.5341,-1.91675,-22.083,14.666,-113.883,10.5301,-52.1042,-20.8962,1013.28
225590,3.67105,10.4289,-0.969837,-17.393,21.526,-112.763,11.3437,-51.6416,-20.5858,1013.32
225596,3.31715,9.54897,0.340541,-13.053,25.376,-112.273,12.041,-53.3378,-19.5515,1013.32
225602,2.84369,8.78379,1.63657,-5.983,28.526,-111.223,12.5059,-52.0425,-20.2312,1013.28
225608,1.4281,8.57814,3.36302,3.607,25.446,-109.893,12.8837,-50.7164,-20.8518,1013.28
225614,0.849434,8.34381,3.3678,8.227,13.126,-109.123,13.1452,-52.9986,-20.5267,1013.28
225620,-5.9607,21.4285,-3.39451,68.497,56.806,-87.003,13.7554,-52.9677,-19.0343,1013.29
225626,-3.12474,17.5643,-0.271606,19.287,26.076,-47.873,14.4237,-51.7033,-20.0391,1013.29
225632,-0.881795,12.1362,-0.43899,-8.363,-5.144,-28.553,15.4988,-52.4434,-19.9652,1013.28
225638,4.40276,7.86078,-0.965054,2.767,-5.284,-32.683,14.4237,-53.3686,-18.5024,1013.28
225644,4.37885,9.20942,-0.152046,10.957,12.496,-33.733,15.2082,-51.2407,-19.2116,1013.25
225650,-0.030528,11.1941,2.29176,5.777,20.196,-28.413,14.9467,-51.8575,-17.9409,1013.25
225656,-0.824406,9.97939,2.80826,-1.013,2.206,-23.513,15.2082,-53.1836,-19.1673,1013.28
225662,2.06416,8.91291,0.704003,7.737,-12.564,-16.933,14.9467,-52.2584,-19.4628,1013.28
225668,3.67583,9.85983,-0.91723,9.697,-6.684,-16.793,15.9056,-50.7781,-20.1573,1013.31
225674,2.94412,9.98417,-0.443773,4.657,3.326,-17.423,15.9637,-52.4743,-19.3594,1013.31
225680,2.44676,9.76418,-0.0563984,2.487,3.606,-16.863,16.3705,-52.5976,-19.4628,1013.31
225686,1.79157,9.56332,0.680091,1.227,1.296,-14.903,15.9928,-50.7781,-20.5563,1013.28
225692,2.19807,9.92678,0.374018,0.947,0.316,-12.803,16.6029,-51.5183,-19.7584,1013.28
225698,2.35589,9.57288,0.684874,0.107,-2.554,-10.493,16.8935,-53.3686,-18.2364,1013.31
225704,2.18372,9.55854,0.890517,1.297,-3.114,-9.513,15.5569,-51.5183,-19.8766,1013.31
225710,2.85326,9.44854,0.47923,2.557,-4.934,-10.283,15.7312,-51.6416,-19.0787,1013.3
225716,3.02064,9.26681,0.426624,4.237,-4.864,-10.073,15.2373,-53.0911,-21.1917,1013.3
225722,2.46588,9.4868,0.704003,5.847,-3.534,-11.683,16.6029,-51.6725,-19.6993,1013.29
225728,3.02543,9.4055,0.268805,5.777,-4.794,-13.013,16.1962,-50.8706,-20.7484,1013.29
225734,2.64762,9.4055,0.436189,7.107,-6.754,-11.823,16.0218,-52.3201,-18.2068,1013.29
225740,3.01108,9.54897,0.130115,6.477,-6.894,-13.783,16.0509,-52.2892,-18.7831,1013.27
225746,3.50367,9.69244,-0.152046,6.407,-7.244,-15.603,16.109,-50.9015,-19.5958,1013.27
225752,2.98238,9.77853,-0.242912,4.727,-4.094,-17.143,16.3996,-51.0248,-19.4481,1013.29
225758,2.81978,9.83592,-0.0803104,3.187,-7.174,-17.143,16.2543,-53.307,-18.6649,1013.29
225764,2.5711,9.91722,-0.228565,1.087,-6.544,-18.473,16.7192,-51.1173,-19.8618,1013.28
225770,2.24111,9.812,0.0583792,-1.363,-10.464,-18.123,16.2252,-50.6239,-19.2264,1013.28
225776,2.42284,9.69244,0.0344672,-3.533,-11.794,-17.773,16.5158,-52.0425,-18.2364,1013.29
225782,2.47067,9.63027,-0.152046,-4.093,-11.164,-17.423,17.0969,-51.3949,-18.5763,1013.29
225788,2.06416,9.70679,0.144462,-5.563,-11.374,-16.373,17.678,-50.6547,-19.5515,1013.29
225794,2.21242,9.5155,0.244893,-6.263,-11.724,-15.603,16.3705,-52.5668,-19.0787,1013.29
225800,2.30807,9.33855,0.464883,-5.983,-12.074,-15.113,16.5739,-52.2276,-19.0048,1013.29
225806,2.53284,9.30507,0.292717,-5.493,-12.354,-15.113,17.3003,-50.994,-18.9161,1013.29
225812,2.62849,9.25246,0.192286,-3.813,-10.324,-15.463,17.4456,-51.2099,-19.9357,1013.29
225818,2.47067,9.37202,0.27837,-3.113,-8.924,-15.603,17.3584,-51.2715,-19.3299,1013.29
225824,2.28894,9.33376,0.522272,-2.413,-8.854,-15.533,17.155,-50.7473,-19.5072,1013.29
225830,2.3272,9.43419,0.421842,-1.993,-8.504,-15.183,17.9977,-51.3949,-21.3838,1013.3
225836,2.38937,9.38637,0.316629,-1.293,-8.714,-15.463,17.8233,-52.3818,-19.5515,1013.3
225842,2.37024,9.52028,0.154027,-1.013,-8.784,-15.603,16.8645,-51.1173,-19.6106,1013.29
225848,2.35589,9.65897,0.0392496,-2.763,-8.364,-15.533,16.5739,-50.4389,-20.6745,1013.29
225854,2.39415,9.60636,0.067944,-3.743,-9.064,-16.023,17.3875,-51.4874,-19.2412,1013.29
225860,2.41806,9.65897,-0.0468336,-5.073,-8.924,-16.443,17.9977,-51.8575,-19.3299,1013.27
225866,2.41328,9.65418,-0.0420512,-6.053,-9.274,-16.653,18.0848,-49.9454,-20.8518,1013.27
225872,2.4085,9.55854,0.0727264,-7.033,-9.204,-17.143,17.8814,-50.8398,-19.9209,1013.26
225878,2.34632,9.54419,0.0966384,-7.383,-8.714,-17.213,17.8233,-51.5491,-20.2017,1013.26
225884,2.24589,9.63505,0.044032,-8.853,-8.574,-17.283,17.2422,-50.9015,-20.2903,1013.28
225890,2.23155,9.63505,0.0296848,-9.903,-9.064,-17.283,17.7071,-49.7912,-20.5563,1013.28
225896,2.15025,9.65418,0.101421,-11.513,-10.464,-17.213,17.5037,-51.8267,-20.6597,1013.3
225902,2.29372,9.61114,0.125333,-12.563,-10.254,-17.283,17.9977,-50.7164,-20.2312,1013.3
225908,2.11677,9.45811,0.35967,-13.543,-9.624,-17.563,17.7652,-49.452,-22.2113,1013.3
225914,2.2985,9.61114,0.201851,-13.333,-10.954,-17.493,17.649,-51.0248,-20.1721,1013.26
225920,2.36067,9.60636,0.0296848,-13.683,-10.044,-17.703,17.4747,-50.6239,-19.5811,1013.26
225926,2.17416,9.49158,0.197069,-13.893,-7.384,-16.863,17.5618,-50.223,-20.7632,1013.28
225932,2.22198,9.4868,0.455318,-14.663,-8.014,-17.633,17.7071,-50.0071,-20.4381,1013.28
225938,1.87287,9.35289,0.828346,-14.663,-8.364,-17.703,17.678,-51.3332,-19.9505,1013.29
225944,2.44676,9.70679,-0.171176,-14.243,-9.484,-17.773,17.7943,-49.8221,-20.9405,1013.29
225950,2.12155,9.57288,0.512707,-16.133,-5.494,-17.843,17.9686,-50.1921,-20.3347,1013.27
225956,2.36545,9.36246,0.12055,-15.153,-7.034,-18.473,17.3294,-50.6239,-21.1769,1013.27
225962,2.04982,9.50115,0.25924,-12.423,-5.424,-17.283,17.649,-49.5445,-21.0144,1013.28
225968,1.81548,9.31463,0.660962,-13.893,-7.454,-18.473,18.2592,-49.1744,-21.1621,1013.28
225974,1.99243,9.47245,0.340541,-14.173,-9.904,-18.613,18.0848,-50.5005,-20.4381,1013.28
225980,1.95895,9.41985,0.493578,-13.403,-8.574,-17.563,18.5788,-50.1305,-20.8814,1013.26
225986,1.68635,9.46767,1.21572,-14.873,-7.944,-18.333,18.695,-49.3286,-21.6497,1013.26
225992,2.26024,9.52984,-0.0420512,-13.893,-8.714,-18.193,18.2592,-49.8837,-23.2308,1013.28
225998,2.70979,9.72114,-0.252477,-11.933,-7.944,-18.193,18.7532,-50.7781,-21.3985,1013.28
226004,1.99243,9.4055,0.871387,-14.523,-6.474,-20.223,19.189,-49.637,-21.3394,1013.26
226010,2.73848,10.2711,0.15881,-13.963,-7.804,-22.533,18.8113,-48.9277,-22.5807,1013.26
226016,2.42763,9.99852,0.723133,-15.853,-7.104,-23.793,19.4215,-49.3595,-20.246,1013.3
226022,2.41328,9.65897,0.440971,-17.113,-11.304,-28.343,18.9856,-50.0996,-20.6154,1013.3
226028,3.03021,10.3476,0.110986,-13.473,-8.574,-28.413,19.7701,-49.2669,-22.9501,1013.3
226034,2.5424,10.1802,1.53136,-20.403,-9.624,-32.753,18.9565,-49.5445,-22.3295,1013.31
226040,2.83413,10.1563,-0.711587,-18.723,-9.134,-33.663,19.4215,-49.8837,-20.3494,1013.31
226046,1.98286,9.22377,0.981382,-17.883,-6.964,-35.343,19.8283,-48.5885,-22.3147,1013.31
226052,1.76287,9.70679,0.0296848,-15.923,-7.944,-35.903,19.8573,-49.2053,-22.6841,1013.31
226058,2.18372,9.54419,0.73748,-6.893,-9.134,-35.623,19.7992,-48.681,-22.1226,1013.3
226064,5.54097,12.7962,4.63992,-0.173,-23.904,-47.593,19.9154,-48.2184,-22.6102,1013.3
226070,9.0656,14.7379,1.07703,-14.033,-19.004,-60.263,20.7,-48.0642,-21.9009,1013.27
226076,5.13446,10.0703,1.14398,-27.893,22.576,-63.343,20.8452,-49.7295,-21.3542,1013.27
226082,2.09764,6.7704,1.847,-14.523,30.556,-69.643,20.3222,-48.7735,-22.2556,1013.27
226088,2.24111,10.7111,1.62222,11.237,6.826,-77.903,21.1067,-47.1698,-23.0535,1013.31
226094,3.85756,12.734,2.13872,5.497,-4.654,-85.463,20.9324,-48.4651,-22.7728,1013.31
226100,5.63662,10.8785,2.27263,3.677,8.366,-87.703,21.6879,-48.8044,-21.2656,1013.27
226106,4.6084,9.88374,3.50171,14.387,15.996,-98.553,22.6758,-46.8615,-23.3195,1013.27
226112,3.6567,11.0315,2.49262,22.297,11.516,-106.673,22.3852,-48.1259,-22.3295,1013.3
226118,3.4128,10.912,2.39697,23.207,13.476,-115.703,23.4894,-48.8044,-20.7927,1013.3
226124,3.89104,12.2893,1.24441,33.427,9.136,-125.153,23.3732,-47.1082,-22.093,1013.29
226130,3.6567,12.7819,1.92352,29.997,1.856,-131.173,24.3902,-47.3549,-21.4577,1013.29
226136,4.35493,11.7393,0.622702,31.047,2.066,-142.233,25.0585,-47.6016,-21.103,1013.28
226142,4.38841,13.0927,0.63705,34.967,2.206,-150.633,25.9592,-46.5839,-20.3642,1013.28
226148,4.19233,14.1162,0.364453,31.747,-5.634,-164.073,26.7728,-46.0288,-22.6989,1013.28
226154,4.86187,13.7814,0.000990396,25.587,-10.814,-172.333,27.5864,-47.5091,-20.8518,1013.28
226160,5.67009,13.4084,0.321411,20.967,-9.764,-187.943,27.9641,-45.8746,-21.4429,1013.28
226166,5.26359,13.3892,0.0392496,21.247,-9.064,-199.353,28.1675,-44.0242,-21.1326,1013.33
226172,4.47928,14.0779,-0.314648,24.047,-8.854,-215.453,30.0853,-44.826,-20.9257,1013.33
226178,4.36928,13.9296,-0.993749,21.667,-14.524,-228.403,31.3057,-45.3503,-19.9209,1013.26
226184,4.62753,15.0344,-1.99805,25.797,-20.894,-246.253,31.9449,-43.9625,-20.3347,1013.26
226190,5.5601,17.4208,-2.4189,19.007,-25.584,-265.923,33.1072,-42.9756,-20.2608,1013.3
226196,6.60266,17.6982,-2.75367,2.837,-25.304,-281.113,34.0661,-43.5308,-19.2708,1013.3
226202,6.59788,16.1009,-1.38112,-2.343,-21.174,-303.443,35.1993,-40.9094,-20.0096,1013.3
226208,6.58353,15.5891,-0.721152,-0.243,-22.924,-319.263,35.577,-39.3366,-20.8814,1013.28
226214,5.98573,17.7364,1.01964,13.967,-23.764,-337.953,37.5819,-39.7375,-19.847,1013.28
226220,9.02734,19.482,1.62222,13.337,-33.004,-353.913,39.5287,-37.6712,-19.123,1013.3
226226,10.6007,18.0664,2.26785,1.787,-0.104,-385.903,38.9476,-36.6843,-20.0243,1013.3
226232,7.2722,18.1286,3.60692,15.157,21.666,-403.473,41.1559,-34.9573,-19.8027,1013.25
226238,4.2019,19.1759,2.53088,25.307,14.176,-434.133,42.8703,-34.7723,-20.0391,1013.25
226244,4.47449,18.5877,1.77526,18.937,-2.624,-441.623,44.3231,-31.9042,-20.4085,1013.27
226250,0.476406,18.1095,3.82691,61.707,17.606,-431.403,45.1076,-29.9613,-20.0391,1013.27
226256,2.45154,23.6666,2.81782,75.147,-19.004,-435.603,45.7759,-29.0361,-18.5024,1013.27
226262,10.6916,22.8153,0.13968,31.537,-40.844,-451.283,47.1416,-27.124,-20.2903,1013.28
226268,10.1416,24.494,-1.61068,41.057,1.156,-453.173,47.0835,-23.3307,-21.0735,1013.28
226274,6.90395,30.6011,-4.53751,28.807,13.966,-458.353,49.2046,-22.4981,-17.8374,1013.26
226280,6.68874,26.6939,-5.15444,-2.763,18.446,-463.673,49.7858,-19.3216,-18.7388,1013.26
226286,6.49267,18.4203,0.436189,-3.043,10.956,-458.633,49.379,-16.731,-19.123,1013.27
226292,6.89439,14.0062,0.546184,7.597,3.116,-439.383,50.5122,-15.6208,-18.5467,1013.27
226298,6.11486,14.2022,-3.88232,36.997,10.746,-416.143,51.1805,-13.6162,-16.4632,1013.22
226304,7.46828,14.3505,-3.19844,29.157,-24.184,-412.433,50.3669,-11.2415,-16.9952,1013.22
226310,13.5802,2.65753,-11.5868,-29.503,-46.024,-372.183,50.5703,-9.02108,-17.734,1013.23
226316,11.6385,-7.17986,-13.0789,-44.903,26.286,-349.083,51.8198,-7.94169,-17.0395,1013.23
226322,-20.0783,11.1224,-1.51503,27.687,139.686,-208.943,51.936,-6.76978,-16.0938,1013.23
226328,-19.2749,13.1453,7.54762,32.237,-96.284,-53.753,50.1054,-5.81375,-17.8227,1013.2
226334,5.59357,12.4854,-5.41747,15.647,-99.994,17.367,51.1515,-6.02963,-17.2907,1013.2
226340,6.49267,8.9177,-4.46099,-3.743,8.296,109.977,51.0643,-6.89314,-16.9065,1013.22
226346,4.53666,7.46863,-0.831147,5.077,-1.644,149.947,50.4541,-7.60245,-18.2807,1013.22
226352,8.89821,7.76035,-2.67715,-0.173,-19.214,183.547,50.5413,-7.69497,-18.266,1013.22
226358,10.6534,6.35911,-3.35625,-4.443,-1.014,192.087,51.7035,-9.85376,-16.744,1013.22
226364,9.65383,5.4648,-1.81154,-0.173,25.656,193.067,50.3088,-10.0388,-18.3103,1013.19
226370,8.23346,5.42654,-1.28069,-0.173,30.906,190.267,50.0764,-11.3341,-18.0443,1013.19
226376,7.17177,4.48441,-0.998531,-6.683,28.106,184.807,50.8318,-12.691,-16.0199,1013.19
226382,6.92308,3.22186,-1.37156,-8.223,30.486,179.977,50.8899,-14.1405,-16.9656,1013.22
226388,6.03834,2.75318,-1.36678,-10.743,32.726,180.327,49.873,-13.462,-18.7536,1013.22
226394,5.36402,2.57145,-1.36678,-12.563,36.716,181.517,51.0933,-16.2376,-16.4337,1013.23
226400,4.07277,3.24099,-1.03201,-15.293,35.736,187.607,50.5703,-17.0394,-15.3107,1013.23
226406,3.75713,3.84835,-0.993749,-18.513,33.776,194.117,49.1756,-17.1011,-16.8622,1013.22
226412,3.37454,4.74744,-1.13244,-24.113,34.336,207.837,50.0473,-17.9338,-16.1677,1013.22
226418,2.93934,5.24959,-1.24722,-29.083,34.826,219.807,50.0764,-19.4449,-15.0004,1013.21
226424,2.37502,5.55088,-1.56764,-38.393,34.686,241.927,48.5945,-20.3701,-16.4041,1013.21
226430,2.16938,5.49828,-1.72546,-44.273,33.916,257.817,48.1877,-21.1719,-17.5862,1013.2
226436,2.04982,5.56523,-1.91197,-52.393,31.816,280.987,48.3911,-23.4849,-14.3207,1013.2
226442,2.1072,5.59871,-1.93588,-57.293,30.276,294.077,47.6937,-23.6083,-16.6258,1013.2
226448,1.84896,5.12525,-1.51503,-60.023,26.216,309.617,46.8801,-25.1811,-17.9704,1013.24
226454,1.71027,4.84787,-1.2233,-57.573,20.966,317.387,46.9382,-27.2474,-15.1629,1013.24
226460,1.95895,4.42224,-0.898101,-51.623,13.406,326.067,46.5895,-28.8202,-15.4732,1013.22
226466,2.21242,4.10182,-0.773758,-42.033,8.016,331.667,44.3812,-29.4678,-17.468,1013.22
226472,2.52806,4.14486,-0.735499,-34.543,4.726,334.257,44.4103,-31.1023,-18.2807,1013.18
226478,2.93456,4.7044,-0.931578,-24.253,0.036,337.827,44.0325,-33.1994,-17.0395,1013.18
226484,3.35063,5.20177,-1.16592,-17.813,-1.294,339.857,43.1027,-33.1378,-17.9852,1013.2
226490,3.85756,6.42128,-1.37156,-10.113,-1.224,342.937,41.7371,-34.7414,-17.7636,1013.2
226496,3.92452,7.30603,-1.35721,-5.843,0.106,345.457,40.8944,-37.3628,-15.9017,1013.2
226502,3.82887,8.73118,-1.35243,-0.663,1.296,350.357,39.9936,-37.517,-17.9556,1013.22
226508,3.94365,9.51071,-1.40025,1.437,2.416,353.997,37.5529,-37.7946,-18.8422,1013.22
226514,4.35493,10.6298,-1.63937,3.747,6.126,357.847,36.5649,-40.601,-17.734,1013.2
226520,4.59884,11.4954,-1.79719,3.817,8.436,358.547,35.8966,-41.6187,-18.3989,1013.2
226526,4.91926,12.868,-2.04588,2.907,10.816,355.537,33.8917,-42.3588,-17.9113,1013.21
226532,4.84274,13.8483,-2.285,1.927,11.586,351.407,32.4098,-43.9008,-18.3842,1013.21
226538,4.23059,15.1061,-2.34239,-0.663,12.356,343.357,31.8868,-45.1961,-16.6405,1013.22
226544,3.5228,15.5891,-2.19891,-1.923,11.516,337.687,29.8528,-45.0419,-17.867,1013.22
226550,2.3272,15.9143,-1.50547,-1.433,7.106,330.197,28.4,-46.2755,-19.2264,1013.22
226556,1.58114,15.8761,-0.91723,1.647,2.066,326.207,26.4823,-48.2492,-17.6306,1013.21
226562,0.873346,16.1391,-0.0659632,10.047,-8.364,321.307,25.4653,-48.1876,-18.3251,1013.21
226568,0.705962,16.7034,0.469666,18.797,-16.414,318.367,24.2158,-48.5885,-18.4433,1013.19
226574,0.490754,18.3103,1.12964,35.107,-28.244,316.827,22.5886,-50.0071,-18.1773,1013.19
226580,0.452494,19.5442,1.53136,45.747,-35.804,318.647,21.1649,-51.0557,-18.4433,1013.19
226586,1.44245,21.6963,1.21572,57.927,-44.834,325.787,19.9154,-50.0996,-19.256,1013.19
226592,2.75283,23.4084,0.63705,62.197,-44.064,333.067,17.8524,-50.6856,-17.9852,1013.23
226598,4.45536,26.0196,-0.233347,59.607,-30.064,345.177,15.0629,-52.0117,-16.4041,1013.23
226604,5.0149,27.3969,-0.453338,46.797,-5.144,356.307,13.6682,-51.2715,-18.2364,1013.22
226610,4.06321,27.1865,1.06747,38.327,12.146,360.927,12.5059,-51.765,-18.3842,1013.22
226616,1.26072,27.4256,1.57918,28.947,30.066,362.957,9.16442,-52.8444,-15.5766,1013.22
226622,-0.776582,27.5212,1.847,24.047,39.446,361.137,8.93196,-52.6902,-16.8326,1013.21
226628,-4.8751,28.0903,2.59783,17.537,46.726,354.487,7.1595,-51.1482,-17.2168,1013.21
226634,-8.13191,28.7168,3.37737,14.387,45.536,348.957,4.74779,-52.6593,-16.8917,1013.25
226640,-12.4648,29.4246,3.90343,11.097,38.536,340.767,3.00438,-52.7827,-16.345,1013.25
226646,-14.349,29.5346,3.71213,7.457,32.096,334.187,1.1738,-51.2715,-16.6405,1013.26
226652,-15.6642,29.0181,1.81352,-5.913,24.116,319.627,-0.133751,-51.5799,-17.6601,1013.26
226658,-15.8698,28.6164,-1.3333,-22.503,24.116,304.717,-1.76093,-51.9809,-16.0495,1013.27
226664,-15.9368,29.4246,-9.84119,-62.473,28.666,271.327,-2.57452,-50.7781,-18.133,1013.27
226670,-19.1984,29.5442,-13.8775,-104.403,32.516,243.467,-2.95226,-50.6856,-18.1625,1013.27
226676,-26.6255,20.8498,-8.59776,-161.383,24.186,196.707,-4.60849,-50.0071,-18.4728,1013.27
226682,-31.2692,11.3185,-0.668546,-153.753,17.256,162.197,-4.78283,-49.6679,-19.4185,1013.27
226688,-39.5618,3.28881,5.93117,-76.333,-8.364,113.687,-5.53831,-49.0511,-21.6497,1013.28
226694,-44.2056,3.07838,6.10333,-23.063,-60.724,87.857,-7.427,-49.9454,-18.99,1013.28
226700,-40.0783,4.08747,5.42423,61.567,-159.774,51.597,-8.18248,-49.8529,-19.256,1013.32
226706,-32.6848,9.21899,2.01438,101.327,-185.464,20.447,-7.33983,-48.7427,-18.7536,1013.32
226712,-24.3156,16.2204,-0.281171,106.997,-164.324,-35.833,-7.04926,-48.4651,-18.0443,1013.27
226718,-20.7288,18.8747,-0.702022,99.717,-144.164,-75.243,-8.26965,-50.0688,-17.01,1013.27
226724,-16.8933,22.0215,-1.38591,81.517,-115.324,-127.183,-7.45606,-49.5137,-16.6997,1013.27
226730,-14.5547,22.7101,-2.17022,62.337,-95.794,-153.363,-5.91605,-48.8044,-16.4928,1013.28
226736,32.7193,65.7422,31.7848,259.737,-598.044,-277.683,-5.85793,-50.994,-13.5966,1013.28
226742,24.7136,50.9741,-21.6824,-307.893,-44.694,-261.653,-4.78283,-50.1921,-16.3302,1013.29
226748,31.3707,-17.4477,-19.0425,-328.123,235.096,-244.713,-2.98131,-49.3595,-20.0835,1013.29
226754,2.88674,-9.17412,1.7657,-70.033,293.126,-194.243,-1.73187,-50.6547,-18.0295,1013.23
226760,-0.0640048,-1.50316,7.75326,33.567,118.406,-229.243,-0.0175235,-50.8398,-18.2955,1013.23
226766,16.7366,4.52267,-2.67715,41.967,24.256,-253.253,0.447385,-49.9146,-18.8718,1013.27
226772,21.0025,6.92822,-5.01575,30.347,128.556,-269.353,2.71381,-50.6856,-18.9309,1013.27
226778,9.69687,6.66997,2.40176,8.017,328.546,-253.953,3.70174,-52.0425,-18.9752,1013.28
226784,-2.82345,6.0626,10.0727,31.747,364.526,-236.173,5.85194,-51.0865,-19.4185,1013.28
226790,-15.8459,10.2711,14.176,46.657,252.036,-243.243,7.65346,-50.8398,-17.7636,1013.28
226796,-15.2768,10.2663,14.396,43.157,136.256,-236.243,8.52517,-52.5668,-16.1973,1013.26
226802,-9.00709,17.5069,9.55623,52.887,25.096,-234.773,9.54215,-51.7033,-17.0691,1013.26
226808,-6.78806,21.3998,5.81161,19.427,-0.454,-222.663,11.024,-50.5005,-18.3251,1013.26
226814,-5.77897,16.8421,5.63944,-3.673,-29.994,-199.143,11.8086,-51.5491,-16.4041,1013.26
226820,-4.23904,12.5858,6.11768,-1.223,-59.324,-186.543,12.8546,-52.0425,-16.0347,1013.28
226826,0.0029488,10.8402,0.187504,12.357,-95.094,-180.733,13.8135,-50.5622,-17.8818,1013.28
226832,3.70453,10.0416,-1.6872,15.367,-89.984,-193.543,14.3656,-51.0557,-17.3203,1013.31
226838,0.634226,21.3711,-14.0162,77.947,2.486,-186.263,15.2373,-51.9192,-16.7588,1013.31
226844,-4.87988,32.7101,-12.9593,77.387,75.426,-78.323,15.7312,-50.8706,-16.212,1013.31
226850,-7.21369,23.0832,-3.34191,-64.223,52.046,-47.873,16.109,-49.637,-17.4089,1013.26
226856,1.29898,4.67092,3.27693,-85.503,-5.774,-53.823,16.4286,-51.4257,-16.7588,1013.26
226862,5.61749,3.68575,2.5261,10.187,11.936,-53.333,16.1962,-51.0248,-16.7144,1013.28
226868,1.31811,12.0263,2.5261,21.387,28.806,-49.413,16.138,-50.0996,-17.1725,1013.28
226874,-3.80862,13.4945,3.34867,-15.083,28.806,-34.153,16.8063,-51.4257,-16.9656,1013.31
226880,-3.16778,8.68336,3.07129,-7.243,-13.544,-19.383,16.4867,-50.9631,-15.887,1013.31
226886,1.57636,9.28594,1.21572,7.527,-23.484,-13.433,16.8645,-49.9454,-18.7684,1013.28
226892,2.73848,10.3668,0.627485,-2.973,-12.424,-13.433,16.8354,-50.0688,-17.2168,1013.28
226898,2.25546,9.20464,0.3788,-4.303,-10.324,-13.223,16.4577,-50.9323,-16.4928,1013.28
226904,2.19807,10.1898,-0.725934,0.737,-10.814,-10.633,16.5158,-50.8089,-18.6649,1013.28
226910,2.55197,10.5102,-0.520291,-4.653,-9.064,-10.773,17.2422,-49.0819,-17.7636,1013.28
226916,2.74326,9.34811,0.407494,-7.943,-5.774,-11.263,16.4286,-51.3024,-17.2907,1013.27
226922,2.17416,9.27637,1.0866,-6.893,-4.304,-12.103,17.2713,-50.4389,-16.8917,1013.27
226928,2.14546,9.52984,1.24441,-5.913,-4.304,-11.963,17.3294,-48.866,-18.2807,1013.25
226934,2.30328,9.56332,1.12964,-4.443,-5.844,-11.193,16.7482,-50.2538,-16.5814,1013.25
226940,2.73848,9.52506,0.809216,-1.293,-4.094,-11.963,17.9105,-50.6856,-17.1725,1013.26
226946,2.51849,9.63027,0.713568,-0.103,-4.164,-12.453,17.9686,-49.1744,-18.4285,1013.26
226952,2.58544,9.44376,0.469666,0.737,-4.024,-13.293,17.9396,-49.8529,-16.7883,1013.27
226958,2.36067,9.69723,0.507925,1.367,-5.214,-12.943,17.3003,-50.0996,-16.5814,1013.27
226964,2.75283,9.72592,0.0775088,-0.173,-6.474,-13.503,17.3294,-49.2361,-17.0247,1013.27
226970,2.82935,9.6494,0.0583792,-1.153,-5.774,-14.623,16.6901,-49.5445,-18.1477,1013.28
226976,2.70979,9.52506,0.220981,-1.293,-4.654,-15.533,17.4747,-50.6239,-16.4485,1013.28
226982,2.49458,9.58723,0.25924,-1.433,-4.864,-16.303,16.9516,-49.6679,-16.744,1013.28
226988,2.26981,9.69244,0.24011,-1.993,-6.474,-16.723,17.7362,-49.2978,-17.7488,1013.28
226994,2.4898,9.63027,-0.0468336,-3.183,-7.874,-17.073,17.9686,-50.5314,-17.9556,1013.27
227000,2.47067,9.7307,-0.0898752,-4.793,-6.404,-17.563,17.6199,-50.408,-16.9509,1013.27
227006,2.4611,9.72592,-0.137699,-6.543,-6.054,-18.053,18.1139,-48.5885,-18.0148,1013.28
227012,2.27937,9.7594,-0.11857,-8.993,-5.914,-18.333,17.678,-49.6679,-16.5223,1013.28
227018,2.39893,9.78331,-0.166394,-12.423,-7.594,-18.893,17.9396,-50.6856,-17.1577,1013.28
227024,2.48023,9.58245,-0.142482,-13.613,-6.264,-18.893,17.7362,-49.0202,-17.8818,1013.25
227030,2.17894,9.47245,0.264022,-14.663,-4.164,-18.753,17.8524,-49.1436,-17.6601,1013.25
227036,1.93982,9.43419,0.47923,-14.943,-4.724,-18.263,17.3294,-49.6987,-16.9361,1013.29
227042,2.11199,9.46289,0.374018,-15.223,-6.824,-17.493,17.7362,-49.637,-17.5124,1013.29
227048,2.26981,9.54419,0.287934,-15.363,-7.244,-17.563,18.1139,-48.1259,-18.458,1013.27
227054,2.26024,9.6494,0.197069,-16.553,-6.614,-17.843,18.3754,-49.9454,-18.0295,1013.27
227060,2.24111,9.66853,0.254458,-17.603,-5.984,-17.633,18.4626,-49.7912,-18.7979,1013.28
227066,2.40371,9.67331,0.27837,-17.813,-4.584,-17.423,18.4045,-47.7866,-18.7684,1013.28
227072,2.17894,9.74505,0.110986,-19.423,-4.794,-18.053,18.7822,-49.0202,-18.5024,1013.26
227078,2.04025,9.54897,0.3788,-20.613,-4.654,-17.913,18.6369,-49.7295,-17.0543,1013.26
227084,2.06416,9.65897,0.192286,-21.243,-5.634,-18.123,19.4505,-49.2053,-18.5319,1013.26
227090,2.3798,9.74027,0.493578,-20.963,-6.194,-17.633,18.8403,-48.681,-18.7979,1013.28
227096,2.06416,9.30029,0.866605,-22.503,-5.494,-18.893,19.2762,-49.452,-17.1725,1013.28
227102,1.98286,9.35768,0.61792,-21.733,-5.004,-19.243,18.7822,-48.8352,-18.6501,1013.29
227108,2.50414,9.79287,0.244893,-18.653,-4.864,-19.593,19.0437,-47.8175,-20.1278,1013.29
227114,2.2985,9.80722,0.95747,-19.633,-7.314,-21.973,17.9686,-48.7118,-19.4776,1013.26
227120,2.34632,9.83113,0.283152,-22.713,-11.304,-23.583,19.2181,-49.1436,-19.1082,1013.26
227126,2.97282,10.1372,0.27837,-22.153,-10.394,-25.053,19.0728,-47.3549,-19.4037,1013.3
227132,1.95895,9.49158,1.28267,-26.843,-7.944,-27.223,19.5377,-48.0334,-18.4433,1013.3
227138,1.73418,9.53941,0.59879,-24.113,-10.884,-25.683,18.9856,-49.2978,-18.724,1013.3
227144,1.54288,9.1616,1.44528,-23.343,-10.744,-25.333,19.9445,-47.5399,-18.7979,1013.28
227150,1.67679,9.38637,1.23963,-26.073,-13.124,-26.733,19.0147,-47.6633,-21.1917,1013.28
227156,1.84896,9.8407,0.431406,-24.323,-15.994,-26.453,19.7992,-48.5885,-19.4776,1013.27
227162,1.62896,9.46767,0.866605,-25.093,-13.754,-26.733,20.1769,-48.4034,-17.4976,1013.27
227168,1.35637,10.0368,1.34006,-26.633,-18.794,-27.013,19.6539,-46.9848,-20.2017,1013.25
227174,1.95417,10.5581,0.091856,-27.193,-24.604,-27.223,19.9735,-47.91,-19.5515,1013.25
227180,0.954646,9.02769,0.646614,-34.333,-26.004,-27.643,19.4796,-48.5885,-18.0295,1013.3
227186,1.60505,8.37728,-0.31943,-26.353,-26.144,-25.613,20.1769,-47.0773,-20.512,1013.3
227192,2.95369,9.2142,2.35393,-14.103,-28.314,-31.633,20.1479,-47.6633,-21.1178,1013.3
227198,5.08186,11.4237,2.46871,-10.113,-29.644,-39.263,20.206,-48.3726,-20.1426,1013.27
227204,8.16172,12.8345,2.34437,-20.543,-20.824,-53.053,20.4094,-46.5531,-20.8814,1013.27
227210,6.14833,10.778,2.19133,-23.203,4.726,-58.093,20.8162,-46.8306,-21.5463,1013.27
227216,2.05938,7.73644,3.03303,-11.933,20.966,-65.583,21.3683,-48.0642,-21.3247,1013.27
227222,1.78678,9.69723,1.4931,2.837,8.996,-65.303,21.5717,-46.954,-20.1721,1013.29
227228,2.39893,10.9598,3.6404,-6.123,-6.614,-71.323,21.8041,-46.3063,-22.1817,1013.29
227234,4.64666,10.3715,1.62222,-0.593,-3.044,-69.923,21.746,-47.2624,-21.7236,1013.27
227240,3.95799,10.7637,2.77478,7.317,5.286,-82.453,22.4724,-47.8175,-22.226,1013.27
227246,3.53236,10.2424,2.94217,7.037,7.526,-88.963,22.5596,-46.3989,-20.7336,1013.28
227252,3.67105,11.1224,1.29702,18.307,7.176,-97.573,22.2981,-46.9231,-21.5759,1013.28
227258,3.29324,11.9258,2.47827,18.307,1.506,-103.803,23.8962,-47.6941,-20.4085,1013.28
227264,4.24494,11.108,2.58349,20.197,0.596,-112.693,24.0124,-46.7998,-20.2903,1013.29
227270,4.0106,10.7589,3.16694,24.887,4.726,-121.023,24.0705,-45.9979,-19.9209,1013.29
227276,3.79539,12.2558,2.51653,34.547,5.006,-130.823,25.0294,-46.954,-19.123,1013.27
227282,3.70453,12.4136,2.64088,33.357,-0.314,-140.413,25.8721,-45.9054,-19.6402,1013.27
227288,3.98191,11.3615,2.10525,35.177,0.666,-148.533,25.7849,-45.3503,-20.6893,1013.28
227294,4.25928,12.3849,2.04308,43.577,-1.084,-160.643,26.889,-45.7512,-18.9604,1013.28
227300,4.33102,13.2984,2.10525,44.697,-6.684,-170.513,26.9762,-45.6279,-18.1034,1013.25
227306,4.96708,13.9153,0.512707,45.887,-3.884,-183.113,27.9351,-44.1476,-19.8323,1013.25
227312,4.56058,14.1449,0.201851,45.397,-5.214,-194.313,28.8068,-43.7158,-19.2855,1013.25
227318,5.06273,15.35,0.680091,46.097,-7.384,-211.673,30.463,-44.6101,-15.9017,1013.3
227324,5.81356,15.4457,-0.281171,43.787,-12.704,-226.163,30.6374,-42.8214,-18.8275,1013.3
227330,6.41615,17.5404,-2.63411,42.667,-9.134,-249.543,31.7125,-42.4514,-18.5172,1013.27
227336,6.28702,18.2195,-2.98801,28.317,-12.214,-264.733,33.1072,-42.328,-17.3646,1013.27
227342,5.60792,19.1472,-3.03105,18.517,-8.644,-288.113,33.6593,-41.4337,-17.3203,1013.29
227348,6.25355,19.5442,-3.26539,10.747,-18.864,-300.783,34.3566,-39.9534,-18.9752,1013.29
227354,7.98956,17.1673,-3.45669,-7.453,-33.774,-333.193,36.3325,-40.2001,-19.0196,1013.27
227360,8.96517,15.1396,-1.54851,-4.583,-23.484,-353.913,37.4367,-38.2263,-17.9261,1013.27
227366,8.53475,17.7843,2.83217,25.657,-21.314,-377.923,38.5989,-36.4685,-18.5319,1013.27
227372,10.0603,21.2945,2.30132,26.147,-21.104,-399.343,39.8193,-35.2966,-19.0491,1013.27
227378,9.75904,20.5533,1.87091,18.237,3.046,-435.603,41.5337,-34.3714,-17.1577,1013.27
227384,6.63136,19.1855,1.21572,28.457,18.656,-455.763,41.7661,-31.0407,-18.3398,1013.24
227390,5.03882,19.5107,3.52562,34.967,-7.104,-483.623,42.5216,-29.9613,-18.266,1013.24
227396,2.33198,16.866,2.72218,48.057,-1.294,-479.423,44.6718,-29.0052,-16.8179,1013.22
227402,1.57636,26.0291,2.94695,112.107,-16.624,-473.123,45.1367,-26.8156,-16.478,1013.22
227408,6.84178,29.1329,1.78483,71.857,-56.454,-482.083,45.6597,-23.6083,-18.2068,1013.24
227414,6.36354,19.8503,2.74131,49.667,-12.704,-488.733,46.6477,-22.0663,-15.9904,1013.24
227420,2.51371,24.2405,2.91825,84.807,-43.294,-482.713,47.868,-19.3832,-17.2021,1013.24
227426,9.10386,27.899,-2.48108,66.187,-50.784,-487.893,47.2869,-16.7619,-16.877,1013.24
227432,9.27602,20.3046,-0.104222,59.397,-26.914,-480.893,48.7688,-14.7881,-17.3794,1013.24
227438,5.77531,15.197,-3.98275,84.667,-10.814,-452.473,49.6696,-13.3695,-17.3941,1013.22
227444,5.9666,16.9139,-2.53846,84.807,-47.144,-426.853,49.6114,-10.6864,-16.8179,1013.22
227450,10.8877,15.0631,-5.9244,43.157,-104.334,-404.313,48.8269,-8.52765,-18.4137,1013.23
227456,16.2918,-1.15882,-15.0205,-12.983,-70.804,-361.963,50.425,-6.67726,-16.6405,1013.23
227462,-0.805277,2.68623,-9.77902,20.827,70.456,-314.853,49.7858,-5.56703,-17.4237,1013.21
227468,-23.12,17.9803,6.3568,42.247,21.876,-119.553,48.856,-4.79604,-18.2364,1013.21
227474,-7.075,13.2984,3.48258,29.647,-158.934,-22.743,49.5243,-4.51848,-18.7092,1013.22
227480,11.6864,11.5863,-9.11905,-4.443,-71.574,88.907,49.6986,-5.41283,-18.266,1013.22
227486,8.85517,7.1769,-4.51838,-8.853,-7.454,150.087,48.2748,-6.09131,-18.266,1013.22
227492,7.90347,6.73692,-1.2233,0.527,-29.644,204.687,48.5654,-7.10902,-18.3842,1013.19
227498,11.2416,6.39737,-2.8015,-3.533,-28.454,223.587,49.408,-8.40429,-17.3941,1013.19
227504,12.0211,4.36007,-2.37108,2.417,4.026,233.597,48.5363,-9.08276,-19.4185,1013.17
227510,10.792,4.35528,-1.64416,8.367,17.046,234.157,48.362,-9.60704,-19.5367,1013.17
227516,9.24733,3.27446,-1.13244,7.737,23.346,232.687,49.2046,-12.3518,-18.6649,1013.21
227522,8.37693,2.36102,-1.18504,10.467,23.486,231.777,47.9261,-12.8761,-18.3103,1013.21
227528,7.55914,1.51454,-1.55329,11.027,27.406,232.967,47.0835,-13.277,-19.3299,1013.15
227534,6.63136,1.59584,-1.68241,13.407,30.416,235.837,48.362,-15.3432,-19.9505,1013.15
227540,5.43576,2.31798,-1.38591,12.357,32.376,244.237,48.1877,-16.6385,-18.1477,1013.15
227546,4.88578,3.25055,-1.3333,11.937,32.446,251.447,46.7348,-16.6693,-18.4876,1013.19
227552,4.37885,4.75701,-1.51503,5.987,32.166,263.627,47.0544,-18.273,-17.0986,1013.19
227558,4.17798,5.12047,-1.62024,0.877,34.966,277.697,46.6767,-20.4626,-18.8127,1013.19
227564,3.24063,5.78044,-1.63937,-7.103,33.916,287.637,46.2699,-20.3393,-17.2612,1013.19
227570,2.84848,5.9,-1.58677,-15.853,30.346,302.337,45.4854,-21.6654,-17.8818,1013.19
227576,2.69066,5.64175,-1.25678,-19.633,27.756,310.807,46.6767,-23.8858,-17.335,1013.19
227582,2.63327,5.35002,-0.69724,-21.103,22.576,320.817,44.6427,-24.5335,-16.9804,1013.21
227588,2.60936,5.17786,-0.443773,-20.473,18.516,325.647,44.4393,-25.7979,-18.7684,1013.21
227594,2.70022,4.95308,-0.23813,-16.693,12.216,330.547,43.5095,-27.6174,-17.7488,1013.2
227600,2.82456,4.84787,-0.113787,-12.633,8.366,332.227,43.0446,-29.0669,-18.3103,1013.2
227606,2.82456,5.09177,0.0822912,-5.353,1.856,334.397,41.9695,-29.1903,-18.0443,1013.2
227612,2.84848,5.42654,0.0631616,-1.083,-2.554,336.357,40.9816,-30.5164,-18,1013.15
227618,2.95369,6.0913,0.0105552,4.517,-7.384,340.697,40.9816,-32.6135,-17.5862,1013.15
227624,2.95369,6.73692,0.0535968,7.737,-9.834,344.407,38.9767,-32.7677,-19.123,1013.22
227630,3.03021,7.7747,0.0153376,11.097,-14.594,350.987,37.64,-34.3097,-18.6501,1013.22
227636,3.17846,8.46337,-0.0085744,13.057,-16.694,355.887,37.3495,-36.7152,-18.1625,1013.16
227642,3.23585,9.37202,0.110986,14.527,-18.584,363.587,35.9257,-36.6227,-18.3103,1013.16
227648,3.38411,9.922,0.220981,16.137,-20.544,368.347,34.037,-37.1469,-18.9604,1013.23
227654,3.62323,10.8785,0.350106,18.097,-23.834,373.667,33.8627,-39.7375,-17.6897,1013.23
227660,3.79061,11.4476,0.3788,19.567,-26.284,375.277,32.4679,-40.786,-18,1013.23
227666,4.13016,12.3897,0.388365,22.297,-28.874,373.947,30.5793,-41.4645,-19.2855,1013.18
227672,3.98669,13.2362,0.421842,23.697,-31.324,370.447,29.0683,-41.9579,-18.6206,1013.18
227678,3.848,14.4079,0.546184,26.497,-37.624,361.557,28.9521,-43.87,-19.4924,1013.19
227684,3.7667,15.3596,0.723133,29.157,-41.264,353.367,27.4702,-43.9008,-19.9505,1013.19
227690,3.54671,16.8134,1.17268,33.287,-47.844,339.717,25.7849,-44.3634,-21.0291,1013.2
227696,3.47497,17.7747,1.35919,36.927,-52.394,326.207,24.1287,-47.139,-19.6549,1013.2
227702,3.03977,19.7881,1.74178,43.437,-54.284,319.347,22.3271,-46.954,-19.6402,1013.18
227708,2.23155,22.251,2.13394,50.787,-55.964,315.917,21.4554,-46.4914,-19.9061,1013.18
227714,1.73418,23.9249,2.08612,54.077,-55.894,319.207,19.9154,-48.2492,-19.3742,1013.19
227720,1.41854,25.6465,1.87569,53.237,-55.404,330.477,17.9396,-48.9586,-19.0787,1013.19
227726,1.92547,26.3735,1.34963,51.347,-53.094,339.157,16.6029,-48.0642,-20.0982,1013.19
227732,2.51849,27.5117,1.06747,47.847,-39.584,349.657,15.092,-48.7427,-19.2855,1013.21
227738,1.71027,28.2864,1.40223,43.437,-25.864,354.837,12.6803,-50.5931,-18.6501,1013.21
227744,-0.819624,29.3146,2.06699,36.647,-7.944,360.577,10.7916,-49.0819,-20.3199,1013.26
227750,-2.59868,29.7164,2.07177,32.307,2.906,362.467,10.1233,-50.3463,-18.7831,1013.26
227756,-6.20939,30.3763,2.11481,25.027,19.076,362.397,7.65346,-51.4257,-19.0343,1013.25
227762,-9.12665,30.5485,2.04786,18.657,27.196,360.787,5.73572,-49.7604,-18.3398,1013.25
227768,-13.1008,29.965,1.60309,8.717,35.036,354.207,5.27081,-49.5753,-19.2855,1013.23
227774,-14.9373,29.3098,1.0579,1.857,38.046,345.317,2.77193,-51.6108,-18.9161,1013.23
227780,-16.2955,27.6504,-0.35769,-12.633,41.196,322.007,1.55154,-50.5622,-16.9213,1013.23
227786,-16.8072,26.23,-1.49112,-24.393,44.696,299.537,0.243988,-49.3595,-19.123,1013.25
227792,-17.9024,24.3457,-4.37012,-45.113,49.526,256.837,-1.67376,-49.7604,-19.3003,1013.25
227798,-19.1745,23.1597,-6.53655,-60.933,52.396,224.427,-2.34206,-50.8398,-18.7092,1013.24
227804,-23.6699,19.0612,-5.274,-80.043,55.826,175.217,-3.21377,-49.5137,-19.4185,1013.24
227810,-27.3285,14.4988,-1.72067,-77.803,56.316,144.137,-3.62056,-48.5576,-20.2755,1013.3
227816,-32.8856,8.93204,2.98521,-39.863,45.816,104.517,-4.75378,-50.1305,-20.4676,1013.3
227822,-36.3672,8.11425,3.95604,-3.603,22.996,83.797,-4.95717,-49.4212,-18.6058,1013.25
227828,-37.0224,8.95595,4.36254,48.337,-33.494,56.077,-4.75378,-48.7427,-20.2608,1013.25
227834,-32.6082,10.5772,3.13346,90.337,-63.384,19.747,-5.65454,-51.0865,-18.9309,1013.25
227840,-25.4681,14.6088,0.684874,100.277,-56.314,-11.753,-5.79982,-50.5931,-18.7536,1013.28
227846,1.0216,31.701,41.847,144.377,-126.664,-73.353,-5.53831,-48.681,-18.7684,1013.28
227852,-0.0592224,59.3146,-18.6217,309.087,-303.834,-325.773,-4.17264,-49.9454,-16.2268,1013.29
227858,6.93265,35.6561,-17.6652,-190.783,165.376,-295.113,-3.24282,-51.4874,-15.887,1013.29
227864,4.53666,-3.9374,-6.47438,-306.773,280.666,-306.243,-0.540545,-50.1613,-19.6549,1013.24
227870,-1.98175,-8.97326,1.56962,-109.653,208.776,-254.793,0.592669,-50.0688,-19.1821,1013.24
227876,-5.30552,6.78474,5.81161,11.937,66.606,-254.653,1.72588,-50.8706,-19.9505,1013.23
227882,15.5553,12.2845,7.55718,1.997,-17.604,-229.173,2.83004,-51.179,-19.2412,1013.23
227888,23.7571,6.3352,2.23437,-13.683,75.636,-246.043,4.54439,-49.7604,-19.9357,1013.23
227894,11.3659,6.67475,1.86613,32.797,302.786,-237.153,5.41609,-51.0557,-20.3051,1013.23
227900,-0.896142,7.87991,10.221,47.777,316.086,-209.153,7.07233,-51.7033,-18.2955,1013.23
227906,-8.84449,4.72353,13.3774,54.077,235.306,-221.123,9.42593,-50.5931,-19.6402,1013.27
227912,-10.0927,5.58914,13.5782,57.577,160.126,-234.913,10.2105,-51.0865,-18.6501,1013.27
227918,-11.9722,15.0631,8.88669,70.667,54.776,-241.143,11.518,-52.3818,-16.877,1013.26
227924,-10.4227,23.4562,4.67818,41.337,-11.374,-229.103,12.8256,-50.8706,-17.5271,1013.26
227930,-4.49251,21.2419,2.60262,4.937,-56.944,-196.833,13.9878,-50.5314,-17.6306,1013.29
227936,-2.35956,16.6795,1.66048,9.277,-52.184,-181.713,15.0339,-51.6725,-19.4333,1013.29
227942,-0.781365,12.7436,2.78913,8.997,-63.314,-157.773,15.9637,-50.9015,-17.5271,1013.29
227948,1.69592,9.06117,0.565314,12.147,-67.654,-159.383,16.2543,-49.6679,-18.0739,1013.29
227954,2.90108,11.2754,-4.31752,37.697,-50.084,-163.163,16.8935,-51.0865,-17.8079,1013.29
227960,-5.69767,28.6116,-11.3142,95.027,48.756,-119.203,17.4456,-51.1173,-16.8474,1013.29
227966,-7.31412,26.12,-5.91484,-21.383,49.106,-42.063,17.8524,-50.0379,-17.8818,1013.29
227972,-1.25004,10.912,0.15881,-68.073,-23.414,-41.293,17.3294,-49.8837,-17.7192,1013.26
227978,8.33389,1.3089,0.804434,-15.293,-8.574,-47.873,16.9226,-50.2847,-16.9804,1013.26
227984,4.23537,10.5772,0.115768,15.297,32.656,-49.553,18.172,-49.5137,-18.6354,1013.26
227990,0.414235,13.0306,0.613138,-1.433,42.456,-44.863,18.1139,-49.6062,-18.2955,1013.26
227996,-2.84258,10.4385,2.61218,-14.383,23.626,-31.633,18.2301,-50.7473,-18.3398,1013.28
228002,-1.38395,9.37681,2.35871,-7.033,-1.014,-21.903,18.7532,-49.4212,-17.7488,1013.28
228008,2.25546,10.2807,0.904864,-3.043,-8.364,-16.093,19.1599,-49.0819,-19.847,1013.28
228014,2.19329,10.1898,1.0579,-8.223,-2.624,-14.343,18.5498,-50.4389,-18.6354,1013.28
228020,1.73418,9.38637,1.01008,-7.453,-3.744,-11.053,18.8403,-50.0996,-17.4385,1013.28
228026,2.03069,10.0511,0.283152,-5.213,-4.864,-8.533,18.3464,-49.8529,-19.0343,1013.25
228032,2.92978,9.94113,0.0535968,-10.113,-4.234,-8.323,18.3754,-49.9454,-17.9261,1013.25
228038,3.58975,9.59201,0.230546,-12.003,-3.044,-9.863,19.189,-50.5005,-17.734,1013.26
228044,3.30759,9.52506,0.0535968,-9.693,-0.874,-12.383,18.9565,-48.8969,-18.5763,1013.26
228050,2.50893,9.86461,0.488795,-9.553,0.246,-11.963,19.0437,-49.1744,-18.8127,1013.25
228056,2.09764,9.76896,1.00529,-11.023,-1.364,-10.773,18.8694,-50.223,-18.8127,1013.25
228062,2.36545,9.44376,1.37354,-10.673,-3.534,-11.053,19.1309,-49.3595,-18.5024,1013.28
228068,3.12586,9.28594,1.04355,-8.293,-7.804,-11.963,19.1018,-48.2492,-19.0491,1013.28
228074,3.61366,9.2429,0.622702,-5.913,-6.824,-14.273,18.9275,-49.3595,-18.458,1013.28
228080,2.97282,9.5681,0.694438,-4.373,-5.564,-16.303,19.3343,-49.2978,-18.8718,1013.27
228086,3.03021,9.66853,0.287934,-3.393,-5.004,-16.513,20.1479,-48.4651,-19.3003,1013.27
228092,2.85326,9.62549,0.503142,-5.353,-4.024,-18.613,19.7701,-48.3109,-18.8422,1013.3
228098,2.95847,9.45811,0.421842,-5.073,-5.004,-19.803,19.683,-50.223,-18.1625,1013.3
228104,2.64762,9.44854,0.522272,-3.953,-4.164,-20.853,19.0728,-49.0819,-19.1821,1013.26
228110,2.25546,9.46289,0.708786,-3.743,-4.934,-20.363,19.5667,-48.9894,-19.2264,1013.26
228116,2.09286,9.44854,0.833128,-3.183,-6.404,-19.873,19.9445,-49.8837,-18.3103,1013.25
228122,2.38458,9.41985,0.570096,-3.323,-8.224,-19.453,19.7411,-48.866,-19.5811,1013.25
228128,2.38937,9.55375,0.364453,-3.253,-9.134,-19.663,20.4966,-48.0642,-19.123,1013.25
228134,2.47067,9.77374,0.0727264,-5.563,-8.714,-19.663,19.6539,-49.2361,-17.9852,1013.27
228140,2.42763,9.84548,0.0296848,-7.943,-8.154,-19.593,19.9445,-50.223,-18.5467,1013.27
228146,2.46588,9.79766,-0.0372688,-11.373,-7.594,-19.523,19.5667,-47.8792,-19.8323,1013.28
228152,2.43241,9.72592,0.0535968,-13.333,-6.824,-19.523,20.0898,-49.452,-19.6402,1013.28
228158,2.27459,9.74983,0.225763,-16.203,-8.014,-19.453,19.5958,-49.1128,-18.1625,1013.26
228164,2.42284,9.78331,0.0966384,-18.093,-8.224,-19.453,20.0607,-48.8044,-19.3003,1013.26
228170,2.47067,9.78809,0.168374,-20.333,-6.964,-19.663,20.206,-47.9408,-19.1821,1013.28
228176,2.14068,9.63984,0.641832,-22.363,-7.524,-20.013,20.3513,-49.8529,-19.0196,1013.28
228182,2.30328,9.46289,0.565314,-22.643,-7.104,-19.103,19.8573,-48.681,-19.0491,1013.27
228188,2.25546,9.38637,0.871387,-23.133,-5.844,-18.543,20.4384,-48.0334,-19.847,1013.27
228194,2.43719,9.43898,0.311846,-21.313,-4.514,-17.423,19.9445,-48.7735,-19.5515,1013.27
228200,2.03069,9.21899,0.852258,-22.153,-3.184,-16.653,20.1769,-49.3903,-19.2264,1013.3
228206,2.45632,9.5155,0.39793,-20.543,-4.304,-17.283,20.3222,-48.095,-19.9505,1013.3
228212,2.21242,9.34333,0.694438,-19.563,-2.694,-18.123,20.7,-48.5576,-21.0291,1013.27
228218,2.19329,9.47724,1.05312,-22.783,-2.904,-18.823,20.1188,-48.9894,-20.837,1013.27
228224,2.40371,9.7307,0.484013,-20.263,-5.634,-19.243,20.3222,-47.7866,-20.6745,1013.25
228230,2.5424,9.89809,0.818781,-19.843,-6.964,-20.363,21.1358,-47.91,-21.8271,1013.25
228236,2.48501,10.2233,0.225763,-21.733,-9.834,-21.903,20.9324,-49.1744,-19.7584,1013.28
228242,2.52327,10.2137,0.163592,-24.113,-10.814,-22.813,20.2641,-48.5885,-20.2312,1013.28
228248,2.30328,10.2089,0.632267,-30.623,-15.294,-25.963,20.5547,-46.5839,-20.8518,1013.28
228254,2.93456,10.252,0.125333,-29.433,-17.604,-26.173,20.4094,-48.0642,-20.2608,1013.28
228260,2.11677,9.19986,1.47397,-36.153,-14.314,-28.973,21.5717,-47.9717,-20.5563,1013.28
228266,2.52806,9.26203,0.302282,-31.393,-14.454,-27.713,21.5717,-46.8306,-22.6102,1013.3
228272,1.85852,9.0516,1.84221,-30.973,-12.144,-31.773,21.4845,-47.0465,-22.5807,1013.3
228278,2.32241,10.1994,0.641832,-27.263,-16.204,-31.073,21.0486,-48.5885,-20.4085,1013.25
228284,1.94939,9.77853,1.22528,-35.663,-19.424,-33.523,21.4554,-47.2007,-20.9553,1013.25
228290,2.57588,9.43898,0.727915,-34.123,-21.314,-32.613,21.9203,-46.7381,-23.2456,1013.28
228296,1.83461,8.90335,1.40702,-32.093,-15.994,-34.853,21.1649,-47.7558,-23.0831,1013.28
228302,1.59549,9.40072,-0.00379199,-29.153,-17.814,-34.223,21.5135,-48.095,-22.3886,1013.28
228308,1.36115,9.55854,0.187504,-25.163,-24.954,-33.663,21.7751,-46.1213,-23.9253,1013.25
228314,1.8107,10.1324,2.13872,-24.463,-33.984,-36.743,21.3101,-47.2932,-22.4181,1013.25
228320,5.6414,12.1458,3.68822,-20.823,-40.144,-46.473,22.269,-46.8923,-23.0978,1013.28
228326,7.95608,11.5863,5.51988,-26.913,-28.944,-56.413,21.9203,-45.9363,-24.7232,1013.28
228332,6.9996,9.49637,1.80874,-20.543,17.326,-64.463,22.3852,-45.9979,-23.4081,1013.3
228338,2.36067,8.94639,2.59783,-11.233,31.606,-67.963,22.5015,-46.6456,-23.0092,1013.3
228344,0.667702,9.38159,2.99956,-0.243,16.276,-69.713,23.3441,-45.0727,-23.7923,1013.28
228350,2.34154,10.5915,1.96177,3.677,2.346,-74.473,23.8381,-44.7027,-23.8662,1013.28
228356,4.65622,11.1511,2.44958,-2.203,0.946,-81.123,23.6347,-46.5531,-23.216,1013.27
228362,5.8853,11.3663,0.307064,1.367,10.536,-85.463,24.797,-45.4737,-22.2851,1013.27
228368,3.77148,11.7728,2.78435,1.507,11.866,-95.683,24.5936,-43.9625,-23.8071,1013.27
228374,3.88626,10.8546,2.86565,2.697,11.586,-101.773,24.797,-45.3503,-22.1521,1013.27
228380,4.02973,10.6633,2.81782,17.887,14.666,-110.873,25.4943,-45.597,-22.0044,1013.27
228386,3.91495,11.4524,2.58349,22.717,10.186,-122.773,26.0755,-43.6541,-22.8762,1013.25
228392,4.19711,11.9354,3.09042,22.507,7.036,-127.883,26.366,-44.5793,-22.1669,1013.25
228398,4.46015,10.5533,3.2052,27.407,11.236,-138.173,27.4992,-44.9494,-21.5463,1013.3
228404,4.05364,11.3137,3.41084,36.857,18.096,-144.613,27.9932,-43.8083,-22.492,1013.3
228410,3.31715,11.7919,3.40128,44.487,7.596,-157.633,28.3128,-43.8392,-21.502,1013.25
228416,4.12538,11.8637,2.08133,47.777,2.976,-165.053,28.894,-44.0859,-22.3147,1013.25
228422,4.34537,12.8919,1.50745,49.947,5.776,-176.603,30.5211,-43.1298,-21.3394,1013.25
228428,4.50797,13.3127,1.74178,49.877,0.246,-188.573,31.3928,-41.5879,-21.8566,1013.29
228434,4.90969,14.8861,-0.496379,54.357,-0.874,-205.793,31.6834,-42.9756,-20.8962,1013.29
228440,5.11533,16.053,-1.13722,47.007,-5.774,-217.273,32.497,-42.2355,-18.9752,1013.26
228446,5.78487,16.1965,-0.768976,38.677,-8.504,-236.873,32.9038,-39.9225,-21.9009,1013.26
228452,6.76526,16.7034,-0.534638,34.547,-10.604,-251.713,34.2695,-39.9534,-19.4037,1013.27
228458,7.43002,17.7125,-2.59585,24.397,-5.704,-275.583,34.9959,-39.8917,-19.9948,1013.27
228464,6.84178,18.3725,-4.10231,13.757,1.296,-292.453,35.6932,-39.059,-20.0687,1013.28
228470,6.14355,18.2721,-4.52316,-4.723,-7.734,-316.533,36.2744,-37.8562,-20.3642,1013.28
228476,6.00008,18.5016,-4.68576,-9.273,-7.944,-332.143,38.2502,-37.7637,-20.3347,1013.28
228482,7.29133,17.9612,-2.2037,-15.363,-18.304,-357.553,39.5578,-37.0236,-19.714,1013.28
228488,7.37263,17.923,-1.24722,-10.953,-20.544,-375.753,39.7321,-33.5387,-20.0096,1013.28
228494,10.0316,18.669,1.78483,-9.343,-22.154,-408.093,41.7371,-33.3536,-20.5267,1013.25
228500,9.01299,17.6025,2.79391,0.877,4.166,-431.543,43.4514,-31.3799,-19.3594,1013.25
228506,4.67535,19.1664,2.77478,31.257,1.926,-462.693,43.8873,-28.1109,-19.6106,1013.26
228512,5.19185,22.0789,2.23437,35.807,-15.994,-480.263,44.759,-26.7539,-18.9161,1013.26
228518,6.65527,23.3988,0.407494,37.207,-11.864,-476.973,46.299,-25.8596,-18.0886,1013.22
228524,4.55101,25.2974,3.11433,56.037,-8.994,-488.593,46.6186,-22.5597,-19.9209,1013.22
228530,7.76957,22.031,1.74657,21.807,-42.594,-500.843,46.5314,-20.5551,-18.6945,1013.25
228536,2.76239,18.4012,5.72074,62.197,-14.244,-496.923,48.2748,-18.6431,-17.4089,1013.25
228542,2.27459,27.0095,3.16216,89.917,-45.254,-488.803,48.7397,-16.1451,-18.857,1013.25
228548,11.342,27.4208,0.761392,71.577,-58.344,-505.743,48.6235,-13.4928,-18.8275,1013.22
228554,11.9781,19.3338,-0.137699,67.237,-31.954,-509.453,49.9892,-12.1976,-19.847,1013.22
228560,4.46971,17.2917,-5.89571,79.487,-4.444,-465.633,50.7156,-9.76124,-18.6945,1013.19
228566,2.26024,18.1908,-5.14965,73.187,-22.784,-433.503,49.0884,-6.92398,-18.9752,1013.19
228572,10.0699,15.9096,-6.08222,22.577,-105.384,-386.253,49.6405,-4.88856,-19.7879,1013.18
228578,16.5309,6.21086,-11.9694,-28.383,-100.834,-352.513,50.2507,-4.42596,-19.3299,1013.18
228584,-0.006616,4.44137,-10.7403,-4.793,96.216,-294.133,48.885,-2.60642,-20.7779,1013.17
228590,-19.0358,17.3299,1.31137,18.307,133.596,-172.543,48.7979,-1.31115,-19.2264,1013.17
228596,-4.30599,12.6623,2.39697,9.277,-102.304,-28.343,49.9311,-1.61954,-18.2364,1013.17
228602,9.59644,10.0416,-7.57911,-8.223,-48.684,34.377,49.3499,-1.40367,-18.1182,1013.21
228608,6.57875,6.43563,-3.02149,1.647,34.686,123.137,48.7397,-1.68122,-18.7831,1013.21
228614,5.76574,6.71779,-0.615939,9.557,17.606,158.907,49.7858,-2.60642,-18.99,1013.22
228620,9.69687,5.80913,-2.53846,12.567,12.076,187.187,50.0182,-3.9942,-17.9852,1013.22
228626,10.7729,4.91004,-2.7202,19.917,31.186,193.487,49.3209,-4.58016,-19.123,1013.18
228632,9.70644,5.01047,-1.73024,31.117,50.156,192.157,49.6114,-5.75207,-18.3842,1013.18
228638,9.00821,4.65658,-1.62024,31.817,53.866,188.867,50.6575,-7.3249,-16.744,1013.14
228644,7.90826,3.7001,-1.44329,31.957,52.886,182.707,49.8439,-7.72581,-18.3398,1013.14
228650,7.50175,3.06882,-2.04588,31.607,55.196,178.927,49.5824,-8.99024,-18.3398,1013.14
228656,6.11964,2.84883,-1.6872,29.787,56.246,178.927,50.1926,-9.8846,-17.2759,1013.19
228662,5.36402,3.18838,-2.10327,27.897,55.966,184.457,49.9892,-11.4266,-17.5271,1013.19
228668,4.13972,4.39833,-1.8498,21.807,56.526,191.667,49.0884,-11.6425,-17.8079,1013.19
228674,3.1402,5.45045,-1.88806,13.547,54.986,206.927,50.6284,-13.2153,-16.212,1013.19
228680,2.55197,6.12956,-2.0124,4.657,54.146,220.157,50.1054,-14.7881,-15.754,1013.18
228686,1.80591,6.25868,-2.06022,-9.693,51.766,243.607,48.9722,-14.819,-16.4928,1013.18
228692,1.66244,5.93348,-2.00284,-19.703,52.326,260.127,49.6405,-16.9161,-16.0643,1013.19
228698,0.600749,5.12525,-1.04157,-27.893,45.676,285.397,50.1345,-18.3655,-16.0938,1013.19
228704,0.447712,4.64223,-0.625504,-29.363,35.246,300.937,49.2337,-19.044,-15.222,1013.22
228710,0.968994,4.28355,-0.601592,-28.943,23.766,320.117,48.0714,-20.0926,-16.478,1013.22
228716,0.925952,4.11138,-0.285954,-26.493,16.556,329.847,48.7979,-23.6391,-15.8278,1013.22
228722,0.940299,3.76705,0.0775088,-17.883,2.696,341.327,47.9843,-23.7316,-15.7835,1013.19
228728,1.19377,3.96313,0.101421,-10.603,-6.124,347.207,46.0084,-25.0886,-15.7096,1013.19
228734,1.82026,4.48919,0.163592,-0.313,-16.624,354.487,45.9793,-27.6483,-15.7392,1013.14
228740,2.07851,4.91483,0.101421,5.357,-22.154,359.037,45.0786,-29.6529,-15.6949,1013.14
228746,2.53762,5.65132,-0.0372688,12.077,-28.664,365.757,44.3812,-30.0846,-16.9065,1013.19
228752,3.0063,6.34476,-0.147264,15.297,-31.394,369.817,42.725,-31.2257,-17.3646,1013.19
228758,3.90539,7.57384,-0.324213,18.027,-32.724,374.787,42.6378,-34.248,-16.3007,1013.19
228764,4.49362,8.42511,-0.343342,18.867,-31.954,376.257,41.0978,-34.7723,-16.1086,1013.19
228770,5.00056,9.63984,-0.309866,19.917,-28.804,376.747,39.4416,-35.79,-16.744,1013.19
228776,4.99099,10.3524,-0.180741,20.197,-26.004,376.257,38.8314,-38.4422,-15.4141,1013.19
228782,4.81404,11.3567,0.00577281,21.247,-22.574,374.997,37.4657,-39.0898,-15.6653,1013.19
228788,4.67057,12.2415,0.0583792,22.227,-21.384,374.297,35.9257,-40.2926,-18.5319,1013.18
228794,4.61318,13.6666,0.0249024,21.947,-19.984,373.387,34.2404,-42.2046,-17.3498,1013.18
228800,4.48884,14.5418,0.0105552,20.407,-19.284,372.547,33.3106,-43.9008,-16.4189,1013.22
228806,4.19233,15.6322,0.067944,19.567,-20.334,371.777,31.6544,-43.2224,-17.6453,1013.22
228812,3.92452,16.56,0.0822912,18.867,-21.034,370.517,30.4921,-44.5176,-17.4533,1013.17
228818,3.63279,17.1291,0.264022,19.007,-21.734,369.537,29.7076,-46.7998,-16.2268,1013.17
228824,3.19281,17.7699,0.694438,21.387,-26.144,368.277,27.5574,-47.0465,-17.6453,1013.18
228830,3.11151,18.406,0.780522,24.537,-30.134,367.647,25.2619,-47.8175,-17.4089,1013.18
228836,3.03977,19.6542,0.923994,31.187,-34.824,367.227,23.8962,-50.0379,-17.1725,1013.18
228842,2.80544,20.625,1.18224,36.507,-38.044,367.927,22.1818,-49.2669,-17.3646,1013.17
228848,2.41328,22.4375,1.56484,46.867,-44.974,371.707,20.3222,-49.2053,-17.6158,1013.17
228854,2.48501,23.8579,1.50745,54.847,-48.334,376.537,19.4505,-51.5183,-18.0739,1013.2
228860,2.52327,26.6604,0.656179,63.177,-46.864,387.597,16.3414,-52.1659,-15.9461,1013.2
228866,2.24111,28.2338,0.316629,64.507,-43.084,397.397,14.2784,-51.4566,-17.7783,1013.18
228872,1.49506,29.8503,0.0105552,61.847,-34.964,413.707,11.6924,-52.6285,-17.8079,1013.18
228878,0.294675,29.6159,1.05312,57.437,-29.084,423.577,9.36781,-53.5845,-15.5619,1013.24
228884,-1.97218,28.4921,3.38693,58.557,-25.024,433.727,7.13044,-52.5051,-16.4041,1013.24
228890,-3.23952,28.6786,3.98473,61.497,-18.374,436.457,5.18364,-51.9192,-15.6801,1013.24
228896,-5.95592,29.989,5.07512,64.857,-2.064,431.977,3.06249,-53.6462,-15.5028,1013.24
228902,-8.34712,30.7254,6.29941,68.357,5.496,422.457,0.708897,-52.4743,-16.1973,1013.24
228908,-10.2649,32.6001,4.64948,66.957,21.106,394.737,-1.6447,-51.95,-16.2416,1013.26
228914,-11.5083,33.8818,2.02873,58.557,37.766,367.017,-3.76585,-53.4612,-13.8774,1013.26
228920,-12.2209,36.5743,-5.67572,21.597,63.876,310.107,-5.65454,-52.2584,-13.6853,1013.25
228926,-13.1773,38.3199,-13.2128,-23.623,82.636,262.997,-6.93303,-51.7341,-14.2615,1013.25
228932,-21.6996,36.1152,-17.5217,-124.423,111.826,192.367,-8.35682,-52.5051,-14.099,1013.27
228938,-28.878,27.3873,-8.79384,-197.013,125.546,127.267,-8.58927,-52.721,-15.3107,1013.27
228944,-40.3175,10.3763,1.12007,-188.263,134.226,92.337,-8.64738,-51.2407,-17.2759,1013.27
228950,-52.4743,0.629795,9.87665,-93.623,103.636,57.407,-8.44399,-50.5931,-19.0196,1013.23
228956,-56.3768,0.271115,8.98712,-17.183,38.186,43.547,-8.9089,-51.8883,-17.335,1013.23
228962,-48.0219,3.32707,7.06938,92.437,-94.044,20.027,-9.69343,-51.95,-18.0443,1013.26
228968,-35.8316,9.21899,2.56914,139.827,-128.344,-8.463,-9.54814,-51.5183,-17.867,1013.26
228974,-23.5456,17.2965,-1.21852,147.037,-103.564,-65.093,-10.1874,-51.4566,-14.6162,1013.26
228980,-19.0454,20.3715,-1.50068,137.377,-78.784,-104.713,-9.08324,-52.4126,-14.6014,1013.26
228986,-8.2706,31.1224,18.2985,122.187,-78.854,-150.283,-9.19946,-51.6725,-14.6605,1013.26
228992,42.2794,70.2759,51.0962,397.427,-755.264,-302.113,-9.19946,-51.8883,-11.3949,1013.26
228998,43.0589,46.3352,-30.152,-316.363,-51.694,-280.133,-7.25266,-53.5845,-11.7939,1013.24
229004,31.672,-7.16552,-42.0076,-423.743,227.816,-246.533,-5.01529,-52.7827,-16.1973,1013.24
229010,8.04216,-21.7566,14.243,-91.103,420.106,-202.643,-2.74886,-51.8267,-17.1873,1013.24
229016,0.500318,-3.05744,7.57631,98.317,283.816,-222.523,-2.31301,-54.6331,-16.9361,1013.23
229022,4.32624,10.3524,7.05981,39.027,87.676,-253.183,-0.511488,-53.677,-16.2416,1013.23
229028,13.5324,5.23046,9.30754,-4.653,95.796,-272.853,1.46437,-53.9238,-17.5862,1013.27
229034,8.85995,2.88709,5.08468,20.687,250.916,-256.123,2.71381,-54.3247,-16.5962,1013.27
229040,-0.43225,7.40646,5.18033,48.757,315.946,-260.603,4.74779,-54.6331,-15.7096,1013.27
229046,-15.9607,13.681,15.4481,17.257,246.646,-256.053,6.14251,-54.078,-17.1282,1013.27
229052,-18.8158,13.6331,17.8346,11.167,120.786,-251.783,7.21761,-55.1573,-15.621,1013.27
229058,-12.197,19.4246,12.55,28.947,-56.034,-237.013,8.35083,-55.8975,-15.9313,1013.27
229064,-6.08026,24.0875,2.97086,7.947,-115.114,-219.093,9.91989,-54.2013,-16.4189,1013.27
229070,1.74852,18.5351,-2.24674,-31.393,-120.224,-195.223,10.1814,-54.0163,-16.2268,1013.24
229076,3.95321,14.1927,-2.89714,-26.703,-65.904,-187.523,11.8667,-55.0031,-16.079,1013.24
229082,3.08281,13.0497,-4.09274,-24.043,-45.114,-181.153,12.1573,-54.8489,-17.7045,1013.25
229088,4.881,11.3328,-4.38925,-11.373,-21.314,-172.963,13.0871,-52.3818,-17.1134,1013.25
229094,5.3975,11.7776,-3.52842,0.247,5.426,-160.643,13.8716,-53.6154,-19.2855,1013.27
229100,1.51897,16.3304,-5.40312,25.307,67.096,-153.503,14.9177,-54.2938,-16.2416,1013.27
229106,-5.68333,25.8665,-5.23096,46.587,134.366,-99.043,14.9758,-53.0911,-16.7883,1013.26
229112,-10.9392,19.2764,5.03686,-37.833,81.516,-59.703,14.9177,-52.7827,-16.1529,1013.26
229118,-3.99036,6.47389,6.65809,-47.703,5.216,-49.063,16.3705,-54.8489,-15.6358,1013.26
229124,5.46923,5.28307,0.694438,20.687,-12.004,-48.643,16.3414,-52.906,-16.9213,1013.27
229130,4.86187,11.3185,-0.869406,21.877,14.736,-49.483,16.8645,-52.8752,-16.212,1013.27
229136,1.8633,11.0363,0.0631616,-3.813,45.536,-46.333,16.632,-53.6462,-16.0052,1013.26
229142,-1.11135,10.3572,1.17746,-4.093,38.606,-41.083,16.6901,-53.7079,-16.5519,1013.26
229148,-0.580504,11.1559,0.732698,-3.393,-2.554,-29.883,17.3584,-52.536,-17.3055,1013.27
229154,3.55149,10.1133,-0.429426,-8.083,-14.174,-29.393,17.155,-53.5845,-15.4141,1013.27
229160,5.49314,8.85552,-1.0607,-7.733,8.576,-36.253,17.7943,-53.1528,-14.9413,1013.28
229166,3.23107,9.98895,-0.11857,-7.243,20.896,-37.863,16.9807,-52.135,-15.754,1013.28
229172,0.787262,10.802,1.23007,-13.753,16.626,-35.203,18.2592,-52.8752,-16.8179,1013.29
229178,0.911605,10.2568,1.57918,-16.623,10.186,-31.283,17.9396,-53.2144,-15.9165,1013.29
229184,2.3272,9.5968,1.26833,-15.643,2.416,-28.273,18.3173,-52.2892,-16.2416,1013.29
229190,2.30807,9.55375,1.38789,-13.683,2.136,-27.363,17.9686,-51.7033,-18.0886,1013.28
229196,2.31285,9.23333,1.2205,-11.023,2.556,-26.383,18.3754,-53.3378,-16.9361,1013.28
229202,2.15981,9.15681,1.02921,-7.873,3.396,-25.613,18.695,-52.6285,-17.1134,1013.28
229208,1.99721,9.50115,0.885734,-5.213,2.976,-23.373,18.3754,-51.6416,-16.9361,1013.28
229214,2.05938,9.57767,0.99573,-4.093,0.106,-22.603,18.5788,-52.6285,-16.345,1013.24
229220,2.47067,9.32898,1.01486,-3.043,-2.834,-22.953,18.7532,-53.2453,-16.5519,1013.24
229226,2.7337,9.33376,0.708786,-0.103,-3.744,-24.423,18.8984,-51.2715,-17.2612,1013.3
229232,2.64283,9.46767,0.665744,1.367,-2.834,-24.913,18.666,-51.95,-17.5715,1013.3
229238,2.28415,9.5155,0.536619,2.487,-0.384,-24.913,19.0147,-52.6902,-15.9608,1013.3
229244,1.76765,9.6494,0.694438,2.277,-1.714,-24.423,19.2181,-51.6108,-16.0347,1013.25
229250,1.96373,9.43419,0.354888,1.367,-7.174,-23.583,19.5086,-52.7518,-16.8622,1013.25
229256,1.84896,9.48202,0.25924,2.137,-8.434,-22.673,19.6249,-53.9546,-15.6505,1013.26
229262,1.95417,9.53462,0.24011,0.317,-10.814,-20.713,20.0898,-51.7033,-16.478,1013.26
229268,2.09286,9.47245,0.211416,0.457,-12.494,-20.923,20.2641,-51.2099,-17.2316,1013.25
229274,2.17894,9.85983,-0.281171,-2.273,-13.124,-20.433,19.7701,-52.5976,-15.4732,1013.25
229280,2.47545,9.87896,-0.515509,-5.213,-11.794,-20.853,20.4094,-52.3201,-14.9708,1013.25
229286,2.21242,10.0368,-0.644634,-9.693,-10.254,-20.993,19.9735,-51.5799,-16.6701,1013.25
229292,2.10242,9.96026,-0.472467,-13.123,-9.974,-20.643,19.9445,-53.1528,-16.0199,1013.26
229298,2.04982,9.87418,-0.472467,-17.603,-13.054,-21.833,19.712,-53.2453,-16.5371,1013.26
229304,2.10242,9.80722,-0.161611,-19.353,-11.724,-21.973,20.2641,-51.7341,-17.1429,1013.26
229310,1.80591,10.3142,0.201851,-22.013,-16.204,-23.233,20.3222,-51.3949,-17.9113,1013.27
229316,2.46588,10.1755,0.747045,-24.253,-21.244,-24.773,20.2641,-53.2761,-16.5519,1013.27
229322,2.71457,9.46289,0.464883,-30.413,-19.004,-27.853,20.5547,-52.4126,-17.3646,1013.27
229328,2.95847,9.6494,-0.195088,-28.733,-14.804,-28.343,20.729,-51.3332,-18.1182,1013.27
229334,1.79635,9.47245,0.833128,-27.893,-11.584,-29.883,20.7,-52.8444,-18.0739,1013.27
229340,2.02112,9.53941,0.895299,-26.143,-16.484,-30.093,20.6128,-51.8575,-18.1773,1013.27
229346,1.6194,9.38637,0.192286,-27.333,-12.984,-28.413,20.5837,-51.3332,-18.7979,1013.28
229352,1.00247,8.62597,1.09616,-21.313,-16.974,-27.363,21.1939,-51.3332,-19.7288,1013.28
229358,1.47115,9.21899,0.708786,-23.553,-18.724,-26.663,21.1358,-53.1836,-18.0591,1013.28
229364,2.03547,10.3142,0.273587,-19.773,-24.184,-24.703,21.4264,-51.3024,-19.2412,1013.24
229370,2.16459,9.94113,1.55049,-24.183,-23.274,-27.713,21.0196,-50.9631,-20.0539,1013.24
229376,2.36067,9.66853,0.579661,-26.703,-24.464,-30.303,21.223,-52.1659,-19.3151,1013.26
229382,1.49984,8.82683,0.61792,-29.083,-17.464,-31.143,21.1649,-52.1659,-19.5663,1013.26
229388,1.93026,10.0607,1.36876,-22.923,-21.874,-32.403,21.1939,-50.5931,-20.9109,1013.26
229394,2.48501,10.5628,1.43093,-28.033,-20.404,-33.173,22.0075,-52.1042,-21.2951,1013.26
229400,2.68109,9.54419,2.47349,-32.023,-15.994,-35.553,22.5305,-51.6416,-19.5219,1013.25
229406,3.87191,10.8976,1.90439,-28.523,-17.184,-38.563,22.269,-50.4697,-21.0587,1013.25
229412,3.58497,10.3955,1.91873,-31.603,-10.394,-44.093,21.9785,-50.7473,-20.0835,1013.25
229418,2.58066,8.59249,2.39697,-28.593,-2.624,-47.873,22.7049,-51.6416,-20.9405,1013.28
229424,2.07851,9.50593,2.23437,-14.243,-2.974,-51.653,23.0536,-50.9323,-20.5415,1013.28
229430,1.58592,9.71636,3.30563,-18.303,-5.984,-53.053,22.6177,-50.0071,-21.8862,1013.27
229436,3.07325,9.76418,1.74178,-10.813,-6.124,-54.033,23.78,-51.8575,-20.7188,1013.27
229442,2.56632,9.54419,3.66909,-10.113,-4.444,-58.583,23.3151,-50.2538,-19.389,1013.29
229448,3.67105,9.98895,1.84221,1.017,-2.484,-63.483,23.9834,-49.0511,-22.1374,1013.29
229454,3.0589,10.3955,3.23389,4.027,-1.364,-68.243,24.0996,-50.2538,-20.4233,1013.27
229460,3.3028,10.0129,1.93308,5.777,1.716,-73.913,24.7679,-50.3155,-20.3642,1013.27
229466,3.20237,10.4098,2.6887,10.607,4.516,-75.873,25.0004,-48.9894,-21.1178,1013.27
229472,2.95369,10.6537,2.62653,16.137,4.656,-85.043,24.5645,-49.4828,-20.2755,1013.27
229478,3.55627,11.548,2.27263,19.707,4.586,-89.593,25.2619,-49.7912,-19.0639,1013.27
229484,3.58975,12.0932,1.79917,21.037,5.006,-100.653,25.4653,-48.866,-20.0391,1013.29
229490,4.0106,12.1362,1.78961,19.427,0.456,-110.383,26.5113,-48.2184,-20.1573,1013.29
229496,3.91495,10.9454,2.80348,20.337,1.576,-118.083,26.86,-49.3903,-19.0048,1013.26
229502,4.31667,11.7776,2.47349,32.797,4.166,-129.003,27.383,-48.2801,-18.1034,1013.26
229508,4.05842,12.1889,3.24824,34.967,2.766,-137.123,28.1094,-47.9717,-19.4776,1013.25
229514,4.46493,11.9067,2.14351,40.287,3.886,-148.603,28.4872,-49.3595,-18.8275,1013.25
229520,4.15885,11.9402,2.01438,43.857,4.866,-157.073,28.8068,-48.7735,-17.7192,1013.25
229526,4.05842,12.318,2.32045,49.107,2.556,-168.623,29.3008,-47.5091,-18.99,1013.25
229532,4.15885,12.5428,2.63609,52.327,-2.694,-179.053,30.3468,-46.9848,-18.4433,1013.25
229538,4.43623,12.8297,1.44528,55.477,-1.854,-194.453,32.0612,-47.6016,-17.468,1013.25
229544,4.1206,12.7914,1.56005,59.257,-4.514,-203.203,32.4389,-45.597,-17.5124,1013.25
229550,4.86187,14.011,1.48353,65.767,-10.324,-219.513,33.4268,-45.3195,-17.9113,1013.31
229556,5.49314,14.757,0.235328,68.357,-10.114,-231.833,34.6181,-45.5045,-17.3203,1013.31
229562,5.89965,16.5265,-1.53416,67.097,-9.554,-256.963,35.2574,-44.2092,-16.6258,1013.26
229568,5.8853,17.8417,-1.74937,60.377,-11.304,-274.743,36.1,-42.8523,-18.3251,1013.26
229574,6.05747,17.3012,-2.47151,46.097,-21.594,-298.823,37.5819,-43.9625,-15.621,1013.27
229580,5.86617,17.1339,-2.45716,43.717,-28.804,-316.183,38.5699,-42.6672,-16.079,1013.27
229586,8.92212,18.2003,-2.09848,43.717,-29.014,-346.353,39.5287,-40.9094,-17.2759,1013.27
229592,7.54479,19.3099,0.297499,44.837,-21.804,-365.673,40.5748,-39.4907,-16.1825,1013.27
229598,8.67822,20.7159,2.30132,55.127,-21.384,-391.993,42.202,-39.059,-14.9708,1013.27
229604,10.6199,20.7254,0.460101,51.767,-23.414,-418.383,42.3763,-35.3891,-14.9117,1013.25
229610,10.2325,23.0019,1.64135,59.747,2.906,-458.913,44.3812,-34.063,-15.7983,1013.25
229616,8.96517,23.3892,2.53566,56.177,7.876,-485.093,46.1246,-32.891,-13.7592,1013.28
229622,3.26933,19.6446,1.40702,74.727,17.256,-486.633,47.4322,-30.4239,-13.6853,1013.28
229628,3.02543,23.5518,1.29224,113.437,-19.074,-496.223,48.1586,-27.8642,-14.3798,1013.26
229634,7.58783,29.1377,1.23963,83.127,-46.164,-503.713,49.0594,-26.4764,-13.6557,1013.26
229640,9.00343,24.0683,2.71261,62.057,-23.764,-510.573,51.1224,-24.0092,-12.4736,1013.24
229646,8.30998,26.5074,0.680091,80.047,-24.044,-512.533,50.5413,-20.7402,-14.0251,1013.24
229652,10.6534,28.7168,-2.85889,72.907,-8.644,-523.243,51.965,-19.1674,-13.5523,1013.24
229658,10.3568,21.1128,1.19181,72.277,-1.084,-525.693,52.6043,-16.6077,-11.9269,1013.22
229664,8.4678,17.4782,-3.17452,90.407,-0.664,-485.233,53.1564,-13.7087,-13.7,1013.22
229670,6.84178,17.416,-6.57003,72.347,-7.524,-456.113,52.982,-11.7658,-13.4636,1013.24
229676,9.29993,11.328,-2.96888,40.357,-77.664,-439.173,54.6673,-9.48368,-12.71,1013.24
229682,13.145,6.58867,-14.0067,17.467,-102.444,-402.143,53.7375,-7.75665,-12.5475,1013.2
229688,0.366411,-1.55098,-10.7451,25.307,38.186,-353.773,52.5171,-5.44367,-12.843,1013.2
229694,-22.087,16.12,-1.71111,77.667,92.856,-229.663,53.5341,-5.19695,-13.0351,1013.2
229700,-13.4643,16.6413,4.26211,44.347,-190.364,-45.983,53.8828,-4.611,-12.1633,1013.2
229706,6.92786,12.538,-8.00953,23.487,-188.474,37.737,52.2265,-4.51848,-16.4189,1013.2
229712,8.32911,9.25246,-5.15922,11.167,-80.954,151.277,52.2556,-5.50535,-14.2615,1013.2
229718,6.81787,7.40167,-1.97892,15.227,-94.604,200.347,53.1854,-6.67726,-14.4536,1013.2
229724,11.3611,6.84213,-3.72928,16.207,-102.234,247.317,51.2386,-8.15757,-14.631,1013.17
229730,12.5281,5.5748,-3.82971,19.847,-77.244,266.007,50.9481,-9.85376,-16.1382,1013.17
229736,11.4855,5.00569,-1.92632,30.277,-51.484,281.827,52.2556,-12.0125,-14.2468,1013.19
229742,11.2033,5.1396,-1.40025,30.627,-45.184,290.017,51.6164,-12.691,-16.0347,1013.19
229748,11.5094,4.44137,-1.6059,26.007,-30.484,299.117,49.9601,-14.5106,-17.3941,1013.17
229754,11.5142,3.91052,-1.9024,22.717,-15.714,304.577,50.8028,-16.8235,-16.4337,1013.17
229760,10.6868,3.944,-1.89284,15.577,5.776,308.567,50.2216,-18.859,-15.2811,1013.17
229766,9.82122,4.09704,-1.66807,5.917,26.566,313.467,48.6526,-19.63,-17.5271,1013.19
229772,8.93647,4.73309,-1.42895,1.017,37.626,316.407,47.8099,-21.357,-16.2859,1013.19
229778,7.54001,5.74218,-0.912448,-7.523,49.036,321.447,47.4322,-23.3307,-15.8426,1013.16
229784,6.63614,6.17738,-0.826365,-14.243,54.426,325.787,46.6186,-24.4718,-17.2612,1013.16
229790,5.12012,6.5791,-1.13722,-24.953,58.626,333.627,45.5725,-25.1503,-17.0395,1013.13
229796,4.66579,6.45476,-1.28548,-33.143,63.526,338.527,45.3982,-27.7408,-14.9856,1013.13
229802,2.85804,5.79001,-0.309866,-36.503,63.386,345.667,44.6137,-29.0978,-15.1925,1013.16
229808,2.25068,5.71349,0.283152,-35.803,54.496,349.797,43.4223,-29.7454,-17.4533,1013.16
229814,2.17894,5.5461,0.641832,-32.723,45.256,354.417,43.5095,-31.8425,-15.887,1013.16
229820,1.68635,5.39307,1.04355,-28.243,39.586,357.147,42.1148,-33.4462,-15.2959,1013.16
229826,1.32289,5.43133,1.40223,-19.423,28.246,361.347,39.674,-33.9088,-17.0395,1013.16
229832,1.14116,5.56045,1.44049,-13.403,20.616,364.777,38.7733,-35.4816,-15.6949,1013.18
229838,1.25594,6.11999,1.31137,-4.863,7.386,370.937,38.8314,-38.1646,-13.6705,1013.18
229844,1.56201,6.9043,1.23963,0.247,-1.574,375.137,36.1,-37.9488,-16.0938,1013.15
229850,2.12155,8.24816,1.18224,4.797,-11.934,381.087,34.8506,-38.9973,-16.2564,1013.15
229856,2.36545,9.16638,1.06268,6.337,-16.764,384.937,33.3687,-40.3234,-15.3698,1013.17
229862,2.61892,10.5485,0.981382,6.897,-22.364,390.747,32.0321,-41.4028,-16.0052,1013.17
229868,2.815,11.4715,0.9766,6.267,-25.514,394.527,29.8528,-41.0019,-16.3746,1013.17
229874,3.12107,12.6336,0.986165,3.887,-29.994,398.517,28.6034,-43.2224,-16.4337,1013.17
229880,3.4128,13.3892,0.933558,2.487,-32.864,400.197,27.7898,-43.685,-16.4632,1013.17
229886,3.80974,14.4796,0.747045,-1.013,-35.664,399.147,25.5524,-43.4074,-18.7388,1013.15
229892,3.85756,15.0774,0.799651,-2.903,-38.534,393.337,23.6928,-44.5793,-17.1429,1013.15
229898,4.16842,16.0483,0.852258,-3.743,-40.004,386.547,23.1988,-46.1521,-17.2464,1013.19
229904,3.87669,16.5695,1.36397,-2.413,-39.234,372.687,20.8162,-45.2269,-17.4385,1013.19
229910,3.5754,17.3873,1.74178,-1.153,-41.124,361.767,19.5958,-44.1167,-17.8522,1013.2
229916,3.71409,18.0234,2.2535,5.567,-45.814,344.127,18.8113,-46.7073,-17.4385,1013.2
229922,4.00104,19.0994,2.31567,15.787,-46.724,333.207,16.8354,-46.3372,-18.1625,1013.18
229928,3.37932,22.2462,2.25828,33.357,-40.844,324.457,15.1501,-44.8877,-18.9161,1013.18
229934,2.27459,24.1927,2.29654,40.707,-36.784,324.177,13.0871,-47.1698,-19.3742,1013.16
229940,1.44723,27.7843,1.47397,46.237,-36.854,344.407,11.7795,-47.2315,-17.9113,1013.16
229946,1.69114,29.219,0.388365,43.927,-30.624,362.677,10.7916,-46.4297,-18.8275,1013.16
229952,1.58114,31.0028,-0.721152,35.177,-9.204,394.527,9.13536,-47.4166,-18.2216,1013.19
229958,0.64379,31.285,-0.601592,25.237,8.926,414.757,7.45007,-47.7866,-17.5271,1013.19
229964,-1.80002,30.7302,0.12055,10.957,30.136,435.617,5.85194,-47.4782,-18.6206,1013.22
229970,-3.43081,30.6489,0.321411,4.797,41.266,440.937,3.9342,-47.139,-18.6058,1013.22
229976,-6.6685,30.802,0.694438,-1.013,54.216,434.287,2.48136,-48.5576,-17.4089,1013.23
229982,-9.18404,31.0315,0.780522,-2.273,60.656,421.267,0.679839,-48.1876,-17.7931,1013.23
229988,-12.4361,30.9885,-0.0707456,-4.583,67.236,390.397,-0.918284,-46.954,-18.8275,1013.24
229994,-14.0669,30.3333,-1.13722,-9.763,70.456,362.887,-2.57452,-47.4474,-18.4876,1013.24
230000,-15.999,28.6021,-4.32708,-25.723,75.286,314.517,-4.43415,-48.2184,-17.7488,1013.24
230006,-17.8593,27.3491,-6.84262,-40.633,80.046,279.447,-5.21868,-46.7381,-19.0048,1013.27
230012,-23.0052,23.6762,-6.85219,-62.263,84.736,226.947,-7.28172,-46.8923,-19.5811,1013.27
230018,-26.7689,19.6255,-4.93445,-66.953,83.826,193.137,-8.76361,-47.0157,-21.0882,1013.27
230024,-32.9334,13.3462,-1.02244,-47.003,76.266,146.587,-7.97908,-46.368,-20.4381,1013.27
230030,-37.0463,10.5868,0.981382,-19.073,49.946,108.157,-7.51417,-46.183,-20.0539,1013.26
230036,-41.0253,10.4768,2.04308,30.207,17.886,86.947,-9.14135,-46.7998,-19.6549,1013.26
230042,-38.5097,13.3366,1.40702,76.057,-28.314,51.597,-9.3738,-46.2755,-20.2755,1013.29
230048,-34.8847,16.0961,0.0105552,91.597,-35.454,21.777,-8.67644,-46.0288,-20.8223,1013.29
230054,-28.9354,18.2529,-0.998531,98.037,-23.764,-31.073,-8.93795,-46.7073,-18.6649,1013.29
230060,-24.9516,19.2381,-1.40504,100.067,-17.464,-68.523,-8.61833,-46.9848,-17.3055,1013.28
230066,-18.7728,21.3472,-0.285954,90.617,-6.544,-120.953,-7.65945,-46.6764,-18.2068,1013.28
230072,36.7509,58.7312,75.9646,358.787,-497.174,-242.893,-7.19454,-47.8792,-16.4632,1013.3
230078,20.4907,53.3223,-23.7149,-230.123,-22.294,-306.803,-6.70058,-48.8352,-16.9804,1013.3
230084,23.6902,0.342851,-34.7336,-358.923,136.676,-289.233,-4.92812,-47.2315,-17.867,1013.21
230090,14.7375,-23.4783,16.4811,-163.903,277.446,-250.663,-3.09754,-47.4782,-20.6597,1013.21
230096,10.8494,-16.3382,19.1258,96.357,255.396,-251.853,-1.73187,-48.5576,-18.7831,1013.27
230102,10.6534,1.61497,7.34197,169.787,143.746,-279.363,-0.48243,-49.8837,-18.9309,1013.27
230108,11.2272,6.96648,0.230546,151.447,200.516,-294.133,2.74287,-49.7912,-19.6845,1013.31
230114,3.42715,6.90909,5.97421,118.827,276.396,-276.073,3.38212,-50.0379,-18.8275,1013.31
230120,-1.18309,4.96265,7.16503,134.227,294.386,-267.673,4.92213,-50.2847,-16.0199,1013.31
230126,-11.8,13.1262,4.726,139.617,274.786,-286.713,7.45007,-50.7473,-16.4928,1013.26
230132,-19.2606,19.1425,7.83456,106.717,187.706,-282.723,8.99008,-51.3024,-16.0347,1013.26
230138,-19.5953,28.3008,7.43762,56.737,3.606,-269.563,9.48404,-51.1482,-15.222,1013.28
230144,-13.2347,28.2625,3.30563,6.337,-80.184,-245.693,10.9078,-50.2847,-15.3993,1013.28
230150,-5.43942,23.9105,1.43093,-25.443,-116.514,-213.493,12.6222,-50.3463,-16.5223,1013.25
230156,-1.23091,15.7326,3.72648,-52.813,-117.634,-209.923,12.7965,-51.0865,-14.6457,1013.25
230162,0.978558,8.98465,1.93786,-29.013,-115.534,-201.523,13.8135,-50.2847,-16.0199,1013.27
230168,3.40324,9.28594,-3.33712,0.387,-103.144,-197.113,14.569,-49.2669,-17.734,1013.27
230174,1.1029,25.1109,-15.3744,51.137,-24.534,-182.063,14.6852,-51.1173,-15.222,1013.27
230180,-1.14961,29.5107,-10.7546,-11.583,95.306,-56.763,15.7312,-50.1921,-14.1286,1013.27
230186,-4.71728,20.8785,-2.97366,-95.653,99.716,-47.943,16.2252,-49.1436,-16.8622,1013.27
230192,1.87287,-0.565805,8.25541,-78.923,25.306,-53.753,16.4867,-49.452,-16.3746,1013.24
230198,3.31237,1.06499,6.73939,-0.663,16.906,-45.773,17.0097,-51.2407,-15.5766,1013.24
230204,0.619878,14.1401,0.335758,16.137,31.116,-42.343,17.1841,-48.6193,-15.9313,1013.25
230210,-0.0113984,13.9201,0.770957,-18.793,43.436,-35.063,17.5328,-48.3726,-16.5223,1013.25
230216,-1.24048,7.33472,3.9656,-14.033,30.066,-24.703,17.2422,-50.0071,-16.611,1013.24
230222,-0.379643,8.28642,3.59257,5.497,2.066,-20.153,16.8935,-47.5708,-16.345,1013.24
230228,2.28894,10.912,0.704003,1.227,-7.944,-18.193,17.8233,-47.9717,-16.6701,1013.24
230234,2.925,10.1563,-0.027704,-6.403,-2.484,-17.703,18.2592,-49.5137,-16.5223,1013.29
230240,2.94891,9.62549,-0.429426,-3.043,3.956,-17.143,18.143,-49.2053,-15.4584,1013.29
230246,2.84848,10.3859,-0.309866,-5.633,7.526,-17.493,18.4335,-48.0334,-16.3598,1013.27
230252,1.92547,9.93156,1.00051,-13.893,6.966,-18.473,18.3173,-48.095,-16.2859,1013.27
230258,2.30328,9.58245,0.675309,-14.103,1.856,-18.543,17.9977,-49.5445,-14.8674,1013.28
230264,2.53284,9.44854,1.01486,-11.373,1.156,-18.333,18.0848,-48.1259,-16.3302,1013.28
230270,2.43719,9.67331,1.45962,-9.833,2.486,-17.633,17.9105,-48.6502,-16.1382,1013.27
230276,2.28894,9.35289,1.72265,-7.103,2.416,-16.443,18.4626,-49.4212,-15.621,1013.27
230282,2.33676,9.26681,1.46919,-5.843,0.876,-16.653,18.3464,-48.9277,-16.8622,1013.26
230288,2.84848,9.64462,0.407494,-3.323,0.036,-17.423,18.5207,-47.324,-16.7144,1013.26
230294,2.4898,9.54419,0.943123,-4.023,0.456,-18.053,18.3173,-49.0511,-16.1677,1013.26
230300,2.705,9.61593,0.555749,-4.653,1.646,-19.173,18.6369,-48.9894,-16.0643,1013.25
230306,2.38458,9.34811,1.14398,-3.463,-2.484,-20.223,18.7241,-47.4782,-16.4041,1013.25
230312,3.01108,9.42941,0.794869,-1.083,-4.094,-21.273,18.5498,-48.3109,-15.9608,1013.27
230318,2.79109,9.21899,0.967035,-0.803,-4.724,-23.653,18.8984,-48.3726,-14.5866,1013.27
230324,2.74805,9.14725,0.986165,0.737,-4.094,-24.423,18.0267,-47.2932,-19.6993,1013.28
230330,2.16459,9.43898,0.909646,3.607,-3.464,-24.213,19.3924,-47.4166,-15.9313,1013.28
230336,1.80113,9.78331,0.680091,2.697,-3.604,-23.443,18.7241,-48.681,-16.212,1013.23
230342,1.83461,9.70679,0.59879,-0.593,-8.364,-22.603,19.0437,-48.0334,-17.6897,1013.23
230348,2.02112,9.88374,0.201851,-2.973,-10.534,-22.393,20.0607,-47.6324,-16.0052,1013.23
230354,2.09286,9.74027,0.24011,-6.333,-11.654,-21.273,19.3343,-49.1436,-15.3698,1013.27
230360,2.1359,9.57288,0.407494,-7.453,-11.584,-20.853,19.1599,-49.2978,-16.1825,1013.27
230366,2.03547,9.82635,0.622702,-9.343,-11.444,-20.853,19.3052,-47.4474,-16.1973,1013.28
230372,2.11199,10.1276,-0.314648,-11.093,-12.144,-20.643,19.3633,-47.5091,-17.1873,1013.28
230378,1.73896,9.72592,0.570096,-16.833,-13.334,-19.873,19.189,-49.5753,-15.355,1013.27
230384,2.15981,9.82157,0.144462,-16.763,-17.044,-20.713,20.1769,-47.6324,-17.4089,1013.27
230390,2.26024,9.2955,0.890517,-18.863,-14.174,-20.223,19.0728,-47.139,-18.99,1013.28
230396,2.1359,9.74983,0.402712,-18.583,-12.704,-21.063,19.3633,-49.4828,-17.0247,1013.28
230402,2.19807,10.3285,0.85704,-19.843,-18.934,-21.833,19.9445,-48.7427,-17.7488,1013.28
230408,2.56632,10.5389,0.044032,-24.603,-22.854,-24.983,20.2932,-47.0773,-18.9752,1013.28
230414,2.52327,9.54419,0.354888,-29.503,-17.674,-26.243,20.1479,-48.7427,-17.7783,1013.28
230420,2.41806,9.96982,0.579661,-29.223,-16.974,-28.203,20.3222,-48.3109,-17.3941,1013.27
230426,2.38937,9.62071,1.24441,-34.683,-20.404,-31.003,19.2762,-47.1082,-19.9948,1013.27
230432,2.99195,9.65897,0.340541,-33.353,-17.114,-31.073,20.2641,-47.6941,-17.3203,1013.25
230438,2.50414,10.2089,0.9766,-34.123,-16.974,-34.853,20.3803,-48.4651,-17.8522,1013.25
230444,2.0259,9.6494,0.871387,-41.193,-15.574,-35.623,19.7992,-47.2624,-18.9752,1013.28
230450,2.31763,9.97939,0.330976,-37.483,-17.184,-35.063,20.3803,-47.4166,-19.0048,1013.28
230456,1.5094,10.7446,0.675309,-44.903,-25.444,-36.813,20.5547,-49.3595,-18.3398,1013.24
230462,2.24111,9.94113,0.426624,-49.313,-31.324,-37.373,21.1358,-47.91,-19.1525,1013.24
230468,2.35111,8.9703,1.79917,-49.663,-26.914,-41.503,21.0486,-47.0157,-19.6549,1013.24
230474,1.32289,8.70249,-1.07027,-45.253,-18.304,-39.263,21.3392,-48.0642,-18.8422,1013.27
230480,0.103379,9.11377,1.2492,-40.633,-32.864,-39.193,21.6298,-48.1876,-19.123,1013.27
230486,1.54766,8.42511,1.81352,-36.923,-34.194,-40.383,21.2811,-46.3063,-20.0539,1013.28
230492,4.27841,11.3089,3.41084,-26.353,-40.424,-45.843,21.223,-46.8923,-19.714,1013.28
230498,5.81835,11.4332,3.70257,-36.293,-26.004,-52.073,21.6588,-46.7998,-19.3151,1013.28
230504,6.13399,10.0511,4.75948,-28.873,-4.234,-64.393,21.9785,-46.3372,-19.389,1013.28
230510,3.848,8.999,3.69779,-26.423,9.766,-68.173,22.24,-45.6895,-21.0882,1013.27
230516,2.2985,9.1329,1.84221,-12.633,14.596,-68.943,22.4434,-46.954,-19.4628,1013.27
230522,1.34202,9.70679,4.54905,-9.693,3.746,-74.543,22.9083,-46.5839,-19.9209,1013.27
230528,4.06321,10.4098,2.69826,-2.973,-5.774,-77.763,22.4724,-45.412,-21.6054,1013.3
230534,4.29276,10.0081,4.55862,-3.603,1.856,-84.693,23.0536,-45.8746,-21.1917,1013.3
230540,4.50797,10.2376,3.07607,8.997,16.766,-90.923,23.7219,-46.1521,-20.4676,1013.27
230546,3.38889,10.3907,4.12342,11.937,18.516,-97.083,23.4313,-44.8569,-20.2608,1013.27
230552,3.75713,11.7297,1.71787,19.497,15.576,-106.323,24.3902,-45.1344,-20.7041,1013.26
230558,3.42715,11.7489,2.86087,16.207,13.966,-112.343,25.0585,-46.3063,-20.2017,1013.26
230564,3.7667,12.0071,2.0096,19.637,15.786,-121.653,25.32,-43.8392,-20.7041,1013.27
230570,3.56584,11.7489,2.94695,18.517,12.146,-126.483,25.9302,-43.9317,-21.0439,1013.27
230576,3.50845,10.9024,3.0139,26.427,17.046,-137.473,26.7438,-45.0727,-19.5072,1013.25
230582,3.31237,11.4476,2.4161,33.007,13.546,-148.253,27.3249,-43.9317,-18.9752,1013.25
230588,3.34585,11.8397,3.37258,33.357,7.876,-153.573,28.2838,-42.7906,-19.2116,1013.25
230594,4.23059,11.4954,2.73174,39.797,12.356,-162.813,28.3709,-43.7775,-19.4185,1013.28
230600,3.59453,11.395,2.78435,43.717,11.866,-172.403,29.417,-43.4074,-18.5024,1013.28
230606,3.20716,12.1267,1.4931,51.697,9.626,-182.623,29.94,-43.0373,-19.4924,1013.26
230612,3.03977,13.3892,1.06268,53.657,4.936,-191.513,31.2476,-42.2355,-18.5763,1013.26
230618,4.92882,15.0487,1.87569,52.327,-7.874,-207.473,32.2355,-43.1607,-18.2068,1013.27
230624,6.76048,16.0722,0.933558,53.517,-8.084,-221.823,32.3227,-41.6495,-17.8965,1013.27
230630,7.51132,17.789,-1.5246,44.907,-2.064,-246.533,33.1363,-41.5262,-20.3347,1013.3
230636,6.93265,18.6116,-2.8541,34.757,3.116,-263.963,34.5891,-41.1869,-16.8474,1013.3
230642,5.3975,18.559,-4.46577,18.797,-0.384,-289.583,34.56,-40.3543,-17.6158,1013.3
230648,5.57923,18.8507,-3.93971,12.147,-10.394,-306.943,36.1582,-38.0413,-18.5172,1013.25
230654,7.0809,19.5394,-2.28021,5.707,-19.284,-331.653,37.5819,-38.0104,-17.9556,1013.25
230660,9.29993,19.482,-1.98849,0.527,-21.244,-352.583,38.8023,-36.9002,-15.7392,1013.28
230666,8.49649,20.1037,-0.367254,-0.873,-15.154,-384.223,39.2091,-34.9881,-16.8622,1013.28
230672,10.2708,20.9502,0.813998,0.247,-14.244,-406.553,40.4004,-33.6004,-16.9361,1013.27
230678,8.85039,19.9459,2.63609,8.787,9.556,-445.823,42.8412,-32.3668,-16.8326,1013.27
230684,7.15742,19.9459,1.96177,24.117,9.976,-470.113,43.5386,-29.5912,-16.8326,1013.24
230690,6.51658,22.8393,1.57918,33.007,-9.274,-494.473,44.5265,-27.6174,-16.744,1013.24
230696,6.0479,24.2022,2.29176,45.047,-4.864,-490.973,46.3571,-26.7231,-15.2811,1013.24
230702,4.57014,24.7522,6.14159,60.167,-8.014,-499.513,46.2699,-24.0092,-15.5471,1013.25
230708,7.76957,21.8589,4.30037,39.517,-50.154,-511.483,46.8511,-21.4495,-17.6306,1013.25
230732,7.71696,18.0329,-3.96362,65.907,-22.574,-503.293,50.1926,-12.1667,-15.9461,1013.22
230738,5.24446,17.9134,-7.45955,66.677,-17.744,-460.733,49.873,-10.5939,-13.8774,1013.26
230744,8.08521,17.9995,-4.25056,49.947,-53.514,-412.923,49.8439,-8.68185,-16.0199,1013.26
230750,14.5558,13.2792,-8.74124,-6.753,-94.814,-380.303,49.7277,-6.58474,-15.6801,1013.2
230756,14.3693,-5.23343,-12.7585,-35.523,10.886,-335.573,51.1515,-5.32031,-14.8083,1013.2
230762,-9.40881,9.06595,-8.60733,27.547,189.946,-226.583,50.396,-3.90169,-15.1186,1013.2
230768,-17.8832,14.8383,9.89578,29.157,-27.824,-30.163,49.379,-2.91481,-14.2911,1013.23
230774,2.72413,10.7876,-2.66759,9.977,-103.494,64.267,51.0062,-3.65497,-14.9708,1013.23
230780,11.4759,6.66518,-6.05353,16.347,5.846,164.507,51.2677,-5.35115,-14.9265,1013.21
230786,10.2325,7.05734,-2.74411,26.427,27.196,207.067,50.1926,-5.59787,-16.1086,1013.21
230792,11.6433,7.17212,-2.285,22.997,22.506,239.547,50.5703,-7.23238,-15.3846,1013.22
230798,12.7815,5.76131,-2.74889,27.267,32.866,245.497,51.4711,-9.1136,-13.8921,1013.22
230804,12.0689,5.06308,-2.35673,36.297,49.806,241.927,50.9481,-9.422,-14.232,1013.17
230810,10.9738,4.70918,-1.84023,37.837,56.036,235.557,49.9601,-10.9331,-15.2959,1013.17
230816,9.07038,3.31272,-1.81632,38.117,58.626,227.157,51.2967,-12.5677,-12.8135,1013.17
230822,7.80304,2.7484,-1.45764,38.047,56.526,223.867,50.7156,-13.0303,-13.6409,1013.14
230828,6.37789,2.6671,-1.7685,39.237,53.236,222.747,49.5533,-13.7704,-14.6014,1013.14
230834,4.99099,3.26968,-1.09896,37.907,48.336,226.107,50.0182,-16.0834,-14.0842,1013.15
230840,3.72844,4.47963,-1.04157,35.807,42.176,236.047,51.0062,-17.3478,-11.129,1013.15
230846,2.77674,5.24959,-0.864624,31.397,37.696,245.917,48.885,-17.7796,-12.8873,1013.16
230852,2.34632,5.88565,-0.874189,22.227,30.486,264.187,49.4662,-20.1542,-12.4884,1013.16
230858,2.11199,5.71349,-0.35769,14.527,24.956,282.877,48.9141,-22.313,-12.2963,1013.15
230864,1.63375,5.37394,0.847475,10.957,16.136,294.637,48.1877,-22.313,-11.6313,1013.15
230870,1.90156,4.64701,1.82787,10.887,4.236,309.477,47.2869,-23.9475,-12.6952,1013.15
230876,1.91113,4.4605,2.48784,13.687,-1.644,317.807,47.6937,-26.2605,-12.7248,1013.15
230882,1.99243,4.30746,3.37737,19.917,-13.684,328.097,47.1416,-27.4016,-11.9269,1013.15
230888,2.39893,4.43659,3.59257,24.887,-21.454,333.557,45.1076,-28.2034,-14.1433,1013.19
230894,3.04456,4.97221,3.81735,31.677,-27.684,340.347,45.1076,-30.7014,-11.8825,1013.19
230900,3.44149,5.6274,4.0469,34.967,-30.834,344.127,43.6839,-32.5518,-12.0451,1013.19
230906,4.24016,6.91387,3.99908,36.927,-32.374,349.237,42.4925,-33.1686,-11.6905,1013.19
230912,4.82839,7.87035,3.94169,36.087,-29.154,352.457,42.3763,-34.8648,-12.1485,1013.21
230918,5.35445,9.37681,3.91778,30.907,-21.314,356.587,40.9525,-36.7769,-11.3063,1013.21
230924,5.56966,10.2281,3.98473,25.937,-15.574,359.247,39.3544,-37.517,-11.9269,1013.16
230930,5.86617,11.4811,3.92734,17.047,-6.054,363.587,37.9597,-39.6758,-12.5623,1013.16
230936,5.85182,12.2271,3.81735,10.117,1.226,366.317,38.0759,-41.3103,-11.853,1013.16
230942,5.48836,13.241,3.9656,-0.103,10.886,371.217,36.6812,-42.0196,-12.1781,1013.19
230948,5.02447,13.8005,4.1569,-6.193,15.436,374.017,34.037,-43.099,-12.2224,1013.19
230954,4.37885,14.3266,4.40558,-12.773,18.936,378.077,33.2525,-45.1036,-11.7791,1013.18
230960,3.81452,14.5609,4.62079,-14.943,19.216,380.317,31.2766,-46.8923,-12.976,1013.18
230966,3.28368,15.2257,4.81687,-16.763,14.176,382.277,29.3008,-46.1521,-12.8135,1013.17
230972,3.34106,15.6322,4.75948,-17.113,10.326,381.647,27.9351,-47.3549,-13.2863,1013.17
230978,3.45106,16.5934,4.47253,-17.743,4.656,376.607,26.1917,-49.5137,-12.1633,1013.19
230984,3.61366,17.086,4.34819,-17.953,1.156,370.517,25.4362,-49.0819,-12.8873,1013.19
230990,3.7667,18.2147,4.0756,-17.043,-3.464,357.637,23.6347,-49.2053,-13.9217,1013.19
230996,3.70453,19.0946,3.97995,-15.363,-6.614,343.497,21.4264,-50.7164,-12.9908,1013.18
231002,3.09716,20.4863,4.27167,-13.333,-9.834,335.307,20.3803,-50.0688,-13.508,1013.18
231008,2.5424,22.1889,3.94647,-8.713,-16.974,327.117,18.6369,-50.0379,-15.0742,1013.19
231014,2.63327,23.4514,3.39171,-5.423,-20.194,324.877,17.0388,-51.6725,-13.6557,1013.19
231020,2.77674,25.4983,2.67913,-1.993,-20.334,325.367,14.6852,-51.2099,-13.7739,1013.19
231026,2.68109,26.6221,2.52132,-1.783,-18.444,327.467,13.4358,-50.8706,-13.9217,1013.19
231032,1.75809,27.7412,2.56914,-1.013,-9.274,332.087,11.4018,-51.3949,-13.8921,1013.21
231038,0.275546,28.736,2.67435,-0.383,-1.084,335.867,10.2686,-52.0117,-13.7739,1013.21
231044,-3.63646,30.0798,3.42997,1.507,11.516,343.427,8.93196,-51.5183,-14.2615,1013.23
231050,-6.35764,31.6724,3.44432,2.557,15.226,350.987,6.86893,-50.8398,-14.8822,1013.23
231056,-11.0157,33.7431,2.59305,1.787,28.386,366.247,4.95118,-52.536,-14.3945,1013.23
231062,-15.1238,34.7761,2.19611,-1.223,36.436,379.477,2.88815,-51.1482,-14.0695,1013.23
231068,-19.514,34.3027,0.311846,-10.603,41.756,397.467,1.08663,-49.6987,-13.7,1013.23
231074,-19.8775,33.284,-2.68672,-23.623,44.556,402.997,-1.03451,-51.3024,-12.6657,1013.23
231080,-18.6245,31.9928,-8.44951,-57.503,58.836,391.447,-2.57452,-50.7164,-11.3654,1013.23
231086,-19.2893,30.4002,-11.6346,-90.893,74.586,368.837,-3.85302,-49.2669,-14.1581,1013.25
231092,-24.1769,25.2209,-10.7116,-137.863,82.286,317.107,-5.50925,-48.9894,-15.355,1013.25
231098,-28.6054,18.2721,-6.20178,-147.103,84.246,273.707,-7.92096,-50.2538,-14.8822,1013.22
231104,-36.8694,8.60684,-0.175958,-110.143,75.916,203.987,-7.83379,-48.7735,-17.01,1013.22
231110,-42.7087,5.10612,1.89004,-63.523,49.806,161.637,-8.21153,-48.7735,-16.5076,1013.22
231116,-48.591,5.34046,2.10046,16.907,-21.454,111.797,-9.49003,-48.8969,-15.6062,1013.23
231122,-47.405,8.74553,1.01008,66.677,-77.804,82.957,-8.96701,-49.0511,-14.6162,1013.23
231128,-38.1845,16.12,-3.21756,105.597,-115.464,31.997,-9.69343,-48.5268,-15.8722,1013.28
231134,-31.4509,19.6207,-4.06405,99.997,-101.954,-29.043,-9.984,-49.2669,-14.2172,1013.28
231140,-23.6317,22.7197,-2.27543,90.197,-92.084,-70.413,-10.5942,-50.0071,-13.5671,1013.27
231146,18.8121,54.8622,1.01486,393.577,-484.224,-398.223,-10.0421,-48.4034,-12.843,1013.27
231152,2.28894,60.8163,-25.4222,-137.233,-73.464,-294.343,-6.99115,-49.2978,-13.2715,1013.25
231158,23.2454,-18.1029,-13.6193,-396.023,32.096,-308.273,-6.70058,-50.7473,-13.508,1013.25
231164,16.2153,-26.0703,8.28889,-217.173,89.566,-298.123,-3.41716,-49.1436,-15.1038,1013.25
231170,10.7633,-7.12248,7.19372,173.917,50.646,-284.753,-3.38811,-49.8221,-15.2072,1013.22
231176,14.6467,4.76657,3.64996,194.427,0.596,-296.863,-2.22584,-51.179,-12.0451,1013.22
231182,11.9016,14.4366,-2.7202,122.047,136.886,-306.803,0.0405907,-51.0248,-12.2076,1013.26
231188,3.59931,14.8048,-3.70537,88.307,200.236,-290.563,1.5806,-50.5622,-13.109,1013.26
231194,-2.79954,12.9301,-1.25678,55.127,207.096,-290.003,2.97532,-51.4874,-12.119,1013.26
231200,-7.97409,14.1783,3.42997,27.337,183.016,-297.983,5.06741,-52.135,-12.0599,1013.26
231206,-16.0659,16.603,12.4974,-0.523,39.656,-301.693,6.7527,-51.3332,-13.5227,1013.28
231212,-13.5312,23.5805,10.0201,19.007,-78.224,-277.123,8.438,-52.4743,-13.1385,1013.28
231218,-3.04822,27.1482,-3.19365,-24.673,-121.834,-231.763,8.69951,-52.9677,-11.6461,1013.24
231224,0.935517,20.4098,-1.41938,-54.843,-83.754,-214.053,9.74555,-50.6856,-13.7,1013.24
231230,-0.135741,12.6145,1.21572,-51.133,-46.094,-193.823,10.5301,-51.0557,-13.4636,1013.24
231236,0.366411,10.9598,-0.128134,-31.323,-47.984,-188.993,11.2274,-52.2892,-12.9464,1013.26
231242,-2.54607,35.0774,-19.0904,67.447,69.196,-101.353,11.9248,-51.2715,-13.2568,1013.26
231248,-0.15487,26.9473,-5.33617,-35.383,114.136,-58.513,12.9418,-50.8398,-12.9612,1013.26
231254,-0.389208,8.07121,1.57918,-104.333,95.236,-48.503,11.4599,-50.8706,-13.4636,1013.26
231260,1.10768,-1.29273,10.5175,-48.683,51.346,-53.403,12.535,-51.765,-13.8183,1013.24
231266,-0.489638,7.13386,6.52418,27.967,21.386,-49.343,13.2033,-49.7604,-14.2024,1013.24
231272,-0.881795,11.7584,2.46393,13.057,15.646,-39.753,13.5229,-51.7341,-12.6066,1013.23
231278,1.16985,10.1229,0.354888,7.737,18.236,-33.173,13.3486,-52.135,-11.7052,1013.23
231284,1.74852,9.76896,0.402712,20.267,11.656,-26.663,13.6101,-51.2099,-11.9712,1013.23
231290,2.01634,10.7207,0.842693,18.237,6.966,-25.123,13.7554,-50.4697,-13.2715,1013.23
231296,2.12155,9.27159,1.48832,9.207,1.086,-24.283,13.9007,-51.6416,-12.7544,1013.23
231302,2.50893,8.4825,0.775739,13.407,-4.234,-23.513,13.8426,-51.0248,-12.6509,1013.26
231308,3.79061,9.75461,-1.11331,19.847,-0.804,-24.213,13.5229,-49.6062,-13.6114,1013.26
231314,3.74279,10.8641,-0.874189,14.877,9.066,-24.703,13.8716,-51.5491,-12.5179,1013.25
231320,2.59979,10.1802,0.326194,3.957,14.596,-25.403,14.569,-50.5622,-11.7791,1013.25
231326,2.04982,9.66375,0.780522,2.487,7.946,-25.193,14.9177,-50.1613,-13.0056,1013.25
231332,2.54719,9.8933,0.51749,1.157,-2.834,-25.123,14.7433,-50.3463,-12.7839,1013.25
231338,3.51323,10.1611,-0.305083,-1.363,-2.344,-25.403,14.598,-51.7958,-12.6952,1013.25
231344,2.84369,10.0942,0.445754,-4.863,5.986,-24.563,15.2082,-50.0071,-12.0008,1013.26
231350,2.32241,9.63984,0.986165,-5.983,4.936,-24.843,15.0048,-50.1613,-12.8726,1013.26
231356,1.84417,9.4868,1.31137,-4.093,-1.434,-22.673,15.3535,-51.1482,-11.3654,1013.25
231362,1.91591,9.39594,1.19181,-2.133,-4.374,-20.713,15.586,-50.9631,-11.7939,1013.25
231368,2.0546,9.30507,1.12485,0.387,-7.944,-18.403,15.4988,-49.8221,-13.1829,1013.26
231374,2.39415,9.23333,1.01964,1.787,-9.764,-17.703,15.7894,-51.5491,-12.0746,1013.26
231380,2.88674,9.26203,0.799651,3.187,-11.864,-18.543,16.0218,-51.2407,-12.3997,1013.28
231386,3.07325,9.28116,0.541402,4.447,-12.424,-19.383,15.9346,-50.1613,-12.4145,1013.28
231392,3.02543,9.49158,0.244893,5.707,-10.954,-21.203,15.2663,-50.5622,-12.9317,1013.25
231398,2.84369,9.64462,0.192286,4.587,-11.094,-22.323,15.7022,-51.5799,-12.2224,1013.25
231404,2.56153,9.54897,0.206634,1.507,-9.694,-22.603,15.9346,-49.3903,-12.9021,1013.25
231410,2.76718,9.80244,0.02012,-1.013,-12.074,-23.513,16.3124,-50.3463,-14.2911,1013.26
231416,2.76239,9.53462,0.000990396,-1.713,-10.814,-23.723,15.4988,-51.3641,-11.6609,1013.26
231422,2.50414,9.76418,-0.285954,-4.023,-9.134,-22.743,16.4577,-50.1613,-11.853,1013.27
231428,2.55197,9.60636,0.13968,-7.033,-8.224,-23.373,16.4867,-49.8837,-13.2863,1013.27
231434,1.98764,9.82157,0.307064,-11.233,-9.624,-22.393,16.1962,-50.6856,-12.1929,1013.24
231440,2.54719,9.87896,-0.644634,-13.963,-12.284,-22.253,16.3705,-50.7473,-12.4736,1013.24
231446,2.20764,9.58245,-0.228565,-18.023,-11.374,-21.483,17.155,-50.0071,-13.2124,1013.21
231452,2.59023,10.142,-0.740282,-20.473,-13.124,-20.503,16.6029,-50.3155,-13.2715,1013.21
231458,2.06895,9.57288,-0.00379199,-23.763,-11.514,-20.923,16.7192,-51.1482,-12.5032,1013.21
231464,2.37024,10.0846,-0.214218,-26.143,-13.404,-20.153,17.3294,-50.5005,-13.7444,1013.29
231470,2.19807,9.87418,0.522272,-31.113,-15.224,-21.693,17.2713,-49.6062,-13.6557,1013.29
231476,2.6524,9.59201,0.24011,-32.163,-14.664,-22.043,17.0679,-50.6856,-13.5375,1013.27
231482,2.03547,9.38159,0.603573,-32.373,-10.744,-20.923,17.0388,-49.6987,-13.4488,1013.27
231488,2.1359,9.46767,0.809216,-32.863,-13.404,-21.623,17.3003,-49.452,-15.2072,1013.26
231494,2.44197,9.52506,0.469666,-30.833,-14.664,-21.273,16.9516,-50.5622,-14.8083,1013.26
231500,2.35589,9.6494,1.33528,-32.093,-14.524,-22.323,17.126,-51.1482,-13.4341,1013.28
231506,2.67153,9.47245,0.919211,-33.143,-15.784,-24.213,17.4456,-49.6679,-13.9217,1013.28
231512,2.65718,9.75461,0.455318,-32.723,-13.544,-24.213,17.8233,-49.7912,-15.7983,1013.27
231518,2.16459,9.79287,1.64135,-32.513,-20.964,-27.503,17.3584,-50.1921,-15.1038,1013.27
231524,2.70022,9.74505,-0.137699,-33.983,-17.674,-27.013,17.9686,-49.2978,-15.887,1013.27
231530,1.72461,9.15681,1.42615,-35.033,-18.864,-27.643,17.7362,-48.9586,-16.212,1013.23
231536,1.72461,9.61593,0.12055,-32.443,-22.854,-27.713,18.1139,-50.5931,-15.2663,1013.23
231542,2.34632,10.2137,0.99573,-34.613,-35.524,-29.533,17.7943,-49.2053,-15.1777,1013.26
231548,2.27459,8.47771,1.44528,-33.143,-23.064,-29.953,18.6369,-48.681,-16.8917,1013.26
231554,1.65766,8.92726,0.574878,-25.863,-25.794,-28.483,17.8233,-49.3903,-16.7292,1013.28
231560,2.70022,9.74505,2.64566,-21.803,-30.904,-29.953,18.0558,-49.8221,-16.6405,1013.28
231566,4.1732,9.47245,1.98569,-26.073,-25.724,-34.783,18.6369,-47.91,-17.2759,1013.26
231572,4.77578,9.99374,2.05264,-12.633,-11.584,-39.053,18.6079,-48.9586,-15.8426,1013.26
231578,5.32576,11.9306,2.55001,-14.873,-12.704,-46.753,18.5498,-50.0688,-15.6505,1013.26
231584,4.74709,9.21899,1.26833,-18.303,2.556,-55.083,18.9565,-48.095,-18.0443,1013.25
231590,3.22629,9.53941,2.09568,-7.523,5.566,-59.703,19.2471,-48.1567,-19.1673,1013.25
231596,2.32241,9.65418,3.52084,-4.723,4.866,-61.383,19.3343,-48.7735,-18.4285,1013.27
231602,2.94891,10.1994,2.41132,-1.083,2.346,-63.553,19.712,-48.9894,-15.5766,1013.27
231608,2.71935,9.58245,3.9656,-4.373,5.146,-66.423,19.5377,-47.139,-18.0443,1013.31
231614,3.63757,9.17594,1.91873,6.897,7.176,-66.003,19.9735,-48.7427,-16.4485,1013.31
231620,3.19759,10.7015,2.65522,15.297,3.816,-75.313,20.4384,-48.1259,-16.8326,1013.28
231626,3.47019,10.142,2.9326,15.017,6.196,-80.493,20.9034,-47.2007,-17.8818,1013.28
231632,4.05842,11.2898,1.4118,25.587,8.786,-89.803,21.1939,-47.8792,-17.7636,1013.28
231638,3.85756,12.2941,1.90917,23.417,4.586,-95.683,21.6879,-49.2978,-16.4041,1013.28
231644,4.73752,11.768,1.50745,25.097,4.166,-104.363,23.0245,-47.0157,-16.0495,1013.28
231650,4.57971,12.0502,1.34006,27.057,5.076,-114.513,22.5015,-47.324,-16.5371,1013.25
231656,4.13016,12.1458,1.54571,23.977,3.536,-122.843,23.2279,-47.8483,-16.5223,1013.25
231662,4.13972,11.6532,1.70831,25.797,3.956,-130.543,23.6928,-47.6633,-15.5619,1013.28
231668,4.1206,11.7345,2.43523,28.177,3.326,-143.143,24.1868,-45.5045,-16.8179,1013.28
231674,4.30233,11.9019,1.61744,33.147,4.446,-147.343,25.0004,-47.324,-15.7835,1013.27
231680,4.10147,12.0693,2.95173,35.597,0.316,-159.103,25.6105,-46.7998,-15.3993,1013.27
231686,4.57971,11.7345,2.02395,40.637,-1.154,-173.523,26.337,-45.0727,-14.6014,1013.26
231692,4.771,12.978,1.38789,42.457,-3.674,-181.643,27.2668,-45.9671,-14.9413,1013.26
231698,4.771,13.5423,1.10094,40.077,-5.214,-196.973,28.1966,-46.0596,-13.6262,1013.26
231704,4.90969,13.6905,1.67961,44.767,-6.404,-206.563,29.2136,-43.9934,-14.8822,1013.28
231710,5.36402,14.384,0.307064,47.987,-14.174,-226.653,30.1143,-43.6541,-15.8722,1013.28
231716,5.60314,15.3405,-0.912448,52.677,-15.924,-241.213,31.6544,-44.2709,-14.3798,1013.23
231722,6.50223,17.7221,-1.48155,47.427,-24.464,-266.693,31.8578,-43.5616,-13.1238,1013.23
231728,7.77913,19.0468,-3.19365,42.807,-26.284,-286.083,33.0781,-41.8654,-14.365,1013.25
231734,8.75474,20.362,-4.35099,22.227,-27.824,-314.783,35.054,-42.2972,-14.2911,1013.25
231740,9.01777,20.0033,-3.35625,13.057,-26.564,-336.063,35.6932,-40.1384,-13.966,1013.25
231746,8.85995,19.2859,-0.673328,14.177,-26.284,-367.773,36.4487,-38.0721,-14.4093,1013.25
231752,8.56344,21.5911,0.813998,25.727,-24.954,-383.243,38.2793,-38.0413,-14.1729,1013.25
231758,13.671,21.2515,1.10572,11.797,-24.324,-420.273,40.197,-37.3011,-12.2963,1013.26
231764,11.6529,20.4672,2.31089,17.747,13.756,-445.753,40.4586,-34.0321,-13.7739,1013.26
231770,7.60696,22.9349,3.38215,40.007,22.576,-485.513,41.6499,-31.8117,-13.7,1013.24
231776,7.7074,23.0975,2.44001,24.257,1.576,-499.583,44.3812,-30.3313,-11.986,1013.24
231782,1.55245,17.7699,3.17172,62.547,26.916,-495.103,44.8461,-28.8819,-11.853,1013.25
231788,1.54288,23.9918,3.46345,91.317,-11.934,-497.483,45.9793,-25.9829,-13.2715,1013.25
231794,9.77339,26.603,2.47827,51.557,-54.144,-505.883,47.868,-24.1634,-11.986,1013.23
231800,11.4951,28.0186,0.321411,58.907,-15.574,-509.593,49.1175,-22.4981,-10.8334,1013.23
231806,8.21911,33.5901,-5.26921,54.427,12.286,-506.163,49.0594,-18.1188,-11.8678,1013.23
231812,7.86043,30.802,-4.69054,35.247,20.686,-503.503,49.4952,-16.8852,-11.6018,1013.23
231818,11.935,16.713,1.69874,11.657,-10.254,-489.923,51.2096,-14.5722,-10.6118,1013.23
231824,9.73035,13.7097,-7.18217,48.197,24.396,-443.303,50.0182,-11.735,-11.2915,1013.21
231830,8.23824,16.9521,-4.68576,43.577,7.526,-434.413,50.5703,-10.0696,-11.4836,1013.21
231836,14.0106,5.78044,-10.6781,-18.933,-81.444,-395.773,51.5292,-8.15757,-10.198,1013.19
231842,12.4898,-6.94074,-14.6332,-55.193,-18.094,-373.373,50.919,-5.47451,-10.4345,1013.19
231848,-16.8598,11.4571,-3.04062,38.537,151.796,-202.993,50.2797,-4.27176,-8.76473,1013.16
231854,-19.2032,14.9961,7.84413,32.517,-17.044,-81.753,51.1224,-4.1484,-10.2719,1013.16
231860,9.16603,12.7627,-6.7948,-4.443,-130.724,32.697,51.1515,-5.04276,-11.7052,1013.22
231866,13.4606,11.4811,-8.43516,-17.463,-29.434,98.497,50.4831,-4.39512,-11.0994,1013.22
231872,7.97999,8.58293,-1.29504,-8.643,12.986,159.397,50.5122,-5.19695,-10.198,1013.22
231878,9.28559,8.28642,-1.18983,-10.743,-11.934,181.517,51.3839,-6.3997,-10.0207,1013.16
231884,13.2502,5.78044,-3.23669,-14.033,4.026,195.237,50.7447,-6.5539,-10.4936,1013.16
231890,12.3368,4.82396,-2.48586,-8.783,27.826,196.847,50.3379,-7.91085,-10.73,1013.16
231896,9.29037,4.50354,-1.12287,-6.963,41.056,198.667,51.2096,-9.08276,-9.82863,1013.16
231902,8.18085,3.49924,-0.826365,-8.433,39.306,201.187,50.8899,-9.69956,-10.7004,1013.18
231908,7.49219,2.26538,-1.28069,-5.983,41.756,207.767,50.6575,-10.2238,-11.2472,1013.18
231914,6.68874,2.28451,-1.39069,-6.893,44.206,213.927,51.2386,-10.8098,-10.0503,1013.19
231920,5.94747,2.54754,-1.43373,-7.873,45.746,225.757,50.5994,-12.3518,-8.69085,1013.19
231926,5.6127,2.89187,-1.40025,-8.573,50.436,234.507,50.0182,-12.691,-10.7004,1013.19
231932,4.30233,3.79574,-0.969837,-12.493,46.446,248.157,50.2216,-14.5414,-9.99117,1013.14
231938,4.35493,4.16877,-1.24722,-16.413,43.296,257.537,50.5122,-15.8058,-7.64172,1013.14
231944,4.02495,4.7044,-1.41938,-22.223,46.096,271.747,49.408,-16.9777,-7.9668,1013.18
231950,3.29802,4.97221,-1.31417,-27.123,45.886,286.657,48.9431,-17.7179,-9.82863,1013.18
231956,2.65718,5.16351,-1.46242,-34.333,41.196,296.247,49.4371,-21.3878,-7.56784,1013.19
231962,2.19329,5.12047,-1.32373,-39.233,36.156,308.707,48.3911,-23.1457,-10.4936,1013.19
231968,2.00199,4.98178,-1.02244,-39.653,31.326,315.357,47.5194,-23.0223,-9.42966,1013.17
231974,1.93982,5.01047,-0.740282,-38.183,23.206,323.197,48.0424,-25.4895,-8.5283,1013.17
231980,1.98286,5.03439,-0.520291,-35.873,18.586,327.117,47.8971,-26.3222,-7.36097,1013.13
231986,1.83939,5.03917,-0.156829,-29.293,11.796,332.437,46.328,-27.4324,-8.98637,1013.13
231992,1.93982,5.18264,-0.19987,-24.603,6.056,335.937,45.805,-29.0669,-8.88294,1013.13
231998,2.55675,5.60827,-0.482032,-18.163,0.946,341.397,46.0375,-31.0098,-7.28709,1013.2
232004,2.75761,6.11043,-0.491597,-14.593,-1.224,344.617,44.5846,-31.5341,-9.99117,1013.2
232010,3.11151,7.14342,-0.601592,-10.253,-5.564,349.307,43.4805,-32.6135,-10.7743,1013.18
232016,3.37454,7.85122,-0.620722,-7.733,-6.964,352.107,42.8703,-35.4199,-8.43965,1013.18
232022,3.32672,9.11377,-0.510726,-4.303,-8.504,357.357,42.1729,-36.5918,-9.85818,1013.18
232028,3.2215,9.92678,-0.443773,-2.553,-9.554,361.767,39.9355,-36.6227,-9.97639,1013.18
232034,3.38889,11.0793,-0.472467,-0.313,-11.094,369.327,39.7031,-39.9534,-9.2819,1013.16
232040,3.71409,11.945,-0.606374,0.317,-11.234,374.297,38.7151,-41.4337,-8.91249,1013.16
232046,4.13494,13.1645,-0.754629,-0.313,-10.954,380.457,37.4948,-41.6804,-11.454,1013.16
232052,4.21624,13.877,-0.71637,-1.223,-11.304,383.047,35.4898,-43.4074,-10.3901,1013.19
232058,4.1732,14.8957,-0.553768,-2.413,-14.244,384.587,35.0831,-45.5045,-9.34101,1013.19
232064,4.1206,15.3596,-0.35769,-2.343,-16.554,383.887,33.0491,-44.7335,-10.6118,1013.16
232070,3.78105,16.3543,-0.35769,1.367,-20.264,379.967,30.6664,-46.8306,-10.6857,1013.16
232076,3.39845,17.2008,-0.228565,4.167,-22.784,376.327,29.8238,-48.4651,-10.0355,1013.19
232082,3.14977,18.3868,0.0488144,11.237,-27.474,369.537,28.2257,-49.0819,-11.0403,1013.19
232088,2.90108,19.5107,0.0296848,18.517,-29.364,363.797,26.9472,-48.8969,-11.8382,1013.19
232094,1.99243,21.5145,0.264022,28.107,-29.504,362.537,24.826,-51.5799,-11.6018,1013.19
232100,0.92117,22.7484,0.488795,36.227,-31.744,365.197,24.1287,-51.7958,-11.8678,1013.19
232106,0.548142,24.5944,0.125333,38.607,-31.744,369.467,21.7169,-51.765,-13.0942,1013.2
232112,-0.183565,25.9143,0.264022,39.447,-26.634,376.327,19.8573,-52.0425,-11.2915,1013.2
232118,-0.87223,27.0047,0.335758,38.747,-21.454,379.687,18.3173,-53.5537,-10.4049,1013.17
232124,-2.42173,28.9799,0.3788,35.737,-9.624,380.947,16.3705,-53.2144,-11.9564,1013.17
232130,-3.91862,30.4289,0.412277,32.027,-0.384,378.637,14.5399,-54.2322,-10.2276,1013.2
232136,-6.97936,32.2223,0.61792,23.207,12.636,370.307,11.8376,-55.5274,-10.8186,1013.2
232142,-9.16969,33.0162,0.51749,16.207,20.266,361.837,10.0071,-55.0648,-12.0894,1013.22
232148,-13.1773,33.0258,0.75661,2.977,32.726,346.297,9.3097,-53.8929,-11.9564,1013.22
232154,-16.2094,31.5384,1.2205,-5.843,38.256,334.957,6.98516,-55.99,-11.321,1013.21
232160,-19.5332,27.9134,2.06699,-12.143,38.326,314.867,5.09647,-55.9283,-10.6118,1013.21
232166,-20.6475,25.7804,1.89482,-13.473,35.526,297.507,3.17872,-53.5845,-13.4045,1013.21
232172,-21.2357,24.7905,-1.09418,-17.253,33.566,262.647,2.59759,-55.0031,-12.9021,1013.22
232178,-21.2309,25.2065,-4.39882,-26.983,35.316,232.827,0.999464,-56.1442,-10.7004,1013.22
232184,-21.7522,25.5078,-10.0803,-58.833,43.016,178.787,0.476442,-55.0648,-12.3258,1013.27
232190,-24.1721,23.7575,-11.5055,-86.693,49.246,140.357,0.0405907,-54.6947,-12.4884,1013.27
232196,-29.9684,15.5222,-5.51312,-105.453,57.856,86.317,-0.976396,-55.1265,-13.4341,1013.3
232202,-34.2056,9.40072,-0.00379199,-82.493,58.906,55.937,-1.58659,-54.263,-15.222,1013.3
232208,-40.3079,5.63219,3.86039,-14.173,27.756,23.107,-0.889226,-54.0163,-14.5127,1013.29
232214,-41.4031,5.0583,4.97469,34.757,-16.834,9.177,-2.10961,-55.6508,-13.8921,1013.29
232220,-34.7555,6.88996,3.51127,105.457,-75.074,-12.243,-2.74886,-55.4966,-12.7396,1013.29
232226,-28.9114,10.7446,1.24441,131.287,-74.444,-39.613,-1.55753,-54.6639,-12.4293,1013.25
232232,25.101,49.5777,75.5199,361.097,-429.134,-121.583,-1.23791,-55.6508,-10.1242,1013.25
232238,7.62131,69.9268,-30.9124,-62.823,27.406,-284.543,0.650783,-55.9283,-10.1537,1013.33
232244,11.892,19.9842,-24.2601,-298.443,248.956,-268.373,2.24891,-54.3863,-11.7052,1013.33
232250,11.3564,-26.8116,4.43906,-275.903,249.096,-276.703,4.34099,-54.6947,-13.3159,1013.25
232256,1.16029,-12.9522,9.49884,-12.843,236.706,-242.893,5.12553,-55.7433,-12.0451,1013.25
232262,5.67009,11.7584,17.9254,106.157,6.616,-257.803,6.92704,-54.9415,-12.3258,1013.26
232268,18.2956,7.13864,5.03208,53.797,43.016,-273.273,9.1063,-54.6022,-12.5327,1013.26
232274,7.24828,10.1229,4.53949,83.407,230.616,-257.313,9.62932,-55.8667,-11.2028,1013.26
232280,-3.54559,10.5246,9.93404,73.117,250.146,-239.953,11.8667,-55.99,-11.3063,1013.26
232286,-10.6283,8.4012,12.3491,33.497,174.126,-267.113,12.9418,-54.7256,-10.863,1013.26
232292,-12.9047,9.812,11.9857,27.407,86.696,-283.773,13.9297,-55.2499,-10.5379,1013.29
232298,-14.6312,27.8608,1.8996,31.187,-92.994,-272.083,15.4116,-55.5891,-9.45922,1013.29
232304,-6.72589,27.5164,-5.38399,-31.743,-154.804,-245.343,17.3584,-53.492,-9.99117,1013.26
232310,3.23107,15.4791,2.31089,-45.813,-85.224,-240.023,18.3464,-53.307,-12.1337,1013.26
232316,2.42284,12.9158,-0.132917,-22.083,-48.194,-194.523,18.8984,-55.2499,-11.4688,1013.25
232322,-0.030528,15.2305,-4.61403,17.537,-16.344,-196.553,21.0777,-53.307,-10.4788,1013.25
232328,-8.83014,33.6762,-12.8111,89.287,81.166,-125.923,21.3101,-52.5051,-11.2472,1013.27
232334,-7.35238,25.9765,-2.65324,-23.203,94.606,-56.693,20.9034,-54.3555,-10.0355,1013.27
232340,-1.62785,10.0272,3.80778,-78.153,43.856,-53.543,20.9034,-54.3555,-10.5231,1013.27
232346,4.56536,-0.283643,4.5634,8.507,22.576,-56.973,22.269,-52.5668,-11.2176,1013.23
232352,2.06416,7.37298,3.46345,51.277,24.326,-55.993,22.4143,-52.9369,-9.76952,1013.23
232358,-0.939184,13.394,3.0426,29.437,32.096,-48.293,22.2109,-53.7387,-9.5331,1013.25
232364,-2.04392,10.9933,2.93738,13.267,18.446,-32.333,22.4434,-52.906,-9.01593,1013.25
232370,-0.55181,9.18551,1.11529,29.717,-1.644,-24.353,22.9083,-52.6285,-10.1389,1013.28
232376,1.82504,10.8211,0.823563,24.677,-12.214,-19.943,21.6588,-53.3378,-8.36576,1013.28
232382,2.32241,10.3715,1.20137,13.757,-9.344,-17.983,22.3271,-52.8135,-8.76473,1013.23
232388,2.37024,9.4868,-0.109005,15.787,-10.044,-16.793,23.286,-52.6902,-9.54788,1013.23
