Timestamp,AccX,AccY,AccZ,AngularVelX,AngularVelY,AngularVelZ,MagX,MagY,MagZ,AirPressure
34472,0.983341,9.66853,0.87617,-0.313,-0.594,0.147,13.581,-50.7781,4.9921,1013.49
34478,1.08377,9.49158,0.933558,-0.173,-1.014,0.007,13.4358,-50.1921,5.33196,1013.5
34484,0.954646,9.5968,1.06268,0.037,0.456,0.217,13.4939,-50.4697,4.60792,1013.5
34490,0.835086,9.58723,1.03399,-0.313,-1.014,0.357,12.6803,-51.2715,4.88867,1013.48
34496,1.07899,9.57767,0.880952,-0.033,-1.504,0.287,13.8426,-50.5314,4.81479,1013.48
34502,1.04073,9.66853,0.87617,-0.593,-0.104,0.147,13.9588,-50.7781,5.77525,1013.51
34508,0.92117,9.5681,1.01486,-0.733,0.036,0.217,13.029,-51.9809,5.00688,1013.51
34514,0.940299,9.53941,0.971818,-0.243,-1.224,0.357,13.1743,-51.1173,4.63747,1013.49
34520,1.05986,9.60636,0.890517,-0.243,-1.014,0.357,13.9007,-50.5314,4.85912,1013.49
34526,1.0216,9.61114,0.87617,-0.733,-0.664,0.287,13.9297,-51.3641,4.09074,1013.49
34532,1.0216,9.61593,0.919211,-0.733,-0.944,0.077,13.9878,-52.2276,4.69658,1013.48
34538,1.04551,9.58723,0.938341,-0.733,-0.874,0.077,14.2203,-50.4697,5.50928,1013.48
34544,0.997688,9.61593,0.95747,-0.733,-0.454,0.007,13.9878,-51.4566,4.54881,1013.49
34550,0.959429,9.60158,0.9766,-0.733,-1.014,0.007,13.4067,-52.8444,3.79522,1013.49
34556,1.04551,9.5968,0.933558,-0.593,-1.224,-0.063,13.6973,-50.994,4.74091,1013.48
34562,1.09812,9.63027,0.880952,-0.663,-0.734,-0.343,13.9007,-51.1482,4.26806,1013.48
34568,1.04551,9.61593,0.933558,-0.803,-0.454,-0.483,12.8837,-51.5799,3.95776,1013.48
34574,0.968994,9.58245,0.952688,-0.873,-0.384,-0.413,13.6682,-51.0865,4.34194,1013.48
34580,0.964211,9.57288,0.971818,-0.873,-0.524,-0.343,14.8595,-50.8706,4.16463,1013.49
34586,0.949864,9.57288,1.00051,-0.803,-0.664,-0.133,13.8716,-52.1659,4.87389,1013.49
34592,1.00725,9.55375,0.967035,-0.803,-1.154,-0.133,13.8135,-51.9809,5.46495,1013.49
34598,1.02638,9.52506,0.99573,-0.523,-0.454,0.007,14.1622,-51.2715,3.26327,1013.46
34604,0.863781,9.57288,1.03877,-0.733,-0.244,0.147,14.6271,-51.9809,4.9921,1013.46
34610,1.01204,9.49158,0.9766,-0.383,-1.644,0.077,13.3776,-52.536,4.74091,1013.51
34616,1.0216,9.64462,0.95747,-0.243,0.176,0.217,14.3075,-50.2847,4.09074,1013.51
34622,0.935517,9.57767,0.99573,-0.523,-0.314,0.217,13.6973,-51.4257,3.94298,1013.5
34628,1.02638,9.58245,0.990947,0.037,-0.594,0.357,12.2154,-51.4566,5.2433,1013.5
34634,1.04551,9.63027,0.914429,-0.173,-0.314,0.287,13.6101,-51.4874,5.30241,1013.51
34640,1.01682,9.60636,0.938341,-0.313,-0.104,0.357,13.6973,-51.4257,4.50448,1013.51
34646,0.997688,9.62071,0.952688,-0.313,-0.384,0.357,12.1282,-53.0602,4.65225,1013.51
34652,1.00725,9.60158,0.986165,-0.243,-0.174,0.287,12.8837,-51.7958,4.85912,1013.49
34658,0.988123,9.62071,0.95747,-0.243,-0.244,0.287,14.1331,-51.0248,4.1794,1013.49
34664,1.01682,9.62071,0.914429,-0.313,-0.524,0.287,13.8426,-51.8267,4.80001,1013.49
34670,1.0216,9.6494,0.904864,-0.523,-0.524,0.147,12.6222,-52.5668,5.03643,1013.49
34676,1.04551,9.60636,0.928776,-0.663,-0.594,0.147,14.1912,-52.2584,4.41582,1013.51
34682,1.03116,9.66375,0.933558,-0.873,-0.244,0.217,14.3656,-51.4566,3.41103,1013.51
34688,0.997688,9.56332,0.967035,-1.153,-1.014,0.147,13.1743,-53.5537,3.85432,1013.48
34694,1.03595,9.59201,0.990947,-0.873,-0.664,0.217,13.0871,-52.1967,3.45536,1013.48
34700,0.964211,9.63984,0.986165,-1.293,-0.314,0.217,14.569,-51.179,3.51446,1013.5
34706,0.983341,9.61114,0.971818,-1.013,-0.944,0.147,13.3486,-52.2584,3.02684,1013.5
34712,1.07899,9.66375,0.904864,-1.153,-0.594,0.147,13.2033,-52.4434,3.83954,1013.5
34718,1.05508,9.62549,0.9766,-1.433,-0.244,-0.063,14.6271,-51.6725,3.17461,1013.49
34724,0.992906,9.62071,1.03877,-1.153,-0.594,0.007,13.9297,-52.2584,3.80999,1013.49
34730,1.07899,9.65418,0.943123,-1.293,-1.014,-0.203,13.0871,-52.9986,3.97253,1013.49
34736,1.15551,9.63505,0.890517,-1.503,-0.804,-0.553,15.0339,-52.3509,2.98251,1013.49
34742,1.1842,9.65418,0.909646,-1.643,-0.244,-0.903,14.569,-52.0734,4.04641,1013.46
34748,1.03595,9.67331,0.928776,-1.853,0.176,-1.183,12.9418,-51.6725,2.71654,1013.46
34754,0.925952,9.60158,1.02921,-2.063,-0.244,-1.183,13.2905,-52.4743,3.82477,1013.48
34760,1.00247,9.58245,1.0579,-2.063,-0.664,-0.973,15.0339,-51.3332,3.51446,1013.48
34766,1.05508,9.5968,0.990947,-1.783,-0.664,-1.113,13.3776,-52.3201,3.82477,1013.48
34772,1.04551,9.60636,1.01008,-1.923,-0.524,-1.113,12.8256,-51.7958,4.62269,1013.47
34778,1.06464,9.65897,0.923994,-2.063,-0.314,-1.253,13.1452,-51.0557,4.34194,1013.47
34784,1.0216,9.65418,0.990947,-2.203,-0.174,-1.253,13.1161,-52.3201,3.44058,1013.5
34790,1.01682,9.58723,1.01486,-2.273,-0.454,-1.253,13.0871,-51.9809,4.23851,1013.5
34796,1.00725,9.57767,1.10572,-2.063,-0.664,-1.183,13.4939,-50.7473,3.41103,1013.5
34802,1.05508,9.57288,1.02442,-1.923,-0.454,-1.323,14.046,-51.2407,3.66223,1013.5
34808,1.01204,9.60158,1.06747,-1.923,-0.314,-1.393,12.535,-53.0294,4.03164,1013.45
34814,0.959429,9.58245,1.04834,-1.783,-0.314,-1.183,13.1452,-50.8089,3.08595,1013.45
34820,0.992906,9.5681,1.07225,-1.783,-0.594,-1.113,14.5399,-51.1482,3.44058,1013.45
34826,1.15551,9.62549,1.00051,-1.363,-1.084,-1.323,13.5229,-52.3509,3.76566,1013.48
34832,1.05029,9.68766,0.99573,-1.923,0.316,-1.323,13.1452,-51.7033,4.06119,1013.48
34838,0.978558,9.51071,1.06268,-1.573,-0.944,-1.463,13.4067,-51.0865,4.46015,1013.47
34844,1.01204,9.6494,1.03877,-1.573,-0.314,-1.323,14.3946,-51.7341,4.09074,1013.47
34850,1.00247,9.50115,1.06268,-1.573,-0.174,-1.393,12.5641,-52.6285,1.77085,1013.51
34856,0.978558,9.56332,1.06268,-1.433,-0.524,-1.393,13.4648,-51.0248,3.73611,1013.51
34862,1.0216,9.58723,1.02921,-1.573,-0.314,-1.463,13.6101,-51.9192,4.56359,1013.49
34868,1.0216,9.63505,1.01486,-1.573,-0.314,-1.393,12.8546,-51.2715,5.15464,1013.49
34874,0.988123,9.61114,1.01008,-1.713,-0.384,-1.463,13.8135,-52.0117,4.38627,1013.51
34880,0.997688,9.63505,1.0579,-1.853,-0.384,-1.323,13.6682,-51.7033,3.6179,1013.51
34886,0.978558,9.60158,1.07703,-1.993,-0.034,-1.323,13.7844,-51.8575,3.70656,1013.51
34892,0.925952,9.58723,1.12485,-1.713,-0.454,-1.183,13.1161,-51.5799,3.85432,1013.51
34898,0.978558,9.62549,1.08181,-1.643,-0.874,-1.113,14.8014,-51.5799,4.31239,1013.51
34904,1.03595,9.6781,1.00529,-1.783,-0.594,-1.043,13.8135,-51.6725,2.84953,1013.47
34910,1.04551,9.66375,1.03877,-2.063,-0.594,-1.183,13.552,-51.8883,4.09074,1013.47
34916,1.04073,9.77374,1.07703,-2.063,-0.804,-1.113,14.4237,-51.179,3.58835,1013.5
34922,1.07899,9.88852,0.962253,-3.393,-1.224,0.007,13.7263,-51.6108,4.56359,1013.5
34928,1.15551,9.35289,1.12485,-2.133,-0.804,-1.603,12.9418,-52.7518,3.38148,1013.46
34934,1.05508,9.62071,1.13442,-1.013,-1.154,-1.953,13.4067,-52.135,4.46015,1013.46
34940,1.09334,9.60636,1.13442,-1.573,-1.154,-2.373,14.1622,-50.5314,3.54402,1013.46
34946,1.08377,9.53941,1.21572,-1.013,-1.084,-2.443,13.6101,-52.0734,3.677,1013.47
34952,1.07421,9.57767,1.15833,-0.383,-1.014,-2.723,11.8086,-51.7341,2.70176,1013.47
34958,1.07899,9.61114,1.05312,-0.033,-1.084,-2.933,13.7844,-50.3772,3.98731,1013.47
34964,1.10768,9.65418,1.01964,-0.173,-0.874,-3.143,13.8426,-50.9631,4.60792,1013.47
34970,1.06464,9.64462,1.03399,-0.313,-0.594,-3.283,12.7675,-52.0734,4.50448,1013.49
34976,1.01682,9.63027,1.02921,-0.103,-1.014,-3.563,13.8135,-51.3641,4.41582,1013.49
34982,1.06464,9.65897,1.02921,-0.103,-1.154,-3.703,13.9878,-50.7473,3.08595,1013.45
34988,1.04551,9.75461,0.962253,-0.103,-1.224,-4.193,12.9999,-51.8575,4.54881,1013.45
34994,1.01682,9.84548,0.952688,-0.523,-1.644,-4.403,13.7554,-51.3949,3.83954,1013.51
35000,1.06464,9.85505,0.847475,-1.363,-2.694,-4.753,14.569,-50.5931,3.66223,1013.51
35006,1.10768,9.88852,0.842693,-1.853,-3.394,-5.453,13.3195,-51.0248,3.89865,1013.51
35012,1.20333,9.94591,0.770957,-2.413,-3.954,-6.223,13.4648,-51.1482,4.23851,1013.48
35018,1.60027,10.0942,0.646614,-3.463,-6.754,-8.743,14.1041,-51.3949,3.51446,1013.48
35024,1.84896,10.2233,0.613138,-3.953,-7.664,-10.913,14.3365,-51.7033,3.66223,1013.5
35030,1.96373,10.2568,1.00051,-3.813,-7.384,-14.203,13.3776,-51.9192,4.34194,1013.5
35036,2.6524,11.6198,1.59353,-2.273,-12.914,-18.263,14.8595,-50.6547,4.16463,1013.49
35042,3.10194,11.1128,0.000990396,-10.813,-6.194,-27.013,14.7143,-51.0248,4.96255,1013.49
35048,1.7007,10.5055,0.201851,-9.833,-2.694,-29.253,14.5399,-51.1482,4.23851,1013.5
35054,1.37072,10.7302,0.675309,-10.533,-12.354,-32.053,14.2494,-52.1967,2.22892,1013.5
35060,1.95895,11.0746,0.493578,-12.423,-12.214,-33.873,15.7894,-49.8529,4.91822,1013.5
35066,1.71983,10.8211,1.4118,-17.463,-9.694,-37.093,14.7433,-51.0865,3.88387,1013.48
35072,2.25546,10.2089,2.52132,-16.693,-7.244,-41.783,15.1211,-52.1042,3.17461,1013.48
35078,2.32241,10.4433,1.19659,-10.673,0.456,-47.733,16.138,-50.5005,3.48491,1013.49
35084,1.63375,10.9406,1.29224,-12.353,1.786,-48.993,15.9928,-51.6108,4.07597,1013.49
35090,1.91113,10.3476,1.48353,-14.033,4.026,-52.283,15.3245,-51.1482,3.3667,1013.48
35096,1.65766,10.4768,0.947906,-11.233,8.086,-54.173,16.4286,-50.223,2.37668,1013.48
35102,1.50462,11.0028,1.27789,-12.283,7.386,-56.833,16.5158,-50.994,3.88387,1013.49
35108,1.85374,10.5628,1.12007,-13.613,8.016,-59.423,16.6029,-52.2276,2.33235,1013.49
35114,1.38506,10.7159,1.23485,-13.053,13.476,-62.643,16.4867,-50.6547,4.59314,1013.49
35120,1.17464,10.6967,0.464883,-12.563,14.806,-64.603,17.7652,-50.5314,2.77564,1013.51
35126,0.648573,10.9215,0.574878,-11.163,13.126,-68.453,17.7071,-51.2099,2.58355,1013.51
35132,0.342499,11.3089,0.550966,-10.883,10.956,-71.113,17.7943,-50.3155,3.23371,1013.51
35138,0.490754,11.1511,0.254458,-13.333,5.286,-74.053,18.5498,-49.1436,3.42581,1013.51
35144,0.830304,11.0411,-0.0707456,-11.023,4.656,-74.963,19.1018,-50.8089,2.76087,1013.5
35150,1.08377,12.5571,-0.448555,-12.283,6.406,-76.643,17.9686,-50.3772,3.38148,1013.5
35156,1.35159,12.4997,-0.0133568,-22.783,7.106,-80.843,19.189,-50.1305,2.8643,1013.49
35162,1.07421,11.3089,0.154027,-25.933,10.396,-83.013,20.1479,-49.3903,2.87908,1013.49
35168,0.0603376,10.4194,0.369235,-23.553,12.356,-85.743,19.1018,-51.1482,1.81518,1013.46
35174,-0.499203,9.91243,0.3788,-22.223,10.186,-86.793,20.4384,-49.5137,2.76087,1013.46
35180,-1.41742,9.4055,0.579661,-14.523,6.896,-88.263,21.7169,-48.3109,3.44058,1013.46
35186,-1.70915,9.97939,0.565314,-9.973,0.876,-87.353,20.9615,-51.2099,2.68699,1013.48
35192,-0.666587,10.7541,0.0105552,-8.503,-7.454,-83.783,21.223,-49.2053,2.87908,1013.48
35198,0.356846,11.3328,-0.31943,-10.393,-6.824,-82.033,22.6177,-48.4034,2.24369,1013.45
35204,1.19855,11.7441,-0.223782,-18.443,-1.014,-81.123,22.6758,-48.866,2.59833,1013.45
35210,1.3468,11.2467,0.154027,-25.723,2.696,-79.793,21.5426,-49.3903,2.43579,1013.45
35216,2.37502,8.39641,-0.185523,-33.913,0.316,-70.693,23.3151,-48.7735,2.68699,1013.45
35222,2.91065,7.5308,-0.180741,-27.263,3.746,-63.133,23.7509,-47.8483,1.57876,1013.47
35228,5.15359,6.83257,-0.969837,-23.973,1.506,-51.863,22.6468,-49.2053,2.68699,1013.47
35234,6.4831,5.80913,-1.01766,-17.253,10.396,-47.453,23.1117,-48.095,2.11071,1013.47
35240,5.54097,5.35002,-1.09896,-3.183,33.076,-38.493,24.4773,-46.9848,1.03203,1013.49
35246,4.02495,6.22999,-0.83593,7.457,38.956,-29.323,23.5766,-48.9586,2.28802,1013.49
35252,5.31141,6.34955,-1.71589,17.117,41.966,-13.363,23.9253,-48.1567,2.49489,1013.46
35258,5.54097,6.87083,-1.85936,21.877,48.896,-4.403,24.2158,-47.4166,3.08595,1013.46
35264,5.55532,7.6934,-1.67763,24.397,55.056,4.557,23.9543,-47.8792,2.87908,1013.49
35270,5.75139,7.73166,-1.77328,24.467,59.256,8.197,23.1698,-48.6502,2.65743,1013.49
35276,5.50749,7.4208,-1.54851,23.207,66.186,11.767,24.1868,-47.2007,3.95776,1013.48
35282,4.94795,7.11951,-1.16113,22.927,68.216,14.637,24.5354,-47.4166,3.94298,1013.48
35288,4.27363,6.68431,-0.568115,24.397,66.676,16.947,22.9954,-48.3418,3.78044,1013.5
35294,3.69018,6.59345,-0.0946576,27.547,62.196,21.357,22.8792,-47.725,5.03643,1013.5
35300,3.39845,6.67475,0.154027,29.857,57.576,25.137,23.6347,-47.7558,5.25808,1013.5
35306,3.33628,7.19603,0.330976,32.587,50.926,31.507,22.9373,-48.2801,4.48971,1013.51
35312,3.42236,7.65514,0.39793,33.287,46.586,35.707,22.6758,-48.5268,5.6866,1013.51
35318,3.61366,8.28642,0.488795,31.817,41.406,41.167,23.3732,-47.139,5.28763,1013.47
35324,3.70931,8.51597,0.49836,29.927,38.676,44.387,22.1818,-48.9586,4.69658,1013.47
35330,3.70931,8.78857,0.727915,26.497,34.966,48.657,21.9785,-49.3286,5.59794,1013.46
35336,3.6567,8.79813,0.770957,23.977,32.586,51.177,22.0075,-48.0642,5.96735,1013.46
35342,3.54192,8.79813,0.914429,21.037,28.036,54.747,21.8622,-48.3726,5.7457,1013.45
35348,3.51323,8.77422,0.943123,19.497,25.516,57.057,20.9905,-49.0511,5.71615,1013.45
35354,3.14499,8.92726,1.0866,18.517,21.946,61.117,21.223,-48.3726,5.19897,1013.45
35360,2.82935,9.08508,1.14877,18.307,18.306,64.757,20.4675,-47.725,5.09554,1013.48
35366,2.83891,9.37681,1.00051,18.237,12.496,70.567,20.206,-49.2361,5.80481,1013.48
35372,2.9776,9.62071,0.895299,17.747,9.276,73.997,18.695,-48.8044,4.933,1013.46
35378,3.13542,9.77374,0.761392,16.697,5.566,78.407,19.6539,-48.6193,5.42062,1013.46
35384,3.24063,9.82157,0.646614,15.997,3.816,80.647,19.8283,-48.866,5.9969,1013.49
35390,3.37454,9.78331,0.541402,15.017,1.996,83.377,18.2011,-49.2361,6.51407,1013.49
35396,3.44628,9.69244,0.474448,14.807,0.946,84.567,18.3464,-48.2184,6.39586,1013.45
35402,3.53714,9.5681,0.383582,15.157,-0.034,85.687,18.1139,-48.4651,6.07078,1013.45
35408,3.51801,9.56332,0.321411,15.647,-0.454,85.967,17.1841,-48.7735,6.57318,1013.45
35414,3.53714,9.48202,0.235328,16.767,-0.804,86.107,16.5739,-49.0511,5.61271,1013.45
35420,3.56584,9.4868,0.211416,18.237,-0.874,85.617,16.7773,-48.866,6.23332,1013.45
35426,3.64236,9.6494,0.144462,20.337,-0.804,84.987,16.2543,-50.0379,6.82438,1013.46
35432,3.71887,9.74505,0.110986,22.787,-0.034,83.587,16.0509,-49.0819,6.11511,1013.46
35438,3.8193,9.96982,0.0488144,24.187,0.386,82.187,16.5158,-48.5885,6.97214,1013.47
35444,4.00104,10.2376,0.0535968,26.007,1.996,79.387,15.4407,-49.4828,6.23332,1013.47
35450,4.12538,10.4385,0.0296848,27.197,4.096,77.357,14.7724,-50.3463,5.71615,1013.47
35456,3.91973,10.8593,0.0296848,27.687,7.736,74.837,14.9467,-48.5576,7.20856,1013.47
35462,3.79539,11.0506,-0.00379199,27.827,9.626,74.137,14.2494,-48.8969,7.04602,1013.45
35468,3.57062,11.4906,0.00577281,27.547,12.846,74.557,12.7675,-50.0379,7.79962,1013.45
35474,3.43671,11.6484,0.0249024,26.567,14.876,75.397,13.1161,-49.2361,6.33676,1013.45
35480,3.30759,11.6102,0.000990396,25.587,19.146,77.917,12.9418,-48.8044,6.78005,1013.46
35486,2.93456,11.5671,0.0822912,25.377,23.136,80.577,12.9709,-50.408,6.61751,1013.46
35492,1.76287,11.4093,0.445754,26.287,26.286,88.417,12.6803,-50.0996,7.09035,1013.47
35498,1.23203,11.2945,0.632267,27.897,24.186,95.557,11.8086,-48.5885,6.7505,1013.47
35504,1.52853,11.1941,0.584443,30.837,20.476,106.547,10.8207,-49.4828,6.60273,1013.47
35510,1.91591,11.218,0.560531,32.237,19.986,112.357,9.71649,-49.0511,8.56799,1013.47
35516,2.47545,11.1798,0.550966,32.937,19.846,117.747,10.5301,-48.681,7.28245,1013.48
35522,2.8963,11.1176,0.512707,33.077,20.616,119.147,9.65838,-48.7427,7.6223,1013.48
35528,3.21672,11.1367,0.608355,31.817,23.696,117.817,8.49611,-49.3286,8.18381,1013.48
35534,3.31237,11.1176,0.646614,30.977,25.936,115.647,8.49611,-48.6193,7.78484,1013.47
35540,3.01108,11.0889,0.880952,29.367,29.506,111.447,8.11837,-48.4034,7.69619,1013.47
35546,2.69066,11.0554,1.0866,28.387,30.486,108.857,6.92704,-49.5445,8.31679,1013.46
35552,2.32241,11.0172,1.40702,26.987,30.906,105.567,7.24667,-48.2801,7.99171,1013.46
35558,2.10242,11.0746,1.57918,25.727,30.416,102.487,7.45007,-48.6502,8.59755,1013.46
35564,1.892,11.2419,1.55527,23.347,28.876,99.967,5.73572,-48.5576,9.48413,1013.46
35570,1.87287,11.2754,1.5744,20.687,28.386,95.207,5.24175,-49.0819,7.71096,1013.46
35576,1.73896,11.4093,1.50745,18.307,27.826,91.497,5.70666,-48.095,8.59755,1013.46
35582,1.51897,11.3472,1.37354,13.897,26.846,86.107,5.15458,-48.9586,8.47934,1013.46
35588,1.27985,11.3137,1.1392,11.797,26.636,82.887,3.5274,-49.3903,9.26248,1013.46
35594,0.538578,11.2228,0.900082,8.577,26.916,80.507,4.66062,-48.9894,8.24291,1013.46
35600,-0.145306,11.2419,0.790086,7.527,25.306,81.417,4.98024,-48.5576,8.1247,1013.44
35606,-0.795712,10.9789,0.594008,6.267,21.596,86.177,2.68476,-48.866,8.24291,1013.44
35612,-1.27395,10.7446,0.35967,5.707,18.796,91.777,2.71381,-47.9408,7.69619,1013.48
35618,-1.14961,10.1994,0.106203,5.637,11.446,101.157,3.06249,-48.9894,7.97694,1013.48
35624,-1.06353,9.79766,0.044032,6.337,9.416,106.337,1.784,-49.0819,8.59755,1013.46
35630,-0.743106,9.23812,0.101421,8.717,2.346,111.097,0.418328,-48.8352,8.05082,1013.46
35636,-0.135741,8.89857,-0.0803104,10.467,-0.524,111.307,1.40626,-48.095,8.00649,1013.47
35642,0.289893,8.62119,-0.0372688,13.267,-3.324,106.757,1.11569,-48.1259,8.64188,1013.47
35648,0.509883,8.56858,-0.0563984,15.087,-4.234,101.297,-0.424318,-49.0511,9.29204,1013.47
35654,0.347282,8.66423,0.0966384,17.537,-4.444,91.427,-0.337147,-48.2801,8.46456,1013.46
35660,0.117726,8.81726,0.106203,18.797,-4.444,84.707,-0.0756367,-47.6016,7.6223,1013.46
35666,-0.197912,8.98943,0.235328,20.057,-4.094,75.397,-2.13867,-48.4651,8.95218,1013.47
35672,-0.389208,9.10899,0.225763,20.127,-3.464,70.077,-1.29602,-47.2624,8.0656,1013.47
35678,-0.676152,9.2142,0.264022,19.637,-2.974,63.077,-1.38319,-48.0025,8.53844,1013.44
35684,-0.814842,9.30985,0.311846,19.007,-2.134,58.947,-1.70282,-48.1567,9.09995,1013.44
35690,-1.14961,9.42941,0.302282,17.607,-0.804,53.207,-2.45829,-47.9717,9.4398,1013.48
35696,-1.28352,9.44376,0.254458,16.277,0.106,49.497,-1.29602,-46.5531,9.08517,1013.48
35702,-1.73306,9.39115,0.24011,14.387,1.786,44.737,-1.76093,-47.5091,9.80921,1013.48
35708,-2.02957,9.39115,0.244893,12.637,1.296,40.537,-3.94019,-47.8175,8.81919,1013.51
35714,-2.13957,9.13769,0.201851,11.797,0.666,37.457,-2.63263,-47.4166,9.09995,1013.51
35720,-2.11087,9.00378,0.216198,10.887,0.106,31.717,-1.78999,-47.3549,9.55801,1013.48
35726,-2.14913,8.98465,0.154027,10.537,-0.384,26.817,-3.24282,-47.7866,9.92742,1013.48
35732,-2.12522,8.92248,0.0249024,10.047,-0.594,18.137,-3.44622,-47.6941,9.51368,1013.47
35738,-2.21608,8.91291,-0.0898752,9.907,-0.244,11.977,-2.45829,-47.3857,10.223,1013.47
35744,-1.05396,9.47724,1.86613,11.377,-1.504,1.757,-3.53339,-47.7866,9.41025,1013.5
35750,2.82935,22.9445,2.03829,60.027,-27.474,-55.223,-4.2017,-48.3726,10.0456,1013.5
35756,-0.642675,12.3802,-4.10709,-53.093,60.446,-80.773,-1.96433,-47.6633,9.89787,1013.49
35762,-1.36004,1.81583,2.3348,-39.723,69.966,-96.033,-2.22584,-48.0025,9.48413,1013.49
35768,-7.95497,11.4141,0.115768,-21.033,70.106,-116.753,-2.80697,-48.2184,9.1295,1013.49
35774,-8.58624,10.4624,2.00482,-31.043,60.026,-132.083,-1.17979,-47.8483,9.02606,1013.46
35780,-8.33278,8.50163,0.402712,-17.323,68.846,-152.243,0.621727,-48.1876,8.83397,1013.46
35786,-9.04057,9.65897,1.02442,-9.903,62.896,-160.993,-0.162807,-48.496,8.61232,1013.44
35792,-4.6838,12.1936,2.12438,-23.973,33.706,-163.163,0.360215,-48.1876,8.67143,1013.44
35798,3.37454,12.1649,0.699221,-51.763,-5.634,-163.583,1.66777,-47.9408,9.41025,1013.5
35804,9.93599,8.60684,-0.883754,-60.653,36.716,-161.903,2.19079,-48.496,8.0656,1013.5
35810,6.54049,8.27207,1.88526,-31.043,93.556,-154.973,1.98739,-48.6502,7.29722,1013.51
35816,1.21768,9.20942,3.64518,-2.133,82.076,-144.473,3.7308,-48.9586,7.91783,1013.51
35822,1.69592,9.23812,2.2535,6.897,73.746,-142.303,3.96325,-49.6062,8.53844,1013.51
35828,1.05508,9.39115,2.73652,3.677,73.816,-142.583,3.67269,-50.0996,7.91783,1013.49
35834,-0.590069,7.99947,4.05647,3.537,73.886,-144.123,4.89307,-49.1436,8.19858,1013.49
35840,-2.31173,8.5351,5.00338,16.627,47.776,-142.513,6.17157,-49.0511,8.08037,1013.49
35846,-1.33134,10.1037,3.56388,23.767,28.596,-137.823,5.96817,-49.5753,9.48413,1013.49
35852,-0.805277,12.1793,1.59353,22.087,24.886,-133.833,6.54931,-49.5445,9.39547,1013.52
35858,-0.948749,12.758,1.80874,17.327,14.666,-129.213,7.30478,-49.0202,10.1047,1013.52
35864,-0.881795,12.1362,2.47827,8.367,5.566,-125.783,7.45007,-49.5445,9.33637,1013.48
35870,-0.91049,11.9928,2.90391,16.977,-5.424,-120.673,7.39195,-48.9894,9.58757,1013.48
35876,-0.604416,11.4428,1.95221,13.757,-13.474,-116.403,8.78668,-49.0202,9.23293,1013.48
35882,0.610314,9.99374,0.488795,18.027,-16.694,-113.743,9.62932,-49.6679,9.89787,1013.48
35888,0.835086,10.2663,-0.123352,19.987,-19.004,-113.253,9.57121,-49.1744,9.42502,1013.48
35894,-10.3031,22.6288,-3.85362,48.477,23.066,-79.863,10.5591,-48.4651,10.7697,1013.48
35900,-8.66276,18.2721,-3.93971,20.197,23.416,-34.503,11.5471,-48.2801,10.9765,1013.48
35906,-3.99036,12.3036,-2.26587,-20.263,-20.404,-18.683,9.80367,-48.7118,10.0752,1013.47
35912,2.35589,9.47724,-0.773758,-22.013,-26.984,-18.613,10.4139,-48.2801,9.05562,1013.47
35918,4.99099,7.856,0.173157,-13.263,5.146,-23.093,11.024,-47.6633,9.77966,1013.51
35924,1.89678,8.71205,0.928776,-3.813,18.096,-23.933,11.2565,-48.9894,9.55801,1013.51
35930,-1.7235,9.80244,1.6844,-6.193,8.366,-20.713,11.3146,-48.6193,8.46456,1013.47
35936,-1.52264,9.54897,1.11529,-5.913,0.106,-14.973,12.1573,-48.496,9.55801,1013.47
35942,-0.594851,10.4815,0.220981,-6.333,0.736,-6.643,11.489,-48.681,10.3559,1013.47
35948,-0.221824,10.4385,0.660962,-12.983,-0.734,-4.053,10.6754,-49.4212,9.9422,1013.5
35954,1.22246,9.3242,0.24011,-12.913,-5.144,-3.143,11.1403,-48.0642,8.74531,1013.5
35960,1.48071,9.94591,-0.156829,-10.393,-0.244,-2.863,11.5761,-48.0642,8.73053,1013.49
35966,1.08855,10.5246,-0.195088,-14.453,3.396,-3.773,10.8788,-49.6679,8.76009,1013.49
35972,1.2655,10.2089,0.154027,-16.273,3.186,-4.333,10.9369,-49.1436,8.46456,1013.5
35978,1.66722,9.8407,0.450536,-15.223,2.766,-7.063,12.2154,-48.2184,8.77486,1013.5
35984,1.48071,9.74983,1.07703,-12.633,6.056,-8.743,11.4599,-49.8221,9.42502,1013.48
35990,0.705962,9.60158,1.56005,-10.813,6.056,-9.303,10.472,-49.7604,9.35114,1013.48
35996,0.76335,9.55375,1.40223,-6.473,3.466,-8.813,12.1573,-47.6016,8.36112,1013.49
36002,0.739438,9.58723,1.21094,-3.323,2.976,-8.043,12.4188,-49.5445,8.96696,1013.49
36008,0.466842,9.82157,1.16311,-2.133,1.156,-7.413,10.5882,-49.0819,8.09515,1013.49
36014,0.52423,9.92678,0.684874,-0.453,-1.224,-6.503,11.8376,-48.9586,7.78484,1013.47
36020,0.897258,9.82635,0.646614,-1.153,-2.624,-6.433,12.1282,-48.2184,8.55322,1013.47
36026,0.887693,9.76896,0.565314,-0.313,-2.904,-6.223,10.9659,-49.8529,8.27247,1013.53
36032,0.806392,9.922,0.455318,-0.663,-3.464,-6.083,10.6463,-49.3595,7.8144,1013.53
36038,0.792045,9.90287,0.431406,-1.643,-4.024,-6.013,11.7505,-48.1259,8.77486,1013.5
36044,0.820739,9.79287,0.484013,-2.693,-5.424,-5.943,11.0822,-49.5445,8.58277,1013.5
36050,0.892475,9.83113,0.503142,-3.043,-6.124,-6.083,11.4308,-50.2538,8.92263,1013.48
36056,0.930734,9.90765,0.484013,-3.883,-7.664,-6.433,12.1573,-48.1567,9.02606,1013.48
36062,1.08377,9.94113,0.393147,-4.653,-8.784,-7.413,12.1282,-49.637,7.41543,1013.48
36068,1.46158,9.8933,0.144462,-6.193,-9.064,-9.443,11.1693,-50.5931,8.86352,1013.47
36074,1.48071,9.93156,0.0870736,-6.893,-8.434,-11.123,11.3437,-48.2184,8.84875,1013.47
36080,1.40419,9.96982,0.0583792,-8.643,-7.454,-13.573,11.4308,-48.9894,8.34635,1013.48
36086,1.31811,9.89809,0.115768,-10.043,-6.824,-14.763,11.3727,-50.1921,8.24291,1013.48
36092,1.09812,9.80722,0.264022,-11.023,-5.494,-16.023,11.3146,-49.637,7.99171,1013.48
36098,1.05029,9.76418,0.297499,-11.793,-5.144,-16.583,13.029,-49.2361,7.59275,1013.48
36104,0.835086,9.6494,0.541402,-12.213,-3.674,-16.583,11.8958,-49.5445,7.51887,1013.51
36110,0.653355,9.59201,0.651397,-11.933,-3.464,-16.373,11.4599,-49.637,7.19379,1013.51
36116,0.32337,9.42941,1.11051,-11.513,-4.654,-15.113,13.1452,-48.7735,7.75529,1013.51
36122,0.375976,9.20942,1.10094,-10.113,-6.124,-13.853,12.4188,-48.4034,6.92781,1013.47
36128,0.725091,9.61593,0.675309,-8.433,-6.614,-13.433,12.0991,-49.3286,8.86352,1013.47
36134,0.533795,9.65418,0.684874,-8.573,-5.494,-12.593,12.3607,-48.4651,6.88348,1013.46
36140,0.495536,9.6781,0.656179,-8.363,-6.194,-12.103,13.1743,-47.5091,6.85393,1013.46
36146,0.615096,9.78809,0.579661,-9.763,-6.124,-11.823,11.8086,-49.2361,7.28245,1013.52
36152,0.533795,9.76896,0.49836,-10.813,-6.334,-11.613,12.535,-48.8969,7.35633,1013.52
36158,0.466842,9.52984,0.790086,-11.933,-7.804,-11.683,13.3776,-48.7427,7.32678,1013.52
36164,0.844651,10.0368,0.173157,-12.073,-9.344,-11.753,12.7675,-49.5445,7.17901,1013.52
36170,0.691614,9.84548,0.546184,-13.683,-8.924,-12.103,12.1863,-49.9454,6.83915,1013.5
36176,0.624661,9.78809,0.589226,-14.033,-9.694,-12.313,13.058,-49.4828,7.51887,1013.5
36182,0.68205,9.78331,0.560531,-13.193,-11.024,-12.313,12.2154,-50.408,7.03125,1013.5
36188,0.605531,10.0846,0.708786,-15.713,-11.304,-12.873,11.9829,-49.5137,8.1247,1013.48
36194,0.710744,9.87896,-0.242912,-22.153,-16.064,-12.593,13.3195,-48.4343,7.41543,1013.48
36200,0.887693,9.19986,0.507925,-17.183,-12.494,-11.963,13.4067,-48.2184,6.79483,1013.43
36206,0.375976,10.0894,0.550966,-19.423,-13.264,-13.153,12.6222,-49.8837,7.79962,1013.43
36212,0.428582,9.52984,0.833128,-19.563,-14.454,-13.013,13.2033,-49.0819,7.45976,1013.46
36218,0.591184,9.62071,0.895299,-18.373,-13.054,-13.083,13.4939,-48.6502,6.39586,1013.46
36224,0.294675,9.37202,1.31137,-19.633,-13.124,-13.223,13.4358,-49.1128,7.44499,1013.46
36230,0.729874,9.68766,0.75661,-17.883,-13.264,-13.433,12.5059,-49.637,6.94259,1013.46
36236,0.347282,9.4055,1.33528,-19.003,-12.004,-13.503,14.1331,-48.7427,7.04602,1013.46
36242,0.787262,9.76896,0.646614,-16.483,-12.774,-14.203,14.0169,-48.2492,5.96735,1013.49
36248,0.54336,9.50593,0.73748,-16.693,-11.094,-13.923,12.7675,-49.7604,5.56838,1013.49
36254,0.495536,9.68766,1.23007,-15.643,-12.844,-15.673,13.4067,-49.1744,6.20377,1013.5
36260,1.06464,10.0511,0.206634,-16.203,-13.124,-16.163,13.7844,-48.8969,6.11511,1013.5
36266,0.988123,10.4385,0.766174,-15.853,-13.824,-18.193,13.0871,-50.1613,5.83436,1013.49
36272,0.744221,9.74983,0.794869,-18.163,-12.844,-20.503,13.552,-49.4828,5.65704,1013.49
36278,0.595966,9.58245,1.04834,-16.903,-11.304,-20.993,15.0339,-48.4651,6.29243,1013.5
36284,0.830304,10.142,0.833128,-16.063,-13.614,-20.783,12.8837,-49.6062,6.27765,1013.5
36290,0.495536,9.70201,1.56005,-17.883,-12.354,-21.973,13.3195,-48.8969,6.92781,1013.48
36296,0.390323,9.52506,1.85178,-15.223,-11.864,-22.883,15.2954,-48.095,5.98212,1013.48
36302,0.997688,10.4385,0.61792,-14.103,-14.314,-23.093,14.8014,-48.095,6.54363,1013.48
36308,0.968994,10.2376,1.19181,-16.203,-12.284,-24.843,13.9588,-49.3595,3.85432,1013.48
36314,1.05029,10.2807,1.18224,-15.783,-12.214,-27.643,15.2373,-48.7735,6.36631,1013.48
36320,-0.484856,8.25294,-0.051616,-15.013,-5.494,-27.853,14.2203,-48.3418,6.85393,1013.47
36326,-1.0157,7.38733,0.307064,-5.633,-6.194,-28.273,14.9758,-49.6679,5.73092,1013.47
36332,2.12633,13.8531,3.46345,9.417,-32.654,-32.753,14.4818,-48.6502,4.59314,1013.46
36338,6.41136,17.2439,2.26307,-16.833,-35.384,-42.413,16.0218,-47.9408,6.32198,1013.46
36344,3.16412,9.22855,1.43093,-39.583,11.446,-51.373,15.4697,-49.0511,5.09554,1013.5
36350,0.433365,7.27733,1.89004,-23.693,16.416,-54.663,15.7603,-49.2361,5.58316,1013.5
36356,-0.0496576,10.4528,2.05742,-6.333,-1.924,-60.263,16.9226,-47.8483,5.12509,1013.5
36362,2.02112,11.8445,1.4644,-9.553,-5.074,-63.273,16.8935,-48.8352,4.04641,1013.47
36368,2.5424,10.1563,2.70783,-15.293,4.516,-67.823,16.3414,-48.8969,5.76048,1013.47
36374,2.08808,10.3285,2.14829,-7.243,9.556,-71.113,17.4456,-48.0642,4.933,1013.48
36380,1.10768,11.0602,2.5261,1.507,6.476,-80.213,17.8233,-47.7558,4.13507,1013.48
36386,1.44723,10.802,2.19611,0.877,6.196,-84.973,17.8233,-49.4828,5.21375,1013.5
36392,1.58592,10.912,2.39219,7.667,10.536,-90.503,18.5498,-48.8352,4.71135,1013.5
36398,1.57636,10.7828,2.76522,8.717,9.906,-94.283,19.2762,-46.954,5.6866,1013.53
36404,1.62418,10.8067,2.77478,13.757,14.316,-101.353,19.2762,-47.9408,4.34194,1013.53
36410,1.78678,11.1654,2.0909,19.777,16.906,-107.793,19.8283,-47.9717,5.03643,1013.53
36416,1.39941,11.5576,2.11481,20.127,15.716,-112.553,20.0898,-46.1213,5.00688,1013.48
36422,1.48071,11.8732,1.78004,25.307,16.346,-121.443,20.9034,-47.2315,5.87869,1013.48
36428,1.49984,12.3036,1.23963,27.197,16.206,-128.793,20.7871,-47.0157,6.52885,1013.51
36434,1.3468,13.1406,0.986165,28.667,12.496,-139.083,22.7049,-46.4605,6.33676,1013.51
36440,1.68635,13.5997,1.02921,27.967,8.226,-147.203,22.9664,-46.0288,6.14466,1013.47
36446,2.2172,14.6757,0.230546,26.077,7.036,-160.363,22.8211,-47.4782,5.59794,1013.47
36452,2.54719,14.7427,0.02012,23.417,4.306,-170.023,23.3151,-46.5531,6.18899,1013.48
36458,2.59979,15.3405,-0.874189,19.287,6.126,-185.353,24.1287,-45.2269,6.04123,1013.48
36464,2.29372,16.163,-0.410296,17.047,6.406,-196.553,25.32,-45.3811,6.60273,1013.53
36470,3.23585,16.0483,-0.692458,8.647,-3.324,-214.753,25.7849,-44.4251,6.42542,1013.53
36476,3.59453,16.2109,-1.79241,6.967,0.806,-228.123,27.2087,-43.2224,8.1247,1013.53
36482,2.72892,17.4256,-1.53894,1.717,0.596,-248.773,27.6445,-43.1298,6.85393,1013.49
36488,2.91065,17.966,-1.95023,-3.813,-3.324,-261.093,27.7898,-44.5176,6.38109,1013.49
36494,3.69974,19.7307,-1.07983,-6.263,-5.424,-281.043,29.3008,-42.0196,6.18899,1013.45
36500,4.40276,18.6594,-0.682893,-11.303,-8.574,-296.303,31.5091,-41.4028,6.58796,1013.45
36506,4.99099,17.7077,0.407494,0.037,0.666,-324.093,31.6253,-41.1253,6.86871,1013.48
36512,4.2832,18.4012,1.51701,6.197,2.066,-339.353,33.6883,-39.1207,6.98692,1013.48
36518,4.21624,17.0191,1.52658,15.437,6.896,-365.603,34.6472,-37.8254,8.15425,1013.46
36524,3.0876,17.2247,1.25398,23.347,7.106,-383.103,35.5189,-37.8871,7.65186,1013.46
36530,2.36067,19.9985,3.36302,36.017,0.666,-404.313,36.7102,-35.6049,8.3759,1013.46
36536,2.85804,21.218,1.67961,31.117,-9.904,-399.973,37.9016,-33.292,7.47454,1013.49
36542,1.08377,23.4036,4.34819,50.157,6.266,-399.133,39.5578,-31.5033,7.29722,1013.49
36548,3.06368,23.2505,3.693,21.317,-24.254,-423.423,40.4876,-31.4416,7.91783,1013.49
36554,4.9623,19.0755,1.39267,22.087,-5.074,-425.803,40.7782,-28.851,8.18381,1013.49
36560,0.500318,22.7149,2.11481,56.107,11.796,-422.793,41.9114,-26.4147,8.86352,1013.49
36566,2.11199,23.6427,0.842693,61.637,-1.994,-429.093,43.6839,-25.9829,9.23293,1013.49
36572,3.38411,19.482,0.12055,62.197,12.006,-429.443,43.9163,-22.5906,8.78964,1013.45
36578,1.38506,17.7317,-0.95549,70.457,20.546,-409.003,44.4103,-19.0748,9.73533,1013.45
36584,2.16459,14.5179,-3.3706,60.517,-10.814,-364.623,45.2529,-19.5374,9.45458,1013.43
36590,6.9996,9.43898,-4.01623,43.507,-28.804,-347.193,44.6427,-19.2599,9.72055,1013.43
36596,17.6117,2.73405,-3.63842,5.637,-64.994,-321.783,45.9212,-15.3124,10.09,1013.43
36602,9.25211,-1.34055,-9.44903,-37.833,23.976,-269.283,46.0084,-15.1274,9.77966,1013.4
36608,-13.6747,11.0124,3.17172,11.937,103.846,-107.723,46.1537,-14.8498,10.6515,1013.4
36614,-4.93727,15.9765,5.14685,19.987,-14.314,-34.503,45.9503,-13.2153,9.46935,1013.46
36620,12.9537,12.3515,-5.10661,-19.073,16.906,33.467,45.6016,-13.4928,9.97175,1013.46
36626,11.3851,8.27685,-4.30317,-16.693,64.996,61.117,46.5895,-14.2022,10.6219,1013.44
36632,5.06751,7.56906,-2.45716,-25.793,66.606,95.837,46.1827,-14.7264,9.91265,1013.44
36638,5.10099,5.68001,-2.10805,-26.073,50.436,111.867,45.4273,-13.5237,9.92742,1013.44
36644,6.18181,5.16351,-2.26587,-15.853,45.116,120.197,45.311,-14.6648,10.8288,1013.44
36650,4.75187,4.22138,-1.79719,-13.193,46.096,121.877,45.6888,-16.1451,11.1539,1013.44
36656,2.42763,1.42846,-0.520291,-1.993,28.596,126.777,44.9914,-15.0348,11.671,1013.44
36662,1.91591,0.199379,-0.185523,11.307,9.836,132.517,44.788,-15.6208,12.0552,1013.44
36668,1.98764,0.304592,-0.333778,29.297,-15.434,143.647,45.5435,-17.4095,12.0109,1013.37
36674,2.24111,1.17021,-0.309866,36.997,-28.804,150.997,44.2359,-16.4226,11.2277,1013.37
36680,2.63805,2.93013,-0.35769,45.257,-46.374,160.797,45.3401,-16.8544,11.5824,1013.4
36686,2.96325,4.09704,-0.611157,46.447,-56.874,170.317,45.1948,-19.044,9.80921,1013.4
36692,3.14977,4.90526,-0.587245,42.807,-59.954,177.667,44.8461,-19.8458,10.3855,1013.39
36698,3.01108,5.25438,-0.252477,36.927,-63.454,191.177,43.6257,-19.815,9.95698,1013.39
36704,2.9776,5.35481,0.0488144,32.517,-65.694,201.957,43.6548,-21.1719,9.80921,1013.39
36710,2.93456,5.2209,0.632267,27.687,-67.934,219.247,43.4805,-22.4981,8.95218,1013.36
36716,2.925,5.04873,0.895299,25.797,-68.774,230.937,43.1608,-21.8196,9.55801,1013.36
36722,3.11151,4.64223,1.44528,26.427,-69.264,248.437,44.8171,-23.1765,8.18381,1013.4
36728,3.37454,4.5418,1.80396,28.387,-68.424,259.637,42.8703,-24.9344,8.0656,1013.4
36734,3.58497,4.86222,2.04308,31.607,-66.604,275.737,42.2601,-24.441,8.21336,1013.43
36740,3.96278,5.28785,2.05742,33.077,-63.804,285.747,42.0857,-25.7362,8.15425,1013.43
36746,4.45536,6.19173,2.11959,34.687,-56.034,298.697,42.2601,-28.2034,8.50889,1013.43
36752,4.6084,6.97604,2.17698,34.197,-49.734,306.257,40.2261,-27.895,7.22334,1013.43
36758,4.7184,7.91817,2.20089,30.977,-39.304,315.917,40.8072,-28.1109,6.76527,1013.41
36764,4.61797,8.49684,2.23437,27.617,-32.024,321.447,40.2552,-31.1332,7.43021,1013.41
36770,4.0919,9.31463,2.30132,23.207,-20.544,328.657,39.0929,-32.1817,7.82917,1013.41
36776,3.40324,9.70201,2.6074,19.777,-16.064,333.277,38.8314,-31.5958,8.30202,1013.4
36782,2.41328,10.4959,2.66479,16.837,-13.894,339.857,37.8144,-33.1994,7.51887,1013.4
36788,1.76765,10.9646,2.69826,15.017,-15.224,343.497,36.2163,-35.5433,7.91783,1013.43
36794,0.887693,11.6245,2.69826,13.197,-21.524,347.207,35.8385,-34.9573,8.76009,1013.43
36800,0.490754,12.0263,2.73652,12.427,-27.614,347.767,34.7925,-36.6227,7.14946,1013.43
36806,-0.0735696,12.5762,2.71739,12.497,-37.414,344.337,33.1363,-37.3628,7.19379,1013.43
36812,-0.456162,13.021,2.65044,13.617,-45.044,339.507,32.1774,-39.3674,7.11991,1013.39
36818,-0.585286,13.6714,2.55001,16.137,-56.874,328.377,32.1483,-38.2572,7.14946,1013.39
36824,-0.590069,13.9775,2.57392,18.307,-63.104,313.677,30.8989,-40.6318,6.85393,1013.39
36830,-0.733541,14.4414,3.02825,22.577,-71.784,303.527,29.7657,-40.7552,7.16424,1013.42
36836,-0.594851,14.5035,3.56866,28.807,-78.154,289.247,29.6785,-40.9402,6.79483,1013.42
36842,-0.441814,14.9626,3.8556,34.897,-79.624,281.337,29.0974,-42.0813,6.33676,1013.41
36848,-0.217042,16.1487,4.25254,43.367,-78.854,273.217,26.7147,-43.099,6.92781,1013.41
36854,-0.221824,17.0191,4.7547,47.987,-77.804,270.767,26.337,-42.8214,5.86391,1013.39
36860,0.457277,18.5112,4.87904,52.887,-77.034,270.207,25.8139,-42.7906,5.98212,1013.39
36866,1.4281,19.7642,4.36254,52.747,-72.414,270.277,25.2909,-44.8569,6.20377,1013.43
36872,2.5424,21.7632,3.56388,45.887,-57.434,268.177,23.6637,-44.8569,6.51407,1013.43
36878,2.78152,22.9062,2.98999,39.097,-44.344,265.097,24.0124,-44.9494,6.67661,1013.41
36884,1.90634,23.7766,2.6074,26.637,-21.594,260.127,22.9373,-46.183,6.12989,1013.41
36890,0.375976,23.4131,2.83217,19.077,-8.784,258.937,21.3392,-46.5531,5.83436,1013.41
36896,-2.51259,21.9593,3.25302,13.477,1.366,262.997,21.6879,-45.6587,5.83436,1013.44
36902,-4.46381,21.2467,3.42519,14.387,4.376,270.347,20.0898,-47.5091,6.15944,1013.44
36908,-7.44803,20.8785,3.93691,19.217,1.506,288.687,17.7071,-47.6941,5.56838,1013.42
36914,-8.74884,20.8067,3.89386,22.857,-4.794,304.857,17.5037,-47.6016,5.58316,1013.42
36920,-9.05492,21.218,3.42041,26.287,-14.734,329.357,16.9807,-48.7427,6.73572,1013.45
36926,-8.50972,21.6915,3.02825,25.517,-18.024,342.097,13.9588,-49.3595,5.6866,1013.45
36932,-7.19456,22.7245,2.36828,19.567,-18.094,351.057,13.6973,-49.7604,6.38109,1013.48
36938,-6.52025,23.2601,1.88526,11.797,-11.654,348.957,12.4769,-49.3595,6.20377,1013.48
36944,-6.40069,23.5231,0.990947,-1.153,-0.804,334.817,10.4139,-50.3772,6.8096,1013.48
36950,-6.57763,23.394,-0.262042,-12.983,10.886,319.487,8.61234,-49.4828,6.86871,1013.44
36956,-8.53364,22.3228,-2.82063,-32.653,28.316,291.767,8.35083,-50.223,6.20377,1013.44
36962,-10.3031,20.8976,-4.30795,-45.743,37.626,272.027,6.14251,-50.8398,6.21855,1013.47
36968,-14.636,17.4734,-4.76706,-57.293,48.196,241.857,3.99231,-50.8089,6.2481,1013.47
36974,-17.998,14.8479,-4.10231,-54.143,44.766,211.407,4.66062,-50.3463,5.79003,1013.49
36980,-22.4648,10.2281,-3.02149,-40.493,38.046,191.247,4.10854,-50.5314,6.23332,1013.49
36986,-25.8746,5.86652,-0.859842,-4.023,21.386,160.377,1.784,-50.2538,6.01168,1013.46
36992,-27.3619,4.18312,0.47923,26.427,6.966,139.797,1.95834,-50.5005,6.29243,1013.46
36998,-28.1128,4.3792,1.89482,70.037,-16.904,109.837,2.01645,-50.6856,6.70617,1013.5
37004,-26.7498,6.24433,1.83743,92.437,-29.224,89.397,0.185875,-51.4874,7.16424,1013.5
37010,-22.8378,10.9933,0.699221,104.407,-28.594,55.587,0.767009,-51.5183,6.97214,1013.5
37016,-20.2505,14.0157,-0.0229216,97.197,-18.584,30.597,1.02852,-50.6239,6.95737,1013.49
37022,-16.6302,16.7465,-0.941142,73.537,1.506,-8.463,0.941351,-51.0865,6.12989,1013.49
37028,-14.4638,17.0908,-1.17548,53.027,18.586,-33.943,-0.48243,-50.5622,8.74531,1013.48
37034,-12.8378,15.4983,-0.673328,27.547,44.556,-66.703,1.20286,-50.3155,8.65665,1013.48
37040,-12.5317,14.0253,-0.285954,19.497,58.066,-83.573,2.27796,-50.5314,8.55322,1013.47
37046,15.7514,51.8302,26.8063,291.937,-227.884,-279.713,1.69683,-50.7781,9.32159,1013.47
37052,-3.34951,54.7427,-36.6322,-169.853,94.256,-236.733,2.8591,-51.1173,8.21336,1013.47
37058,17.65,-18.9254,-1.53416,-297.323,202.336,-263.053,4.8059,-51.1482,7.79962,1013.47
37064,10.9499,-16.9216,-0.883754,-131.843,192.956,-252.623,5.29987,-51.6725,7.41543,1013.47
37070,-1.70437,10.7063,8.86278,55.897,112.386,-260.463,5.881,-51.2099,7.75529,1013.48
37076,12.1885,10.3763,5.50075,-4.653,37.206,-263.963,8.0312,-50.5931,7.312,1013.48
37082,16.3731,3.24577,1.5744,-0.453,204.716,-259.833,8.438,-51.8575,8.16903,1013.47
37088,6.95178,4.58962,3.1765,45.957,315.666,-232.673,9.01913,-52.0117,6.92781,1013.47
37094,-7.48151,7.60253,9.52753,56.037,303.626,-234.983,9.89083,-51.3024,7.50409,1013.47
37100,-11.5561,7.51645,10.111,51.697,233.066,-244.573,11.0531,-51.5183,8.44978,1013.47
37106,-11.9578,10.0511,11.9139,54.777,118.826,-263.753,11.3727,-51.6725,7.93261,1013.46
37112,-12.8952,15.1587,8.94408,44.417,43.576,-256.263,12.8546,-50.6547,9.86832,1013.46
37118,-13.9186,22.8488,8.00195,38.257,-14.314,-240.583,14.6271,-51.0865,9.15905,1013.46
37124,-7.66324,18.2864,2.18176,-8.363,-94.114,-213.353,15.4116,-51.0865,8.68621,1013.52
37130,-1.14483,11.6389,2.30611,-4.863,-98.734,-208.103,15.9056,-50.6856,9.15905,1013.52
37136,1.8107,11.3758,-2.94019,7.737,-79.554,-211.183,17.7362,-49.2669,9.17383,1013.49
37142,2.57588,11.9497,-5.49399,17.607,-56.944,-211.883,19.4796,-49.5445,10.1343,1013.49
37148,-11.6996,35.6657,-14.8197,68.777,88.656,-88.053,18.9275,-49.6679,10.814,1013.47
37154,-12.063,31.2467,-9.2673,-20.753,116.096,-46.123,19.1309,-49.0511,11.1982,1013.47
37160,-1.95305,4.25007,7.72935,-85.853,-2.974,-45.073,19.5377,-49.3286,9.29204,1013.5
37166,5.46445,0.271115,6.95938,-8.223,-5.914,-44.023,19.1309,-49.5137,10.4594,1013.5
37172,-0.53268,11.0411,3.03303,27.897,28.736,-38.633,19.7411,-48.6193,9.79444,1013.48
37178,-3.60776,12.4423,2.77957,3.397,21.806,-33.523,19.9445,-49.5753,10.2821,1013.48
37184,-1.63263,8.96074,1.09138,9.207,4.516,-19.453,20.0607,-50.3772,11.4051,1013.48
37190,-0.456162,10.7733,0.364453,16.347,-3.884,-14.763,19.6249,-49.2053,10.1491,1013.48
37196,1.31811,10.6776,0.168374,0.807,-7.314,-14.063,20.4384,-48.6193,9.76488,1013.48
37202,1.27507,9.45332,0.0249024,0.877,-2.344,-13.363,20.4094,-48.9586,10.548,1013.49
37208,0.0746848,10.1324,1.1679,1.507,-3.184,-10.843,19.7411,-49.5445,10.2968,1013.49
37214,0.629443,10.2376,0.914429,-1.013,-8.714,-9.933,21.3683,-48.2801,10.4003,1013.47
37220,2.27459,10.4815,-0.448555,-2.413,-10.394,-11.683,20.7581,-49.2361,10.7992,1013.47
37226,2.55197,10.7254,-0.692458,-6.193,-5.774,-14.693,19.9735,-49.1436,9.54324,1013.54
37232,1.84896,10.0655,-0.0133568,-9.273,1.296,-17.703,20.6418,-48.9894,10.6071,1013.54
37238,0.88291,9.77374,0.680091,-10.253,2.416,-18.193,21.1358,-48.4034,9.88309,1013.54
37244,0.787262,9.77374,0.804434,-10.253,-1.364,-16.793,21.1358,-49.0819,10.814,1013.51
37250,1.31333,9.69723,0.39793,-9.063,-2.974,-16.373,20.9034,-49.1744,9.63189,1013.51
37256,1.36115,9.99852,0.330976,-9.763,-0.874,-17.213,21.0196,-48.6193,9.86832,1013.48
37262,1.00725,10.1276,0.0870736,-11.163,-3.394,-17.213,20.8162,-48.496,9.54324,1013.48
37268,0.887693,9.97461,0.503142,-12.353,-4.724,-16.653,19.9445,-49.2978,9.27726,1013.47
37274,1.15551,9.62549,0.670526,-12.283,-7.524,-16.443,20.6709,-47.6941,9.46935,1013.47
37280,1.19855,9.33855,0.885734,-11.023,-6.614,-15.953,21.1939,-48.866,9.45458,1013.48
37286,0.873346,9.1616,1.16311,-7.383,-6.054,-15.253,20.5256,-48.6193,9.29204,1013.48
37292,0.806392,9.21899,1.10572,-5.143,-7.664,-14.763,20.9905,-48.8969,9.70578,1013.48
37298,1.04073,9.46289,0.565314,-3.463,-9.414,-14.553,21.3683,-48.5576,9.60234,1013.48
37304,1.19855,9.63984,0.173157,-4.023,-10.324,-14.903,20.5256,-49.7295,10.3855,1013.48
37310,1.1316,9.72114,-0.0946576,-5.983,-9.274,-15.253,21.6298,-48.866,9.60234,1013.47
37316,0.973776,9.72592,0.0631616,-7.663,-9.204,-15.393,21.8913,-48.5576,9.85354,1013.47
37322,0.78248,9.68288,0.182722,-9.973,-9.974,-15.183,21.8622,-48.6502,10.3707,1013.47
37328,0.648573,9.73549,0.067944,-11.443,-11.514,-14.903,21.0196,-49.2361,9.41025,1013.47
37334,0.696397,9.87418,0.0249024,-14.313,-13.474,-14.273,21.6007,-48.0642,9.15905,1013.47
37340,0.749003,9.85983,0.0488144,-16.833,-13.544,-13.923,22.5596,-48.496,10.223,1013.47
37346,0.701179,9.66853,0.316629,-19.143,-14.804,-13.643,21.0196,-49.7912,9.39547,1013.5
37352,0.768133,9.63027,0.412277,-20.123,-14.944,-13.433,22.5596,-49.1128,8.47934,1013.5
37358,0.973776,9.80244,0.345323,-20.473,-15.014,-13.083,22.8792,-48.6193,9.55801,1013.5
37364,0.858998,9.63027,0.603573,-21.803,-15.364,-13.573,22.2109,-49.1436,9.1295,1013.47
37370,0.878128,9.38159,0.622702,-22.153,-14.664,-13.993,22.269,-48.7118,8.44978,1013.47
37376,1.1842,9.96504,0.0583792,-21.733,-14.034,-13.923,22.9083,-48.3726,9.04084,1013.5
37382,0.705962,9.42941,0.589226,-23.973,-13.544,-15.253,21.9785,-48.3418,8.58277,1013.5
37388,1.05986,9.8933,0.393147,-22.923,-14.524,-15.953,21.8041,-49.452,8.56799,1013.54
37394,1.03595,9.64462,1.09138,-23.903,-14.594,-17.073,22.3271,-48.5885,9.01129,1013.54
37400,0.92117,9.60158,0.732698,-23.623,-12.914,-17.563,21.8913,-48.4343,9.88309,1013.5
37406,0.705962,9.44376,0.847475,-23.063,-11.584,-17.143,22.6468,-49.5137,9.39547,1013.5
37412,0.734656,9.46767,1.07703,-24.323,-13.684,-18.473,22.0947,-48.9277,7.88828,1013.5
37418,1.16507,9.70679,0.49836,-22.293,-13.614,-18.613,22.6758,-48.5576,7.48932,1013.49
37424,1.19855,10.1133,0.101421,-23.063,-12.424,-19.943,22.269,-48.5268,8.8783,1013.49
37430,0.844651,10.0081,0.646614,-24.673,-12.984,-21.693,22.6468,-49.1744,7.41543,1013.48
37436,0.90204,9.88374,0.9766,-28.803,-15.294,-23.093,22.8502,-48.2801,6.78005,1013.48
37442,1.14116,9.86461,0.656179,-27.473,-16.764,-23.793,23.3151,-48.8352,7.5632,1013.51
37448,1.19855,9.80244,0.455318,-28.033,-14.104,-24.703,22.9664,-49.5445,7.0608,1013.51
37454,0.749003,9.33855,1.26354,-28.243,-12.214,-26.103,23.6637,-48.0334,7.35633,1013.52
37460,0.715526,9.75461,1.28746,-27.543,-13.194,-27.923,24.0415,-48.3109,6.04123,1013.52
37466,0.911605,10.2281,0.713568,-28.033,-16.904,-28.553,23.0826,-48.9277,6.64706,1013.46
37472,1.47593,11.0124,0.450536,-31.253,-22.294,-33.383,23.78,-48.2801,5.80481,1013.46
37478,1.73896,11.1989,-0.0707456,-35.453,-23.624,-35.763,24.6517,-47.9408,5.02166,1013.46
37484,1.16507,10.2424,0.354888,-36.083,-24.954,-39.263,23.78,-48.9894,6.33676,1013.48
37490,0.509883,9.98417,0.230546,-37.133,-25.584,-41.013,24.5645,-48.4034,5.52406,1013.48
37496,-0.417902,9.47724,0.388365,-36.783,-30.554,-41.293,24.8551,-47.6016,5.71615,1013.48
37502,-0.690499,9.41028,0.0153376,-33.283,-36.644,-41.083,25.2038,-48.6193,5.61271,1013.48
37508,0.811174,10.3763,1.94264,-26.143,-47.004,-43.953,25.5524,-48.6502,5.34674,1013.51
37514,3.64714,12.538,3.32954,-22.503,-51.414,-50.113,25.0294,-48.9277,4.28284,1013.51
37520,9.35254,15.2161,5.76378,-29.223,-37.274,-73.353,26.4532,-47.9717,4.46015,1013.5
37526,7.06655,12.5093,2.34915,-41.823,1.926,-87.563,25.5234,-48.2801,4.84434,1013.5
37532,1.31811,8.62119,2.07655,-30.973,26.986,-90.993,26.3079,-47.3857,3.66223,1013.5
37538,1.02638,9.93635,3.35824,-8.293,3.116,-98.203,27.7026,-47.139,4.9921,1013.5
37544,2.28415,11.8302,4.38167,-3.953,-0.874,-106.183,27.5283,-48.5576,5.06599,1013.5
37550,4.4171,11.9115,4.46775,0.107,7.736,-115.283,27.4121,-47.9408,5.19897,1013.51
37556,4.10625,11.3472,4.8073,2.487,16.556,-122.213,28.0804,-46.0288,5.56838,1013.51
37562,2.79109,11.7871,3.6117,17.747,23.976,-134.043,29.5042,-47.139,5.05121,1013.52
37568,2.52806,12.4423,3.10477,22.437,17.396,-142.303,29.3298,-46.8306,5.65704,1013.52
37574,3.21672,13.1597,2.19133,27.057,18.796,-155.253,30.3759,-45.1961,4.82956,1013.5
37580,3.3315,13.614,2.0909,30.907,19.846,-165.613,30.6955,-45.2578,5.67182,1013.5
37586,2.83413,14.8048,1.62222,34.897,18.236,-182.833,31.1313,-45.6587,5.37629,1013.48
37592,3.03021,15.1587,1.01008,34.897,11.516,-194.173,32.0612,-43.3766,6.57318,1013.48
37598,4.33102,16.3113,0.751827,36.857,3.536,-214.123,33.6012,-42.8214,6.27765,1013.48
37604,4.82839,17.3825,-0.324213,37.067,2.346,-229.523,34.1242,-44.055,6.79483,1013.47
37610,4.16364,18.076,-2.0124,30.837,-1.154,-252.833,34.4438,-42.7598,7.20856,1013.47
37616,4.02016,18.8747,-1.37156,26.007,-5.844,-268.233,35.0831,-42.2663,7.19379,1013.49
37622,5.91399,20.2376,-1.96936,20.267,-14.524,-295.533,37.7853,-40.4159,7.29722,1013.49
37628,7.06177,20.6728,-3.43756,11.377,-15.784,-316.673,36.8846,-40.5393,7.78484,1013.49
37634,6.43049,20.6967,-2.18457,5.847,-4.304,-345.023,39.4706,-37.3011,7.79962,1013.49
37640,6.26789,21.4476,0.589226,8.577,-0.664,-361.403,40.6329,-36.4376,7.71096,1013.51
37646,7.83652,18.1477,0.909646,-0.803,-2.064,-393.253,41.6208,-36.4685,8.18381,1013.51
37652,7.26263,18.119,1.56962,14.527,10.256,-409.633,41.9695,-33.662,8.21336,1013.51
37658,5.66531,19.7259,1.56005,28.457,17.676,-443.583,43.8873,-31.0098,8.64188,1013.51
37664,4.53188,20.6585,0.866605,32.237,6.546,-462.973,45.6307,-30.3005,10.6367,1013.51
37670,3.6041,24.4988,-0.104222,54.217,1.996,-477.813,46.3571,-27.2782,9.3807,1013.47
37676,5.51706,29.592,0.374018,36.367,-14.454,-482.153,46.328,-25.212,9.98653,1013.47
37682,6.72222,28.2625,1.23007,18.377,-4.654,-489.503,48.1586,-22.899,9.09995,1013.49
37688,8.63996,18.9799,0.613138,1.227,-18.864,-505.253,48.6816,-20.6785,9.98653,1013.49
37694,6.04312,17.1673,3.14781,34.757,0.596,-510.223,49.379,-17.7796,10.9322,1013.48
37700,1.39941,21.768,1.70352,73.187,4.796,-513.583,49.7858,-15.4358,9.63189,1013.48
37706,1.10768,20.6585,2.54044,83.127,-7.594,-509.803,50.5122,-13.9246,12.3803,1013.48
37712,1.82504,16.23,-3.38495,93.207,-30.484,-480.403,50.8899,-10.6864,11.3607,1013.43
37718,2.1072,14.3362,-4.71446,100.347,-40.984,-445.123,51.2677,-7.54078,10.9618,1013.43
37724,4.8523,9.98895,-5.71398,97.267,-75.984,-397.453,51.2386,-6.33803,10.2968,1013.43
37730,10.792,4.17355,-7.81345,63.177,-98.804,-349.783,51.0062,-3.90169,9.63189,1013.43
37736,8.32432,-6.09904,-11.7159,-9.693,-36.154,-256.823,50.4831,-2.11298,11.0948,1013.47
37742,-14.0238,11.6054,-3.1267,52.747,78.856,-124.663,50.5703,-1.98962,11.8779,1013.47
37748,-9.16491,21.5863,8.86756,63.457,-106.504,24.787,51.1515,-3.03817,10.0013,1013.45
37754,12.0116,17.7843,-3.00714,26.217,-115.464,88.207,50.6575,-1.92794,10.2673,1013.45
37760,19.1134,9.24768,-6.94305,0.317,9.486,148.547,51.1224,-2.57558,11.2277,1013.47
37766,15.7944,9.07073,-4.40838,-12.913,55.896,175.147,50.9481,-4.27176,12.469,1013.47
37772,12.2937,8.24338,-2.13196,-38.393,70.456,192.787,50.4541,-5.19695,12.4985,1013.47
37778,11.7868,6.81822,-1.74459,-40.423,78.996,193.837,49.5824,-4.98108,11.4642,1013.46
37784,9.64427,4.76179,-1.25678,-36.503,97.756,189.007,49.5824,-7.84917,12.3803,1013.46
37790,7.76,2.84405,-0.969837,-32.723,102.306,186.767,49.5824,-8.52765,12.8679,1013.46
37796,5.77531,0.333286,-0.974619,-23.553,95.376,188.517,49.6114,-10.008,13.8432,1013.46
37802,4.90969,-0.106694,-1.20896,-16.133,87.116,192.857,49.4662,-10.8098,14.4933,1013.47
37808,3.7667,1.02195,-1.07505,-6.893,74.446,201.817,49.1465,-13.0303,14.6411,1013.47
37814,2.84848,2.13625,-1.23287,-1.013,61.426,213.087,48.362,-12.4135,16.7985,1013.47
37820,1.41376,3.60923,-1.41938,0.597,53.026,223.027,48.5945,-14.4797,15.971,1013.47
37826,0.251634,4.41267,-1.51025,-0.313,38.606,241.927,48.7688,-16.4843,16.9314,1013.47
37832,-0.0640048,4.58962,-1.29982,-1.433,28.876,256.487,47.5194,-16.5768,16.5768,1013.44
37838,-0.178782,4.90048,-0.57768,-1.993,12.846,278.677,47.5484,-17.2861,16.0596,1013.44
37844,-0.111829,5.08221,-0.123352,-2.273,1.856,292.537,47.1707,-21.0177,17.7146,1013.42
37850,0.0985968,5.12047,0.3788,-0.943,-12.844,311.157,46.5605,-21.6037,16.1483,1013.42
37856,0.289893,5.2209,0.675309,1.997,-21.944,321.657,45.2529,-21.6037,16.5473,1013.4
37862,0.667702,5.46958,0.919211,5.427,-33.914,334.537,45.1367,-25.0886,16.4143,1013.4
37868,1.00725,5.56523,1.19181,8.227,-40.214,341.047,44.0616,-26.5381,17.1088,1013.38
37874,1.35637,5.85218,1.53614,13.267,-47.144,348.257,43.3352,-26.9698,16.2813,1013.38
37880,1.54766,6.20129,1.80396,16.907,-50.364,351.547,42.8412,-28.851,15.9119,1013.39
37886,2.1359,6.99995,2.11003,21.667,-53.094,353.927,41.2431,-31.0098,15.705,1013.39
37892,2.56153,7.65992,2.27741,24.327,-52.604,353.577,40.2842,-31.6266,16.1778,1013.39
37898,2.705,8.94161,2.5787,26.217,-49.874,350.987,40.0518,-31.8733,15.6311,1013.4
37904,2.55197,9.77853,2.73174,26.427,-47.214,349.167,38.3665,-35.1115,16.2074,1013.4
37910,2.08808,11.0411,2.90391,24.747,-42.174,347.067,38.3955,-35.6049,14.7593,1013.45
37916,1.54766,11.7202,3.14303,22.857,-38.954,346.227,37.2333,-35.4816,15.8084,1013.45
37922,1.03116,12.251,3.62127,19.567,-34.964,344.827,34.9378,-39.8608,15.9414,1013.42
37928,0.438147,13.0593,3.61648,20.197,-35.244,343.287,34.6763,-39.8608,16.4438,1013.42
37934,0.419018,13.6092,3.28172,19.007,-34.474,340.067,33.3687,-38.9973,15.705,1013.43
37940,0.0746848,13.9823,3.34867,18.237,-35.244,337.267,32.3517,-40.601,15.3356,1013.43
37946,-0.121394,14.1544,3.32476,17.887,-38.394,331.387,31.0732,-42.3588,15.7345,1013.43
37952,-0.408338,14.4079,3.34867,19.707,-42.524,324.037,29.7076,-42.328,16.5768,1013.43
37958,-0.824406,14.6901,3.76474,22.577,-45.464,318.717,28.9811,-43.099,16.1631,1013.43
37964,-1.09222,15.2496,4.06125,27.897,-50.154,310.177,25.7849,-44.5793,15.7198,1013.42
37970,-1.02527,15.9478,4.19516,31.957,-53.234,304.227,25.6687,-45.1653,15.2322,1013.42
37976,-0.747888,17.3156,4.45819,38.327,-55.054,295.967,24.8841,-44.641,15.838,1013.43
37982,-0.709629,18.449,4.58731,41.897,-54.214,292.467,23.809,-45.8746,15.2765,1013.43
37988,-0.972661,20.0463,4.66861,43.857,-51.694,293.307,21.2811,-46.4914,15.7198,1013.41
37994,-1.02527,20.845,4.62557,43.507,-49.664,298.417,21.2811,-46.183,15.1878,1013.41
38000,-0.43225,21.9736,4.0469,40.777,-42.804,311.017,20.206,-47.4474,16.0892,1013.41
38006,-0.05444,22.7819,3.73604,36.577,-33.144,321.097,17.7362,-47.7866,15.4981,1013.42
38012,-0.212259,23.7431,3.64996,26.287,-16.554,336.707,17.0097,-47.6633,16.2517,1013.42
38018,-0.53268,23.7097,3.73126,18.377,-6.264,345.877,16.109,-47.5708,15.6459,1013.42
38024,-1.40308,22.7436,4.52992,10.607,8.016,354.907,12.7965,-49.4212,15.6754,1013.42
38030,-2.58911,22.4806,4.8073,8.087,16.346,357.567,12.4478,-49.4828,17.0496,1013.43
38036,-4.55946,22.6241,5.09425,5.287,26.356,357.707,12.012,-48.095,15.5277,1013.43
38042,-5.80289,23.0545,5.05599,3.117,28.876,355.187,9.54215,-49.7604,16.9905,1013.48
38048,-6.17591,24.0062,4.06603,-1.083,33.706,346.157,7.1595,-49.637,17.094,1013.48
38054,-6.88371,24.9579,2.95651,-6.753,40.216,336.287,5.47421,-49.0819,16.3995,1013.47
38060,-7.51498,26.1296,-0.453338,-23.623,49.946,316.757,4.77684,-49.9146,16.562,1013.47
38066,-8.30886,26.3065,-3.78189,-42.663,61.146,300.937,2.36513,-48.681,16.3847,1013.47
38072,-11.9148,24.2405,-6.69915,-74.513,73.326,274.337,1.81305,-48.496,17.1974,1013.46
38078,-15.1477,21.0698,-6.84741,-89.003,77.876,255.437,0.708897,-49.8529,16.0892,1013.46
38084,-21.0396,15.4409,-5.30269,-90.403,69.756,224.427,-1.78999,-48.8969,15.7641,1013.46
38090,-24.349,10.888,-3.2893,-74.163,48.616,190.827,-1.78999,-48.9277,15.9414,1013.46
38096,-28.7584,5.12047,-0.352907,-25.653,29.786,168.147,-2.89414,-48.496,15.8084,1013.48
38102,-31.9435,3.01621,1.75613,33.987,-8.294,135.877,-3.56245,-47.8175,14.8184,1013.48
38108,-32.0391,3.94878,1.90439,71.157,-33.284,114.107,-4.84095,-48.1259,15.7345,1013.49
38114,-29.0358,8.79335,0.938341,108.467,-51.414,75.607,-4.08547,-47.91,16.6655,1013.49
38120,-25.6307,12.8871,0.0631616,114.207,-46.934,44.877,-4.23076,-47.7558,16.6359,1013.49
38126,-8.71537,23.3271,19.9914,120.997,-53.234,-13.363,-5.45114,-48.0642,17.5225,1013.48
38132,-8.03627,51.1272,-7.14392,266.317,-126.034,-221.683,-3.44622,-46.3989,18.8819,1013.48
38138,-9.6575,26.0148,-10.6494,-112.663,114.906,-233.023,-2.22584,-47.4166,17.4929,1013.47
38144,-10.7048,-2.01009,-0.615939,-84.243,216.686,-293.783,-2.83603,-47.2624,17.7589,1013.47
38150,-22.6561,7.3395,3.7743,2.907,232.926,-300.923,-1.15074,-47.1698,18.5568,1013.43
38156,-13.0865,8.09034,8.28411,-36.293,0.246,-308.693,0.854181,-47.5708,17.7146,1013.43
38162,5.32576,7.55949,5.07512,-24.253,-65.414,-304.493,1.63871,-47.8483,17.5964,1013.45
38168,11.5668,11.7584,3.46823,13.127,-29.784,-295.183,1.60966,-48.095,18.4977,1013.45
38174,13.7141,13.2171,-3.41843,27.057,91.316,-283.353,4.31194,-47.6633,17.6407,1013.46
38180,8.99386,15.2066,-5.45095,38.887,182.666,-273.483,5.56138,-48.681,18.4239,1013.46
38186,0.318587,12.758,1.21094,8.577,230.826,-246.533,4.16665,-48.3418,17.6112,1013.46
38192,-4.56903,9.73549,6.29941,-4.723,231.946,-246.953,5.96817,-47.8483,18.1283,1013.46
38198,-12.6943,6.91865,12.4926,14.107,154.946,-246.953,6.57836,-48.2184,17.6112,1013.46
38204,-16.5107,13.6857,12.7604,47.987,65.766,-245.273,7.53724,-48.4034,19.3104,1013.47
38210,-11.7474,26.0722,-0.195088,31.047,-48.894,-216.853,8.75762,-48.095,19.0297,1013.47
38216,-6.89327,25.0726,-3.11713,-19.213,-70.384,-195.293,10.2395,-47.5399,19.3695,1013.48
38222,-0.0974816,9.33855,6.48593,-46.513,-56.174,-183.533,10.472,-49.1128,19.0001,1013.48
38228,-0.795712,6.75605,5.96464,-10.533,-51.134,-179.473,11.0822,-49.0511,19.3104,1013.46
38234,-0.0687872,10.4481,-0.534638,19.497,-75.634,-181.993,12.5931,-48.0025,18.5864,1013.46
38240,-1.80002,12.7532,-4.79576,35.247,-31.254,-173.523,13.4648,-47.4166,19.3843,1013.46
38246,-9.4949,28.1573,-7.95214,46.517,44.416,-93.583,12.9709,-48.5885,18.8967,1013.44
38252,-10.5949,21.5911,-3.38495,-46.793,48.056,-36.113,13.9007,-46.8923,19.1627,1013.44
38258,-1.57046,7.92296,1.26833,-66.463,-24.324,-37.373,14.6852,-47.1082,20.3005,1013.43
38264,8.16172,4.79527,0.971818,3.887,3.816,-44.653,14.075,-49.0511,18.9115,1013.43
38270,2.51371,9.97461,1.82308,11.097,37.906,-44.163,13.4648,-47.4474,19.2513,1013.5
38276,-4.73163,11.2037,3.50649,-3.113,34.686,-32.473,14.5399,-46.8306,18.5273,1013.5
38282,-4.65033,9.34333,3.50171,-3.393,6.896,-22.043,14.046,-48.0334,19.4139,1013.49
38288,0.792045,9.31463,0.622702,8.997,-15.854,-13.923,13.7554,-48.0642,18.9115,1013.49
38294,2.36067,10.295,-0.171176,5.777,-6.754,-14.483,14.569,-47.6016,19.2218,1013.49
38300,1.16985,10.1181,0.110986,-3.533,-0.944,-15.953,15.7022,-47.5399,18.4091,1013.44
38306,0.978558,10.1802,-0.501162,-4.163,-2.624,-15.463,13.8135,-47.4782,19.4139,1013.44
38312,1.41854,10.4194,-0.185523,-8.783,-2.764,-15.603,14.6852,-47.2315,19.2366,1013.45
38318,1.58114,9.91722,0.75661,-11.863,-0.314,-16.443,15.1211,-47.3857,18.3795,1013.45
38324,1.22246,9.70201,1.10094,-11.023,1.856,-17.213,14.7433,-48.095,18.9263,1013.48
38330,0.906822,9.91243,1.2205,-10.323,1.506,-17.213,14.4237,-48.1259,19.2809,1013.48
38336,0.552925,9.8933,1.45006,-10.113,-1.154,-16.303,15.586,-47.7558,17.3304,1013.43
38342,1.1842,9.62549,1.43571,-8.223,-3.954,-15.883,15.4988,-47.7558,17.6407,1013.43
38348,1.6194,9.66853,1.19181,-2.273,-4.304,-16.093,14.569,-47.4474,17.4486,1013.46
38354,1.1029,9.76418,1.10094,-0.873,-3.184,-15.883,15.9346,-46.954,18.3352,1013.46
38360,1.01204,10.0176,0.527054,-0.593,-5.494,-15.883,15.6731,-47.1698,17.9215,1013.46
38366,0.997688,10.0416,0.330976,-1.433,-6.684,-15.603,15.4407,-48.0642,18.084,1013.48
38372,1.12203,9.98895,0.168374,-2.693,-8.224,-15.673,15.7894,-47.4166,18.1283,1013.48
38378,1.0216,9.91243,0.622702,-4.233,-7.804,-15.323,16.5158,-46.9231,18.0988,1013.48
38384,0.854216,9.53941,0.890517,-4.093,-8.434,-14.763,14.8014,-48.1567,18.084,1013.48
38390,0.973776,9.48202,0.785304,-2.413,-9.694,-13.993,15.1501,-48.095,18.1431,1013.48
38396,1.00725,9.48202,0.732698,-1.643,-9.554,-13.573,16.2543,-47.2624,18.4682,1013.48
38402,1.01204,9.6494,0.613138,-1.293,-9.554,-13.223,15.7312,-47.4782,18.4682,1013.51
38408,1.08377,9.6494,0.47923,-1.503,-9.204,-13.013,15.7312,-47.3549,18.3943,1013.51
38414,1.12681,9.80244,0.130115,-2.553,-8.574,-12.873,16.7192,-47.2624,18.4977,1013.51
38420,1.02638,9.83113,0.091856,-4.023,-7.594,-12.873,15.9928,-47.8175,18.2465,1013.45
38426,0.887693,9.93156,0.0249024,-6.823,-8.574,-12.803,15.3245,-48.2492,18.217,1013.45
38432,0.835086,10.0129,0.115768,-9.063,-9.204,-12.873,15.3826,-47.4166,19.1183,1013.47
38438,0.940299,10.0798,0.0583792,-12.983,-12.494,-13.013,16.9226,-47.3549,19.0149,1013.47
38444,1.19855,9.99852,-0.132917,-15.573,-12.774,-13.293,16.4286,-47.8175,17.7737,1013.5
38450,1.22246,9.97939,-0.0468336,-19.073,-10.604,-13.853,16.1671,-48.1876,17.8328,1013.5
38456,1.11725,9.79287,0.230546,-21.383,-8.574,-14.273,17.0388,-47.2007,18.4386,1013.49
38462,0.887693,9.66375,0.464883,-21.803,-7.874,-14.483,16.3705,-47.0465,17.818,1013.49
38468,0.844651,9.63505,0.493578,-23.273,-7.664,-14.483,16.3705,-47.2315,17.0644,1013.46
38474,0.873346,9.56332,0.589226,-22.643,-7.244,-13.993,17.1841,-47.5708,17.3747,1013.46
38480,0.696397,9.38159,0.909646,-23.063,-6.894,-14.553,17.8233,-47.8175,16.7098,1013.46
38486,0.705962,9.52028,0.943123,-21.733,-8.784,-15.323,16.109,-48.5885,17.6407,1013.46
38492,1.1029,9.96026,0.546184,-21.103,-9.134,-15.463,17.4747,-47.0773,16.961,1013.46
38498,1.30854,10.185,0.813998,-21.663,-9.554,-17.563,17.3294,-46.183,17.2565,1013.45
38504,0.863781,9.70679,1.02442,-24.463,-9.344,-18.683,16.5739,-48.5268,17.5668,1013.45
38510,0.849434,9.34333,0.95747,-22.853,-8.854,-18.823,17.2131,-47.4782,16.2369,1013.45
38516,0.777698,9.65418,1.2492,-21.243,-9.344,-19.033,17.7362,-46.7689,17.6112,1013.45
38522,0.514666,9.34333,1.31615,-19.983,-10.814,-19.383,17.5037,-47.8175,16.6064,1013.51
38528,0.734656,9.53462,0.95747,-19.563,-11.864,-20.223,16.6901,-48.5885,17.3156,1013.51
38534,0.739438,9.77374,0.632267,-20.893,-13.194,-20.643,17.5037,-47.8175,16.0153,1013.51
38540,0.76335,9.65897,0.603573,-23.483,-12.074,-20.363,17.4747,-47.2315,16.6359,1013.45
38546,0.753786,9.82157,0.775739,-23.833,-10.254,-20.293,17.9686,-47.5399,15.9414,1013.45
38552,0.653355,9.6494,1.0579,-24.113,-10.534,-20.783,17.8233,-47.1698,17.1235,1013.48
38558,0.715526,9.4868,1.10094,-24.393,-11.164,-21.343,18.7822,-47.4782,16.4143,1013.48
38564,0.66292,9.79287,0.990947,-25.723,-10.184,-22.253,17.5037,-48.0642,16.9167,1013.5
38570,0.466842,9.65418,0.790086,-28.313,-10.954,-21.483,18.0848,-47.8175,16.0301,1013.5
38576,0.500318,9.922,1.35441,-25.583,-16.344,-23.513,18.3754,-47.6016,16.5177,1013.46
38582,0.825522,10.1516,0.923994,-27.753,-19.774,-24.493,18.3173,-48.2492,17.0053,1013.46
38588,0.667702,9.42463,0.354888,-27.963,-14.454,-25.333,17.7362,-48.2801,14.1387,1013.48
38594,0.68205,9.94113,1.06747,-25.583,-18.584,-26.873,19.4505,-46.5839,15.6459,1013.48
38600,1.51897,10.5055,1.11051,-25.933,-23.064,-31.493,19.1599,-47.8792,16.0744,1013.48
38606,1.71983,9.58245,0.986165,-27.193,-16.904,-34.223,18.4916,-48.1567,15.3651,1013.49
38612,3.65192,12.7293,4.96512,-12.563,-24.254,-44.163,18.9856,-47.9717,14.9071,1013.49
38618,5.7227,13.8244,5.30945,-23.763,-23.204,-57.113,20.0607,-47.725,15.5572,1013.48
38624,3.57062,9.80722,1.72265,-29.013,14.946,-61.173,19.1309,-48.7118,14.981,1013.48
38630,1.19377,8.30555,2.71739,-16.973,23.766,-66.773,19.5667,-47.324,15.2617,1013.48
38636,0.591184,11.2324,2.99477,-2.973,5.916,-75.033,20.9034,-46.8923,15.306,1013.48
38642,2.3798,12.4232,1.77526,-7.453,-3.114,-78.953,21.1939,-47.2007,14.5229,1013.46
38648,3.59453,11.3806,2.11481,-9.273,6.756,-85.673,20.3513,-47.6633,14.0057,1013.46
38654,2.41328,10.5485,3.34867,-1.993,10.606,-97.783,21.1939,-46.8306,14.5377,1013.46
38660,2.42284,11.175,2.24872,5.987,7.176,-102.543,22.0656,-46.2447,16.5916,1013.5
38666,2.75761,12.0741,2.70305,7.807,8.576,-112.763,21.4845,-46.7998,14.4194,1013.5
38672,3.0063,12.1602,2.08133,10.397,14.176,-117.733,23.257,-45.8746,14.8627,1013.48
38678,2.25068,11.6915,3.57344,13.477,14.596,-127.883,24.1287,-45.6587,15.0844,1013.48
38684,2.34632,11.4045,2.92782,18.867,16.136,-134.183,23.6347,-46.4297,15.4242,1013.47
38690,1.98764,12.0215,2.87521,27.197,17.536,-145.173,24.4192,-45.8746,15.9562,1013.47
38696,2.13112,12.7819,2.53566,31.817,14.596,-152.733,25.9011,-44.8569,15.9562,1013.44
38702,2.83413,13.4514,2.31089,35.037,8.016,-166.243,25.4072,-45.2886,16.6655,1013.44
38708,3.11629,14.2501,0.73748,35.387,8.086,-174.853,26.1336,-45.5662,16.2074,1013.44
38714,2.68109,15.2783,0.27837,34.267,8.646,-189.413,27.8479,-43.8392,16.1187,1013.48
38720,2.78631,15.6083,1.54571,34.617,1.506,-201.663,27.877,-43.4074,16.4438,1013.48
38726,4.38841,16.9617,0.684874,36.927,-4.024,-223.503,28.0513,-44.4559,17.1383,1013.46
38732,5.09142,18.1477,-0.592027,33.077,-1.154,-237.573,29.3008,-41.557,16.4586,1013.46
38738,5.31141,19.1664,-1.91197,20.897,2.836,-262.423,30.6664,-40.7552,17.0496,1013.47
38744,5.34489,20.1563,-2.08414,15.157,3.046,-279.083,31.1313,-41.3103,17.6112,1013.47
38750,5.65575,21.0028,-3.60972,1.997,4.516,-305.543,32.7004,-39.645,17.818,1013.46
38756,5.59836,21.9928,-3.50929,-0.733,7.946,-321.153,33.8046,-37.8254,18.2465,1013.46
38762,6.50223,21.5432,-2.44282,-12.283,3.816,-353.423,34.3566,-37.4553,17.1088,1013.46
38768,6.60744,21.3519,-0.190306,-10.253,7.596,-373.303,35.3155,-36.9619,17.951,1013.46
38774,6.57875,21.395,1.31615,-1.993,12.846,-405.013,37.2333,-34.248,18.3943,1013.46
38780,5.85661,21.2611,0.49836,2.347,18.586,-426.853,38.1921,-32.0584,17.5373,1013.47
38786,4.30233,21.2993,1.07225,3.607,10.466,-457.443,39.0929,-32.3668,18.6159,1013.47
38792,3.6567,22.0836,1.31137,8.927,12.636,-458.983,40.2842,-29.3445,18.6012,1013.47
38798,-0.575722,21.8206,4.28124,28.247,13.196,-456.463,41.7371,-27.4633,19.9902,1013.47
38804,3.25498,20.4241,3.27215,35.177,-42.384,-466.403,42.6959,-26.3839,19.4878,1013.47
38810,4.83317,25.2448,1.34006,60.377,-27.544,-461.713,43.3352,-24.2559,19.3843,1013.47
38816,6.23442,32.9493,-3.16974,55.617,-16.064,-470.533,43.6839,-20.6168,18.7046,1013.46
38822,6.0766,29.8359,-2.42369,24.327,-6.614,-479.213,45.9212,-19.7533,19.5764,1013.46
38828,5.33054,13.4323,2.59305,16.767,-15.014,-470.673,45.9212,-19.0132,18.7637,1013.46
38834,4.03929,9.8933,-4.90097,52.327,-8.364,-450.303,45.9503,-14.8806,20.0345,1013.47
38840,6.19616,14.4414,-3.23191,85.437,-39.794,-405.713,46.5314,-12.9377,20.3448,1013.47
38846,12.2985,11.7728,-5.75702,45.677,-86.274,-380.793,46.9673,-12.0434,19.7242,1013.48
38852,14.924,-1.76619,-13.5954,-47.633,-25.514,-318.773,46.9673,-9.97712,18.7489,1013.48
38858,-7.25673,8.25294,-9.28643,-17.113,140.806,-199.353,47.0544,-9.1136,19.6503,1013.47
38864,-11.3505,16.2969,7.51892,10.327,-2.134,-39.543,46.5605,-9.8846,19.4878,1013.47
38870,4.94317,16.9186,-1.50547,-17.883,-63.804,28.847,46.9382,-9.82292,19.7094,1013.45
38876,12.5615,8.51597,-6.20178,-32.373,43.436,103.607,46.2409,-8.83604,20.4187,1013.45
38882,8.95082,7.82731,-2.17978,-20.403,65.836,133.917,46.6186,-10.8406,20.2118,1013.49
38888,10.1895,7.81774,-1.95979,-27.123,45.676,154.707,46.4443,-11.2724,21.985,1013.49
38894,11.715,6.18694,-2.64368,-25.933,56.176,155.897,45.805,-11.3032,21.7338,1013.49
38900,9.50558,5.16351,-1.88806,-16.483,77.526,149.387,46.7058,-12.9686,20.5369,1013.43
38906,7.4874,4.2979,-1.27591,-13.193,78.436,144.627,45.6016,-14.2947,22.0884,1013.43
38912,5.78487,2.38015,-1.03679,-5.633,68.496,142.037,45.1367,-13.4928,21.7042,1013.41
38918,5.08186,1.93539,-1.10853,0.667,60.866,144.067,44.6427,-13.7087,23.5808,1013.41
38924,3.96756,2.24146,-1.16592,6.967,52.956,152.467,44.9624,-15.8058,21.7929,1013.43
38930,3.06847,2.98752,-1.0894,9.067,45.746,167.027,44.759,-15.6208,22.1623,1013.43
38936,2.22198,3.98226,-1.09418,8.157,32.166,179.207,43.8873,-16.0834,22.8124,1013.4
38942,1.93982,4.67092,-1.50068,4.447,22.576,200.417,44.0035,-17.502,23.5217,1013.4
38948,1.54288,5.26872,-1.45764,-1.223,16.346,216.097,43.8873,-18.7356,22.2805,1013.4
38954,0.945082,5.02004,-1.252,-9.623,6.476,241.157,42.6669,-19.63,22.5169,1013.41
38960,0.591184,4.80483,-1.10853,-13.263,-3.044,257.537,42.1729,-20.8019,22.7386,1013.41
38966,0.667702,4.28833,-0.931578,-16.063,-16.624,279.377,42.8412,-22.3439,22.4726,1013.38
38972,0.686832,3.8627,-0.606374,-14.243,-24.674,290.577,42.1148,-22.6523,22.4578,1013.38
38978,1.03116,3.61401,-0.219,-7.313,-36.224,303.877,41.3593,-23.2074,21.3791,1013.43
38984,1.39463,3.57575,-0.0372688,-1.643,-42.454,310.457,40.9816,-25.8904,22.5169,1013.43
38990,1.98764,3.6714,0.0105552,6.407,-49.104,318.577,40.168,-26.5689,21.32,1013.43
38996,2.4898,3.78618,-0.0133568,11.657,-51.554,322.917,39.1219,-27.0315,21.8224,1013.43
39002,3.3028,4.57527,-0.104222,18.097,-51.624,327.887,39.4416,-29.4987,21.2609,1013.43
39008,3.738,5.41698,-0.156829,20.617,-49.594,330.267,38.628,-31.0098,20.4334,1013.42
39014,4.06321,6.81344,-0.281171,22.017,-43.014,332.787,37.2623,-31.5649,20.9211,1013.42
39020,3.91495,7.77948,-0.262042,21.247,-37.274,334.327,37.2333,-32.1509,20.7142,1013.43
39026,3.51801,9.06595,-0.209435,18.797,-30.204,337.477,35.8966,-35.019,21.1427,1013.43
39032,3.11629,9.70679,-0.00379199,16.417,-25.724,340.137,35.7223,-34.9573,18.9854,1013.43
39038,2.06895,10.4624,0.292717,13.407,-22.504,345.387,34.8797,-35.7591,20.6108,1013.43
39044,1.41376,10.845,0.574878,12.707,-23.204,349.097,33.514,-38.0413,19.3548,1013.45
39050,0.519448,11.6437,0.938341,13.897,-28.594,353.157,31.9159,-38.9973,18.2465,1013.45
39056,0.0794672,12.2128,0.947906,14.947,-34.264,354.137,31.9449,-38.7506,18.7489,1013.42
39062,-0.255301,13.0114,0.895299,18.237,-42.524,351.687,30.434,-40.0767,18.6012,1013.42
39068,-0.594851,13.571,0.99573,20.687,-48.334,347.347,29.1845,-40.9402,19.34,1013.42
39074,-0.843536,14.2549,1.17746,24.187,-57.644,337.617,28.894,-40.6935,19.0297,1013.38
39080,-1.15917,14.5227,1.45484,30.697,-64.644,326.487,28.2838,-42.6981,18.217,1013.38
39086,-1.50829,15.1587,1.77526,33.427,-70.034,319.347,26.0755,-44.1784,19.7242,1013.43
39092,-0.939184,15.5078,2.10046,38.397,-76.964,308.077,25.8139,-43.7158,18.0249,1013.43
39098,-0.379643,16.0004,2.11003,43.157,-78.084,300.657,24.9422,-44.3634,17.6112,1013.44
39104,-0.212259,17.0621,2.54523,49.387,-75.634,292.047,23.4603,-45.597,17.2713,1013.44
39110,-0.202694,17.899,2.68392,53.167,-73.534,289.317,23.1407,-46.2755,17.4634,1013.45
39116,-0.389208,19.0994,2.83695,57.297,-71.014,291.207,22.5015,-45.1961,18.0101,1013.45
39122,-0.207477,19.8359,2.67913,58.067,-69.264,295.687,19.8283,-46.7689,17.5964,1013.45
39128,0.151203,20.9072,2.46871,56.877,-62.124,304.927,18.4626,-47.3857,18.1579,1013.42
39134,0.265981,21.5337,2.55479,55.547,-55.334,311.367,18.0558,-47.5091,17.552,1013.42
39140,0.117726,22.581,2.42567,52.817,-42.874,320.257,17.0388,-47.4474,17.0053,1013.47
39146,-0.169218,23.0975,2.40176,49.037,-33.354,325.577,14.3365,-49.2053,18.808,1013.47
39152,-0.733541,23.3605,2.29654,42.107,-19.074,330.827,14.075,-48.6193,18.3795,1013.47
39158,-1.00614,23.4131,1.97134,36.927,-8.924,332.017,12.3025,-48.9586,18.3943,1013.47
39164,-2.19696,23.0593,2.04786,27.477,8.506,330.127,10.3267,-49.7604,18.9558,1013.49
39170,-3.55037,21.768,3.42519,23.277,14.316,326.207,8.72856,-49.9146,18.5864,1013.49
39176,-5.41551,20.9789,3.95125,23.067,16.206,316.827,8.49611,-49.5753,17.7441,1013.47
39182,-6.27634,21.1941,3.99908,23.837,18.446,308.147,6.02629,-50.1921,18.8671,1013.47
39188,-7.19935,22.1028,2.86087,20.827,22.576,291.697,4.19571,-50.1921,18.8967,1013.47
39194,-7.51498,22.844,1.07225,13.617,28.806,278.327,3.64363,-50.6239,17.4634,1013.44
39200,-9.4136,23.2697,-1.46242,-4.443,42.246,256.137,2.48136,-49.3286,18.4239,1013.44
39206,-11.3744,22.2271,-2.43325,-17.813,50.226,239.687,-0.0465791,-50.1921,18.1283,1013.44
39212,-15.5255,18.8603,-2.54325,-29.923,58.766,214.207,-0.511488,-49.4828,18.1431,1013.44
39218,-18.8732,16.1726,-1.90719,-26.213,59.886,188.447,-1.29602,-50.4389,17.3452,1013.45
39224,-24.3729,12.2415,-0.161611,-15.223,55.406,172.347,-3.30094,-50.1305,17.9806,1013.45
39230,-29.074,8.76944,1.84221,13.407,37.626,149.667,-3.21377,-49.452,18.6898,1013.49
39236,-31.0157,7.4495,2.82739,37.417,22.506,134.617,-3.88207,-49.2978,17.6703,1013.49
39242,-31.3887,7.99469,4.08516,70.877,1.226,107.947,-5.45114,-49.5753,17.8771,1013.49
39248,-29.4997,9.85505,4.26211,85.437,-6.054,85.267,-6.70058,-49.2361,18.3056,1013.47
39254,-24.8607,13.7718,3.91299,88.587,2.556,42.357,-5.91605,-50.0379,17.552,1013.47
39260,-21.9004,16.2969,3.56388,79.767,15.366,10.157,-5.56737,-48.4651,19.7833,1013.45
39266,-17.7732,18.3342,2.54523,56.597,40.706,-37.653,-6.81681,-48.9894,19.8128,1013.45
39272,-16.0085,18.6977,2.23915,35.807,59.886,-64.393,-5.88699,-48.9894,19.7685,1013.5
39278,0.261198,58.8268,-7.55042,287.527,-134.994,-347.123,-3.1266,-49.3595,21.5712,1013.5
39284,-7.11804,45.9048,-21.5915,-183.363,203.946,-281.883,-3.70773,-49.2053,20.3005,1013.47
39290,4.22581,-17.1464,2.45436,-272.123,220.676,-305.123,-2.86509,-50.2847,19.1775,1013.47
39296,6.2105,-13.66,-2.02675,-131.703,111.056,-296.793,-0.627714,-50.7473,18.7046,1013.47
39302,-0.929619,13.614,14.3625,27.687,62.826,-301.413,-0.395261,-51.0557,17.9067,1013.45
39308,11.2512,12.8775,7.76761,-25.163,-4.724,-297.773,1.43532,-51.1173,17.5668,1013.45
39314,16.5261,3.52793,2.87043,2.557,145.286,-291.893,3.14967,-50.8706,18.2613,1013.47
39320,7.8413,7.38254,0.986165,60.867,265.056,-263.753,3.14967,-51.0248,18.6307,1013.47
39326,-5.25291,11.0937,4.8886,45.957,295.016,-260.673,2.88815,-50.6239,18.941,1013.48
39332,-11.2883,10.0846,10.1779,22.927,243.846,-263.683,3.99231,-50.0688,18.2613,1013.48
39338,-17.4337,12.4136,13.0617,36.507,124.566,-276.703,5.76477,-50.6856,19.3548,1013.45
39344,-19.0501,21.6245,9.55623,43.927,27.546,-262.843,6.20063,-51.7033,18.6751,1013.45
39350,-11.5131,26.3113,0.689656,7.457,-82.354,-229.453,6.83987,-51.179,19.5764,1013.48
39356,-3.52646,19.0133,1.58875,-32.793,-84.244,-208.943,9.22253,-50.5622,19.1479,1013.48
39362,-0.226606,8.71205,4.54905,-8.433,-63.594,-208.803,9.5131,-51.8575,19.2513,1013.48
39368,0.179898,9.43419,0.297499,28.457,-64.014,-197.743,11.4599,-50.8706,19.3695,1013.48
39374,1.82983,11.5145,-3.35147,44.137,-47.914,-197.253,12.5931,-50.4389,19.0888,1013.48
39380,-10.2601,30.2472,-8.04301,74.167,50.646,-115.843,12.8837,-50.2538,20.6994,1013.47
39386,-10.7766,28.2912,-7.85171,8.717,69.126,-66.213,11.8667,-51.0865,20.4926,1013.47
39392,-2.38825,7.37298,1.86134,-50.363,-13.544,-52.283,13.7263,-49.3595,19.1627,1013.48
39398,5.22055,3.45141,0.307064,6.687,-1.714,-51.443,13.6392,-49.8837,19.34,1013.48
39404,0.0555552,12.1554,1.50266,26.217,33.426,-44.863,12.9127,-50.1305,21.586,1013.47
39410,-2.60346,11.615,2.82261,2.907,27.756,-40.243,14.4237,-49.6987,19.4286,1013.47
39416,-2.11087,7.84644,2.74609,7.667,5.216,-28.483,13.581,-48.8969,20.3596,1013.47
39422,-0.900925,9.50593,1.03877,19.637,-6.684,-22.743,13.6101,-50.0688,19.7981,1013.47
39428,0.246851,12.0119,-0.472467,9.277,-5.564,-16.793,13.6392,-50.0688,20.2414,1013.47
39434,0.619878,11.0602,-0.324213,-1.783,-4.094,-14.133,14.1331,-49.2669,20.9506,1013.47
39440,1.17464,9.81679,-0.281171,-1.503,-4.584,-12.173,14.4237,-49.3286,20.0049,1013.47
39446,1.17942,10.3142,0.149245,-3.603,-3.114,-11.823,13.2324,-50.408,21.0097,1013.46
39452,1.38984,10.1276,0.163592,-7.943,-2.624,-12.243,14.3946,-49.1744,20.6551,1013.46
39458,1.39463,10.3189,0.0105552,-9.763,-0.454,-12.803,13.7263,-49.8529,18.8819,1013.43
39464,0.978558,10.4098,0.326194,-13.963,-0.454,-13.013,13.7844,-49.9763,18.7194,1013.43
39470,1.34202,9.82157,0.503142,-14.383,-1.084,-13.713,14.5399,-49.6062,19.931,1013.44
39476,0.76335,9.86461,1.08181,-13.683,0.456,-12.733,14.4527,-49.8529,20.3152,1013.44
39482,0.830304,9.74505,0.971818,-13.543,-1.714,-12.173,13.9588,-50.9631,19.2661,1013.44
39488,1.11725,9.63027,0.823563,-11.373,-5.004,-11.193,13.552,-50.4389,19.9606,1013.51
39494,1.33724,9.82157,0.51749,-10.463,-5.424,-11.403,14.3656,-49.6987,20.2266,1013.51
39500,1.18898,9.97461,0.321411,-11.653,-5.984,-11.823,14.569,-50.4389,21.1427,1013.46
39506,1.04073,9.74027,0.584443,-12.143,-8.224,-11.823,14.3075,-50.9015,21.0984,1013.46
39512,1.12681,9.53462,0.747045,-11.583,-10.184,-11.893,15.3826,-50.3155,20.5812,1013.48
39518,1.35159,9.35768,0.689656,-9.133,-10.184,-12.243,15.4988,-49.8529,20.9506,1013.48
39524,1.32767,9.35768,0.660962,-7.733,-9.834,-12.593,13.9297,-50.3155,20.6699,1013.49
39530,1.22724,9.42463,0.632267,-5.703,-9.344,-13.013,14.5399,-49.8529,20.4482,1013.49
39536,1.08855,9.53462,0.565314,-4.863,-9.134,-12.943,16.109,-49.7295,19.6503,1013.49
39542,1.01682,9.66853,0.330976,-5.143,-9.834,-13.153,14.1041,-49.637,19.5469,1013.45
39548,1.19377,9.65418,0.168374,-5.913,-10.954,-13.573,14.7433,-50.2538,19.8572,1013.45
39554,1.21768,9.82157,-0.137699,-7.453,-9.694,-13.993,15.9346,-49.4828,19.5321,1013.5
39560,1.08377,9.82635,-0.132917,-9.623,-8.784,-14.063,15.6441,-50.3772,20.8324,1013.5
39566,0.925952,9.84548,-0.0324864,-12.423,-9.484,-14.343,14.7143,-50.7781,20.2561,1013.48
39572,1.01682,9.97461,-0.204653,-15.153,-9.694,-14.273,15.7603,-49.7912,18.8819,1013.48
39578,1.0216,9.95548,-0.166394,-19.213,-8.994,-14.693,16.3124,-50.3463,18.4091,1013.46
39584,1.03116,9.922,-0.0898752,-22.013,-8.854,-14.973,15.0339,-50.6239,19.1479,1013.46
39590,1.06942,9.78809,0.163592,-24.743,-8.644,-15.393,15.2954,-50.3772,18.8228,1013.48
39596,0.892475,9.68766,0.254458,-26.073,-8.434,-15.323,16.2252,-49.8221,19.3104,1013.48
39602,0.911605,9.82635,0.3788,-26.493,-8.084,-15.183,15.8475,-50.3772,19.5764,1013.48
39608,0.610314,9.74505,0.627485,-27.543,-8.854,-15.603,16.0509,-50.6239,19.4878,1013.47
39614,0.825522,9.50593,0.780522,-29.223,-11.304,-15.603,16.3705,-49.9454,19.207,1013.47
39620,1.01204,9.49158,0.536619,-28.663,-10.254,-15.393,16.8354,-50.6856,19.6355,1013.48
39626,1.05029,9.50115,0.75661,-28.593,-8.224,-15.743,15.9928,-50.6547,18.808,1013.48
39632,1.03116,9.44854,0.775739,-29.573,-7.174,-16.863,16.5739,-50.2847,18.217,1013.48
39638,0.892475,9.63505,0.708786,-29.153,-7.594,-17.633,17.2422,-50.6547,18.3943,1013.48
39644,0.811174,10.1133,0.809216,-29.783,-10.184,-19.593,16.6029,-51.8883,18.0249,1013.49
39650,0.930734,10.1898,0.531837,-29.923,-14.104,-20.503,16.7482,-50.994,18.5273,1013.49
39656,1.27985,9.83113,0.412277,-31.603,-15.504,-22.113,17.4456,-50.6239,18.2909,1013.49
39662,1.31811,9.80722,0.866605,-30.623,-14.454,-24.563,16.632,-50.9015,16.8576,1013.46
39668,1.28941,10.1037,0.574878,-30.833,-13.964,-26.453,16.7192,-51.3332,17.9953,1013.46
39674,1.27028,10.142,0.785304,-31.533,-13.824,-28.553,18.9856,-50.6856,17.6555,1013.53
39680,1.42332,10.2042,0.713568,-33.703,-15.994,-31.213,18.3464,-50.7164,17.0053,1013.53
39686,1.84896,10.405,0.83791,-35.523,-15.714,-34.013,17.126,-51.95,16.3699,1013.45
39692,1.65766,9.81679,0.986165,-36.853,-10.394,-37.583,18.3173,-50.7164,16.9019,1013.45
39698,1.1842,9.44376,0.742262,-37.203,-7.244,-38.213,18.3173,-50.9323,16.6507,1013.5
39704,0.858998,11.3185,1.47397,-30.553,-14.524,-42.483,18.4916,-51.2715,17.1679,1013.5
39710,0.0794672,11.2993,-0.132917,-40.003,-23.764,-44.443,18.6369,-51.179,17.0201,1013.5
39716,-0.0400928,9.70201,0.85704,-38.743,-28.384,-42.693,19.1599,-50.3155,15.3651,1013.49
39722,0.514666,10.0655,2.09568,-35.243,-40.914,-45.843,19.0728,-51.4566,15.7789,1013.49
39728,0.997688,9.25725,0.87617,-30.413,-35.314,-48.013,19.4215,-51.2407,15.9119,1013.45
39734,2.02112,10.9359,5.01773,-16.553,-41.544,-52.703,20.6709,-50.0071,15.2469,1013.45
39740,9.52949,14.5131,8.87713,-16.133,-43.084,-74.963,20.6128,-50.5314,14.4638,1013.49
39746,9.17081,11.7011,2.28698,-27.263,7.806,-89.103,20.5837,-50.8706,14.981,1013.49
39752,2.08808,7.99469,2.03351,-12.633,47.006,-91.133,21.9785,-50.9015,14.5672,1013.46
39758,-0.585286,10.1755,3.5304,4.727,34.056,-95.683,21.8913,-49.8221,16.2813,1013.46
39764,1.892,11.8637,2.89912,9.767,4.446,-102.473,21.2811,-50.8398,13.6659,1013.47
39770,4.11103,11.6676,3.43475,11.867,14.876,-110.453,21.6007,-50.0071,15.6163,1013.47
39776,3.67583,12.0693,3.84604,19.077,25.866,-121.373,23.257,-49.5753,15.7493,1013.47
39782,3.02064,12.3084,2.21046,22.927,26.426,-130.753,23.1698,-49.8529,16.1926,1013.47
39788,2.1359,12.0884,2.65044,27.477,25.936,-139.783,23.3151,-49.3903,16.3699,1013.47
39794,2.63805,11.9784,2.55001,34.127,21.456,-151.613,25.32,-48.2801,17.0496,1013.46
39800,2.59023,12.2893,2.49262,39.167,25.166,-160.853,25.0875,-49.0819,15.4095,1013.46
39806,2.63805,14.0444,2.10046,44.417,19.426,-175.413,25.8721,-48.9586,16.2813,1013.48
39812,3.18324,14.6327,1.67005,44.627,13.056,-185.143,26.9472,-47.0773,17.0644,1013.48
39818,3.6041,14.5418,0.455318,44.487,11.726,-201.243,27.354,-46.8306,18.084,1013.45
39824,2.80065,15.2974,0.383582,48.197,8.016,-213.353,27.9641,-47.139,17.7737,1013.45
39830,4.49362,18.2147,0.283152,50.297,-5.494,-234.493,29.0102,-45.6279,17.818,1013.45
39836,6.50701,19.7881,-1.53416,42.107,-4.444,-253.673,31.2476,-44.0242,17.3452,1013.47
39842,6.27746,20.8402,-3.43277,27.757,6.546,-283.003,30.5502,-44.3018,17.36,1013.47
39848,5.59836,21.1033,-3.2893,16.137,4.376,-302.673,32.6423,-42.9756,17.7146,1013.49
39854,5.72748,20.3094,-2.74411,6.897,-4.024,-332.353,34.037,-41.9271,17.6112,1013.49
39860,6.63136,22.1697,-0.663763,16.487,-4.374,-348.313,35.6351,-40.9402,18.0692,1013.47
39866,10.749,23.4466,1.03877,8.017,-10.184,-382.333,36.1872,-40.5393,18.6159,1013.47
39872,11.7916,22.6958,1.80874,-0.383,7.246,-411.173,37.9597,-37.8562,18.0249,1013.46
39878,8.13781,21.3328,2.74131,10.327,43.856,-447.853,39.2091,-35.6358,19.34,1013.46
39884,4.79491,22.3706,1.63657,20.547,42.386,-470.953,40.4586,-35.6975,19.4878,1013.48
39890,6.35398,24.8479,2.18176,17.467,6.686,-499.933,40.9235,-32.9836,19.931,1013.48
39896,7.80783,24.7379,0.469666,16.067,10.186,-497.903,43.248,-30.393,19.3548,1013.48
39902,3.88148,26.2061,3.76474,43.017,28.036,-505.463,44.5556,-29.0978,20.8767,1013.46
39908,7.64522,23.8866,2.90391,20.267,-27.964,-525.273,45.3401,-27.1857,19.9458,1013.46
39914,7.58305,26.1869,0.871387,48.477,12.846,-529.263,46.5895,-23.6391,20.2709,1013.45
39920,4.19233,32.7006,-0.0707456,60.517,11.236,-531.293,48.3039,-21.5729,20.3596,1013.45
39926,7.94173,28.559,0.560531,36.787,0.036,-539.903,47.5775,-19.7533,19.931,1013.45
39932,8.53953,19.0946,-1.21374,48.267,13.336,-518.273,48.4201,-15.9909,21.6451,1013.45
39938,6.95178,18.119,-5.09705,52.887,16.486,-483.413,49.4662,-13.8321,21.0836,1013.4
39944,11.5333,12.8249,-5.31704,28.597,-49.944,-455.903,50.1054,-12.506,21.5269,1013.4
39950,19.0799,4.86222,-12.6293,-15.293,-69.544,-418.383,50.2216,-9.85376,21.2609,1013.4
39956,1.9733,0.0272128,-13.1028,-43.713,127.436,-323.883,49.2337,-7.50994,22.118,1013.43
39962,-20.5805,13.3701,-0.314648,-15.433,191.626,-178.143,49.5533,-7.63329,22.3396,1013.43
39968,-8.9497,16.4882,5.93595,-3.323,-42.454,-19.383,49.9892,-7.57162,22.842,1013.44
39974,7.72652,15.2592,-4.20274,-29.643,-32.584,55.587,49.6986,-7.63329,22.4578,1013.44
39980,12.375,8.2912,-4.3223,-32.933,60.376,129.227,49.408,-8.8052,21.6747,1013.47
39986,10.6773,8.92248,-2.47629,-30.833,68.426,155.897,49.6986,-10.5631,22.6204,1013.47
39992,11.2751,7.21516,-2.78237,-41.193,66.256,172.557,48.5654,-10.1005,23.0489,1013.47
39998,11.1651,5.78522,-2.7202,-35.663,75.986,172.487,48.2167,-11.1799,23.3739,1013.47
40004,8.91256,5.1109,-1.8211,-27.823,89.916,165.837,49.1756,-12.9994,24.4379,1013.47
40010,7.10481,3.73836,-1.12766,-25.583,88.936,161.427,47.7809,-13.1844,23.9355,1013.48
40016,5.43576,1.61497,-1.02723,-18.373,75.566,158.977,47.4612,-12.9686,24.7925,1013.48
40022,4.81883,0.974128,-1.20417,-13.403,66.536,160.657,48.3911,-15.0348,24.4231,1013.44
40028,3.83843,1.14629,-1.04636,-7.383,54.006,166.957,47.6937,-15.96,25.4426,1013.44
40034,3.0589,1.77757,-1.04636,-4.093,45.956,173.047,47.4612,-15.7441,25.6495,1013.42
40040,2.04025,2.6671,-0.730717,-3.043,31.116,184.387,47.0544,-17.1628,26.3736,1013.42
40046,1.60505,3.22186,-0.754629,-3.463,21.596,193.627,47.1997,-18.859,24.9255,1013.41
40052,0.954646,3.77183,-0.534638,-6.613,7.806,209.797,46.4733,-19.3832,25.9155,1013.41
40058,0.725091,3.74314,-0.257259,-9.763,-4.654,228.907,46.8511,-20.0617,25.8859,1013.42
40064,0.447712,3.56619,0.3788,-10.463,-12.704,242.417,46.8801,-23.0223,26.6839,1013.42
40070,0.44293,3.47054,1.26833,-8.643,-25.794,262.087,45.9212,-22.9298,25.2062,1013.42
40076,0.887693,3.6714,1.48832,-6.333,-32.724,274.687,45.6888,-23.67,24.4231,1013.38
40082,1.16029,3.64271,1.96177,-1.713,-40.144,292.047,45.6016,-26.5997,24.231,1013.38
40088,1.47593,3.7814,2.11003,1.927,-44.204,303.037,44.3812,-28.4193,24.8811,1013.39
40094,2.17894,4.27877,2.07655,6.547,-48.334,318.157,44.5846,-28.3268,23.0932,1013.39
40100,2.80544,4.84787,1.88526,7.597,-48.474,326.977,43.3642,-31.1023,23.8763,1013.39
40106,3.45584,5.57958,1.9283,8.017,-42.804,338.107,42.8703,-32.706,22.5612,1013.39
40112,3.70931,6.19651,1.93308,7.737,-37.834,344.617,41.8823,-32.6443,22.5465,1013.39
40118,4.25928,7.23429,1.96656,5.147,-29.714,352.527,41.4174,-34.9881,23.6547,1013.39
40124,4.49362,7.966,1.90917,2.347,-22.294,356.937,40.2261,-37.3011,22.9159,1013.39
40130,4.29754,9.08508,1.78483,-3.323,-10.604,362.887,39.4416,-37.9796,22.5169,1013.39
40136,3.80496,9.88374,1.6844,-9.623,-4.164,367.087,38.1631,-38.9665,23.0636,1013.39
40142,3.03499,10.8785,1.39745,-15.223,5.146,373.527,37.3785,-40.9094,22.3692,1013.42
40148,2.11677,11.3902,1.72265,-20.683,6.406,377.517,34.6181,-42.3588,22.4874,1013.42
40154,1.04073,12.0549,1.74178,-23.623,4.376,382.837,34.1242,-43.1607,22.2805,1013.44
40160,0.337717,12.6767,1.80396,-24.813,1.016,385.777,32.7295,-45.2886,22.5317,1013.44
40166,-0.728758,13.3319,2.0622,-24.183,-8.154,388.997,30.4049,-47.1698,22.0293,1013.43
40172,-1.47481,13.8723,2.23915,-21.803,-16.344,390.607,29.5042,-47.2624,22.5021,1013.43
40178,-2.17783,14.4892,2.43523,-15.993,-31.044,391.727,27.7317,-49.1436,22.1475,1013.39
40184,-2.06783,14.9292,2.55957,-9.833,-41.194,391.167,25.5815,-51.3949,21.2018,1013.39
40190,-1.81915,16.2874,2.15785,0.527,-52.674,388.017,24.3902,-50.8089,21.4973,1013.39
40196,-1.88132,17.2295,2.09568,4.937,-61.984,384.307,22.4724,-51.0865,21.5121,1013.42
40202,-1.61828,18.4681,2.22002,11.937,-67.864,382.417,19.712,-53.3995,21.453,1013.42
40208,-1.12092,20.0607,2.08612,19.637,-73.674,381.507,17.9105,-52.6593,21.4382,1013.41
40214,-0.661805,21.0363,2.18176,24.607,-73.884,383.327,17.3294,-53.7387,21.0245,1013.41
40220,-0.27443,23.1214,2.14829,33.217,-68.704,391.517,15.2954,-53.9854,21.4973,1013.39
40226,-0.0400928,24.7379,2.08133,37.627,-62.474,401.387,12.8837,-54.1705,22.4726,1013.39
40232,0.299458,26.9665,1.99047,38.467,-46.864,421.757,11.1112,-54.3247,21.6451,1013.43
40238,0.328152,28.1095,1.60788,35.527,-33.984,437.087,9.07725,-54.3863,22.8716,1013.43
40244,0.175115,29.7211,0.684874,25.867,-6.824,456.967,6.20063,-54.3555,22.3544,1013.43
40250,-0.704846,29.8024,1.1392,15.857,10.256,464.247,4.10854,-53.9854,21.9997,1013.39
40256,-3.35908,29.9603,1.37832,4.307,32.376,462.917,3.64363,-53.6462,22.1918,1013.39
40262,-5.80767,30.6824,1.14398,-2.973,44.346,453.887,-0.743942,-53.6154,23.5365,1013.46
40268,-10.2601,31.4715,0.412277,-12.283,58.066,430.227,-2.63263,-53.9854,22.6204,1013.46
40274,-12.79,31.7154,-0.759411,-20.193,64.436,408.597,-3.70773,-52.8135,21.6451,1013.47
40280,-15.2481,31.328,-4.55664,-41.263,72.836,366.807,-6.41001,-53.3378,21.3791,1013.47
40286,-16.8024,30.5246,-8.85123,-64.643,78.576,333.067,-9.11229,-52.6593,22.4283,1013.41
40292,-23.1678,26.713,-11.0224,-99.993,77.246,278.607,-9.5772,-51.2715,21.2166,1013.41
40298,-28.0219,20.9167,-8.9421,-111.613,70.036,241.437,-10.0421,-51.9809,20.8176,1013.41
40304,-36.482,9.99374,-3.6958,-87.673,55.476,188.797,-12.0761,-51.8575,19.2661,1013.45
40310,-42.3117,3.38924,0.326194,-48.123,37.976,158.137,-12.6863,-51.5491,18.0397,1013.45
40316,-49.4614,0.0080832,3.36302,32.167,-15.014,124.607,-12.57,-51.3641,19.1479,1013.46
40322,-49.8775,3.24099,3.53997,89.077,-72.904,104.517,-13.558,-50.5622,20.3743,1013.46
40328,-40.7527,13.5518,-0.620722,134.297,-118.614,57.617,-14.1101,-49.8529,21.7929,1013.45
40334,-25.8937,23.9775,13.8413,131.497,-271.284,-60.123,-11.8436,-49.3286,21.6747,1013.45
40340,-18.6197,66.9904,-37.1487,266.317,-214.654,-305.053,-10.6232,-49.3903,23.6695,1013.48
40346,-8.47625,49.7642,-22.5098,-243.283,194.146,-360.003,-9.984,-50.6239,23.1671,1013.48
40352,-4.38729,-11.6323,5.74944,-285.073,310.206,-358.603,-8.5021,-51.8267,22.2214,1013.49
40358,-1.71872,-14.2004,8.14064,-75.073,70.106,-345.373,-6.70058,-53.2761,20.9654,1013.49
40364,-6.4246,2.911,22.7796,89.217,14.736,-354.053,-5.68359,-53.5537,22.3248,1013.49
40370,13.9915,8.82683,6.06507,98.107,-36.784,-333.963,-3.33,-53.5537,21.3348,1013.46
40376,15.0436,11.4954,-6.3596,118.547,110.496,-319.053,-2.40018,-52.721,23.4626,1013.46
40382,6.54527,15.7996,-7.17261,105.387,261.206,-294.203,-2.08055,-53.2761,24.3344,1013.47
40388,-2.0774,16.3639,-1.55807,39.027,301.736,-302.463,-1.17979,-53.6462,22.31,1013.47
40394,-18.768,12.2032,12.3348,-1.923,195.126,-330.953,0.0405907,-52.9986,23.6843,1013.48
40400,-24.9421,18.7934,15.3668,20.197,34.756,-336.413,1.75494,-53.7387,24.6299,1013.48
40406,-16.9841,28.6307,1.64135,21.317,-143.324,-284.473,2.80098,-53.2144,25.0585,1013.45
40412,-6.71632,23.5566,-0.300301,-16.623,-150.814,-254.583,5.35798,-53.4612,24.0537,1013.45
40418,-1.29786,15.8139,-0.8168,-26.493,-91.524,-232.183,7.33384,-53.6154,23.6104,1013.45
40424,0.218157,12.2462,-1.89284,-18.653,-74.374,-220.773,7.62441,-54.448,24.4083,1013.49
40430,1.95417,11.9354,-2.76324,0.457,-60.514,-214.263,8.87385,-53.0294,25.2358,1013.49
40436,-1.14483,18.8412,-8.42082,53.377,6.266,-201.733,10.7916,-52.906,24.4822,1013.44
40442,-7.18978,27.9564,-7.84693,30.557,138.356,-71.743,9.13536,-53.492,25.5018,1013.44
40448,-14.4303,21.8637,2.13872,-50.083,96.076,-60.473,8.93196,-53.677,24.9846,1013.42
40454,1.55723,-0.231037,5.37641,-23.413,-18.654,-63.623,10.7625,-52.8135,23.8616,1013.42
40460,3.64714,5.20177,1.2492,39.797,5.706,-58.443,10.2686,-53.2453,24.9846,1013.45
40466,-3.4069,15.2209,0.780522,14.387,33.216,-45.633,9.83272,-53.2761,25.221,1013.45
40472,-3.52646,11.9067,1.96177,-15.783,19.356,-37.723,11.1693,-52.6902,25.7677,1013.46
40478,-0.403555,8.21946,1.3305,4.727,-3.254,-28.203,11.024,-53.0911,24.9107,1013.46
40484,1.06464,10.8833,-0.314648,3.047,-4.164,-27.223,10.2105,-54.1396,23.9946,1013.46
40490,2.23155,10.3907,-0.395949,-7.663,2.276,-28.483,10.995,-52.536,25.2653,1013.43
40496,1.60505,9.60636,-0.156829,-3.463,10.676,-30.093,11.7795,-53.2144,24.5708,1013.43
40502,0.332934,10.6728,0.550966,-3.673,12.846,-29.673,11.1984,-54.1088,24.7038,1013.47
40508,0.112944,10.1898,1.36876,-12.283,3.186,-28.483,11.489,-53.2453,25.1028,1013.47
40514,1.08855,9.31463,0.570096,-8.223,-0.734,-28.063,12.1573,-52.2276,24.689,1013.45
40520,0.787262,10.3046,0.73748,-4.093,4.376,-26.663,11.8958,-53.2453,23.9355,1013.45
40526,0.20381,10.3237,1.18224,-6.753,5.286,-25.123,10.995,-53.7387,24.1719,1013.44
40532,0.725091,9.86461,0.761392,-6.123,-3.044,-23.863,12.6512,-52.1967,23.1966,1013.44
40538,0.964211,10.1324,0.0392496,-4.373,-3.954,-22.673,12.4188,-52.9986,24.2458,1013.44
40544,0.796827,10.7924,-0.482032,-10.183,-4.234,-23.163,11.9829,-54.1396,24.1128,1013.44
40550,0.772915,10.5341,-0.367254,-14.523,-6.684,-22.953,12.7965,-52.9369,24.7334,1013.44
40556,1.24159,9.68288,0.393147,-15.083,-8.224,-22.603,13.2614,-52.1042,23.3148,1013.46
40562,0.815957,9.55375,0.785304,-14.033,-7.524,-22.323,12.6512,-54.3247,23.8025,1013.46
40568,0.40467,9.2955,1.08181,-11.023,-9.554,-21.273,13.2033,-53.7079,23.0636,1013.47
40574,0.332934,9.15203,1.10572,-7.103,-12.564,-20.363,13.7844,-52.9986,23.8616,1013.47
40580,0.495536,9.20942,1.1392,-2.273,-16.134,-18.683,14.1331,-53.4303,24.3492,1013.46
40586,0.90204,9.21899,0.943123,0.037,-16.274,-18.123,12.8546,-53.2453,23.9502,1013.46
40592,0.792045,9.40072,0.560531,4.237,-13.544,-17.423,13.4358,-52.6902,24.5265,1013.46
40598,0.629443,9.72114,0.25924,4.727,-15.224,-17.983,13.6682,-52.8444,24.5117,1013.49
40604,0.337717,9.88374,-0.190306,5.147,-17.394,-17.563,12.7384,-53.4612,23.4478,1013.49
40610,0.419018,9.79766,-0.104222,2.767,-20.964,-17.353,14.3365,-52.3509,22.7386,1013.49
40616,0.945082,9.94591,-0.204653,2.137,-21.454,-18.193,14.6561,-52.4126,24.3935,1013.49
40622,0.868563,10.1229,-0.45812,-3.113,-15.084,-17.493,13.3776,-53.1836,23.6547,1013.47
40628,1.01682,10.7494,0.440971,-2.553,-19.634,-21.413,13.4939,-52.4743,23.2262,1013.47
40634,0.878128,10.6011,-0.635069,-12.143,-22.644,-22.813,15.2954,-52.7827,22.9602,1013.46
40640,0.76335,10.0655,-0.314648,-13.333,-26.004,-24.423,14.4818,-53.1528,22.9602,1013.46
40646,0.66292,10.2855,-0.788106,-19.493,-21.664,-23.163,13.9297,-53.3686,24.3492,1013.44
40652,0.222939,9.72592,0.49836,-18.443,-24.044,-25.123,15.5278,-52.5976,22.0293,1013.44
40658,0.595966,9.96504,-0.214218,-27.053,-22.574,-25.263,15.4407,-53.6462,23.566,1013.44
40664,0.313805,10.1037,0.0488144,-27.543,-25.444,-26.593,15.092,-53.9238,22.5169,1013.47
40670,1.26072,10.8067,0.919211,-25.653,-30.764,-29.953,15.615,-52.5976,23.3739,1013.47
40676,0.701179,9.2429,-0.0468336,-38.463,-22.154,-30.793,16.5739,-52.536,22.8863,1013.49
40682,0.595966,9.37202,1.28267,-25.513,-20.824,-30.863,15.9637,-53.4612,22.7829,1013.49
40688,0.76335,10.7685,1.82787,-33.563,-21.524,-32.753,15.9637,-53.3686,22.4283,1013.47
40694,1.79635,10.1994,1.93786,-39.793,-17.954,-35.763,17.3003,-53.1836,21.0245,1013.47
40700,1.40419,9.63984,1.58875,-40.213,-11.864,-37.863,17.2131,-53.8929,21.3644,1013.48
40706,0.299458,8.59249,1.6557,-36.013,-6.474,-38.843,16.9226,-54.2322,22.2509,1013.48
40712,0.495536,9.18073,1.25398,-27.753,-8.294,-38.773,17.9105,-53.1528,21.7929,1013.48
40718,0.44293,9.7594,1.2205,-29.433,-8.224,-40.383,18.0848,-53.8621,20.2118,1013.44
40724,0.68205,9.74983,1.00051,-29.293,-5.354,-39.123,17.678,-54.263,20.3005,1013.44
40730,0.352064,9.2955,2.08133,-25.863,-4.794,-42.763,17.3875,-52.9369,20.7881,1013.46
40736,0.90204,9.75461,1.12964,-22.713,-6.824,-42.273,18.6079,-52.536,20.9063,1013.46
40742,0.940299,10.0559,1.93786,-19.843,-4.584,-46.473,17.0097,-54.3555,20.6994,1013.46
40748,1.25116,10.1802,1.60788,-19.493,-2.834,-48.153,18.2011,-53.7696,22.2362,1013.46
40754,1.39941,10.2376,1.35919,-17.953,1.646,-50.743,18.666,-52.5976,21.4973,1013.45
40760,1.26072,10.1372,2.01916,-13.193,5.426,-55.923,18.3754,-54.2938,21.8372,1013.45
40766,1.19377,10.4146,2.30611,-12.633,4.866,-60.963,19.4215,-54.2013,21.1279,1013.49
40772,1.93982,10.8976,1.67005,-6.543,5.076,-68.243,19.683,-53.0911,20.9063,1013.49
40778,1.782,11.4811,2.00003,-3.463,5.846,-73.773,20.1188,-53.5845,19.4434,1013.49
40784,1.54766,11.3998,2.03351,-3.603,6.056,-83.643,19.8864,-53.3995,20.4039,1013.48
40790,1.80591,11.6102,0.708786,-1.993,5.286,-87.913,20.235,-52.4434,20.0788,1013.48
40796,1.3755,11.6006,1.66527,-0.243,6.406,-97.643,21.9494,-53.0602,20.3448,1013.49
40802,1.79157,12.0741,1.88047,2.137,2.696,-102.683,21.2811,-54.1088,21.7633,1013.49
40808,2.16938,12.1984,2.47827,3.957,0.106,-112.903,22.0947,-52.5051,21.852,1013.45
40814,2.3798,12.031,1.91873,7.527,4.866,-120.463,23.5475,-51.8883,21.3791,1013.45
40820,1.92069,12.5906,1.91873,12.567,8.296,-131.873,23.8381,-52.7827,20.6108,1013.47
40826,1.65766,12.5762,2.56914,13.897,6.476,-139.433,23.286,-52.6285,20.6994,1013.47
40832,1.96373,11.9402,2.67913,18.027,5.496,-150.423,24.797,-50.5931,20.596,1013.47
40838,1.76287,12.0071,2.66001,22.087,5.006,-158.403,25.9302,-51.0248,20.2561,1013.44
40844,1.78678,12.0741,3.04738,29.647,2.346,-168.973,26.5404,-51.1482,22.0884,1013.44
40850,2.09764,12.4567,2.56436,36.227,1.506,-176.323,26.9762,-49.9146,22.2214,1013.49
40856,2.19329,13.6905,1.82787,39.797,0.666,-188.853,28.7777,-48.095,21.6008,1013.49
40862,2.52806,14.1496,2.01438,41.197,-0.314,-198.933,28.8068,-49.9763,22.4283,1013.51
40868,3.18324,14.9483,1.75613,43.787,-2.414,-216.993,29.446,-48.9894,22.1918,1013.51
40874,3.80974,16.3974,2.00003,48.827,-2.904,-231.343,30.2887,-47.3857,23.3444,1013.48
40880,5.64618,17.8512,0.775739,44.417,-5.424,-255.563,32.1774,-46.9848,22.6204,1013.48
40886,6.31093,19.0133,0.00577281,44.697,2.346,-274.183,32.5261,-45.5353,22.4283,1013.47
40892,5.97138,19.7498,-1.42895,37.277,6.896,-305.613,33.6012,-45.3195,23.4774,1013.47
40898,5.40228,21.4667,-1.83067,43.157,7.106,-335.853,35.4898,-44.2401,24.1275,1013.47
40904,6.76526,23.4705,-2.17022,31.677,0.596,-359.933,36.6812,-42.8214,23.2853,1013.47
40910,7.4348,21.8971,0.292717,27.057,8.646,-398.083,37.8144,-40.4776,23.2557,1013.47
40916,6.53571,23.3414,1.56484,42.527,21.316,-423.983,39.9355,-37.7637,23.0193,1013.48
40922,7.21003,27.6886,2.29654,39.447,11.866,-459.753,41.4174,-37.7637,24.8368,1013.48
40928,9.42428,25.0726,1.50745,21.247,7.596,-480.053,42.1438,-35.204,24.3049,1013.48
40934,3.01108,20.3907,4.18559,60.167,43.436,-491.883,44.0616,-33.0144,24.6595,1013.48
40940,1.63375,25.1348,4.18081,90.687,8.996,-504.553,45.311,-30.9481,24.955,1013.47
40946,9.29037,27.8751,1.60309,68.217,-44.274,-523.663,46.299,-28.4501,25.753,1013.47
40952,9.82122,32.2032,1.41658,87.397,-11.584,-531.293,47.7518,-23.9784,26.211,1013.47
40958,6.66961,43.7766,-6.91914,84.737,17.116,-540.953,48.5363,-22.1897,25.1323,1013.45
40964,7.13351,41.1606,-4.34143,33.567,13.406,-552.363,50.3088,-20.2159,26.8021,1013.45
40970,11.7581,20.1276,1.41658,11.727,-0.874,-548.373,50.7737,-16.7927,26.7134,1013.43
40976,10.5673,17.2295,-2.82063,48.967,15.856,-519.183,50.9771,-13.1536,26.078,1013.43
40982,12.2411,13.7192,-6.06309,33.917,-36.994,-492.023,52.1394,-11.8583,26.9498,1013.42
40988,16.507,5.25438,-13.9493,-16.063,-67.724,-451.563,52.2556,-10.378,26.4179,1013.42
40994,15.4358,-11.2688,-16.087,-47.213,31.186,-361.193,50.1926,-7.88001,24.689,1013.4
41000,-14.7699,11.1033,-8.79384,8.857,185.116,-219.023,51.7035,-6.33803,27.4079,1013.4
41006,-21.2883,20.5198,11.5314,11.237,-42.174,-27.013,52.4299,-6.89314,27.9694,1013.4
41012,-0.197912,17.5978,0.354888,-1.503,-139.964,59.367,51.6454,-6.67726,26.4179,1013.46
41018,14.6419,10.0989,-6.73263,-3.323,-53.094,152.327,53.0401,-7.54078,27.1419,1013.46
41024,14.6467,8.91291,-5.05401,0.037,-18.934,186.557,53.2435,-9.60704,26.1815,1013.44
41030,14.5893,9.4055,-3.92536,-11.303,-15.574,208.467,52.3718,-11.0873,25.9303,1013.44
41036,15.1058,8.74553,-3.71493,-13.053,1.086,206.927,52.1975,-10.6247,26.4031,1013.39
41042,13.9006,8.53989,-2.91627,-10.113,20.266,200.277,52.6915,-13.0303,25.7677,1013.39
41048,11.2416,7.94209,-1.56285,-13.193,39.376,191.737,52.5171,-14.2947,25.3392,1013.41
41054,9.8786,6.00043,-1.17548,-13.613,43.016,191.387,51.8488,-14.233,26.5804,1013.41
41060,8.47736,4.76657,-1.35243,-14.593,49.386,201.957,52.1394,-16.0525,26.078,1013.4
41066,7.42523,4.61353,-1.41938,-18.233,55.126,216.097,51.442,-18.2113,27.1863,1013.4
41072,5.8853,4.74744,-1.12766,-24.113,61.986,243.957,51.1515,-17.7796,26.4327,1013.4
41078,5.55053,5.63219,-0.965054,-27.123,62.896,263.977,50.396,-19.6608,27.0828,1013.43
41084,4.95752,5.95739,-0.663763,-35.383,72.766,292.607,49.6114,-22.9298,27.7478,1013.43
41090,4.2832,5.9813,-0.195088,-38.463,71.996,309.547,49.4371,-23.6391,27.6443,1013.43
41096,4.08712,5.93348,-0.266824,-43.573,71.016,331.247,48.3329,-24.9344,28.7082,1013.43
41102,3.5754,5.93348,-0.31943,-46.303,70.036,342.727,46.7929,-28.6043,27.6739,1013.38
41108,2.27459,6.43563,-0.83593,-52.603,63.246,355.957,45.9503,-29.7146,27.6296,1013.38
41114,1.36593,5.7374,-0.142482,-52.743,57.576,362.117,45.0495,-29.8071,28.3093,1013.34
41120,0.433365,6.24433,-0.0229216,-44.903,46.236,368.417,43.8582,-33.477,27.3193,1013.34
41126,0.0268608,6.93778,0.570096,-41.613,35.456,371.077,43.0446,-35.2657,26.7725,1013.34
41132,-0.566157,7.20081,0.799651,-35.943,20.546,375.067,41.4755,-36.5301,27.4966,1013.38
41138,-0.967878,7.51167,0.675309,-31.183,10.956,379.057,40.3714,-37.9488,27.0089,1013.38
41144,-0.91049,8.26251,0.264022,-26.073,-4.374,386.197,39.1219,-40.6318,27.7034,1013.39
41150,-0.451379,9.08508,-0.104222,-23.623,-14.454,390.537,38.1921,-41.3411,26.5509,1013.39
41156,-0.107046,10.5102,-0.381602,-22.573,-26.634,395.367,36.1872,-41.7421,26.0485,1013.44
41162,-0.341384,11.2324,-0.410296,-23.693,-33.284,398.307,34.6472,-44.7027,26.9055,1013.44
41168,-0.87223,12.1745,-0.23813,-23.063,-43.994,402.087,33.1072,-45.8129,25.8268,1013.42
41174,-1.18309,12.5284,-0.104222,-22.013,-51.414,405.307,32.2064,-45.4737,24.497,1013.42
41180,-0.900925,12.8584,0.0775088,-17.253,-61.494,406.147,29.7076,-48.3726,24.955,1013.43
41186,-0.743106,13.4084,-0.228565,-13.263,-68.284,405.727,28.5162,-49.1128,24.1867,1013.43
41192,-0.915272,13.8723,0.0822912,-11.863,-72.064,404.257,27.9932,-49.3903,22.9307,1013.43
41198,-0.618763,13.9153,0.364453,-4.793,-78.224,399.637,25.8721,-50.8706,22.31,1013.46
41204,-0.408338,14.2549,0.474448,1.227,-79.904,394.807,23.257,-54.1396,22.2805,1013.46
41210,0.0794672,14.6135,1.08181,8.227,-78.994,385.917,23.0245,-53.0911,23.5069,1013.4
41216,-0.00183359,15.3739,1.04355,19.147,-79.834,378.847,21.9785,-54.0163,21.2609,1013.4
41222,0.940299,16.9713,1.31615,34.057,-79.134,368.907,19.1309,-55.805,21.7929,1013.44
41228,1.26072,18.5638,1.53136,44.907,-73.394,364.147,17.4456,-56.7302,21.5121,1013.44
41234,0.787262,21.3758,1.79439,56.317,-63.874,364.427,17.126,-56.576,20.6403,1013.45
41240,0.76335,23.4897,1.17268,58.907,-51.554,371.287,13.7263,-56.6685,21.9997,1013.45
41246,0.0077312,25.8857,0.450536,55.967,-35.174,389.837,11.3146,-56.7302,21.5269,1013.45
41252,-0.613981,27.2486,-0.0803104,49.877,-19.774,405.587,9.74555,-57.2853,21.3496,1013.42
41258,-2.50303,28.5064,-0.47725,35.807,-1.784,429.387,6.7527,-57.8712,21.0836,1013.42
41264,-3.71298,28.4729,-0.630286,24.957,6.406,441.007,3.5274,-58.1488,20.7733,1013.43
41270,-6.05157,27.3491,0.182722,13.197,16.556,447.377,1.40626,-57.0386,22.118,1013.43
41276,-8.08887,26.5169,0.813998,10.327,18.516,444.157,-0.947339,-57.0386,21.8224,1013.42
41282,-10.8101,25.6274,1.6557,12.777,16.556,429.877,-4.43415,-56.3601,21.719,1013.42
41288,-12.4361,24.9961,2.55479,16.837,14.876,415.387,-6.38096,-55.3732,21.2314,1013.44
41294,-14.043,24.494,3.37258,25.867,8.996,388.157,-7.65945,-54.2938,20.729,1013.44
41300,-14.2056,24.867,2.81304,30.067,9.556,366.737,-10.0421,-53.8621,21.6303,1013.44
41306,-14.4925,26.3878,0.47923,25.027,18.306,329.007,-12.6572,-53.8312,19.8867,1013.46
41312,-14.1769,28.4108,-3.71493,8.927,27.966,299.607,-12.7444,-51.3024,20.9063,1013.46
41318,-16.3289,30.6967,-11.6537,-38.183,56.596,249.557,-14.3135,-50.9631,20.9506,1013.48
41324,-20.9153,27.5404,-9.2673,-89.353,81.726,200.627,-17.3354,-50.5931,19.3252,1013.48
41330,-27.9454,16.12,-6.01527,-93.133,96.076,170.107,-17.132,-49.1744,19.9606,1013.47
41336,-35.9224,6.51215,-0.0372688,-56.173,90.406,131.817,-17.2482,-49.452,19.3548,1013.47
41342,-39.6958,2.59536,2.98521,-12.213,62.476,112.497,-18.7882,-49.5445,19.3252,1013.44
41348,-41.1926,3.90096,3.26259,60.237,-0.384,89.957,-19.3984,-48.9277,20.4926,1013.44
41354,-38.1558,8.03295,1.87569,98.387,-31.814,69.657,-19.195,-48.1259,19.2809,1013.49
41360,-32.1587,15.2926,-1.6059,111.267,-34.684,27.167,-19.9795,-47.6016,19.6503,1013.49
41366,-28.371,18.3534,-2.99757,102.517,-22.224,-7.203,-20.2991,-46.6456,20.2561,1013.49
41372,16.3253,47.9564,62.9804,306.777,-265.824,-154.483,-17.3354,-46.954,21.2018,1013.49
41378,-22.3596,68.5208,-47.4978,190.927,-91.104,-360.073,-16.4346,-47.4474,23.3296,1013.49
41384,-8.19887,17.6312,-22.6628,-288.083,266.386,-376.453,-16.2603,-49.1436,21.6303,1013.4
41390,3.14499,-14.2865,12.6409,-300.403,197.646,-364.903,-14.7493,-50.3155,19.0297,1013.4
41396,-4.71728,-11.9527,11.627,-20.193,127.786,-378.063,-12.4248,-50.2847,19.473,1013.45
41402,-2.20174,6.95213,24.5204,96.987,2.276,-359.583,-11.524,-50.7781,19.931,1013.45
41408,15.6653,8.96074,2.45436,90.757,18.586,-363.223,-10.0421,-51.3641,20.9211,1013.49
41414,16.4401,13.9918,-5.56094,120.437,168.526,-347.613,-7.25266,-51.8575,21.0097,1013.49
41420,4.51275,18.0521,-5.50355,57.297,328.896,-334.803,-8.03719,-52.6902,21.0688,1013.49
41426,-9.26056,15.3787,6.35202,-0.103,323.786,-347.053,-7.80474,-52.6593,20.9358,1013.45
41432,-29.4662,19.3051,16.7394,17.047,137.586,-357.553,-4.46321,-52.4126,20.7733,1013.45
41438,-29.4758,28.3868,7.33719,29.017,-26.284,-319.823,-3.18471,-53.3995,20.9063,1013.47
41444,-11.5179,25.1061,2.35871,-25.653,-147.174,-276.773,-3.27188,-54.1705,20.3891,1013.47
41450,-2.22087,15.3261,2.58349,-42.523,-120.994,-263.473,-0.627714,-53.9854,19.5616,1013.47
41456,1.78678,10.9215,-0.496379,-1.993,-81.444,-255.353,1.14475,-53.3995,19.473,1013.47
41462,0.0985968,18.7886,-12.5528,118.897,73.046,-220.283,1.81305,-54.448,21.3496,1013.47
41468,-8.23234,34.0875,-13.9827,72.627,132.406,-89.593,1.69683,-53.8004,20.9949,1013.47
41474,-10.9344,20.0416,3.30085,-84.243,72.066,-77.343,3.12061,-53.3686,21.0984,1013.47
41480,-0.920054,-0.785795,10.0153,-60.303,7.386,-79.863,2.51042,-54.0471,21.6894,1013.47
41486,0.0699024,5.03917,4.70209,47.357,0.036,-71.743,2.59759,-53.5228,20.8915,1013.47
41492,-2.87127,13.4371,1.87091,37.137,-3.464,-63.553,3.23684,-54.078,22.2214,1013.46
41498,-0.231389,10.8928,-1.29504,1.647,1.086,-52.283,3.55646,-53.5845,21.9554,1013.46
41504,0.701179,9.44376,-1.22809,11.377,12.496,-47.103,3.20778,-54.0471,20.9802,1013.48
41510,-1.50829,11.4524,0.900082,4.867,7.316,-41.433,4.42816,-53.0911,21.0393,1013.48
41516,-1.98175,11.0315,1.2492,-6.963,-3.674,-36.183,4.48628,-53.677,21.9111,1013.46
41522,-0.102264,9.32898,0.847475,-5.423,-14.874,-29.813,4.1376,-54.8489,21.3496,1013.46
41528,1.01204,9.76418,0.785304,-0.313,-13.264,-28.623,4.22477,-53.677,20.4334,1013.46
41534,0.505101,10.4385,0.594008,-1.993,-7.034,-27.013,5.50326,-52.9369,21.5417,1013.46
41540,0.830304,9.81679,0.63705,-1.923,-8.924,-26.103,4.68967,-53.7387,21.2905,1013.46
41546,1.67201,9.922,0.149245,2.557,-5.564,-27.643,3.87608,-53.492,21.8372,1013.48
41552,1.07899,10.0463,0.374018,3.047,-2.624,-27.713,5.96817,-53.0911,21.0097,1013.48
41558,0.0220784,10.5724,-0.300301,0.527,-4.304,-25.193,4.77684,-53.307,21.453,1013.47
41564,0.0603376,10.7111,-0.496379,-3.953,-9.904,-24.493,4.22477,-53.9238,20.8176,1013.47
41570,1.30376,10.5055,-1.15157,-10.113,-13.054,-24.703,5.41609,-53.492,21.4973,1013.49
41576,1.00725,10.1324,-0.501162,-11.863,-10.324,-24.073,6.69459,-53.1219,20.2266,1013.49
41582,0.739438,9.88374,0.0870736,-12.493,-8.504,-23.373,5.50326,-54.078,21.9259,1013.45
41588,0.557707,9.70679,0.412277,-11.373,-8.784,-21.833,5.09647,-54.8489,21.7633,1013.45
41594,0.428582,9.55854,0.594008,-8.923,-9.624,-20.363,6.92704,-53.8004,21.985,1013.45
41600,0.30424,9.4868,1.05312,-5.003,-15.644,-18.963,6.43308,-54.6022,20.2857,1013.48
41606,0.4238,9.30507,0.440971,-2.273,-15.644,-17.843,5.82289,-54.6947,20.3152,1013.48
41612,0.189462,9.88374,-0.152046,1.647,-20.824,-17.353,7.3629,-53.1528,21.6894,1013.46
41618,0.495536,10.2615,-0.262042,2.557,-26.074,-18.053,6.83987,-54.263,21.5712,1013.46
41624,1.09334,10.405,-0.601592,-2.903,-30.134,-18.613,6.20063,-54.7873,21.7633,1013.44
41630,1.43767,10.9263,-1.05592,-5.213,-29.294,-20.363,7.33384,-53.8004,22.5612,1013.44
41636,0.605531,10.1229,-1.31417,-14.663,-22.994,-19.593,7.97309,-53.2144,21.4973,1013.48
41642,-0.102264,9.7594,0.0870736,-10.743,-25.864,-20.293,7.10139,-54.7564,20.7733,1013.48
41648,0.825522,11.4954,-0.79767,-15.503,-43.224,-23.513,7.39195,-53.5845,20.9211,1013.46
41654,1.2129,9.72592,-0.93636,-24.533,-34.054,-23.933,8.96102,-53.4303,20.3005,1013.46
41660,0.949864,9.86461,-0.448555,-25.373,-26.564,-25.683,8.78668,-54.1705,20.2561,1013.46
41666,0.0938144,9.95548,-0.075528,-26.283,-24.394,-26.593,8.64139,-54.3555,21.0688,1013.48
41672,1.33724,9.812,0.144462,-23.903,-30.344,-30.723,8.32177,-54.4172,20.2857,1013.48
41678,3.13542,13.174,0.823563,-23.063,-33.004,-36.113,8.75762,-53.8312,19.8572,1013.47
41684,3.32193,11.505,0.225763,-54.143,-14.314,-45.493,8.84479,-54.6022,20.0197,1013.47
41690,1.06464,7.76514,0.445754,-51.063,0.106,-46.823,9.77461,-53.7079,19.34,1013.45
41696,-0.905707,8.62597,1.08181,-34.963,-0.944,-43.883,9.77461,-53.4303,19.6651,1013.45
41702,-0.824406,9.91243,0.823563,-36.503,-8.364,-42.273,9.22253,-54.3863,18.7637,1013.49
41708,-0.231389,9.19986,0.197069,-44.133,-8.784,-39.333,9.71649,-54.9106,18.5568,1013.49
41714,-0.523115,8.09034,0.632267,-42.243,-6.194,-37.583,11.024,-54.0471,19.0001,1013.49
41720,-1.35525,8.09034,1.41658,-36.013,-9.274,-34.083,10.2395,-55.6816,18.2613,1013.45
41726,-1.48438,8.06643,1.6557,-34.753,-12.494,-30.793,9.65838,-54.8489,18.6751,1013.45
41732,-1.11135,7.6934,1.57918,-31.323,-13.614,-26.103,10.9369,-54.263,18.1283,1013.49
41738,-0.743106,7.64558,1.26833,-30.133,-10.604,-22.673,11.2565,-54.6947,18.7194,1013.49
41744,-0.240954,8.52554,0.546184,-26.773,-11.654,-21.623,10.1233,-56.0517,17.8771,1013.49
41750,0.476406,9.44854,0.340541,-25.443,-13.054,-22.743,10.9369,-54.6639,18.0101,1013.49
41756,0.897258,10.0129,0.85704,-24.813,-12.494,-24.633,11.4599,-54.7873,17.9658,1013.5
41762,1.44723,9.81679,1.21572,-25.863,-8.434,-28.693,11.8086,-55.4349,17.1679,1013.5
41768,1.4568,9.88374,1.49788,-25.793,-3.744,-32.403,12.2735,-54.9415,16.9314,1013.51
41774,1.22246,9.87896,1.7657,-21.803,-0.244,-37.513,12.535,-54.8181,18.0249,1013.51
41780,1.32767,10.0081,2.16264,-20.333,0.666,-40.803,11.9539,-54.9723,16.695,1013.51
41786,1.68157,10.7494,2.5261,-12.493,2.346,-46.753,12.041,-55.4349,17.9806,1013.5
41792,1.85852,10.8976,2.23437,-10.883,6.126,-51.653,13.029,-54.0163,17.2861,1013.5
41798,1.49984,10.9837,1.64135,-6.123,9.416,-57.533,12.1863,-54.7873,18.0101,1013.45
41804,0.973776,10.8976,1.92352,-1.853,10.466,-63.133,12.1282,-55.3115,16.9462,1013.45
41810,1.03116,11.2467,2.59783,0.737,7.456,-68.523,13.1743,-54.2013,17.2565,1013.47
41816,1.40897,10.8785,3.10955,0.247,6.826,-72.443,13.8716,-54.3247,16.6064,1013.47
41822,1.7007,10.9933,2.58827,8.787,9.976,-79.933,13.581,-55.6508,17.6555,1013.51
41828,2.00677,11.9689,2.66001,12.987,10.256,-84.483,14.4818,-55.3115,18.0544,1013.51
41834,2.19329,12.6814,2.26307,14.457,11.516,-96.033,16.7773,-53.9238,18.6455,1013.51
41840,2.76239,13.0066,1.14398,16.137,9.556,-103.663,15.2954,-55.3115,17.1826,1013.46
41846,2.85804,13.3414,1.71309,18.307,10.466,-118.993,15.9346,-54.2013,17.5373,1013.46
41852,3.10194,13.1979,1.63657,19.007,10.746,-129.003,17.0097,-53.5228,18.5864,1013.48
41858,2.52327,12.6719,2.27741,22.717,14.456,-143.423,17.9686,-53.4303,18.35,1013.48
41864,1.79635,12.4519,2.37784,27.267,13.896,-152.243,17.678,-53.7696,18.5864,1013.47
41870,1.51897,12.3419,2.47349,33.567,4.866,-164.353,19.5958,-51.9192,19.7537,1013.47
41876,2.26024,12.5236,2.50697,40.077,1.296,-177.443,20.3222,-51.9192,19.5469,1013.47
41882,2.76239,13.5375,2.22959,48.057,-0.314,-186.333,20.3222,-53.307,19.1479,1013.47
41888,3.0589,14.8048,2.59305,53.517,-6.614,-205.303,21.6879,-51.7958,19.3991,1013.47
41894,3.86235,15.6561,1.91395,55.617,-10.044,-220.493,22.9083,-49.637,20.463,1013.47
41900,4.23537,16.6843,0.95747,60.727,-6.754,-244.993,24.0705,-50.994,18.3204,1013.47
41906,4.96708,17.9708,0.727915,64.647,-11.234,-260.183,24.5064,-50.2847,20.3596,1013.45
41912,7.13351,20.9502,0.235328,66.047,-13.824,-293.363,26.5694,-47.91,20.4039,1013.45
41918,8.14738,23.2697,-1.06548,61.567,-9.624,-318.563,27.6736,-47.8175,20.6551,1013.49
41924,8.67822,23.0784,-3.13626,46.377,-4.094,-359.793,29.5042,-47.4782,21.6894,1013.49
41930,7.75522,23.7192,-2.48108,49.527,3.676,-382.193,30.7827,-45.0111,21.586,1013.48
41936,8.22868,23.5375,-0.352907,47.077,-4.864,-425.243,32.6713,-44.055,21.8963,1013.48
41942,8.4678,22.954,0.369235,51.837,-3.114,-452.263,34.1823,-42.3897,22.2066,1013.44
41948,7.88913,24.4414,-0.252477,66.817,11.096,-493.213,35.5189,-41.0327,22.8863,1013.44
41954,9.01777,28.7934,2.9326,60.237,-5.284,-523.943,38.3955,-37.702,23.8468,1013.44
41960,6.36354,21.3424,1.48832,50.577,14.316,-536.403,39.9646,-36.2834,22.5465,1013.47
41966,3.03977,20.9789,4.43906,104.757,13.406,-542.493,40.7491,-34.433,23.965,1013.47
41972,7.07612,26.9473,0.766174,109.867,-48.474,-570.773,42.5797,-30.6089,24.0093,1013.46
41978,5.48836,28.009,3.29128,103.777,-31.044,-567.203,44.4393,-28.2342,23.7138,1013.46
41984,2.31285,35.2831,4.85034,144.937,-37.064,-556.563,45.1948,-25.8287,24.8811,1013.46
41990,7.62131,40.7302,-2.26108,137.027,-41.264,-562.863,46.1827,-22.3747,24.689,1013.46
41996,10.8925,31.0698,-0.525074,78.297,-29.014,-550.053,46.5024,-18.273,24.7186,1013.41
42002,10.1942,23.2075,-3.50451,68.777,-23.904,-517.923,48.7107,-17.4095,24.497,1013.41
42008,13.1115,17.6408,-3.81058,39.377,-61.704,-481.733,48.7397,-15.0657,25.0141,1013.41
42014,17.9465,9.66375,-17.5648,-9.133,-103.634,-469.413,48.5363,-10.9948,23.7286,1013.44
42020,0.155986,2.18886,-12.1033,6.967,70.666,-402.143,49.2337,-10.8715,24.4231,1013.44
42026,-24.8034,16.4356,4.90295,20.687,81.446,-171.913,49.2046,-9.39116,25.7677,1013.44
42032,-13.4308,15.3309,6.52418,19.217,-119.664,-60.473,48.6816,-7.0165,25.1767,1013.44
42038,9.61079,14.317,-6.3596,0.457,-97.474,67.277,49.3499,-8.03421,24.2014,1013.44
42044,11.6194,10.4289,-4.0784,-5.773,-28.804,127.687,49.9892,-9.85376,24.8664,1013.44
42050,12.222,9.95069,-1.80676,-6.893,-23.974,174.517,49.0884,-8.37345,23.7581,1013.42
42056,14.8427,8.58293,-3.10757,-15.293,-18.304,184.597,49.0884,-9.97712,23.2114,1013.42
42062,15.6366,6.32563,-3.44234,-14.243,21.526,181.097,49.0594,-11.7658,24.5561,1013.45
42068,13.6328,5.95261,-2.46673,-16.413,46.376,173.537,49.0594,-12.7219,22.9454,1013.45
42074,10.3234,4.05878,-1.41938,-23.273,61.496,164.087,48.0424,-11.9817,24.364,1013.45
42080,8.89343,2.65753,-1.45764,-24.043,64.856,161.217,48.4201,-14.3564,25.4426,1013.42
42086,7.12873,1.65323,-1.52938,-22.503,70.176,163.457,48.2748,-15.6825,24.8664,1013.42
42092,5.83748,1.53367,-1.42416,-22.153,72.556,169.057,46.9382,-15.3432,24.9402,1013.38
42098,3.91973,1.83496,-1.23765,-21.173,70.806,182.287,47.345,-17.0394,25.1767,1013.38
42104,3.69496,2.86796,-1.42416,-21.523,65.766,193.977,47.3741,-19.044,26.4622,1013.41
42110,2.56153,3.33663,-1.27591,-23.273,64.156,213.997,46.3571,-17.4712,25.7382,1013.41
42116,1.69592,3.88661,-1.02244,-23.973,55.966,228.907,46.3571,-18.3655,26.8169,1013.43
42122,1.39463,4.19747,-1.07027,-26.493,46.376,252.987,45.7759,-21.5112,26.7577,1013.43
42128,0.839869,4.34572,-0.792888,-26.773,41.476,269.577,45.7469,-21.8504,27.7625,1013.43
42134,0.0842496,4.64223,-0.11857,-25.303,29.156,294.637,44.8752,-22.8373,27.0385,1013.4
42140,-0.0879168,4.69962,0.307064,-22.783,19.846,311.087,44.1488,-25.212,27.1419,1013.4
42146,-0.0687872,4.7044,0.73748,-17.813,7.176,335.167,43.8873,-26.8773,26.078,1013.4
42152,0.175115,4.69962,1.1392,-13.613,-0.944,350.007,42.1148,-27.5558,25.9894,1013.4
42158,0.66292,5.06308,1.47397,-7.173,-12.564,369.817,41.3012,-29.3136,26.9646,1013.38
42164,1.11725,5.7087,1.31137,-5.073,-20.474,385.987,40.3133,-32.0275,26.2997,1013.38
42170,1.66244,6.35433,1.73222,-4.233,-22.924,394.597,40.3133,-31.8425,25.9598,1013.42
42176,2.04982,7.2582,2.10046,-2.203,-25.864,404.327,39.3835,-32.9836,27.1272,1013.42
42182,2.53284,8.16208,2.20568,-2.903,-27.124,408.947,38.4246,-37.1161,26.2849,1013.38
42188,3.13542,9.43898,2.2822,-6.613,-24.464,413.217,36.594,-37.332,25.487,1013.38
42194,3.1402,10.3333,2.29654,-10.043,-21.244,415.037,35.2283,-38.6272,25.8121,1013.38
42200,2.99673,11.6198,2.19133,-17.953,-17.044,416.927,33.8627,-40.6935,24.6595,1013.39
42206,2.7337,12.3562,2.08133,-23.553,-13.964,417.837,32.6132,-42.0813,25.221,1013.39
42212,2.03069,13.3462,2.16742,-31.743,-12.354,419.027,31.7125,-42.2046,25.4279,1013.39
42218,1.49506,13.8483,2.30132,-35.733,-12.424,420.007,29.0974,-44.0859,25.8712,1013.39
42224,0.591184,14.4461,2.6074,-39.723,-12.704,422.947,27.1796,-45.8437,25.6791,1013.39
42230,-0.43225,15.1587,2.56914,-38.673,-17.114,426.027,24.8841,-47.139,24.3049,1013.39
42236,-0.853101,15.5604,2.84174,-37.623,-25.514,432.467,24.1287,-46.6456,24.7482,1013.42
42242,-0.929619,15.8761,2.94695,-33.913,-31.534,437.297,21.8041,-48.4343,23.6104,1013.42
42248,-0.709629,16.7513,2.73174,-28.523,-40.774,444.087,20.3222,-47.91,24.689,1013.42
42254,-0.441814,17.4925,2.54044,-24.673,-45.884,447.867,18.4916,-48.4034,24.6004,1013.43
42260,-0.408338,19.152,2.5261,-18.443,-56.804,451.367,15.4988,-49.9763,24.7629,1013.43
42266,0.481189,20.735,1.69874,-12.353,-55.334,452.767,13.4939,-50.2538,23.566,1013.44
42272,-0.0257456,23.351,1.25398,-3.323,-54.564,455.567,11.8086,-49.7604,24.0093,1013.44
42278,-0.250518,25.2113,0.85704,1.017,-53.024,459.347,9.65838,-50.0071,23.6251,1013.46
42284,-0.757453,27.7125,0.407494,5.427,-47.494,468.517,7.04327,-49.7912,22.9307,1013.46
42290,-1.22613,29.0612,0.187504,7.107,-41.754,475.727,6.46214,-49.4828,23.1966,1013.44
42296,-2.42651,30.9837,-0.372037,7.527,-28.314,486.437,5.03836,-50.0379,23.1227,1013.44
42302,-3.74167,32.1171,-0.520291,5.917,-15.784,492.457,1.66777,-50.8089,23.1227,1013.44
42308,-5.96549,33.5614,-0.984184,5.007,-5.284,491.547,-0.802056,-49.8837,22.9159,1013.42
42314,-9.38012,34.8526,-1.28069,2.417,12.076,481.397,-1.49942,-48.866,22.2214,1013.42
42320,-12.1109,35.1109,-1.2233,0.597,23.906,468.097,-4.98623,-48.681,24.4822,1013.45
42326,-15.7025,34.1592,-1.62024,-2.343,39.446,437.017,-8.24059,-49.1744,22.0441,1013.45
42332,-17.4576,33.1788,-3.20322,-8.433,49.246,408.177,-8.03719,-46.7381,23.7138,1013.46
42338,-19.3801,32.7627,-9.65468,-34.123,65.066,350.847,-10.3036,-47.0773,21.7633,1013.46
42344,-23.1391,32.2462,-14.3797,-62.613,78.996,307.517,-13.2384,-47.0157,20.9211,1013.47
42350,-32.4552,24.4175,-11.4146,-104.263,94.536,243.257,-13.3836,-46.183,20.5073,1013.47
42356,-38.4619,15.6896,-6.81871,-109.793,92.576,203.917,-13.6451,-45.5662,20.6551,1013.48
42362,-47.4911,3.08795,-0.128134,-65.763,70.456,154.567,-15.9406,-45.9979,20.0345,1013.48
42368,-51.8717,-0.828837,2.38263,-11.443,41.686,129.437,-16.2312,-45.7204,19.739,1013.48
42374,-51.25,2.36102,2.22959,75.357,-45.394,94.367,-14.6621,-44.7952,19.7981,1013.47
42380,-44.459,9.38159,-1.22809,118.267,-85.644,59.087,-16.6089,-44.8569,20.5369,1013.47
42386,-36.4772,18.8794,-4.22187,119.457,-71.504,-7.133,-16.3474,-43.9008,22.31,1013.48
42392,-32.8474,20.7254,-4.70967,99.367,-51.064,-53.753,-14.3716,-43.5924,21.6008,1013.48
42398,-27.9741,20.7111,-4.16448,79.837,-39.234,-112.693,-14.4297,-43.9625,22.0441,1013.47
42404,-23.0147,20.6011,-2.90671,67.727,-32.164,-141.323,-15.127,-43.685,24.0093,1013.47
42410,16.8131,68.6786,1.90917,441.317,-659.924,-445.473,-10.2746,-43.7158,22.9011,1013.49
42416,22.9776,58.6451,-44.1406,-284.653,-184.764,-330.183,-8.03719,-45.6587,25.088,1013.49
42422,40.0795,-21.9097,-22.1415,-518.313,115.956,-333.333,-8.76361,-47.4782,21.852,1013.49
42428,27.8891,-34.4204,6.58157,-265.963,291.936,-339.703,-6.90398,-48.095,19.7833,1013.39
42434,12.5137,-19.6285,17.4759,216.057,320.286,-357.413,-5.13152,-48.0025,22.0736,1013.39
42440,3.77148,4.05399,6.80635,241.117,340.166,-393.533,-5.9451,-47.8175,22.5612,1013.47
42446,-1.82871,22.7245,-1.98849,120.227,342.056,-401.863,-5.71265,-47.5708,21.9702,1013.47
42452,-11.5848,16.0004,2.07655,1.367,363.406,-391.433,-3.21377,-48.095,22.1918,1013.43
42458,-23.7225,15.4983,16.4142,6.687,298.936,-396.263,-3.50434,-49.3286,21.586,1013.43
42464,-34.5451,32.5619,13.913,19.427,49.596,-376.943,-1.73187,-49.1128,23.4331,1013.49
42470,-23.7082,32.8919,0.694438,-26.843,-131.074,-344.393,1.1738,-48.9586,21.985,1013.49
42476,0.595966,15.7422,2.97564,-80.183,-174.404,-347.823,2.91721,-49.4212,22.5169,1013.49
42482,5.16794,9.19507,7.12677,-58.413,-115.184,-349.433,3.64363,-49.8837,21.7338,1013.49
42488,-6.7498,26.5982,-17.1104,116.307,65.556,-334.943,5.91006,-50.0379,22.6056,1013.49
42494,-10.4753,41.4237,-28.7747,122.117,149.696,-128.863,6.9561,-48.5576,23.8172,1013.46
42500,-20.8722,34.2931,-1.61068,-79.273,190.786,-86.163,5.27081,-49.4828,22.5612,1013.46
42506,-15.0138,3.78618,17.7676,-141.013,53.866,-85.813,5.41609,-49.9763,22.709,1013.44
42512,-4.00948,-2.23964,13.2722,25.727,-35.524,-54.313,7.68252,-48.8969,22.9307,1013.44
42518,-3.29691,9.61114,5.06555,54.987,-47.844,-43.603,6.83987,-49.4212,23.3296,1013.49
42524,-0.212259,12.1123,0.464883,17.117,-29.924,-33.383,6.37497,-49.5445,23.1375,1013.49
42530,0.911605,9.33855,0.694438,17.117,-4.654,-27.923,7.42101,-49.2053,22.5021,1013.44
42536,-1.30265,10.0272,1.61266,18.377,-5.284,-24.283,7.88592,-48.9894,23.3739,1013.44
42542,-0.704846,10.802,-1.47677,13.267,-16.484,-20.713,7.33384,-49.3903,23.0193,1013.44
42548,1.30376,11.1319,-1.69198,3.957,-8.574,-18.613,7.27573,-48.8044,22.0441,1013.46
42554,1.20811,10.5007,0.249675,-2.133,-1.994,-19.453,8.17649,-49.6062,22.6647,1013.46
42560,0.481189,9.82157,0.713568,-0.033,-5.284,-20.433,6.7527,-49.7604,21.453,1013.47
42566,0.787262,10.9263,0.13968,-0.313,-6.614,-20.713,7.13044,-49.7295,22.4578,1013.47
42572,1.35637,10.3572,-0.156829,-4.723,-3.254,-21.623,8.00214,-48.6502,22.1032,1013.47
42578,1.1842,9.99374,0.0583792,-4.093,2.486,-22.463,7.65346,-49.8529,22.5317,1013.47
42584,0.366411,10.1707,0.460101,-4.723,4.796,-21.063,7.07233,-49.8221,22.4135,1013.48
42590,0.103379,10.4337,-0.0659632,-9.203,1.226,-19.733,8.29271,-48.6193,22.5465,1013.48
42596,0.56249,10.7446,-0.548986,-13.543,-3.044,-19.173,9.13536,-48.9894,22.443,1013.48
42602,1.18898,10.3046,-0.19987,-18.723,-1.434,-19.523,7.94403,-50.0996,22.2066,1013.47
42608,0.66292,9.68766,0.794869,-19.003,0.316,-19.593,8.87385,-49.1436,23.2705,1013.47
42614,0.179898,9.50593,1.3018,-14.943,-1.784,-17.213,9.65838,-49.2978,22.9454,1013.44
42620,-0.0687872,9.45332,1.36397,-11.233,-7.314,-16.583,8.52517,-49.8221,22.709,1013.44
42626,0.146421,9.63027,1.01008,-5.563,-14.594,-15.463,8.84479,-49.452,21.5565,1013.48
42632,0.179898,9.5968,0.933558,-3.393,-17.954,-14.623,9.25159,-49.6987,20.6846,1013.48
42638,0.294675,9.58245,0.751827,0.737,-22.224,-14.273,9.25159,-49.8221,22.6056,1013.46
42644,0.256416,9.51071,0.541402,2.277,-24.604,-13.993,8.40894,-50.2538,22.443,1013.46
42650,-0.389208,9.34811,0.613138,6.827,-30.484,-13.223,9.60027,-49.2978,21.8668,1013.48
42656,0.342499,10.5772,0.35967,8.717,-38.604,-12.523,10.2976,-49.1744,22.3987,1013.48
42662,1.98286,10.8307,-0.735499,3.397,-40.354,-17.563,9.25159,-50.2847,22.5021,1013.48
42668,1.3468,10.4959,-1.01288,-0.243,-33.144,-19.033,9.48404,-49.0511,22.6647,1013.45
42674,0.715526,10.6537,-0.740282,-3.253,-36.784,-19.803,10.9659,-48.4651,22.6351,1013.45
42680,0.710744,10.2663,-0.525074,-8.083,-36.574,-20.713,10.6173,-50.1921,22.5021,1013.45
42686,0.777698,10.692,-0.505944,-9.063,-39.794,-23.233,9.97801,-49.2361,22.8568,1013.45
42692,0.514666,9.86939,-0.568115,-17.533,-33.704,-24.213,10.9369,-48.5885,20.6551,1013.47
42698,1.05986,10.5724,-0.075528,-18.023,-32.654,-27.853,10.7335,-49.8837,20.5221,1013.47
42704,0.725091,9.88374,-0.764194,-26.213,-29.434,-30.933,10.5301,-50.0688,21.0984,1013.47
42710,2.00677,11.6389,0.412277,-24.183,-29.994,-35.903,11.6924,-49.9763,20.6846,1013.47
42716,3.13542,13.5901,0.570096,-38.813,-29.294,-44.303,11.8958,-50.5931,21.3939,1013.47
42722,1.5381,9.03725,-0.0850928,-59.743,-6.824,-46.333,11.1693,-50.8706,21.4382,1013.48
42728,-1.03483,7.36341,1.08181,-45.253,-2.134,-44.723,11.7795,-50.3463,21.719,1013.48
42734,-1.37916,9.0516,1.60309,-41.193,-11.444,-42.553,12.8256,-49.5753,19.6355,1013.47
42740,-0.140523,9.32898,1.56005,-43.223,-21.314,-40.383,11.6924,-50.5622,20.9802,1013.47
42746,0.438147,8.60684,1.48832,-43.783,-16.694,-39.543,12.1573,-50.4697,20.2118,1013.47
42752,-0.39399,8.1286,1.85656,-36.223,-10.954,-38.213,12.8837,-50.408,20.9654,1013.47
42758,-0.566157,8.34381,2.11959,-30.553,-13.474,-37.513,13.3195,-50.4389,19.606,1013.46
42764,0.395106,9.20942,1.32572,-26.073,-13.754,-38.143,12.7093,-51.179,18.5864,1013.46
42770,0.615096,9.46767,0.919211,-25.023,-8.714,-38.213,13.7263,-49.3286,19.5321,1013.49
42776,0.0603376,9.35768,0.909646,-26.003,-3.534,-39.963,14.8305,-50.3772,19.1183,1013.49
42782,0.127291,9.50115,0.971818,-23.903,-3.394,-39.753,13.3776,-50.9015,19.1036,1013.49
42788,-0.202694,9.72114,1.36397,-25.023,-5.424,-41.503,13.7844,-50.8398,19.0001,1013.49
42794,0.251634,9.72592,0.952688,-24.533,-4.374,-41.713,15.2082,-51.0557,18.2465,1013.49
