Timestamp,AccX,AccY,AccZ,AngularVelX,AngularVelY,AngularVelZ,MagX,MagY,MagZ,AirPressure
80972,2.3272,9.4055,1.02921,2.487,-3.744,-4.123,19.189,-50.3155,-21.369,1013.37
80978,2.32241,9.42463,1.03399,2.557,-3.884,-3.983,19.0728,-48.7118,-23.4377,1013.36
80984,2.34632,9.43419,0.9766,2.417,-4.024,-3.913,19.1309,-50.3463,-22.4181,1013.36
80990,2.32241,9.42463,0.9766,2.487,-3.814,-3.773,18.8403,-51.0557,-21.9157,1013.36
80996,2.30328,9.41985,0.990947,2.557,-4.024,-3.773,19.1018,-49.5753,-21.8862,1013.36
81002,2.34154,9.40072,1.01486,2.557,-3.954,-3.703,18.7822,-49.9454,-21.7089,1013.33
81008,2.33198,9.42463,1.00529,2.767,-3.954,-3.563,19.1599,-51.3024,-21.4872,1013.33
81014,2.34154,9.40072,0.990947,2.837,-4.024,-3.423,19.189,-50.1305,-22.359,1013.32
81020,2.36067,9.41985,0.947906,2.767,-3.744,-3.423,18.8403,-48.7118,-22.8023,1013.32
81026,2.3798,9.41028,0.990947,2.837,-3.604,-3.423,19.0147,-50.4697,-21.2803,1013.3
81032,2.36545,9.41506,0.990947,2.907,-3.674,-3.633,18.695,-50.5005,-23.0978,1013.3
81038,2.37502,9.44376,0.971818,2.977,-3.534,-3.633,19.3343,-49.2978,-22.5068,1013.3
81044,2.40371,9.4055,0.962253,2.837,-3.254,-3.773,18.9856,-50.0688,-24.1174,1013.32
81050,2.3798,9.43419,0.981382,2.907,-3.184,-3.913,18.666,-50.4389,-22.2704,1013.32
81056,2.37024,9.48202,0.967035,2.697,-3.254,-3.913,18.9856,-48.8352,-22.891,1013.35
81062,2.35589,9.44854,0.95747,2.767,-3.184,-3.983,18.8113,-48.8969,-22.359,1013.35
81068,2.32241,9.41985,1.00529,2.767,-3.184,-3.913,18.4916,-49.8529,-22.2704,1013.37
81074,2.31763,9.43898,0.99573,2.837,-3.394,-3.773,19.7701,-49.7295,-22.3295,1013.37
81080,2.30328,9.44376,0.986165,2.767,-3.464,-3.773,19.1018,-48.5576,-22.5216,1013.34
81086,2.28894,9.42941,0.990947,2.697,-3.324,-3.703,18.6079,-49.7912,-23.0092,1013.34
81092,2.27937,9.4055,1.01964,2.907,-3.534,-3.423,19.5377,-49.8837,-22.7875,1013.34
81098,2.32241,9.40072,1.00051,2.977,-3.674,-3.353,19.712,-48.8044,-23.0387,1013.35
81104,2.32241,9.42463,0.99573,2.977,-3.674,-3.143,18.8984,-49.9763,-22.7137,1013.35
81110,2.30328,9.45811,0.981382,3.047,-3.534,-3.143,19.0147,-50.7781,-23.7628,1013.36
81116,2.3272,9.44376,0.9766,2.837,-3.674,-3.073,19.1309,-48.866,-22.6989,1013.36
81122,2.35111,9.44376,0.967035,3.047,-3.604,-3.073,19.5667,-49.7912,-23.1274,1013.32
81128,2.41328,9.44376,0.967035,2.977,-3.604,-3.143,19.3633,-50.7164,-22.2408,1013.32
81134,2.43241,9.46767,0.923994,3.047,-3.254,-3.283,19.0437,-49.7295,-22.1669,1013.34
81140,2.40371,9.46767,0.923994,2.907,-3.114,-3.423,19.5086,-49.2053,-24.3243,1013.34
81146,2.40371,9.45811,0.971818,2.837,-3.184,-3.633,19.0728,-50.8398,-21.768,1013.35
81152,2.41328,9.47245,0.943123,2.907,-3.114,-3.773,18.695,-49.6987,-21.5759,1013.35
81158,2.38937,9.47245,0.967035,2.697,-2.764,-3.913,19.3052,-49.1128,-21.9009,1013.35
81164,2.33676,9.47245,0.986165,2.697,-2.694,-3.983,18.7241,-49.5445,-22.1965,1013.36
81170,2.26502,9.44376,1.01486,2.627,-2.974,-3.843,19.0728,-50.223,-21.8123,1013.36
81176,2.30807,9.42463,1.01008,2.697,-3.254,-3.773,19.3924,-49.5753,-22.4181,1013.36
81182,2.2985,9.41985,1.01008,2.837,-3.254,-3.773,18.9275,-49.5137,-22.6841,1013.36
81188,2.31285,9.41028,1.01486,2.767,-3.254,-3.563,19.2762,-50.9015,-22.2704,1013.32
81194,2.29372,9.42463,1.01008,2.977,-3.464,-3.493,18.4626,-49.5445,-22.4181,1013.32
81200,2.2985,9.42463,1.00529,3.047,-3.534,-3.423,19.5377,-49.5445,-22.1817,1013.36
81206,2.30328,9.41985,1.01964,3.047,-3.604,-3.353,18.8403,-49.9763,-23.0978,1013.36
81212,2.29372,9.41506,1.01964,3.187,-3.604,-3.143,19.3052,-50.0996,-22.5807,1013.36
81218,2.30807,9.45811,1.01008,3.187,-3.674,-3.143,19.3633,-48.9277,-22.8762,1013.35
81224,2.3272,9.43419,0.967035,3.257,-3.674,-3.003,19.2471,-49.2978,-22.226,1013.35
81230,2.35111,9.44376,1.00051,3.187,-3.604,-3.143,19.189,-50.3155,-21.6941,1013.37
81236,2.39415,9.42463,0.938341,3.187,-3.604,-3.213,19.2181,-50.1921,-23.2013,1013.37
81242,2.38458,9.44854,0.967035,2.977,-3.394,-3.353,18.6079,-50.0996,-23.7923,1013.36
81248,2.39893,9.42463,0.99573,2.907,-3.184,-3.493,19.3343,-50.408,-22.3442,1013.36
81254,2.37024,9.41985,1.01486,3.047,-3.184,-3.633,19.5377,-49.637,-22.7432,1013.32
81260,2.37502,9.43419,1.00051,3.117,-3.114,-3.703,19.4505,-48.7118,-23.3343,1013.32
81266,2.35111,9.43419,1.00051,3.187,-3.114,-3.703,19.189,-50.2538,-22.9205,1013.32
81272,2.34154,9.42941,0.99573,3.117,-2.974,-3.773,19.0147,-50.5314,-22.8762,1013.33
81278,2.3272,9.41985,1.01486,3.257,-2.974,-3.703,19.6539,-49.1744,-23.2308,1013.33
81284,2.27459,9.42463,1.07225,3.327,-3.114,-3.703,18.8113,-49.6987,-22.7137,1013.36
81290,2.28894,9.36246,1.03399,3.537,-3.114,-3.563,19.5086,-50.4697,-21.9748,1013.36
81296,2.23633,9.35768,1.11529,3.887,-3.044,-3.143,18.7822,-49.6062,-23.0978,1013.36
81302,2.20764,9.32898,1.10094,4.307,-3.464,-2.933,18.8403,-48.8969,-23.024,1013.36
81308,2.24111,9.36246,1.10572,4.727,-3.534,-2.653,18.8694,-49.8529,-21.5906,1013.34
81314,2.28415,9.36246,1.04355,4.937,-3.534,-2.443,19.712,-49.2669,-22.6989,1013.34
81320,2.27937,9.41028,1.03877,5.357,-3.604,-2.163,19.3052,-49.5137,-22.4181,1013.34
81326,2.29372,9.43419,0.971818,5.287,-3.604,-2.023,19.4796,-49.6679,-21.7089,1013.34
81332,2.35589,9.48202,0.947906,5.007,-3.674,-1.883,19.5377,-50.4697,-21.1326,1013.34
81338,2.33676,9.4868,0.933558,4.867,-3.534,-2.023,19.1309,-48.8044,-23.7776,1013.37
81344,2.34632,9.49637,0.885734,4.727,-3.674,-2.023,19.3052,-50.5314,-22.5659,1013.37
81350,2.37502,9.49158,0.880952,4.097,-3.534,-2.163,18.3464,-50.7781,-20.6745,1013.38
81356,2.37024,9.46767,0.952688,3.887,-3.604,-2.093,19.5377,-49.1744,-22.8614,1013.38
81362,2.37024,9.42941,0.947906,4.027,-3.604,-2.163,18.7532,-49.6062,-22.2704,1013.38
81368,2.34632,9.43898,0.981382,3.817,-3.464,-2.233,18.9856,-49.9146,-21.4577,1013.38
81374,2.33198,9.39594,0.95747,3.887,-3.184,-2.093,19.5086,-49.7912,-21.7089,1013.38
81380,2.25546,9.37681,1.06747,3.887,-3.184,-1.953,19.1018,-49.1128,-23.6446,1013.38
81386,2.26024,9.2429,1.25398,4.517,-3.324,-1.533,19.2181,-49.8529,-22.4181,1013.38
81392,2.26024,9.2429,1.26833,5.567,-3.254,-1.253,19.3924,-50.0996,-21.2951,1013.38
81398,2.26981,9.35289,1.11051,6.617,-3.394,-0.833,19.712,-49.2978,-23.3934,1013.38
81404,2.30807,9.37202,1.02442,6.757,-3.254,-0.693,18.7822,-49.8529,-20.8518,1013.33
81410,2.34632,9.43419,1.00051,6.967,-2.974,-0.553,18.8984,-50.9015,-22.0487,1013.33
81416,2.36067,9.41985,1.01486,7.107,-3.114,-0.553,19.8283,-48.8352,-22.3886,1013.34
81422,2.39893,9.45332,0.828346,7.387,-3.044,-0.483,20.0026,-49.5753,-23.6002,1013.34
81428,2.3272,9.55375,0.885734,6.827,-2.694,-0.343,19.189,-51.0865,-22.2704,1013.38
81434,2.30328,9.43419,0.866605,6.127,-3.184,-0.133,19.3633,-50.8089,-21.8566,1013.38
81440,2.31285,9.39115,0.986165,6.197,-3.254,0.007,19.4215,-49.2669,-25.7576,1013.38
81446,2.33676,9.45811,0.95747,6.477,-3.324,0.357,19.0437,-51.4257,-22.1078,1013.36
81452,2.31285,9.50593,0.900082,6.267,-3.464,0.357,19.5086,-50.2538,-21.4577,1013.36
81458,2.31285,9.52028,0.85704,5.567,-3.604,0.707,19.5086,-49.6987,-23.8662,1013.34
81464,2.28415,9.47724,0.95747,5.357,-4.094,0.917,19.2181,-50.0688,-22.9648,1013.34
81470,2.31763,9.4868,0.919211,5.147,-4.514,1.127,19.3052,-51.7958,-22.891,1013.33
81476,2.38458,9.51071,0.823563,4.797,-4.724,1.127,18.7822,-50.1921,-22.6102,1013.33
81482,2.39415,9.47245,0.85704,4.517,-4.654,1.267,19.189,-50.1613,-23.3195,1013.36
81488,2.3798,9.44854,0.87617,4.307,-4.514,1.337,19.1018,-50.6547,-23.5411,1013.36
81494,2.3798,9.45332,0.904864,4.167,-4.514,1.547,19.3343,-50.5622,-21.8714,1013.36
81500,2.39893,9.48202,0.852258,4.027,-4.654,1.547,19.3633,-48.681,-22.8466,1013.36
81506,2.44197,9.4868,0.866605,3.747,-4.724,1.547,18.143,-50.3155,-23.7037,1013.36
81512,2.46588,9.45811,0.871387,3.607,-4.864,1.477,18.9856,-50.1305,-20.8814,1013.37
81518,2.47067,9.46289,0.880952,3.467,-4.724,1.337,18.9856,-49.5445,-23.0535,1013.37
81524,2.4898,9.46289,0.904864,3.397,-4.444,1.267,18.8113,-50.7781,-22.2851,1013.36
81530,2.49458,9.44376,0.909646,3.397,-4.374,1.127,18.4626,-50.994,-21.7532,1013.36
81536,2.52327,9.44854,0.928776,3.467,-4.444,0.847,18.8694,-49.3595,-22.8319,1013.37
81542,2.56153,9.47724,0.933558,3.607,-4.444,0.777,17.9686,-48.6502,-23.6002,1013.37
81548,2.55675,9.49158,0.900082,3.537,-4.444,0.567,18.172,-50.9015,-21.6497,1013.37
81554,2.59979,9.49637,0.818781,3.467,-4.444,0.287,18.9565,-50.7164,-22.4181,1013.37
81560,2.61892,9.52028,0.794869,3.047,-4.094,-0.273,18.8984,-49.1436,-23.8958,1013.37
81566,2.60457,9.52028,0.828346,2.767,-3.884,-0.623,18.6079,-50.5314,-22.7875,1013.37
81572,2.56632,9.4868,0.871387,2.557,-4.024,-1.043,18.666,-50.994,-21.0291,1013.37
81578,2.56153,9.4868,0.885734,2.417,-4.024,-1.183,19.1309,-50.0071,-23.6593,1013.34
81584,2.55197,9.4868,0.842693,2.417,-4.164,-1.463,17.4456,-50.3463,-22.7432,1013.34
81590,2.53284,9.49158,0.852258,2.067,-4.094,-1.673,18.0267,-51.0865,-22.2408,1013.36
81596,2.52806,9.47724,0.904864,1.787,-4.164,-1.883,19.6539,-49.6062,-22.7284,1013.36
81602,2.53284,9.46767,0.890517,1.647,-4.234,-2.093,18.7822,-49.3286,-22.8023,1013.32
81608,2.53762,9.47245,0.87617,1.507,-4.164,-2.163,18.0848,-50.9323,-21.9305,1013.32
81614,2.49936,9.46289,0.866605,1.437,-4.304,-2.443,18.6369,-49.452,-22.3738,1013.39
81620,2.56153,9.4868,0.861822,1.227,-4.304,-2.653,19.3052,-49.5753,-23.024,1013.39
81626,2.55675,9.45332,0.85704,0.947,-4.234,-2.793,18.7532,-51.3949,-23.4525,1013.39
81632,2.56632,9.44376,0.87617,0.947,-4.164,-3.003,19.1599,-50.3155,-21.2065,1013.35
81638,2.52327,9.44854,0.83791,0.947,-4.304,-3.143,18.4916,-50.1305,-22.5068,1013.35
81644,2.60936,9.52028,0.794869,0.597,-3.814,-3.353,18.3754,-49.5137,-24.0731,1013.34
81650,2.56632,9.43898,0.85704,-0.033,-3.184,-3.563,18.9856,-50.994,-21.8862,1013.34
81656,2.51371,9.41985,0.943123,0.107,-3.114,-3.633,18.4045,-49.637,-21.6497,1013.36
81662,2.52327,9.42463,0.971818,0.107,-3.184,-3.843,18.4626,-49.8221,-23.1126,1013.36
81668,2.51849,9.40072,0.952688,0.387,-3.184,-3.773,18.4335,-50.6856,-20.9109,1013.35
81674,2.55197,9.43898,0.928776,0.317,-2.974,-3.913,18.6369,-50.0996,-22.5068,1013.35
81680,2.54719,9.46289,0.904864,0.177,-2.764,-3.983,18.8694,-49.452,-23.6889,1013.35
81686,2.53284,9.44854,0.900082,0.107,-2.554,-3.983,17.7652,-50.5931,-22.1521,1013.33
81692,2.50893,9.41985,0.938341,-0.033,-2.344,-4.053,18.7822,-50.5005,-22.1226,1013.33
81698,2.48501,9.41506,1.00529,0.107,-2.274,-4.053,19.3343,-49.6062,-22.0044,1013.36
81704,2.49458,9.42941,1.01486,0.247,-2.204,-3.983,18.3173,-49.8221,-22.1669,1013.36
81710,2.51849,9.43419,0.967035,0.737,-2.484,-4.053,18.5207,-50.3155,-21.9305,1013.36
81716,2.53284,9.4868,0.919211,0.737,-2.484,-4.193,18.143,-49.5137,-23.748,1013.36
81722,2.5711,9.52028,0.885734,0.457,-2.414,-4.473,18.9856,-49.9763,-22.9796,1013.35
81728,2.53284,9.52028,0.928776,0.457,-2.414,-4.613,17.8233,-50.9631,-21.8271,1013.35
81734,2.5711,9.50593,0.990947,0.387,-2.554,-4.753,18.1139,-49.452,-23.3195,1013.35
81740,2.60936,9.5155,0.952688,0.667,-3.044,-5.243,18.4045,-48.9277,-24.0731,1013.36
81746,2.64762,9.54419,0.933558,0.667,-3.534,-5.803,17.7362,-50.6856,-21.8714,1013.36
81752,2.93934,9.52984,0.85704,-0.173,-5.494,-7.973,18.8984,-50.0071,-22.891,1013.32
81758,3.14499,9.74027,0.464883,-0.313,-6.404,-9.863,19.0437,-48.9277,-23.615,1013.32
81764,3.25498,9.93156,0.402712,-2.483,-5.494,-12.453,18.3464,-49.2978,-22.1078,1013.35
81770,3.39367,9.82157,0.369235,-3.743,-5.704,-14.763,18.3464,-50.5005,-20.7779,1013.35
81776,3.34106,9.97461,0.307064,-4.373,-3.744,-17.633,19.2762,-49.2978,-22.9353,1013.35
81782,3.44628,9.96504,0.35967,-6.473,-4.584,-20.223,19.3052,-49.4212,-23.0831,1013.35
81788,3.72844,10.3859,-0.0085744,-7.033,-5.214,-24.843,18.8403,-50.223,-22.0635,1013.35
81794,3.80017,11.1128,-0.57768,-9.693,-7.104,-28.343,19.2181,-48.3726,-22.2113,1013.35
81800,4.05364,10.8498,-0.410296,-17.953,-7.104,-33.663,18.8694,-48.8352,-23.0683,1013.35
81806,4.62275,11.4332,0.302282,-15.153,-9.624,-40.873,19.1599,-49.3595,-21.3838,1013.34
81812,4.84274,15.7183,-0.276389,-11.863,-32.234,-55.433,19.2762,-48.7118,-22.758,1013.34
81818,5.48836,16.7656,-3.61929,-35.243,-50.994,-63.483,20.0898,-47.8175,-23.1569,1013.32
81824,9.31428,11.1893,3.53518,-46.653,-31.044,-80.983,19.8283,-48.7735,-22.8171,1013.32
81830,10.9499,13.0114,5.91682,-17.743,-19.634,-103.173,20.1769,-48.7735,-22.0339,1013.38
81836,8.53475,15.7326,0.699221,-20.403,-6.264,-126.483,20.9324,-47.8175,-22.5659,1013.38
81842,6.88004,14.2405,1.20616,-34.753,-0.314,-129.143,21.3392,-47.1698,-23.8514,1013.36
81848,5.44054,10.3142,2.71739,-15.993,1.646,-144.683,22.1818,-47.2624,-24.8415,1013.36
81854,4.78535,12.1889,2.11003,5.287,-4.234,-158.053,23.1988,-47.324,-23.4377,1013.36
81860,5.63662,14.3935,-0.783323,2.207,-14.034,-174.013,24.0124,-46.3989,-23.5264,1013.34
81866,6.24876,14.1449,-2.38543,2.767,-9.274,-182.483,24.4483,-47.6016,-24.472,1013.34
81872,5.66053,15.5222,-0.926795,6.337,-7.174,-199.703,25.4362,-46.9848,-22.5511,1013.35
81878,5.24446,17.8321,-0.410296,8.367,-14.524,-206.003,26.337,-44.826,-24.6494,1013.35
81884,6.31093,17.6886,-1.64416,-6.893,-17.954,-214.403,27.1506,-45.3195,-22.6841,1013.32
81890,6.31093,15.4218,-1.24243,-13.823,-16.694,-227.843,28.4291,-45.3503,-22.6545,1013.32
81896,3.93408,13.0975,-1.6059,-7.733,-4.654,-232.253,29.0392,-43.7466,-23.5559,1013.34
81902,0.892475,12.7484,-1.45286,-0.943,-15.084,-234.073,29.6204,-43.3149,-23.216,1013.34
81908,1.09334,10.6489,-0.912448,-2.413,-38.814,-231.973,30.5211,-44.055,-23.4968,1013.34
81914,0.44293,10.5341,-5.94353,31.257,-32.654,-222.383,32.1774,-43.2224,-22.3442,1013.35
81920,-1.02048,18.669,-2.22761,44.487,-38.814,-207.893,32.4679,-41.372,-22.7728,1013.35
81926,8.2765,15.2448,-3.16018,-21.173,-98.034,-180.873,32.3808,-42.0505,-23.1422,1013.33
81932,14.2115,6.70344,-7.12479,-41.263,-76.404,-152.523,33.6012,-41.5879,-23.0535,1013.33
81938,14.5558,4.25007,-5.53225,-37.903,-30.484,-114.933,33.514,-40.7552,-23.3195,1013.33
81944,9.16603,7.51167,-2.00284,-36.153,-2.554,-97.993,34.1242,-41.3103,-24.6641,1013.33
81950,3.70453,7.10517,1.03399,-31.673,-17.954,-49.413,35.4027,-40.8785,-24.4277,1013.32
81956,7.7074,1.03152,-0.792888,-16.903,-49.104,-22.253,33.8336,-39.244,-24.1322,1013.32
81962,10.926,-2.30182,-3.57146,10.747,-42.174,10.647,33.6012,-40.3234,-25.861,1013.33
81968,10.7586,-2.13443,-2.25152,25.377,-41.194,24.787,33.4268,-41.1253,-23.349,1013.33
81974,11.8394,-0.714059,-1.53894,46.797,-47.284,32.067,33.3106,-40.9094,-24.5903,1013.33
81980,12.222,-0.226254,-1.69676,60.587,-46.094,32.837,33.4268,-39.9534,-24.5459,1013.29
81986,11.9924,0.577189,-1.95023,75.427,-40.704,36.547,32.8457,-41.5262,-24.0731,1013.29
81992,11.5668,1.32803,-1.70633,80.117,-38.044,42.847,33.3687,-41.1869,-23.9105,1013.31
81998,11.6242,2.60493,-1.15157,84.457,-36.714,55.727,31.6544,-41.5879,-24.6641,1013.31
82004,11.7629,3.36055,-0.883754,84.457,-33.774,65.177,32.1193,-42.2663,-24.6198,1013.3
82010,11.3325,3.65705,-0.376819,82.497,-29.434,80.577,31.7706,-43.4382,-23.0978,1013.3
82016,11.0694,3.74792,-0.0803104,80.887,-28.104,96.397,30.6374,-42.9756,-23.0092,1013.29
82022,10.8303,4.11138,0.192286,77.527,-26.284,105.987,30.3759,-43.8083,-22.5068,1013.29
82028,10.2038,4.60875,0.670526,74.307,-26.144,118.097,30.0272,-45.2269,-21.9748,1013.29
82034,9.77339,4.92439,0.923994,72.417,-28.104,125.027,29.5332,-45.2269,-22.5511,1013.31
82040,9.25689,5.42176,1.27789,69.687,-31.674,134.407,28.8649,-44.3634,-23.0831,1013.31
82046,8.93169,5.85218,1.49788,67.797,-34.124,140.777,28.2547,-46.8306,-22.1374,1013.31
82052,8.51084,6.54084,1.74178,64.157,-37.484,150.507,28.0804,-47.5399,-21.3542,1013.31
82058,8.31954,6.96169,1.82787,61.707,-39.864,157.437,27.1215,-46.7381,-22.3295,1013.31
82064,8.15216,7.80818,2.03351,58.417,-42.944,167.167,25.6687,-47.5708,-21.7384,1013.31
82070,7.98477,8.22425,2.20089,55.897,-44.694,173.467,25.4943,-49.5753,-21.8714,1013.31
82076,7.77913,8.72162,2.43045,52.747,-47.494,181.587,24.5936,-48.2801,-21.502,1013.31
82082,7.71218,9.04204,2.47827,51.067,-48.894,186.137,23.2279,-49.0202,-22.1817,1013.3
82088,7.58783,9.55375,2.60262,49.247,-50.644,190.827,22.792,-50.9015,-20.4529,1013.3
82094,7.53045,9.8933,2.56436,48.057,-50.574,192.507,21.5717,-50.8398,-20.4972,1013.3
82100,7.28654,10.5102,2.60262,46.097,-49.174,193.067,19.712,-50.1613,-21.635,1013.29
82106,7.0809,10.9693,2.57392,44.907,-48.054,192.367,19.2762,-51.765,-20.6154,1013.29
82112,6.6744,11.7824,2.54044,43.017,-45.674,190.477,18.4916,-51.9809,-19.5072,1013.31
82118,6.39702,12.2702,2.48784,41.337,-43.924,189.007,17.0097,-51.3332,-21.2803,1013.31
82124,5.90921,12.9923,2.42088,38.677,-40.354,187.187,16.7482,-52.5051,-20.645,1013.32
82130,5.56488,13.3749,2.37306,36.857,-37.694,186.277,15.7312,-53.0602,-20.2608,1013.32
82136,4.97186,13.8723,2.29654,34.337,-33.984,185.087,14.046,-52.1659,-19.8027,1013.3
82142,4.6897,14.0731,2.24872,33.147,-31.954,183.897,13.581,-52.3818,-20.7779,1013.3
82148,4.32146,14.3075,2.21524,32.027,-28.734,181.657,11.8958,-53.7696,-20.0539,1013.3
82154,4.10147,14.3935,2.22002,32.027,-24.884,178.367,11.2856,-52.7518,-20.7779,1013.31
82160,3.7667,14.5561,2.10525,33.287,-20.964,176.197,10.0361,-52.3509,-21.4429,1013.31
82166,3.10673,14.8527,2.08133,34.687,-15.924,173.677,9.3097,-54.2013,-20.2312,1013.28
82172,2.87239,14.9866,1.95699,35.247,-12.634,172.837,8.69951,-53.8929,-19.6993,1013.28
82178,2.58544,15.2592,1.60309,35.597,-4.584,172.207,7.71158,-53.4612,-20.113,1013.33
82184,2.24111,15.4552,1.4931,34.617,1.926,171.717,6.81082,-53.3378,-19.6402,1013.33
82190,1.64331,15.4887,1.32572,32.867,11.586,170.737,4.98024,-54.3247,-19.123,1013.3
82196,1.20811,15.4887,1.14398,31.887,18.796,169.267,5.0093,-53.3378,-19.5663,1013.3
82202,0.232504,15.5078,1.11051,29.857,29.646,166.257,4.28288,-53.1219,-20.7779,1013.3
82208,-0.446597,15.4361,1.02442,27.897,35.736,163.667,3.32401,-54.3555,-18.2364,1013.37
82214,-1.43655,15.24,0.967035,25.447,44.696,158.557,2.62664,-53.4303,-18.9161,1013.37
82220,-2.16826,15.2066,0.914429,23.277,50.576,154.357,1.69683,-53.3686,-20.0835,1013.31
82226,-3.18213,15.1205,0.928776,18.867,58.836,146.797,1.11569,-54.7256,-18.4433,1013.31
82232,-3.74167,15.0009,0.909646,15.927,63.946,140.637,0.854181,-54.2322,-17.6306,1013.35
82238,-4.46381,14.8909,0.87617,10.747,71.576,129.507,0.156818,-53.2144,-20.2608,1013.35
82244,-4.98509,14.9053,0.785304,7.387,76.406,120.827,-0.395261,-53.2453,-19.0343,1013.32
82250,-5.74071,15.1109,0.421842,1.367,82.986,106.337,-1.26696,-54.448,-18.6058,1013.32
82256,-6.33373,15.307,0.13968,-2.763,86.906,96.117,-1.20885,-52.9986,-19.4924,1013.34
82262,-7.18022,15.6848,-0.572898,-9.763,92.016,81.977,-0.831112,-52.721,-20.2608,1013.34
82268,-7.60107,15.6609,-0.984184,-16.973,94.816,73.227,-1.96433,-53.3995,-19.4481,1013.34
82274,-8.06496,14.8957,-1.50547,-28.103,99.996,59.857,-1.4413,-52.8752,-19.1525,1013.36
82280,-8.39973,14.0923,-1.52938,-33.563,102.236,50.547,-1.6447,-51.5183,-20.0835,1013.36
82286,-9.09318,12.5093,-1.25678,-36.993,102.516,35.847,-2.19678,-53.3378,-19.4776,1013.34
82292,-9.63359,11.2419,-1.01288,-36.293,97.616,21.147,-1.93527,-53.3378,-19.4924,1013.34
82298,-10.0784,9.30029,-0.482032,-28.243,90.266,10.997,-1.17979,-51.5183,-21.0735,1013.33
82304,-9.9827,8.10947,-0.027704,-12.913,74.866,-4.543,-2.48735,-52.7827,-19.9948,1013.33
82310,-9.65272,7.95165,0.0583792,-1.573,63.736,-14.973,-1.8481,-52.9677,-18.9604,1013.34
82316,-8.74884,8.28642,0.0153376,14.387,48.616,-30.373,-1.47036,-52.5668,-22.0192,1013.34
82322,-7.80193,8.71683,-0.027704,23.207,41.056,-40.243,-1.35414,-52.4434,-20.2017,1013.34
82328,-6.28113,9.72592,-0.343342,31.747,36.016,-55.013,-0.598658,-54.2013,-18.591,1013.36
82334,-5.55898,10.3189,-0.400731,33.917,36.086,-64.113,-0.424318,-53.2761,-20.3199,1013.36
82340,-4.87988,11.0267,-0.448555,34.547,39.726,-75.383,0.273046,-52.3818,-19.5811,1013.34
82346,-5.00422,11.285,-0.285954,32.797,42.666,-79.933,-0.453375,-53.3686,-18.4728,1013.34
82352,-2.57476,12.2941,4.60166,30.837,42.456,-80.493,1.08663,-53.2453,-18.724,1013.38
82358,13.0302,33.8483,10.594,106.367,-111.194,-160.433,1.784,-52.906,-19.9061,1013.38
82364,20.1321,4.14486,-2.14631,-116.303,59.816,-130.893,2.39419,-53.8621,-19.6254,1013.35
82370,13.5467,-5.88383,-1.09418,-87.673,96.076,-153.363,3.49835,-53.492,-19.9948,1013.35
82376,7.03308,-2.09139,6.72026,14.247,64.436,-162.183,4.25382,-53.0602,-20.1869,1013.35
82382,7.7887,2.7197,9.43667,36.577,35.806,-174.853,4.63156,-52.5051,-20.7632,1013.36
82388,10.2086,1.38063,3.97038,38.677,41.686,-179.823,5.64855,-54.0163,-18.9309,1013.36
82394,8.64953,3.04012,2.9326,68.987,80.256,-197.813,6.92704,-52.5976,-18.4285,1013.36
82400,0.155986,9.63027,3.26737,84.387,85.996,-202.433,7.82781,-52.4126,-19.9948,1013.36
82406,-2.84736,11.285,4.96512,68.007,68.566,-202.503,9.19347,-54.0471,-17.867,1013.36
82412,-3.93297,12.2319,7.01677,64.647,32.026,-195.503,10.2976,-53.7079,-16.4632,1013.36
82418,-4.50207,16.1296,1.37832,63.037,-9.764,-193.683,10.9659,-52.3818,-18.6501,1013.32
82424,-2.09174,22.8488,-5.92919,25.587,-64.924,-175.273,11.1693,-53.5845,-16.3598,1013.32
82430,0.572054,22.1267,-7.95214,-12.493,-55.474,-151.123,12.2735,-54.3247,-16.6849,1013.36
82436,4.19711,14.8096,-4.57577,-32.723,-18.164,-137.473,13.2324,-52.7827,-17.4385,1013.36
82442,3.12107,12.3515,-2.5002,-22.643,20.896,-124.453,13.8135,-53.3995,-18.2068,1013.36
82448,2.61414,11.4285,-0.993749,-19.073,26.496,-117.383,13.6682,-53.0911,-16.7144,1013.37
82454,2.63327,8.86031,2.33958,-8.923,34.546,-116.753,15.2373,-53.0911,-17.867,1013.37
82460,1.71983,8.55901,3.52562,4.097,35.106,-115.563,15.6441,-51.8267,-16.7735,1013.31
82466,0.289893,8.77422,4.59209,13.127,19.496,-113.533,15.3826,-53.2761,-17.7636,1013.31
82472,-6.28591,16.6556,1.34006,41.547,40.426,-116.403,17.0097,-53.0911,-17.1429,1013.35
82478,-8.17496,20.0607,2.12916,1.997,-12.144,-46.543,16.9516,-52.3818,-16.8031,1013.35
82484,-1.15917,11.8206,-0.67811,-18.583,-46.864,-29.533,17.126,-52.2276,-16.7292,1013.38
82490,7.4061,7.30603,-3.14583,13.057,-20.334,-30.583,17.4165,-53.2453,-17.7045,1013.38
82496,5.82791,10.0846,-1.9024,16.277,13.546,-35.553,18.3754,-52.135,-17.6601,1013.38
82502,0.739438,10.9024,1.29702,3.397,22.576,-32.193,17.3584,-51.8883,-17.7192,1013.33
82508,-0.963096,9.78331,2.69348,1.997,6.686,-27.643,17.7943,-52.6902,-16.9361,1013.33
82514,0.471624,9.5681,1.43571,8.017,-17.884,-19.103,18.8984,-52.5976,-17.2464,1013.35
82520,2.815,10.1994,-0.156829,8.157,-16.134,-16.443,18.2882,-51.4257,-17.6601,1013.35
82526,3.39367,10.075,-0.195088,2.417,-3.394,-17.003,18.4335,-52.7827,-18.8718,1013.38
82532,2.82935,9.45332,0.469666,1.087,-0.804,-18.123,17.9105,-51.5491,-17.8965,1013.38
82538,2.03547,9.6781,1.07703,4.657,-0.664,-17.213,18.8113,-50.9323,-18.1773,1013.38
82544,1.58114,9.79287,1.15833,4.727,-2.344,-15.813,17.9105,-52.1659,-17.7045,1013.38
82550,2.05938,9.66375,0.833128,3.537,-5.704,-13.363,17.4456,-52.0734,-16.1973,1013.36
82556,2.74805,9.50115,0.455318,4.727,-6.544,-12.663,18.7532,-51.0557,-18.0739,1013.36
82562,2.50893,9.69244,0.493578,5.287,-3.674,-13.713,18.3754,-51.4874,-18.2364,1013.36
82568,2.75283,9.61593,0.197069,4.727,-2.764,-14.063,17.7071,-52.6593,-15.6358,1013.37
82574,1.97808,9.62071,0.833128,3.957,-4.304,-13.783,18.0267,-51.765,-17.4828,1013.37
82580,2.64762,9.63027,0.61792,3.957,-5.914,-13.923,17.9105,-50.4697,-18.1034,1013.33
82586,2.70979,9.61114,0.460101,3.257,-6.684,-14.623,18.4335,-52.906,-15.7835,1013.33
82592,2.71935,9.41985,0.335758,3.607,-7.524,-16.373,18.143,-52.6902,-17.5271,1013.37
82598,3.03977,9.85505,0.130115,3.257,-7.594,-17.283,18.7532,-50.8706,-18.0591,1013.37
82604,2.20285,9.84548,0.345323,1.717,-7.734,-17.703,18.3464,-51.9809,-17.7192,1013.35
82610,2.09286,9.77853,0.493578,0.807,-9.554,-17.283,18.8984,-51.765,-16.8179,1013.35
82616,2.28894,9.57288,0.364453,0.107,-10.744,-16.583,18.8694,-50.9631,-18.6354,1013.35
82622,2.2985,9.57767,0.27837,-0.173,-10.534,-16.373,19.1309,-50.6856,-18.6058,1013.34
82628,2.22676,9.52506,0.254458,-1.083,-10.324,-16.023,18.695,-52.9986,-17.335,1013.34
82634,2.0259,9.58245,0.330976,-1.363,-10.394,-15.533,18.6079,-51.6725,-16.9213,1013.35
82640,1.95895,9.55375,0.374018,-3.043,-11.234,-14.623,19.5667,-50.7164,-19.6845,1013.35
82646,2.03069,9.46767,0.407494,-3.743,-12.144,-14.063,18.9565,-51.8883,-18.1921,1013.33
82652,2.00199,9.63505,0.3788,-4.093,-12.914,-13.363,19.2762,-52.1659,-18.8275,1013.33
82658,1.90634,9.7307,0.464883,-5.213,-13.334,-12.453,18.9856,-50.408,-18.6649,1013.37
82664,2.15025,9.54419,0.460101,-5.913,-14.314,-11.613,18.6369,-51.9809,-17.5419,1013.37
82670,2.24589,9.57767,0.450536,-5.913,-13.964,-11.613,18.143,-52.906,-19.0787,1013.37
82676,2.4085,9.55854,0.321411,-6.333,-13.334,-11.543,18.3173,-50.7781,-18.3103,1013.33
82682,2.35111,9.63505,0.292717,-6.893,-12.284,-11.823,18.5498,-50.6856,-18.6206,1013.33
82688,2.44676,9.66375,0.230546,-8.503,-13.194,-12.663,19.1599,-52.0734,-18.0886,1013.35
82694,2.71935,9.74983,-0.0085744,-9.833,-13.264,-13.853,19.0728,-50.3772,-19.389,1013.35
82700,2.64762,9.80244,-0.0611808,-12.073,-11.024,-15.463,19.1018,-50.5622,-20.3051,1013.35
82706,2.55675,9.68288,0.044032,-14.033,-9.904,-16.723,18.7822,-51.5799,-17.2464,1013.35
82712,2.36067,9.43898,0.460101,-14.313,-9.414,-17.213,19.3343,-52.1042,-18.5467,1013.33
82718,2.26024,9.3242,0.622702,-13.263,-9.554,-17.843,19.5377,-50.9631,-20.2755,1013.33
82724,2.20285,9.50115,0.493578,-12.633,-9.694,-17.983,19.8864,-51.3332,-19.0491,1013.36
82730,2.31285,9.55375,0.335758,-13.123,-7.804,-18.193,19.5377,-51.4257,-18.9161,1013.36
82736,2.15981,9.55375,0.3788,-13.543,-6.894,-18.403,20.4675,-50.8089,-20.0982,1013.36
82742,1.91591,9.51071,0.546184,-13.543,-7.524,-17.983,19.9445,-50.4389,-20.1573,1013.37
82748,2.02112,9.64462,0.440971,-14.313,-7.174,-17.493,19.6249,-51.9809,-19.5072,1013.37
82754,2.15981,9.63505,0.440971,-15.993,-5.004,-16.933,20.206,-50.2847,-19.6549,1013.33
82760,2.13112,9.62549,0.426624,-16.973,-3.254,-16.723,19.7411,-50.0996,-20.6597,1013.33
82766,1.9446,9.46767,0.59879,-19.073,-2.834,-16.723,20.2932,-51.765,-20.4529,1013.35
82772,2.28415,9.79766,0.292717,-18.653,-3.464,-16.513,19.7992,-51.7958,-19.7288,1013.35
82778,2.15981,9.68288,0.747045,-21.733,-1.574,-17.633,20.206,-50.6239,-21.2212,1013.34
82784,2.28415,9.77374,0.101421,-20.963,-1.854,-17.773,20.4675,-50.6856,-20.3642,1013.34
82790,1.9446,10.1229,0.436189,-21.523,-6.404,-19.173,19.4215,-51.1482,-20.5415,1013.34
82796,2.13112,9.69723,0.622702,-25.653,-7.734,-20.293,20.1188,-50.0996,-21.4133,1013.34
82802,2.34632,9.50115,0.550966,-26.143,-6.404,-21.903,19.8283,-49.9146,-20.4085,1013.34
82808,2.59023,9.65897,-0.0181392,-23.623,-4.164,-22.743,20.3513,-50.6547,-19.847,1013.33
82814,2.20285,9.83592,1.11051,-25.233,-4.374,-25.473,20.6418,-49.2053,-20.7188,1013.33
82820,2.24111,9.922,0.665744,-25.793,-8.504,-26.663,20.3803,-48.1259,-21.2212,1013.34
82826,2.68588,9.86939,0.63705,-25.303,-9.414,-28.063,20.8452,-49.9146,-20.5415,1013.34
82832,2.74326,9.52506,1.21572,-25.233,-8.644,-32.543,20.3513,-49.2978,-20.8223,1013.35
82838,2.69544,10.1181,1.02442,-24.323,-8.644,-36.323,21.8041,-48.9586,-22.4329,1013.35
82844,2.47067,10.2759,0.220981,-29.783,-9.204,-39.123,21.4554,-49.7295,-21.6202,1013.35
82850,2.16459,9.74027,-0.0372688,-29.853,-10.884,-38.913,21.0777,-49.5445,-21.6941,1013.36
82856,2.09286,9.53941,0.9766,-26.493,-13.264,-40.733,21.6588,-48.3726,-22.1521,1013.36
82862,2.20764,10.7637,1.78483,-22.853,-12.564,-43.813,21.9203,-48.1876,-23.482,1013.36
82868,1.41854,11.5576,-0.534638,-34.893,-24.534,-45.283,21.3973,-48.9586,-21.1917,1013.36
82874,0.906822,9.58723,-2.00284,-40.843,-26.354,-44.583,22.1818,-48.8352,-22.8762,1013.36
82880,2.62849,7.91817,2.15307,-19.213,-29.994,-46.823,22.6468,-47.7866,-22.9353,1013.36
82886,8.10433,14.1927,10.7949,11.657,-58.064,-64.953,22.4434,-49.2053,-21.7975,1013.36
82892,13.3554,15.0009,2.87043,-33.773,-16.694,-94.563,23.1407,-48.8352,-22.2851,1013.36
82898,7.21003,8.84118,1.56005,-32.723,36.716,-92.463,23.0826,-46.8306,-23.2013,1013.36
82904,0.873346,7.04299,3.41562,13.897,44.836,-101.493,23.809,-48.1876,-22.9501,1013.36
82910,-0.0353104,10.802,4.39123,28.597,12.076,-112.343,24.2158,-48.4651,-22.0783,1013.36
82916,5.24446,11.9976,2.51175,20.267,-9.344,-117.803,25.0294,-47.2624,-21.6941,1013.33
82922,6.46397,11.5385,3.99908,25.097,4.376,-121.723,24.5645,-47.2932,-22.6693,1013.33
82928,4.57971,10.9693,3.51605,33.917,20.966,-132.923,25.9302,-47.4474,-22.093,1013.37
82934,3.34585,11.0746,2.76044,41.827,19.706,-143.703,26.3079,-47.0465,-21.236,1013.37
82940,3.21194,12.8727,1.71787,47.217,5.146,-154.693,27.383,-46.3372,-22.7432,1013.32
82946,4.39319,12.7532,1.78483,44.767,-1.854,-161.483,28.6615,-46.1213,-20.6597,1013.32
82952,5.30185,13.0879,1.3831,48.127,4.096,-174.083,28.6615,-46.0288,-20.3347,1013.34
82958,4.881,13.9918,1.86613,47.007,2.416,-185.913,29.5042,-44.1167,-21.2803,1013.34
82964,5.5314,14.1162,0.914429,48.267,1.016,-203.623,30.2306,-44.5176,-20.1869,1013.34
82970,5.04838,14.2692,-0.285954,51.697,0.386,-214.403,31.4219,-45.3811,-18.9457,1013.34
82976,4.72318,15.1061,-1.13244,48.617,-6.474,-232.603,32.2355,-44.055,-21.103,1013.34
82982,5.03882,16.5982,-0.969837,47.497,-9.904,-252.623,32.7585,-43.7466,-20.4529,1013.36
82988,6.16746,17.5691,-1.80676,38.817,-17.114,-266.553,34.7634,-43.7775,-19.0343,1013.36
82994,7.43958,17.196,-2.67237,25.307,-14.104,-289.583,35.7804,-42.7906,-19.389,1013.34
83000,6.52614,17.5595,-2.50977,18.447,-10.044,-305.613,36.7102,-40.3851,-19.5219,1013.34
83006,7.69305,18.1143,-2.07457,11.027,-22.504,-329.133,37.5238,-40.5393,-19.5515,1013.34
83012,8.88387,18.956,-0.740282,11.937,-6.684,-342.363,38.8895,-39.3057,-18.5615,1013.34
83018,9.53427,18.516,1.09138,10.327,-6.124,-373.933,39.4125,-36.9619,-20.7632,1013.33
83024,9.88817,18.6642,1.51223,14.037,3.256,-393.393,41.3884,-36.4685,-19.7731,1013.33
83030,7.83652,20.1181,1.61266,22.297,18.516,-422.513,42.4925,-35.6049,-18.133,1013.33
83036,6.95178,19.4916,1.13442,23.557,14.806,-445.683,43.7129,-32.1201,-18.99,1013.29
83042,5.58879,20.9598,2.13394,33.847,6.826,-471.863,44.1197,-31.0407,-18.9457,1013.29
83048,5.17751,19.4964,1.70831,32.867,-3.324,-471.093,46.1246,-29.5912,-16.5223,1013.32
83054,1.88243,23.987,4.41993,90.967,9.416,-466.263,47.345,-26.6923,-17.2907,1013.32
83060,5.80878,27.2773,2.98521,66.327,-42.244,-478.093,47.7809,-24.04,-17.5567,1013.31
83066,10.5481,17.9756,2.38741,34.407,-23.064,-489.923,48.7107,-23.084,-16.5076,1013.31
83072,6.57875,21.5289,0.761392,76.827,-1.014,-488.663,49.7858,-21.1411,-17.2021,1013.3
83078,7.26263,30.845,-1.68241,70.737,-16.974,-488.943,50.396,-17.4403,-17.3498,1013.3
83084,9.9886,23.4466,1.99525,43.017,-14.314,-498.463,50.5122,-15.4666,-17.8965,1013.3
83090,9.33341,13.174,-2.06501,60.657,-6.824,-476.203,52.3137,-14.1096,-16.0938,1013.33
83096,6.74613,14.7187,-5.39356,76.687,4.166,-454.433,51.442,-10.4397,-15.9313,1013.33
83102,9.3908,15.1826,-1.79241,59.187,-64.644,-433.993,51.413,-8.71269,-16.4928,1013.31
83108,13.6615,8.87944,-10.0421,12.987,-77.594,-400.253,52.8949,-7.1707,-15.9904,1013.31
83114,7.54001,-3.07657,-10.9268,-3.953,44.346,-355.173,51.8488,-4.95024,-16.2564,1013.28
83120,-15.4203,12.0358,-6.33569,32.027,135.836,-180.173,51.6745,-3.74749,-16.4189,1013.28
83126,-18.8014,12.8727,7.73891,34.897,-52.744,-62.153,51.6454,-4.3026,-15.2959,1013.27
83132,8.33867,11.4189,-7.36391,9.207,-76.684,58.387,52.3428,-3.84001,-15.1038,1013.27
83138,9.5534,9.57288,-6.42656,-4.023,3.606,123.557,51.0933,-3.46993,-16.1825,1013.27
83144,5.53619,7.30603,-0.367254,6.127,8.156,181.797,51.7035,-5.28947,-16.1973,1013.3
83150,8.40563,7.46384,-1.71589,6.407,-11.864,201.537,51.965,-7.3249,-15.7244,1013.3
83156,11.1746,5.26394,-2.90671,7.387,6.336,208.747,51.0352,-7.29406,-16.1529,1013.28
83162,10.2325,4.69962,-2.10327,15.227,20.476,205.527,50.5703,-8.58933,-15.8278,1013.28
83168,8.07086,4.56093,-1.18983,20.197,24.256,197.477,52.982,-10.4706,-16.8179,1013.27
83174,7.18611,3.70966,-0.922013,20.477,20.196,192.787,51.0643,-10.7481,-16.3598,1013.27
83180,6.47832,3.32707,-1.36199,21.947,14.456,188.167,50.5122,-11.6116,-17.01,1013.25
83186,5.98573,3.1836,-1.51981,20.057,15.016,189.147,51.442,-13.647,-15.0299,1013.25
83192,4.74231,3.81966,-1.64894,18.027,15.086,195.587,51.2967,-14.2022,-15.1481,1013.26
83198,3.95321,4.41267,-1.21852,12.707,13.756,202.797,49.873,-14.8806,-17.1577,1013.26
83204,3.39845,5.08699,-1.32373,5.427,11.726,216.587,50.4541,-15.775,-15.0299,1013.26
83210,3.04456,5.46002,-1.18026,-1.223,10.536,227.577,50.1345,-17.4403,-14.6605,1013.25
83216,2.59979,5.48393,-1.00331,-9.903,8.366,245.777,49.6696,-17.6562,-16.8622,1013.25
83222,2.26502,5.38828,-0.749846,-14.593,6.266,258.657,49.6696,-18.7356,-15.3698,1013.19
83228,1.61462,4.8957,-0.333778,-19.003,1.086,278.327,49.5824,-21.3878,-15.8574,1013.19
83234,1.48071,4.56093,-0.137699,-18.793,-3.744,290.857,48.2748,-22.5906,-15.1925,1013.22
83240,1.64809,4.5131,0.149245,-16.623,-12.774,306.677,47.6065,-23.5466,-15.6062,1013.22
83246,1.83939,4.39833,0.311846,-14.313,-18.304,315.427,47.3741,-26.353,-15.2663,1013.19
83252,1.89678,4.16399,0.656179,-7.383,-25.094,326.487,46.7348,-27.3707,-14.8378,1013.19
83258,1.9733,4.25485,0.809216,0.807,-32.654,335.587,45.3401,-28.851,-16.6553,1013.19
83264,2.51371,4.63745,0.967035,6.337,-36.854,340.487,44.5846,-30.0846,-16.7735,1013.21
83270,3.28368,5.32133,1.03399,13.897,-39.444,346.717,44.6137,-32.5826,-16.6849,1013.21
83276,3.6854,5.92869,1.05312,17.397,-38.604,350.357,43.1318,-32.891,-18.8127,1013.21
83282,4.13494,6.84692,1.12485,21.177,-35.594,355.607,41.6208,-35.1423,-18.5467,1013.21
83288,4.35972,7.64079,1.23485,22.647,-33.284,358.897,40.8944,-36.2217,-17.4976,1013.26
83294,4.61318,9.09464,1.18703,23.207,-29.154,363.307,39.2091,-37.6095,-18.3251,1013.26
83300,4.56536,10.2042,1.26833,22.577,-25.304,366.177,38.1921,-38.1338,-19.256,1013.24
83306,4.32624,11.5863,1.43093,19.567,-20.684,370.237,36.6812,-40.6627,-17.4385,1013.24
83312,4.22581,12.3897,1.47875,17.887,-18.024,372.267,35.8966,-42.1121,-17.8818,1013.24
83318,3.91017,13.5088,1.64614,14.107,-15.854,373.387,33.3687,-41.4337,-18.7684,1013.27
83324,3.73322,14.0062,1.6557,12.147,-15.994,372.617,32.6713,-43.8392,-18.6945,1013.27
83330,3.42236,14.7427,1.74657,10.677,-15.644,369.117,31.5672,-45.7821,-17.2464,1013.26
83336,2.99673,15.307,1.95221,9.907,-17.394,365.267,29.3879,-46.0596,-17.6749,1013.26
83342,2.66675,15.8952,2.16742,10.677,-21.804,357.777,27.5574,-46.2447,-18.0148,1013.28
83348,2.49458,16.3974,2.23915,12.287,-23.904,352.037,26.1045,-48.5576,-17.6158,1013.28
83354,2.17416,16.8756,2.72696,14.877,-27.754,342.237,24.826,-47.9408,-17.8818,1013.28
83360,2.20764,17.3491,2.97086,19.777,-31.744,335.587,23.0826,-47.4782,-19.5958,1013.28
83366,2.66675,19.0707,2.57392,30.697,-32.864,327.257,21.7169,-49.6679,-18.3546,1013.28
83372,2.71457,20.5341,2.39697,36.647,-29.014,325.087,19.7411,-50.3772,-18.6501,1013.28
83378,2.62849,22.3706,2.08612,42.527,-20.614,324.597,18.8984,-49.4828,-19.3299,1013.28
83384,2.31285,24.6183,1.85656,44.277,-14.664,334.607,16.4577,-50.2847,-19.8027,1013.3
83390,2.55675,25.5365,1.06268,34.267,4.866,350.287,15.1501,-51.7033,-17.2316,1013.3
83396,2.24589,26.2204,0.589226,28.107,28.946,364.847,13.6682,-50.6239,-18.724,1013.3
83402,0.772915,28.119,0.311846,20.547,46.516,372.127,11.1984,-51.1482,-18.5467,1013.3
83408,-2.06305,29.4342,0.488795,6.617,68.706,376.677,9.45498,-52.6285,-18.2955,1013.33
83414,-4.31556,30.1659,0.273587,-2.273,80.396,374.507,7.76969,-51.3332,-18.1773,1013.33
83420,-8.48103,30.8163,-0.156829,-15.293,95.096,363.657,6.31685,-50.8706,-18.9161,1013.32
83426,-11.6422,30.6824,-0.300301,-23.903,100.836,352.247,4.1376,-51.6725,-20.4233,1013.32
83432,-15.6881,29.2525,-0.486814,-33.843,102.726,329.427,2.4523,-52.2892,-18.8275,1013.32
83438,-17.6202,27.6886,-0.702022,-40.003,100.766,310.667,2.13268,-50.1921,-19.5219,1013.32
83444,-19.8679,24.1449,-0.945925,-47.283,94.256,279.027,0.273046,-51.179,-18.99,1013.32
83450,-20.8292,21.9497,-1.79241,-49.313,87.886,255.997,-1.4413,-51.6108,-18.7979,1013.33
83456,-21.5322,20.7828,-5.62311,-55.123,75.426,218.267,-1.93527,-50.4697,-19.1378,1013.33
83462,-21.757,20.9359,-9.076,-64.713,67.166,189.847,-2.22584,-50.223,-20.3642,1013.36
83468,-24.7077,19.2477,-10.1951,-80.393,57.226,145.327,-2.9232,-49.4212,-20.0539,1013.36
83474,-27.4624,15.4313,-7.4739,-79.623,48.196,115.927,-3.67868,-49.452,-21.3099,1013.33
83480,-32.3261,9.91243,-3.20322,-44.343,22.226,78.057,-3.7949,-48.5268,-20.9109,1013.33
83486,-34.4925,7.49254,-1.43373,-7.733,-2.764,56.987,-4.87,-49.5137,-20.7336,1013.37
83492,-36.0755,5.95739,1.88047,56.037,-58.064,33.887,-5.59642,-49.1436,-19.9652,1013.37
83498,-32.9574,6.85648,2.0909,98.247,-100.344,19.677,-4.69566,-48.6502,-21.3985,1013.37
83504,-25.186,11.2037,0.440971,134.087,-112.454,-8.113,-5.2768,-49.2978,-20.246,1013.34
83510,-21.8383,14.0923,0.230546,142.067,-102.094,-30.233,-5.53831,-50.4389,-17.7931,1013.34
83516,0.40467,30.6776,38.3319,164.257,-138.774,-62.503,-5.56737,-48.9586,-17.8374,1013.36
83522,17.6309,58.6547,3.16216,474.217,-500.464,-360.563,-3.06848,-50.0071,-17.0247,1013.36
83528,9.40036,43.1932,-28.6791,-251.893,206.536,-245.763,-2.9232,-51.3024,-16.1677,1013.34
83534,15.0579,-14.4874,-6.83306,-316.783,221.376,-295.393,-0.511488,-50.5931,-18.4728,1013.34
83540,2.25068,-19.4611,9.26928,-99.083,202.966,-255.283,1.1738,-50.1921,-18.8422,1013.35
83546,-0.231389,7.75557,17.5285,134.017,27.336,-276.003,2.04551,-51.6416,-19.123,1013.35
83552,13.848,8.999,6.64374,73.607,-39.444,-286.643,3.49835,-51.95,-17.9113,1013.35
83558,12.815,8.97987,-0.59681,74.307,135.276,-302.463,5.73572,-51.7958,-19.0491,1013.34
83564,2.6237,11.0602,2.84652,82.847,223.196,-271.453,7.42101,-52.3818,-16.5814,1013.34
83570,-8.44277,9.5681,13.1143,60.447,209.686,-268.863,8.29271,-52.3509,-16.7883,1013.35
83576,-12.5317,11.9545,13.1287,53.027,121.346,-283.633,10.0942,-52.1042,-16.6849,1013.35
83582,-15.822,26.4117,-0.510726,32.727,-53.024,-273.763,11.2856,-51.1173,-16.1529,1013.34
83588,-8.99275,26.976,-6.73741,-21.803,-133.314,-252.763,11.8376,-52.4126,-17.8965,1013.34
83594,2.69544,17.4495,-1.62503,-57.013,-109.724,-249.193,13.7263,-50.8706,-17.5271,1013.29
83600,1.26072,18.3008,-3.11235,-23.413,-42.594,-221.053,15.7312,-50.408,-17.0395,1013.29
83606,-8.93536,31.0267,-5.50355,27.897,90.126,-71.883,15.0629,-51.2407,-16.4189,1013.29
83612,-8.24191,27.1625,-5.3266,-31.953,96.076,-49.693,15.5278,-51.4257,-15.5471,1013.34
83618,2.85326,6.58388,0.00577281,-83.683,23.346,-51.023,15.8184,-49.6062,-17.9704,1013.34
83624,6.55962,-0.69493,9.47014,-9.763,34.196,-54.033,15.9637,-49.8837,-17.1282,1013.32
83630,-1.42699,9.922,5.90725,40.567,38.396,-49.413,16.7482,-51.3949,-16.6258,1013.32
83636,-3.79906,10.9072,6.90678,28.177,16.696,-42.343,16.9226,-49.452,-16.611,1013.37
83642,-1.87653,8.21946,3.47301,31.887,-14.034,-24.773,16.6611,-50.1921,-16.6258,1013.37
83648,1.39941,9.10421,-0.0850928,48.127,-25.234,-19.523,16.9807,-50.6547,-16.1825,1013.34
83654,3.34106,11.3185,-1.05114,37.557,-12.704,-18.333,16.7773,-50.5005,-16.611,1013.34
83660,2.4085,9.94591,0.192286,27.197,-4.584,-17.423,17.678,-49.3286,-16.7292,1013.35
83666,0.78248,9.5155,1.23007,30.137,-11.514,-13.993,16.632,-50.0071,-15.1481,1013.35
83672,1.74852,9.93156,0.134898,26.287,-22.574,-12.383,16.8645,-50.7473,-15.089,1013.35
83678,4.48884,9.7307,-1.41938,22.297,-20.614,-15.883,16.8354,-49.7912,-16.8326,1013.34
83684,5.22055,9.58723,-1.70633,18.517,-10.744,-24.983,16.7773,-50.0071,-15.0742,1013.34
83690,4.62275,9.91243,-1.63937,16.347,0.316,-29.183,16.6901,-50.3772,-17.9704,1013.32
83696,1.46636,10.625,0.445754,10.327,7.666,-30.513,17.649,-49.6679,-15.7687,1013.32
83702,1.03595,10.0511,0.809216,5.567,-4.864,-28.343,18.3754,-49.9763,-14.365,1013.32
83708,2.83891,9.63984,-0.262042,6.337,-12.634,-27.153,17.2422,-50.8089,-14.7196,1013.32
83714,2.59501,10.6107,-0.472467,3.327,-6.124,-25.123,17.4747,-50.1921,-15.4141,1013.33
83720,1.7294,9.92678,0.307064,-2.483,-5.564,-24.283,18.0848,-49.5445,-16.3302,1013.33
83726,1.48071,9.65418,0.847475,-1.923,-8.644,-22.043,18.1139,-49.4212,-14.5571,1013.33
83732,1.84896,9.32898,0.943123,0.457,-13.964,-20.013,17.0679,-49.8529,-15.1334,1013.34
83738,2.07851,9.43898,0.670526,2.557,-15.434,-18.893,18.143,-49.5753,-16.9509,1013.34
83744,2.35111,9.51071,0.493578,3.467,-15.574,-18.543,17.9105,-49.4212,-15.8278,1013.34
83750,2.3272,9.5968,0.369235,4.027,-16.274,-18.473,18.2882,-51.1173,-14.9856,1013.34
83756,2.6524,9.92678,-0.11857,3.257,-18.584,-19.593,17.8233,-49.6062,-16.1973,1013.33
83762,2.82456,9.91243,-0.367254,1.227,-18.584,-20.853,18.3754,-50.3155,-15.9461,1013.33
83768,2.815,9.85026,-0.544203,-0.733,-15.714,-21.903,18.2301,-51.3332,-14.5866,1013.34
83774,2.52327,9.90287,-0.43899,-2.623,-15.504,-22.813,18.4916,-49.8221,-15.9017,1013.34
83780,2.45154,9.92678,-0.635069,-5.493,-16.064,-23.163,18.2301,-49.0819,-16.5076,1013.34
83786,2.64283,9.90765,-0.682893,-7.523,-14.664,-23.303,18.2011,-50.7473,-15.1038,1013.33
83792,2.37502,9.87896,-0.768976,-9.623,-11.374,-22.603,19.1018,-49.8529,-16.4632,1013.33
83798,2.11677,9.61114,-0.290736,-11.233,-11.304,-23.443,18.4626,-48.9277,-16.9065,1013.34
83804,1.49984,9.96026,-0.410296,-12.773,-12.424,-20.993,18.8984,-49.5137,-16.9361,1013.34
83810,2.01156,9.4868,0.0249024,-12.633,-16.554,-20.783,18.4626,-49.8529,-15.1481,1013.35
83816,2.0546,10.0511,-0.682893,-14.173,-15.224,-19.523,19.5958,-48.7427,-16.7883,1013.35
83822,1.77722,9.59201,-0.410296,-18.723,-14.874,-20.573,18.7822,-49.452,-17.3646,1013.35
83828,2.27937,9.77374,-0.391166,-17.603,-15.364,-20.013,18.7822,-49.6987,-16.4928,1013.35
83834,1.75331,10.0894,-0.424643,-19.073,-15.154,-19.803,18.9565,-49.0202,-16.0643,1013.34
83840,2.87239,10.1516,1.01964,-20.123,-21.104,-22.253,19.3343,-47.9408,-16.212,1013.34
83846,2.925,9.98895,-0.462902,-29.713,-21.314,-26.873,19.5958,-49.1744,-15.887,1013.34
83852,2.74805,9.79766,-0.754629,-30.413,-13.614,-25.333,19.189,-49.1744,-16.3894,1013.35
83858,1.60984,9.1329,0.187504,-27.473,-13.334,-27.783,19.189,-48.3109,-17.468,1013.35
83864,0.476406,8.86987,0.206634,-25.303,-12.774,-25.613,19.3343,-48.8352,-17.0986,1013.34
83870,1.98286,9.23333,1.25398,-18.653,-23.484,-26.383,18.3464,-49.3903,-17.5124,1013.34
83876,2.03547,9.31942,-0.314648,-19.143,-13.824,-26.733,18.7532,-48.4343,-17.2021,1013.37
83882,2.59979,10.5055,1.98569,-11.933,-24.394,-31.423,19.683,-47.5399,-18.133,1013.37
83888,4.02495,11.878,2.24872,-21.243,-25.934,-36.253,19.0437,-49.0819,-16.7144,1013.33
83894,4.881,10.3237,1.52179,-33.773,-8.714,-43.673,19.6249,-48.9277,-17.734,1013.33
83900,2.70022,8.29598,1.3018,-29.153,2.276,-45.913,20.8743,-48.0025,-19.2412,1013.33
83906,0.968994,8.82683,1.61744,-15.223,-0.734,-44.793,20.4966,-48.8969,-17.8522,1013.34
83912,1.25594,9.88374,1.66048,-14.733,-7.244,-43.813,20.3513,-48.8352,-19.1821,1013.34
83918,2.26024,9.77374,0.579661,-16.343,-3.254,-39.123,20.9034,-47.7558,-19.847,1013.35
83924,1.84896,8.84596,1.94743,-11.723,-1.014,-42.273,21.4264,-48.0025,-18.0148,1013.35
83930,1.5381,9.12334,1.54092,-8.363,-3.884,-41.713,21.5717,-48.0334,-18.3546,1013.36
83936,1.41376,8.6164,1.54092,-7.593,-1.994,-42.343,21.6007,-47.7866,-19.9209,1013.36
83942,2.13112,9.59201,0.641832,1.297,-2.274,-42.693,22.269,-47.4166,-19.7584,1013.37
83948,2.0546,10.3189,1.33528,-0.243,-6.334,-46.823,21.0777,-48.5576,-17.9113,1013.37
83954,2.50893,9.66375,1.42615,-2.833,-1.714,-49.693,22.2981,-48.4651,-18.8422,1013.34
83960,3.23585,10.5533,0.216198,5.147,0.876,-54.733,22.5015,-47.2624,-19.3742,1013.34
83966,3.03499,11.2754,0.871387,2.417,-0.174,-59.423,22.6177,-48.3726,-18.9309,1013.34
83972,2.32241,9.98895,1.72265,-2.833,5.846,-64.463,23.5185,-47.4474,-18.2512,1013.36
83978,2.47067,9.94113,0.388365,3.117,5.146,-63.133,23.4603,-47.0465,-19.0343,1013.36
83984,1.98764,10.5628,2.47827,6.897,-1.154,-69.223,23.6637,-47.9717,-17.8522,1013.34
83990,2.80065,9.85505,1.59353,7.807,-2.204,-72.303,24.2739,-48.2184,-17.7636,1013.34
83996,3.37932,10.8785,0.220981,16.627,1.506,-78.253,24.0705,-46.2447,-18.8718,1013.35
84002,2.63327,11.6867,1.40223,17.257,0.386,-86.303,24.8551,-46.183,-18.7092,1013.35
84008,3.23107,11.4045,1.44049,15.227,-5.354,-92.743,24.7388,-47.2315,-17.867,1013.35
84014,3.43671,11.1941,1.38789,18.657,-5.424,-100.023,25.0004,-47.1082,-17.9852,1013.35
84020,3.85278,11.8541,0.770957,25.867,-3.534,-107.513,24.8841,-45.1344,-18.5763,1013.35
84026,3.56584,12.4662,1.78483,28.107,-6.684,-117.803,26.0755,-46.8615,-18.6206,1013.33
84032,4.15885,12.648,1.14398,24.187,-11.234,-127.393,26.4823,-46.4914,-18.1625,1013.33
84038,4.06799,11.9784,1.62222,23.977,-7.384,-134.463,27.2958,-44.0242,-19.1378,1013.36
84044,3.78105,11.505,2.67435,32.867,-4.584,-143.283,27.7317,-44.7643,-17.9852,1013.36
84050,3.52758,11.4619,3.02825,39.797,-7.734,-153.853,27.7898,-46.5839,-17.1282,1013.34
84056,4.04886,12.2415,2.12438,43.997,-10.184,-166.313,29.3008,-43.9317,-17.1429,1013.34
84062,4.00582,12.3371,1.3831,48.197,-9.834,-173.243,29.7076,-44.3943,-17.6158,1013.36
84068,3.69018,13.1788,1.75613,52.187,-12.004,-186.753,31.3057,-45.7512,-16.1382,1013.36
84074,3.86713,12.4184,1.66048,52.887,-16.694,-197.393,31.5672,-42.2972,-15.6801,1013.36
84080,4.62275,12.9636,1.60788,64.997,-21.384,-213.843,31.974,-42.0196,-16.0199,1013.33
84086,5.12968,14.4605,0.464883,70.527,-22.504,-232.813,33.02,-42.2663,-15.6949,1013.33
84092,6.02877,15.967,0.264022,68.287,-25.654,-249.263,34.2404,-42.2972,-14.9117,1013.35
84098,6.17703,16.2922,-0.687675,68.427,-24.254,-276.143,34.531,-40.1075,-16.9509,1013.35
84104,6.1292,17.3778,-1.54372,71.017,-29.994,-294.693,36.2453,-39.83,-15.5028,1013.34
84110,7.65001,18.7934,-2.19413,64.927,-50.364,-324.163,36.7974,-40.3851,-14.8526,1013.34
84116,9.83078,19.2333,-1.70633,60.377,-39.094,-344.673,38.0468,-38.0413,-14.7935,1013.35
84122,9.84035,20.7637,1.50745,66.257,-28.874,-377.083,39.7902,-36.4993,-15.0299,1013.35
84128,9.61557,21.6628,2.77,73.677,-11.094,-400.743,41.6499,-36.8385,-14.2911,1013.34
84134,8.94125,22.9875,1.18703,72.207,-2.554,-440.223,41.7952,-34.4639,-14.1729,1013.34
84140,9.91686,25.0631,3.07607,66.677,-5.844,-462.903,42.4344,-32.3051,-16.1086,1013.34
84146,9.04647,22.2367,1.28267,61.217,17.746,-480.963,44.759,-31.1949,-13.7,1013.32
84152,5.07708,20.3285,1.72744,86.557,34.336,-490.833,45.6307,-28.7585,-12.1633,1013.32
84158,4.02973,22.3562,1.36876,102.307,-7.034,-512.883,46.1246,-26.168,-13.3306,1013.32
84164,4.64666,26.2204,0.900082,110.917,-6.894,-509.243,46.9092,-24.1634,-14.2468,1013.32
84170,5.41184,30.8641,2.22481,91.807,-14.524,-503.433,48.7688,-23.1148,-12.3849,1013.29
84176,9.66818,30.2042,0.297499,70.457,-23.414,-508.823,48.7688,-18.9206,-12.7987,1013.29
84182,13.4271,28.9273,-4.05927,61.287,26.986,-512.673,49.9311,-17.0086,-11.6757,1013.29
84188,10.706,24.3792,0.0775088,52.747,56.106,-508.613,51.4711,-16.1142,-10.8334,1013.29
84194,7.2435,13.7049,3.36302,59.397,40.916,-476.693,51.0062,-12.7219,-12.9908,1013.29
84200,5.96182,13.3797,-4.39404,58.557,25.236,-435.533,50.6865,-10.2547,-11.4393,1013.3
84206,7.58783,7.63123,-3.70059,33.707,-38.954,-387.303,51.4711,-9.17528,-11.9269,1013.3
84212,10.9546,-2.08183,-10.8598,20.897,-56.454,-370.293,50.3669,-7.07818,-10.0059,1013.28
84218,-13.5169,8.55901,-5.13531,92.717,77.316,-306.523,49.5243,-3.50077,-12.0008,1013.28
84224,-28.9019,23.2888,4.03734,75.987,-75.844,-105.693,51.0643,-3.31573,-10.7448,1013.25
84230,-3.46429,16.7943,-1.6585,45.397,-218.084,-16.933,51.8488,-4.02504,-10.4345,1013.25
84236,10.1416,17.0239,-9.96553,3.887,-101.604,94.857,50.425,-3.74749,-11.4393,1013.26
84242,6.66961,13.3032,-4.68098,-22.153,-47.144,159.607,50.7737,-3.71665,-13.0647,1013.26
84248,6.34919,10.6633,-1.59633,-29.363,-93.134,217.847,51.3258,-6.49222,-11.3654,1013.26
84254,11.8681,10.3046,-4.00188,-42.033,-92.364,235.977,50.6575,-6.89314,-12.6361,1013.31
84260,12.9011,7.67427,-3.1267,-52.673,-47.704,239.477,50.6865,-7.0165,-14.9117,1013.31
84266,10.7777,7.29646,-1.16113,-55.473,-37.204,236.467,50.8899,-8.37345,-13.1681,1013.28
84272,9.62036,5.37394,-0.687675,-65.273,-31.464,230.097,50.6575,-9.2678,-13.9512,1013.28
84278,8.93647,3.39402,-0.869406,-68.423,-26.004,224.567,48.9722,-10.3472,-14.3207,1013.23
84284,7.54479,1.50497,-0.993749,-68.213,-16.694,220.227,49.379,-12.2901,-13.6853,1013.23
84290,6.71266,0.682402,-0.663763,-65.343,-13.194,222.467,50.1635,-13.3386,-13.9217,1013.21
84296,5.16316,0.524582,-0.252477,-59.813,-9.484,229.327,48.7688,-13.7087,-15.9904,1013.21
84302,4.24494,0.75892,-0.075528,-55.053,-10.534,237.377,48.856,-14.2947,-15.9165,1013.23
84308,3.64714,1.60062,-0.214218,-47.563,-11.864,252.917,49.0303,-16.2067,-14.1581,1013.23
84314,3.34585,2.32755,-0.472467,-44.763,-10.254,265.377,48.7979,-17.0394,-15.5766,1013.23
84320,2.45154,2.8297,-0.300301,-41.613,-8.924,285.677,47.1126,-16.8852,-15.3254,1013.22
84326,2.58544,3.12143,-0.496379,-39.653,-10.884,298.347,47.345,-18.8281,-14.9265,1013.22
84332,3.05412,3.834,-0.453338,-35.173,-11.794,314.167,47.8971,-20.6785,-15.1334,1013.22
84338,3.3315,4.25007,-0.367254,-33.143,-12.284,321.657,46.0084,-21.542,-16.1529,1013.22
84344,3.41758,4.71875,-0.152046,-28.873,-11.724,329.637,46.1537,-23.67,-15.7244,1013.22
84350,3.19281,4.96743,-0.0803104,-25.583,-11.374,334.257,45.9212,-25.7979,-15.6358,1013.22
84356,2.78631,5.6561,0.067944,-20.963,-13.334,341.257,44.265,-25.7979,-16.4041,1013.16
84362,2.68109,6.11999,0.0296848,-18.443,-15.994,349.027,43.771,-27.4324,-16.877,1013.16
84368,2.79587,6.80387,-0.175958,-18.023,-16.624,354.347,43.9163,-29.7146,-15.5323,1013.16
84374,2.86761,7.61688,-0.175958,-18.863,-17.464,361.487,41.708,-30.6706,-17.5715,1013.19
84380,2.80544,8.06164,0.00577281,-20.263,-18.444,365.477,41.0106,-31.0098,-17.5715,1013.19
84386,2.71457,8.4825,0.369235,-21.523,-20.474,370.237,39.9065,-33.8162,-17.7045,1013.19
84392,2.68588,8.78857,0.651397,-21.873,-22.504,371.917,39.0638,-35.0807,-17.4385,1013.19
84398,2.63327,9.26203,1.03399,-21.173,-27.054,372.057,37.8144,-35.5433,-18.8866,1013.22
84404,2.57588,9.68766,1.23007,-19.843,-30.764,370.587,36.4197,-37.7946,-20.1721,1013.22
84410,2.72892,10.4194,1.33528,-16.133,-37.274,366.737,35.9838,-38.874,-17.5862,1013.24
84416,2.82935,11.0459,1.36876,-13.263,-41.264,363.517,33.7174,-38.5964,-19.3003,1013.24
84422,2.84369,11.7489,1.52179,-8.503,-46.234,357.987,32.4098,-40.0459,-19.7288,1013.24
84428,2.86761,12.3132,1.59353,-4.723,-49.594,354.767,31.9159,-41.5879,-17.9852,1013.25
84434,2.925,13.1788,1.80396,0.947,-53.444,349.727,30.6664,-42.5439,-19.1969,1013.25
84440,3.00151,13.8197,2.00482,5.707,-55.404,346.437,28.2838,-43.2224,-20.6302,1013.26
84446,2.8963,15.2018,2.11003,13.757,-55.894,342.587,27.4121,-45.1036,-19.847,1013.26
84452,2.62849,16.2491,2.43045,17.327,-56.454,340.907,25.7849,-45.0727,-20.1278,1013.26
84458,2.71457,17.6025,2.80348,23.627,-59.464,339.997,25.5815,-44.1784,-20.1426,1013.26
84464,3.14499,18.8842,2.75565,29.017,-58.764,340.347,23.4894,-46.954,-19.6993,1013.26
84470,3.44628,20.9837,2.94695,36.297,-53.444,342.937,20.7871,-47.6633,-20.0539,1013.26
84476,3.68061,22.4949,2.88478,40.847,-49.034,346.927,20.4384,-47.9408,-21.4872,1013.27
84482,4.14451,25.1922,2.24394,44.487,-37.764,358.267,18.2882,-47.6941,-20.6745,1013.27
84488,4.10147,26.8995,1.7657,41.827,-26.984,369.327,16.632,-49.7912,-20.2312,1013.27
84494,3.46062,28.3964,1.38789,33.427,-8.084,389.417,15.2954,-50.1613,-19.9209,1013.3
84500,2.40371,28.8268,1.30659,22.857,12.776,408.317,13.2614,-48.7118,-21.5168,1013.3
84506,0.0938144,29.6111,0.971818,15.297,24.116,417.207,11.2565,-50.8706,-19.4776,1013.27
84512,-2.46955,30.7493,0.656179,4.517,40.006,422.387,9.19347,-51.0865,-20.113,1013.27
84518,-4.99466,31.658,0.665744,-4.373,48.616,419.797,7.27573,-49.4212,-19.98,1013.26
84524,-9.03579,32.4184,0.574878,-14.733,55.896,405.937,5.03836,-50.3772,-20.8518,1013.26
84530,-11.3361,32.6671,0.0583792,-19.773,58.626,390.047,2.56853,-51.5799,-19.0048,1013.29
84536,-14.3347,31.6484,-0.902883,-29.293,61.006,358.827,2.07456,-50.2847,-21.0735,1013.29
84542,-15.9464,29.9507,-1.98849,-37.693,61.776,334.537,0.5055,-50.223,-20.4529,1013.29
84548,-18.1558,27.5977,-5.69007,-54.283,62.056,295.057,-2.02244,-50.8089,-19.8618,1013.31
84554,-19.9779,26.4739,-9.186,-70.453,61.776,266.567,-3.1266,-50.1921,-20.113,1013.31
84560,-25.2577,22.7914,-9.94162,-92.643,59.816,221.697,-2.80697,-48.9894,-21.7532,1013.31
84566,-29.2271,17.7412,-6.67046,-93.973,57.296,190.197,-4.2017,-50.0996,-20.837,1013.31
84572,-35.5733,9.36724,-0.262042,-57.013,45.326,143.927,-5.82888,-49.452,-20.246,1013.32
84578,-39.7627,6.26346,2.05742,-15.573,19.636,116.277,-5.16057,-48.1567,-22.4329,1013.32
84584,-41.7713,6.08173,2.77,56.667,-44.484,81.977,-6.58435,-48.2492,-21.7236,1013.39
84590,-39.4184,9.19986,1.80874,101.957,-82.354,58.807,-7.16549,-49.9763,-20.5711,1013.39
84596,-33.7656,16.0004,-1.0607,130.447,-88.724,18.837,-7.13643,-49.3595,-21.2803,1013.36
84602,-30.0449,18.6164,-1.99805,132.057,-77.384,-10.983,-7.31077,-48.9586,-19.7731,1013.36
84608,-23.8564,22.031,-2.00284,127.087,-61.214,-57.883,-7.77568,-49.5137,-18.4285,1013.36
84614,33.5467,56.0435,83.1669,418.357,-506.484,-200.403,-7.2236,-50.5622,-16.8326,1013.33
84620,5.03882,67.8464,-24.3988,-161.173,12.496,-292.033,-4.89906,-49.2361,-18.8127,1013.33
84626,16.5118,3.13099,-29.1525,-357.873,56.946,-303.863,-3.88207,-49.8221,-19.4333,1013.28
84632,15.9953,-28.7628,11.7705,-250.913,130.866,-309.393,-1.78999,-49.7604,-20.7188,1013.28
84638,11.5572,-15.3339,15.2999,205.207,108.536,-296.233,0.418328,-49.637,-20.5858,1013.36
84644,14.2497,8.04252,2.53566,206.117,40.986,-304.073,1.98739,-50.994,-19.3446,1013.36
84650,9.83556,18.6164,-0.33856,107.627,188.546,-311.563,3.49835,-52.9369,-18.3251,1013.33
84656,1.36115,13.4705,3.23868,67.727,235.096,-283.143,5.32892,-51.2407,-18.591,1013.33
84662,-2.93344,8.69292,3.16216,82.007,253.296,-278.733,6.83987,-51.5799,-18.133,1013.33
84668,-9.71489,13.9966,0.967035,67.867,217.806,-297.073,7.82781,-52.3201,-16.3746,1013.33
84674,-17.7015,18.8938,9.63753,10.817,47.776,-298.683,10.8207,-51.4257,-16.5519,1013.33
84680,-13.8851,22.4806,8.87234,7.667,-78.854,-279.853,11.8958,-51.5183,-17.2021,1013.31
84686,-3.4069,23.174,0.785304,-13.473,-122.044,-235.403,13.3195,-52.1659,-16.877,1013.31
84692,-0.0879168,19.1616,0.943123,-27.403,-89.144,-220.843,13.9588,-51.3024,-16.5076,1013.32
84698,1.04073,12.691,0.87617,-28.873,-60.934,-198.373,15.2663,-51.0865,-17.1577,1013.32
84704,-0.116611,11.2372,-0.902883,-18.373,-64.434,-200.963,15.615,-50.9631,-17.4237,1013.3
84710,2.31763,12.0215,-2.67237,2.627,-65.764,-191.513,16.5158,-51.4566,-16.3302,1013.3
84716,-1.7761,25.747,-12.1989,69.827,26.986,-171.423,17.5909,-50.9631,-17.1134,1013.3
84722,-6.77849,28.1716,-4.48968,-7.243,108.046,-55.363,17.3584,-50.408,-16.8917,1013.34
84728,-6.68285,17.1099,1.87091,-85.923,50.016,-44.583,17.7362,-51.3332,-16.8179,1013.34
84734,6.49745,-2.31616,4.7547,-26.493,-4.234,-52.213,18.0848,-50.5314,-16.4928,1013.31
84740,5.91399,4.79527,2.33958,32.097,22.926,-51.443,18.3464,-49.0819,-18.2512,1013.31
84746,0.275546,13.7431,0.670526,17.327,50.506,-46.333,17.7362,-50.4389,-17.6749,1013.31
84752,-2.00088,11.6341,2.57392,-2.343,47.216,-38.983,18.5207,-50.5005,-16.5667,1013.31
84758,-2.07261,8.74553,3.14781,8.857,5.216,-25.123,18.9565,-49.3595,-16.6553,1013.35
84764,1.51419,9.5968,0.990947,17.677,-13.894,-21.273,19.0728,-49.6062,-17.2021,1013.35
84770,3.98669,10.3476,-0.171176,8.157,-4.234,-22.883,17.8524,-51.2715,-15.3698,1013.32
84776,3.73322,9.43898,-0.491597,5.637,4.866,-25.473,19.1599,-49.7295,-16.6258,1013.32
84782,3.03499,9.86461,-0.93636,7.807,7.316,-26.873,19.2181,-49.1436,-17.9852,1013.32
84788,2.47067,10.6298,-0.228565,1.647,11.446,-27.153,19.4505,-50.5314,-16.1086,1013.36
84794,1.95417,10.142,0.933558,-4.163,11.516,-26.663,19.5377,-50.1305,-17.4237,1013.36
84800,1.59071,9.49158,1.30659,-3.323,4.936,-24.493,19.7411,-49.0511,-18,1013.32
84806,1.7294,9.83592,1.23963,-1.433,-1.504,-23.793,19.2762,-49.6062,-17.4237,1013.32
84812,2.43241,10.2233,0.550966,-2.203,-3.814,-22.743,19.5086,-50.0688,-15.5619,1013.37
84818,2.76239,9.93635,0.565314,-4.023,-4.164,-23.373,19.9735,-49.3595,-16.6405,1013.37
84824,2.9776,9.76418,0.225763,-3.813,-2.694,-23.163,19.9735,-49.8837,-17.2759,1013.34
84830,2.45154,9.88374,0.445754,-4.793,-1.154,-24.143,19.9445,-50.1305,-17.2168,1013.34
84836,2.20285,9.74505,0.3788,-7.243,-4.094,-23.513,19.7411,-49.637,-17.4976,1013.34
84842,2.3272,9.65897,0.383582,-7.103,-5.074,-23.303,19.8864,-49.2978,-17.7783,1013.33
84848,2.30807,9.63027,0.656179,-7.593,-6.194,-22.743,20.0898,-49.9763,-16.9509,1013.33
84854,2.37024,9.36246,0.919211,-7.103,-6.334,-22.743,20.4675,-49.2669,-16.2564,1013.31
84860,2.39893,9.27637,0.895299,-5.213,-7.384,-22.743,21.0196,-48.5268,-17.9704,1013.31
84866,2.37502,9.35768,0.694438,-3.603,-7.664,-22.813,20.1479,-50.5622,-16.478,1013.32
84872,2.08808,9.63505,0.436189,-3.253,-7.174,-22.253,20.3803,-50.4389,-16.9509,1013.32
84878,1.96373,9.55854,0.369235,-4.233,-8.014,-21.483,20.5837,-49.6062,-17.8818,1013.32
84884,1.96373,9.70679,0.25924,-5.493,-10.114,-20.573,21.1649,-49.1744,-17.5271,1013.32
84890,2.01156,9.69723,0.182722,-6.893,-12.214,-20.083,21.1067,-50.5005,-16.5667,1013.32
84896,2.39893,9.91243,-0.415078,-9.973,-11.514,-19.103,21.252,-49.1436,-17.7783,1013.32
84902,2.23633,9.93156,-0.166394,-12.283,-10.674,-19.313,21.3973,-48.3726,-17.6897,1013.32
84908,2.09764,9.92678,-0.204653,-15.643,-10.464,-18.473,21.223,-50.4389,-16.5519,1013.33
84914,1.92069,9.78331,0.268805,-17.743,-12.634,-18.403,21.4554,-49.5137,-16.7735,1013.33
84920,1.8107,9.65418,0.297499,-19.353,-14.594,-18.403,21.252,-48.1259,-17.1134,1013.33
84926,2.25546,9.63505,0.110986,-21.103,-16.204,-18.193,21.6007,-49.4212,-16.8622,1013.33
84932,2.17416,9.51071,0.216198,-21.873,-14.384,-17.843,21.4554,-50.1921,-17.6158,1013.32
84938,2.35589,9.95069,0.3788,-21.803,-13.054,-17.913,21.7169,-48.0642,-19.3299,1013.32
84944,2.24589,10.0033,0.589226,-23.903,-15.364,-19.733,22.24,-48.9277,-18.8866,1013.32
84950,2.59501,10.1085,0.197069,-26.143,-16.554,-20.783,21.8332,-50.3155,-18.1625,1013.32
84956,2.19329,9.63027,0.0822912,-27.613,-16.974,-22.883,21.5717,-48.5576,-18.9013,1013.32
84962,2.4898,9.76896,0.536619,-27.963,-18.304,-24.003,21.6298,-47.91,-18.6797,1013.34
84968,2.4898,9.30985,0.87617,-29.293,-16.694,-25.543,21.223,-49.7604,-18.0886,1013.34
84974,2.33198,9.14725,0.622702,-26.633,-11.094,-25.333,21.4845,-48.8044,-19.6402,1013.34
84980,1.58114,9.18073,0.952688,-26.073,-10.744,-25.893,21.0196,-47.8175,-19.3299,1013.34
84986,2.03069,9.90765,0.460101,-26.703,-15.434,-25.333,21.9785,-48.8969,-17.9852,1013.34
84992,2.22198,10.0942,0.880952,-29.713,-17.534,-26.523,21.9494,-48.2184,-19.2264,1013.34
84998,2.19807,9.63984,0.02012,-31.953,-12.004,-23.373,21.9494,-47.7558,-20.5711,1013.34
85004,1.90634,9.6781,0.694438,-31.813,-11.864,-25.823,22.4434,-47.9408,-19.8766,1013.34
85010,1.74374,9.64462,1.18224,-35.103,-14.594,-26.033,22.1818,-48.9894,-19.4333,1013.34
85016,2.12633,10.0081,0.780522,-34.123,-17.954,-26.733,22.24,-47.139,-20.9553,1013.34
85022,1.56201,9.0803,1.13442,-39.513,-16.974,-27.503,21.7751,-46.4914,-21.3394,1013.34
85028,2.07851,9.19986,0.417059,-34.683,-21.734,-28.063,22.3271,-48.7118,-19.5072,1013.36
85034,0.868563,8.25294,1.10094,-30.553,-13.334,-27.293,22.9954,-47.2007,-21.0587,1013.36
85040,2.56632,11.0937,2.26307,-24.603,-35.244,-30.933,22.7049,-47.5091,-20.7484,1013.35
85046,2.86761,8.85552,-0.305083,-40.563,-11.724,-33.033,22.0947,-47.3549,-20.6745,1013.35
85052,1.00247,6.933,1.70831,-18.023,-12.144,-33.733,23.0826,-48.095,-19.9209,1013.32
85058,3.38889,13.2314,4.0756,-17.603,-32.374,-38.353,22.9664,-45.8746,-21.3838,1013.32
85064,6.44006,10.7924,2.44001,-41.683,-12.214,-50.393,22.7339,-46.6456,-21.8123,1013.32
85070,4.67535,8.52554,4.94121,-26.493,2.766,-53.893,23.286,-47.7866,-20.5415,1013.32
85076,2.59979,9.39594,3.32476,-11.793,14.176,-60.683,23.6347,-45.5353,-22.5216,1013.32
85082,1.79157,10.2329,3.24824,-9.483,9.696,-59.423,24.3611,-45.9979,-21.768,1013.34
85088,2.32241,9.36724,3.94647,-8.713,5.426,-64.603,23.6056,-46.9848,-22.1965,1013.34
85094,3.85756,9.81679,2.64088,0.247,4.796,-64.603,24.797,-45.8746,-21.7975,1013.34
85100,3.48454,10.405,3.75517,7.597,11.236,-74.613,24.3902,-45.2269,-21.8271,1013.34
85106,4.06799,11.1559,1.66048,10.187,9.276,-78.673,25.32,-46.2138,-21.0291,1013.34
85112,3.47497,11.1846,2.60262,14.387,10.466,-87.913,25.5815,-46.5222,-21.369,1013.34
85118,3.97712,11.1941,2.39697,17.327,8.646,-95.613,25.6396,-43.3766,-21.9305,1013.33
85124,4.30233,11.1702,3.97517,19.357,7.806,-106.323,26.0173,-44.3943,-23.1865,1013.33
85130,4.96708,11.4571,1.94264,27.827,11.796,-111.083,26.4241,-46.0905,-20.5267,1013.33
85136,3.91973,12.0023,3.13346,28.387,12.636,-123.473,27.2087,-44.2709,-21.3542,1013.33
85142,3.88626,11.2515,3.06173,30.627,15.016,-127.743,28.0804,-44.0242,-21.768,1013.33
85148,3.39845,10.8211,3.90343,45.187,16.906,-138.873,28.7487,-44.8877,-19.8766,1013.33
85154,3.72844,11.5911,3.59736,49.807,9.486,-146.923,29.3298,-44.1476,-20.4381,1013.33
85160,4.23059,12.4136,2.84652,54.847,7.456,-158.053,29.7366,-43.4074,-20.2608,1013.36
85166,4.07277,12.2845,2.05264,57.507,12.776,-165.823,31.1023,-44.1476,-19.5515,1013.36
85172,3.38889,12.6814,2.44958,61.987,2.066,-181.713,31.5962,-43.8392,-18.458,1013.35
85178,4.08712,12.7388,1.43093,63.947,-5.074,-191.653,31.2766,-42.8523,-19.2708,1013.35
85184,4.67057,15.5748,0.283152,70.107,-7.034,-207.823,32.6713,-42.7289,-17.7636,1013.35
85190,5.32098,16.5026,-0.33856,57.857,-9.624,-227.213,33.7755,-43.0682,-18.1182,1013.32
85196,5.24924,15.8139,-0.902883,53.447,-11.444,-240.723,34.5019,-40.4776,-19.1821,1013.32
85202,5.99051,15.8665,-0.348125,51.907,-20.054,-262.353,35.1993,-39.9225,-18.2807,1013.34
85208,7.13829,18.0521,-1.58677,53.937,-17.674,-279.293,36.4487,-41.0944,-17.7192,1013.34
85214,8.19042,20.2281,-3.47581,32.517,-18.444,-307.223,38.0178,-39.5216,-18.4433,1013.33
85220,7.50653,20.6776,-4.16448,21.317,-15.504,-325.913,38.5699,-37.9488,-20.0391,1013.33
85226,9.02256,19.4964,-4.72402,8.857,-20.404,-355.173,40.2842,-36.746,-17.601,1013.33
85232,8.30041,19.8933,-1.79241,12.707,-7.454,-374.143,40.8654,-35.8825,-18.2807,1013.33
85238,9.13255,19.4103,-0.204653,6.687,-22.644,-407.813,41.8823,-33.4462,-18.9161,1013.33
85244,9.18994,20.8163,1.72265,17.047,-10.674,-430.773,42.6378,-32.2434,-18,1013.33
85250,7.64522,21.2419,1.03877,19.007,4.376,-466.263,44.788,-30.7939,-16.8622,1013.33
85256,8.23346,22.2702,3.19563,13.967,-7.524,-486.983,45.3401,-28.0492,-16.3894,1013.3
85262,3.76192,18.1143,3.38693,32.447,19.706,-483.833,45.9793,-25.9829,-16.7735,1013.3
85268,0.729874,22.9062,3.64996,85.507,25.236,-482.153,46.5895,-25.1811,-16.0495,1013.29
85274,7.32959,24.4509,0.24011,42.317,-46.724,-502.663,47.868,-21.542,-16.4485,1013.29
85280,6.5644,19.8646,2.87521,40.847,-9.904,-500.843,48.5363,-18.6739,-18.2068,1013.31
85286,2.78631,28.5973,4.11385,81.797,-29.504,-488.243,49.7567,-17.8104,-15.5175,1013.31
85292,10.5242,30.8402,-0.09944,58.627,-61.004,-495.523,50.6575,-15.5591,-16.5814,1013.3
85298,12.8485,21.811,-0.314648,43.367,-1.504,-503.223,50.8609,-11.9817,-17.0247,1013.3
85304,7.76478,18.6786,-1.3046,63.527,17.186,-480.753,50.9481,-10.3164,-15.5323,1013.3
85310,4.07755,18.2099,-4.04014,60.167,-4.024,-441.483,51.6745,-8.58933,-15.4584,1013.3
85316,8.80735,15.2592,-2.06022,41.827,-73.954,-421.323,50.7156,-6.27635,-16.8179,1013.3
85322,16.5214,4.97221,-15.3457,-16.973,-94.884,-381.703,50.7737,-4.48764,-17.0543,1013.27
85328,7.41089,-2.62224,-10.0707,9.837,114.696,-308.903,51.7907,-3.34657,-18.7979,1013.27
85334,-22.46,17.0526,2.69348,30.767,116.376,-177.093,51.4711,-1.34199,-15.1481,1013.26
85340,-9.031,12.8345,4.72122,25.307,-175.664,-17.913,49.6986,-1.37283,-16.3598,1013.26
85346,9.38124,12.3323,-7.70824,7.737,-146.754,55.167,50.6284,-2.17466,-17.4828,1013.3
85352,9.88817,7.27733,-4.05448,-6.543,-22.434,147.777,50.425,-1.77374,-16.0938,1013.3
85358,7.66435,6.26824,-0.572898,4.727,-30.624,183.967,49.5824,-2.6681,-18.0295,1013.3
85364,12.3224,6.16303,-2.2037,8.227,-41.894,212.177,50.3088,-4.02504,-17.601,1013.27
85370,14.001,4.8957,-2.50499,11.727,-19.144,216.517,51.0062,-6.09131,-16.877,1013.27
85376,13.0111,4.62788,-1.62024,21.107,14.246,213.157,49.6114,-6.21467,-18.9752,1013.24
85382,11.6242,4.55136,-1.18504,21.317,26.006,209.027,50.4541,-7.63329,-18.7979,1013.24
85388,10.2708,3.47532,-1.4146,19.567,34.826,204.407,50.7156,-9.05192,-17.1429,1013.25
85394,9.1995,3.17881,-1.24722,18.867,40.496,204.477,50.1054,-10.3164,-16.9952,1013.25
85400,7.8413,3.4275,-1.9311,15.577,55.686,209.797,49.1465,-10.3164,-16.6849,1013.2
85406,6.22007,3.95835,-1.70154,9.767,61.356,217.917,51.2386,-12.5985,-15.7096,1013.2
85412,5.06273,4.57049,-2.0937,1.647,66.536,233.457,50.396,-13.0919,-14.9856,1013.22
85418,4.50797,5.28307,-2.35673,-6.263,69.266,244.937,50.3088,-14.1713,-17.2168,1013.22
85424,3.48454,5.35959,-2.26108,-19.913,72.276,262.717,50.3669,-16.2376,-15.7983,1013.22
85430,2.49458,5.29742,-1.94066,-23.763,69.616,275.037,50.1926,-17.8721,-14.4093,1013.2
85436,2.06416,5.0583,-1.40025,-31.113,68.706,291.417,49.6405,-18.6431,-15.3993,1013.2
85442,1.06464,4.77135,-0.668546,-30.973,60.026,301.917,49.6696,-20.0309,-15.3993,1013.21
85448,1.00725,4.60875,-0.601592,-27.543,43.786,316.687,49.379,-21.5729,-13.6262,1013.21
85454,1.04073,4.52745,-0.505944,-24.183,37.906,329.917,48.3911,-23.084,-14.5866,1013.21
85460,0.619878,4.65658,-0.262042,-17.463,23.766,337.827,47.4322,-24.8419,-15.3254,1013.21
85466,1.0216,4.99134,-0.539421,-10.183,9.486,348.187,47.839,-26.6306,-14.4241,1013.23
85472,1.55723,5.72305,-0.658981,-6.683,3.606,354.347,46.4733,-28.4501,-14.3945,1013.23
85478,1.69114,6.50737,-0.639851,-3.533,-5.354,362.887,45.3692,-29.3445,-15.222,1013.23
85484,1.92547,7.08604,-0.725934,-2.413,-10.814,368.277,44.5846,-31.3491,-14.8083,1013.22
85490,2.34632,7.93252,-0.745064,-2.763,-17.674,375.067,44.2359,-33.9704,-13.6262,1013.22
85496,2.58544,8.46337,-0.745064,-3.393,-20.754,378.497,42.3763,-33.7237,-14.7048,1013.23
85502,2.69544,9.31463,-0.539421,-4.023,-23.834,381.927,41.1559,-35.6975,-15.1777,1013.23
85508,2.52327,9.94113,-0.328995,-4.303,-26.704,383.467,40.691,-38.2263,-14.2024,1013.23
85514,2.2172,10.888,-0.0946576,-4.023,-32.794,384.727,39.0638,-38.9665,-16.0347,1013.23
85520,2.15503,11.505,-0.0420512,-3.253,-37.064,384.447,37.1461,-39.9225,-15.6653,1013.25
85526,2.18851,12.6001,-0.109005,-2.553,-42.664,381.997,36.6812,-42.3588,-14.6753,1013.25
85532,2.13112,13.1214,-0.0420512,-2.623,-45.814,378.427,34.4147,-44.5485,-16.4928,1013.24
85538,1.99721,13.5184,0.393147,0.317,-51.414,370.377,32.7004,-44.2401,-17.1134,1013.24
85544,1.98286,13.9296,0.670526,4.797,-55.474,363.727,31.974,-46.0905,-17.2907,1013.24
85550,1.69114,14.6566,0.9766,11.167,-61.214,352.947,30.4921,-48.1259,-15.8426,1013.25
85556,1.52375,14.7379,1.38789,15.717,-65.484,345.947,28.5743,-47.6633,-16.3155,1013.25
85562,1.79157,14.9818,1.60788,26.007,-72.624,334.817,27.8479,-48.866,-16.9656,1013.26
85568,2.09286,15.7757,1.68918,35.107,-75.564,327.607,25.349,-50.6547,-17.335,1013.26
85574,2.03547,17.7556,2.27741,51.347,-78.714,319.977,24.1577,-50.5005,-17.0691,1013.27
85580,1.76287,19.6351,2.6074,61.287,-80.744,319.347,22.2109,-50.223,-19.0491,1013.27
85586,1.80113,22.3945,2.4448,71.297,-82.774,327.887,20.8162,-52.1967,-16.6553,1013.29
85592,2.36067,24.0157,1.77048,74.167,-80.114,338.947,19.1309,-53.0911,-15.9313,1013.29
85598,3.25498,26.3735,0.861822,72.977,-67.094,358.617,16.8645,-52.4126,-16.8031,1013.29
85604,3.60888,28.4251,0.134898,61.637,-47.214,386.127,15.3245,-54.3247,-16.3302,1013.27
85610,3.49888,29.0899,0.689656,50.997,-30.484,400.547,12.1573,-54.9723,-16.1234,1013.27
85616,1.27985,28.9512,1.89482,40.427,-10.884,414.617,10.8497,-54.263,-16.6258,1013.28
85622,-0.747888,28.6881,2.55957,34.827,-0.944,418.187,8.08932,-54.1396,-16.5667,1013.28
85628,-4.07644,28.5781,3.42997,32.167,7.176,414.617,6.14251,-55.7125,-15.7835,1013.26
85634,-6.41981,28.8125,4.28602,32.167,9.346,406.847,2.91721,-53.9546,-17.2316,1013.26
85640,-9.45664,29.2046,5.06077,33.217,10.956,387.807,1.52249,-54.0471,-17.0247,1013.31
85646,-10.7527,29.5155,4.84078,33.497,12.776,369.887,-1.17979,-55.219,-15.5028,1013.31
85652,-12.0678,30.1755,2.35393,24.817,23.836,336.427,-2.98131,-54.5097,-15.5471,1013.31
85658,-12.9287,30.778,-0.845494,9.627,35.666,310.037,-3.85302,-52.1042,-15.5471,1013.31
85664,-14.306,31.9593,-8.49255,-33.073,53.446,264.467,-6.20662,-53.5228,-16.1234,1013.31
85670,-17.735,31.6915,-12.6437,-74.583,66.466,232.687,-7.92096,-53.9854,-17.5124,1013.32
85676,-25.7694,23.5136,-8.1817,-132.053,77.246,186.417,-7.92096,-52.4743,-16.345,1013.32
85682,-30.9727,14.1879,-1.18504,-133.103,83.196,155.057,-8.85078,-51.5491,-17.7192,1013.31
85688,-41.1209,5.20655,6.05073,-74.443,71.856,114.597,-9.60626,-52.4126,-17.0395,1013.31
85694,-46.9459,3.62836,7.1985,-25.303,24.956,94.647,-10.0131,-52.4743,-17.4237,1013.33
85700,-45.4777,4.26442,7.62892,62.687,-77.524,67.207,-10.3908,-50.9631,-18.5172,1013.33
85706,-38.1032,9.49637,4.31471,109.377,-115.674,39.977,-11.1463,-52.1042,-16.4485,1013.34
85712,-27.6441,17.6312,0.713568,118.407,-99.924,-13.643,-10.8266,-51.8267,-15.6653,1013.34
85718,-23.3543,20.3763,0.330976,108.047,-78.994,-54.103,-10.7104,-51.3332,-16.1382,1013.34
85724,-18.4619,22.9445,0.225763,90.617,-60.444,-109.893,-10.9138,-52.3201,-16.212,1013.36
85730,-15.0999,23.4227,0.0392496,70.457,-46.864,-139.783,-10.5651,-53.4612,-13.0351,1013.36
85736,-11.2405,21.9115,0.804434,46.097,-16.484,-171.283,-10.4198,-51.6108,-16.1086,1013.32
85742,36.9326,69.1185,-1.25678,196.177,-690.864,-309.253,-8.82172,-53.2453,-13.3454,1013.32
85748,39.1995,34.2548,-37.0339,-307.403,-339.044,-274.183,-8.41493,-53.6154,-13.8626,1013.3
85754,33.1019,-15.9556,-15.1736,-293.333,259.946,-193.543,-6.09039,-53.4303,-17.0543,1013.3
85760,15.5601,-15.7882,3.33911,-111.823,315.106,-170.023,-4.66661,-52.8135,-17.5715,1013.32
85766,8.59692,-0.632758,-3.47581,55.477,172.586,-243.173,-3.47528,-54.5714,-15.6062,1013.32
85772,10.3808,7.56906,-0.654198,21.457,139.266,-259.693,-2.57452,-54.7873,-17.0691,1013.32
85778,13.2454,3.52315,5.38597,-56.243,175.736,-295.673,-0.104693,-53.9546,-17.5862,1013.31
85784,7.64044,-0.154518,7.41849,-32.093,264.916,-277.823,1.05758,-55.3115,-17.7045,1013.31
85790,-5.18596,7.14342,7.66718,27.057,330.366,-292.383,3.03344,-55.5583,-15.8574,1013.34
85796,-15.7742,14.3409,11.9426,21.177,268.136,-278.593,5.15458,-54.9723,-17.9704,1013.34
85802,-17.2854,14.7809,16.0842,-6.333,80.256,-267.463,6.63648,-55.0648,-17.2907,1013.34
85808,-11.0205,17.0334,14.1473,8.437,-14.104,-255.703,7.3629,-55.99,-16.1086,1013.34
85814,-4.5212,24.1018,2.74609,-16.763,-71.434,-229.313,9.13536,-54.8489,-18.3842,1013.35
85820,-1.15917,19.9124,-1.29504,-44.903,-86.764,-214.963,10.4139,-53.7696,-18.9752,1013.35
85826,2.37502,11.218,2.1722,-45.183,-60.374,-201.383,11.1403,-55.4657,-19.2264,1013.35
85832,1.54288,10.3189,0.646614,-18.863,-41.614,-204.323,11.8667,-55.4657,-17.3646,1013.32
85838,3.34585,11.4571,-2.92106,5.777,-31.884,-184.653,12.0701,-53.9238,-19.1673,1013.32
85844,4.46971,12.7723,-3.80102,21.527,2.346,-178.003,13.9007,-54.5097,-17.9409,1013.34
85850,-5.83636,30.2089,-7.75128,76.967,126.596,-96.593,14.2784,-55.8975,-16.0052,1013.34
85856,-8.03148,25.8474,-0.587245,-1.783,121.136,-73.143,15.2082,-53.7387,-15.887,1013.3
85862,-4.40642,5.75175,8.2315,-63.383,15.856,-53.053,15.2663,-53.7079,-18.0739,1013.3
85868,3.17368,0.122861,4.01342,-0.383,-15.574,-50.533,15.4697,-54.6947,-16.4337,1013.32
85874,4.26407,10.6394,-0.23813,46.307,10.676,-50.323,15.9056,-53.9238,-16.8474,1013.32
85880,0.873346,13.131,0.608355,14.037,43.856,-45.633,16.4867,-53.677,-17.7636,1013.34
85886,-1.93392,9.77374,2.70305,8.857,35.596,-38.983,16.3124,-54.3555,-17.0543,1013.34
85892,-1.26917,9.87896,1.47397,20.827,-11.234,-25.613,16.3124,-53.9238,-15.7983,1013.34
85898,2.17416,11.0889,-1.39547,18.587,-23.484,-23.233,16.632,-53.3686,-16.6997,1013.33
85904,4.27841,10.7828,-1.83067,3.537,-6.474,-23.863,16.6029,-53.7696,-17.2316,1013.33
85910,3.45106,9.64462,-0.855059,-0.453,5.426,-25.053,16.0509,-54.4172,-16.0052,1013.33
85916,1.55245,10.4911,0.134898,-1.993,10.676,-24.213,17.0097,-53.0602,-17.6306,1013.33
85922,0.887693,10.6202,0.608355,-8.293,5.076,-21.623,17.2422,-52.536,-18.0148,1013.33
85928,2.04982,9.94591,0.536619,-14.593,-2.624,-18.403,17.0097,-54.3863,-17.468,1013.33
85934,2.77196,10.075,-0.0133568,-15.153,-0.874,-17.423,17.4165,-54.2322,-17.1134,1013.3
85940,2.69066,10.075,0.206634,-17.813,3.536,-18.823,16.7192,-53.6154,-17.9261,1013.3
85946,2.4898,9.69723,0.684874,-18.373,2.906,-19.313,17.4456,-54.6331,-17.3498,1013.3
85952,2.55675,9.52984,0.813998,-16.483,4.026,-19.033,17.5037,-53.7079,-16.6258,1013.33
85958,2.29372,9.30507,1.14398,-15.223,4.376,-19.453,17.4456,-53.6462,-17.6453,1013.33
85964,2.04982,9.38637,1.2205,-13.823,1.716,-18.473,17.5909,-52.721,-17.3203,1013.34
85970,2.10242,9.45332,1.04355,-12.423,-1.994,-18.333,16.5448,-54.263,-17.1429,1013.34
85976,2.58066,9.49158,0.871387,-10.883,-5.354,-18.893,17.2422,-52.9677,-18.6501,1013.34
85982,2.73848,9.23812,0.818781,-9.693,-5.844,-20.013,17.0388,-52.5668,-17.7488,1013.34
85988,2.5711,9.2142,0.813998,-6.473,-3.464,-20.993,17.3875,-54.2938,-18.0591,1013.3
85994,2.13112,9.37202,0.890517,-5.003,-3.604,-20.993,17.5618,-53.2761,-19.3594,1013.3
86000,2.10242,9.37202,0.785304,-4.303,-5.914,-20.363,18.3464,-51.7958,-18.8718,1013.32
86006,2.37502,9.33376,0.589226,-3.743,-7.594,-21.203,17.7071,-53.7079,-16.3155,1013.32
86012,2.39415,9.57288,0.292717,-2.903,-5.564,-21.273,17.5909,-53.4612,-17.1577,1013.32
86018,1.96852,9.83592,0.35967,-5.703,-4.864,-20.923,19.0437,-52.6902,-18.0295,1013.32
86024,1.91591,9.52506,0.431406,-6.333,-6.194,-20.363,17.678,-53.1219,-17.7045,1013.32
86030,2.18851,9.64462,0.173157,-7.173,-8.154,-19.593,18.8984,-54.9723,-16.5519,1013.33
86036,2.42763,9.68766,-0.152046,-8.853,-6.264,-19.803,18.9856,-52.721,-17.5419,1013.33
86042,1.94939,9.97939,-0.314648,-11.933,-7.314,-20.013,17.7652,-52.6902,-19.1525,1013.33
86048,2.0546,10.1037,-0.309866,-15.993,-7.944,-19.593,18.0267,-53.8004,-17.7931,1013.33
86054,2.22198,9.85983,-0.09944,-21.663,-7.174,-19.383,18.3754,-52.6593,-18.5763,1013.29
86060,2.23155,9.70201,0.00577281,-24.393,-5.914,-19.593,18.7241,-51.0865,-19.0639,1013.29
86066,2.18851,9.78331,0.02012,-26.423,-4.094,-19.733,18.7822,-52.536,-18.3842,1013.29
86072,2.10242,10.0511,0.177939,-28.593,-3.604,-19.663,19.1309,-53.0911,-18.1921,1013.31
86078,2.16459,9.61593,0.445754,-30.903,-5.844,-20.503,19.1599,-51.4874,-19.4628,1013.31
86084,2.15981,9.42463,0.675309,-29.993,-5.004,-21.553,19.7411,-52.0425,-19.8323,1013.36
86090,1.79157,9.39594,1.18224,-27.193,-6.684,-21.903,19.1599,-52.9369,-18.8866,1013.36
86096,1.55723,9.11856,1.36397,-26.143,-7.034,-21.553,19.7701,-51.6108,-19.2855,1013.36
86102,2.05938,9.48202,0.909646,-24.743,-8.364,-21.063,19.4215,-51.4566,-20.4233,1013.36
86108,1.99243,9.36724,1.16311,-23.623,-6.194,-21.203,19.7411,-51.7033,-19.4481,1013.32
86114,1.82983,9.37202,1.35441,-24.393,-7.314,-21.763,19.8573,-51.179,-19.1525,1013.32
86120,2.22676,9.82635,0.842693,-23.203,-11.794,-22.043,19.683,-50.7164,-21.0439,1013.32
86126,2.5424,9.79287,0.83791,-22.783,-8.924,-22.953,19.5377,-51.8883,-20.2755,1013.3
86132,2.36067,9.46767,1.27789,-25.093,-7.454,-25.053,19.7411,-51.765,-20.3199,1013.3
86138,1.74374,9.38159,1.25876,-23.833,-8.784,-25.543,20.4094,-50.0379,-21.3099,1013.34
86144,1.8107,9.84548,1.1679,-22.363,-11.024,-25.613,20.7871,-50.994,-21.2803,1013.34
86150,2.21242,9.68766,1.45006,-19.983,-12.564,-27.923,20.4675,-52.3201,-21.6645,1013.35
86156,1.83939,9.44854,1.24441,-18.793,-13.054,-29.043,20.6709,-50.994,-21.7089,1013.35
86162,1.50462,9.39594,1.50745,-21.103,-15.994,-29.183,20.4966,-50.994,-21.6645,1013.32
86168,1.69592,9.74027,1.40223,-20.333,-19.424,-31.283,20.9034,-51.765,-20.113,1013.32
86174,2.18372,9.55854,0.220981,-18.513,-21.244,-31.003,20.4675,-51.5183,-21.8271,1013.36
86180,2.26024,10.295,-0.0468336,-18.023,-21.384,-32.823,21.4264,-49.637,-21.8418,1013.36
86186,1.96373,10.888,0.574878,-22.013,-23.834,-33.593,20.9905,-50.7781,-21.9896,1013.36
86192,1.32289,8.9703,0.374018,-25.373,-20.614,-33.243,21.0486,-50.6547,-21.8566,1013.34
86198,0.634226,7.75557,1.82787,-19.353,-21.594,-33.313,21.2811,-50.1305,-21.2803,1013.34
86204,4.24494,10.7972,6.11768,1.927,-38.814,-41.433,21.1649,-50.0071,-22.5807,1013.34
86210,9.18994,14.4079,5.50075,4.867,-42.104,-55.223,21.3973,-50.9015,-22.0635,1013.34
86216,7.19568,10.6585,2.87043,-22.013,10.956,-73.703,22.0656,-49.5137,-21.1326,1013.34
86222,4.06321,7.74601,-0.0085744,-4.653,31.186,-65.163,23.0245,-50.0688,-22.0044,1013.34
86228,-0.174,9.42941,4.93164,16.277,18.026,-79.583,23.1698,-50.0379,-21.1326,1013.32
86234,2.3272,11.3758,2.47827,18.727,-3.674,-80.213,22.7049,-49.7912,-20.6745,1013.32
86240,4.80448,11.2706,3.37258,18.867,3.396,-87.493,23.1988,-48.5268,-22.7728,1013.32
86246,5.3162,10.8928,2.05264,22.927,12.076,-91.833,23.7219,-49.9763,-21.1917,1013.34
86252,3.4128,11.0028,3.42997,26.077,10.676,-105.623,24.2158,-49.637,-20.6893,1013.34
86258,3.86235,11.3328,1.71309,32.937,8.716,-108.493,25.0294,-48.3726,-22.0635,1013.33
86264,3.38411,11.7154,3.03303,38.467,6.966,-121.933,25.4072,-49.4212,-20.3642,1013.33
86270,4.03451,11.5671,3.20042,40.357,6.476,-126.553,26.3079,-50.3155,-19.3594,1013.33
86276,3.86235,11.0793,2.86087,44.417,11.656,-138.243,27.383,-48.7427,-20.0539,1013.33
86282,3.80974,12.0119,0.981382,53.237,9.346,-149.653,27.8189,-48.1259,-19.8618,1013.31
86288,4.03451,13.4705,2.71261,50.367,-2.344,-159.033,28.2547,-48.4343,-18.8127,1013.31
86294,5.24446,13.064,0.828346,48.967,2.276,-173.453,29.2136,-47.91,-19.2264,1013.31
86300,4.57014,13.0306,0.436189,51.487,3.676,-181.573,29.3589,-46.9848,-19.8618,1013.32
86306,4.16364,13.6284,0.488795,51.627,-5.144,-198.793,30.3177,-47.1082,-17.9704,1013.32
86312,4.63231,14.7092,0.436189,50.857,-7.244,-207.963,31.8578,-46.8923,-17.867,1013.32
86318,5.67966,15.7517,-0.271606,50.087,-9.974,-228.963,32.1483,-45.4737,-19.4037,1013.32
86324,5.804,16.1391,-1.23765,47.287,-10.674,-243.033,33.1653,-45.3195,-19.1378,1013.32
86330,5.35445,17.636,-3.11713,46.027,-9.204,-268.933,34.4438,-47.0465,-16.7588,1013.32
86336,5.32576,18.7455,-3.77232,34.477,-21.384,-284.403,35.1121,-44.4868,-17.6158,1013.33
86342,6.9996,19.4342,-3.14583,20.757,-32.444,-309.603,36.2163,-43.099,-17.601,1013.33
86348,6.86091,19.7307,-1.51981,11.097,-41.894,-325.913,38.5118,-42.7906,-17.4089,1013.32
86354,11.3898,19.1042,-0.764194,8.227,-31.464,-357.133,39.1801,-41.2795,-17.7931,1013.32
86360,10.2516,19.6637,1.80874,15.927,-14.104,-375.123,40.0227,-39.4599,-18.4285,1013.32
86366,11.3898,19.5777,2.50697,18.097,-12.074,-409.353,42.1148,-38.7506,-18.3251,1013.29
86372,10.6294,20.9502,2.71739,24.677,5.216,-435.743,42.8703,-36.6535,-17.8965,1013.29
86378,7.80304,24.0588,1.94264,29.297,25.866,-470.393,44.0907,-33.9088,-17.8374,1013.31
86384,7.15264,23.241,1.74657,13.477,7.386,-484.883,45.4854,-32.8602,-17.2168,1013.31
86390,3.19281,17.5356,3.51605,46.167,25.586,-484.813,47.1416,-31.4724,-17.3055,1013.32
86396,1.85374,22.4375,3.803,86.067,7.876,-490.553,47.2869,-28.1417,-16.4189,1013.32
86402,8.54432,25.7709,1.53136,49.457,-50.504,-502.803,48.2748,-25.6437,-16.4632,1013.27
86408,9.88817,27.1578,0.708786,53.377,-15.714,-498.813,50.0473,-24.3176,-14.956,1013.27
86414,9.26646,32.8584,-3.53799,50.787,-0.664,-504.343,50.7737,-21.6654,-14.9413,1013.27
86420,10.1464,30.9454,-4.77663,22.787,8.156,-507.073,50.7156,-18.0571,-16.1382,1013.28
86426,10.3568,17.746,1.80396,11.167,12.636,-498.393,52.7205,-17.317,-15.754,1013.28
86432,9.07038,12.5141,-4.45621,47.357,20.476,-472.073,52.9239,-14.0171,-15.1481,1013.3
86438,8.94604,15.5509,-4.90575,36.157,1.226,-456.673,52.2847,-11.3649,-15.5619,1013.3
86444,13.0015,9.46289,-8.80819,-7.943,-52.464,-412.083,53.0692,-10.2238,-14.365,1013.26
86450,15.3497,-2.20139,-14.2888,-29.363,-27.894,-388.353,53.4179,-7.88001,-13.6557,1013.26
86456,-13.5934,11.3902,-6.36438,39.167,165.446,-277.823,52.4299,-4.82688,-14.0842,1013.28
86462,-22.1204,17.153,6.4668,31.327,85.436,-148.113,52.2847,-5.53619,-14.2468,1013.28
86468,0.227722,11.0602,-1.88328,19.637,-128.274,-5.523,53.5922,-5.41283,-14.6014,1013.26
86474,10.6342,11.2372,-8.78428,0.737,-50.644,69.167,52.1394,-5.78291,-15.5028,1013.26
86480,7.91782,6.933,-2.49542,-5.213,24.256,154.497,52.0232,-6.06047,-14.8083,1013.26
86486,7.56871,7.12908,-0.878971,2.977,-0.104,186.907,52.4881,-7.63329,-14.6901,1013.27
86492,12.2842,6.58388,-2.98801,0.457,1.716,208.957,53.0692,-8.68185,-12.6952,1013.27
86498,12.5041,5.63219,-2.4476,5.077,22.296,211.687,51.2677,-9.76124,-15.0742,1013.28
86504,10.3999,4.92439,-1.11331,11.657,38.186,208.327,51.6164,-10.7789,-14.0842,1013.28
86510,9.12777,4.30746,-0.71637,12.007,36.856,204.897,51.5292,-11.9509,-13.0203,1013.26
86516,8.07086,2.69579,-1.15635,14.177,34.616,201.537,50.5413,-13.9554,-13.3011,1013.26
86522,7.25307,2.19364,-0.945925,14.527,34.756,201.747,50.5703,-14.5106,-13.9069,1013.21
86528,5.93791,2.0693,-1.40025,17.047,36.016,207.697,50.919,-16.6385,-12.3997,1013.21
86534,5.06751,2.59058,-0.984184,17.117,35.596,214.417,49.8439,-17.1011,-12.6361,1013.21
86540,4.1732,3.93922,-1.02244,16.067,30.696,226.597,48.2748,-16.9161,-14.3502,1013.22
86546,3.81452,5.01047,-1.18504,12.077,28.176,236.327,49.2046,-18.9515,-12.5475,1013.22
86552,3.17368,5.92391,-1.34286,2.487,27.476,253.897,48.5073,-20.3393,-11.6166,1013.18
86558,2.69544,6.31607,-1.44329,-4.093,25.516,274.267,47.6937,-21.1103,-12.71,1013.18
86564,2.33676,6.71301,-1.5772,-15.713,22.926,288.407,47.2869,-22.5597,-12.3997,1013.21
86570,2.23155,6.43085,-1.03679,-26.073,21.806,307.727,47.2288,-24.7802,-10.6266,1013.21
86576,1.9446,6.21086,-0.702022,-28.803,15.646,318.997,46.1827,-25.5203,-12.2667,1013.18
86582,2.19807,6.03869,-0.491597,-32.933,7.526,332.017,44.8171,-26.5689,-13.2124,1013.18
86588,2.19807,5.68479,-0.180741,-32.373,4.026,338.457,44.6427,-28.7277,-12.1929,1013.18
86594,1.96373,5.69914,0.25924,-28.593,-3.604,346.157,43.3933,-29.1286,-12.71,1013.18
86600,1.96373,5.69914,0.321411,-25.583,-8.924,350.637,42.0857,-29.8996,-14.3207,1013.18
86606,2.03069,5.82348,0.412277,-19.493,-15.574,357.077,41.3012,-32.1509,-14.6457,1013.21
86612,1.92547,6.14869,0.546184,-15.713,-20.474,361.557,40.9525,-33.2303,-13.3602,1013.21
86618,1.96852,6.7704,0.732698,-10.043,-28.384,368.977,38.6861,-33.662,-16.4632,1013.21
86624,2.17894,7.32037,0.823563,-6.543,-32.654,373.947,38.5408,-35.6049,-13.7,1013.21
86630,2.49458,8.41554,0.885734,-2.063,-38.114,380.667,36.8555,-36.8694,-14.0842,1013.22
86636,2.72892,9.26203,1.04355,0.037,-40.914,384.307,34.9668,-36.6535,-14.6753,1013.22
86642,3.07325,10.5102,1.20137,2.627,-43.854,388.297,33.8336,-37.4553,-14.4241,1013.21
86648,3.19759,11.5767,1.34006,4.237,-45.394,389.627,32.991,-40.4159,-14.2911,1013.21
86654,3.41758,12.9349,1.43093,4.867,-47.704,389.627,31.48,-40.5085,-14.4684,1013.21
86660,3.66148,13.8005,1.41658,5.217,-48.194,388.437,29.4751,-40.7243,-16.1825,1013.24
86666,3.80496,15.0679,1.41658,5.147,-47.004,384.797,28.4581,-42.6672,-15.5323,1013.24
86672,3.82409,15.9622,1.44528,4.517,-46.514,381.647,27.2087,-43.8392,-14.5866,1013.23
86678,3.89582,17.2582,1.27311,3.117,-45.604,376.117,26.1917,-42.914,-16.9065,1013.23
86684,3.86235,17.9469,1.25398,0.807,-43.224,371.917,24.0415,-43.9625,-17.1429,1013.23
86690,3.70931,18.4012,1.66048,0.107,-40.284,365.197,22.8502,-46.2138,-15.6801,1013.23
86696,3.69496,18.7599,1.88047,2.627,-36.994,358.337,21.9203,-45.6587,-15.621,1013.24
86702,3.6567,19.702,1.95699,10.747,-33.214,355.257,20.7581,-45.6895,-18.99,1013.24
86708,3.19281,20.7207,2.29654,23.067,-26.494,354.837,18.8403,-47.7866,-16.1086,1013.24
86714,2.75283,22.6719,2.24394,31.537,-22.854,358.967,17.126,-47.0465,-16.5814,1013.25
86720,2.60457,24.91,1.37832,42.177,-14.804,372.407,16.6611,-48.0334,-18.0295,1013.25
86726,2.4085,26.0578,0.75661,44.907,-5.354,384.097,14.0169,-49.9454,-16.4632,1013.24
86732,1.29898,27.043,0.809216,44.697,10.396,403.977,11.7505,-50.2538,-16.8326,1013.24
86738,0.347282,27.4065,0.85704,44.137,21.036,414.757,10.9369,-49.0202,-16.7883,1013.26
86744,-1.6135,28.559,1.07703,44.557,40.006,423.437,8.78668,-50.408,-16.6849,1013.26
86750,-3.52646,29.8694,1.19659,44.207,52.746,422.947,6.46214,-51.6108,-16.1529,1013.28
86756,-6.64459,32.0645,0.527054,40.427,70.316,410.487,4.63156,-50.0688,-16.9065,1013.28
86762,-9.02622,33.3271,-0.405514,35.667,82.286,394.247,2.71381,-50.2538,-16.0495,1013.28
86768,-12.7278,34.0492,-1.67285,20.057,96.566,359.597,0.389272,-51.0248,-14.4241,1013.28
86774,-14.9516,32.8727,-2.15587,5.567,103.636,331.527,-1.29602,-50.7164,-16.1529,1013.28
86780,-17.6537,29.6972,-3.43277,-16.133,112.596,284.907,-2.48735,-49.452,-15.4437,1013.33
86786,-19.1745,28.2912,-6.25439,-31.813,116.376,251.447,-3.44622,-50.1305,-14.498,1013.33
86792,-21.6087,27.6264,-12.3663,-65.483,120.156,199.787,-4.49226,-49.8837,-15.9461,1013.31
86798,-25.4633,26.4452,-14.7049,-96.843,121.696,166.607,-5.01529,-48.9277,-16.478,1013.31
86804,-32.4982,17.9469,-9.53033,-132.543,117.706,120.127,-5.50925,-49.6679,-17.6453,1013.33
86810,-36.8024,11.0028,-4.04014,-119.453,106.786,94.087,-6.70058,-50.1613,-17.5567,1013.33
86816,-43.3495,4.88613,0.689656,-52.183,72.906,60.417,-6.03227,-49.2978,-17.8818,1013.35
86822,-46.9459,4.3505,1.85656,2.627,15.996,44.457,-5.91605,-49.4828,-18.9752,1013.35
86828,-43.383,5.70392,1.63657,89.217,-93.484,22.197,-7.16549,-50.1613,-17.6306,1013.35
86834,-35.4538,9.34811,-1.44808,131.637,-128.834,-13.223,-7.45606,-49.9454,-17.0986,1013.33
86840,-27.8402,15.0009,-4.05927,147.667,-122.114,-41.223,-6.46813,-49.4828,-15.6801,1013.33
86846,-22.986,17.0239,-3.59537,152.287,-124.564,-83.363,-7.36889,-50.2538,-15.5766,1013.34
86852,28.0661,54.2262,87.7437,267.857,-428.504,-109.123,-7.57228,-51.4874,-13.1976,1013.34
86858,28.7356,79.855,-51.0798,-185.463,-116.514,-319.123,-4.75378,-50.5622,-13.8035,1013.32
86864,22.2841,18.1238,-49.7264,-370.893,133.806,-262.913,-3.59151,-51.3024,-16.7144,1013.32
86870,21.0599,-32.7035,12.8417,-341.773,250.426,-248.423,-2.7198,-51.1482,-17.2907,1013.28
86876,12.3463,-28.3755,28.0785,-12.843,322.876,-229.453,-0.802056,-49.9146,-18.2512,1013.28
86882,5.39271,-5.95557,13.4921,196.317,139.406,-280.343,0.708897,-51.0557,-14.9856,1013.28
86888,8.92691,5.23525,1.30659,184.487,98.876,-302.953,2.19079,-53.0911,-14.5719,1013.34
86894,8.683,11.4715,3.10477,110.007,198.626,-313.733,3.67269,-53.5228,-14.0695,1013.34
86900,0.505101,9.42463,5.00338,86.207,248.886,-306.103,6.63648,-52.3201,-14.7492,1013.3
86906,-8.46668,12.4136,4.06125,72.417,269.046,-320.383,8.61234,-54.078,-13.6705,1013.3
86912,-19.4566,17.8177,9.09233,44.067,184.206,-322.483,9.77461,-53.4303,-13.0203,1013.33
86918,-23.3686,30.252,8.99669,20.547,-51.834,-290.703,11.2565,-53.0911,-13.109,1013.33
86924,-13.1295,29.9459,-1.29504,-13.473,-140.734,-251.993,13.029,-52.7827,-13.9808,1013.35
86930,-0.747888,20.0416,0.0535968,-51.763,-125.124,-232.673,12.7965,-53.3686,-12.3702,1013.35
86936,0.983341,15.3022,0.168374,-57.713,-99.294,-213.703,14.1331,-52.2276,-13.7148,1013.31
86942,3.29802,10.8785,-2.70107,-35.033,-65.204,-207.193,16.0509,-51.3949,-15.1925,1013.31
86948,-4.13861,28.076,-13.7006,56.387,28.246,-182.623,16.4286,-52.3509,-12.7987,1013.31
86954,-3.55516,29.4151,-8.60255,-20.543,104.896,-61.173,16.9516,-51.9809,-13.242,1013.34
86960,-3.26821,19.1855,-2.39021,-111.123,86.906,-51.653,17.155,-50.7781,-16.1973,1013.34
86966,3.99147,-3.22004,10.2018,-70.873,40.776,-58.723,16.7482,-51.7341,-13.9069,1013.33
86972,3.12107,0.548494,7.17937,12.427,31.956,-54.453,16.3996,-52.0425,-13.9069,1013.33
86978,-1.78089,13.6571,3.35824,29.437,30.136,-50.533,17.7652,-51.2099,-14.8674,1013.32
86984,-1.86697,11.5671,2.22481,-9.833,22.716,-34.783,17.5037,-51.3024,-15.9313,1013.32
86990,-0.341384,7.80818,2.16742,3.187,9.906,-27.643,17.8814,-52.2892,-14.0104,1013.34
86996,1.74374,10.0894,1.39745,16.767,-6.964,-24.213,17.7943,-51.0865,-14.631,1013.34
87002,2.36545,10.6585,0.713568,7.737,-7.244,-23.863,17.9977,-50.9323,-15.0299,1013.34
87008,2.88195,9.76418,-0.83593,2.557,-1.854,-23.303,17.4456,-52.0117,-14.8083,1013.34
87014,2.83891,10.3524,-1.29982,2.627,2.066,-23.023,18.8694,-51.5799,-15.488,1013.34
87020,3.23107,10.5102,-0.754629,-6.683,4.866,-24.773,19.4796,-50.1613,-14.2911,1013.31
87026,3.21672,10.0081,0.091856,-11.653,10.256,-26.943,18.7822,-51.9192,-13.6409,1013.31
87032,2.0546,9.83113,0.947906,-13.613,13.476,-27.783,18.8694,-51.179,-13.966,1013.31
87038,1.84417,9.77374,1.09616,-13.263,10.116,-27.013,18.4335,-50.0996,-15.0299,1013.31
87044,2.08329,9.99852,1.31615,-12.143,8.716,-25.263,19.7992,-50.8706,-14.8231,1013.34
87050,1.93504,9.5155,2.01438,-11.583,7.456,-24.773,18.8984,-51.8267,-13.1681,1013.34
87056,2.05938,9.1616,1.62222,-6.823,5.496,-24.633,19.2181,-50.4697,-14.6162,1013.34
87062,2.03069,10.0176,0.943123,-4.233,7.036,-22.743,19.3052,-50.6239,-13.0499,1013.35
87068,1.46636,9.58723,1.34963,-6.193,2.976,-21.553,18.8113,-51.8267,-13.9217,1013.35
87074,1.71027,9.41985,1.1679,-4.233,-0.874,-20.433,19.1309,-51.0248,-13.2568,1013.32
87080,2.16938,9.63505,0.981382,-1.923,-5.774,-20.153,19.2762,-49.5753,-15.4289,1013.32
87086,2.39893,9.55854,1.00051,-1.433,-5.774,-20.363,19.5667,-51.2407,-14.8822,1013.35
87092,2.39415,9.29072,1.0579,0.317,-5.424,-20.713,18.666,-51.5491,-13.1829,1013.35
87098,2.29372,9.4055,0.87617,2.137,-5.984,-21.063,20.0607,-49.4828,-14.7787,1013.32
87104,2.09764,9.83113,0.421842,1.717,-8.014,-21.273,19.2762,-49.637,-14.5866,1013.32
87110,1.91113,9.96026,0.292717,-0.243,-11.374,-21.273,19.1018,-51.3332,-12.6952,1013.34
87116,1.84896,9.83113,0.220981,-3.323,-14.104,-21.203,19.7992,-50.6547,-14.7048,1013.34
87122,2.08329,9.77374,0.154027,-5.283,-16.554,-20.853,19.8864,-49.4212,-13.5523,1013.34
87128,2.07851,9.69244,0.464883,-7.523,-15.574,-20.783,19.3343,-51.1482,-13.3897,1013.32
87134,2.0546,9.79287,0.216198,-8.363,-16.624,-21.553,19.683,-50.8398,-14.4536,1013.32
87140,1.93982,9.75461,0.125333,-9.693,-17.184,-21.343,20.0026,-49.2053,-14.4536,1013.35
87146,1.98764,9.83113,0.244893,-10.533,-18.724,-21.623,20.206,-50.5314,-14.8526,1013.35
87152,1.97808,9.922,0.321411,-12.353,-21.244,-22.603,19.7411,-50.5931,-14.3059,1013.36
87158,2.4898,10.0655,0.0870736,-14.873,-20.684,-23.233,19.9154,-49.6062,-17.1725,1013.36
87164,1.85374,9.91722,0.632267,-17.743,-22.364,-24.773,20.0316,-49.9454,-15.887,1013.32
87170,2.22676,9.78331,0.455318,-20.333,-20.684,-23.933,19.5667,-50.5314,-15.1629,1013.32
87176,2.24111,10.0655,0.914429,-22.153,-20.544,-25.753,19.5377,-49.1436,-16.1973,1013.32
87182,1.80113,9.34811,0.742262,-26.913,-21.384,-26.803,20.9615,-48.7118,-16.5519,1013.32
87188,2.2985,9.72592,0.39793,-25.443,-19.774,-25.473,20.2641,-50.8398,-16.4928,1013.32
87194,2.0546,9.8407,0.95747,-26.353,-22.644,-27.783,20.7,-49.8221,-15.9313,1013.33
87200,1.79157,9.19029,0.732698,-30.343,-19.984,-27.853,20.5547,-48.2492,-17.0691,1013.33
87206,2.36545,10.2902,0.680091,-27.683,-19.844,-28.483,20.8162,-50.0379,-16.9361,1013.33
87212,2.03069,10.582,1.06268,-31.183,-24.394,-31.073,21.2811,-49.2669,-15.2516,1013.33
87218,1.38984,8.89378,0.594008,-36.013,-19.494,-29.813,21.0777,-48.2184,-17.8522,1013.33
87224,0.906822,8.68336,2.11003,-33.213,-21.874,-30.023,20.8743,-48.1876,-16.9804,1013.33
87230,2.30807,9.90765,0.962253,-30.903,-23.974,-30.863,21.223,-50.0688,-16.6701,1013.32
87236,1.91113,9.89809,0.51749,-33.563,-22.714,-31.703,20.9034,-48.8044,-17.2759,1013.32
87242,0.299458,8.04252,0.579661,-36.293,-15.854,-30.933,21.4554,-48.095,-17.7045,1013.32
87248,1.04073,8.75031,0.804434,-23.553,-33.214,-32.893,21.8913,-48.9894,-17.3794,1013.35
87254,4.26407,11.658,4.47253,-28.383,-39.584,-38.353,22.1818,-48.5576,-18.0886,1013.35
87260,5.9953,9.83592,2.24872,-34.683,-9.764,-46.893,22.3271,-47.6324,-18.7536,1013.32
87266,3.29324,8.40598,3.19085,-27.613,6.546,-48.853,22.6177,-48.866,-17.6158,1013.32
87272,1.44723,7.87991,3.12868,-10.953,8.576,-52.563,22.6468,-48.8352,-17.2612,1013.28
87278,2.27459,10.0559,2.24872,-1.363,-1.224,-55.083,22.1528,-47.4782,-19.0787,1013.28
87284,2.72892,10.1276,3.83169,-7.313,-0.034,-58.723,23.4313,-47.4474,-17.8965,1013.32
87290,3.74279,9.34333,2.70783,-2.553,6.616,-58.023,23.1407,-48.4651,-17.8965,1013.32
87296,2.26981,8.91291,4.10429,7.457,10.396,-64.953,23.809,-47.2315,-18.6501,1013.32
87302,3.1402,10.0798,1.847,15.647,7.456,-66.283,23.8381,-47.6941,-19.4481,1013.33
87308,3.26933,11.1606,2.37784,19.007,9.136,-73.843,24.797,-48.8044,-18.6501,1013.33
87314,3.46062,11.108,1.45006,18.097,12.286,-78.183,24.303,-47.5708,-17.0691,1013.28
87320,2.28415,10.5102,2.97086,18.727,13.336,-83.083,25.0294,-46.8923,-18.5467,1013.28
87326,2.92978,10.1707,1.60788,23.417,12.356,-87.633,25.1166,-47.5708,-17.3203,1013.32
87332,3.20237,11.2898,2.00482,30.627,7.246,-97.363,26.0755,-47.4474,-16.4041,1013.32
87338,3.81452,12.3084,1.22528,30.417,5.286,-103.523,27.0343,-46.3372,-17.2021,1013.31
87344,3.64714,11.7106,2.07655,24.607,3.536,-112.553,26.889,-46.9848,-16.1677,1013.31
87350,3.848,11.5145,2.22959,30.907,10.256,-118.013,27.7026,-48.095,-16.3894,1013.31
87356,2.67631,11.7393,3.24346,36.297,6.896,-129.983,28.1385,-46.0905,-16.3746,1013.36
87362,3.11151,11.7632,3.30563,37.417,3.396,-135.163,28.7777,-45.1036,-16.9952,1013.36
87368,3.50845,10.9933,2.39219,46.237,7.596,-140.903,29.5623,-45.7512,-15.5766,1013.35
87374,2.72892,11.2372,3.23389,51.137,5.216,-150.913,30.1143,-45.412,-14.7492,1013.35
87380,3.70453,12.1649,3.34389,59.957,1.506,-160.993,29.6494,-44.1476,-17.3055,1013.32
87386,3.97712,12.3945,2.37784,63.107,-2.414,-175.973,31.4219,-45.412,-14.8969,1013.32
87392,3.96756,13.4084,1.2205,66.397,0.316,-184.163,32.003,-44.9185,-15.2811,1013.31
87398,4.00582,14.1879,1.28267,67.167,-7.524,-201.033,32.5842,-42.328,-15.8131,1013.31
87404,4.77578,14.757,1.0866,67.517,-14.244,-212.373,33.6593,-43.3766,-15.5028,1013.29
87410,6.13399,16.823,-0.893318,65.137,-12.284,-235.263,35.1702,-43.9625,-12.7396,1013.29
87416,5.72748,17.5021,-1.91197,59.397,-9.134,-252.343,35.2574,-42.4514,-13.8774,1013.29
87422,5.78487,17.813,-3.26061,43.577,-17.184,-277.333,35.9257,-40.601,-14.6162,1013.33
87428,5.30185,18.8412,-4.24578,36.647,-22.784,-293.853,37.2914,-41.3411,-12.4736,1013.33
87434,8.1952,19.4342,-3.69102,18.727,-31.954,-321.013,38.5699,-40.1692,-13.4341,1013.3
87440,7.83652,17.7843,-2.6915,10.677,-24.674,-341.243,38.7151,-37.3937,-13.6114,1013.3
87446,7.99434,19.1616,-0.434208,26.497,-25.584,-373.093,41.3593,-37.2703,-12.1633,1013.3
87452,8.80735,20.5533,-0.104222,27.337,-27.614,-395.283,42.3182,-35.7283,-12.3702,1013.3
87458,8.48214,19.7546,1.77048,30.837,-5.774,-445.893,42.6669,-33.1686,-13.4932,1013.32
87464,5.47401,21.4476,2.69826,49.877,3.816,-469.833,43.9744,-31.8425,-12.3849,1013.32
87470,6.22963,23.9057,0.550966,53.657,-24.674,-493.493,45.9503,-31.3182,-11.5279,1013.32
87476,5.07229,24.6279,-1.14679,57.507,-15.784,-493.633,46.299,-27.4941,-13.2124,1013.31
87482,2.49458,37.6647,4.52036,96.497,1.926,-489.643,46.9963,-25.582,-12.6361,1013.31
87488,6.20572,38.8412,3.4491,21.457,-28.524,-491.533,49.2918,-24.1634,-13.3011,1013.32
87494,7.45871,24.6279,5.45771,6.967,24.606,-482.923,50.0473,-21.3261,-11.3063,1013.32
87500,10.6438,25.9526,2.07177,34.547,0.596,-490.623,49.8439,-18.088,-12.4145,1013.31
87506,14.2641,22.4136,-1.50547,29.507,35.736,-504.903,51.3548,-17.1319,-11.4245,1013.31
87512,11.5429,15.6896,3.0426,51.557,49.736,-506.093,51.9941,-13.8012,-10.0503,1013.26
87518,7.98477,14.0588,-0.348125,90.197,30.836,-478.513,51.3548,-11.4574,-10.5822,1013.26
87524,4.82361,14.7666,-4.47055,80.607,23.066,-437.773,52.2556,-9.97712,-9.7843,1013.26
87530,5.56966,12.691,-1.28069,71.507,-43.504,-404.523,53.0983,-8.92856,-8.55786,1013.27
87536,14.001,1.65801,-10.9937,20.127,-101.814,-350.413,51.5001,-5.62871,-11.2619,1013.27
87542,5.34011,-1.5175,-10.7929,41.617,18.446,-320.243,51.3548,-3.68581,-11.7939,1013.26
87548,-20.4131,22.1697,3.31519,74.237,65.136,-111.643,52.6333,-3.53161,-8.79428,1013.26
87554,-7.95497,17.1673,4.11864,34.827,-108.394,-4.893,51.8198,-2.91481,-10.1389,1013.25
87560,13.1402,12.6958,-9.5112,7.177,-66.744,91.707,51.4711,-3.71665,-10.8186,1013.25
87566,12.485,10.955,-6.18744,-1.013,17.466,163.177,52.3428,-4.9194,-10.9073,1013.25
87572,9.38602,9.12334,-0.104222,-7.803,9.486,206.437,52.1103,-5.47451,-9.34101,1013.25
87578,12.6094,7.76992,-1.38112,-10.533,0.036,216.867,51.6745,-6.73894,-10.2276,1013.22
87584,13.3937,5.39785,-1.82589,-7.173,24.536,214.697,52.0813,-8.15757,-9.60698,1013.22
87590,11.4424,4.35528,-0.692458,-2.343,37.136,208.887,52.6043,-9.85376,-9.38534,1013.22
87596,8.57301,3.04969,-0.43899,3.327,40.986,202.587,52.1975,-9.91543,-9.73997,1013.25
87602,7.46828,2.06452,-0.539421,6.057,37.696,201.187,51.6454,-11.7041,-8.83861,1013.25
87608,6.71266,1.94974,-0.941142,8.437,30.066,202.727,52.0232,-12.9994,-7.36097,1013.22
87614,6.43528,2.07886,-1.18026,8.157,31.256,206.157,51.1515,-13.5237,-9.48877,1013.22
87620,4.94795,3.51836,-1.07983,8.017,32.516,215.257,50.2216,-14.7264,-9.69564,1013.2
87626,3.96278,4.51789,-0.792888,3.187,29.366,224.217,50.8609,-16.3609,-8.1589,1013.2
87632,3.2215,5.0296,-0.620722,-4.583,25.726,241.367,50.2797,-16.8235,-7.9668,1013.23
87638,2.44676,5.14916,-0.228565,-8.713,24.606,255.087,50.2216,-18.7356,-8.14412,1013.23
87644,1.79157,5.10612,0.393147,-15.433,19.286,278.957,49.6696,-20.4935,-8.05546,1013.23
87650,1.11725,4.68527,1.12485,-16.693,14.246,295.757,49.5824,-22.5906,-6.6517,1013.19
87656,0.615096,4.36963,2.11003,-14.383,-2.624,320.467,49.2337,-22.8373,-8.08501,1013.19
87662,1.00247,4.36963,2.22002,-11.653,-15.994,341.397,48.0133,-24.7185,-9.54788,1013.2
87668,1.4281,4.5944,2.54044,-9.343,-22.504,352.177,48.9431,-27.71,-7.25753,1013.2
87674,1.93504,4.98656,2.93738,-5.073,-33.634,363.167,46.9673,-28.481,-7.70083,1013.2
87680,2.58544,5.44089,3.01868,-1.713,-39.234,367.157,45.6888,-29.7762,-9.59221,1013.2
87686,3.38411,6.3878,3.26259,0.457,-42.664,369.537,45.1658,-31.5341,-8.05546,1013.19
87692,3.59931,6.933,3.45388,0.807,-43.154,369.817,44.0325,-33.5387,-9.20802,1013.19
87698,3.82409,7.83209,3.68822,-0.593,-42.944,370.167,42.6088,-34.4022,-9.82863,1013.19
87704,3.9293,8.34381,3.77909,-2.763,-42.104,370.587,41.708,-36.561,-9.13414,1013.22
87710,4.06799,9.28594,3.91299,-6.543,-40.144,371.427,40.9235,-38.9973,-8.91249,1013.22
87716,4.13016,9.99852,3.91778,-10.183,-38.044,372.057,39.5287,-39.5833,-10.996,1013.21
87722,4.07277,10.9885,4.02777,-15.573,-34.894,372.407,37.3785,-40.2001,-11.321,1013.21
87728,3.92452,11.6771,4.1569,-18.933,-33.494,372.477,36.2744,-42.6672,-9.7843,1013.19
87734,3.6041,12.5858,4.34819,-23.553,-32.724,372.057,34.9668,-43.4382,-11.1733,1013.19
87740,3.4128,13.0353,4.39123,-25.933,-33.214,371.567,32.6132,-43.685,-12.6657,1013.23
87746,3.30759,13.6331,4.46775,-27.473,-34.684,370.027,32.2064,-45.6587,-10.464,1013.23
87752,3.39367,14.0396,4.50123,-27.473,-35.874,368.137,30.957,-46.0596,-9.76952,1013.2
87758,3.53714,14.8527,4.4008,-25.303,-36.434,364.497,29.0102,-46.1213,-12.252,1013.2
87764,3.38411,15.6991,4.2095,-24.463,-36.224,362.117,27.2377,-47.8792,-12.7987,1013.2
87770,3.00151,16.6939,4.41036,-23.343,-38.464,359.317,25.6396,-50.0071,-11.4245,1013.24
87776,2.90108,17.5069,4.32906,-21.243,-41.754,357.777,23.7509,-48.6502,-11.7939,1013.24
87782,2.68588,18.9751,4.01821,-17.883,-43.994,357.217,22.0656,-49.4212,-13.3159,1013.22
87788,2.27459,19.9076,4.08994,-16.063,-45.744,357.917,20.3803,-51.3024,-12.2076,1013.22
87794,1.9733,21.2276,4.04212,-9.763,-49.804,360.717,19.3633,-51.3332,-13.4193,1013.24
87800,1.84896,22.5284,3.81256,-1.433,-52.184,366.947,16.8354,-50.7781,-14.6162,1013.24
87806,1.65766,24.6996,3.16694,2.697,-51.624,373.527,15.1792,-51.7958,-14.3207,1013.21
87812,1.31811,26.7417,2.35393,5.637,-48.334,386.267,12.7675,-51.3332,-13.8183,1013.21
87818,1.1029,27.7699,1.85656,5.707,-44.064,395.367,11.2856,-50.7473,-14.0695,1013.21
87824,0.294675,29.0659,0.95747,4.517,-33.564,407.337,9.45498,-51.6725,-14.5423,1013.26
87830,-0.642675,29.9076,0.369235,1.997,-24.184,412.587,6.2878,-51.3949,-13.1976,1013.26
87836,-3.23474,31.1989,-0.0707456,-2.623,-8.924,414.547,5.70666,-50.5314,-13.7148,1013.27
87842,-5.54942,31.9689,-0.0850928,-5.703,-2.414,411.117,2.8591,-50.9631,-13.8626,1013.27
87848,-8.71537,32.3754,-0.372037,-11.023,8.996,397.537,0.999464,-52.135,-12.8873,1013.27
87854,-10.9966,31.7967,-0.362472,-14.313,17.606,382.487,-1.76093,-51.4874,-12.6657,1013.27
87860,-13.3113,30.0176,-1.36678,-21.803,30.346,350.637,-2.16772,-50.0688,-14.4684,1013.29
87866,-14.7603,29.0707,-3.39451,-29.503,38.326,323.757,-4.57944,-50.6239,-14.1138,1013.29
87872,-18.1128,28.0569,-7.71302,-51.623,50.296,278.467,-5.74171,-50.8706,-13.1533,1013.31
87878,-22.063,25.6178,-7.80389,-68.633,56.106,247.877,-5.79982,-50.0996,-14.232,1013.31
87884,-28.1606,19.2812,-4.73359,-78.013,61.776,202.867,-7.60134,-49.452,-14.3945,1013.31
87890,-32.5939,14.9866,-2.12718,-67.163,57.716,174.167,-8.73455,-49.5753,-14.2172,1013.31
87896,-39.1601,10.8115,0.488795,-31.533,29.226,135.177,-8.79267,-48.8969,-14.5719,1013.31
87902,-41.7617,9.88852,0.986165,0.037,-3.464,112.217,-9.28663,-47.0157,-15.9608,1013.34
87908,-40.4275,11.9402,0.177939,49.667,-60.934,75.747,-10.1583,-48.866,-15.0151,1013.34
87914,-36.0564,14.9579,-1.5246,71.017,-84.314,45.087,-9.28663,-48.4343,-15.0595,1013.34
87920,-29.0119,18.4873,-3.30365,70.317,-77.524,-10.073,-8.96701,-48.4343,-14.7492,1013.34
87926,-25.5446,18.8555,-2.58151,64.717,-65.204,-48.853,-9.80966,-48.9586,-12.9612,1013.34
87932,5.74183,53.5375,0.871387,428.577,-413.594,-398.713,-8.76361,-49.3903,-10.2719,1013.34
87938,-4.84162,64.2931,-23.4328,-206.533,65.766,-310.443,-6.46813,-49.2053,-13.3454,1013.34
87944,13.781,-11.0536,-7.51694,-366.413,96.076,-343.553,-4.89906,-49.7604,-13.4932,1013.32
87950,6.90395,-24.3343,2.99956,-148.713,125.196,-314.433,-3.41716,-50.4389,-13.5227,1013.32
87956,7.22437,-9.57585,19.4414,144.727,106.646,-319.963,-0.976396,-49.6062,-15.222,1013.31
87962,11.6242,13.0545,8.22194,178.677,-10.884,-314.713,0.708897,-49.3903,-14.0104,1013.31
87968,11.715,15.5365,-4.92966,128.907,77.806,-322.343,2.19079,-51.4874,-12.6509,1013.32
87974,3.58018,16.3735,-2.96888,93.347,152.006,-296.093,3.17872,-51.9192,-12.5918,1013.32
87980,2.51371,12.2845,-0.907666,55.967,198.626,-291.963,4.22477,-51.3641,-11.7791,1013.3
87986,-8.20365,11.4524,5.1612,22.927,192.956,-311.283,6.25874,-51.765,-11.9121,1013.3
87992,-16.3433,16.3782,11.1296,17.677,94.816,-317.163,8.438,-51.7033,-11.4836,1013.3
87998,-15.9177,30.9933,-2.10327,2.697,-89.774,-271.103,9.86178,-51.2715,-12.3997,1013.33
88004,-5.86506,27.2247,-3.76754,-36.503,-127.154,-239.043,11.3437,-51.8267,-12.2667,1013.33
88010,1.07421,17.7269,2.27263,-58.973,-69.124,-210.903,11.5761,-52.2892,-11.6313,1013.31
88016,2.20285,10.2615,2.4161,-48.333,-35.244,-191.373,12.5641,-50.4389,-12.5327,1013.31
88022,-0.905707,9.86461,2.21046,-11.583,-33.284,-187.313,13.3195,-50.4389,-14.2172,1013.31
88028,-7.13239,23.571,-5.20704,50.367,12.636,-171.143,14.598,-51.0557,-12.1042,1013.31
88034,-4.31556,27.6217,-8.36821,10.677,53.796,-54.943,14.7433,-50.6239,-12.8873,1013.32
88040,-3.02909,18.4729,-0.984184,-70.943,33.846,-48.713,14.569,-49.8221,-12.1781,1013.32
88046,6.24398,-0.302773,4.10907,-37.693,6.756,-55.293,14.3656,-50.3772,-11.9564,1013.33
88052,4.8523,3.60445,3.60692,17.747,22.016,-54.523,15.3535,-51.4874,-12.71,1013.33
88058,-0.159653,12.1219,1.6557,24.257,33.636,-49.903,15.7603,-49.9454,-13.242,1013.33
88064,-2.43608,12.6145,2.44958,4.937,27.896,-40.383,16.109,-50.4697,-12.5623,1013.32
88070,-1.69959,9.32898,2.30132,5.217,-2.624,-24.913,16.0799,-50.9015,-12.9612,1013.32
88076,1.30376,9.99852,0.536619,11.517,-15.574,-18.683,16.5739,-49.7912,-12.9169,1013.33
88082,3.59453,10.5437,-0.242912,2.347,-9.134,-19.103,16.4286,-49.7295,-12.8726,1013.33
88088,3.35541,9.33376,-0.19987,-1.363,1.856,-20.223,16.4286,-51.3641,-11.3506,1013.34
88094,2.72413,9.8933,0.0153376,0.037,7.316,-19.733,17.4456,-51.0248,-12.3406,1013.34
88100,2.17416,10.1898,0.909646,-3.813,6.896,-18.543,15.9637,-49.2053,-12.6361,1013.33
88106,2.26502,9.62071,1.22528,-4.653,4.726,-17.703,16.5448,-50.4389,-12.7396,1013.33
88112,2.66196,9.63027,0.766174,-3.393,1.506,-17.983,17.8524,-50.3463,-12.9464,1013.33
88118,2.70022,9.85983,0.512707,-3.253,1.576,-18.053,17.5909,-49.1744,-13.5375,1013.29
88124,2.46588,10.0989,0.675309,-4.373,2.486,-18.193,16.8063,-49.637,-13.0794,1013.29
88130,2.41806,9.79287,1.3018,-6.123,1.576,-18.683,16.6029,-50.6856,-11.8382,1013.33
88136,2.51849,9.49158,1.27311,-4.863,-2.484,-17.983,16.8645,-49.2669,-13.109,1013.33
88142,2.48501,9.47245,1.18224,-2.973,-4.024,-18.123,17.0097,-49.8529,-13.6705,1013.31
88148,2.51849,9.7307,0.809216,-2.203,-4.934,-18.053,17.1841,-50.9323,-11.7496,1013.31
88154,2.26024,9.6494,0.904864,-2.203,-6.404,-17.773,16.632,-50.1613,-11.6461,1013.33
88160,2.43719,9.46767,0.813998,-1.503,-9.204,-17.563,17.3875,-49.1436,-12.9612,1013.33
88166,2.49458,9.45811,0.790086,-1.013,-10.534,-17.773,16.9516,-50.0379,-10.9369,1013.31
88172,2.57588,9.4868,0.660962,-0.733,-11.444,-18.123,17.3875,-50.7781,-10.8482,1013.31
88178,2.42763,9.50115,0.689656,-0.593,-11.164,-18.123,17.7652,-49.452,-12.5179,1013.31
88184,2.3272,9.46767,0.704003,-0.523,-11.444,-17.563,17.7071,-49.1436,-12.7544,1013.33
88190,2.38458,9.42463,0.560531,-0.803,-11.444,-17.423,17.126,-50.1613,-10.863,1013.33
88196,2.41328,9.53941,0.393147,-1.503,-11.724,-17.003,17.9396,-49.7912,-14.1581,1013.32
88202,2.44676,9.58723,0.149245,-2.483,-10.744,-16.863,18.143,-49.8529,-12.4293,1013.32
88208,2.30807,9.66375,0.177939,-5.633,-8.994,-16.373,17.9396,-50.5005,-12.4884,1013.35
88214,2.30328,9.62549,0.192286,-8.293,-10.464,-16.583,18.143,-49.6679,-12.3702,1013.35
88220,2.56632,9.74505,-0.0085744,-10.953,-10.184,-16.653,18.1139,-48.7735,-13.2863,1013.32
88226,2.60936,9.78331,-0.180741,-14.383,-7.664,-17.353,17.5037,-49.9454,-13.2568,1013.32
88232,2.5711,9.80722,-0.0420512,-16.693,-6.614,-17.913,18.1139,-49.2053,-12.3554,1013.32
88238,2.53284,9.79766,0.130115,-19.773,-5.564,-18.683,18.4045,-48.866,-12.8726,1013.29
88244,2.2985,9.82157,0.000990396,-21.593,-5.144,-18.753,18.3754,-49.3286,-12.0894,1013.29
88250,2.22198,9.52506,0.546184,-24.673,-6.194,-19.103,18.0558,-50.0379,-13.2568,1013.3
88256,2.44197,9.5155,0.541402,-24.883,-5.214,-18.753,18.3173,-49.2669,-13.3454,1013.3
88262,2.2985,9.48202,0.947906,-24.043,-2.274,-18.613,18.666,-48.2184,-14.8526,1013.31
88268,1.9733,9.36246,0.880952,-26.003,-1.294,-18.543,18.666,-49.3286,-13.6114,1013.31
88274,1.92069,9.62071,0.852258,-26.493,-2.974,-17.563,18.6369,-48.866,-13.2272,1013.32
88280,1.98764,9.27637,1.44049,-24.953,-5.774,-18.893,18.2882,-47.324,-14.6605,1013.32
88286,2.1072,9.43898,1.47875,-24.953,-10.814,-21.133,18.8113,-48.9894,-13.0942,1013.32
88292,2.50414,9.88374,0.493578,-23.553,-14.524,-22.533,18.5207,-49.8221,-13.4341,1013.32
88298,2.74326,9.36246,1.14877,-26.773,-12.774,-24.773,18.7241,-48.3418,-14.0399,1013.32
88304,3.0589,9.53462,0.823563,-24.813,-7.874,-25.263,19.1018,-48.5885,-14.6753,1013.32
88310,1.55723,9.22855,1.82308,-23.623,-7.034,-26.453,18.2011,-49.6062,-12.252,1013.32
88316,1.93504,9.56332,0.990947,-22.223,-12.774,-26.663,18.3464,-48.1567,-14.1138,1013.32
88322,2.36545,9.71636,0.833128,-23.343,-14.664,-27.223,18.5207,-47.6941,-14.7344,1013.32
88328,1.97808,9.39115,1.49788,-25.863,-11.724,-27.643,19.3633,-49.637,-13.4932,1013.35
88334,1.96373,9.46289,1.19659,-26.353,-11.794,-26.943,19.9154,-48.5268,-14.6605,1013.35
88340,2.1359,9.72114,1.46919,-26.143,-11.864,-26.733,20.1188,-47.2007,-15.3402,1013.32
88346,1.88721,8.82205,1.95699,-26.633,-9.764,-27.783,19.9154,-48.9277,-14.7639,1013.32
88352,2.10242,8.93204,1.52658,-22.223,-13.474,-29.323,19.5667,-48.4651,-15.5471,1013.32
88358,2.44197,9.72592,0.852258,-20.893,-16.694,-30.863,19.3633,-47.8175,-15.754,1013.34
88364,2.06895,9.36724,-0.0946576,-23.763,-16.414,-30.653,20.5837,-48.4343,-16.3007,1013.34
88370,1.71505,9.49158,0.560531,-22.153,-14.174,-30.233,19.8573,-49.2361,-14.5719,1013.33
88376,1.05986,9.6781,1.36876,-19.703,-18.234,-28.413,20.206,-46.5839,-16.4189,1013.33
88382,1.50462,10.1563,1.67961,-23.623,-27.124,-30.023,19.8283,-47.5708,-15.9461,1013.33
88388,1.45202,8.91291,1.30659,-22.503,-21.804,-29.953,19.189,-48.8044,-16.7735,1013.33
88394,1.90156,9.00856,2.14351,-15.643,-25.584,-31.423,20.0607,-47.8175,-16.3746,1013.32
88400,6.6457,12.141,7.29415,-3.323,-41.824,-44.933,19.3633,-46.0905,-19.3446,1013.32
88406,10.4573,12.9732,5.9503,-5.983,-27.824,-59.003,20.206,-47.8175,-15.8426,1013.32
88412,5.50271,8.91291,1.45006,-3.603,27.476,-68.593,20.6709,-48.2801,-16.6997,1013.34
88418,2.25546,8.38207,2.69348,9.067,39.866,-71.253,20.7581,-46.3372,-17.0543,1013.34
88424,0.471624,10.0894,4.43428,19.007,12.286,-79.373,21.1649,-47.2932,-17.2612,1013.32
88430,3.26933,11.4189,3.00912,20.407,-5.634,-81.123,21.8913,-47.6016,-17.0543,1013.32
88436,4.69448,10.405,3.38693,18.097,3.396,-90.083,22.269,-46.7073,-16.478,1013.32
88442,4.82839,10.6346,2.56914,26.567,9.626,-92.113,23.0536,-45.6279,-17.2464,1013.32
88448,3.33628,11.6819,2.88,35.317,9.696,-107.373,22.5886,-47.2932,-16.2416,1013.31
88454,3.53714,11.2659,2.97564,33.707,6.966,-113.113,23.8962,-46.5531,-15.9017,1013.31
88460,4.06321,11.6198,2.44001,40.287,8.436,-122.073,24.2158,-46.0596,-17.4237,1013.31
88466,3.86235,11.6819,3.62605,40.287,4.796,-127.533,25.1166,-46.6147,-16.6405,1013.31
88472,4.05842,11.3472,3.24346,49.667,11.446,-137.123,26.0464,-46.0288,-15.2072,1013.31
88478,3.98669,12.1602,2.23437,53.027,7.106,-144.543,26.2789,-44.2092,-17.0691,1013.3
88484,4.10147,12.7914,1.87569,49.877,2.276,-155.323,27.4992,-44.7335,-14.6457,1013.3
88490,5.0436,12.8727,2.23437,52.817,3.186,-167.643,27.7898,-46.3063,-14.7196,1013.35
88496,4.83796,13.3271,1.45962,53.657,1.436,-180.313,28.4291,-44.1784,-15.6801,1013.35
88502,4.94317,13.9201,1.19181,49.807,1.296,-193.123,28.923,-43.1915,-14.6162,1013.35
88508,4.68014,13.4514,0.938341,51.067,0.456,-205.583,30.8408,-43.5308,-14.3354,1013.35
88514,4.90969,14.604,0.311846,54.847,-7.034,-223.993,30.7536,-42.4822,-13.0647,1013.32
88520,5.17751,15.8235,-0.859842,55.687,-9.274,-237.153,31.6253,-42.0196,-14.9117,1013.32
88526,5.84704,17.043,-2.18935,50.577,-14.944,-261.163,33.1363,-41.9579,-13.833,1013.32
88532,6.2105,18.3055,-2.79193,42.807,-18.654,-278.103,34.4438,-40.9711,-13.3011,1013.31
88538,7.21481,19.0659,-3.82493,26.847,-27.404,-303.583,34.6181,-39.4907,-13.9808,1013.31
88544,8.08521,19.5059,-3.208,17.817,-29.784,-321.783,36.7102,-38.5964,-14.3354,1013.29
88550,8.13303,19.7068,-2.08892,12.777,-31.464,-350.973,38.1631,-39.3366,-13.0647,1013.29
88556,9.19472,20.9933,-0.305083,13.127,-46.794,-371.343,38.6861,-36.0984,-13.4193,1013.29
88562,12.7767,22.3036,0.0535968,8.017,-8.784,-404.733,40.6038,-35.2349,-13.1385,1013.29
88568,11.4711,20.8307,1.59353,-0.453,-1.504,-432.523,42.4054,-34.0013,-11.5575,1013.3
88574,8.21911,21.6532,1.56484,23.627,22.996,-468.993,43.1027,-31.5649,-12.0451,1013.3
88580,6.92308,25.0439,2.55479,24.257,11.166,-495.943,44.2359,-29.3136,-13.2568,1013.3
88586,6.57875,21.0793,0.47923,10.607,4.516,-499.863,45.8341,-27.2474,-12.6361,1013.27
88592,2.42284,22.3849,4.63514,51.627,24.886,-494.613,47.5484,-26.0138,-12.0599,1013.27
88598,8.683,27.4925,3.68344,32.307,-52.604,-509.873,47.1997,-23.084,-12.7987,1013.28
88604,14.0393,25.4552,-0.190306,12.497,-23.414,-518.553,47.8971,-21.0794,-12.119,1013.28
88610,8.99864,30.3142,-4.46099,40.147,35.526,-521.563,50.2216,-18.6431,-10.4345,1013.29
88616,6.58353,31.7154,-4.92488,23.277,26.286,-517.643,49.6114,-16.6693,-11.4393,1013.29
88622,8.72605,20.2137,2.9613,14.527,17.816,-514.913,49.9892,-12.8144,-11.454,1013.3
88628,10.6964,14.4557,0.799651,43.437,13.196,-483.483,51.0062,-11.2415,-9.51832,1013.3
88634,9.40993,17.8225,-7.2826,54.637,18.446,-466.823,50.8318,-8.74353,-10.2276,1013.26
88640,11.122,15.1252,-6.197,20.897,-42.104,-428.953,49.9892,-5.84459,-11.3506,1013.26
88646,15.957,2.66232,-14.8866,-43.293,-61.004,-387.723,51.1805,-4.05588,-11.0551,1013.26
88652,0.54336,0.251986,-13.0167,7.037,130.236,-302.533,50.7737,-1.83542,-9.42966,1013.24
88658,-17.1611,13.5518,-0.845494,31.397,180.146,-166.103,50.5703,-0.84855,-11.0551,1013.24
88664,-8.49059,10.5676,4.15211,14.527,-89.704,1.197,50.8609,-0.725191,-9.47399,1013.24
88670,9.4721,9.60158,-7.50738,1.717,-78.364,74.907,51.5292,-1.18779,-9.44444,1013.24
88676,11.0264,8.42033,-4.75272,5.217,28.876,160.097,51.2967,-1.92794,-11.3801,1013.27
88682,8.93169,8.02817,-1.23287,10.817,23.066,189.147,51.3839,-2.54474,-10.3162,1013.27
88688,11.935,7.07647,-2.28978,11.937,4.656,208.257,52.0232,-3.59329,-10.8334,1013.26
88694,12.9441,5.94782,-2.72498,16.347,15.996,209.727,51.965,-4.42596,-9.11936,1013.26
88700,11.4377,5.09656,-1.96936,24.187,39.306,205.667,51.4711,-5.90627,-10.7004,1013.26
88706,9.40993,4.85265,-1.0607,25.377,42.106,202.937,51.8779,-7.88001,-8.58741,1013.27
88712,7.89391,3.96791,-1.17548,27.547,35.806,202.447,51.0062,-8.46597,-8.85338,1013.27
88718,7.04264,3.92487,-1.11809,25.937,33.496,205.807,50.8609,-8.52765,-10.8186,1013.24
88724,5.85661,4.13051,-1.69198,23.837,35.736,215.257,52.0232,-10.2238,-10.996,1013.24
88730,4.68014,4.7857,-1.36199,20.197,35.176,226.177,53.1564,-12.0742,-7.86336,1013.19
88736,4.48884,5.82348,-1.74459,8.647,36.646,244.797,51.5582,-12.1051,-7.73038,1013.19
88742,3.92452,6.12956,-1.44808,0.597,37.556,257.817,50.9771,-13.9554,-8.05546,1013.16
88748,3.43193,6.73692,-1.18026,-11.793,32.586,278.467,51.3258,-15.8367,-8.30666,1013.16
88754,3.27889,6.72257,-1.25678,-20.753,32.446,292.397,51.0352,-16.4843,-6.99156,1013.16
88760,2.50414,6.24912,-0.783323,-30.903,27.966,311.437,49.5824,-17.6254,-8.80906,1013.15
88766,2.28415,5.93826,-0.649416,-37.623,18.376,327.117,50.5413,-19.9384,-7.19843,1013.15
88772,2.16459,5.40263,-0.434208,-39.303,12.006,334.817,49.9892,-21.9429,-6.96201,1013.16
88778,1.88721,4.95308,0.00577281,-37.483,0.596,342.167,48.6526,-22.0046,-7.37575,1013.16
88784,1.78678,4.60397,0.211416,-33.633,-7.034,344.967,49.2046,-24.9652,-7.33142,1013.16
88790,1.86808,4.29311,0.503142,-24.673,-18.094,346.857,49.1756,-27.0315,-7.37575,1013.16
88796,2.1359,4.30746,0.603573,-17.743,-24.674,347.137,47.7809,-27.8025,-8.4692,1013.2
88802,2.56153,4.58962,0.75661,-6.683,-32.024,347.627,46.8801,-28.2651,-8.82383,1013.2
88808,2.94412,5.17308,0.522272,0.737,-34.544,348.747,46.328,-32.0275,-8.86816,1013.18
88814,3.21194,6.62693,0.503142,9.137,-36.994,352.387,45.3692,-32.5826,-9.54788,1013.18
88820,3.58018,7.77948,0.369235,12.987,-38.604,356.657,43.5967,-34.063,-11.454,1013.18
88826,4.15407,9.77853,0.0153376,15.717,-36.294,364.917,43.5967,-36.1909,-9.62176,1013.18
88832,4.31189,10.955,-0.0229216,14.107,-31.814,371.847,43.3642,-38.4422,-8.51353,1013.18
88838,4.24972,12.4184,0.211416,11.727,-25.374,382.837,41.214,-37.8254,-11.5131,1013.18
88844,4.36928,13.3032,0.326194,9.347,-22.924,389.417,40.4004,-40.786,-10.6413,1013.18
88850,4.91447,14.2214,0.436189,5.147,-17.814,395.297,38.9185,-43.1298,-9.00115,1013.22
88856,5.13446,15.0535,0.39793,2.487,-11.724,394.737,37.1461,-42.9756,-10.0355,1013.22
88862,4.80448,15.2352,0.85704,-2.833,-6.194,389.557,35.8676,-44.1167,-11.4984,1013.23
88868,4.26407,15.7374,1.1679,-2.063,-5.494,382.487,34.4438,-46.7689,-10.8778,1013.23
88874,3.60888,16.34,1.60788,-0.173,-7.174,369.047,32.9619,-47.324,-10.4788,1013.23
88880,3.34585,16.4643,1.80874,2.487,-8.784,358.337,31.48,-47.2315,-12.577,1013.25
88886,2.84369,16.7417,2.48306,11.587,-12.284,341.887,29.1555,-48.9586,-11.6313,1013.25
88892,2.44197,17.5212,2.82261,20.547,-16.834,332.577,27.5864,-50.5622,-11.3063,1013.24
88898,1.56201,19.1903,3.34389,36.087,-23.484,325.157,26.6566,-49.9454,-12.6509,1013.24
88904,1.04073,20.625,3.57823,49.737,-33.844,327.117,25.4072,-51.7033,-13.0203,1013.24
88910,1.71983,22.8823,2.68392,57.087,-37.554,332.297,23.3732,-53.1219,-11.6166,1013.24
88916,2.37502,25.9048,1.95699,64.157,-31.814,343.987,22.3852,-52.2584,-11.0846,1013.24
88922,2.15503,28.2768,1.89482,63.597,-24.394,357.567,20.4675,-52.6902,-12.119,1013.24
88928,0.768133,30.2855,1.77526,54.427,-5.914,380.877,19.0437,-55.3732,-11.1142,1013.24
88934,-0.594851,31.5002,1.67961,47.147,5.986,397.397,16.4286,-54.8181,-11.0255,1013.25
88940,-2.46477,32.9923,1.31137,31.397,23.626,418.747,14.8886,-53.9854,-11.6609,1013.25
88946,-3.83254,33.6714,0.986165,17.257,36.926,427.567,11.9248,-55.219,-9.88773,1013.28
88952,-6.65894,33.9201,0.565314,-5.423,56.386,429.527,9.57121,-55.3424,-9.82863,1013.28
88958,-8.5432,33.6284,-0.0707456,-19.703,65.416,421.477,7.42101,-54.2322,-11.454,1013.26
88964,-11.0779,32.6575,-1.47199,-41.193,76.056,394.457,4.63156,-55.1265,-11.5722,1013.26
88970,-12.8904,31.4237,-2.74411,-56.733,81.376,367.437,3.06249,-55.6199,-8.51353,1013.28
88976,-15.6546,29.1377,-5.75702,-83.823,84.106,317.667,1.52249,-54.3863,-12.4736,1013.28
88982,-18.3519,27.1052,-8.06214,-103.423,83.336,281.547,-0.104693,-54.1705,-13.833,1013.27
88988,-24.9421,21.1559,-6.67524,-122.813,75.636,228.487,-1.90621,-55.1882,-11.6461,1013.27
88994,-29.9062,15.4313,-3.68146,-117.353,67.516,194.257,-2.9232,-55.1573,-13.375,1013.27
89000,-37.998,7.73166,1.74178,-72.203,41.056,149.317,-2.95226,-54.1396,-13.6853,1013.29
89006,-43.3399,5.36915,4.24776,-26.913,2.206,126.707,-4.14358,-54.9723,-14.5423,1013.29
89012,-45.2003,6.80866,5.13251,47.427,-90.404,101.227,-4.84095,-54.3555,-13.7,1013.35
89018,-40.6188,11.1989,3.20042,90.057,-143.184,80.647,-5.59642,-53.307,-14.4093,1013.35
89024,-32.7565,19.2907,-0.348125,102.027,-149.274,38.717,-5.18963,-54.3555,-12.2667,1013.34
89030,-29.031,22.1745,-0.419861,88.377,-131.354,4.767,-6.75869,-55.0648,-11.72,1013.34
89036,-23.2921,23.7814,0.168374,66.257,-106.224,-48.853,-5.4802,-53.8312,-12.0008,1013.34
89042,-19.2749,24.3122,0.000990396,34.127,-74.584,-98.273,-4.84095,-53.9546,-11.4097,1013.34
89048,-9.07883,27.7364,14.3291,19.007,-58.134,-123.473,-5.82888,-54.3863,-10.6118,1013.34
89054,3.80496,61.9545,-51.209,103.707,-368.584,-382.403,-3.18471,-54.3555,-9.19324,1013.33
89060,25.761,33.0688,-16.4409,-320.633,-55.824,-276.633,-1.8481,-54.5405,-12.6952,1013.33
89066,23.2311,-24.6117,-9.17644,-362.213,191.486,-272.363,-0.627714,-55.4966,-13.7739,1013.3
89072,12.0833,-20.5658,-0.682893,-154.663,184.276,-263.893,1.14475,-55.8667,-13.5671,1013.3
89078,9.83556,-2.43094,10.3023,101.747,56.456,-290.633,3.26589,-54.2322,-15.3993,1013.29
89084,18.0517,0.04156,6.88765,80.117,33.636,-312.753,4.71873,-54.3247,-14.7344,1013.29
89090,12.1263,8.39163,-1.8498,82.707,225.786,-318.703,6.72365,-56.1134,-12.5179,1013.31
89096,4.89056,11.7489,-3.30365,85.717,307.826,-302.883,8.96102,-55.219,-12.4145,1013.31
89102,-8.23234,13.8149,5.07033,29.647,316.716,-312.193,10.5882,-56.3293,-12.1485,1013.32
89108,-16.8359,13.3558,12.9278,-0.243,240.626,-315.343,11.8086,-56.3909,-11.3801,1013.32
89114,-22.7804,23.5471,16.859,30.837,35.736,-292.663,14.1622,-56.0825,-12.3258,1013.32
89120,-16.4963,29.9363,6.03638,4.937,-77.734,-256.053,15.5569,-54.5097,-13.0499,1013.33
89126,-1.46047,22.4662,-1.41938,-48.263,-109.934,-220.773,16.4867,-55.3732,-12.5032,1013.33
89132,2.59023,14.1736,1.80396,-56.173,-78.364,-211.043,17.155,-54.9723,-11.986,1013.31
89138,1.73418,7.51645,2.59305,-21.453,-47.214,-213.703,18.2592,-53.2144,-13.8626,1013.31
89144,1.16029,10.4624,-1.5246,20.897,-40.914,-202.433,19.3343,-54.448,-12.0451,1013.29
89150,-6.91718,34.5801,-9.8938,92.787,72.696,-96.173,20.1479,-54.6639,-10.73,1013.29
89156,-6.63502,30.3907,-5.22617,1.087,91.946,-64.393,21.1067,-53.1836,-12.0303,1013.32
89162,-0.618763,5.21612,5.73509,-89.563,12.916,-60.403,20.7581,-53.4612,-11.986,1013.32
89168,4.02973,-1.73749,5.81161,-11.653,-0.664,-60.263,21.1358,-54.3247,-11.321,1013.32
89174,2.0546,10.142,1.89004,44.067,2.906,-54.453,20.8162,-53.7696,-11.1585,1013.31
89180,0.619878,13.1884,1.59831,11.517,17.956,-48.363,22.1237,-52.135,-11.8825,1013.31
89186,-1.07787,9.64462,2.31567,5.777,13.826,-39.333,21.5717,-53.8929,-10.1389,1013.33
89192,0.0603376,9.72114,0.938341,21.387,-13.194,-28.203,20.6128,-53.5845,-10.7448,1013.33
89198,2.03547,10.9693,0.225763,17.117,-19.424,-25.263,22.1818,-52.6902,-11.72,1013.3
89204,3.36976,9.5968,-0.55855,5.427,-12.144,-24.633,21.6007,-52.8752,-11.5427,1013.3
89210,3.01586,9.74983,-1.05114,5.357,-5.704,-24.563,21.3683,-53.8004,-11.8087,1013.33
89216,2.94412,11.0028,-1.63937,-0.103,1.436,-24.353,22.3271,-52.0734,-12.4441,1013.33
89222,2.91065,10.8976,-0.926795,-8.013,7.736,-23.933,21.9785,-53.0602,-13.1829,1013.33
89228,2.19807,10.2376,0.220981,-16.343,11.376,-22.603,22.5305,-53.2761,-11.0107,1013.31
89234,1.68157,9.81679,1.03877,-18.653,7.666,-22.673,22.763,-52.6285,-12.0894,1013.31
