Timestamp,AccX,AccY,AccZ,AngularVelX,AngularVelY,AngularVelZ,MagX,MagY,MagZ,AirPressure
152912,2.31763,9.44376,0.962253,2.627,-3.254,-2.933,-29.3939,-37.4553,11.9666,1013.14
152918,2.32241,9.43898,0.962253,2.697,-3.114,-3.143,-28.3188,-38.2572,13.2226,1013.16
152924,2.31763,9.47724,0.947906,2.627,-2.974,-3.073,-28.7256,-39.2132,12.3803,1013.16
152930,2.27937,9.44854,0.971818,2.557,-2.904,-3.423,-28.929,-37.9179,12.3951,1013.14
152936,2.28894,9.44854,0.962253,2.627,-2.834,-3.423,-28.0573,-38.103,13.3112,1013.14
152942,2.31763,9.45811,0.981382,2.627,-2.974,-3.633,-29.0162,-38.9048,11.7154,1013.16
152948,2.31285,9.44854,0.943123,2.697,-2.834,-3.843,-28.8418,-38.7506,13.1782,1013.16
152954,2.25068,9.46767,0.967035,2.557,-2.554,-3.843,-28.406,-38.0721,13.1487,1013.16
152960,2.19807,9.48202,0.943123,2.557,-2.344,-3.773,-28.4932,-39.7375,11.9666,1013.14
152966,2.1359,9.44376,1.05312,2.347,-2.834,-3.493,-28.9,-39.3057,12.5428,1013.14
152972,2.20764,9.44376,1.00529,2.557,-2.834,-3.213,-28.6094,-38.4114,13.7102,1013.09
152978,2.19329,9.42941,0.986165,2.487,-2.974,-3.073,-28.9581,-38.6889,11.7006,1013.09
152984,2.20285,9.41506,0.981382,2.627,-2.764,-2.933,-28.9871,-39.244,12.07,1013.18
152990,2.19807,9.45811,0.990947,2.697,-2.834,-2.793,-28.6384,-38.0721,14.3603,1013.18
152996,2.19329,9.41985,1.01008,2.627,-2.834,-2.513,-28.2898,-38.9973,12.3655,1013.13
153002,2.20285,9.42941,0.990947,2.697,-2.904,-2.513,-29.2486,-39.7683,11.9518,1013.13
153008,2.19329,9.41028,1.00529,2.697,-2.904,-2.303,-28.9871,-38.4422,12.6463,1013.13
153014,2.23155,9.42463,0.99573,2.697,-2.904,-2.373,-28.7547,-38.288,13.1487,1013.14
153020,2.27459,9.41028,0.962253,2.697,-2.834,-2.373,-28.7256,-39.645,11.5085,1013.14
153026,2.30807,9.43419,1.01008,2.627,-2.974,-2.443,-28.6675,-39.3366,12.3655,1013.16
153032,2.34632,9.41506,0.971818,2.907,-2.834,-2.723,-28.3769,-38.5656,12.7793,1013.16
153038,2.31763,9.43419,0.981382,2.977,-2.414,-2.793,-28.9871,-38.6272,12.0109,1013.14
153044,2.22676,9.47724,1.01486,3.047,-2.344,-2.863,-29.3358,-39.9842,12.927,1013.14
153050,2.25068,9.47245,0.981382,2.977,-2.834,-3.003,-28.5513,-39.7992,13.8432,1013.16
153056,2.3272,9.52506,0.866605,2.767,-2.694,-3.213,-28.7837,-38.8431,13.725,1013.16
153062,2.30807,9.5155,0.890517,2.627,-2.484,-3.283,-29.8298,-39.4291,12.6611,1013.16
153068,2.20764,9.49158,0.95747,2.207,-2.624,-3.213,-28.8418,-40.0767,11.8779,1013.14
153074,2.24589,9.47245,0.990947,2.137,-2.974,-3.283,-28.7256,-38.3188,11.9518,1013.14
153080,2.29372,9.45811,0.938341,2.067,-2.834,-3.353,-28.9581,-39.3982,12.6758,1013.12
153086,2.26024,9.44854,0.986165,2.137,-2.694,-3.423,-28.6384,-39.4907,10.947,1013.12
153092,2.2172,9.47245,0.9766,2.137,-2.834,-3.283,-28.2026,-38.1955,13.1043,1013.22
153098,2.20285,9.44854,0.9766,2.067,-2.834,-3.353,-28.6675,-39.4599,11.0504,1013.22
153104,2.23633,9.43419,1.00529,1.997,-2.764,-3.143,-29.6845,-39.4599,11.3312,1013.14
153110,2.23155,9.41506,1.02442,1.997,-2.974,-3.073,-28.7547,-38.4422,12.5133,1013.14
153116,2.25546,9.42941,1.02442,2.347,-3.044,-3.003,-28.1445,-39.3366,11.4789,1013.15
153122,2.27937,9.44854,0.967035,2.277,-2.834,-3.073,-28.8418,-39.5524,13.1782,1013.15
153128,2.27459,9.43898,0.9766,2.207,-2.974,-3.143,-29.2196,-39.7066,12.7202,1013.15
153134,2.36067,9.45332,0.947906,2.347,-2.904,-3.353,-28.6094,-38.1955,13.3851,1013.18
153140,2.36067,9.46767,0.947906,2.137,-2.764,-3.563,-29.6264,-39.4907,12.0109,1013.18
153146,2.3272,9.47245,0.923994,2.067,-2.624,-3.843,-29.1324,-38.7506,12.4099,1013.15
153152,2.27459,9.47724,0.971818,1.927,-2.624,-4.053,-29.3067,-38.7506,13.1339,1013.15
153158,2.2985,9.45332,0.990947,1.857,-2.834,-4.263,-29.0162,-39.3057,13.3555,1013.16
153164,2.2985,9.42941,1.00529,1.857,-2.764,-4.403,-29.1905,-38.9973,11.8336,1013.16
153170,2.24111,9.44376,1.01008,1.997,-2.554,-4.473,-28.7256,-39.0898,12.9123,1013.14
153176,2.21242,9.43419,0.986165,1.997,-2.624,-4.403,-28.4641,-38.473,12.9861,1013.14
153182,2.17894,9.46767,0.99573,1.997,-2.764,-4.333,-28.8418,-39.4291,11.8779,1013.14
153188,2.22198,9.46767,0.99573,1.787,-2.974,-4.193,-28.6094,-39.0282,12.927,1013.17
153194,2.20285,9.44854,0.986165,1.857,-3.184,-3.983,-28.2607,-38.7506,13.0452,1013.17
153200,2.21242,9.44376,1.00529,1.787,-3.114,-3.983,-29.6264,-39.2132,11.8484,1013.15
153206,2.17416,9.42463,1.01964,1.787,-3.044,-3.633,-28.9,-39.7375,12.6463,1013.15
153212,2.15503,9.42463,1.0579,1.997,-3.114,-3.493,-28.8128,-38.9665,13.5181,1013.17
153218,2.18372,9.43419,1.04834,2.137,-3.254,-3.353,-29.1324,-39.1515,13.6954,1013.17
153224,2.2172,9.42941,1.00051,2.277,-3.114,-3.213,-28.8128,-39.244,11.9813,1013.16
153230,2.26981,9.43419,1.00529,2.487,-3.184,-3.283,-28.2607,-38.1646,12.7645,1013.16
153236,2.27937,9.43898,1.00051,2.487,-2.974,-3.353,-28.6384,-38.2263,12.8679,1013.16
153242,2.31763,9.44376,0.971818,2.417,-3.184,-3.563,-28.929,-39.8608,11.5085,1013.14
153248,2.35589,9.44854,0.967035,2.417,-3.044,-3.983,-28.6966,-39.2749,13.1043,1013.14
153254,2.33198,9.45811,0.967035,2.487,-2.834,-4.193,-28.9,-38.874,13.9909,1013.18
153260,2.28894,9.44854,0.99573,2.277,-2.834,-4.473,-29.3358,-39.4291,11.3312,1013.18
153266,2.29372,9.44376,0.986165,2.417,-2.694,-4.613,-29.2196,-38.3188,13.1782,1013.17
153272,2.23633,9.45811,1.01008,2.487,-2.414,-4.683,-29.3358,-38.6581,13.1191,1013.17
153278,2.16459,9.44854,0.9766,2.487,-2.554,-4.753,-29.3067,-38.8431,12.1882,1013.15
153284,2.19807,9.45332,1.00529,2.347,-2.764,-4.613,-29.452,-39.059,11.6119,1013.15
153290,2.15025,9.45811,1.02442,2.277,-2.834,-4.473,-28.8418,-38.4422,12.8679,1013.17
153296,2.18372,9.44376,1.01964,2.277,-2.904,-4.263,-28.7547,-38.7814,12.4099,1013.17
153302,2.15025,9.44376,1.02921,2.277,-2.974,-4.123,-28.929,-40.0459,12.0552,1013.17
153308,2.16459,9.45332,1.05312,2.417,-2.974,-3.773,-29.1324,-38.3497,13.1339,1013.17
153314,2.15025,9.42941,1.02442,2.417,-2.974,-3.633,-28.6966,-38.5039,13.3703,1013.17
153320,2.14546,9.44376,1.02921,2.347,-3.044,-3.283,-28.8128,-38.6581,12.1882,1013.17
153326,2.17416,9.44376,1.00051,2.207,-3.114,-3.213,-29.6264,-38.9665,12.07,1013.17
153332,2.20285,9.42941,0.990947,2.137,-3.044,-3.003,-28.7547,-38.3805,13.4885,1013.16
153338,2.25068,9.41506,0.9766,2.277,-2.904,-3.003,-29.2486,-39.0282,13.4294,1013.16
153344,2.24111,9.42941,0.986165,2.137,-2.694,-2.933,-30.2075,-37.8562,10.681,1013.14
153350,2.23155,9.41506,1.00529,2.207,-2.624,-3.003,-29.3067,-38.1338,12.3951,1013.14
153356,2.22676,9.41985,1.03399,2.207,-2.554,-3.003,-28.5803,-39.0282,12.2769,1013.14
153362,2.29372,9.43419,0.9766,2.137,-2.624,-3.213,-28.8418,-38.7814,12.0257,1013.18
153368,2.27459,9.43419,1.01008,2.277,-1.994,-3.213,-28.1735,-38.5039,13.2964,1013.18
153374,2.18372,9.41506,1.03877,2.347,-1.924,-3.213,-28.4641,-37.4862,13.8136,1013.17
153380,2.12155,9.37202,1.12485,2.627,-2.274,-2.863,-28.8418,-40.1075,13.06,1013.17
153386,2.14068,9.35768,1.13442,2.907,-2.134,-2.513,-29.2486,-39.5524,12.3064,1013.16
153392,2.18851,9.33855,1.12485,3.537,-2.134,-2.513,-29.1905,-38.0413,13.7841,1013.16
153398,2.16938,9.34811,1.15355,4.377,-1.854,-2.163,-28.435,-38.6581,13.0157,1013.17
153404,2.14068,9.39115,1.10094,4.587,-1.784,-1.883,-29.2196,-39.4907,12.5133,1013.17
153410,2.1072,9.41506,1.04355,4.657,-1.854,-1.603,-29.1033,-38.0721,12.7202,1013.15
153416,2.17894,9.42463,1.04834,4.657,-1.994,-1.533,-28.4932,-38.2572,12.9861,1013.15
153422,2.14068,9.40072,1.07225,4.727,-2.134,-1.183,-30.0622,-38.9665,11.6267,1013.15
153428,2.17894,9.39115,1.09138,4.937,-2.064,-1.043,-28.9581,-38.7198,13.0748,1013.17
153434,2.19329,9.41028,1.03399,5.077,-2.134,-0.903,-29.0162,-38.3497,14.05,1013.17
153440,2.18851,9.42463,0.981382,5.217,-2.064,-0.833,-29.8007,-38.5964,12.5428,1013.14
153446,2.25546,9.45332,0.923994,4.867,-1.854,-0.693,-29.2196,-39.3982,13.1191,1013.14
153452,2.25546,9.44376,0.952688,4.657,-1.854,-0.763,-29.1905,-37.702,13.193,1013.18
153458,2.30328,9.37681,1.00051,4.587,-1.784,-0.763,-29.3649,-38.3805,13.5329,1013.18
153464,2.30807,9.41028,0.981382,4.727,-1.364,-0.903,-29.3358,-39.1515,12.8532,1013.13
153470,2.23633,9.34333,1.07703,4.727,-1.014,-0.973,-29.1905,-38.9973,12.3508,1013.13
153476,2.18372,9.2955,1.12007,5.147,-1.014,-0.833,-28.8709,-38.4422,13.459,1013.13
153482,2.16938,9.2429,1.28746,6.057,-0.664,-0.483,-29.7717,-39.059,11.8779,1013.13
153488,2.22676,9.2429,1.26354,7.037,-0.454,-0.273,-29.5101,-38.6889,12.5872,1013.13
153494,2.16938,9.33376,1.17268,8.437,0.036,-0.203,-28.8418,-37.517,13.5772,1013.14
153500,2.19807,9.25725,1.0579,8.857,-0.174,-0.273,-29.3358,-38.4114,12.8975,1013.14
153506,2.02112,9.58245,1.09616,9.767,-0.664,-0.343,-28.8418,-38.2572,13.2669,1013.16
153512,2.26502,9.5681,0.900082,8.857,-1.154,0.357,-29.4811,-38.2572,13.2521,1013.16
153518,2.27937,9.42463,0.933558,8.787,0.106,0.637,-28.8418,-38.0413,12.1439,1013.15
153524,2.19807,9.54897,0.871387,8.297,-0.454,0.707,-30.2947,-38.1646,12.7054,1013.15
153530,2.29372,9.63027,0.660962,7.527,-0.664,0.707,-29.423,-38.1646,12.2473,1013.15
153536,2.34632,9.68766,0.641832,5.917,-0.664,0.777,-29.5392,-38.0413,13.8136,1013.19
153542,2.35589,9.65418,0.63705,4.867,-0.594,0.777,-29.5683,-38.5656,12.1734,1013.19
153548,2.33676,9.68766,0.651397,3.607,-0.804,0.497,-30.5852,-37.8254,11.7006,1013.15
153554,2.36545,9.63984,0.727915,2.767,-0.804,0.567,-28.8128,-37.6404,12.469,1013.15
153560,2.3798,9.59201,0.804434,1.577,-1.154,0.287,-29.423,-38.3805,12.0996,1013.16
153566,2.45154,9.52984,0.842693,1.087,-1.574,-0.063,-30.5562,-38.288,11.7745,1013.16
153572,2.52327,9.53462,0.790086,1.017,-1.364,-0.763,-29.3649,-38.1955,13.7397,1013.17
153578,2.46588,9.53462,0.813998,0.807,-1.014,-1.253,-30.2366,-38.2572,12.7645,1013.17
153584,2.29372,9.50593,1.00051,0.667,-1.014,-1.463,-30.1785,-39.1824,11.3164,1013.17
153590,2.30328,9.4868,1.01008,0.667,-1.644,-1.463,-29.423,-38.4422,13.5476,1013.17
153596,2.39415,9.4868,0.923994,0.737,-2.274,-1.743,-29.7717,-38.3497,12.5428,1013.17
153602,2.45154,9.5155,0.87617,0.877,-2.134,-2.023,-29.5973,-38.1646,12.602,1013.14
153608,2.4611,9.55375,0.880952,0.527,-2.064,-2.443,-29.9751,-38.3805,12.6906,1013.14
153614,2.46588,9.55854,0.861822,0.457,-2.204,-2.793,-29.5392,-38.0721,12.8384,1013.14
153620,2.38937,9.58723,0.83791,0.037,-2.274,-3.353,-30.3818,-38.7198,12.0848,1013.14
153626,2.3798,9.61593,0.809216,-0.383,-2.624,-3.563,-30.0041,-39.0282,9.76488,1013.16
153632,2.34632,9.57288,0.866605,-1.153,-3.044,-3.843,-29.6845,-37.2086,14.3012,1013.16
153638,2.35111,9.5681,0.85704,-1.433,-3.394,-3.983,-30.0913,-38.0104,12.7054,1013.16
153644,2.37024,9.53941,0.87617,-1.923,-3.674,-4.333,-30.469,-39.1207,11.1686,1013.16
153650,2.40371,9.55375,0.861822,-2.133,-3.744,-4.543,-29.7135,-37.9179,12.9861,1013.16
153656,2.41328,9.55375,0.87617,-2.553,-3.954,-4.823,-30.0913,-38.6889,12.6463,1013.16
153662,2.38458,9.53462,0.914429,-2.763,-3.884,-5.103,-29.5101,-39.1824,11.4494,1013.16
153668,2.33198,9.45332,0.952688,-2.763,-4.024,-5.243,-30.2656,-38.7814,11.8927,1013.16
153674,2.35111,9.43419,0.99573,-2.623,-4.024,-5.383,-29.3939,-38.6581,13.1487,1013.16
153680,2.3272,9.43898,0.99573,-2.483,-4.024,-5.453,-30.0332,-39.0282,12.2473,1013.15
153686,2.31285,9.41985,0.99573,-2.273,-3.954,-5.453,-29.4811,-38.9973,12.0109,1013.15
153692,2.33198,9.41028,1.03877,-2.203,-3.884,-5.593,-30.2656,-38.3497,13.3555,1013.15
153698,2.2985,9.38159,1.06747,-1.853,-3.464,-5.523,-29.8298,-38.4422,12.794,1013.15
153704,2.26502,9.40072,1.10094,-1.433,-3.324,-5.453,-29.7426,-39.3674,11.9961,1013.15
153710,2.25068,9.39115,1.10572,-1.083,-3.324,-5.173,-30.1785,-38.288,12.6611,1013.2
153716,2.23155,9.34811,1.13442,-0.803,-3.184,-5.033,-29.4811,-38.7814,13.1635,1013.2
153722,2.17894,9.37202,1.15833,-0.243,-3.114,-4.753,-29.6554,-38.9665,12.5428,1013.16
153728,2.17416,9.39115,1.14398,0.037,-3.184,-4.333,-29.3067,-38.473,13.2521,1013.16
153734,2.18851,9.37202,1.16311,0.597,-3.254,-3.913,-28.9,-37.9488,12.927,1013.18
153740,2.13112,9.41028,1.12964,0.807,-3.324,-3.493,-29.6845,-39.3674,13.326,1013.18
153746,2.19329,9.42941,1.11529,0.947,-3.534,-3.073,-29.9169,-39.1207,11.8188,1013.2
153752,2.21242,9.41985,1.04834,0.947,-3.604,-2.933,-28.9581,-37.6712,13.3112,1013.2
153758,2.26981,9.45811,1.01964,0.807,-3.674,-2.793,-29.1033,-38.3805,12.9418,1013.14
153764,2.28415,9.45811,1.00529,0.667,-3.464,-2.653,-29.9169,-38.8123,11.8484,1013.14
153770,2.29372,9.48202,0.967035,0.317,-3.464,-2.653,-29.0162,-38.7814,12.2473,1013.14
153776,2.31285,9.50115,0.928776,0.177,-3.464,-2.863,-29.5101,-38.6889,13.1339,1013.16
153782,2.3798,9.51071,0.914429,-0.243,-3.464,-3.143,-28.929,-38.5656,11.8779,1013.16
153788,2.35589,9.54897,0.923994,-0.593,-3.604,-3.283,-29.423,-38.8123,12.8827,1013.12
153794,2.37024,9.5155,0.952688,-1.013,-3.674,-3.563,-29.0162,-38.9356,12.2473,1013.12
153800,2.35111,9.50115,0.971818,-1.223,-3.604,-3.983,-29.6264,-39.1824,12.2621,1013.14
153806,2.31763,9.44376,1.0579,-1.363,-3.814,-3.913,-29.6845,-39.7683,11.8927,1013.14
153812,2.2985,9.39594,1.15355,-1.153,-4.024,-3.983,-28.6966,-38.9665,12.9418,1013.17
153818,2.29372,9.41985,1.1679,-0.873,-4.164,-3.983,-29.7717,-39.2749,13.3112,1013.17
153824,2.26981,9.44376,1.14398,-0.593,-4.654,-4.123,-29.3358,-38.7506,13.0009,1013.17
153830,2.28894,9.43898,1.12964,-0.383,-4.864,-4.123,-29.5101,-38.7814,13.2078,1013.15
153836,2.2985,9.46289,1.12007,-0.243,-5.144,-4.333,-30.7305,-36.6843,11.6267,1013.15
153842,2.36067,9.50115,1.0866,-0.033,-5.354,-4.403,-29.5683,-39.0282,12.794,1013.11
153848,2.41328,9.5968,0.967035,-0.033,-5.914,-4.683,-30.3528,-39.0898,12.6463,1013.11
153854,2.48023,9.65897,0.904864,-0.103,-6.544,-5.243,-30.1785,-37.8254,13.6363,1013.15
153860,2.80065,9.74027,0.747045,-1.713,-8.714,-7.483,-29.3067,-39.5216,11.2869,1013.15
153866,3.13542,9.8407,0.421842,-3.113,-10.254,-9.933,-29.3358,-39.9534,11.346,1013.14
153872,3.11629,9.85983,0.297499,-3.673,-9.344,-12.663,-28.6966,-38.7814,11.8484,1013.14
153878,3.14977,9.77853,0.550966,-5.423,-10.534,-15.323,-29.0743,-39.2132,12.3508,1013.14
153884,3.39367,10.2568,0.39793,-6.683,-15.504,-20.293,-28.8709,-39.8917,10.9765,1013.15
153890,3.19281,10.6537,0.249675,-8.153,-16.274,-22.463,-28.9,-38.473,12.0848,1013.15
153896,3.46541,10.5437,0.527054,-12.353,-19.494,-25.333,-28.7837,-39.2132,13.326,1013.17
153902,3.6567,11.0698,0.63705,-12.913,-22.014,-28.763,-29.1905,-39.4291,12.5576,1013.17
153908,4.17798,12.1076,0.727915,-15.713,-29.854,-37.233,-29.2196,-38.9048,12.4099,1013.13
153914,4.72796,12.5428,0.39793,-21.173,-32.094,-43.463,-27.9411,-38.9356,13.1339,1013.13
153920,4.9623,11.1941,-0.328995,-31.183,-26.004,-52.073,-28.435,-40.5701,12.0996,1013.16
153926,3.42715,8.42033,0.670526,-31.393,-5.144,-55.083,-28.3479,-40.7243,11.6415,1013.16
153932,6.62179,12.7436,5.37163,3.467,-30.554,-74.053,-27.4471,-39.7066,12.1882,1013.18
153938,8.63518,15.2209,-0.333778,-21.313,-7.524,-86.163,-27.6215,-40.2309,12.6167,1013.18
153944,6.34919,11.9163,1.27789,-29.643,11.236,-91.343,-27.4762,-41.8037,12.0109,1013.18
153950,3.48932,10.1324,2.56436,-13.753,13.196,-101.423,-26.4011,-40.786,10.7106,1013.13
153956,3.3315,11.4285,1.66048,-3.813,1.576,-108.703,-26.1686,-41.557,11.1686,1013.13
153962,5.05316,13.3701,-0.553768,-2.903,2.066,-118.993,-25.1226,-43.2532,9.35114,1013.18
153968,5.48358,14.5035,-0.745064,-7.383,7.876,-126.693,-25.4131,-42.8214,11.3016,1013.18
153974,6.00008,13.6236,-0.773758,-17.463,8.996,-142.023,-24.8029,-42.8523,13.193,1013.14
153980,4.9336,13.2219,-0.424643,-14.663,15.646,-149.023,-24.1346,-44.2709,10.4741,1013.14
153986,2.84848,14.6374,0.527054,-7.733,12.216,-154.623,-23.9312,-44.7027,9.85354,1013.17
153992,3.36976,15.3309,-0.0133568,-11.303,1.226,-158.263,-22.8852,-44.3943,10.4003,1013.17
153998,4.32624,13.0927,-0.367254,-18.863,-2.134,-168.763,-21.3452,-45.9363,9.9422,1013.17
154004,3.37932,11.7728,0.110986,-15.363,0.806,-173.383,-22.0135,-46.8923,10.0604,1013.13
154010,1.44245,11.4476,-0.0324864,-6.333,-1.784,-179.473,-20.2701,-45.8746,10.5924,1013.13
154016,0.720309,11.438,0.182722,-2.063,-7.734,-182.483,-19.3693,-47.2315,10.7549,1013.11
154022,0.992906,11.1511,-0.520291,5.147,-18.164,-181.293,-18.8754,-47.324,10.7106,1013.11
154028,2.30328,11.5576,-1.10374,6.967,-25.304,-172.893,-17.8003,-48.095,10.6071,1013.16
154034,4.61318,14.3648,-3.94449,11.447,-14.664,-158.963,-17.3354,-47.8792,12.3212,1013.16
154040,5.92834,17.3921,-1.74459,-0.243,-9.624,-153.993,-16.1731,-48.866,10.7106,1013.13
154046,11.4185,12.1697,-4.06405,-52.253,-8.014,-130.963,-15.4176,-49.2978,9.51368,1013.13
154052,13.0015,6.88996,-3.17452,-54.073,17.606,-116.403,-15.0399,-49.637,11.3607,1013.13
154058,12.1981,4.74744,-3.13626,-40.913,61.636,-99.743,-15.3886,-50.6856,9.11472,1013.13
154064,7.02829,6.0626,-1.57242,-30.693,94.396,-82.033,-14.8946,-51.5799,9.02606,1013.13
154070,5.22055,3.37968,-0.792888,-14.803,78.016,-45.773,-14.4878,-50.6547,9.4398,1013.13
154076,7.76478,0.983693,-2.63889,12.007,77.316,-17.143,-14.2553,-50.223,9.57279,1013.13
154082,8.30041,0.213726,-2.96888,25.727,80.186,-3.423,-15.4757,-50.6547,8.81919,1013.15
154088,9.10864,0.663272,-2.77758,44.767,75.776,7.987,-15.0108,-50.2847,9.35114,1013.15
154094,9.34776,1.36628,-2.79193,56.177,75.216,11.277,-15.1852,-50.4697,10.1343,1013.14
154100,9.16124,2.07408,-2.9641,66.187,74.796,15.897,-16.4927,-50.5931,8.30202,1013.14
154106,8.96517,2.25581,-2.91627,69.757,74.516,20.797,-15.8825,-50.8706,8.77486,1013.15
154112,8.45823,2.79622,-2.40934,72.557,69.406,31.437,-15.9116,-49.7604,9.89787,1013.15
154130,8.41041,3.86748,-1.35721,70.947,53.166,63.147,-17.3063,-50.1613,10.2673,1013.12
154136,8.41519,4.22616,-0.91723,68.427,45.816,77.147,-18.7301,-49.6987,11.1391,1013.11
154142,8.34824,4.64701,-0.658981,66.117,40.776,85.757,-18.0618,-49.8529,9.691,1013.11
154148,8.33389,5.34524,-0.362472,61.217,33.426,97.587,-18.9625,-48.6193,10.9322,1013.11
154154,8.17607,5.68001,-0.219,57.647,29.296,104.797,-19.3693,-48.9277,11.9666,1013.11
154160,7.66914,6.17738,0.168374,52.187,22.506,115.787,-20.5025,-48.7118,10.4594,1013.14
154166,7.29611,6.53128,0.469666,49.107,16.276,123.277,-20.7641,-48.3418,10.7845,1013.14
154172,6.95656,7.00473,0.785304,44.977,7.386,134.897,-21.6648,-47.0465,12.3064,1013.14
154178,6.84178,7.3682,1.00051,43.087,1.226,142.597,-22.1878,-46.5222,11.0948,1013.12
154184,6.79874,7.966,1.1679,40.287,-6.544,153.377,-23.0305,-46.5839,11.2721,1013.12
154190,6.68874,8.28164,1.30659,38.887,-11.514,160.027,-23.2339,-45.3811,11.8779,1013.09
154196,6.86091,8.84118,1.30659,37.277,-17.674,169.267,-24.309,-45.1344,12.4394,1013.09
154202,6.8896,9.27159,1.34006,35.947,-20.264,174.587,-25.6747,-45.2269,12.8975,1013.15
154208,6.84178,9.91722,1.34006,33.917,-23.484,181.377,-25.7328,-43.5924,13.3851,1013.15
154214,6.79874,10.2998,1.28746,32.307,-25.164,186.277,-26.372,-42.7289,12.8384,1013.1
154220,6.61223,10.9072,1.12485,31.117,-25.304,188.587,-27.9992,-43.3766,12.3064,1013.1
154226,6.26311,11.3998,1.04834,30.067,-25.794,190.617,-28.1735,-42.0505,12.0848,1013.11
154232,6.06225,11.768,0.919211,29.437,-26.424,190.827,-29.0452,-40.2309,13.6511,1013.11
154238,5.74183,12.2558,0.708786,28.807,-27.054,189.217,-30.3528,-41.1253,13.5181,1013.11
154244,5.55053,12.6336,0.570096,28.947,-27.334,186.557,-30.7015,-39.6758,12.8236,1013.13
154250,5.23968,13.2266,0.311846,29.087,-28.104,181.097,-31.2535,-38.6272,14.3603,1013.13
154256,5.00534,13.5423,0.168374,29.157,-28.384,176.127,-32.0671,-37.517,14.4786,1013.11
154262,4.64666,14.054,-0.123352,29.367,-27.334,168.217,-32.9098,-38.6581,14.0944,1013.11
154268,4.2019,14.3648,-0.104222,29.787,-26.354,163.317,-33.1132,-37.7946,13.8875,1013.1
154274,3.48932,14.8,-0.027704,30.627,-25.024,157.857,-33.3456,-35.9442,15.8232,1013.1
154280,3.01586,14.9866,0.0153376,30.977,-24.464,155.757,-34.3045,-35.1115,14.4342,1013.1
154286,2.705,14.934,-0.0324864,31.747,-22.644,154.357,-35.2053,-35.6975,14.715,1013.1
154292,2.6237,14.9579,-0.152046,33.007,-19.004,154.427,-34.6241,-33.477,15.1583,1013.1
154298,1.64331,14.8287,0.345323,34.897,-11.164,157.647,-36.1351,-33.0761,15.6459,1013.11
154304,0.78248,14.5322,0.694438,37.207,-8.434,162.687,-36.9777,-32.6752,15.2765,1013.11
154310,0.557707,14.2931,0.813998,41.897,-8.224,172.277,-37.0358,-31.1023,15.8823,1013.12
154316,1.09334,14.4079,0.727915,43.927,-6.334,178.017,-37.4136,-30.8556,16.0449,1013.12
154322,1.82504,14.8144,0.594008,44.067,2.766,183.127,-38.9536,-30.3622,16.0301,1013.11
154328,2.04503,14.9387,0.632267,42.037,10.746,184.037,-38.9536,-27.9567,16.5177,1013.11
154334,2.1072,14.8096,0.919211,36.577,23.416,181.097,-39.6219,-26.6923,17.0349,1013.11
154340,1.88243,14.4461,1.27789,32.237,31.886,175.987,-40.5227,-26.7848,16.5177,1013.11
154346,1.1842,14.1688,1.56005,26.077,43.296,164.787,-40.6389,-25.8904,14.7298,1013.11
154352,0.557707,14.2549,1.56962,19.987,53.026,150.087,-40.9295,-23.7933,16.3108,1013.11
154358,-0.628328,14.3457,1.45962,15.577,58.486,139.237,-41.6849,-24.0092,16.0005,1013.11
154364,-1.8861,14.1544,1.09616,8.087,64.436,122.787,-42.6729,-23.3616,14.1683,1013.12
154370,-2.70867,13.8149,0.646614,3.607,66.606,111.727,-43.2831,-22.7139,15.1878,1013.12
154376,-3.80384,13.174,-0.171176,-3.953,68.426,95.417,-43.2831,-21.6345,14.1978,1013.13
154382,-4.43034,12.6575,-0.702022,-8.853,68.076,84.777,-44.4453,-21.6037,13.0305,1013.13
154388,-5.46334,11.8684,-1.36199,-14.663,66.746,69.447,-43.4283,-21.0794,13.5329,1013.16
154394,-6.4246,11.3137,-1.36199,-17.113,64.156,59.927,-43.5446,-20.4318,13.2226,1013.16
154400,-7.81628,10.3237,-0.998531,-16.343,55.756,47.747,-44.5325,-20.6168,13.4147,1013.18
154406,-8.53842,9.70201,-0.730717,-12.423,48.826,40.747,-44.5616,-20.4935,13.1043,1013.18
154412,-10.0066,9.13769,-0.123352,-3.463,37.206,33.677,-44.6487,-19.2907,14.1535,1013.18
154418,-10.6427,8.90813,0.24011,3.887,25.516,30.597,-44.4453,-19.2599,13.7102,1013.16
154424,-10.0927,9.08508,0.445754,15.927,5.286,25.697,-45.7529,-20,11.6858,1013.16
154430,-8.96405,9.70201,0.273587,21.737,-4.164,19.887,-44.6778,-18.7356,12.9566,1013.13
154436,-7.36673,10.6633,0.0296848,25.447,-8.154,6.517,-43.9514,-18.6431,13.3999,1013.13
154442,-6.54894,11.1654,0.0631616,25.867,-7.944,-5.103,-44.8521,-18.9823,12.6463,1013.14
154448,-5.40595,11.5911,-0.0324864,23.557,-4.934,-25.193,-45.317,-18.9206,12.2473,1013.14
154454,-4.8751,11.658,-0.0898752,21.177,-0.454,-39.193,-44.2129,-18.5197,13.5181,1013.16
154460,-4.64554,11.6915,-0.128134,16.557,7.106,-59.493,-44.7068,-19.8767,12.9861,1013.16
154466,-4.70772,11.5002,-0.142482,14.247,11.026,-71.533,-44.3291,-19.5683,11.6415,1013.16
154472,1.59549,14.6709,9.97229,18.727,2.346,-89.173,-44.4453,-19.3524,13.7545,1013.16
154478,7.82217,34.604,0.0775088,97.267,-99.714,-191.303,-44.0095,-20.8635,13.3112,1013.16
154484,7.04742,10.0176,-6.7948,-133.103,159.216,-167.713,-43.8061,-22.3439,11.8484,1013.18
154490,1.50462,-7.01726,3.51605,-57.643,135.976,-170.023,-43.6898,-22.8064,10.7697,1013.18
154496,-3.78949,9.6781,3.36302,-11.163,40.356,-164.913,-43.3702,-23.3616,12.1882,1013.17
154502,10.0938,11.7776,1.58396,-40.003,-15.644,-155.603,-43.6027,-25.212,10.5333,1013.17
154508,16.0909,4.9483,0.560531,-51.203,23.136,-160.923,-43.5155,-25.6129,10.6219,1013.15
154514,9.98382,4.19747,2.07177,-0.593,128.766,-156.863,-42.6729,-25.5203,10.814,1013.15
154520,4.22581,5.44089,4.89817,18.447,141.576,-157.703,-42.208,-26.6923,9.1295,1013.15
154526,1.58592,4.45572,7.91108,35.107,102.446,-155.393,-42.731,-28.2342,8.6271,1013.1
154532,0.777698,5.36915,6.8446,51.907,90.266,-162.463,-41.8012,-28.4501,9.42502,1013.1
154538,-1.35525,8.11425,7.05981,50.647,68.216,-164.563,-41.191,-29.2211,9.27726,1013.16
154544,-2.38825,9.5968,6.65331,49.107,52.466,-169.253,-41.9174,-30.208,7.13468,1013.16
154550,-3.40212,13.6666,5.3525,45.467,15.086,-167.433,-40.697,-30.3622,7.47454,1013.16
154556,-1.94349,15.9813,3.26737,34.827,-16.274,-161.483,-39.9125,-30.393,9.36592,1013.16
154562,0.538578,16.3256,-0.601592,5.847,-32.584,-149.233,-40.0868,-33.0144,9.30681,1013.17
154568,1.90634,12.9014,-0.95549,-2.483,-30.344,-143.283,-39.5057,-32.4284,7.59275,1013.17
154574,3.4128,9.14247,-0.400731,2.837,-27.054,-139.503,-38.2853,-32.8294,9.98653,1013.16
154580,3.99625,8.77422,-1.23765,8.997,-22.784,-140.623,-38.3143,-34.1863,8.09515,1013.16
154586,4.28798,9.06117,-1.80197,13.757,-6.824,-151.053,-37.6751,-35.1115,8.95218,1013.16
154592,1.3468,14.5131,-6.90958,39.027,25.586,-155.953,-36.7453,-34.433,9.1295,1013.18
154598,-9.92531,26.9713,-1.62024,25.307,78.576,-50.533,-37.094,-34.8956,8.8783,1013.18
154604,-11.647,21.3615,-1.11809,-46.933,15.926,-34.713,-37.5298,-35.204,9.11472,1013.12
154610,5.10577,3.17881,0.713568,-38.043,-49.104,-32.893,-36.2513,-34.8031,8.77486,1013.12
154616,6.72222,7.18647,2.47349,-7.663,-15.224,-36.183,-36.7743,-35.0498,8.67143,1013.16
154622,2.72892,9.66375,1.32093,-4.863,18.236,-33.033,-36.3094,-36.7769,8.16903,1013.16
154628,-0.255301,10.3333,1.12964,2.137,12.846,-25.683,-36.6291,-35.2966,8.13948,1013.18
154634,-1.44134,10.7446,2.22959,-1.293,-8.084,-18.893,-36.3385,-34.7106,9.15905,1013.18
154640,2.37024,9.57288,0.71835,1.227,-16.554,-14.343,-36.6291,-36.0675,8.19858,1013.18
154646,2.4898,9.98895,0.699221,2.137,-8.294,-13.083,-36.1932,-36.1909,8.44978,1013.17
154652,1.84417,9.79287,0.474448,0.037,-9.834,-10.913,-36.2804,-35.4816,8.6271,1013.17
154658,2.27937,9.85026,-0.0898752,0.247,-9.204,-10.423,-36.7162,-36.1601,7.07558,1013.13
154664,2.25546,10.2329,0.125333,-2.063,-2.134,-8.673,-35.9026,-36.746,7.93261,1013.13
154670,2.00677,9.5968,1.2205,-6.403,-3.254,-9.723,-36.5419,-35.4816,8.30202,1013.16
154676,2.62849,9.39115,1.12964,-2.343,-3.044,-10.703,-36.4257,-35.6666,8.78964,1013.16
154682,2.49936,9.7594,0.85704,0.387,-2.974,-10.213,-37.094,-36.746,8.18381,1013.14
154688,2.37024,9.60158,1.04355,-0.663,-4.864,-11.893,-36.9196,-36.0367,7.75529,1013.14
154694,2.925,9.48202,0.350106,1.437,-4.794,-13.013,-36.3385,-36.0984,10.1491,1013.15
154700,2.37024,9.65897,0.613138,4.377,-3.604,-12.313,-36.3675,-35.7591,7.97694,1013.15
154706,2.44197,9.85983,0.51749,3.887,-4.234,-13.503,-37.3264,-36.4685,7.90306,1013.15
154712,2.25068,9.6781,0.488795,4.027,-5.004,-13.223,-36.4547,-35.975,7.5632,1013.19
154718,2.37024,9.93635,0.15881,4.377,-6.054,-13.013,-36.4838,-36.4068,8.33157,1013.19
154724,2.28894,9.86461,0.292717,2.207,-5.144,-13.153,-37.0649,-37.7329,7.47454,1013.16
154730,2.23155,9.74983,0.307064,1.507,-6.544,-13.223,-36.7453,-35.8208,8.33157,1013.16
154736,2.41806,9.74027,0.340541,0.037,-8.014,-13.923,-36.077,-36.7152,8.99651,1013.16
154742,2.47545,9.66375,0.402712,-0.873,-8.364,-14.623,-36.2513,-37.1469,8.58277,1013.16
154748,2.5424,9.60636,0.297499,-1.783,-8.994,-15.953,-35.554,-36.4068,8.22814,1013.17
154754,2.44197,9.69244,0.220981,-1.993,-8.294,-16.373,-36.2223,-35.79,7.0608,1013.17
154760,2.22676,9.77853,0.149245,-4.023,-8.854,-16.863,-36.1932,-37.0544,9.05562,1013.17
154766,2.26024,9.6781,0.134898,-6.053,-8.784,-17.073,-36.1932,-37.3628,9.32159,1013.14
154772,2.17416,9.72592,0.0966384,-7.243,-8.994,-17.213,-36.0189,-35.8208,8.9374,1013.14
154778,2.07851,9.80244,0.110986,-9.833,-9.764,-17.143,-36.077,-37.0544,9.49891,1013.13
154784,2.10242,9.65897,0.268805,-11.093,-10.534,-17.073,-35.9607,-37.1469,9.09995,1013.13
154790,2.08329,9.4868,0.51749,-12.003,-10.114,-16.933,-36.0479,-37.5787,8.42023,1013.14
154796,1.96852,9.41028,0.704003,-12.003,-9.904,-16.583,-35.1181,-37.3011,9.64667,1013.14
154802,1.92069,9.27159,0.790086,-10.813,-10.324,-16.093,-35.9607,-37.3937,7.6223,1013.15
154808,1.96373,9.37202,0.770957,-10.253,-11.164,-15.813,-35.2053,-37.2703,7.8144,1013.15
154814,2.03547,9.38637,0.656179,-9.413,-10.394,-15.393,-35.2634,-36.9619,8.78964,1013.15
154820,1.93982,9.44376,0.665744,-9.203,-10.254,-15.183,-35.5249,-38.3188,8.44978,1013.15
154826,1.97808,9.37681,0.675309,-8.783,-11.584,-14.903,-35.1181,-38.103,8.16903,1013.15
154832,2.01634,9.41985,0.594008,-8.643,-11.234,-14.693,-34.5079,-36.4068,9.01129,1013.16
154838,1.84896,9.5968,0.503142,-8.853,-13.054,-14.553,-34.6241,-37.4245,9.15905,1013.16
154844,1.892,9.5968,0.302282,-9.623,-13.964,-14.553,-35.1762,-38.7198,7.10513,1013.15
154850,2.37024,9.81679,-0.31943,-12.143,-15.784,-15.253,-34.1883,-37.2703,8.27247,1013.15
154856,2.20764,9.88374,-0.0133568,-13.963,-14.384,-15.743,-35.1472,-37.517,8.61232,1013.13
154862,2.04503,9.99374,0.0344672,-17.603,-14.384,-15.953,-34.9728,-37.7329,7.91783,1013.13
154868,1.85852,9.93156,0.101421,-19.773,-15.854,-16.303,-35.1181,-37.9179,7.29722,1013.13
154874,1.93982,9.90765,0.134898,-22.993,-18.724,-16.513,-34.3045,-37.702,9.15905,1013.13
154880,2.17894,9.74983,0.106203,-25.723,-16.904,-16.793,-34.9438,-38.7198,7.38588,1013.13
154886,2.17894,9.96982,0.067944,-25.653,-14.594,-16.583,-34.2755,-38.9665,7.8735,1013.18
154892,1.67679,9.7594,0.469666,-26.913,-15.714,-17.423,-34.3626,-38.1338,7.94739,1013.18
154898,2.18851,9.70679,0.503142,-29.573,-17.184,-18.123,-34.043,-39.0282,7.40066,1013.13
154904,2.26502,9.37202,0.660962,-30.413,-11.864,-19.033,-34.5079,-39.2749,7.312,1013.13
154910,2.48023,9.59201,1.05312,-26.843,-10.674,-18.963,-34.9147,-38.7506,7.41543,1013.16
154916,2.25068,9.63984,1.11529,-27.193,-11.024,-21.903,-34.5079,-38.3497,8.30202,1013.16
154922,2.09764,8.999,1.03877,-27.753,-11.024,-22.463,-33.8977,-39.5524,7.10513,1013.15
154928,2.58544,9.35289,0.699221,-22.013,-10.044,-24.353,-34.1011,-39.3674,7.34155,1013.15
154934,1.93504,9.74027,1.2492,-22.013,-10.884,-25.823,-33.7815,-38.8123,6.72094,1013.15
154940,2.23633,9.39115,0.938341,-20.263,-12.704,-24.983,-33.0551,-40.5393,7.10513,1013.11
154946,1.84896,9.10899,1.51223,-18.653,-13.054,-26.803,-33.3456,-40.3234,7.20856,1013.11
154952,2.49458,9.66375,0.39793,-14.733,-14.664,-27.083,-33.6653,-40.1384,8.83397,1013.15
154958,1.92547,9.74983,1.41658,-17.043,-14.454,-30.303,-33.549,-40.2309,7.68141,1013.15
154964,2.47067,10.9693,0.417059,-16.693,-18.724,-32.263,-33.4619,-40.5085,7.14946,1013.15
154970,2.34632,10.4002,0.818781,-21.523,-22.364,-35.133,-32.5321,-40.3851,8.40545,1013.15
154976,1.85374,9.56332,0.727915,-23.693,-23.974,-38.423,-32.3577,-40.6935,8.86352,1013.18
154982,2.57588,9.88374,0.900082,-17.533,-25.024,-39.473,-33.026,-42.0505,7.16424,1013.18
154988,2.91065,9.56332,0.947906,-16.483,-18.864,-42.413,-32.7064,-41.2486,8.10993,1013.18
154994,2.49458,10.0511,2.78913,-11.793,-16.694,-45.703,-32.4739,-40.9094,8.05082,1013.14
155000,6.51658,13.3032,4.93643,-8.643,-21.244,-57.603,-31.5732,-42.143,8.44978,1013.14
155006,7.49697,11.8541,3.86517,-21.243,-2.764,-69.013,-32.2124,-42.1738,8.21336,1013.11
155012,3.80017,9.58245,1.67961,-10.323,27.896,-73.983,-31.9219,-42.2046,6.98692,1013.11
155018,1.62418,9.08508,3.82691,-5.213,20.686,-79.023,-31.2826,-42.5439,7.37111,1013.17
155024,3.35063,10.7924,2.38741,8.787,7.806,-85.533,-30.6724,-43.9317,7.40066,1013.17
155030,3.96756,11.6867,3.39171,8.157,4.516,-91.133,-30.44,-43.4074,5.76048,1013.17
155036,4.88578,10.4242,3.39171,15.437,17.676,-97.993,-30.6434,-42.4822,7.38588,1013.17
155042,4.1732,10.7972,3.3678,28.597,16.696,-111.223,-29.6554,-44.7952,7.93261,1013.16
155048,3.57062,12.0215,2.91825,26.497,11.166,-115.773,-29.5683,-43.8392,6.73572,1013.16
155054,4.08712,10.9885,2.19133,32.587,15.716,-125.433,-28.2898,-44.7952,7.59275,1013.16
155060,3.82409,11.6724,2.33002,38.817,14.596,-133.413,-28.6094,-45.8746,8.24291,1013.14
155066,4.02973,12.4567,1.91395,39.587,15.786,-145.873,-28.1735,-45.9979,6.97214,1013.14
155072,4.49362,13.0593,1.12964,39.237,13.406,-152.453,-27.5343,-45.0727,8.24291,1013.14
155078,3.83365,12.6049,0.900082,37.277,9.696,-164.843,-26.5464,-46.954,7.25289,1013.14
155084,3.51801,12.3084,0.0822912,40.637,8.086,-174.993,-25.878,-47.6324,5.95257,1013.15
155090,2.86761,13.3653,-0.0946576,45.187,-4.374,-188.503,-25.1807,-47.6941,8.00649,1013.15
155096,3.42236,14.6757,0.201851,45.747,-10.744,-197.323,-23.9603,-47.4474,7.53365,1013.13
155102,6.4018,15.9717,0.493578,40.707,-19.564,-215.733,-22.8852,-49.2978,7.60753,1013.13
155108,7.7074,16.4404,-1.37156,35.037,-13.964,-231.553,-22.1588,-49.4212,7.88828,1013.13
155114,6.80352,17.7747,-2.70585,21.317,-3.044,-253.183,-20.1248,-49.7295,8.27247,1013.17
155120,6.30615,17.8751,-3.11713,8.087,-4.304,-268.443,-19.4856,-50.5931,8.98173,1013.17
155126,5.89008,16.7847,-2.68194,-4.723,-10.114,-291.473,-17.4806,-51.4566,8.34635,1013.12
155132,6.09094,16.7847,-2.38543,-2.623,-13.964,-308.063,-16.2893,-51.5491,9.35114,1013.12
155138,6.82265,17.6551,-0.8168,0.667,-20.474,-333.053,-14.4878,-52.2584,9.57279,1013.09
155144,8.28128,18.7886,-0.152046,5.777,-20.194,-350.903,-12.5991,-54.6022,8.52366,1013.09
155150,8.45345,17.5882,0.627485,-0.313,-17.604,-386.393,-10.0712,-54.1396,8.27247,1013.13
155156,6.79874,18.1286,1.18703,8.927,-13.894,-402.983,-8.58927,-54.4789,10.0013,1013.13
155162,8.32432,20.5724,0.689656,22.717,5.356,-432.593,-6.3519,-55.99,9.49891,1013.13
155168,7.56871,22.3706,2.07655,16.207,-4.864,-452.053,-4.63755,-56.2059,8.76009,1013.1
155174,9.01777,18.2099,0.47923,8.367,-4.514,-467.173,-1.17979,-57.1619,9.3807,1013.1
155180,4.02495,18.9894,5.10859,61.357,18.726,-469.763,1.08663,-56.761,9.04084,1013.1
155186,3.42236,24.8718,3.50649,62.337,-26.214,-481.453,3.84703,-57.4086,9.54324,1013.1
155192,8.48214,21.0411,1.40702,32.307,-32.164,-492.093,6.02629,-57.0694,9.75011,1013.1
155198,5.78965,21.4237,4.13777,51.347,-18.234,-492.793,8.64139,-57.3778,12.3655,1013.1
155204,7.56871,27.6599,-0.869406,64.717,-31.674,-493.423,11.7795,-57.347,10.1491,1013.12
155210,8.34824,25.8857,-0.281171,50.857,-10.324,-495.033,14.4818,-56.4526,11.8631,1013.12
155216,8.05173,17.1578,1.74178,59.957,-11.794,-485.373,16.6901,-54.6947,13.4885,1013.1
155222,7.36306,14.9292,-1.99805,73.467,-11.304,-459.613,19.2762,-54.6947,12.6758,1013.1
155228,6.81787,17.0478,-1.13244,75.357,-20.544,-428.533,20.9034,-53.3378,12.1882,1013.1
155234,9.56775,15.1157,-3.93014,46.097,-75.634,-402.563,22.5015,-52.4126,13.8875,1013.13
155240,17.4683,-4.71215,-11.735,-39.863,-74.094,-343.693,25.2038,-52.4126,13.4147,1013.13
155246,3.78105,-2.45485,-12.505,-4.583,91.666,-277.753,25.843,-52.3509,13.5772,1013.12
155252,-18.7584,15.57,6.28506,21.597,88.306,-78.393,25.349,-50.7473,13.2373,1013.12
155258,-5.77419,14.8574,4.69252,5.917,-81.164,16.247,26.5985,-51.5799,12.3655,1013.15
155264,14.4841,12.5619,-7.91866,-26.143,0.946,108.507,25.7558,-52.906,13.193,1013.15
155270,11.4138,9.00378,-4.61403,-27.683,70.876,152.467,23.8962,-52.1042,13.3999,1013.1
155276,8.47736,8.19555,-1.51025,-32.723,55.196,187.397,22.9954,-51.765,13.4294,1013.1
155282,10.9594,6.33998,-3.18409,-38.603,52.396,195.727,22.4724,-52.2276,12.3655,1013.1
155288,9.23776,4.08269,-2.49542,-37.693,75.916,195.167,20.6128,-52.7827,12.9714,1013.08
155294,6.68396,3.19316,-1.31417,-34.543,74.936,192.857,19.8283,-53.8621,13.7693,1013.08
155300,4.26885,1.29933,-0.548986,-29.223,60.166,192.017,18.695,-53.2144,12.6906,1013.08
155306,2.9776,-0.0206112,-0.55855,-21.313,47.916,194.327,18.0848,-53.7696,12.4542,1013.08
155312,1.49984,-0.737971,-0.185523,-5.703,24.116,202.867,16.2543,-53.492,13.1339,1013.07
155318,1.16029,-0.498851,-0.228565,5.987,0.106,216.867,15.1211,-54.263,13.06,1013.07
155324,1.2942,0.515018,-0.233347,12.427,-13.824,227.717,14.1912,-55.3115,11.6267,1013.04
155330,1.97808,2.11234,-0.486814,18.237,-29.504,244.377,13.1161,-54.5097,11.4198,1013.04
155336,2.53762,3.0736,-0.663763,18.867,-36.224,255.647,11.7795,-53.7696,12.469,1013.05
155342,3.20716,4.09225,-0.668546,16.837,-41.964,272.377,10.5882,-55.7125,12.6463,1013.05
155348,3.68061,4.66136,-0.663763,14.387,-42.594,283.507,8.61234,-55.9592,11.5085,1013.05
155354,3.84322,5.24003,-0.271606,9.067,-38.814,300.167,7.56629,-55.0031,12.0404,1013.04
155360,3.6854,5.38828,0.115768,5.637,-36.924,311.017,5.79383,-55.1265,12.4985,1013.04
155366,3.7667,5.52219,0.660962,2.487,-34.334,326.067,4.48628,-56.1442,12.7349,1013.06
155372,3.67583,5.4935,1.12007,2.207,-31.394,335.237,2.39419,-54.0163,11.804,1013.06
155378,3.30759,5.3835,2.03351,4.377,-30.344,347.977,1.29003,-54.3247,13.5329,1013.06
155384,3.30759,5.48871,2.47349,7.247,-31.534,355.747,-1.29602,-54.8798,11.4494,1013.06
155390,3.738,5.85218,2.78913,11.237,-31.044,364.917,-2.7198,-54.6331,12.0996,1013.04
155396,4.05842,6.17738,3.00912,13.267,-28.944,369.187,-4.81189,-53.6462,13.3555,1013.04
155402,4.40754,6.92822,3.31519,15.367,-26.214,372.337,-6.06133,-54.1705,12.2916,1013.04
155408,4.64188,7.65036,3.43475,15.787,-24.394,372.617,-9.46097,-52.9677,10.9765,1013.09
155414,4.76622,8.98943,3.54953,14.737,-21.244,371.147,-10.5942,-51.3024,12.2769,1013.09
155420,4.68492,9.87896,3.54953,12.357,-18.864,368.907,-12.018,-51.7958,11.5381,1013.08
155426,4.29276,11.1702,3.50171,8.507,-16.134,364.847,-13.1802,-51.5491,12.3655,1013.08
155432,3.81452,12.0836,3.47301,4.867,-15.994,362.117,-14.8946,-50.0071,12.0552,1013.04
155438,3.22629,13.0784,3.26737,-1.153,-18.724,359.177,-16.5799,-48.2184,12.203,1013.04
155444,2.90587,13.5518,3.09999,-4.303,-21.104,357.707,-18.4395,-48.681,12.2178,1013.06
155450,2.25068,14.1449,3.11912,-8.573,-26.424,355.607,-20.3573,-47.6941,12.1143,1013.06
155456,1.66244,14.6614,3.29128,-11.513,-34.824,353.787,-22.1588,-45.3195,12.5428,1013.06
155462,0.88291,15.4361,3.46345,-11.093,-43.294,352.457,-22.246,-44.5793,11.4642,1013.08
155468,1.06464,16.1965,3.41562,-9.763,-55.754,349.517,-24.6286,-43.0682,12.2178,1013.08
155474,1.5094,16.7321,3.31041,-8.153,-61.704,346.087,-25.5003,-41.5262,13.8727,1013.1
155480,2.72892,17.7843,3.25302,-2.693,-68.144,338.247,-26.4301,-40.786,13.0896,1013.1
155486,3.39367,18.9129,3.29606,2.347,-67.164,332.717,-27.9992,-40.2001,12.469,1013.1
155492,3.37932,20.6967,3.53997,9.977,-61.844,328.517,-28.2316,-37.702,13.326,1013.1
155498,3.33628,21.945,3.15259,15.507,-57.014,330.127,-29.6845,-36.7152,13.3999,1013.09
155504,3.17846,23.8005,2.29176,20.197,-46.514,340.417,-31.9509,-36.3759,13.4738,1013.09
155510,3.37932,24.7809,1.53136,21.527,-36.924,350.567,-31.8928,-33.8162,13.6806,1013.12
155516,3.48454,26.3974,0.484013,22.857,-16.134,368.067,-33.4619,-32.5518,13.2226,1013.12
155522,3.22629,27.306,-0.075528,21.597,0.316,379.127,-34.6532,-31.0407,12.7793,1013.12
155528,2.25546,28.4442,-0.931578,17.117,26.076,391.237,-35.8155,-28.9436,13.3999,1013.11
155534,0.629443,28.5303,-0.974619,12.707,43.016,395.017,-36.7162,-27.2782,14.0057,1013.11
155540,-3.47864,28.3008,-0.71637,8.227,60.796,393.407,-38.663,-25.5512,14.2126,1013.08
155546,-6.80719,28.4299,-0.300301,7.457,65.766,388.297,-39.5928,-24.1017,12.6463,1013.08
155552,-11.097,28.6307,0.0249024,7.387,62.826,375.347,-40.6098,-21.5112,13.5772,1013.1
155558,-13.1821,28.2768,-0.214218,6.687,56.736,362.397,-41.5106,-20.2159,13.592,1013.1
155564,-15.3055,27.2199,-2.10327,0.947,46.306,336.077,-42.76,-19.229,13.0157,1013.16
155570,-16.6398,26.3448,-4.2123,-7.593,41.126,313.957,-42.6147,-16.6077,13.0009,1013.16
155576,-19.8344,23.7192,-4.81489,-21.943,32.796,274.757,-44.0095,-15.7133,12.5872,1013.16
155582,-22.2161,20.8593,-3.87275,-26.073,25.026,244.797,-44.3291,-15.004,12.4394,1013.14
155588,-26.2716,16.3209,-1.79719,-15.853,10.326,196.497,-44.9974,-14.6956,11.8631,1013.14
155594,-29.5092,13.8292,0.383582,9.697,-9.764,149.807,-44.7649,-12.8761,13.592,1013.12
155600,-34.4447,12.3945,1.15833,30.557,-31.044,121.877,-45.4333,-12.5677,12.9566,1013.12
155606,-36.5107,13.4562,1.22528,63.037,-65.344,81.557,-45.0555,-12.3826,13.3112,1013.15
155612,-35.889,15.0535,1.02442,80.747,-83.964,52.087,-44.271,-12.3518,13.6806,1013.15
155618,-31.8048,17.6217,0.47923,92.507,-96.984,4.067,-44.3872,-11.9817,14.5524,1013.15
155624,-27.3954,18.4873,0.130115,92.227,-94.114,-30.303,-44.9102,-12.0125,14.7593,1013.15
155630,-21.2931,19.9411,-0.692458,81.167,-82.494,-80.423,-44.1838,-11.3957,14.3603,1013.15
155636,-18.1271,20.5246,-1.72067,68.917,-70.384,-108.493,-43.3412,-12.506,16.5177,1013.16
155642,-14.8081,20.778,-2.60064,42.877,-48.684,-137.543,-44.2129,-12.3826,16.2074,1013.16
155648,-13.2682,20.3142,-2.27065,33.847,-39.024,-148.603,-44.0966,-13.4312,16.2961,1013.13
155654,-10.7766,18.0616,-1.15635,22.157,-24.814,-153.993,-42.6729,-13.462,16.5029,1013.13
155660,29.0226,50.4959,69.9149,123.237,-300.404,-151.613,-41.8883,-14.2022,19.6207,1013.1
155666,37.7743,35.1539,-43.7197,-256.513,-399.454,-274.183,-41.0457,-17.1628,19.9606,1013.1
155672,46.3014,3.10708,-37.933,-337.153,3.326,-226.513,-39.8834,-18.0263,20.1527,1013.1
155678,30.4142,-28.9685,1.59831,-166.913,262.956,-169.393,-40.1159,-17.6254,16.104,1013.1
155684,16.6887,-18.4568,0.488795,50.227,273.316,-241.073,-40.2321,-20.8327,16.9167,1013.12
155690,10.0221,2.14103,0.967035,122.817,237.056,-274.743,-39.7962,-21.3878,15.2913,1013.12
155696,8.36737,5.89522,4.87904,58.837,239.576,-303.583,-38.663,-22.9606,14.8184,1013.12
155702,2.45632,-0.293208,13.0474,37.067,273.596,-287.553,-39.5928,-24.9036,14.1535,1013.16
155708,-3.81341,1.80627,8.79582,108.957,309.016,-291.613,-39.186,-26.353,12.6758,1013.16
155714,-14.7412,16.0196,6.47636,113.157,256.936,-285.103,-38.6049,-26.1063,11.8188,1013.17
155720,-19.734,22.7627,10.3501,81.867,159.146,-276.633,-38.0819,-28.2959,10.4889,1013.17
155726,-14.129,24.2309,8.29367,17.047,5.496,-257.523,-38.4306,-29.9921,10.1786,1013.18
155732,-7.64889,25.9813,-0.544203,-22.643,-52.674,-231.623,-36.9196,-29.9304,12.927,1013.18
155738,-2.62737,17.3969,4.13298,-58.763,-69.194,-221.963,-35.6121,-32.1817,12.0848,1013.12
155744,0.835086,7.62645,4.36254,-36.853,-78.994,-225.393,-35.1472,-33.6312,11.7892,1013.12
155750,2.14068,8.15729,0.555749,-9.273,-86.904,-227.843,-34.1302,-33.662,11.0652,1013.12
155756,4.79013,15.1205,-11.5294,44.067,-37.484,-232.743,-32.997,-34.248,12.469,1013.14
155762,-3.25387,39.4103,-23.3802,128.627,129.326,-135.093,-32.9098,-35.3274,11.5824,1013.14
155768,-12.4122,32.9206,-5.04444,-59.743,168.876,-68.803,-33.2004,-35.8825,11.0061,1013.12
155774,-8.68667,10.9311,7.87282,-143.253,60.026,-62.083,-32.0962,-36.1292,10.814,1013.12
155780,1.48549,-2.23486,7.86326,-13.473,-7.664,-53.473,-33.8977,-36.3451,8.43501,1013.12
155786,1.42332,8.8077,5.2425,40.847,-4.724,-48.783,-33.4328,-37.5787,9.26248,1013.12
155792,-0.298342,13.3319,2.74131,-1.293,19.496,-40.523,-32.8226,-37.1161,9.77966,1013.12
155798,-0.604416,7.32037,4.11864,0.177,21.526,-35.483,-32.2996,-37.1161,10.4741,1013.12
155804,-1.32178,9.38637,2.53566,34.827,-7.664,-25.823,-32.997,-37.6712,10.5037,1013.12
155810,0.52423,12.4615,0.63705,25.517,-25.444,-22.813,-32.8517,-36.5918,9.30681,1013.16
155816,4.00104,9.44376,-1.98371,9.207,-21.314,-24.493,-32.5321,-35.8517,10.5037,1013.16
155822,3.71409,9.87896,-1.91675,13.827,-4.234,-26.383,-32.5611,-37.2703,10.4298,1013.13
155828,1.02638,11.3663,-0.0946576,3.117,1.786,-26.103,-32.5321,-36.6227,10.0161,1013.13
155834,1.00247,10.5198,0.0488144,-4.653,-4.654,-24.983,-32.009,-36.2217,12.5281,1013.14
155840,2.23155,10.0798,0.091856,-3.953,-8.854,-24.913,-32.1253,-36.746,10.1934,1013.14
155846,2.53284,10.142,-0.219,-5.773,-5.074,-25.963,-31.486,-37.702,9.9422,1013.15
155852,2.07851,10.0416,0.206634,-8.083,-1.924,-25.333,-31.5732,-36.9311,11.0357,1013.15
155858,1.71505,9.83113,0.47923,-6.963,-2.484,-23.653,-31.8056,-37.702,11.1982,1013.13
155864,2.04025,9.78331,0.27837,-7.663,-1.714,-24.283,-31.5732,-37.8871,9.61712,1013.13
155870,1.56679,9.92678,0.393147,-8.923,-1.434,-22.813,-31.6894,-38.4114,10.1638,1013.13
155876,1.68157,9.90765,0.311846,-9.343,-4.304,-22.393,-31.486,-37.9488,10.9618,1013.13
155882,1.95417,9.77374,0.51749,-8.993,-7.664,-22.463,-31.98,-37.9796,10.5776,1013.13
155888,1.92547,9.58723,0.622702,-8.223,-7.314,-22.323,-31.5732,-37.7637,9.45458,1013.14
155894,1.62896,9.49158,0.770957,-6.403,-7.034,-21.763,-31.3407,-38.0104,11.1686,1013.14
155900,1.54766,9.39594,0.694438,-5.003,-8.644,-21.063,-31.486,-38.0721,10.5037,1013.17
155906,1.66244,9.50593,0.51749,-2.483,-9.834,-20.293,-31.3988,-38.5347,9.72055,1013.17
155912,1.51419,9.51071,0.484013,-1.783,-10.184,-19.803,-31.2245,-37.6404,9.91265,1013.15
155918,1.54288,9.67331,0.216198,-1.013,-12.144,-18.893,-31.5151,-38.5039,11.6415,1013.15
155924,1.57636,9.62549,0.0822912,-1.363,-12.914,-18.263,-30.963,-39.1515,9.82399,1013.15
155930,1.65766,9.83113,-0.223782,-1.503,-13.614,-18.193,-30.8468,-38.288,10.2525,1013.15
155936,1.76287,10.1276,-0.410296,-3.533,-14.244,-18.263,-30.4981,-37.8254,10.2968,1013.15
155942,1.91591,10.2233,-0.893318,-10.393,-13.684,-18.543,-30.8758,-39.0282,9.9422,1013.11
155948,1.78678,10.0129,-0.745064,-13.333,-12.844,-18.893,-31.0792,-38.7198,9.80921,1013.11
155954,1.56201,10.0989,-0.926795,-18.093,-11.724,-18.263,-30.8758,-38.0104,11.1686,1013.16
155960,1.74374,10.0846,-0.0803104,-19.703,-14.874,-19.873,-30.7015,-38.6581,10.6367,1013.16
155966,1.67679,10.2998,0.220981,-22.713,-15.294,-20.433,-30.9339,-39.1824,8.8783,1013.17
155972,1.90634,9.96982,0.0392496,-28.103,-18.934,-21.973,-29.9751,-38.103,10.09,1013.17
155978,1.74852,9.03725,0.426624,-28.243,-14.594,-22.183,-30.469,-38.288,10.0456,1013.14
155984,1.65766,9.47245,0.900082,-25.233,-15.714,-22.673,-30.6434,-39.3982,6.15944,1013.14
155990,1.55723,9.54897,0.909646,-24.533,-14.664,-22.813,-29.8879,-39.1824,9.27726,1013.14
155996,2.07373,9.61593,1.27789,-24.323,-16.834,-25.333,-29.9169,-38.8123,9.60234,1013.17
156002,1.22246,8.89857,0.225763,-25.163,-10.534,-24.773,-30.0913,-40.3851,8.43501,1013.17
156008,0.806392,8.74075,0.431406,-18.373,-12.074,-22.533,-30.5852,-39.8608,9.36592,1013.15
156014,1.2655,10.2663,1.18703,-16.203,-22.364,-24.423,-30.3237,-38.3497,9.82399,1013.15
156020,1.29898,8.66423,0.0249024,-23.413,-10.114,-22.533,-29.5392,-40.2001,9.17383,1013.18
156026,1.15551,9.28116,1.36397,-16.063,-15.574,-24.073,-29.946,-40.2617,9.32159,1013.18
156032,1.61462,10.2902,1.15833,-26.563,-17.604,-26.243,-29.6845,-39.4907,9.79444,1013.13
156038,1.33246,8.7264,-0.00379199,-27.333,-11.934,-23.933,-29.8298,-40.5393,9.23293,1013.13
156044,1.26072,9.63984,1.07225,-20.263,-16.064,-24.983,-29.0452,-41.0636,8.50889,1013.13
156050,1.42332,9.87896,0.51749,-24.603,-11.164,-23.233,-29.3649,-40.0767,8.3759,1013.13
156056,1.11725,9.82635,1.6844,-23.343,-16.204,-25.123,-29.0743,-38.9048,9.39547,1013.13
156062,1.15551,9.30985,1.84221,-27.333,-15.294,-25.333,-29.2486,-41.5879,8.31679,1013.15
156068,2.02112,9.82157,1.81352,-20.753,-12.704,-26.173,-29.3358,-41.2178,8.25769,1013.15
156074,1.60505,9.52506,2.21046,-24.043,-10.954,-27.573,-27.912,-40.7552,9.39547,1013.16
156080,2.15981,9.67331,0.694438,-19.353,-6.124,-28.553,-28.9581,-41.0327,8.67143,1013.16
156086,1.65288,10.0129,1.46919,-17.533,-8.434,-30.933,-29.6554,-41.4337,6.98692,1013.19
156092,2.49936,10.1372,0.254458,-17.463,-10.394,-33.103,-28.4641,-41.2178,8.65665,1013.19
156098,2.45632,10.6776,1.31615,-16.343,-8.014,-36.883,-28.5803,-40.9094,8.96696,1013.19
156104,2.87717,10.1994,1.1679,-15.433,-5.984,-39.823,-28.0282,-42.4205,9.15905,1013.19
156110,2.78152,10.4863,1.3831,-12.353,-3.674,-45.353,-28.2316,-41.1869,8.34635,1013.19
156116,2.64762,10.515,2.4161,-10.393,-2.974,-49.273,-28.2607,-41.7729,8.73053,1013.15
156122,3.30759,10.5676,1.29224,-8.643,0.106,-53.823,-28.2316,-41.9271,8.16903,1013.15
156128,2.9776,10.6728,1.71787,-4.653,2.556,-58.233,-27.4181,-42.8831,8.19858,1013.17
156134,2.98717,11.0076,1.47875,-2.343,5.706,-65.933,-26.866,-41.8963,7.91783,1013.17
156140,3.03021,10.9693,2.22481,-0.453,3.326,-67.473,-27.4471,-43.1298,8.70098,1013.16
156146,3.1689,10.9167,2.84652,5.147,3.536,-77.343,-26.6626,-43.3766,7.22334,1013.16
156152,3.21194,10.4385,3.2052,7.177,7.036,-83.643,-26.372,-43.2224,6.97214,1013.16
156158,2.96804,11.2037,2.48784,18.097,10.326,-92.953,-25.5003,-42.6056,7.74052,1013.16
156164,2.76239,11.328,2.34437,17.957,3.956,-97.713,-26.0814,-44.2092,7.26767,1013.16
156170,2.76718,10.1707,3.22433,23.277,6.266,-107.513,-24.9482,-43.4382,8.02127,1013.14
156176,3.32672,10.8593,2.52132,32.587,4.236,-112.063,-24.338,-44.3943,8.50889,1013.14
156182,3.38889,12.0023,3.75039,37.487,1.996,-122.913,-23.7278,-45.3811,7.71096,1013.18
156188,4.21624,11.7011,2.64088,39.307,3.676,-129.353,-23.5535,-45.6279,8.09515,1013.18
156194,3.59453,11.0793,2.53088,43.577,9.906,-142.303,-23.9894,-45.2886,9.9422,1013.13
156200,3.49888,12.2702,1.29702,54.147,11.026,-148.673,-22.9433,-45.7512,9.76488,1013.13
156206,2.64762,13.1692,0.914429,55.337,-1.854,-163.513,-21.8392,-46.5531,7.85873,1013.15
156212,3.09238,13.5662,-0.027704,53.727,-8.224,-171.843,-20.5025,-46.7689,11.9075,1013.15
156218,3.74757,14.1783,0.225763,53.587,-11.514,-187.103,-20.3573,-47.8483,12.3064,1013.15
156224,4.16842,14.647,0.484013,52.187,-18.024,-200.473,-19.2241,-47.91,10.3116,1013.15
156230,4.84274,15.7326,-0.563333,50.367,-18.164,-219.793,-18.0037,-48.866,11.7154,1013.15
156236,5.13925,15.5939,-0.620722,42.737,-22.154,-232.113,-17.161,-48.4651,12.0257,1013.18
156242,5.9953,15.3644,-0.644634,40.427,-21.594,-252.623,-15.8825,-50.223,10.7697,1013.18
156248,5.9666,16.4213,-1.18983,40.777,-17.884,-268.093,-14.8365,-50.4389,11.1095,1013.17
156254,6.27746,17.4351,-1.35721,30.347,-19.284,-292.103,-13.4999,-50.4389,11.804,1013.17
156260,6.27268,16.4213,-0.855059,26.147,-22.364,-310.163,-11.7274,-51.1173,13.1339,1013.17
156266,6.39702,17.1626,-0.195088,37.767,-21.384,-335.923,-10.0421,-52.3509,11.7154,1013.17
156272,6.22007,19.6877,0.0105552,37.907,-36.154,-364.413,-7.80474,-52.3818,11.5676,1013.17
156278,9.48645,18.9894,-0.845494,28.177,-13.614,-390.173,-6.87492,-52.5668,12.469,1013.14
156284,5.00534,17.2725,2.56436,51.837,-2.484,-425.453,-3.94019,-53.9854,12.0109,1013.14
156290,6.70787,21.2324,2.70783,60.727,-23.274,-443.023,-1.96433,-53.7696,11.8927,1013.13
156296,8.96517,18.3151,-0.09944,47.497,-16.694,-463.953,0.563613,-52.8752,13.4294,1013.13
156302,4.26407,18.0282,2.82739,75.147,11.096,-471.513,2.4523,-54.4172,13.3851,1013.14
156308,1.68157,24.537,2.88478,106.857,-23.554,-483.133,5.27081,-53.6154,13.2373,1013.14
156314,4.92882,27.8464,0.95747,92.717,-42.734,-485.933,7.45007,-52.9369,15.3208,1013.14
156320,5.97138,26.3878,3.74561,71.507,-24.744,-492.233,10.3267,-52.7827,14.449,1013.14
156326,4.92404,24.5992,4.83121,75.427,-30.414,-497.623,13.3486,-52.8444,15.0253,1013.11
156332,8.60649,28.5973,-1.88806,90.057,-30.764,-491.463,14.8305,-51.6416,17.0349,1013.11
156338,9.90252,28.8555,-2.8015,75.637,-10.464,-483.553,17.4456,-50.7781,17.5668,1013.11
156344,9.93599,20.8307,1.847,55.687,-12.424,-464.443,19.7992,-51.6108,16.2074,1013.12
156350,9.39558,15.6131,-0.988966,57.227,-7.734,-449.533,21.4845,-49.9454,15.3651,1013.12
156356,10.1942,13.0162,-2.38543,39.377,-46.584,-427.903,23.1117,-49.0511,17.7441,1013.14
156362,13.7571,5.48871,-9.27687,5.077,-83.614,-400.883,25.8721,-48.4343,16.2665,1013.14
156368,4.30711,-5.87427,-10.2047,0.387,48.126,-346.003,26.889,-46.954,16.6802,1013.07
156374,-19.7723,13.3558,-2.95932,63.037,127.646,-226.163,26.9472,-45.9363,17.094,1013.07
156380,-17.0559,17.6791,10.3262,36.577,-151.864,-49.203,27.383,-46.4297,16.828,1013.11
156386,7.37263,14.2453,-3.4519,13.757,-199.534,23.527,29.0392,-47.4474,15.6607,1013.11
156392,13.1832,11.945,-5.72832,-7.383,-40.424,117.887,27.7317,-46.4914,14.7741,1013.11
156398,8.53953,8.87465,-0.391166,-9.413,-20.614,159.607,27.2377,-46.7073,15.7493,1013.11
156404,11.9876,7.48776,-1.77806,-15.013,-44.554,198.527,27.354,-48.095,15.7937,1013.11
156410,14.4841,6.25868,-3.17931,-22.503,0.806,217.287,25.5234,-47.8483,15.838,1013.07
156416,11.8442,4.86222,-1.29026,-24.043,21.456,224.707,23.8671,-47.9717,16.5768,1013.07
156422,9.72079,4.49876,-0.529856,-29.713,27.546,233.667,23.7509,-49.4212,15.0105,1013.07
156428,9.1995,3.04969,-0.620722,-32.583,30.276,238.637,23.3441,-49.6987,14.4047,1013.07
156434,8.07086,2.11712,-0.792888,-32.723,37.626,246.407,21.2811,-49.2053,14.6706,1013.06
156440,7.04264,2.14103,-0.67811,-32.163,40.496,252.567,20.4094,-49.8837,14.1387,1013.06
156446,5.79444,2.71014,-0.467685,-32.513,40.216,263.627,18.5788,-51.6725,14.3456,1013.05
156452,5.25881,3.21229,-0.544203,-33.843,38.396,271.817,17.126,-51.7341,14.6263,1013.05
156458,4.76622,4.14964,-0.783323,-37.063,36.576,284.347,15.8765,-52.6285,14.4342,1013.05
156464,4.39797,4.83352,-1.15157,-40.423,36.366,292.187,13.8716,-52.9677,12.7497,1013.07
156470,3.38411,5.47437,-1.21852,-47.633,34.266,303.877,12.6803,-53.4303,13.193,1013.07
156476,2.53284,5.41698,-0.783323,-50.713,30.276,311.577,10.9659,-52.6902,12.7349,1013.06
156482,1.90634,5.43133,-0.314648,-50.713,19.496,322.357,9.97801,-54.1088,11.8484,1013.06
156488,1.84417,5.40741,-0.123352,-49.733,12.006,328.867,8.99008,-54.1088,11.4494,1013.08
156494,1.58592,5.12525,0.330976,-45.323,1.366,337.477,6.49119,-53.9546,10.681,1013.08
156500,1.43767,5.06786,0.49836,-40.983,-6.194,343.217,4.68967,-54.7873,11.5528,1013.06
156506,1.50462,5.23046,0.555749,-32.723,-17.114,351.617,4.02137,-54.5405,9.17383,1013.06
156512,1.39463,5.6561,0.641832,-26.913,-24.254,357.707,1.43532,-53.677,12.07,1013.06
156518,1.48549,6.66518,0.665744,-19.843,-35.944,367.717,-0.918284,-53.9546,11.2425,1013.06
156524,1.82983,7.44472,0.531837,-16.273,-42.314,374.927,-2.31301,-54.448,10.2821,1013.06
156530,2.30807,8.57814,0.47923,-13.193,-48.614,385.707,-4.34698,-53.5537,9.64667,1013.07
156536,2.58544,9.12334,0.541402,-11.793,-52.044,392.287,-5.77076,-53.0911,10.7992,1013.07
156542,3.10194,10.032,0.493578,-9.973,-54.144,400.687,-6.58435,-52.9986,10.3707,1013.05
156548,3.23585,10.6011,0.546184,-9.903,-54.914,406.077,-9.3738,-52.7518,9.23293,1013.05
156554,3.61366,11.3472,0.651397,-9.623,-56.594,407.127,-11.0591,-51.6416,9.95698,1013.08
156560,4.2019,12.1793,0.464883,-8.013,-56.314,404.187,-13.2965,-50.6856,9.20338,1013.08
156566,4.33102,12.6767,0.469666,-6.613,-54.914,399.777,-14.8074,-50.0996,9.82399,1013.08
156572,4.22103,13.2458,0.866605,-2.833,-53.094,389.977,-17.0157,-48.7118,10.2082,1013.08
156578,4.02495,13.6331,1.17746,1.787,-52.324,382.277,-18.701,-47.91,8.95218,1013.08
156584,3.77148,14.3457,1.56962,11.167,-51.064,370.027,-20.5025,-48.6502,8.78964,1013.07
156590,3.63757,15.0009,1.79439,18.517,-51.414,362.187,-21.6939,-47.8175,10.1047,1013.07
156596,3.93408,16.2778,2.00482,29.717,-53.164,350.427,-23.2339,-44.7643,10.1491,1013.06
156602,4.2019,17.4399,2.18655,38.187,-51.624,343.007,-24.1928,-44.7335,10.223,1013.06
156608,3.8193,20.032,2.82739,52.047,-48.124,335.237,-26.1105,-43.1298,10.8288,1013.08
156614,3.41758,22.2223,2.85608,61.147,-45.954,334.887,-27.0113,-42.0505,9.32159,1013.08
156620,2.59979,25.9048,2.10046,69.267,-40.564,343.847,-28.406,-41.0019,11.2573,1013.1
156626,2.1359,27.9803,1.69874,69.477,-36.434,356.307,-30.6724,-39.6758,9.83876,1013.1
156632,2.13112,30.4624,0.47923,64.017,-25.794,380.947,-31.486,-37.4245,11.8484,1013.1
156638,2.09764,31.7967,-0.35769,56.457,-12.074,398.867,-33.026,-35.5433,10.6219,1013.1
156644,0.352064,32.6001,-0.711587,36.227,15.366,422.737,-35.1181,-34.0013,12.5576,1013.1
156650,-2.09174,31.0746,0.933558,22.297,29.646,433.867,-36.3966,-31.75,12.602,1013.09
156656,-5.81723,29.2142,2.37784,14.807,36.576,436.877,-37.5298,-28.7894,12.336,1013.09
156662,-7.97409,29.702,2.4161,15.647,40.496,430.157,-39.2151,-27.9258,12.3508,1013.14
156668,-10.9248,30.9646,2.11959,15.227,43.156,408.667,-40.7551,-25.4895,11.8484,1013.14
156674,-12.3213,31.3663,1.77048,12.427,43.646,387.247,-41.1038,-23.269,11.4937,1013.13
156680,-13.4691,30.802,-0.0707456,2.557,47.216,347.137,-42.0046,-21.8813,11.1982,1013.13
156686,-14.1769,30.362,-3.36582,-10.533,57.226,300.167,-42.9634,-20.8635,10.6662,1013.13
156692,-17.9119,29.9172,-9.14774,-43.783,66.606,269.297,-43.4865,-19.5991,10.2821,1013.15
156698,-24.7508,24.6614,-7.12479,-79.483,71.366,225.127,-44.6197,-17.5945,10.0604,1013.15
156704,-29.184,18.8986,-3.49016,-82.843,69.056,196.567,-44.9974,-16.8544,9.55801,1013.13
156710,-35.8985,11.505,1.78961,-51.063,52.676,155.757,-44.7359,-16.3918,10.2082,1013.13
156716,-39.844,8.76466,4.17124,-15.853,24.046,131.537,-44.8521,-15.4358,10.9765,1013.17
156722,-40.7192,9.12334,4.4821,44.277,-39.934,96.537,-45.6367,-16.2684,9.48413,1013.17
156728,-37.4002,12.2176,2.86087,76.757,-70.384,68.957,-46.1597,-15.3124,10.1638,1013.13
156734,-31.6709,17.6647,0.106203,89.077,-66.604,19.887,-44.9974,-13.7704,11.8188,1013.13
156740,-28.6723,19.9985,-0.907666,84.387,-56.734,-15.253,-45.0846,-13.8321,10.7845,1013.13
156746,-23.8851,21.4428,-0.783323,73.887,-46.654,-64.183,-45.8982,-14.6339,10.415,1013.14
156752,-20.8722,22.0358,-0.783323,61.357,-40.144,-90.713,-45.2589,-13.6779,12.0404,1013.14
156758,18.3913,53.1119,11.9905,360.607,-452.934,-380.093,-44.3582,-15.8058,14.9218,1013.15
156764,4.42667,58.0664,-23.4567,-137.863,-59.044,-278.873,-44.7649,-17.317,13.1487,1013.15
156770,19.7543,-14.8508,-11.6633,-382.233,58.766,-296.793,-43.6317,-19.8458,13.5476,1013.11
156776,13.2454,-24.1096,11.4883,-221.373,73.186,-284.753,-42.731,-21.0794,12.7497,1013.11
156782,9.44819,-7.11291,9.96751,159.217,54.006,-290.213,-42.8472,-22.7448,12.1734,1013.15
156788,12.2889,4.99613,3.61648,165.727,-11.234,-297.703,-42.208,-23.4849,13.2669,1013.15
156794,12.0833,12.5619,-1.47677,101.957,116.586,-308.553,-40.6679,-24.4718,12.6906,1013.17
156800,5.32576,11.7058,-0.926795,76.967,184.626,-292.593,-40.3193,-26.0755,12.1882,1013.17
156806,-2.39782,10.692,-0.285954,69.897,226.066,-290.003,-40.6389,-27.4016,9.05562,1013.17
156812,-11.1066,15.6322,7.29893,53.517,191.766,-298.123,-39.6219,-28.9127,9.85354,1013.15
156818,-17.5437,20.2233,10.7949,18.027,15.226,-292.453,-38.9536,-30.4547,9.46935,1013.15
156824,-12.1109,25.0535,4.00864,19.077,-122.184,-255.213,-37.7623,-32.3668,9.45458,1013.16
156830,0.419018,24.6279,-5.34095,-25.163,-118.544,-232.673,-37.1811,-33.1378,8.52366,1013.16
156836,3.85278,15.6322,-2.92106,-53.933,-45.394,-221.753,-35.9607,-33.5695,10.0161,1013.15
156842,3.23107,11.6341,-2.12718,-47.703,-15.084,-207.053,-35.6992,-34.8031,9.32159,1013.15
156848,1.49028,11.0124,-1.65372,-21.033,-1.854,-202.293,-35.4958,-35.8825,8.02127,1013.13
156854,2.45154,11.9641,-2.13674,-2.833,5.566,-195.153,-33.3747,-35.2966,10.1638,1013.13
156860,-4.87032,31.5528,-11.5915,83.687,151.726,-110.313,-33.3747,-36.561,8.80442,1013.13
156866,-8.23713,25.5796,-0.0707456,-0.663,156.136,-75.033,-34.3626,-38.7506,8.71576,1013.12
156872,-7.17065,8.46337,8.36541,-75.003,31.396,-60.613,-33.2585,-37.3628,8.90785,1013.12
156878,1.30854,0.0989488,5.70639,-17.463,-23.834,-59.843,-32.8226,-38.2572,8.27247,1013.16
156884,3.55627,9.84548,1.56962,39.377,-1.714,-55.013,-33.4909,-38.9973,8.13948,1013.16
156890,1.26072,12.4662,1.79439,19.497,27.686,-49.203,-32.5902,-38.8123,8.15425,1013.14
156896,-1.36482,8.889,2.10525,13.057,27.196,-41.083,-33.4619,-37.7946,9.07039,1013.14
156902,-1.33612,9.67331,0.938341,22.087,0.106,-33.733,-33.6653,-39.83,7.85873,1013.15
156908,2.65718,11.2467,-1.80197,13.687,-18.374,-31.773,-32.8226,-38.9356,8.27247,1013.15
156914,3.6041,10.5437,-1.35721,4.027,-6.684,-32.053,-32.6773,-37.7329,8.05082,1013.1
156920,2.19807,9.70201,-0.152046,1.717,6.826,-32.193,-32.5321,-38.3497,7.57797,1013.1
156926,1.59549,10.5533,0.244893,-1.083,8.156,-31.283,-32.9679,-38.9048,7.11991,1013.1
156932,1.14116,10.3668,0.464883,-7.803,2.556,-28.763,-32.9388,-38.9665,7.97694,1013.15
156938,1.83939,10.0224,0.216198,-11.303,-2.134,-27.503,-31.5441,-38.7506,9.15905,1013.15
156944,2.95369,9.66853,-0.242912,-10.603,2.416,-28.413,-33.3747,-39.4599,7.84395,1013.12
156950,1.83939,10.2329,0.187504,-9.343,7.666,-27.013,-32.503,-39.645,7.48932,1013.12
156956,1.19377,10.252,0.608355,-13.613,5.636,-23.933,-32.0962,-38.9356,8.22814,1013.14
156962,1.7007,9.23812,1.2205,-9.553,0.876,-23.723,-32.9388,-39.5216,8.15425,1013.14
156968,1.64331,9.65418,0.651397,-8.643,0.106,-22.883,-32.5321,-40.015,8.80442,1013.15
156974,1.76287,9.65418,0.507925,-10.043,0.596,-22.253,-31.8637,-39.1515,8.05082,1013.15
156980,1.51419,9.63027,0.775739,-8.783,-2.834,-21.203,-32.3577,-40.2617,8.25769,1013.15
156986,1.83461,9.48202,0.928776,-6.473,-6.894,-20.503,-31.9509,-39.7066,8.30202,1013.13
156992,1.78678,9.4868,0.885734,-4.863,-6.964,-19.803,-31.6603,-39.7066,7.93261,1013.13
156998,1.74852,9.47724,0.871387,-2.413,-10.044,-18.963,-31.6313,-39.2132,8.47934,1013.15
157004,1.92547,9.5681,0.589226,-1.643,-11.374,-19.103,-31.4569,-40.2926,7.96216,1013.15
157010,1.76765,9.76896,0.350106,-0.733,-13.474,-18.613,-30.9049,-40.8477,8.42023,1013.14
157016,2.0259,9.71157,0.264022,-0.943,-14.384,-18.613,-31.1083,-39.5524,8.58277,1013.14
157022,1.62896,9.84548,0.187504,-1.293,-12.354,-17.353,-31.3407,-40.9402,8.10993,1013.13
157028,1.49506,9.71157,0.235328,-2.413,-14.524,-16.093,-31.5732,-40.3851,7.63708,1013.13
157034,1.77722,9.69244,-0.142482,-2.203,-17.604,-16.373,-32.009,-39.4291,7.68141,1013.13
157040,1.782,9.922,-0.0085744,-3.743,-17.044,-15.743,-31.2826,-40.015,8.65665,1013.19
157046,1.92069,9.71157,-0.128134,-7.663,-13.544,-15.323,-31.6022,-41.1561,7.48932,1013.19
157052,1.60505,9.75461,-0.104222,-8.153,-14.104,-15.113,-30.7305,-39.7683,7.79962,1013.14
157058,1.71027,9.91722,-0.109005,-10.323,-17.114,-15.253,-30.3818,-39.7375,8.6271,1013.14
157064,1.9446,9.90765,-0.219,-12.703,-17.114,-15.253,-31.2245,-41.0327,7.37111,1013.16
157070,1.51897,9.80722,0.110986,-16.063,-15.714,-15.533,-30.992,-40.8477,8.03604,1013.16
157076,2.13112,10.1898,-0.501162,-17.323,-17.254,-15.673,-30.2366,-41.0944,8.0656,1013.17
157082,1.9733,10.1659,-0.204653,-21.173,-16.624,-16.793,-30.5271,-41.7729,7.60753,1013.17
157088,2.23155,10.2615,-0.195088,-23.903,-17.254,-17.703,-30.1494,-40.6318,6.45497,1013.15
157094,2.6237,10.2233,-0.31943,-27.753,-14.874,-20.363,-30.0913,-41.2486,8.71576,1013.15
157100,1.92547,9.74983,0.321411,-29.433,-12.424,-21.623,-30.0041,-40.4776,7.45976,1013.15
157106,1.42332,9.08986,1.03877,-29.363,-12.004,-21.693,-29.3358,-42.4514,6.88348,1013.18
157112,1.66722,9.74027,0.823563,-29.083,-13.404,-21.833,-29.8879,-40.8785,7.22334,1013.18
157118,1.4281,9.5155,0.861822,-28.383,-14.454,-21.763,-30.0622,-41.4337,7.26767,1013.14
157124,1.15072,9.37202,0.804434,-31.603,-13.054,-21.133,-30.0913,-42.3897,6.20377,1013.14
157130,1.79635,9.73549,0.268805,-28.803,-16.134,-21.063,-29.8588,-41.9271,7.53365,1013.13
157136,1.94939,10.3046,0.292717,-33.353,-15.364,-23.233,-29.5392,-41.3411,7.82917,1013.13
157142,1.28941,9.62549,-0.0803104,-35.663,-13.194,-23.443,-29.4811,-41.8654,7.66663,1013.15
157148,0.796827,9.41506,0.885734,-36.013,-20.404,-24.143,-29.8588,-42.2972,6.76527,1013.15
157154,1.68157,9.72592,-0.132917,-34.753,-22.294,-23.443,-29.5392,-41.1561,7.07558,1013.15
157160,1.60027,9.62071,0.804434,-37.763,-20.754,-24.913,-29.6845,-42.7906,6.79483,1013.17
157166,1.13638,8.55423,0.770957,-38.743,-18.864,-24.913,-30.0332,-43.4074,6.42542,1013.17
157172,1.51419,8.68336,1.03399,-31.393,-19.424,-23.793,-29.0452,-42.4205,7.09035,1013.16
157178,2.18851,9.81679,2.00003,-29.153,-21.734,-26.033,-28.3479,-43.0682,6.57318,1013.16
157184,2.82935,9.70679,1.19181,-29.643,-14.594,-26.033,-29.1615,-44.055,6.61751,1013.16
157190,2.79109,9.68766,2.71261,-26.213,-12.284,-30.023,-29.1324,-43.099,5.4945,1013.16
157196,2.41806,9.18551,2.59305,-22.223,-5.144,-32.123,-28.2898,-42.8831,7.69619,1013.16
157202,2.24111,8.96074,2.04786,-16.553,-1.224,-34.013,-28.6384,-43.9008,5.6866,1013.16
157208,2.0546,9.35768,2.03351,-10.603,-2.764,-34.363,-28.6094,-44.2401,6.27765,1013.16
157214,2.06895,9.36246,3.08086,-6.823,-0.244,-37.233,-27.4181,-43.1915,6.12989,1013.13
157220,2.38937,9.812,3.08086,-4.023,1.786,-40.173,-28.5803,-43.2224,3.21894,1013.13
157226,2.9776,10.0798,1.70352,0.177,1.996,-41.853,-27.8249,-44.826,5.27286,1013.14
157232,3.13542,10.2185,1.62701,6.407,3.816,-46.893,-27.5633,-43.4999,6.17422,1013.14
157238,2.79109,10.1037,2.63131,11.657,5.006,-53.403,-27.1565,-43.8083,6.02645,1013.15
157244,2.99195,10.5294,2.79869,10.607,8.436,-58.303,-27.0113,-45.5045,4.90345,1013.15
157250,3.29802,10.5246,2.72696,15.437,10.256,-64.183,-27.1275,-44.7027,5.92302,1013.17
157256,3.58018,10.9598,2.38741,20.127,12.776,-66.983,-26.1105,-44.1476,6.44019,1013.17
157262,2.69544,10.6776,2.60262,20.967,17.256,-76.503,-26.2267,-46.2138,4.91822,1013.14
157268,3.26455,11.1559,1.28267,26.917,15.856,-78.463,-25.9943,-45.0727,5.80481,1013.14
157274,2.84848,11.8206,2.31089,28.737,8.366,-91.203,-25.4713,-45.1961,6.33676,1013.14
157280,3.45584,10.8211,2.3348,29.087,11.376,-97.643,-25.6747,-46.1521,5.71615,1013.13
157286,3.36976,11.7058,2.28698,38.327,12.356,-107.863,-24.9482,-46.9231,5.96735,1013.13
157292,3.06847,11.8158,2.79869,36.927,6.616,-113.533,-24.338,-46.3989,7.35633,1013.16
157298,3.59453,10.9502,2.83217,42.317,9.346,-123.053,-23.3792,-46.183,7.28245,1013.16
157304,3.2502,10.6824,3.46345,48.127,12.286,-130.753,-23.0305,-47.5091,6.41064,1013.16
157310,3.10194,11.8589,2.18655,56.947,9.136,-140.693,-22.1588,-47.7558,6.8096,1013.16
157316,3.1689,12.2367,1.72744,57.297,2.416,-147.763,-21.9844,-46.7689,8.49411,1013.17
157322,3.58497,12.7962,0.445754,58.557,-1.014,-159.313,-20.6478,-48.4651,7.94739,1013.17
157328,3.75235,13.2314,0.522272,57.927,0.176,-168.203,-19.7471,-48.7118,8.76009,1013.17
157334,4.35015,14.207,0.723133,56.527,-9.204,-185.983,-19.1078,-48.6502,7.66663,1013.12
157340,4.95273,14.6518,-0.912448,53.587,-10.114,-197.673,-18.0908,-49.8221,9.02606,1013.12
157346,3.83365,15.5557,-2.50977,48.337,-3.044,-217.483,-17.2482,-50.6856,8.8783,1013.15
157352,3.09716,15.9191,-1.9311,42.947,-13.894,-228.963,-16.3474,-50.5314,9.09995,1013.15
157358,5.19663,16.163,-2.62933,32.937,-30.414,-248.773,-14.4587,-50.7164,9.39547,1013.15
157364,6.09573,17.0526,-2.98323,29.997,-28.384,-263.963,-13.7033,-52.5051,9.41025,1013.15
157370,6.89439,18.1669,-1.93588,20.827,-33.284,-289.583,-12.047,-51.7033,10.0161,1013.15
157376,7.76478,18.3868,-1.63937,12.917,-33.844,-318.353,-9.83871,-52.536,8.95218,1013.15
157382,6.27268,18.3725,-0.649416,12.637,-31.884,-338.233,-8.79267,-54.3247,10.3559,1013.15
157388,10.4764,19.372,0.192286,17.187,-43.084,-363.083,-6.46813,-54.448,9.15905,1013.14
157394,10.8542,19.4246,0.512707,14.807,-18.724,-389.963,-4.98623,-53.8929,12.5576,1013.14
157400,7.41567,19.7785,0.933558,21.597,3.746,-426.223,-2.02244,-55.0957,11.5972,1013.16
157406,6.18659,21.5002,1.67483,23.277,-6.754,-441.903,0.563613,-55.805,9.33637,1013.16
157412,7.98477,18.076,1.01008,15.297,-14.664,-462.763,1.95834,-55.5891,9.95698,1013.15
157418,4.74231,16.2348,2.32524,42.037,1.436,-471.303,4.39911,-56.0825,12.1143,1013.15
157424,1.99243,24.9626,1.64614,91.177,-18.304,-481.453,6.7527,-56.576,11.9222,1013.16
157430,6.06703,28.4777,-1.40025,62.197,-51.274,-490.413,9.57121,-55.4349,12.2178,1013.16
157436,7.02829,25.6991,2.22002,38.677,-20.054,-489.153,11.7795,-54.1705,12.5133,1013.17
157442,5.17751,27,3.28172,48.127,-22.784,-488.173,13.8426,-55.034,12.5428,1013.17
157448,10.5912,30.7589,-5.45573,38.607,-27.194,-491.673,17.5037,-54.2322,12.6758,1013.17
157454,10.9786,29.1138,-5.62311,10.957,1.786,-491.253,18.9565,-52.3201,12.7497,1013.12
157460,8.20476,18.0043,1.00051,-6.683,3.326,-467.593,21.3683,-52.1967,11.9075,1013.12
157466,8.45823,13.2219,-0.0707456,18.237,-1.784,-448.553,24.4192,-51.765,14.3603,1013.14
157472,12.3559,15.5748,-5.44616,27.757,-42.874,-435.463,25.843,-50.6547,13.8284,1013.14
157478,16.2966,8.98465,-12.5767,-26.563,-69.614,-407.043,27.9932,-50.1613,15.1878,1013.08
157484,10.8973,-9.15978,-14.4084,-59.813,60.936,-348.733,30.0272,-49.0202,13.5181,1013.08
157490,-13.8899,7.6934,-7.15826,8.017,188.476,-234.493,29.7076,-48.9586,14.7002,1013.1
157496,-20.0305,12.5762,11.3353,15.507,-59.744,-46.963,29.7076,-47.6016,14.5377,1013.1
157502,2.27937,10.6394,-0.482032,3.257,-175.664,36.687,30.3759,-48.7427,14.316,1013.1
157508,14.1062,8.17642,-6.8761,-8.153,-43.784,131.327,30.2306,-49.6062,12.8088,1013.07
157514,10.8829,5.66566,-2.46195,7.877,-11.584,186.417,28.7487,-48.5576,11.9961,1013.07
157520,11.9303,6.12956,-1.89284,5.077,-27.614,206.087,28.5162,-49.637,11.9666,1013.09
157526,14.9145,4.58484,-3.66711,1.297,-1.574,218.127,27.354,-50.7781,11.7449,1013.09
157532,13.5658,4.42702,-2.71063,3.747,24.326,220.647,25.7849,-50.3772,12.8384,1013.09
157538,10.3568,4.47963,-1.43373,-1.433,39.026,223.587,24.5645,-51.5491,13.0452,1013.09
157544,9.21863,3.5088,-1.20896,-6.193,39.166,227.157,22.9373,-52.4743,11.5972,1013.07
157550,8.02782,2.51406,-1.59633,-7.663,44.136,235.277,22.792,-52.5668,11.7449,1013.07
157556,6.77961,2.44711,-1.18026,-10.813,45.956,242.837,20.4966,-52.8444,12.5281,1013.06
157562,5.50749,2.52841,-1.07027,-11.863,45.256,256.487,19.7992,-54.0163,12.0257,1013.06
157568,4.9623,3.16925,-1.01288,-13.403,42.526,266.007,18.8403,-54.9723,11.7449,1013.06
157574,4.36928,4.4605,-1.07027,-18.093,37.486,280.847,17.0097,-55.0648,11.213,1013.03
157580,4.60362,4.94352,-1.24722,-22.783,40.566,289.597,15.3245,-55.3115,11.3903,1013.03
157586,3.23585,6.17738,-1.10853,-27.053,36.226,302.687,14.3075,-56.2984,12.0109,1013.06
157592,2.96325,6.77996,-1.5772,-32.863,29.996,311.927,12.4188,-55.3732,12.4099,1013.06
157598,2.44676,6.88039,-1.68241,-40.633,29.156,326.627,9.60027,-56.9152,10.7845,1013.05
157604,1.51419,6.70823,-1.10374,-43.153,25.026,337.197,8.49611,-57.532,9.95698,1013.05
157610,0.978558,6.41172,-0.639851,-42.523,11.586,353.577,6.49119,-57.1311,9.08517,1013.05
157616,1.06942,6.19651,-0.424643,-40.213,4.236,364.427,3.81797,-57.0386,10.0456,1013.05
157622,1.1316,5.97174,-0.0133568,-34.473,-5.284,379.897,1.75494,-57.1619,9.67622,1013.05
157628,1.36593,5.91435,0.177939,-29.573,-12.704,388.927,0.883237,-57.347,9.32159,1013.06
157634,1.97808,6.2539,0.340541,-21.103,-23.834,399.847,-1.26696,-56.2984,9.14427,1013.06
157640,2.34154,6.72736,0.436189,-15.923,-29.924,405.307,-3.50434,-56.1442,9.21815,1013.09
157646,2.94891,7.47819,0.484013,-9.133,-38.744,409.717,-6.70058,-56.5143,8.58277,1013.09
157652,3.56584,8.13338,0.426624,-3.113,-44.764,408.527,-7.92096,-55.3732,9.33637,1013.09
157658,4.37406,9.45332,0.350106,-0.453,-46.024,404.677,-9.95494,-54.078,9.73533,1013.09
157664,4.84752,10.8641,0.264022,2.277,-46.094,394.597,-12.1051,-54.8181,8.43501,1013.07
157670,5.11055,11.8923,0.230546,3.187,-46.234,385.497,-14.3425,-54.1705,9.21815,1013.07
157676,5.23489,13.3414,0.154027,3.047,-43.854,370.307,-15.7953,-51.9192,8.30202,1013.07
157682,4.99099,14.1879,0.335758,2.837,-41.264,360.227,-17.7422,-52.5051,8.92263,1013.1
157688,4.32146,15.2352,0.833128,3.047,-38.044,346.997,-19.5146,-51.6416,8.19858,1013.1
157694,4.00104,15.7374,1.15833,4.027,-37.064,339.927,-21.4905,-49.9146,10.8288,1013.05
157700,3.96278,16.4882,1.44528,7.317,-34.824,331.807,-22.9724,-48.8969,9.98653,1013.05
157706,3.78583,17.1291,1.67483,11.657,-32.374,327.537,-24.6577,-48.7735,8.55322,1013.06
157712,2.7337,18.5208,2.34915,19.917,-29.784,325.717,-25.9652,-46.8923,9.02606,1013.06
157718,1.85374,19.4151,2.97564,26.637,-31.744,327.747,-26.9241,-45.3503,11.4642,1013.1
157724,1.58114,21.1702,3.16694,39.167,-40.284,335.727,-29.1324,-44.826,8.81919,1013.1
157730,1.97808,22.691,2.66957,46.657,-42.104,343.007,-30.7886,-43.5308,10.1491,1013.09
157736,2.33198,25.35,1.83743,53.307,-36.784,357.287,-32.5611,-41.0019,11.9518,1013.09
157742,2.25546,26.9473,1.42615,54.987,-30.694,368.767,-33.6943,-39.7066,9.92742,1013.09
157748,1.9733,28.712,0.63705,52.327,-18.164,387.737,-35.2343,-38.2263,10.2082,1013.08
157754,1.52375,29.262,-0.0181392,47.567,-6.124,399.637,-36.4838,-34.5872,11.8927,1013.08
157760,-0.480074,28.9751,-0.051616,38.397,13.126,412.307,-38.14,-33.3228,11.0061,1013.12
157766,-2.61302,28.0329,0.813998,36.087,21.246,415.597,-40.0577,-30.5472,10.6515,1013.12
157772,-5.70245,28.2242,0.943123,39.517,28.806,411.467,-40.9585,-29.1594,11.3016,1013.09
157778,-7.82106,29.1329,0.747045,43.367,33.776,403.067,-41.8012,-26.9081,11.7745,1013.09
157784,-11.0061,30.6728,0.426624,44.557,35.386,382.627,-43.3993,-24.9961,10.09,1013.13
157790,-12.4839,31.0411,-0.300301,37.277,38.326,353.857,-44.7068,-22.8681,11.9518,1013.13
157796,-14.1099,30.5246,-2.81106,26.567,43.366,329.427,-44.5034,-20.2776,11.9518,1013.13
157802,-16.592,29.8742,-7.80867,-1.713,54.286,285.887,-45.811,-19.7842,10.8436,1013.13
157808,-20.217,28.2242,-8.67428,-27.753,60.376,255.157,-47.4382,-18.2422,9.80921,1013.13
157814,-25.8124,21.5337,-4.86749,-53.233,61.846,206.787,-46.1597,-15.9909,11.5528,1013.14
157820,-29.6288,16.7274,-1.98371,-48.613,60.726,173.747,-46.305,-16.0217,10.0456,1013.14
157826,-36.152,11.8732,1.2492,-16.903,49.106,128.947,-47.8159,-15.8058,7.90306,1013.14
157832,-39.8584,10.6154,2.45436,11.447,25.446,101.927,-47.845,-14.6956,10.0604,1013.14
157838,-40.6283,11.218,1.83743,56.387,-22.364,64.407,-48.0193,-14.1405,10.1934,1013.16
157844,-37.9741,12.9158,0.747045,82.287,-47.284,36.057,-47.4672,-14.1713,11.5676,1013.16
157850,-31.7952,15.9574,-0.682893,99.927,-54.984,-12.873,-47.7578,-14.233,11.804,1013.16
157856,-27.6776,17.1339,-1.11331,102.657,-49.804,-46.823,-47.6416,-13.5545,12.3951,1013.14
157862,-21.69,18.9846,-1.38591,104.057,-46.304,-94.983,-47.874,-13.7087,12.1882,1013.14
157868,22.9154,48.4442,68.681,223.127,-289.414,-150.633,-46.6536,-15.5899,14.4194,1013.16
157874,1.24637,66.7178,-37.1057,-61.353,2.836,-329.133,-44.9974,-15.4666,15.173,1013.16
157880,15.9236,22.9349,-30.1473,-295.853,122.396,-293.433,-45.6657,-18.5197,13.0157,1013.14
157886,9.83556,-26.7494,15.319,-265.543,212.486,-290.423,-45.9853,-20.6785,10.5185,1013.14
157892,1.69114,-12.5983,6.70592,15.787,168.876,-260.043,-44.5034,-21.0794,10.3264,1013.1
157898,7.41567,12.9253,6.75374,117.217,-8.504,-281.463,-44.1257,-22.1897,9.08517,1013.1
157904,21.3946,10.9024,0.292717,36.857,16.626,-301.763,-43.9223,-25.3661,9.51368,1013.17
157910,14.7088,6.26346,-1.41938,35.667,273.106,-292.383,-42.9053,-26.7539,8.31679,1013.17
157916,3.09238,3.3988,4.92208,53.447,323.086,-269.143,-42.4695,-27.3399,8.09515,1013.17
157922,-8.79667,5.87131,12.6122,71.787,272.406,-297.843,-42.3532,-29.8071,6.41064,1013.16
157928,-15.492,12.6527,11.9761,75.567,124.566,-310.373,-41.3362,-31.3491,4.63747,1013.16
157934,-17.8689,27.9947,5.34771,41.477,25.166,-290.003,-40.203,-31.9659,5.90824,1013.17
157940,-10.8674,25.9048,3.84604,-22.433,-31.254,-248.913,-39.5638,-33.477,5.19897,1013.17
157946,-6.63024,15.8283,10.0823,-34.613,-53.094,-231.343,-38.8374,-35.1732,4.23851,1013.15
157952,-3.85167,11.768,3.03303,3.607,-85.504,-230.923,-37.8785,-35.6975,6.35153,1013.15
157958,-1.55133,15.9,-4.35578,29.087,-106.574,-228.613,-36.9196,-36.2526,7.26767,1013.14
157964,1.12681,33.4323,-19.7742,65.697,36.856,-77.203,-36.4547,-37.4553,5.70137,1013.14
157970,-3.77515,30.8115,-15.647,-26.003,116.936,-66.563,-36.2804,-37.2703,4.00209,1013.14
157976,-0.116611,6.86604,3.76474,-110.633,65.206,-71.603,-36.5709,-37.0544,4.16463,1013.11
157982,0.256416,0.165902,9.04451,-48.053,36.996,-69.433,-36.5128,-37.4862,4.31239,1013.11
157988,-1.47003,9.61593,5.2425,6.267,-0.874,-58.163,-36.3675,-38.3805,4.60792,1013.15
157994,0.0555552,11.6437,2.0909,-5.983,0.736,-52.003,-35.7864,-38.5656,4.85912,1013.15
158000,0.964211,7.89904,2.8513,-1.083,19.916,-43.323,-35.6411,-38.4114,3.17461,1013.15
158006,-0.135741,8.76466,3.18607,16.137,21.736,-38.633,-36.106,-40.6627,4.26806,1013.15
158012,-0.700064,11.5815,1.78483,7.807,-0.314,-31.003,-35.3796,-38.8431,5.33196,1013.13
158018,0.820739,10.185,-0.702022,-2.413,-14.944,-28.903,-35.2924,-38.6889,5.33196,1013.13
158024,2.96325,10.472,-1.74937,-0.943,-3.184,-26.943,-34.9147,-39.6758,3.15983,1013.13
158030,1.96373,10.6728,-0.152046,-5.983,8.436,-26.173,-35.9898,-38.6272,2.37668,1013.17
158036,0.567272,9.86939,1.38789,-10.323,5.706,-22.883,-34.9438,-39.244,4.3715,1013.17
158042,1.16985,9.94591,0.981382,-8.503,-0.874,-20.363,-35.4668,-38.8123,4.34194,1013.14
158048,2.88674,9.74983,0.02012,-8.993,-5.074,-21.693,-35.2053,-39.4599,3.69178,1013.14
158054,2.72892,9.71636,0.173157,-6.753,-0.454,-21.133,-34.7985,-38.5347,4.57836,1013.15
158060,2.08329,9.81679,0.656179,-5.073,3.956,-20.923,-35.2343,-39.4291,3.72133,1013.15
158066,1.73418,10.0129,1.0866,-6.473,2.766,-21.343,-34.566,-40.3543,3.51446,1013.15
158072,2.00199,10.3046,-0.204653,-7.733,1.576,-20.573,-35.2053,-38.9665,5.19897,1013.15
158078,2.47067,10.2233,-0.67811,-11.793,3.256,-21.693,-35.0309,-38.7506,4.10552,1013.15
158084,1.73418,9.86939,0.660962,-12.703,3.256,-21.063,-35.06,-40.2926,4.04641,1013.15
158090,1.67201,9.53941,1.21572,-11.303,0.386,-19.733,-34.4498,-40.1384,3.79522,1013.15
158096,1.49984,9.50593,1.19181,-9.203,-1.854,-19.103,-34.2173,-39.2749,2.81997,1013.13
158102,1.77722,9.57288,0.766174,-6.963,-6.054,-18.403,-34.7694,-40.1692,2.67221,1013.13
158108,1.78678,9.58245,0.684874,-5.423,-6.894,-18.403,-34.3336,-40.2926,3.18938,1013.15
158114,1.47115,9.50115,0.928776,-3.253,-10.744,-17.493,-34.4207,-40.3234,4.25328,1013.15
158120,1.43767,9.39115,0.990947,-1.223,-13.264,-16.723,-34.2755,-40.4776,3.73611,1013.14
158126,1.43767,9.50115,0.813998,1.227,-17.884,-15.533,-34.537,-40.601,2.98251,1013.14
158132,1.61462,9.55854,0.445754,1.857,-20.334,-15.323,-33.7815,-40.4159,2.83475,1013.17
158138,1.95417,9.86461,-0.104222,1.227,-21.174,-15.533,-33.52,-39.9842,4.81479,1013.17
158144,1.93982,9.97939,-0.271606,-0.593,-20.614,-15.953,-34.3917,-41.0327,3.73611,1013.17
158150,1.82504,10.2376,-0.572898,-4.653,-22.574,-16.233,-33.4328,-41.2795,3.91343,1013.15
158156,1.81548,10.2902,-0.386384,-6.963,-25.584,-16.933,-33.6362,-39.9225,3.9282,1013.15
158162,2.03547,10.295,-0.367254,-10.953,-32.304,-18.543,-34.1302,-41.1561,4.03164,1013.16
158168,2.37502,10.2807,-0.520291,-13.683,-30.414,-19.803,-33.9268,-41.8654,3.30759,1013.16
158174,2.03547,10.4624,-0.0372688,-17.393,-26.634,-20.013,-33.52,-41.2486,3.85432,1013.15
158180,2.1072,10.2424,0.330976,-20.893,-30.344,-22.113,-33.6071,-41.6495,4.35672,1013.15
158186,2.18372,10.0416,-0.09944,-27.403,-24.674,-22.813,-33.6943,-42.3588,2.67221,1013.17
158192,2.01634,9.6781,0.134898,-29.923,-21.244,-23.303,-33.2585,-41.1561,3.76566,1013.17
158198,1.50462,9.58723,0.589226,-29.853,-20.894,-24.213,-32.5902,-40.8785,5.1842,1013.14
158204,1.82983,10.2663,0.751827,-31.953,-24.884,-25.753,-33.2585,-42.5747,3.677,1013.14
158210,1.56201,9.5155,0.670526,-33.213,-25.444,-26.663,-32.7936,-41.9579,3.18938,1013.14
158216,1.21768,8.90813,0.134898,-34.613,-20.824,-26.243,-32.3868,-41.3411,5.16942,1013.16
158222,0.792045,8.89378,0.799651,-30.273,-22.784,-25.473,-32.7936,-41.9888,2.48012,1013.16
158228,1.98764,10.0033,-0.429426,-34.193,-22.014,-24.283,-33.2294,-42.5747,3.39625,1013.18
158234,1.29898,8.79813,1.43093,-30.903,-18.724,-25.613,-32.503,-41.7112,2.27325,1013.18
158240,1.88721,9.28116,0.417059,-32.233,-17.954,-26.873,-32.1834,-42.8523,3.07117,1013.16
158246,1.66722,8.87465,1.09138,-28.593,-12.494,-27.083,-32.5611,-43.4691,2.90863,1013.16
158252,2.76239,10.8976,0.866605,-30.553,-18.444,-28.343,-31.7475,-42.7598,2.68699,1013.16
158258,2.66675,9.78809,1.89482,-35.173,-11.234,-31.003,-31.6894,-42.7598,3.78044,1013.16
158264,1.15072,8.0473,1.82787,-29.223,-4.094,-31.493,-31.7475,-44.055,2.67221,1013.16
158270,0.208592,8.0473,2.84174,-23.973,-5.214,-30.793,-32.1834,-43.3766,2.19936,1013.15
158276,1.47115,9.55375,2.11481,-15.293,-10.534,-29.533,-31.6313,-43.1607,3.23371,1013.15
158282,1.63375,9.14725,2.41132,-18.233,-9.554,-30.303,-31.9219,-43.5616,2.84953,1013.2
158288,2.45632,9.14725,1.23485,-12.353,-3.394,-30.373,-31.98,-44.6101,1.77085,1013.2
158294,1.56201,9.1329,2.98521,-9.553,-1.994,-32.753,-30.963,-43.3149,2.89386,1013.16
158300,2.5424,9.99374,1.01486,-4.793,-0.244,-34.993,-31.0792,-43.8392,1.7413,1013.16
158306,2.04025,10.0129,2.4161,-4.863,2.206,-38.073,-30.6143,-43.5924,2.59833,1013.18
158312,2.26981,10.1372,1.25398,-2.623,2.416,-41.853,-30.6724,-43.5308,1.31278,1013.18
158318,2.54719,10.4959,1.74657,-1.153,2.066,-44.373,-30.7596,-44.3943,2.34713,1013.18
158324,2.50414,10.4768,2.24394,-2.413,3.186,-51.583,-29.6845,-45.3195,1.8004,1013.15
158330,3.17368,10.8785,0.249675,0.317,1.926,-53.893,-30.3818,-44.7952,0.810383,1013.15
158336,2.64762,10.9741,2.26307,3.047,4.446,-60.893,-29.2486,-45.1036,2.53922,1013.17
158342,3.23107,11.0267,2.51653,3.117,5.006,-68.593,-29.5973,-44.7643,2.22892,1013.17
158348,3.30759,11.1224,1.74657,6.757,7.246,-70.413,-30.6434,-45.9363,0.514854,1013.18
158354,2.64283,11.0172,2.33958,7.597,8.086,-78.813,-28.6384,-45.1036,2.70176,1013.18
158360,3.0589,10.9741,2.58827,9.977,10.396,-81.613,-29.8007,-45.8437,-0.297848,1013.16
158366,2.90108,11.5528,2.29176,16.767,11.026,-91.133,-28.2026,-46.8306,0.101115,1013.16
158372,3.11151,11.7393,1.91873,14.947,7.736,-96.383,-27.7958,-46.5531,2.21414,1013.16
158378,3.37932,11.0363,2.42567,22.157,10.536,-103.873,-27.3309,-46.1213,0.588736,1013.16
158384,3.19759,11.2276,2.79869,27.197,10.396,-112.343,-26.1396,-47.1082,2.3619,1013.16
158390,3.25498,11.5432,3.1765,29.787,6.896,-120.883,-25.7909,-48.095,1.72652,1013.15
158396,3.61366,11.2228,2.75087,34.127,9.556,-127.183,-25.9652,-47.6016,2.68699,1013.15
158402,3.31237,11.2085,3.31998,38.397,12.566,-139.713,-25.0935,-48.1876,3.64745,1013.15
158408,3.67105,11.9067,0.986165,48.267,13.756,-145.033,-24.6577,-49.7912,2.28802,1013.15
158414,2.99195,13.021,1.32572,50.927,3.116,-160.223,-23.4082,-48.2801,3.6179,1013.17
158420,3.45584,13.0879,0.091856,50.857,-0.944,-168.483,-22.6237,-49.9763,4.31239,1013.17
158426,3.1402,13.6905,-0.0898752,50.087,-5.984,-184.723,-22.3041,-51.0248,3.17461,1013.15
158432,3.83365,15.1683,-0.453338,54.077,-9.064,-195.503,-21.6067,-50.1921,4.78523,1013.15
158438,5.89965,17.0526,-0.768976,45.677,-25.444,-218.043,-20.4444,-51.2715,5.73092,1013.15
158444,7.21959,17.7843,-2.65324,40.357,-18.654,-233.513,-19.8924,-52.9369,4.69658,1013.16
158450,6.9183,17.9469,-2.81584,23.277,-14.244,-257.453,-17.9165,-53.1836,4.4306,1013.16
158456,6.63614,18.3534,-2.16065,17.187,-13.684,-275.093,-16.0859,-52.906,7.20856,1013.14
158462,6.49745,17.2773,-1.05592,6.897,-18.724,-301.343,-15.3595,-54.9723,5.77525,1013.14
158468,6.70787,16.3878,-0.83593,9.697,-21.524,-319.613,-13.6742,-56.1442,4.22373,1013.14
158474,7.86043,20.3476,-0.768976,27.617,-23.694,-346.213,-11.6693,-54.8489,3.70656,1013.14
158480,9.40036,21.3328,-1.31417,9.207,-21.384,-381.983,-9.92588,-55.8358,5.95257,1013.17
158486,8.98908,18.956,1.27311,8.647,-19.844,-409.073,-7.25266,-57.0077,4.31239,1013.17
158492,6.89439,19.8742,2.54523,40.007,4.376,-438.053,-5.53831,-57.2236,5.6866,1013.17
158498,8.94604,23.3175,1.36876,33.637,-21.944,-457.023,-2.7198,-57.8096,6.52885,1013.17
158504,9.53427,17.2056,1.01486,20.407,-5.144,-479.423,0.098704,-58.1796,6.45497,1013.17
158510,3.17368,19.549,4.78339,73.257,19.076,-480.823,2.59759,-57.6554,6.38109,1013.16
158516,4.90969,29.6016,2.88,80.817,-40.634,-498.183,5.6776,-57.0077,7.51887,1013.16
158522,8.80256,24.4127,0.579661,34.967,-45.114,-507.773,8.52517,-57.2236,7.60753,1013.12
158528,4.84274,22.8536,4.46297,80.467,-19.494,-503.783,10.7044,-57.8404,7.32678,1013.12
158534,5.91878,29.6877,-0.300301,91.527,-37.904,-500.983,13.058,-56.0825,8.8783,1013.13
158540,7.72652,29.1329,-2.35673,59.537,-16.694,-496.503,15.9346,-55.4966,9.20338,1013.13
158546,7.58305,21.4237,3.13824,55.757,-18.094,-486.843,18.9565,-56.6685,6.91304,1013.1
158552,6.42093,16.4595,-4.16448,73.677,-19.284,-446.103,20.5256,-54.3555,9.77966,1013.1
158558,7.53523,16.5791,-4.55185,72.137,-39.164,-431.053,22.7339,-53.4612,10.1491,1013.1
158564,13.9819,5.96217,-10.219,7.947,-98.244,-385.483,25.4362,-52.4126,10.2673,1013.13
158570,14.5032,-8.41372,-14.3223,-36.853,-44.134,-344.953,26.7147,-52.5976,9.41025,1013.13
158576,-17.5676,11.1893,-4.49447,42.737,149.766,-172.263,26.5985,-51.3024,10.947,1013.09
158582,-21.1066,15.1874,9.87665,43.927,-18.024,-40.873,27.383,-51.2407,10.8879,1013.09
158588,9.78774,12.6862,-4.50403,14.317,-154.034,70.077,27.6736,-51.8267,9.26248,1013.09
158594,15.5218,10.4289,-7.78476,5.707,-52.464,122.017,26.4823,-51.179,10.3116,1013.09
158600,10.4621,6.79431,-1.65372,21.527,3.256,173.327,25.6687,-51.9192,9.88309,1013.12
158606,11.0312,6.88996,-1.53416,16.907,-16.904,189.147,24.4773,-52.8444,9.67622,1013.12
158612,13.6758,4.37441,-3.28452,13.897,0.456,195.937,23.5185,-52.8444,10.09,1013.12
158618,12.1742,3.89617,-1.95979,19.707,23.906,194.537,22.8211,-52.2892,10.947,1013.08
158624,9.35254,3.63314,-1.40025,19.147,27.056,193.767,22.2981,-53.3995,9.39547,1013.08
158630,7.49219,2.37537,-1.18504,19.147,25.026,196.567,20.7871,-54.0163,10.0604,1013.05
158636,6.57397,2.18408,-1.27113,19.777,22.506,201.117,19.5086,-53.3686,9.91265,1013.05
158642,5.78965,2.0406,-1.26635,18.517,20.406,212.527,18.9275,-53.8621,9.691,1013.07
158648,5.3975,2.41841,-1.09896,18.587,19.846,221.557,18.4916,-54.448,9.30681,1013.07
158654,4.52232,3.24099,-0.31943,15.507,16.626,237.027,15.7603,-53.2453,10.3855,1013.01
158660,4.13016,3.65705,0.182722,13.197,13.686,248.087,14.4818,-54.6022,9.41025,1013.01
158666,3.65192,4.08269,0.871387,11.307,11.656,265.377,12.9709,-54.7256,9.46935,1013.06
158672,3.17846,4.23572,1.58875,10.467,9.696,277.347,10.7335,-55.0031,9.9422,1013.06
158678,2.67153,4.22616,2.43045,10.607,4.446,295.757,9.65838,-54.4172,10.0752,1013.06
158684,2.71935,4.34094,2.83695,11.657,0.876,307.797,8.14743,-55.1573,9.85354,1013.06
158690,2.81978,4.90526,3.20998,13.197,-3.044,324.667,6.86893,-55.5891,9.36592,1013.06
158696,2.96804,5.35959,3.29606,12.987,-6.054,334.607,4.48628,-54.5405,9.42502,1013.06
158702,3.58497,5.96695,3.43475,12.217,-7.524,347.347,3.38212,-55.1573,9.04084,1013.06
158708,3.82887,6.51215,3.4491,10.187,-6.474,354.767,1.34815,-55.8358,9.88309,1013.1
158714,3.63757,6.99039,3.67866,4.867,-4.164,364.427,-0.976396,-54.2013,9.76488,1013.1
158720,3.69974,7.26298,3.78865,1.717,-4.164,370.447,-2.60358,-54.2013,9.97175,1013.08
158726,3.83365,7.856,3.99908,-3.673,-3.954,377.167,-3.62056,-55.1573,8.71576,1013.08
158732,3.98669,8.29598,4.04212,-7.943,-3.184,380.737,-6.20662,-53.2144,9.32159,1013.08
158738,3.86235,9.04682,4.12342,-14.243,-1.224,384.937,-8.82172,-52.2584,10.0456,1013.1
158744,3.46062,9.34811,4.25254,-18.443,-1.084,387.527,-9.89682,-52.135,8.76009,1013.1
158750,2.84848,9.76418,4.27646,-22.853,-4.024,391.167,-12.1051,-51.0865,8.25769,1013.09
158756,2.55197,10.075,4.22385,-25.163,-11.444,393.617,-13.7033,-49.8221,8.6271,1013.09
158762,2.24111,10.8163,4.24776,-25.513,-17.394,394.527,-15.4176,-49.9146,8.30202,1013.09
158768,1.99243,11.5098,4.14255,-26.003,-27.264,393.057,-17.1029,-49.1744,6.44019,1013.09
158774,1.87287,12.0215,4.09472,-25.233,-34.264,389.627,-19.3984,-47.6324,8.89307,1013.1
158780,1.81548,13.2219,4.19994,-22.013,-44.344,380.737,-20.5897,-45.9979,8.78964,1013.1
158786,1.67679,14.0923,4.36732,-19.283,-50.784,373.247,-22.5365,-45.9363,7.63708,1013.1
158792,1.41376,15.2831,4.51079,-14.033,-61.354,361.697,-24.4543,-44.1476,7.03125,1013.08
158798,1.51897,16.3017,4.34341,-10.253,-68.144,354.487,-25.0063,-42.8523,7.43021,1013.08
158804,1.71983,17.9564,4.3721,-3.673,-75.704,345.667,-26.6626,-41.7112,7.8735,1013.08
158810,1.80113,19.3768,4.41515,1.997,-79.694,342.307,-28.4932,-40.6318,6.97214,1013.08
158816,2.33676,22.3945,3.65474,9.487,-78.294,344.337,-28.8709,-38.6889,8.39068,1013.06
158822,1.75809,24.2549,3.33432,12.427,-70.734,351.617,-30.469,-37.517,8.36112,1013.06
158828,1.70548,26.9713,1.93308,10.887,-63.384,371.777,-31.6603,-35.8825,7.47454,1013.07
158834,1.93982,28.2338,0.780522,7.877,-51.694,388.927,-32.8517,-33.8779,9.64667,1013.07
158840,1.94939,29.2716,-0.482032,-0.453,-30.134,414.617,-33.9558,-32.2126,8.55322,1013.07
158846,1.98286,29.3433,-1.35721,-5.913,-12.494,427.777,-35.8445,-30.7323,7.79962,1013.07
158852,-0.030528,29.3577,-1.90719,-15.153,20.756,436.667,-37.4426,-27.6483,8.58277,1013.07
158858,-3.12952,28.9751,-1.36678,-17.323,29.856,434.357,-36.9487,-25.9213,8.90785,1013.11
158864,-6.24765,28.406,-1.18026,-11.443,42.176,417.207,-39.9706,-24.1634,8.46456,1013.11
158870,-9.51881,28.1908,-0.051616,-3.183,42.666,398.167,-40.9876,-22.0046,8.3759,1013.13
158876,-12.6991,26.9856,1.07225,12.217,37.626,362.187,-41.8883,-19.4449,9.75011,1013.13
158882,-13.6891,26.2443,0.660962,20.617,37.346,321.937,-42.731,-17.9338,8.52366,1013.12
158888,-16.6781,25.5557,-1.02723,25.727,38.676,295.477,-42.9344,-16.9161,8.96696,1013.12
158894,-18.4045,25.7326,-5.0827,15.717,40.986,255.297,-42.8472,-16.6077,8.15425,1013.15
158900,-20.5231,25.1396,-5.89571,2.837,43.436,226.877,-43.6317,-14.9732,8.31679,1013.15
158906,-23.5838,21.4285,-4.66185,-13.333,49.596,179.137,-44.4163,-14.3564,7.75529,1013.15
158912,-26.6685,18.0903,-2.87323,-12.143,54.706,145.467,-43.6608,-13.9554,8.71576,1013.14
158918,-32.063,14.5131,-0.850277,6.267,54.426,97.517,-43.9804,-12.1667,7.69619,1013.14
158924,-36.3098,13.8244,0.244893,24.327,45.536,70.287,-44.9393,-12.8761,8.09515,1013.15
158930,-40.0353,14.2262,0.99573,53.727,14.666,36.407,-44.6778,-13.0303,6.73572,1013.15
158936,-38.9258,14.6805,1.26833,74.727,-10.394,14.357,-44.4744,-11.2415,7.99171,1013.15
158942,-32.5461,17.3634,-0.233347,97.197,-39.234,-25.543,-44.9393,-12.0125,8.3759,1013.15
158948,-26.4485,19.2429,-1.59155,97.267,-40.074,-55.433,-45.3461,-12.4135,8.49411,1013.19
158954,-17.6967,23.6236,1.32572,82.987,-20.404,-100.303,-44.4453,-12.3209,9.20338,1013.19
158960,33.0828,54.427,60.1588,363.127,-533.224,-275.933,-43.5736,-13.1844,11.9075,1013.19
158966,16.8561,43.2123,-22.8206,-197.783,-115.114,-268.443,-43.5155,-14.6648,12.1882,1013.17
158972,27.1192,-6.03209,-23.5332,-337.433,27.616,-281.393,-42.3823,-16.6077,11.1982,1013.17
158978,17.9274,-21.2879,10.8905,-131.983,115.746,-272.293,-42.3823,-18.1805,11.3607,1013.1
158984,13.695,-10.9054,10.1253,130.937,140.316,-278.383,-42.3242,-21.0794,9.05562,1013.1
158990,9.65383,7.62166,0.680091,156.977,106.716,-296.863,-41.6849,-21.6654,8.55322,1013.15
158996,9.07516,12.6097,0.809216,96.427,158.376,-309.393,-40.4936,-22.0046,8.49411,1013.15
159002,1.72461,8.76466,-0.754629,57.437,210.876,-299.453,-40.697,-24.1634,8.34635,1013.17
159008,-1.08744,7.42559,-0.33856,64.787,219.346,-301.483,-40.5808,-25.6437,6.85393,1013.17
159014,-12.2017,15.2305,11.0292,70.527,188.336,-306.033,-38.5759,-26.0138,4.6818,1013.17
159020,-17.6537,20.2042,12.6265,43.577,83.266,-289.513,-38.3143,-28.08,5.19897,1013.17
159026,-11.7618,28.7503,-0.324213,16.907,-77.034,-267.743,-37.7041,-29.9304,5.11032,1013.17
159032,0.155986,25.0726,-0.874189,-51.343,-92.714,-245.833,-36.5128,-30.979,4.6818,1013.13
159038,1.35159,14.2022,2.38263,-57.223,-59.954,-241.913,-36.3966,-31.0715,6.3072,1013.13
159044,-0.437032,9.48202,2.9613,-28.943,-46.514,-229.523,-35.7864,-32.7677,5.98212,1013.13
159050,0.576837,10.1994,-0.539421,-11.373,-59.954,-228.683,-34.4498,-34.3097,5.80481,1013.13
159056,-5.07596,37.6312,-19.7695,105.807,82.146,-142.513,-33.52,-34.4947,5.62749,1013.16
159062,-1.99609,29.9937,-13.6097,1.507,127.086,-77.623,-33.7524,-34.3714,6.46974,1013.16
159068,-4.41599,13.6331,0.818781,-121.273,93.066,-66.283,-33.9268,-35.8825,4.03164,1013.17
159074,-2.18739,0.40024,10.1875,-80.673,39.796,-67.683,-33.4038,-35.4816,4.87389,1013.17
159080,-1.31221,7.7747,6.46201,5.707,3.046,-52.703,-33.1422,-35.1115,4.51926,1013.17
159086,-0.174,11.7537,2.54523,-1.013,4.446,-46.473,-33.4909,-36.5301,4.56359,1013.16
159092,0.108162,8.73596,3.13824,-7.523,24.256,-37.093,-33.1422,-36.0675,4.63747,1013.16
159098,-0.7718,8.17164,3.87952,6.547,17.046,-31.983,-32.9098,-35.8825,4.69658,1013.14
159104,-0.240954,10.4815,1.88526,11.517,-6.754,-25.403,-33.4619,-36.561,3.91343,1013.14
159110,1.4281,10.4768,0.115768,3.817,-16.834,-24.493,-33.1713,-36.746,3.73611,1013.15
159116,2.70022,9.92678,-0.45812,4.027,-1.994,-22.323,-32.6483,-36.1601,4.63747,1013.15
159122,1.6194,10.5485,0.445754,1.507,8.506,-20.503,-32.2705,-36.6843,4.35672,1013.16
159128,1.40897,9.77374,0.871387,-4.303,1.366,-19.313,-33.4038,-36.6535,3.48491,1013.16
159134,1.97808,9.72114,0.24011,-1.573,-2.134,-18.683,-32.3577,-35.6358,4.59314,1013.17
159140,2.34632,10.3189,0.182722,-3.813,2.556,-18.963,-32.8226,-36.2526,3.8691,1013.17
159146,1.75809,10.0129,0.967035,-5.773,4.166,-19.033,-32.503,-37.4245,4.65225,1013.17
159152,1.86808,9.90287,0.75661,-5.143,2.766,-18.613,-32.5611,-36.3143,4.31239,1013.17
159158,2.18372,9.95069,0.326194,-4.583,2.486,-19.033,-32.1253,-35.9133,4.44538,1013.17
159164,1.73418,9.96026,0.704003,-6.333,2.416,-18.263,-32.7064,-36.8077,3.29282,1013.14
159170,1.82983,9.97939,0.460101,-7.663,0.036,-17.283,-31.9509,-36.5918,3.21894,1013.14
159176,1.90634,9.80244,0.584443,-8.433,-1.714,-17.353,-31.8056,-35.4507,4.41582,1013.15
159182,1.91113,9.56332,0.842693,-7.453,-3.534,-17.143,-32.4449,-36.4685,3.39625,1013.15
159188,1.70548,9.43898,1.07225,-6.123,-3.954,-16.513,-32.5902,-37.1161,3.07117,1013.14
159194,1.60027,9.43898,0.990947,-4.093,-7.804,-16.023,-32.6192,-36.1909,5.28763,1013.14
159200,1.8633,9.46289,0.732698,-3.393,-11.304,-16.163,-32.3287,-36.2217,5.52406,1013.14
159206,1.87765,9.61114,0.3788,-1.783,-11.234,-16.513,-32.4158,-37.4862,3.8691,1013.15
159212,1.77722,9.69723,0.469666,-2.413,-12.634,-16.443,-32.009,-38.1338,5.25808,1013.15
159218,1.80113,9.43419,0.388365,-2.973,-15.014,-16.513,-31.2826,-36.4685,4.38627,1013.16
159224,1.782,9.57288,0.220981,-2.063,-15.364,-16.023,-32.2124,-37.4245,4.34194,1013.16
159230,1.95417,9.62549,0.225763,-3.883,-15.644,-16.093,-32.009,-37.4245,3.82477,1013.16
159236,1.85852,9.64462,0.163592,-4.303,-14.174,-15.953,-31.1373,-36.1909,5.05121,1013.16
159242,1.80591,9.80244,0.0344672,-6.823,-13.754,-15.743,-31.6022,-37.7637,5.30241,1013.12
159248,1.63375,9.92678,-0.09944,-8.713,-14.314,-15.533,-32.3868,-38.0721,2.28802,1013.12
159254,1.92069,9.86939,-0.09944,-12.423,-15.014,-15.603,-31.1664,-37.2395,4.59314,1013.12
159260,1.75809,9.922,-0.180741,-14.453,-12.774,-15.743,-31.8928,-37.3011,2.12548,1013.16
159266,1.55245,10.1037,0.197069,-18.933,-14.944,-15.743,-31.2535,-38.0413,4.51926,1013.16
159272,1.98286,9.922,-0.00379199,-20.753,-18.094,-16.723,-31.98,-37.6095,4.50448,1013.17
159278,1.72461,9.69723,0.570096,-22.993,-14.664,-16.933,-30.992,-37.1469,6.18899,1013.17
159284,1.87287,9.6494,0.73748,-23.273,-16.904,-17.283,-31.3698,-38.4114,4.10552,1013.16
159290,1.83939,9.40072,0.651397,-24.393,-14.174,-18.473,-31.2826,-38.4422,3.9282,1013.16
159296,1.89678,9.44854,1.02442,-22.083,-13.334,-19.173,-30.8177,-38.2572,4.13507,1013.16
159302,1.73418,9.45332,1.00051,-24.953,-11.584,-19.873,-30.6143,-38.3497,4.60792,1013.16
159308,1.73418,9.70679,0.512707,-23.413,-11.514,-20.853,-31.1083,-38.5347,3.73611,1013.17
159314,1.48071,9.67331,1.39745,-24.673,-14.244,-22.113,-31.1373,-38.473,6.08556,1013.17
159320,1.93504,9.84548,0.149245,-25.793,-13.124,-23.373,-30.6143,-38.6581,4.31239,1013.17
159326,1.07899,9.49158,0.393147,-27.473,-11.654,-23.303,-30.8468,-39.3366,3.18938,1013.17
159332,1.76765,9.39594,0.651397,-28.033,-16.344,-23.093,-30.1494,-39.1515,3.20416,1013.17
159338,1.32289,8.93204,0.914429,-28.873,-12.844,-23.093,-30.1785,-38.5347,2.93818,1013.17
159344,1.23203,9.11377,1.23485,-23.693,-14.034,-21.553,-30.8758,-39.3057,3.72133,1013.17
159350,1.36115,9.44376,2.42088,-25.093,-16.134,-22.393,-30.5271,-39.8917,3.23371,1013.17
159356,1.86808,9.31463,0.732698,-22.993,-12.354,-21.483,-30.7596,-39.1515,3.94298,1013.17
159362,1.41376,9.58723,1.80396,-21.173,-13.474,-22.883,-30.4109,-39.1515,4.28284,1013.14
159368,1.49028,9.74983,0.981382,-23.763,-16.624,-23.723,-29.6554,-39.4907,2.45056,1013.14
159374,1.9446,9.77853,0.522272,-21.733,-18.234,-24.143,-30.5271,-39.1207,1.51965,1013.14
159380,1.16507,9.15681,1.01008,-20.963,-14.104,-23.933,-28.9,-39.7683,3.26327,1013.17
159386,1.16029,9.7594,1.59831,-20.683,-20.684,-25.263,-30.1203,-39.2749,3.60312,1013.17
159392,2.81978,10.7541,1.26354,-26.003,-24.884,-29.673,-29.4811,-39.2749,3.94298,1013.19
159398,2.61892,9.21899,0.565314,-25.793,-10.254,-29.883,-30.2656,-39.9842,3.35192,1013.19
159404,1.62896,10.1707,1.88526,-11.303,-12.424,-32.543,-29.6554,-39.7683,3.54402,1013.19
159410,2.67153,11.6437,3.21955,-19.143,-19.634,-36.323,-29.946,-40.7552,2.93818,1013.19
159416,4.881,9.99374,3.81735,-19.703,-10.884,-47.173,-29.0452,-39.645,3.89865,1013.15
159422,5.35924,10.3237,1.66527,-9.553,0.946,-51.373,-29.0743,-40.6627,4.6818,1013.15
159428,3.36019,11.2467,2.33002,-4.583,13.546,-60.053,-28.6966,-41.6495,2.96774,1013.15
159434,2.44197,10.6202,1.85656,-9.833,10.746,-67.123,-28.1445,-39.9842,3.75089,1013.2
159440,3.12107,10.3668,2.22481,-6.193,3.116,-68.523,-27.6215,-40.9711,3.3667,1013.2
159446,3.9006,9.81679,3.32954,2.907,6.196,-71.883,-28.6675,-41.8346,2.50967,1013.18
159452,3.59931,9.64462,4.04212,8.087,14.456,-81.123,-27.7377,-40.8477,3.08595,1013.18
159458,3.62801,10.7876,2.2822,18.587,16.486,-87.493,-27.3018,-41.3103,3.48491,1013.2
159464,2.63327,11.0076,3.66909,20.477,16.346,-94.423,-28.0282,-42.8831,1.60831,1013.2
159470,3.53714,10.8976,2.4974,27.267,12.286,-102.683,-27.2437,-42.1121,2.37668,1013.18
159476,3.10673,10.6107,3.54475,28.737,13.336,-109.263,-25.7328,-42.4205,3.1155,1013.18
159482,3.14499,11.505,2.33958,38.257,14.316,-117.663,-25.2679,-42.6056,3.94298,1013.15
159488,2.69544,11.6006,3.19085,37.487,9.696,-122.983,-25.7328,-44.0859,2.46534,1013.15
159494,3.20237,10.802,2.99956,42.597,11.306,-131.313,-25.2969,-44.055,3.58835,1013.15
159500,3.19759,10.582,3.55431,50.087,14.946,-137.963,-24.5414,-43.9934,3.32237,1013.16
159506,3.15455,12.4232,2.18655,56.107,10.816,-149.233,-23.6697,-44.7027,2.49489,1013.16
159512,3.35541,12.5284,1.20616,54.777,5.006,-156.233,-23.4082,-45.1961,4.65225,1013.18
159518,3.29324,13.241,0.177939,55.967,1.016,-170.933,-22.1297,-44.9802,3.47014,1013.18
159524,3.73322,14.8383,-0.749846,57.927,-3.184,-180.033,-21.4324,-46.6764,4.19418,1013.16
159530,4.99577,17.086,-0.635069,52.327,-16.064,-202.433,-20.5897,-47.0465,3.20416,1013.16
159536,6.26311,17.2725,-2.06979,45.747,-19.844,-218.883,-19.4274,-46.1521,4.4306,1013.15
159542,7.08568,17.8034,-3.75319,33.357,-14.594,-244.153,-18.0037,-47.6633,5.00688,1013.15
159548,6.14355,18.626,-3.84884,24.257,-14.664,-261.233,-17.3354,-48.8969,4.84434,1013.15
159554,6.35398,19.6207,-4.36534,8.507,-27.824,-285.523,-15.9406,-48.3418,5.45017,1013.21
159560,6.86569,18.6499,-3.47103,-2.833,-35.244,-305.123,-14.6621,-49.2361,5.62749,1013.21
159566,7.75522,18.7981,-0.0181392,4.797,-39.514,-333.333,-11.9599,-51.2407,4.62269,1013.13
159572,9.60601,20.4863,1.01486,12.007,-38.044,-364.273,-11.1172,-51.0248,6.32198,1013.13
159578,10.4525,21.5719,1.56484,2.277,-34.054,-389.263,-9.3738,-50.8706,6.66184,1013.15
159584,12.485,20.4002,-0.161611,7.527,1.506,-428.253,-6.52624,-52.8444,5.39107,1013.15
159590,7.52566,20.0081,1.34963,15.647,8.926,-448.623,-4.52132,-53.5228,5.77525,1013.13
159596,7.62609,21.5432,1.78004,18.727,-19.004,-482.153,-2.48735,-52.906,6.01168,1013.13
159602,7.82217,18.9512,0.345323,10.257,-26.284,-492.093,0.127761,-52.9986,5.98212,1013.13
159608,2.3798,25.1826,4.81208,82.287,6.056,-487.543,2.94627,-54.3555,5.64227,1013.14
159614,5.11055,30.1611,1.91873,60.727,-48.684,-499.513,6.14251,-53.5228,6.67661,1013.14
159620,8.41519,22.0789,0.393147,17.817,-32.864,-507.703,8.26366,-53.8004,7.5632,1013.14
159626,3.20237,23.3605,3.81256,51.277,-16.484,-505.043,10.7044,-53.4303,6.82438,1013.14
159632,7.1909,30.9263,-4.28882,44.837,-57.294,-495.243,13.4648,-53.1219,7.66663,1013.11
159638,10.6773,27.0143,-6.197,13.127,-44.834,-487.263,15.8475,-51.6416,7.94739,1013.11
159644,10.0269,16.7608,0.125333,17.607,-16.834,-464.093,18.666,-51.95,7.53365,1013.13
159650,9.96469,14.494,-2.03631,39.657,-29.924,-448.273,21.0486,-50.9631,7.71096,1013.13
159656,13.8432,14.3218,-6.67046,22.647,-70.804,-430.353,22.24,-49.3595,8.33157,1013.1
159662,17.5591,2.26059,-12.5624,-36.573,-85.504,-397.873,24.0415,-49.2361,6.83915,1013.1
159668,1.2655,-2.32095,-12.8924,-10.393,119.526,-306.103,26.0173,-49.4212,6.76527,1013.1
159674,-19.2127,10.6441,0.154027,25.377,159.286,-169.673,25.5815,-47.8483,9.04084,1013.1
159680,-6.7498,10.3381,5.38119,17.117,-122.744,-6.223,26.2498,-48.0025,7.84395,1013.1
159686,11.6672,9.65418,-6.24482,2.347,-103.844,59.647,26.5113,-48.7118,7.60753,1013.09
159692,13.1019,6.72736,-4.86749,5.847,23.626,140.147,25.5524,-48.4651,8.3759,1013.09
159698,10.1464,6.55041,-1.77806,12.777,32.306,168.777,23.4894,-49.2361,9.21815,1013.12
159704,12.5041,5.92391,-3.00236,8.857,21.456,189.007,24.1287,-50.3155,8.42023,1013.12
159710,13.475,4.5418,-3.51407,9.417,54.566,189.567,23.1407,-50.0688,9.3807,1013.1
159716,10.792,4.25007,-2.21326,12.777,69.406,186.207,21.8332,-49.8529,8.78964,1013.1
159722,8.14259,3.32707,-1.40025,11.027,71.086,181.447,21.2811,-50.9015,9.77966,1013.1
159728,6.95656,2.29885,-0.941142,11.097,68.006,180.257,20.0316,-51.1173,9.82399,1013.09
159734,5.63183,1.86844,-1.45286,13.057,63.806,182.007,19.5086,-50.6856,10.7992,1013.09
159740,4.90013,1.71062,-1.34765,13.617,63.176,185.927,17.7071,-50.5622,10.5037,1013.07
159746,3.43671,2.40885,-1.10853,13.547,56.106,195.937,17.7362,-51.3332,9.39547,1013.07
159752,2.97282,3.04491,-0.984184,13.057,48.546,205.037,15.8475,-51.3641,9.9422,1013.09
159758,2.68588,4.00139,-1.05592,12.147,45.536,220.227,13.9007,-50.9323,10.1343,1013.09
159764,1.83461,4.86222,-1.01766,9.067,39.726,231.917,13.6101,-52.906,11.7006,1013.08
159770,1.80591,5.44567,-1.20896,1.647,28.386,250.607,12.1282,-52.721,10.5333,1013.08
159776,1.93504,5.5748,-1.252,-2.973,25.516,263.137,10.4429,-51.8267,10.7106,1013.08
159782,1.52375,5.64653,-0.8168,-8.293,18.586,281.057,9.33876,-52.7827,9.72055,1013.08
159788,1.4281,5.5461,-0.592027,-10.953,11.516,292.117,7.56629,-53.6462,9.77966,1013.08
159794,1.57158,5.3835,-0.362472,-11.933,3.046,307.587,6.05534,-52.4126,9.26248,1013.06
159800,1.49984,5.35002,-0.190306,-11.303,-1.644,316.757,4.8059,-52.5976,11.2869,1013.06
159806,1.36593,5.28307,0.249675,-8.223,-10.674,329.077,3.61457,-52.7827,10.1343,1013.07
159812,1.61462,5.3835,0.527054,-3.953,-17.744,336.497,1.08663,-52.536,8.95218,1013.07
159818,2.00677,5.80913,0.708786,2.207,-25.164,346.787,-0.279033,-51.8883,9.70578,1013.07
159824,2.0259,6.16781,0.938341,5.917,-29.084,353.437,-1.58659,-52.7827,8.84875,1013.07
159830,2.23633,6.71301,1.12964,11.447,-35.104,363.517,-3.01037,-51.8267,8.89307,1013.08
159836,2.6237,7.27733,1.0866,14.947,-38.114,369.467,-5.74171,-50.9631,10.2377,1013.08
159842,3.35063,8.6451,1.06747,18.657,-39.444,377.167,-6.75869,-50.9631,11.3016,1013.08
159848,3.62801,9.61114,1.09138,19.637,-38.324,383.117,-8.67644,-51.95,10.223,1013.07
159854,3.91495,10.9072,1.07703,19.427,-37.344,385.917,-10.1583,-48.8352,11.0504,1013.07
159860,4.01538,12.1171,1.23963,19.217,-34.404,388.717,-11.9889,-48.4343,11.9666,1013.09
159866,3.9006,12.8536,1.4644,18.307,-32.794,389.697,-13.4417,-48.2184,11.3607,1013.09
159872,3.80017,13.8914,1.46919,16.697,-32.514,389.207,-15.8535,-47.2624,8.40545,1013.09
159878,3.96756,14.4653,1.3305,14.877,-31.254,386.757,-17.4225,-45.4737,10.7992,1013.09
159884,3.9293,15.5126,1.3018,12.357,-28.944,379.617,-18.6429,-45.2886,10.8583,1013.06
159890,3.77626,16.2587,1.32572,10.467,-28.804,372.757,-20.4154,-44.641,10.1491,1013.06
159896,3.41758,17.1817,1.51701,10.607,-28.664,360.437,-21.7229,-42.8831,10.7845,1013.06
159902,2.70022,18.0282,1.82787,12.777,-30.624,352.317,-23.5244,-41.7112,10.0752,1013.1
159908,1.82026,19.1281,2.22959,16.767,-38.184,342.937,-24.7739,-41.1561,10.5776,1013.1
159914,1.62896,19.8024,2.32524,21.247,-44.134,339.017,-25.355,-39.7066,11.804,1013.09
159920,1.78678,21.5193,1.9809,32.167,-48.124,337.127,-26.7207,-37.7946,12.1587,1013.09
159926,1.60027,23.3845,1.88047,40.147,-47.144,340.277,-28.0282,-37.9179,12.1882,1013.08
159932,0.796827,26.053,1.95699,47.777,-43.644,353.857,-29.7135,-35.4199,12.2325,1013.08
159938,0.433365,27.3969,1.65092,48.967,-41.544,368.137,-30.5271,-33.1686,12.3508,1013.12
159944,0.54336,28.3725,0.574878,46.237,-30.764,393.197,-32.4739,-32.9836,13.3408,1013.12
159950,0.179898,28.2147,0.474448,41.057,-16.904,408.457,-32.7354,-30.4239,13.4738,1013.1
159956,-1.48438,27.5404,1.45484,34.547,5.006,423.227,-34.1011,-29.0978,12.6758,1013.1
159962,-3.0817,27.6791,2.0096,34.477,17.956,425.537,-35.7283,-26.168,13.1191,1013.1
159968,-5.25769,29.2572,1.82308,32.727,38.466,415.177,-36.6581,-25.2736,12.0552,1013.09
159974,-7.90714,30.3668,2.01916,32.517,50.016,400.057,-37.4717,-23.0223,13.725,1013.09
159980,-10.8914,31.8158,0.95747,26.497,60.796,367.437,-37.9076,-21.4803,13.0009,1013.12
159986,-12.8952,31.7154,-0.0420512,12.777,73.606,326.767,-41.3944,-17.9955,12.4542,1013.12
159992,-15.2386,30.3333,-3.42321,-2.763,84.806,297.017,-40.6679,-19.1057,11.4937,1013.12
159998,-18.658,29.1616,-9.17644,-36.923,97.406,251.237,-40.5517,-18.2422,12.4246,1013.12
160004,-23.2491,26.4643,-8.97079,-62.403,104.476,221.417,-41.6559,-17.4095,12.2916,1013.14
160010,-30.7622,19.1759,-4.58533,-79.483,105.246,179.347,-42.9053,-17.0086,10.7106,1013.14
160016,-35.9798,13.6618,-0.682893,-66.463,99.926,153.027,-42.0917,-15.6208,11.6267,1013.14
160022,-43.7034,8.31511,3.24346,-16.763,66.606,119.287,-42.731,-15.8058,9.83876,1013.18
160028,-46.1903,7.66949,3.84126,25.797,18.656,98.637,-43.2249,-14.9423,9.48413,1013.18
160034,-41.1879,9.61593,2.77,88.587,-45.324,57.127,-42.1498,-14.6339,11.1982,1013.17
160040,-35.2529,12.9732,0.962253,112.527,-59.464,19.327,-42.4985,-13.8012,11.8484,1013.17
160046,-26.702,16.2013,-0.702022,122.327,-47.774,-46.263,-43.3412,-14.6339,9.82399,1013.15
160052,-11.5322,25.527,23.1191,131.987,-58.554,-88.753,-43.4865,-14.1405,12.3212,1013.15
160058,-7.20891,63.0832,-54.8101,216.477,-218.014,-402.423,-41.1329,-15.004,14.8923,1013.17
160064,16.0479,45.5891,-16.2974,-204.573,69.966,-296.093,-41.0166,-17.3478,12.3064,1013.17
160070,17.6404,-24.6308,-4.26013,-346.813,178.956,-324.023,-40.0287,-18.8898,11.08,1013.17
160076,5.51227,-20.4367,6.60549,-87.603,222.986,-276.983,-39.9125,-19.5991,10.9765,1013.16
160082,0.701179,11.0793,10.7183,175.877,67.866,-282.093,-39.4766,-22.313,10.3264,1013.16
160088,12.6141,17.2008,4.03734,79.487,-9.344,-289.303,-39.5057,-23.6391,8.53844,1013.13
160094,17.9083,7.70297,-3.32756,23.277,194.566,-294.413,-38.2853,-24.4101,10.415,1013.13
160100,6.89439,4.59919,2.95651,44.207,279.056,-265.923,-37.9947,-26.4455,9.15905,1013.19
160106,-4.50685,3.31272,12.8656,75.497,286.126,-277.473,-38.1691,-27.5866,6.51407,1013.19
160112,-11.6374,10.2711,9.75709,86.277,214.166,-300.713,-37.2683,-28.481,6.3072,1013.15
160118,-15.2529,21.9832,6.70113,36.507,52.956,-307.573,-36.4257,-29.5912,7.26767,1013.15
160124,-13.0387,27.4734,5.10859,-4.023,-20.684,-271.803,-35.583,-31.164,6.08556,1013.19
160130,-6.60155,19.0373,7.91108,-28.313,-40.844,-250.523,-35.089,-32.8294,5.98212,1013.19
160136,-4.37773,10.6872,6.68679,5.497,-65.204,-242.403,-33.7524,-33.0144,6.97214,1013.19
160142,-3.18691,11.6437,3.19563,19.217,-108.044,-245.063,-32.4739,-33.292,8.49411,1013.2
160148,-4.29643,36.0052,-25.0779,153.127,18.586,-197.673,-32.6483,-35.4507,7.32678,1013.2
160154,-0.159653,33.6188,-19.0617,56.107,70.316,-80.353,-32.2124,-34.4639,8.25769,1013.15
160160,-4.43512,20.9167,-4.61881,-117.143,83.616,-66.913,-32.2124,-35.5741,8.52366,1013.15
160166,0.0985968,1.21325,5.869,-107.903,43.436,-74.753,-31.486,-36.9311,4.77046,1013.16
160172,0.227722,3.50402,6.90678,8.927,8.226,-63.553,-31.6894,-36.2526,5.56838,1013.16
160178,-0.695282,11.6532,4.1569,17.187,0.456,-60.403,-30.6143,-35.6666,6.26287,1013.13
160184,-0.0735696,10.3476,2.63131,-13.263,19.356,-49.203,-31.3988,-36.1601,5.55361,1013.13
160190,-0.537462,7.78427,2.64088,-0.173,24.536,-42.133,-31.5441,-36.8694,5.6866,1013.13
160196,-2.34521,11.7011,3.30085,18.307,12.566,-27.853,-30.6724,-36.2526,6.33676,1013.14
160202,-1.39351,11.6915,2.77478,-0.103,-11.514,-22.533,-30.7886,-36.2526,5.59794,1013.14
160208,3.05412,8.40598,-1.26635,2.207,-20.684,-19.873,-31.1954,-37.3937,5.15464,1013.14
160214,3.12107,10.0368,-1.47677,8.507,-4.304,-19.523,-30.4981,-36.2217,7.38588,1013.14
160220,1.32767,10.3955,0.852258,-2.203,4.936,-19.243,-30.6434,-37.1778,5.79003,1013.15
160226,1.54766,9.5155,1.19181,-1.153,-0.034,-18.333,-30.2366,-36.5918,5.86391,1013.15
160232,2.19329,9.77853,0.393147,2.767,-5.494,-18.683,-30.992,-36.4068,5.55361,1013.14
160238,2.57588,9.98895,0.12055,1.857,-5.284,-18.053,-30.469,-36.5301,5.95257,1013.14
160244,2.54719,9.80244,0.0344672,4.237,-3.954,-18.753,-30.469,-37.1469,5.59794,1013.16
160250,2.04503,10.0511,0.455318,3.397,-3.114,-20.363,-30.2656,-37.2395,5.05121,1013.16
160256,2.35111,10.2137,-0.424643,1.927,-2.134,-19.313,-29.8298,-36.746,6.60273,1013.16
160262,1.99243,10.4576,-0.400731,-3.253,-0.174,-20.503,-29.5392,-36.4685,5.64227,1013.16
160268,1.79157,10.1372,-0.228565,-5.913,-3.674,-20.293,-29.8879,-37.0853,5.62749,1013.16
160274,1.9446,9.76418,0.307064,-6.753,-4.794,-19.873,-29.6845,-37.2086,6.15944,1013.16
160280,1.90634,9.63027,0.589226,-6.333,-4.934,-19.243,-30.1203,-37.1469,5.46495,1013.16
160286,1.76765,9.53462,0.694438,-5.003,-4.864,-18.753,-30.2075,-37.6095,5.80481,1013.18
160292,1.59071,9.53941,0.790086,-3.393,-7.874,-18.753,-29.8007,-37.6095,5.33196,1013.18
160298,1.7294,9.38637,0.651397,-1.013,-10.464,-18.403,-29.4811,-36.4068,7.43021,1013.18
160304,1.64809,9.40072,0.555749,0.947,-11.794,-18.193,-29.7135,-37.8871,6.07078,1013.18
160310,1.53332,9.5968,0.402712,2.557,-13.054,-16.933,-29.7717,-37.7637,4.48971,1013.18
160316,1.42332,9.61114,0.197069,3.607,-17.044,-16.233,-29.5683,-37.0236,6.3072,1013.17
160322,1.80113,9.6781,-0.214218,3.957,-21.244,-16.583,-29.3358,-37.7946,5.73092,1013.17
160328,1.87287,9.76896,-0.352907,3.257,-20.894,-16.373,-30.1203,-37.9179,4.85912,1013.18
160334,1.96852,10.075,-0.658981,0.877,-19.914,-16.863,-29.423,-38.0413,6.5584,1013.18
160340,1.98764,10.1802,-1.02723,-2.973,-16.974,-15.603,-29.3358,-37.4553,5.86391,1013.13
160346,1.59071,10.0033,-0.587245,-7.313,-18.864,-17.213,-29.423,-38.2572,4.00209,1013.13
160352,1.52853,10.0033,-0.453338,-10.323,-20.754,-16.583,-29.2777,-37.9488,5.4354,1013.15
160358,1.59071,9.94591,-0.0420512,-15.223,-21.734,-17.283,-28.3188,-37.9179,6.45497,1013.15
160364,2.43719,10.3237,-0.434208,-16.973,-22.154,-18.403,-29.0162,-38.3497,5.77525,1013.15
160370,1.84896,10.1037,-0.515509,-23.483,-17.464,-19.453,-28.8128,-38.6272,6.12989,1013.14
160376,1.63853,10.0416,-0.266824,-25.863,-18.934,-19.593,-28.3479,-38.9973,5.39107,1013.14
160382,1.92547,9.96504,-0.83593,-30.063,-18.234,-19.383,-28.406,-38.874,6.58796,1013.16
160388,1.59071,9.70679,0.369235,-31.183,-17.954,-20.923,-29.2777,-39.7992,3.29282,1013.16
160394,1.36593,9.60158,0.330976,-34.123,-19.214,-21.133,-28.1154,-38.8123,6.14466,1013.17
160400,1.35637,8.89857,0.326194,-36.083,-16.834,-21.343,-28.2316,-38.4422,5.61271,1013.17
160406,2.00677,9.62549,0.594008,-35.873,-17.114,-21.693,-28.5803,-39.0282,5.9969,1013.17
160412,1.17942,9.43898,0.3788,-35.523,-14.104,-22.323,-28.5513,-39.7683,5.31719,1013.17
160418,1.27507,9.80722,0.885734,-33.003,-20.894,-23.373,-27.883,-39.0282,5.19897,1013.17
160424,1.36593,8.889,0.115768,-37.133,-18.024,-23.093,-28.1445,-39.5216,5.45017,1013.17
160430,1.24637,8.7264,0.866605,-32.653,-17.114,-23.373,-28.2898,-39.6141,4.51926,1013.17
160436,0.978558,9.62071,1.13442,-30.763,-22.504,-23.513,-27.5052,-38.2572,4.72613,1013.14
160442,1.20333,9.04682,0.95747,-31.533,-21.734,-21.973,-27.9701,-39.4599,4.77046,1013.14
160448,1.95417,9.48202,1.8996,-28.103,-20.614,-23.373,-27.3309,-40.9402,3.63268,1013.16
160454,1.31811,9.18073,1.78961,-31.393,-16.764,-24.283,-27.1856,-39.4599,5.6866,1013.16
160460,1.85374,9.51071,1.66527,-24.253,-15.924,-24.353,-27.4471,-39.5833,6.01168,1013.17
160466,1.63375,9.38159,2.21524,-24.533,-13.754,-25.963,-27.4762,-40.7552,4.62269,1013.17
160472,2.6524,10.1372,1.90917,-19.983,-13.614,-29.183,-26.9531,-39.6758,4.77046,1013.15
160478,2.1359,9.5681,2.39219,-23.343,-7.874,-31.423,-26.5464,-40.786,5.4354,1013.15
160484,2.04503,9.58723,1.57918,-14.383,-3.814,-33.383,-26.8369,-40.8169,4.47493,1013.15
160490,1.7007,9.52984,2.30132,-12.773,-4.164,-34.853,-26.6335,-42.0813,2.39146,1013.18
160496,2.18851,10.1276,1.8183,-12.073,-5.074,-39.473,-26.5754,-41.3103,4.69658,1013.18
160502,2.81978,10.6154,1.21094,-10.673,-5.564,-40.803,-26.5464,-40.9402,3.07117,1013.16
160508,2.36067,10.0942,2.65044,-12.003,-0.734,-47.033,-26.1105,-41.372,4.4306,1013.16
160514,3.08281,10.4194,0.852258,-8.923,-2.064,-47.943,-25.9652,-41.6495,4.1203,1013.18
160520,2.98717,10.7398,2.2535,-2.693,-1.084,-54.173,-25.878,-41.0944,4.82956,1013.18
160526,3.38411,10.3907,1.55527,-1.713,0.666,-60.893,-25.2388,-42.328,4.1203,1013.14
160532,3.73322,11.0315,0.512707,1.297,2.346,-66.003,-25.5875,-42.2663,2.65743,1013.14
160538,2.58066,10.5628,2.4161,2.277,7.596,-74.963,-24.8611,-42.1738,4.72613,1013.14
160544,3.42236,10.5102,1.88047,6.617,4.936,-76.993,-25.1516,-43.4691,5.33196,1013.17
160550,3.15933,10.4672,3.32954,13.477,6.126,-88.473,-24.338,-43.5616,3.23371,1013.17
160556,4.11581,11.4619,0.904864,19.567,7.806,-93.653,-23.9894,-43.0682,4.38627,1013.18
160562,3.26933,11.9736,2.28698,18.587,4.586,-103.453,-23.2339,-43.4999,4.69658,1013.18
160568,3.03499,10.5676,2.89912,17.327,7.946,-110.173,-22.8561,-44.0242,4.07597,1013.16
160574,3.11629,10.472,2.51653,32.517,8.016,-119.133,-22.3622,-44.7027,4.25328,1013.16
160580,2.77674,11.2467,3.33432,37.207,4.796,-125.223,-21.8392,-44.6718,5.15464,1013.16
160586,3.41758,10.7924,3.03303,39.587,6.406,-134.603,-21.8392,-45.4428,4.40105,1013.16
160592,4.06321,12.0023,1.4118,50.017,10.046,-139.643,-20.6188,-45.597,4.78523,1013.16
160598,3.36019,13.0736,1.78961,51.277,4.586,-155.183,-19.8924,-45.412,5.15464,1013.16
160604,3.55149,13.0879,0.775739,49.597,0.736,-163.163,-19.6018,-45.9363,5.79003,1013.16
160610,3.0876,13.0736,0.407494,52.957,-0.524,-177.163,-18.178,-46.3063,4.94778,1013.17
160616,3.47975,13.8627,0.85704,53.587,-11.584,-188.013,-18.2942,-46.0905,5.28763,1013.17
160622,5.36402,15.3978,-0.587245,56.737,-20.334,-208.873,-17.0738,-46.6764,5.31719,1013.17
160628,5.68444,17.2917,-1.81632,54.917,-15.784,-223.923,-15.6791,-47.6324,6.14466,1013.17
160634,5.99051,17.7125,-2.27065,43.297,-24.184,-247.723,-14.2844,-48.3418,6.73572,1013.2
160640,6.6457,17.4208,-2.56716,34.407,-29.364,-264.873,-13.7614,-48.6502,7.0017,1013.2
160646,7.15264,17.2725,-1.04636,28.877,-33.144,-293.153,-11.5821,-49.9454,5.56838,1013.17
160652,7.49697,17.3778,-1.01288,33.287,-32.654,-311.493,-9.95494,-49.7604,6.29243,1013.17
160658,9.16124,18.009,0.59879,34.617,-38.604,-341.733,-9.14135,-49.2361,7.59275,1013.17
160664,9.84513,19.7307,0.871387,42.807,-28.174,-362.873,-7.74662,-51.0557,6.14466,1013.14
160670,9.73991,20.9789,0.799651,34.757,-29.154,-400.743,-4.95717,-51.3641,7.29722,1013.14
160676,11.2512,17.4734,-0.185523,47.777,4.026,-441.973,-3.41716,-51.7033,8.27247,1013.13
160682,4.47928,20.7876,0.608355,73.397,7.596,-465.003,-0.743942,-52.6285,8.98173,1013.13
160688,5.67966,19.4007,-0.0372688,55.687,-32.234,-488.663,2.04551,-53.0602,8.28724,1013.18
160694,3.78583,16.4978,3.42997,86.067,-19.424,-492.863,3.84703,-53.307,8.36112,1013.18
160700,3.07803,27.6408,3.53518,144.167,-38.534,-496.013,7.13044,-52.2276,11.2573,1013.18
160706,6.80352,31.8254,-0.33856,105.177,-62.614,-501.543,9.68744,-52.1967,10.3707,1013.18
160712,7.29133,27.0095,2.79869,71.297,-37.764,-504.063,11.6924,-52.0425,11.1095,1013.12
160718,7.85565,26.9234,3.8843,76.407,-49.454,-502.663,13.5229,-50.994,11.9222,1013.12
160724,8.65909,28.4155,-4.35099,72.977,-15.224,-503.433,15.7312,-51.0865,12.7497,1013.12
160730,8.32432,26.3639,-0.754629,57.297,-16.484,-499.303,18.7822,-50.6547,12.602,1013.11
160736,9.49601,15.79,1.54092,45.957,-34.124,-465.493,20.1479,-49.7912,13.5624,1013.11
160742,9.50558,13.3988,-2.79671,64.577,-20.334,-440.153,23.3441,-49.0202,13.4294,1013.12
160748,11.8203,13.4801,-3.11235,59.257,-72.204,-426.013,25.4943,-47.7866,12.4099,1013.12
160754,16.1579,4.15442,-11.8211,14.107,-113.154,-410.123,26.86,-46.8923,13.5329,1013.11
160760,-1.34091,0.625013,-10.5585,31.327,65.416,-331.093,28.0223,-45.6279,13.1635,1013.11
160766,-21.3074,14.9913,-1.02244,61.707,103.076,-186.473,29.7076,-46.0288,13.7841,1013.08
160772,-8.79667,12.5141,5.28554,31.607,-179.024,-11.123,30.1434,-45.0111,12.5281,1013.08
160778,11.232,11.2659,-7.25391,13.617,-173.844,60.067,29.0392,-45.1653,13.3112,1013.08
160784,13.7954,9.2429,-5.81441,-5.773,-29.364,157.227,28.2547,-46.5531,13.6806,1013.12
160790,9.73991,7.2056,-1.23765,-4.583,-15.784,192.227,28.6034,-46.4605,12.3212,1013.12
160796,13.2645,6.40215,-2.4476,-7.173,-35.244,220.297,26.9762,-47.2007,10.2821,1013.07
160802,14.7136,5.05352,-3.27974,-9.903,-11.934,226.107,26.0755,-47.5091,13.2521,1013.07
160808,12.1789,3.93443,-1.73502,-8.013,18.656,226.527,25.6977,-48.9586,11.4642,1013.08
160814,10.2851,3.48489,-1.03679,-9.763,26.566,226.107,23.7509,-49.0202,13.2373,1013.08
160820,8.63518,2.33233,-1.08461,-10.883,28.946,227.157,22.8502,-48.3418,12.469,1013.06
160826,7.11916,1.76801,-0.984184,-10.533,31.326,231.497,22.2981,-50.2538,11.9666,1013.06
160832,6.30137,1.86365,-0.95549,-10.113,32.446,236.537,21.1358,-50.1305,12.9123,1013.06
160838,5.18229,2.61927,-0.869406,-9.973,32.306,246.477,18.6079,-50.1921,13.3999,1013.07
160844,4.68492,3.37968,-0.883754,-11.303,30.206,253.757,18.5788,-50.4389,10.5333,1013.07
160850,4.34059,4.38398,-1.00331,-14.313,28.106,265.237,16.9226,-51.4874,10.9322,1013.04
160856,3.79061,5.01047,-1.10374,-17.183,27.756,273.147,15.7603,-51.3332,12.4985,1013.04
160862,2.99195,5.66566,-1.07505,-23.063,24.606,286.307,14.5109,-52.4743,12.8679,1013.06
160868,2.59979,5.78044,-0.984184,-26.143,21.596,295.337,12.1863,-52.7827,11.1243,1013.06
160874,2.04503,5.85218,-0.69724,-28.803,15.576,309.127,11.1403,-52.3509,12.07,1013.03
160880,1.8107,5.7087,-0.434208,-29.643,10.746,317.947,9.83272,-52.0734,12.5724,1013.03
160886,1.60984,5.39307,0.0535968,-27.683,3.326,330.337,8.06026,-53.5537,11.2425,1013.05
160892,1.51897,5.20655,0.383582,-24.113,-1.994,338.037,6.02629,-53.492,9.52846,1013.05
160898,1.38984,5.27351,0.813998,-16.273,-11.374,348.887,3.9342,-53.4612,9.83876,1013.05
160904,1.24159,5.54132,1.09138,-10.463,-18.444,356.447,2.62664,-53.492,11.0652,1013.04
160910,1.42332,6.15347,1.12964,-2.133,-28.944,368.277,0.999464,-53.0911,9.82399,1013.04
160916,1.84417,6.71779,1.04834,2.907,-34.264,375.977,-1.29602,-51.9192,10.4889,1013.06
160922,2.48501,7.91817,1.02921,8.297,-40.564,385.987,-2.98131,-52.5051,9.97175,1013.06
160928,2.79109,8.71683,1.01964,10.047,-44.204,391.587,-5.74171,-52.9677,9.73533,1013.07
160934,3.26455,9.94113,0.85704,10.957,-47.844,398.027,-7.10738,-51.9192,10.1491,1013.07
160940,3.58497,10.7015,0.71835,10.467,-49.104,400.197,-8.9089,-51.4874,10.1491,1013.08
160946,3.97712,12.0263,0.488795,8.647,-50.434,399.987,-10.1002,-50.8398,9.70578,1013.08
160952,4.06321,12.7388,0.436189,5.427,-50.924,395.577,-12.3376,-50.6239,10.0013,1013.08
160958,3.80017,13.5279,0.59879,3.677,-51.624,390.537,-13.7614,-48.5576,10.6071,1013.11
160964,3.28846,14.1209,0.928776,3.187,-54.634,380.737,-15.5629,-48.496,11.0504,1013.11
160970,3.12107,14.5561,1.08181,4.167,-56.104,373.107,-17.3354,-47.4782,10.2673,1013.05
160976,2.73848,15.3213,1.61744,8.227,-58.764,360.227,-19.7761,-46.4914,10.2082,1013.05
160982,2.64283,15.9574,1.82787,12.707,-61.424,351.967,-20.4735,-45.1036,10.1934,1013.09
160988,2.41806,17.2104,2.00482,21.597,-63.384,341.957,-22.246,-45.4428,10.814,1013.09
160994,2.0259,18.2768,2.27263,28.527,-65.064,338.387,-23.0886,-43.4999,11.0209,1013.08
161000,1.77244,20.1707,2.60262,39.587,-68.844,340.347,-24.309,-42.0196,11.9518,1013.08
161006,2.12155,21.5958,2.59305,48.267,-71.084,347.137,-26.0814,-41.7112,11.4642,1013.08
161012,2.69066,24.2166,2.11959,59.747,-68.074,365.127,-27.0403,-39.9534,9.88309,1013.12
161018,2.5711,25.9478,1.9283,63.387,-61.844,382.767,-28.406,-37.0236,12.8532,1013.12
161024,2.67153,27.8225,1.31137,61.567,-51.624,413.917,-29.6554,-36.6843,12.1587,1013.13
161030,3.28368,28.4203,0.708786,58.347,-40.424,433.307,-32.0381,-36.0984,12.927,1013.13
161036,3.03977,28.2864,1.04834,50.367,-16.694,453.047,-33.4038,-31.4416,13.2669,1013.11
161042,1.4568,28.0712,1.93308,45.467,-1.434,457.737,-34.5079,-30.1463,13.4294,1013.11
161048,-1.42699,28.5925,2.98999,45.887,16.136,450.177,-36.5709,-27.9258,14.6411,1013.13
161054,-3.06735,30.1324,2.73652,47.917,29.716,435.827,-36.9777,-24.626,13.3851,1013.13
161060,-6.69719,33.1453,1.9283,46.727,42.176,403.767,-37.9657,-22.9298,14.4786,1013.12
161066,-8.60059,34.3553,0.641832,38.047,49.456,377.867,-40.1449,-21.7579,13.4442,1013.12
161072,-10.547,34.2022,-2.14152,15.017,68.776,333.627,-41.6559,-20.0926,13.5033,1013.12
161078,-12.0152,33.9201,-6.11092,-7.803,80.816,300.937,-41.3072,-18.1188,14.9218,1013.15
161084,-17.2902,32.1984,-12.242,-57.643,103.076,250.957,-42.1498,-17.9029,13.8727,1013.15
161090,-22.9143,27.3873,-10.5203,-99.713,108.466,201.467,-43.0506,-16.6077,12.8679,1013.12
161096,-30.2218,16.0291,-3.17931,-94.533,110.846,168.497,-42.7891,-16.0834,12.203,1013.12
161102,-39.7436,8.56858,2.76044,-42.943,102.656,125.377,-42.8181,-15.5591,11.5824,1013.16
161108,-46.0994,6.42606,5.36206,2.417,68.776,104.657,-44.7649,-15.3741,9.52846,1013.16
161114,-46.3433,7.28211,4.38167,77.597,-9.344,78.407,-43.777,-15.004,10.8879,1013.16
161120,-41.2644,10.9024,2.53566,119.597,-46.094,53.487,-43.0797,-13.8012,12.0404,1013.16
