Timestamp,AccX,AccY,AccZ,AngularVelX,AngularVelY,AngularVelZ,MagX,MagY,MagZ,AirPressure
1533152,0.114686,9.78455,0.27086,0.07,-0.06,0.055,0.0876484,-35.3698,0.672146,1009.1
1533158,0.114686,9.78455,0.27086,0.07,0.08,0.055,1.02305,-34.4344,0.555221,1009.1
1533164,0.114686,9.78455,0.27086,0,0.01,-0.015,0.643042,-34.522,0.452911,1009.1
1533170,0.114686,9.78455,0.27561,0,-0.13,0.055,1.69536,-35.4867,1.66601,1009.08
1533176,0.114686,9.78455,0.27561,-0.07,-0.06,0.055,0.993815,-34.7559,0.964458,1009.08
1533182,0.114686,9.78455,0.27561,-0.07,-0.06,-0.015,0.526116,-34.8144,0.365218,1009.09
1533188,0.114686,9.78455,0.27561,-0.07,-0.06,-0.015,0.84766,-35.0482,0.949842,1009.09
1533194,0.114686,9.78455,0.27086,0,0.01,-0.085,0.672272,-35.2528,-0.380178,1009.09
1533200,0.119464,9.78455,0.27086,0,-0.06,-0.085,1.1692,-35.019,2.45525,1009.09
1533206,0.119464,9.78455,0.27086,0,-0.13,-0.085,1.34459,-35.3698,1.3737,1009.12
1533212,0.114686,9.78455,0.27086,-0.07,-0.13,-0.015,1.02305,-34.9021,1.25677,1009.12
1533218,0.119464,9.78455,0.27561,0.07,-0.06,0.055,1.57844,-35.2528,1.46139,1009.12
1533224,0.119464,9.78455,0.27561,0.07,-0.13,0.055,0.935353,-34.8728,0.78907,1009.05
1533230,0.119464,9.78455,0.27561,0.07,-0.06,-0.015,1.22766,-35.1944,2.16294,1009.05
1533236,0.119464,9.78455,0.27561,0,-0.06,-0.015,1.22766,-35.1359,0.730608,1009.1
1533242,0.119464,9.78455,0.27561,0,-0.06,-0.015,0.759967,-34.5805,1.97293,1009.1
1533248,0.119464,9.78455,0.27561,-0.07,0.01,-0.155,0.409192,-34.7851,0.862148,1009.11
1533254,0.119464,9.78455,0.27561,-0.07,0.01,-0.015,0.730735,-35.1651,0.920611,1009.11
1533260,0.119464,9.78455,0.27561,-0.07,-0.06,0.055,1.02305,-35.2528,1.0083,1009.1
1533266,0.119464,9.78455,0.27561,0.07,-0.2,-0.015,0.935353,-34.4344,1.57831,1009.1
1533272,0.119464,9.78455,0.27561,0.07,-0.06,0.125,1.69536,-34.4344,1.40293,1009.1
1533278,0.119464,9.78455,0.27561,0,0.01,0.055,0.555346,-34.3174,0.949842,1009.09
1533284,0.119464,9.78455,0.27561,0,-0.06,-0.015,0.935353,-35.779,0.438295,1009.09
1533290,0.119464,9.78455,0.27561,0.07,-0.06,0.055,0.526116,-35.4282,1.7537,1009.08
1533296,0.119464,9.78455,0.27561,0.07,-0.06,0.055,1.43228,-35.4867,0.979074,1009.08
1533302,0.119464,9.78455,0.27561,0,0.01,-0.015,1.66613,-35.7205,0.29214,1009.12
1533308,0.119464,9.78455,0.27561,0,-0.13,-0.085,0.964585,-35.2821,-0.0878658,1009.12
1533314,0.119464,9.78455,0.27561,-0.07,-0.06,-0.015,1.46151,-35.0774,0.920611,1009.1
1533320,0.119464,9.78455,0.27561,0.07,-0.13,-0.015,1.6369,-35.7205,1.30062,1009.1
1533326,0.119464,9.78455,0.27561,0.21,-0.06,-0.015,1.1692,-34.7851,0.277524,1009.08
1533332,0.119464,9.78455,0.27561,0.07,-0.06,0.055,1.05228,-35.019,1.72447,1009.08
1533338,0.119464,9.78455,0.27561,0.14,0.01,-0.085,0.876891,-34.8144,0.306756,1009.08
1533344,0.119464,9.78455,0.27561,0,0.01,0.055,1.1692,-34.9021,0.160599,1009.11
1533350,0.119464,9.78455,0.27561,-0.07,0.01,0.125,0.292267,-35.2236,1.3737,1009.11
1533356,0.119464,9.78455,0.27561,0.07,0.01,0.055,1.08151,-35.3405,0.759839,1009.05
1533362,0.119464,9.78455,0.27561,0.07,-0.06,0.055,0.61381,-35.1067,0.920611,1009.05
1533368,0.119464,9.78932,0.27561,0.07,0.01,-0.015,0.496885,-35.6036,0.862148,1009.07
1533374,0.119464,9.78455,0.27561,0,-0.06,0.055,1.31536,-34.9021,0.701377,1009.07
1533380,0.119464,9.78455,0.27561,-0.07,-0.06,0.055,1.81229,-35.1944,0.365218,1009.08
1533386,0.114686,9.78455,0.27561,-0.14,-0.06,0.055,0.321497,-35.1359,0.511374,1009.08
1533392,0.114686,9.78455,0.27561,-0.07,0.01,0.125,0.789197,-35.3113,0.438295,1009.08
1533398,0.119464,9.78455,0.27561,-0.14,-0.06,0.055,0.701504,-35.0482,0.832917,1009.1
1533404,0.119464,9.78455,0.27561,-0.21,0.08,0.125,0.993815,-34.9021,1.096,1009.1
1533410,0.119464,9.78455,0.27561,-0.14,-0.06,0.055,1.13997,-35.4282,0.599068,1009.1
1533416,0.119464,9.78455,0.27561,-0.14,-0.2,0.055,0.818428,-35.8082,-0.0878658,1009.1
1533422,0.119464,9.78455,0.27561,-0.21,-0.13,-0.015,0.233804,-35.019,0.803686,1009.07
1533428,0.119464,9.77979,0.27561,0,-0.76,0.125,-0.321589,-35.1651,0.248293,1009.07
1533434,0.119464,9.77979,0.27561,-0.14,-0.2,0.125,0.350729,-34.7851,0.964458,1009.13
1533440,0.124243,9.77979,0.27561,-0.07,0.43,0.055,0.759967,-35.1359,1.11061,1009.13
1533446,0.119464,9.77979,0.27561,-0.21,-0.34,0.055,0.0876484,-34.7851,1.54908,1009.12
1533452,0.119464,9.77979,0.27561,-0.14,-0.06,-0.015,0.438422,-35.9251,-0.190175,1009.12
1533458,0.119464,9.77979,0.27561,-0.14,0.15,-0.015,0.730735,-35.1067,1.7537,1009.12
1533464,0.119464,9.78455,0.27561,-0.21,-0.06,-0.015,1.02305,-34.9313,0.803686,1009.12
1533470,0.119464,9.78455,0.27561,-0.21,0.01,-0.015,0.789197,-35.019,1.03754,1009.12
1533476,0.119464,9.78455,0.27561,-0.21,-0.13,-0.015,0.584579,-34.522,1.43216,1009.1
1533482,0.119464,9.78455,0.28036,-0.14,-0.13,0.055,-0.116971,-35.4867,1.49062,1009.1
1533488,0.119464,9.78455,0.28036,-0.21,0.08,-0.015,0.84766,-35.399,1.13984,1009.12
1533494,0.119464,9.78455,0.28036,-0.21,0.01,0.125,1.2569,-35.779,1.31523,1009.12
1533500,0.119464,9.78455,0.28036,-0.28,0.01,0.055,1.34459,-35.0482,0.277524,1009.1
1533506,0.119464,9.78455,0.28036,-0.28,0.01,-0.015,0.61381,-35.1359,-0.190175,1009.1
1533512,0.119464,9.78455,0.28036,-0.21,0.01,-0.085,1.08151,-35.5744,0.599068,1009.1
1533518,0.119464,9.78455,0.28036,-0.14,-0.06,-0.155,0.876891,-35.3405,0.818302,1009.12
1533524,0.119464,9.78455,0.28511,-0.14,-0.06,-0.085,0.233804,-35.0482,0.379833,1009.12
1533530,0.119464,9.78455,0.28511,-0.14,0.01,-0.015,1.7246,-35.9251,0.642915,1009.12
1533536,0.119464,9.78455,0.28511,-0.07,0.08,0.055,1.78306,-35.3698,-0.248637,1009.12
1533542,0.119464,9.78455,0.28511,0.07,-0.06,0.055,1.02305,-35.2821,0.876764,1009.1
1533548,0.119464,9.78455,0.28511,0.07,-0.06,-0.015,1.81229,-35.1944,-0.0294037,1009.1
1533554,0.119464,9.78455,0.28511,0,-0.06,-0.085,0.906121,-35.5744,0.511374,1009.11
1533560,0.119464,9.78455,0.28511,0,-0.06,-0.085,1.1692,-34.8436,-0.3071,1009.11
1533566,0.119464,9.78455,0.28511,0,-0.06,-0.155,0.964585,-34.8436,1.02292,1009.11
1533572,0.119464,9.78455,0.28511,0,0.01,-0.085,1.31536,-35.399,0.832917,1009.1
1533578,0.119464,9.78455,0.28511,-0.07,0.08,-0.085,1.2569,-35.779,1.15446,1009.1
1533584,0.119464,9.78455,0.289859,-0.14,-0.06,-0.085,-0.116971,-35.399,1.57831,1009.09
1533590,0.119464,9.78455,0.289859,-0.07,-0.06,-0.015,0.759967,-35.3405,1.32985,1009.09
1533596,0.119464,9.78455,0.289859,0,-0.06,-0.085,1.02305,-35.6621,1.3737,1009.06
1533602,0.119464,9.78455,0.289859,-0.07,0.08,-0.015,1.54921,-35.4282,0.145984,1009.06
1533608,0.119464,9.78455,0.289859,0,-0.06,-0.085,0.789197,-35.2821,0.686761,1009.11
1533614,0.119464,9.78455,0.289859,-0.07,-0.06,-0.015,1.05228,-35.2528,0.832917,1009.11
1533620,0.119464,9.78455,0.289859,0,0.01,0.055,0.701504,-35.3698,1.88524,1009.11
1533626,0.119464,9.78455,0.289859,0.07,0.01,-0.155,1.40305,-35.3113,-0.0732498,1009.11
1533632,0.119464,9.78455,0.294609,0,0.01,-0.085,0.84766,-34.5513,0.774455,1009.11
1533638,0.119464,9.78455,0.294609,-0.07,0.08,-0.085,0.759967,-35.1651,1.06677,1009.09
1533644,0.119464,9.78455,0.294609,-0.07,0.15,-0.155,0.701504,-35.2528,1.66601,1009.09
1533650,0.119464,9.78455,0.294609,0,0.01,-0.085,0.584579,-35.1651,0.496758,1009.1
1533656,0.119464,9.78455,0.294609,0,0.01,-0.085,0.906121,-35.6913,-0.248637,1009.1
1533662,0.119464,9.78455,0.294609,-0.07,-0.06,-0.085,0.964585,-35.2236,1.15446,1009.08
1533668,0.119464,9.78455,0.294609,-0.21,0.08,-0.085,0.263035,-34.8436,0.599068,1009.08
1533674,0.119464,9.78455,0.294609,-0.21,0.01,-0.085,1.02305,-35.1067,1.286,1009.05
1533680,0.119464,9.78455,0.294609,-0.07,-0.06,-0.015,1.19843,-35.4867,1.22754,1009.05
1533686,0.119464,9.78455,0.294609,-0.07,0.01,-0.015,0.321497,-36.0713,1.22754,1009.05
1533692,0.119464,9.78455,0.294609,-0.14,0.01,-0.015,1.05228,-35.0774,0.774455,1009.11
1533698,0.119464,9.78455,0.294609,-0.14,-0.06,-0.085,0.935353,-35.6036,1.15446,1009.11
1533704,0.119464,9.78455,0.289859,-0.07,0.01,-0.015,1.57844,-35.5451,1.22754,1009.09
1533710,0.119464,9.78455,0.289859,-0.07,0.01,-0.015,0.876891,-35.3698,0.262909,1009.09
1533716,0.119464,9.78455,0.289859,0.07,-0.06,-0.015,0.876891,-34.7851,1.54908,1009.11
1533722,0.119464,9.78455,0.289859,0.07,-0.06,-0.085,1.11074,-34.9605,1.0083,1009.11
1533728,0.119464,9.78455,0.289859,0.07,0.01,-0.015,0.526116,-34.4928,2.16294,1009.09
1533734,0.119464,9.78455,0.289859,0.07,-0.06,-0.015,1.02305,-35.1067,0.832917,1009.09
1533740,0.119464,9.78455,0.289859,0.07,-0.13,-0.015,1.34459,-35.1067,0.935227,1009.09
1533746,0.119464,9.78455,0.289859,0.07,-0.06,-0.085,0.438422,-35.1359,0.993689,1009.07
1533752,0.119464,9.78455,0.289859,0.07,-0.06,-0.015,0.906121,-35.1067,0.876764,1009.07
1533758,0.119464,9.78455,0.289859,0.07,-0.06,-0.015,0.263035,-35.5159,1.30062,1009.11
1533764,0.119464,9.78455,0.289859,0,0.01,0.055,1.22766,-35.5451,0.818302,1009.11
1533770,0.119464,9.78455,0.289859,0,0.01,-0.155,1.81229,-35.0482,0.847533,1009.09
1533776,0.119464,9.78932,0.289859,0.07,0.01,-0.155,0.730735,-34.9021,0.628299,1009.09
1533782,0.119464,9.78455,0.289859,0.14,0.01,-0.155,1.49075,-34.522,0.862148,1009.06
1533788,0.119464,9.78455,0.289859,0.07,-0.06,-0.015,1.78306,-35.019,0.189831,1009.06
1533794,0.119464,9.78455,0.289859,0.07,-0.06,-0.085,1.28613,-35.1359,0.467527,1009.12
1533800,0.119464,9.78455,0.289859,0.07,-0.06,-0.085,1.7246,-34.3467,0.78907,1009.12
1533806,0.119464,9.78455,0.289859,0.07,-0.06,-0.155,-0.0585079,-35.3113,0.233677,1009.12
1533812,0.119464,9.78455,0.289859,0.07,0.01,-0.085,1.6369,-35.019,0.759839,1009.09
1533818,0.119464,9.78455,0.294609,0.07,-0.13,-0.155,1.34459,-35.2528,0.116753,1009.09
1533824,0.119464,9.78455,0.294609,0,-0.06,-0.155,1.19843,-35.5159,0.686761,1009.09
1533830,0.119464,9.78455,0.294609,0.07,0.01,-0.155,1.1692,-34.9897,0.262909,1009.09
1533836,0.119464,9.78455,0.294609,0,0.01,-0.155,1.69536,-35.0482,-0.292485,1009.11
1533842,0.119464,9.78455,0.294609,-0.07,-0.06,-0.155,1.46151,-35.4574,1.19831,1009.11
1533848,0.119464,9.78455,0.294609,0,-0.13,-0.155,0.467653,-35.5744,0.672146,1009.1
1533854,0.119464,9.78455,0.294609,-0.07,-0.06,-0.225,0.906121,-35.3405,0.730608,1009.1
1533860,0.119464,9.78932,0.294609,-0.07,-0.06,-0.225,0.643042,-35.0774,1.286,1009.1
1533866,0.119464,9.78932,0.294609,-0.14,0.01,-0.225,0.906121,-34.7267,1.06677,1009.11
1533872,0.119464,9.78932,0.294609,-0.07,-0.2,-0.015,0.292267,-35.8667,0.993689,1009.11
1533878,0.119464,9.78455,0.294609,-0.07,-0.13,-0.225,0.643042,-35.6913,0.759839,1009.06
1533884,0.119464,9.78932,0.294609,-0.07,0.08,-0.365,0.467653,-35.0774,0.964458,1009.06
1533890,0.119464,9.78455,0.294609,0,0.15,-0.365,0.146111,-35.2236,1.40293,1009.08
1533896,0.119464,9.78455,0.294609,0,0.01,-0.435,0.935353,-34.8144,1.24215,1009.08
1533902,0.119464,9.78455,0.294609,0.14,0.08,-0.295,0.935353,-35.399,1.02292,1009.08
1533908,0.119464,9.78455,0.299359,0.28,-0.2,-0.225,1.19843,-35.399,1.24215,1009.08
1533914,0.119464,9.78455,0.299359,0.28,-0.06,-0.295,1.60767,-34.8144,0.438295,1009.11
1533920,0.119464,9.78932,0.299359,0.35,-0.13,-0.155,1.37382,-35.0482,-0.0586348,1009.11
1533926,0.119464,9.78932,0.299359,0.21,-0.13,-0.155,0.876891,-35.0482,0.116753,1009.11
1533932,0.119464,9.78932,0.299359,0.21,0.01,-0.155,0.935353,-34.639,0.628299,1009.09
1533938,0.119464,9.78932,0.299359,0,0.01,-0.225,1.75383,-34.8728,1.03754,1009.09
1533944,0.119464,9.78932,0.299359,0,0.01,-0.225,0.759967,-34.7851,0.379833,1009.1
1533950,0.119464,9.78932,0.299359,0.14,0.08,-0.155,1.40305,-35.2236,0.394449,1009.1
1533956,0.119464,9.78932,0.299359,0.21,-0.06,-0.155,0.993815,-34.4928,0.979074,1009.15
1533962,0.119464,9.78932,0.299359,0.21,-0.06,-0.155,1.87075,-35.1067,0.204447,1009.15
1533968,0.119464,9.78932,0.299359,0.28,-0.06,-0.295,0.789197,-35.3698,1.62216,1009.12
1533974,0.119464,9.78932,0.299359,0.21,0.01,-0.225,1.6369,-35.5159,2.26525,1009.12
1533980,0.119464,9.78932,0.299359,0.35,-0.2,-0.085,0.876891,-35.3698,1.05215,1009.12
1533986,0.114686,9.78932,0.299359,0.28,-0.06,-0.015,0.935353,-35.2236,0.52599,1009.08
1533992,0.114686,9.78932,0.299359,0.21,-0.06,-0.085,0.906121,-34.9605,0.701377,1009.08
1533998,0.114686,9.78932,0.299359,0.14,-0.06,-0.085,1.40305,-35.1944,0.832917,1009.08
1534004,0.114686,9.78932,0.299359,0.21,-0.13,-0.085,1.7246,-35.5451,1.44677,1009.08
1534010,0.114686,9.78932,0.299359,0.21,-0.13,-0.155,0.759967,-35.3405,0.599068,1009.11
1534016,0.114686,9.78932,0.299359,0.14,-0.13,-0.155,1.37382,-34.8436,0.365218,1009.11
1534022,0.114686,9.78932,0.299359,0.21,-0.06,-0.085,1.37382,-35.4574,0.204447,1009.1
1534028,0.114686,9.78932,0.299359,0.07,-0.06,-0.155,0.0876484,-35.0774,-0.54095,1009.1
1534034,0.114686,9.78932,0.299359,0,0.01,-0.155,0.555346,-35.1067,1.02292,1009.1
1534040,0.114686,9.78932,0.299359,0.14,-0.06,-0.085,0.789197,-34.6974,0.277524,1009.1
1534046,0.114686,9.79408,0.299359,0.28,-0.2,-0.015,1.19843,-35.779,1.85601,1009.1
1534052,0.114686,9.79408,0.299359,0.28,-0.13,-0.085,1.08151,-35.6913,1.12523,1009.1
1534058,0.114686,9.79408,0.299359,0.28,-0.06,-0.015,0.409192,-35.2821,0.642915,1009.1
1534064,0.114686,9.79408,0.299359,0.21,-0.13,-0.015,1.37382,-35.4574,1.70985,1009.08
1534070,0.114686,9.79408,0.304109,0.07,-0.13,-0.155,-0.263126,-36.0713,-0.0147886,1009.08
1534076,0.114686,9.79408,0.304109,0.14,-0.06,-0.085,0.555346,-35.6913,0.116753,1009.11
1534082,0.114686,9.79408,0.304109,0.14,-0.06,-0.015,0.964585,-35.5744,1.43216,1009.11
1534088,0.114686,9.79408,0.304109,0.14,-0.06,-0.085,0.292267,-36.3928,1.22754,1009.09
1534094,0.114686,9.79408,0.304109,0.21,-0.2,-0.155,0.467653,-35.7205,-0.321715,1009.09
1534100,0.114686,9.79408,0.299359,0.07,-0.13,-0.085,1.08151,-35.399,1.06677,1009.09
1534106,0.114686,9.79408,0.299359,0,0.01,-0.085,0.84766,-35.2821,1.63678,1009.13
1534112,0.114686,9.79408,0.299359,0,-0.06,-0.085,0.555346,-35.3698,1.27139,1009.13
1534118,0.114686,9.79408,0.304109,0.21,-0.2,-0.015,0.467653,-35.7498,-0.204791,1009.1
1534124,0.114686,9.78932,0.304109,0.21,-0.2,0.055,0.84766,-35.6913,0.642915,1009.1
1534130,0.114686,9.79408,0.304109,0.14,-0.13,-0.015,1.19843,-35.1359,0.175215,1009.06
1534136,0.114686,9.79408,0.299359,0.07,0.01,0.055,1.13997,-35.2821,0.116753,1009.06
1534142,0.114686,9.79408,0.299359,0.07,0.01,-0.015,1.46151,-35.5451,0.496758,1009.08
1534148,0.114686,9.79408,0.299359,0,-0.13,0.055,1.49075,-35.6328,-0.117098,1009.08
1534154,0.114686,9.79408,0.299359,0.07,-0.06,-0.015,0.61381,-35.7498,1.72447,1009.08
1534160,0.114686,9.79408,0.299359,0,0.01,-0.015,1.40305,-35.8375,0.701377,1009.07
1534166,0.114686,9.79408,0.299359,0.07,-0.06,-0.085,0.964585,-35.5451,0.599068,1009.07
1534172,0.114686,9.79408,0.299359,0.14,-0.06,0.265,0.730735,-35.2821,1.30062,1009.08
1534178,0.114686,9.79408,0.299359,0.21,-0.06,0.265,1.37382,-35.399,0.613683,1009.08
1534184,0.114686,9.79408,0.299359,0.14,-0.13,0.125,1.43228,-35.399,1.34446,1009.1
1534190,0.114686,9.79408,0.299359,0.07,-0.2,-0.015,0.467653,-34.8728,1.06677,1009.1
1534196,0.114686,9.79408,0.299359,0.14,-0.13,0.055,0.876891,-35.399,0.335986,1009.11
1534202,0.114686,9.79408,0.299359,0.28,-0.13,-0.015,0.730735,-35.9251,0.628299,1009.11
1534208,0.114686,9.79408,0.299359,0.07,-0.06,-0.085,1.37382,-35.9544,1.06677,1009.1
1534214,0.114686,9.79408,0.299359,0.07,-0.06,-0.015,0.964585,-36.3344,1.69524,1009.1
1534220,0.114686,9.79408,0.299359,0.07,-0.2,0.055,0.584579,-35.7205,0.52599,1009.1
1534226,0.114686,9.79408,0.299359,0.21,-0.06,0.055,0.789197,-35.1651,0.569837,1009.11
1534232,0.114686,9.79408,0.299359,0.14,-0.06,-0.085,1.13997,-35.6621,1.286,1009.11
1534238,0.114686,9.79408,0.299359,0.14,-0.06,-0.155,0.61381,-34.9897,0.131368,1009.08
1534244,0.114686,9.79408,0.299359,0.07,0.01,-0.085,0.818428,-34.9021,0.52599,1009.08
1534250,0.114686,9.79408,0.299359,0.14,-0.13,-0.085,1.13997,-34.6974,0.862148,1009.12
1534256,0.114686,9.79408,0.299359,0.14,0.08,-0.085,0.789197,-35.0482,0.979074,1009.12
1534262,0.114686,9.79408,0.299359,0.14,0.01,-0.155,0.672272,-35.1359,1.13984,1009.1
1534268,0.114686,9.78932,0.299359,0.14,-0.13,-0.085,0.789197,-35.8375,0.365218,1009.1
1534274,0.114686,9.78932,0.299359,0.07,0.01,-0.225,0.701504,-35.2821,0.409064,1009.1
1534280,0.119464,9.78932,0.299359,0,0.15,-0.225,0.818428,-35.6621,0.979074,1009.09
1534286,0.119464,9.78932,0.299359,-0.07,0.01,-0.155,0.467653,-35.1944,1.40293,1009.09
1534292,0.114686,9.78932,0.299359,0,-0.06,-0.155,0.935353,-34.9021,-0.160944,1009.07
1534298,0.114686,9.78932,0.299359,-0.07,-0.06,-0.085,1.02305,-35.019,0.920611,1009.07
1534304,0.114686,9.78932,0.299359,0,0.01,-0.155,0.263035,-35.3405,0.78907,1009.07
1534310,0.114686,9.78932,0.299359,0,-0.13,-0.155,0.526116,-35.0482,0.642915,1009.07
1534316,0.114686,9.78932,0.299359,0,-0.13,-0.015,1.11074,-35.1944,-0.190175,1009.11
1534322,0.114686,9.78932,0.299359,0.07,-0.06,-0.085,0.906121,-35.1651,0.935227,1009.11
1534328,0.114686,9.78932,0.299359,0.07,-0.06,-0.015,0.672272,-35.2821,1.46139,1009.11
1534334,0.114686,9.78932,0.299359,0,-0.06,-0.155,1.08151,-34.9605,0.935227,1009.09
1534340,0.114686,9.78932,0.299359,-0.07,-0.13,-0.085,0.993815,-34.5805,1.0083,1009.09
1534346,0.114686,9.78932,0.299359,0.07,-0.06,-0.085,1.37382,-34.9021,1.19831,1009.15
1534352,0.114686,9.78455,0.304109,0.07,0.01,-0.085,1.43228,-35.019,0.0290594,1009.15
1534358,0.114686,9.78455,0.304109,0.14,-0.06,-0.155,1.05228,-35.1944,0.803686,1009.08
1534364,0.114686,9.78455,0.304109,0.28,-0.06,-0.085,0.730735,-34.5513,0.774455,1009.08
1534370,0.114686,9.78455,0.304109,0.21,0.08,-0.085,0.292267,-34.9021,0.876764,1009.1
1534376,0.114686,9.78455,0.304109,0.21,0.01,-0.015,0.730735,-35.2528,0.29214,1009.1
1534382,0.119464,9.78455,0.299359,0.35,-0.06,-0.085,0.701504,-34.639,0.584452,1009.1
1534388,0.114686,9.78455,0.299359,0.35,-0.06,-0.085,1.31536,-35.1359,-0.526334,1009.1
1534394,0.114686,9.78455,0.299359,0.21,-0.06,-0.015,0.730735,-35.1359,0.569837,1009.1
1534400,0.114686,9.78455,0.299359,0.21,-0.06,0.055,1.1692,-34.5805,1.11061,1009.06
1534406,0.114686,9.78455,0.299359,0.14,-0.06,-0.015,1.2569,-34.6682,-0.277869,1009.06
1534412,0.114686,9.78455,0.299359,0,-0.06,0.055,-0.0292759,-35.1944,-0.3071,1009.1
1534418,0.119464,9.78932,0.299359,0.07,-0.06,-0.015,0.350729,-34.2882,0.628299,1009.1
1534424,0.119464,9.78932,0.299359,0,0.01,-0.015,0.526116,-35.5159,0.555221,1009.11
1534430,0.119464,9.78932,0.299359,-0.21,0.08,-0.085,0.61381,-36.2467,-0.0878658,1009.11
1534436,0.119464,9.78932,0.299359,-0.14,0.01,-0.085,0.672272,-35.2236,1.32985,1009.09
1534442,0.119464,9.78932,0.299359,0,0.01,-0.085,1.51998,-35.5451,0.306756,1009.09
1534448,0.119464,9.78932,0.299359,-0.07,0.01,-0.085,1.34459,-35.0774,0.52599,1009.09
1534454,0.119464,9.78932,0.299359,-0.07,0.08,-0.085,0.496885,-34.9897,0.248293,1009.07
1534460,0.114686,9.78932,0.299359,-0.07,0.01,-0.085,0.701504,-35.779,-0.117098,1009.07
1534466,0.114686,9.78932,0.299359,0.07,0.08,-0.085,1.31536,-35.3405,-0.424025,1009.13
1534472,0.114686,9.78455,0.299359,-0.07,-0.06,-0.085,1.22766,-35.1944,0.131368,1009.13
1534478,0.114686,9.78455,0.299359,-0.07,0.01,-0.225,1.19843,-36.0713,-0.438641,1009.08
1534484,0.114686,9.78455,0.299359,0.07,0.01,0.055,0.993815,-35.7205,-0.321715,1009.08
1534490,0.119464,9.78455,0.299359,0.14,0.01,-0.015,0.672272,-35.779,-0.365562,1009.1
1534496,0.119464,9.78455,0.299359,0.14,0.08,-0.085,1.2569,-36.0128,0.584452,1009.1
1534502,0.114686,9.78455,0.299359,0.07,-0.06,-0.085,0.993815,-35.8667,0.335986,1009.1
1534508,0.119464,9.78932,0.299359,-0.07,0.08,-0.015,1.19843,-35.6328,-0.0732498,1009.09
1534514,0.119464,9.78455,0.299359,-0.07,0.01,-0.085,1.22766,-35.2821,-0.54095,1009.09
1534520,0.119464,9.78932,0.299359,0,-0.06,-0.015,1.37382,-35.6621,0.306756,1009.11
1534526,0.119464,9.78932,0.299359,0,0.01,-0.015,0.935353,-36.159,-0.336331,1009.11
1534532,0.114686,9.78932,0.299359,-0.07,-0.06,0.055,0.672272,-34.9897,0.0729055,1009.09
1534538,0.114686,9.78932,0.299359,0,0.01,0.125,0.175342,-35.0482,0.862148,1009.09
1534544,0.114686,9.78932,0.299359,0.07,-0.06,0.125,1.1692,-35.6328,0.262909,1009.08
1534550,0.114686,9.78932,0.299359,0,0.01,0.055,1.05228,-35.779,0.78907,1009.08
1534556,0.114686,9.78932,0.304109,0,-0.06,-0.015,1.22766,-35.8375,0.745224,1009.09
1534562,0.114686,9.78932,0.304109,0,0.01,0.055,0.993815,-35.1067,0.175215,1009.09
1534568,0.114686,9.78932,0.304109,0.14,-0.06,-0.015,0.292267,-34.9605,0.569837,1009.09
1534574,0.114686,9.78932,0.304109,0.07,-0.06,-0.085,0.526116,-35.779,0.409064,1009.09
1534580,0.114686,9.78932,0.304109,0.14,-0.13,-0.015,0.730735,-35.2821,0.204447,1009.09
1534586,0.114686,9.78932,0.304109,0.07,0.01,-0.015,1.05228,-34.6682,0.905995,1009.1
1534592,0.114686,9.78932,0.304109,0.14,-0.06,0.055,0.964585,-34.9313,0.555221,1009.1
1534598,0.114686,9.78932,0.304109,0.14,-0.13,-0.015,1.22766,-34.3174,0.365218,1009.13
1534604,0.114686,9.78932,0.304109,0.07,0.01,-0.085,0.818428,-35.1944,-0.248637,1009.13
1534610,0.114686,9.78932,0.304109,0.07,-0.06,-0.015,0.672272,-35.4574,0.818302,1009.1
1534616,0.114686,9.78932,0.299359,0.07,0.01,-0.015,1.05228,-35.6913,0.160599,1009.1
1534622,0.114686,9.78932,0.299359,0.14,-0.2,-0.015,1.02305,-35.3698,-0.0586348,1009.1
1534628,0.114686,9.78932,0.299359,0.07,-0.2,-0.015,0.993815,-35.2528,-0.000172615,1009.09
1534634,0.114686,9.78932,0.299359,0.07,-0.06,-0.085,1.19843,-35.399,0.394449,1009.09
1534640,0.114686,9.78932,0.299359,0.14,-0.06,0.055,0.350729,-35.0482,-0.219407,1009.04
1534646,0.114686,9.78932,0.299359,0,0.01,-0.015,-4.57764e-05,-35.0774,0.438295,1009.04
1534652,0.114686,9.78932,0.299359,0,0.01,-0.155,1.51998,-35.7498,0.394449,1009.11
1534658,0.114686,9.78932,0.299359,0,0.01,-0.155,1.05228,-35.5744,0.0582895,1009.11
1534664,0.114686,9.78932,0.299359,0.07,0.01,-0.085,0.61381,-35.019,0.540606,1009.11
1534670,0.114686,9.78932,0.299359,0.07,-0.13,-0.015,0.876891,-34.8728,0.496758,1009.11
1534676,0.114686,9.78932,0.299359,-0.07,-0.06,0.055,1.11074,-36.3052,0.832917,1009.08
1534682,0.114686,9.78932,0.299359,0,-0.06,-0.295,1.05228,-35.6328,0.204447,1009.08
1534688,0.114686,9.78932,0.299359,0.07,-0.13,0.055,0.876891,-35.3113,-0.234022,1009.08
1534694,0.114686,9.78932,0.299359,0.07,-0.13,-0.085,0.935353,-35.5451,-0.102482,1009.09
1534700,0.114686,9.78932,0.299359,0,0.01,-0.015,1.05228,-35.2236,0.350602,1009.09
1534706,0.114686,9.78932,0.299359,-0.07,0.08,-0.015,0.0584173,-35.0774,0.102137,1009.09
1534712,0.119464,9.78932,0.304109,0.07,-0.06,-0.015,0.61381,-35.8667,0.993689,1009.09
1534718,0.119464,9.78932,0.304109,0.14,-0.13,-0.085,1.57844,-35.019,0.891379,1009.1
1534724,0.119464,9.78932,0.304109,0.07,-0.13,-0.015,1.02305,-34.9021,1.44677,1009.1
1534730,0.119464,9.78932,0.304109,0,0.01,-0.085,0.643042,-35.6036,0.832917,1009.12
1534736,0.119464,9.78932,0.304109,0,-0.06,-0.015,1.1692,-34.7559,0.979074,1009.12
1534742,0.119464,9.78932,0.304109,-0.07,-0.13,-0.015,1.02305,-34.9897,0.686761,1009.12
1534748,0.119464,9.78932,0.304109,0,-0.13,-0.085,1.11074,-34.5805,-0.0878658,1009.09
1534754,0.119464,9.78932,0.299359,0.07,-0.06,-0.155,1.49075,-35.5744,1.5637,1009.09
1534760,0.114686,9.78932,0.304109,0,-0.06,-0.085,1.84152,-35.4574,0.672146,1009.15
1534766,0.114686,9.78932,0.299359,0.14,0.01,-0.015,1.2569,-35.779,1.05215,1009.15
1534772,0.114686,9.78932,0.299359,0.14,-0.06,-0.015,0.876891,-35.5159,1.06677,1009.16
1534778,0.114686,9.78932,0.299359,0.14,-0.06,-0.015,1.6369,-35.7205,0.686761,1009.16
1534784,0.114686,9.78932,0.299359,0.14,0.01,0.265,1.40305,-34.7851,0.219062,1009.1
1534790,0.114686,9.78932,0.299359,0.07,0.01,0.195,1.37382,-35.0482,0.642915,1009.1
1534796,0.114686,9.78932,0.299359,0.07,0.01,-0.015,1.54921,-35.2236,0.52599,1009.1
1534802,0.114686,9.78932,0.299359,0.07,0.01,-0.155,1.87075,-35.6328,0.745224,1009.1
1534808,0.119464,9.78932,0.299359,-0.07,0.08,-0.085,1.84152,-35.779,0.832917,1009.1
1534814,0.119464,9.78932,0.299359,0.07,0.01,-0.085,0.84766,-35.5159,0.350602,1009.1
1534820,0.114686,9.78932,0.299359,0.14,0.08,-0.085,1.34459,-35.2821,0.452911,1009.1
1534826,0.114686,9.78932,0.299359,0.07,0.01,-0.225,1.1692,-35.5451,-0.277869,1009.14
1534832,0.114686,9.78932,0.299359,0.07,-0.13,-0.225,0.935353,-35.6036,0.701377,1009.14
1534838,0.114686,9.78932,0.299359,0,-0.13,-0.155,1.13997,-35.4574,0.335986,1009.09
1534844,0.114686,9.78932,0.299359,0,-0.06,-0.085,1.81229,-35.3113,-0.0147886,1009.09
1534850,0.114686,9.78932,0.299359,0,-0.06,-0.155,1.2569,-35.019,1.57831,1009.12
1534856,0.114686,9.78932,0.299359,0.07,-0.06,-0.085,0.935353,-35.3405,0.65753,1009.12
1534862,0.114686,9.78932,0.299359,-0.07,-0.06,-0.085,1.31536,-35.5159,-0.0294037,1009.12
1534868,0.114686,9.78932,0.294609,-0.14,0.08,-0.085,0.935353,-35.2528,0.438295,1009.11
1534874,0.114686,9.78932,0.294609,-0.07,-0.06,-0.015,0.61381,-35.3405,0.219062,1009.11
1534880,0.119464,9.78932,0.299359,-0.07,0.08,-0.085,1.51998,-35.7498,1.49062,1009.07
1534886,0.114686,9.78932,0.294609,-0.07,0.01,-0.085,-4.57764e-05,-36.3344,-0.847878,1009.07
1534892,0.114686,9.78932,0.294609,-0.07,0.08,0.055,0.964585,-35.2528,0.862148,1009.08
1534898,0.114686,9.78932,0.294609,0,-0.13,-0.085,1.78306,-35.8959,1.30062,1009.08
1534904,0.114686,9.78932,0.294609,0,-0.06,-0.085,0.906121,-35.8082,0.964458,1009.09
1534910,0.114686,9.78932,0.294609,0.14,0.01,-0.085,1.66613,-35.6036,1.34446,1009.09
1534916,0.114686,9.78932,0.294609,0.14,-0.13,-0.015,1.08151,-35.399,0.876764,1009.09
1534922,0.114686,9.78932,0.294609,0.14,0.01,0.055,1.66613,-35.2236,0.613683,1009.11
1534928,0.114686,9.78932,0.294609,0.14,0.01,0.055,1.05228,-35.9251,0.832917,1009.11
1534934,0.114686,9.78932,0.294609,0.14,-0.06,-0.015,1.54921,-35.8375,0.29214,1009.1
1534940,0.114686,9.78932,0.294609,0,-0.06,0.055,1.66613,-35.7205,1.03754,1009.1
1534946,0.114686,9.78932,0.294609,0,-0.13,0.125,1.19843,-36.1005,0.131368,1009.1
1534952,0.114686,9.78932,0.294609,-0.14,0.01,0.055,1.57844,-35.8082,0.78907,1009.1
1534958,0.114686,9.78932,0.294609,-0.14,0.22,0.055,1.1692,-36.3344,1.06677,1009.11
1534964,0.114686,9.78932,0.294609,-0.14,0.08,0.055,0.818428,-34.9605,1.05215,1009.11
1534970,0.114686,9.78932,0.294609,0,-0.06,0.125,0.935353,-35.6036,0.569837,1009.12
1534976,0.114686,9.78932,0.294609,0.07,-0.06,0.055,0.672272,-35.8959,0.204447,1009.12
1534982,0.119464,9.78932,0.294609,0.07,-0.06,-0.015,0.672272,-35.8667,0.452911,1009.12
1534988,0.114686,9.78932,0.294609,0.14,-0.27,0.055,1.13997,-35.5744,0.219062,1009.06
1534994,0.119464,9.78932,0.294609,0.14,-0.13,0.055,0.730735,-35.8375,-0.730953,1009.06
1535000,0.114686,9.78932,0.294609,0.14,0.01,0.125,0.964585,-35.6621,2.11909,1009.08
1535006,0.114686,9.78932,0.294609,0.14,-0.06,0.055,0.789197,-36.0421,-0.292485,1009.08
1535012,0.114686,9.78932,0.294609,0,0.01,0.125,1.49075,-36.2175,0.759839,1009.1
1535018,0.114686,9.78932,0.294609,0.07,-0.06,-0.015,1.13997,-35.6621,0.482143,1009.1
1535024,0.114686,9.78932,0.294609,0,0.01,0.055,1.54921,-35.3113,0.569837,1009.12
1535030,0.114686,9.78932,0.294609,-0.07,0.01,0.055,1.81229,-34.8728,2.01678,1009.12
1535036,0.114686,9.78932,0.294609,-0.07,-0.06,0.055,1.81229,-35.4867,1.87063,1009.12
1535042,0.114686,9.78932,0.294609,-0.14,0.08,0.195,1.54921,-34.7267,1.46139,1009.1
1535048,0.114686,9.78932,0.294609,-0.07,-0.06,0.125,1.08151,-34.9897,0.394449,1009.1
1535054,0.114686,9.78932,0.294609,-0.14,0.08,0.125,1.37382,-35.779,0.642915,1009.1
1535060,0.114686,9.78932,0.289859,-0.21,-0.06,0.055,1.57844,-35.6328,-0.321715,1009.1
1535066,0.114686,9.78932,0.289859,-0.21,0.15,0.055,0.964585,-35.1944,-0.891725,1009.09
1535072,0.114686,9.78932,0.294609,-0.14,0.08,0.125,1.1692,-35.8667,0.102137,1009.09
1535078,0.114686,9.78932,0.294609,-0.07,0.01,0.125,1.69536,-35.5159,0.745224,1009.13
1535084,0.114686,9.78932,0.294609,-0.14,0.01,0.125,1.95845,-35.4867,1.49062,1009.13
1535090,0.114686,9.78932,0.294609,-0.07,0.01,-0.015,0.789197,-35.8959,0.993689,1009.13
1535096,0.114686,9.78932,0.294609,-0.14,0.08,-0.015,1.89998,-36.0713,0.876764,1009.09
1535102,0.114686,9.78932,0.294609,-0.14,0.01,0.055,1.19843,-35.9544,0.584452,1009.09
1535108,0.114686,9.79408,0.294609,-0.14,-0.06,-0.085,1.1692,-35.3405,0.102137,1009.1
1535114,0.114686,9.79408,0.294609,-0.21,0.08,-0.085,1.22766,-35.2821,0.0436745,1009.1
1535120,0.114686,9.78932,0.294609,-0.14,0.01,-0.085,1.19843,-35.1067,0.584452,1009.07
1535126,0.114686,9.78932,0.294609,-0.14,-0.06,-0.085,1.57844,-35.6036,0.803686,1009.07
1535132,0.114686,9.78932,0.294609,-0.07,0.01,-0.085,1.22766,-35.4282,1.18369,1009.09
1535138,0.114686,9.78932,0.294609,0,0.01,-0.015,1.6369,-35.019,1.24215,1009.09
1535144,0.114686,9.78932,0.294609,0.07,0.01,-0.015,0.993815,-35.0482,0.672146,1009.08
1535150,0.114686,9.78932,0.294609,0.07,-0.06,-0.015,1.43228,-36.0421,0.862148,1009.08
1535156,0.114686,9.78932,0.294609,0.07,-0.13,-0.015,1.89998,-34.9021,0.102137,1009.08
1535162,0.114686,9.78932,0.294609,0.07,0.08,0.125,2.22153,-35.6036,-0.760184,1009.08
1535168,0.114686,9.78932,0.294609,0.07,0.15,0.055,1.40305,-35.2528,0.774455,1009.08
1535174,0.114686,9.78932,0.294609,0.14,0.08,0.055,1.31536,-35.1067,0.949842,1009.13
1535180,0.114686,9.78932,0.294609,0.07,0.08,0.125,1.19843,-36.0128,0.438295,1009.13
1535186,0.114686,9.78932,0.294609,0.14,0.01,0.125,0.730735,-34.5805,0.584452,1009.11
1535192,0.114686,9.78932,0.294609,0.14,0.01,0.055,1.60767,-35.7205,1.34446,1009.11
1535198,0.114686,9.78932,0.294609,0.21,-0.06,0.055,1.75383,-35.5159,-0.497104,1009.09
1535204,0.114686,9.78932,0.294609,0.21,-0.06,-0.015,1.43228,-35.6036,0.905995,1009.09
1535210,0.114686,9.78932,0.294609,0.21,-0.06,-0.015,1.34459,-35.3698,-0.160944,1009.09
1535216,0.114686,9.78932,0.294609,0.21,0.08,0.055,0.818428,-35.399,1.34446,1009.09
1535222,0.114686,9.78932,0.294609,0.14,-0.06,-0.015,0.876891,-35.6036,1.53447,1009.09
1535228,0.114686,9.78932,0.294609,0.14,0.01,0.055,0.643042,-34.9313,0.759839,1009.09
1535234,0.114686,9.78932,0.294609,0.14,0.08,-0.015,1.6369,-34.9021,0.409064,1009.09
1535240,0.114686,9.78932,0.294609,0.14,-0.06,0.125,1.08151,-35.4282,0.394449,1009.07
1535246,0.114686,9.78932,0.294609,0.07,0.01,0.055,0.818428,-35.6036,0.979074,1009.07
1535252,0.114686,9.78932,0.294609,0.07,-0.06,0.125,1.49075,-35.6621,0.935227,1009.1
1535258,0.114686,9.78932,0.294609,0.07,0.01,0.125,1.28613,-35.1944,0.555221,1009.1
1535264,0.114686,9.79408,0.294609,0,-0.06,0.125,0.964585,-35.8082,0.116753,1009.1
1535270,0.114686,9.79408,0.294609,-0.21,0.01,0.195,1.75383,-35.3113,0.715992,1009.08
1535276,0.119464,9.79408,0.294609,-0.07,-0.06,0.265,0.964585,-35.6036,0.438295,1009.08
1535282,0.119464,9.79408,0.294609,0,-0.06,0.195,1.08151,-35.7498,0.409064,1009.1
1535288,0.114686,9.79408,0.294609,-0.07,0.01,0.265,0.61381,-34.9313,0.613683,1009.1
1535294,0.114686,9.79408,0.294609,-0.07,-0.06,0.195,0.84766,-35.9836,1.38831,1009.08
1535300,0.114686,9.79408,0.294609,-0.14,0.01,0.125,-4.57764e-05,-36.5682,0.42368,1009.08
1535306,0.114686,9.79408,0.294609,-0.14,0.01,0.125,1.66613,-36.0128,1.03754,1009.11
1535312,0.114686,9.79408,0.294609,-0.07,-0.06,0.055,1.13997,-35.9544,1.84139,1009.11
1535318,0.114686,9.79408,0.294609,-0.21,-0.06,0.125,1.51998,-34.6097,-0.0732498,1009.11
1535324,0.119464,9.79408,0.294609,-0.14,-0.06,0.125,0.730735,-35.5159,0.847533,1009.11
1535330,0.119464,9.79408,0.294609,-0.14,0.08,0.055,1.22766,-35.399,1.12523,1009.11
1535336,0.119464,9.79408,0.294609,-0.07,-0.06,0.125,1.49075,-35.4867,0.584452,1009.11
1535342,0.119464,9.79408,0.294609,-0.07,0.01,0.055,0.61381,-35.7205,0.759839,1009.11
1535348,0.119464,9.79408,0.294609,-0.14,0.01,-0.085,0.730735,-35.0774,0.569837,1009.08
1535354,0.119464,9.79408,0.294609,-0.07,0.08,-0.085,0.818428,-35.8959,1.24215,1009.08
1535360,0.119464,9.79408,0.294609,0.07,0.01,-0.085,1.11074,-35.7205,-0.555566,1009.11
1535366,0.119464,9.79408,0.294609,0.14,0.01,-0.085,1.19843,-35.0482,0.219062,1009.11
1535372,0.119464,9.79408,0.294609,0.14,-0.06,-0.015,1.08151,-35.6328,-0.497104,1009.12
1535378,0.119464,9.79408,0.294609,0.28,0.01,-0.155,1.37382,-35.019,2.01678,1009.12
1535384,0.119464,9.79408,0.294609,0.35,-0.13,-0.085,1.57844,-35.1944,0.306756,1009.12
1535390,0.119464,9.79408,0.294609,0.35,0.01,-0.015,1.34459,-35.1359,0.599068,1009.11
1535396,0.119464,9.79408,0.294609,0.28,0.08,-0.085,1.31536,-35.5451,-0.17556,1009.11
1535402,0.119464,9.79408,0.294609,0.14,-0.06,0.125,1.08151,-35.6328,-0.131713,1009.09
1535408,0.119464,9.79408,0.294609,0.21,-0.06,-0.085,1.49075,-35.5451,0.832917,1009.09
1535414,0.119464,9.79408,0.294609,0.14,-0.06,-0.155,1.69536,-36.1298,0.715992,1009.09
1535420,0.119464,9.79408,0.294609,0,0.01,-0.085,1.2569,-35.8375,0.145984,1009.09
1535426,0.119464,9.79408,0.294609,-0.07,-0.13,-0.015,0.321497,-35.1944,0.905995,1009.09
1535432,0.119464,9.79408,0.289859,-0.07,0.01,-0.085,0.818428,-34.9605,-0.40941,1009.09
1535438,0.119464,9.79408,0.289859,-0.07,0.01,-0.085,1.37382,-35.1651,0.0875216,1009.1
1535444,0.119464,9.78932,0.289859,0,0.01,-0.085,1.31536,-35.0774,2.10448,1009.1
1535450,0.119464,9.78932,0.289859,-0.07,-0.06,-0.015,0.993815,-35.6913,3.08372,1009.1
1535456,0.119464,9.78932,0.289859,0,0.01,-0.085,0.964585,-35.6621,1.18369,1009.11
1535462,0.119464,9.78932,0.289859,0.07,0.08,-0.085,1.84152,-35.2821,0.686761,1009.11
1535468,0.119464,9.78932,0.289859,0.14,-0.06,-0.015,0.555346,-35.2528,-0.0440197,1009.15
1535474,0.119464,9.78932,0.289859,0.14,0.01,-0.015,1.2569,-35.1067,0.803686,1009.15
1535480,0.119464,9.78932,0.289859,0.07,-0.06,0.055,1.02305,-35.5451,-0.000172615,1009.08
1535486,0.124243,9.78932,0.289859,0.07,-0.06,-0.015,0.146111,-35.5451,-0.219407,1009.08
1535492,0.124243,9.78932,0.289859,0.07,-0.06,-0.085,0.409192,-35.3113,0.891379,1009.11
1535498,0.124243,9.78932,0.289859,0.14,0.01,-0.085,1.31536,-35.5451,0.42368,1009.11
1535504,0.124243,9.78932,0.289859,0.07,0.01,-0.085,1.11074,-35.1067,0.248293,1009.11
1535510,0.124243,9.78932,0.289859,0.07,0.01,-0.365,1.05228,-35.1944,0.935227,1009.09
1535516,0.124243,9.78932,0.289859,0,0.01,-0.085,1.05228,-35.8375,0.540606,1009.09
1535522,0.124243,9.78932,0.289859,0,-0.06,-0.015,1.13997,-35.1651,0.905995,1009.09
1535528,0.124243,9.78932,0.289859,-0.14,0.08,-0.085,1.1692,-35.6621,1.76832,1009.09
1535534,0.124243,9.78932,0.289859,-0.14,-0.06,0.055,1.1692,-35.0482,0.0144434,1009.09
1535540,0.124243,9.78932,0.289859,0,-0.06,-0.015,1.11074,-34.8144,-0.219407,1009.09
1535546,0.124243,9.78932,0.289859,0.07,-0.06,-0.085,1.05228,-35.2236,-0.0147886,1009.09
1535552,0.124243,9.78455,0.289859,0.07,0.01,-0.015,0.964585,-35.2236,0.818302,1009.09
1535558,0.124243,9.78455,0.289859,0.07,0.08,-0.015,2.16306,-35.1944,0.803686,1009.09
1535564,0.119464,9.78455,0.289859,0.14,-0.06,-0.015,2.01691,-34.9313,0.467527,1009.12
1535570,0.119464,9.78455,0.289859,0.07,0.01,0.125,1.05228,-35.7205,-0.146328,1009.12
1535576,0.119464,9.78455,0.289859,0.14,-0.06,-0.015,1.66613,-34.9313,0.876764,1009.1
1535582,0.119464,9.78455,0.289859,0.21,-0.06,0.055,0.84766,-35.4574,0.145984,1009.1
1535588,0.119464,9.78932,0.289859,0.28,-0.06,-0.015,0.935353,-35.5159,1.91447,1009.07
1535594,0.119464,9.78455,0.289859,0.35,-0.06,0.055,1.05228,-35.8082,0.145984,1009.07
1535600,0.119464,9.78455,0.289859,0.42,-0.06,0.055,1.66613,-34.9313,1.91447,1009.08
1535606,0.119464,9.78455,0.289859,0.35,-0.13,-0.155,1.19843,-35.2821,-0.0732498,1009.08
1535612,0.119464,9.78455,0.289859,0.28,-0.13,-0.015,1.6369,-34.9605,0.818302,1009.09
1535618,0.119464,9.78455,0.289859,0.28,-0.06,0.055,0.906121,-35.019,0.496758,1009.09
1535624,0.119464,9.78455,0.289859,0.28,-0.06,-0.085,1.2569,-36.159,0.438295,1009.09
1535630,0.119464,9.78455,0.289859,0.21,-0.13,-0.015,1.28613,-36.159,1.31523,1009.1
1535636,0.119464,9.78455,0.289859,0.28,-0.06,-0.015,1.75383,-35.6913,0.905995,1009.1
1535642,0.119464,9.78455,0.289859,0.21,0.01,0.055,1.84152,-35.1067,1.32985,1009.09
1535648,0.119464,9.78455,0.289859,0,-0.06,0.125,0.467653,-35.3113,0.803686,1009.09
1535654,0.119464,9.78455,0.289859,0.07,-0.06,0.055,1.13997,-35.4867,0.818302,1009.1
1535660,0.124243,9.78932,0.289859,0.07,0.01,0.055,1.51998,-35.8959,0.891379,1009.1
1535666,0.124243,9.78932,0.289859,0.07,0.08,-0.015,1.87075,-35.2236,1.44677,1009.11
1535672,0.124243,9.78932,0.28511,0.07,0.01,0.055,1.81229,-35.6621,1.44677,1009.11
1535678,0.124243,9.78932,0.28511,0.07,-0.06,0.055,1.54921,-35.6036,0.511374,1009.11
1535684,0.119464,9.78932,0.289859,-0.07,0.01,-0.085,1.02305,-35.2528,1.05215,1009.13
1535690,0.119464,9.78932,0.289859,-0.07,0.08,-0.015,0.555346,-35.4574,1.38831,1009.13
1535696,0.119464,9.78932,0.289859,0.07,0.01,0.055,1.28613,-35.7205,0.306756,1009.09
1535702,0.124243,9.78932,0.28511,-0.14,0.08,-0.155,1.57844,-35.9836,0.277524,1009.09
1535708,0.124243,9.78932,0.28511,-0.07,0.08,-0.085,1.22766,-35.9251,1.27139,1009.12
1535714,0.124243,9.78932,0.28511,0.07,-0.06,-0.085,1.37382,-35.7498,0.818302,1009.12
1535720,0.124243,9.78932,0.28511,0,-0.13,-0.155,1.49075,-36.539,-0.0147886,1009.1
1535726,0.119464,9.78932,0.289859,0.14,-0.06,-0.085,0.906121,-35.779,0.0436745,1009.1
1535732,0.119464,9.78932,0.289859,0.07,-0.2,-0.155,1.22766,-35.2821,0.730608,1009.1
1535738,0.119464,9.78932,0.289859,0.21,-0.13,-0.085,1.54921,-35.6328,0.628299,1009.1
1535744,0.119464,9.78932,0.289859,0.14,-0.13,-0.155,1.31536,-35.8667,-0.584797,1009.1
1535750,0.119464,9.78932,0.289859,0.21,-0.27,-0.085,0.730735,-35.5159,0.905995,1009.11
1535756,0.119464,9.78932,0.289859,0.21,-0.13,-0.155,1.05228,-35.6328,0.0436745,1009.11
1535762,0.124243,9.78932,0.28511,0.14,-0.06,-0.085,1.66613,-36.539,0.584452,1009.1
1535768,0.124243,9.78932,0.28511,0.21,-0.13,-0.085,0.818428,-35.3405,0.628299,1009.1
1535774,0.124243,9.78932,0.28511,0.21,-0.13,-0.015,1.22766,-36.0128,1.22754,1009.09
1535780,0.124243,9.78932,0.28511,0.21,-0.06,-0.155,1.31536,-35.9836,0.0875216,1009.09
1535786,0.124243,9.78932,0.28511,0.14,-0.06,-0.085,0.84766,-36.0128,0.52599,1009.09
1535792,0.124243,9.78455,0.28511,0.07,-0.06,-0.155,0.876891,-35.8082,1.19831,1009.09
1535798,0.119464,9.78932,0.28511,0.21,-0.2,-0.015,1.37382,-35.8667,1.19831,1009.09
1535804,0.124243,9.78932,0.28511,0.21,-0.13,-0.155,1.2569,-35.4574,1.15446,1009.09
1535810,0.124243,9.78932,0.28511,0.28,0.01,-0.225,0.876891,-35.8375,1.05215,1009.09
1535816,0.124243,9.78932,0.28511,0.21,-0.06,-0.015,1.08151,-35.9544,0.979074,1009.14
1535822,0.124243,9.78932,0.28511,0.28,-0.06,-0.085,0.759967,-35.8082,1.476,1009.14
1535828,0.124243,9.78932,0.28511,0.35,-0.13,-0.015,0.759967,-35.9544,0.613683,1009.09
1535834,0.124243,9.78455,0.28511,0.28,-0.27,-0.015,0.730735,-35.5744,0.876764,1009.09
1535840,0.124243,9.78455,0.28511,0.21,-0.13,-0.015,1.31536,-35.399,0.482143,1009.11
1535846,0.119464,9.78455,0.28511,0.14,-0.06,-0.085,1.46151,-35.2821,0.555221,1009.11
1535852,0.124243,9.78455,0.28511,0.14,-0.13,-0.085,0.438422,-34.7851,0.0729055,1009.11
1535858,0.124243,9.78455,0.28511,0.21,-0.2,-0.085,1.49075,-34.7559,0.496758,1009.12
1535864,0.124243,9.78455,0.28036,0.07,-0.06,-0.155,1.37382,-34.9897,1.63678,1009.12
1535870,0.124243,9.78455,0.28036,0.07,-0.06,-0.085,0.438422,-34.639,1.02292,1009.08
1535876,0.124243,9.78455,0.28036,0.07,-0.06,-0.085,1.11074,-35.8667,-0.117098,1009.08
1535882,0.124243,9.78455,0.28036,0.14,-0.13,-0.015,0.759967,-35.1944,0.979074,1009.07
1535888,0.124243,9.78455,0.28036,0.07,-0.13,-0.085,0.964585,-35.7205,0.452911,1009.07
1535894,0.124243,9.78455,0.28036,0.07,-0.13,-0.085,1.13997,-34.9313,1.08138,1009.09
1535900,0.124243,9.78455,0.28036,0,0.01,-0.085,1.57844,-35.2821,-1.21327,1009.09
1535906,0.124243,9.78455,0.28036,0.07,-0.06,-0.085,0.906121,-36.1005,-0.117098,1009.07
1535912,0.124243,9.78455,0.28036,0.14,-0.06,-0.155,0.876891,-35.5159,-0.0294037,1009.07
1535918,0.124243,9.78455,0.28036,0.14,-0.06,-0.155,0.730735,-35.5451,0.847533,1009.07
1535924,0.124243,9.78455,0.28036,0.14,-0.13,-0.085,0.935353,-35.4282,0.467527,1009.07
1535930,0.124243,9.78455,0.28036,0.14,-0.13,-0.015,0.263035,-36.0128,0.642915,1009.07
1535936,0.124243,9.78455,0.28036,0.07,0.01,-0.085,1.69536,-35.6328,1.32985,1009.09
1535942,0.124243,9.78455,0.28036,0.14,-0.2,-0.085,0.993815,-35.7498,0.613683,1009.09
1535948,0.124243,9.78455,0.28036,0.21,-0.41,-0.085,0.789197,-35.2528,1.18369,1009.12
1535954,0.124243,9.78455,0.28036,0.21,-0.13,-0.085,1.02305,-35.4574,0.233677,1009.12
1535960,0.124243,9.78455,0.28036,0.14,-0.06,-0.085,1.28613,-35.399,0.0875216,1009.09
1535966,0.124243,9.78455,0.28036,0.14,-0.2,-0.085,1.51998,-35.3698,1.87063,1009.09
1535972,0.124243,9.78455,0.28036,0.14,-0.13,-0.015,0.672272,-35.4867,1.81216,1009.09
1535978,0.124243,9.78455,0.28036,0.07,0.08,0.055,1.54921,-35.4282,0.379833,1009.12
1535984,0.124243,9.78455,0.28036,0.07,-0.06,-0.015,0.584579,-35.8375,0.335986,1009.12
1535990,0.124243,9.78455,0.28036,0.07,-0.13,0.055,1.57844,-35.6913,-0.190175,1009.11
1535996,0.124243,9.78455,0.27561,0.14,-0.06,-0.015,1.28613,-35.5159,-0.555566,1009.11
1536002,0.124243,9.78455,0.27561,0.07,0.08,-0.015,1.31536,-35.6328,0.394449,1009.09
1536008,0.124243,9.78455,0.27561,0.14,-0.06,0.055,1.28613,-35.3405,-0.102482,1009.09
1536014,0.124243,9.78455,0.27561,0.07,-0.06,0.265,1.11074,-35.7498,0.496758,1009.08
1536020,0.124243,9.78455,0.27561,0,-0.06,0.055,1.2569,-35.779,0.672146,1009.08
1536026,0.124243,9.78455,0.27561,0.14,-0.13,-0.015,0.876891,-35.6036,0.365218,1009.08
1536032,0.124243,9.78455,0.27561,0.07,-0.06,-0.085,0.818428,-35.1651,2.14832,1009.1
1536038,0.124243,9.78455,0.27561,0.07,-0.13,0.055,1.28613,-35.5159,1.24215,1009.1
1536044,0.124243,9.78455,0.27561,0.07,-0.06,-0.015,1.02305,-34.9897,0.233677,1009.09
1536050,0.124243,9.78455,0.27561,0,-0.13,0.055,0.263035,-34.7851,1.30062,1009.09
1536056,0.124243,9.78455,0.27561,0,-0.13,-0.015,0.789197,-34.9897,1.27139,1009.08
1536062,0.124243,9.78455,0.27561,0,-0.06,0.055,1.54921,-35.6621,1.53447,1009.08
1536068,0.124243,9.78455,0.27561,-0.07,-0.06,0.055,1.6369,-35.0482,1.08138,1009.11
1536074,0.124243,9.78455,0.27561,0,0.01,0.055,1.22766,-35.8667,0.555221,1009.11
1536080,0.124243,9.78455,0.27561,0.14,-0.06,-0.015,1.22766,-35.5744,2.01678,1009.13
1536086,0.124243,9.78455,0.27561,0.14,-0.06,-0.085,1.46151,-35.4282,0.686761,1009.13
1536092,0.124243,9.78455,0.27561,0.14,0.01,0.055,1.02305,-35.6621,0.847533,1009.13
1536098,0.124243,9.78455,0.27561,0.14,-0.06,0.055,1.60767,-34.7851,0.759839,1009.07
1536104,0.124243,9.78455,0.27561,0.14,0.08,0.055,0.61381,-35.9251,1.30062,1009.07
1536110,0.124243,9.78455,0.27561,0.21,-0.06,-0.015,1.54921,-35.9836,0.715992,1009.11
1536116,0.124243,9.78455,0.27561,0.14,-0.13,-0.015,1.02305,-35.1944,1.27139,1009.11
1536122,0.124243,9.78455,0.27086,0.07,0.01,-0.015,1.08151,-36.2759,1.0083,1009.11
1536128,0.124243,9.78455,0.27086,0,0.08,-0.085,0.643042,-35.5159,0.876764,1009.11
1536134,0.124243,9.78932,0.27086,0.14,-0.13,-0.085,0.643042,-35.6328,1.12523,1009.13
1536140,0.119464,9.78932,0.27086,0.07,-0.13,-0.085,1.22766,-35.2236,0.642915,1009.13
1536146,0.119464,9.78932,0.27086,0.07,-0.06,0.055,0.643042,-35.019,0.350602,1009.13
1536152,0.124243,9.78932,0.27086,-0.07,0.01,0.125,0.876891,-35.6913,0.569837,1009.11
1536158,0.124243,9.78932,0.27086,0,-0.13,0.125,1.46151,-35.7498,1.30062,1009.11
1536164,0.124243,9.78932,0.27086,-0.07,0.01,-0.015,1.51998,-34.9605,0.496758,1009.13
1536170,0.124243,9.78932,0.27086,0.07,-0.2,-0.015,0.993815,-35.0774,1.15446,1009.13
1536176,0.124243,9.78932,0.27086,0.07,-0.06,-0.015,1.57844,-36.159,1.69524,1009.11
1536182,0.124243,9.78932,0.27086,0.14,0.01,-0.015,0.701504,-35.3113,0.599068,1009.11
1536188,0.124243,9.78932,0.27086,0.28,-0.13,-0.085,0.146111,-35.2528,1.41754,1009.12
1536194,0.124243,9.78932,0.27086,0.14,-0.13,0.055,0.964585,-35.4867,0.233677,1009.12
1536200,0.124243,9.78455,0.27086,0.14,-0.06,0.195,2.01691,-35.019,1.02292,1009.12
1536206,0.124243,9.78455,0.27086,0.14,-0.06,0.125,1.34459,-35.2821,0.233677,1009.12
1536212,0.124243,9.78455,0.27086,0.14,-0.06,-0.015,1.08151,-35.4282,0.277524,1009.12
1536218,0.124243,9.78932,0.27086,0.21,-0.13,0.335,0.964585,-35.3698,0.496758,1009.1
1536224,0.124243,9.78932,0.27086,0.21,-0.06,0.195,0.84766,-35.779,0.321371,1009.1
1536230,0.124243,9.78932,0.27086,0.14,-0.06,-0.015,0.935353,-34.7267,1.65139,1009.11
1536236,0.124243,9.78455,0.27086,0.14,-0.13,0.055,1.37382,-35.0482,1.05215,1009.11
1536242,0.124243,9.78455,0.27086,0.14,-0.13,-0.015,1.02305,-35.5159,1.62216,1009.08
1536248,0.124243,9.78455,0.27086,0.07,-0.06,-0.015,0.496885,-35.399,1.06677,1009.08
1536254,0.124243,9.78932,0.27086,0.07,-0.13,0.055,1.1692,-35.1651,0.905995,1009.12
1536260,0.124243,9.78455,0.27086,0,-0.06,0.125,1.60767,-35.4282,1.21292,1009.12
1536266,0.124243,9.78455,0.27086,0,0.01,0.055,1.46151,-35.7205,0.832917,1009.12
1536272,0.124243,9.78455,0.27086,0,0.01,0.055,1.49075,-35.8959,1.49062,1009.11
1536278,0.124243,9.78932,0.27086,0.07,-0.06,-0.015,0.84766,-35.3405,0.715992,1009.11
1536284,0.119464,9.78932,0.27086,-0.07,0.08,0.055,1.19843,-34.6682,0.438295,1009.09
1536290,0.119464,9.78932,0.27086,0,-0.06,0.055,0.409192,-35.5744,1.76832,1009.09
1536296,0.119464,9.78932,0.27086,0.07,-0.06,0.055,0.993815,-35.6328,1.13984,1009.11
1536302,0.119464,9.78932,0.27086,0,0.01,-0.015,1.49075,-35.7205,0.350602,1009.11
1536308,0.119464,9.78455,0.27086,0.07,-0.13,0.055,1.60767,-35.399,1.12523,1009.08
1536314,0.119464,9.78455,0.27086,-0.07,-0.13,-0.015,1.28613,-34.9605,2.00217,1009.08
1536320,0.119464,9.78455,0.27086,-0.07,0.01,0.055,1.22766,-35.3698,0.0144434,1009.08
1536326,0.119464,9.78932,0.27086,0.07,0.01,-0.015,0.730735,-34.8728,1.24215,1009.08
1536332,0.119464,9.78932,0.27086,0,0.01,-0.015,1.37382,-35.8375,0.262909,1009.08
1536338,0.119464,9.78455,0.27086,-0.07,0.01,0.055,1.22766,-34.4928,0.335986,1009.13
1536344,0.119464,9.78455,0.27086,0,0.01,-0.015,1.05228,-34.5513,-0.000172615,1009.13
1536350,0.119464,9.78455,0.27086,0.07,0.01,-0.015,1.28613,-35.3405,0.394449,1009.14
1536356,0.119464,9.78455,0.27086,-0.07,0.01,0.125,1.1692,-35.1651,0.335986,1009.14
1536362,0.119464,9.78455,0.27086,0,0.01,0.055,1.89998,-35.4282,0.116753,1009.06
1536368,0.119464,9.78932,0.26611,0.07,-0.13,0.125,1.22766,-34.9605,1.59293,1009.06
1536374,0.119464,9.78455,0.26611,0.07,0.01,-0.015,1.60767,-35.3113,0.759839,1009.13
1536380,0.119464,9.78455,0.26611,0.07,-0.13,0.055,0.876891,-34.7559,1.5637,1009.13
1536386,0.119464,9.78455,0.26611,0.14,-0.06,-0.015,1.13997,-34.8436,-0.394794,1009.13
1536392,0.119464,9.78455,0.26611,0.14,0.01,-0.015,0.789197,-35.3113,1.21292,1009.14
1536398,0.119464,9.78455,0.26611,0.14,-0.13,0.055,1.34459,-35.4867,0.949842,1009.14
1536404,0.119464,9.78455,0.26611,0.21,-0.13,0.055,0.964585,-34.9021,1.02292,1009.1
1536410,0.119464,9.78455,0.26611,0.21,-0.06,-0.015,1.66613,-35.6621,0.262909,1009.1
1536416,0.119464,9.78455,0.26611,0.14,0.01,-0.015,1.46151,-35.1651,0.569837,1009.09
1536422,0.119464,9.78455,0.27086,0.21,-0.27,-0.155,0.321497,-35.1651,0.891379,1009.09
1536428,0.119464,9.78455,0.26611,0.14,-0.2,-0.085,0.672272,-35.5451,0.993689,1009.09
1536434,0.119464,9.78455,0.26611,0.21,-0.13,0.055,1.66613,-35.0774,0.891379,1009.09
1536440,0.119464,9.78455,0.26611,0.21,-0.13,-0.015,1.43228,-35.0774,0.42368,1009.09
1536446,0.119464,9.78455,0.26611,0.21,-0.13,-0.015,1.02305,-34.5805,0.438295,1009.09
1536452,0.119464,9.78455,0.26611,0.21,-0.06,0.055,1.31536,-35.2821,0.818302,1009.09
1536458,0.119464,9.78455,0.26611,0.21,-0.13,-0.015,1.08151,-35.2821,-0.394794,1009.08
1536464,0.119464,9.78455,0.26611,0.14,-0.13,-0.015,0.61381,-35.019,0.52599,1009.08
1536470,0.119464,9.78455,0.26611,0.21,0.01,-0.085,1.43228,-35.0774,1.40293,1009.12
1536476,0.124243,9.78455,0.26611,0.14,-0.06,-0.015,0.37996,-34.8144,-1.03788,1009.12
1536482,0.124243,9.78455,0.26611,0.14,-0.06,0.055,0.204574,-35.2821,-0.321715,1009.08
1536488,0.119464,9.78455,0.26611,0.07,0.01,0.055,0.643042,-35.399,-0.336331,1009.08
1536494,0.119464,9.78455,0.26611,0.14,-0.06,-0.015,1.13997,-35.6036,0.175215,1009.07
1536500,0.124243,9.78455,0.26611,0.14,-0.06,0.055,0.906121,-35.1944,0.219062,1009.07
1536506,0.124243,9.78455,0.26136,0.14,0.01,-0.015,0.759967,-35.9544,-1.02327,1009.07
1536512,0.124243,9.78455,0.26611,0.21,0.01,0.055,1.31536,-34.9605,0.29214,1009.06
1536518,0.124243,9.78455,0.26611,0.28,0.08,0.125,1.31536,-35.6328,-0.131713,1009.06
1536524,0.124243,9.78455,0.26611,0.21,0.01,0.195,0.935353,-35.5744,-0.745568,1009.12
1536530,0.124243,9.78455,0.26136,0.28,-0.27,0.055,0.993815,-35.7205,0.78907,1009.12
1536536,0.119464,9.78455,0.26136,0.14,0.01,0.055,1.2569,-35.6328,0.876764,1009.08
1536542,0.119464,9.78455,0.26136,0.14,-0.06,0.125,1.89998,-35.5744,0.0729055,1009.08
1536548,0.124243,9.78455,0.26136,0.14,0.08,0.195,1.46151,-35.7205,1.53447,1009.1
1536554,0.124243,9.78455,0.26136,0.07,0.08,0.125,1.34459,-35.2528,-0.438641,1009.1
1536560,0.124243,9.78455,0.26136,0.21,-0.06,-0.015,1.60767,-35.3113,0.599068,1009.1
1536566,0.124243,9.78455,0.26136,0.21,0.01,-0.015,1.57844,-35.5159,0.686761,1009.12
1536572,0.124243,9.78455,0.26136,0.14,0.08,-0.015,0.876891,-35.3113,0.862148,1009.12
1536578,0.124243,9.78932,0.26136,0,0.01,-0.015,1.95845,-35.5159,0.350602,1009.07
1536584,0.124243,9.78455,0.26136,0.07,0.01,-0.015,1.37382,-35.9836,0.628299,1009.07
1536590,0.124243,9.78455,0.26136,0.21,-0.13,-0.085,0.292267,-35.4867,0.233677,1009.15
1536596,0.124243,9.78455,0.26136,0.07,-0.2,-0.015,1.1692,-35.7205,0.964458,1009.15
1536602,0.124243,9.78455,0.26136,-0.14,0.01,0.055,1.22766,-35.5451,0.540606,1009.14
1536608,0.124243,9.78455,0.26136,0,0.08,-0.085,1.28613,-35.5744,0.306756,1009.14
1536614,0.124243,9.78455,0.26136,0,-0.2,-0.085,0.233804,-35.5159,-0.467872,1009.14
1536620,0.124243,9.78455,0.26136,-0.07,-0.13,-0.085,1.28613,-35.5159,0.452911,1009.09
1536626,0.124243,9.78455,0.26136,-0.07,-0.27,-0.225,1.69536,-35.4867,-0.365562,1009.09
1536632,0.124243,9.78455,0.26136,0.07,-0.13,-0.155,2.07537,-35.7498,-0.0294037,1009.11
1536638,0.124243,9.78455,0.26136,0.07,-0.06,-0.085,0.701504,-35.779,0.335986,1009.11
1536644,0.124243,9.78455,0.26136,0.07,-0.06,-0.085,0.730735,-35.5159,1.286,1009.08
1536650,0.124243,9.78455,0.26136,0.21,0.01,-0.155,1.05228,-34.9897,1.35908,1009.08
1536656,0.124243,9.78455,0.26136,0.21,-0.13,-0.085,0.964585,-36.0713,0.335986,1009.11
1536662,0.124243,9.78455,0.26136,0.21,-0.06,-0.015,1.37382,-36.0128,0.277524,1009.11
1536668,0.124243,9.78455,0.26136,0.28,-0.13,-0.155,1.08151,-35.399,1.31523,1009.1
1536674,0.124243,9.78455,0.26136,0.14,-0.06,-0.085,0.467653,-35.3113,1.0083,1009.1
1536680,0.124243,9.78455,0.26136,0.14,-0.06,-0.085,1.92921,-35.8667,0.613683,1009.1
1536686,0.124243,9.78455,0.26136,0.07,-0.13,-0.155,0.467653,-35.7205,0.569837,1009.1
1536692,0.124243,9.78455,0.26136,0.14,-0.13,-0.015,0.292267,-35.1651,1.41754,1009.1
1536698,0.124243,9.78455,0.26136,0.07,-0.13,-0.085,0.876891,-35.2821,0.219062,1009.09
1536704,0.124243,9.78455,0.26136,0.14,-0.2,-0.085,1.02305,-35.8375,1.3737,1009.09
1536710,0.124243,9.78455,0.26136,0.14,-0.2,-0.155,0.526116,-36.0421,1.12523,1009.09
1536716,0.124243,9.78455,0.26136,0.07,-0.13,-0.225,0.672272,-35.1651,0.555221,1009.09
1536722,0.124243,9.78455,0.26136,0,-0.13,-0.085,1.40305,-34.9897,0.496758,1009.13
1536728,0.124243,9.78455,0.26136,0,-0.13,-0.225,0.350729,-35.3405,0.891379,1009.13
1536734,0.124243,9.78455,0.26136,0,-0.06,-0.155,0.438422,-34.8436,-0.628644,1009.13
1536740,0.124243,9.78455,0.26136,-0.07,-0.13,-0.015,0.409192,-35.1651,-0.614028,1009.11
1536746,0.124243,9.78455,0.26136,0,0.01,-0.155,0.701504,-35.1944,0.818302,1009.11
1536752,0.124243,9.78455,0.26136,0,0.08,-0.015,1.2569,-34.8728,1.12523,1009.07
1536758,0.124243,9.78455,0.26136,0.14,-0.2,-0.015,1.02305,-34.7851,0.584452,1009.07
1536764,0.124243,9.78455,0.26136,0,-0.06,-0.225,1.05228,-35.6036,1.35908,1009.1
1536770,0.124243,9.78455,0.26136,0.07,-0.06,-0.155,0.350729,-34.7851,1.51985,1009.1
1536776,0.124243,9.78455,0.26136,0.07,-0.13,-0.085,0.409192,-36.0713,1.63678,1009.08
1536782,0.124243,9.78455,0.26136,0,-0.06,-0.085,0.935353,-35.9251,0.262909,1009.08
1536788,0.129022,9.78455,0.26136,0,-0.06,-0.015,1.51998,-35.6036,0.774455,1009.08
1536794,0.129022,9.78455,0.26136,0,-0.06,-0.015,-0.0292759,-35.1944,1.05215,1009.12
1536800,0.129022,9.78455,0.26136,0,0.08,-0.085,1.46151,-35.1944,1.5637,1009.12
1536806,0.129022,9.78455,0.26136,-0.07,-0.06,-0.085,1.02305,-35.4574,0.569837,1009.11
1536812,0.129022,9.78455,0.26136,0.14,-0.2,-0.155,1.37382,-35.4574,-0.0440197,1009.11
1536818,0.129022,9.78455,0.26136,0,-0.13,-0.155,1.11074,-35.3698,-0.0440197,1009.06
1536824,0.124243,9.78455,0.26136,-0.07,-0.06,-0.085,0.467653,-35.4867,1.476,1009.06
1536830,0.124243,9.78455,0.26136,-0.07,-0.13,0.055,1.1692,-35.1067,0.686761,1009.05
1536836,0.129022,9.78455,0.26136,-0.07,-0.06,0.195,1.13997,-35.7498,1.35908,1009.05
1536842,0.129022,9.78455,0.25661,-0.07,0.01,-0.015,0.0584173,-35.9251,-0.263253,1009.1
1536848,0.129022,9.78455,0.25661,-0.14,0.01,-0.085,0.496885,-36.0713,-0.0294037,1009.1
1536854,0.129022,9.78455,0.25661,-0.14,0.01,-0.015,1.34459,-34.8728,1.0083,1009.1
1536860,0.124243,9.78455,0.25661,-0.14,-0.06,-0.015,1.11074,-34.4051,0.935227,1009.12
1536866,0.124243,9.78455,0.25661,-0.07,-0.06,-0.085,0.438422,-34.8728,0.65753,1009.12
1536872,0.124243,9.78932,0.25661,-0.14,0.01,-0.085,1.43228,-35.1651,0.65753,1009.13
1536878,0.124243,9.78932,0.25661,-0.07,-0.06,-0.085,0.467653,-35.6328,-0.906341,1009.13
1536884,0.124243,9.78932,0.25661,-0.14,-0.13,-0.085,1.43228,-34.7851,0.745224,1009.12
1536890,0.124243,9.78932,0.25661,-0.21,-0.06,-0.155,1.02305,-35.3698,-0.117098,1009.12
1536896,0.124243,9.78932,0.25661,0,-0.06,-0.085,1.54921,-35.6036,-0.0294037,1009.07
1536902,0.124243,9.78932,0.25661,-0.07,0.01,-0.085,1.05228,-34.7851,0.511374,1009.07
1536908,0.124243,9.78932,0.25661,0,-0.13,-0.085,0.701504,-35.2821,-0.146328,1009.07
1536914,0.124243,9.78932,0.26136,-0.07,-0.06,-0.155,0.643042,-35.3405,-0.935572,1009.11
1536920,0.124243,9.78932,0.26136,-0.07,0.01,-0.085,1.43228,-35.6913,-0.467872,1009.11
1536926,0.124243,9.78932,0.26136,-0.07,0.01,-0.085,0.672272,-34.8144,0.540606,1009.09
1536932,0.124243,9.78932,0.26136,-0.07,0.01,-0.085,1.34459,-35.779,-1.68097,1009.09
1536938,0.124243,9.78932,0.26136,-0.07,0.08,0.195,1.81229,-35.399,0.452911,1009.12
1536944,0.124243,9.78932,0.26136,0.07,-0.06,0.055,0.526116,-34.7851,-0.0294037,1009.12
1536950,0.124243,9.78932,0.26136,0,-0.06,-0.155,1.28613,-35.3698,-1.25711,1009.11
1536956,0.124243,9.78932,0.26136,-0.07,0.01,-0.085,1.51998,-35.019,-1.47635,1009.11
1536962,0.124243,9.78932,0.26136,-0.07,-0.13,-0.085,1.84152,-34.8144,-0.292485,1009.12
1536968,0.124243,9.78932,0.26136,0,0.01,-0.085,0.584579,-35.1651,0.715992,1009.12
1536974,0.119464,9.78932,0.26136,0,-0.06,0.055,1.34459,-34.7267,-0.000172615,1009.12
1536980,0.119464,9.78932,0.26136,0,-0.06,0.055,0.701504,-34.8144,0.394449,1009.08
1536986,0.119464,9.78932,0.26136,0.07,-0.06,-0.015,0.876891,-34.9313,-0.0878658,1009.08
1536992,0.124243,9.78932,0.26136,0,-0.06,-0.155,0.496885,-34.6974,-1.0525,1009.1
1536998,0.124243,9.78932,0.26136,0,-0.06,-0.015,0.964585,-34.8436,-0.380178,1009.1
1537004,0.119464,9.78932,0.26136,0,0.01,-0.015,0.759967,-34.9605,0.979074,1009.08
1537010,0.119464,9.78932,0.26136,-0.14,-0.06,0.055,1.02305,-35.2528,0.65753,1009.08
1537016,0.119464,9.78932,0.26136,-0.07,-0.13,-0.015,1.28613,-34.6974,-0.0440197,1009.11
1537022,0.119464,9.78932,0.26136,0,-0.06,-0.085,0.818428,-34.6974,0.730608,1009.11
1537028,0.119464,9.78932,0.26136,0,0.01,-0.155,1.2569,-35.2821,0.42368,1009.11
1537034,0.119464,9.78932,0.26136,0,0.08,-0.085,0.321497,-34.4636,-0.0147886,1009.1
1537040,0.119464,9.78932,0.26136,0.07,-0.06,-0.155,1.6369,-35.1651,0.832917,1009.1
1537046,0.119464,9.78932,0.26136,0,-0.2,-0.155,-0.116971,-34.7851,0.248293,1009.12
1537052,0.119464,9.78932,0.26136,-0.07,-0.13,-0.085,1.05228,-35.5744,0.569837,1009.12
1537058,0.119464,9.78932,0.26136,0,-0.06,-0.015,0.935353,-34.259,0.818302,1009.08
1537064,0.124243,9.78932,0.26136,-0.14,-0.06,-0.015,1.49075,-34.6974,1.27139,1009.08
1537070,0.119464,9.78932,0.26136,0,-0.13,-0.015,0.876891,-34.6097,0.745224,1009.06
1537076,0.119464,9.78932,0.26136,-0.07,-0.06,0.055,0.789197,-34.4344,0.160599,1009.06
1537082,0.119464,9.78932,0.26136,-0.14,-0.06,-0.085,1.19843,-35.0774,1.19831,1009.06
1537088,0.119464,9.78932,0.26136,-0.21,-0.06,-0.085,1.31536,-35.1944,1.18369,1009.12
1537094,0.119464,9.78932,0.26136,-0.21,0.01,-0.015,1.05228,-34.6974,0.979074,1009.12
1537100,0.119464,9.78932,0.26136,-0.14,-0.06,-0.015,0.643042,-35.1651,1.12523,1009.08
1537106,0.119464,9.78932,0.26136,-0.14,0.01,-0.085,0.84766,-35.0774,0.891379,1009.08
1537112,0.119464,9.78932,0.26136,-0.14,0.01,-0.015,0.409192,-35.0774,0.949842,1009.1
1537118,0.119464,9.78932,0.26136,-0.07,-0.06,-0.015,0.701504,-35.5159,0.511374,1009.1
1537124,0.119464,9.78932,0.26136,-0.21,0.01,0.055,0.935353,-34.5513,0.145984,1009.06
1537130,0.119464,9.78932,0.26136,-0.07,0.01,-0.085,0.496885,-34.3759,0.979074,1009.06
1537136,0.119464,9.78932,0.26136,-0.07,0.01,-0.085,0.964585,-34.4051,-0.219407,1009.11
1537142,0.119464,9.78932,0.26136,-0.14,-0.06,0.125,1.02305,-34.6682,2.07524,1009.11
1537148,0.119464,9.78932,0.26136,-0.21,0.01,-0.085,1.11074,-35.1067,0.701377,1009.11
1537154,0.124243,9.78932,0.26136,-0.14,0.01,0.055,0.584579,-35.2821,1.21292,1009.1
1537160,0.124243,9.78932,0.26136,-0.14,-0.06,-0.085,1.11074,-34.9897,0.715992,1009.1
1537166,0.124243,9.78932,0.26136,-0.14,-0.06,-0.085,1.37382,-34.9313,0.65753,1009.09
1537172,0.124243,9.78932,0.26136,-0.07,0.08,-0.085,1.46151,-35.4574,1.24215,1009.09
1537178,0.124243,9.78932,0.26136,-0.07,0.01,-0.085,1.28613,-34.6974,0.540606,1009.12
1537184,0.124243,9.78932,0.26136,-0.07,-0.06,-0.015,0.935353,-34.5513,0.0582895,1009.12
1537190,0.124243,9.78932,0.26611,0,0.01,-0.015,1.40305,-34.9313,-0.146328,1009.11
1537196,0.124243,9.79408,0.26611,0,0.08,-0.085,2.48461,-35.4282,0.65753,1009.11
1537202,0.124243,9.79408,0.26611,0,0.01,-0.155,1.19843,-35.7498,1.19831,1009.11
1537208,0.124243,9.79408,0.26611,0,0.01,-0.155,1.31536,-34.9313,0.52599,1009.09
1537214,0.124243,9.79408,0.26611,0,0.01,-0.015,0.350729,-34.8436,0.496758,1009.09
1537220,0.124243,9.79408,0.26611,-0.07,0.01,0.055,1.05228,-34.8728,0.686761,1009.09
1537226,0.124243,9.78932,0.26611,-0.28,0.01,-0.015,1.19843,-35.1067,1.03754,1009.09
1537232,0.124243,9.78932,0.26611,-0.21,0.01,-0.155,0.409192,-34.7559,0.876764,1009.11
1537238,0.124243,9.78932,0.26611,-0.21,-0.06,-0.015,0.204574,-35.6036,-0.920956,1009.11
1537244,0.124243,9.78932,0.26611,-0.14,-0.27,-0.155,0.84766,-35.1944,-0.263253,1009.11
1537250,0.124243,9.79408,0.26611,-0.35,0.08,-0.085,0.146111,-34.9605,-0.0294037,1009.11
1537256,0.124243,9.79408,0.26611,-0.14,0.08,-0.085,1.08151,-35.399,1.05215,1009.09
1537262,0.124243,9.79408,0.26611,-0.21,0.01,-0.015,0.730735,-35.2528,1.16908,1009.09
1537268,0.124243,9.78932,0.26611,-0.14,-0.06,-0.085,0.730735,-34.5513,-0.0294037,1009.09
1537274,0.124243,9.78932,0.26611,-0.14,0.08,-0.015,0.964585,-35.2528,-0.234022,1009.1
1537280,0.124243,9.78932,0.26611,-0.21,0.15,-0.015,1.46151,-34.7559,-0.219407,1009.1
1537286,0.124243,9.78932,0.26611,-0.21,-0.06,0.055,1.49075,-35.399,-0.160944,1009.08
1537292,0.124243,9.78932,0.26611,-0.14,0.01,-0.085,0.292267,-35.0482,0.379833,1009.08
1537298,0.124243,9.78932,0.26611,-0.14,0.01,-0.015,1.37382,-35.0482,0.65753,1009.11
1537304,0.124243,9.78932,0.26611,-0.14,0.01,-0.015,1.05228,-35.8375,0.0875216,1009.11
1537310,0.129022,9.78932,0.26611,-0.14,0.01,-0.085,1.34459,-34.9897,-0.380178,1009.12
1537316,0.124243,9.78932,0.26611,-0.07,-0.13,-0.085,0.409192,-35.3698,0.584452,1009.12
1537322,0.124243,9.78932,0.26611,-0.14,0.08,-0.015,0.37996,-34.7267,1.05215,1009.12
1537328,0.124243,9.78932,0.26611,-0.14,0.01,-0.015,0.175342,-35.6036,0.204447,1009.1
1537334,0.124243,9.78455,0.26611,-0.07,-0.13,-0.015,1.1692,-34.9313,0.613683,1009.1
1537340,0.124243,9.78932,0.26611,-0.14,0.01,-0.015,0.496885,-34.9313,0.233677,1009.08
1537346,0.124243,9.78932,0.26611,-0.07,0.08,-0.085,-0.146201,-35.6036,-1.44712,1009.08
1537352,0.124243,9.78455,0.26611,-0.21,0.15,0.055,1.34459,-35.2236,0.759839,1009.1
1537358,0.124243,9.78455,0.26611,-0.21,0.08,-0.015,1.40305,-35.3113,0.306756,1009.1
1537364,0.124243,9.78455,0.26611,-0.14,0.08,0.055,0.906121,-34.8728,0.540606,1009.09
1537370,0.124243,9.78455,0.26611,-0.21,0.01,0.055,0.467653,-35.3698,0.730608,1009.09
1537376,0.124243,9.78455,0.26611,-0.07,0.01,-0.015,0.759967,-34.9021,0.102137,1009.09
1537382,0.124243,9.78455,0.26611,0,-0.06,0.055,1.1692,-34.9313,0.0144434,1009.12
1537388,0.124243,9.78455,0.26611,0.07,0.01,0.055,0.496885,-35.6913,0.964458,1009.12
1537394,0.124243,9.78455,0.26611,0,-0.06,-0.015,0.263035,-35.1359,0.715992,1009.12
1537400,0.124243,9.78455,0.26611,0.07,0.01,-0.085,0.204574,-35.019,0.686761,1009.12
1537406,0.124243,9.78455,0.26611,0.07,-0.13,-0.015,0.496885,-34.3174,0.394449,1009.11
1537412,0.124243,9.78455,0.26611,0.07,0.01,-0.015,1.13997,-35.5451,0.599068,1009.11
1537418,0.124243,9.78455,0.26611,-0.07,0.08,-0.085,0.964585,-35.7205,0.686761,1009.08
1537424,0.124243,9.78932,0.26611,0,0.01,-0.015,0.789197,-35.5744,0.920611,1009.08
1537430,0.124243,9.78932,0.26611,0,0.01,-0.015,1.08151,-35.1067,-0.862494,1009.08
1537436,0.124243,9.78932,0.26611,-0.07,0.01,-0.085,0.876891,-35.1944,1.15446,1009.08
1537442,0.124243,9.78932,0.26611,-0.07,-0.06,-0.015,0.789197,-34.9605,1.66601,1009.08
1537448,0.124243,9.78932,0.26611,0,-0.2,-0.015,1.37382,-35.399,-0.599412,1009.1
1537454,0.124243,9.78932,0.26611,0,-0.06,-0.085,1.13997,-34.9897,1.30062,1009.1
1537460,0.124243,9.78932,0.26611,-0.07,-0.06,-0.155,1.02305,-34.9313,1.286,1009.08
1537466,0.124243,9.78932,0.26611,-0.07,-0.06,-0.085,1.49075,-35.0774,1.82678,1009.08
1537472,0.124243,9.78932,0.26611,-0.07,-0.2,-0.085,1.1692,-35.1651,1.54908,1009.1
1537478,0.124243,9.78932,0.26611,-0.07,0.01,-0.015,1.43228,-35.8082,0.204447,1009.1
1537484,0.124243,9.78932,0.26611,-0.14,0.01,-0.015,1.13997,-34.4051,1.03754,1009.1
1537490,0.124243,9.78932,0.26611,-0.07,-0.06,-0.015,0.292267,-35.1944,0.891379,1009.1
1537496,0.124243,9.78932,0.26611,0.07,-0.06,-0.085,0.643042,-34.6974,1.476,1009.1
1537502,0.124243,9.78932,0.26611,0,0.01,-0.085,1.60767,-35.1067,1.096,1009.07
1537508,0.124243,9.78932,0.26611,-0.14,0.08,-0.085,1.78306,-35.0482,0.248293,1009.07
1537514,0.124243,9.78932,0.26611,0,-0.06,-0.015,1.84152,-35.2821,0.964458,1009.08
1537520,0.124243,9.78932,0.26611,0,0.01,-0.015,1.37382,-34.8144,1.44677,1009.08
1537526,0.124243,9.78932,0.26611,0,0.01,-0.015,0.935353,-35.5159,1.66601,1009.12
1537532,0.124243,9.78932,0.26611,0,0.01,-0.015,1.13997,-36.1298,0.613683,1009.12
1537538,0.124243,9.78932,0.26611,0,0.01,-0.015,1.34459,-35.6913,0.496758,1009.12
1537544,0.124243,9.78932,0.26611,-0.07,-0.06,-0.015,0.935353,-34.8728,0.759839,1009.12
1537550,0.124243,9.78932,0.26611,-0.07,-0.06,-0.015,1.87075,-35.6328,1.31523,1009.1
1537556,0.124243,9.78932,0.26611,0,-0.13,-0.085,1.2569,-35.399,1.0083,1009.1
1537562,0.124243,9.78932,0.26611,0.07,-0.13,-0.015,0.672272,-36.1298,0.672146,1009.1
1537568,0.124243,9.78932,0.26611,0.14,-0.06,0.055,1.05228,-35.2528,0.599068,1009.1
1537574,0.124243,9.78932,0.26611,0.14,-0.06,-0.015,0.496885,-34.8144,0.233677,1009.1
1537580,0.124243,9.78932,0.26611,0.14,-0.06,-0.015,1.60767,-35.4574,-0.497104,1009.11
1537586,0.124243,9.78932,0.26611,0.14,-0.13,-0.085,0.935353,-35.019,0.0144434,1009.11
1537592,0.124243,9.78932,0.26611,0.14,-0.06,0.125,0.818428,-34.9605,1.096,1009.13
1537598,0.119464,9.78932,0.26611,0.14,-0.13,-0.015,0.818428,-34.7851,0.891379,1009.13
1537604,0.119464,9.78932,0.26611,0.14,-0.06,-0.015,1.28613,-35.4282,-0.263253,1009.09
1537610,0.119464,9.78932,0.26611,0.07,-0.06,-0.085,0.818428,-34.9605,0.730608,1009.09
1537616,0.119464,9.78932,0.26611,0.14,-0.06,-0.085,0.876891,-35.4867,1.34446,1009.09
1537622,0.119464,9.78932,0.26611,0.07,-0.13,0.055,1.05228,-34.6097,0.277524,1009.1
1537628,0.119464,9.78932,0.26611,0.07,-0.06,-0.085,0.730735,-35.3405,0.42368,1009.1
1537634,0.119464,9.78932,0.26611,0.07,-0.06,-0.155,0.759967,-35.3405,0.803686,1009.12
1537640,0.119464,9.78932,0.26611,0.07,-0.13,-0.015,0.964585,-35.2821,0.335986,1009.12
1537646,0.119464,9.78932,0.26611,0,-0.06,-0.015,0.818428,-35.2236,0.394449,1009.13
1537652,0.119464,9.78932,0.26611,0,-0.2,-0.295,1.51998,-34.9897,0.905995,1009.13
1537658,0.119464,9.78932,0.26611,0,-0.13,-0.155,0.643042,-36.2759,-0.3071,1009.08
1537664,0.119464,9.78932,0.26611,0,-0.06,-0.085,0.496885,-35.4867,0.496758,1009.08
1537670,0.119464,9.78932,0.26611,-0.07,-0.06,-0.085,0.789197,-35.1359,1.60754,1009.08
1537676,0.119464,9.79408,0.26611,-0.07,-0.06,-0.085,0.672272,-35.3405,0.891379,1009.14
1537682,0.119464,9.79408,0.26611,0.07,-0.06,-0.155,0.409192,-35.9836,-0.701721,1009.14
1537688,0.124243,9.78932,0.26611,0.07,-0.13,-0.225,0.876891,-35.2236,0.467527,1009.1
1537694,0.124243,9.78932,0.26611,0,-0.06,-0.085,1.28613,-35.6328,-0.219407,1009.1
1537700,0.124243,9.78932,0.26136,-0.07,0.08,-0.015,0.730735,-35.1359,0.832917,1009.08
1537706,0.124243,9.78932,0.26136,-0.14,0.08,-0.085,0.409192,-34.7267,0.78907,1009.08
1537712,0.124243,9.78932,0.26136,-0.07,0.08,-0.155,0.584579,-35.2821,0.0582895,1009.11
1537718,0.124243,9.78932,0.26136,0,-0.06,-0.225,0.906121,-35.1944,1.85601,1009.11
1537724,0.124243,9.78932,0.26136,-0.07,-0.06,-0.085,0.789197,-34.7559,1.3737,1009.09
1537730,0.124243,9.78932,0.26136,-0.14,0.08,-0.085,0.84766,-34.8436,0.52599,1009.09
1537736,0.124243,9.78932,0.26136,-0.14,-0.06,-0.015,0.906121,-35.4574,1.53447,1009.09
1537742,0.124243,9.78932,0.26136,-0.14,-0.06,-0.155,0.467653,-35.019,1.46139,1009.08
1537748,0.124243,9.78932,0.26136,-0.21,0.01,-0.085,0.61381,-35.1944,0.759839,1009.08
1537754,0.124243,9.79408,0.26136,-0.07,0.15,0.125,0.526116,-35.4282,0.350602,1009.09
1537760,0.124243,9.79408,0.26136,0,-0.06,0.055,-0.0292759,-35.2528,0.993689,1009.09
1537766,0.124243,9.79408,0.26136,0,-0.06,0.055,0.0584173,-34.8436,-0.204791,1009.1
1537772,0.124243,9.79408,0.26611,-0.07,-0.06,-0.085,0.876891,-35.1651,0.482143,1009.1
1537778,0.124243,9.78932,0.26136,0,0.15,-0.085,0.526116,-35.6913,1.05215,1009.12
1537784,0.124243,9.78932,0.26136,0,0.08,-0.085,0.84766,-34.9313,0.759839,1009.12
1537790,0.124243,9.78932,0.26136,0.07,-0.13,-0.085,0.61381,-35.0482,-0.292485,1009.12
1537796,0.124243,9.78932,0.26136,-0.07,-0.06,-0.085,0.584579,-34.4636,0.204447,1009.09
1537802,0.124243,9.78932,0.26136,-0.07,-0.06,-0.015,0.555346,-35.1067,0.832917,1009.09
1537808,0.124243,9.78932,0.26136,0.07,-0.06,-0.085,0.993815,-34.639,1.49062,1009.1
1537814,0.124243,9.78932,0.26136,0.07,0.01,-0.085,0.818428,-34.8436,0.920611,1009.1
1537820,0.124243,9.78932,0.26611,0.07,0.01,-0.015,1.13997,-35.3405,0.204447,1009.09
1537826,0.124243,9.78932,0.26611,0.07,-0.06,-0.015,0.584579,-35.3113,1.12523,1009.09
1537832,0.124243,9.78932,0.26611,0,0.01,-0.085,0.672272,-35.1359,0.452911,1009.12
1537838,0.124243,9.78932,0.26611,0,0.01,-0.085,0.204574,-34.3467,0.613683,1009.12
1537844,0.119464,9.78932,0.26611,-0.07,-0.06,-0.085,0.233804,-35.5159,0.701377,1009.12
1537850,0.124243,9.78932,0.26611,0,0.01,-0.015,-0.0292759,-35.7498,0.759839,1009.09
1537856,0.124243,9.78932,0.26611,-0.07,0.01,-0.295,-0.292357,-35.4282,0.613683,1009.09
1537862,0.124243,9.78932,0.26611,0,-0.06,-0.085,0.292267,-35.3113,1.02292,1009.1
1537868,0.119464,9.78932,0.26611,0.07,-0.06,-0.015,0.467653,-34.9605,3.01064,1009.1
1537874,0.119464,9.78932,0.26611,0,0.01,0.055,0.175342,-34.7267,0.876764,1009.08
1537880,0.119464,9.78932,0.26611,0,0.01,0.055,-4.57764e-05,-35.3405,1.84139,1009.08
1537886,0.119464,9.78932,0.26611,0,0.01,-0.015,0.672272,-35.6036,2.01678,1009.08
1537892,0.119464,9.78932,0.26611,-0.07,-0.06,-0.015,0.467653,-35.8082,1.476,1009.08
1537898,0.119464,9.78932,0.26136,-0.07,-0.06,-0.015,0.789197,-35.2236,0.0582895,1009.09
1537904,0.119464,9.78932,0.26136,-0.14,-0.06,-0.085,0.643042,-35.8375,-0.453257,1009.09
1537910,0.119464,9.78932,0.26611,-0.14,0.01,-0.155,-0.175433,-35.0774,0.350602,1009.09
1537916,0.119464,9.78932,0.26611,-0.14,-0.06,-0.085,0.584579,-35.6036,0.540606,1009.1
1537922,0.119464,9.78932,0.26611,-0.07,0.01,0.055,0.37996,-36.1882,1.62216,1009.1
1537928,0.119464,9.78932,0.26611,0,0.01,-0.085,0.672272,-35.9251,0.628299,1009.12
1537934,0.119464,9.78932,0.26611,0,0.01,-0.085,0.0584173,-35.7205,0.52599,1009.12
1537940,0.119464,9.78932,0.26611,-0.07,-0.06,-0.085,1.05228,-35.4574,1.31523,1009.12
1537946,0.119464,9.78932,0.26611,-0.07,-0.06,-0.015,-0.0585079,-35.3698,0.613683,1009.12
1537952,0.124243,9.78932,0.26611,-0.07,-0.06,0.055,-4.57764e-05,-35.019,1.69524,1009.1
1537958,0.119464,9.78932,0.26611,0,-0.06,0.055,0.84766,-35.1651,1.476,1009.1
1537964,0.124243,9.78932,0.26611,0,-0.06,0.055,0.61381,-34.9313,0.891379,1009.1
1537970,0.124243,9.78932,0.26611,0.14,0.01,0.055,0.643042,-35.5744,0.584452,1009.1
1537976,0.124243,9.78932,0.26611,0.14,0.01,0.125,0.876891,-35.0774,0.803686,1009.1
1537982,0.119464,9.78932,0.26611,0.14,-0.13,0.055,0.993815,-35.3405,0.686761,1009.12
1537988,0.119464,9.78932,0.26611,0.14,-0.06,-0.015,0.906121,-35.6328,1.97293,1009.12
1537994,0.119464,9.78932,0.26611,0.14,0.08,0.055,0.906121,-35.3698,1.44677,1009.11
1538000,0.124243,9.78932,0.26611,0.21,0.01,0.055,1.08151,-35.0482,1.34446,1009.11
1538006,0.119464,9.78932,0.26611,0.07,-0.06,0.055,0.584579,-34.9897,1.06677,1009.11
1538012,0.119464,9.78932,0.26611,0.14,0.01,0.055,0.818428,-35.4867,0.131368,1009.11
1538018,0.119464,9.78932,0.26611,0.14,0.01,0.055,1.37382,-35.4574,0.248293,1009.12
1538024,0.119464,9.78932,0.26611,0.14,-0.06,0.125,1.1692,-35.4282,-0.131713,1009.12
1538030,0.119464,9.78932,0.26611,0.07,0.01,0.125,1.11074,-35.399,0.993689,1009.12
1538036,0.119464,9.78932,0.26611,0.07,-0.06,0.055,0.876891,-36.0713,0.262909,1009.11
1538042,0.119464,9.78932,0.26611,0,-0.06,-0.015,0.467653,-35.5451,2.06063,1009.11
1538048,0.119464,9.78932,0.26611,0,0.01,-0.015,0.84766,-35.4867,-0.0878658,1009.12
1538054,0.119464,9.78932,0.26611,0,0.01,0.055,0.789197,-36.0128,0.979074,1009.12
1538060,0.119464,9.78932,0.26611,0,-0.06,-0.015,1.02305,-34.9605,0.409064,1009.09
1538066,0.124243,9.78932,0.26611,-0.07,-0.06,-0.015,0.818428,-36.0713,1.44677,1009.09
1538072,0.124243,9.78932,0.26611,-0.14,0.01,-0.015,0.701504,-36.1298,1.9437,1009.09
1538078,0.119464,9.78932,0.27086,0,0.08,0.055,1.60767,-35.3698,2.23602,1009.09
1538084,0.119464,9.78455,0.27086,-0.07,0.01,0.055,1.98768,-35.7498,0.759839,1009.09
1538090,0.119464,9.78455,0.27086,0,0.08,-0.015,0.818428,-36.1298,1.89986,1009.11
1538096,0.119464,9.78932,0.27086,0,0.08,-0.085,1.60767,-35.6036,1.3737,1009.11
1538102,0.124243,9.78932,0.27086,0.07,-0.06,-0.085,1.22766,-35.2236,0.715992,1009.11
1538108,0.124243,9.78932,0.27086,0.07,0.01,0.055,0.759967,-35.3405,1.32985,1009.11
1538114,0.124243,9.78932,0.27086,0.07,0.01,-0.015,1.66613,-35.7205,1.78293,1009.1
1538120,0.124243,9.78932,0.27086,0.07,0.01,0.055,1.08151,-36.1298,1.68062,1009.1
1538126,0.124243,9.78932,0.27086,0.07,0.01,0.125,1.19843,-35.5451,1.02292,1009.09
1538132,0.124243,9.78932,0.27086,-0.07,0.01,0.125,0.759967,-35.3405,1.91447,1009.09
1538138,0.124243,9.78932,0.27086,0,-0.06,0.055,1.28613,-35.2236,1.81216,1009.09
1538144,0.124243,9.78932,0.27086,-0.07,0.08,-0.015,0.84766,-35.6621,0.876764,1009.1
1538150,0.124243,9.78932,0.27086,0.07,0.01,-0.085,0.730735,-35.3405,0.540606,1009.1
1538156,0.124243,9.78932,0.27086,0.07,-0.06,0.055,1.19843,-35.6036,0.920611,1009.09
1538162,0.124243,9.78932,0.27086,0.07,0.01,0.055,0.935353,-35.6036,1.12523,1009.09
1538168,0.124243,9.78932,0.27086,-0.07,0.01,0.125,0.467653,-36.1005,1.18369,1009.1
1538174,0.124243,9.78932,0.27086,0,-0.06,0.055,0.818428,-35.019,1.0083,1009.1
1538180,0.124243,9.78932,0.27086,0.14,0.01,0.055,1.49075,-35.6328,1.53447,1009.11
1538186,0.124243,9.78932,0.27086,0.07,0.08,0.125,1.28613,-35.4867,1.38831,1009.11
1538192,0.124243,9.78932,0.27086,0,-0.13,0.055,1.49075,-35.5451,1.34446,1009.09
1538198,0.124243,9.78932,0.27086,0,-0.06,0.055,0.993815,-35.4574,0.672146,1009.09
1538204,0.124243,9.78932,0.26611,0.07,-0.06,-0.015,0.61381,-35.019,0.65753,1009.09
1538210,0.124243,9.78932,0.27086,0.14,0.01,0.055,0.701504,-34.7851,0.0582895,1009.13
1538216,0.124243,9.78932,0.27086,0.14,-0.13,0.055,0.496885,-36.0713,0.233677,1009.13
1538222,0.124243,9.78932,0.27086,0.07,-0.06,0.055,0.61381,-36.1882,-0.497104,1009.11
1538228,0.124243,9.78932,0.27086,0,-0.06,0.055,0.906121,-36.0713,0.350602,1009.11
1538234,0.124243,9.78932,0.27086,-0.07,-0.06,0.125,-0.409283,-35.8959,0.189831,1009.12
1538240,0.124243,9.78932,0.27086,0,0.01,0.055,0.643042,-35.7498,0.365218,1009.12
1538246,0.124243,9.78932,0.27086,0.07,0.01,-0.015,0.438422,-35.1651,1.87063,1009.09
1538252,0.124243,9.78932,0.27086,0.14,0.01,-0.015,-0.263126,-36.1882,0.745224,1009.09
1538258,0.124243,9.78455,0.27086,0,-0.13,0.055,0.496885,-35.7498,1.19831,1009.09
1538264,0.124243,9.78455,0.27086,0.14,-0.34,-0.225,-0.0292759,-36.1298,2.39679,1009.11
1538270,0.124243,9.78455,0.27086,0,-0.13,-0.155,-0.0877399,-35.3113,2.70372,1009.11
1538276,0.124243,9.78455,0.27086,0.07,-0.06,0.055,0.964585,-35.8959,1.03754,1009.08
1538282,0.124243,9.78932,0.27086,0.07,0.15,-0.015,0.0876484,-35.8959,1.19831,1009.08
1538288,0.124243,9.78932,0.27086,0.07,-0.06,-0.015,0.935353,-35.1359,1.54908,1009.12
1538294,0.124243,9.78932,0.27086,0,-0.06,-0.015,0.701504,-36.159,1.25677,1009.12
1538300,0.124243,9.78932,0.27086,0,0.01,-0.015,0.0291853,-35.6328,0.599068,1009.11
1538306,0.124243,9.78932,0.27086,0,0.08,-0.015,0.818428,-35.779,-0.643259,1009.11
1538312,0.124243,9.78932,0.27086,0,0.01,0.055,1.37382,-35.2236,0.847533,1009.11
1538318,0.124243,9.78932,0.27086,0,-0.06,-0.015,1.40305,-35.4282,0.511374,1009.11
1538324,0.124243,9.78932,0.27086,0,0.01,0.055,0.61381,-35.779,1.27139,1009.11
1538330,0.124243,9.79408,0.27086,0,0.01,-0.015,1.34459,-36.1005,1.096,1009.09
1538336,0.124243,9.79408,0.27086,0.07,0.08,-0.015,1.08151,-35.4867,0.321371,1009.09
1538342,0.124243,9.79408,0.27086,0,0.01,-0.015,1.08151,-35.2821,0.832917,1009.09
1538348,0.124243,9.79408,0.27086,-0.07,0.01,0.055,0.993815,-35.9836,0.496758,1009.09
1538354,0.124243,9.78932,0.27086,-0.07,-0.06,-0.085,1.1692,-35.9544,0.102137,1009.09
1538360,0.124243,9.78932,0.27086,0,-0.06,-0.015,1.40305,-35.4574,1.22754,1009.09
1538366,0.124243,9.78932,0.27086,0,0.01,0.055,0.409192,-35.9544,1.12523,1009.08
1538372,0.124243,9.78932,0.27086,-0.07,0.15,-0.015,1.08151,-34.3467,1.18369,1009.08
1538378,0.124243,9.78932,0.27086,-0.07,0.01,-0.015,1.05228,-36.3052,0.993689,1009.08
1538384,0.124243,9.78932,0.27086,-0.07,0.01,-0.015,0.876891,-35.399,1.25677,1009.05
1538390,0.124243,9.78932,0.27086,0,0.01,0.055,-0.350821,-35.1651,1.16908,1009.05
1538396,0.124243,9.78932,0.27086,0,0.08,0.055,0.526116,-35.4867,-0.467872,1009.09
1538402,0.129022,9.78932,0.27086,-0.07,0.15,-0.015,1.2569,-35.7498,1.21292,1009.09
1538408,0.129022,9.78932,0.27086,0,0.01,0.055,1.05228,-35.6621,1.476,1009.11
1538414,0.124243,9.78932,0.27086,0,0.01,0.125,0.701504,-35.5744,1.50523,1009.11
1538420,0.124243,9.78932,0.27086,0,-0.06,0.055,1.40305,-35.5744,1.11061,1009.12
1538426,0.129022,9.78932,0.27086,0.07,0.15,0.055,0.818428,-35.9544,1.65139,1009.12
1538432,0.129022,9.78932,0.27086,0.07,0.08,0.125,-0.0585079,-36.3344,0.379833,1009.12
1538438,0.129022,9.78932,0.27086,0.14,-0.06,0.055,0.584579,-35.4574,0.599068,1009.13
1538444,0.129022,9.78932,0.27561,0.42,0.36,0.335,0.730735,-35.6913,0.555221,1009.13
1538450,0.129022,9.78932,0.27561,0.63,0.43,0.475,1.08151,-35.8375,0.452911,1009.13
1538456,0.129022,9.78932,0.27561,0.42,0.36,0.545,1.34459,-36.1882,0.0582895,1009.13
1538462,0.129022,9.78932,0.27561,0.07,0.43,0.405,1.78306,-36.3344,0.555221,1009.07
1538468,0.129022,9.78455,0.27561,0.42,0.36,0.125,-0.380052,-36.3928,0.52599,1009.07
1538474,0.129022,9.78455,0.27561,0.42,0.15,0.265,0.61381,-35.8667,0.584452,1009.11
1538480,0.129022,9.78455,0.27561,0.28,0.29,0.335,0.964585,-35.8959,0.467527,1009.11
1538486,0.129022,9.78455,0.27561,0.21,0.22,0.265,1.22766,-35.6036,1.35908,1009.11
1538492,0.129022,9.78455,0.27561,0.42,0.22,0.125,0.759967,-35.4867,0.540606,1009.11
1538498,0.129022,9.78455,0.27561,0.56,0.15,0.265,1.11074,-36.3636,0.219062,1009.11
1538504,0.129022,9.78455,0.27561,0.63,0.08,0.265,1.02305,-35.1067,1.18369,1009.06
1538510,0.129022,9.78455,0.27561,0.56,0.01,0.195,0.292267,-35.8667,-0.219407,1009.06
1538516,0.129022,9.78455,0.27561,0.42,0.15,0.125,0.701504,-35.2236,1.096,1009.09
1538522,0.129022,9.78455,0.27561,0.49,0.08,0.055,0.643042,-35.6036,-0.131713,1009.09
1538528,0.129022,9.78455,0.27086,0.42,-0.06,0.055,0.467653,-35.4867,0.686761,1009.09
1538534,0.129022,9.78455,0.27561,0.77,0.08,0.125,0.643042,-36.0128,0.452911,1009.09
1538540,0.124243,9.78455,0.27561,1.05,0.01,0.195,1.49075,-35.4574,-0.131713,1009.1
1538546,0.124243,9.78455,0.27086,0.77,-0.27,0.195,1.22766,-36.0128,0.599068,1009.1
1538552,0.129022,9.78455,0.27086,0.49,-0.13,0.125,0.321497,-35.6621,-0.219407,1009.1
1538558,0.124243,9.78455,0.27086,0.07,0.29,0.195,1.1692,-35.5451,-0.0440197,1009.09
1538564,0.124243,9.78455,0.27086,0.07,-0.06,0.125,1.2569,-35.6036,0.219062,1009.09
1538570,0.129022,9.78455,0.27086,0.28,0.01,0.125,-0.146201,-36.3636,-0.979418,1009.1
1538576,0.129022,9.78455,0.27086,0.14,0.43,0.265,0.84766,-36.1882,0.979074,1009.1
1538582,0.129022,9.78455,0.27086,-0.07,0.08,0.055,0.730735,-36.3928,0.511374,1009.11
1538588,0.129022,9.78455,0.27086,0.28,0.15,0.055,1.1692,-35.3113,1.0083,1009.11
1538594,0.129022,9.78455,0.27086,0.49,0.08,0.125,0.467653,-35.2821,0.29214,1009.07
1538600,0.129022,9.78455,0.27086,0.49,-0.13,0.195,0.555346,-35.8667,0.131368,1009.07
1538606,0.129022,9.78455,0.27086,0.56,-0.06,0.125,0.175342,-35.0482,0.496758,1009.11
1538612,0.129022,9.78455,0.27086,0.49,0.08,0.125,0.526116,-35.3113,0.686761,1009.11
1538618,0.129022,9.78455,0.27086,0.56,0.01,0.125,0.964585,-35.8667,-0.131713,1009.11
1538624,0.129022,9.78455,0.27086,0.56,-0.06,0.195,1.19843,-35.2236,0.964458,1009.1
1538630,0.129022,9.78932,0.26611,0.35,0.08,0.055,0.701504,-34.6974,0.979074,1009.1
1538636,0.129022,9.78932,0.26611,0.21,-0.06,0.055,0.584579,-35.5744,1.286,1009.1
1538642,0.129022,9.78932,0.26611,0.14,0.01,0.055,1.37382,-35.9251,1.21292,1009.1
1538648,0.129022,9.78932,0.26611,0.14,0.15,0.125,0.526116,-35.3698,0.233677,1009.09
1538654,0.129022,9.78932,0.27086,0.35,0.08,0.195,0.935353,-35.5744,0.599068,1009.09
1538660,0.129022,9.78932,0.27086,0.49,0.08,0.195,0.789197,-35.3405,1.02292,1009.09
1538666,0.129022,9.78932,0.27086,0.56,0.08,0.125,1.19843,-35.4867,1.0083,1009.09
1538672,0.129022,9.78932,0.26611,0.49,0.01,0.125,0.906121,-36.2467,-0.54095,1009.09
1538678,0.129022,9.78932,0.26611,0.42,0.01,0.125,1.1692,-35.6913,1.21292,1009.09
1538684,0.129022,9.78932,0.26611,0.35,-0.06,0.055,0.964585,-35.6621,0.78907,1009.09
1538690,0.129022,9.78932,0.26611,0.21,-0.06,0.055,1.13997,-35.6328,0.131368,1009.08
1538696,0.129022,9.78932,0.26611,0.21,0.01,0.125,1.28613,-35.5744,0.65753,1009.08
1538702,0.129022,9.78932,0.26611,0.14,-0.06,0.055,1.37382,-35.6036,0.262909,1009.07
1538708,0.129022,9.78932,0.26611,0.21,-0.06,0.055,1.31536,-34.9313,0.672146,1009.07
1538714,0.129022,9.78932,0.26611,0.28,0.01,0.125,0.876891,-35.6328,1.84139,1009.09
1538720,0.129022,9.78932,0.26611,0.14,0.08,-0.015,1.40305,-35.6621,-0.17556,1009.09
1538726,0.129022,9.78932,0.26611,0.14,0.01,-0.015,1.57844,-35.6913,0.219062,1009.09
1538732,0.129022,9.78932,0.26611,0.07,-0.06,0.055,0.84766,-35.3698,0.862148,1009.12
1538738,0.129022,9.78932,0.26611,0.07,-0.06,0.055,1.28613,-34.9897,-0.204791,1009.12
1538744,0.129022,9.78932,0.26611,0.07,0.08,0.055,0.789197,-35.5744,1.66601,1009.09
1538750,0.129022,9.78932,0.26611,0.21,0.08,-0.015,0.935353,-35.6036,0.189831,1009.09
1538756,0.129022,9.78455,0.26611,0.28,0.08,0.125,1.46151,-35.1651,0.832917,1009.11
1538762,0.129022,9.78455,0.26136,0.28,0.01,0.125,1.2569,-35.0774,0.42368,1009.11
1538768,0.129022,9.78455,0.26136,0.35,0.01,0.125,1.05228,-35.399,1.06677,1009.09
1538774,0.129022,9.78455,0.26136,0.35,0.08,0.125,-0.116971,-35.5744,-0.964803,1009.09
1538780,0.129022,9.78455,0.26611,0.42,0.22,0.265,1.6369,-35.1067,0.350602,1009.07
1538786,0.129022,9.78455,0.26611,0.49,0.01,0.195,0.818428,-35.3113,1.76832,1009.07
1538792,0.129022,9.78455,0.26136,0.56,0.01,0.125,0.584579,-35.3698,0.306756,1009.07
1538798,0.129022,9.78455,0.26136,0.42,-0.2,0.055,1.08151,-35.3698,2.06063,1009.09
1538804,0.129022,9.78455,0.26136,0.35,0.01,-0.015,0.350729,-34.9605,-0.146328,1009.09
1538810,0.129022,9.78455,0.26136,0.35,-0.06,0.055,0.233804,-34.6682,0.876764,1009.1
1538816,0.129022,9.78455,0.26136,0.42,0.01,-0.015,0.993815,-35.3405,-0.204791,1009.1
1538822,0.129022,9.78455,0.26136,0.42,-0.06,-0.015,0.935353,-35.8082,0.131368,1009.1
1538828,0.129022,9.78932,0.26136,0.42,-0.06,-0.015,1.28613,-35.3698,1.35908,1009.1
1538834,0.129022,9.78932,0.26136,0.35,-0.06,0.125,0.789197,-35.0774,1.43216,1009.06
1538840,0.129022,9.78932,0.26136,0.42,-0.06,-0.015,1.22766,-35.6036,1.21292,1009.06
1538846,0.129022,9.78932,0.26136,0.35,-0.06,-0.015,0.350729,-34.9897,0.862148,1009.06
1538852,0.129022,9.78932,0.26136,0.35,0.01,0.055,0.321497,-34.4636,0.949842,1009.08
1538858,0.129022,9.78932,0.26136,0.35,-0.06,0.055,-0.175433,-35.3113,0.905995,1009.08
1538864,0.1338,9.78932,0.25661,0.21,-0.06,-0.015,0.438422,-35.6328,1.16908,1009.09
1538870,0.129022,9.78932,0.25661,0.21,0.08,-0.015,1.43228,-34.7559,0.160599,1009.09
1538876,0.129022,9.78455,0.25661,0.28,-0.06,-0.015,0.321497,-35.0774,0.394449,1009.06
1538882,0.1338,9.78932,0.25661,0.21,-0.13,0.055,0.584579,-34.9313,1.79755,1009.06
1538888,0.1338,9.78932,0.25661,0.28,-0.06,-0.085,0.584579,-35.3698,1.05215,1009.1
1538894,0.1338,9.78932,0.25661,0.21,-0.13,-0.015,0.61381,-35.1067,2.17755,1009.1
1538900,0.1338,9.78932,0.25661,0.28,-0.13,-0.015,1.02305,-34.7559,0.935227,1009.1
1538906,0.1338,9.78932,0.25661,0.21,-0.06,-0.015,-4.57764e-05,-35.8375,-0.117098,1009.1
1538912,0.1338,9.78932,0.25661,0.14,-0.13,-0.085,0.61381,-35.5159,0.862148,1009.1
1538918,0.1338,9.78932,0.25661,0.14,-0.06,-0.155,0.37996,-34.8436,1.16908,1009.08
1538924,0.1338,9.78932,0.25661,0.14,0.01,-0.155,0.146111,-35.019,0.540606,1009.08
1538930,0.1338,9.78932,0.25661,0.07,-0.06,-0.085,0.584579,-35.4867,1.13984,1009.11
1538936,0.1338,9.78932,0.25186,0,-0.13,-0.085,0.935353,-35.399,0.511374,1009.11
1538942,0.1338,9.78932,0.25186,-0.07,-0.06,-0.015,0.146111,-34.4636,1.9437,1009.07
1538948,0.1338,9.78932,0.25186,-0.07,0.01,-0.085,0.292267,-34.8436,0.452911,1009.07
1538954,0.1338,9.78932,0.25186,0,-0.13,-0.085,0.409192,-34.7267,0.78907,1009.08
1538960,0.1338,9.78932,0.25186,0.14,-0.2,-0.015,0.643042,-35.2528,0.189831,1009.08
1538966,0.1338,9.78932,0.25186,0.07,-0.06,-0.085,0.409192,-35.2236,0.686761,1009.08
1538972,0.1338,9.78932,0.25186,0,0.01,-0.015,1.37382,-35.6621,1.16908,1009.09
1538978,0.1338,9.78932,0.25186,0.07,0.01,-0.085,1.31536,-35.399,0.277524,1009.09
1538984,0.1338,9.78932,0.25186,0.14,0.15,0.265,1.11074,-35.0482,1.44677,1009.08
1538990,0.1338,9.78932,0.25186,0.21,0.01,0.125,0.818428,-35.4867,2.35294,1009.08
1538996,0.1338,9.78932,0.25186,0.35,0.15,0.055,0.37996,-34.9021,1.60754,1009.09
1539002,0.129022,9.78932,0.25186,0.35,-0.06,0.195,0.701504,-34.9605,-0.584797,1009.09
1539008,0.129022,9.78455,0.25186,0.42,-0.2,0.125,0.789197,-35.2821,0.715992,1009.1
1539014,0.1338,9.78455,0.25186,0.35,0.15,0.055,0.701504,-35.2236,1.65139,1009.1
1539020,0.1338,9.78455,0.25186,0.28,-0.27,0.055,0.409192,-35.3113,0.438295,1009.1
1539026,0.1338,9.78455,0.25186,0.28,0.15,-0.015,1.08151,-35.6328,0.803686,1009.06
1539032,0.1338,9.78455,0.247111,0.21,-0.13,0.125,0.263035,-35.1359,0.175215,1009.06
1539038,0.1338,9.78455,0.247111,0.21,-0.13,0.125,0.584579,-35.8667,1.03754,1009.09
1539044,0.1338,9.78455,0.247111,0.28,-0.06,0.055,0.993815,-35.5744,0.993689,1009.09
1539050,0.1338,9.78932,0.247111,0.21,0.01,0.125,0.906121,-35.1067,2.35294,1009.12
1539056,0.1338,9.78932,0.247111,0.21,0.01,0.125,0.350729,-35.6328,1.08138,1009.12
1539062,0.1338,9.78932,0.247111,0.14,0.08,0.055,1.19843,-35.2528,0.555221,1009.08
1539068,0.1338,9.78932,0.247111,0.14,-0.06,-0.015,0.37996,-35.5159,1.34446,1009.08
1539074,0.1338,9.78932,0.247111,0,-0.06,-0.015,1.43228,-34.8144,1.53447,1009.09
1539080,0.1338,9.78932,0.247111,0.07,0.01,-0.015,1.28613,-35.5744,0.409064,1009.09
1539086,0.1338,9.78932,0.247111,0.14,-0.06,-0.085,1.11074,-34.6682,1.32985,1009.09
1539092,0.1338,9.78932,0.247111,0.21,0.08,0.055,1.28613,-35.0482,1.16908,1009.09
1539098,0.1338,9.78932,0.247111,0.21,0.01,0.055,1.1692,-35.1944,-0.000172615,1009.09
1539104,0.1338,9.78932,0.247111,0.21,0.01,-0.085,0.84766,-35.1651,1.66601,1009.1
1539110,0.1338,9.78932,0.247111,0.21,0.01,0.055,0.789197,-35.019,2.2214,1009.1
1539116,0.1338,9.78932,0.247111,0.21,0.08,0.055,1.02305,-35.1067,1.53447,1009.1
1539122,0.1338,9.78455,0.247111,0.21,-0.13,0.055,0.906121,-34.7851,0.102137,1009.1
1539128,0.1338,9.78455,0.247111,0.14,-0.06,-0.015,0.61381,-35.3405,1.05215,1009.13
1539134,0.1338,9.78455,0.247111,0,-0.13,-0.085,0.993815,-34.9605,0.862148,1009.13
1539140,0.1338,9.78455,0.247111,0,-0.06,-0.155,1.60767,-35.6036,1.40293,1009.13
1539146,0.1338,9.78455,0.247111,0.07,0.01,-0.085,0.467653,-35.399,1.57831,1009.09
1539152,0.1338,9.78455,0.247111,0.14,-0.06,-0.155,0.993815,-35.5744,-0.17556,1009.09
1539158,0.1338,9.78455,0.247111,0.35,-0.06,0.055,1.22766,-35.6621,1.51985,1009.11
1539164,0.1338,9.78455,0.247111,0.28,-0.06,0.055,0.61381,-35.6036,1.31523,1009.11
1539170,0.1338,9.78455,0.247111,0.28,0.08,0.055,0.409192,-35.6328,1.76832,1009.13
1539176,0.1338,9.78455,0.247111,0.28,0.08,-0.015,1.11074,-35.1067,1.68062,1009.13
1539182,0.1338,9.78455,0.247111,0.14,-0.06,0.055,0.584579,-35.5744,1.15446,1009.13
1539188,0.1338,9.78455,0.247111,0.07,0.15,0.055,1.28613,-34.9605,1.11061,1009.13
1539194,0.1338,9.78455,0.25186,0.07,0.01,-0.015,0.759967,-35.1944,1.05215,1009.13
1539200,0.1338,9.78455,0.25186,0.07,-0.06,-0.085,0.37996,-35.5159,0.701377,1009.07
1539206,0.1338,9.78455,0.25186,0.14,-0.06,-0.085,1.31536,-34.522,0.511374,1009.07
1539212,0.1338,9.78455,0.25186,0.14,-0.06,-0.015,1.95845,-34.6974,1.27139,1009.07
1539218,0.1338,9.78455,0.25186,0.14,-0.13,-0.085,1.34459,-35.1067,1.82678,1009.07
1539224,0.1338,9.78455,0.247111,0.07,0.01,-0.085,0.701504,-35.1944,1.51985,1009.07
1539230,0.1338,9.78455,0.247111,0.21,0.01,-0.085,0.964585,-34.7267,1.69524,1009.07
1539236,0.1338,9.78455,0.247111,0.21,-0.13,0.055,1.22766,-35.9836,0.335986,1009.06
1539242,0.1338,9.78455,0.25186,0.21,-0.06,-0.015,1.31536,-35.4574,1.16908,1009.06
1539248,0.1338,9.78455,0.247111,0.28,-0.2,-0.155,1.28613,-35.1651,1.57831,1009.13
1539254,0.1338,9.78455,0.247111,0.35,-0.13,-0.085,1.05228,-35.4574,1.19831,1009.13
1539260,0.1338,9.78455,0.247111,0.35,-0.13,-0.085,0.84766,-35.019,1.38831,1009.13
1539266,0.1338,9.78455,0.247111,0.28,-0.2,-0.085,1.57844,-34.4928,0.613683,1009.13
1539272,0.1338,9.78932,0.247111,0.28,-0.2,-0.015,0.876891,-34.6682,1.13984,1009.13
1539278,0.1338,9.78932,0.247111,0.21,-0.2,-0.015,1.34459,-34.7559,0.862148,1009.15
1539284,0.1338,9.78932,0.247111,0.14,-0.06,-0.085,0.993815,-35.3113,1.27139,1009.15
1539290,0.1338,9.78932,0.247111,0.07,-0.06,-0.155,1.40305,-35.9836,0.233677,1009.11
1539296,0.138579,9.78932,0.247111,0.14,-0.2,-0.225,1.69536,-35.1651,0.993689,1009.11
1539302,0.138579,9.78932,0.247111,0.14,-0.13,-0.155,0.993815,-34.8728,1.22754,1009.07
1539308,0.138579,9.78932,0.247111,0.07,-0.06,-0.085,1.13997,-34.4344,0.979074,1009.07
1539314,0.138579,9.78932,0.247111,0.14,-0.13,-0.015,0.935353,-35.019,-0.000172615,1009.07
1539320,0.1338,9.78932,0.247111,0.21,-0.06,-0.155,0.759967,-35.6913,0.672146,1009.08
1539326,0.1338,9.78932,0.247111,0.14,-0.2,-0.225,1.84152,-35.3113,-0.131713,1009.08
1539332,0.1338,9.78932,0.247111,0.14,-0.06,-0.155,0.935353,-35.2236,1.286,1009.1
1539338,0.138579,9.78932,0.247111,0.14,-0.06,-0.085,1.05228,-34.6682,1.286,1009.1
1539344,0.1338,9.78932,0.247111,0,-0.2,-0.155,1.37382,-34.639,1.11061,1009.09
1539350,0.1338,9.78932,0.247111,0.07,-0.13,-0.155,0.876891,-34.6097,0.964458,1009.09
1539356,0.1338,9.78932,0.247111,0.07,-0.06,-0.225,1.2569,-34.9605,0.52599,1009.08
1539362,0.1338,9.78932,0.25186,0,-0.13,-0.155,1.66613,-34.7559,1.59293,1009.08
1539368,0.1338,9.78932,0.247111,0.07,-0.06,-0.085,1.51998,-34.7559,1.25677,1009.08
1539374,0.1338,9.78932,0.247111,0,-0.06,-0.155,1.57844,-34.9021,0.511374,1009.08
1539380,0.1338,9.78932,0.25186,0,-0.2,-0.085,1.22766,-34.7559,1.24215,1009.08
1539386,0.1338,9.78932,0.25186,0,-0.13,-0.085,0.964585,-35.019,0.628299,1009.11
1539392,0.1338,9.78932,0.247111,-0.07,0.01,0.195,0.643042,-35.0774,1.02292,1009.11
1539398,0.1338,9.78932,0.247111,-0.07,-0.06,-0.085,1.13997,-34.9605,0.862148,1009.1
1539404,0.1338,9.78932,0.247111,0.07,-0.13,-0.085,1.1692,-34.4636,-0.555566,1009.1
1539410,0.1338,9.78932,0.247111,0.07,-0.13,-0.015,0.292267,-34.3467,0.394449,1009.1
1539416,0.1338,9.78932,0.247111,0.14,-0.13,-0.155,0.730735,-34.522,1.096,1009.1
1539422,0.1338,9.78932,0.247111,0.14,0.01,-0.155,1.11074,-34.4928,1.65139,1009.09
1539428,0.1338,9.78932,0.25186,0.14,-0.13,-0.155,1.51998,-34.2297,1.0083,1009.09
1539434,0.1338,9.78455,0.25186,0.21,-0.06,-0.085,0.759967,-34.4636,1.34446,1009.09
1539440,0.1338,9.78455,0.25186,0.28,-0.06,-0.155,1.13997,-35.0482,0.876764,1009.09
1539446,0.1338,9.78932,0.25186,0.21,-0.2,-0.155,0.496885,-34.7559,1.15446,1009.09
1539452,0.1338,9.78932,0.25186,0.21,-0.13,-0.155,1.2569,-35.1944,0.438295,1009.1
1539458,0.1338,9.78932,0.25186,0.21,-0.06,-0.085,0.730735,-34.9313,1.32985,1009.1
1539464,0.1338,9.78932,0.25186,0.21,-0.13,-0.085,1.08151,-34.639,0.891379,1009.11
1539470,0.1338,9.78932,0.25186,0.21,-0.13,-0.015,1.49075,-35.399,0.452911,1009.11
1539476,0.1338,9.78932,0.25186,0.28,-0.06,-0.085,0.993815,-34.9021,0.438295,1009.08
1539482,0.1338,9.78455,0.25186,0.49,0.01,-0.015,1.40305,-35.2821,0.511374,1009.08
1539488,0.1338,9.78932,0.25186,0.49,-0.06,0.055,0.526116,-35.1067,2.13371,1009.08
1539494,0.1338,9.78932,0.25186,0.35,0.01,0.055,1.2569,-34.7559,1.85601,1009.08
1539500,0.1338,9.78932,0.25186,0.21,0.08,0.055,0.993815,-35.0774,0.628299,1009.08
1539506,0.138579,9.78932,0.25186,0.28,-0.13,0.055,1.2569,-34.5805,-0.0732498,1009.09
1539512,0.138579,9.78932,0.25186,0.28,-0.2,0.055,0.496885,-34.9313,1.476,1009.09
1539518,0.138579,9.78932,0.25186,0.28,-0.06,0.055,0.818428,-34.4636,1.11061,1009.08
1539524,0.1338,9.78932,0.25186,0.28,0.01,-0.085,1.11074,-34.8144,1.66601,1009.08
1539530,0.1338,9.78932,0.25186,0.21,-0.06,-0.155,1.08151,-34.8436,0.920611,1009.1
1539536,0.1338,9.78932,0.25186,0.21,-0.13,-0.085,1.31536,-35.3405,1.18369,1009.1
1539542,0.1338,9.78932,0.25186,0.21,-0.2,-0.085,0.701504,-35.1944,0.613683,1009.1
1539548,0.1338,9.78932,0.25186,0.35,-0.06,-0.085,1.54921,-35.0774,1.66601,1009.1
1539554,0.1338,9.78932,0.25186,0.35,-0.06,0.055,1.13997,-35.1359,1.87063,1009.1
1539560,0.1338,9.78932,0.25186,0.28,-0.13,0.055,0.37996,-34.4344,1.43216,1009.09
1539566,0.1338,9.78932,0.25186,0.28,-0.06,-0.085,0.759967,-34.7267,1.34446,1009.09
1539572,0.1338,9.78932,0.25186,0.28,-0.06,-0.085,0.906121,-35.1359,1.096,1009.08
1539578,0.1338,9.78932,0.25186,0.28,-0.13,-0.085,1.40305,-34.8436,1.27139,1009.08
1539584,0.1338,9.78932,0.25186,0.35,-0.2,-0.015,1.31536,-35.1359,1.16908,1009.09
1539590,0.1338,9.78932,0.25186,0.21,-0.13,0.055,0.964585,-34.8728,1.59293,1009.09
1539596,0.138579,9.78932,0.25186,0.21,-0.2,0.195,1.08151,-34.4344,1.15446,1009.12
1539602,0.138579,9.78932,0.25186,0.21,-0.13,0.125,1.51998,-34.9897,0.131368,1009.12
1539608,0.138579,9.78932,0.247111,0.28,-0.06,0.055,1.54921,-34.5805,0.672146,1009.12
1539614,0.138579,9.78932,0.247111,0.21,-0.2,-0.015,1.08151,-35.6621,1.46139,1009.09
1539620,0.138579,9.79408,0.247111,0.07,0.01,-0.085,1.22766,-34.8144,1.54908,1009.09
1539626,0.138579,9.79408,0.247111,0.14,-0.06,-0.155,1.22766,-35.1651,0.496758,1009.08
1539632,0.138579,9.79408,0.247111,0.14,-0.13,-0.015,0.496885,-35.4574,1.34446,1009.08
1539638,0.138579,9.79408,0.247111,0.21,-0.13,-0.015,1.13997,-34.3467,0.993689,1009.11
1539644,0.138579,9.79408,0.247111,0.14,-0.06,-0.155,0.526116,-34.3467,0.350602,1009.11
1539650,0.138579,9.79408,0.247111,0.07,-0.13,-0.085,1.19843,-34.7267,2.06063,1009.15
1539656,0.138579,9.78932,0.247111,0.07,-0.13,-0.155,0.906121,-34.8728,1.84139,1009.15
1539662,0.138579,9.78932,0.247111,0.07,-0.13,-0.085,1.31536,-35.3113,0.832917,1009.1
1539668,0.138579,9.79408,0.247111,0.21,0.01,-0.225,0.993815,-35.5159,0.29214,1009.1
1539674,0.138579,9.79408,0.247111,0.35,-0.13,-0.015,0.84766,-34.8728,1.3737,1009.1
1539680,0.138579,9.79408,0.247111,0.35,-0.2,0.055,1.19843,-34.7267,1.11061,1009.13
1539686,0.138579,9.79408,0.242361,0.21,0.01,-0.085,1.49075,-34.9021,0.847533,1009.13
1539692,0.138579,9.79408,0.242361,0.28,-0.06,-0.015,0.935353,-34.5805,1.06677,1009.09
1539698,0.138579,9.79408,0.242361,0.21,-0.13,0.055,0.789197,-35.1651,-0.80403,1009.09
1539704,0.138579,9.79408,0.242361,0.14,-0.06,-0.085,1.02305,-34.259,1.22754,1009.07
1539710,0.138579,9.79408,0.242361,0.14,-0.13,-0.085,0.906121,-34.6974,1.73909,1009.07
1539716,0.138579,9.79408,0.242361,0.21,-0.13,-0.085,0.672272,-34.8728,0.774455,1009.11
1539722,0.138579,9.79408,0.242361,0.28,-0.13,-0.085,1.43228,-34.5805,0.321371,1009.11
1539728,0.138579,9.79408,0.242361,0.35,-0.13,-0.085,0.643042,-34.6097,0.701377,1009.11
1539734,0.138579,9.79408,0.242361,0.28,-0.06,-0.085,1.28613,-34.522,1.43216,1009.08
1539740,0.138579,9.79408,0.242361,0.28,-0.06,-0.015,1.43228,-34.9605,1.12523,1009.08
1539746,0.138579,9.79408,0.242361,0.28,-0.06,-0.085,1.98768,-35.1944,0.964458,1009.11
1539752,0.138579,9.79408,0.242361,0.35,-0.13,-0.085,1.13997,-34.6974,0.335986,1009.11
1539758,0.138579,9.79408,0.242361,0.35,-0.13,-0.085,1.11074,-34.9897,0.0875216,1009.12
1539764,0.138579,9.79408,0.242361,0.28,-0.13,-0.015,0.906121,-35.0482,1.286,1009.12
1539770,0.138579,9.79408,0.242361,0.21,-0.13,-0.085,1.19843,-35.399,1.73909,1009.08
1539776,0.138579,9.79408,0.242361,0.21,-0.13,-0.155,1.43228,-35.4867,0.42368,1009.08
1539782,0.138579,9.79408,0.237611,0.21,-0.2,-0.225,1.40305,-35.399,0.759839,1009.08
1539788,0.138579,9.79408,0.237611,0.14,-0.2,-0.225,1.13997,-34.4928,1.40293,1009.09
1539794,0.138579,9.79408,0.237611,0.07,-0.2,-0.295,1.19843,-35.5744,1.66601,1009.09
1539800,0.138579,9.79408,0.237611,0.07,-0.13,-0.225,1.22766,-35.5159,2.13371,1009.07
1539806,0.138579,9.79408,0.237611,0.07,-0.13,-0.225,1.1692,-34.9021,1.05215,1009.07
1539812,0.138579,9.79408,0.237611,0,-0.2,-0.155,0.906121,-34.6974,-0.584797,1009.09
1539818,0.138579,9.79408,0.237611,-0.07,-0.13,-0.225,1.19843,-35.399,1.02292,1009.09
1539824,0.138579,9.79408,0.237611,-0.21,-0.2,-0.225,1.49075,-35.5744,-0.160944,1009.11
1539830,0.138579,9.79408,0.237611,-0.42,-0.13,-0.225,0.672272,-35.3698,0.511374,1009.11
1539836,0.138579,9.79884,0.237611,-0.63,-0.27,-0.225,1.22766,-35.4574,0.672146,1009.09
1539842,0.138579,9.79884,0.237611,-1.05,-0.27,-0.225,0.701504,-35.6036,0.29214,1009.09
1539848,0.138579,9.79884,0.237611,-0.84,-0.27,-0.435,1.08151,-35.0482,1.11061,1009.09
1539854,0.138579,9.79408,0.237611,-0.49,0.22,-0.365,1.13997,-35.4574,0.862148,1009.11
1539860,0.138579,9.79408,0.242361,-0.07,-0.06,-0.295,1.40305,-34.3174,0.482143,1009.11
1539866,0.138579,9.79408,0.242361,-0.07,-0.55,-0.225,1.7246,-35.0774,2.08986,1009.1
1539872,0.138579,9.79408,0.242361,0.21,0.01,-0.155,1.46151,-34.7559,1.24215,1009.1
1539878,0.138579,9.79408,0.242361,0.28,-0.34,-0.155,0.61381,-35.5451,1.98755,1009.1
1539884,0.138579,9.79408,0.242361,0.14,-0.34,-0.155,1.05228,-34.9897,0.555221,1009.1
1539890,0.138579,9.79408,0.237611,0.21,-0.13,-0.225,1.2569,-35.6328,1.59293,1009.12
1539896,0.138579,9.79408,0.237611,0,-0.27,-0.295,1.51998,-35.0774,1.19831,1009.12
1539902,0.138579,9.79408,0.237611,0,-0.2,-0.435,1.81229,-34.9021,0.65753,1009.12
1539908,0.138579,9.79408,0.237611,-0.07,-0.2,-0.295,-0.0292759,-35.0482,2.14832,1009.09
1539914,0.138579,9.79408,0.237611,-0.21,-0.2,-0.225,1.1692,-35.8082,0.730608,1009.09
1539920,0.138579,9.79408,0.242361,-0.14,-0.06,-0.435,1.49075,-36.1298,1.53447,1009.14
1539926,0.138579,9.79408,0.242361,0,-0.27,-0.295,1.11074,-34.4051,-0.0147886,1009.14
1539932,0.138579,9.79408,0.242361,0.14,-0.2,-0.225,1.19843,-34.9605,0.599068,1009.09
1539938,0.138579,9.79408,0.242361,0.28,-0.06,-0.225,1.37382,-35.5159,1.5637,1009.09
1539944,0.138579,9.79408,0.242361,0.28,-0.34,-0.225,0.906121,-35.2236,1.24215,1009.09
1539950,0.138579,9.79408,0.242361,0.35,-0.2,-0.225,0.993815,-35.1067,1.62216,1009.09
1539956,0.138579,9.79408,0.242361,0.28,-0.13,-0.225,0.292267,-34.9313,1.46139,1009.09
1539962,0.138579,9.79408,0.242361,0.21,0.01,-0.225,1.13997,-35.3698,0.394449,1009.09
1539968,0.138579,9.79408,0.242361,0.42,-0.13,-0.155,0.584579,-35.4282,0.672146,1009.09
1539974,0.138579,9.79408,0.242361,0.49,-0.13,-0.155,1.05228,-36.0421,-0.833262,1009.11
1539980,0.138579,9.79408,0.242361,0.42,-0.13,-0.155,1.08151,-34.9605,1.0083,1009.11
1539986,0.138579,9.79408,0.242361,0.21,0.08,-0.155,1.78306,-35.1359,0.160599,1009.15
1539992,0.138579,9.79408,0.242361,0.21,-0.06,-0.155,0.935353,-35.1359,1.82678,1009.15
1539998,0.138579,9.79408,0.242361,0.21,-0.06,-0.225,1.1692,-34.2882,1.3737,1009.1
1540004,0.138579,9.79408,0.237611,0.21,-0.13,-0.225,0.438422,-35.6328,0.394449,1009.1
1540010,0.138579,9.79408,0.237611,0.14,0.01,-0.155,0.0876484,-34.4051,1.59293,1009.09
1540016,0.138579,9.79408,0.237611,0,0.01,-0.155,1.46151,-34.6097,0.979074,1009.09
1540022,0.1338,9.79408,0.237611,0,-0.06,-0.155,1.34459,-34.7267,1.3737,1009.09
1540028,0.1338,9.79408,0.237611,0,0.01,-0.225,0.526116,-35.4574,0.306756,1009.09
1540034,0.1338,9.79408,0.237611,-0.07,0.08,-0.155,1.28613,-34.7851,1.44677,1009.09
1540040,0.1338,9.79408,0.237611,-0.07,0.01,-0.155,1.31536,-35.4282,-0.453257,1009.1
1540046,0.1338,9.78932,0.237611,0.14,-0.06,-0.155,1.34459,-34.9021,0.0582895,1009.1
1540052,0.1338,9.78932,0.237611,0.14,-0.06,0.125,1.40305,-35.6036,1.40293,1009.08
1540058,0.1338,9.78932,0.237611,0.07,0.01,-0.015,1.57844,-34.7559,0.0144434,1009.08
1540064,0.1338,9.78932,0.237611,0.14,-0.06,0.055,1.1692,-35.1651,1.53447,1009.08
1540070,0.1338,9.78932,0.237611,0.14,0.01,-0.015,0.84766,-35.0774,1.476,1009.08
1540076,0.1338,9.78932,0.237611,0.14,-0.06,-0.015,1.05228,-34.9313,1.12523,1009.08
1540082,0.1338,9.78932,0.237611,0.28,0.01,-0.015,0.789197,-35.5451,1.38831,1009.1
1540088,0.1338,9.78932,0.237611,0.28,0.15,0.055,1.31536,-34.7267,1.41754,1009.1
1540094,0.1338,9.78932,0.237611,0.35,0.01,0.125,0.964585,-35.1651,0.862148,1009.1
1540100,0.1338,9.78932,0.237611,0.35,-0.13,0.125,0.701504,-35.399,1.5637,1009.1
1540106,0.1338,9.78932,0.237611,0.28,0.08,-0.015,-0.409283,-35.8667,1.02292,1009.08
1540112,0.1338,9.78932,0.237611,0.28,-0.06,-0.085,1.43228,-34.4051,1.03754,1009.08
1540118,0.1338,9.78932,0.237611,0.21,-0.06,0.055,1.6369,-34.9897,0.701377,1009.1
1540124,0.1338,9.78932,0.237611,0.21,0.01,-0.015,1.43228,-34.4344,-0.292485,1009.1
1540130,0.1338,9.78932,0.237611,0.21,-0.06,0.055,1.57844,-35.3698,0.613683,1009.11
1540136,0.1338,9.78932,0.237611,0.14,0.01,0.055,1.6369,-35.6036,0.0144434,1009.11
1540142,0.1338,9.78932,0.237611,0.21,-0.06,-0.015,1.22766,-35.1359,-0.292485,1009.11
1540148,0.1338,9.78932,0.237611,-0.14,-0.06,-0.155,0.964585,-35.0482,1.06677,1009.11
1540154,0.1338,9.78932,0.237611,-0.14,-0.06,-0.225,1.87075,-34.6974,0.832917,1009.11
1540160,0.1338,9.78932,0.232861,-0.21,-0.06,-0.155,0.672272,-34.6097,0.248293,1009.09
1540166,0.1338,9.78932,0.237611,-0.14,-0.13,-0.155,1.43228,-35.1067,1.22754,1009.09
1540172,0.1338,9.78932,0.232861,-0.14,-0.2,-0.225,0.350729,-34.9897,0.599068,1009.1
1540178,0.1338,9.78932,0.232861,-0.07,-0.2,-0.155,1.43228,-35.1359,1.65139,1009.1
1540184,0.1338,9.78932,0.237611,-0.14,-0.13,-0.155,1.34459,-35.7205,0.628299,1009.07
1540190,0.1338,9.78932,0.237611,-0.07,-0.06,-0.155,1.31536,-35.2236,1.15446,1009.07
1540196,0.1338,9.78932,0.232861,-0.28,-0.27,-0.225,1.34459,-34.9021,1.16908,1009.07
1540202,0.129022,9.78932,0.232861,-0.21,-0.06,-0.225,0.964585,-34.8728,1.096,1009.09
1540208,0.129022,9.78932,0.232861,-0.28,-0.2,-0.225,0.321497,-35.3405,1.21292,1009.09
1540214,0.129022,9.78932,0.232861,-0.28,-0.27,-0.295,1.13997,-34.6097,-0.0147886,1009.1
1540220,0.129022,9.78932,0.232861,-0.07,-0.06,-0.085,1.02305,-35.1944,1.62216,1009.1
1540226,0.129022,9.78932,0.232861,-0.14,-0.06,-0.155,0.204574,-35.779,0.248293,1009.12
1540232,0.129022,9.78932,0.232861,-0.28,-0.2,-0.225,0.730735,-35.5451,0.175215,1009.12
1540238,0.129022,9.78932,0.232861,-0.42,-0.13,-0.225,1.46151,-35.5744,1.16908,1009.08
1540244,0.129022,9.78932,0.232861,-0.35,0.01,-0.295,1.7246,-35.0774,1.24215,1009.08
1540250,0.129022,9.78932,0.232861,-0.49,-0.13,-0.225,1.40305,-35.4574,0.569837,1009.08
1540256,0.129022,9.78932,0.232861,-0.49,-0.2,-0.085,1.49075,-35.3405,0.42368,1009.09
1540262,0.129022,9.78932,0.232861,-0.49,-0.13,-0.155,0.84766,-35.5744,1.66601,1009.09
1540268,0.1338,9.78932,0.232861,-0.35,-0.13,-0.225,1.34459,-35.1651,0.613683,1009.11
1540274,0.1338,9.78455,0.232861,-0.35,-0.06,-0.155,1.05228,-35.3698,0.759839,1009.11
1540280,0.1338,9.78932,0.232861,-0.42,0.01,-0.365,0.906121,-35.0774,0.613683,1009.08
1540286,0.1338,9.78455,0.232861,-0.07,-0.06,-0.225,1.57844,-35.1067,0.175215,1009.08
1540292,0.1338,9.78455,0.232861,-0.07,-0.06,-0.225,1.7246,-35.7205,-0.0294037,1009.09
1540298,0.129022,9.78455,0.232861,-0.07,-0.2,-0.085,1.05228,-36.2759,0.0582895,1009.09
1540304,0.1338,9.78455,0.232861,0,-0.06,-0.085,1.05228,-35.7205,0.599068,1009.09
1540310,0.1338,9.78455,0.232861,-0.14,-0.13,-0.155,0.876891,-34.7559,1.19831,1009.09
1540316,0.1338,9.78455,0.232861,0,-0.13,-0.015,0.964585,-35.6621,0.920611,1009.09
1540322,0.1338,9.78455,0.232861,0,0.01,-0.225,1.1692,-34.9897,0.0290594,1009.12
1540328,0.1338,9.78455,0.232861,0.07,-0.06,-0.155,0.61381,-35.6036,0.365218,1009.12
1540334,0.1338,9.78455,0.232861,0.14,-0.06,-0.155,0.789197,-35.2236,1.30062,1009.1
1540340,0.129022,9.78455,0.232861,0,-0.13,-0.155,0.993815,-35.4574,-0.0586348,1009.1
1540346,0.129022,9.78932,0.232861,0,-0.2,-0.155,1.13997,-35.4867,0.599068,1009.11
1540352,0.129022,9.78932,0.232861,0.14,0.01,-0.085,1.2569,-35.2821,0.730608,1009.11
1540358,0.129022,9.78932,0.228111,0,-0.27,-0.225,1.02305,-35.1651,1.27139,1009.12
1540364,0.129022,9.78932,0.228111,-0.14,-0.13,-0.155,-0.116971,-35.4282,1.3737,1009.12
1540370,0.129022,9.78932,0.228111,-0.07,0.15,-0.015,1.2569,-34.6974,0.204447,1009.12
1540376,0.129022,9.78932,0.228111,0.07,-0.06,-0.015,0.935353,-34.7559,1.21292,1009.11
1540382,0.129022,9.78455,0.228111,0.21,0.08,-0.015,1.98768,-34.9021,0.52599,1009.11
1540388,0.129022,9.78455,0.228111,0.14,0.01,-0.015,0.818428,-34.2005,1.88524,1009.13
1540394,0.129022,9.78455,0.228111,0,-0.2,-0.015,1.02305,-35.2528,0.321371,1009.13
1540400,0.129022,9.78932,0.228111,-0.07,0.01,-0.085,1.1692,-34.6682,0.715992,1009.09
1540406,0.129022,9.78932,0.228111,-0.21,0.08,-0.085,1.2569,-34.8436,0.0729055,1009.09
1540412,0.129022,9.78455,0.232861,-0.07,0.01,-0.015,1.11074,-34.5805,1.15446,1009.11
1540418,0.129022,9.78455,0.232861,0.14,0.15,0.055,1.84152,-34.5805,0.891379,1009.11
1540424,0.129022,9.78932,0.228111,-0.14,0.29,0.265,1.7246,-35.019,0.511374,1009.09
1540430,0.129022,9.78932,0.228111,-0.07,0.22,0.125,0.993815,-34.8728,1.02292,1009.09
1540436,0.129022,9.78932,0.228111,-0.14,0.15,0.055,1.34459,-34.6974,1.21292,1009.09
1540442,0.129022,9.78932,0.232861,-0.07,0.15,-0.015,1.11074,-34.8728,0.175215,1009.11
1540448,0.129022,9.78932,0.232861,-0.07,0.22,-0.015,0.233804,-34.9605,0.0436745,1009.11
1540454,0.129022,9.78932,0.232861,-0.21,-0.06,0.055,1.22766,-34.9313,-0.0147886,1009.12
1540460,0.129022,9.78932,0.232861,-0.42,-0.06,-0.015,1.46151,-35.0482,0.0729055,1009.12
1540466,0.129022,9.78932,0.232861,-0.42,0.08,-0.015,1.22766,-34.9897,0.555221,1009.13
1540472,0.129022,9.78932,0.232861,-0.56,0.01,-0.015,1.13997,-34.8728,0.599068,1009.13
1540478,0.129022,9.78932,0.232861,-0.56,0.08,-0.015,0.526116,-34.7559,1.69524,1009.11
1540484,0.129022,9.78932,0.232861,-0.63,0.01,0.055,2.1923,-34.7559,1.32985,1009.11
1540490,0.124243,9.78932,0.228111,-0.7,0.08,0.125,1.22766,-34.9021,1.49062,1009.11
1540496,0.124243,9.78932,0.228111,-0.56,0.08,-0.085,1.40305,-35.1944,0.511374,1009.07
1540502,0.124243,9.78932,0.228111,-0.56,0.15,-0.085,1.78306,-35.2528,1.22754,1009.07
1540508,0.124243,9.78932,0.232861,-0.56,0.01,0.055,1.22766,-35.2821,1.79755,1009.07
1540514,0.129022,9.78932,0.232861,-0.63,0.15,0.055,0.555346,-35.6913,0.920611,1009.07
1540520,0.129022,9.78932,0.228111,-0.56,0.22,0.055,1.08151,-34.8144,0.248293,1009.1
1540526,0.129022,9.78932,0.228111,-0.63,0.08,0.055,1.34459,-34.6682,0.511374,1009.1
1540532,0.129022,9.78932,0.232861,-0.7,0.15,0.055,1.2569,-34.522,-0.657875,1009.06
1540538,0.129022,9.78932,0.232861,-0.63,0.15,-0.085,0.759967,-34.8728,0.29214,1009.06
1540544,0.129022,9.78455,0.232861,-0.49,0.22,-0.085,1.54921,-35.5159,0.42368,1009.06
1540550,0.129022,9.78455,0.232861,-0.49,0.29,0.055,0.175342,-35.2528,0.394449,1009.08
1540556,0.129022,9.78455,0.232861,-0.49,0.22,0.055,1.49075,-35.5159,0.0436745,1009.08
1540562,0.129022,9.78932,0.232861,-0.77,0.22,0.125,0.321497,-35.1651,-0.350947,1009.13
1540568,0.129022,9.78932,0.232861,-0.98,0.29,0.125,-0.116971,-35.1067,1.06677,1009.13
1540574,0.129022,9.78932,0.232861,-0.91,0.36,0.125,0.555346,-35.1067,0.452911,1009.11
1540580,0.129022,9.78932,0.232861,-0.98,0.29,0.055,1.19843,-35.1944,0.672146,1009.11
1540586,0.129022,9.78932,0.237611,-1.12,0.43,0.195,0.584579,-35.3113,0.204447,1009.11
1540592,0.124243,9.78932,0.237611,-1.19,0.36,0.195,0.292267,-35.4574,0.920611,1009.11
1540598,0.124243,9.78932,0.232861,-1.47,0.36,0.265,0.263035,-35.0482,-0.263253,1009.06
1540604,0.124243,9.78932,0.232861,-1.61,0.43,0.195,0.818428,-35.1359,-0.219407,1009.06
1540610,0.124243,9.78932,0.237611,-1.68,0.43,0.265,1.11074,-34.5513,0.555221,1009.06
1540616,0.124243,9.78455,0.237611,-1.47,0.15,0.055,0.935353,-34.5513,0.701377,1009.1
1540622,0.124243,9.78455,0.237611,-1.19,0.08,-0.015,0.730735,-34.9897,0.321371,1009.1
1540628,0.124243,9.78455,0.237611,-1.05,0.22,-0.015,0.37996,-34.7267,-0.0147886,1009.1
1540634,0.124243,9.78455,0.242361,-1.19,0.29,0.055,0.204574,-35.3698,0.0875216,1009.1
1540640,0.124243,9.78455,0.242361,-0.63,0.15,0.125,0.935353,-35.1651,1.38831,1009.1
1540646,0.124243,9.78455,0.247111,-0.56,0.08,0.125,0.672272,-34.7267,0.78907,1009.1
1540652,0.124243,9.78455,0.242361,-0.77,0.36,0.615,0.496885,-34.8436,1.0083,1009.08
1540658,0.124243,9.77979,0.247111,-0.28,-0.06,0.055,1.66613,-34.8144,0.335986,1009.08
1540664,0.124243,9.77979,0.247111,-0.42,-0.2,0.125,0.759967,-34.7267,0.555221,1009.08
1540670,0.124243,9.77979,0.247111,-0.63,-0.13,0.195,1.19843,-35.6036,0.409064,1009.11
1540676,0.124243,9.77979,0.247111,-0.49,0.22,0.055,1.1692,-34.8728,0.175215,1009.11
1540682,0.124243,9.77979,0.247111,0.28,0.01,-0.085,0.906121,-35.1651,0.832917,1009.11
1540688,0.124243,9.77979,0.25186,0.7,-0.62,-0.085,0.409192,-34.9605,0.0436745,1009.11
1540694,0.124243,9.77979,0.25186,-0.28,0.71,-0.015,0.526116,-35.6913,0.131368,1009.11
1540700,0.119464,9.77979,0.25186,0,-0.62,0.405,1.02305,-34.9605,-0.17556,1009.11
1540706,0.119464,9.77979,0.25186,-0.7,-0.41,0.475,0.175342,-35.1651,0.379833,1009.11
1540712,0.119464,9.77979,0.25186,-0.77,0.43,0.475,0.643042,-34.7851,0.935227,1009.11
1540718,0.124243,9.76549,0.26611,-0.56,0.36,0.195,1.11074,-34.7267,0.891379,1009.11
1540724,0.124243,9.76549,0.27086,-0.49,0.08,0.895,1.05228,-34.6974,-0.146328,1009.1
1540730,0.119464,9.76073,0.27086,0.56,-0.55,0.195,1.84152,-34.6097,0.672146,1009.1
1540736,0.119464,9.76549,0.27086,1.54,-0.13,0.475,1.1692,-35.5159,0.672146,1009.14
1540742,0.119464,9.76549,0.27086,0.14,-0.27,0.335,1.37382,-35.399,1.34446,1009.14
1540748,0.114686,9.76073,0.27561,1.75,-1.25,0.265,1.28613,-34.4344,1.73909,1009.1
1540754,0.114686,9.76073,0.27561,2.38,-1.25,0.125,1.28613,-35.5744,1.08138,1009.1
1540760,0.109907,9.75597,0.28036,3.36,-2.3,0.195,0.993815,-35.6913,0.409064,1009.07
1540766,0.109907,9.75597,0.28511,4.06,-2.93,0.055,1.22766,-35.2236,0.949842,1009.07
1540772,0.109907,9.7512,0.28511,5.6,-3.07,-0.015,1.37382,-35.0482,0.482143,1009.09
1540778,0.109907,9.75597,0.28511,5.39,-3.21,-0.155,0.672272,-35.3698,0.145984,1009.09
1540784,0.114686,9.75597,0.28036,4.69,-2.72,-0.365,1.22766,-35.2236,0.949842,1009.09
1540790,0.114686,9.75597,0.28036,5.18,-2.58,-0.505,0.818428,-34.6682,1.70985,1009.08
1540796,0.114686,9.76549,0.27561,3.64,-2.37,-0.505,1.22766,-34.7559,1.32985,1009.08
1540802,0.114686,9.77026,0.27086,2.94,-2.23,-0.575,0.906121,-35.4574,1.66601,1009.12
1540808,0.114686,9.77026,0.27086,3.22,-2.02,-0.505,0.789197,-34.9021,1.57831,1009.12
1540814,0.114686,9.77026,0.27086,3.29,-2.16,-0.365,0.0876484,-34.9897,1.50523,1009.11
1540820,0.114686,9.77502,0.26611,2.52,-1.74,-0.155,0.584579,-35.0482,-0.0878658,1009.11
1540826,0.114686,9.78455,0.26136,1.75,-1.53,-0.295,0.467653,-34.1128,0.715992,1009.12
1540832,0.119464,9.78932,0.25661,0.56,-1.04,-0.155,1.40305,-35.0774,0.467527,1009.12
1540838,0.119464,9.79884,0.247111,-1.96,-0.27,-0.015,1.43228,-34.9897,0.628299,1009.12
1540844,0.119464,9.79884,0.247111,-2.66,0.08,-0.015,1.19843,-34.8728,0.832917,1009.12
1540850,0.119464,9.79884,0.242361,-2.87,0.15,0.055,0.496885,-34.6974,0.686761,1009.12
1540856,0.119464,9.80361,0.242361,-3.01,0.43,0.195,0.935353,-35.3113,1.5637,1009.08
1540862,0.119464,9.81314,0.237611,-3.78,0.29,0.195,0.701504,-35.0774,0.262909,1009.08
1540868,0.124243,9.81314,0.237611,-3.85,0.57,0.125,1.02305,-34.4344,0.701377,1009.09
1540874,0.124243,9.81314,0.237611,-3.99,0.64,0.055,1.02305,-35.2821,1.11061,1009.09
1540880,0.124243,9.81314,0.237611,-4.06,0.29,-0.155,0.61381,-35.3113,0.277524,1009.1
1540886,0.124243,9.8179,0.237611,-4.62,0.71,-0.085,0.876891,-35.6328,-0.54095,1009.1
1540892,0.124243,9.8179,0.237611,-4.69,0.5,-0.015,0.263035,-34.7559,1.21292,1009.11
1540898,0.124243,9.8179,0.237611,-4.69,0.5,-0.015,1.2569,-35.0774,0.715992,1009.11
1540904,0.129022,9.8179,0.237611,-4.83,0.78,-0.085,0.496885,-35.2236,1.40293,1009.11
1540910,0.124243,9.81314,0.242361,-4.55,0.15,-0.645,1.02305,-34.8144,0.438295,1009.08
1540916,0.124243,9.80837,0.247111,-4.69,-0.34,-0.435,0.730735,-34.9021,1.38831,1009.08
1540922,0.129022,9.80837,0.247111,-5.39,0.78,-0.575,1.19843,-34.8436,1.18369,1009.1
1540928,0.129022,9.80361,0.25186,-5.39,1.34,-0.715,-0.233896,-34.4051,0.65753,1009.1
1540934,0.124243,9.80837,0.247111,-5.18,0.15,-0.785,1.08151,-34.9021,-0.643259,1009.1
1540940,0.129022,9.80837,0.247111,-5.67,1.13,-0.855,0.204574,-34.5513,0.78907,1009.1
1540946,0.124243,9.80837,0.247111,-6.16,0.78,-0.785,-0.321589,-34.5805,0.935227,1009.14
1540952,0.124243,9.80837,0.25186,-5.95,0.22,-0.785,0.584579,-35.1359,0.511374,1009.14
1540958,0.124243,9.80361,0.25186,-4.55,0.57,-0.855,0.84766,-35.4867,-0.687106,1009.14
1540964,0.124243,9.80361,0.25661,-4.9,0.29,-0.855,0.438422,-34.7559,0.0290594,1009.11
1540970,0.124243,9.80361,0.25661,-5.32,0.36,-0.925,0.496885,-35.6913,-0.453257,1009.11
1540976,0.124243,9.79884,0.25661,-4.76,0.57,-1.135,0.37996,-35.4282,0.803686,1009.09
1540982,0.124243,9.79884,0.26136,-4.48,0.64,-0.995,0.964585,-35.4867,0.0436745,1009.09
1540988,0.124243,9.79884,0.26136,-4.62,0.78,-0.995,0.146111,-34.9605,-0.570182,1009.09
1540994,0.124243,9.79884,0.26136,-4.83,0.78,-0.995,0.964585,-34.6974,0.379833,1009.09
1541000,0.124243,9.79408,0.26611,-3.92,0.71,-0.855,0.467653,-35.4574,-0.234022,1009.08
1541006,0.124243,9.79408,0.26611,-3.57,0.5,-0.855,0.0584173,-34.7559,0.248293,1009.08
1541012,0.124243,9.79408,0.27086,-3.43,0.57,-0.785,0.730735,-35.2236,0.730608,1009.08
1541018,0.124243,9.79408,0.27086,-3.78,0.71,-0.855,0.993815,-34.6974,0.672146,1009.12
1541024,0.124243,9.79408,0.27086,-4.06,0.99,-0.925,1.34459,-34.7267,-0.789415,1009.12
1541030,0.124243,9.79408,0.27086,-4.27,1.2,-0.925,1.2569,-35.0774,0.0290594,1009.12
1541036,0.124243,9.79884,0.27086,-4.48,1.13,-1.415,1.05228,-34.9897,-0.17556,1009.12
1541042,0.124243,9.79884,0.27561,-4.76,1.27,-1.275,0.876891,-35.5744,-0.0586348,1009.09
1541048,0.124243,9.79408,0.27561,-4.69,1.55,-1.065,1.49075,-35.1944,1.16908,1009.09
1541054,0.124243,9.79408,0.28036,-4.55,1.48,-1.275,1.13997,-35.2821,-0.336331,1009.1
1541060,0.124243,9.79408,0.28036,-4.48,1.2,-1.485,0.233804,-35.1944,0.949842,1009.1
1541066,0.129022,9.79408,0.28036,-4.76,1.62,-1.695,0.672272,-34.9897,-0.336331,1009.08
1541072,0.129022,9.79884,0.28036,-5.67,1.83,-2.115,0.876891,-35.0774,0.715992,1009.08
1541078,0.129022,9.79884,0.28511,-5.6,1.97,-2.395,0.292267,-35.7498,0.0290594,1009.08
1541084,0.1338,9.79884,0.28036,-5.67,2.11,-2.675,0.759967,-35.1359,-0.0732498,1009.09
1541090,0.1338,9.80361,0.28036,-6.44,2.46,-3.095,1.11074,-35.2821,-0.234022,1009.09
1541096,0.1338,9.80361,0.28036,-8.4,3.37,-3.655,1.31536,-35.4282,0.818302,1009.12
1541102,0.1338,9.80361,0.28511,-8.4,3.02,-3.865,0.643042,-35.7498,-0.789415,1009.12
1541108,0.1338,9.80361,0.289859,-7.63,2.81,-4.005,0.0291853,-34.8728,-0.40941,1009.1
1541114,0.138579,9.80837,0.289859,-8.12,2.88,-4.635,0.789197,-35.0774,-1.54943,1009.1
1541120,0.138579,9.80837,0.289859,-9.1,3.16,-4.915,0.643042,-35.0774,-0.847878,1009.1
1541126,0.138579,9.80837,0.294609,-9.59,3.65,-5.055,0.37996,-35.0774,0.0436745,1009.1
1541132,0.138579,9.80837,0.299359,-9.24,3.65,-5.475,0.467653,-35.3698,-0.0586348,1009.1
1541138,0.138579,9.80837,0.304109,-7.84,3.37,-5.895,1.05228,-35.2528,0.160599,1009.08
1541144,0.138579,9.80837,0.304109,-8.47,3.58,-5.965,0.906121,-35.4867,-0.467872,1009.08
1541150,0.138579,9.81314,0.304109,-9.45,3.86,-6.105,0.993815,-36.1005,-0.935572,1009.08
1541156,0.138579,9.81314,0.308859,-10.01,3.72,-6.315,1.11074,-35.2528,-0.424025,1009.08
1541162,0.1338,9.81314,0.313609,-9.66,4.07,-6.525,1.60767,-35.5451,-0.833262,1009.08
1541168,0.138579,9.81314,0.313609,-10.15,4.63,-6.525,0.759967,-35.1944,-0.643259,1009.08
1541174,0.138579,9.8179,0.318359,-10.64,4.91,-7.085,1.05228,-34.9313,-2.22175,1009.11
1541180,0.1338,9.8179,0.323109,-10.5,4.49,-7.645,1.66613,-35.3698,-0.877109,1009.11
1541186,0.129022,9.8179,0.332608,-10.15,3.93,-7.785,1.11074,-34.8436,-0.687106,1009.11
1541192,0.129022,9.81314,0.337358,-8.96,3.37,-8.135,1.08151,-35.4574,-0.467872,1009.11
1541198,0.129022,9.81314,0.342108,-8.05,3.09,-8.695,2.07537,-34.8728,-0.146328,1009.11
1541204,0.129022,9.8179,0.342108,-8.26,3.65,-9.115,1.78306,-34.9313,-0.467872,1009.08
1541210,0.124243,9.8179,0.351608,-8.54,2.6,-9.535,1.28613,-35.8667,-0.336331,1009.08
1541216,0.124243,9.8179,0.356358,-7.91,2.53,-9.885,0.701504,-35.3405,-0.994034,1009.1
1541222,0.129022,9.81314,0.365858,-6.58,3.3,-10.865,1.66613,-35.2236,-0.000172615,1009.1
1541228,0.1338,9.81314,0.365858,-5.88,3.58,-11.845,1.43228,-35.0482,-0.482488,1009.1
1541234,0.138579,9.82267,0.380107,-4.41,3.37,-13.665,1.31536,-34.7267,-0.657875,1009.1
1541240,0.148136,9.82743,0.389607,-2.59,3.86,-15.905,2.01691,-35.2236,-1.21327,1009.09
1541246,0.157693,9.82267,0.399107,0,6.24,-18.215,1.54921,-35.019,-0.555566,1009.09
1541252,0.181586,9.82743,0.432356,6.09,8.06,-23.465,2.04614,-34.2005,-0.643259,1009.09
1541258,0.195922,9.83696,0.456105,11.34,8.76,-27.525,2.39691,-34.8728,-1.27173,1009.08
1541264,0.210257,9.84649,0.470355,16.17,9.81,-31.585,1.54921,-34.4928,-1.6225,1009.08
1541270,0.219814,9.86554,0.479855,17.64,9.6,-35.505,1.98768,-35.0774,-0.906341,1009.1
1541276,0.248486,9.92748,0.489354,16.52,9.18,-45.165,2.36768,-34.8436,-0.657875,1009.1
1541282,0.262822,9.96559,0.498854,15.68,9.11,-50.275,2.54307,-34.639,-1.7102,1009.13
1541288,0.286714,9.99418,0.508354,15.89,9.25,-56.155,2.27999,-35.2236,-0.0147886,1009.13
1541294,0.305829,10.0275,0.517854,17.08,9.18,-62.105,2.74769,-35.1651,0.0290594,1009.1
1541300,0.339279,10.1038,0.508354,14.42,10.3,-75.335,3.71232,-34.5513,0.277524,1009.1
1541306,0.344057,10.1466,0.503604,10.99,9.18,-81.775,3.68309,-34.4636,-0.321715,1009.1
1541312,0.353614,10.1752,0.494104,9.52,6.8,-87.165,3.71232,-34.142,0.219062,1009.1
1541318,0.363172,10.199,0.484605,9.31,6.24,-92.835,5.02772,-33.9082,1.19831,1009.1
1541324,0.391843,10.2514,0.470355,11.9,7.15,-104.315,4.70618,-34.8144,0.701377,1009.11
1541330,0.406179,10.2991,0.460855,11.97,5.54,-111.175,5.70004,-34.5513,0.584452,1009.11
1541336,0.420515,10.361,0.446605,7.63,3.44,-118.665,6.05082,-33.9959,1.06677,1009.09
1541342,0.444407,10.4372,0.427606,0.98,3.44,-126.505,6.3139,-33.9959,1.89986,1009.09
1541348,0.477857,10.5564,0.384857,-11.2,6.59,-144.005,6.95698,-34.2005,0.803686,1009.1
1541354,0.482636,10.5802,0.380107,-11.34,3.37,-152.335,7.51238,-33.5867,1.096,1009.1
1541360,0.492193,10.604,0.375357,-9.38,0.36,-159.685,8.53547,-32.7682,0.29214,1009.13
1541366,0.516086,10.6373,0.365858,-8.4,0.36,-167.525,8.5647,-33.3236,-0.380178,1009.13
1541372,0.549536,10.766,0.337358,-17.92,-4.33,-185.305,9.70472,-33.0897,-0.0147886,1009.13
1541378,0.563872,10.8374,0.323109,-22.89,-7.62,-196.715,10.377,-32.4759,0.365218,1009.15
1541384,0.573429,10.9137,0.308859,-25.27,-5.1,-206.795,10.6109,-32.7682,1.27139,1009.15
1541390,0.56865,10.9947,0.299359,-32.69,-4.47,-220.935,12.1017,-32.3005,0.803686,1009.09
1541396,0.549536,11.19,0.26136,-38.85,-7.76,-226.605,12.6863,-31.6574,0.379833,1009.09
1541402,0.539979,11.2996,0.237611,-48.79,-5.38,-231.645,13.154,-31.102,0.365218,1009.09
1541408,0.520865,11.3901,0.213861,-54.39,-1.67,-236.125,14.6448,-31.3358,0.832917,1009.09
1541414,0.430072,11.5664,0.152113,-63.56,-4.26,-239.205,14.7033,-30.7512,0.803686,1009.06
1541420,0.36795,11.6426,0.118864,-69.86,-1.46,-237.525,16.2525,-29.6404,0.29214,1009.06
1541426,0.291493,11.7188,0.0998643,-68.95,-6.01,-235.705,16.7787,-29.6404,0.452911,1009.06
1541432,0.219814,11.8093,0.0761149,-71.96,-11.82,-234.375,17.3925,-30.0497,-0.365562,1009.09
1541438,0.109907,11.957,0.0381158,-76.72,-13.01,-233.745,17.6848,-29.7866,-1.54943,1009.09
1541444,0.0477857,12.0237,0.0238662,-75.46,-11.54,-229.055,19.3803,-27.7112,-0.687106,1009.11
1541450,-0.0286714,12.0904,0.0191163,-72.94,-12.1,-225.275,19.848,-27.5942,-0.365562,1009.11
1541456,-0.105129,12.1571,0.00961656,-67.13,-17.7,-225.135,20.5203,-27.185,-0.336331,1009.11
1541462,-0.248486,12.2858,-0.0426321,-54.11,-23.37,-218.625,21.2218,-26.045,-0.862494,1009.11
1541468,-0.324943,12.3668,-0.0758813,-50.82,-29.6,-212.815,21.6603,-25.6942,-0.497104,1009.05
1541474,-0.382286,12.462,-0.0996307,-53.06,-38.56,-211.415,22.4495,-25.2265,0.145984,1009.05
1541480,-0.410957,12.543,-0.10913,-53.34,-49.06,-214.215,23.1511,-24.4665,-1.28635,1009.05
1541486,-0.4014,12.686,-0.104381,-45.36,-58.09,-219.185,23.1218,-24.2034,0.248293,1009.09
1541492,-0.372729,12.7336,-0.0948808,-41.51,-61.87,-222.755,24.0865,-23.8527,-1.0525,1009.09
1541498,-0.315386,12.7908,-0.0996307,-36.26,-67.47,-231.995,25.0803,-22.3326,-0.599412,1009.08
1541504,-0.248486,12.8813,-0.147129,-38.99,-65.44,-250.615,25.1388,-21.3972,-1.27173,1009.08
1541510,-0.243707,13.191,-0.375124,-97.58,-83.85,-311.165,25.8696,-20.6372,-1.0525,1009.07
1541516,-0.4014,13.2863,-0.484371,-145.11,-93.09,-316.135,26.4542,-19.6726,-1.72481,1009.07
1541522,-0.654665,13.2624,-0.50337,-164.01,-94.21,-286.315,27.1558,-19.1172,-2.79175,1009.08
1541528,-0.907929,13.1481,-0.427372,-130.06,-123.96,-220.235,27.3311,-18.2403,-2.6456,1009.08
1541534,-1.24243,12.8337,-0.246877,-96.6,-118.36,-183.625,28.2081,-17.6849,-2.57252,1009.1
1541540,-1.41924,12.6717,-0.180379,-65.38,-114.23,-142.955,28.1204,-17.7726,-3.84408,1009.1
1541546,-1.62472,12.5097,-0.12813,-44.45,-125.01,-101.935,28.5004,-17.2172,-4.38486,1009.1
1541552,-1.91621,12.1714,-0.0283825,-6.44,-145.87,-25.425,27.8865,-16.3695,-3.93177,1009.07
1541558,-1.99744,12.019,0.0143664,15.82,-141.04,5.305,28.2665,-15.9602,-3.06945,1009.07
1541564,-2.07868,11.876,0.0618652,35.7,-138.03,31.135,27.5358,-16.8956,-4.22408,1009.08
1541570,-2.1408,11.7522,0.104614,51.59,-140.9,51.925,27.5942,-16.0772,-3.42023,1009.08
1541576,-2.15514,11.5426,0.185362,74.62,-123.96,82.025,28.7635,-16.8664,-3.28868,1009.07
1541582,-2.14558,11.4377,0.242361,88.13,-113.81,92.175,27.7988,-17.1295,-3.09868,1009.07
1541588,-2.11691,11.3425,0.299359,99.75,-105.76,99.105,28.0035,-17.8895,-4.07793,1009.08
1541594,-2.06434,11.271,0.346858,106.12,-93.79,103.025,27.7112,-17.451,-3.94639,1009.08
1541600,-1.90665,11.1948,0.432356,104.44,-60.68,104.285,27.0388,-17.7726,-4.39947,1009.08
1541606,-1.82064,11.1948,0.470355,96.04,-43.46,103.025,26.1911,-18.708,-2.90868,1009.08
1541612,-1.73462,11.2186,0.498854,83.79,-25.61,101.835,25.8696,-17.8603,-2.77714,1009.08
1541618,-1.64861,11.2472,0.532103,67.76,-8.32,101.905,25.8404,-18.2403,-2.44098,1009.08
1541624,-1.49569,11.3091,0.589102,29.82,26.33,107.435,25.9573,-18.7957,-1.87097,1009.08
1541630,-1.43357,11.3186,0.612851,10.01,42.64,114.085,25.548,-19.468,-2.39713,1009.08
1541636,-1.38101,11.3186,0.646101,-6.58,55.38,122.765,25.548,-19.1172,-1.57866,1009.08
1541642,-1.338,11.2996,0.6746,-19.88,67.42,133.195,24.4373,-19.8187,-2.86483,1009.09
1541648,-1.2711,11.19,0.722099,-39.13,86.53,155.805,24.408,-19.5849,-0.204791,1009.09
1541654,-1.26632,11.0995,0.755348,-42.84,90.59,163.995,23.5895,-19.5849,-1.19865,1009.03
1541660,-1.2711,10.9756,0.793347,-35.49,89.33,170.925,23.8819,-20.7249,-0.0732498,1009.03
1541666,-1.2711,10.8232,0.831346,-22.75,86.95,177.365,23.268,-21.3388,0.672146,1009.03
