Timestamp,AccX,AccY,AccZ,AngularVelX,AngularVelY,AngularVelZ,MagX,MagY,MagZ,AirPressure
80582,0.2007,9.77026,0.612851,-0.14,0.01,-0.225,-46.8163,-52.5807,-17.5635,1001.34
80588,0.2007,9.77026,0.612851,-0.14,0.08,-0.225,-46.2317,-53.3407,-18.0166,1001.34
80594,0.2007,9.77026,0.612851,-0.35,0.22,-0.015,-46.7286,-53.0484,-18.4112,1001.34
80600,0.2007,9.77026,0.612851,-0.35,0.15,-0.225,-46.6117,-53.0777,-19.4489,1001.33
80606,0.2007,9.77026,0.612851,-0.42,0.15,-0.225,-46.3778,-52.7854,-17.9289,1001.33
80612,0.2007,9.77026,0.612851,-0.42,0.15,-0.155,-46.6702,-53.1946,-18.2504,1001.37
80618,0.2007,9.77026,0.612851,-0.42,0.01,-0.085,-46.524,-52.9315,-18.4112,1001.37
80624,0.2007,9.77026,0.612851,-0.35,0.01,-0.295,-46.6409,-53.0777,-18.6889,1001.27
80630,0.195922,9.77026,0.612851,-0.35,0.22,-0.225,-46.5825,-52.3469,-19.2297,1001.27
80636,0.195922,9.77026,0.612851,-0.21,0.01,-0.225,-46.9332,-52.5223,-19.6097,1001.3
80642,0.195922,9.77026,0.617601,-0.21,0.01,-0.225,-46.4655,-53.0777,-17.7535,1001.3
80648,0.195922,9.77026,0.617601,-0.21,0.01,-0.295,-46.5825,-52.61,-17.0958,1001.3
80654,0.195922,9.76549,0.612851,-0.21,0.01,-0.295,-47.0209,-53.5746,-19.2151,1001.34
80660,0.195922,9.76549,0.612851,-0.14,0.01,-0.225,-46.7286,-52.5807,-19.4197,1001.34
80666,0.195922,9.76549,0.612851,-0.14,0.01,-0.295,-46.524,-52.7561,-19.7851,1001.34
80672,0.195922,9.76549,0.612851,-0.14,0.01,-0.225,-46.4071,-53.1361,-18.5866,1001.34
80678,0.195922,9.76549,0.612851,-0.14,-0.06,-0.225,-46.4071,-52.4638,-17.3004,1001.32
80684,0.195922,9.76549,0.612851,-0.07,-0.06,-0.155,-46.8748,-52.6392,-19.0397,1001.32
80690,0.195922,9.76549,0.617601,0,0.01,-0.225,-46.2609,-52.0253,-18.572,1001.35
80696,0.195922,9.76549,0.617601,-0.07,-0.06,-0.225,-46.6117,-53.3407,-17.885,1001.35
80702,0.195922,9.76549,0.617601,-0.21,0.08,-0.295,-46.3486,-52.4053,-19.142,1001.35
80708,0.195922,9.76549,0.617601,-0.21,-0.13,-0.225,-46.4363,-52.9607,-19.4928,1001.31
80714,0.195922,9.76549,0.612851,-0.07,0.01,-0.225,-46.0855,-52.7561,-17.7681,1001.31
80720,0.195922,9.76549,0.617601,-0.07,-0.06,-0.155,-46.6117,-52.7269,-19.2443,1001.34
80726,0.195922,9.76549,0.617601,-0.07,-0.34,-0.085,-46.144,-52.3761,-19.0397,1001.34
80732,0.195922,9.76549,0.617601,-0.07,-0.13,-0.155,-46.4655,-52.8438,-18.6743,1001.31
80738,0.195922,9.76549,0.617601,-0.21,-0.13,-0.155,-46.2317,-53.2531,-19.4489,1001.31
80744,0.195922,9.76549,0.617601,-0.21,-0.06,-0.155,-46.5532,-52.6684,-18.6158,1001.31
80750,0.195922,9.76549,0.617601,-0.07,-0.06,-0.085,-47.0502,-52.9315,-18.3381,1001.31
80756,0.195922,9.76549,0.617601,-0.07,-0.13,-0.225,-46.5532,-53.1946,-18.3673,1001.33
80762,0.195922,9.76549,0.617601,-0.14,0.01,-0.225,-46.524,-52.3761,-18.9227,1001.33
80768,0.195922,9.77026,0.617601,-0.42,0.15,-0.225,-47.0209,-52.3469,-19.0251,1001.33
80774,0.195922,9.77026,0.617601,-0.42,0.01,-0.155,-46.6409,-53.1654,-18.0897,1001.32
80780,0.195922,9.77026,0.622351,-0.28,0.01,-0.155,-46.7871,-53.0484,-17.885,1001.32
80786,0.195922,9.77026,0.622351,-0.14,0.15,-0.225,-47.1086,-52.1423,-19.1274,1001.32
80792,0.191143,9.77026,0.622351,-0.21,-0.06,-0.295,-46.7871,-53.2823,-18.7327,1001.32
80798,0.195922,9.77026,0.617601,-0.28,0.01,-0.225,-46.7286,-53.8084,-18.6597,1001.31
80804,0.191143,9.77026,0.622351,-0.35,0.15,-0.295,-46.4363,-52.7854,-19.4343,1001.31
80810,0.191143,9.77026,0.622351,-0.28,0.01,-0.225,-46.2609,-52.7269,-19.2881,1001.37
80816,0.195922,9.77026,0.622351,-0.14,0.01,-0.225,-46.7578,-53.2823,-18.9374,1001.37
80822,0.195922,9.77026,0.622351,-0.28,0.15,-0.365,-46.5532,-53.1946,-19.5512,1001.37
80828,0.195922,9.77026,0.622351,-0.49,0.15,-0.295,-46.6702,-53.0192,-19.0689,1001.34
80834,0.195922,9.77026,0.622351,-0.28,-0.06,-0.295,-45.7932,-53.0777,-20.092,1001.34
80840,0.195922,9.77026,0.622351,-0.28,0.15,-0.365,-46.0855,-52.6684,-19.4635,1001.34
80846,0.191143,9.77026,0.622351,-0.21,-0.06,-0.295,-46.1732,-52.5807,-19.9458,1001.34
80852,0.191143,9.77026,0.622351,-0.14,-0.13,-0.225,-46.6702,-52.3177,-19.3904,1001.28
80858,0.191143,9.77026,0.622351,-0.07,-0.06,-0.225,-46.5532,-53.0777,-18.0166,1001.28
80864,0.191143,9.76549,0.622351,-0.07,-0.13,-0.225,-46.2025,-52.8146,-18.6304,1001.3
80870,0.191143,9.76549,0.622351,-0.07,-0.2,-0.295,-46.9332,-53.5454,-19.5804,1001.3
80876,0.191143,9.76549,0.622351,-0.07,-0.2,-0.225,-47.1379,-52.8731,-18.3673,1001.31
80882,0.191143,9.76549,0.622351,-0.07,-0.06,-0.155,-46.1732,-52.4346,-19.2443,1001.31
80888,0.191143,9.76549,0.622351,0,-0.13,-0.225,-46.9332,-53.5454,-19.5804,1001.31
80894,0.191143,9.76549,0.622351,-0.07,-0.13,-0.225,-45.9101,-52.99,-18.1189,1001.31
80900,0.191143,9.76549,0.622351,-0.07,-0.06,-0.225,-45.9101,-52.0838,-19.0543,1001.31
80906,0.191143,9.76549,0.622351,-0.14,0.01,-0.295,-46.9332,-52.6684,-19.8143,1001.3
80912,0.191143,9.76549,0.622351,-0.21,0.01,-0.225,-46.8163,-53.4869,-20.6912,1001.3
80918,0.191143,9.76549,0.622351,-0.21,0.01,-0.225,-46.4948,-52.7561,-18.1481,1001.31
80924,0.191143,9.76549,0.622351,-0.14,-0.06,-0.295,-46.144,-52.6684,-19.4781,1001.31
80930,0.186364,9.76549,0.622351,-0.07,-0.13,-0.225,-46.6117,-52.5223,-18.4404,1001.34
80936,0.186364,9.76549,0.622351,0,0.01,-0.155,-47.4302,-52.8438,-18.6304,1001.34
80942,0.186364,9.76549,0.622351,0.14,-0.06,-0.015,-46.8163,-53.1069,-18.6012,1001.34
80948,0.186364,9.76549,0.627101,0,-0.06,-0.155,-47.284,-52.113,-18.835,1001.34
80954,0.186364,9.76549,0.622351,-0.07,0.08,-0.155,-46.7286,-52.7561,-19.3612,1001.34
80960,0.191143,9.77026,0.622351,-0.14,-0.06,-0.225,-46.6702,-52.493,-18.2797,1001.32
80966,0.186364,9.77026,0.622351,-0.28,0.01,-0.225,-46.7871,-52.4346,-19.5512,1001.32
80972,0.186364,9.76549,0.627101,-0.42,0.08,-0.365,-46.7578,-52.8731,-18.192,1001.36
80978,0.186364,9.76549,0.627101,-0.07,-0.06,-0.365,-46.9332,-53.1946,-18.075,1001.36
80984,0.186364,9.76549,0.627101,-0.14,-0.13,-0.295,-46.5825,-53.3115,-19.8435,1001.31
80990,0.186364,9.76549,0.627101,-0.07,-0.06,-0.365,-45.9394,-52.8731,-19.4489,1001.31
80996,0.186364,9.76549,0.627101,-0.07,-0.06,-0.225,-46.4071,-52.7854,-19.0981,1001.31
81002,0.186364,9.76549,0.627101,0,-0.06,-0.225,-46.5825,-53.0484,-19.332,1001.32
81008,0.186364,9.76549,0.627101,0,-0.06,-0.155,-46.6409,-52.5515,-18.8497,1001.32
81014,0.186364,9.76549,0.627101,-0.07,-0.06,-0.155,-46.5825,-52.8438,-18.5281,1001.34
81020,0.186364,9.76549,0.627101,0.07,0.01,-0.155,-46.1148,-52.3469,-19.0543,1001.34
81026,0.186364,9.76549,0.627101,-0.14,0.01,-0.155,-46.4948,-53.3115,-19.3174,1001.32
81032,0.181586,9.76549,0.627101,-0.21,-0.06,-0.155,-47.5763,-52.7854,-21.3051,1001.32
81038,0.181586,9.76549,0.631851,0.07,-0.2,0.335,-46.5532,-53.37,-19.3027,1001.28
81044,0.181586,9.76549,0.631851,0.07,-0.06,-0.085,-46.9625,-52.5515,-18.7766,1001.28
81050,0.181586,9.76549,0.631851,0,-0.13,-0.155,-47.0794,-53.1654,-19.0689,1001.34
81056,0.181586,9.76549,0.631851,0,-0.2,-0.085,-46.3778,-52.7269,-18.7181,1001.34
81062,0.181586,9.76549,0.631851,0.14,-0.27,0.055,-46.4071,-53.0192,-18.7766,1001.34
81068,0.181586,9.76549,0.631851,0.35,-0.13,0.055,-46.2609,-53.1361,-18.7181,1001.34
81074,0.181586,9.76549,0.631851,0.21,-0.2,-0.085,-46.524,-52.5223,-18.8204,1001.34
81080,0.181586,9.76549,0.631851,0,-0.2,-0.015,-46.3486,-52.9607,-18.7766,1001.33
81086,0.181586,9.76549,0.631851,0.07,-0.13,-0.155,-46.9332,-52.3177,-20.4574,1001.33
81092,0.181586,9.76549,0.631851,0.28,-0.2,0.055,-46.6702,-52.99,-19.5366,1001.35
81098,0.181586,9.76549,0.631851,0.28,-0.2,-0.015,-46.6994,-52.8438,-18.9666,1001.35
81104,0.181586,9.76549,0.631851,0.14,-0.13,-0.015,-46.6409,-52.5807,-19.1274,1001.32
81110,0.181586,9.76549,0.631851,0.07,-0.13,0.055,-47.4302,-53.0777,-18.4843,1001.32
81116,0.181586,9.76549,0.631851,0.21,-0.27,0.195,-46.7578,-53.0777,-19.4197,1001.32
81122,0.181586,9.76549,0.631851,0.28,-0.06,0.055,-47.1963,-52.8731,-19.7997,1001.37
81128,0.181586,9.76549,0.631851,0.21,-0.06,0.125,-47.3717,-52.6392,-20.2089,1001.37
81134,0.181586,9.76549,0.631851,0.14,-0.2,0.125,-46.6409,-52.9315,-19.1274,1001.34
81140,0.181586,9.76549,0.631851,0.14,0.08,0.335,-46.2317,-52.6392,-19.4781,1001.34
81146,0.181586,9.76549,0.631851,0.28,-0.2,0.195,-46.5825,-52.9315,-19.7704,1001.29
81152,0.181586,9.76549,0.631851,0.35,-0.27,0.125,-46.4071,-53.1361,-18.7327,1001.29
81158,0.181586,9.76549,0.631851,0.28,-0.27,0.125,-46.3194,-52.7269,-18.4404,1001.33
81164,0.181586,9.76549,0.631851,0.21,-0.06,0.125,-46.2901,-52.8146,-19.6389,1001.33
81170,0.181586,9.76549,0.631851,0.21,-0.13,0.055,-46.1148,-52.8731,-19.4489,1001.33
81176,0.181586,9.76549,0.631851,0.35,-0.27,0.055,-46.5825,-53.3115,-18.4697,1001.37
81182,0.181586,9.76549,0.636601,0.21,-0.13,-0.015,-46.7286,-52.4346,-18.8204,1001.37
81188,0.181586,9.76549,0.636601,0.21,-0.13,0.125,-47.0209,-52.6977,-18.4697,1001.32
81194,0.181586,9.76549,0.636601,0.14,-0.06,0.125,-46.9332,-52.6684,-19.332,1001.32
81200,0.181586,9.76549,0.636601,0.07,-0.06,0.055,-46.9917,-52.7269,-17.9873,1001.34
81206,0.176807,9.76549,0.636601,0.14,0.01,0.055,-46.5532,-52.5223,-17.9581,1001.34
81212,0.176807,9.76549,0.636601,0.35,-0.2,0.055,-46.3778,-52.9607,-18.8204,1001.34
81218,0.176807,9.76549,0.631851,0.28,-0.06,0.055,-46.144,-52.3761,-17.7827,1001.34
81224,0.176807,9.76549,0.631851,0.14,-0.06,-0.015,-46.8748,-52.3761,-18.265,1001.32
81230,0.176807,9.76549,0.631851,0.14,-0.13,-0.085,-46.524,-52.5807,-18.4112,1001.32
81236,0.176807,9.76549,0.631851,0.07,-0.13,-0.085,-48.1317,-53.1946,-21.232,1001.32
81242,0.176807,9.76549,0.631851,-0.07,0.08,0.125,-46.6117,-52.4053,-18.1481,1001.31
81248,0.176807,9.76549,0.631851,0.07,-0.13,-0.015,-46.4071,-52.4346,-19.1858,1001.31
81254,0.176807,9.76549,0.631851,0.21,-0.2,0.055,-46.9332,-52.7854,-18.8643,1001.33
81260,0.176807,9.76549,0.631851,0.21,-0.2,-0.085,-46.7286,-53.6038,-18.2943,1001.33
81266,0.181586,9.76549,0.631851,-0.07,-0.2,-0.085,-46.6117,-53.3992,-18.3966,1001.3
81272,0.181586,9.76549,0.631851,-0.07,-0.2,-0.015,-47.0209,-52.9023,-18.7766,1001.3
81278,0.181586,9.76549,0.631851,0.07,0.08,-0.085,-46.3194,-53.3115,-18.5427,1001.33
81284,0.181586,9.76549,0.631851,0.07,0.01,-0.085,-46.0563,-52.8438,-19.5804,1001.33
81290,0.181586,9.76549,0.631851,0.07,-0.06,-0.085,-46.8163,-52.1423,-18.6158,1001.33
81296,0.181586,9.76549,0.631851,0,-0.06,-0.085,-46.5532,-53.3407,-18.7181,1001.3
81302,0.181586,9.76549,0.631851,0,-0.2,-0.085,-46.3194,-52.99,-19.2151,1001.3
81308,0.181586,9.76549,0.631851,0.07,-0.2,-0.085,-46.7286,-52.61,-19.0835,1001.33
81314,0.181586,9.76549,0.631851,0.07,-0.13,-0.085,-46.2025,-52.99,-19.7558,1001.33
81320,0.181586,9.76549,0.631851,0.07,-0.13,-0.085,-46.3194,-52.5515,-18.0458,1001.28
81326,0.181586,9.77026,0.631851,0,-0.13,-0.085,-45.9978,-52.9607,-19.4928,1001.28
81332,0.181586,9.77026,0.631851,0,-0.13,-0.155,-46.1732,-53.1654,-17.6073,1001.31
81338,0.176807,9.77026,0.631851,0,-0.13,-0.085,-46.2317,-52.8146,-18.265,1001.31
81344,0.176807,9.77026,0.631851,-0.07,0.01,-0.225,-46.904,-52.493,-19.1858,1001.29
81350,0.176807,9.76549,0.631851,0.07,-0.13,-0.085,-46.5532,-53.2823,-17.3296,1001.29
81356,0.176807,9.77026,0.631851,0.14,-0.13,-0.085,-45.764,-53.0192,-17.4758,1001.29
81362,0.176807,9.77026,0.631851,0,-0.06,-0.155,-46.2317,-52.5807,-18.572,1001.33
81368,0.176807,9.77026,0.631851,-0.07,-0.06,-0.225,-46.8748,-52.493,-18.572,1001.33
81374,0.176807,9.77026,0.631851,0,-0.06,-0.225,-46.144,-53.0484,-18.1189,1001.3
81380,0.176807,9.77026,0.631851,0,-0.06,-0.155,-46.9625,-52.7854,-19.3027,1001.3
81386,0.181586,9.77026,0.631851,-0.14,-0.06,-0.155,-46.7286,-52.6684,-18.7181,1001.32
81392,0.181586,9.77026,0.631851,-0.35,0.08,-0.295,-46.2609,-52.61,-18.9374,1001.32
81398,0.181586,9.77026,0.631851,-0.42,0.15,-0.365,-46.4655,-52.4053,-18.8789,1001.35
81404,0.181586,9.77026,0.631851,-0.42,0.01,-0.435,-46.6409,-52.5515,-20.1066,1001.35
81410,0.181586,9.77026,0.631851,-0.49,0.01,-0.365,-46.7286,-53.2531,-19.6097,1001.35
81416,0.181586,9.77026,0.631851,-0.35,0.01,-0.365,-45.9101,-53.5161,-18.7181,1001.32
81422,0.181586,9.77026,0.631851,-0.21,-0.06,-0.295,-46.2901,-53.1654,-18.3381,1001.32
81428,0.181586,9.76549,0.631851,-0.28,0.01,-0.365,-46.2609,-52.9023,-19.142,1001.34
81434,0.181586,9.76549,0.631851,-0.28,0.08,-0.295,-46.4948,-53.4869,-18.5427,1001.34
81440,0.181586,9.76549,0.631851,-0.28,0.08,-0.225,-46.8163,-52.8146,-19.2589,1001.32
81446,0.181586,9.76549,0.631851,-0.35,0.29,-0.015,-46.7578,-53.37,-19.142,1001.32
81452,0.181586,9.76549,0.631851,-0.42,0.22,-0.225,-46.3778,-53.2823,-19.8143,1001.32
81458,0.176807,9.76549,0.631851,-0.35,0.01,-0.225,-46.5532,-52.5223,-18.835,1001.32
81464,0.176807,9.76549,0.631851,-0.14,0.01,-0.155,-46.6117,-52.5807,-20.2966,1001.32
81470,0.176807,9.76549,0.631851,-0.28,0.15,-0.085,-46.4363,-53.0484,-18.6304,1001.3
81476,0.176807,9.76549,0.631851,-0.21,0.01,-0.155,-46.6994,-53.1946,-20.3989,1001.3
81482,0.176807,9.76549,0.631851,-0.14,0.01,-0.015,-46.9332,-52.9607,-18.9812,1001.3
81488,0.176807,9.76549,0.631851,-0.14,0.08,-0.085,-46.8163,-53.1361,-18.6304,1001.3
81494,0.176807,9.76549,0.631851,-0.14,-0.06,-0.085,-46.6409,-52.7269,-18.5427,1001.33
81500,0.176807,9.76549,0.631851,-0.21,0.01,-0.155,-46.2317,-52.5807,-18.5281,1001.33
81506,0.176807,9.76549,0.631851,-0.21,0.01,-0.225,-46.7578,-52.7269,-18.5281,1001.34
81512,0.176807,9.76549,0.631851,-0.35,0.01,-0.155,-46.6702,-53.4869,-18.6304,1001.34
81518,0.176807,9.76549,0.631851,-0.28,0.08,-0.085,-46.8455,-52.99,-17.9289,1001.33
81524,0.176807,9.76549,0.631851,-0.14,0.01,-0.085,-46.2609,-52.3177,-19.2881,1001.33
81530,0.176807,9.76549,0.631851,-0.07,0.01,-0.085,-46.524,-52.99,-17.812,1001.33
81536,0.176807,9.76073,0.631851,0,0.01,0.055,-46.1732,-52.99,-18.4989,1001.33
81542,0.176807,9.76073,0.631851,0.07,-0.2,0.055,-46.6117,-52.7561,-17.7243,1001.33
81548,0.176807,9.76073,0.631851,0,-0.13,-0.015,-46.2901,-53.0192,-18.6889,1001.31
81554,0.172029,9.76073,0.631851,-0.14,0.08,-0.015,-46.0271,-53.2823,-18.952,1001.31
81560,0.172029,9.76073,0.631851,0,-0.06,-0.015,-46.1148,-52.8438,-18.8497,1001.3
81566,0.176807,9.76549,0.631851,0.07,-0.06,-0.015,-47.0794,-52.9607,-18.3089,1001.3
81572,0.176807,9.76549,0.631851,-0.07,0.01,0.055,-46.3486,-52.9315,-18.6304,1001.36
81578,0.176807,9.76073,0.631851,-0.07,0.08,-0.015,-46.524,-53.4577,-18.0166,1001.36
81584,0.176807,9.76073,0.636601,-0.07,0.01,-0.015,-46.524,-52.6684,-19.1274,1001.36
81590,0.176807,9.76073,0.631851,-0.07,0.08,0.055,-46.9625,-52.6977,-18.645,1001.35
81596,0.176807,9.76073,0.636601,-0.07,0.01,-0.015,-46.4655,-52.493,-18.0312,1001.35
81602,0.176807,9.76073,0.636601,0,-0.06,0.055,-46.8163,-52.9315,-17.7096,1001.31
81608,0.176807,9.76073,0.636601,-0.07,0.01,-0.015,-46.6702,-52.61,-17.7243,1001.31
81614,0.176807,9.76073,0.636601,-0.07,0.01,-0.085,-46.8748,-52.7269,-17.6512,1001.33
81620,0.176807,9.76073,0.636601,-0.14,0.08,0.055,-46.4948,-52.3177,-18.9958,1001.33
81626,0.176807,9.76073,0.636601,-0.07,-0.06,-0.085,-46.3194,-52.99,-19.0543,1001.31
81632,0.176807,9.76549,0.636601,0,-0.06,-0.015,-46.5532,-54.0131,-18.455,1001.31
81638,0.176807,9.76549,0.636601,0.07,0.08,0.055,-45.9978,-53.3407,-18.9958,1001.31
81644,0.176807,9.76549,0.636601,-0.07,-0.06,-0.015,-46.6994,-53.2238,-19.3027,1001.33
81650,0.176807,9.76549,0.636601,-0.21,0.5,0.125,-46.7286,-53.4577,-19.0835,1001.33
81656,0.176807,9.76549,0.636601,-0.07,0.08,0.055,-46.0563,-53.0777,-18.265,1001.31
81662,0.176807,9.76549,0.636601,-0.14,-0.06,-0.015,-46.6702,-53.75,-18.9666,1001.31
81668,0.176807,9.76549,0.636601,0,0.01,-0.015,-46.4363,-52.6392,-19.1712,1001.32
81674,0.176807,9.76549,0.636601,0.07,-0.06,-0.015,-46.4948,-52.5807,-17.9873,1001.32
81680,0.172029,9.76549,0.641351,0,-0.06,-0.015,-46.6994,-52.6684,-18.2504,1001.32
81686,0.172029,9.76549,0.636601,-0.07,-0.06,-0.015,-47.1086,-52.493,-19.7997,1001.32
81692,0.172029,9.76549,0.636601,0,-0.06,0.055,-46.9917,-53.8084,-18.5135,1001.31
81698,0.176807,9.76549,0.641351,-0.07,-0.06,-0.015,-47.5471,-53.0192,-18.645,1001.31
81704,0.176807,9.76549,0.636601,-0.07,0.01,0.055,-46.3778,-52.8438,-19.5658,1001.31
81710,0.172029,9.76549,0.636601,-0.07,0.08,-0.085,-46.524,-52.61,-18.8204,1001.32
81716,0.172029,9.76549,0.636601,-0.14,-0.06,0.055,-46.8163,-53.8084,-17.6073,1001.32
81722,0.172029,9.76549,0.636601,-0.28,0.08,-0.085,-47.0794,-53.3992,-17.3589,1001.33
81728,0.172029,9.76549,0.636601,-0.28,0.08,-0.085,-46.8163,-52.9315,-19.4051,1001.33
81734,0.172029,9.76549,0.636601,-0.21,0.15,-0.085,-46.9917,-53.6623,-17.885,1001.32
81740,0.172029,9.76549,0.636601,-0.21,0.08,-0.015,-46.9917,-52.493,-17.7973,1001.32
81746,0.172029,9.76549,0.636601,-0.21,-0.06,-0.015,-46.8163,-52.9315,-18.9812,1001.34
81752,0.172029,9.76549,0.636601,-0.14,0.01,-0.085,-46.9625,-53.0192,-18.9666,1001.34
81758,0.172029,9.76549,0.636601,-0.14,0.08,-0.015,-46.8455,-53.0192,-19.0543,1001.34
81764,0.172029,9.76549,0.641351,-0.07,-0.06,-0.015,-46.4948,-53.6038,-20.5305,1001.31
81770,0.172029,9.76549,0.641351,-0.07,0.01,-0.015,-47.4886,-52.4346,-19.142,1001.31
81776,0.172029,9.76549,0.641351,-0.07,-0.06,0.055,-46.5825,-53.2238,-18.265,1001.37
81782,0.172029,9.76549,0.641351,0,0.01,-0.015,-46.4948,-52.3469,-18.7327,1001.37
81788,0.172029,9.76073,0.641351,0,0.01,-0.085,-47.1963,-53.4577,-19.6535,1001.31
81794,0.172029,9.76073,0.641351,0,0.01,-0.015,-46.5825,-53.0484,-18.7035,1001.31
81800,0.172029,9.76073,0.636601,0,0.01,-0.085,-46.9917,-53.3992,-19.142,1001.32
81806,0.172029,9.76549,0.636601,0.14,-0.06,-0.085,-46.7578,-53.1361,-18.9812,1001.32
81812,0.172029,9.76549,0.636601,0.07,0.01,-0.015,-46.904,-53.0777,-19.0835,1001.34
81818,0.172029,9.76549,0.636601,0,-0.06,-0.155,-46.6994,-53.1069,-18.8935,1001.34
81824,0.172029,9.76549,0.636601,-0.14,0.01,-0.085,-46.4948,-53.3992,-18.3089,1001.34
81830,0.172029,9.76549,0.636601,-0.07,-0.06,-0.015,-46.7578,-52.99,-19.4781,1001.34
81836,0.172029,9.76549,0.636601,0.07,-0.2,-0.085,-46.8455,-53.4869,-19.0981,1001.34
81842,0.172029,9.76549,0.636601,-0.07,-0.13,-0.015,-46.7578,-52.3761,-18.9666,1001.32
81848,0.172029,9.76549,0.636601,-0.14,0.15,-0.015,-46.7578,-52.61,-19.6097,1001.32
81854,0.172029,9.77026,0.636601,0,0.22,0.265,-46.4363,-53.6331,-19.0543,1001.33
81860,0.172029,9.77026,0.636601,0.07,0.01,-0.015,-46.2025,-52.493,-20.1505,1001.33
81866,0.172029,9.76549,0.636601,-0.07,-0.06,-0.085,-46.524,-52.5807,-19.2735,1001.32
81872,0.172029,9.76549,0.636601,0,-0.13,-0.085,-47.2255,-53.4869,-18.6743,1001.32
81878,0.172029,9.76549,0.636601,0.14,0.01,-0.015,-46.4071,-53.3992,-19.7851,1001.32
81884,0.172029,9.76549,0.636601,0.07,-0.13,-0.015,-47.2255,-53.1946,-18.9227,1001.31
81890,0.172029,9.76549,0.636601,0,0.01,-0.015,-46.8455,-52.6684,-18.2066,1001.31
81896,0.172029,9.76549,0.636601,0,-0.06,-0.015,-46.904,-52.5807,-17.8997,1001.32
81902,0.172029,9.76549,0.636601,0.07,-0.06,-0.085,-47.3132,-52.9315,-18.8643,1001.32
81908,0.172029,9.76549,0.636601,-0.07,0.01,-0.015,-47.3717,-53.3407,-19.0104,1001.32
81914,0.172029,9.77026,0.636601,-0.14,-0.06,-0.015,-46.7871,-53.3115,-18.8935,1001.32
81920,0.172029,9.77026,0.636601,0,-0.06,-0.085,-46.4655,-53.8669,-18.3673,1001.32
81926,0.172029,9.77026,0.636601,-0.14,0.08,-0.085,-46.524,-52.4346,-18.4989,1001.32
81932,0.172029,9.77026,0.636601,-0.21,0.01,-0.085,-46.8455,-53.6038,-18.8058,1001.32
81938,0.172029,9.77026,0.636601,-0.14,0.01,-0.085,-46.6994,-53.6623,-18.1481,1001.36
81944,0.172029,9.77026,0.636601,-0.07,0.08,-0.155,-46.3486,-53.1654,-18.8204,1001.36
81950,0.172029,9.77026,0.636601,-0.14,0.01,-0.155,-46.7871,-52.4638,-19.0543,1001.31
81956,0.172029,9.76549,0.636601,-0.07,-0.06,-0.365,-46.4363,-52.1715,-17.9873,1001.31
81962,0.172029,9.76549,0.636601,0,-0.06,-0.225,-46.7871,-52.99,-18.952,1001.28
81968,0.172029,9.76549,0.636601,-0.07,0.01,-0.015,-46.5825,-53.37,-18.8789,1001.28
81974,0.172029,9.76549,0.636601,-0.07,-0.06,-0.085,-46.524,-52.5807,-18.265,1001.34
81980,0.172029,9.76549,0.636601,-0.07,-0.06,0.055,-46.6702,-52.9023,-18.8058,1001.34
81986,0.172029,9.76549,0.636601,0.07,0.01,0.055,-46.9332,-52.9607,-18.7474,1001.33
81992,0.172029,9.76549,0.631851,-0.14,-0.06,-0.015,-46.4655,-52.6977,-19.7704,1001.33
81998,0.172029,9.76549,0.631851,-0.14,0.08,-0.155,-46.8163,-52.99,-19.2443,1001.33
82004,0.172029,9.76549,0.631851,-0.07,0.01,-0.085,-46.9332,-52.5807,-19.4781,1001.34
82010,0.172029,9.76549,0.636601,0.14,-0.13,-0.015,-46.2025,-53.1654,-18.3673,1001.34
82016,0.172029,9.76549,0.631851,0,-0.13,-0.015,-46.2609,-53.5746,-17.7827,1001.33
82022,0.172029,9.76549,0.631851,-0.14,0.01,-0.015,-46.4363,-52.3761,-18.265,1001.33
82028,0.172029,9.76549,0.631851,-0.07,-0.06,-0.015,-46.5532,-53.5746,-19.3174,1001.34
82034,0.172029,9.76549,0.631851,-0.07,0.01,-0.015,-46.6409,-53.3992,-18.8935,1001.34
82040,0.172029,9.76549,0.631851,-0.07,-0.13,-0.085,-46.5825,-52.99,-17.812,1001.36
82046,0.172029,9.76549,0.631851,0,-0.06,-0.085,-46.524,-52.8438,-19.2004,1001.36
82052,0.172029,9.76549,0.631851,0,0.01,-0.085,-46.4363,-52.6392,-18.382,1001.36
82058,0.172029,9.76549,0.631851,-0.28,0.64,0.335,-46.0271,-53.0777,-19.142,1001.36
82064,0.172029,9.76549,0.631851,-0.07,0.08,0.195,-46.6702,-52.61,-18.7474,1001.36
82070,0.172029,9.76549,0.631851,0.07,-0.06,0.055,-46.6117,-53.5454,-19.6974,1001.31
82076,0.172029,9.76549,0.631851,0,0.01,-0.015,-46.524,-52.6977,-18.4112,1001.31
82082,0.172029,9.76073,0.631851,0,-0.06,0.125,-46.6409,-53.3407,-18.4989,1001.31
82088,0.172029,9.76073,0.631851,0.07,0.01,0.055,-46.3486,-52.4638,-19.6243,1001.31
82094,0.172029,9.76073,0.631851,-0.07,0.01,-0.015,-46.0271,-52.7269,-18.0897,1001.32
82100,0.172029,9.76073,0.631851,-0.14,0.01,-0.015,-46.1148,-53.1946,-19.0104,1001.32
82106,0.172029,9.76073,0.631851,0,0.01,-0.085,-46.2317,-52.6392,-18.9227,1001.32
82112,0.172029,9.76073,0.631851,-0.07,-0.06,-0.015,-46.3486,-52.8731,-19.6243,1001.34
82118,0.172029,9.76073,0.631851,-0.07,0.01,-0.015,-46.3486,-53.2531,-19.2589,1001.34
82124,0.172029,9.76073,0.631851,-0.21,0.01,-0.015,-46.0855,-52.6684,-19.3612,1001.32
82130,0.172029,9.76073,0.631851,0.07,-0.06,-0.015,-45.9394,-52.6684,-18.7181,1001.32
82136,0.172029,9.76073,0.631851,0.07,-0.06,0.055,-46.5532,-52.99,-17.8558,1001.32
82142,0.172029,9.76073,0.631851,0,0.08,-0.015,-46.9917,-52.6684,-18.4258,1001.32
82148,0.172029,9.76073,0.631851,-0.14,0.01,-0.015,-46.7578,-52.99,-19.9166,1001.35
82154,0.172029,9.76073,0.631851,-0.07,0.01,0.055,-47.0794,-53.37,-17.4027,1001.35
82160,0.172029,9.76073,0.631851,0,0.01,-0.225,-46.0855,-53.1654,-18.382,1001.32
82166,0.172029,9.76073,0.631851,-0.07,0.08,-0.015,-46.5825,-52.7561,-17.9727,1001.32
82172,0.172029,9.76073,0.631851,0.07,-0.06,-0.015,-46.3194,-53.2823,-18.265,1001.32
82178,0.172029,9.76073,0.631851,0.14,-0.13,0.055,-46.7286,-53.2531,-18.382,1001.36
82184,0.172029,9.76073,0.631851,0.07,-0.13,0.055,-46.7578,-52.7854,-19.9458,1001.36
82190,0.172029,9.76073,0.631851,-0.07,-0.06,0.055,-46.7578,-52.5515,-18.075,1001.32
82196,0.172029,9.76073,0.631851,0.14,-0.06,0.125,-46.8748,-52.9023,-17.9143,1001.32
82202,0.172029,9.76073,0.631851,0.14,-0.13,-0.015,-46.5825,-52.8438,-19.0689,1001.32
82208,0.172029,9.76073,0.631851,0.07,-0.06,0.055,-47.1379,-52.7269,-18.952,1001.32
82214,0.172029,9.76073,0.631851,0,0.08,0.125,-47.1671,-54.0131,-18.0166,1001.31
82220,0.172029,9.76073,0.631851,0.07,-0.06,0.055,-46.7871,-53.7792,-19.1858,1001.31
82226,0.172029,9.76073,0.631851,0.21,0.01,0.125,-47.0502,-53.2531,-18.1189,1001.31
82232,0.172029,9.76073,0.631851,0.14,-0.13,0.125,-46.9625,-53.0484,-19.1712,1001.32
82238,0.172029,9.76073,0.631851,0.07,-0.06,0.125,-46.6994,-53.37,-19.9751,1001.32
82244,0.172029,9.76073,0.631851,0.07,-0.13,0.055,-47.284,-53.3407,-18.2066,1001.31
82250,0.172029,9.76073,0.631851,0,-0.13,0.125,-47.0209,-53.1946,-19.6535,1001.31
82256,0.172029,9.76073,0.631851,-0.07,-0.2,0.125,-46.2609,-53.9838,-18.3089,1001.32
82262,0.172029,9.76073,0.631851,-0.07,-0.06,0.125,-49.0379,-52.2592,-18.8643,1001.32
82268,0.172029,9.76073,0.631851,0.14,0.01,0.335,-46.8455,-53.9546,-18.5574,1001.28
82274,0.172029,9.76073,0.631851,0.14,-0.13,0.195,-46.6994,-52.6684,-19.1566,1001.28
82280,0.172029,9.76073,0.631851,0.21,-0.13,0.195,-46.9625,-53.2823,-19.9751,1001.31
82286,0.172029,9.76073,0.631851,0.28,-0.06,0.265,-46.6702,-52.8438,-19.0104,1001.31
82292,0.172029,9.76073,0.631851,0.07,-0.06,0.195,-46.524,-52.8438,-19.0397,1001.31
82298,0.172029,9.76073,0.631851,0.14,-0.13,0.265,-47.0794,-52.9315,-17.7973,1001.29
82304,0.172029,9.76073,0.631851,0.07,-0.06,0.195,-46.8748,-53.0192,-19.3466,1001.29
82310,0.172029,9.76073,0.631851,0.07,-0.13,0.125,-47.8102,-53.2238,-19.4343,1001.33
82316,0.172029,9.76073,0.631851,0,-0.2,0.125,-47.1963,-53.0192,-19.0835,1001.33
82322,0.172029,9.76073,0.631851,0,-0.06,0.055,-46.9625,-52.8146,-19.142,1001.32
82328,0.172029,9.76073,0.631851,0,0.01,0.055,-46.9917,-53.1946,-19.3466,1001.32
82334,0.172029,9.76073,0.631851,0,-0.06,-0.015,-47.9271,-53.37,-18.5866,1001.32
82340,0.172029,9.76073,0.631851,-0.07,-0.13,0.055,-46.524,-52.99,-18.192,1001.32
82346,0.172029,9.76073,0.631851,0.07,-0.13,0.125,-46.7286,-53.0484,-18.4112,1001.32
82352,0.172029,9.76073,0.631851,0,0.08,0.125,-46.904,-53.2238,-18.3381,1001.32
82358,0.172029,9.76073,0.631851,0,0.01,0.195,-47.0794,-53.1654,-18.9081,1001.32
82364,0.172029,9.76073,0.631851,0,0.08,-0.015,-48.3948,-53.5454,-18.8204,1001.32
82370,0.172029,9.76073,0.631851,0.07,0.08,0.125,-46.904,-53.1361,-18.455,1001.32
82376,0.172029,9.76073,0.631851,0,0.08,0.265,-46.6117,-53.4577,-19.6681,1001.34
82382,0.172029,9.76073,0.631851,-0.07,0.08,0.125,-46.8163,-53.0777,-19.332,1001.34
82388,0.172029,9.76073,0.631851,0,0.01,0.125,-46.6994,-52.3177,-18.9812,1001.31
82394,0.172029,9.76073,0.631851,0.14,0.01,0.125,-46.5825,-53.0192,-18.2358,1001.31
82400,0.172029,9.76549,0.631851,0.07,0.08,0.125,-46.6117,-53.1361,-19.0104,1001.31
82406,0.172029,9.76549,0.631851,-0.07,-0.06,0.055,-46.904,-52.99,-20.1066,1001.35
82412,0.172029,9.76549,0.631851,0,-0.06,-0.155,-46.8455,-53.3115,-19.4197,1001.35
82418,0.172029,9.76549,0.631851,-0.07,0.01,-0.085,-46.2025,-53.2531,-19.0835,1001.31
82424,0.172029,9.76549,0.631851,-0.14,0.01,-0.015,-46.144,-52.8438,-18.8204,1001.31
82430,0.172029,9.76549,0.631851,-0.14,-0.06,-0.085,-46.9625,-53.0192,-19.0689,1001.33
82436,0.172029,9.76549,0.631851,-0.07,-0.06,-0.085,-46.5532,-53.2238,-18.7912,1001.33
82442,0.172029,9.76549,0.627101,-0.14,0.01,0.055,-47.5763,-52.2884,-18.952,1001.32
82448,0.172029,9.76549,0.631851,-0.35,-0.06,-0.085,-46.8455,-52.9607,-19.7266,1001.32
82454,0.172029,9.76549,0.631851,-0.21,0.01,-0.225,-46.7871,-53.0777,-19.1712,1001.32
82460,0.176807,9.76549,0.631851,-0.14,-0.06,-0.155,-46.3778,-53.0192,-19.5366,1001.32
82466,0.176807,9.76549,0.631851,-0.28,0.01,-0.155,-48.1317,-54.1885,-19.1127,1001.32
82472,0.172029,9.76549,0.631851,-0.14,0.01,0.125,-46.7578,-53.37,-19.0689,1001.31
82478,0.176807,9.76549,0.631851,-0.21,0.08,-0.155,-46.5825,-52.8438,-19.4928,1001.31
82484,0.176807,9.76549,0.631851,-0.21,-0.06,-0.085,-46.6702,-52.99,-18.3089,1001.31
82490,0.176807,9.76549,0.631851,-0.14,0.01,-0.085,-46.4948,-53.2238,-19.6974,1001.31
82496,0.176807,9.76549,0.631851,-0.21,0.01,-0.085,-46.0271,-53.6331,-17.5635,1001.27
82502,0.172029,9.76549,0.631851,-0.21,-0.13,-0.085,-46.5532,-52.3177,-17.3296,1001.27
82508,0.176807,9.76073,0.631851,0,-0.13,-0.155,-46.3194,-53.3407,-18.0604,1001.3
82514,0.176807,9.76073,0.631851,0.07,-0.13,-0.155,-46.904,-53.2238,-18.8497,1001.3
82520,0.176807,9.76073,0.631851,-0.07,-0.2,-0.155,-46.6117,-52.8438,-18.6743,1001.3
82526,0.176807,9.76073,0.636601,0.14,-0.2,-0.085,-46.4655,-53.3992,-19.0543,1001.32
82532,0.176807,9.76073,0.636601,0.07,-0.13,-0.155,-46.6409,-53.2238,-17.5781,1001.32
82538,0.176807,9.76073,0.631851,-0.07,-0.13,-0.085,-47.0502,-52.6977,-18.3381,1001.34
82544,0.172029,9.76073,0.636601,0.14,-0.27,-0.015,-47.3132,-52.493,-18.7035,1001.34
82550,0.172029,9.76073,0.636601,0.21,-0.2,-0.085,-47.5471,-53.1069,-18.1773,1001.34
82556,0.172029,9.76073,0.631851,0.21,-0.2,-0.015,-47.3132,-53.0192,-19.3904,1001.34
82562,0.172029,9.76073,0.631851,0.07,-0.13,-0.085,-46.8163,-52.9315,-18.6158,1001.32
82568,0.172029,9.76073,0.631851,0.14,-0.13,0.055,-46.4071,-52.5807,-18.8204,1001.32
82574,0.172029,9.76073,0.631851,-0.21,0.5,0.125,-46.8748,-53.6623,-18.7181,1001.32
82580,0.172029,9.76073,0.631851,-0.14,0.15,-0.015,-46.7871,-52.7854,-18.7181,1001.3
82586,0.172029,9.76073,0.631851,0,-0.13,-0.015,-46.3194,-52.4638,-18.7474,1001.3
82592,0.172029,9.76073,0.631851,0.07,0.01,0.055,-46.8455,-53.4284,-19.0835,1001.33
82598,0.172029,9.76073,0.631851,0,-0.06,-0.015,-47.0502,-53.6915,-19.2297,1001.33
82604,0.176807,9.76073,0.631851,-0.07,-0.13,-0.155,-46.4948,-53.3407,-19.712,1001.32
82610,0.176807,9.76073,0.631851,-0.14,0.01,-0.225,-46.2317,-53.2531,-18.6889,1001.32
82616,0.176807,9.76073,0.631851,-0.14,-0.06,-0.225,-46.2901,-53.0484,-18.9812,1001.32
82622,0.176807,9.76073,0.631851,-0.21,-0.06,-0.155,-46.6994,-52.4053,-18.8789,1001.32
82628,0.176807,9.76073,0.631851,-0.21,0.01,-0.085,-46.5825,-52.7269,-19.6681,1001.3
82634,0.176807,9.76073,0.631851,-0.14,-0.06,-0.085,-46.4363,-53.3115,-18.1335,1001.3
82640,0.176807,9.76073,0.631851,-0.07,-0.06,-0.155,-46.8163,-52.8438,-19.712,1001.3
82646,0.176807,9.76073,0.631851,-0.21,-0.06,-0.155,-47.7225,-52.5223,-19.6243,1001.33
82652,0.176807,9.76073,0.631851,-0.14,-0.06,-0.085,-45.8809,-53.1946,-18.2212,1001.33
82658,0.176807,9.76073,0.631851,-0.21,-0.13,-0.155,-46.6702,-53.0777,-18.9227,1001.33
82664,0.176807,9.76073,0.631851,-0.28,-0.06,-0.155,-46.3778,-53.0192,-18.2066,1001.33
82670,0.176807,9.76073,0.631851,-0.14,0.01,-0.155,-48.7163,-52.6977,-17.885,1001.3
82676,0.176807,9.76073,0.631851,-0.14,0.29,0.195,-47.2548,-53.5746,-17.9873,1001.3
82682,0.176807,9.76073,0.631851,-0.14,-0.06,-0.155,-46.904,-52.6977,-19.1566,1001.34
82688,0.172029,9.76073,0.631851,-0.07,-0.06,-0.015,-46.4363,-52.4638,-19.1858,1001.34
82694,0.172029,9.76073,0.631851,-0.07,-0.06,0.125,-46.3778,-52.9315,-18.8935,1001.34
82700,0.172029,9.76073,0.631851,0,-0.06,-0.085,-46.144,-52.5807,-18.7766,1001.32
82706,0.172029,9.76549,0.631851,-0.07,-0.06,-0.155,-47.0209,-52.99,-19.4489,1001.32
82712,0.176807,9.76549,0.631851,-0.14,-0.06,-0.155,-46.4363,-52.4346,-20.1066,1001.34
82718,0.172029,9.76073,0.631851,-0.14,0.01,-0.015,-47.2548,-53.1654,-18.9081,1001.34
82724,0.176807,9.76073,0.631851,-0.07,-0.06,-0.085,-46.7578,-52.8438,-18.4697,1001.31
82730,0.176807,9.76073,0.631851,-0.07,-0.06,-0.225,-46.7578,-53.0777,-17.5635,1001.31
82736,0.176807,9.76073,0.631851,-0.07,-0.06,-0.155,-46.7578,-53.6331,-18.8789,1001.32
82742,0.176807,9.76073,0.631851,-0.28,0.01,-0.155,-47.2255,-52.6392,-19.0689,1001.32
82748,0.176807,9.76073,0.631851,-0.14,-0.06,-0.155,-46.8455,-52.5807,-18.645,1001.32
82754,0.176807,9.76073,0.636601,-0.14,-0.06,-0.085,-46.0855,-53.0484,-19.142,1001.32
82760,0.176807,9.76073,0.636601,-0.14,0.08,-0.085,-46.4948,-53.1069,-19.712,1001.32
82766,0.176807,9.76073,0.636601,-0.07,0.01,-0.225,-47.284,-52.8146,-18.265,1001.31
82772,0.176807,9.76073,0.636601,-0.28,0.08,-0.155,-46.8455,-52.6977,-18.8497,1001.31
82778,0.176807,9.76073,0.636601,-0.28,0.29,0.125,-45.9686,-53.5746,-19.4343,1001.3
82784,0.176807,9.76073,0.636601,-0.28,0.15,-0.085,-47.0502,-52.7854,-18.382,1001.3
82790,0.176807,9.76073,0.636601,-0.14,0.08,-0.225,-46.3778,-52.9315,-18.9374,1001.32
82796,0.176807,9.76073,0.631851,-0.14,0.08,-0.155,-47.4302,-53.5454,-19.0397,1001.32
82802,0.176807,9.76549,0.636601,-0.21,0.01,-0.225,-46.7286,-53.0484,-19.2297,1001.31
82808,0.176807,9.76549,0.636601,-0.21,0.01,-0.155,-46.0855,-52.5223,-18.5135,1001.31
82814,0.176807,9.76549,0.636601,-0.07,-0.06,-0.225,-46.0563,-53.4577,-19.3174,1001.31
82820,0.176807,9.76549,0.636601,-0.21,0.15,-0.225,-46.2609,-53.2238,-19.2589,1001.32
82826,0.176807,9.76549,0.636601,-0.28,0.01,-0.295,-46.8748,-52.493,-18.1335,1001.32
82832,0.176807,9.76549,0.636601,-0.35,0.15,-0.225,-46.144,-52.99,-19.0543,1001.3
82838,0.176807,9.76549,0.636601,-0.28,0.01,-0.225,-47.3425,-53.4869,-18.7912,1001.3
82844,0.176807,9.76549,0.636601,0,0.01,-0.225,-46.524,-52.6684,-19.4343,1001.29
82850,0.176807,9.76549,0.636601,-0.21,0.15,-0.155,-47.1671,-52.9315,-18.9812,1001.29
82856,0.176807,9.76549,0.636601,-0.28,0.01,-0.155,-46.4071,-53.3407,-18.6597,1001.36
82862,0.176807,9.76549,0.636601,-0.28,0.08,-0.085,-46.2317,-52.8731,-19.3466,1001.36
82868,0.176807,9.76549,0.636601,-0.07,0.08,-0.155,-47.1086,-52.2884,-17.125,1001.36
82874,0.176807,9.76073,0.636601,0,-0.06,-0.085,-46.4363,-52.3177,-18.5574,1001.34
82880,0.176807,9.76073,0.636601,-0.21,0.15,-0.085,-46.4071,-53.2531,-19.4489,1001.34
82886,0.172029,9.76073,0.636601,-0.35,0.01,-0.155,-46.0563,-52.6977,-19.8874,1001.32
82892,0.172029,9.76073,0.636601,-0.14,0.08,-0.155,-46.4363,-52.9607,-19.0689,1001.32
82898,0.172029,9.76073,0.636601,-0.07,0.15,-0.155,-46.8748,-52.4638,-19.8289,1001.33
82904,0.172029,9.76073,0.636601,0.07,0.01,-0.085,-46.6409,-52.23,-19.6097,1001.33
82910,0.172029,9.76073,0.636601,0,-0.06,-0.085,-46.6117,-53.0192,-17.695,1001.32
82916,0.172029,9.76073,0.636601,-0.14,0.01,-0.085,-46.9625,-53.2238,-18.4404,1001.32
82922,0.172029,9.76073,0.636601,-0.07,0.01,-0.015,-47.1671,-52.8146,-18.9958,1001.31
82928,0.176807,9.76549,0.636601,-0.14,-0.06,-0.155,-47.0209,-52.6392,-19.6389,1001.31
82934,0.176807,9.76549,0.636601,-0.14,0.15,-0.155,-46.524,-53.0484,-18.5427,1001.31
82940,0.176807,9.76549,0.636601,-0.14,-0.06,-0.155,-46.6994,-53.2238,-18.3673,1001.32
82946,0.176807,9.76549,0.636601,-0.14,-0.06,-0.155,-46.9332,-52.3469,-19.7997,1001.32
82952,0.172029,9.76549,0.636601,-0.14,-0.06,-0.155,-46.9917,-52.99,-18.9374,1001.34
82958,0.172029,9.76073,0.636601,-0.14,0.01,-0.155,-47.4302,-52.8146,-18.8789,1001.34
82964,0.172029,9.76073,0.636601,-0.07,-0.13,-0.155,-46.8163,-52.4638,-18.762,1001.32
82970,0.172029,9.76073,0.636601,-0.21,0.01,-0.225,-46.4071,-52.7269,-18.2943,1001.32
82976,0.172029,9.76073,0.636601,-0.21,0.08,-0.225,-46.6702,-53.5161,-19.5512,1001.32
82982,0.176807,9.76073,0.636601,-0.07,0.08,-0.225,-46.524,-52.8146,-18.1335,1001.32
82988,0.176807,9.76073,0.636601,-0.14,0.01,-0.085,-46.6702,-52.8731,-18.7327,1001.32
82994,0.176807,9.76073,0.636601,-0.21,0.08,-0.085,-46.5825,-52.9607,-17.8412,1001.31
83000,0.176807,9.76073,0.636601,-0.14,0.08,-0.155,-47.4302,-52.493,-18.3673,1001.31
83006,0.176807,9.76073,0.641351,-0.14,0.08,-0.085,-46.4655,-52.3177,-19.0104,1001.28
83012,0.176807,9.76073,0.641351,-0.14,-0.06,-0.155,-46.6117,-52.7854,-18.2943,1001.28
83018,0.176807,9.76073,0.641351,-0.21,-0.13,-0.155,-47.3132,-52.493,-19.332,1001.31
83024,0.176807,9.76073,0.636601,-0.14,0.08,-0.225,-46.7871,-52.8438,-18.7474,1001.31
83030,0.176807,9.76073,0.636601,-0.21,0.08,-0.225,-47.4009,-52.6977,-19.6097,1001.31
83036,0.176807,9.76073,0.641351,-0.21,0.01,-0.155,-47.0209,-52.7269,-18.8058,1001.31
83042,0.176807,9.76073,0.641351,-0.14,0.01,-0.155,-46.8163,-52.7561,-18.2212,1001.31
83048,0.176807,9.76549,0.641351,-0.21,0.08,-0.155,-46.7578,-53.1361,-18.2943,1001.36
83054,0.176807,9.76549,0.641351,-0.28,0.08,-0.155,-46.6702,-52.6684,-18.762,1001.36
83060,0.176807,9.76549,0.641351,-0.28,0.15,-0.155,-46.524,-52.2884,-18.3089,1001.33
83066,0.176807,9.76549,0.636601,-0.21,0.01,-0.155,-47.1379,-52.1423,-19.3612,1001.33
83072,0.176807,9.76549,0.641351,0.07,0.01,-0.085,-47.0502,-53.2823,-18.455,1001.33
83078,0.176807,9.76549,0.641351,0.14,-0.2,-0.085,-46.2901,-52.4053,-18.382,1001.33
83084,0.172029,9.76549,0.636601,0.07,-0.13,0.265,-46.6994,-52.3469,-19.8435,1001.33
83090,0.172029,9.76549,0.636601,-0.07,-0.06,-0.015,-47.1671,-52.6684,-18.2504,1001.33
83096,0.172029,9.76073,0.641351,-0.07,-0.13,-0.085,-47.1671,-52.9023,-17.9581,1001.32
83102,0.172029,9.76073,0.641351,0.07,-0.13,-0.085,-46.7286,-52.1423,-17.5489,1001.32
83108,0.172029,9.76073,0.641351,0.07,-0.06,-0.015,-47.1086,-52.6977,-19.5512,1001.32
83114,0.172029,9.76549,0.636601,-0.07,0.01,-0.085,-46.6409,-52.7854,-18.4258,1001.33
83120,0.172029,9.76549,0.636601,-0.07,-0.06,-0.085,-47.3425,-52.6977,-20.9543,1001.33
83126,0.172029,9.76073,0.636601,0.07,-0.13,0.055,-46.4071,-52.2884,-18.3527,1001.32
83132,0.172029,9.76549,0.636601,0.14,0.01,0.055,-46.5825,-52.5223,-18.6743,1001.32
83138,0.172029,9.76549,0.636601,0.07,-0.13,0.125,-46.9917,-53.2238,-19.2881,1001.33
83144,0.172029,9.76549,0.636601,0,0.01,-0.015,-46.7286,-53.4577,-19.2735,1001.33
83150,0.172029,9.76549,0.636601,-0.07,0.01,-0.015,-46.4948,-52.493,-19.6243,1001.34
83156,0.172029,9.76549,0.636601,0.07,-0.06,-0.085,-46.524,-53.4869,-19.0543,1001.34
83162,0.172029,9.76549,0.636601,-0.07,0.01,-0.085,-46.8748,-52.493,-17.9727,1001.34
83168,0.172029,9.76549,0.636601,-0.07,-0.06,-0.015,-47.0502,-53.1069,-18.2358,1001.3
83174,0.172029,9.76549,0.636601,0.07,-0.06,-0.085,-45.9978,-53.0192,-18.2212,1001.3
83180,0.172029,9.76549,0.636601,0.07,0.01,-0.015,-47.1963,-52.5223,-17.7096,1001.32
83186,0.172029,9.76549,0.636601,0.07,0.01,-0.015,-47.1671,-52.4346,-19.1858,1001.32
83192,0.172029,9.76549,0.636601,0.07,0.08,-0.085,-46.8455,-53.2238,-18.3089,1001.32
83198,0.172029,9.76549,0.636601,0,0.01,-0.015,-47.3717,-52.8731,-19.7412,1001.32
83204,0.172029,9.76549,0.636601,0,-0.06,0.055,-46.7871,-53.37,-18.572,1001.32
83210,0.172029,9.76549,0.631851,0.07,0.01,-0.155,-47.3717,-52.9315,-17.812,1001.32
83216,0.172029,9.76549,0.631851,0.14,-0.06,0.055,-47.0502,-52.9023,-17.9873,1001.3
83222,0.172029,9.76549,0.631851,0.07,-0.06,-0.015,-46.6117,-52.5807,-17.6073,1001.3
83228,0.172029,9.76549,0.631851,-0.07,0.01,0.055,-47.5179,-52.5807,-18.572,1001.3
83234,0.172029,9.76549,0.631851,0,-0.06,0.055,-47.2255,-53.3115,-18.6743,1001.31
83240,0.172029,9.76549,0.631851,0,-0.06,-0.015,-47.5179,-52.4346,-18.1335,1001.31
83246,0.172029,9.76549,0.631851,-0.07,0.01,-0.015,-47.1963,-51.9669,-20.5158,1001.34
83252,0.172029,9.76549,0.631851,0.07,0.01,-0.015,-46.7286,-52.6684,-18.8497,1001.34
83258,0.172029,9.76073,0.631851,0.07,-0.13,0.055,-47.4594,-52.6977,-18.6597,1001.34
83264,0.172029,9.76073,0.631851,0,0.08,0.055,-47.4009,-52.4346,-18.5574,1001.34
83270,0.172029,9.76073,0.631851,0,-0.06,-0.015,-46.8455,-52.5807,-19.0981,1001.3
83276,0.172029,9.76073,0.627101,0,-0.13,0.055,-46.7286,-52.3761,-18.2797,1001.3
83282,0.172029,9.76073,0.627101,0,-0.06,-0.015,-47.0209,-52.7561,-18.8497,1001.3
83288,0.172029,9.76073,0.627101,0.14,-0.41,0.055,-46.7871,-52.5515,-18.4112,1001.32
83294,0.172029,9.76549,0.627101,0.07,-0.2,-0.015,-47.2255,-53.1069,-18.7035,1001.32
83300,0.172029,9.76549,0.627101,-0.07,-0.13,-0.015,-46.6702,-51.8207,-18.455,1001.32
83306,0.172029,9.76549,0.627101,0.07,0.01,-0.085,-46.7286,-52.9607,-19.3758,1001.32
83312,0.172029,9.76549,0.627101,0.07,0.01,-0.085,-47.284,-52.61,-18.6304,1001.33
83318,0.172029,9.76549,0.627101,-0.07,-0.06,-0.015,-46.6702,-53.4869,-18.6158,1001.33
83324,0.172029,9.76549,0.627101,0,-0.06,0.055,-46.6702,-52.6392,-18.6158,1001.32
83330,0.172029,9.76549,0.627101,0.21,-0.13,0.125,-46.8748,-52.2007,-18.8643,1001.32
83336,0.172029,9.76549,0.631851,0.14,-0.06,0.055,-46.8748,-52.8731,-16.8035,1001.32
83342,0.16725,9.76549,0.631851,0,0.01,0.055,-47.4594,-52.9023,-18.0604,1001.31
83348,0.16725,9.76073,0.631851,0.07,-0.06,-0.015,-46.6409,-52.23,-17.4758,1001.31
83354,0.16725,9.76073,0.631851,0.07,0.01,0.055,-47.0502,-53.7208,-18.002,1001.34
83360,0.172029,9.76073,0.631851,0.07,-0.13,0.055,-46.6117,-53.2823,-18.455,1001.34
83366,0.172029,9.76549,0.631851,0,-0.06,0.055,-46.524,-52.8438,-18.6158,1001.34
83372,0.172029,9.76549,0.631851,0,-0.06,0.055,-46.3778,-53.8084,-17.3735,1001.34
83378,0.172029,9.76073,0.627101,0.07,-0.06,0.055,-46.2025,-53.0484,-18.762,1001.34
83384,0.172029,9.76073,0.627101,0,-0.13,-0.085,-46.2317,-53.1069,-19.3174,1001.34
83390,0.172029,9.76073,0.627101,0,-0.06,-0.155,-46.6702,-53.5746,-17.9143,1001.29
83396,0.172029,9.76073,0.627101,-0.07,-0.06,-0.085,-46.4071,-53.5746,-18.1189,1001.29
83402,0.172029,9.76073,0.627101,-0.14,-0.06,-0.015,-46.4948,-53.4284,-19.0981,1001.29
83408,0.172029,9.76073,0.627101,-0.14,-0.06,0.125,-46.4655,-52.9023,-18.8058,1001.31
83414,0.172029,9.76073,0.627101,-0.07,-0.06,0.055,-46.4363,-53.2531,-18.572,1001.31
83420,0.16725,9.76073,0.627101,0.14,-0.13,0.055,-46.5532,-52.6392,-18.2943,1001.33
83426,0.16725,9.76073,0.627101,0.21,-0.2,0.195,-46.6409,-52.99,-19.1858,1001.33
83432,0.16725,9.76073,0.627101,0.21,-0.13,0.055,-46.5825,-52.8146,-19.0251,1001.34
83438,0.16725,9.76073,0.627101,0.28,-0.13,0.055,-47.664,-52.9023,-20.8812,1001.34
83444,0.16725,9.76073,0.627101,0.07,-0.06,0.125,-47.2255,-53.1361,-18.762,1001.3
83450,0.16725,9.76073,0.627101,0.07,-0.06,0.055,-46.4363,-52.3177,-17.8704,1001.3
83456,0.16725,9.76073,0.627101,0.21,-0.13,0.125,-45.5886,-52.493,-18.265,1001.3
83462,0.16725,9.76073,0.627101,0.14,-0.13,0.125,-46.1148,-52.7561,-18.8643,1001.31
83468,0.16725,9.76073,0.627101,0.21,-0.13,0.125,-46.524,-52.9315,-18.0166,1001.31
83474,0.16725,9.76073,0.627101,0.07,-0.13,0.055,-46.7871,-53.1069,-18.4697,1001.32
83480,0.16725,9.76073,0.627101,0,-0.06,0.055,-46.2901,-52.9023,-18.1481,1001.32
83486,0.16725,9.76073,0.627101,0.28,-0.2,0.055,-46.7286,-52.4053,-19.4781,1001.35
83492,0.16725,9.76073,0.627101,0.63,-0.69,0.475,-45.9101,-52.8731,-18.3381,1001.35
83498,0.16725,9.76549,0.627101,0.42,-0.34,0.125,-45.7348,-53.4869,-18.8935,1001.31
83504,0.16725,9.76549,0.627101,0.07,-0.13,0.055,-46.5825,-52.0546,-19.0104,1001.31
83510,0.16725,9.76549,0.627101,0.14,-0.06,0.055,-47.0209,-52.7854,-19.9604,1001.31
83516,0.16725,9.76549,0.627101,0.21,-0.13,0.055,-46.3194,-52.493,-17.9289,1001.31
83522,0.16725,9.76549,0.627101,0.42,-0.2,0.055,-46.7871,-52.0253,-18.4258,1001.31
83528,0.16725,9.76549,0.627101,0.21,-0.13,0.055,-46.6117,-52.493,-18.5866,1001.33
83534,0.16725,9.76549,0.627101,0,-0.13,0.055,-47.3425,-52.7269,-18.7912,1001.33
83540,0.16725,9.76073,0.627101,0.14,-0.13,0.125,-46.9332,-52.1715,-18.3381,1001.34
83546,0.16725,9.76549,0.627101,0.28,-0.13,0.125,-46.2901,-52.493,-19.2589,1001.34
83552,0.16725,9.76549,0.627101,0.21,-0.2,0.125,-46.3778,-53.4577,-20.3697,1001.32
83558,0.16725,9.76549,0.627101,0.07,-0.13,0.055,-46.3194,-52.4638,-18.1335,1001.32
83564,0.16725,9.76549,0.627101,-0.07,-0.06,0.125,-46.3486,-52.8438,-18.5427,1001.34
83570,0.16725,9.76549,0.627101,0.07,-0.06,0.055,-46.3194,-52.6684,-18.6597,1001.34
83576,0.16725,9.76073,0.627101,0.07,-0.06,-0.015,-46.3194,-53.5161,-18.382,1001.34
83582,0.16725,9.76073,0.627101,0,-0.06,-0.015,-46.7286,-52.3177,-18.3673,1001.31
83588,0.16725,9.76073,0.627101,-0.07,-0.06,0.055,-46.6117,-53.2823,-18.9081,1001.31
83594,0.16725,9.76073,0.627101,-0.07,-0.06,-0.015,-47.9563,-52.23,-17.2712,1001.34
83600,0.16725,9.76549,0.627101,-0.07,0.08,-0.015,-46.7578,-53.1361,-18.8058,1001.34
83606,0.16725,9.76073,0.627101,0.07,-0.06,-0.015,-46.1148,-52.1423,-19.0251,1001.34
83612,0.16725,9.76073,0.627101,0,-0.06,-0.085,-46.9332,-53.0777,-18.3966,1001.34
83618,0.16725,9.76549,0.627101,0,-0.06,-0.015,-46.524,-52.9315,-18.382,1001.32
83624,0.16725,9.76549,0.627101,0,-0.06,-0.015,-46.4948,-52.8438,-19.0689,1001.32
83630,0.16725,9.76549,0.627101,0.07,-0.06,0.055,-46.5532,-53.0484,-18.8204,1001.32
83636,0.16725,9.76073,0.627101,0.14,-0.13,-0.085,-46.524,-53.1946,-18.192,1001.31
83642,0.16725,9.76073,0.627101,0.07,-0.06,-0.015,-46.6409,-52.6392,-17.9289,1001.31
83648,0.16725,9.76549,0.622351,0.07,-0.13,0.125,-46.7578,-52.8731,-18.8058,1001.33
83654,0.16725,9.76549,0.622351,0,-0.13,-0.015,-46.0271,-52.5807,-18.4112,1001.33
83660,0.16725,9.76549,0.622351,0.07,-0.13,0.055,-47.1379,-52.1715,-19.2297,1001.3
83666,0.16725,9.76549,0.622351,0.14,-0.06,0.125,-46.6117,-52.8146,-18.5866,1001.3
83672,0.16725,9.76549,0.622351,0,-0.06,0.055,-47.2255,-52.7854,-18.8204,1001.32
83678,0.16725,9.76549,0.622351,0.07,-0.13,-0.015,-46.524,-53.2823,-19.0689,1001.32
83684,0.16725,9.76549,0.622351,0.14,-0.06,-0.015,-46.3778,-52.0546,-18.8204,1001.32
83690,0.16725,9.76549,0.622351,0.14,-0.06,0.055,-46.904,-52.4053,-18.5427,1001.32
83696,0.16725,9.76073,0.622351,0.07,0.01,-0.015,-46.8748,-53.2823,-18.8497,1001.32
83702,0.16725,9.76073,0.622351,0,-0.2,-0.365,-46.7286,-52.2592,-19.5658,1001.3
83708,0.16725,9.76073,0.622351,0,-0.06,-0.085,-46.8455,-52.9023,-18.9374,1001.3
83714,0.16725,9.76073,0.622351,0,-0.06,-0.085,-46.2025,-52.7269,-18.5135,1001.33
83720,0.16725,9.76073,0.622351,0,0.01,-0.155,-46.5825,-51.733,-17.6804,1001.33
83726,0.16725,9.76073,0.622351,-0.07,-0.06,-0.085,-46.6117,-52.4346,-18.5866,1001.34
83732,0.16725,9.76073,0.622351,-0.07,-0.06,-0.015,-46.524,-52.9023,-19.8289,1001.34
83738,0.16725,9.76073,0.622351,-0.07,-0.06,-0.085,-46.6117,-52.9607,-19.2881,1001.34
83744,0.16725,9.76073,0.617601,-0.14,0.01,-0.155,-46.6994,-52.99,-19.0543,1001.34
83750,0.16725,9.76073,0.617601,-0.14,0.01,-0.015,-46.4363,-52.493,-19.9604,1001.34
83756,0.16725,9.76073,0.617601,0,0.01,-0.085,-46.6117,-52.7269,-18.3381,1001.32
83762,0.16725,9.76073,0.617601,0,-0.06,-0.015,-47.0794,-52.5515,-18.9958,1001.32
83768,0.16725,9.76073,0.617601,-0.07,0.01,-0.085,-47.0794,-53.0192,-18.8497,1001.33
83774,0.16725,9.76073,0.617601,0,-0.06,-0.085,-46.2317,-52.2884,-18.0897,1001.33
83780,0.16725,9.76073,0.617601,0.07,-0.27,-0.015,-46.0271,-52.7561,-18.0604,1001.31
83786,0.16725,9.76073,0.617601,0,-0.2,-0.085,-45.9978,-52.1715,-19.2004,1001.31
83792,0.172029,9.76073,0.617601,0,-0.13,-0.015,-46.5532,-52.99,-18.6304,1001.34
83798,0.172029,9.76073,0.617601,-0.07,-0.2,-0.085,-46.1148,-52.4053,-18.5135,1001.34
83804,0.172029,9.76073,0.617601,-0.07,-0.06,-0.085,-46.1148,-52.8731,-18.6743,1001.34
83810,0.172029,9.76073,0.622351,-0.07,-0.06,-0.155,-46.4948,-53.2238,-17.7973,1001.29
83816,0.172029,9.76073,0.622351,-0.14,0.01,-0.155,-46.6994,-53.6331,-18.6743,1001.29
83822,0.172029,9.76073,0.622351,-0.07,-0.2,-0.155,-46.6117,-52.9315,-18.1627,1001.34
83828,0.172029,9.76073,0.622351,-0.14,-0.13,-0.085,-46.6117,-52.8731,-17.7681,1001.34
83834,0.172029,9.76073,0.622351,-0.07,0.01,-0.155,-46.6117,-53.2823,-18.0458,1001.32
83840,0.172029,9.76073,0.622351,-0.07,0.01,-0.225,-46.8748,-52.6684,-20.0335,1001.32
83846,0.172029,9.76073,0.617601,0,-0.06,-0.155,-46.2317,-52.4053,-19.0397,1001.33
83852,0.172029,9.76073,0.617601,-0.07,-0.06,-0.085,-47.5179,-51.9084,-17.8997,1001.33
83858,0.16725,9.76073,0.622351,-0.14,-0.06,-0.085,-46.6994,-52.4638,-18.6158,1001.31
83864,0.16725,9.76073,0.622351,0,-0.06,-0.085,-47.284,-52.4346,-19.712,1001.31
83870,0.172029,9.76073,0.622351,0.14,-0.13,-0.085,-46.5532,-53.3407,-18.455,1001.31
83876,0.172029,9.76073,0.622351,0,-0.06,-0.015,-46.0855,-53.37,-17.8704,1001.33
83882,0.172029,9.76073,0.622351,0,-0.13,-0.155,-46.4655,-52.113,-17.6073,1001.33
83888,0.172029,9.76073,0.622351,0,-0.06,-0.085,-47.284,-52.4638,-18.572,1001.33
83894,0.172029,9.76073,0.622351,-0.07,-0.06,-0.085,-47.284,-52.9607,-19.2004,1001.33
83900,0.172029,9.76073,0.622351,-0.14,0.01,-0.085,-46.6409,-52.3761,-19.4781,1001.32
83906,0.172029,9.76073,0.622351,-0.14,-0.06,-0.085,-46.2901,-52.493,-18.5866,1001.32
83912,0.172029,9.76073,0.622351,-0.14,-0.06,-0.085,-47.0209,-52.6977,-19.2151,1001.33
83918,0.172029,9.76073,0.622351,-0.07,-0.13,-0.225,-46.4948,-52.8438,-18.6158,1001.33
83924,0.172029,9.76073,0.622351,0,-0.06,-0.085,-46.524,-51.8207,-19.3758,1001.33
83930,0.172029,9.76073,0.622351,-0.07,-0.06,-0.085,-46.4071,-52.5807,-18.1773,1001.31
83936,0.16725,9.76073,0.622351,-0.14,0.01,-0.085,-46.4071,-52.9315,-19.2589,1001.31
83942,0.172029,9.76073,0.622351,-0.21,-0.06,-0.155,-46.9332,-52.1715,-18.1481,1001.31
83948,0.172029,9.76073,0.622351,-0.07,-0.06,-0.155,-46.2901,-53.6623,-19.0251,1001.31
83954,0.16725,9.76073,0.627101,-0.07,-0.06,-0.085,-46.904,-52.9023,-18.645,1001.33
83960,0.172029,9.76549,0.627101,-0.07,0.01,-0.085,-46.1732,-53.0192,-18.4112,1001.33
83966,0.16725,9.76549,0.627101,-0.07,-0.06,-0.085,-47.0502,-52.9023,-18.6304,1001.3
83972,0.16725,9.76549,0.627101,0.07,-0.13,-0.085,-46.4363,-53.0777,-18.2943,1001.3
83978,0.16725,9.76549,0.627101,0,0.01,-0.225,-46.6994,-52.4638,-19.7704,1001.3
83984,0.16725,9.76549,0.627101,-0.07,-0.2,0.055,-48.5409,-53.6038,-18.9081,1001.3
83990,0.16725,9.76549,0.627101,0.07,-0.06,0.405,-46.2317,-53.0484,-17.6804,1001.3
83996,0.16725,9.76073,0.627101,0,-0.34,-0.365,-48.4825,-53.5746,-19.3612,1001.3
84002,0.16725,9.76073,0.627101,-0.14,0.08,0.195,-46.6117,-54.1592,-21.2466,1001.3
84008,0.16725,9.76073,0.627101,-0.07,0.29,0.405,-47.1963,-52.7561,-17.8704,1001.31
84014,0.16725,9.76073,0.627101,0.07,0.01,0.055,-46.3486,-53.4577,-18.7474,1001.31
84020,0.16725,9.76073,0.627101,0.14,-0.13,-0.015,-46.4948,-52.2884,-19.4343,1001.34
84026,0.16725,9.76073,0.627101,0.07,-0.06,-0.015,-46.8163,-52.8146,-19.2004,1001.34
84032,0.16725,9.76073,0.627101,0.14,-0.2,-0.015,-46.5532,-53.3407,-19.0104,1001.34
84038,0.16725,9.76073,0.627101,0.07,-0.06,-0.015,-46.0855,-52.7561,-18.1481,1001.34
84044,0.16725,9.76073,0.622351,0,-0.13,-0.155,-46.8455,-52.23,-18.4258,1001.34
84050,0.16725,9.76073,0.622351,-0.07,0.01,-0.155,-46.1732,-52.6684,-18.4112,1001.37
84056,0.16725,9.76073,0.622351,-0.14,0.01,-0.155,-46.6702,-53.1069,-18.2943,1001.37
84062,0.16725,9.76073,0.622351,0,0.01,-0.155,-46.2025,-52.9023,-18.0312,1001.31
84068,0.16725,9.76073,0.622351,-0.14,0.08,-0.155,-46.6409,-52.61,-17.6512,1001.31
84074,0.16725,9.76073,0.622351,-0.14,0.01,-0.225,-46.6409,-53.1361,-18.002,1001.3
84080,0.16725,9.76073,0.622351,-0.07,-0.06,-0.225,-46.5532,-52.7561,-18.192,1001.3
84086,0.16725,9.76073,0.622351,-0.07,-0.06,-0.155,-47.1963,-52.61,-18.2066,1001.31
84092,0.16725,9.76073,0.622351,-0.07,-0.06,-0.295,-46.904,-52.8731,-19.0835,1001.31
84098,0.16725,9.76073,0.622351,-0.21,-0.06,-0.225,-47.1963,-52.493,-19.0251,1001.31
84104,0.16725,9.76073,0.622351,-0.21,0.01,-0.155,-47.4009,-52.5223,-18.7035,1001.34
84110,0.16725,9.76549,0.622351,-0.14,0.08,-0.155,-47.284,-52.4346,-18.1043,1001.34
84116,0.16725,9.76549,0.622351,-0.28,0.08,-0.085,-46.6994,-53.7792,-17.7535,1001.29
84122,0.16725,9.76549,0.622351,-0.14,-0.06,-0.155,-46.4071,-52.7561,-19.2297,1001.29
84128,0.16725,9.76549,0.622351,-0.28,0.01,-0.155,-47.284,-53.1069,-19.4197,1001.31
84134,0.16725,9.76549,0.627101,-0.21,0.08,-0.155,-46.6994,-53.37,-17.4466,1001.31
84140,0.16725,9.76549,0.627101,-0.14,0.15,-0.295,-46.8455,-52.6977,-18.6012,1001.3
84146,0.16725,9.76549,0.627101,-0.07,0.08,-0.155,-47.1671,-52.99,-19.8143,1001.3
84152,0.16725,9.76549,0.627101,-0.21,0.08,-0.155,-46.7871,-53.2238,-17.9435,1001.32
84158,0.16725,9.76549,0.627101,-0.35,0.15,-0.295,-46.9917,-52.9315,-18.7766,1001.32
84164,0.16725,9.76549,0.627101,-0.28,0.01,-0.225,-46.2025,-52.8438,-19.712,1001.32
84170,0.16725,9.76549,0.627101,-0.21,0.01,-0.155,-46.7286,-52.8438,-18.5574,1001.3
84176,0.16725,9.76549,0.627101,-0.14,0.01,-0.155,-46.8163,-52.99,-18.1481,1001.3
84182,0.16725,9.76549,0.627101,-0.28,0.08,-0.155,-46.3778,-52.3469,-18.8204,1001.33
84188,0.16725,9.76549,0.627101,-0.35,0.01,-0.155,-46.7286,-52.99,-19.1712,1001.33
84194,0.16725,9.76549,0.627101,-0.35,0.08,-0.225,-45.8224,-52.61,-19.7997,1001.33
84200,0.16725,9.76549,0.627101,-0.21,0.01,-0.295,-46.144,-52.7854,-18.002,1001.33
84206,0.16725,9.76549,0.627101,-0.21,0.08,-0.155,-48.6286,-53.3407,-21.1882,1001.32
84212,0.16725,9.76549,0.627101,-0.28,0.15,-0.155,-46.0563,-53.0192,-17.5635,1001.32
84218,0.16725,9.76549,0.627101,-0.28,0.01,-0.155,-46.9917,-52.5223,-17.7535,1001.32
84224,0.16725,9.76549,0.627101,-0.14,-0.06,-0.155,-46.524,-52.493,-19.0835,1001.33
84230,0.16725,9.76549,0.627101,-0.21,0.01,-0.085,-46.3194,-53.3115,-19.2735,1001.33
84236,0.16725,9.76549,0.631851,-0.14,-0.13,-0.085,-46.4948,-53.1069,-19.1712,1001.33
84242,0.16725,9.76549,0.631851,0,-0.06,-0.085,-46.4071,-52.61,-19.2881,1001.33
84248,0.162472,9.76549,0.627101,-0.07,0.01,-0.155,-46.6994,-53.7208,-18.6597,1001.32
84254,0.162472,9.76073,0.627101,0.07,0.01,-0.085,-46.7286,-53.1654,-19.1712,1001.32
84260,0.162472,9.76073,0.627101,0.14,-0.06,-0.085,-46.2317,-53.1361,-18.9666,1001.34
84266,0.162472,9.76073,0.627101,0.07,0.01,-0.015,-46.7871,-53.5161,-18.5866,1001.34
84272,0.162472,9.76073,0.627101,0,-0.06,-0.085,-46.0271,-53.2823,-19.7851,1001.34
84278,0.162472,9.76073,0.627101,0,-0.06,-0.015,-46.6117,-52.9607,-19.2443,1001.29
84284,0.162472,9.76073,0.627101,-0.14,-0.06,-0.015,-46.7578,-52.8146,-17.4904,1001.29
84290,0.162472,9.76073,0.631851,-0.07,-0.06,-0.085,-46.8455,-53.5161,-17.6804,1001.33
84296,0.162472,9.76073,0.631851,0.14,-0.2,-0.015,-46.3194,-53.4284,-18.1481,1001.33
84302,0.162472,9.76073,0.631851,0.14,-0.2,-0.015,-46.4363,-52.9315,-18.6597,1001.3
84308,0.162472,9.76073,0.631851,0.07,-0.06,-0.085,-46.3778,-53.0777,-17.4173,1001.3
84314,0.16725,9.76073,0.631851,-0.07,-0.41,-0.505,-48.0733,-54.3346,-19.902,1001.32
84320,0.162472,9.76073,0.631851,-0.07,-0.13,-0.155,-46.3778,-53.4577,-17.8997,1001.32
84326,0.162472,9.76073,0.631851,0.14,-0.13,-0.015,-46.6994,-53.8084,-18.6012,1001.33
84332,0.162472,9.76073,0.631851,0.28,-0.06,-0.155,-45.9686,-53.1946,-17.7681,1001.33
84338,0.162472,9.76073,0.631851,-0.28,0.01,-0.085,-46.1732,-52.9607,-19.0543,1001.33
84344,0.162472,9.76073,0.631851,-0.07,-0.13,-0.085,-46.6994,-51.9669,-18.7766,1001.34
84350,0.162472,9.76073,0.631851,0.28,-0.2,0.055,-46.2901,-52.6977,-19.4343,1001.34
84356,0.162472,9.76073,0.631851,0.14,0.01,-0.015,-46.2901,-52.6392,-18.6012,1001.32
84362,0.162472,9.76073,0.631851,-0.14,-0.13,-0.015,-46.5532,-53.1654,-19.2004,1001.32
84368,0.162472,9.76073,0.631851,0.07,-0.13,0.055,-46.2025,-53.1946,-18.572,1001.32
84374,0.162472,9.76073,0.631851,0.21,-0.13,0.055,-46.6117,-52.8438,-16.9789,1001.32
84380,0.162472,9.76073,0.631851,0.07,-0.13,-0.015,-46.1148,-52.2884,-18.3527,1001.3
84386,0.162472,9.76549,0.631851,-0.14,0.01,-0.085,-46.3486,-52.9023,-18.9081,1001.3
84392,0.162472,9.76073,0.631851,0,0.08,-0.015,-46.8455,-53.1654,-18.4989,1001.3
84398,0.162472,9.76073,0.636601,0,-0.2,0.055,-46.4948,-53.1361,-18.4404,1001.31
84404,0.162472,9.76073,0.636601,0,-0.06,-0.015,-46.6702,-52.7561,-18.3089,1001.31
84410,0.162472,9.76073,0.636601,0.07,-0.06,-0.015,-46.4363,-53.1946,-20.092,1001.33
84416,0.162472,9.76073,0.636601,0.07,-0.06,-0.085,-46.6409,-53.6915,-17.7243,1001.33
84422,0.162472,9.76073,0.636601,0.07,-0.06,-0.015,-46.6994,-52.23,-17.7535,1001.3
84428,0.162472,9.76073,0.636601,0.07,-0.06,-0.085,-46.1732,-53.2823,-18.0897,1001.3
84434,0.162472,9.76073,0.636601,-0.07,0.01,-0.155,-46.3486,-52.61,-17.4904,1001.3
84440,0.162472,9.76073,0.636601,0,0.01,-0.155,-45.6763,-52.3469,-17.812,1001.3
84446,0.162472,9.76073,0.636601,0.14,-0.13,-0.085,-45.9978,-52.6684,-18.0312,1001.3
84452,0.162472,9.76073,0.636601,0.07,-0.2,-0.015,-46.4655,-52.7854,-17.8558,1001.34
84458,0.162472,9.76073,0.636601,0.07,0.01,0.055,-46.6994,-52.4638,-18.8935,1001.34
84464,0.162472,9.76073,0.631851,0.07,-0.13,0.055,-46.3486,-52.9607,-18.8204,1001.29
84470,0.162472,9.76073,0.636601,0.07,-0.13,-0.015,-46.6994,-53.0192,-18.2358,1001.29
84476,0.162472,9.76073,0.636601,0.07,0.01,-0.015,-46.5532,-52.6977,-17.4758,1001.34
84482,0.162472,9.76073,0.636601,0,0.01,-0.015,-46.3194,-52.0546,-18.572,1001.34
84488,0.162472,9.76073,0.636601,0.07,-0.06,-0.015,-46.4948,-52.4053,-17.4319,1001.31
84494,0.162472,9.76073,0.636601,0,-0.06,-0.015,-46.144,-52.5807,-17.8997,1001.31
84500,0.162472,9.76073,0.636601,-0.07,-0.13,0.055,-46.5532,-51.85,-17.8704,1001.32
84506,0.162472,9.76073,0.636601,0,-0.06,-0.015,-46.4363,-52.7854,-18.9958,1001.32
84512,0.162472,9.76073,0.636601,0,-0.13,-0.155,-46.2317,-52.2592,-18.002,1001.32
84518,0.162472,9.76073,0.636601,0,-0.41,-0.085,-46.4655,-52.23,-19.0543,1001.28
84524,0.162472,9.76073,0.636601,-0.07,-0.06,-0.085,-46.0855,-52.3761,-18.7035,1001.28
84530,0.162472,9.76073,0.636601,0.07,-0.13,-0.015,-46.7871,-52.5223,-18.572,1001.28
84536,0.162472,9.76073,0.636601,0.07,-0.06,-0.015,-46.7871,-52.4346,-18.6889,1001.28
84542,0.162472,9.76073,0.636601,-0.07,-0.06,-0.015,-46.5825,-51.9961,-17.4027,1001.29
84548,0.162472,9.76073,0.636601,0,0.01,-0.015,-46.4363,-52.2007,-19.4051,1001.29
84554,0.162472,9.76073,0.636601,0,-0.13,-0.155,-46.3194,-53.1069,-17.8997,1001.33
84560,0.162472,9.76073,0.636601,-0.07,-0.13,-0.015,-46.7286,-52.3761,-18.4843,1001.33
84566,0.162472,9.76073,0.636601,0,-0.06,-0.085,-46.524,-52.4638,-17.5635,1001.33
84572,0.162472,9.76073,0.636601,0.14,-0.13,-0.085,-46.2609,-51.9961,-18.762,1001.33
84578,0.162472,9.76073,0.636601,0.07,-0.2,0.055,-45.9686,-52.23,-18.2212,1001.33
84584,0.162472,9.76073,0.636601,0.14,-0.13,-0.015,-46.9625,-52.3177,-18.572,1001.32
84590,0.157693,9.76073,0.636601,-0.14,-0.06,-0.085,-46.2025,-52.9315,-18.0604,1001.32
84596,0.157693,9.75597,0.636601,0.42,-0.2,-0.015,-46.6117,-52.1715,-17.8266,1001.31
84602,0.162472,9.76073,0.636601,0.35,-0.13,0.055,-46.144,-52.5515,-19.0397,1001.31
84608,0.157693,9.76073,0.631851,0.07,0.01,-0.015,-46.6994,-52.8146,-17.695,1001.3
84614,0.157693,9.76073,0.636601,-0.07,-0.13,-0.015,-46.7286,-52.99,-18.5427,1001.3
84620,0.157693,9.76073,0.636601,0.28,-0.13,0.475,-46.6409,-53.1069,-18.3673,1001.33
84626,0.157693,9.76073,0.636601,0.14,-0.27,0.195,-46.4071,-53.4577,-18.5866,1001.33
84632,0.157693,9.76073,0.636601,0.14,-0.13,-0.015,-47.3717,-52.9607,-19.1127,1001.33
84638,0.157693,9.76073,0.636601,0.14,0.01,-0.015,-46.0855,-52.1423,-17.3296,1001.3
84644,0.157693,9.76073,0.636601,0.14,-0.2,-0.085,-46.144,-52.7269,-18.762,1001.3
84650,0.157693,9.76073,0.636601,0.07,-0.2,0.055,-46.6994,-52.8731,-18.8789,1001.33
84656,0.157693,9.76073,0.636601,0.14,-0.06,-0.015,-46.1148,-53.2823,-18.7181,1001.33
84662,0.157693,9.76073,0.636601,0.14,-0.2,-0.015,-46.5532,-52.4638,-18.3381,1001.32
84668,0.157693,9.76073,0.636601,0.14,-0.06,0.055,-46.3486,-52.4638,-18.0458,1001.32
84674,0.157693,9.76073,0.636601,0,-0.13,-0.015,-46.4948,-53.1654,-18.2212,1001.31
84680,0.157693,9.76073,0.636601,0,-0.13,-0.085,-46.0271,-52.6684,-17.8266,1001.31
84686,0.157693,9.76073,0.636601,-0.07,0.01,-0.085,-46.8748,-52.6392,-17.3443,1001.31
84692,0.157693,9.76073,0.636601,0.07,-0.06,-0.015,-46.4071,-52.2007,-17.8704,1001.35
84698,0.157693,9.76073,0.641351,0.07,-0.06,-0.085,-46.3778,-52.3177,-18.075,1001.35
84704,0.157693,9.76073,0.641351,-0.07,0.01,-0.155,-45.9101,-52.7854,-18.8935,1001.3
84710,0.157693,9.76073,0.641351,-0.07,-0.06,-0.085,-46.6994,-52.61,-17.8704,1001.3
84716,0.157693,9.76073,0.641351,-0.14,-0.06,-0.155,-46.9332,-52.7269,-18.835,1001.35
84722,0.157693,9.76073,0.641351,-0.14,-0.06,-0.015,-46.5825,-52.4053,-18.1773,1001.35
84728,0.157693,9.76073,0.641351,0,-0.13,-0.085,-46.8455,-52.9315,-19.0397,1001.32
84734,0.157693,9.76073,0.641351,0.07,-0.06,-0.015,-46.2901,-52.4346,-18.4989,1001.32
84740,0.157693,9.76073,0.641351,0,-0.13,-0.015,-46.3194,-52.4638,-17.7389,1001.32
84746,0.157693,9.76073,0.641351,0,-0.13,-0.015,-46.2609,-52.6392,-17.9581,1001.28
84752,0.157693,9.76073,0.641351,-0.07,-0.06,-0.085,-46.144,-52.8731,-18.572,1001.28
84758,0.157693,9.76073,0.641351,0.07,-0.06,-0.085,-46.3778,-52.2884,-17.7096,1001.32
84764,0.157693,9.76073,0.641351,0.07,-0.06,0.055,-47.1086,-53.37,-17.1981,1001.32
84770,0.157693,9.76073,0.641351,0.07,-0.13,0.055,-46.9625,-52.9023,-18.2797,1001.32
84776,0.157693,9.76073,0.641351,0,0.01,-0.015,-46.5825,-53.1946,-18.2358,1001.32
84782,0.157693,9.76073,0.641351,-0.07,-0.13,-0.015,-47.0502,-52.6977,-19.0543,1001.31
84788,0.157693,9.76073,0.641351,-0.14,-0.13,-0.085,-45.7932,-53.1069,-18.2066,1001.31
84794,0.157693,9.76073,0.641351,-0.14,-0.06,-0.015,-46.4363,-53.7208,-17.9727,1001.34
84800,0.157693,9.76073,0.641351,0.07,0.01,-0.015,-47.2548,-53.37,-19.4928,1001.34
84806,0.157693,9.76073,0.641351,0.07,-0.06,-0.085,-46.5825,-52.8438,-17.9289,1001.34
84812,0.157693,9.76073,0.641351,-0.07,-0.06,-0.085,-46.3778,-52.8438,-17.885,1001.32
84818,0.157693,9.76073,0.641351,-0.07,-0.2,-0.085,-46.5532,-52.9607,-18.0312,1001.32
84824,0.157693,9.75597,0.646101,0.14,0.01,-0.085,-46.6117,-52.6392,-18.2358,1001.31
84830,0.157693,9.76073,0.646101,0.14,-0.13,-0.015,-46.524,-53.4869,-17.622,1001.31
84836,0.157693,9.76073,0.646101,0.07,-0.13,0.055,-46.7578,-53.6331,-17.8412,1001.3
84842,0.157693,9.76073,0.646101,-0.07,0.01,-0.015,-47.4009,-53.2823,-17.9727,1001.3
84848,0.157693,9.76073,0.646101,0,-0.06,-0.015,-47.0209,-53.2823,-18.3966,1001.32
84854,0.157693,9.76073,0.646101,0,-0.06,0.055,-46.7871,-53.5454,-17.8266,1001.32
84860,0.157693,9.76073,0.646101,0.07,-0.2,-0.085,-47.284,-53.3992,-18.9081,1001.32
84866,0.157693,9.76073,0.646101,0.07,-0.06,-0.085,-46.5825,-53.0484,-18.3089,1001.32
84872,0.157693,9.76073,0.646101,-0.14,0.08,-0.085,-46.6409,-53.3407,-18.7912,1001.32
84878,0.157693,9.76073,0.646101,-0.21,0.01,-0.015,-46.5532,-52.7269,-18.9227,1001.31
84884,0.157693,9.76073,0.646101,0,-0.13,-0.085,-46.8455,-53.0192,-18.6889,1001.31
84890,0.157693,9.76073,0.646101,0.21,-0.13,-0.015,-45.9686,-52.9607,-18.3673,1001.32
84896,0.157693,9.76073,0.646101,-0.07,-0.06,-0.085,-45.9394,-53.4284,-17.2566,1001.32
84902,0.157693,9.76073,0.646101,-0.07,-0.2,-0.155,-46.4655,-52.7561,-18.1773,1001.33
84908,0.157693,9.76073,0.65085,0.07,-0.06,-0.085,-46.4948,-52.3177,-18.265,1001.33
84914,0.157693,9.76073,0.65085,0.14,-0.06,-0.015,-46.8455,-53.1946,-17.4173,1001.33
84920,0.157693,9.76073,0.646101,0,-0.2,-0.085,-46.7286,-53.5161,-17.7535,1001.33
84926,0.157693,9.76073,0.65085,0.07,-0.41,-0.225,-46.3194,-53.2823,-18.1335,1001.33
84932,0.157693,9.76073,0.65085,0,-0.06,-0.155,-46.3486,-53.2238,-17.9435,1001.32
84938,0.157693,9.76073,0.65085,0.14,-0.13,-0.085,-46.4655,-53.1654,-17.8997,1001.32
84944,0.157693,9.76073,0.65085,0,-0.06,-0.085,-46.1148,-52.7854,-18.1627,1001.33
84950,0.157693,9.76073,0.646101,0,-0.13,-0.015,-46.3194,-53.6623,-17.0373,1001.33
84956,0.157693,9.76073,0.65085,-0.07,-0.06,-0.015,-46.2025,-53.1946,-18.075,1001.33
84962,0.157693,9.76073,0.65085,0.07,-0.13,-0.015,-47.0502,-52.6977,-18.2943,1001.33
84968,0.157693,9.76073,0.65085,0.14,-0.06,-0.015,-46.6117,-52.8146,-18.835,1001.34
84974,0.157693,9.76073,0.65085,-0.14,0.01,-0.015,-46.5532,-52.6684,-18.3966,1001.34
84980,0.157693,9.76073,0.65085,-0.07,0.01,-0.015,-46.2901,-52.6392,-18.4843,1001.34
84986,0.157693,9.76073,0.65085,0.14,0.01,-0.085,-46.6994,-52.0253,-18.6889,1001.34
84992,0.157693,9.76073,0.65085,0.14,-0.13,-0.085,-46.7871,-53.5746,-17.4319,1001.34
84998,0.157693,9.76073,0.65085,0,-0.13,-0.155,-46.6117,-53.6331,-18.2797,1001.35
85004,0.157693,9.76073,0.65085,-0.14,-0.06,-0.085,-47.1963,-52.9023,-18.4404,1001.35
85010,0.157693,9.76073,0.65085,0.07,-0.13,-0.085,-46.7286,-52.4346,-18.4989,1001.34
85016,0.157693,9.76073,0.65085,0.14,-0.06,-0.085,-46.8163,-53.0192,-17.5927,1001.34
85022,0.157693,9.76073,0.65085,0.07,-0.13,-0.085,-46.6702,-52.6977,-18.1481,1001.32
85028,0.157693,9.76073,0.65085,-0.07,-0.13,-0.015,-46.4071,-53.4577,-17.4904,1001.32
85034,0.157693,9.76073,0.65085,-0.07,0.01,-0.015,-46.4655,-53.1069,-18.265,1001.32
85040,0.157693,9.76073,0.65085,0.14,-0.2,0.055,-47.1379,-53.2823,-18.9666,1001.28
85046,0.157693,9.76073,0.65085,0,-0.13,0.055,-46.9332,-53.0777,-18.6889,1001.28
85052,0.157693,9.76073,0.65085,-0.14,0.01,-0.015,-46.3778,-53.8084,-17.315,1001.33
85058,0.157693,9.76073,0.65085,0.07,-0.13,-0.015,-46.7286,-53.1946,-17.2419,1001.33
85064,0.157693,9.76073,0.65085,0.21,-0.27,-0.085,-46.904,-52.99,-17.9727,1001.34
85070,0.157693,9.76073,0.65085,0,0.08,-0.085,-46.6117,-53.4577,-17.7681,1001.34
85076,0.157693,9.76073,0.65085,0.07,-0.2,-0.155,-46.5532,-53.2823,-17.0227,1001.32
85082,0.157693,9.76073,0.65085,0.14,-0.06,-0.085,-47.1963,-52.3177,-17.3881,1001.32
85088,0.157693,9.76073,0.65085,0.14,0.01,-0.085,-47.1671,-53.4869,-17.6512,1001.34
85094,0.157693,9.76073,0.65085,0.07,-0.06,-0.085,-46.524,-52.8146,-18.1043,1001.34
85100,0.157693,9.76073,0.65085,0.14,0.01,-0.155,-46.7578,-52.6977,-18.4989,1001.34
85106,0.157693,9.76073,0.65085,0,0.01,-0.085,-46.6409,-52.61,-17.5196,1001.33
85112,0.157693,9.76073,0.65085,-0.07,0.01,-0.015,-47.1963,-52.9607,-16.8912,1001.33
85118,0.157693,9.76073,0.65085,-0.07,0.01,-0.085,-46.6994,-52.99,-18.4843,1001.35
85124,0.157693,9.76073,0.6556,0.07,-0.06,-0.085,-47.1086,-52.8731,-17.0519,1001.35
85130,0.157693,9.76073,0.65085,0.07,-0.48,-0.435,-46.4363,-52.7561,-18.3235,1001.26
85136,0.157693,9.76073,0.6556,-0.07,-0.2,-0.155,-46.5532,-52.6684,-17.5781,1001.26
85142,0.152914,9.76073,0.6556,0,-0.13,-0.085,-46.5532,-52.7854,-17.885,1001.28
85148,0.157693,9.76073,0.65085,0.14,-0.06,-0.085,-46.9625,-53.0484,-17.4904,1001.28
85154,0.157693,9.76073,0.6556,0.07,-0.13,-0.015,-46.3778,-53.0192,-18.2212,1001.28
85160,0.157693,9.76073,0.6556,-0.07,-0.13,-0.015,-46.6409,-52.9607,-17.6073,1001.35
85166,0.157693,9.76073,0.6556,-0.07,0.01,-0.015,-46.2025,-52.1423,-18.835,1001.35
85172,0.157693,9.76073,0.6556,0.14,-0.13,0.055,-46.4071,-53.1361,-19.2881,1001.33
85178,0.157693,9.76073,0.6556,0,-0.13,-0.015,-46.8163,-52.0253,-18.0604,1001.33
85184,0.157693,9.76073,0.6556,0,-0.06,-0.085,-46.3486,-52.2884,-17.9873,1001.29
85190,0.157693,9.76073,0.6556,0.14,-0.06,-0.085,-46.6409,-52.6977,-18.455,1001.29
85196,0.157693,9.76073,0.6556,-0.07,0.01,-0.155,-46.6994,-53.9546,-16.8912,1001.32
85202,0.157693,9.76073,0.6556,-0.07,-0.13,-0.085,-46.7578,-52.8438,-18.9374,1001.32
85208,0.157693,9.76073,0.6556,0.14,-0.2,-0.155,-46.6409,-52.8146,-18.6012,1001.32
85214,0.157693,9.76073,0.6556,0,-0.13,-0.085,-46.524,-53.0777,-17.6512,1001.33
85220,0.157693,9.76073,0.6556,0.14,-0.34,-0.225,-46.904,-52.5807,-18.3966,1001.33
85226,0.157693,9.76073,0.6556,0,-0.13,-0.085,-46.7578,-51.5869,-17.4612,1001.33
85232,0.157693,9.76073,0.6556,-0.14,-0.06,-0.085,-47.0209,-52.5515,-17.505,1001.33
85238,0.157693,9.76073,0.6556,-0.07,0.01,-0.155,-47.4009,-52.4346,-19.7997,1001.33
85244,0.157693,9.76073,0.6556,0,0.01,-0.085,-46.6117,-52.5223,-18.7474,1001.33
85250,0.157693,9.76549,0.65085,-0.21,0.01,-0.085,-46.4071,-52.493,-18.192,1001.32
85256,0.157693,9.76549,0.65085,-0.28,-0.06,-0.155,-46.0855,-53.0484,-17.3004,1001.32
85262,0.157693,9.76549,0.65085,-0.21,-0.06,-0.155,-46.524,-52.113,-17.7827,1001.33
85268,0.157693,9.76549,0.65085,-0.21,0.01,-0.155,-46.8748,-53.1069,-18.3673,1001.33
85274,0.157693,9.76549,0.65085,-0.21,0.08,-0.085,-46.3486,-53.0484,-18.3966,1001.33
85280,0.157693,9.76549,0.65085,-0.35,0.08,-0.155,-46.7578,-53.0192,-18.8789,1001.33
85286,0.157693,9.76549,0.65085,-0.21,0.01,-0.155,-46.9332,-52.7269,-19.3027,1001.33
85292,0.157693,9.76549,0.6556,-0.14,-0.06,-0.085,-46.6994,-53.2238,-17.9873,1001.31
85298,0.157693,9.76549,0.65085,-0.14,-0.06,-0.155,-46.524,-51.8792,-17.3735,1001.31
85304,0.157693,9.76549,0.65085,-0.14,-0.06,-0.225,-46.4071,-53.1361,-19.7412,1001.33
85310,0.157693,9.76549,0.65085,-0.07,-0.06,-0.085,-46.8748,-52.6684,-18.3235,1001.33
85316,0.157693,9.76549,0.65085,-0.07,0.08,-0.085,-46.5532,-52.7561,-17.9581,1001.33
85322,0.157693,9.76549,0.65085,0.07,-0.13,-0.015,-46.9332,-52.4346,-18.1335,1001.33
85328,0.157693,9.76073,0.65085,0,0.01,-0.085,-46.3778,-52.6977,-18.8789,1001.33
85334,0.157693,9.76073,0.6556,0.07,-0.27,-0.015,-46.5532,-53.1654,-18.3381,1001.35
85340,0.157693,9.76073,0.65085,0,-0.13,-0.015,-47.1086,-52.2592,-19.9604,1001.35
85346,0.157693,9.76073,0.6556,0.14,-0.13,0.055,-46.9625,-52.2884,-18.455,1001.34
85352,0.157693,9.76073,0.65085,0,0.01,-0.015,-47.1086,-53.2823,-18.6012,1001.34
85358,0.157693,9.76073,0.65085,0.07,-0.2,0.055,-46.524,-53.6038,-18.0458,1001.34
85364,0.157693,9.76073,0.65085,0.07,-0.06,-0.015,-46.2901,-52.7561,-17.0958,1001.34
85370,0.157693,9.76073,0.65085,-0.14,0.01,-0.085,-46.3194,-52.8146,-19.2004,1001.34
85376,0.157693,9.76073,0.65085,-0.07,-0.06,-0.085,-46.3486,-53.0484,-18.265,1001.34
85382,0.157693,9.76073,0.65085,-0.14,-0.06,-0.085,-46.4948,-52.0546,-18.1335,1001.34
85388,0.157693,9.76073,0.65085,-0.14,0.01,-0.085,-46.8455,-52.0838,-17.2858,1001.32
85394,0.157693,9.76073,0.65085,-0.14,-0.13,-0.155,-46.2609,-52.8438,-17.2127,1001.32
85400,0.157693,9.76549,0.65085,0.07,0.01,-0.155,-46.4948,-52.7269,-19.7851,1001.33
85406,0.157693,9.76549,0.65085,0,-0.06,-0.155,-46.7286,-52.8146,-18.4843,1001.33
85412,0.157693,9.76549,0.65085,-0.14,0.01,-0.155,-47.0209,-53.0192,-18.1481,1001.34
85418,0.152914,9.76549,0.65085,0,-0.13,-0.155,-46.8748,-51.9961,-18.762,1001.34
85424,0.152914,9.76549,0.65085,-0.07,-0.06,-0.155,-46.7871,-52.2592,-17.8266,1001.36
85430,0.152914,9.76549,0.65085,-0.21,0.08,-0.225,-46.1732,-53.4284,-18.9374,1001.36
85436,0.152914,9.76549,0.65085,-0.21,-0.06,-0.225,-46.9917,-53.6915,-20.4574,1001.33
85442,0.152914,9.76549,0.65085,-0.14,-0.06,0.265,-46.4071,-52.9315,-17.5927,1001.33
85448,0.157693,9.76549,0.65085,-0.14,-0.06,-0.295,-46.9332,-53.2823,-17.2566,1001.33
85454,0.152914,9.76549,0.65085,-0.14,0.01,-0.225,-46.2025,-52.9315,-17.4612,1001.3
85460,0.152914,9.76073,0.65085,-0.21,0.01,-0.225,-46.3778,-53.3992,-17.5196,1001.3
85466,0.152914,9.76073,0.65085,-0.07,0.01,-0.295,-46.2901,-53.0192,-18.1335,1001.36
85472,0.152914,9.76073,0.65085,-0.14,-0.2,-0.295,-46.524,-53.0484,-17.7096,1001.36
85478,0.152914,9.76073,0.65085,-0.21,-0.13,-0.295,-46.1148,-52.99,-17.6073,1001.34
85484,0.152914,9.76073,0.65085,-0.28,0.01,-0.295,-45.9394,-53.2823,-19.0251,1001.34
85490,0.152914,9.76073,0.65085,-0.35,-0.06,-0.225,-46.4363,-52.8146,-17.6804,1001.32
85496,0.152914,9.76073,0.65085,-0.28,-0.06,-0.225,-46.5825,-52.7561,-18.3089,1001.32
85502,0.152914,9.76073,0.65085,-0.28,0.08,-0.155,-46.1732,-52.493,-17.0081,1001.32
85508,0.152914,9.76073,0.65085,-0.21,0.08,-0.225,-46.3778,-52.9607,-17.5196,1001.33
85514,0.152914,9.76073,0.65085,-0.28,0.01,-0.295,-46.5532,-53.4284,-17.9581,1001.33
85520,0.152914,9.76073,0.65085,-0.21,0.01,-0.295,-46.5532,-53.8961,-18.6012,1001.26
85526,0.152914,9.76073,0.65085,-0.21,0.01,-0.225,-46.4071,-52.7854,-18.0458,1001.26
85532,0.157693,9.76073,0.65085,-0.14,-0.13,-0.155,-46.4655,-53.4869,-17.9581,1001.3
85538,0.157693,9.76073,0.65085,-0.14,-0.2,-0.575,-47.9856,-53.2823,-20.0043,1001.3
85544,0.157693,9.76073,0.65085,-0.07,-0.13,-0.225,-46.1732,-52.7269,-19.5512,1001.33
85550,0.157693,9.76073,0.65085,-0.14,-0.06,-0.085,-46.6994,-52.493,-18.4697,1001.33
85556,0.157693,9.76073,0.6556,-0.07,-0.06,-0.155,-46.904,-53.4284,-18.0897,1001.32
85562,0.157693,9.76073,0.6556,0,-0.2,-0.015,-46.5532,-52.6684,-18.0897,1001.32
85568,0.157693,9.76073,0.6556,0,-0.13,-0.085,-46.0271,-53.0192,-17.9289,1001.32
85574,0.157693,9.76073,0.6556,0,-0.13,-0.085,-46.3194,-53.0192,-18.002,1001.29
85580,0.157693,9.76073,0.6556,0.07,-0.13,-0.085,-45.6471,-52.3177,-18.382,1001.29
85586,0.157693,9.76073,0.65085,-0.14,0.08,-0.085,-46.3194,-52.61,-18.3673,1001.32
85592,0.157693,9.76073,0.65085,0.07,-0.13,-0.085,-46.2317,-53.0484,-18.7912,1001.32
85598,0.157693,9.76073,0.6556,0.21,-0.2,-0.155,-45.6471,-52.3177,-19.712,1001.35
85604,0.157693,9.76073,0.6556,0,0.01,-0.085,-46.144,-52.0838,-18.2943,1001.35
85610,0.152914,9.76073,0.6556,-0.21,-0.13,-0.085,-45.9686,-52.4346,-18.9666,1001.34
85616,0.152914,9.76073,0.6556,-0.14,0.01,-0.085,-46.2025,-52.3177,-17.812,1001.34
85622,0.152914,9.76073,0.6556,0.07,-0.06,-0.015,-46.1732,-51.9376,-18.002,1001.34
85628,0.157693,9.76073,0.6556,0.07,-0.13,-0.015,-46.6117,-52.8438,-17.8704,1001.34
85634,0.157693,9.76073,0.6556,-0.14,-0.13,-0.085,-46.144,-52.4638,-18.455,1001.34
85640,0.152914,9.76073,0.6556,-0.14,-0.06,-0.015,-47.5763,-53.1946,-19.2881,1001.29
85646,0.152914,9.76073,0.6556,0,-0.13,-0.085,-46.5532,-52.493,-17.7681,1001.29
85652,0.152914,9.76073,0.6556,-0.07,-0.06,-0.155,-46.4363,-52.99,-18.1627,1001.33
85658,0.152914,9.76073,0.6556,-0.07,-0.13,-0.085,-46.6702,-52.9315,-18.1627,1001.33
85664,0.152914,9.76073,0.6556,-0.07,-0.06,-0.015,-46.2609,-51.8792,-18.2504,1001.3
85670,0.152914,9.76073,0.6556,-0.07,-0.2,-0.085,-46.2901,-52.6977,-17.4027,1001.3
85676,0.152914,9.76073,0.6556,0.07,-0.2,-0.085,-45.764,-52.5807,-18.3381,1001.3
85682,0.152914,9.76073,0.6556,0.07,-0.06,-0.085,-46.904,-51.4115,-17.9727,1001.3
85688,0.152914,9.76073,0.6556,0.07,-0.13,-0.085,-46.0271,-52.8438,-17.7827,1001.3
85694,0.152914,9.75597,0.6556,0.07,-0.2,-0.085,-46.5825,-52.6977,-18.5427,1001.32
85700,0.152914,9.76073,0.6556,0,-0.13,-0.085,-46.524,-51.8792,-18.7327,1001.32
85706,0.152914,9.75597,0.6556,0.07,-0.13,-0.015,-46.7286,-51.8207,-17.622,1001.27
85712,0.152914,9.75597,0.6556,0,-0.06,-0.085,-46.6994,-52.7269,-17.9727,1001.27
85718,0.152914,9.76073,0.6556,0.07,0.01,-0.085,-46.4948,-52.2007,-17.7096,1001.31
85724,0.157693,9.76073,0.6556,0.07,-0.13,-0.085,-46.7286,-52.493,-18.2358,1001.31
85730,0.157693,9.76073,0.66035,0,-0.06,-0.155,-46.2901,-52.4053,-18.2504,1001.3
85736,0.157693,9.76073,0.66035,0.14,-0.13,-0.155,-46.4655,-53.3992,-18.382,1001.3
85742,0.157693,9.76073,0.66035,0.14,-0.13,-0.155,-48.7163,-53.0192,-21.1005,1001.3
85748,0.157693,9.76073,0.6556,-0.07,-0.13,-0.295,-46.6994,-52.9023,-19.6681,1001.31
85754,0.157693,9.76073,0.66035,-0.14,-0.06,-0.085,-46.1148,-52.9023,-18.6158,1001.31
85760,0.157693,9.76073,0.66035,0.07,-0.2,-0.155,-46.8748,-51.9961,-18.382,1001.3
85766,0.152914,9.76073,0.66035,0.28,-0.48,-0.225,-48.2194,-52.9023,-17.885,1001.3
85772,0.152914,9.76073,0.66035,-0.14,-0.2,-0.015,-46.8163,-52.7269,-17.3296,1001.3
85778,0.152914,9.76073,0.66035,-0.14,-0.13,-0.155,-46.0563,-51.8792,-19.2443,1001.3
85784,0.152914,9.76073,0.66035,0.14,-0.13,-0.155,-46.6409,-52.5807,-18.4697,1001.3
85790,0.152914,9.76073,0.66035,0.28,-0.27,0.265,-46.7286,-54.0715,-20.2528,1001.3
85796,0.152914,9.76073,0.66035,0,-0.13,0.125,-48.3363,-53.6623,-18.5427,1001.3
85802,0.152914,9.76073,0.66035,-0.14,0.08,0.055,-46.2609,-52.7269,-18.9812,1001.28
85808,0.152914,9.76073,0.66035,0.14,-0.27,-0.155,-46.6702,-53.4284,-18.1189,1001.28
85814,0.152914,9.76073,0.66035,0.21,-0.2,0.125,-46.8455,-53.0777,-18.0897,1001.3
85820,0.152914,9.76073,0.66035,0.28,-0.34,0.335,-46.4655,-52.3761,-19.0104,1001.3
85826,0.152914,9.76073,0.66035,0.07,-0.2,-0.015,-46.524,-52.8146,-19.0981,1001.28
85832,0.152914,9.76073,0.66035,0.14,-0.27,0.055,-46.2025,-53.2823,-17.622,1001.28
85838,0.152914,9.76073,0.66035,0.07,-0.27,-0.435,-47.7809,-52.9607,-19.712,1001.28
85844,0.157693,9.76073,0.66035,0.07,-0.13,-0.085,-46.4655,-54.0131,-20.6035,1001.28
85850,0.157693,9.76073,0.66035,0.07,0.15,-0.015,-46.4655,-52.8438,-18.6889,1001.28
85856,0.157693,9.76073,0.66035,0.07,0.01,-0.015,-46.3194,-53.0192,-18.9812,1001.3
85862,0.157693,9.76073,0.66035,0,-0.06,-0.015,-46.5825,-52.5807,-18.2358,1001.3
85868,0.157693,9.76073,0.66035,0.07,-0.06,0.055,-46.4071,-52.9023,-18.075,1001.32
85874,0.157693,9.76073,0.66035,0.14,-0.13,0.055,-45.9101,-52.6684,-17.3881,1001.32
85880,0.157693,9.76073,0.66035,0.14,-0.06,0.055,-46.6409,-51.47,-18.3089,1001.32
85886,0.157693,9.76073,0.66035,0.14,-0.13,-0.015,-46.8748,-52.99,-18.382,1001.32
85892,0.157693,9.76073,0.66035,0.14,-0.06,-0.085,-46.5532,-52.6392,-16.9058,1001.31
85898,0.157693,9.76073,0.66035,0.07,0.01,0.055,-46.524,-52.7854,-18.6743,1001.31
85904,0.157693,9.76073,0.66035,0.14,-0.13,-0.015,-46.8455,-52.3469,-18.8789,1001.32
85910,0.157693,9.76073,0.66035,0.14,-0.06,0.055,-46.7871,-52.5223,-17.1835,1001.32
85916,0.157693,9.76073,0.66035,0.07,0.01,0.055,-45.8517,-52.4053,-18.5866,1001.32
85922,0.157693,9.76073,0.66035,0.14,-0.06,0.055,-46.6409,-52.5223,-17.622,1001.33
85928,0.157693,9.76073,0.66035,0.07,-0.06,0.125,-46.144,-52.7854,-18.265,1001.33
85934,0.152914,9.76073,0.66035,0.14,-0.06,0.195,-47.0502,-52.9023,-18.3235,1001.33
85940,0.152914,9.76073,0.66035,0.21,-0.13,0.125,-46.3194,-52.4638,-18.0458,1001.33
85946,0.152914,9.76549,0.66035,0.14,-0.06,0.125,-46.5532,-52.3469,-20.7205,1001.33
85952,0.152914,9.76549,0.66035,0.07,-0.2,-0.085,-46.3778,-52.2592,-17.6804,1001.33
85958,0.152914,9.76073,0.66035,0,-0.2,0.125,-46.144,-52.0838,-17.5635,1001.33
85964,0.152914,9.76073,0.66035,0.07,-0.13,0.125,-46.5825,-51.6161,-18.9374,1001.33
85970,0.152914,9.76073,0.66035,0.07,-0.06,0.195,-47.3717,-52.1423,-18.7327,1001.33
85976,0.152914,9.76073,0.66035,0.14,0.01,0.125,-46.3778,-52.0838,-18.4697,1001.34
85982,0.152914,9.76549,0.66035,0.14,0.01,0.055,-46.5532,-52.4346,-18.5866,1001.34
85988,0.152914,9.76549,0.66035,0.21,-0.06,0.125,-46.1732,-52.8146,-19.7851,1001.3
85994,0.152914,9.76549,0.66035,0.14,0.01,0.125,-46.5825,-53.5161,-18.6158,1001.3
86000,0.152914,9.76549,0.66035,0,-0.06,0.125,-46.524,-52.7561,-18.6889,1001.3
86006,0.152914,9.76549,0.66035,-0.07,0.01,0.055,-46.3486,-52.9607,-19.3466,1001.3
86012,0.152914,9.76549,0.66035,0.07,0.01,0.195,-46.4071,-52.7854,-18.6012,1001.33
86018,0.152914,9.76549,0.66035,0.07,-0.06,0.265,-46.6409,-53.0777,-18.2797,1001.33
86024,0.152914,9.76549,0.66035,0.14,-0.06,0.125,-46.6994,-51.9376,-17.8266,1001.31
86030,0.152914,9.76549,0.66035,0.14,-0.06,0.125,-46.0855,-52.9023,-18.2504,1001.31
86036,0.152914,9.76549,0.66035,0.14,-0.13,0.125,-46.0271,-53.6623,-17.3296,1001.31
86042,0.152914,9.76549,0.66035,0.14,-0.06,0.195,-46.4655,-53.4284,-17.6073,1001.34
86048,0.152914,9.76549,0.66035,0.35,-0.13,0.195,-46.9625,-53.1654,-19.1274,1001.34
86054,0.152914,9.76549,0.66035,0.14,0.15,0.545,-46.524,-52.4346,-18.2066,1001.35
86060,0.152914,9.76549,0.66035,0,0.01,0.265,-46.8748,-53.0777,-17.9289,1001.35
86066,0.152914,9.76549,0.66035,0.07,-0.13,0.055,-46.9332,-53.4284,-18.0458,1001.37
86072,0.152914,9.76549,0.66035,0.21,-0.06,0.125,-46.0563,-52.8731,-18.4112,1001.37
86078,0.152914,9.76549,0.66035,0.21,-0.13,0.125,-46.4655,-52.5515,-17.9727,1001.36
86084,0.152914,9.76549,0.66035,0.14,-0.13,0.125,-46.9332,-52.9315,-17.5489,1001.36
86090,0.157693,9.76549,0.66035,0.14,-0.13,0.055,-45.764,-53.0192,-17.9873,1001.36
86096,0.157693,9.76549,0.66035,0.07,-0.06,0.125,-46.4948,-53.6038,-17.9143,1001.34
86102,0.157693,9.76549,0.66035,0.07,-0.13,0.125,-47.0209,-52.8731,-18.455,1001.34
86108,0.157693,9.76549,0.66035,0.14,-0.13,0.055,-46.6117,-51.7915,-17.8704,1001.31
86114,0.157693,9.76549,0.66035,0.07,-0.13,0.125,-46.4363,-52.7269,-18.9666,1001.31
86120,0.157693,9.76549,0.66035,0.14,0.01,0.055,-46.3778,-51.9961,-18.6158,1001.31
86126,0.157693,9.76549,0.66035,0.07,-0.06,0.195,-47.1379,-52.7854,-18.5135,1001.31
86132,0.157693,9.76549,0.66035,0.14,-0.06,0.055,-47.3717,-52.9607,-18.0458,1001.31
86138,0.157693,9.76549,0.66035,0.14,0.01,0.055,-46.8748,-52.113,-17.5343,1001.31
86144,0.157693,9.76549,0.66035,0,0.01,0.055,-46.6409,-52.3177,-18.835,1001.31
86150,0.157693,9.76549,0.6556,-0.07,-0.13,0.055,-46.6994,-52.2884,-18.7912,1001.31
86156,0.157693,9.76549,0.6556,0.07,-0.13,0.055,-49.0671,-53.2823,-19.7266,1001.31
86162,0.152914,9.76549,0.6556,0.14,-0.13,0.195,-47.1963,-53.0484,-18.9958,1001.3
86168,0.152914,9.76549,0.6556,0.07,-0.06,0.055,-47.284,-52.9023,-17.2566,1001.3
86174,0.152914,9.76549,0.6556,-0.07,0.01,-0.015,-46.6702,-53.1946,-18.382,1001.33
86180,0.152914,9.76549,0.6556,0,0.01,0.055,-46.9917,-52.8146,-17.6366,1001.33
86186,0.152914,9.76549,0.6556,0.21,-0.06,0.125,-47.1671,-53.1361,-17.695,1001.33
86192,0.152914,9.76549,0.6556,0.21,-0.2,-0.015,-46.3778,-53.6038,-18.6889,1001.33
86198,0.152914,9.76549,0.6556,0.21,-0.13,0.055,-46.8455,-52.8146,-18.1481,1001.33
86204,0.152914,9.76549,0.6556,0.14,0.01,0.055,-46.7578,-52.5223,-18.8935,1001.33
86210,0.157693,9.76549,0.6556,0.14,-0.13,0.055,-47.1086,-53.9546,-18.572,1001.33
86216,0.157693,9.76549,0.6556,0,-0.13,-0.015,-46.9625,-52.3469,-18.5427,1001.33
86222,0.157693,9.76549,0.6556,0.07,-0.06,0.125,-47.4009,-52.8438,-18.455,1001.33
86228,0.157693,9.76549,0.65085,0,0.08,-0.015,-46.5825,-53.2238,-16.9058,1001.36
86234,0.157693,9.76549,0.65085,0,0.01,0.055,-46.4071,-53.7792,-17.4904,1001.36
86240,0.157693,9.76549,0.65085,0,0.08,-0.015,-46.9917,-52.8731,-18.3527,1001.34
86246,0.157693,9.76549,0.65085,0,0.08,0.055,-46.6409,-52.3177,-17.622,1001.34
86252,0.157693,9.76549,0.65085,0.07,0.01,0.195,-46.2025,-52.7561,-17.8266,1001.33
86258,0.157693,9.76549,0.65085,0.14,0.01,0.405,-46.5532,-52.2884,-18.265,1001.33
86264,0.157693,9.76549,0.65085,0.14,0.01,0.125,-46.8748,-53.37,-18.5135,1001.33
86270,0.157693,9.76549,0.65085,0,0.01,0.195,-47.2548,-53.4284,-18.455,1001.32
86276,0.157693,9.76549,0.65085,0.14,-0.06,0.125,-46.9917,-52.3761,-17.5489,1001.32
86282,0.157693,9.77026,0.65085,0.14,0.01,0.195,-46.6994,-53.0192,-18.2943,1001.32
86288,0.157693,9.77026,0.65085,0.21,-0.06,0.055,-47.1086,-52.6977,-17.9289,1001.32
86294,0.157693,9.77026,0.65085,0.21,-0.06,0.125,-46.4655,-53.1946,-17.9581,1001.31
86300,0.157693,9.77026,0.65085,0.14,-0.06,0.125,-47.1086,-52.61,-19.4489,1001.31
86306,0.157693,9.77026,0.646101,0,-0.06,0.195,-46.5825,-52.9023,-18.0166,1001.34
86312,0.157693,9.77026,0.646101,0.07,0.01,0.195,-46.2609,-53.1069,-17.9581,1001.34
86318,0.157693,9.76549,0.646101,0.14,0.08,0.055,-46.3194,-52.5515,-17.5489,1001.34
86324,0.157693,9.76549,0.646101,0.21,-0.13,0.195,-46.4655,-52.0253,-18.075,1001.27
86330,0.157693,9.77026,0.646101,0.14,-0.06,0.195,-46.524,-52.5807,-18.1335,1001.27
86336,0.157693,9.77026,0.646101,0.14,-0.13,0.125,-46.9332,-52.9315,-18.572,1001.34
86342,0.157693,9.77026,0.646101,0.14,-0.06,0.195,-46.3778,-53.3407,-17.1689,1001.34
86348,0.157693,9.77026,0.646101,0.14,-0.06,0.195,-46.4655,-52.99,-17.1689,1001.31
86354,0.157693,9.77026,0.646101,0.14,-0.13,0.125,-45.9394,-53.0484,-16.6573,1001.31
86360,0.157693,9.77026,0.646101,0.14,-0.13,0.125,-46.7286,-52.8146,-17.6658,1001.3
86366,0.157693,9.77026,0.646101,0.21,-0.06,0.125,-46.2901,-53.4577,-17.1689,1001.3
86372,0.157693,9.77026,0.646101,0.14,-0.06,0.195,-46.4948,-53.3115,-17.1543,1001.33
86378,0.157693,9.77026,0.646101,0.14,-0.13,0.125,-46.4948,-52.99,-17.622,1001.33
86384,0.157693,9.77026,0.646101,0.14,-0.06,0.125,-46.524,-52.8731,-17.7096,1001.33
86390,0.157693,9.77026,0.646101,0,-0.06,0.125,-46.7871,-53.4869,-18.0458,1001.36
86396,0.157693,9.77026,0.646101,0,0.01,0.125,-46.904,-53.3992,-18.8497,1001.36
86402,0.157693,9.77026,0.646101,0.07,-0.06,0.195,-46.5825,-52.8438,-18.0312,1001.3
86408,0.157693,9.77026,0.646101,0.14,-0.06,0.055,-46.524,-53.1069,-16.7304,1001.3
86414,0.157693,9.77026,0.641351,0.21,-0.2,0.125,-46.6117,-53.5161,-18.1627,1001.3
86420,0.157693,9.77026,0.641351,0.07,0.01,0.055,-46.8455,-52.9315,-18.5135,1001.3
86426,0.157693,9.77026,0.641351,0.07,-0.13,-0.085,-46.4655,-53.1946,-17.8997,1001.34
86432,0.157693,9.77026,0.641351,0,-0.06,0.055,-46.6702,-53.37,-16.8473,1001.34
86438,0.157693,9.77026,0.641351,0.07,-0.06,0.055,-46.1148,-52.6684,-18.3235,1001.34
86444,0.157693,9.77026,0.641351,0,0.01,-0.015,-46.5532,-51.8792,-17.1981,1001.32
86450,0.157693,9.77026,0.641351,-0.07,-0.06,0.055,-46.904,-53.3407,-16.8327,1001.32
86456,0.157693,9.77026,0.641351,-0.07,-0.06,0.125,-46.1732,-53.3115,-17.7096,1001.32
86462,0.157693,9.76549,0.641351,0.28,0.08,0.335,-46.7871,-53.0777,-18.2504,1001.32
86468,0.157693,9.77026,0.636601,0.28,0.01,0.125,-46.6409,-53.1361,-18.2504,1001.29
86474,0.157693,9.77026,0.636601,0.14,-0.06,-0.015,-46.6994,-53.7792,-16.7596,1001.29
86480,0.157693,9.77026,0.636601,-0.07,0.01,0.125,-47.1086,-52.6392,-17.6073,1001.32
86486,0.157693,9.76549,0.641351,0.49,-0.2,0.055,-46.9917,-53.0484,-17.7096,1001.32
86492,0.157693,9.76549,0.641351,0.84,-0.2,0.195,-46.4948,-53.3407,-17.4904,1001.32
86498,0.157693,9.76549,0.636601,0.49,-0.13,0.195,-47.0794,-53.1946,-17.5927,1001.32
86504,0.157693,9.76549,0.636601,-0.07,-0.13,0.055,-46.4363,-52.9023,-18.4843,1001.32
86510,0.157693,9.76549,0.636601,0.21,-0.13,0.125,-46.5825,-53.5161,-16.8035,1001.33
86516,0.157693,9.76549,0.636601,0.28,-0.2,0.195,-46.9332,-53.3115,-17.0958,1001.33
86522,0.157693,9.76549,0.636601,0.35,-0.2,0.125,-46.2025,-52.6684,-17.1981,1001.35
86528,0.157693,9.76549,0.636601,0.14,-0.06,0.195,-46.2901,-53.1361,-16.5696,1001.35
86534,0.157693,9.77026,0.636601,0.28,-0.2,0.125,-46.4948,-53.3407,-18.1043,1001.34
86540,0.157693,9.77026,0.636601,0.28,-0.13,0.125,-46.6702,-52.8146,-18.2212,1001.34
86546,0.157693,9.77026,0.636601,0.21,-0.13,0.055,-47.3132,-52.3761,-17.7827,1001.33
86552,0.157693,9.77026,0.636601,0.14,-0.06,0.125,-47.0502,-53.4577,-17.9143,1001.33
86558,0.162472,9.77026,0.636601,0,0.01,-0.015,-46.904,-52.5223,-17.4904,1001.33
86564,0.162472,9.77026,0.636601,0,-0.13,0.055,-47.1963,-52.99,-17.5781,1001.31
86570,0.162472,9.77026,0.636601,-0.07,0.08,-0.015,-46.8163,-53.5454,-18.1773,1001.31
86576,0.162472,9.77026,0.631851,-0.07,0.01,-0.015,-47.0502,-53.1069,-17.8412,1001.32
86582,0.162472,9.77026,0.631851,-0.14,0.01,-0.085,-45.8809,-52.23,-18.4404,1001.32
86588,0.162472,9.77026,0.631851,-0.14,-0.06,-0.155,-46.6117,-53.6331,-18.0458,1001.3
86594,0.162472,9.76549,0.631851,-0.28,0.15,-0.085,-46.9917,-52.7269,-18.2504,1001.3
86600,0.162472,9.76549,0.631851,-0.21,0.01,-0.155,-46.3486,-52.5807,-18.6304,1001.33
86606,0.162472,9.76549,0.631851,-0.21,0.08,-0.085,-46.4655,-52.5807,-17.9727,1001.33
86612,0.162472,9.76549,0.631851,-0.21,0.08,-0.015,-46.5532,-53.4577,-18.7327,1001.33
86618,0.162472,9.76549,0.631851,-0.21,0.08,-0.085,-46.6409,-52.5223,-18.7181,1001.32
86624,0.162472,9.76549,0.631851,-0.21,0.15,-0.015,-46.9332,-52.6684,-18.0166,1001.32
86630,0.162472,9.76549,0.631851,-0.14,0.08,-0.155,-46.5532,-52.7854,-17.885,1001.31
86636,0.157693,9.76549,0.631851,-0.14,-0.06,-0.155,-46.4655,-52.5223,-17.9873,1001.31
86642,0.157693,9.76549,0.631851,-0.07,-0.06,-0.085,-46.524,-52.4346,-17.3881,1001.34
86648,0.157693,9.76549,0.631851,-0.07,-0.06,-0.085,-46.904,-53.1069,-18.5574,1001.34
86654,0.162472,9.76549,0.631851,0,-0.06,-0.155,-46.2901,-52.8731,-17.8266,1001.31
86660,0.162472,9.76549,0.631851,-0.14,0.01,-0.085,-46.5532,-53.1654,-18.455,1001.31
86666,0.157693,9.76549,0.631851,-0.14,0.22,0.055,-46.4655,-52.8731,-16.2627,1001.3
86672,0.162472,9.76549,0.631851,-0.28,0.15,-0.015,-46.4948,-53.0192,-18.1335,1001.3
86678,0.162472,9.76549,0.631851,-0.21,-0.06,-0.155,-46.4363,-52.9607,-17.9289,1001.3
86684,0.162472,9.76549,0.631851,-0.21,0.01,-0.155,-46.8748,-52.61,-18.0897,1001.34
86690,0.162472,9.76549,0.631851,-0.21,-0.06,-0.155,-46.3194,-52.61,-18.1335,1001.34
86696,0.162472,9.76549,0.631851,-0.07,-0.13,-0.155,-46.6994,-52.6684,-17.6804,1001.31
86702,0.162472,9.76549,0.631851,-0.07,-0.06,-0.085,-46.8163,-52.0838,-17.9873,1001.31
86708,0.162472,9.76549,0.631851,-0.14,0.01,-0.015,-46.6117,-53.5161,-18.1335,1001.33
86714,0.162472,9.76549,0.631851,-0.14,-0.06,-0.085,-46.6117,-53.3407,-18.0166,1001.33
86720,0.162472,9.76549,0.631851,-0.14,-0.13,-0.155,-46.7286,-53.0777,-17.8997,1001.34
86726,0.162472,9.76549,0.631851,-0.14,-0.06,-0.085,-46.2609,-52.99,-17.7973,1001.34
86732,0.162472,9.76549,0.631851,0,-0.06,-0.155,-46.4071,-53.3992,-18.0458,1001.34
86738,0.162472,9.76549,0.631851,-0.21,0.01,-0.155,-46.3778,-53.0484,-17.7389,1001.34
86744,0.162472,9.76549,0.631851,-0.14,-0.13,-0.085,-46.7286,-52.99,-18.9081,1001.34
86750,0.162472,9.76549,0.631851,0,-0.13,-0.155,-46.0855,-53.0192,-17.9727,1001.31
86756,0.162472,9.76549,0.631851,-0.07,-0.06,-0.155,-46.2317,-53.2823,-16.9204,1001.31
86762,0.162472,9.76549,0.631851,-0.14,-0.06,-0.085,-46.9625,-52.9607,-18.8643,1001.32
86768,0.162472,9.76549,0.627101,0,-0.06,-0.085,-46.904,-52.7561,-18.3381,1001.32
86774,0.162472,9.76549,0.627101,-0.07,0.01,-0.155,-46.3486,-53.1069,-17.4904,1001.34
86780,0.162472,9.76549,0.627101,-0.14,0.15,-0.155,-46.6117,-53.0777,-17.9727,1001.34
86786,0.162472,9.76549,0.627101,-0.07,0.15,-0.155,-46.5532,-52.9023,-19.0543,1001.34
86792,0.162472,9.76549,0.627101,0,0.01,-0.155,-46.6994,-53.37,-17.8558,1001.27
86798,0.162472,9.76549,0.627101,-0.07,0.01,-0.225,-46.2609,-53.3115,-17.7389,1001.27
86804,0.162472,9.76549,0.631851,-0.14,-0.06,-0.155,-46.7578,-52.5223,-18.6597,1001.33
86810,0.162472,9.76549,0.631851,0,-0.06,-0.155,-46.3778,-52.9023,-18.0604,1001.33
86816,0.162472,9.76549,0.627101,-0.14,0.01,-0.085,-46.6994,-53.0777,-17.8704,1001.31
86822,0.162472,9.76549,0.627101,-0.28,0.01,-0.085,-46.6994,-52.4053,-18.2797,1001.31
86828,0.162472,9.76549,0.631851,-0.07,0.08,-0.085,-46.7871,-52.9023,-18.6889,1001.33
86834,0.162472,9.76549,0.631851,0.07,0.01,-0.155,-46.8163,-53.1069,-18.1773,1001.33
86840,0.162472,9.76549,0.631851,-0.14,0.08,-0.015,-46.3778,-52.4638,-18.4697,1001.32
86846,0.162472,9.76549,0.631851,-0.14,0.08,0.055,-46.3194,-53.1069,-18.002,1001.32
86852,0.162472,9.76549,0.631851,-0.14,0.08,-0.155,-46.7286,-52.6392,-18.5281,1001.32
86858,0.162472,9.76073,0.631851,-0.14,0.08,-0.085,-47.4302,-52.8731,-18.2212,1001.33
86864,0.162472,9.76073,0.631851,0,-0.06,-0.015,-46.5532,-52.6977,-18.835,1001.33
86870,0.157693,9.76073,0.631851,-0.07,-0.06,-0.085,-46.6994,-52.2884,-18.002,1001.33
86876,0.162472,9.76073,0.631851,-0.21,0.08,-0.085,-46.9332,-52.6684,-18.1335,1001.33
86882,0.157693,9.76073,0.636601,-0.14,-0.06,-0.155,-46.5825,-52.4638,-18.3527,1001.31
86888,0.162472,9.76073,0.636601,-0.07,-0.06,-0.085,-46.5825,-53.5746,-18.5281,1001.31
86894,0.162472,9.76073,0.636601,0,0.01,-0.085,-46.4655,-52.3761,-18.1189,1001.32
86900,0.157693,9.76073,0.636601,-0.07,-0.06,-0.085,-46.2901,-52.5515,-19.5658,1001.32
86906,0.157693,9.76073,0.636601,-0.07,0.01,-0.155,-46.4655,-53.1069,-19.4781,1001.32
86912,0.157693,9.76073,0.636601,-0.07,0.01,-0.085,-46.3486,-52.8438,-17.5489,1001.32
86918,0.157693,9.76073,0.636601,-0.07,-0.06,-0.155,-46.4071,-53.1946,-19.2735,1001.32
86924,0.157693,9.76073,0.636601,-0.14,-0.06,-0.155,-46.1732,-52.493,-18.9374,1001.3
86930,0.157693,9.76073,0.636601,-0.07,0.01,-0.155,-46.9917,-53.3115,-17.7827,1001.3
86936,0.157693,9.76073,0.636601,-0.07,-0.06,-0.155,-46.9625,-52.9023,-18.4112,1001.33
86942,0.157693,9.76073,0.636601,-0.07,-0.06,-0.015,-46.4363,-52.7269,-18.455,1001.33
86948,0.157693,9.76073,0.636601,-0.07,-0.06,-0.155,-46.6702,-52.99,-17.9143,1001.28
86954,0.157693,9.76549,0.636601,-0.21,0.01,-0.225,-46.7578,-53.0192,-18.3527,1001.28
86960,0.157693,9.76549,0.636601,-0.14,-0.06,-0.225,-46.524,-53.2823,-20.2674,1001.36
86966,0.157693,9.76549,0.636601,-0.14,0.01,-0.155,-46.6702,-53.8377,-18.2797,1001.36
86972,0.157693,9.76549,0.636601,-0.21,0.01,-0.225,-46.6117,-53.7792,-19.5512,1001.36
86978,0.157693,9.76549,0.636601,-0.21,0.01,-0.295,-46.4655,-53.2238,-18.2066,1001.34
86984,0.157693,9.76549,0.636601,-0.28,0.01,-0.225,-46.904,-52.8731,-18.2212,1001.34
86990,0.157693,9.76549,0.636601,-0.14,-0.06,-0.225,-46.3778,-52.9315,-18.4989,1001.36
86996,0.157693,9.76549,0.636601,-0.14,0.01,-0.225,-46.3778,-53.4577,-18.2797,1001.36
87002,0.157693,9.76549,0.636601,-0.21,0.08,-0.155,-46.6409,-52.8438,-18.3089,1001.32
87008,0.157693,9.76549,0.636601,-0.35,0.08,-0.085,-46.4948,-53.4284,-18.7474,1001.32
87014,0.157693,9.76073,0.636601,-0.14,0.01,-0.225,-46.4071,-53.1361,-18.762,1001.3
87020,0.157693,9.76073,0.636601,-0.14,0.08,-0.225,-47.3132,-53.1361,-18.455,1001.3
87026,0.157693,9.76073,0.636601,-0.21,0.01,-0.085,-46.524,-53.1654,-18.1773,1001.3
87032,0.157693,9.76549,0.636601,-0.28,0.08,-0.155,-46.6702,-52.6977,-18.5427,1001.3
87038,0.157693,9.76549,0.636601,-0.07,-0.13,-0.155,-47.1379,-53.3407,-18.5281,1001.3
87044,0.157693,9.76549,0.636601,-0.07,-0.13,-0.155,-46.524,-52.7854,-18.2212,1001.29
87050,0.157693,9.76549,0.636601,-0.21,-0.06,-0.155,-45.8224,-53.3992,-18.4697,1001.29
87056,0.157693,9.76549,0.636601,-0.07,-0.06,-0.225,-46.3194,-53.1069,-18.0312,1001.33
87062,0.157693,9.76549,0.636601,-0.07,0.01,-0.085,-46.4071,-52.9023,-17.5635,1001.33
87068,0.157693,9.76549,0.636601,-0.14,-0.06,-0.085,-46.4363,-53.2531,-18.5427,1001.35
87074,0.157693,9.76549,0.636601,-0.07,0.08,-0.085,-46.2901,-53.6331,-18.1189,1001.35
87080,0.152914,9.76549,0.636601,0,-0.06,-0.085,-46.5532,-52.7269,-19.6828,1001.35
87086,0.152914,9.76549,0.636601,-0.07,0.01,-0.155,-47.0209,-53.0484,-18.2066,1001.34
87092,0.152914,9.76549,0.636601,-0.07,-0.06,-0.085,-46.524,-53.37,-17.9727,1001.34
87098,0.152914,9.76549,0.636601,-0.07,-0.06,-0.085,-46.5532,-52.8146,-18.5281,1001.33
87104,0.152914,9.76549,0.636601,-0.14,0.01,-0.085,-46.9625,-53.0484,-17.5635,1001.33
87110,0.152914,9.76549,0.636601,-0.14,0.01,-0.155,-46.8455,-53.4284,-18.6158,1001.3
87116,0.152914,9.76549,0.636601,-0.14,0.01,-0.085,-46.0563,-53.7792,-18.2797,1001.3
87122,0.152914,9.76073,0.636601,-0.07,-0.06,-0.085,-46.3486,-52.5515,-18.0312,1001.33
87128,0.152914,9.76549,0.636601,0.07,-0.13,-0.155,-46.1148,-52.4346,-18.3089,1001.33
87134,0.152914,9.76549,0.636601,-0.07,-0.13,-0.155,-46.3194,-53.4284,-18.5866,1001.34
87140,0.152914,9.76549,0.636601,-0.07,-0.06,-0.155,-46.5532,-52.7854,-18.2797,1001.34
87146,0.152914,9.76549,0.636601,-0.07,-0.06,-0.155,-46.8748,-52.9607,-17.6804,1001.34
87152,0.152914,9.76073,0.636601,-0.07,-0.13,-0.015,-46.3486,-53.5746,-17.3004,1001.29
87158,0.152914,9.76073,0.636601,-0.07,-0.2,-0.085,-46.144,-52.5223,-19.8435,1001.29
87164,0.152914,9.76073,0.636601,-0.07,-0.13,-0.155,-46.4071,-52.493,-17.8558,1001.34
87170,0.152914,9.76073,0.636601,0.07,-0.06,-0.085,-46.3778,-53.4284,-17.3004,1001.34
87176,0.152914,9.76549,0.636601,0,-0.27,-0.505,-47.5179,-52.99,-18.5574,1001.33
87182,0.152914,9.76549,0.636601,-0.14,0.01,-0.155,-46.4363,-52.8146,-17.7389,1001.33
87188,0.152914,9.76549,0.636601,0,-0.06,-0.085,-46.2901,-52.61,-17.0373,1001.34
87194,0.152914,9.76549,0.636601,-0.07,0.08,-0.085,-46.2901,-52.9023,-17.9143,1001.34
87200,0.152914,9.76549,0.636601,-0.07,0.01,-0.085,-45.5886,-52.2592,-18.645,1001.34
87206,0.152914,9.76549,0.631851,-0.07,-0.06,-0.155,-45.4717,-52.8731,-18.4258,1001.32
87212,0.157693,9.76549,0.631851,-0.21,-0.06,-0.155,-46.4071,-52.493,-18.8497,1001.32
87218,0.157693,9.76549,0.636601,-0.07,0.01,-0.225,-46.6409,-52.2884,-18.762,1001.33
87224,0.157693,9.76549,0.631851,-0.14,-0.06,-0.295,-46.3778,-52.5223,-18.7766,1001.33
87230,0.157693,9.76549,0.631851,-0.21,0.01,-0.295,-46.8748,-52.2884,-17.7973,1001.33
87236,0.157693,9.76549,0.636601,-0.28,0.01,-0.225,-46.1732,-52.23,-19.0397,1001.33
87242,0.157693,9.76549,0.631851,-0.28,-0.06,-0.295,-46.3194,-52.8438,-18.382,1001.32
87248,0.157693,9.76549,0.636601,-0.07,-0.13,-0.155,-46.3486,-52.2007,-18.7766,1001.32
87254,0.157693,9.76549,0.636601,0,-0.06,-0.225,-46.524,-53.4869,-17.5927,1001.32
87260,0.152914,9.76549,0.636601,-0.21,0.08,-0.295,-46.8455,-53.1654,-17.6658,1001.31
87266,0.152914,9.76549,0.636601,-0.21,-0.06,-0.295,-46.0855,-52.8438,-18.0312,1001.31
87272,0.152914,9.76549,0.636601,-0.07,0.01,-0.155,-46.2317,-53.0484,-18.6012,1001.32
87278,0.152914,9.76549,0.636601,-0.14,0.08,-0.155,-46.4071,-53.5161,-18.1189,1001.32
87284,0.157693,9.76549,0.636601,-0.21,0.01,-0.365,-46.2901,-52.99,-19.2151,1001.31
87290,0.152914,9.76549,0.631851,-0.21,0.08,-0.295,-46.6702,-52.61,-18.6743,1001.31
87296,0.152914,9.76549,0.636601,-0.21,0.08,-0.085,-46.524,-52.6392,-18.0458,1001.3
87302,0.152914,9.76549,0.631851,-0.21,0.01,-0.155,-46.3778,-52.3177,-18.0312,1001.3
87308,0.152914,9.76549,0.631851,-0.28,0.01,-0.155,-46.2025,-52.8146,-18.2358,1001.36
87314,0.152914,9.76549,0.631851,-0.21,0.01,-0.155,-47.0209,-52.3761,-17.0958,1001.36
87320,0.152914,9.76549,0.631851,0,0.01,-0.085,-46.6409,-52.2007,-18.6158,1001.36
87326,0.152914,9.76549,0.631851,-0.07,-0.13,-0.085,-46.8455,-52.0546,-18.9081,1001.32
87332,0.152914,9.76549,0.631851,-0.07,-0.13,-0.155,-46.3486,-52.6684,-17.622,1001.32
87338,0.152914,9.76549,0.631851,-0.07,0.01,-0.015,-46.8455,-52.2884,-18.572,1001.31
87344,0.152914,9.76549,0.631851,-0.07,0.01,-0.085,-46.144,-52.1423,-17.7973,1001.31
87350,0.152914,9.76549,0.631851,-0.07,0.08,-0.085,-46.4071,-52.493,-17.3443,1001.3
87356,0.152914,9.76549,0.631851,-0.07,-0.06,-0.155,-46.1148,-52.6392,-18.645,1001.3
87362,0.152914,9.76549,0.631851,-0.07,-0.06,-0.155,-46.7578,-52.9315,-17.4319,1001.34
87368,0.152914,9.76549,0.631851,-0.07,0.01,-0.225,-46.9625,-52.3177,-17.8997,1001.34
87374,0.152914,9.76549,0.631851,0,-0.06,-0.085,-46.3778,-52.493,-16.2189,1001.34
87380,0.152914,9.76549,0.631851,0.07,0.01,-0.155,-46.3486,-52.23,-18.0166,1001.31
87386,0.152914,9.76549,0.631851,0,0.15,-0.155,-46.6994,-52.5223,-16.8181,1001.31
87392,0.152914,9.76549,0.631851,0.07,0.01,-0.085,-46.1732,-52.113,-18.192,1001.29
87398,0.152914,9.76549,0.631851,-0.07,-0.06,-0.155,-45.9394,-52.1423,-19.0543,1001.29
87404,0.152914,9.76549,0.631851,0,-0.13,-0.015,-46.0563,-52.2007,-18.1627,1001.32
87410,0.152914,9.76549,0.631851,0,-0.06,-0.015,-45.764,-52.0546,-18.0458,1001.32
87416,0.152914,9.76549,0.631851,-0.14,0.01,-0.085,-46.0563,-52.8438,-17.2712,1001.32
87422,0.152914,9.76549,0.631851,-0.21,0.08,-0.085,-46.144,-52.2007,-19.1566,1001.32
87428,0.152914,9.76549,0.631851,-0.14,0.08,0.055,-45.6471,-52.2884,-18.1773,1001.32
87434,0.152914,9.76549,0.631851,-0.21,0.01,-0.015,-46.5532,-52.9023,-18.4989,1001.32
87440,0.152914,9.76549,0.631851,-0.14,-0.06,-0.085,-46.6702,-52.1715,-18.4404,1001.32
87446,0.152914,9.76549,0.631851,-0.14,-0.06,-0.155,-46.8163,-52.2884,-18.3089,1001.33
87452,0.152914,9.76549,0.631851,-0.07,0.08,-0.085,-46.4655,-52.3761,-18.3381,1001.33
87458,0.152914,9.76549,0.631851,-0.07,0.08,-0.015,-46.524,-53.2531,-18.5866,1001.31
87464,0.152914,9.76549,0.631851,-0.14,0.08,-0.085,-46.5825,-52.9315,-18.2066,1001.31
87470,0.157693,9.76549,0.631851,-0.07,-0.06,-0.085,-46.4655,-52.8146,-19.4781,1001.32
87476,0.157693,9.76549,0.631851,0,-0.13,-0.225,-46.3194,-52.6684,-20.0481,1001.32
87482,0.157693,9.76549,0.631851,0.14,0.01,-0.155,-47.3425,-53.0777,-21.1151,1001.34
87488,0.152914,9.76549,0.631851,0.14,0.08,0.195,-46.2609,-53.3992,-18.0897,1001.34
87494,0.152914,9.76549,0.636601,0.07,-0.06,-0.085,-46.7871,-52.4053,-18.3235,1001.34
87500,0.152914,9.76549,0.636601,0.21,-0.13,-0.015,-46.9332,-52.8438,-18.5281,1001.31
87506,0.152914,9.76549,0.636601,0.21,-0.13,-0.085,-46.1148,-52.5515,-17.7973,1001.31
87512,0.152914,9.76549,0.636601,0.07,-0.13,-0.155,-46.0563,-53.0777,-17.7096,1001.32
87518,0.152914,9.76549,0.636601,0.07,-0.2,-0.015,-46.3486,-52.8731,-18.5574,1001.32
87524,0.152914,9.76549,0.636601,0.21,-0.13,0.055,-46.0563,-52.1715,-18.1335,1001.3
87530,0.152914,9.76549,0.636601,0.14,-0.13,-0.015,-46.4948,-52.8438,-18.9374,1001.3
87536,0.152914,9.76549,0.636601,0.14,-0.2,-0.015,-46.3486,-52.9315,-18.002,1001.32
87542,0.152914,9.76549,0.636601,0.07,0.01,-0.015,-46.8163,-52.0546,-17.2419,1001.32
87548,0.152914,9.76549,0.636601,0,0.08,-0.015,-46.5532,-52.4638,-17.5781,1001.32
87554,0.152914,9.76549,0.636601,0.07,-0.13,0.055,-46.6409,-52.6977,-18.1627,1001.33
87560,0.152914,9.76549,0.636601,0.07,-0.27,0.125,-47.0794,-52.61,-17.8558,1001.33
87566,0.152914,9.76549,0.636601,0.14,-0.13,0.055,-46.5532,-52.7561,-18.2212,1001.33
87572,0.152914,9.76549,0.636601,0.07,-0.06,0.055,-45.9978,-52.4053,-18.9227,1001.33
87578,0.152914,9.76549,0.636601,0.14,-0.13,0.055,-46.144,-53.1361,-18.455,1001.31
87584,0.152914,9.76549,0.636601,0.14,-0.13,-0.015,-46.4071,-52.7561,-18.6012,1001.31
87590,0.152914,9.76549,0.636601,0.07,-0.06,-0.085,-48.0733,-53.6623,-20.9251,1001.3
87596,0.152914,9.76549,0.636601,0.14,0.01,-0.015,-45.9394,-53.1069,-18.9958,1001.3
87602,0.152914,9.76549,0.636601,0.07,0.01,-0.015,-46.904,-52.113,-17.6658,1001.33
87608,0.152914,9.76549,0.631851,0.07,0.01,-0.015,-46.1732,-52.5223,-18.3673,1001.33
87614,0.152914,9.76549,0.631851,0,-0.06,-0.015,-45.4132,-52.8731,-17.1689,1001.33
87620,0.152914,9.76549,0.631851,-0.07,0.08,-0.015,-45.9686,-52.4638,-18.0604,1001.34
87626,0.152914,9.76549,0.631851,0,0.01,0.055,-46.524,-52.7854,-18.3673,1001.34
87632,0.152914,9.76549,0.631851,0.14,-0.13,0.125,-46.1732,-53.75,-17.3443,1001.34
87638,0.152914,9.76549,0.636601,0.28,-0.06,0.055,-45.9978,-52.5223,-18.7327,1001.34
87644,0.152914,9.76549,0.631851,0.14,-0.06,0.055,-45.5301,-52.61,-19.0251,1001.31
87650,0.152914,9.76549,0.631851,0.14,-0.2,-0.015,-45.6471,-52.9607,-17.7827,1001.31
87656,0.148136,9.76549,0.631851,0.07,-0.06,-0.015,-45.764,-52.9023,-17.695,1001.32
87662,0.148136,9.76549,0.636601,0.07,-0.13,0.125,-46.3194,-52.7561,-17.8704,1001.32
87668,0.152914,9.76549,0.636601,0.14,-0.13,0.195,-45.9394,-53.3992,-18.1189,1001.32
87674,0.152914,9.76549,0.636601,0.21,-0.2,0.055,-45.9101,-52.23,-18.4258,1001.33
87680,0.152914,9.76549,0.636601,0.14,0.01,0.055,-46.8748,-53.1069,-18.8789,1001.33
87686,0.152914,9.76549,0.636601,0.21,-0.2,-0.015,-46.4071,-52.5223,-18.9666,1001.31
87692,0.152914,9.76549,0.636601,0.28,-0.41,-0.015,-45.9101,-52.8731,-18.1043,1001.31
87698,0.152914,9.76549,0.636601,0.14,-0.2,0.055,-46.2317,-52.6392,-18.2212,1001.32
87704,0.152914,9.76549,0.636601,0.07,-0.13,0.055,-46.1148,-52.4346,-17.8704,1001.32
87710,0.152914,9.76073,0.636601,0.07,-0.06,0.055,-45.9686,-53.3115,-17.6073,1001.31
87716,0.152914,9.76073,0.636601,0.14,0.01,-0.015,-46.7286,-52.6977,-18.1773,1001.31
87722,0.152914,9.76073,0.636601,0.14,-0.06,0.125,-46.3194,-53.1069,-17.9581,1001.31
87728,0.152914,9.76073,0.636601,0.14,-0.13,0.055,-46.2609,-52.8146,-17.2858,1001.36
87734,0.152914,9.76073,0.636601,0.07,-0.06,0.125,-45.7932,-51.7623,-17.1396,1001.36
87740,0.152914,9.76073,0.636601,0.07,-0.06,0.125,-46.524,-52.3469,-18.2797,1001.34
87746,0.152914,9.76073,0.636601,0.07,-0.13,0.125,-46.2025,-52.6392,-16.5404,1001.34
87752,0.152914,9.76073,0.636601,0,0.01,0.125,-45.9394,-52.8438,-17.5343,1001.3
87758,0.152914,9.76073,0.636601,-0.07,-0.06,0.125,-47.1963,-52.493,-18.6012,1001.3
87764,0.152914,9.76073,0.636601,0,-0.06,0.055,-46.6117,-52.5223,-18.4112,1001.35
87770,0.148136,9.76073,0.636601,0.07,0.01,0.125,-46.0855,-52.8146,-17.9435,1001.35
87776,0.148136,9.76073,0.641351,0.07,-0.06,0.055,-46.3486,-52.2884,-18.0604,1001.33
87782,0.148136,9.76073,0.641351,0.14,-0.06,0.055,-46.4655,-52.5807,-17.9289,1001.33
87788,0.148136,9.76073,0.641351,0.14,-0.06,0.055,-47.1086,-52.7269,-18.6889,1001.33
87794,0.148136,9.76073,0.641351,-0.07,0.43,0.405,-46.2317,-52.3761,-17.0519,1001.31
87800,0.148136,9.76073,0.641351,0.14,0.01,0.265,-46.7578,-53.2531,-18.6012,1001.31
87806,0.148136,9.76073,0.641351,0.28,-0.06,0.055,-46.4948,-52.7854,-18.1189,1001.31
87812,0.148136,9.76073,0.641351,0.21,-0.06,0.125,-45.9394,-52.0838,-19.4928,1001.31
87818,0.148136,9.76073,0.641351,0.21,-0.13,0.055,-46.6409,-52.8731,-17.505,1001.32
87824,0.148136,9.76073,0.641351,0.28,-0.13,0.055,-47.1963,-52.9023,-18.4258,1001.32
87830,0.152914,9.76073,0.641351,0.28,-0.13,0.125,-46.144,-53.2823,-17.5781,1001.34
87836,0.152914,9.76073,0.641351,0.21,-0.13,0.195,-45.8224,-52.6392,-18.835,1001.34
87842,0.152914,9.76073,0.641351,0.14,-0.13,0.125,-46.5532,-53.6331,-18.572,1001.34
87848,0.152914,9.76073,0.641351,0.14,-0.13,0.055,-46.0563,-53.0484,-17.8997,1001.32
87854,0.148136,9.76073,0.641351,0.21,-0.06,0.125,-46.0855,-54.3054,-17.1689,1001.32
87860,0.148136,9.76073,0.641351,0.21,-0.13,0.125,-46.524,-53.75,-17.812,1001.32
87866,0.148136,9.76073,0.641351,0.21,-0.06,0.195,-46.2901,-53.0484,-18.075,1001.32
87872,0.148136,9.76073,0.641351,0.14,0.01,0.195,-46.3194,-53.4869,-18.5135,1001.28
87878,0.148136,9.76073,0.641351,0.21,-0.06,0.195,-45.7348,-52.6684,-18.8058,1001.28
87884,0.148136,9.76073,0.641351,0.28,-0.13,0.335,-45.5886,-53.7208,-18.7474,1001.33
87890,0.148136,9.76073,0.641351,0.35,0.01,0.195,-46.2025,-53.1069,-19.8581,1001.33
87896,0.148136,9.76073,0.641351,0.35,-0.13,0.685,-46.0563,-52.9023,-18.0604,1001.32
87902,0.148136,9.76073,0.641351,0.35,-0.2,0.335,-45.764,-52.5223,-18.5427,1001.32
87908,0.148136,9.76549,0.641351,0.28,-0.06,0.125,-46.2901,-52.7854,-18.3089,1001.32
87914,0.148136,9.76073,0.641351,0.28,-0.13,0.265,-46.3486,-53.5454,-17.7973,1001.28
87920,0.148136,9.76549,0.641351,0.21,-0.06,0.195,-46.6409,-52.9607,-18.835,1001.28
87926,0.148136,9.76549,0.641351,0.21,-0.13,0.195,-46.2609,-52.7561,-20.2674,1001.3
87932,0.148136,9.76549,0.641351,0.35,-0.06,0.055,-45.384,-53.6331,-18.002,1001.3
87938,0.148136,9.76549,0.641351,0.42,-0.06,0.195,-46.2901,-52.7561,-19.4928,1001.3
87944,0.148136,9.76549,0.641351,0.28,-0.13,0.195,-45.2086,-52.8146,-18.7912,1001.3
87950,0.148136,9.76073,0.641351,0.21,-0.13,0.265,-46.0855,-52.2592,-18.1335,1001.32
87956,0.148136,9.76073,0.641351,0.49,-0.13,0.195,-45.9686,-52.9607,-18.3235,1001.32
87962,0.148136,9.76073,0.641351,0.28,-0.06,0.195,-45.9394,-52.7854,-17.812,1001.32
87968,0.152914,9.76073,0.641351,0.21,-0.13,0.125,-45.7932,-52.2592,-17.3735,1001.37
87974,0.148136,9.76073,0.641351,0.21,-0.06,0.265,-46.1732,-53.0777,-17.3004,1001.37
87980,0.148136,9.76073,0.641351,0.28,-0.06,0.195,-45.9686,-51.9084,-18.265,1001.33
87986,0.148136,9.76073,0.636601,0.21,-0.2,0.195,-46.2609,-53.2238,-17.7096,1001.33
87992,0.148136,9.76073,0.636601,0.14,-0.2,0.195,-46.2025,-52.6977,-18.7912,1001.35
87998,0.148136,9.76073,0.636601,0.21,-0.13,-0.295,-46.144,-52.4346,-18.3089,1001.35
88004,0.148136,9.76073,0.641351,0.21,-0.2,0.195,-45.6471,-52.7854,-18.1335,1001.3
88010,0.152914,9.76073,0.641351,0.14,-0.06,0.195,-45.9978,-52.6684,-17.4466,1001.3
88016,0.152914,9.76073,0.641351,0.21,-0.2,0.125,-45.5301,-52.99,-18.0897,1001.3
88022,0.152914,9.76073,0.641351,0.21,-0.2,0.125,-45.6471,-52.6977,-17.0519,1001.34
88028,0.152914,9.76549,0.641351,0.14,-0.06,0.125,-46.1732,-53.0484,-17.3296,1001.34
88034,0.152914,9.76073,0.641351,0.21,-0.06,0.125,-46.6117,-52.4638,-17.125,1001.33
88040,0.152914,9.76073,0.641351,0.21,-0.06,0.125,-46.1732,-52.0546,-17.885,1001.33
88046,0.152914,9.76073,0.641351,0.21,-0.13,0.195,-46.0271,-52.3469,-18.4843,1001.3
88052,0.152914,9.76073,0.641351,0.28,-0.06,0.265,-46.0855,-52.5515,-17.8558,1001.3
88058,0.152914,9.76073,0.641351,0.21,-0.06,0.265,-46.2901,-52.1715,-17.0812,1001.35
88064,0.152914,9.76549,0.641351,0.28,-0.13,0.335,-45.5886,-52.3469,-17.4904,1001.35
88070,0.152914,9.76549,0.641351,0.28,-0.27,0.195,-46.2609,-51.85,-18.5427,1001.31
88076,0.152914,9.76549,0.641351,0.21,-0.13,0.195,-46.4948,-52.3761,-18.0897,1001.31
88082,0.152914,9.76549,0.641351,0.21,-0.13,0.265,-45.8224,-52.4053,-18.1773,1001.31
88088,0.152914,9.76549,0.641351,0.21,-0.13,0.335,-45.5594,-52.3761,-19.1566,1001.34
88094,0.152914,9.76549,0.641351,0.21,-0.2,0.055,-46.1732,-52.3761,-18.835,1001.34
88100,0.157693,9.76549,0.641351,0.28,-0.2,0.125,-46.4071,-52.4053,-18.3966,1001.37
88106,0.157693,9.76549,0.646101,0.21,-0.2,-0.225,-46.3486,-52.9023,-16.9204,1001.37
88112,0.157693,9.76549,0.646101,0.28,-0.2,-0.015,-46.1148,-52.3177,-17.5635,1001.34
88118,0.157693,9.76549,0.646101,0.35,-0.13,0.055,-46.7286,-52.4638,-17.9435,1001.34
88124,0.157693,9.76549,0.646101,0.21,-0.13,0.055,-47.4302,-52.5807,-18.3235,1001.35
88130,0.157693,9.76549,0.646101,0.21,-0.2,0.055,-46.6409,-52.9023,-17.1396,1001.35
88136,0.157693,9.76549,0.641351,0.21,-0.13,0.195,-45.8809,-52.3177,-17.7535,1001.35
88142,0.157693,9.76549,0.646101,0.21,-0.27,0.195,-46.7578,-52.23,-18.5281,1001.31
88148,0.157693,9.76549,0.646101,0.21,-0.2,0.055,-46.4071,-52.2592,-17.9727,1001.31
88154,0.157693,9.76549,0.646101,0.21,-0.13,0.055,-46.7578,-52.4346,-19.1566,1001.28
88160,0.157693,9.76549,0.646101,0.28,-0.13,-0.015,-46.2025,-51.8207,-18.5427,1001.28
88166,0.157693,9.76549,0.646101,0,-0.13,0.195,-46.4071,-52.3761,-18.455,1001.3
88172,0.157693,9.76549,0.646101,0,0.08,0.055,-45.8517,-52.23,-17.9727,1001.3
88178,0.157693,9.76549,0.646101,0.14,-0.06,0.125,-46.3194,-52.4346,-17.4904,1001.33
88184,0.157693,9.76549,0.641351,0.28,-0.2,0.125,-46.144,-52.61,-17.5927,1001.33
88190,0.162472,9.76549,0.641351,0.07,0.01,0.055,-46.2025,-52.7269,-18.9958,1001.33
88196,0.162472,9.76549,0.641351,0,-0.06,0.055,-46.524,-53.1361,-18.0166,1001.32
88202,0.157693,9.76549,0.641351,0,-0.06,-0.015,-46.4363,-52.493,-17.622,1001.32
88208,0.157693,9.76549,0.641351,0.07,-0.06,-0.015,-46.524,-52.8146,-18.8497,1001.31
88214,0.157693,9.76073,0.641351,0.14,-0.06,0.055,-46.8748,-52.6977,-17.3881,1001.31
88220,0.157693,9.76073,0.641351,0.14,-0.06,0.125,-45.9394,-52.2592,-18.455,1001.32
88226,0.157693,9.76073,0.641351,0.14,-0.13,0.125,-46.8163,-53.1069,-18.4989,1001.32
88232,0.157693,9.76073,0.641351,0.21,-0.06,0.125,-46.524,-52.8731,-17.7096,1001.28
88238,0.157693,9.76073,0.641351,0.21,-0.06,0.125,-46.4071,-52.7269,-17.5635,1001.28
88244,0.157693,9.76073,0.641351,0.21,-0.13,0.195,-47.0209,-53.2823,-18.2943,1001.31
88250,0.157693,9.76073,0.641351,0.21,-0.13,0.195,-46.4071,-52.9607,-18.1481,1001.31
88256,0.157693,9.76073,0.641351,0.28,-0.13,0.265,-46.7286,-53.1654,-17.505,1001.31
88262,0.157693,9.76073,0.641351,0.42,-0.2,0.265,-46.1732,-52.7561,-18.3527,1001.34
88268,0.157693,9.76073,0.641351,0.35,-0.13,0.265,-46.4071,-52.8438,-18.7327,1001.34
88274,0.157693,9.76073,0.641351,0.28,-0.2,0.125,-46.524,-53.1946,-16.5404,1001.32
88280,0.162472,9.76073,0.641351,0.28,-0.2,0.195,-45.7932,-52.9315,-18.0897,1001.32
88286,0.162472,9.76073,0.641351,0.28,-0.13,0.125,-46.4071,-52.99,-17.2858,1001.32
88292,0.162472,9.76073,0.641351,0.35,-0.06,0.195,-46.7578,-52.3761,-18.0166,1001.32
88298,0.162472,9.76073,0.641351,0.28,-0.13,0.195,-46.4948,-52.6392,-17.3881,1001.31
88304,0.162472,9.76549,0.636601,0.07,-0.13,0.545,-47.0209,-52.7854,-18.7035,1001.31
88310,0.162472,9.76549,0.641351,0.07,-0.13,0.265,-46.3194,-53.4869,-18.8935,1001.31
88316,0.162472,9.76549,0.641351,0.14,0.01,0.195,-46.6994,-52.99,-17.4027,1001.31
88322,0.162472,9.76549,0.641351,0.35,-0.2,0.195,-46.5825,-52.1423,-18.4989,1001.31
88328,0.162472,9.76549,0.636601,0.28,-0.2,0.195,-46.6994,-52.2592,-17.505,1001.34
88334,0.162472,9.76549,0.636601,0.14,-0.06,0.055,-47.284,-52.61,-18.2212,1001.34
88340,0.162472,9.76549,0.636601,-0.07,-0.06,0.055,-46.1732,-52.0253,-17.3881,1001.35
88346,0.162472,9.76549,0.636601,-0.14,-0.13,0.125,-46.2025,-52.3761,-19.0689,1001.35
88352,0.162472,9.76549,0.636601,0.28,-0.13,0.055,-45.7055,-53.2823,-17.9581,1001.32
88358,0.162472,9.76549,0.636601,0,0.01,-0.015,-46.144,-53.2238,-18.3089,1001.32
88364,0.162472,9.76549,0.636601,-0.14,0.01,-0.015,-46.7871,-52.2007,-18.4404,1001.33
88370,0.162472,9.76549,0.636601,0,-0.13,0.055,-46.2025,-53.1654,-18.5574,1001.33
88376,0.162472,9.76549,0.636601,0,-0.13,0.055,-46.1148,-52.8731,-18.7912,1001.33
88382,0.162472,9.76549,0.636601,0.07,-0.13,0.055,-46.5532,-52.9023,-18.2358,1001.35
88388,0.162472,9.77026,0.636601,0.07,0.01,-0.015,-45.9394,-52.1423,-19.0104,1001.35
88394,0.162472,9.77026,0.636601,0,0.01,0.055,-46.6994,-52.9315,-18.4843,1001.31
88400,0.162472,9.77026,0.636601,0,0.08,0.055,-46.0271,-51.8792,-19.0689,1001.31
88406,0.162472,9.77026,0.631851,0.07,0.01,0.055,-46.7578,-52.493,-18.4258,1001.31
88412,0.162472,9.77026,0.631851,0,-0.06,-0.015,-45.8517,-52.493,-17.7389,1001.31
88418,0.162472,9.77026,0.636601,0,-0.06,-0.085,-46.5532,-52.7854,-18.6304,1001.3
88424,0.162472,9.77026,0.636601,-0.07,-0.13,-0.085,-46.524,-52.113,-17.7681,1001.3
88430,0.162472,9.77026,0.636601,0,-0.06,-0.085,-46.4071,-53.2823,-18.835,1001.3
88436,0.162472,9.77026,0.636601,0,-0.06,-0.085,-45.8809,-52.8438,-18.8497,1001.34
88442,0.162472,9.77026,0.636601,-0.07,0.01,-0.015,-46.524,-52.9315,-17.812,1001.34
88448,0.162472,9.76549,0.636601,0,-0.13,-0.015,-46.4363,-53.1361,-18.3673,1001.32
88454,0.162472,9.77026,0.636601,0.07,-0.06,-0.085,-46.4071,-52.2884,-17.8266,1001.32
88460,0.162472,9.77026,0.631851,-0.14,0.08,-0.015,-46.524,-52.5807,-18.1627,1001.34
88466,0.162472,9.77026,0.636601,-0.28,-0.06,0.055,-46.0855,-53.1069,-17.9289,1001.34
88472,0.162472,9.77026,0.636601,0,-0.13,-0.015,-46.4071,-53.2823,-18.9227,1001.3
88478,0.162472,9.77026,0.631851,0.07,-0.06,-0.015,-46.904,-52.7561,-17.3589,1001.3
88484,0.162472,9.77026,0.631851,-0.21,-0.06,-0.155,-46.2025,-53.4577,-18.1335,1001.3
88490,0.162472,9.77026,0.636601,-0.07,-0.06,-0.155,-45.8224,-52.9607,-18.0166,1001.29
88496,0.162472,9.77026,0.636601,0,0.01,-0.225,-46.3486,-52.9023,-17.9581,1001.29
88502,0.162472,9.77026,0.636601,-0.28,0.08,-0.155,-46.6994,-52.7269,-19.1127,1001.3
88508,0.162472,9.77026,0.636601,-0.14,0.01,0.125,-47.8686,-52.8438,-18.3089,1001.3
88514,0.162472,9.77026,0.636601,-0.14,0.15,0.055,-46.5532,-52.493,-18.3966,1001.33
88520,0.162472,9.77026,0.636601,-0.07,0.01,-0.085,-46.5825,-52.9023,-18.0166,1001.33
88526,0.162472,9.77026,0.636601,0,-0.13,-0.015,-46.5532,-52.6684,-18.5427,1001.32
88532,0.162472,9.77026,0.636601,-0.21,0.08,-0.015,-46.3486,-52.4346,-19.2881,1001.32
88538,0.162472,9.77026,0.636601,-0.14,0.01,-0.015,-46.4948,-52.8731,-18.6012,1001.3
88544,0.162472,9.77026,0.636601,-0.14,-0.06,-0.085,-45.8224,-52.7854,-17.7096,1001.3
88550,0.162472,9.77026,0.636601,-0.14,0.01,-0.085,-47.1379,-53.2531,-18.8643,1001.3
88556,0.162472,9.76549,0.636601,-0.21,0.01,-0.015,-47.0502,-52.7561,-19.332,1001.28
88562,0.162472,9.76549,0.636601,-0.07,-0.06,-0.015,-46.524,-52.8438,-19.3758,1001.28
88568,0.162472,9.76549,0.641351,0,-0.13,-0.085,-46.1148,-53.0777,-18.5866,1001.32
88574,0.162472,9.76549,0.641351,-0.14,0.01,-0.015,-46.524,-52.9607,-17.9727,1001.32
88580,0.162472,9.76549,0.636601,-0.21,0.08,-0.085,-45.7055,-53.1946,-18.002,1001.31
88586,0.162472,9.76549,0.636601,0,0.01,-0.085,-45.9978,-52.8731,-18.192,1001.31
88592,0.162472,9.77026,0.636601,0,0.01,-0.015,-45.8517,-52.3177,-17.9727,1001.34
88598,0.162472,9.77026,0.636601,-0.14,0.01,-0.015,-46.3778,-52.1423,-18.4989,1001.34
88604,0.162472,9.76549,0.636601,-0.14,0.01,-0.015,-46.3486,-52.4053,-18.5574,1001.34
88610,0.16725,9.77026,0.636601,0,-0.06,-0.015,-46.8163,-53.0484,-18.9374,1001.32
88616,0.16725,9.76549,0.636601,-0.07,-0.06,-0.015,-46.6409,-53.1069,-18.3381,1001.32
88622,0.162472,9.76549,0.636601,-0.14,0.08,-0.085,-46.3486,-53.0484,-18.7766,1001.34
88628,0.162472,9.77026,0.636601,0,0.01,0.125,-46.1732,-52.7561,-19.1566,1001.34
88634,0.162472,9.76549,0.636601,0,-0.13,-0.015,-46.4071,-53.0484,-18.1481,1001.33
88640,0.162472,9.76549,0.636601,0,-0.06,-0.085,-46.0563,-53.3115,-18.9666,1001.33
88646,0.162472,9.76549,0.636601,-0.07,-0.13,-0.085,-46.2317,-53.1946,-18.7474,1001.26
88652,0.162472,9.76549,0.636601,0,0.01,-0.015,-46.3486,-52.5807,-19.3174,1001.26
88658,0.162472,9.76549,0.636601,0,-0.2,-0.015,-46.6702,-52.99,-19.1127,1001.26
88664,0.162472,9.76549,0.636601,-0.07,0.01,-0.085,-47.2255,-52.8146,-18.6597,1001.32
88670,0.162472,9.76549,0.636601,-0.14,0.01,-0.015,-46.3486,-52.4638,-18.3381,1001.32
88676,0.162472,9.76549,0.636601,0,0.01,-0.015,-46.144,-52.6684,-18.265,1001.34
88682,0.16725,9.76549,0.636601,0.07,-0.06,-0.015,-45.7932,-53.0777,-17.315,1001.34
88688,0.162472,9.76549,0.636601,0.07,0.01,0.055,-46.5532,-53.0192,-17.7827,1001.33
88694,0.162472,9.76549,0.636601,-0.07,-0.06,-0.155,-46.4655,-53.0484,-17.695,1001.33
88700,0.162472,9.76549,0.636601,-0.07,-0.06,-0.085,-46.7578,-52.2007,-19.2004,1001.32
88706,0.162472,9.76549,0.636601,-0.07,-0.13,-0.015,-46.4071,-52.9315,-17.6366,1001.32
88712,0.162472,9.76549,0.636601,0.14,-0.06,-0.085,-48.424,-53.6038,-18.382,1001.23
88718,0.162472,9.76549,0.636601,0,-0.13,0.055,-46.1732,-52.9607,-18.3235,1001.23
88724,0.162472,9.76549,0.636601,0,0.01,-0.015,-46.1732,-53.2823,-17.2858,1001.23
88730,0.162472,9.76549,0.636601,0.07,-0.06,-0.015,-46.0271,-52.7561,-18.1189,1001.29
88736,0.162472,9.76549,0.636601,-0.07,0.01,0.055,-46.2025,-52.6977,-17.7973,1001.29
88742,0.162472,9.76549,0.636601,0,0.01,-0.155,-46.5532,-52.6392,-17.9143,1001.32
88748,0.162472,9.76549,0.636601,-0.07,-0.06,-0.155,-46.2609,-51.9084,-17.7973,1001.32
88754,0.162472,9.76549,0.636601,0,-0.06,-0.015,-46.6117,-53.37,-17.885,1001.32
88760,0.162472,9.76549,0.636601,0.07,-0.13,-0.085,-45.7932,-52.8146,-18.6012,1001.32
88766,0.162472,9.76549,0.636601,-0.07,0.01,-0.085,-45.7932,-52.0546,-18.075,1001.32
88772,0.162472,9.76549,0.631851,-0.14,-0.06,-0.015,-45.4132,-52.8731,-19.5804,1001.32
88778,0.162472,9.76549,0.631851,-0.07,-0.13,-0.015,-46.6117,-52.3469,-18.8789,1001.32
88784,0.162472,9.76549,0.631851,-0.14,-0.06,0.125,-46.8163,-53.1361,-18.265,1001.32
88790,0.162472,9.76549,0.631851,-0.14,0.01,-0.015,-46.8455,-52.6684,-17.4173,1001.32
88796,0.162472,9.76549,0.631851,-0.07,0.01,-0.155,-46.3778,-53.2823,-18.2212,1001.3
88802,0.162472,9.76549,0.631851,-0.14,-0.06,-0.085,-46.3486,-53.0192,-18.8204,1001.3
88808,0.16725,9.76549,0.631851,-0.07,-0.06,-0.015,-47.1671,-51.8792,-19.522,1001.31
88814,0.16725,9.76549,0.631851,-0.21,-0.06,-0.085,-48.0148,-53.7208,-21.6705,1001.31
88820,0.16725,9.76549,0.631851,-0.07,0.01,-0.085,-46.0271,-52.2884,-18.6597,1001.3
88826,0.16725,9.76549,0.631851,-0.14,-0.06,-0.085,-46.1732,-52.5223,-18.6597,1001.3
88832,0.162472,9.76549,0.631851,0.07,-0.06,0.055,-45.9394,-53.2531,-18.4843,1001.33
88838,0.162472,9.76549,0.631851,0.14,-0.06,-0.015,-45.9394,-52.9607,-19.3758,1001.33
88844,0.162472,9.76549,0.631851,0,0.01,-0.015,-46.4655,-52.8731,-18.5281,1001.33
88850,0.162472,9.76549,0.631851,0,0.01,-0.015,-46.524,-52.9315,-18.192,1001.32
88856,0.162472,9.76549,0.631851,0,-0.06,-0.015,-45.9394,-52.99,-18.9812,1001.32
88862,0.162472,9.76549,0.631851,-0.07,-0.13,-0.085,-45.5886,-53.0192,-18.265,1001.31
88868,0.162472,9.76073,0.631851,0,-0.06,-0.015,-46.9332,-52.9315,-17.5489,1001.31
88874,0.162472,9.76073,0.631851,-0.07,0.01,-0.155,-45.764,-52.8731,-17.812,1001.33
88880,0.162472,9.76549,0.631851,-0.21,-0.06,-0.015,-47.0502,-52.99,-18.2066,1001.33
88886,0.162472,9.76549,0.631851,0,-0.13,-0.085,-46.5825,-52.9607,-19.2735,1001.36
88892,0.162472,9.76549,0.631851,0.07,0.01,-0.015,-46.0271,-53.0484,-19.902,1001.36
88898,0.162472,9.76549,0.631851,0,0.01,-0.085,-45.4717,-53.4284,-19.2735,1001.36
88904,0.162472,9.76549,0.631851,-0.14,0.01,-0.225,-46.3194,-52.7561,-18.9374,1001.31
88910,0.162472,9.76073,0.631851,0,-0.06,-0.155,-46.2025,-52.6977,-17.7096,1001.31
88916,0.162472,9.76073,0.631851,0.07,-0.06,-0.015,-46.904,-53.1946,-20.9689,1001.3
88922,0.162472,9.76073,0.631851,0.07,-0.13,-0.155,-46.6702,-52.99,-18.9812,1001.3
88928,0.162472,9.76073,0.631851,0,-0.06,-0.085,-46.4071,-52.5807,-18.7766,1001.33
88934,0.162472,9.76073,0.631851,0.07,-0.06,-0.085,-46.3486,-52.5807,-18.6743,1001.33
88940,0.162472,9.76073,0.631851,0.07,-0.06,-0.085,-46.7286,-53.3115,-18.8058,1001.27
88946,0.162472,9.76073,0.631851,0,-0.06,-0.085,-46.0855,-52.5807,-18.2797,1001.27
88952,0.162472,9.76549,0.631851,-0.14,-0.06,-0.085,-46.904,-52.8438,-18.7327,1001.27
88958,0.162472,9.76549,0.631851,-0.07,-0.06,-0.085,-46.3194,-52.61,-19.1566,1001.31
88964,0.162472,9.76549,0.631851,-0.07,-0.2,-0.085,-45.7348,-52.493,-18.1481,1001.31
88970,0.162472,9.76549,0.631851,-0.21,0.08,-0.085,-46.0271,-52.7269,-18.4404,1001.34
88976,0.162472,9.76549,0.631851,-0.07,0.01,-0.015,-46.2901,-52.6684,-18.5427,1001.34
88982,0.162472,9.76549,0.631851,-0.07,0.01,-0.085,-45.9978,-52.3469,-18.265,1001.31
88988,0.162472,9.76549,0.631851,0,-0.06,-0.085,-46.4071,-52.9023,-18.2066,1001.31
88994,0.162472,9.76549,0.631851,-0.14,0.01,-0.155,-46.3194,-53.3992,-18.075,1001.35
89000,0.162472,9.76073,0.631851,0.07,-0.06,-0.155,-47.0502,-52.5807,-18.3527,1001.35
89006,0.162472,9.76073,0.631851,0,-0.06,-0.085,-47.1086,-52.6392,-19.6974,1001.37
89012,0.162472,9.76073,0.631851,0.07,-0.06,-0.015,-46.2317,-53.3992,-19.0251,1001.37
89018,0.162472,9.76073,0.631851,-0.07,-0.06,-0.085,-46.3778,-51.8207,-19.0251,1001.37
89024,0.162472,9.76073,0.631851,-0.07,0.22,0.195,-46.8748,-52.5807,-19.6389,1001.34
89030,0.162472,9.76073,0.631851,-0.07,0.08,0.055,-46.2609,-53.6623,-18.4404,1001.34
89036,0.162472,9.76073,0.631851,-0.07,-0.06,-0.085,-46.904,-52.6977,-19.1712,1001.33
89042,0.162472,9.76073,0.627101,0,-0.06,-0.085,-46.5532,-53.1654,-19.5804,1001.33
89048,0.162472,9.76073,0.627101,0,-0.13,-0.085,-46.3486,-52.2592,-18.2212,1001.31
89054,0.162472,9.76549,0.627101,-0.07,-0.06,-0.015,-46.0271,-52.7561,-17.6073,1001.31
89060,0.162472,9.76073,0.627101,0,-0.2,-0.085,-46.4655,-52.5515,-19.5074,1001.3
89066,0.162472,9.76073,0.627101,0,-0.13,0.055,-46.4071,-52.3469,-18.002,1001.3
89072,0.162472,9.76073,0.627101,0,-0.13,-0.015,-45.7055,-53.1361,-18.6889,1001.3
89078,0.162472,9.76549,0.627101,-0.07,0.01,-0.085,-46.9917,-52.7854,-18.4258,1001.36
89084,0.162472,9.76549,0.627101,-0.14,0.01,0.055,-46.1732,-53.0777,-19.4489,1001.36
89090,0.162472,9.76549,0.627101,0,0.01,0.055,-46.2025,-52.0838,-18.3673,1001.33
89096,0.162472,9.76549,0.627101,0.07,-0.06,-0.015,-46.2609,-52.4638,-18.572,1001.33
89102,0.162472,9.76549,0.627101,-0.07,0.01,-0.085,-46.9625,-52.1715,-19.9897,1001.33
89108,0.162472,9.76549,0.627101,0,-0.13,-0.015,-46.2317,-52.6684,-17.8266,1001.33
89114,0.162472,9.76549,0.627101,0.07,-0.13,0.055,-46.5825,-53.37,-19.4197,1001.29
89120,0.162472,9.76549,0.627101,0.14,-0.13,-0.015,-46.144,-54.1008,-20.3112,1001.29
89126,0.162472,9.76549,0.627101,0.21,-0.27,0.475,-46.8748,-52.8438,-18.7181,1001.29
89132,0.162472,9.76073,0.631851,-0.07,-0.13,-0.085,-45.9686,-53.4869,-18.572,1001.31
89138,0.162472,9.76073,0.631851,0.07,-0.2,0.055,-46.5825,-52.7561,-17.8266,1001.31
89144,0.162472,9.76073,0.631851,0,-0.06,0.125,-46.2609,-52.4638,-18.8058,1001.31
89150,0.162472,9.76549,0.631851,0.07,-0.06,0.055,-46.6994,-53.1069,-19.1127,1001.31
89156,0.162472,9.76073,0.631851,0.21,-0.13,0.055,-46.2317,-52.3761,-18.952,1001.32
89162,0.162472,9.76073,0.631851,0.07,-0.13,0.055,-46.0563,-53.2531,-19.0981,1001.32
89168,0.162472,9.76073,0.631851,0.14,-0.2,-0.085,-46.4655,-52.6684,-19.9166,1001.31
89174,0.162472,9.76549,0.631851,0,-0.2,-0.085,-46.524,-52.6977,-19.0397,1001.31
89180,0.162472,9.76549,0.631851,0,-0.06,-0.015,-46.9917,-52.6392,-19.522,1001.31
89186,0.162472,9.76549,0.631851,-0.14,-0.06,-0.085,-46.2609,-52.8731,-19.2297,1001.31
89192,0.162472,9.76549,0.631851,-0.28,0.08,-0.085,-46.5532,-52.8438,-18.3235,1001.31
89198,0.162472,9.76549,0.631851,-0.14,-0.13,-0.155,-46.6117,-52.113,-17.885,1001.32
89204,0.16725,9.76549,0.631851,-0.21,0.15,-0.155,-46.3486,-52.2592,-18.2066,1001.32
