Timestamp,AccX,AccY,AccZ,AngularVelX,AngularVelY,AngularVelZ,MagX,MagY,MagZ,AirPressure
16442,-0.810059,9.74505,0.627485,-0.28,0.35,-0.07,-30.342,-38.0883,7.3078,1009.99
16448,-0.824406,9.7594,0.608355,-0.35,0.35,-0.07,-29.7281,-38.176,7.24934,1009.97
16454,-0.819624,9.74027,0.608355,-0.35,0.42,-0.21,-29.4358,-38.6144,7.01549,1009.97
16460,-0.838754,9.73549,0.632267,-0.42,0.28,-0.28,-29.9035,-38.4098,6.35779,1009.96
16466,-0.833971,9.71636,0.627485,-0.28,0.28,-0.14,-29.5528,-38.556,7.99474,1009.96
16472,-0.810059,9.74505,0.613138,-0.28,0.28,-0.14,-29.582,-38.5267,7.51242,1010.01
16478,-0.833971,9.7307,0.613138,-0.35,0.35,-0.21,-29.1143,-38.2929,7.96551,1010.01
16484,-0.857883,9.72114,0.651397,-0.42,0.28,-0.14,-30.1374,-38.936,7.35165,1010.01
16490,-0.848318,9.70201,0.646614,-0.21,0.35,-0.21,-29.7574,-38.7606,7.10319,1009.98
16496,-0.857883,9.74027,0.632267,-0.14,0.21,-0.14,-29.1435,-38.4098,6.72318,1009.98
16502,-0.843536,9.75461,0.613138,-0.14,0.28,-0.21,-29.6989,-39.4621,7.62935,1010
16508,-0.819624,9.74983,0.589226,-0.42,0.35,-0.28,-29.7866,-37.9714,7.61473,1010
16514,-0.843536,9.73549,0.608355,-0.49,0.35,-0.28,-30.1374,-38.4683,7.29319,1010
16520,-0.857883,9.69723,0.665744,-0.35,0.28,-0.07,-29.7866,-39.2283,6.85472,1010
16526,-0.862666,9.71636,0.63705,-0.21,0.21,-0.21,-29.2605,-39.1991,7.55627,1009.96
16532,-0.833971,9.7594,0.608355,-0.28,0.21,-0.14,-29.9035,-38.7898,6.56241,1009.96
16538,-0.853101,9.76418,0.63705,-0.28,0.21,-0.14,-30.0497,-38.8483,6.51856,1009.96
16544,-0.833971,9.75461,0.622702,-0.49,0.28,-0.07,-29.3481,-39.2868,6.94241,1010.01
16550,-0.862666,9.72592,0.651397,-0.28,0.21,-0.07,-29.7574,-39.1698,7.43935,1010.01
16556,-0.829189,9.71636,0.622702,-0.14,0.28,0,-29.7281,-38.5267,7.24934,1009.99
16562,-0.819624,9.74027,0.59879,-0.21,0.42,0,-30.2251,-38.9944,7.45396,1009.99
16568,-0.89136,9.72114,0.627485,-0.28,0.21,0.07,-30.3712,-38.4975,7.13242,1009.99
16574,-0.857883,9.69244,0.656179,-0.21,0.21,0,-29.8451,-38.7898,7.57089,1009.99
16580,-0.824406,9.74505,0.603573,-0.07,0.14,-0.07,-30.1374,-38.8191,6.98626,1009.97
16586,-0.824406,9.78331,0.594008,-0.21,0.21,-0.14,-29.7866,-39.0529,6.47471,1009.97
16592,-0.843536,9.72114,0.608355,-0.42,0.21,-0.21,-29.8743,-38.5852,5.68547,1009.97
16598,-0.853101,9.72592,0.651397,-0.42,0.14,-0.14,-29.9912,-38.176,5.93394,1009.99
16604,-0.833971,9.71157,0.670526,-0.14,0.28,-0.07,-29.6697,-39.0821,5.81701,1009.99
16610,-0.853101,9.7307,0.641832,0,0.21,-0.07,-29.6989,-38.2344,7.35165,1009.96
16616,-0.824406,9.74027,0.603573,-0.14,0.14,-0.14,-29.7574,-38.2344,8.55013,1009.96
16622,-0.824406,9.73549,0.603573,-0.28,0.21,0,-29.4066,-38.4975,8.02397,1009.97
16628,-0.877013,9.71636,0.641832,-0.28,0.21,-0.14,-29.4651,-38.6729,6.89857,1009.97
16634,-0.862666,9.68766,0.656179,-0.07,0.14,0,-30.2543,-38.1467,7.13242,1009.98
16640,-0.833971,9.70679,0.61792,0.07,0,0.07,-30.2251,-39.0529,7.38088,1009.98
16646,-0.833971,9.71636,0.613138,0.07,0,0.07,-29.8158,-38.5267,7.54165,1009.99
16652,-0.853101,9.69723,0.632267,0.07,0.07,0.07,-30.1082,-38.3221,7.36627,1009.99
16658,-0.877013,9.71636,0.646614,0.14,-0.14,0.14,-29.4066,-38.0298,8.09705,1009.99
16664,-0.853101,9.68766,0.61792,0.21,0.07,0.14,-29.6697,-39.2283,8.12628,1010
16670,-0.867448,9.71157,0.63705,0.28,-0.07,0.28,-29.9912,-38.3806,6.15317,1010
16676,-0.843536,9.7594,0.589226,0.21,-0.07,0.21,-30.5759,-38.3806,6.60626,1009.99
16682,-0.853101,9.75461,0.632267,0,0,0.28,-30.1959,-38.7606,7.27857,1009.99
16688,-0.848318,9.70679,0.63705,0,0.14,0.14,-29.7866,-38.8483,7.54165,1009.98
16694,-0.829189,9.71636,0.632267,0.21,0,0.07,-29.0851,-38.7021,6.85472,1009.98
16700,-0.824406,9.79287,0.579661,0.14,0.07,0.21,-30.722,-38.1467,8.38936,1009.99
16706,-0.862666,9.72592,0.622702,-0.21,0.14,0.21,-30.5466,-38.2052,7.46858,1009.99
16712,-0.89136,9.66853,0.684874,-0.07,0,0.14,-29.582,-37.796,7.80474,1009.99
16718,-0.833971,9.6781,0.656179,0.35,0,0.21,-30.0205,-38.0006,7.08857,1009.99
16724,-0.853101,9.7307,0.641832,0.28,0.14,0.14,-29.4066,-38.4098,7.49781,1009.99
16730,-0.853101,9.74027,0.608355,0.21,0,0.21,-29.5528,-38.3806,6.67933,1010.01
16736,-0.857883,9.72114,0.627485,0.14,-0.07,0.21,-29.8451,-37.4452,8.02397,1010.01
16742,-0.857883,9.70679,0.622702,0.21,-0.07,0.07,-30.1374,-38.7606,6.69395,1010
16748,-0.862666,9.73549,0.61792,0.21,0,0,-29.962,-38.4391,7.8632,1010
16754,-0.819624,9.80244,0.579661,0.14,0,0,-30.2251,-37.9129,7.00088,1010.03
16760,-0.853101,9.78331,0.584443,-0.35,0.14,0,-29.9328,-37.4744,7.80474,1010.03
16766,-0.843536,9.71636,0.660962,-0.21,0.14,0,-30.2835,-39.0821,7.35165,1010.03
16772,-0.843536,9.71157,0.627485,0,0.21,-0.07,-30.6051,-38.6729,7.74627,1009.99
16778,-0.848318,9.7594,0.608355,-0.07,0.21,0,-29.3774,-38.556,7.23473,1009.99
16784,-0.833971,9.72592,0.627485,-0.28,0.14,0,-29.8158,-38.6144,7.49781,1010.01
16790,-0.848318,9.70201,0.622702,-0.21,0.14,0,-30.4005,-38.2052,7.03011,1010.01
16796,-0.848318,9.73549,0.61792,-0.07,0.21,0.07,-29.2897,-38.1467,7.07396,1009.99
16802,-0.857883,9.72592,0.641832,-0.07,0.21,0,-30.4589,-38.4683,8.40398,1009.99
16808,-0.857883,9.69723,0.641832,-0.14,0,0.07,-29.3189,-37.8252,7.55627,1009.98
16814,-0.857883,9.74983,0.608355,0,0.07,0.07,-30.3128,-38.8483,8.03858,1009.98
16820,-0.838754,9.70679,0.59879,0,0.14,0.14,-30.2543,-38.0883,7.81935,1009.96
16826,-0.833971,9.74027,0.603573,0,0.21,0,-29.6989,-38.7314,7.3955,1009.96
16832,-0.848318,9.72114,0.603573,-0.21,0.14,0.07,-30.1959,-39.2575,6.94241,1009.96
16838,-0.843536,9.71157,0.63705,-0.14,0.14,0.07,-29.9328,-39.3745,6.6501,1009.99
16844,-0.857883,9.72592,0.63705,0,0.07,0,-30.2251,-38.3514,8.14089,1009.99
16850,-0.857883,9.69244,0.622702,0.07,0.14,0.07,-29.7866,-38.7314,7.89243,1010.01
16856,-0.87223,9.70679,0.641832,0,0.07,0.14,-29.582,-39.5206,7.64396,1010.01
16862,-0.857883,9.69723,0.680091,0,0.07,0.07,-29.6989,-38.0006,8.30167,1009.99
16868,-0.833971,9.71157,0.63705,0.28,-0.14,0.14,-29.202,-38.5852,6.91318,1009.99
16874,-0.857883,9.71636,0.608355,0.21,0.07,0.14,-30.1374,-38.6729,7.48319,1009.99
16880,-0.877013,9.74027,0.622702,0.21,-0.07,0.14,-30.342,-39.0529,6.48933,1009.99
16886,-0.853101,9.72114,0.608355,0.14,-0.07,0.28,-30.3712,-38.8775,6.82549,1009.99
16892,-0.848318,9.71636,0.622702,0.28,0,0.35,-29.582,-38.936,7.45396,1009.98
16898,-0.853101,9.74505,0.594008,0.28,0,0.28,-29.1143,-38.8191,6.56241,1009.98
16904,-0.843536,9.73549,0.627485,0.14,-0.07,0.14,-29.8743,-38.6729,6.44548,1010.02
16910,-0.833971,9.69723,0.660962,0.14,0.07,0.21,-29.2605,-38.3221,6.85472,1010.02
16916,-0.87223,9.70679,0.660962,0.28,-0.14,0.14,-29.6405,-38.4683,6.84011,1009.99
16922,-0.853101,9.73549,0.627485,0.28,0,0.14,-29.7574,-38.2052,6.82549,1009.99
16928,-0.857883,9.71636,0.646614,0.28,-0.21,0,-30.4882,-38.6144,6.84011,1009.99
16934,-0.810059,9.7307,0.613138,0.28,-0.07,0.21,-29.4066,-38.5852,6.56241,1009.99
16940,-0.853101,9.73549,0.603573,0.28,-0.07,0.14,-30.2835,-38.8775,6.88395,1009.95
16946,-0.862666,9.76418,0.61792,0.14,0,0.14,-29.6405,-38.3514,7.36627,1009.95
16952,-0.857883,9.71636,0.651397,0.07,-0.07,0.21,-29.7281,-37.8837,7.3078,1009.95
16958,-0.848318,9.68288,0.660962,0.35,0,0.14,-29.6405,-38.4975,7.51242,1009.97
16964,-0.824406,9.76418,0.589226,0.35,-0.07,0.21,-29.962,-38.4391,8.38936,1009.97
16970,-0.862666,9.75461,0.603573,0,0,0.21,-30.5466,-38.9068,6.81087,1009.99
16976,-0.857883,9.70201,0.651397,0,-0.14,0.07,-29.8743,-38.7314,6.40164,1009.99
16982,-0.829189,9.68766,0.651397,0.42,0,0.07,-29.6697,-38.5267,7.54165,1009.98
16988,-0.810059,9.77374,0.603573,0.42,0,0.14,-29.7574,-39.2868,6.63549,1009.98
16994,-0.833971,9.78331,0.570096,0,0,0,-30.1666,-38.6437,7.68781,1009.98
17000,-0.853101,9.70201,0.627485,0,0,0,-29.9912,-38.3221,6.63549,1009.98
17006,-0.843536,9.68766,0.684874,0.21,0.07,0.07,-30.1374,-38.2637,6.50395,1009.98
17012,-0.843536,9.7307,0.641832,0.35,-0.07,0,-30.3128,-38.9944,6.75241,1010.01
17018,-0.853101,9.72592,0.584443,0.28,0,0.14,-29.6112,-38.176,6.44548,1010.01
17024,-0.843536,9.7307,0.613138,0.21,-0.07,0.14,-30.1959,-38.8775,6.7378,1009.99
17030,-0.829189,9.72592,0.641832,0.07,0,0.14,-30.7512,-39.7545,6.97165,1009.99
17036,-0.853101,9.72114,0.63705,0.07,0,0.07,-29.7866,-38.8775,7.16165,1009.98
17042,-0.814842,9.74505,0.632267,0.21,-0.14,0.14,-29.7281,-39.0529,7.61473,1009.98
17048,-0.857883,9.77853,0.608355,0.07,0.07,0.07,-30.5466,-39.4621,6.15317,1010.02
17054,-0.833971,9.73549,0.603573,0,-0.07,0,-30.4297,-38.4391,6.13856,1010.02
17060,-0.829189,9.72592,0.632267,0,0.07,0,-29.7866,-38.2344,6.28471,1010.02
17066,-0.838754,9.72592,0.61792,0.07,0,0.07,-30.0789,-38.5267,7.42473,1010
17072,-0.848318,9.73549,0.622702,0,0.07,0.07,-30.2543,-38.6437,6.48933,1010
17078,-0.838754,9.73549,0.59879,-0.07,0,-0.07,-30.1959,-38.3221,7.26396,1010.01
17084,-0.848318,9.72592,0.603573,-0.14,0.14,0.07,-29.8743,-39.0237,7.95089,1010.01
17090,-0.857883,9.74027,0.632267,-0.07,0.07,0,-30.1959,-38.6729,6.6501,1010.01
17096,-0.838754,9.72592,0.627485,0,0.07,0.07,-29.962,-38.2637,7.96551,1010.01
17102,-0.843536,9.73549,0.594008,-0.07,0.14,0.07,-29.4651,-38.6729,7.51242,1009.97
17108,-0.838754,9.72114,0.632267,-0.07,0.14,0,-30.2543,-38.5267,7.46858,1009.97
17114,-0.819624,9.74027,0.608355,-0.14,0.07,0.07,-30.2835,-38.8483,7.23473,1009.99
17120,-0.810059,9.73549,0.61792,-0.21,0.14,0.07,-30.2543,-38.5852,5.77317,1009.99
17126,-0.853101,9.74027,0.613138,-0.07,0.14,-0.07,-29.8158,-39.0821,6.05086,1009.99
17132,-0.833971,9.69244,0.61792,0.07,0,-0.14,-30.1959,-39.0529,7.42473,1009.99
17138,-0.838754,9.72592,0.59879,0.21,0.07,-0.07,-30.4589,-38.7314,6.75241,1009.99
17144,-0.857883,9.7594,0.574878,0,0.07,-0.14,-30.7805,-38.7606,8.17013,1009.99
17150,-0.833971,9.75461,0.594008,-0.14,0,-0.07,-30.4005,-38.5267,6.72318,1009.99
17156,-0.853101,9.66853,0.63705,0,0,-0.14,-30.2835,-38.556,7.29319,1010
17162,-0.848318,9.73549,0.59879,0.21,-0.07,-0.14,-29.7281,-38.6729,7.22011,1010
17168,-0.824406,9.76896,0.584443,0,0.14,-0.21,-30.2251,-38.5852,5.72932,1009.97
17174,-0.853101,9.76896,0.608355,-0.14,-0.07,-0.21,-29.7281,-38.6144,7.22011,1009.97
17180,-0.833971,9.67331,0.670526,-0.21,-0.07,-0.14,-30.3712,-38.936,7.60012,1009.97
17186,-0.848318,9.68766,0.665744,0.14,-0.21,-0.14,-29.6112,-38.7606,7.07396,1009.97
17192,-0.853101,9.72114,0.613138,0.28,-0.07,-0.14,-30.1374,-38.3221,6.16779,1009.97
17198,-0.838754,9.76418,0.603573,0,-0.21,-0.07,-29.8158,-38.7606,7.3078,1009.99
17204,-0.848318,9.7307,0.589226,-0.07,0,0,-30.342,-38.3514,6.7378,1009.99
17210,-0.848318,9.70679,0.61792,0,0,0,-30.0205,-38.3221,6.51856,1010
17216,-0.87223,9.70679,0.646614,0,0.07,0,-29.962,-38.3806,6.53318,1010
17222,-0.862666,9.72114,0.632267,0.07,-0.21,0,-29.7281,-38.9068,7.04472,1009.97
17228,-0.800494,9.74505,0.584443,-0.07,-0.07,0.07,-29.582,-38.2344,7.83397,1009.97
17234,-0.853101,9.73549,0.579661,0.07,-0.07,-0.07,-29.5528,-38.7021,6.38702,1010
17240,-0.843536,9.74505,0.589226,-0.07,0,-0.07,-29.7866,-38.4683,6.47471,1010
17246,-0.833971,9.73549,0.627485,-0.07,-0.07,-0.07,-29.8743,-38.0883,6.66472,1010
17252,-0.848318,9.70679,0.622702,-0.07,-0.07,-0.07,-29.6112,-38.3221,7.16165,1009.95
17258,-0.867448,9.74027,0.608355,0,-0.07,0,-30.1082,-38.936,7.14703,1009.95
17264,-0.843536,9.74027,0.608355,0.07,-0.07,-0.07,-28.9389,-38.1175,7.83397,1009.99
17270,-0.829189,9.7307,0.603573,0.07,-0.07,-0.07,-29.1143,-38.7314,7.60012,1009.99
17276,-0.833971,9.72592,0.622702,0,0.07,-0.07,-29.2897,-38.2344,7.46858,1010
17282,-0.857883,9.7307,0.622702,-0.07,-0.07,0.07,-29.5528,-39.0529,7.17626,1010
17288,-0.843536,9.7307,0.608355,0,0.14,0.07,-29.582,-38.8775,7.32242,1010.01
17294,-0.829189,9.74027,0.622702,0.14,0,0,-30.0789,-38.3514,7.70243,1010.01
17300,-0.814842,9.7594,0.608355,0.07,0.14,0.07,-30.5466,-38.1175,6.37241,1010.01
17306,-0.833971,9.74505,0.594008,-0.21,0,-0.07,-30.4589,-39.6375,6.60626,1009.99
17312,-0.843536,9.72114,0.632267,-0.21,0.07,-0.07,-30.2251,-38.4683,6.9278,1009.99
17318,-0.829189,9.71157,0.641832,0.07,0.07,-0.07,-30.0789,-38.176,7.10319,1009.97
17324,-0.819624,9.74505,0.61792,0.07,0.07,0.07,-30.4297,-38.2637,7.46858,1009.97
17330,-0.867448,9.73549,0.622702,0,0,-0.07,-29.5528,-38.7314,6.82549,1010
17336,-0.829189,9.72592,0.61792,0.07,-0.07,-0.14,-31.3651,-38.5852,7.87781,1010
17342,-0.848318,9.7307,0.608355,0.07,0,-0.07,-28.9974,-38.6437,7.14703,1009.96
17348,-0.833971,9.72114,0.613138,-0.07,0,0,-29.2605,-38.4975,7.26396,1009.96
17354,-0.857883,9.72114,0.627485,0,0,-0.07,-30.0205,-38.7021,7.3078,1009.96
17360,-0.853101,9.71157,0.594008,0.07,0.07,-0.07,-30.2835,-39.0529,6.37241,1009.97
17366,-0.843536,9.7307,0.59879,0,0.07,-0.07,-29.9328,-38.6729,6.12394,1009.97
17372,-0.857883,9.70201,0.63705,-0.07,0.14,0,-29.4066,-38.3221,6.6501,1009.98
17378,-0.862666,9.7307,0.622702,0.07,-0.07,-0.07,-30.2251,-39.316,7.07396,1009.98
17384,-0.829189,9.7307,0.613138,0,0.07,0,-29.6989,-38.4098,7.61473,1009.98
17390,-0.838754,9.74505,0.579661,0.14,0.07,-0.07,-30.3712,-38.2637,7.35165,1009.98
17396,-0.833971,9.71636,0.603573,0,0.14,0.07,-29.8743,-38.6437,7.27857,1009.98
17402,-0.857883,9.7307,0.641832,0.07,-0.07,0,-30.3128,-38.7314,6.69395,1009.98
17408,-0.829189,9.75461,0.651397,0.07,0.07,0.07,-30.1082,-38.176,6.37241,1010
17414,-0.833971,9.7307,0.61792,-0.07,0,0,-29.6405,-38.4098,6.88395,1010
17420,-0.853101,9.74505,0.641832,0,0.07,0,-29.2897,-38.9068,7.22011,1010
17426,-0.843536,9.74027,0.61792,0,0,0.07,-29.6405,-38.7898,6.78164,1009.99
17432,-0.843536,9.70679,0.63705,0.07,0.07,0.07,-30.2543,-38.4391,5.70009,1009.99
17438,-0.819624,9.7307,0.613138,0.14,-0.07,0,-29.6405,-39.1991,7.41011,1009.99
17444,-0.857883,9.74983,0.594008,0.21,0,0.07,-29.6112,-38.176,6.35779,1009.99
17450,-0.853101,9.71157,0.613138,0.14,-0.07,0.07,-30.3128,-38.5852,7.83397,1009.97
17456,-0.829189,9.74505,0.622702,0.14,0,0.14,-29.6697,-38.6437,7.08857,1009.97
17462,-0.853101,9.74505,0.613138,0,-0.07,0,-29.0558,-38.9652,5.30547,1009.96
17468,-0.857883,9.72592,0.641832,0.07,0,0.07,-29.5528,-38.176,7.00088,1009.96
17474,-0.843536,9.71636,0.608355,0.14,-0.14,0,-29.6989,-38.176,6.57702,1009.96
17480,-0.838754,9.72114,0.603573,0.07,0,0.07,-29.7281,-38.1175,6.37241,1010.01
17486,-0.819624,9.74027,0.603573,0.14,-0.07,0.07,-29.3481,-39.2575,6.29933,1010.01
17492,-0.853101,9.7307,0.59879,0.14,-0.07,0.07,-29.8743,-38.6437,6.25548,1009.98
17498,-0.853101,9.7307,0.632267,0,0,0.14,-30.5466,-38.5852,7.26396,1009.98
17504,-0.848318,9.7307,0.627485,0,0,0.14,-29.9035,-38.9652,6.84011,1010
17510,-0.805277,9.74027,0.594008,0,-0.07,0.07,-29.9328,-38.2344,6.78164,1010
17516,-0.857883,9.7594,0.589226,0,0.14,0.14,-29.8158,-38.8191,7.13242,1009.98
17522,-0.843536,9.7307,0.627485,-0.07,-0.07,0,-29.7281,-39.2283,5.84624,1009.98
17528,-0.833971,9.7307,0.63705,-0.07,0.14,0.14,-30.2251,-39.316,6.08009,1009.98
17534,-0.824406,9.72114,0.632267,0.07,0,0.14,-30.3128,-38.9652,6.25548,1009.98
17540,-0.824406,9.72592,0.608355,0.07,0,0.21,-30.9851,-39.7252,7.16165,1009.98
17546,-0.838754,9.74027,0.584443,0,0,0.14,-29.8451,-39.0529,6.62087,1009.98
17552,-0.824406,9.72592,0.61792,-0.07,0.14,0.14,-29.2605,-38.4683,8.46244,1009.98
17558,-0.848318,9.71636,0.622702,0,-0.07,0.07,-29.3481,-38.176,7.95089,1010.02
17564,-0.838754,9.72592,0.627485,0.14,0,0.14,-29.8743,-39.2283,6.37241,1010.02
17570,-0.848318,9.7594,0.594008,0.14,-0.07,0.07,-29.2312,-39.0237,6.75241,1009.99
17576,-0.857883,9.73549,0.589226,-0.07,0.07,0.07,-30.1374,-38.0006,6.00702,1009.99
17582,-0.838754,9.72114,0.613138,0.07,0.07,0,-29.9035,-38.9652,6.91318,1010.01
17588,-0.824406,9.71636,0.608355,0.07,0.07,0.07,-30.0497,-38.936,7.04472,1010.01
17594,-0.848318,9.74027,0.608355,0.07,0,0,-29.6989,-39.1114,6.82549,1010.01
17600,-0.824406,9.76418,0.579661,0.07,0,0,-28.9389,-38.8775,6.31394,1010
17606,-0.833971,9.75461,0.584443,-0.07,0,0,-29.9912,-39.316,6.37241,1010
17612,-0.87223,9.7307,0.603573,0,0,0.07,-29.7574,-38.5852,7.05934,1009.97
17618,-0.843536,9.73549,0.603573,0,0,0,-29.4651,-38.2052,6.82549,1009.97
17624,-0.829189,9.72114,0.594008,0,0.07,0,-29.4066,-38.8775,7.07396,1009.99
17630,-0.833971,9.76418,0.608355,-0.07,0.07,0,-29.5235,-39.0237,6.06548,1009.99
17636,-0.833971,9.74505,0.589226,-0.21,0.07,-0.07,-29.9912,-38.5852,6.60626,1009.99
17642,-0.838754,9.72592,0.59879,-0.07,0.07,-0.07,-29.8743,-39.7837,5.51008,1009.99
17648,-0.857883,9.7307,0.61792,-0.14,0.07,-0.07,-30.0205,-38.8775,6.86934,1009.99
17654,-0.833971,9.72592,0.63705,-0.07,0.07,0.07,-30.0497,-38.9944,7.08857,1009.96
17660,-0.838754,9.74505,0.589226,0,0,0,-28.8512,-38.6437,6.66472,1009.96
17666,-0.838754,9.74983,0.594008,-0.14,0.07,0,-30.0497,-39.1406,6.21163,1009.97
17672,-0.833971,9.74027,0.613138,-0.14,-0.07,0,-29.8451,-38.6437,6.6501,1009.97
17678,-0.829189,9.73549,0.608355,0,0.07,0,-29.1435,-38.6437,5.84624,1010
17684,-0.819624,9.74505,0.613138,-0.07,0.07,0,-29.2312,-38.5852,7.76089,1010
17690,-0.838754,9.72592,0.622702,-0.21,0.14,0,-29.9328,-38.4098,7.35165,1010
17696,-0.819624,9.71157,0.61792,0,0,0,-30.3712,-39.1114,7.52704,1010
17702,-0.833971,9.7307,0.589226,-0.14,0.21,-0.07,-29.4358,-38.7606,7.17626,1009.99
17708,-0.819624,9.75461,0.584443,-0.07,0.14,-0.07,-30.0497,-38.4098,7.24934,1009.99
17714,-0.829189,9.72114,0.565314,-0.28,0.14,0.07,-29.4651,-38.5852,5.90471,1009.99
17720,-0.843536,9.71157,0.641832,-0.14,0.14,-0.07,-29.7866,-38.936,7.05934,1009.98
17726,-0.848318,9.72592,0.622702,-0.07,0.21,0,-29.4358,-39.4914,7.00088,1009.98
17732,-0.838754,9.7594,0.579661,-0.14,0.07,-0.07,-29.8158,-38.6437,7.01549,1009.97
17738,-0.843536,9.74505,0.603573,-0.21,0.21,0,-29.2312,-38.9652,6.03625,1009.97
17744,-0.829189,9.7307,0.613138,-0.21,0.21,-0.07,-29.9912,-38.7021,5.61239,1010.01
17750,-0.838754,9.71636,0.622702,-0.07,0.14,-0.07,-29.8743,-39.0821,6.59164,1010.01
17756,-0.843536,9.71636,0.632267,-0.07,0.07,-0.07,-30.1959,-39.4037,7.17626,1010
17762,-0.833971,9.72592,0.594008,-0.07,0.14,0.07,-29.7574,-38.7898,7.00088,1010
17768,-0.848318,9.7307,0.622702,-0.07,0.07,0.07,-29.4651,-39.0529,7.26396,1010
17774,-0.848318,9.73549,0.61792,-0.14,0,0.07,-29.6989,-38.7314,7.01549,1009.97
17780,-0.824406,9.71157,0.584443,-0.07,0,0,-29.4651,-39.2575,6.86934,1009.97
17786,-0.848318,9.71636,0.613138,-0.07,0.07,0.07,-29.6989,-38.1175,6.43087,1009.99
17792,-0.819624,9.71636,0.63705,-0.07,0,0,-29.9328,-38.8775,6.98626,1009.99
17798,-0.814842,9.72592,0.608355,0,0.07,0,-29.5528,-38.6729,6.56241,1010
17804,-0.833971,9.71636,0.603573,-0.07,0,0,-29.4651,-39.1698,6.88395,1010
17810,-0.848318,9.70679,0.632267,0.07,0,0.07,-29.6697,-38.4683,6.15317,1010.01
17816,-0.819624,9.74027,0.61792,0.07,0.07,0,-29.1728,-38.8191,6.53318,1010.01
17822,-0.833971,9.72592,0.589226,-0.07,0.14,0,-29.7866,-38.8483,6.59164,1010.01
17828,-0.857883,9.74027,0.622702,-0.14,-0.07,0.07,-30.2835,-39.316,6.31394,1009.95
17834,-0.867448,9.69723,0.613138,0.14,0,0,-29.8743,-38.7898,6.24087,1009.95
17840,-0.814842,9.73549,0.594008,0.14,-0.07,0.07,-29.8743,-38.9944,6.82549,1010
17846,-0.843536,9.73549,0.608355,0.07,0.07,0.07,-29.4066,-39.8129,6.76703,1010
17852,-0.843536,9.74027,0.594008,-0.07,0.07,0.07,-29.6697,-38.7314,7.67319,1009.99
17858,-0.810059,9.74983,0.613138,0,0,0,-29.7866,-38.4975,6.79626,1009.99
17864,-0.838754,9.74027,0.608355,0,0,0.07,-29.4943,-37.7667,7.07396,1010.03
17870,-0.833971,9.74505,0.594008,-0.07,0.07,0.07,-29.9328,-38.0883,6.50395,1010.03
17876,-0.838754,9.73549,0.584443,0,0,0.07,-29.6112,-38.7606,5.75855,1010
17882,-0.814842,9.71636,0.603573,-0.14,0.21,0.07,-29.8158,-38.2929,6.48933,1010
17888,-0.838754,9.7307,0.574878,-0.21,0.21,-0.07,-29.7281,-38.4683,6.97165,1010
17894,-0.824406,9.74505,0.59879,-0.28,0.14,0,-30.1374,-38.3221,6.21163,1010
17900,-0.838754,9.72592,0.627485,-0.14,0.14,0,-29.582,-38.5852,7.08857,1010
17906,-0.843536,9.74505,0.651397,0.07,-0.07,0.07,-30.0205,-39.0237,7.46858,1009.97
17912,-0.838754,9.75461,0.613138,0,0.21,0.07,-29.7281,-39.5791,7.08857,1009.97
17918,-0.829189,9.74505,0.613138,-0.07,0.07,0.07,-29.1143,-39.0237,7.45396,1009.98
17924,-0.838754,9.71157,0.589226,-0.07,0.14,0,-29.2605,-38.4098,8.5209,1009.98
17930,-0.829189,9.74027,0.59879,0,0.14,0.07,-30.0789,-38.3221,6.89857,1009.96
17936,-0.857883,9.71636,0.622702,-0.14,0.21,0,-29.6697,-38.7898,6.95703,1009.96
17942,-0.862666,9.70201,0.641832,0,0.07,0.14,-30.4589,-38.3806,7.54165,1009.96
17948,-0.819624,9.71636,0.608355,0.07,0.07,0.07,-30.1374,-37.8544,8.0532,1009.96
17954,-0.838754,9.7594,0.594008,0.14,0,0.07,-29.4066,-38.2929,7.08857,1009.96
17960,-0.838754,9.74983,0.59879,-0.14,-0.07,0.14,-29.2312,-39.0821,9.09091,1009.99
17966,-0.824406,9.72114,0.646614,0,-0.07,0.14,-29.4651,-38.8775,7.84858,1009.99
17972,-0.848318,9.72114,0.613138,0.21,0.07,0.07,-30.3128,-38.5267,7.76089,1010
17978,-0.829189,9.74027,0.584443,0.07,0.07,0,-28.7343,-38.4098,8.08243,1010
17984,-0.862666,9.7307,0.594008,-0.07,0.07,0,-30.0205,-38.8483,7.95089,1009.97
17990,-0.848318,9.70201,0.594008,0,0,0,-29.7866,-38.0006,7.19088,1009.97
17996,-0.814842,9.77374,0.584443,0.14,0.14,0,-30.0497,-37.9714,7.33704,1009.97
18002,-0.829189,9.77374,0.570096,0,0.14,0,-30.0205,-38.1467,8.17013,1009.96
18008,-0.853101,9.74027,0.589226,-0.14,0.07,0.07,-29.8158,-38.1467,7.43935,1009.96
18014,-0.833971,9.70201,0.622702,-0.14,0,0,-29.582,-38.2929,5.49547,1009.98
18020,-0.819624,9.70679,0.632267,0.14,0.07,0.07,-29.8451,-38.9944,7.41011,1009.98
18026,-0.833971,9.73549,0.594008,0.07,-0.07,0.07,-29.5235,-38.2929,6.9278,1010.01
18032,-0.853101,9.74505,0.622702,0.07,-0.07,-0.07,-29.8743,-38.3806,8.49167,1010.01
18038,-0.857883,9.71636,0.622702,0.07,0.07,0.07,-29.5235,-38.5267,7.93628,1010
18044,-0.838754,9.7307,0.603573,0,0.07,0.07,-29.7866,-38.4098,8.0532,1010
18050,-0.848318,9.71157,0.63705,0.07,-0.07,0.07,-29.3481,-38.556,7.80474,1010
18056,-0.819624,9.71157,0.61792,0.28,-0.14,0.14,-29.6405,-38.1467,6.40164,1010
18062,-0.838754,9.7594,0.579661,0.14,0.07,0,-29.2897,-38.556,6.94241,1010
18068,-0.814842,9.74505,0.59879,0,0,0.07,-29.8158,-38.2344,7.03011,1009.99
18074,-0.824406,9.71157,0.613138,0,0.07,0,-30.0205,-38.2929,7.33704,1009.99
18080,-0.857883,9.70201,0.641832,0.14,0.07,0,-29.4943,-37.9421,7.07396,1009.96
18086,-0.838754,9.70679,0.622702,0.28,-0.07,0.14,-30.4005,-37.5621,7.05934,1009.96
18092,-0.857883,9.74983,0.594008,0.21,0,0.07,-30.1374,-38.3514,7.38088,1010
18098,-0.829189,9.73549,0.613138,0.07,-0.07,0.14,-30.0497,-38.2929,6.63549,1010
18104,-0.843536,9.74027,0.603573,0.14,0,0,-30.0497,-38.5852,7.17626,1009.99
18110,-0.833971,9.76418,0.59879,0.14,0,0,-30.1959,-38.4975,6.72318,1009.99
18116,-0.833971,9.75461,0.603573,0.14,0,0,-30.8974,-38.0298,7.36627,1009.99
18122,-0.833971,9.7307,0.594008,0.21,-0.07,0,-30.5174,-37.8837,6.79626,1010
18128,-0.843536,9.74505,0.59879,0.14,0.14,0.07,-29.9035,-38.0006,6.40164,1010
18134,-0.824406,9.74505,0.594008,0.07,0,-0.07,-29.9912,-38.2344,7.16165,1009.98
18140,-0.833971,9.74983,0.608355,0.14,0.07,0,-29.582,-38.6437,7.79012,1009.98
18146,-0.833971,9.74505,0.608355,0.07,0,0,-29.9328,-38.3514,6.21163,1009.96
18152,-0.838754,9.72592,0.613138,0.07,0,0.07,-30.3128,-37.8544,6.19702,1009.96
18158,-0.838754,9.74983,0.594008,0.14,0,0.21,-29.582,-38.2929,6.7378,1009.97
18164,-0.824406,9.7594,0.579661,0,0.14,0.07,-29.6989,-38.9944,7.27857,1009.97
18170,-0.819624,9.71636,0.608355,0,0,0,-30.6051,-38.2929,6.85472,1009.98
18176,-0.843536,9.72114,0.603573,0.07,0,0.07,-30.4297,-38.2344,6.21163,1009.98
18182,-0.829189,9.72592,0.59879,0.07,0,0.07,-30.2835,-38.176,7.43935,1009.98
18188,-0.824406,9.74505,0.613138,0,0,0.07,-29.8743,-38.7021,5.93394,1009.98
18194,-0.829189,9.72592,0.632267,-0.07,0.07,0.07,-29.9912,-38.2637,7.51242,1009.98
18200,-0.862666,9.69244,0.622702,0.14,-0.07,0.07,-30.6928,-38.5852,9.07629,1009.97
18206,-0.833971,9.71157,0.613138,0.21,-0.07,0,-29.4358,-38.0883,7.01549,1009.97
18212,-0.853101,9.73549,0.589226,0.07,0,0.07,-29.9328,-37.8837,7.52704,1009.98
18218,-0.819624,9.74505,0.594008,0,-0.07,0,-29.4651,-37.9714,6.43087,1009.98
18224,-0.829189,9.71636,0.627485,0.21,-0.07,0,-30.1959,-38.9068,7.71704,1009.99
18230,-0.838754,9.70201,0.603573,0.28,-0.14,0.07,-29.5528,-38.4098,5.62701,1009.99
18236,-0.805277,9.77853,0.560531,0.28,-0.07,0.07,-30.1666,-37.7083,8.08243,1009.99
18242,-0.829189,9.74983,0.589226,0.07,-0.21,0,-30.2543,-38.2052,6.50395,1009.96
18248,-0.824406,9.70201,0.594008,0.07,0.07,0.14,-29.7866,-38.6729,7.10319,1009.96
18254,-0.838754,9.70679,0.608355,0.21,-0.14,0.07,-29.4358,-38.4683,7.62935,1009.97
18260,-0.838754,9.74027,0.579661,0.28,-0.07,0.07,-30.2543,-37.9421,7.43935,1009.97
18266,-0.819624,9.73549,0.579661,0.14,-0.14,0.07,-29.6697,-38.2637,6.63549,1010
18272,-0.829189,9.70201,0.613138,0.21,-0.14,0.07,-29.9035,-37.9714,5.56855,1010
18278,-0.848318,9.70679,0.627485,0.21,-0.14,0.07,-30.6928,-38.2929,6.28471,1009.99
18284,-0.848318,9.71636,0.627485,0.35,-0.14,0.14,-29.3189,-38.4975,6.67933,1009.99
18290,-0.814842,9.74505,0.594008,0.28,-0.28,0.07,-29.5235,-37.9129,6.50395,1009.99
18296,-0.824406,9.75461,0.59879,0.21,-0.14,0.21,-29.7281,-37.9421,6.95703,1010.02
18302,-0.862666,9.74027,0.584443,0.28,-0.07,0.07,-29.962,-38.1175,6.19702,1010.02
18308,-0.819624,9.7307,0.608355,0.35,-0.14,0.21,-29.1435,-37.8837,8.28705,1009.97
18314,-0.843536,9.74027,0.584443,0.14,0,0.14,-29.9328,-38.8483,6.62087,1009.97
18320,-0.824406,9.74983,0.594008,0.21,-0.07,0.14,-29.6989,-38.7606,7.62935,1009.95
18326,-0.819624,9.76418,0.589226,0.14,0.07,0.07,-29.8451,-37.7083,7.24934,1009.95
18332,-0.819624,9.70679,0.613138,0.07,0,0.07,-30.0789,-37.299,6.85472,1009.97
18338,-0.833971,9.71636,0.608355,0.14,-0.07,0,-29.6697,-38.1175,7.61473,1009.97
18344,-0.795712,9.77374,0.574878,0.14,-0.07,0.07,-30.9266,-38.4098,7.62935,1009.99
18350,-0.810059,9.80722,0.550966,-0.21,0.14,0.07,-30.3128,-38.2929,7.90704,1009.99
18356,-0.833971,9.7594,0.565314,-0.28,0.07,0,-30.2543,-38.4098,7.71704,1009.99
18362,-0.833971,9.7307,0.603573,-0.21,0.21,-0.07,-29.5235,-38.6729,7.33704,1009.98
18368,-0.810059,9.72592,0.603573,-0.07,0.07,-0.21,-30.4297,-38.9944,7.07396,1009.98
18374,-0.810059,9.80244,0.531837,-0.28,0.21,-0.07,-29.9035,-38.7898,7.01549,1010
18380,-0.814842,9.78331,0.560531,-0.49,0.21,-0.14,-29.4358,-38.4683,6.81087,1010
18386,-0.833971,9.70679,0.646614,-0.56,0.28,-0.14,-29.5235,-38.5852,7.17626,1010
18392,-0.843536,9.67331,0.665744,-0.28,0.07,-0.14,-30.8389,-38.6144,6.91318,1010
18398,-0.824406,9.75461,0.570096,-0.07,0.07,-0.07,-29.4651,-38.8191,7.1178,1009.97
18404,-0.838754,9.76418,0.555749,-0.21,0.14,-0.14,-29.3481,-38.9068,7.22011,1009.97
18410,-0.814842,9.72114,0.594008,-0.35,0.07,-0.14,-30.342,-38.6437,6.98626,1009.97
18416,-0.819624,9.72114,0.608355,-0.35,0.14,-0.07,-29.4651,-38.4391,6.22625,1009.99
18422,-0.833971,9.72592,0.608355,-0.14,0.21,0,-29.6697,-38.1175,7.61473,1009.99
18428,-0.829189,9.74983,0.608355,0,0,0,-30.4882,-38.3806,6.91318,1010.01
18434,-0.843536,9.7307,0.594008,-0.21,0,0,-30.1082,-37.6206,6.86934,1010.01
18440,-0.829189,9.69723,0.589226,0,0,0,-30.2251,-38.6729,7.38088,1010.02
18446,-0.819624,9.73549,0.584443,-0.07,0.07,-0.07,-30.6051,-38.9944,7.14703,1010.02
18452,-0.819624,9.73549,0.579661,-0.07,0,0,-29.8743,-38.8483,5.7147,1009.98
18458,-0.843536,9.70201,0.589226,-0.07,0.07,0,-29.962,-38.4098,6.84011,1009.98
18464,-0.819624,9.72114,0.589226,0.07,-0.07,0.07,-29.7281,-38.2344,6.91318,1009.98
18470,-0.819624,9.7307,0.594008,-0.07,0,0,-30.7512,-38.5267,6.98626,1009.99
18476,-0.819624,9.71157,0.594008,0.07,0,0,-29.2605,-38.936,6.98626,1009.99
18482,-0.805277,9.7307,0.603573,0.14,-0.07,0,-29.4651,-39.2575,6.63549,1009.97
18488,-0.814842,9.76418,0.589226,0.07,-0.07,0,-30.4882,-38.5852,7.61473,1009.97
18494,-0.838754,9.77853,0.574878,0,0.07,0,-29.8743,-38.936,5.86086,1009.99
18500,-0.843536,9.71157,0.603573,0,0,0.07,-29.2605,-37.9421,6.32856,1009.99
18506,-0.819624,9.73549,0.627485,0.14,-0.14,0,-30.722,-39.0529,7.00088,1010
18512,-0.805277,9.74983,0.546184,0,0.14,0,-30.3128,-38.3514,7.10319,1010
18518,-0.853101,9.70201,0.613138,0,-0.07,0,-29.202,-39.3452,7.00088,1009.98
18524,-0.786147,9.76418,0.574878,0.07,0,-0.07,-29.9328,-38.936,7.55627,1009.98
18530,-0.833971,9.80244,0.560531,0,0.07,-0.14,-29.8743,-37.9421,6.97165,1009.98
18536,-0.848318,9.76896,0.613138,-0.35,-0.07,-0.07,-30.4882,-38.4975,7.89243,1009.98
18542,-0.786147,9.72114,0.594008,-0.14,0,0,-30.6051,-38.2344,6.6501,1009.98
18548,-0.853101,9.73549,0.579661,0.07,0.07,0.07,-29.962,-38.936,8.56475,1009.99
18554,-0.824406,9.78331,0.555749,-0.07,0.07,-0.07,-30.0789,-38.8191,6.67933,1009.99
18560,-0.805277,9.73549,0.565314,-0.28,0.14,0,-30.1082,-38.9652,7.45396,1009.99
18566,-0.819624,9.72114,0.589226,-0.21,0.07,-0.07,-30.2543,-38.2052,7.1178,1009.99
18572,-0.829189,9.7307,0.565314,-0.21,0.14,0,-30.4882,-38.7314,7.61473,1009.97
18578,-0.814842,9.74983,0.589226,-0.14,0.07,0,-29.2897,-38.7021,8.12628,1009.97
18584,-0.819624,9.71636,0.589226,-0.21,0.14,-0.14,-29.9328,-38.4683,6.67933,1009.97
18590,-0.824406,9.72114,0.589226,-0.14,0.14,0,-29.3774,-37.9421,6.62087,1010.03
18596,-0.843536,9.72114,0.59879,-0.07,0.28,-0.14,-29.582,-38.4098,7.08857,1010.03
18602,-0.829189,9.72592,0.574878,-0.14,0.07,0,-29.9035,-38.4391,6.47471,1010
18608,-0.805277,9.72114,0.574878,-0.14,0.21,-0.07,-30.8389,-39.316,6.48933,1010
18614,-0.79093,9.74505,0.560531,-0.07,0.14,-0.14,-30.1082,-38.0006,7.05934,1010
18620,-0.829189,9.74983,0.565314,-0.21,0.28,-0.07,-29.9912,-38.556,7.42473,1010
18626,-0.862666,9.69244,0.632267,-0.07,0,-0.07,-29.8743,-38.4683,7.65858,1010
18632,-0.805277,9.7307,0.594008,0.07,0.14,0,-29.8451,-38.6437,8.37474,1010
18638,-0.829189,9.74505,0.579661,0,0.14,-0.07,-29.3774,-38.8775,7.71704,1010
18644,-0.838754,9.71636,0.608355,0,0,0.07,-30.4882,-38.936,7.51242,1010
18650,-0.810059,9.74027,0.574878,0,0.07,0,-29.4358,-38.8191,7.74627,1010
18656,-0.838754,9.72592,0.594008,0,0.14,0,-29.8743,-38.2637,7.22011,1009.98
18662,-0.838754,9.68766,0.613138,-0.07,-0.07,0,-29.4066,-37.7667,7.43935,1009.98
18668,-0.824406,9.72114,0.613138,0.14,-0.07,0,-30.1082,-39.0237,7.71704,1009.97
18674,-0.838754,9.74983,0.570096,0.21,0.07,0.14,-30.4297,-38.556,7.22011,1009.97
18680,-0.819624,9.7307,0.570096,0.14,0,0,-29.9912,-38.7314,7.32242,1009.98
18686,-0.829189,9.69244,0.608355,0.21,-0.14,0,-29.9035,-38.1175,7.74627,1009.98
18692,-0.819624,9.7307,0.594008,0.14,0,0.07,-30.5759,-38.1467,6.89857,1009.98
18698,-0.814842,9.76418,0.560531,0.07,0.07,0.14,-29.9328,-38.4683,7.61473,1009.98
18704,-0.857883,9.74505,0.579661,-0.07,0,0,-29.4358,-38.7314,7.68781,1009.98
18710,-0.810059,9.69244,0.59879,0.07,0,0,-29.9328,-37.9714,6.54779,1009.98
18716,-0.829189,9.73549,0.565314,0.28,0.07,-0.07,-29.3774,-39.0821,6.89857,1009.98
18722,-0.853101,9.74983,0.589226,0,-0.07,0,-29.7866,-38.936,7.54165,1010.01
18728,-0.795712,9.74505,0.584443,0.07,-0.07,0,-30.0497,-39.1406,7.65858,1010.01
18734,-0.819624,9.7307,0.579661,-0.07,0.14,0.07,-29.582,-39.3452,7.68781,1009.97
18740,-0.848318,9.70679,0.603573,0.07,-0.14,0,-29.1435,-39.0529,6.00702,1009.97
18746,-0.805277,9.74505,0.574878,0,-0.07,0.07,-29.202,-38.2637,6.81087,1009.97
18752,-0.819624,9.73549,0.589226,-0.07,0.14,0.07,-29.9328,-37.9129,6.84011,1009.97
18758,-0.843536,9.73549,0.59879,0,-0.07,0,-29.6112,-38.059,7.52704,1009.97
18764,-0.819624,9.7307,0.570096,0,0.07,0,-29.8158,-38.4975,6.76703,1010.01
18770,-0.805277,9.73549,0.570096,0.07,0,-0.14,-29.7281,-38.3514,8.18474,1010.01
18776,-0.814842,9.75461,0.584443,-0.07,0.07,0,-29.6112,-38.7606,6.31394,1009.99
18782,-0.800494,9.7594,0.574878,0,0.07,-0.14,-29.4943,-38.9068,7.45396,1009.99
18788,-0.824406,9.77374,0.579661,-0.07,0.07,-0.14,-30.4589,-39.3452,6.54779,1009.99
18794,-0.824406,9.7307,0.555749,-0.07,0,-0.07,-30.1374,-39.4329,6.91318,1009.99
18800,-0.843536,9.72114,0.61792,-0.21,0.14,-0.07,-29.6697,-38.4683,7.67319,1010
18806,-0.833971,9.70201,0.61792,-0.14,0,-0.14,-29.7866,-38.0006,6.97165,1010
18812,-0.824406,9.75461,0.584443,-0.14,0.07,-0.14,-29.4358,-38.1175,7.41011,1009.99
18818,-0.819624,9.74505,0.555749,-0.07,0.07,-0.07,-29.4651,-38.0298,5.86086,1009.99
18824,-0.810059,9.74027,0.594008,-0.14,0,-0.14,-29.6697,-38.3806,7.00088,1009.99
18830,-0.824406,9.73549,0.61792,-0.14,0.07,0,-29.4066,-37.9421,6.82549,1009.96
18836,-0.838754,9.74027,0.570096,-0.14,0.07,-0.07,-29.6112,-37.9714,6.1824,1009.96
18842,-0.843536,9.7307,0.584443,-0.14,0.14,0,-29.6112,-38.2929,6.13856,1009.99
18848,-0.819624,9.72592,0.579661,-0.14,-0.07,0,-30.6343,-37.7083,7.19088,1009.99
18854,-0.838754,9.70201,0.608355,-0.07,0.14,0.07,-29.8158,-37.3575,7.14703,1009.99
18860,-0.810059,9.7307,0.555749,0.07,0.07,-0.07,-29.4066,-38.4683,6.43087,1009.99
18866,-0.824406,9.75461,0.560531,-0.07,0.07,0.07,-30.4297,-37.9714,5.96317,1009.99
18872,-0.833971,9.71636,0.608355,0.07,-0.14,0.07,-29.6697,-38.4391,7.14703,1009.99
18878,-0.819624,9.71157,0.574878,0,0.07,0.07,-29.6112,-38.4098,6.57702,1009.99
18884,-0.829189,9.72592,0.589226,0.14,0.21,0.07,-29.6405,-38.5267,6.75241,1009.99
18890,-0.833971,9.7307,0.579661,0.14,-0.21,0,-30.5466,-38.0298,6.41625,1009.99
18896,-0.781365,9.80244,0.527054,-0.07,0,-0.07,-29.4943,-37.5329,6.43087,1010
18902,-0.862666,9.67331,0.608355,-0.35,0.07,0,-30.4005,-39.0529,5.90471,1010
18908,-0.857883,9.65418,0.641832,0.14,-0.07,0.07,-29.8451,-38.5852,6.89857,1009.99
18914,-0.786147,9.73549,0.584443,0.35,-0.07,0,-29.5235,-37.9714,6.21163,1009.99
18920,-0.848318,9.78809,0.565314,0.07,0.14,0,-29.9328,-38.8191,7.61473,1009.98
18926,-0.819624,9.74983,0.589226,-0.07,-0.14,0,-29.3774,-38.7021,6.47471,1009.98
18932,-0.800494,9.72114,0.584443,0,0,0.07,-29.6405,-38.4683,6.84011,1009.98
18938,-0.857883,9.70201,0.613138,0.14,-0.14,-0.07,-29.4943,-39.4329,7.5855,1009.96
18944,-0.824406,9.7307,0.565314,0.07,-0.21,0,-29.202,-38.3806,7.35165,1009.96
18950,-0.814842,9.72592,0.589226,0.14,0.07,-0.07,-29.4358,-38.5267,7.03011,1010.01
18956,-0.838754,9.73549,0.603573,0.21,0,0.07,-29.1143,-39.2283,6.22625,1010.01
18962,-0.800494,9.75461,0.565314,0.14,0.14,0.07,-30.0205,-39.0529,7.1178,1010.03
18968,-0.829189,9.76418,0.560531,0,0,0,-29.6697,-38.4683,6.97165,1010.03
18974,-0.814842,9.7307,0.589226,-0.07,0.07,-0.07,-31.3943,-39.5498,5.90471,1010.03
18980,-0.810059,9.7307,0.603573,0.07,0.07,0,-29.7574,-38.6437,6.32856,1010.03
18986,-0.843536,9.72114,0.594008,0.07,0.07,0,-29.7574,-38.936,6.50395,1009.98
18992,-0.829189,9.74983,0.584443,0.07,-0.07,-0.07,-29.8451,-39.2283,7.42473,1009.98
18998,-0.800494,9.73549,0.555749,-0.07,0.07,0.07,-30.4005,-39.1114,7.32242,1009.98
19004,-0.838754,9.73549,0.574878,-0.14,0.14,-0.07,-30.0497,-39.0821,6.70856,1010
19010,-0.843536,9.71157,0.622702,-0.07,0.07,0,-29.6697,-38.3221,6.22625,1010
19016,-0.833971,9.70679,0.627485,0.07,0,0,-30.1374,-38.5852,7.45396,1010
19022,-0.829189,9.7307,0.570096,0.21,0,0,-30.0789,-38.3221,6.79626,1010
19028,-0.786147,9.76896,0.550966,0.07,-0.07,-0.07,-30.3712,-38.9652,7.35165,1009.99
19034,-0.824406,9.74505,0.589226,-0.07,0.07,-0.07,-30.0789,-38.5852,6.12394,1009.99
19040,-0.814842,9.71157,0.61792,-0.14,0.07,0,-29.1143,-37.9129,6.09471,1009.98
19046,-0.819624,9.68766,0.627485,0.07,0,-0.07,-28.9097,-38.2929,5.61239,1009.98
19052,-0.814842,9.76896,0.570096,0.21,-0.14,0,-29.5528,-38.059,7.04472,1009.98
19058,-0.800494,9.78331,0.565314,-0.07,0,-0.07,-29.6112,-38.4683,5.7147,1010.02
19064,-0.833971,9.71157,0.594008,-0.14,-0.07,-0.07,-28.9681,-38.7898,6.70856,1010.02
19070,-0.824406,9.67331,0.608355,0,-0.14,-0.07,-30.4297,-38.6437,5.62701,1010
19076,-0.824406,9.74027,0.570096,0.14,0.14,0.07,-29.9035,-38.3221,6.84011,1010
19082,-0.853101,9.73549,0.59879,-0.07,0,-0.07,-29.9035,-38.7606,5.87547,1009.97
19088,-0.824406,9.70679,0.579661,0.07,-0.07,0.07,-29.5528,-39.5498,5.91932,1009.97
19094,-0.810059,9.74505,0.565314,0.14,-0.07,0,-30.1959,-37.9129,6.63549,1009.98
19100,-0.829189,9.75461,0.584443,-0.07,0.07,-0.07,-29.1728,-38.4098,5.8024,1009.98
19106,-0.814842,9.73549,0.594008,-0.07,-0.14,-0.14,-30.0205,-37.9129,6.03625,1010.01
19112,-0.824406,9.74027,0.574878,0,0.07,-0.14,-29.4358,-37.8837,6.81087,1010.01
19118,-0.819624,9.76418,0.584443,-0.21,0,-0.14,-28.8512,-38.1467,5.15931,1010.01
19124,-0.824406,9.72114,0.579661,-0.21,0.07,-0.07,-29.4943,-38.2929,7.08857,1009.99
19130,-0.805277,9.72592,0.59879,-0.14,0,-0.28,-28.8804,-38.3221,6.56241,1009.99
19136,-0.824406,9.7307,0.613138,-0.07,0.07,-0.07,-29.6112,-38.2929,7.43935,1010
19142,-0.838754,9.74983,0.584443,-0.07,0.07,-0.14,-29.202,-37.7083,7.07396,1010
19148,-0.819624,9.75461,0.579661,-0.28,0,-0.14,-29.0266,-38.1467,6.28471,1010
19154,-0.853101,9.74505,0.589226,-0.28,0.07,-0.21,-29.2312,-38.6437,7.01549,1010
19160,-0.829189,9.72592,0.613138,-0.14,0.07,-0.28,-29.4943,-38.5267,6.37241,1010
19166,-0.829189,9.72592,0.594008,-0.21,0.07,-0.14,-29.6697,-38.4683,6.44548,1010
19172,-0.819624,9.74983,0.565314,-0.28,0.14,-0.14,-30.5466,-38.4975,7.08857,1010
19178,-0.853101,9.72114,0.603573,-0.07,-0.07,-0.28,-31.7451,-38.8483,5.61239,1009.99
19184,-0.819624,9.6781,0.603573,-0.07,0,-0.14,-29.2605,-37.5329,6.78164,1009.99
19190,-0.843536,9.74027,0.570096,0.07,0,-0.07,-29.8743,-37.8252,6.91318,1010
19196,-0.829189,9.77853,0.565314,-0.07,-0.14,-0.07,-29.9035,-38.4391,6.35779,1010
19202,-0.819624,9.74027,0.565314,-0.14,0.07,-0.07,-29.6405,-38.7314,5.30547,1010.01
19208,-0.857883,9.72592,0.59879,-0.07,0.07,-0.14,-29.6112,-38.5852,7.01549,1010.01
19214,-0.867448,9.7307,0.589226,-0.21,0.07,0,-29.7281,-38.5267,7.64396,1009.97
19220,-0.833971,9.72114,0.61792,-0.07,-0.07,0,-29.2605,-38.5267,5.14469,1009.97
19226,-0.819624,9.7307,0.589226,0.14,0.07,0,-29.9912,-38.2344,7.36627,1009.97
19232,-0.833971,9.77374,0.584443,-0.07,0,-0.07,-29.9912,-38.2052,6.81087,1009.97
19238,-0.833971,9.74027,0.574878,-0.42,0.14,0,-29.8451,-37.679,7.3078,1009.97
19244,-0.843536,9.72114,0.63705,-0.28,-0.07,0.07,-29.6989,-37.7083,6.59164,1009.99
19250,-0.814842,9.70201,0.613138,0.07,0.07,0,-29.3774,-38.4975,7.1178,1009.99
19256,-0.810059,9.77374,0.570096,0,0.07,-0.14,-29.2897,-38.3221,6.6501,1009.99
19262,-0.833971,9.77853,0.560531,-0.35,0.14,-0.07,-29.7281,-38.7021,7.32242,1009.99
19268,-0.848318,9.69244,0.61792,-0.35,0,-0.07,-29.6405,-38.059,6.43087,1010.01
19274,-0.833971,9.66853,0.665744,0.07,0.07,0,-30.1959,-37.7667,6.94241,1010.01
19280,-0.829189,9.7307,0.61792,0.28,0.07,0,-28.9097,-38.1175,5.01315,1010.01
19286,-0.829189,9.7594,0.59879,0,-0.07,0,-30.1666,-38.3806,6.35779,1010.01
19292,-0.829189,9.73549,0.574878,-0.07,0,0,-30.3128,-38.1175,7.35165,1010.01
19298,-0.824406,9.71636,0.608355,0.07,0.07,-0.07,-30.1082,-38.6437,8.06782,1009.98
19304,-0.877013,9.73549,0.59879,-0.07,0,0.07,-30.0205,-38.1175,6.48933,1009.98
19310,-0.838754,9.74983,0.608355,0.07,0,0,-30.1082,-38.1467,7.26396,1009.98
19316,-0.814842,9.73549,0.59879,0.07,0.14,0.07,-29.6989,-38.556,6.66472,1009.98
19322,-0.853101,9.72592,0.603573,0,0.07,0.07,-29.4358,-39.316,6.67933,1009.98
19328,-0.853101,9.71636,0.594008,0,0.14,0,-29.7866,-38.8483,6.25548,1009.98
19334,-0.814842,9.71157,0.584443,0.07,0.07,0,-30.6051,-38.1175,7.41011,1009.99
19340,-0.814842,9.7594,0.574878,0,-0.07,0,-29.962,-38.8775,5.26162,1009.99
19346,-0.810059,9.7307,0.603573,-0.07,0.21,0.07,-29.582,-37.9714,6.66472,1009.99
19352,-0.87223,9.69244,0.613138,0.14,-0.07,0,-29.962,-38.6729,5.21777,1010.01
19358,-0.767018,9.76418,0.555749,0.21,0,0.07,-30.0497,-38.0298,6.54779,1010.01
19364,-0.848318,9.7594,0.603573,-0.28,0.28,0.07,-29.4358,-38.4098,6.63549,1010.01
19370,-0.89136,9.6781,0.622702,-0.07,-0.07,0.07,-30.4005,-38.0883,6.41625,1010.01
19376,-0.795712,9.72114,0.622702,0.21,0.07,0.07,-30.2543,-38.7021,6.16779,1009.98
19382,-0.843536,9.74505,0.570096,0.14,0.21,0.14,-30.1082,-38.176,6.86934,1009.98
19388,-0.838754,9.74505,0.61792,-0.14,0.07,0.21,-29.2897,-38.5267,7.10319,1009.98
19394,-0.810059,9.72592,0.608355,0,0.07,0.07,-29.582,-39.1698,6.69395,1009.98
19400,-0.848318,9.71157,0.61792,0.14,0.21,0.14,-30.0497,-38.3806,6.12394,1009.98
19406,-0.862666,9.71157,0.608355,0.14,0,0.21,-29.962,-38.3514,6.78164,1009.98
19412,-0.833971,9.71157,0.603573,0.07,0.07,0.14,-30.2835,-38.7021,6.21163,1009.98
19418,-0.829189,9.74027,0.594008,0.14,0,0.14,-29.582,-38.3514,7.29319,1009.96
19424,-0.838754,9.74983,0.59879,0,0.07,0.07,-29.582,-38.7021,7.24934,1009.96
19430,-0.853101,9.73549,0.594008,-0.07,0.14,0.21,-30.3128,-38.2052,7.2055,1010.01
19436,-0.829189,9.72114,0.613138,0.07,0.07,0.14,-29.9912,-38.176,6.62087,1010.01
19442,-0.843536,9.72592,0.608355,0.14,0.07,0.14,-30.8097,-38.3806,6.94241,1010.02
19448,-0.829189,9.77374,0.579661,0,0,0.14,-29.9328,-38.3514,6.89857,1010.02
19454,-0.862666,9.74505,0.608355,0.07,0.07,0.14,-30.6343,-38.556,7.23473,1009.97
19460,-0.838754,9.70679,0.63705,0.07,-0.07,0.07,-29.7574,-39.0821,7.13242,1009.97
19466,-0.843536,9.73549,0.603573,0.28,0,0.14,-30.0497,-37.8252,7.29319,1009.97
19472,-0.843536,9.74983,0.603573,0.14,-0.07,0.14,-29.9035,-38.0298,6.7378,1009.98
19478,-0.843536,9.73549,0.603573,0.07,0.07,0,-31.1897,-38.5267,6.44548,1009.98
19484,-0.843536,9.7307,0.59879,0.07,0,0.14,-29.7281,-38.6144,7.35165,1010
19490,-0.824406,9.76896,0.603573,0.21,0,0.28,-30.2251,-38.4098,7.14703,1010
19496,-0.853101,9.76418,0.59879,0.21,-0.07,0.14,-29.6112,-38.2344,5.64162,1009.97
19502,-0.833971,9.71636,0.589226,0.14,0.07,0.14,-30.1082,-39.1991,6.82549,1009.97
19508,-0.833971,9.71636,0.622702,0.21,-0.07,0.14,-29.2605,-38.6437,7.98012,1009.96
19514,-0.843536,9.74505,0.579661,0.21,0.07,0.07,-29.3774,-38.6144,7.36627,1009.96
19520,-0.833971,9.74983,0.579661,0.14,0,0.14,-29.8158,-38.5267,8.00935,1009.96
19526,-0.838754,9.74027,0.589226,0.07,0,0.07,-29.6989,-38.1175,6.60626,1009.99
19532,-0.843536,9.74505,0.59879,0.14,0,0.07,-29.8743,-37.6206,6.75241,1009.99
19538,-0.824406,9.7594,0.608355,0.07,0.07,0.07,-29.5528,-37.796,8.11166,1009.98
19544,-0.848318,9.70201,0.608355,0,0,0,-30.1959,-38.1467,6.13856,1009.98
19550,-0.848318,9.72114,0.627485,0.07,0.07,0,-29.5235,-38.8775,7.79012,1010
19556,-0.853101,9.74505,0.59879,0.07,0,-0.07,-30.8974,-38.5267,7.22011,1010
19562,-0.829189,9.75461,0.584443,0.14,-0.07,0,-30.3128,-38.4098,7.49781,1010.01
19568,-0.805277,9.76896,0.565314,0,0,0,-29.8451,-38.4098,7.65858,1010.01
19574,-0.848318,9.71636,0.613138,-0.07,0.14,0,-29.962,-38.6437,6.59164,1009.99
19580,-0.824406,9.7307,0.61792,0,-0.07,-0.07,-29.7866,-37.7083,8.00935,1009.99
19586,-0.838754,9.74505,0.61792,0.07,0.14,0.07,-29.1728,-38.4098,7.33704,1009.99
19592,-0.867448,9.74505,0.608355,0,0.07,0,-29.5235,-38.2344,7.93628,1009.98
19598,-0.833971,9.74027,0.584443,0,0,0,-29.5528,-38.3221,6.85472,1009.98
19604,-0.843536,9.70201,0.613138,0,-0.07,0.07,-29.6405,-38.5267,7.38088,1010.01
19610,-0.853101,9.73549,0.59879,0.07,0,0,-29.7866,-38.556,7.65858,1010.01
19616,-0.824406,9.74027,0.61792,-0.07,0,0,-29.6697,-37.9714,6.81087,1009.98
19622,-0.857883,9.71157,0.59879,0,0.07,0.07,-29.6405,-37.8837,7.67319,1009.98
19628,-0.833971,9.71636,0.589226,0.07,-0.07,0,-30.5174,-38.3806,7.27857,1009.97
19634,-0.800494,9.7307,0.59879,0.07,0,0.07,-30.4589,-37.8544,7.90704,1009.97
19640,-0.853101,9.76418,0.579661,-0.07,0.07,0,-30.4589,-38.059,6.66472,1009.97
19646,-0.843536,9.75461,0.613138,-0.21,0.07,0,-30.722,-38.1467,6.7378,1009.98
19652,-0.829189,9.68288,0.63705,-0.07,0,-0.07,-29.6989,-37.9421,6.50395,1009.98
19658,-0.843536,9.69244,0.632267,0.14,0.07,0,-30.0497,-37.8252,6.4601,1010
19664,-0.829189,9.79287,0.584443,0.14,0,0,-29.6989,-38.5852,6.29933,1010
19670,-0.824406,9.7594,0.594008,-0.07,0.07,0.07,-29.5235,-38.6729,6.63549,1010
19676,-0.848318,9.70679,0.632267,0,0,0,-29.9912,-38.6437,6.4601,1010
19682,-0.814842,9.70679,0.59879,0.21,0.07,0,-29.4066,-38.6144,6.03625,1010.01
19688,-0.848318,9.77374,0.584443,0,0.14,-0.07,-29.5235,-39.1114,6.1824,1010.01
19694,-0.848318,9.74505,0.594008,-0.14,0.14,0,-29.4943,-38.6144,6.94241,1010.01
19700,-0.833971,9.70679,0.622702,0.07,-0.07,0,-29.6697,-37.8837,7.45396,1010.02
19706,-0.819624,9.7307,0.61792,0.14,0.07,0.07,-29.6112,-37.6498,7.54165,1010.02
19712,-0.848318,9.75461,0.579661,0.07,0.07,0,-30.3128,-38.5852,5.58316,1009.99
19718,-0.853101,9.74983,0.603573,-0.07,0,0.07,-30.0789,-38.8483,6.15317,1009.99
19724,-0.848318,9.72592,0.594008,-0.07,0.07,0,-28.9681,-38.7021,7.3078,1010
19730,-0.862666,9.74983,0.59879,0,0.07,0,-29.1728,-38.1175,7.65858,1010
19736,-0.862666,9.74505,0.594008,0,0,0,-29.5235,-38.4391,7.07396,1010
19742,-0.819624,9.71636,0.59879,0,0,0,-30.4005,-38.6729,8.43321,1010
19748,-0.814842,9.7307,0.61792,0.14,0,0.07,-29.6112,-38.5852,7.42473,1009.98
19754,-0.848318,9.72592,0.584443,-0.07,0.07,0.14,-29.582,-39.0821,7.52704,1009.98
19760,-0.843536,9.71157,0.608355,0,0,0.14,-30.1082,-39.316,6.54779,1009.98
19766,-0.838754,9.72114,0.608355,0.07,0,0.07,-30.2835,-38.556,7.00088,1009.95
19772,-0.853101,9.74505,0.608355,0,0.14,0.07,-30.2835,-37.7083,6.78164,1009.95
19778,-0.843536,9.7307,0.594008,0.07,0.07,0.07,-29.6405,-38.059,7.19088,1009.99
19784,-0.853101,9.71636,0.641832,0.07,0.07,0.07,-30.8389,-38.176,5.96317,1009.99
19790,-0.838754,9.72592,0.59879,0.14,0,0.07,-29.8743,-38.4391,5.81701,1009.99
19796,-0.843536,9.76418,0.574878,0.21,0.07,0.14,-31.1312,-38.6144,7.93628,1009.99
19802,-0.838754,9.74505,0.574878,-0.07,-0.07,0,-30.7512,-38.4391,6.57702,1009.96
19808,-0.829189,9.71636,0.613138,-0.07,0.14,0.07,-30.5759,-38.4975,6.89857,1009.96
19814,-0.853101,9.70679,0.646614,0.14,-0.07,-0.07,-30.5466,-38.059,6.00702,1009.96
19820,-0.867448,9.72592,0.622702,0.14,0,0,-30.4297,-38.3514,7.48319,1009.97
19826,-0.824406,9.74027,0.59879,0.14,-0.07,-0.07,-29.8743,-38.0006,7.79012,1009.97
19832,-0.824406,9.75461,0.632267,0.07,-0.07,0,-30.5759,-37.4452,6.9278,1009.99
19838,-0.824406,9.71636,0.594008,0.14,0,-0.07,-30.6343,-37.679,7.55627,1009.99
19844,-0.838754,9.72592,0.608355,0.14,-0.07,0,-29.5528,-37.9129,6.38702,1009.99
19850,-0.838754,9.73549,0.59879,0.07,0,-0.07,-29.6405,-38.9652,7.45396,1009.99
19856,-0.829189,9.74505,0.627485,0.14,-0.07,0,-30.2251,-38.2637,6.15317,1010.01
19862,-0.810059,9.76418,0.584443,0.07,-0.07,-0.07,-29.9328,-38.4391,6.62087,1010.01
19868,-0.843536,9.74505,0.608355,-0.14,0.07,0,-29.3481,-38.2052,6.98626,1010.01
19874,-0.87223,9.69723,0.646614,-0.07,-0.07,0.07,-29.8451,-38.2637,6.63549,1009.97
19880,-0.833971,9.71157,0.613138,0.07,-0.07,-0.07,-29.202,-38.7314,6.24087,1009.97
19886,-0.829189,9.78809,0.579661,0,0.07,0.07,-29.9328,-38.4975,6.44548,1009.99
19892,-0.87223,9.74505,0.613138,-0.07,-0.07,0,-29.6112,-38.3514,7.54165,1009.99
19898,-0.862666,9.70201,0.627485,-0.07,-0.07,0,-29.3189,-39.0821,6.67933,1009.98
19904,-0.824406,9.74027,0.632267,0.07,0,0.07,-29.3774,-38.9652,6.40164,1009.98
19910,-0.843536,9.73549,0.608355,0.07,0,0.07,-29.3481,-38.6437,6.84011,1009.98
19916,-0.867448,9.74505,0.603573,-0.07,-0.14,0,-29.4943,-38.4683,7.79012,1009.98
19922,-0.848318,9.72592,0.613138,0,0,0,-29.7281,-38.1175,6.66472,1009.99
19928,-0.848318,9.72592,0.613138,0.07,0,0.07,-29.4651,-38.8191,6.29933,1009.99
19934,-0.857883,9.73549,0.608355,0,-0.07,0.14,-30.1959,-38.1467,7.22011,1009.99
19940,-0.829189,9.74027,0.632267,0.07,0,0.07,-29.3481,-38.176,6.56241,1010.02
19946,-0.838754,9.72114,0.622702,0.07,0.07,0.07,-29.6405,-38.059,6.82549,1010.02
19952,-0.862666,9.75461,0.603573,0,-0.07,0.07,-29.9328,-38.4683,7.68781,1009.96
19958,-0.867448,9.71636,0.613138,-0.07,0,0.07,-29.6989,-38.8191,6.75241,1009.96
19964,-0.833971,9.71636,0.627485,0.14,-0.07,0.07,-29.962,-38.7314,6.10932,1009.96
19970,-0.843536,9.71636,0.61792,0.28,0,0.07,-29.6405,-38.2929,6.19702,1009.96
19976,-0.853101,9.74027,0.603573,0.21,0,0.07,-29.1435,-38.5267,6.72318,1009.98
19982,-0.867448,9.74505,0.61792,0.14,-0.07,0,-29.7866,-38.936,7.52704,1009.98
19988,-0.824406,9.71636,0.63705,0.14,0,0.07,-29.6112,-38.1175,8.36013,1009.98
19994,-0.862666,9.72592,0.622702,0.21,0,0,-29.7866,-38.4975,7.14703,1010.02
20000,-0.833971,9.76418,0.622702,0.07,-0.07,0.07,-30.7805,-40.076,6.89857,1010.02
20006,-0.843536,9.7307,0.632267,0.07,0,0.21,-29.962,-38.3806,7.16165,1009.99
20012,-0.862666,9.74027,0.627485,0.07,-0.07,0.07,-30.1666,-38.4391,7.33704,1009.99
20018,-0.857883,9.73549,0.61792,0.14,-0.07,0.21,-29.582,-38.6144,7.22011,1010
20024,-0.838754,9.72114,0.603573,0.14,0,0.14,-30.2835,-38.0883,7.05934,1010
20030,-0.848318,9.72592,0.59879,0.14,0,0.21,-29.6405,-38.4098,6.31394,1010
20036,-0.848318,9.7307,0.608355,0.07,0.14,0.14,-30.0789,-38.3221,6.75241,1010
20042,-0.833971,9.70679,0.608355,0.14,-0.07,0.07,-30.3712,-38.5267,6.98626,1009.99
20048,-0.829189,9.72592,0.603573,0.14,0.07,0.14,-30.1082,-38.0883,7.17626,1009.99
20054,-0.819624,9.7307,0.608355,0.14,0,0.14,-29.4066,-38.4391,6.53318,1009.99
20060,-0.853101,9.74505,0.613138,0.14,0.07,0.21,-30.0497,-37.8544,6.85472,1010
20066,-0.857883,9.72592,0.622702,0.07,0,0.21,-30.0789,-37.9421,7.08857,1010
20072,-0.833971,9.72592,0.613138,0.21,-0.07,0.14,-29.9035,-38.1175,6.72318,1010.01
20078,-0.848318,9.7594,0.608355,0.21,0,0.07,-30.1374,-38.059,7.35165,1010.01
20084,-0.838754,9.74505,0.61792,0.21,-0.07,0.07,-29.6697,-38.176,7.23473,1010.02
20090,-0.833971,9.74027,0.603573,0.07,-0.07,0.14,-30.1666,-38.3514,6.60626,1010.02
20096,-0.833971,9.73549,0.608355,0.14,-0.07,0.21,-29.962,-38.0298,7.60012,1009.97
20102,-0.87223,9.71157,0.589226,0.14,0,0.21,-29.6989,-38.2929,7.14703,1009.97
20108,-0.843536,9.72114,0.613138,0.28,0,0.07,-30.3128,-38.0006,6.2701,1009.97
20114,-0.862666,9.74027,0.603573,0.07,0,0.28,-29.582,-37.6206,7.5855,1010.03
20120,-0.857883,9.73549,0.594008,0.14,0.07,0.21,-29.9328,-38.556,7.13242,1010.03
20126,-0.824406,9.7307,0.589226,0.14,0,0.14,-30.0789,-37.9714,8.0532,1009.96
20132,-0.824406,9.72592,0.613138,0.14,0,0.14,-30.5759,-38.8191,6.72318,1009.96
20138,-0.838754,9.73549,0.613138,0.14,0.07,0.07,-29.4066,-38.176,5.59778,1010.02
20144,-0.848318,9.74983,0.59879,0.07,0,0.14,-30.0497,-38.2929,5.77317,1010.02
20150,-0.838754,9.72592,0.584443,0.21,-0.07,0.21,-30.4882,-38.2637,6.6501,1009.97
20156,-0.810059,9.74027,0.59879,0.21,0,0.14,-30.6051,-38.3514,8.2432,1009.97
20162,-0.838754,9.7307,0.603573,0.21,0,0.21,-29.6697,-37.6206,7.36627,1009.97
20168,-0.838754,9.74983,0.579661,-0.07,0.14,0.14,-29.8158,-38.6144,7.05934,1010.04
20174,-0.886578,9.6781,0.675309,0,-0.07,0.07,-29.8451,-37.8252,7.14703,1010.04
20180,-0.824406,9.69244,0.627485,0.42,0.07,0.21,-29.4943,-38.3806,7.8632,1010.01
20186,-0.881795,9.77374,0.594008,0.35,0.21,0.28,-29.2897,-37.8544,7.73166,1010.01
20192,-0.857883,9.76418,0.579661,0.14,-0.21,0.21,-30.5759,-38.0006,7.00088,1009.99
20198,-0.762235,9.74027,0.574878,0.07,0,0.14,-29.1143,-38.2637,6.12394,1009.99
20204,-0.862666,9.7307,0.646614,0.21,0,0.07,-29.7866,-37.7375,6.67933,1009.98
20210,-0.853101,9.7307,0.584443,0.21,-0.07,0.14,-30.1959,-38.4975,6.28471,1009.98
20216,-0.819624,9.75461,0.570096,0,0.14,0.21,-30.0497,-37.8252,7.48319,1009.98
20222,-0.843536,9.74027,0.574878,0,0.07,0.07,-29.6112,-38.556,8.91552,1009.98
20228,-0.829189,9.71636,0.63705,0.07,0,0.14,-29.582,-38.6729,7.45396,1009.98
20234,-0.833971,9.72114,0.627485,0.07,0.14,0.14,-30.6343,-38.7314,8.76937,1010
20240,-0.838754,9.74027,0.59879,0.14,0,0.14,-29.962,-38.7606,7.70243,1010
20246,-0.848318,9.73549,0.61792,0.07,0,0.14,-29.9912,-37.9714,7.84858,1009.99
20252,-0.833971,9.71636,0.61792,0.07,-0.07,0,-29.8743,-38.4975,8.7109,1009.99
20258,-0.838754,9.7307,0.603573,0.07,0,0.07,-29.7281,-38.8483,7.05934,1010.05
20264,-0.843536,9.73549,0.59879,0.07,-0.07,0.07,-29.8158,-38.936,6.76703,1010.05
20270,-0.824406,9.73549,0.627485,0.14,0,-0.07,-29.4943,-38.3221,6.4601,1009.99
20276,-0.829189,9.7594,0.584443,0.14,0.07,0,-29.9328,-38.0298,7.71704,1009.99
20282,-0.843536,9.75461,0.584443,0.07,-0.07,-0.07,-29.3481,-38.5852,8.56475,1009.99
20288,-0.833971,9.71157,0.608355,0,0.14,0,-30.4005,-38.4683,9.07629,1009.99
20294,-0.838754,9.69723,0.627485,0.07,-0.07,0,-29.6697,-38.0298,8.53552,1009.99
20300,-0.814842,9.7307,0.594008,0.07,0.14,0,-29.1435,-38.3221,7.55627,1009.99
20306,-0.848318,9.69723,0.613138,0.07,-0.14,0.07,-30.3712,-38.176,7.76089,1009.99
20312,-0.819624,9.75461,0.59879,0,0,0,-30.2251,-38.0298,6.41625,1010
20318,-0.843536,9.74027,0.594008,0,0,0,-29.5528,-38.6144,8.49167,1010
20324,-0.829189,9.72114,0.589226,0.07,-0.07,0,-29.7574,-38.4975,7.24934,1009.99
20330,-0.838754,9.72592,0.608355,0,-0.07,0.07,-30.4589,-38.3806,7.81935,1009.99
20336,-0.829189,9.70679,0.584443,0.07,0,0.07,-30.5174,-38.2344,7.71704,1009.99
20342,-0.824406,9.74027,0.59879,0.07,0.07,0.07,-30.342,-38.2637,8.12628,1009.97
20348,-0.843536,9.73549,0.584443,-0.07,0,0,-30.2543,-38.3806,7.92166,1009.97
20354,-0.843536,9.7307,0.59879,0,0,0,-30.1374,-37.7083,7.73166,1009.95
20360,-0.829189,9.74983,0.594008,0.07,0,0,-29.6989,-38.4391,7.10319,1009.95
20366,-0.833971,9.72592,0.59879,-0.07,0,0,-30.0205,-37.3283,6.35779,1009.99
20372,-0.833971,9.72592,0.589226,0.07,-0.07,-0.07,-29.8451,-37.9714,6.54779,1009.99
20378,-0.829189,9.74505,0.565314,0,0.07,0,-29.8743,-38.4975,7.93628,1009.97
20384,-0.833971,9.74983,0.570096,-0.07,0,0.07,-29.8451,-38.0006,7.17626,1009.97
20390,-0.843536,9.73549,0.613138,-0.07,0,-0.07,-29.8743,-37.796,7.5855,1009.99
20396,-0.805277,9.71157,0.603573,0,0,0,-29.4066,-37.9714,7.52704,1009.99
20402,-0.824406,9.74027,0.584443,0.07,0,0.07,-30.6051,-38.4098,7.93628,1009.99
20408,-0.853101,9.7594,0.570096,0,0,0,-31.8036,-38.936,7.03011,1009.99
20414,-0.848318,9.74983,0.589226,-0.07,0,0,-30.1374,-37.9421,7.5855,1009.99
20420,-0.819624,9.7307,0.59879,0.07,0.07,0,-29.6112,-38.3514,8.19936,1009.98
20426,-0.857883,9.73549,0.589226,0,0.07,0,-29.582,-37.8837,7.45396,1009.98
20432,-0.853101,9.72114,0.589226,0,0,0,-30.6343,-37.7375,7.57089,1009.98
20438,-0.838754,9.72114,0.589226,0,0,0,-30.5466,-38.8483,8.12628,1009.98
20444,-0.824406,9.74983,0.565314,0,0,0,-30.2543,-38.4975,7.67319,1009.99
20450,-0.848318,9.74983,0.574878,0.07,0,-0.07,-29.7281,-37.6498,6.98626,1009.99
20456,-0.814842,9.73549,0.589226,0,0,0,-29.962,-38.5852,7.61473,1009.99
20462,-0.833971,9.74027,0.594008,0.07,-0.07,0,-29.9912,-37.9714,7.54165,1010.01
20468,-0.829189,9.71157,0.579661,0,0.07,0,-29.7281,-38.556,6.41625,1010.01
20474,-0.848318,9.70201,0.59879,0.07,-0.07,0.07,-29.962,-37.7667,7.03011,1010
20480,-0.824406,9.73549,0.589226,0,0.14,0,-30.0789,-38.2344,6.86934,1010
20486,-0.833971,9.74027,0.584443,-0.07,0,-0.07,-29.2312,-38.4391,8.09705,1009.97
20492,-0.824406,9.71636,0.613138,-0.07,0.07,0,-30.0789,-38.556,7.51242,1009.97
20498,-0.819624,9.71157,0.594008,0,0,0,-29.202,-38.0298,7.27857,1009.95
20504,-0.848318,9.72592,0.59879,0.14,0,0,-29.8158,-38.2929,7.41011,1009.95
20510,-0.819624,9.7307,0.603573,0.14,-0.07,-0.07,-31.0436,-38.7314,6.44548,1009.98
20516,-0.79093,9.75461,0.59879,0.07,0.14,0.07,-30.1374,-38.6144,7.83397,1009.98
20522,-0.838754,9.73549,0.579661,-0.07,-0.07,0,-29.7574,-38.5267,8.28705,1009.98
20528,-0.862666,9.71157,0.59879,-0.07,0.07,-0.07,-29.8158,-37.1821,7.74627,1009.98
20534,-0.819624,9.73549,0.570096,0.14,-0.07,0.07,-29.8158,-37.9421,6.72318,1009.98
20540,-0.819624,9.74505,0.570096,-0.07,0.07,0,-29.6112,-38.2929,7.7755,1010
20546,-0.824406,9.74505,0.589226,0,-0.07,0,-29.6405,-37.9714,7.89243,1010
20552,-0.857883,9.71157,0.608355,-0.07,0,0.07,-30.3128,-37.9421,7.16165,1009.97
20558,-0.833971,9.71636,0.59879,0.07,-0.07,0,-30.1374,-37.796,7.35165,1009.97
20564,-0.838754,9.74505,0.574878,0.14,-0.07,0.07,-30.0497,-37.8837,7.71704,1009.96
20570,-0.829189,9.74027,0.574878,0.07,0.07,0,-29.6405,-37.679,7.29319,1009.96
20576,-0.848318,9.74505,0.579661,-0.07,-0.07,0,-30.1082,-37.8544,7.8632,1009.96
20582,-0.829189,9.74027,0.613138,0,0,0,-29.4358,-38.2637,7.38088,1010.01
20588,-0.843536,9.72114,0.565314,0.07,0,0,-29.6112,-37.5329,7.60012,1010.01
20594,-0.824406,9.74983,0.613138,0,0,0,-29.3481,-38.1467,6.98626,1009.98
20600,-0.833971,9.74983,0.59879,0,0,0,-29.9035,-37.8544,7.89243,1009.98
20606,-0.824406,9.74027,0.579661,0,0,0,-30.2835,-38.176,6.88395,1009.98
20612,-0.833971,9.71157,0.589226,0,-0.07,0,-31.2189,-38.8191,6.06548,1009.98
20618,-0.843536,9.72114,0.589226,0,0,0,-29.3189,-38.176,6.78164,1010.01
20624,-0.824406,9.74983,0.613138,0,0,0.07,-30.4882,-38.4098,6.95703,1010.01
20630,-0.862666,9.74505,0.589226,0.07,-0.07,0.07,-29.8158,-37.8837,7.13242,1010.01
20636,-0.838754,9.74983,0.579661,-0.07,0,0,-30.0497,-37.8837,8.9886,1010.01
20642,-0.824406,9.7307,0.565314,0.07,0,0,-29.6989,-38.2052,7.65858,1010.01
20648,-0.833971,9.7307,0.594008,0,-0.07,0,-29.7866,-37.5037,6.84011,1010.04
20654,-0.829189,9.72114,0.603573,0.07,0,0,-29.6989,-38.6144,6.72318,1010.04
20660,-0.838754,9.73549,0.584443,0.07,0,0,-30.6928,-38.7021,6.70856,1009.98
20666,-0.853101,9.72592,0.61792,0,0,0.07,-30.4005,-37.8544,7.42473,1009.98
20672,-0.824406,9.72114,0.579661,0,-0.07,-0.07,-29.4651,-38.9652,6.4601,1009.97
20678,-0.810059,9.72114,0.613138,0,0.07,0,-29.7574,-38.7021,7.71704,1009.97
20684,-0.814842,9.72592,0.584443,0,-0.07,0,-29.7866,-37.8837,6.09471,1009.99
20690,-0.829189,9.73549,0.570096,0,0.07,0.07,-29.7574,-37.7667,7.13242,1009.99
20696,-0.810059,9.74983,0.584443,-0.07,-0.07,-0.07,-30.3128,-38.2637,7.10319,1009.99
20702,-0.805277,9.74027,0.579661,0,0.07,-0.07,-29.5235,-38.176,7.51242,1010
20708,-0.829189,9.7307,0.574878,0.14,-0.07,0,-30.342,-38.0006,7.33704,1010
20714,-0.838754,9.75461,0.589226,-0.07,0,0,-29.8451,-38.5852,7.33704,1010.01
20720,-0.829189,9.7594,0.584443,0,0,0.07,-29.8743,-37.679,6.67933,1010.01
20726,-0.819624,9.75461,0.589226,-0.07,0.14,0,-29.6697,-38.2637,8.37474,1009.99
20732,-0.833971,9.74027,0.594008,0,0,-0.07,-29.9912,-37.9129,6.6501,1009.99
20738,-0.833971,9.74505,0.594008,-0.07,0,-0.07,-30.1374,-38.0883,6.56241,1009.95
20744,-0.833971,9.74027,0.579661,0.07,0,-0.07,-29.3189,-38.0298,7.81935,1009.95
20750,-0.824406,9.7307,0.594008,-0.07,0.07,0,-30.0497,-37.796,7.7755,1009.95
20756,-0.810059,9.74027,0.570096,-0.07,0,0,-29.4066,-38.5852,7.00088,1009.98
20762,-0.824406,9.72114,0.584443,-0.14,0.14,0,-29.4358,-38.4098,8.43321,1009.98
20768,-0.810059,9.71636,0.589226,-0.07,0,-0.14,-30.1374,-38.0006,8.36013,1009.95
20774,-0.829189,9.74027,0.589226,-0.07,0.07,0,-29.2312,-37.5913,6.84011,1009.95
20780,-0.838754,9.72592,0.574878,-0.07,0,-0.07,-29.5235,-37.8544,6.98626,1009.99
20786,-0.810059,9.72114,0.589226,-0.07,0.07,-0.07,-30.2543,-38.1175,7.07396,1009.99
20792,-0.833971,9.7594,0.59879,-0.07,0,-0.07,-29.6697,-38.3221,6.95703,1010
20798,-0.838754,9.74505,0.589226,-0.07,0.14,0,-29.9035,-37.4452,7.13242,1010
20804,-0.829189,9.72592,0.570096,0,-0.14,0,-29.9912,-38.5267,6.86934,1010
20810,-0.810059,9.75461,0.565314,0,0,-0.07,-30.342,-37.299,6.91318,1009.99
20816,-0.833971,9.74983,0.574878,-0.07,0.07,-0.07,-29.7574,-37.7667,5.91932,1009.99
20822,-0.814842,9.70679,0.589226,-0.07,0,0.07,-30.8389,-38.176,6.84011,1009.99
20828,-0.810059,9.72114,0.594008,0,0,0,-30.2251,-38.059,5.78778,1009.99
20834,-0.838754,9.74983,0.570096,0,0,0.07,-30.1374,-38.3221,7.29319,1009.98
20840,-0.805277,9.74983,0.570096,0,0.07,0,-29.4358,-38.1467,7.43935,1009.98
20846,-0.833971,9.74027,0.584443,-0.07,0,-0.07,-29.9328,-38.0883,6.95703,1010
20852,-0.814842,9.71157,0.59879,0,0.07,0,-29.8743,-37.796,7.13242,1010
20858,-0.824406,9.73549,0.589226,0,0,0,-30.0205,-37.8544,7.3078,1009.99
20864,-0.810059,9.73549,0.560531,-0.07,0.07,0.07,-30.7512,-38.4098,7.48319,1009.99
20870,-0.829189,9.7307,0.603573,-0.14,0.07,0,-30.0205,-37.5621,7.90704,1009.99
20876,-0.814842,9.72114,0.61792,0,0.07,0.07,-29.0266,-37.9714,7.51242,1009.98
20882,-0.824406,9.72114,0.589226,0,0.07,0.07,-29.5235,-38.2637,8.46244,1009.98
20888,-0.829189,9.72592,0.59879,0,0.07,0,-29.2605,-38.2929,7.42473,1010
20894,-0.824406,9.70679,0.589226,0,0.07,0.07,-30.0497,-38.176,6.91318,1010
20900,-0.838754,9.73549,0.613138,0,0.14,0,-29.1435,-38.8775,7.24934,1009.99
20906,-0.819624,9.71157,0.589226,0,0,0.07,-29.6112,-38.5267,7.48319,1009.99
20912,-0.819624,9.72114,0.579661,0.07,0.07,0.07,-29.202,-38.2637,7.41011,1009.98
20918,-0.833971,9.7307,0.584443,0.07,0.07,0,-29.4943,-38.2052,6.59164,1009.98
20924,-0.824406,9.74983,0.589226,0,-0.07,0,-29.7866,-37.8544,9.13476,1009.98
20930,-0.829189,9.73549,0.584443,0.07,0,0,-30.342,-37.6206,7.54165,1009.97
20936,-0.824406,9.72114,0.59879,0.07,0.07,0,-29.8158,-38.0006,7.33704,1009.97
20942,-0.829189,9.7307,0.570096,0.14,0.07,0.07,-29.6989,-37.796,8.17013,1010
20948,-0.838754,9.7307,0.555749,0.07,0.07,0.07,-30.1666,-38.1467,7.45396,1010
20954,-0.829189,9.72114,0.584443,0,0,0.07,-30.5174,-37.9129,7.05934,1009.98
20960,-0.814842,9.72592,0.570096,0,0.07,0.07,-29.5235,-38.5852,8.03858,1009.98
20966,-0.819624,9.72592,0.608355,0.07,-0.07,0,-30.1082,-38.0883,7.45396,1010.01
20972,-0.819624,9.72592,0.594008,0.07,-0.07,0,-29.202,-37.9714,6.60626,1010.01
20978,-0.810059,9.74505,0.574878,0.07,0,0.07,-29.8451,-38.6144,6.59164,1010
20984,-0.833971,9.74983,0.570096,0.14,-0.07,0,-29.6697,-38.0298,7.92166,1010
20990,-0.800494,9.74027,0.565314,0,0,0.07,-29.7866,-38.1175,7.54165,1010
20996,-0.833971,9.74027,0.589226,-0.14,0.07,0,-29.8451,-38.4683,6.84011,1010.02
21002,-0.833971,9.71636,0.584443,0.07,0,0,-29.6989,-37.8837,7.24934,1010.02
21008,-0.810059,9.74505,0.570096,0,0,0,-29.582,-38.0298,7.38088,1010
21014,-0.829189,9.72592,0.560531,-0.07,0,0,-29.6697,-38.936,7.60012,1010
21020,-0.833971,9.71636,0.584443,0.07,0,0.07,-29.3481,-38.7898,6.7378,1010
21026,-0.819624,9.73549,0.584443,0.07,0,0.07,-29.8451,-38.176,7.49781,1010
21032,-0.843536,9.7594,0.574878,0,0.07,0.07,-30.1959,-37.796,7.84858,1010.01
21038,-0.824406,9.74027,0.574878,0,0,0.14,-29.6112,-38.3806,7.3955,1010.01
21044,-0.810059,9.74027,0.574878,0,-0.07,0,-28.9389,-37.9421,7.26396,1010.01
21050,-0.819624,9.73549,0.584443,0,-0.07,0,-29.4066,-38.5267,7.61473,1009.99
21056,-0.833971,9.73549,0.579661,0,0,0,-29.1435,-38.2929,7.13242,1009.99
21062,-0.805277,9.7307,0.574878,0,-0.07,0,-29.0266,-37.8837,7.70243,1009.98
21068,-0.824406,9.74027,0.584443,-0.07,0.21,0.07,-29.4943,-37.796,8.76937,1009.98
21074,-0.857883,9.74505,0.579661,0,-0.07,-0.07,-29.3481,-38.556,6.7378,1009.98
21080,-0.814842,9.71157,0.560531,-0.14,0,0,-28.9097,-38.4391,8.22859,1009.98
21086,-0.833971,9.72592,0.579661,0.14,0.07,0.07,-29.9328,-38.0883,7.55627,1009.98
21092,-0.824406,9.73549,0.574878,0.07,0,0,-29.3481,-37.6206,7.65858,1009.98
21098,-0.805277,9.74983,0.570096,0.07,0,0,-29.6697,-38.3221,6.25548,1009.98
21104,-0.824406,9.7594,0.565314,0,0.07,0.07,-29.8158,-38.5852,8.21397,1009.98
21110,-0.810059,9.76418,0.546184,-0.07,0.07,0,-29.7866,-38.3806,6.88395,1009.98
21116,-0.819624,9.7307,0.579661,-0.28,0.14,-0.07,-29.2312,-38.556,7.67319,1009.99
21122,-0.829189,9.70679,0.579661,-0.14,-0.07,-0.07,-29.9912,-38.3514,7.79012,1009.99
21128,-0.819624,9.73549,0.579661,-0.07,0.14,-0.07,-31.3359,-39.3452,6.29933,1009.99
21134,-0.819624,9.74027,0.560531,-0.07,0.21,0,-29.5528,-38.2929,7.55627,1009.99
21140,-0.814842,9.74983,0.560531,-0.21,0.07,-0.07,-29.6112,-38.0006,6.82549,1009.99
21146,-0.795712,9.7307,0.579661,-0.14,0.14,0,-29.0266,-37.7375,7.90704,1009.99
21152,-0.848318,9.71157,0.622702,-0.14,0,-0.07,-29.582,-37.5913,6.72318,1009.98
21158,-0.814842,9.7307,0.570096,-0.07,0,0.07,-29.2312,-37.8837,8.9886,1009.98
21164,-0.824406,9.74027,0.555749,-0.07,0.07,0,-29.3189,-37.8544,6.62087,1009.98
21170,-0.833971,9.74983,0.574878,-0.07,0,-0.07,-29.202,-38.0883,7.62935,1010.01
21176,-0.810059,9.72114,0.579661,-0.14,0.07,0,-28.442,-38.2637,8.08243,1010.01
21182,-0.843536,9.74983,0.589226,0.07,0,0,-29.8451,-38.2344,7.16165,1009.98
21188,-0.833971,9.77374,0.584443,0,0.07,0,-29.582,-36.9775,7.22011,1009.98
21194,-0.838754,9.73549,0.579661,-0.14,0,0,-29.4943,-37.796,7.62935,1009.99
21200,-0.814842,9.74027,0.608355,-0.21,0,-0.07,-29.4943,-38.059,7.45396,1009.99
21206,-0.824406,9.72114,0.594008,-0.07,0.07,0,-29.3481,-37.7083,6.25548,1010
21212,-0.819624,9.73549,0.584443,0,0.07,-0.07,-29.7281,-37.6206,8.3309,1010
21218,-0.814842,9.71636,0.584443,0,0,-0.07,-29.3481,-37.3867,8.2432,1010
21224,-0.814842,9.74027,0.565314,0.07,-0.07,-0.07,-29.6405,-37.2698,8.2432,1009.99
21230,-0.824406,9.74505,0.589226,0,0.14,0,-29.5235,-37.5329,6.9278,1009.99
21236,-0.814842,9.71157,0.594008,0.07,-0.07,-0.07,-29.2312,-37.9129,7.42473,1010
21242,-0.79093,9.74027,0.574878,-0.07,0.07,-0.07,-29.1435,-37.6206,7.07396,1010
21248,-0.795712,9.72114,0.570096,0,0,0,-28.7928,-38.2929,7.3078,1009.97
21254,-0.833971,9.72592,0.594008,0.07,-0.07,0.07,-29.3481,-37.7083,7.49781,1009.97
21260,-0.819624,9.74505,0.589226,0,-0.07,-0.07,-28.9389,-37.9129,8.46244,1009.99
21266,-0.800494,9.74983,0.603573,0,0.07,0,-29.2897,-37.9129,7.3955,1009.99
21272,-0.819624,9.74027,0.560531,0.07,0.07,0.07,-29.8451,-37.8544,7.01549,1009.99
21278,-0.814842,9.7307,0.574878,0,0.07,0,-28.7635,-38.4683,8.30167,1009.99
21284,-0.814842,9.72114,0.608355,-0.07,0,0,-29.9912,-37.5621,8.12628,1009.99
21290,-0.824406,9.72114,0.59879,0.07,0,0,-29.7866,-37.796,7.54165,1009.97
21296,-0.814842,9.7307,0.594008,0.07,-0.07,0,-29.6112,-37.3867,8.14089,1009.97
21302,-0.843536,9.74027,0.565314,0.14,0,0,-29.962,-38.5852,8.56475,1009.99
21308,-0.819624,9.71636,0.59879,0.07,-0.07,0,-29.962,-38.2052,6.72318,1009.99
21314,-0.786147,9.73549,0.570096,0.14,0,0.07,-29.6112,-37.9421,7.76089,1009.97
21320,-0.824406,9.72592,0.574878,0.14,0,0,-29.0558,-37.9421,7.99474,1009.97
21326,-0.829189,9.76418,0.574878,0.07,0,0.07,-29.6405,-37.6498,6.37241,1009.99
21332,-0.824406,9.72592,0.574878,0,0.07,0.07,-29.6989,-37.5329,8.0532,1009.99
21338,-0.819624,9.71636,0.603573,0.07,0.07,0,-29.5235,-37.8837,7.43935,1009.99
21344,-0.838754,9.71157,0.594008,0.07,0.07,0.07,-29.4358,-37.7083,7.71704,1009.97
21350,-0.833971,9.74505,0.565314,0.07,0,0.07,-29.8743,-37.8544,8.00935,1009.97
21356,-0.814842,9.72114,0.594008,0.07,0,0,-29.6405,-38.2052,7.51242,1009.98
21362,-0.824406,9.75461,0.59879,0,0.07,0.07,-29.582,-37.8544,8.56475,1009.98
21368,-0.824406,9.72114,0.613138,0.07,-0.07,-0.07,-29.5235,-37.9129,7.38088,1010.02
21374,-0.838754,9.73549,0.589226,0,0,0.07,-29.8158,-38.176,8.17013,1010.02
21380,-0.814842,9.76896,0.584443,0,0,0,-29.2312,-38.5267,8.06782,1010
21386,-0.829189,9.74505,0.59879,-0.07,0.07,0,-30.2251,-38.3806,8.34551,1010
21392,-0.829189,9.72592,0.589226,0,-0.07,0.07,-29.9035,-38.4683,8.22859,1010
21398,-0.829189,9.74027,0.594008,0.07,0.07,0,-29.6989,-38.176,7.83397,1010.03
21404,-0.824406,9.74505,0.579661,-0.07,-0.07,0,-29.5528,-38.059,8.3309,1010.03
21410,-0.814842,9.7307,0.603573,0,0,0,-29.4943,-38.3221,8.56475,1009.99
21416,-0.810059,9.74983,0.59879,0,0.07,0,-30.0789,-39.0237,8.30167,1009.99
21422,-0.829189,9.75461,0.579661,-0.07,0.14,0.07,-28.9974,-38.0883,7.45396,1009.99
21428,-0.833971,9.70201,0.565314,0,0,-0.07,-29.2897,-38.4098,8.60859,1009.99
21434,-0.819624,9.71636,0.574878,0.07,0.07,0,-29.7574,-38.3514,8.5209,1010.01
21440,-0.819624,9.73549,0.584443,0.07,0,0,-28.6466,-38.7021,8.40398,1010.01
21446,-0.795712,9.74505,0.584443,0,0,0.07,-29.7574,-38.3221,8.56475,1009.95
21452,-0.829189,9.72592,0.589226,0,0,0,-29.4358,-38.2929,7.48319,1009.95
21458,-0.824406,9.72592,0.579661,0,0,0,-29.6697,-38.6144,6.56241,1009.95
21464,-0.819624,9.73549,0.570096,0.14,-0.07,0,-29.1143,-38.059,7.23473,1010.03
21470,-0.79093,9.74505,0.584443,0.07,0.07,0.07,-29.6697,-38.7898,8.25782,1010.03
21476,-0.814842,9.74027,0.565314,0,0,0,-29.5235,-38.176,8.55013,1009.99
21482,-0.800494,9.71636,0.59879,0.07,0,-0.07,-29.7281,-38.1175,7.42473,1009.99
21488,-0.819624,9.71157,0.584443,0.07,0.07,0.07,-29.9328,-38.4975,7.81935,1009.96
21494,-0.838754,9.74983,0.594008,0,0,0.07,-29.2897,-38.3806,8.7109,1009.96
21500,-0.833971,9.74983,0.584443,0,-0.07,0.07,-30.4297,-37.7667,7.83397,1009.99
21506,-0.824406,9.74027,0.579661,0.07,0.07,-0.07,-29.3189,-38.2929,7.3955,1009.99
21512,-0.810059,9.74505,0.584443,0,0,0.07,-30.0205,-38.4683,8.15551,1009.99
21518,-0.824406,9.70679,0.594008,0,0.14,0,-30.4882,-38.1467,6.67933,1010
21524,-0.814842,9.73549,0.613138,0.14,-0.07,0.07,-29.9912,-38.2052,8.03858,1010
21530,-0.810059,9.7307,0.594008,0.07,0.07,0,-29.6697,-38.0883,7.2055,1010.01
21536,-0.814842,9.74505,0.584443,0.14,0,0,-29.7281,-38.1467,7.45396,1010.01
21542,-0.833971,9.72114,0.594008,-0.07,0.07,0,-29.0266,-38.176,8.34551,1009.97
21548,-0.814842,9.72592,0.574878,0,0.07,-0.07,-29.3774,-38.059,8.02397,1009.97
21554,-0.810059,9.71636,0.579661,0.07,0.07,0.07,-29.4358,-38.3806,8.21397,1009.97
21560,-0.829189,9.7307,0.589226,0,0,0.07,-29.4943,-39.0529,7.16165,1009.97
21566,-0.824406,9.74505,0.584443,0,0,0.07,-29.4943,-38.6729,5.55393,1009.97
21572,-0.819624,9.72592,0.613138,-0.07,0.07,0.07,-29.3481,-38.6144,6.51856,1009.97
21578,-0.824406,9.74983,0.594008,0.07,0,0.07,-29.4943,-38.4391,8.18474,1009.97
21584,-0.824406,9.75461,0.579661,0.07,0.07,0,-29.8451,-38.5852,7.92166,1010.01
21590,-0.810059,9.74027,0.59879,0,-0.14,0.14,-30.0497,-37.9129,7.93628,1010.01
21596,-0.786147,9.72592,0.608355,0.14,0,0.14,-30.4589,-38.4098,7.84858,1009.99
21602,-0.810059,9.7307,0.574878,0.07,0,0,-29.8158,-38.3514,7.61473,1009.99
21608,-0.810059,9.7307,0.594008,0,0.07,0.07,-29.0558,-37.9714,7.55627,1009.99
21614,-0.833971,9.72592,0.560531,0.07,0,0.14,-30.2251,-38.4098,7.64396,1009.99
21620,-0.805277,9.70201,0.594008,0.07,0.14,0.07,-30.0497,-38.556,7.22011,1010
21626,-0.819624,9.74027,0.603573,0.07,0.07,0.07,-30.0205,-37.796,8.85706,1010
21632,-0.810059,9.73549,0.589226,0.07,0,0.07,-29.3774,-38.2344,7.22011,1010
21638,-0.805277,9.72114,0.579661,0.07,0.07,0.07,-29.5235,-38.3806,7.46858,1009.98
21644,-0.814842,9.74983,0.59879,0.14,0.07,0.14,-30.342,-38.1467,8.50628,1009.98
21650,-0.843536,9.7594,0.584443,0.14,0,0.07,-29.9912,-38.2052,7.60012,1009.99
21656,-0.810059,9.71636,0.594008,0.07,0.07,0.07,-29.2897,-38.3806,7.87781,1009.99
21662,-0.838754,9.72592,0.594008,0.07,0.07,0.07,-29.6697,-37.9714,7.08857,1009.99
21668,-0.848318,9.7307,0.579661,0.14,-0.07,0.07,-29.582,-38.8191,7.8632,1009.99
21674,-0.79093,9.72592,0.59879,0.21,-0.07,0.07,-29.962,-38.6729,7.00088,1009.99
21680,-0.819624,9.7307,0.589226,0.14,0,0,-30.1374,-38.7314,6.78164,1009.99
21686,-0.805277,9.74505,0.565314,0.07,-0.07,0.07,-30.0789,-37.8252,7.60012,1009.99
21692,-0.824406,9.73549,0.589226,0.07,0,0.07,-30.2835,-38.176,7.3955,1009.99
21698,-0.819624,9.74505,0.59879,0.07,0.07,0.07,-30.4005,-38.1467,7.17626,1009.99
21704,-0.79093,9.74505,0.565314,0.07,0,0,-30.4005,-38.3514,8.2432,1009.98
21710,-0.819624,9.76896,0.574878,0.07,0,-0.07,-30.2835,-38.6437,7.3078,1009.98
21716,-0.810059,9.74505,0.574878,-0.07,0.07,0,-29.5528,-38.0883,8.21397,1009.97
21722,-0.795712,9.74505,0.574878,0,0.07,-0.07,-30.1082,-37.5329,6.67933,1009.97
21728,-0.810059,9.72114,0.584443,0.07,0,-0.07,-30.4882,-38.5267,6.81087,1010.01
21734,-0.800494,9.74983,0.579661,0,0,0,-30.4297,-37.5329,7.38088,1010.01
21740,-0.79093,9.72592,0.574878,0,0,-0.07,-31.2189,-38.6437,7.7755,1010.01
21746,-0.805277,9.74505,0.565314,0,0.14,0,-30.1666,-38.2344,7.71704,1009.97
21752,-0.829189,9.7307,0.560531,-0.14,0.14,0.07,-29.4943,-37.6498,7.55627,1009.97
21758,-0.848318,9.73549,0.627485,-0.07,0,0,-29.6989,-37.8837,8.22859,1009.94
21764,-0.819624,9.7307,0.584443,0.07,0.07,0.07,-30.1666,-38.1175,7.84858,1009.94
21770,-0.829189,9.72592,0.589226,0,0,0.07,-30.1082,-37.5621,7.65858,1009.97
21776,-0.805277,9.76896,0.589226,0.07,-0.07,0,-30.4882,-38.059,7.60012,1009.97
21782,-0.814842,9.75461,0.589226,-0.07,0,0.07,-30.1374,-38.0298,7.1178,1009.97
21788,-0.829189,9.7307,0.589226,0,0,0,-30.0205,-38.7606,7.60012,1009.97
21794,-0.824406,9.74027,0.59879,-0.07,0.07,0.07,-30.5466,-38.4391,7.89243,1010.01
21800,-0.838754,9.74027,0.584443,0,0,0,-30.0205,-38.1467,7.99474,1010.01
21806,-0.819624,9.72592,0.589226,0,0,0,-30.4005,-38.7606,7.7755,1010.01
21812,-0.79093,9.73549,0.579661,0.07,-0.07,0,-30.6051,-37.9129,7.64396,1009.99
21818,-0.814842,9.74505,0.570096,0.07,0.07,0,-29.5235,-38.2637,7.01549,1009.99
21824,-0.819624,9.74505,0.570096,0.07,0,0.07,-30.4005,-38.2344,7.03011,1009.99
21830,-0.805277,9.7594,0.570096,-0.07,-0.07,0,-30.6343,-38.2929,6.08009,1009.99
21836,-0.810059,9.76896,0.584443,0.07,-0.07,-0.07,-29.8451,-38.3806,7.68781,1009.98
21842,-0.829189,9.74027,0.589226,0,0.07,0.07,-30.4297,-38.7021,7.14703,1009.98
21848,-0.805277,9.72592,0.584443,-0.07,0.14,-0.07,-29.9912,-38.1467,8.0532,1010.02
21854,-0.810059,9.7307,0.574878,0,0,0,-29.7574,-38.1175,6.63549,1010.02
21860,-0.795712,9.74505,0.570096,0,0,0,-29.9912,-38.1467,6.60626,1010.02
21866,-0.795712,9.74027,0.589226,0,0.07,-0.07,-29.9328,-38.2344,8.27244,1009.99
21872,-0.819624,9.7307,0.603573,-0.07,0,-0.14,-30.6051,-38.1175,8.60859,1009.99
21878,-0.795712,9.74983,0.589226,0,0.14,-0.07,-30.6051,-38.4098,7.79012,1010
21884,-0.819624,9.73549,0.570096,0,-0.07,0,-29.8158,-39.1114,7.24934,1010
21890,-0.829189,9.71157,0.579661,-0.14,0.07,-0.07,-30.0205,-38.6729,7.65858,1010.01
21896,-0.819624,9.74505,0.594008,-0.07,-0.07,0,-30.0497,-38.059,6.82549,1010.01
21902,-0.824406,9.74983,0.594008,-0.07,0.07,0,-28.9097,-38.1175,8.15551,1009.98
21908,-0.805277,9.7307,0.579661,0,0,0,-30.5174,-38.3806,7.23473,1009.98
21914,-0.814842,9.73549,0.584443,0,-0.07,0,-30.1666,-38.7314,6.15317,1009.97
21920,-0.838754,9.74983,0.579661,-0.07,0.14,0,-29.7281,-38.7606,6.94241,1009.97
21926,-0.824406,9.73549,0.603573,-0.07,0,-0.07,-29.7281,-38.1175,6.10932,1009.97
21932,-0.800494,9.73549,0.594008,-0.07,0.07,0,-29.9912,-37.9129,7.87781,1010
21938,-0.800494,9.74505,0.565314,0,0,-0.07,-29.2605,-38.556,7.35165,1010
21944,-0.819624,9.72592,0.565314,-0.14,0.07,-0.07,-31.3651,-39.3745,7.05934,1010.01
21950,-0.819624,9.71636,0.613138,0.07,-0.07,0,-30.0789,-38.2052,7.68781,1010.01
21956,-0.814842,9.72114,0.59879,0.07,0.07,0,-29.9912,-37.9421,7.29319,1009.97
21962,-0.829189,9.7307,0.594008,0.07,0,0,-29.4943,-38.0298,7.1178,1009.97
21968,-0.824406,9.72592,0.579661,0,0,-0.07,-29.6405,-38.3806,7.00088,1010.02
21974,-0.819624,9.73549,0.584443,0,0.07,0,-29.7574,-37.7083,6.88395,1010.02
21980,-0.819624,9.74027,0.565314,0,0,0,-30.4882,-38.0883,8.14089,1010.02
21986,-0.824406,9.72592,0.555749,0.07,0.07,-0.07,-30.2251,-38.0006,7.07396,1009.99
21992,-0.795712,9.74505,0.574878,0,0,0,-30.1666,-37.3867,6.70856,1009.99
21998,-0.819624,9.7594,0.574878,-0.07,0.14,-0.07,-30.0497,-38.0006,7.92166,1010.01
22004,-0.824406,9.72592,0.59879,0.07,-0.07,0,-29.4651,-38.1467,7.61473,1010.01
22010,-0.814842,9.74027,0.594008,0,0.14,-0.07,-30.4882,-37.5037,7.96551,1009.98
22016,-0.814842,9.74983,0.589226,0.07,0,0,-29.2312,-38.3514,7.68781,1009.98
22022,-0.824406,9.75461,0.574878,-0.07,0.14,-0.07,-29.962,-38.6729,7.14703,1009.98
22028,-0.843536,9.70679,0.589226,0,0,0,-29.4358,-38.059,6.97165,1009.98
22034,-0.824406,9.71157,0.570096,0.07,0,-0.07,-29.6112,-38.4098,6.21163,1009.98
22040,-0.786147,9.74505,0.560531,0.14,0,0,-29.3774,-37.9129,7.71704,1009.98
22046,-0.838754,9.7594,0.584443,-0.07,0.07,0,-29.8743,-38.2052,6.86934,1009.98
22052,-0.810059,9.74027,0.570096,-0.07,-0.07,-0.14,-30.1374,-37.796,7.93628,1009.98
22058,-0.800494,9.72114,0.574878,-0.07,0.07,0,-29.8743,-38.4683,5.96317,1009.98
22064,-0.829189,9.7307,0.574878,0,0,0,-29.6989,-38.3221,7.67319,1009.97
22070,-0.810059,9.75461,0.584443,-0.07,0.07,0,-30.0205,-38.1467,7.71704,1009.97
22076,-0.810059,9.7307,0.61792,-0.14,0,0,-30.2835,-37.9421,6.53318,1010.01
22082,-0.795712,9.74027,0.59879,0,0.14,0,-29.9912,-38.2052,6.54779,1010.01
22088,-0.814842,9.74027,0.584443,0,0,0,-30.722,-37.5621,7.10319,1010.02
22094,-0.800494,9.73549,0.584443,0,0.07,0,-30.8097,-39.0529,6.95703,1010.02
22100,-0.819624,9.72114,0.589226,0,-0.07,-0.07,-30.0497,-37.6498,7.38088,1010.02
22106,-0.829189,9.73549,0.589226,0.14,-0.07,-0.07,-29.7574,-38.7314,6.84011,1009.99
22112,-0.843536,9.72592,0.565314,-0.07,-0.07,0.07,-30.0205,-37.9129,7.41011,1009.99
22118,-0.814842,9.7307,0.565314,-0.07,0,0,-30.7805,-38.2929,7.62935,1009.99
22124,-0.829189,9.71636,0.574878,0.07,0,0,-30.1374,-38.176,7.60012,1009.99
22130,-0.833971,9.72592,0.574878,0.07,0.07,0,-30.1666,-37.8544,8.17013,1010
22136,-0.814842,9.72592,0.584443,0,-0.07,0,-29.9912,-38.3221,6.98626,1010
22142,-0.800494,9.72592,0.565314,0.14,0,0,-29.7574,-37.8837,8.21397,1010
22148,-0.819624,9.74505,0.589226,0.07,-0.07,0,-29.962,-38.2052,7.62935,1010
22154,-0.814842,9.74027,0.579661,0,0.14,0.14,-30.2543,-38.8775,7.42473,1010
22160,-0.819624,9.73549,0.550966,0,0,0,-29.6697,-38.4098,6.9278,1009.98
22166,-0.805277,9.72592,0.560531,-0.07,0.14,0,-29.9035,-37.2698,7.43935,1009.98
22172,-0.814842,9.74983,0.594008,-0.07,0,0,-29.8451,-37.8544,7.93628,1010.03
22178,-0.810059,9.74027,0.584443,0,0,0,-29.7866,-38.3806,6.4601,1010.03
22184,-0.800494,9.71636,0.570096,0,0,-0.07,-29.962,-37.796,8.08243,1009.98
22190,-0.838754,9.7594,0.579661,-0.14,0.07,-0.07,-29.6989,-38.5267,7.16165,1009.98
22196,-0.814842,9.7307,0.589226,-0.14,0,-0.07,-29.202,-37.6498,7.8632,1009.96
22202,-0.819624,9.70679,0.574878,-0.14,0.07,0,-29.5528,-37.8837,7.00088,1009.96
22208,-0.829189,9.7307,0.584443,0.07,-0.07,0,-30.1374,-38.7606,7.07396,1009.96
22214,-0.829189,9.7307,0.570096,-0.07,0,-0.07,-29.8451,-38.8775,7.45396,1009.97
22220,-0.810059,9.77374,0.570096,-0.14,0,-0.07,-29.7574,-37.8544,8.57936,1009.97
22226,-0.795712,9.73549,0.608355,-0.28,0,-0.07,-29.582,-37.8837,7.52704,1009.96
22232,-0.824406,9.70201,0.608355,-0.14,0.07,-0.07,-29.7281,-38.176,6.41625,1009.96
22238,-0.814842,9.7307,0.579661,0,-0.07,-0.14,-29.9328,-38.4391,8.18474,1009.97
22244,-0.829189,9.75461,0.574878,-0.14,0.07,0,-29.6405,-38.2637,6.51856,1009.97
22250,-0.805277,9.72592,0.594008,-0.14,0.07,-0.07,-30.5466,-37.9714,6.75241,1009.99
22256,-0.838754,9.76418,0.589226,-0.14,0.14,-0.07,-29.6112,-38.6729,7.24934,1009.99
22262,-0.814842,9.74027,0.589226,-0.14,0.07,-0.07,-29.2897,-38.4683,6.75241,1009.96
22268,-0.829189,9.7307,0.579661,-0.07,0.07,0,-29.9035,-37.679,6.97165,1009.96
22274,-0.819624,9.74027,0.574878,-0.07,0.07,0,-30.2835,-37.9421,7.2055,1009.96
22280,-0.829189,9.74027,0.608355,-0.07,0.07,-0.14,-29.6697,-38.6437,6.50395,1010.02
22286,-0.795712,9.73549,0.560531,-0.14,-0.14,-0.28,-29.3774,-38.2052,7.65858,1010.02
22292,-0.819624,9.77374,0.565314,-0.35,0.07,-0.21,-29.9035,-38.059,6.09471,1009.99
22298,-0.810059,9.74027,0.594008,-0.49,0.07,-0.28,-29.2312,-37.8252,7.89243,1009.99
22304,-0.824406,9.6781,0.63705,-0.21,0.14,-0.21,-29.1435,-38.4975,7.8632,1009.99
22310,-0.810059,9.71157,0.613138,0,0,-0.28,-29.4358,-38.0006,7.70243,1009.99
22316,-0.824406,9.74027,0.574878,0,0.07,-0.21,-29.9328,-38.176,6.08009,1010
22322,-0.805277,9.7594,0.589226,-0.28,0.07,-0.14,-29.582,-39.1114,7.70243,1010
22328,-0.829189,9.71157,0.603573,-0.35,0.07,-0.21,-29.6989,-38.4683,6.43087,1010
22334,-0.824406,9.68766,0.622702,-0.14,-0.07,-0.14,-29.582,-38.3806,7.05934,1009.94
22340,-0.829189,9.71157,0.613138,0,0,-0.14,-30.1082,-38.2929,7.13242,1009.94
22346,-0.814842,9.73549,0.565314,-0.07,0,-0.14,-30.1082,-38.3221,7.64396,1009.96
22352,-0.843536,9.74505,0.565314,-0.14,0,-0.07,-30.1082,-38.0006,6.88395,1009.96
22358,-0.805277,9.7307,0.594008,0,-0.07,-0.21,-29.2312,-38.4098,7.45396,1010.01
22364,-0.819624,9.71636,0.594008,-0.14,0,-0.14,-29.202,-38.3221,7.13242,1010.01
22370,-0.838754,9.71157,0.61792,0,-0.07,-0.14,-29.1728,-38.7021,7.42473,1010
22376,-0.824406,9.74983,0.589226,0.07,-0.14,-0.14,-29.8158,-38.6437,8.3309,1010
22382,-0.862666,9.74505,0.565314,-0.07,0,-0.07,-30.1959,-38.9068,6.82549,1009.98
22388,-0.833971,9.74983,0.594008,0,-0.14,-0.14,-29.4651,-38.2637,8.55013,1009.98
22394,-0.819624,9.69723,0.59879,0,0,0,-29.582,-38.4975,7.04472,1009.98
22400,-0.853101,9.73549,0.589226,0.07,-0.07,-0.07,-29.6112,-38.2344,7.76089,1010.02
22406,-0.843536,9.74505,0.579661,0.14,-0.07,-0.07,-30.0205,-38.4975,7.23473,1010.02
22412,-0.833971,9.7307,0.584443,0,-0.07,0,-29.7281,-38.7314,8.36013,1009.99
22418,-0.843536,9.71157,0.589226,0.07,0,0.07,-29.582,-38.4683,6.56241,1009.99
22424,-0.819624,9.73549,0.603573,-0.07,0.07,0,-29.3481,-38.176,7.83397,1010.01
22430,-0.838754,9.72114,0.594008,0,0,0,-29.3189,-37.9129,8.12628,1010.01
22436,-0.814842,9.72592,0.603573,0.14,0,0.07,-28.7928,-38.1175,7.42473,1009.99
22442,-0.814842,9.74027,0.608355,0.07,0,0,-29.0851,-38.176,7.04472,1009.99
22448,-0.819624,9.72114,0.622702,-0.07,0,0.07,-29.582,-38.7898,6.48933,1009.99
22454,-0.829189,9.72114,0.61792,0.07,-0.07,0,-29.5528,-38.3514,7.87781,1009.97
22460,-0.829189,9.72592,0.589226,0.07,0.14,0.14,-28.9389,-38.2344,8.76937,1009.97
22466,-0.829189,9.76418,0.59879,0.14,0,0.14,-28.5881,-37.9714,7.22011,1009.97
22472,-0.829189,9.72592,0.589226,0.07,0,0.21,-29.6112,-38.4975,7.2055,1009.97
22478,-0.824406,9.73549,0.613138,0.07,0,0.07,-29.2605,-38.5852,8.25782,1009.98
22484,-0.843536,9.72114,0.627485,0.07,0,0.07,-29.202,-37.2113,7.48319,1009.98
22490,-0.819624,9.74027,0.603573,0.14,0,0.07,-28.9974,-38.0298,7.19088,1009.97
22496,-0.805277,9.74983,0.594008,0.14,0.07,0.07,-28.9097,-37.5621,7.79012,1009.97
22502,-0.795712,9.76896,0.574878,0.14,0.14,0.21,-29.3481,-38.1175,7.03011,1009.97
22508,-0.824406,9.72592,0.594008,0,0,0.07,-29.2312,-38.2052,8.40398,1010
22514,-0.838754,9.74027,0.574878,0.07,0,0.07,-29.3189,-37.3283,7.13242,1010
22520,-0.848318,9.7307,0.594008,0.07,-0.07,0.07,-29.1728,-38.4975,8.31628,1010
22526,-0.843536,9.74027,0.589226,-0.07,0.07,0,-29.4651,-37.9714,8.60859,1010
22532,-0.843536,9.72592,0.594008,0,0,0.07,-30.4589,-37.6498,8.12628,1009.99
22538,-0.838754,9.70201,0.61792,0.07,-0.07,0.14,-29.5235,-38.2052,7.22011,1009.99
22544,-0.814842,9.71636,0.59879,0.07,-0.07,0.07,-30.1666,-38.059,7.52704,1009.97
22550,-0.824406,9.73549,0.574878,0.14,0.07,0,-30.3128,-38.7021,7.43935,1009.97
22556,-0.838754,9.74505,0.59879,0,0,0,-29.4651,-38.6437,7.16165,1009.96
22562,-0.862666,9.72592,0.594008,-0.07,0.14,0,-29.3481,-38.2929,7.46858,1009.96
22568,-0.79093,9.7307,0.594008,0.14,0,0,-29.7866,-38.5852,7.81935,1009.96
22574,-0.833971,9.74027,0.613138,0.14,0.07,0,-29.962,-38.3806,6.57702,1009.97
22580,-0.853101,9.73549,0.584443,0.07,-0.07,0,-29.8158,-38.936,6.98626,1009.97
22586,-0.824406,9.7307,0.579661,0,0.07,0,-29.2605,-39.1991,7.23473,1009.99
22592,-0.848318,9.71636,0.622702,0,0,0,-29.4358,-38.556,7.67319,1009.99
22598,-0.829189,9.70201,0.627485,0.14,0.07,0,-29.6697,-38.8483,7.54165,1009.98
22604,-0.805277,9.74027,0.594008,0.21,-0.07,0.07,-29.962,-37.9129,8.65244,1009.98
22610,-0.814842,9.76418,0.579661,0.21,0.07,0,-30.6051,-37.9129,6.54779,1009.98
22616,-0.800494,9.79287,0.579661,0.14,-0.14,-0.07,-29.9328,-38.7314,8.02397,1009.98
22622,-0.814842,9.78331,0.579661,-0.28,0.07,-0.14,-29.4066,-38.7898,7.68781,1009.98
22628,-0.767018,9.78331,0.560531,-0.35,0.07,-0.21,-30.0789,-37.9421,7.23473,1010
22634,-0.915272,9.69723,0.660962,-0.7,0.49,-0.14,-29.962,-38.8775,7.19088,1010
22640,-0.920054,9.5681,0.770957,-0.14,-0.35,-0.21,-30.0497,-39.0237,6.89857,1009.96
22646,-0.743106,9.77853,0.536619,0.35,0,-0.14,-29.6697,-38.7898,7.35165,1009.96
22652,-0.848318,9.83592,0.512707,0.07,0.21,-0.14,-29.4358,-38.4391,7.71704,1010.02
22658,-0.853101,9.71636,0.608355,-0.63,-0.14,-0.14,-29.2897,-39.0237,6.97165,1010.02
22664,-0.79093,9.63984,0.63705,-0.07,-0.14,-0.14,-29.9912,-38.3514,7.3078,1009.99
22670,-0.862666,9.70201,0.622702,0.14,0.14,-0.07,-29.582,-38.6437,7.81935,1009.99
22676,-0.89136,9.76896,0.594008,0.14,-0.14,-0.07,-29.8158,-38.9068,7.67319,1009.99
22682,-0.805277,9.73549,0.589226,-0.21,-0.07,0,-29.3481,-38.7606,7.00088,1009.98
22688,-0.810059,9.69244,0.632267,0,0.14,0,-30.1374,-38.7021,6.76703,1009.98
22694,-0.87223,9.71157,0.632267,0.14,-0.07,0.07,-30.0789,-38.2052,7.5855,1010.01
22700,-0.829189,9.75461,0.594008,0.07,-0.07,0,-29.202,-39.0821,7.01549,1010.01
22706,-0.824406,9.74027,0.608355,0.14,0.07,0.07,-29.4943,-39.1991,6.94241,1009.97
22712,-0.848318,9.74505,0.574878,0.07,-0.07,0.07,-29.5235,-38.8191,7.65858,1009.97
22718,-0.814842,9.77374,0.589226,0,-0.07,0.14,-28.9681,-38.8483,8.63783,1009.95
22724,-0.853101,9.69723,0.63705,0.07,0,0.14,-29.2312,-38.176,7.92166,1009.95
22730,-0.848318,9.70679,0.622702,0.14,-0.14,0.14,-29.1143,-38.4391,8.14089,1010.02
22736,-0.824406,9.7307,0.608355,0.21,0.07,0.14,-29.0851,-38.0006,8.66706,1010.02
22742,-0.853101,9.74983,0.589226,0.14,-0.07,0.14,-29.4066,-39.1406,7.51242,1010.02
22748,-0.824406,9.73549,0.622702,0.14,0,0.21,-30.1082,-39.1114,7.26396,1009.98
22754,-0.833971,9.76896,0.61792,0.14,0,0.14,-30.1666,-38.8483,6.86934,1009.98
22760,-0.848318,9.70679,0.613138,0.07,0.07,0.21,-28.8512,-38.2929,6.91318,1010.02
22766,-0.843536,9.72114,0.627485,0.21,-0.07,0.07,-29.1728,-40.3099,5.96317,1010.02
22772,-0.843536,9.73549,0.603573,0.14,0.07,0.14,-29.6112,-38.2637,7.2055,1009.97
22778,-0.829189,9.70679,0.608355,0.14,-0.07,0.14,-30.0205,-37.7375,7.19088,1009.97
22784,-0.829189,9.72592,0.594008,0.21,0,0.14,-30.4005,-38.9652,6.70856,1009.97
22790,-0.857883,9.74983,0.603573,0.21,-0.07,0.14,-29.962,-38.3221,7.8632,1009.97
22796,-0.833971,9.7307,0.613138,0,0,0.14,-29.9912,-38.3514,6.56241,1009.97
22802,-0.843536,9.71157,0.61792,0.21,0.07,0.14,-29.6112,-38.1175,7.46858,1009.99
22808,-0.833971,9.72114,0.565314,0.14,-0.07,0.14,-29.6989,-38.4098,7.70243,1009.99
22814,-0.833971,9.71157,0.608355,0.14,0.07,0.21,-29.7866,-38.176,7.23473,1009.98
22820,-0.838754,9.71157,0.622702,0.35,-0.14,0.14,-29.3774,-38.2052,6.4601,1009.98
22826,-0.800494,9.7594,0.589226,0.28,0.07,0.14,-30.0789,-38.2052,6.53318,1009.97
22832,-0.843536,9.7307,0.589226,-0.07,0.07,0.07,-29.8451,-38.3806,7.62935,1009.97
22838,-0.862666,9.70679,0.61792,0,-0.14,0.14,-29.4651,-38.2344,8.3309,1009.97
22844,-0.805277,9.74027,0.59879,0.21,0.14,0.07,-29.9912,-38.3221,7.74627,1009.97
22850,-0.87223,9.79287,0.589226,0.07,0.14,0.14,-28.822,-38.2344,7.62935,1010
22856,-0.833971,9.71157,0.641832,0,-0.07,0.21,-29.3189,-38.3221,8.97398,1010
22862,-0.814842,9.70201,0.627485,0.28,0.07,0.14,-30.5759,-38.7021,6.94241,1010
22868,-0.843536,9.76896,0.574878,0.21,0.07,0.07,-29.6112,-37.8837,7.90704,1010.01
22874,-0.824406,9.76896,0.565314,-0.07,0.07,0.14,-30.2543,-38.4683,8.84244,1010.01
22880,-0.819624,9.7307,0.613138,0,0,0.07,-29.6989,-38.4683,8.87168,1010
22886,-0.838754,9.68766,0.63705,0.07,0.14,0.14,-29.5235,-38.2929,7.36627,1010
22892,-0.848318,9.71636,0.622702,0.21,0,0.14,-30.1959,-38.7021,7.07396,1010.01
22898,-0.819624,9.80722,0.570096,0.14,0,0.07,-29.2605,-39.3745,8.30167,1010.01
22904,-0.819624,9.78809,0.565314,-0.14,0.14,0.07,-29.6989,-38.4683,7.17626,1009.98
22910,-0.857883,9.70201,0.646614,-0.07,0,0.07,-30.1374,-39.0237,7.08857,1009.98
22916,-0.829189,9.66853,0.651397,0.21,-0.07,0.14,-29.6989,-37.7375,7.16165,1009.98
22922,-0.848318,9.74505,0.584443,0.21,0,0.21,-29.8451,-38.7606,6.54779,1010
22928,-0.843536,9.76418,0.59879,0.07,0.07,0.14,-29.7574,-38.1467,7.8632,1010
22934,-0.829189,9.70201,0.59879,0.07,-0.07,0.07,-29.7574,-39.0821,8.11166,1009.99
22940,-0.838754,9.69723,0.613138,0.07,0.07,0.21,-30.2251,-37.5913,7.35165,1009.99
22946,-0.862666,9.76418,0.608355,0.28,-0.14,0.14,-29.582,-38.556,8.03858,1009.97
22952,-0.838754,9.72592,0.574878,0.21,0,0.14,-29.2897,-38.1467,6.57702,1009.97
22958,-0.848318,9.73549,0.59879,0.07,-0.07,0.21,-28.9389,-38.5267,5.59778,1009.98
22964,-0.829189,9.69723,0.61792,0.14,-0.07,0.14,-29.4358,-38.059,8.49167,1009.98
22970,-0.829189,9.74027,0.603573,0.28,-0.28,-0.07,-30.8097,-37.9421,8.38936,1009.98
22976,-0.781365,9.74983,0.570096,0.07,0.14,0.07,-29.9912,-38.0298,7.90704,1010
22982,-0.877013,9.70201,0.608355,0.21,-0.07,0.07,-29.9035,-37.7667,7.45396,1010
22988,-0.819624,9.71636,0.59879,0.21,-0.07,0.14,-29.7574,-37.9421,7.01549,1009.99
22994,-0.819624,9.73549,0.584443,0.14,0.07,0.14,-30.1959,-37.9129,6.25548,1009.99
23000,-0.867448,9.75461,0.594008,0,-0.07,0.07,-29.5528,-38.4391,7.35165,1009.97
23006,-0.800494,9.73549,0.570096,0,0.14,0.07,-30.0789,-38.4098,6.85472,1009.97
23012,-0.843536,9.72114,0.622702,-0.07,-0.07,0.14,-29.8743,-38.1467,6.57702,1010.02
23018,-0.857883,9.72114,0.603573,0.07,0,0.14,-29.8451,-38.5267,7.48319,1010.02
23024,-0.853101,9.7594,0.594008,0.14,0,0.07,-29.2897,-38.1175,7.03011,1009.99
23030,-0.838754,9.73549,0.589226,0.07,0.21,0.14,-29.6697,-37.7375,8.46244,1009.99
23036,-0.853101,9.71636,0.61792,0,0,0.14,-29.9328,-37.6498,7.76089,1009.99
23042,-0.819624,9.72592,0.613138,0.14,0.07,0.07,-29.4943,-38.6144,7.26396,1010.01
23048,-0.833971,9.7307,0.613138,0,0.07,0.07,-30.4882,-38.4098,7.60012,1010.01
23054,-0.862666,9.71636,0.61792,0,0,0.07,-29.7281,-38.5267,8.11166,1009.99
23060,-0.829189,9.73549,0.608355,0.14,0,0.14,-30.4882,-39.316,7.8632,1009.99
23066,-0.838754,9.7307,0.622702,0.14,0.07,0.07,-30.0497,-38.5267,7.32242,1009.98
23072,-0.810059,9.79287,0.541402,0.07,0.28,0.07,-30.2835,-37.7667,7.67319,1009.98
23078,-0.843536,9.74983,0.589226,-0.21,0.14,0,-29.1143,-37.5037,7.74627,1009.96
23084,-0.843536,9.72114,0.622702,0,0,0,-29.4066,-37.7667,8.12628,1009.96
23090,-0.819624,9.74983,0.565314,0.07,0,0,-29.9035,-38.059,7.16165,1009.96
23096,-0.795712,9.73549,0.589226,-0.14,0.07,-0.07,-29.4943,-38.2344,7.49781,1009.98
23102,-0.853101,9.7307,0.594008,-0.21,0,-0.07,-29.5235,-38.1175,6.62087,1009.98
23108,-0.824406,9.74027,0.584443,-0.14,0.14,-0.07,-30.4297,-38.4975,6.4601,1009.96
23114,-0.853101,9.71636,0.603573,-0.21,0.07,-0.07,-29.7281,-38.2929,6.16779,1009.96
23120,-0.814842,9.70679,0.608355,0.07,-0.07,-0.07,-29.4943,-37.4744,6.89857,1009.96
23126,-0.819624,9.75461,0.584443,0,0,-0.07,-29.4066,-37.8544,5.91932,1009.96
23132,-0.843536,9.72592,0.608355,-0.07,0.07,-0.07,-29.7281,-37.8252,7.8632,1009.98
23138,-0.814842,9.74983,0.574878,-0.07,0,-0.21,-28.9681,-38.059,7.57089,1009.98
23144,-0.824406,9.78331,0.574878,-0.35,0.28,-0.21,-30.1959,-37.9421,8.65244,1009.98
23150,-0.857883,9.73549,0.622702,-0.42,0.07,-0.21,-30.2543,-38.2052,7.17626,1010.01
23156,-0.833971,9.68288,0.632267,-0.28,0.07,-0.21,-30.3128,-38.4683,7.10319,1010.01
23162,-0.848318,9.71636,0.627485,0.07,-0.07,-0.21,-29.9912,-38.556,6.7378,1009.99
23168,-0.824406,9.76896,0.574878,-0.07,0.07,-0.21,-29.8743,-38.176,6.63549,1009.99
23174,-0.833971,9.7307,0.603573,-0.28,0.07,-0.14,-30.0205,-38.5267,7.64396,1009.96
23180,-0.843536,9.70679,0.646614,0,0.07,-0.07,-30.0205,-37.9714,7.60012,1009.96
23186,-0.853101,9.73549,0.59879,0.14,0,0,-29.4943,-38.5852,7.68781,1010
23192,-0.833971,9.7594,0.570096,0,0.07,-0.07,-29.4358,-38.1175,8.18474,1010
23198,-0.819624,9.74983,0.570096,-0.07,-0.07,-0.21,-29.2312,-37.7667,8.2432,1010.01
23204,-0.819624,9.76418,0.59879,-0.07,0.07,-0.28,-29.4943,-38.2344,7.14703,1010.01
23210,-0.829189,9.77374,0.59879,-0.28,-0.07,-0.35,-29.9035,-38.0298,7.29319,1010.01
23216,-0.829189,9.69723,0.603573,-0.35,0,-0.35,-30.2251,-38.3221,6.63549,1009.97
23222,-0.805277,9.74983,0.594008,-0.14,-0.14,-0.42,-29.7866,-38.3806,7.36627,1009.97
23228,-0.862666,9.7307,0.641832,-0.21,0,-0.35,-30.1082,-38.3514,7.10319,1009.97
23234,-0.867448,9.75461,0.59879,-0.14,-0.21,-0.35,-29.8451,-38.3221,6.79626,1009.97
23240,-0.829189,9.77374,0.613138,-0.21,-0.14,-0.35,-29.962,-38.0298,7.7755,1009.99
23246,-0.853101,9.7307,0.627485,-0.35,0.07,-0.35,-30.0789,-38.2344,7.2055,1009.99
23252,-0.848318,9.66853,0.641832,-0.28,-0.07,-0.28,-30.4589,-38.059,7.00088,1010.02
23258,-0.838754,9.72592,0.59879,-0.07,0.14,-0.07,-28.9974,-37.7667,8.19936,1010.02
23264,-0.886578,9.70201,0.641832,-0.14,0,-0.14,-30.3128,-38.556,7.41011,1010.02
23270,-0.829189,9.7594,0.570096,0,-0.14,-0.07,-30.2251,-37.7083,6.7378,1009.98
23276,-0.800494,9.76896,0.584443,-0.21,0.14,0,-29.9328,-38.3221,7.41011,1009.98
23282,-0.877013,9.69244,0.651397,-0.14,0,0,-30.1959,-38.2052,7.74627,1009.95
23288,-0.848318,9.69723,0.584443,0,0.07,0.14,-30.1374,-38.2052,7.2055,1009.95
23294,-0.87223,9.74505,0.59879,0,0.14,0.14,-28.9097,-37.9714,8.0532,1009.99
23300,-0.862666,9.74027,0.622702,-0.14,0.07,0.14,-29.7281,-38.2637,7.3955,1009.99
23306,-0.805277,9.72592,0.613138,-0.07,0,0.21,-29.1435,-37.5037,7.68781,1009.97
23312,-0.853101,9.71157,0.61792,0.07,0.35,0.14,-29.4943,-38.2929,7.89243,1009.97
23318,-0.838754,9.74027,0.603573,0,0.14,0.21,-30.1666,-38.2637,8.44782,1010
23324,-0.848318,9.74983,0.608355,-0.14,0.28,0.21,-29.582,-38.6144,7.73166,1010
23330,-0.833971,9.70201,0.646614,-0.07,0.14,0.21,-30.4005,-38.6437,7.87781,1010
23336,-0.833971,9.72592,0.63705,0,0.28,0.21,-29.1143,-38.2344,8.46244,1010.03
23342,-0.881795,9.72114,0.665744,0.07,0.14,0.28,-29.8743,-38.2052,8.00935,1010.03
23348,-0.824406,9.7307,0.603573,0.14,0.07,0.28,-30.4005,-38.6437,7.16165,1010
23354,-0.853101,9.72114,0.608355,0.21,0.07,0.21,-29.9035,-38.6729,8.08243,1010
23360,-0.848318,9.74027,0.613138,0.21,-0.07,0.35,-29.9328,-38.4391,7.10319,1010
23366,-0.848318,9.71157,0.608355,0.28,0,0.28,-29.7866,-38.4098,7.3955,1010
23372,-0.853101,9.74983,0.589226,0.21,-0.07,0.21,-29.7281,-38.4683,6.70856,1010
23378,-0.857883,9.7307,0.613138,0.21,0,0.14,-31.3651,-39.1698,7.19088,1010
23384,-0.838754,9.72114,0.608355,0.21,0.14,0.28,-30.4005,-37.7667,6.9278,1010
23390,-0.877013,9.71636,0.61792,0.28,0,0.42,-30.3128,-38.0006,7.81935,1009.99
23396,-0.838754,9.74505,0.59879,0.28,-0.14,0.35,-29.1728,-38.7021,6.81087,1009.99
23402,-0.853101,9.7307,0.603573,0.21,0.21,0.35,-29.5528,-38.2637,6.79626,1009.98
23408,-0.848318,9.7307,0.613138,0.21,-0.07,0.28,-29.9912,-37.9714,7.64396,1009.98
23414,-0.838754,9.71157,0.61792,0.28,-0.07,0.35,-29.202,-37.9421,7.70243,1009.99
23420,-0.848318,9.71157,0.61792,0.35,-0.07,0.42,-29.962,-38.2929,8.40398,1009.99
23426,-0.838754,9.76418,0.613138,0.28,0,0.35,-29.8158,-37.679,7.38088,1009.97
23432,-0.800494,9.68766,0.61792,0.28,-0.07,0.42,-30.2543,-38.1175,7.54165,1009.97
23438,-0.881795,9.68288,0.651397,0.56,0,0.28,-29.9035,-38.2637,7.83397,1009.97
23444,-0.857883,9.72592,0.61792,0.63,-0.14,0.35,-30.7805,-37.7375,7.01549,1009.96
23450,-0.848318,9.70679,0.613138,0.56,0,0.49,-30.0205,-38.6437,7.29319,1009.96
23456,-0.862666,9.71636,0.594008,0.63,-0.14,0.49,-29.2897,-38.2052,7.79012,1009.95
23462,-0.862666,9.74505,0.603573,0.63,-0.07,0.42,-29.962,-38.5852,6.24087,1009.95
23468,-0.857883,9.71636,0.608355,0.7,-0.07,0.35,-29.0266,-38.4975,7.62935,1009.97
23474,-0.843536,9.72592,0.59879,0.7,-0.21,0.56,-29.1143,-38.1175,7.43935,1009.97
23480,-0.833971,9.74027,0.603573,0.77,-0.14,0.49,-30.1666,-38.3514,7.48319,1009.98
23486,-0.824406,9.7594,0.584443,0.56,-0.21,0.35,-29.962,-38.0298,6.95703,1009.98
23492,-0.829189,9.74983,0.613138,0.42,-0.14,0.49,-30.0789,-38.0298,6.89857,1009.98
23498,-0.833971,9.71157,0.622702,0.56,-0.14,0.49,-29.6989,-38.7021,7.3955,1009.98
23504,-0.848318,9.70679,0.622702,0.63,-0.14,0.49,-30.0789,-38.936,7.43935,1009.98
23510,-0.853101,9.71636,0.613138,0.42,-0.07,0.42,-29.9035,-38.0883,7.7755,1010
23516,-0.833971,9.71157,0.622702,0.49,-0.14,0.42,-30.0497,-37.7083,8.22859,1010
23522,-0.838754,9.72114,0.589226,0.7,-0.07,0.42,-29.7866,-38.1175,7.65858,1009.97
23528,-0.824406,9.76418,0.574878,0.63,-0.21,0.35,-29.9328,-38.0883,7.33704,1009.97
23534,-0.805277,9.81679,0.536619,0.35,-0.14,0.21,-29.3481,-38.2052,7.10319,1009.98
23540,-0.824406,9.76418,0.560531,0,-0.14,0.14,-29.7281,-37.9421,7.36627,1009.98
23546,-0.843536,9.65897,0.656179,0.14,-0.07,0.28,-29.8158,-37.8544,7.05934,1009.97
23552,-0.838754,9.71157,0.641832,0.49,-0.28,0.21,-29.8451,-37.5621,8.2432,1009.97
23558,-0.800494,9.78809,0.584443,0.42,-0.14,0.21,-29.0558,-38.0006,7.80474,1009.97
23564,-0.824406,9.7594,0.584443,0.28,-0.21,0.14,-29.6405,-38.5267,7.48319,1009.98
23570,-0.814842,9.71636,0.603573,0.07,0,0.07,-29.9328,-37.5329,7.70243,1009.98
23576,-0.824406,9.73549,0.594008,0.28,-0.07,0.14,-30.2251,-38.2052,7.38088,1009.96
23582,-0.829189,9.74027,0.560531,0.14,0.07,0.21,-31.4236,-39.8422,7.7755,1009.96
23588,-0.814842,9.7594,0.565314,0.14,-0.07,0.14,-29.9912,-37.8837,6.67933,1010.01
23594,-0.800494,9.74027,0.589226,0.14,0,0.07,-29.7574,-38.4098,7.98012,1010.01
23600,-0.838754,9.69244,0.59879,0.14,-0.07,0.21,-30.3128,-37.7667,7.36627,1010
23606,-0.819624,9.72114,0.603573,0.28,-0.07,0.14,-29.962,-37.796,6.51856,1010
23612,-0.810059,9.77374,0.541402,0.14,0.14,0.21,-29.9035,-37.7667,7.84858,1010
23618,-0.814842,9.74983,0.560531,-0.07,-0.07,0.14,-29.7574,-38.7314,7.38088,1009.99
23624,-0.824406,9.71636,0.608355,-0.07,0.14,0.14,-29.4651,-37.8544,7.27857,1009.99
23630,-0.829189,9.74027,0.579661,0.07,0,0.14,-30.4589,-37.5913,7.93628,1009.99
23636,-0.829189,9.74027,0.574878,-0.07,0.14,0.07,-29.7866,-38.6729,7.93628,1009.99
23642,-0.833971,9.73549,0.59879,-0.07,0.07,0.07,-30.2835,-38.1467,7.35165,1010
23648,-0.819624,9.74505,0.579661,0,0.07,0.07,-30.0497,-37.8837,6.88395,1010
23654,-0.819624,9.77374,0.570096,-0.07,0.21,0.07,-30.2543,-38.7021,8.15551,1010
23660,-0.829189,9.74027,0.589226,-0.35,0.21,0.07,-30.2543,-38.4975,7.51242,1010
23666,-0.814842,9.73549,0.594008,-0.21,0.21,0.07,-30.8682,-38.2929,7.98012,1010.01
23672,-0.819624,9.74027,0.584443,-0.14,0.35,0.07,-30.2835,-37.4452,7.54165,1010.01
23678,-0.814842,9.72592,0.613138,-0.21,0.28,0,-29.582,-38.1175,6.97165,1010.01
23684,-0.810059,9.7307,0.594008,-0.14,0.14,-0.14,-31.5989,-38.5852,6.31394,1010
23690,-0.800494,9.76896,0.589226,-0.21,0.42,0,-30.1082,-38.0006,7.03011,1010
23696,-0.853101,9.7307,0.594008,-0.42,0.14,0,-29.4066,-38.3806,7.61473,1009.95
23702,-0.805277,9.74027,0.584443,-0.28,0.07,-0.07,-29.2897,-38.0883,7.10319,1009.95
23708,-0.805277,9.69244,0.584443,-0.14,0.28,0,-30.1082,-38.8191,8.28705,1009.96
23714,-0.833971,9.75461,0.603573,-0.21,0.14,-0.14,-29.7866,-38.2344,7.79012,1009.96
23720,-0.819624,9.74027,0.579661,-0.28,0.14,-0.07,-30.3128,-37.299,7.54165,1009.99
23726,-0.829189,9.72114,0.565314,-0.21,0.28,-0.07,-30.1959,-37.796,7.74627,1009.99
23732,-0.843536,9.71636,0.589226,-0.21,0.14,-0.14,-30.4005,-39.0237,6.79626,1009.99
23738,-0.79093,9.77853,0.574878,-0.28,0.28,0.07,-29.5235,-38.4391,6.97165,1010.01
23744,-0.824406,9.74505,0.541402,-0.35,0.28,-0.07,-30.2251,-37.8544,8.15551,1010.01
23750,-0.829189,9.70201,0.570096,-0.28,0.28,0,-29.6989,-38.1467,8.14089,1009.97
23756,-0.795712,9.74983,0.584443,-0.28,0.28,-0.07,-29.6405,-38.176,8.08243,1009.97
23762,-0.833971,9.74983,0.574878,-0.42,0.49,0.07,-29.2605,-37.679,7.93628,1009.95
23768,-0.833971,9.75461,0.560531,-0.49,0.49,0.14,-29.3774,-38.0006,8.06782,1009.95
23774,-0.776582,9.73549,0.555749,-0.7,0.77,0.28,-29.5235,-37.8252,7.57089,1010.01
23780,-0.7718,9.76418,0.584443,-0.56,0.84,0.28,-29.3189,-38.059,7.43935,1010.01
23786,-0.814842,9.70679,0.622702,-0.7,0.84,0.21,-31.0728,-39.0821,7.16165,1009.94
23792,-0.810059,9.69723,0.651397,-0.49,0.84,0.28,-29.3189,-38.059,7.24934,1009.94
23798,-0.79093,9.69244,0.622702,-0.21,0.7,0.28,-29.4943,-38.2052,7.60012,1009.94
23804,-0.805277,9.74027,0.603573,-0.07,0.56,0.14,-29.8743,-37.6498,7.03011,1009.95
23810,-0.838754,9.72592,0.594008,-0.21,0.49,0.07,-29.2312,-37.8837,7.60012,1009.95
23816,-0.833971,9.71636,0.613138,-0.21,0.21,0.21,-29.5528,-38.7021,8.41859,1009.98
23822,-0.795712,9.70201,0.613138,-0.07,0.35,0.07,-30.0497,-38.3514,8.34551,1009.98
23828,-0.814842,9.72114,0.603573,0,0.35,0.07,-30.3712,-38.3221,8.7986,1010
23834,-0.829189,9.74983,0.594008,-0.14,0.28,0,-29.7281,-38.4098,7.90704,1010
23840,-0.829189,9.71157,0.627485,-0.14,0.35,0.14,-30.2251,-38.2929,8.17013,1010.03
23846,-0.824406,9.69723,0.632267,0.21,0.21,0.07,-29.8158,-38.0883,7.87781,1010.03
23852,-0.862666,9.72114,0.627485,0.21,-0.28,0.07,-28.9974,-37.299,7.54165,1010.03
23858,-0.795712,9.68288,0.627485,0.28,-0.14,0,-29.5528,-38.2344,7.43935,1009.98
23864,-0.853101,9.66853,0.632267,0.7,-0.21,0,-29.0558,-37.6498,7.24934,1009.98
23870,-0.867448,9.70679,0.622702,0.7,-0.28,0,-29.5235,-38.0883,6.91318,1009.97
23876,-0.776582,9.71157,0.627485,0.56,-0.49,-0.14,-28.8512,-38.2052,7.52704,1009.97
23882,-0.819624,9.64462,0.651397,0.63,-0.35,-0.21,-29.7866,-37.679,6.95703,1009.94
23888,-0.853101,9.65418,0.641832,1.05,-0.63,-0.07,-29.2605,-38.2052,8.03858,1009.94
23894,-0.843536,9.73549,0.574878,1.12,-0.28,0.07,-29.4066,-37.5037,7.2055,1010.01
23900,-0.829189,9.6781,0.646614,0.98,-0.49,0.14,-29.202,-37.2406,7.3955,1010.01
23906,-0.767018,9.6781,0.61792,1.19,-0.49,0.07,-29.9912,-37.3575,7.64396,1010.01
23912,-0.862666,9.72592,0.61792,1.33,-0.49,0.14,-28.9389,-37.8252,7.65858,1009.97
23918,-0.819624,9.72592,0.570096,1.19,-0.63,0.07,-29.582,-38.2637,7.51242,1009.97
23924,-0.757453,9.7594,0.546184,1.12,-0.7,0,-29.7574,-38.2637,8.97398,1010
23930,-0.79093,9.78809,0.522272,0.91,-0.42,0.07,-30.1374,-38.5852,7.52704,1010
23936,-0.819624,9.76418,0.550966,0.63,-0.7,-0.14,-29.3189,-37.8544,7.64396,1009.96
23942,-0.800494,9.73549,0.589226,0.42,-0.56,-0.07,-30.1082,-38.4683,6.19702,1009.96
23948,-0.810059,9.72592,0.541402,0.56,-0.56,-0.14,-29.7866,-37.2113,6.76703,1009.98
23954,-0.829189,9.71636,0.579661,0.49,-0.42,-0.07,-29.3189,-38.2344,7.32242,1009.98
23960,-0.795712,9.72114,0.522272,0.42,-0.42,-0.14,-29.582,-38.176,7.51242,1009.98
23966,-0.767018,9.78331,0.503142,0.28,-0.07,0,-29.1728,-38.3221,7.49781,1009.98
23972,-0.857883,9.74505,0.546184,-0.14,-0.28,0,-29.2897,-38.9652,7.04472,1009.98
23978,-0.776582,9.70679,0.560531,-0.28,-0.28,-0.14,-29.1435,-38.5267,7.62935,1010.02
23984,-0.829189,9.74505,0.560531,0.07,-0.14,-0.07,-30.1959,-38.8191,7.81935,1010.02
23990,-0.819624,9.78331,0.560531,-0.07,-0.28,-0.07,-30.0205,-38.5267,7.83397,1009.97
23996,-0.767018,9.7594,0.570096,-0.21,-0.07,-0.21,-29.4358,-38.4391,8.90091,1009.97
24002,-0.795712,9.74983,0.531837,0.07,0.07,-0.14,-29.4358,-38.5852,8.22859,1009.99
24008,-0.800494,9.89809,0.450536,0,0.14,-0.07,-29.4943,-38.7898,7.76089,1009.99
24014,-0.747888,9.8407,0.445754,-1.12,0.21,-0.35,-29.1435,-38.5267,7.60012,1009.99
24020,-0.767018,9.71157,0.536619,-1.26,0.42,-0.28,-28.6758,-38.2052,7.70243,1009.99
24026,-0.79093,9.68766,0.565314,-0.77,0.35,-0.42,-29.7574,-38.3221,6.98626,1009.99
24032,-0.762235,9.80244,0.51749,-0.77,0.49,-0.56,-29.1435,-38.0006,8.28705,1009.98
24038,-0.786147,9.74027,0.565314,-1.26,0.21,-0.77,-29.202,-38.0006,6.97165,1009.98
24044,-0.800494,9.6494,0.594008,-0.98,0.35,-0.7,-28.7051,-38.176,8.49167,1009.98
24050,-0.857883,9.63027,0.665744,-0.63,0.07,-0.7,-29.4651,-37.9421,7.57089,1009.98
24056,-0.843536,9.58245,0.708786,-0.14,0,-0.56,-29.7866,-37.9421,8.50628,1009.99
24062,-0.810059,9.6781,0.594008,0.49,-0.07,-0.56,-29.9328,-37.8544,9.35399,1009.99
24068,-0.800494,9.79287,0.527054,0.42,0.07,-0.35,-29.6405,-38.059,7.96551,1009.98
24074,-0.814842,9.7594,0.51749,0,0,-0.49,-30.1082,-38.4098,8.21397,1009.98
24080,-0.829189,9.72114,0.574878,0,0.14,-0.35,-29.4358,-37.8544,7.87781,1009.98
24086,-0.79093,9.65897,0.613138,0.35,0,-0.42,-30.0789,-37.8252,7.74627,1010
24092,-0.814842,9.74505,0.550966,0.63,0.14,-0.28,-29.6697,-37.5329,7.57089,1010
24098,-0.829189,9.81679,0.555749,0.42,-0.49,-0.35,-29.2312,-38.2637,7.70243,1009.98
24104,-0.695282,9.8407,0.47923,0.21,-0.14,-0.49,-28.3835,-38.556,7.84858,1009.98
24110,-0.786147,9.922,0.412277,-0.14,0.28,-0.56,-29.582,-37.7667,8.88629,1009.97
24116,-0.857883,9.97461,0.450536,-0.77,0.21,-0.49,-28.9389,-38.4391,8.37474,1009.97
24122,-0.728758,9.86461,0.493578,-1.4,0.14,-0.49,-29.582,-38.7606,7.00088,1009.98
24128,-0.786147,9.77374,0.550966,-1.33,0.63,-0.42,-29.6697,-37.9129,8.3309,1009.98
24134,-0.843536,9.86939,0.493578,-1.05,0.35,-0.49,-29.5528,-38.2344,7.92166,1009.99
24140,-0.762235,9.92678,0.412277,-1.75,0.35,-0.56,-29.4066,-38.9068,7.04472,1009.99
24146,-0.814842,9.86939,0.47923,-2.1,0.56,-0.7,-29.202,-38.3806,7.73166,1009.99
24152,-0.833971,9.77853,0.546184,-2.17,0.14,-0.77,-29.4066,-38.2344,7.67319,1009.99
24158,-0.800494,9.77374,0.565314,-2.17,0.14,-0.91,-29.202,-38.4975,8.94475,1009.99
24164,-0.848318,9.77374,0.584443,-1.75,-0.14,-0.84,-29.7281,-38.6144,8.57936,1009.98
24170,-0.757453,9.82157,0.503142,-1.75,-0.42,-1.12,-30.5466,-38.7606,7.64396,1009.98
24176,-0.762235,9.93156,0.460101,-2.52,0,-1.19,-29.5528,-38.2637,8.60859,1009.97
24182,-0.867448,9.74983,0.59879,-2.8,-0.21,-1.19,-29.962,-38.4683,7.92166,1009.97
24188,-0.819624,9.63984,0.675309,-2.1,-0.63,-1.33,-29.8743,-38.2637,7.61473,1009.98
24194,-0.747888,9.76418,0.565314,-1.61,-0.49,-1.33,-29.8743,-38.4391,7.01549,1009.98
24200,-0.7718,9.89809,0.484013,-2.31,-0.28,-1.54,-29.3189,-38.2929,8.49167,1009.98
24206,-0.7718,9.77853,0.522272,-2.59,-0.28,-1.54,-29.7281,-37.7667,6.85472,1009.99
24212,-0.824406,9.6781,0.627485,-2.38,-0.14,-1.47,-28.822,-38.1467,7.73166,1009.99
24218,-0.886578,9.66853,0.63705,-1.96,-0.35,-1.4,-29.8451,-38.0006,8.08243,1010.01
24224,-0.862666,9.73549,0.589226,-1.54,-0.35,-1.19,-29.6697,-38.4098,7.62935,1010.01
24230,-0.79093,9.76896,0.536619,-1.54,-0.42,-1.12,-30.1374,-37.6498,7.19088,1009.95
24236,-0.805277,9.7594,0.550966,-1.82,0,-1.12,-29.6112,-37.7375,7.5855,1009.95
24242,-0.877013,9.76896,0.608355,-2.03,-0.28,-1.05,-29.3774,-37.796,7.3078,1009.98
24248,-0.857883,9.58245,0.71835,-1.75,-0.49,-0.98,-30.6343,-38.059,6.88395,1009.98
24254,-0.853101,9.55375,0.766174,-1.12,-0.49,-0.91,-29.4358,-39.2868,7.48319,1009.97
24260,-0.886578,9.69244,0.660962,-0.49,-0.35,-0.77,-29.4943,-38.8483,7.16165,1009.97
24266,-0.833971,9.75461,0.579661,-0.49,-0.35,-0.63,-29.6989,-38.2637,8.0532,1009.97
24272,-0.853101,9.75461,0.608355,-1.12,0,-0.63,-29.3481,-38.059,6.6501,1009.98
24278,-0.867448,9.65897,0.63705,-0.63,-0.21,-0.49,-29.4943,-38.059,7.14703,1009.98
24284,-0.843536,9.71636,0.579661,-0.49,-0.07,-0.42,-29.8451,-38.0298,7.81935,1009.99
24290,-0.867448,9.81679,0.546184,-0.7,0,-0.42,-29.8743,-38.3806,7.64396,1009.99
24296,-0.877013,9.74983,0.613138,-1.19,0.07,-0.35,-30.0497,-38.9068,7.3078,1010
24302,-0.814842,9.71636,0.608355,-0.7,0.07,-0.35,-30.0789,-38.176,7.24934,1010
24308,-0.800494,9.85983,0.531837,-0.7,0.28,-0.42,-30.342,-37.6206,6.81087,1009.98
24314,-0.853101,9.82157,0.584443,-1.75,0.56,-0.35,-29.4066,-38.6437,8.0532,1009.98
24320,-0.853101,9.66853,0.684874,-1.61,0.42,-0.56,-29.2312,-38.7606,7.96551,1009.98
24326,-0.75267,9.79287,0.603573,-1.05,0.42,-0.84,-29.1728,-38.2052,7.35165,1009.97
24332,-0.781365,9.93156,0.527054,-1.61,0.28,-1.19,-30.0205,-38.4975,7.43935,1009.97
24338,-0.877013,9.78809,0.694438,-2.66,0.14,-1.47,-29.3481,-38.4391,7.23473,1010.01
24344,-0.848318,9.58245,0.761392,-2.1,-0.28,-1.61,-29.6405,-39.4329,7.24934,1010.01
24350,-0.843536,9.68766,0.727915,-0.63,-0.21,-1.82,-29.6405,-38.6729,7.54165,1009.98
24356,-0.824406,9.91243,0.51749,-0.42,-0.42,-1.96,-29.8451,-38.2637,7.84858,1009.98
24362,-0.695282,10.0942,0.307064,-1.96,0,-2.24,-29.8451,-39.0237,8.0532,1009.99
24368,-0.824406,9.97461,0.445754,-3.15,0.56,-2.17,-29.3774,-38.3806,6.95703,1009.99
24374,-0.857883,9.69723,0.689656,-3.15,0.42,-2.17,-29.0266,-38.5267,8.2432,1009.99
24380,-0.79093,9.6781,0.63705,-2.17,0.63,-2.17,-28.9974,-38.2344,8.19936,1009.97
24386,-0.776582,10.0176,0.417059,-2.38,0.98,-2.45,-28.8512,-38.7314,8.43321,1009.97
24392,-0.819624,10.0511,0.393147,-3.57,1.4,-2.31,-29.3189,-39.3452,7.99474,1009.96
24398,-0.829189,9.89809,0.546184,-4.06,1.19,-2.87,-29.4651,-38.8775,6.60626,1009.96
24404,-0.723976,9.82157,0.584443,-3.99,1.47,-3.01,-29.0851,-38.7314,6.6501,1009.99
24410,-0.704846,9.97461,0.541402,-3.57,2.38,-3.22,-30.2543,-38.9944,6.41625,1009.99
24416,-0.786147,9.99374,0.536619,-3.99,2.31,-3.99,-29.7281,-39.2868,6.69395,1009.98
24422,-0.714411,10.0703,0.531837,-3.99,2.24,-4.48,-29.0851,-38.936,7.05934,1009.98
24428,-0.451379,10.0703,0.536619,-4.69,3.29,-5.32,-29.4066,-39.1991,6.37241,1009.98
24434,-0.374861,10.1181,0.584443,-4.97,4.41,-6.51,-29.6112,-39.3745,7.08857,1009.98
24440,-0.810059,9.96504,0.742262,-4.13,5.53,-7.28,-28.8804,-39.1698,8.46244,1009.98
24446,-0.762235,9.93635,1.15833,-3.57,4.69,-8.05,-29.3481,-38.2637,6.97165,1009.95
24452,0.28511,9.81679,1.40223,-0.98,6.51,-10.29,-29.2605,-38.936,7.96551,1009.95
24458,0.433365,9.82635,1.57918,2.73,10.43,-11.83,-28.2666,-38.9068,6.94241,1009.99
24464,-0.240954,10.5294,1.26354,5.53,12.46,-15.4,-29.0851,-38.7898,6.72318,1009.99
24470,0.0985968,10.3476,1.40702,6.58,13.02,-17.78,-28.9097,-38.5852,7.19088,1009.98
24476,0.256416,11.4428,1.47397,15.47,12.6,-27.3,-29.2605,-38.8191,7.33704,1009.98
24482,0.32337,12.098,0.747045,15.89,12.39,-31.43,-28.3543,-39.0529,6.2701,1010
24488,-0.240954,13.0736,0.187504,10.15,10.71,-38.15,-28.822,-38.9652,6.94241,1010
24494,-0.107046,12.8154,0.393147,7.49,7.77,-43.19,-27.7112,-38.7314,5.74393,1010
24500,0.232504,12.8345,0.383582,5.74,5.81,-51.52,-27.8866,-39.7545,6.38702,1009.99
24506,0.242069,13.1166,0.670526,3.78,4.55,-57.19,-28.0327,-39.316,7.95089,1009.99
24512,0.332934,12.7293,0.71835,0,3.22,-64.54,-27.6235,-39.9298,7.74627,1009.98
24518,0.600749,12.3036,0.99573,-2.24,3.71,-68.95,-26.9512,-39.8129,6.47471,1009.98
24524,0.519448,11.4906,1.01964,-0.14,6.44,-74.9,-27.185,-40.2806,7.01549,1009.98
24530,0.0268608,11.548,0.871387,0.35,7.35,-77.42,-26.6004,-40.1637,7.14703,1009.98
24536,-0.0592224,12.648,0.531837,0.35,6.3,-80.64,-25.3435,-40.3391,7.68781,1009.99
24542,0.366411,13.5949,0.24011,-3.15,6.16,-82.53,-25.0804,-40.1345,7.74627,1009.99
24548,0.710744,12.6623,0.0727264,-10.15,8.12,-88.9,-24.7296,-40.9237,7.04472,1009.99
24554,0.041208,12.0406,0.3788,-9.03,9.31,-93.38,-23.8234,-41.6545,7.33704,1010.02
24560,-0.523115,11.6915,0.962253,-5.81,5.46,-99.75,-23.1219,-41.7422,6.56241,1010.02
24566,-0.111829,12.2941,0.675309,-3.01,3.01,-105.35,-22.7127,-41.7129,6.48933,1009.99
24572,0.089032,13.5471,-0.0229216,-4.27,4.06,-109.13,-21.5726,-41.1868,6.70856,1009.99
24578,0.0746848,13.7479,0.0488144,-8.61,1.47,-117.46,-21.6311,-41.6545,6.54779,1010
24584,-0.0257456,14.2501,-0.0181392,-6.93,-1.33,-124.39,-20.5495,-41.4499,6.51856,1010
24590,0.175115,15.5509,-0.687675,-9.52,-7.49,-136.85,-20.0818,-41.6545,6.21163,1009.98
24596,0.466842,16.8134,-1.50547,-15.61,-9.8,-144.13,-18.8249,-42.7653,6.13856,1009.98
24602,0.466842,17.263,-2.1224,-29.26,-9.24,-152.6,-17.948,-42.5899,5.9924,1009.96
24608,-0.0926992,18.6116,-2.45716,-35.77,-10.01,-159.74,-16.9249,-42.7945,5.9924,1009.96
24614,-0.236171,20.1802,-2.78237,-49.77,-16.59,-171.78,-15.9895,-43.5837,5.96317,1009.96
24620,-0.829189,20.2807,-4.17405,-56.42,-20.93,-181.93,-14.2648,-43.5837,6.50395,1009.96
24626,-2.02957,22.1936,-5.09705,-79.17,-26.81,-188.09,-12.1602,-43.6422,5.29085,1009.96
24632,-2.61781,22.2128,-5.08748,-91.07,-26.67,-189.07,-11.4294,-43.8761,4.60392,1010.01
24638,-3.49777,22.9158,-5.15444,-115.29,-33.6,-191.87,-10.2309,-44.4899,4.45776,1010.01
24644,-4.84162,20.6011,-4.18839,-117.46,-30.52,-189.35,-7.92166,-44.0807,3.39082,1009.96
24650,-6.04201,21.9115,-3.32278,-129.71,-50.82,-191.45,-6.66472,-44.8115,2.8062,1009.96
24656,-2.83301,17.8751,-2.98323,-138.88,-50.82,-190.68,-4.61853,-44.373,1.71003,1009.97
24662,-6.16157,14.9292,-0.19987,-107.59,-21.42,-177.1,-3.82929,-44.1391,1.03771,1009.97
24668,-10.4466,17.0047,0.770957,-88.2,-27.37,-167.16,-2.3385,-43.993,0,1009.97
24674,-8.17017,18.736,-1.87371,-80.29,-50.61,-158.69,-0.672318,-43.6714,-1.00848,1009.89
24680,-4.85119,18.7694,-2.8828,-80.5,-43.89,-144.34,0.906168,-43.4084,-0.190003,1009.89
24686,-5.75028,17.9564,-0.429426,-67.06,-31.78,-123.76,3.15697,-43.9053,-3.33236,1010
24692,-5.84114,19.9698,-0.850277,-61.39,-40.32,-115.99,4.79392,-43.0576,-3.37621,1010
24698,-2.61781,20.6776,-3.098,-66.5,-49.7,-108.01,6.19702,-42.6191,-3.4639,1009.96
24704,-0.221824,19.1759,-3.71493,-67.27,-51.17,-101.15,6.60626,-42.1222,-3.20082,1009.96
24710,1.80113,16.4308,-4.04492,-62.44,-55.58,-96.39,7.42473,-41.7422,-4.41391,1009.95
24716,4.40276,15.5939,-5.91006,-59.71,-66.78,-93.17,9.12014,-40.9237,-4.69161,1009.95
24722,5.25881,16.0196,-6.7135,-65.66,-73.78,-94.85,10.6109,-41.5376,-6.86934,1009.95
24728,8.28128,15.1444,-5.36964,-80.15,-82.74,-102.13,12.5402,-40.5729,-7.01549,1009.95
24734,11.3564,13.0927,-3.24626,-80.29,-71.26,-115.43,13.271,-39.0529,-8.30167,1009.95
24740,10.9403,14.6327,-4.41316,-68.67,-60.06,-135.8,15.2295,-38.2929,-9.8363,1009.98
24746,10.4955,12.0741,-9.14296,-84.14,-65.1,-148.82,16.2233,-36.8606,-9.85092,1009.98
24752,4.3358,3.3175,-11.3381,-116.9,-51.59,-142.31,18.0357,-35.6913,-12.3063,1009.93
24758,-9.09796,-8.72458,-8.87993,-122.15,-10.92,-65.17,19.4388,-35.7498,-11.5756,1009.93
24764,-13.1917,-17.1894,2.79869,-82.25,-59.64,57.26,19.6726,-34.1421,-12.4379,1009.95
24770,-1.0444,-14.9274,5.15164,-38.15,-88.76,111.16,20.1111,-34.4636,-13.841,1009.95
24776,7.47306,-15.133,5.69683,63.56,-31.99,174.09,19.848,-34.0836,-14.3818,1010.02
24782,0.328152,-10.9914,5.83074,129.22,-10.5,208.25,19.6141,-33.7913,-13.3733,1010.02
24788,-3.32082,-3.68871,1.24441,170.38,-38.29,254.87,18.6787,-33.879,-15.1418,1010.02
24794,2.08808,-2.64137,-1.10853,183.4,-41.3,281.89,19.1464,-34.2005,-14.3671,1009.95
24800,5.25881,-0.0684352,-2.1224,194.32,-17.43,313.6,18.1234,-34.9021,-13.9579,1009.95
24806,4.44102,1.94974,-1.61068,193.76,-10.57,326.2,17.5387,-35.779,-14.1625,1009.97
24812,5.34489,4.04443,-1.60111,186.41,-8.12,334.46,16.9833,-35.4575,-13.1248,1009.97
24818,6.43528,4.77135,-1.56285,181.02,1.4,335.58,16.6326,-36.2467,-12.7156,1009.94
24824,5.89008,5.72305,-0.831147,172.48,17.64,332.29,14.4987,-36.6559,-10.8594,1009.94
24830,5.23968,6.3352,-0.668546,165.41,23.8,328.72,13.1248,-37.7667,-12.6279,1009.94
24836,5.18707,7.29646,-1.10853,150.43,33.25,321.37,12.5402,-38.2929,-12.1748,1009.94
24842,4.89056,7.72688,-1.19461,138.81,44.1,315.21,11.9848,-38.7606,-11.7363,1009.94
24848,4.15885,8.14773,-0.826365,119,49.63,311.5,10.6402,-39.696,-12.2479,1009.94
24854,3.72844,8.4825,-0.252477,102.62,56.21,307.51,8.44782,-40.6022,-11.0202,1009.94
24860,3.31715,8.46815,0.0153376,92.96,60.13,306.32,8.27244,-40.7483,-10.9617,1009.96
24866,2.52806,8.11425,0.168374,81.62,65.8,306.25,6.57702,-41.2745,-10.5086,1009.96
24872,1.96373,7.82253,0.173157,74.27,65.94,307.16,5.26162,-41.4206,-10.5963,1009.94
24878,1.80113,7.70775,-0.204653,64.54,65.94,307.58,4.1216,-43.2622,-8.68167,1009.94
24884,1.32289,7.32037,0.0296848,59.85,64.47,305.97,1.92926,-42.8237,-10.7571,1009.97
24890,0.988123,6.64127,0.560531,57.89,57.96,299.18,0.526162,-43.5545,-9.77784,1009.97
24896,1.11725,6.24433,0.871387,59.64,53.34,291.48,-0.847705,-43.3207,-8.9886,1009.93
24902,1.30854,5.32611,1.70831,68.81,47.67,274.68,-2.07542,-44.753,-8.17013,1009.93
24908,1.20333,4.90526,2.16742,78.82,43.47,260.96,-4.56007,-44.2268,-8.53552,1009.93
24914,1.11247,4.69005,2.41132,97.16,38.15,238.84,-5.5247,-44.1684,-7.8632,1009.9
24920,0.897258,4.81918,2.46393,109.76,35.35,224.98,-7.48319,-43.6714,-7.89243,1009.9
24926,1.22246,5.51741,2.34437,125.72,32.34,206.29,-8.97398,-44.1391,-6.69395,1009.93
24932,1.60505,6.23955,2.20568,134.75,32.69,195.37,-11.3709,-43.2622,-6.56241,1009.93
24938,1.91591,8.23859,1.78961,142.94,35.14,182.14,-12.0433,-43.9345,-5.59778,1009.92
24944,2.08808,10.0511,1.33528,143.43,37.59,174.58,-13.5048,-43.6714,-4.18006,1009.92
24950,2.25068,12.7293,0.732698,135.59,41.79,163.8,-15.3464,-43.3499,-3.62467,1009.93
24956,2.35111,14.1879,0.493578,126.63,45.43,156.59,-15.9895,-43.9053,-2.96697,1009.93
24962,1.90634,15.9096,0.560531,110.74,51.38,145.04,-17.1295,-42.7068,-2.48465,1009.93
24968,1.40419,16.4834,0.646614,99.89,54.46,137.13,-19.088,-43.1745,-2.07542,1009.93
24974,0.610314,17.1769,0.565314,84.98,58.1,125.23,-20.3449,-41.8591,-0.409237,1009.93
24980,-0.05444,17.5117,0.149245,75.18,60.27,117.67,-21.0172,-42.6483,-1.14002,1009.95
24986,-1.13526,17.593,-0.35769,60.69,59.99,105.91,-21.748,-40.8652,0.0292312,1009.95
24992,-1.39351,17.7364,-1.0607,48.58,57.4,92.82,-23.6188,-41.3914,-0.438468,1009.95
24998,-2.14435,17.6169,-1.20417,43.12,57.61,84.42,-24.8173,-40.6606,2.13388,1009.95
25004,-3.7608,17.1099,-0.783323,37.31,49.42,72.31,-25.665,-40.6899,0.540778,1009.95
25010,-4.00948,16.8326,-1.09896,37.03,44.45,65.73,-26.805,-40.2222,1.41771,1009.95
25016,-4.54511,16.2013,-1.43373,37.03,39.62,57.05,-27.9158,-40.2514,3.42005,1009.95
25022,-5.10465,15.8091,-1.49112,38.29,34.51,51.59,-29.0558,-40.076,3.52236,1009.95
25028,-4.86075,15.4074,-1.69198,40.88,26.46,41.16,-29.7574,-39.7252,4.57469,1009.95
25034,-4.45903,15.4744,-1.81154,43.05,23.59,32.34,-30.8682,-39.4037,4.06314,1009.98
25040,-4.14339,16.2252,-1.96936,45.29,19.95,14.56,-32.4174,-39.3452,5.67086,1009.98
25046,-4.22469,17.2056,-2.285,45.71,18.48,0.84,-33.5574,-39.1406,5.56855,1009.97
25052,-5.23378,18.2816,-1.92632,44.03,17.43,-19.04,-34.2005,-38.6437,5.72932,1009.97
25058,-6.06592,18.8029,-1.43851,43.12,15.68,-30.31,-35.019,-38.3806,7.22011,1009.97
25064,-6.69241,18.999,-1.12287,39.69,14.7,-42.21,-36.3052,-38.4683,7.13242,1009.97
25070,-7.20413,19.2668,-1.24243,35.84,15.47,-46.34,-36.9483,-37.3575,9.77784,1009.98
25076,-8.08887,19.5298,-1.29982,23.59,16.31,-48.3,-38.2052,-37.416,9.1786,1009.98
25082,-8.61972,19.109,-0.807235,14.07,16.45,-47.04,-39.7837,-36.6852,11.4733,1009.98
25088,-9.11231,18.1143,0.345323,2.66,16.8,-42.42,-40.2222,-35.8959,11.9702,1009.99
25094,-9.35143,17.6025,1.03877,-3.43,17.71,-38.08,-41.0114,-35.9252,12.4087,1009.99
25100,-10.2218,16.2443,2.23915,-9.45,18.48,-30.45,-42.8822,-35.4282,13.3441,1010
25106,-10.657,15.2783,2.8513,-11.13,18.9,-24.99,-44.1976,-34.2298,14.0456,1010
25112,-11.3122,13.8531,3.69779,-10.78,19.81,-16.38,-45.5715,-33.9374,15.3025,1009.98
25118,-11.647,12.7054,4.39123,-9.8,20.58,-10.01,-47.5592,-33.6159,15.4487,1009.98
25124,-12.46,10.8354,5.33337,-3.78,21.77,0.7,-47.0038,-31.5113,16.2379,1009.99
25130,-12.7278,10.1755,5.40988,2.38,22.89,11.06,-48.6115,-29.4066,17.1149,1009.99
25136,-13.4595,10.3572,4.96034,3.99,25.06,17.78,-49.2838,-28.7635,17.188,1009.99
25142,-14.0334,11.1367,4.38167,1.05,23.52,22.75,-50.0731,-26.6589,18.5326,1009.97
25148,-14.2008,11.2467,4.00864,-3.64,24.85,23.94,-51.4177,-25.3435,18.211,1009.97
25154,-15.2577,11.7202,3.84604,-12.32,25.97,22.33,-52.2947,-24.3204,18.4595,1010
25160,-15.9464,11.9402,3.73126,-20.65,24.01,19.46,-53.1131,-23.385,19.4972,1010
25166,-16.7355,11.8684,3.62127,-34.86,21.91,14.91,-54.1362,-21.7773,19.8626,1010
25172,-17.0033,11.1128,3.86995,-43.82,19.11,11.48,-54.6916,-20.2865,21.2219,1010
25178,-17.1993,10.2281,3.87473,-56.56,15.33,5.67,-56.5039,-19.5265,21.1342,1009.99
25184,-16.8311,10.0607,3.84604,-66.22,11.76,-0.49,-55.8609,-17.3341,20.0672,1009.99
25190,-16.4916,10.4959,3.79822,-80.43,6.93,-14.07,-56.0947,-17.2757,20.9296,1009.97
25196,-16.525,10.845,5.01295,-89.95,3.43,-25.9,-56.767,-16.4864,21.6603,1009.97
25202,-21.3935,57.5691,-3.8871,-29.33,-47.32,-118.02,-56.007,-15.5218,21.2072,1009.97
25208,-8.76797,26.9234,-9.94162,-232.68,-12.18,-140.63,-56.7086,-15.8433,21.0757,1010
25214,-15.2338,5.33089,6.22289,-269.36,14,-161.63,-56.8547,-16.4572,20.2134,1010
25220,-19.2845,0.16112,12.8513,-186.48,-28.56,-182.84,-57.7609,-18.4449,19.3511,1010.03
25226,-12.8139,14.0588,5.93595,-176.19,-45.78,-212.24,-56.2409,-18.1234,19.8772,1010.03
25232,-8.78232,12.7723,5.01295,-205.87,-19.88,-237.37,-56.6209,-19.3803,19.8918,1010
25238,-7.33325,1.33759,13.1095,-193.13,14.84,-276.57,-56.0947,-20.6372,19.658,1010
25244,-4.91814,-6.68728,13.0091,-158.06,7.28,-285.74,-56.007,-19.8188,18.1526,1009.99
25250,9.52471,-9.89149,8.14542,-78.82,-60.2,-297.99,-54.8378,-21.6896,19.4826,1009.99
25256,13.0015,-4.89866,6.52418,-27.93,-16.73,-291.62,-54.1362,-22.128,19.4095,1009.99
25262,-3.09605,2.3945,9.49884,48.86,56.28,-260.26,-53.4347,-23.1219,18.9272,1010.01
25268,-11.2453,9.34333,6.86852,86.31,-23.24,-243.6,-53.4054,-22.0111,19.1318,1010.01
25274,-8.94014,27.923,-4.09274,59.43,-52.01,-225.12,-52.1193,-23.5311,19.9795,1009.99
25280,-0.613981,31.7154,-7.81345,-48.3,-7.56,-193.2,-52.1485,-23.7358,18.518,1009.99
25286,-0.365296,25.9287,-6.80436,-105.14,52.99,-164.36,-51.6223,-24.9635,18.7957,1009.99
25292,-11.4939,14.934,2.3348,-132.37,80.92,-131.88,-52.2654,-25.7527,19.0588,1009.99
25298,-15.7742,11.2228,7.54284,-129.36,45.78,-108.08,-51.2131,-26.3373,18.7226,1009.99
25304,-11.8478,6.44998,8.54714,-88.2,-12.18,-75.46,-50.8039,-26.6004,17.6264,1009.99
25310,-7.24717,4.74744,6.28028,-52.22,-29.33,-56.14,-50.7746,-27.0681,17.4949,1009.99
25316,-2.24478,8.99421,0.818781,-16.1,-40.32,-43.12,-51.0962,-27.7697,17.5972,1009.97
25322,0.672485,12.978,-3.60972,-18.41,-35.07,-36.68,-51.2131,-27.5943,17.0856,1009.97
25328,4.05364,14.9866,-6.28308,-55.93,-11.83,-38.22,-50.95,-27.8574,15.4925,1010
25334,3.80017,13.4801,-5.13531,-76.58,12.25,-36.75,-50.8916,-28.6758,16.5156,1010
25340,0.108162,9.52028,-0.740282,-85.75,34.3,-34.3,-51.0962,-28.3543,16.5303,1009.95
25346,-3.29691,7.76035,1.9283,-75.67,32.69,-30.59,-51.4762,-29.3189,15.551,1009.95
25352,-7.01283,7.01908,4.13777,-49.98,8.19,-20.58,-50.8331,-29.2605,16.121,1009.99
25358,-7.075,7.81296,3.66431,-34.44,-14.07,-12.81,-50.4823,-29.0851,14.7618,1009.99
25364,-3.46429,8.01382,2.32045,-14.91,-33.46,-1.96,-51.1254,-29.1143,14.6448,1009.97
25370,-1.30265,8.45858,1.15355,-3.29,-32.2,3.78,-50.3946,-29.2312,14.4548,1009.97
25376,0.371194,10.735,-1.1707,2.52,-21.84,5.67,-50.8916,-29.5235,15.2879,1009.97
25382,0.0125136,12.1219,-1.64416,-7.42,-15.68,5.25,-50.5992,-29.8451,14.2502,1010
25388,-1.08266,10.2568,0.335758,-20.65,-12.81,4.27,-50.8916,-29.1143,14.4548,1010
25394,-2.69911,7.10995,3.11433,-14.77,-14.91,7,-51.3008,-30.0205,14.9956,1009.97
25400,-2.28782,6.36389,3.32954,14.91,-30.38,8.33,-50.2192,-30.0205,14.7764,1009.97
25406,-0.030528,10.0081,-0.0803104,22.89,-29.05,9.17,-50.4239,-29.6405,13.6071,1009.99
25412,-0.355731,12.5284,-1.98371,5.95,-16.38,10.64,-50.8623,-29.9912,14.3671,1009.99
25418,-1.36004,10.9359,0.488795,-4.83,-18.55,10.15,-50.3654,-29.5235,14.9664,1010.01
25424,-0.570939,8.63075,1.21094,-0.28,-19.25,9.8,-50.57,-29.2897,14.0164,1010.01
25430,-0.647458,9.1616,0.880952,7.42,-15.68,9.45,-51.5054,-29.7574,15.0687,1010.01
