Timestamp,AccX,AccY,AccZ,AngularVelX,AngularVelY,AngularVelZ,MagX,MagY,MagZ,AirPressure
114812,-0.221824,9.81679,0.330976,-0.21,0.14,-0.07,-38.556,-36.1006,4.1216,1009.8
114818,-0.317472,9.67331,0.421842,-0.14,0.07,0.07,-38.2052,-35.9252,3.49313,1009.8
114824,-0.145306,9.77374,0.335758,0.21,0.07,0.14,-38.4975,-35.7206,3.99006,1009.8
114830,-0.178782,9.77853,0.316629,0.07,0.21,0.07,-38.3806,-35.8082,3.68313,1009.82
114836,-0.236171,9.7307,0.350106,-0.14,-0.07,0.07,-38.7314,-35.8082,4.07775,1009.82
114842,-0.188347,9.7307,0.374018,0,0.07,0.07,-38.7898,-35.2821,3.21543,1009.79
114848,-0.221824,9.77853,0.388365,0.07,0.07,0.07,-38.7898,-35.7498,2.55773,1009.79
114854,-0.221824,9.78809,0.350106,0.07,0,0.07,-38.4975,-36.0421,3.59544,1009.77
114860,-0.188347,9.77374,0.374018,0,0,0,-38.0883,-35.8959,2.45542,1009.77
114866,-0.236171,9.75461,0.35967,0.07,0.07,0.07,-38.0883,-36.6267,2.60158,1009.77
114872,-0.202694,9.78331,0.35967,0,0.07,0.14,-38.176,-36.5975,3.31774,1009.81
114878,-0.217042,9.77374,0.350106,0.07,0.21,0.07,-38.059,-36.1882,2.44081,1009.81
114884,-0.217042,9.77374,0.340541,0.14,0,0.07,-38.556,-35.8375,3.09851,1009.81
114890,-0.217042,9.7594,0.369235,-0.14,0.07,0.07,-39.2575,-35.4575,3.12774,1009.81
114896,-0.217042,9.77374,0.354888,-0.07,0.14,0.14,-38.7606,-36.4806,2.10465,1009.78
114902,-0.19313,9.74505,0.354888,0.14,0.21,0,-39.696,-35.7498,3.42005,1009.78
114908,-0.188347,9.77374,0.330976,0.14,-0.21,0.28,-38.7314,-35.8959,3.40544,1009.74
114914,-0.212259,9.77374,0.369235,0.21,-0.21,0,-38.3221,-35.9544,3.71236,1009.74
114920,-0.207477,9.77374,0.354888,0.07,-0.14,0,-39.2575,-35.3405,2.2508,1009.8
114926,-0.212259,9.76896,0.345323,0.14,0.07,0.14,-38.2052,-36.6559,1.6808,1009.8
114932,-0.183565,9.7594,0.345323,-0.14,0.14,0.07,-38.0006,-36.1298,3.43467,1009.8
114938,-0.217042,9.76896,0.354888,0,0,0,-38.0298,-35.7498,3.59544,1009.76
114944,-0.197912,9.76896,0.354888,0,0.14,0.14,-38.6144,-36.4513,2.17773,1009.76
114950,-0.188347,9.74983,0.354888,0,0.07,0.07,-38.5267,-35.9544,1.85618,1009.8
114956,-0.202694,9.78331,0.383582,0,0.07,0,-38.4391,-36.2759,3.37621,1009.8
114962,-0.183565,9.74983,0.364453,0,0.07,0.07,-37.7083,-36.1882,1.82695,1009.83
114968,-0.217042,9.76896,0.350106,0.07,0,0.14,-38.7606,-36.539,2.28004,1009.83
114974,-0.202694,9.76418,0.345323,0,0,0,-38.7606,-36.8021,2.36773,1009.82
114980,-0.207477,9.78331,0.345323,-0.07,0.07,0,-37.9714,-35.6621,3.34697,1009.82
114986,-0.207477,9.76896,0.340541,0,0,0,-38.4391,-36.5975,3.28851,1009.82
114992,-0.197912,9.75461,0.364453,-0.07,0.14,0.07,-38.1175,-35.9252,1.82695,1009.81
114998,-0.226606,9.76896,0.350106,0.07,0,0,-37.679,-36.7729,1.73926,1009.81
115004,-0.19313,9.77374,0.383582,0.07,0.07,0.07,-38.1467,-35.6621,4.3993,1009.83
115010,-0.183565,9.7594,0.369235,0.07,0.07,0.07,-38.4683,-36.3636,3.6539,1009.83
115016,-0.221824,9.74505,0.354888,0.07,0.07,0.07,-39.0529,-36.2175,2.51388,1009.8
115022,-0.207477,9.76896,0.35967,0.14,-0.07,0.07,-39.0821,-35.9544,3.06928,1009.8
115028,-0.188347,9.74983,0.340541,-0.07,0.14,-0.07,-40.3391,-36.5683,0.613856,1009.78
115034,-0.212259,9.76896,0.364453,0.07,0.28,0.14,-38.8775,-35.9836,3.23005,1009.78
115040,-0.212259,9.76896,0.369235,0.07,0.07,0,-38.7314,-35.7498,2.68927,1009.78
115046,-0.202694,9.76418,0.354888,0.14,0,0.07,-38.556,-36.0129,3.55159,1009.83
115052,-0.202694,9.75461,0.345323,0.07,0.21,0.14,-37.8544,-36.1882,3.01082,1009.83
115058,-0.202694,9.7594,0.340541,0.14,0.07,0.07,-38.0883,-36.3344,2.90851,1009.82
115064,-0.212259,9.77374,0.354888,0.14,0.14,0.07,-38.2637,-36.6559,2.9962,1009.82
115070,-0.19313,9.76896,0.340541,0.14,0.07,0.14,-38.176,-36.159,3.01082,1009.83
115076,-0.212259,9.77374,0.335758,0,0.14,0,-38.5852,-36.3636,2.87928,1009.83
115082,-0.221824,9.7594,0.354888,0,0.21,0.07,-38.0883,-36.6267,1.90003,1009.82
115088,-0.202694,9.76418,0.335758,0.14,0,0,-38.5852,-36.0713,2.22157,1009.82
115094,-0.202694,9.76418,0.340541,0.07,0.14,0.07,-37.7667,-36.4221,2.07542,1009.82
115100,-0.226606,9.76418,0.345323,0.14,0,0,-37.8252,-35.7498,1.53464,1009.82
115106,-0.207477,9.76896,0.350106,-0.07,0.21,0,-38.8775,-35.9252,3.09851,1009.82
115112,-0.202694,9.75461,0.35967,0,0,0,-38.3514,-36.0713,2.76235,1009.79
115118,-0.19313,9.77374,0.335758,0.07,0.07,0.14,-38.3221,-35.9836,4.16545,1009.79
115124,-0.183565,9.74983,0.330976,0,0,0.07,-38.4391,-36.0129,2.54312,1009.79
115130,-0.221824,9.75461,0.354888,0.07,-0.21,-0.21,-38.6729,-36.1006,3.15697,1009.79
115136,-0.202694,9.76418,0.354888,0.07,-0.07,0.07,-37.7375,-35.8375,3.2739,1009.79
115142,-0.207477,9.78331,0.345323,0.07,0.07,0,-38.9944,-36.3052,3.56621,1009.79
115148,-0.212259,9.7594,0.364453,0.07,0.07,0,-37.6498,-36.1298,3.02543,1009.79
115154,-0.202694,9.74983,0.350106,0,0.14,-0.07,-37.9421,-36.9483,3.72698,1009.79
115160,-0.202694,9.76896,0.35967,0,0.07,-0.07,-38.4391,-36.5683,4.04852,1009.79
115166,-0.226606,9.78331,0.335758,-0.07,0.07,-0.07,-38.2929,-36.3929,2.7185,1009.83
115172,-0.197912,9.7594,0.335758,-0.07,0.07,-0.07,-38.4975,-36.7436,3.66852,1009.83
115178,-0.226606,9.72592,0.369235,0,0.14,0,-38.4683,-36.4513,3.05466,1009.81
115184,-0.19313,9.74505,0.350106,0.07,0.07,0.07,-38.4098,-36.6267,3.44928,1009.81
115190,-0.217042,9.76896,0.335758,0,0.07,-0.07,-38.2052,-36.6267,3.09851,1009.83
115196,-0.221824,9.74505,0.350106,0,0.07,0,-38.2929,-36.8021,3.08389,1009.83
115202,-0.212259,9.76418,0.374018,0.07,0,0,-38.2052,-36.5683,2.38234,1009.81
115208,-0.221824,9.76418,0.326194,0.14,0,0,-38.3806,-36.5683,2.86466,1009.81
115214,-0.202694,9.77374,0.35967,0.07,0,-0.14,-37.5329,-36.3052,2.32388,1009.81
115220,-0.217042,9.77374,0.354888,0.07,0,-0.07,-37.7375,-35.6329,3.20082,1009.8
115226,-0.188347,9.77374,0.345323,0,-0.07,0,-38.1467,-36.2467,2.42619,1009.8
115232,-0.19313,9.75461,0.335758,0.14,-0.14,-0.21,-38.4683,-35.5744,3.4639,1009.81
115238,-0.207477,9.75461,0.340541,0.07,-0.07,-0.14,-38.9944,-35.6329,3.30313,1009.81
115244,-0.226606,9.7594,0.350106,-0.07,0.07,-0.07,-38.1467,-35.9252,3.6539,1009.81
115250,-0.212259,9.76418,0.345323,0.07,0,0,-38.059,-35.399,3.84391,1009.81
115256,-0.202694,9.7594,0.321411,0,0,-0.14,-37.6206,-36.159,4.29699,1009.82
115262,-0.212259,9.76896,0.330976,0.07,0.07,0,-38.7898,-35.4867,2.82081,1009.82
115268,-0.221824,9.74027,0.354888,0.07,-0.07,0.07,-38.2344,-35.6621,4.07775,1009.84
115274,-0.197912,9.74027,0.340541,0,0,0,-38.4975,-35.5452,2.93774,1009.84
115280,-0.207477,9.76896,0.330976,0.07,-0.07,-0.07,-38.8483,-36.159,2.67466,1009.84
115286,-0.197912,9.7594,0.345323,0,0.07,0,-38.3514,-35.5159,2.82081,1009.82
115292,-0.188347,9.77374,0.340541,0.07,-0.07,-0.07,-37.7667,-35.9252,3.14236,1009.82
115298,-0.207477,9.77374,0.335758,-0.14,0.14,0.07,-37.8252,-35.4575,2.98158,1009.81
115304,-0.207477,9.77374,0.35967,-0.07,0,0.07,-38.8191,-36.4513,2.39696,1009.81
115310,-0.183565,9.7594,0.345323,0,0.14,0.07,-38.2637,-35.3405,3.58082,1009.79
115316,-0.217042,9.79287,0.340541,-0.07,0,0,-38.2637,-35.8959,3.85852,1009.79
115322,-0.212259,9.76896,0.321411,-0.07,0.14,0.07,-38.2344,-36.3344,2.83543,1009.82
115328,-0.221824,9.76896,0.345323,0,0,0,-38.2929,-35.5452,3.40544,1009.82
115334,-0.188347,9.75461,0.330976,-0.07,0.07,-0.07,-37.8252,-35.4867,2.9962,1009.82
115340,-0.207477,9.74505,0.330976,0,0,0,-37.7083,-35.9836,3.34697,1009.79
115346,-0.202694,9.77374,0.3788,0,0.07,-0.07,-37.9129,-35.4282,3.2739,1009.79
115352,-0.202694,9.7594,0.345323,0.07,0,0.07,-38.556,-35.5452,2.8062,1009.79
115358,-0.207477,9.76418,0.350106,0,0,0,-38.8483,-35.0775,3.75621,1009.79
115364,-0.212259,9.74983,0.345323,0,0,0,-37.7083,-35.5452,3.36159,1009.8
115370,-0.197912,9.78809,0.330976,0,0.07,-0.07,-38.5852,-35.9252,4.04852,1009.8
115376,-0.202694,9.76418,0.35967,0.07,0,0.07,-38.3221,-35.8375,4.42853,1009.82
115382,-0.19313,9.74027,0.340541,0.07,0,0,-38.556,-35.1652,2.76235,1009.82
115388,-0.207477,9.77374,0.354888,0,0.07,0,-38.4098,-35.9544,3.62467,1009.81
115394,-0.217042,9.74027,0.321411,0,0,0.07,-38.556,-36.1298,4.00468,1009.81
115400,-0.19313,9.75461,0.340541,0.07,0.07,0,-38.3514,-36.6559,3.31774,1009.81
115406,-0.217042,9.74983,0.350106,0,0,0.07,-38.5852,-36.2759,2.55773,1009.8
115412,-0.212259,9.77853,0.35967,-0.07,0.07,-0.07,-38.059,-35.9836,3.02543,1009.8
115418,-0.212259,9.75461,0.350106,-0.07,0,0,-37.8252,-36.0713,4.04852,1009.79
115424,-0.183565,9.76418,0.350106,0,0.14,0,-38.3221,-36.159,2.89389,1009.79
115430,-0.212259,9.76896,0.354888,0,0,0.07,-38.4975,-36.3052,3.2739,1009.8
115436,-0.217042,9.77374,0.326194,-0.07,-0.14,-0.21,-38.3806,-36.8313,4.26776,1009.8
115442,-0.231389,9.77853,0.326194,0,-0.14,-0.07,-37.8252,-36.5683,2.85004,1009.82
115448,-0.207477,9.73549,0.374018,-0.07,0.07,0,-38.5267,-35.779,3.34697,1009.82
115454,-0.19313,9.77374,0.340541,-0.07,0.14,0,-38.6144,-35.5744,3.20082,1009.82
115460,-0.197912,9.77374,0.330976,-0.14,0.07,-0.07,-39.4037,-35.4575,3.82929,1009.8
115466,-0.202694,9.76418,0.335758,-0.14,0.14,0,-38.2052,-35.8667,2.95235,1009.8
115472,-0.212259,9.76896,0.354888,-0.07,0.07,0,-38.556,-35.8667,3.88775,1009.83
115478,-0.202694,9.7594,0.345323,-0.14,0.14,0,-37.8252,-37.4744,3.47852,1009.83
115484,-0.221824,9.74983,0.340541,0.07,0.07,0.07,-38.4391,-36.8898,3.21543,1009.83
115490,-0.202694,9.75461,0.354888,0,-0.07,0.14,-37.8837,-35.8667,2.89389,1009.83
115496,-0.188347,9.76418,0.330976,0.07,0.07,0,-38.2344,-35.1652,3.30313,1009.8
115502,-0.183565,9.78331,0.330976,0,0.07,0.35,-38.0883,-36.6267,3.50775,1009.8
115508,-0.212259,9.78331,0.307064,0.07,-0.21,0.07,-39.8422,-35.779,3.68313,1009.8
115514,-0.207477,9.74505,0.35967,-0.14,0.21,0,-37.8252,-35.4575,3.6539,1009.8
115520,-0.188347,9.76418,0.35967,-0.07,0.21,0,-38.3514,-36.1882,4.09237,1009.8
115526,-0.19313,9.78331,0.335758,-0.07,0.21,0.07,-38.176,-35.6621,3.43467,1009.81
115532,-0.202694,9.78331,0.364453,0,0.21,-0.07,-38.4975,-37.2406,2.00234,1009.81
115538,-0.212259,9.75461,0.340541,-0.07,0.35,0.14,-38.3221,-36.1882,4.06314,1009.75
115544,-0.221824,9.7594,0.35967,0,0.14,0.07,-38.2344,-35.9252,3.4639,1009.75
115550,-0.207477,9.74983,0.340541,0.07,0.07,0.07,-38.5852,-36.0129,3.40544,1009.8
115556,-0.202694,9.76896,0.350106,0,0.14,0,-37.8252,-36.1882,2.29465,1009.8
115562,-0.202694,9.77374,0.350106,-0.07,0.14,0,-38.4975,-35.9836,3.36159,1009.83
115568,-0.217042,9.76896,0.340541,-0.07,0.07,0.07,-38.0298,-36.0421,3.25928,1009.83
115574,-0.19313,9.76418,0.350106,-0.07,0,0.07,-37.9129,-35.8375,2.07542,1009.83
115580,-0.212259,9.76896,0.330976,0.07,0.14,-0.07,-38.0883,-35.9544,3.1862,1009.82
115586,-0.207477,9.75461,0.364453,0,0.14,0.07,-38.7898,-35.6329,2.2508,1009.82
115592,-0.197912,9.76418,0.340541,-0.07,0.07,0.07,-38.2929,-35.779,2.38234,1009.81
115598,-0.202694,9.74983,0.350106,-0.07,0.07,0,-38.2344,-35.4867,2.96697,1009.81
115604,-0.207477,9.76896,0.340541,0,0.07,0,-38.7021,-36.2467,3.04005,1009.82
115610,-0.217042,9.74983,0.350106,-0.07,0.14,0.07,-38.2929,-35.4575,2.76235,1009.82
115616,-0.207477,9.74027,0.345323,0,0.07,0,-37.8544,-35.779,2.13388,1009.81
115622,-0.221824,9.76896,0.340541,-0.07,0,0,-38.3806,-35.7498,3.71236,1009.81
115628,-0.207477,9.77853,0.345323,-0.07,0.14,0.07,-38.4098,-36.0421,2.54312,1009.81
115634,-0.202694,9.76418,0.335758,0,0.07,0,-37.5913,-35.7206,2.14849,1009.82
115640,-0.183565,9.77374,0.340541,-0.07,0.07,-0.14,-39.4914,-35.9544,2.28004,1009.82
115646,-0.212259,9.76418,0.340541,-0.07,-0.07,0,-38.1467,-35.9544,2.64543,1009.8
115652,-0.197912,9.74983,0.364453,-0.07,0.07,0.07,-38.3806,-35.7206,2.9962,1009.8
115658,-0.19313,9.77374,0.35967,0,0,0,-37.9129,-35.9544,2.83543,1009.82
115664,-0.217042,9.78331,0.335758,-0.07,0.07,0.07,-38.3806,-35.5159,3.58082,1009.82
115670,-0.207477,9.76418,0.350106,0,0,0,-38.4683,-36.2467,3.36159,1009.79
115676,-0.19313,9.75461,0.350106,-0.07,0.14,0,-38.6729,-35.6329,3.39082,1009.79
115682,-0.212259,9.76418,0.354888,0.07,0,0,-38.7606,-35.2236,3.7416,1009.79
115688,-0.202694,9.76896,0.345323,-0.07,0.14,0,-38.4098,-35.6329,2.8062,1009.81
115694,-0.207477,9.76418,0.340541,-0.07,0,0.07,-38.0298,-36.1006,3.17159,1009.81
115700,-0.197912,9.74505,0.340541,-0.07,-0.07,-0.07,-38.059,-35.0482,2.01695,1009.8
115706,-0.212259,9.77374,0.369235,-0.07,0.07,0,-39.3452,-36.2759,3.61006,1009.8
115712,-0.197912,9.74505,0.393147,0,0,-0.07,-39.1698,-36.0129,2.7185,1009.76
115718,-0.174,9.76418,0.350106,-0.07,0.14,0,-38.0883,-35.6621,3.09851,1009.76
115724,-0.212259,9.76896,0.326194,0,0,0,-38.2344,-36.3636,2.73312,1009.84
115730,-0.207477,9.77853,0.354888,-0.07,0.07,0.07,-38.8191,-36.0421,2.8062,1009.84
115736,-0.207477,9.76418,0.350106,-0.14,0.07,0,-38.8191,-35.1944,3.7416,1009.81
115742,-0.183565,9.78331,0.354888,-0.14,-0.07,-0.21,-39.6375,-35.4867,2.79158,1009.81
115748,-0.197912,9.7594,0.335758,-0.14,0.14,0,-38.9944,-35.5452,2.42619,1009.81
115754,-0.188347,9.75461,0.354888,-0.07,-0.07,-0.07,-38.059,-35.3405,3.24467,1009.79
115760,-0.159653,9.74505,0.364453,0,0.14,0,-38.1467,-35.5159,3.94621,1009.79
115766,-0.207477,9.76418,0.350106,-0.07,0,-0.07,-38.2637,-35.7498,3.04005,1009.83
115772,-0.207477,9.76418,0.316629,-0.07,0.07,0,-38.7021,-35.5744,3.01082,1009.83
115778,-0.19313,9.7594,0.340541,-0.07,0.07,-0.07,-38.0298,-35.779,3.68313,1009.81
115784,-0.217042,9.76896,0.369235,-0.07,0.07,0,-38.3221,-35.5159,3.52236,1009.81
115790,-0.197912,9.77374,0.364453,-0.07,0.07,0,-38.936,-35.7206,2.57235,1009.82
115796,-0.197912,9.74983,0.340541,-0.14,0.14,0,-38.3514,-35.7206,3.69775,1009.82
115802,-0.188347,9.76896,0.350106,-0.07,0.07,-0.07,-38.2344,-34.8144,2.86466,1009.82
115808,-0.207477,9.76896,0.340541,-0.14,0,0,-38.0298,-35.7206,4.25314,1009.78
115814,-0.217042,9.7594,0.354888,-0.07,0.07,0,-38.3514,-35.1067,4.28237,1009.78
115820,-0.226606,9.74027,0.369235,0,0.07,0,-38.556,-35.3698,3.84391,1009.82
115826,-0.178782,9.75461,0.345323,-0.14,0.14,0,-37.7667,-35.4867,3.56621,1009.82
115832,-0.202694,9.76418,0.350106,-0.07,0,-0.07,-38.5267,-34.9021,3.28851,1009.8
115838,-0.212259,9.78331,0.340541,-0.14,0.21,0.07,-38.0006,-35.8375,4.79392,1009.8
115844,-0.202694,9.7594,0.345323,-0.07,0,-0.07,-38.8483,-36.4513,4.37007,1009.8
115850,-0.19313,9.74505,0.364453,-0.07,0.28,0,-37.9714,-36.0713,4.50161,1009.8
115856,-0.212259,9.74983,0.364453,-0.07,0.14,0,-38.176,-35.6621,3.36159,1009.8
115862,-0.197912,9.77374,0.335758,-0.07,0.07,0.07,-39.1406,-35.4282,4.677,1009.79
115868,-0.19313,9.76896,0.350106,-0.07,0.07,0,-38.4391,-36.1882,3.58082,1009.79
115874,-0.183565,9.78331,0.350106,-0.14,0.14,-0.07,-38.4098,-35.8667,3.09851,1009.83
115880,-0.197912,9.77853,0.335758,-0.07,0,0.07,-38.3806,-35.2528,3.21543,1009.83
115886,-0.188347,9.78809,0.340541,-0.14,0.14,-0.07,-38.9652,-36.1882,2.74773,1009.81
115892,-0.202694,9.78331,0.350106,-0.07,0.14,0,-38.9944,-35.4867,3.21543,1009.81
115898,-0.188347,9.7594,0.369235,-0.14,0.14,0,-38.3806,-35.5159,3.9316,1009.81
115904,-0.188347,9.74983,0.374018,0,0.07,0,-38.3221,-36.4513,3.85852,1009.81
115910,-0.207477,9.75461,0.354888,-0.14,0,0,-38.3221,-35.2528,3.12774,1009.8
115916,-0.183565,9.76418,0.330976,-0.14,0.07,0,-38.7021,-35.1944,2.64543,1009.8
115922,-0.207477,9.76418,0.335758,-0.21,0.14,0,-38.556,-35.4575,3.52236,1009.8
115928,-0.202694,9.78331,0.350106,0,0.07,-0.07,-38.4975,-36.159,4.53084,1009.81
115934,-0.202694,9.76418,0.326194,-0.14,0.07,-0.07,-38.5852,-36.0129,4.34084,1009.81
115940,-0.217042,9.77374,0.340541,-0.14,0.07,0.07,-37.6498,-35.2821,3.49313,1009.82
115946,-0.207477,9.74027,0.3788,-0.07,0.07,0,-38.3514,-35.7498,2.76235,1009.82
115952,-0.217042,9.7594,0.326194,0,-0.21,-0.14,-38.6144,-35.9836,3.56621,1009.81
115958,-0.188347,9.76896,0.35967,-0.07,0,-0.07,-38.0883,-35.6036,3.31774,1009.81
115964,-0.183565,9.75461,0.326194,-0.07,0.14,-0.07,-38.4683,-35.6913,3.43467,1009.84
115970,-0.207477,9.76896,0.330976,-0.07,0.07,-0.07,-38.7606,-36.0129,3.81467,1009.84
115976,-0.188347,9.75461,0.354888,-0.14,0,0.07,-38.0883,-35.6913,3.44928,1009.84
115982,-0.226606,9.75461,0.335758,0,0.07,0,-38.4391,-36.0713,3.04005,1009.77
115988,-0.217042,9.75461,0.369235,-0.14,0.07,0.07,-39.0821,-35.4282,4.2093,1009.77
115994,-0.217042,9.76896,0.354888,-0.07,0,0,-38.6437,-36.2175,3.78544,1009.8
116000,-0.212259,9.7594,0.350106,0,0.14,0,-38.3221,-35.3698,4.13622,1009.8
116006,-0.202694,9.77853,0.326194,0,0,0.07,-38.6437,-35.6036,4.61853,1009.81
116012,-0.202694,9.7594,0.335758,0,0.14,0,-38.5267,-35.7498,3.2739,1009.81
116018,-0.212259,9.75461,0.345323,0,-0.07,0.07,-39.1114,-35.019,3.43467,1009.81
116024,-0.217042,9.75461,0.350106,0,0.07,0,-38.9944,-35.5744,3.21543,1009.81
116030,-0.217042,9.77374,0.364453,0.14,0.07,0,-38.176,-35.5159,3.33236,1009.82
116036,-0.188347,9.77853,0.340541,0,0.07,0.07,-38.7314,-35.4282,3.77083,1009.82
116042,-0.207477,9.75461,0.364453,0.07,0,0.07,-38.059,-36.2175,3.94621,1009.82
116048,-0.197912,9.78331,0.354888,0,0.14,0.07,-38.2052,-35.8667,3.90237,1009.82
116054,-0.19313,9.75461,0.354888,0,0.07,-0.14,-39.3745,-35.8082,2.92312,1009.82
116060,-0.202694,9.74505,0.340541,0,0.14,-0.07,-38.4975,-36.1006,3.78544,1009.8
116066,-0.207477,9.74983,0.35967,0.14,0,0,-37.796,-35.8082,2.73312,1009.8
116072,-0.212259,9.74983,0.345323,0.14,0.07,0.07,-37.796,-35.8375,3.44928,1009.8
116078,-0.217042,9.76418,0.364453,0.21,-0.07,0.07,-38.6437,-36.0713,3.52236,1009.8
116084,-0.202694,9.76896,0.345323,0.07,0.14,0,-38.6144,-35.9836,2.13388,1009.81
116090,-0.221824,9.77853,0.345323,0.07,-0.07,0.07,-38.9652,-36.4221,4.38468,1009.81
116096,-0.217042,9.74983,0.345323,0,0.07,0.07,-39.0529,-35.5744,3.50775,1009.81
116102,-0.207477,9.7594,0.35967,0.07,0.07,0.14,-39.1114,-35.7206,1.72464,1009.82
116108,-0.197912,9.76896,0.326194,0.07,0,0,-38.7021,-36.3929,3.44928,1009.82
116114,-0.197912,9.7594,0.335758,0,0,0.07,-38.8191,-35.9544,2.76235,1009.85
116120,-0.217042,9.7594,0.350106,0.07,0.07,0,-38.9652,-35.8667,2.36773,1009.85
116126,-0.231389,9.77374,0.340541,0.07,0,0.14,-39.0821,-35.8082,2.90851,1009.81
116132,-0.207477,9.7594,0.350106,0.07,0,0.07,-38.4683,-36.4513,3.31774,1009.81
116138,-0.217042,9.74027,0.350106,0.07,0.07,0.07,-38.4975,-36.5975,2.54312,1009.78
116144,-0.217042,9.77853,0.345323,0.07,0.07,0.07,-38.936,-36.2759,1.76849,1009.78
116150,-0.221824,9.7594,0.350106,-0.07,0.14,0.07,-38.059,-36.159,2.70389,1009.78
116156,-0.188347,9.75461,0.364453,0,-0.07,-0.14,-39.8422,-36.1882,4.56007,1009.8
116162,-0.207477,9.76418,0.35967,0,0.07,0.14,-39.2283,-35.6621,3.23005,1009.8
116168,-0.202694,9.76896,0.369235,0.07,-0.07,0.14,-38.6144,-35.779,4.16545,1009.78
116174,-0.202694,9.76896,0.335758,0,0.07,0.07,-38.3221,-35.2528,3.39082,1009.78
116180,-0.212259,9.76418,0.354888,0.14,-0.07,0.07,-38.6437,-35.399,4.76469,1009.81
116186,-0.207477,9.76896,0.330976,0.07,0,0,-38.5852,-35.7498,3.55159,1009.81
116192,-0.212259,9.76896,0.369235,0.14,0,0.07,-38.2929,-36.0421,2.83543,1009.81
116198,-0.217042,9.7594,0.350106,0.14,0,0.07,-38.2052,-36.1006,4.28237,1009.81
116204,-0.202694,9.76896,0.354888,0.07,0,0.07,-38.6437,-35.7498,2.83543,1009.79
116210,-0.212259,9.76418,0.35967,0.14,0,-0.07,-38.556,-35.4575,3.84391,1009.79
116216,-0.207477,9.74027,0.350106,0.07,0,0,-38.3806,-35.5159,3.90237,1009.79
116222,-0.221824,9.74505,0.326194,0.07,0,0,-38.2344,-35.8375,3.28851,1009.81
116228,-0.202694,9.76896,0.335758,0.14,-0.07,0.07,-38.556,-36.5683,3.62467,1009.81
116234,-0.207477,9.77374,0.350106,0.07,-0.07,-0.07,-38.4975,-36.1882,4.06314,1009.83
116240,-0.221824,9.74027,0.374018,0.14,0,0.07,-38.3221,-36.0713,3.06928,1009.83
116246,-0.207477,9.74983,0.35967,0.14,-0.07,-0.07,-38.8191,-35.6036,3.37621,1009.8
116252,-0.197912,9.76896,0.345323,0.07,0,0,-38.2344,-35.5452,4.03391,1009.8
116258,-0.19313,9.74983,0.350106,0.07,0,0.21,-39.0237,-36.159,3.34697,1009.79
116264,-0.207477,9.7594,0.35967,0.07,0,0.07,-38.5267,-35.9836,3.59544,1009.79
116270,-0.231389,9.76418,0.369235,0.07,-0.07,0,-38.176,-35.6621,3.40544,1009.79
116276,-0.202694,9.74983,0.354888,0.14,0,0,-38.6437,-36.159,3.44928,1009.79
116282,-0.197912,9.75461,0.345323,0.07,-0.07,0,-38.0006,-36.0129,2.89389,1009.79
116288,-0.207477,9.76896,0.354888,0,0.14,0.07,-38.4098,-35.4282,3.47852,1009.78
116294,-0.202694,9.76896,0.330976,0,0.07,0,-38.3806,-35.6329,2.90851,1009.78
116300,-0.207477,9.76896,0.340541,0,0.14,0,-39.1406,-35.2821,4.16545,1009.81
116306,-0.202694,9.76418,0.350106,0.07,0,0.07,-38.2052,-35.6621,3.52236,1009.81
116312,-0.19313,9.7594,0.345323,0,0,0,-38.2929,-35.9252,1.79772,1009.8
116318,-0.197912,9.78331,0.321411,0,0,0.07,-38.2344,-35.8082,3.33236,1009.8
116324,-0.207477,9.75461,0.35967,0,0.07,0,-38.3221,-35.7206,3.52236,1009.8
116330,-0.217042,9.76418,0.340541,0.07,0.07,0.07,-37.9129,-35.8082,2.2508,1009.8
116336,-0.212259,9.76418,0.340541,0.28,-0.07,0,-38.5267,-36.1006,3.36159,1009.8
116342,-0.212259,9.77374,0.35967,0.07,0,0,-38.1175,-36.1882,3.31774,1009.81
116348,-0.188347,9.7594,0.345323,0.07,-0.07,-0.07,-38.1175,-36.1298,2.57235,1009.81
116354,-0.197912,9.76896,0.335758,0,0.07,-0.07,-38.3806,-35.4867,3.42005,1009.78
116360,-0.226606,9.74983,0.354888,0,0,0,-39.3745,-36.1298,2.87928,1009.78
116366,-0.221824,9.75461,0.374018,0.07,-0.07,-0.07,-38.4391,-35.9836,3.81467,1009.78
116372,-0.207477,9.77374,0.345323,0.07,0,0,-38.2929,-35.9836,3.31774,1009.78
116378,-0.212259,9.7594,0.350106,0,0,0.07,-38.7606,-35.8959,3.30313,1009.83
116384,-0.212259,9.77853,0.340541,0.07,-0.07,0.07,-37.8544,-35.8959,3.14236,1009.83
116390,-0.212259,9.72114,0.345323,0,0.14,0,-38.059,-35.9836,3.62467,1009.83
116396,-0.221824,9.74027,0.383582,0.14,0,0,-38.2637,-36.2467,3.69775,1009.84
116402,-0.221824,9.78331,0.350106,0.07,0,0,-38.8191,-36.0129,3.52236,1009.84
116408,-0.164435,9.79287,0.326194,0,0,0,-38.0883,-35.9544,2.10465,1009.78
116414,-0.217042,9.74983,0.340541,0,0.07,0,-37.9421,-36.0421,3.7416,1009.78
116420,-0.188347,9.75461,0.350106,0,0,-0.07,-37.9129,-36.2759,2.98158,1009.83
116426,-0.217042,9.77853,0.354888,0,0.07,0,-38.8483,-35.5744,2.76235,1009.83
116432,-0.202694,9.77374,0.335758,0,0,0,-38.3221,-35.8082,2.96697,1009.8
116438,-0.197912,9.73549,0.364453,0.07,0,-0.07,-37.5621,-35.4867,2.39696,1009.8
116444,-0.19313,9.78809,0.340541,0,-0.07,-0.07,-38.0883,-35.5452,3.15697,1009.8
116450,-0.207477,9.74505,0.340541,0.07,0.07,-0.14,-38.6437,-35.2821,3.1862,1009.79
116456,-0.188347,9.76896,0.340541,0,0,0.07,-38.3514,-35.8667,2.74773,1009.79
116462,-0.202694,9.75461,0.335758,0.07,0.07,0.14,-38.6729,-35.3113,3.50775,1009.77
116468,-0.212259,9.74983,0.354888,0.07,0,0,-38.9944,-36.0713,3.04005,1009.77
116474,-0.202694,9.7594,0.350106,0,-0.07,0.07,-38.6729,-35.8959,3.90237,1009.78
116480,-0.207477,9.74983,0.354888,0.07,0.07,0.07,-38.8775,-35.019,2.55773,1009.78
116486,-0.19313,9.7594,0.335758,0.14,-0.07,-0.07,-38.3221,-35.6913,2.93774,1009.79
116492,-0.19313,9.74983,0.350106,-0.07,0,0,-38.2052,-35.9252,3.28851,1009.79
116498,-0.217042,9.77853,0.354888,0,0,0,-38.4683,-35.8082,3.49313,1009.81
116504,-0.202694,9.75461,0.345323,0,0.07,0.07,-38.9944,-35.6913,3.96083,1009.81
116510,-0.207477,9.75461,0.354888,0.07,0,0.07,-38.7314,-36.0421,3.37621,1009.81
116516,-0.212259,9.76418,0.35967,0,0,0,-38.5852,-35.4282,2.73312,1009.81
116522,-0.221824,9.76896,0.326194,0.07,0,0,-38.4098,-36.2175,3.08389,1009.81
116528,-0.19313,9.74505,0.350106,0,0,0,-38.3514,-35.9252,3.69775,1009.81
116534,-0.207477,9.76418,0.364453,0,-0.07,0.07,-38.5267,-35.6913,3.05466,1009.81
116540,-0.183565,9.76418,0.369235,0.07,0.14,0.07,-39.0237,-35.5452,2.32388,1009.82
116546,-0.19313,9.7307,0.340541,0,-0.07,-0.07,-39.0237,-35.5452,2.63081,1009.82
116552,-0.19313,9.76418,0.330976,0,0.07,0,-38.2929,-35.8667,3.01082,1009.84
116558,-0.202694,9.77374,0.354888,0.07,-0.07,0,-39.0821,-35.8959,3.20082,1009.84
116564,-0.207477,9.76896,0.326194,-0.07,0.07,0.07,-37.9714,-35.9252,2.44081,1009.84
116570,-0.197912,9.78809,0.335758,0.07,0,0.28,-38.2344,-36.0129,3.39082,1009.8
116576,-0.197912,9.7307,0.330976,0,0.07,0,-37.9129,-35.6329,3.37621,1009.8
116582,-0.207477,9.7594,0.350106,0.14,0,0,-39.0529,-36.5683,3.14236,1009.8
116588,-0.188347,9.7594,0.340541,-0.07,0.07,0,-38.4683,-36.3636,2.76235,1009.8
116594,-0.221824,9.7594,0.321411,0,0,0,-38.8191,-36.5098,3.40544,1009.81
116600,-0.207477,9.76418,0.35967,-0.07,0,0,-37.3283,-36.4221,2.07542,1009.81
116606,-0.226606,9.76896,0.354888,0,0.07,-0.07,-38.6729,-35.779,3.05466,1009.78
116612,-0.202694,9.78331,0.335758,-0.14,0.07,0,-38.4391,-35.9544,2.66004,1009.78
116618,-0.202694,9.77374,0.326194,-0.07,0,0,-38.2052,-36.8021,2.70389,1009.78
116624,-0.19313,9.74983,0.340541,-0.07,0.14,0,-38.3221,-35.5159,3.7416,1009.82
116630,-0.188347,9.7594,0.335758,0,0.14,0,-38.8775,-35.399,3.66852,1009.82
116636,-0.221824,9.76418,0.340541,-0.14,0.07,0,-38.4683,-35.8082,3.21543,1009.81
116642,-0.197912,9.74983,0.335758,0,0.07,0.07,-38.9944,-36.539,3.43467,1009.81
116648,-0.207477,9.76418,0.335758,0,0,0,-38.2637,-36.1006,2.98158,1009.81
116654,-0.202694,9.78331,0.345323,0,0.07,0,-38.7606,-35.6913,3.66852,1009.81
116660,-0.212259,9.74983,0.364453,0,0,0,-38.9068,-36.0421,3.58082,1009.8
116666,-0.202694,9.74983,0.326194,0,0.21,0.21,-38.3806,-35.0482,4.32622,1009.8
116672,-0.197912,9.75461,0.330976,0,0.07,0,-39.0237,-35.9836,3.02543,1009.81
116678,-0.221824,9.76418,0.316629,0,0.07,0.07,-38.8191,-36.5683,3.82929,1009.81
116684,-0.217042,9.76896,0.364453,0.07,0,0,-38.3806,-35.399,2.86466,1009.81
116690,-0.231389,9.78331,0.330976,-0.07,0.14,0,-38.1175,-36.2175,3.17159,1009.82
116696,-0.217042,9.76418,0.35967,0,0,0.07,-38.4391,-35.8959,3.82929,1009.82
116702,-0.236171,9.76418,0.350106,0,0.14,0.07,-38.6144,-36.1882,3.75621,1009.81
116708,-0.207477,9.74983,0.350106,-0.07,-0.07,0,-38.6144,-36.6559,3.20082,1009.81
116714,-0.207477,9.75461,0.340541,0,0,0.07,-38.1175,-35.9252,4.69161,1009.82
116720,-0.212259,9.76418,0.345323,0.07,0.07,-0.07,-38.2929,-35.779,2.95235,1009.82
116726,-0.207477,9.77374,0.345323,0,0.07,0.07,-38.3221,-35.9252,3.59544,1009.82
116732,-0.19313,9.78331,0.340541,0.07,-0.07,0.07,-39.5206,-35.9836,3.36159,1009.82
116738,-0.207477,9.78331,0.335758,0,0.14,0.07,-38.6144,-35.5744,3.44928,1009.82
116744,-0.207477,9.79287,0.354888,0.07,-0.07,0,-37.8544,-36.2175,3.78544,1009.79
116750,-0.207477,9.77374,0.345323,0.07,0,0.07,-39.1698,-35.3698,3.88775,1009.79
116756,-0.188347,9.77853,0.335758,0,0,0,-38.6437,-35.8082,3.55159,1009.83
116762,-0.183565,9.76896,0.350106,-0.07,0.14,0,-37.9714,-36.4513,3.59544,1009.83
116768,-0.202694,9.7594,0.311846,0,0,0,-38.6144,-36.159,3.85852,1009.79
116774,-0.226606,9.77853,0.340541,0,0.14,0.28,-38.7021,-36.0129,3.37621,1009.79
116780,-0.202694,9.75461,0.335758,0.07,0.07,0,-38.059,-35.6621,3.14236,1009.78
116786,-0.19313,9.74983,0.340541,-0.07,0.14,0.07,-38.2344,-36.0713,3.88775,1009.78
116792,-0.197912,9.76896,0.35967,0,-0.07,0,-37.679,-35.7206,3.75621,1009.78
116798,-0.207477,9.76896,0.330976,0,0.07,0.14,-38.3221,-36.4806,2.42619,1009.83
116804,-0.197912,9.77374,0.326194,0,0,0.07,-38.3806,-35.399,3.49313,1009.83
116810,-0.202694,9.76418,0.340541,-0.07,0.07,0.07,-38.2929,-36.0421,3.2739,1009.82
116816,-0.217042,9.76418,0.335758,0,0,0,-38.3806,-36.0129,3.43467,1009.82
116822,-0.202694,9.7594,0.335758,-0.14,0.07,0.07,-38.2344,-35.5159,4.09237,1009.79
116828,-0.217042,9.7594,0.330976,0.14,0,0,-38.176,-35.9252,4.29699,1009.79
116834,-0.207477,9.77374,0.354888,0,0.07,0,-37.5621,-36.1298,3.23005,1009.83
116840,-0.188347,9.76418,0.345323,0,0.07,0.07,-37.7667,-36.1882,3.42005,1009.83
116846,-0.207477,9.7594,0.35967,-0.07,0.07,0,-37.3867,-36.3929,2.90851,1009.81
116852,-0.226606,9.76896,0.345323,0.07,0,0,-38.3806,-36.7436,3.44928,1009.81
116858,-0.202694,9.78331,0.364453,0,0,0.07,-38.176,-35.9836,3.24467,1009.81
116864,-0.19313,9.77853,0.326194,0,0,0,-38.3221,-36.2175,3.49313,1009.83
116870,-0.188347,9.74505,0.340541,0.07,-0.07,0.14,-38.176,-36.4513,3.47852,1009.83
116876,-0.217042,9.7594,0.335758,0.07,0,0,-38.1175,-36.5683,2.8062,1009.78
116882,-0.207477,9.76418,0.364453,-0.07,-0.07,0.07,-38.8191,-36.3929,3.11312,1009.78
116888,-0.19313,9.77374,0.340541,-0.07,0.07,0.07,-38.6144,-36.4806,3.06928,1009.8
116894,-0.207477,9.74505,0.354888,0,0.07,0,-37.8544,-36.2467,2.86466,1009.8
116900,-0.202694,9.76418,0.316629,-0.07,0,0,-38.0298,-35.8082,3.53698,1009.79
116906,-0.202694,9.76896,0.311846,0,0,0,-38.4975,-36.539,2.38234,1009.79
116912,-0.207477,9.77853,0.364453,0,0.07,0,-39.3745,-36.0421,3.33236,1009.79
116918,-0.188347,9.77853,0.350106,0,0,0.07,-38.3514,-35.8375,3.55159,1009.83
116924,-0.19313,9.74983,0.374018,0.07,0.07,0.07,-38.3806,-35.4575,4.1216,1009.83
116930,-0.217042,9.7594,0.330976,0,0.07,0,-38.4683,-35.9836,3.9316,1009.81
116936,-0.19313,9.75461,0.350106,0.07,0.07,0,-38.556,-35.9252,3.56621,1009.81
116942,-0.217042,9.75461,0.307064,0,0,0,-38.7606,-35.8375,3.43467,1009.79
116948,-0.212259,9.76418,0.316629,0,0,0,-38.7021,-35.4282,2.57235,1009.79
116954,-0.207477,9.76418,0.350106,0.07,0,0.07,-38.0006,-36.919,4.23853,1009.83
116960,-0.207477,9.78331,0.330976,0.07,0,0,-38.0006,-36.0713,3.31774,1009.83
116966,-0.202694,9.76896,0.340541,0.07,0.07,0,-38.556,-35.6913,3.77083,1009.83
116972,-0.197912,9.76896,0.35967,0,0,0,-38.4391,-35.8375,4.26776,1009.82
116978,-0.178782,9.76896,0.340541,0,0.07,0.14,-38.7314,-35.8667,3.37621,1009.82
116984,-0.202694,9.77374,0.354888,-0.07,0.14,0.07,-38.3806,-35.5452,3.72698,1009.79
116990,-0.207477,9.74505,0.335758,0,0,-0.07,-38.3221,-35.4867,2.96697,1009.79
116996,-0.19313,9.77853,0.335758,-0.07,0.14,0,-38.2637,-35.8959,2.90851,1009.82
117002,-0.207477,9.7594,0.335758,-0.07,0.07,0.07,-38.6144,-35.5159,3.66852,1009.82
117008,-0.19313,9.77853,0.330976,-0.14,0.14,0.07,-38.4391,-35.9252,3.02543,1009.82
117014,-0.212259,9.76418,0.330976,0,-0.07,-0.07,-38.4975,-35.8667,3.42005,1009.82
117020,-0.178782,9.75461,0.326194,0,0.21,0,-38.4683,-36.539,2.57235,1009.79
117026,-0.19313,9.77374,0.335758,-0.07,0,0.14,-38.6729,-35.399,3.49313,1009.79
117032,-0.212259,9.79766,0.354888,-0.07,0.14,0,-38.0883,-35.5452,3.80006,1009.79
117038,-0.202694,9.76418,0.340541,-0.07,0,0.07,-38.556,-35.0482,3.4639,1009.78
117044,-0.202694,9.78331,0.345323,-0.07,0.14,0.07,-38.936,-36.3636,4.2093,1009.78
117050,-0.188347,9.7594,0.335758,-0.07,0,0.07,-38.4975,-35.6913,2.30927,1009.81
117056,-0.188347,9.74983,0.345323,0,0.07,0.07,-37.8252,-35.7498,3.04005,1009.81
117062,-0.221824,9.7594,0.321411,0.07,0,0.07,-38.3806,-35.8375,3.01082,1009.84
117068,-0.207477,9.76896,0.326194,-0.07,0.14,0,-37.5621,-35.779,3.06928,1009.84
117074,-0.202694,9.7307,0.35967,-0.07,0.07,0.14,-36.9483,-36.5683,4.2093,1009.8
117080,-0.221824,9.75461,0.354888,0,0.14,0.21,-38.2929,-36.3929,3.78544,1009.8
117086,-0.19313,9.76896,0.330976,0.07,0.14,0.07,-38.4391,-35.779,4.34084,1009.8
117092,-0.19313,9.76896,0.311846,0,0.14,0,-37.679,-35.1944,3.08389,1009.81
117098,-0.236171,9.76896,0.326194,0,0.07,-0.07,-38.7898,-35.9544,4.06314,1009.81
117104,-0.207477,9.76896,0.350106,0,0,0,-38.6144,-35.6329,4.48699,1009.81
117110,-0.221824,9.76418,0.345323,0.07,0.07,0,-38.2637,-35.0775,4.42853,1009.81
117116,-0.221824,9.77853,0.345323,0,0.14,0,-38.5852,-36.5098,4.07775,1009.8
117122,-0.207477,9.78331,0.307064,0,0.07,0,-38.7021,-36.1882,4.56007,1009.8
117128,-0.207477,9.76418,0.330976,0,0.07,0.07,-39.2868,-35.7206,4.3116,1009.78
117134,-0.197912,9.76896,0.330976,0,0.14,0,-38.6144,-36.159,4.1216,1009.78
117140,-0.207477,9.77374,0.345323,0,0.21,0.07,-37.9129,-36.4513,3.78544,1009.8
117146,-0.183565,9.7594,0.326194,0,0.07,0.07,-38.556,-35.6621,2.93774,1009.8
117152,-0.197912,9.74027,0.345323,0.07,0,0.07,-38.0006,-35.9544,3.4639,1009.8
117158,-0.174,9.77374,0.321411,0.07,0,0.07,-37.679,-35.7206,4.47238,1009.8
117164,-0.188347,9.76418,0.345323,0,0.07,-0.07,-37.8544,-35.8082,3.30313,1009.8
117170,-0.226606,9.77374,0.345323,0,0.07,0.07,-37.8252,-35.3698,4.2093,1009.84
117176,-0.231389,9.76896,0.350106,-0.07,0.07,0.07,-38.0006,-36.0129,4.25314,1009.84
117182,-0.145306,9.74505,0.354888,0.21,-0.07,0.14,-37.796,-36.0421,2.66004,1009.79
117188,-0.130958,9.80722,0.287934,0,0.35,-0.07,-38.5267,-35.9544,4.04852,1009.79
117194,-0.269648,9.76418,0.340541,-0.21,0.14,-0.07,-38.6729,-35.9836,5.15931,1009.83
117200,-0.197912,9.73549,0.354888,-0.07,0,0,-38.7606,-36.3929,4.3116,1009.83
117206,-0.221824,9.7594,0.35967,0,0.21,0,-38.556,-35.3405,4.3116,1009.83
117212,-0.226606,9.7594,0.350106,0.07,-0.07,0,-38.2929,-36.159,3.37621,1009.82
117218,-0.178782,9.77853,0.335758,0,0.07,-0.07,-37.9714,-36.1006,3.21543,1009.82
117224,-0.221824,9.74983,0.369235,-0.07,0.07,-0.07,-38.5267,-36.3344,3.05466,1009.78
117230,-0.212259,9.76418,0.326194,-0.07,0.07,0,-38.3806,-36.4513,3.68313,1009.78
117236,-0.188347,9.7594,0.354888,0.14,0,0,-38.4391,-36.4806,4.23853,1009.82
117242,-0.183565,9.76896,0.354888,0,0.14,0.07,-38.7606,-35.779,3.04005,1009.82
117248,-0.221824,9.77374,0.321411,0,0,-0.07,-38.5852,-35.6329,4.80854,1009.8
117254,-0.221824,9.7307,0.350106,0,0.14,0,-37.679,-35.4575,3.66852,1009.8
117260,-0.217042,9.76418,0.350106,0.07,0.07,0,-37.5913,-36.159,3.42005,1009.8
117266,-0.169218,9.77853,0.330976,0,0.14,0.07,-38.0883,-35.8375,3.75621,1009.8
117272,-0.188347,9.77374,0.311846,0.07,0,0.07,-38.2637,-36.159,3.82929,1009.8
117278,-0.212259,9.77853,0.374018,0.07,0.14,0,-39.316,-35.9544,2.23619,1009.78
117284,-0.202694,9.76896,0.340541,0,0.28,0.21,-38.2637,-36.2467,2.85004,1009.78
117290,-0.197912,9.76896,0.350106,-0.07,0.21,0,-38.0298,-36.3636,2.77697,1009.82
117296,-0.217042,9.74983,0.340541,-0.07,0,0,-38.1467,-36.1006,3.82929,1009.82
117302,-0.226606,9.76418,0.330976,-0.07,0.14,0.07,-38.0298,-35.8667,3.12774,1009.78
117308,-0.188347,9.7594,0.35967,0,0.07,-0.07,-38.1175,-36.3052,3.50775,1009.78
117314,-0.202694,9.74505,0.345323,0,0.21,0,-37.9714,-35.6036,3.9316,1009.8
117320,-0.217042,9.75461,0.335758,0,-0.07,-0.07,-38.6729,-35.019,3.91698,1009.8
117326,-0.178782,9.77374,0.307064,0,0.07,0.07,-37.8544,-35.779,3.87314,1009.8
117332,-0.197912,9.76418,0.330976,-0.14,0,0,-38.0298,-35.6329,3.36159,1009.82
117338,-0.178782,9.75461,0.340541,-0.21,0.07,-0.07,-37.679,-36.0129,4.48699,1009.82
117344,-0.207477,9.74505,0.330976,-0.07,0.07,-0.07,-37.6498,-35.4867,4.51622,1009.8
117350,-0.19313,9.7594,0.350106,0,0.07,-0.14,-38.3514,-35.8082,3.34697,1009.8
117356,-0.202694,9.76896,0.330976,0,0.07,-0.07,-38.0006,-35.779,4.15083,1009.8
117362,-0.202694,9.76896,0.330976,-0.14,0.07,-0.07,-37.3575,-35.2821,3.55159,1009.8
117368,-0.226606,9.75461,0.35967,-0.07,0.14,-0.07,-37.796,-36.5098,2.95235,1009.8
117374,-0.217042,9.7594,0.350106,-0.07,0.07,-0.07,-38.7314,-35.9544,4.06314,1009.8
117380,-0.226606,9.7594,0.345323,-0.07,0.14,0,-38.5852,-35.6913,3.05466,1009.8
117386,-0.197912,9.76418,0.354888,-0.14,-0.07,-0.21,-38.2344,-36.2759,4.45776,1009.82
117392,-0.188347,9.78331,0.335758,-0.14,0.14,-0.07,-38.4975,-35.3698,3.47852,1009.82
117398,-0.207477,9.76896,0.326194,-0.07,0.07,-0.07,-38.3221,-35.9252,3.23005,1009.8
117404,-0.217042,9.76418,0.345323,-0.07,0,-0.07,-38.3806,-35.6329,3.11312,1009.8
117410,-0.183565,9.74027,0.345323,-0.07,0,0,-37.4452,-35.2236,3.43467,1009.8
117416,-0.212259,9.75461,0.345323,-0.14,0.21,0,-38.5852,-35.3698,3.99006,1009.8
117422,-0.202694,9.76896,0.340541,-0.07,-0.14,-0.07,-37.4452,-35.6621,3.49313,1009.8
117428,-0.221824,9.76418,0.345323,-0.07,0.21,-0.07,-38.0006,-35.5744,3.21543,1009.8
117434,-0.197912,9.74983,0.369235,0,0.07,0.07,-38.4391,-35.9544,3.91698,1009.8
117440,-0.212259,9.74027,0.345323,-0.14,0.14,-0.07,-37.6498,-35.4575,3.44928,1009.8
117446,-0.207477,9.7594,0.354888,0.07,0.07,-0.14,-37.4744,-35.3113,2.96697,1009.8
117452,-0.197912,9.75461,0.35967,0.07,0.21,0,-37.299,-36.4221,3.42005,1009.81
117458,-0.202694,9.77374,0.354888,-0.07,0.07,0.07,-38.176,-35.8959,2.58696,1009.81
117464,-0.231389,9.74027,0.345323,-0.07,0.14,0.07,-38.4391,-35.8667,4.03391,1009.79
117470,-0.212259,9.74983,0.354888,0,0.14,0,-38.0883,-35.8959,3.63929,1009.79
117476,-0.212259,9.7594,0.340541,0.07,0.14,-0.07,-37.8837,-35.6621,2.04619,1009.8
117482,-0.202694,9.79287,0.326194,0,0,-0.07,-37.8252,-35.7206,2.61619,1009.8
117488,-0.207477,9.76418,0.335758,0,-0.07,-0.14,-38.2052,-36.8313,2.47004,1009.81
117494,-0.212259,9.76418,0.350106,0,0,0.07,-38.0298,-36.5975,1.88541,1009.81
117500,-0.221824,9.74983,0.369235,-0.07,0.07,0.07,-37.7083,-36.8606,2.83543,1009.81
117506,-0.202694,9.76896,0.340541,0,0.07,0,-38.4391,-36.6852,2.5285,1009.79
117512,-0.202694,9.76896,0.345323,0,0.21,0,-38.3806,-36.7144,3.31774,1009.79
117518,-0.226606,9.74983,0.340541,0,0,-0.07,-38.4683,-36.2467,3.96083,1009.82
117524,-0.207477,9.76418,0.350106,0,0.21,0,-38.0883,-36.6559,2.82081,1009.82
117530,-0.207477,9.7594,0.35967,0,0.07,0.07,-38.7021,-35.9252,4.73546,1009.82
117536,-0.202694,9.77853,0.340541,0,0.07,0.07,-38.8191,-35.9544,3.12774,1009.82
117542,-0.217042,9.77853,0.350106,-0.07,0.14,0,-38.2344,-36.4221,4.42853,1009.85
117548,-0.207477,9.7594,0.350106,0,0.07,0.14,-38.3221,-36.0713,3.55159,1009.85
117554,-0.207477,9.77374,0.340541,0,0.07,0.07,-37.6498,-35.8082,2.7185,1009.85
117560,-0.217042,9.76896,0.354888,0.07,0.14,0.07,-37.9421,-35.8667,4.00468,1009.84
117566,-0.202694,9.76418,0.335758,0.07,0.07,0,-38.176,-36.0713,3.6539,1009.84
117572,-0.202694,9.77374,0.354888,0.07,0.14,0.07,-37.8837,-36.8021,3.2739,1009.82
117578,-0.202694,9.73549,0.340541,0.07,0.07,0,-38.2052,-36.1298,3.44928,1009.82
117584,-0.207477,9.74983,0.340541,0,0.07,0.07,-38.0298,-36.8606,2.89389,1009.82
117590,-0.212259,9.77853,0.340541,-0.07,0.07,-0.07,-39.4621,-36.2759,3.77083,1009.82
117596,-0.207477,9.76896,0.335758,0,0.14,0.14,-38.0006,-36.0129,3.7416,1009.79
117602,-0.19313,9.76896,0.335758,0.07,0,0.07,-37.796,-36.1882,4.42853,1009.79
117608,-0.236171,9.77374,0.35967,0,0.07,0.07,-38.2052,-35.9252,3.11312,1009.79
117614,-0.19313,9.74505,0.350106,0,0,0.07,-38.059,-36.0713,3.59544,1009.78
117620,-0.226606,9.77853,0.364453,0,0.14,0.07,-37.679,-35.9836,4.56007,1009.78
117626,-0.217042,9.76418,0.330976,0,-0.07,0,-37.7667,-35.8082,3.72698,1009.82
117632,-0.202694,9.76896,0.330976,0.07,0.14,0.07,-37.9421,-36.1006,3.34697,1009.82
117638,-0.197912,9.7594,0.340541,0,0.07,0,-38.1175,-35.8959,3.09851,1009.83
117644,-0.197912,9.75461,0.354888,0,0.14,0.07,-38.4098,-36.1882,3.63929,1009.83
117650,-0.221824,9.78331,0.345323,0.07,-0.07,0.07,-37.8837,-36.3052,3.25928,1009.82
117656,-0.217042,9.78809,0.350106,0,0.21,0.07,-37.9129,-36.2175,3.47852,1009.82
117662,-0.197912,9.7594,0.354888,-0.07,0.07,0.07,-37.796,-36.1298,3.85852,1009.8
117668,-0.197912,9.74983,0.354888,-0.07,0.14,0,-37.8837,-36.4513,1.91464,1009.8
117674,-0.202694,9.7594,0.369235,0,0.07,0,-38.1175,-35.779,2.16311,1009.8
117680,-0.19313,9.76418,0.35967,0,0.07,0.07,-38.0883,-35.2236,4.09237,1009.83
117686,-0.174,9.74505,0.354888,0,0,0,-37.3575,-35.8082,5.04239,1009.83
117692,-0.19313,9.74505,0.35967,0,0,-0.14,-38.556,-36.539,3.14236,1009.82
117698,-0.221824,9.77853,0.335758,0.07,0.07,0,-38.8191,-36.1882,3.34697,1009.82
117704,-0.197912,9.76896,0.335758,0,0.07,0.07,-37.8837,-36.5098,2.90851,1009.83
117710,-0.217042,9.74983,0.307064,-0.07,0,0.07,-38.4683,-36.0129,2.42619,1009.83
117716,-0.197912,9.74983,0.345323,0,0.07,0.07,-38.4098,-36.3344,3.71236,1009.78
117722,-0.197912,9.75461,0.345323,0.14,0.07,-0.07,-38.2929,-36.0129,1.6808,1009.78
117728,-0.197912,9.77374,0.354888,0,0.07,0.07,-38.556,-36.2759,2.9962,1009.78
117734,-0.217042,9.7594,0.340541,-0.07,0.07,0.07,-38.4683,-36.3344,2.7185,1009.76
117740,-0.19313,9.76896,0.35967,0,0.07,0.07,-38.176,-36.2175,3.63929,1009.76
117746,-0.231389,9.76418,0.345323,0,0.14,0.07,-38.1467,-36.3052,3.78544,1009.78
117752,-0.207477,9.75461,0.350106,0.07,0.07,0.07,-38.556,-35.8375,2.10465,1009.78
117758,-0.217042,9.74983,0.335758,0,0.14,0.07,-38.059,-36.0421,2.61619,1009.78
117764,-0.207477,9.76418,0.364453,0.07,0.14,0,-38.9068,-36.1882,3.61006,1009.78
117770,-0.207477,9.75461,0.364453,-0.07,0.14,0.07,-38.3221,-36.4806,3.69775,1009.8
117776,-0.217042,9.76418,0.345323,0,0,-0.07,-38.4391,-36.2467,2.9962,1009.8
117782,-0.212259,9.77853,0.335758,0,0.14,-0.07,-37.8544,-36.3344,3.06928,1009.81
117788,-0.217042,9.76418,0.350106,0.07,0.07,-0.07,-38.4391,-36.159,3.82929,1009.81
117794,-0.207477,9.76418,0.345323,0.07,0,-0.07,-39.2575,-36.0129,2.98158,1009.81
117800,-0.212259,9.75461,0.326194,0,0.28,0.07,-38.5852,-35.0775,3.91698,1009.8
117806,-0.197912,9.77374,0.345323,-0.07,0.14,0,-38.1467,-36.2175,3.33236,1009.8
117812,-0.207477,9.7594,0.350106,-0.07,0,0,-38.4683,-35.9252,3.43467,1009.82
117818,-0.212259,9.76418,0.340541,-0.07,0.14,0,-38.0883,-35.7498,2.35311,1009.82
117824,-0.188347,9.78331,0.340541,0,0.14,-0.07,-39.1406,-36.2175,2.38234,1009.81
117830,-0.197912,9.7594,0.364453,-0.07,0.14,0,-38.0298,-36.3052,3.28851,1009.81
117836,-0.207477,9.75461,0.35967,0,0.14,0,-38.4098,-35.4282,3.59544,1009.78
117842,-0.19313,9.76418,0.35967,-0.07,0.07,0,-38.3514,-36.3636,3.52236,1009.78
117848,-0.19313,9.76418,0.35967,0,0.07,0.07,-38.1175,-35.9544,1.38848,1009.78
117854,-0.207477,9.77374,0.330976,-0.07,0.14,0.07,-37.8544,-36.4221,2.74773,1009.81
117860,-0.19313,9.74505,0.354888,-0.07,0.14,0,-38.0006,-36.3636,3.36159,1009.81
117866,-0.197912,9.74505,0.369235,-0.07,0.07,0.07,-37.8252,-36.3636,3.08389,1009.79
117872,-0.174,9.77853,0.326194,0.07,0.14,0,-38.7314,-36.3636,3.66852,1009.79
117878,-0.202694,9.79766,0.330976,-0.14,0.14,-0.14,-38.0298,-35.9836,2.26542,1009.85
117884,-0.217042,9.74505,0.35967,-0.14,0.07,0,-38.4683,-35.4575,2.44081,1009.85
117890,-0.231389,9.74505,0.354888,0,0.07,0,-38.8191,-36.9775,2.86466,1009.8
117896,-0.212259,9.76896,0.330976,-0.07,0.14,-0.21,-39.1991,-36.539,1.24233,1009.8
117902,-0.207477,9.79287,0.345323,0,0,0,-38.556,-36.2175,2.90851,1009.8
117908,-0.183565,9.7594,0.311846,-0.07,0.28,0.07,-38.6144,-35.7206,1.95849,1009.78
117914,-0.236171,9.74505,0.35967,-0.14,0.07,0,-37.8252,-35.6329,2.3385,1009.78
117920,-0.183565,9.76896,0.330976,0,0.07,0,-38.0883,-36.0421,2.47004,1009.79
117926,-0.19313,9.77374,0.316629,0,0.14,0,-38.2052,-36.0129,1.54925,1009.79
117932,-0.207477,9.77374,0.340541,-0.14,0.07,0.07,-38.4975,-36.0129,2.14849,1009.81
117938,-0.202694,9.76418,0.364453,0.07,0.07,0,-37.7667,-35.9544,2.54312,1009.81
117944,-0.226606,9.7594,0.335758,-0.07,0.21,0,-38.3806,-35.5452,1.54925,1009.8
117950,-0.207477,9.76418,0.350106,-0.07,0.07,0,-38.059,-35.5744,3.21543,1009.8
117956,-0.19313,9.75461,0.35967,-0.14,0.14,-0.07,-37.8837,-35.9252,1.72464,1009.8
117962,-0.207477,9.74505,0.340541,0.07,0.07,-0.07,-38.0006,-35.5744,2.85004,1009.8
117968,-0.217042,9.75461,0.330976,-0.14,0.21,0,-38.059,-36.539,2.14849,1009.8
117974,-0.212259,9.76418,0.340541,-0.07,0.14,-0.07,-38.176,-35.779,3.24467,1009.81
117980,-0.217042,9.76418,0.326194,-0.14,0.07,-0.07,-38.0006,-36.5098,4.13622,1009.81
117986,-0.212259,9.7594,0.345323,-0.07,0.07,0,-38.059,-35.9544,2.32388,1009.82
117992,-0.202694,9.76418,0.364453,-0.07,0.07,0,-38.1175,-36.0129,2.93774,1009.82
117998,-0.212259,9.76418,0.374018,-0.14,0.14,-0.07,-38.5267,-36.3052,1.49079,1009.84
118004,-0.197912,9.76896,0.326194,-0.07,0.28,0.07,-38.176,-35.5452,3.56621,1009.84
118010,-0.212259,9.74983,0.345323,-0.14,0.28,0,-37.796,-35.6329,2.48465,1009.83
118016,-0.226606,9.74983,0.369235,0.07,0.14,-0.07,-37.9421,-36.1298,2.23619,1009.83
118022,-0.207477,9.74983,0.321411,-0.07,0.14,0.07,-38.2929,-35.8959,2.70389,1009.83
118028,-0.202694,9.76418,0.35967,0,0.07,0.07,-37.8252,-36.3929,3.49313,1009.8
118034,-0.212259,9.7594,0.345323,-0.07,0.14,0,-38.4098,-36.7144,1.41771,1009.8
118040,-0.188347,9.77853,0.321411,0,0.07,0,-37.8837,-36.6559,2.35311,1009.79
118046,-0.188347,9.76896,0.326194,-0.07,0.07,0,-38.0006,-36.6267,2.73312,1009.79
118052,-0.202694,9.76418,0.350106,-0.07,0.14,0.07,-38.4683,-36.0713,3.49313,1009.78
118058,-0.212259,9.77853,0.350106,-0.07,0.14,-0.07,-38.3806,-35.7206,2.70389,1009.78
118064,-0.202694,9.74983,0.335758,-0.21,0.21,-0.07,-38.1467,-36.3929,2.23619,1009.78
118070,-0.202694,9.75461,0.369235,-0.07,0.07,-0.07,-38.2929,-36.0421,2.63081,1009.78
118076,-0.188347,9.7594,0.345323,-0.07,0.21,0,-37.4744,-36.539,2.73312,1009.78
118082,-0.197912,9.75461,0.350106,-0.07,0,-0.07,-37.9714,-35.8375,2.07542,1009.84
118088,-0.197912,9.75461,0.350106,-0.07,0.07,0,-38.0883,-35.7206,3.47852,1009.84
118094,-0.202694,9.75461,0.374018,-0.07,0.07,0,-38.3514,-36.0713,3.08389,1009.81
118100,-0.226606,9.77374,0.35967,-0.07,0.14,0,-37.679,-37.2698,1.35925,1009.81
118106,-0.207477,9.77374,0.340541,-0.07,0.14,0,-38.2637,-35.779,2.0608,1009.78
118112,-0.19313,9.7594,0.335758,0,0.07,0,-37.796,-36.3052,2.19234,1009.78
118118,-0.188347,9.77374,0.374018,-0.07,0.14,0,-38.3221,-35.1067,1.88541,1009.79
118124,-0.217042,9.74505,0.345323,-0.21,0.07,0,-37.9714,-35.779,2.51388,1009.79
118130,-0.217042,9.74505,0.350106,0,0.14,0,-38.2344,-36.159,2.14849,1009.82
118136,-0.212259,9.77374,0.340541,-0.07,0.07,0,-38.0298,-35.9252,2.98158,1009.82
118142,-0.197912,9.75461,0.340541,0,0.14,0.07,-38.5852,-35.8959,2.66004,1009.82
118148,-0.19313,9.7594,0.345323,-0.07,-0.07,0,-38.0298,-35.6621,2.74773,1009.83
118154,-0.202694,9.76418,0.345323,-0.14,0.14,0.07,-37.9129,-35.399,2.3385,1009.83
118160,-0.202694,9.76896,0.345323,-0.14,0.14,0,-37.299,-35.5744,1.54925,1009.8
118166,-0.202694,9.76896,0.350106,-0.07,0.21,0,-37.299,-35.7206,2.17773,1009.8
118172,-0.207477,9.75461,0.350106,-0.07,0,0,-37.9714,-35.6036,1.02309,1009.79
118178,-0.207477,9.74505,0.335758,-0.07,0.14,0.07,-38.2637,-36.1882,3.7416,1009.79
118184,-0.226606,9.77374,0.326194,0,0,0,-38.3221,-36.1006,4.45776,1009.82
118190,-0.217042,9.7594,0.35967,0,0.14,0,-38.1467,-35.8667,3.04005,1009.82
118196,-0.221824,9.73549,0.345323,0.07,0.07,-0.07,-38.3806,-35.0775,3.08389,1009.82
118202,-0.202694,9.76896,0.354888,0,0.14,0,-37.3867,-35.779,1.95849,1009.79
118208,-0.207477,9.76896,0.335758,-0.14,0.21,0,-38.1467,-35.399,1.8708,1009.79
118214,-0.197912,9.77853,0.354888,0,0.21,0,-37.3283,-35.4282,3.14236,1009.78
118220,-0.212259,9.7594,0.369235,-0.07,0.07,0,-37.5329,-35.8375,3.81467,1009.78
118226,-0.197912,9.75461,0.340541,-0.07,0.14,0,-37.7667,-35.6036,3.11312,1009.8
118232,-0.212259,9.7594,0.369235,-0.07,0.14,0,-38.7314,-36.7144,3.99006,1009.8
118238,-0.19313,9.7594,0.35967,-0.07,0.14,0.07,-37.5913,-36.539,3.75621,1009.79
118244,-0.217042,9.74505,0.340541,0,0.07,0,-37.7375,-36.1298,3.34697,1009.79
118250,-0.217042,9.76418,0.330976,0,0.14,0,-38.176,-36.3929,3.05466,1009.82
118256,-0.236171,9.7594,0.35967,0,0.14,0.07,-38.0006,-36.5683,3.47852,1009.82
118262,-0.217042,9.77853,0.354888,0,0.14,0,-37.416,-36.0421,3.90237,1009.82
118268,-0.207477,9.78331,0.369235,-0.07,0,-0.07,-38.0883,-35.8375,3.02543,1009.79
118274,-0.19313,9.7594,0.354888,0,0.07,0,-37.796,-35.8082,2.3385,1009.79
118280,-0.217042,9.76896,0.354888,0,0.07,-0.07,-38.176,-36.4221,4.09237,1009.81
118286,-0.202694,9.7594,0.388365,0,0.07,0,-38.5852,-35.9252,3.9316,1009.81
118292,-0.197912,9.74505,0.340541,0.07,0.14,-0.07,-37.796,-36.0713,2.77697,1009.84
118298,-0.221824,9.76418,0.364453,-0.07,-0.07,0.07,-38.1467,-35.779,2.77697,1009.84
118304,-0.197912,9.77374,0.364453,0,-0.07,-0.14,-38.1467,-36.1298,2.20696,1009.79
118310,-0.202694,9.7594,0.35967,0.07,0.07,0,-38.7606,-36.3344,3.15697,1009.79
118316,-0.202694,9.77853,0.35967,0,0.14,0,-37.8252,-35.779,2.22157,1009.79
118322,-0.212259,9.76418,0.35967,0,0,0.07,-37.3283,-34.9898,2.55773,1009.8
118328,-0.188347,9.76418,0.364453,0,0.07,-0.07,-37.679,-36.2175,3.30313,1009.8
118334,-0.221824,9.77853,0.350106,0.07,0.14,0,-37.7667,-36.2175,2.54312,1009.81
118340,-0.202694,9.77853,0.354888,0,0.07,0,-37.416,-36.0713,3.75621,1009.81
118346,-0.217042,9.77374,0.364453,0.07,0.07,0.07,-37.6498,-36.0713,2.61619,1009.82
118352,-0.231389,9.74983,0.374018,0.07,0.14,0,-37.416,-35.8375,2.10465,1009.82
118358,-0.269648,9.70679,0.383582,0,0.07,0.21,-37.5329,-36.2467,3.12774,1009.81
118364,-0.178782,9.74983,0.364453,0.14,-0.28,0.07,-38.2052,-36.3344,3.20082,1009.81
118370,-0.150088,9.8407,0.25924,-0.07,0.42,0,-37.1236,-35.9836,2.14849,1009.81
118376,-0.298342,9.77853,0.35967,-0.28,0.14,-0.14,-38.5267,-36.0129,3.36159,1009.8
118382,-0.178782,9.72592,0.3788,0.07,-0.14,-0.07,-37.3283,-35.9544,3.47852,1009.8
118388,-0.202694,9.76896,0.350106,0.14,0.07,0.07,-37.5621,-35.8667,2.87928,1009.83
118394,-0.217042,9.76896,0.350106,0,0,0.07,-38.1175,-35.8082,3.04005,1009.83
118400,-0.178782,9.77853,0.345323,0,-0.07,0,-38.2052,-35.3405,2.64543,1009.83
118406,-0.217042,9.7594,0.3788,0,0,-0.07,-37.7083,-35.8082,3.63929,1009.83
118412,-0.221824,9.76418,0.350106,-0.07,-0.14,-0.21,-38.4098,-34.9898,2.60158,1009.81
118418,-0.188347,9.75461,0.354888,0.07,0.07,0.07,-38.0883,-35.8082,3.24467,1009.81
118424,-0.236171,9.75461,0.340541,-0.07,0.14,-0.07,-38.4098,-35.9252,3.28851,1009.8
118430,-0.217042,9.75461,0.374018,-0.07,-0.07,0,-38.4098,-35.9836,2.22157,1009.8
118436,-0.207477,9.7594,0.383582,-0.07,0.07,-0.07,-37.5621,-35.7206,3.87314,1009.8
118442,-0.207477,9.73549,0.330976,0,0.07,-0.07,-38.5852,-35.9544,2.2508,1009.79
118448,-0.197912,9.74983,0.35967,0,0.14,0,-38.6144,-35.4282,3.88775,1009.79
118454,-0.226606,9.76418,0.350106,0,0,-0.07,-38.5267,-36.2759,3.37621,1009.85
118460,-0.226606,9.74505,0.354888,0,0.07,0,-38.556,-35.8082,3.50775,1009.85
118466,-0.19313,9.76896,0.369235,0.14,0,0,-38.4098,-35.6913,2.17773,1009.8
118472,-0.217042,9.78331,0.340541,0.07,0.07,-0.07,-37.8837,-35.5159,3.06928,1009.8
118478,-0.221824,9.75461,0.3788,0.07,0,0,-38.0006,-36.7436,3.05466,1009.84
118484,-0.212259,9.75461,0.354888,0,0.07,0,-38.4975,-36.3052,4.07775,1009.84
118490,-0.212259,9.78809,0.330976,0.07,0.07,-0.07,-39.316,-35.5452,2.92312,1009.84
118496,-0.197912,9.76418,0.364453,0,0.07,-0.07,-37.6206,-36.8606,2.82081,1009.81
118502,-0.226606,9.74505,0.369235,0,-0.07,0,-38.059,-35.779,4.45776,1009.81
118508,-0.202694,9.76418,0.35967,0.07,0.07,-0.07,-38.5267,-36.539,3.15697,1009.79
118514,-0.217042,9.78331,0.340541,0.07,-0.14,-0.28,-38.2929,-36.159,2.90851,1009.79
118520,-0.231389,9.74027,0.345323,0.07,0.07,0,-38.3514,-36.7436,2.86466,1009.81
118526,-0.19313,9.78331,0.369235,0,0,0,-38.0883,-35.8375,2.23619,1009.81
118532,-0.221824,9.78809,0.340541,-0.07,0.14,-0.07,-37.796,-36.0129,3.2739,1009.78
118538,-0.212259,9.76418,0.340541,-0.14,0,-0.07,-38.4098,-36.3052,2.85004,1009.78
118544,-0.212259,9.73549,0.335758,-0.07,0.07,-0.07,-38.8191,-35.8082,4.28237,1009.78
118550,-0.221824,9.77853,0.364453,0,0.07,0,-38.059,-36.0129,2.36773,1009.77
118556,-0.236171,9.76896,0.330976,-0.07,0.07,-0.07,-38.3514,-36.4806,3.85852,1009.77
118562,-0.221824,9.77853,0.364453,-0.07,0,-0.07,-38.3514,-36.3636,2.85004,1009.81
118568,-0.202694,9.76896,0.35967,-0.14,0.14,-0.07,-38.4683,-36.3929,2.55773,1009.81
118574,-0.207477,9.79287,0.369235,-0.14,0.07,-0.07,-38.1467,-36.7144,3.04005,1009.79
118580,-0.207477,9.76896,0.35967,-0.14,0.14,-0.07,-38.176,-36.4806,2.74773,1009.79
118586,-0.221824,9.76896,0.35967,-0.14,0.14,-0.07,-38.5267,-36.1298,2.82081,1009.82
118592,-0.221824,9.77853,0.35967,-0.14,0.21,-0.07,-38.4098,-36.0713,3.47852,1009.82
118598,-0.231389,9.75461,0.345323,-0.07,0,-0.14,-37.8252,-36.1298,3.99006,1009.82
118604,-0.202694,9.74505,0.350106,-0.14,0.14,-0.07,-37.9129,-35.5159,3.6539,1009.82
118610,-0.19313,9.76418,0.335758,-0.07,-0.07,-0.14,-38.3514,-35.6621,1.7831,1009.82
118616,-0.231389,9.74505,0.364453,-0.07,0.07,-0.21,-38.176,-36.1882,3.01082,1009.77
118622,-0.202694,9.7594,0.369235,-0.07,0,-0.07,-39.0821,-36.1298,3.40544,1009.77
118628,-0.212259,9.77374,0.35967,-0.14,0.07,-0.21,-37.8544,-36.2467,2.10465,1009.8
118634,-0.197912,9.7594,0.350106,-0.14,0,-0.14,-38.059,-35.7498,0.950015,1009.8
118640,-0.202694,9.76418,0.354888,-0.14,0,-0.14,-38.4391,-35.6036,1.43233,1009.83
118646,-0.202694,9.76418,0.354888,-0.21,0.07,-0.21,-39.0821,-35.6913,3.17159,1009.83
118652,-0.212259,9.75461,0.354888,-0.14,0.14,-0.21,-38.3514,-36.3636,3.36159,1009.81
118658,-0.202694,9.78331,0.354888,-0.14,0.07,-0.14,-38.5267,-36.1006,2.63081,1009.81
118664,-0.226606,9.7594,0.369235,-0.21,0.14,-0.21,-37.7667,-36.4513,3.50775,1009.81
118670,-0.212259,9.7594,0.350106,-0.14,0.07,-0.14,-37.9421,-35.6913,2.86466,1009.83
118676,-0.226606,9.77374,0.3788,-0.14,0.21,-0.14,-37.3867,-35.8375,3.90237,1009.83
118682,-0.231389,9.76418,0.3788,-0.14,0.07,-0.14,-37.8252,-36.2759,3.25928,1009.82
118688,-0.207477,9.72114,0.364453,-0.14,0.07,-0.21,-39.1114,-36.3636,3.72698,1009.82
118694,-0.226606,9.78331,0.326194,0,0,-0.07,-38.176,-35.6621,2.9962,1009.79
118700,-0.226606,9.77374,0.340541,-0.14,0.07,-0.21,-37.3283,-36.2467,3.2739,1009.79
118706,-0.221824,9.76418,0.369235,-0.21,0,-0.14,-37.7667,-35.779,4.18006,1009.81
118712,-0.221824,9.76896,0.354888,-0.14,0.07,-0.14,-39.0821,-36.3052,1.2131,1009.81
118718,-0.221824,9.76418,0.388365,-0.14,0.14,-0.14,-38.4683,-36.2175,2.98158,1009.79
118724,-0.231389,9.77374,0.3788,-0.21,0.07,-0.14,-37.8252,-35.8082,2.70389,1009.79
118730,-0.245736,9.74027,0.3788,0,0,-0.07,-38.059,-36.6267,4.00468,1009.79
118736,-0.217042,9.76896,0.354888,0,0.07,0,-38.4391,-35.9836,4.23853,1009.82
118742,-0.231389,9.75461,0.345323,0,0,-0.14,-38.6437,-35.8375,3.90237,1009.82
118748,-0.202694,9.72592,0.364453,0,-0.07,-0.07,-37.9714,-35.8667,3.77083,1009.79
118754,-0.217042,9.74505,0.388365,0.07,0.07,0,-37.9714,-36.4513,4.64776,1009.79
118760,-0.212259,9.74983,0.364453,0,0.07,-0.07,-38.1175,-35.9252,2.57235,1009.82
118766,-0.202694,9.7594,0.374018,0,0.07,-0.14,-37.8837,-35.6036,3.99006,1009.82
118772,-0.207477,9.78331,0.354888,0,0,-0.21,-38.0883,-35.4575,3.7416,1009.82
118778,-0.221824,9.76896,0.35967,-0.07,0.14,-0.14,-38.1467,-36.0421,3.04005,1009.82
118784,-0.221824,9.76418,0.369235,0.07,-0.07,-0.14,-38.0883,-35.9544,2.89389,1009.82
118790,-0.197912,9.75461,0.383582,0,0.14,-0.14,-38.2929,-35.5159,2.86466,1009.82
118796,-0.221824,9.78809,0.35967,0,-0.07,-0.14,-38.176,-35.8667,2.70389,1009.82
118802,-0.212259,9.77374,0.354888,0,0,-0.21,-38.4391,-36.2467,1.73926,1009.81
118808,-0.217042,9.7594,0.354888,-0.07,0,-0.28,-38.6144,-35.399,3.58082,1009.81
118814,-0.207477,9.76418,0.369235,-0.21,0.07,-0.14,-38.4391,-35.5744,4.26776,1009.78
118820,-0.221824,9.74983,0.35967,0,-0.21,-0.49,-39.0237,-35.4282,3.66852,1009.78
118826,-0.207477,9.76896,0.350106,-0.07,0.07,-0.21,-38.9068,-36.1006,3.33236,1009.79
118832,-0.221824,9.78331,0.345323,-0.21,0,-0.28,-38.7898,-36.4513,3.69775,1009.79
118838,-0.240954,9.76896,0.374018,-0.21,0.21,-0.21,-38.1467,-35.779,2.98158,1009.79
118844,-0.212259,9.75461,0.354888,-0.14,-0.07,-0.35,-38.8191,-35.5744,4.44315,1009.82
118850,-0.245736,9.76418,0.35967,-0.07,0.07,-0.21,-38.7606,-35.399,4.23853,1009.82
118856,-0.240954,9.76896,0.364453,-0.07,-0.07,-0.21,-38.7606,-35.5159,4.13622,1009.81
118862,-0.226606,9.74505,0.330976,-0.14,0.14,-0.21,-37.5913,-35.2528,3.63929,1009.81
118868,-0.221824,9.76418,0.369235,0.07,0.07,-0.21,-37.679,-35.9836,3.77083,1009.81
118874,-0.226606,9.74505,0.374018,-0.07,0.07,-0.28,-38.176,-35.7206,3.30313,1009.81
118880,-0.240954,9.74027,0.39793,-0.07,0.07,-0.14,-37.9714,-35.5744,3.14236,1009.82
118886,-0.240954,9.79287,0.369235,0.07,0.07,-0.14,-38.3221,-36.4806,3.71236,1009.82
118892,-0.19313,9.77374,0.345323,-0.07,-0.14,-0.14,-38.7898,-36.3636,3.52236,1009.82
118898,-0.221824,9.77374,0.383582,-0.07,0,-0.14,-38.2344,-36.1298,4.32622,1009.82
118904,-0.231389,9.74027,0.35967,0.07,0,-0.14,-38.7021,-36.3929,4.2093,1009.82
118910,-0.212259,9.76418,0.383582,-0.07,0.07,-0.14,-38.8775,-35.9544,2.49927,1009.82
118916,-0.221824,9.74983,0.383582,-0.07,0.07,-0.21,-39.4329,-36.159,2.10465,1009.82
118922,-0.207477,9.72592,0.3788,0,0,-0.14,-38.6437,-36.6852,2.19234,1009.82
118928,-0.236171,9.74983,0.3788,0.07,0,-0.14,-37.796,-36.159,3.24467,1009.82
118934,-0.264866,9.73549,0.369235,0,-0.07,-0.14,-38.4975,-35.6329,3.21543,1009.84
118940,-0.221824,9.74983,0.369235,0.07,-0.14,-0.14,-38.2637,-35.9252,3.02543,1009.84
118946,-0.260083,9.77374,0.364453,0.14,0.07,-0.07,-37.9421,-35.399,3.68313,1009.77
118952,-0.269648,9.74505,0.354888,0.14,-0.07,0,-38.3221,-35.4867,3.15697,1009.77
118958,-0.188347,9.75461,0.364453,0.14,0.07,-0.07,-38.176,-36.3344,3.01082,1009.77
118964,-0.226606,9.74983,0.345323,0.14,0,-0.14,-37.9714,-35.9252,4.04852,1009.78
118970,-0.207477,9.75461,0.369235,0,0.07,-0.07,-38.1175,-36.1006,3.34697,1009.78
118976,-0.221824,9.74505,0.374018,0.14,-0.07,-0.07,-38.4683,-36.0713,3.49313,1009.82
118982,-0.217042,9.76896,0.383582,0.07,0.07,0,-39.0529,-36.2759,2.58696,1009.82
118988,-0.240954,9.78809,0.35967,0.07,0.07,0,-38.4975,-35.9544,2.2508,1009.81
118994,-0.226606,9.75461,0.350106,0,0.07,0,-38.7606,-35.4575,3.01082,1009.81
119000,-0.221824,9.75461,0.388365,0.14,0,-0.07,-37.9129,-36.919,3.31774,1009.8
119006,-0.231389,9.75461,0.345323,0.14,0,0,-38.556,-35.8667,3.15697,1009.8
119012,-0.217042,9.77853,0.35967,0.14,-0.07,0,-38.9068,-36.4513,2.41158,1009.8
119018,-0.197912,9.77374,0.369235,0,0,-0.07,-38.2344,-36.0713,2.3385,1009.81
119024,-0.250518,9.77374,0.388365,0.14,0.14,0,-38.556,-36.0129,3.28851,1009.81
119030,-0.236171,9.74505,0.369235,0,0,-0.07,-38.3221,-35.4867,3.08389,1009.79
119036,-0.231389,9.77853,0.364453,0.07,0,-0.07,-38.6729,-36.2759,3.6539,1009.79
119042,-0.236171,9.77374,0.369235,0,0,-0.14,-38.8191,-35.6329,2.86466,1009.82
119048,-0.264866,9.77374,0.383582,0,-0.14,-0.07,-38.9944,-36.3636,2.76235,1009.82
119054,-0.226606,9.74027,0.388365,0,0,-0.07,-38.1467,-35.7206,4.34084,1009.82
119060,-0.231389,9.77374,0.345323,0.07,0,0,-37.9129,-36.539,3.53698,1009.82
119066,-0.217042,9.76896,0.35967,0.07,-0.07,0,-38.176,-36.5683,3.78544,1009.79
119072,-0.236171,9.74027,0.3788,0,0,0,-38.6144,-34.9605,3.04005,1009.79
119078,-0.207477,9.74505,0.354888,0.14,-0.14,0,-38.1175,-35.5452,3.1862,1009.79
119084,-0.260083,9.82635,0.3788,-0.07,-0.07,0,-37.5913,-35.779,2.74773,1009.79
119090,-0.217042,9.72592,0.369235,0,-0.14,0,-37.5329,-36.1298,2.92312,1009.79
119096,-0.221824,9.7594,0.374018,0,0,0.07,-37.2406,-35.9544,3.24467,1009.79
119102,-0.236171,9.76418,0.369235,0.07,0,-0.07,-38.2344,-35.6329,2.64543,1009.79
119108,-0.231389,9.76418,0.388365,0,0.07,0.07,-38.4391,-35.5452,2.42619,1009.79
119114,-0.236171,9.73549,0.383582,0.07,0,0,-37.7667,-35.6621,2.5285,1009.79
119120,-0.202694,9.7594,0.369235,0.07,0.07,0.07,-38.3514,-36.3344,2.42619,1009.81
119126,-0.231389,9.77374,0.369235,0.07,0,0,-39.1698,-35.8959,2.73312,1009.81
119132,-0.240954,9.76896,0.374018,0.14,0.07,0.14,-38.6729,-35.779,3.23005,1009.81
119138,-0.226606,9.7594,0.3788,0.14,-0.07,0,-37.9129,-36.1006,2.60158,1009.8
119144,-0.212259,9.77374,0.374018,0.14,0,0,-38.2929,-36.919,2.64543,1009.8
119150,-0.231389,9.75461,0.345323,0.07,0,0.07,-38.4683,-36.0713,2.28004,1009.79
119156,-0.217042,9.75461,0.3788,0.14,0,0.07,-38.3221,-36.0713,2.0608,1009.79
119162,-0.226606,9.77853,0.350106,0.07,0.14,0,-38.2637,-36.3636,1.90003,1009.83
119168,-0.226606,9.77374,0.374018,0,0,0,-37.8544,-35.7206,1.76849,1009.83
119174,-0.217042,9.76418,0.383582,0.07,0.07,-0.07,-38.556,-36.2467,2.86466,1009.82
119180,-0.240954,9.76896,0.345323,0.21,0,-0.07,-37.9129,-35.9836,2.28004,1009.82
119186,-0.202694,9.77374,0.326194,0.07,0.14,0,-38.176,-35.9836,2.0608,1009.82
119192,-0.236171,9.78331,0.35967,0,0.07,0,-37.5329,-35.7206,2.48465,1009.81
119198,-0.217042,9.73549,0.364453,0,0.07,-0.07,-38.1175,-36.2467,2.13388,1009.81
119204,-0.231389,9.73549,0.3788,0.07,0.14,0,-38.5852,-35.5744,3.14236,1009.77
119210,-0.236171,9.76418,0.345323,0.14,0.07,0,-38.8191,-35.1067,2.76235,1009.77
119216,-0.221824,9.76896,0.350106,0,0.07,0,-39.0529,-35.5452,3.84391,1009.78
119222,-0.212259,9.74983,0.35967,0,0.07,-0.07,-37.8252,-36.1006,2.89389,1009.78
119228,-0.217042,9.76418,0.369235,0,0.14,0.14,-38.4098,-36.0421,2.77697,1009.8
119234,-0.226606,9.74505,0.369235,0,0,-0.07,-38.6144,-36.0421,2.58696,1009.8
119240,-0.221824,9.74027,0.388365,0,0.07,0,-37.4744,-35.4867,2.76235,1009.81
119246,-0.231389,9.79766,0.330976,0,0,-0.07,-37.8837,-36.1006,3.25928,1009.81
119252,-0.197912,9.80244,0.335758,-0.14,-0.07,-0.07,-38.2637,-35.9252,2.70389,1009.81
119258,-0.226606,9.66853,0.412277,-0.07,0.14,0,-38.1467,-36.1298,3.49313,1009.81
119264,-0.264866,9.70201,0.412277,0.42,0,0.07,-37.5329,-35.3698,3.11312,1009.81
119270,-0.188347,9.81679,0.297499,0.14,-0.07,0,-38.0006,-36.3344,2.95235,1009.78
119276,-0.202694,9.77853,0.316629,-0.07,0.07,0,-38.7898,-36.6559,2.54312,1009.78
119282,-0.231389,9.72114,0.388365,0,0,-0.07,-37.7083,-35.6329,2.70389,1009.82
119288,-0.212259,9.77374,0.383582,0.21,0.07,-0.07,-38.5852,-36.7436,3.20082,1009.82
119294,-0.202694,9.84548,0.273587,0,0.14,-0.14,-37.9714,-36.2759,2.58696,1009.79
119300,-0.288778,9.78809,0.455318,-0.49,-0.07,-0.07,-38.4098,-35.1944,1.8708,1009.79
119306,-0.217042,9.67331,0.455318,0.21,0,0,-38.0006,-35.9252,2.77697,1009.79
119312,-0.19313,9.82635,0.326194,0.42,-0.07,0,-38.4975,-36.6852,3.06928,1009.8
119318,-0.226606,9.8407,0.307064,0,0.14,0,-38.2052,-36.3636,3.33236,1009.8
119324,-0.240954,9.74027,0.3788,-0.07,0,-0.07,-38.2637,-36.4221,2.20696,1009.8
119330,-0.231389,9.77374,0.369235,-0.07,0.21,0.28,-37.9421,-35.399,2.3385,1009.8
119336,-0.221824,9.79287,0.350106,0,0,-0.07,-38.2929,-35.9836,2.90851,1009.78
119342,-0.207477,9.78809,0.340541,-0.07,0.14,-0.07,-38.7898,-35.4867,3.02543,1009.78
119348,-0.231389,9.74505,0.426624,-0.07,0.14,0,-38.9652,-36.0129,3.63929,1009.8
119354,-0.245736,9.72114,0.388365,0.07,0.07,0,-38.9944,-35.8667,4.06314,1009.8
119360,-0.226606,9.80722,0.340541,0.07,-0.07,-0.07,-37.8544,-35.7498,3.56621,1009.79
119366,-0.202694,9.79287,0.330976,0,0.14,-0.14,-37.8544,-36.0129,2.60158,1009.79
119372,-0.231389,9.75461,0.393147,0,0,-0.07,-38.3806,-36.2175,3.06928,1009.79
119378,-0.207477,9.75461,0.369235,0.07,0.07,-0.07,-37.9714,-36.3052,2.86466,1009.84
119384,-0.231389,9.76896,0.369235,0.14,0,0,-37.8837,-36.159,2.01695,1009.84
119390,-0.236171,9.7594,0.35967,0,0.21,0,-38.4683,-35.9836,3.96083,1009.84
119396,-0.212259,9.77374,0.364453,0.14,0,-0.07,-37.5329,-35.8375,1.85618,1009.84
119402,-0.231389,9.78331,0.369235,0,0.07,0.07,-37.3867,-35.2821,3.23005,1009.82
119408,-0.226606,9.74027,0.369235,0.07,0,0.07,-37.9714,-36.0421,2.17773,1009.82
119414,-0.207477,9.75461,0.3788,0.14,0.07,0,-37.4452,-36.2175,2.22157,1009.82
119420,-0.221824,9.74027,0.369235,0.14,0,0,-38.9944,-36.3636,3.49313,1009.82
119426,-0.221824,9.79287,0.35967,0,0,-0.07,-38.4391,-36.3929,2.36773,1009.82
119432,-0.221824,9.79287,0.350106,-0.07,0.07,-0.07,-39.4621,-36.3344,1.91464,1009.84
119438,-0.240954,9.74027,0.35967,0,0.07,0,-37.8252,-36.0129,2.49927,1009.84
119444,-0.231389,9.7594,0.350106,0.07,0.07,0,-38.2344,-36.159,2.49927,1009.79
119450,-0.240954,9.78331,0.35967,-0.07,0.14,0,-38.8483,-36.3344,2.2508,1009.79
119456,-0.240954,9.77853,0.364453,0,0,-0.07,-38.2052,-35.6329,3.05466,1009.79
119462,-0.236171,9.74027,0.354888,0,0.07,0,-38.3514,-36.4221,2.03157,1009.79
119468,-0.221824,9.76896,0.374018,0,0.07,-0.07,-38.3514,-36.1298,2.74773,1009.78
119474,-0.226606,9.77374,0.374018,0.14,0.07,0.07,-38.176,-36.1882,4.03391,1009.78
119480,-0.231389,9.76418,0.369235,0.07,0.07,0,-38.9068,-36.1006,2.51388,1009.78
119486,-0.221824,9.75461,0.335758,0,0.07,-0.07,-38.8191,-35.9544,3.40544,1009.78
119492,-0.245736,9.74505,0.383582,0,0.14,-0.07,-38.2052,-35.8667,3.40544,1009.78
119498,-0.221824,9.76418,0.350106,0.07,0,-0.07,-38.7314,-36.9775,1.38848,1009.8
119504,-0.197912,9.78331,0.35967,0.07,0.07,-0.21,-38.176,-36.4513,2.96697,1009.8
119510,-0.212259,9.79287,0.326194,-0.07,0,-0.14,-38.2344,-36.3052,3.09851,1009.81
119516,-0.217042,9.77853,0.340541,-0.07,0,-0.07,-38.1467,-36.6559,2.87928,1009.81
119522,-0.236171,9.71636,0.402712,-0.28,0,-0.21,-38.1175,-35.8667,2.36773,1009.8
119528,-0.245736,9.71636,0.388365,0.07,0.07,-0.21,-38.9068,-36.8606,3.25928,1009.8
119534,-0.221824,9.78809,0.340541,0,-0.07,-0.21,-37.9421,-36.1006,1.88541,1009.87
119540,-0.202694,9.79287,0.335758,-0.14,0.14,0,-37.7667,-35.019,2.8062,1009.87
119546,-0.226606,9.74983,0.35967,-0.14,0.07,-0.21,-38.7314,-36.5683,2.03157,1009.87
119552,-0.226606,9.74027,0.388365,-0.07,0,-0.21,-38.2344,-35.5159,2.22157,1009.8
119558,-0.221824,9.7594,0.35967,-0.07,0.07,-0.14,-38.556,-35.9252,2.79158,1009.8
119564,-0.240954,9.80244,0.354888,-0.07,0.07,-0.21,-38.0883,-36.5098,2.57235,1009.82
119570,-0.236171,9.7594,0.354888,-0.14,0.07,-0.14,-39.1114,-36.6267,2.54312,1009.82
119576,-0.217042,9.77374,0.364453,-0.14,0.07,-0.14,-38.556,-35.7206,2.47004,1009.82
119582,-0.250518,9.76896,0.354888,-0.21,0.14,-0.14,-38.3806,-36.2759,2.30927,1009.82
119588,-0.245736,9.75461,0.364453,-0.21,0.07,-0.07,-38.2052,-35.8959,1.65156,1009.78
119594,-0.226606,9.73549,0.35967,-0.07,0,-0.07,-38.2052,-35.7206,2.96697,1009.78
119600,-0.240954,9.7594,0.369235,-0.07,0.14,-0.07,-38.0883,-35.8959,2.36773,1009.78
119606,-0.255301,9.76418,0.369235,-0.14,0.14,0,-38.7606,-35.8082,3.11312,1009.79
119612,-0.250518,9.74983,0.374018,-0.07,0.14,0,-39.316,-35.4867,2.60158,1009.79
119618,-0.240954,9.74983,0.393147,-0.14,0.07,0,-38.9652,-35.5452,3.12774,1009.83
119624,-0.245736,9.76418,0.35967,-0.14,0.28,0.07,-38.2929,-35.7498,2.96697,1009.83
119630,-0.255301,9.74027,0.374018,-0.07,0.07,0.07,-38.6144,-36.0129,3.08389,1009.82
119636,-0.231389,9.7594,0.3788,0.07,0.14,0.28,-38.7021,-35.9836,3.17159,1009.82
119642,-0.226606,9.77374,0.393147,0.07,0.07,0,-38.0883,-36.1882,3.11312,1009.83
119648,-0.245736,9.7594,0.374018,0,0.07,0.07,-39.0237,-36.159,2.60158,1009.83
119654,-0.236171,9.7594,0.364453,0.07,0.07,0.14,-38.4683,-35.8082,2.0608,1009.83
119660,-0.250518,9.74983,0.369235,0.07,0.07,0.07,-38.0006,-35.6913,2.55773,1009.8
119666,-0.226606,9.74505,0.3788,0.07,0.07,0.14,-38.1467,-36.1006,2.73312,1009.8
119672,-0.236171,9.75461,0.383582,0.14,0,0.21,-38.4391,-36.0713,2.64543,1009.81
119678,-0.245736,9.7594,0.383582,0.14,0.14,0.21,-37.9714,-35.7498,3.28851,1009.81
119684,-0.250518,9.78331,0.364453,0.21,0,0.21,-38.0883,-35.6329,2.5285,1009.82
119690,-0.226606,9.7594,0.35967,0.14,0.07,0.21,-37.4744,-36.0713,2.03157,1009.82
119696,-0.226606,9.76418,0.340541,0.14,0.07,0.14,-38.0883,-36.4806,3.01082,1009.84
119702,-0.217042,9.76418,0.354888,0.14,0.14,0.21,-37.5621,-35.8375,3.34697,1009.84
119708,-0.217042,9.73549,0.369235,0.21,0,0.21,-38.4975,-36.919,2.26542,1009.83
119714,-0.217042,9.7594,0.350106,0.14,0.14,0.28,-38.2637,-36.4221,3.15697,1009.83
119720,-0.221824,9.75461,0.369235,0.21,0.14,0.21,-37.9421,-36.5975,4.42853,1009.83
119726,-0.236171,9.74983,0.354888,0.14,0.14,0.21,-38.2344,-35.7498,3.42005,1009.8
119732,-0.226606,9.76896,0.35967,0.21,0.07,0.21,-37.9714,-36.0421,2.45542,1009.8
119738,-0.217042,9.76418,0.369235,0.21,0.14,0.35,-38.059,-36.1298,1.71003,1009.81
119744,-0.226606,9.74983,0.3788,0.28,0.28,0.42,-38.176,-35.9544,2.58696,1009.81
119750,-0.221824,9.74983,0.35967,0.21,0.14,0.28,-38.0298,-36.3344,3.08389,1009.8
119756,-0.221824,9.75461,0.364453,0.28,0.07,0.21,-38.4098,-36.1298,2.58696,1009.8
119762,-0.226606,9.79287,0.354888,0.21,0.14,0.28,-37.1529,-35.6621,2.45542,1009.82
119768,-0.221824,9.76896,0.35967,0.14,0.14,0.35,-38.556,-35.7498,3.58082,1009.82
119774,-0.217042,9.77374,0.364453,0.21,0.07,0.21,-38.2052,-36.2175,2.51388,1009.82
119780,-0.226606,9.78331,0.369235,0.28,0.14,0.28,-38.176,-35.6329,2.00234,1009.82
119786,-0.236171,9.76418,0.364453,0.28,0.07,0.28,-38.3221,-34.9313,2.39696,1009.82
119792,-0.226606,9.7594,0.364453,0.28,0.14,0.35,-37.9129,-35.9544,3.20082,1009.8
119798,-0.260083,9.72592,0.354888,0.14,0.07,0.28,-38.0883,-35.9836,2.63081,1009.8
119804,-0.236171,9.76896,0.374018,0.21,0.14,0.35,-38.2052,-35.6329,3.17159,1009.78
119810,-0.221824,9.74027,0.364453,0.28,0.07,0.35,-38.4975,-36.159,3.15697,1009.78
119816,-0.217042,9.7594,0.374018,0.35,0.14,0.35,-37.8837,-36.3052,3.24467,1009.8
119822,-0.236171,9.76418,0.35967,0.28,0,0.35,-39.0529,-36.0129,2.26542,1009.8
119828,-0.221824,9.7594,0.335758,0.28,0.07,0.35,-37.9714,-35.5159,3.43467,1009.8
119834,-0.207477,9.78809,0.335758,0.21,0.07,0.28,-38.5852,-35.8375,1.84157,1009.8
119840,-0.217042,9.76418,0.354888,0.07,0.07,0.07,-37.7375,-36.0713,3.08389,1009.8
119846,-0.236171,9.74983,0.3788,0.21,0,0.21,-38.3221,-36.1006,2.85004,1009.84
119852,-0.226606,9.74505,0.345323,0.28,0.07,0.14,-37.3575,-36.5098,2.74773,1009.84
119858,-0.226606,9.76418,0.369235,0.35,0.07,0.28,-38.1467,-35.6036,3.20082,1009.81
119864,-0.245736,9.78809,0.335758,0.28,0.07,0.35,-37.8837,-35.3405,2.92312,1009.81
119870,-0.221824,9.76418,0.321411,0.28,0.14,0.28,-37.8252,-36.1298,2.48465,1009.81
119876,-0.207477,9.77853,0.354888,0.21,0,0.14,-38.0006,-35.8959,3.47852,1009.81
119882,-0.197912,9.7594,0.369235,0.21,0,0.21,-38.7021,-35.7498,2.67466,1009.84
119888,-0.217042,9.77853,0.316629,0.14,0.07,0.07,-37.796,-35.9544,2.13388,1009.84
119894,-0.236171,9.77374,0.340541,0.14,0.07,0.14,-38.4098,-36.4806,2.70389,1009.84
119900,-0.207477,9.74027,0.369235,0.21,0,0.14,-38.7606,-36.3929,2.13388,1009.81
119906,-0.217042,9.74027,0.374018,0.21,0.07,0.21,-37.8544,-35.5452,3.24467,1009.81
119912,-0.207477,9.79287,0.321411,0.14,0.07,0.14,-38.556,-35.6036,2.86466,1009.8
119918,-0.236171,9.7594,0.335758,0,0.21,0.14,-38.4975,-36.3636,3.42005,1009.8
119924,-0.202694,9.74505,0.345323,0.14,0.14,0.14,-38.4683,-36.6267,2.48465,1009.83
119930,-0.231389,9.76418,0.364453,0.21,0.07,0.07,-38.3514,-36.0129,3.4639,1009.83
119936,-0.217042,9.76418,0.350106,-0.07,0.07,0.14,-38.4098,-36.3636,2.85004,1009.83
119942,-0.221824,9.7594,0.364453,0,0.07,0,-38.3221,-36.2467,3.4639,1009.83
119948,-0.231389,9.75461,0.354888,0,0.14,0.14,-37.9421,-36.3929,3.1862,1009.83
119954,-0.231389,9.7594,0.350106,0,0.07,0.21,-38.4975,-36.3929,3.56621,1009.83
119960,-0.212259,9.74983,0.374018,0.07,0.14,0.14,-38.6144,-36.0129,2.17773,1009.83
119966,-0.221824,9.76896,0.364453,0.14,0.07,0.14,-38.059,-35.4575,3.50775,1009.79
119972,-0.231389,9.77374,0.369235,0,0.21,0.14,-38.7021,-35.6329,2.98158,1009.79
119978,-0.231389,9.76896,0.330976,0,0.14,0.14,-38.5852,-35.3698,3.28851,1009.83
119984,-0.202694,9.76418,0.35967,0,0.14,0.14,-37.6206,-35.9252,3.43467,1009.83
119990,-0.207477,9.7594,0.335758,0,0.14,0.21,-38.2052,-35.3405,3.20082,1009.8
119996,-0.226606,9.76418,0.350106,0,0.14,0.07,-38.4683,-36.2467,3.2739,1009.8
120002,-0.231389,9.74983,0.364453,0.07,0.21,0.21,-38.3514,-35.1944,3.23005,1009.84
120008,-0.217042,9.74983,0.335758,0,0.21,0.14,-38.3806,-35.8082,3.04005,1009.84
120014,-0.217042,9.76418,0.335758,0.07,0,0.07,-38.556,-35.8082,3.4639,1009.84
120020,-0.231389,9.74505,0.383582,0.14,0.14,0.21,-38.1175,-35.9544,3.4639,1009.83
120026,-0.226606,9.74027,0.369235,0.21,0,0.35,-38.176,-35.779,2.77697,1009.83
120032,-0.188347,9.77853,0.354888,0.14,0.21,0.21,-38.2929,-35.3405,5.32008,1009.79
120038,-0.231389,9.76418,0.350106,0.14,0.07,0.21,-37.8837,-36.0421,3.2739,1009.79
120044,-0.226606,9.76896,0.35967,0.14,0.07,0.14,-38.4098,-36.3929,3.44928,1009.83
120050,-0.260083,9.76418,0.354888,0.21,0.14,0.35,-37.5037,-35.8959,3.80006,1009.83
120056,-0.217042,9.75461,0.388365,0.14,0,0.21,-37.7083,-35.4867,3.28851,1009.81
120062,-0.183565,9.75461,0.354888,0.28,0.28,0.21,-38.1467,-36.4513,2.19234,1009.81
120068,-0.250518,9.79287,0.345323,0.14,0.21,0.14,-38.0298,-35.7498,3.43467,1009.81
120074,-0.207477,9.76896,0.364453,0.14,0,0.28,-37.9129,-35.6913,3.15697,1009.86
120080,-0.19313,9.75461,0.330976,0.07,0.21,0.21,-38.0298,-35.6036,4.01929,1009.86
120086,-0.245736,9.77853,0.330976,0.28,0,0.14,-37.9421,-35.399,3.44928,1009.81
120092,-0.217042,9.78331,0.340541,0.14,0.07,0.14,-38.0006,-35.8667,3.66852,1009.81
120098,-0.19313,9.76418,0.340541,0.14,0.07,0.21,-37.6498,-35.3405,2.9962,1009.8
120104,-0.236171,9.7594,0.335758,0,0.14,0.21,-37.796,-35.7498,3.9316,1009.8
120110,-0.236171,9.7594,0.345323,0.07,-0.07,0.21,-38.556,-35.3405,3.97545,1009.78
120116,-0.197912,9.74983,0.354888,0,0.14,0.14,-38.556,-34.5805,4.75007,1009.78
120122,-0.226606,9.7594,0.369235,0.14,0,0.14,-38.2637,-35.1359,3.59544,1009.78
120128,-0.217042,9.78331,0.354888,0.07,0.07,0.14,-37.9714,-35.6621,3.56621,1009.83
120134,-0.207477,9.75461,0.364453,0.07,0,0.14,-37.5329,-35.1944,3.52236,1009.83
120140,-0.221824,9.77374,0.330976,0,0.21,0.14,-37.1236,-35.8667,3.77083,1009.82
120146,-0.221824,9.76418,0.350106,-0.07,-0.07,-0.07,-37.7375,-35.6329,3.69775,1009.82
120152,-0.202694,9.77374,0.345323,0,0.07,0.07,-38.2344,-36.0713,3.20082,1009.77
120158,-0.207477,9.76896,0.354888,0.07,0.07,0.07,-38.059,-36.1298,4.25314,1009.77
120164,-0.207477,9.78331,0.350106,-0.07,0.14,0.07,-37.9129,-35.6621,3.56621,1009.81
120170,-0.217042,9.77374,0.350106,0,0.07,0.07,-38.4975,-35.2236,3.87314,1009.81
120176,-0.226606,9.76896,0.350106,0,0.14,0.07,-37.7667,-35.2236,3.12774,1009.82
120182,-0.221824,9.7594,0.345323,0.14,0.07,0.14,-37.299,-35.8667,3.17159,1009.82
120188,-0.207477,9.75461,0.345323,-0.07,0.21,0.07,-38.3806,-36.3636,3.55159,1009.82
120194,-0.226606,9.74505,0.345323,0,0.14,0.07,-37.796,-35.1067,2.86466,1009.81
120200,-0.231389,9.75461,0.35967,0,0.14,0.07,-38.6437,-34.5805,2.89389,1009.81
120206,-0.217042,9.77374,0.350106,0,0.14,0.14,-37.8837,-36.0129,3.17159,1009.79
120212,-0.188347,9.77853,0.354888,0,0.07,0.07,-38.1467,-35.6621,3.85852,1009.79
120218,-0.217042,9.78809,0.350106,-0.07,0.21,0.07,-37.5329,-36.1006,3.43467,1009.79
120224,-0.207477,9.7594,0.326194,0,0.07,0.07,-37.9714,-35.4575,3.63929,1009.79
120230,-0.221824,9.77853,0.326194,-0.07,0.21,0.07,-38.2052,-35.3405,3.49313,1009.84
120236,-0.207477,9.77374,0.35967,-0.07,0.07,0.07,-38.1467,-36.5098,3.40544,1009.84
120242,-0.231389,9.77374,0.350106,-0.07,0.14,0,-37.4744,-35.6913,3.7416,1009.84
120248,-0.212259,9.75461,0.350106,0.07,0,0.07,-37.5621,-35.8082,4.07775,1009.84
120254,-0.202694,9.77853,0.335758,0,0.07,0,-37.7083,-35.9252,3.33236,1009.84
120260,-0.240954,9.76418,0.3788,0,0.14,0.14,-37.5329,-35.6913,2.9962,1009.79
120266,-0.226606,9.74505,0.369235,-0.07,0.14,0,-37.6206,-35.2821,4.60392,1009.79
120272,-0.221824,9.77374,0.340541,0.07,0.07,0.07,-38.4098,-35.8375,4.18006,1009.8
120278,-0.217042,9.76418,0.326194,0,0.14,0,-37.7083,-36.2175,3.84391,1009.8
120284,-0.197912,9.78331,0.330976,-0.07,-0.07,0.07,-38.176,-35.4867,3.81467,1009.8
120290,-0.19313,9.75461,0.340541,-0.07,0.07,0,-37.0944,-35.4282,3.01082,1009.8
120296,-0.217042,9.77853,0.345323,-0.07,0,0,-38.7898,-35.5744,4.06314,1009.8
120302,-0.202694,9.74983,0.340541,-0.14,0.14,-0.07,-37.4452,-35.8667,3.28851,1009.8
120308,-0.231389,9.72592,0.354888,-0.07,0.07,0,-37.7667,-35.9544,2.93774,1009.8
120314,-0.197912,9.77374,0.321411,-0.07,0.14,0,-38.5852,-36.6852,3.87314,1009.8
120320,-0.207477,9.812,0.316629,-0.14,0.07,0,-37.5621,-35.8082,3.55159,1009.8
120326,-0.240954,9.74983,0.383582,-0.28,0.21,-0.07,-37.8544,-36.4806,3.28851,1009.81
120332,-0.255301,9.74027,0.383582,-0.14,0.07,0,-37.299,-36.159,3.69775,1009.81
120338,-0.217042,9.77853,0.354888,0,0.07,-0.07,-37.8252,-35.4867,3.96083,1009.81
120344,-0.197912,9.77853,0.340541,-0.07,0.07,-0.14,-37.679,-35.4867,4.61853,1009.81
120350,-0.212259,9.75461,0.364453,-0.14,0.14,-0.21,-39.1114,-35.9544,4.25314,1009.78
120356,-0.240954,9.72592,0.369235,-0.14,0.14,-0.07,-37.6498,-36.0129,3.33236,1009.78
120362,-0.226606,9.7594,0.345323,0.07,0.21,-0.07,-38.3221,-36.159,2.90851,1009.78
120368,-0.207477,9.77374,0.35967,0,0,-0.07,-37.9421,-35.9836,2.20696,1009.82
120374,-0.221824,9.77374,0.354888,-0.07,0.21,0.07,-37.7375,-35.8959,4.1216,1009.82
120380,-0.202694,9.73549,0.374018,0,0.14,-0.07,-37.5037,-36.159,3.71236,1009.79
120386,-0.245736,9.75461,0.35967,0,0.14,0,-37.796,-36.3344,3.52236,1009.79
120392,-0.221824,9.7594,0.340541,0,0,-0.07,-38.1467,-36.2175,3.44928,1009.81
120398,-0.217042,9.77853,0.350106,0,0.14,0.07,-37.796,-36.6559,3.30313,1009.81
120404,-0.221824,9.76896,0.350106,0,0.07,0,-38.0883,-35.9544,3.75621,1009.81
120410,-0.207477,9.77374,0.340541,-0.07,0.07,0,-38.0298,-36.7144,3.59544,1009.81
120416,-0.212259,9.76418,0.35967,0.07,0.07,0,-38.6144,-35.5744,3.2739,1009.81
120422,-0.19313,9.78331,0.354888,0,0.14,0,-38.4391,-35.6621,3.58082,1009.8
120428,-0.197912,9.76896,0.374018,-0.14,0.07,0,-38.2637,-35.5452,4.42853,1009.8
120434,-0.207477,9.77374,0.350106,-0.07,0.14,-0.07,-37.6498,-35.399,3.06928,1009.81
120440,-0.221824,9.74983,0.364453,-0.07,0.07,0,-38.4098,-35.7206,3.17159,1009.81
120446,-0.231389,9.7594,0.345323,-0.14,0.07,0,-37.0652,-36.0421,3.12774,1009.78
120452,-0.212259,9.74505,0.354888,-0.07,0,-0.21,-38.7314,-36.2175,1.54925,1009.78
120458,-0.231389,9.76896,0.340541,-0.07,0.28,-0.07,-37.6498,-35.8375,3.42005,1009.79
120464,-0.19313,9.74027,0.35967,-0.07,0.14,-0.07,-37.1821,-35.4575,3.28851,1009.79
120470,-0.226606,9.75461,0.335758,-0.07,0.14,-0.07,-37.9421,-35.9252,4.37007,1009.8
120476,-0.217042,9.76418,0.330976,0,0.07,0,-37.8544,-35.8667,3.31774,1009.8
120482,-0.202694,9.76896,0.340541,-0.07,0.07,0,-37.3575,-35.9252,3.63929,1009.8
120488,-0.250518,9.7594,0.345323,-0.07,0.14,0.07,-38.1175,-35.7498,3.61006,1009.82
120494,-0.226606,9.75461,0.350106,0,0.14,0.07,-37.6206,-35.6621,2.66004,1009.82
120500,-0.236171,9.74505,0.340541,0,0.14,0,-38.2929,-36.0713,3.91698,1009.81
120506,-0.221824,9.76418,0.340541,0,0.14,0,-37.6206,-36.1298,3.78544,1009.81
120512,-0.221824,9.75461,0.354888,0,0.14,0.07,-38.7314,-35.4867,3.63929,1009.81
120518,-0.221824,9.73549,0.345323,-0.07,0.07,0.07,-37.5329,-35.6913,4.69161,1009.81
120524,-0.197912,9.76896,0.374018,0,0.14,0.07,-37.7083,-36.0421,4.15083,1009.81
120530,-0.221824,9.76418,0.345323,-0.07,0.07,0.07,-37.9421,-35.8959,4.10699,1009.81
120536,-0.217042,9.79287,0.345323,0,0.07,0,-37.796,-35.3405,3.91698,1009.81
120542,-0.207477,9.7594,0.364453,-0.07,0.14,0,-37.8544,-35.6913,3.4639,1009.81
120548,-0.221824,9.74505,0.350106,0.07,0,0,-38.0883,-35.1944,3.52236,1009.81
120554,-0.212259,9.7594,0.330976,0,0.07,0,-39.2868,-36.2467,2.64543,1009.83
120560,-0.221824,9.77853,0.340541,0.07,0.14,0,-38.4098,-35.3698,3.23005,1009.83
120566,-0.221824,9.76418,0.340541,-0.07,0.07,0,-38.4683,-36.539,3.05466,1009.81
120572,-0.207477,9.7594,0.326194,0,0.14,-0.07,-38.5267,-34.8436,3.84391,1009.81
120578,-0.231389,9.76418,0.340541,0,0.14,0.07,-37.4452,-35.5452,3.53698,1009.79
120584,-0.226606,9.74505,0.345323,-0.07,0.21,0,-37.5329,-36.3052,4.13622,1009.79
120590,-0.212259,9.76418,0.340541,0,0.21,0.07,-37.5329,-35.6329,3.72698,1009.79
120596,-0.212259,9.7594,0.326194,0,0,0.07,-37.6498,-35.5452,3.25928,1009.83
120602,-0.226606,9.74505,0.354888,0,0.14,0.07,-37.036,-35.779,3.25928,1009.83
120608,-0.226606,9.76896,0.350106,-0.07,0.07,0.07,-37.1821,-36.2467,3.66852,1009.84
120614,-0.226606,9.7594,0.35967,0.07,0.14,0.07,-37.679,-36.4221,3.84391,1009.84
120620,-0.202694,9.7594,0.345323,0,0.07,0.14,-37.4744,-36.159,2.67466,1009.81
120626,-0.207477,9.76418,0.345323,0.07,0.14,0.07,-37.3283,-35.8375,4.13622,1009.81
120632,-0.217042,9.74983,0.340541,0.07,0.07,0.07,-38.1467,-35.5452,4.04852,1009.79
120638,-0.236171,9.76418,0.354888,0.14,0.07,0.07,-38.0883,-36.0713,2.7185,1009.79
120644,-0.236171,9.74983,0.330976,0,0.14,0,-37.7083,-36.0129,2.16311,1009.82
120650,-0.221824,9.75461,0.330976,0.07,0,0.07,-37.5913,-35.399,3.59544,1009.82
120656,-0.207477,9.78331,0.335758,0,0.07,0,-37.9421,-35.9544,4.32622,1009.82
120662,-0.202694,9.76418,0.326194,0.07,0.07,-0.07,-38.6729,-35.5452,3.7416,1009.81
120668,-0.221824,9.76896,0.35967,0,0.14,0,-38.2344,-36.3344,4.35545,1009.81
120674,-0.207477,9.7594,0.321411,0.07,0,0.07,-37.5621,-35.8375,4.37007,1009.8
120680,-0.207477,9.76418,0.321411,0.07,0,0,-38.9068,-35.6036,3.6539,1009.8
120686,-0.212259,9.77374,0.321411,0.07,0.07,0.07,-38.0298,-35.2236,3.08389,1009.79
120692,-0.207477,9.76896,0.321411,0,0.07,0,-38.3514,-36.159,4.19468,1009.79
120698,-0.207477,9.76896,0.330976,0.07,0,0.07,-37.5037,-35.6329,3.09851,1009.81
120704,-0.226606,9.74983,0.321411,0.14,0.07,0.07,-38.0006,-35.8375,3.52236,1009.81
120710,-0.212259,9.76418,0.340541,0.07,0,0,-37.299,-36.159,3.33236,1009.81
120716,-0.226606,9.7594,0.350106,0,0.07,0.07,-37.3867,-36.2467,3.28851,1009.81
120722,-0.212259,9.77374,0.321411,0.07,0.14,0.21,-37.9129,-36.2467,3.20082,1009.81
120728,-0.183565,9.78809,0.330976,-0.07,0.07,-0.14,-38.9652,-36.159,2.35311,1009.81
120734,-0.202694,9.74983,0.316629,0,0.07,0.14,-38.2344,-36.3929,3.71236,1009.81
120740,-0.207477,9.76418,0.345323,0,0.07,0,-38.5852,-36.0421,3.71236,1009.78
120746,-0.212259,9.76418,0.330976,0.07,0.07,0.07,-37.679,-35.6913,3.04005,1009.78
120752,-0.217042,9.7594,0.326194,0.07,0.07,0.07,-37.8544,-35.8667,3.80006,1009.82
120758,-0.212259,9.77853,0.350106,0,0.07,0,-38.7021,-36.8606,3.55159,1009.82
120764,-0.240954,9.74983,0.350106,0,0.21,0.07,-37.7083,-35.3113,3.84391,1009.82
120770,-0.221824,9.74983,0.364453,0.07,0.07,0.07,-37.1236,-35.9544,2.85004,1009.79
120776,-0.236171,9.76896,0.335758,-0.07,0.14,0,-37.6498,-35.9544,3.81467,1009.79
120782,-0.217042,9.78331,0.330976,0,0.07,0.07,-37.8837,-36.159,3.94621,1009.78
120788,-0.221824,9.75461,0.340541,-0.07,0.28,0.07,-37.5913,-36.3344,3.44928,1009.78
120794,-0.212259,9.7594,0.335758,0.07,0,0,-38.2344,-36.3344,3.25928,1009.79
120800,-0.221824,9.78331,0.345323,0,0.07,0,-38.059,-35.5744,3.28851,1009.79
120806,-0.207477,9.77853,0.316629,0.07,-0.07,0,-38.1467,-35.5159,3.43467,1009.8
120812,-0.217042,9.74505,0.345323,0,0.14,0,-38.1467,-35.6913,4.13622,1009.8
120818,-0.212259,9.76418,0.326194,0.07,-0.07,0.14,-38.2052,-35.9252,2.61619,1009.8
120824,-0.207477,9.75461,0.364453,0.07,0.14,0,-38.6729,-35.3405,3.12774,1009.8
120830,-0.221824,9.78809,0.345323,0.14,0.07,0,-38.9068,-34.9605,3.1862,1009.8
120836,-0.217042,9.74983,0.340541,0.07,0.14,0,-38.3806,-35.7498,3.02543,1009.8
120842,-0.212259,9.76896,0.340541,0.07,0.07,0,-38.2929,-36.0713,3.58082,1009.8
120848,-0.231389,9.7594,0.335758,0,0.07,0.07,-38.4391,-36.159,2.44081,1009.81
120854,-0.226606,9.7594,0.354888,0.07,0.07,0.07,-38.3514,-36.2175,3.11312,1009.81
120860,-0.240954,9.76896,0.354888,0,0.07,0,-38.3221,-36.4221,2.19234,1009.81
120866,-0.221824,9.76418,0.326194,0,0.14,0,-38.5267,-35.3405,3.82929,1009.81
120872,-0.217042,9.76896,0.321411,0,0.07,0,-38.6144,-35.8959,3.12774,1009.79
120878,-0.221824,9.76418,0.321411,0.07,0,0,-38.6437,-36.3636,3.50775,1009.79
120884,-0.197912,9.74983,0.345323,0,0.14,0.07,-38.7021,-35.5159,3.75621,1009.79
120890,-0.217042,9.7594,0.345323,0.07,0.07,0.07,-37.299,-35.8082,2.32388,1009.79
120896,-0.226606,9.76418,0.345323,0,0.07,0,-38.0006,-36.2175,3.66852,1009.79
120902,-0.226606,9.76418,0.307064,0.07,-0.07,0.07,-37.8544,-36.539,3.68313,1009.78
120908,-0.231389,9.78331,0.330976,-0.07,0.14,0.07,-39.1114,-35.779,2.73312,1009.78
120914,-0.245736,9.78331,0.321411,0,0.07,0,-38.556,-36.0129,3.42005,1009.8
120920,-0.212259,9.76418,0.354888,0,0.07,-0.07,-38.0883,-36.4513,4.29699,1009.8
120926,-0.212259,9.76418,0.345323,0,0.07,0,-38.4098,-36.1882,4.07775,1009.8
120932,-0.212259,9.75461,0.340541,-0.07,0.07,0,-38.5267,-35.9544,4.42853,1009.8
120938,-0.221824,9.76418,0.350106,0,0,-0.07,-38.0006,-35.9252,3.47852,1009.83
120944,-0.231389,9.74983,0.330976,-0.07,0.07,0,-38.3806,-35.8959,4.29699,1009.83
120950,-0.217042,9.73549,0.350106,0,0,0,-38.0883,-36.9775,3.25928,1009.83
120956,-0.217042,9.74027,0.340541,0,0.14,0,-37.7375,-36.0129,4.09237,1009.8
120962,-0.217042,9.73549,0.354888,0,-0.07,0,-38.1175,-35.9544,4.13622,1009.8
120968,-0.202694,9.77374,0.330976,0.07,-0.07,-0.14,-37.679,-35.4575,3.21543,1009.79
120974,-0.212259,9.78331,0.316629,0,0.07,0,-38.4391,-35.2821,3.77083,1009.79
120980,-0.236171,9.77853,0.350106,0,0,0,-38.0298,-36.1298,3.84391,1009.79
120986,-0.202694,9.74505,0.311846,0,0,-0.07,-37.9129,-36.1882,2.92312,1009.79
120992,-0.202694,9.75461,0.340541,0,0,-0.07,-38.2052,-35.3113,3.08389,1009.83
120998,-0.221824,9.74505,0.311846,-0.07,0.14,-0.07,-37.9129,-36.0421,4.677,1009.83
121004,-0.212259,9.74027,0.316629,-0.07,0.07,-0.07,-37.3867,-35.399,3.4639,1009.83
121010,-0.221824,9.7594,0.307064,0,0,-0.07,-38.0006,-35.9836,4.57469,1009.81
121016,-0.250518,9.76896,0.335758,0.07,-0.07,0,-37.8544,-36.0421,3.49313,1009.81
121022,-0.217042,9.76418,0.330976,-0.07,0.21,0,-38.0298,-36.0421,4.51622,1009.79
121028,-0.226606,9.74983,0.340541,0,0,-0.07,-38.4098,-36.3052,4.10699,1009.79
121034,-0.231389,9.7594,0.354888,0.07,0,0.07,-38.4683,-36.5098,2.73312,1009.79
121040,-0.231389,9.76896,0.311846,-0.07,0,0,-37.8252,-36.0421,2.95235,1009.79
121046,-0.217042,9.76418,0.340541,-0.14,0.21,-0.07,-38.0883,-36.0421,3.85852,1009.77
121052,-0.250518,9.76896,0.326194,0,0.07,0,-38.5267,-35.8959,2.36773,1009.77
121058,-0.207477,9.77374,0.330976,0.07,0.14,0,-37.796,-36.2759,2.92312,1009.77
121064,-0.207477,9.77374,0.350106,0,0.07,0.07,-38.2637,-36.0129,2.82081,1009.81
121070,-0.236171,9.78331,0.330976,0,0.14,0.28,-38.556,-35.2821,3.88775,1009.81
121076,-0.231389,9.75461,0.345323,0.07,0,0.14,-38.7898,-35.2236,4.44315,1009.79
121082,-0.212259,9.76896,0.350106,0.07,0,0,-38.176,-35.779,2.58696,1009.79
121088,-0.236171,9.7594,0.354888,0,0.07,0.07,-38.1175,-36.5098,3.23005,1009.79
121094,-0.217042,9.78331,0.335758,0,0.14,0.07,-38.5852,-35.7498,3.7416,1009.79
121100,-0.221824,9.75461,0.321411,0.07,0,0,-38.8191,-35.9836,4.61853,1009.81
121106,-0.217042,9.7594,0.330976,-0.07,-0.07,0.07,-38.1175,-36.4221,3.15697,1009.81
121112,-0.221824,9.76418,0.350106,0,0.07,0.07,-38.6729,-35.8375,3.97545,1009.79
121118,-0.207477,9.77374,0.340541,0,0,-0.07,-38.4975,-36.2175,4.38468,1009.79
121124,-0.207477,9.7594,0.326194,0,0.07,0.07,-38.4975,-35.8375,4.69161,1009.79
121130,-0.231389,9.75461,0.345323,-0.07,0,0,-38.8775,-36.8606,4.47238,1009.78
121136,-0.217042,9.75461,0.350106,0.07,0.07,-0.07,-38.2637,-35.6621,3.47852,1009.78
121142,-0.226606,9.7594,0.330976,0.07,0,-0.14,-38.2637,-35.4867,4.29699,1009.81
121148,-0.217042,9.76896,0.345323,0,0.14,-0.07,-38.4975,-36.0713,4.34084,1009.81
121154,-0.245736,9.7594,0.321411,0,0.07,0.07,-37.8544,-35.8375,3.81467,1009.82
121160,-0.207477,9.77853,0.326194,0.07,0,-0.07,-38.1467,-35.6329,4.2093,1009.82
121166,-0.212259,9.7594,0.345323,0,0.14,-0.07,-38.2052,-36.2759,3.77083,1009.81
121172,-0.221824,9.74505,0.330976,0,0.07,0,-38.556,-36.8606,1.5931,1009.81
121178,-0.217042,9.76896,0.326194,-0.07,0.07,0,-38.2052,-35.8959,2.85004,1009.81
121184,-0.221824,9.76418,0.330976,0.07,0.07,0,-38.2344,-36.0129,3.2739,1009.79
121190,-0.212259,9.80244,0.330976,-0.14,0.14,0,-37.8252,-35.6913,3.82929,1009.79
121196,-0.236171,9.75461,0.354888,-0.14,0.07,0,-38.5267,-36.539,3.02543,1009.79
121202,-0.240954,9.74983,0.364453,0,0,-0.07,-38.2929,-35.0775,3.80006,1009.79
121208,-0.236171,9.7594,0.326194,0,0.07,0,-38.176,-36.1882,3.63929,1009.81
121214,-0.207477,9.76896,0.340541,0,0.07,0,-38.3514,-36.1882,4.44315,1009.81
121220,-0.212259,9.7594,0.350106,0,0.07,-0.07,-38.0298,-35.9544,4.34084,1009.81
121226,-0.231389,9.7594,0.345323,0.07,0.07,0.07,-37.9129,-35.6621,3.28851,1009.81
121232,-0.221824,9.7594,0.345323,-0.07,0.07,0.07,-37.7667,-35.6329,3.25928,1009.81
121238,-0.212259,9.77374,0.35967,0.07,0,-0.07,-37.5037,-35.2528,3.08389,1009.81
121244,-0.226606,9.74983,0.335758,-0.07,0.14,0,-37.7375,-35.8375,4.00468,1009.81
121250,-0.226606,9.74027,0.350106,0.07,-0.07,0,-38.2929,-35.7498,3.66852,1009.79
121256,-0.212259,9.75461,0.330976,0,0.07,0,-37.6498,-36.3636,4.16545,1009.79
121262,-0.19313,9.78331,0.326194,0.07,0.07,-0.07,-37.8252,-35.6036,2.8062,1009.8
121268,-0.217042,9.7594,0.345323,0.07,-0.07,-0.07,-38.3221,-36.1882,4.47238,1009.8
121274,-0.226606,9.74983,0.335758,0.07,0.07,-0.07,-37.5037,-35.2821,3.40544,1009.8
121280,-0.202694,9.74983,0.340541,0.14,-0.07,0,-38.4683,-36.6852,4.1216,1009.8
121286,-0.226606,9.75461,0.316629,0,0.07,0,-38.2344,-36.7436,2.87928,1009.79
121292,-0.207477,9.78331,0.354888,0.07,0.14,-0.07,-38.5852,-35.9544,2.79158,1009.79
121298,-0.221824,9.75461,0.335758,0.07,0.07,0,-38.1467,-35.9252,3.14236,1009.79
121304,-0.226606,9.74505,0.350106,-0.07,0.07,0,-37.9714,-36.2759,4.15083,1009.79
121310,-0.217042,9.76896,0.364453,0,0.07,0.07,-37.7083,-36.2175,3.63929,1009.79
121316,-0.217042,9.77374,0.345323,0.14,0,-0.07,-37.9714,-36.1298,4.48699,1009.82
121322,-0.221824,9.76896,0.345323,0,0.07,0,-38.2637,-35.779,3.81467,1009.82
121328,-0.236171,9.76896,0.354888,-0.07,0.07,0.07,-37.796,-36.3636,4.16545,1009.82
121334,-0.226606,9.74505,0.364453,0.07,0.07,-0.07,-37.8252,-36.3344,3.68313,1009.82
121340,-0.221824,9.7594,0.340541,0,0,0.07,-38.3806,-35.2821,3.39082,1009.83
121346,-0.217042,9.76896,0.345323,0,0.07,0.07,-38.0006,-36.3636,3.20082,1009.83
121352,-0.217042,9.74027,0.340541,-0.07,0.07,0,-38.7314,-36.3344,3.9316,1009.83
121358,-0.236171,9.7594,0.340541,0,0.07,0,-38.6729,-36.539,3.85852,1009.8
121364,-0.226606,9.74983,0.364453,-0.07,0.07,0,-38.0006,-35.8959,4.13622,1009.8
121370,-0.240954,9.74983,0.345323,0,0.07,0.07,-38.4683,-36.4806,3.37621,1009.81
121376,-0.217042,9.74983,0.3788,0.07,0.07,0.28,-38.2637,-35.9252,3.50775,1009.81
121382,-0.221824,9.77853,0.330976,0.07,0.07,0,-38.5267,-36.3052,3.49313,1009.81
121388,-0.231389,9.78331,0.321411,0,0.07,-0.07,-37.9129,-35.7498,3.90237,1009.81
121394,-0.212259,9.78331,0.335758,-0.07,0,0.07,-38.8191,-36.3636,4.04852,1009.77
121400,-0.207477,9.76418,0.335758,-0.07,0.07,0,-38.2637,-36.1298,2.76235,1009.77
121406,-0.226606,9.73549,0.35967,0,0.07,0,-37.3575,-35.8959,3.2739,1009.77
121412,-0.217042,9.76896,0.364453,0,0.07,0,-38.2929,-35.8667,4.23853,1009.81
121418,-0.217042,9.77853,0.35967,0.07,0,-0.07,-37.5037,-35.7498,4.56007,1009.81
121424,-0.207477,9.7594,0.345323,0,0.14,0.07,-37.7667,-35.9252,4.16545,1009.81
121430,-0.240954,9.74983,0.345323,0,0.14,0,-38.2344,-36.4221,3.21543,1009.81
121436,-0.255301,9.75461,0.354888,0,0.14,-0.07,-38.176,-36.2467,3.11312,1009.81
121442,-0.212259,9.75461,0.340541,-0.07,0.07,0,-37.7375,-36.1882,3.4639,1009.81
121448,-0.29356,9.74027,0.388365,0,0.14,0.14,-38.0883,-35.4575,3.25928,1009.8
121454,-0.111829,9.78331,0.316629,0.42,-0.14,0,-38.2052,-36.3636,2.16311,1009.8
121460,-0.15487,9.85505,0.25924,-0.07,0.56,0,-38.3221,-36.4221,3.09851,1009.83
121466,-0.317472,9.74983,0.374018,-0.28,0,-0.14,-38.176,-36.1298,3.75621,1009.83
121472,-0.221824,9.69723,0.369235,-0.07,-0.07,0.07,-38.2929,-35.6621,2.92312,1009.83
121478,-0.217042,9.76896,0.340541,0.14,0.35,0.14,-38.4391,-35.5744,3.91698,1009.81
121484,-0.298342,9.76896,0.369235,0.14,0,0,-38.059,-35.9836,4.37007,1009.81
121490,-0.188347,9.78331,0.369235,0,0,0.14,-38.0298,-36.0421,3.50775,1009.79
121496,-0.174,9.74027,0.311846,0,0.07,-0.14,-37.8544,-34.9021,3.53698,1009.79
121502,-0.27443,9.77853,0.354888,0,0.14,-0.07,-37.1529,-35.9252,4.44315,1009.78
121508,-0.231389,9.76896,0.350106,-0.07,-0.07,-0.14,-37.5621,-35.7498,3.88775,1009.78
121514,-0.212259,9.73549,0.350106,0,0.21,0,-37.2698,-35.1652,3.80006,1009.8
121520,-0.240954,9.75461,0.3788,-0.07,0.14,-0.07,-38.0006,-35.5159,2.96697,1009.8
121526,-0.19313,9.7594,0.354888,0,0.07,-0.07,-38.0883,-36.0129,3.62467,1009.8
121532,-0.207477,9.74505,0.369235,0,0,-0.07,-37.9421,-35.7498,3.59544,1009.79
121538,-0.250518,9.79766,0.350106,0,0.14,-0.07,-37.299,-35.5452,3.96083,1009.79
121544,-0.221824,9.7594,0.345323,0.07,-0.07,0,-38.4391,-35.6913,3.20082,1009.81
121550,-0.231389,9.76896,0.354888,-0.07,0.14,-0.07,-38.2929,-36.8898,2.41158,1009.81
121556,-0.236171,9.79766,0.321411,0,0,-0.07,-38.2344,-36.1006,2.35311,1009.8
121562,-0.217042,9.77374,0.345323,-0.21,0.07,-0.21,-38.0298,-36.1006,2.0608,1009.8
121568,-0.217042,9.74983,0.354888,-0.21,0,-0.21,-38.8775,-36.1882,2.93774,1009.82
121574,-0.217042,9.7594,0.354888,-0.14,0,-0.21,-37.5621,-35.9544,2.60158,1009.82
121580,-0.226606,9.74983,0.364453,-0.07,-0.14,-0.21,-37.9129,-35.6036,2.67466,1009.77
121586,-0.221824,9.76896,0.340541,-0.07,0.07,-0.07,-38.3221,-35.7206,2.60158,1009.77
121592,-0.236171,9.80244,0.330976,-0.14,0.07,-0.21,-38.7021,-35.3405,3.6539,1009.77
121598,-0.226606,9.74505,0.340541,-0.28,0,-0.21,-38.1175,-35.0482,3.97545,1009.81
121604,-0.226606,9.74027,0.354888,-0.14,0.14,-0.14,-38.4975,-35.6329,2.0608,1009.81
121610,-0.240954,9.76418,0.354888,-0.07,0.14,-0.21,-38.7021,-36.1298,3.09851,1009.8
121616,-0.217042,9.78331,0.354888,-0.28,0,-0.21,-38.176,-35.6329,2.26542,1009.8
121622,-0.188347,9.76418,0.340541,-0.21,0,-0.35,-37.8544,-35.4282,3.97545,1009.78
121628,-0.188347,9.87896,0.287934,-0.42,0.14,-0.63,-38.8483,-35.5744,2.3385,1009.78
121634,-0.178782,9.85983,0.297499,-0.7,0.07,-0.7,-38.6144,-35.8959,4.2093,1009.83
121640,-0.174,9.74983,0.345323,-0.98,0.28,-0.84,-38.6729,-35.8667,3.47852,1009.83
121646,-0.264866,9.68288,0.436189,-0.63,0.14,-0.84,-38.3514,-35.5744,4.867,1009.83
121652,-0.183565,9.75461,0.316629,-0.21,0.07,-1.05,-38.1175,-35.6036,3.88775,1009.84
121658,-0.269648,9.86939,0.335758,-0.56,-0.07,-1.05,-37.8252,-36.0421,4.01929,1009.84
121664,-0.264866,9.67331,0.417059,-0.49,-0.21,-0.91,-38.2929,-35.7498,2.82081,1009.84
121670,-0.188347,9.7594,0.316629,0,-0.21,-0.84,-37.2698,-35.8375,4.09237,1009.84
121676,-0.226606,9.93635,0.225763,-1.05,0.56,-0.91,-38.2929,-35.9836,3.69775,1009.81
121682,-0.346166,9.70201,0.440971,-1.4,0.21,-0.77,-38.3514,-35.1944,3.31774,1009.81
121688,-0.202694,9.65418,0.417059,-0.21,-0.14,-0.7,-38.4391,-35.9544,3.84391,1009.82
121694,-0.221824,9.81679,0.287934,-0.28,0.49,-0.63,-38.2344,-36.1298,4.09237,1009.82
121700,-0.298342,9.812,0.302282,-1.19,0.21,-0.56,-38.4391,-36.3344,3.49313,1009.82
121706,-0.240954,9.71157,0.407494,-1.05,0.14,-0.49,-38.4391,-35.4282,4.99854,1009.8
121712,-0.264866,9.68766,0.412277,-0.49,0.35,-0.49,-37.5913,-35.779,2.90851,1009.8
121718,-0.317472,9.77853,0.3788,-0.49,0.28,-0.35,-38.3221,-35.779,3.77083,1009.78
121724,-0.245736,9.74983,0.364453,-0.49,0,-0.28,-37.9129,-35.9252,3.9316,1009.78
121730,-0.255301,9.72114,0.39793,-0.35,0.35,-0.21,-38.4683,-35.9252,2.9962,1009.81
121736,-0.27443,9.76418,0.35967,-0.21,0.07,-0.21,-38.2344,-35.9836,3.90237,1009.81
121742,-0.250518,9.7594,0.3788,-0.42,0.21,-0.14,-37.9421,-35.9544,3.77083,1009.81
121748,-0.250518,9.72592,0.374018,-0.28,0.14,-0.14,-38.0006,-36.2467,2.73312,1009.81
121754,-0.264866,9.73549,0.393147,-0.07,0.07,-0.14,-38.2637,-35.2528,3.33236,1009.81
121760,-0.240954,9.76418,0.369235,0,0,-0.07,-38.1175,-36.0713,3.84391,1009.81
121766,-0.260083,9.7307,0.393147,-0.07,0.07,0,-38.9068,-35.7498,3.63929,1009.81
121772,-0.269648,9.71636,0.393147,0.14,0,0.07,-39.0821,-36.3344,3.09851,1009.79
121778,-0.255301,9.71636,0.388365,0.28,0,0.07,-38.5852,-36.6267,3.31774,1009.79
121784,-0.245736,9.77374,0.369235,0.28,-0.14,0,-37.7375,-36.6852,3.68313,1009.8
121790,-0.236171,9.75461,0.374018,0.21,-0.07,0.14,-38.2929,-36.4221,3.12774,1009.8
121796,-0.250518,9.75461,0.35967,0.28,0.07,0.35,-38.2052,-36.3636,1.88541,1009.81
121802,-0.269648,9.73549,0.369235,0.28,0.07,0.28,-37.9129,-35.8375,3.63929,1009.81
121808,-0.240954,9.74505,0.35967,0.28,0.14,0.35,-37.8837,-36.2175,2.5285,1009.8
121814,-0.240954,9.76418,0.35967,0.35,0.07,0.42,-37.4744,-35.6621,4.45776,1009.8
121820,-0.240954,9.77374,0.35967,0.42,0,0.42,-37.796,-36.1006,2.61619,1009.8
121826,-0.240954,9.7594,0.374018,0.35,0,0.42,-38.1175,-35.9544,3.02543,1009.78
121832,-0.221824,9.76418,0.388365,0.42,0.07,0.42,-37.9129,-35.019,2.14849,1009.78
121838,-0.207477,9.77853,0.354888,0.42,0,0.35,-38.4098,-36.2467,4.29699,1009.82
121844,-0.231389,9.79287,0.35967,0.42,0.07,0.35,-38.2052,-36.5098,3.34697,1009.82
121850,-0.264866,9.7594,0.345323,0.35,-0.07,0.35,-37.7375,-35.7206,2.86466,1009.79
121856,-0.250518,9.75461,0.3788,0.28,0.14,0.42,-38.4098,-35.779,4.19468,1009.79
121862,-0.240954,9.76896,0.369235,0.42,-0.07,0.42,-37.2406,-36.1006,4.09237,1009.78
121868,-0.217042,9.77374,0.369235,0.28,0,0.42,-38.4098,-35.8667,4.10699,1009.78
121874,-0.212259,9.74983,0.354888,0.42,-0.07,0.35,-38.059,-36.1298,3.53698,1009.78
121880,-0.245736,9.7594,0.364453,0.28,0.14,0.49,-38.2344,-35.9544,4.00468,1009.81
121886,-0.264866,9.76418,0.369235,0.42,-0.07,0.49,-38.3514,-36.159,4.92546,1009.81
121892,-0.231389,9.76896,0.374018,0.42,0,0.42,-37.7375,-36.539,3.12774,1009.79
121898,-0.226606,9.74027,0.340541,0.49,0.07,0.42,-38.4098,-35.3405,4.3993,1009.79
121904,-0.240954,9.76896,0.364453,0.28,0.07,0.35,-38.0298,-35.6329,2.87928,1009.8
121910,-0.212259,9.76896,0.354888,0.28,0,0.35,-38.3514,-35.9544,4.29699,1009.8
121916,-0.240954,9.74983,0.374018,0.28,0.14,0.42,-37.796,-36.159,3.09851,1009.79
121922,-0.245736,9.74505,0.364453,0.35,0,0.49,-37.796,-35.8375,3.68313,1009.79
121928,-0.212259,9.78331,0.350106,0.35,0.07,0.42,-38.5267,-35.3405,3.85852,1009.82
121934,-0.236171,9.76418,0.393147,0.42,0,0.42,-38.176,-35.9544,2.85004,1009.82
121940,-0.250518,9.76896,0.350106,0.35,0.14,0.42,-38.0006,-35.9252,3.7416,1009.82
121946,-0.217042,9.79766,0.321411,0.42,0.07,0.42,-38.7314,-35.7498,4.69161,1009.8
121952,-0.245736,9.77374,0.364453,-0.14,0.21,0.42,-38.7606,-35.7206,3.52236,1009.8
121958,-0.283995,9.58723,0.527054,0.28,0.14,0.49,-38.059,-36.4806,3.72698,1009.81
121964,-0.221824,9.79287,0.330976,1.05,-0.35,0.49,-38.2052,-35.8959,4.26776,1009.81
121970,-0.140523,9.95548,0.206634,0.56,-0.07,0.35,-38.176,-35.399,3.34697,1009.78
121976,-0.303125,9.60158,0.488795,0,0.28,0.49,-38.176,-35.6329,3.53698,1009.78
121982,-0.29356,9.61114,0.474448,0.98,-0.28,0.42,-38.1175,-36.3344,3.6539,1009.8
121988,-0.111829,9.93635,0.225763,0.56,0.07,0.35,-39.2575,-36.0129,2.58696,1009.8
121994,-0.221824,9.79766,0.326194,-0.21,0.49,0.56,-38.6437,-36.0129,3.2739,1009.8
122000,-0.264866,9.61114,0.493578,0.7,-0.28,0.35,-38.2637,-36.2467,3.90237,1009.79
122006,-0.183565,9.81679,0.326194,1.05,0,0.35,-37.796,-35.9252,3.97545,1009.79
122012,-0.217042,9.80244,0.307064,-0.07,0.35,0.42,-38.2052,-35.3698,4.15083,1009.8
122018,-0.288778,9.62549,0.484013,0.56,-0.28,0.42,-37.9421,-35.5744,3.90237,1009.8
122024,-0.169218,9.80722,0.311846,0.98,-0.28,0.42,-38.3221,-35.8959,3.20082,1009.82
122030,-0.240954,9.82635,0.297499,0,0.35,0.35,-38.059,-35.6913,3.59544,1009.82
122036,-0.317472,9.69244,0.474448,0.07,-0.07,0.35,-38.0006,-35.9252,2.73312,1009.81
122042,-0.15487,9.74505,0.345323,0.84,-0.21,0.28,-38.176,-36.0129,2.77697,1009.81
122048,-0.159653,9.88374,0.264022,0.28,0.21,0.21,-38.0006,-36.6267,3.25928,1009.81
122054,-0.279213,9.70201,0.402712,-0.07,0.07,0.21,-38.1175,-36.6559,3.20082,1009.81
122060,-0.197912,9.71636,0.393147,0.35,-0.14,0.21,-38.7021,-35.8667,4.1216,1009.81
122066,-0.183565,9.85026,0.292717,0.21,0.28,0.07,-37.6498,-35.9836,3.14236,1009.83
122072,-0.217042,9.77853,0.369235,-0.14,0.14,0.14,-37.4744,-36.4513,3.23005,1009.83
122078,-0.221824,9.67331,0.426624,0.35,0.07,0.14,-39.316,-36.5098,3.9316,1009.77
122084,-0.19313,9.74983,0.350106,0.49,-0.07,0.14,-37.8252,-36.4513,3.24467,1009.77
122090,-0.240954,9.82157,0.292717,0.07,0.14,0,-39.1406,-37.7375,2.49927,1009.83
122096,-0.217042,9.72114,0.374018,-0.14,0.14,0.35,-38.3221,-35.6329,3.62467,1009.83
122102,-0.212259,9.73549,0.369235,0.14,0.21,0.07,-38.4975,-36.4513,4.03391,1009.8
122108,-0.255301,9.77853,0.350106,0.21,0.14,0.14,-38.1467,-36.0421,3.23005,1009.8
122114,-0.174,9.7594,0.326194,-0.07,0.07,0.07,-37.9129,-35.9544,4.00468,1009.8
122120,-0.231389,9.75461,0.369235,0.14,0.14,0.14,-38.3806,-35.5159,3.37621,1009.8
122126,-0.221824,9.78331,0.345323,-0.07,0.14,0.14,-38.4975,-35.6913,3.6539,1009.8
122132,-0.207477,9.7594,0.340541,-0.07,0.07,0,-38.059,-35.779,4.38468,1009.77
122138,-0.236171,9.72114,0.388365,0,0.28,0.14,-39.0529,-35.1359,3.72698,1009.77
122144,-0.226606,9.76418,0.388365,0.21,0.21,0.14,-37.5329,-36.1006,5.15931,1009.82
122150,-0.226606,9.77853,0.335758,0.07,0.28,0.21,-37.5037,-35.9544,2.93774,1009.82
122156,-0.221824,9.76418,0.364453,-0.07,0.35,0.35,-37.7667,-35.3698,2.8062,1009.83
122162,-0.236171,9.74983,0.369235,0.07,0.42,0.35,-38.0006,-36.0421,3.4639,1009.83
122168,-0.197912,9.74027,0.345323,0.07,0.35,0.42,-38.1467,-36.1006,3.63929,1009.83
122174,-0.217042,9.78331,0.335758,0.07,0.28,0.35,-38.4391,-35.9252,4.44315,1009.83
122180,-0.231389,9.7307,0.3788,0.07,0.28,0.35,-38.7898,-36.1882,4.51622,1009.83
122186,-0.197912,9.74027,0.340541,0.21,0.28,0.42,-38.1175,-35.6036,2.93774,1009.79
122192,-0.207477,9.76896,0.354888,0.28,0.21,0.21,-38.936,-35.7206,3.05466,1009.79
122198,-0.212259,9.7594,0.3788,0.21,0.28,0.42,-38.3514,-35.3698,4.35545,1009.79
122204,-0.236171,9.7594,0.369235,0.14,0.28,0.28,-38.1467,-36.7436,3.62467,1009.79
122210,-0.226606,9.76896,0.35967,0.35,0.14,0.35,-38.3806,-35.9544,2.77697,1009.84
122216,-0.221824,9.76896,0.364453,0.35,0.28,0.35,-38.1175,-35.3113,5.02777,1009.84
122222,-0.231389,9.76418,0.369235,0.21,0,0.28,-38.2637,-35.3405,4.07775,1009.82
122228,-0.197912,9.76896,0.354888,0.21,0.07,0.42,-38.3221,-35.8667,3.34697,1009.82
122234,-0.202694,9.74983,0.354888,0.35,0,0.35,-38.1467,-36.7436,3.9316,1009.82
122240,-0.212259,9.76418,0.345323,0.35,0.14,0.35,-38.2637,-35.779,3.25928,1009.8
122246,-0.221824,9.75461,0.335758,0.35,0.07,0.35,-38.2637,-35.8082,3.61006,1009.8
122252,-0.212259,9.75461,0.350106,0.28,0.14,0.35,-38.2052,-36.539,3.55159,1009.78
122258,-0.226606,9.7594,0.350106,0.28,0.07,0.35,-38.6729,-36.0421,4.04852,1009.78
122264,-0.207477,9.76418,0.364453,0.21,0.14,0.42,-37.9421,-35.6036,3.23005,1009.83
122270,-0.226606,9.7594,0.350106,0.28,0.07,0.35,-37.7083,-35.3113,3.7416,1009.83
122276,-0.207477,9.74505,0.345323,0.21,0.21,0.35,-38.1467,-35.6913,4.22391,1009.84
122282,-0.221824,9.7594,0.354888,0.21,0.07,0.42,-38.1175,-35.6036,4.37007,1009.84
122288,-0.221824,9.75461,0.354888,0.28,0.21,0.35,-38.6144,-35.8082,4.88161,1009.84
122294,-0.207477,9.77853,0.340541,0.14,0.14,0.35,-38.5852,-35.7498,4.47238,1009.82
122300,-0.212259,9.76418,0.340541,0.21,0.21,0.35,-39.4914,-36.5975,4.09237,1009.82
122306,-0.212259,9.76418,0.369235,0.35,0.07,0.35,-38.5267,-36.159,4.09237,1009.78
122312,-0.197912,9.76896,0.35967,0.07,0.21,0.42,-38.7606,-35.6913,4.48699,1009.78
122318,-0.236171,9.77374,0.345323,0.21,0,0.35,-38.5267,-35.9544,3.75621,1009.81
122324,-0.217042,9.7594,0.330976,0.14,0.14,0.35,-38.2344,-35.8959,3.39082,1009.81
122330,-0.217042,9.74983,0.350106,0.21,0,0.35,-38.3806,-35.6036,3.62467,1009.83
122336,-0.188347,9.75461,0.369235,0.21,0.07,0.28,-38.7021,-36.3344,3.94621,1009.83
122342,-0.221824,9.74027,0.340541,0,0.14,0.21,-38.176,-36.6852,4.7793,1009.83
122348,-0.226606,9.69723,0.374018,0.14,0.14,0.21,-37.9421,-35.5744,3.52236,1009.81
122354,-0.197912,9.81679,0.307064,0.28,0.07,0.14,-37.8252,-36.6852,4.64776,1009.81
122360,-0.164435,9.812,0.297499,-0.14,0.07,0.07,-37.6498,-36.8021,3.84391,1009.8
122366,-0.240954,9.65418,0.445754,0.07,0.14,0.21,-37.6206,-36.3052,3.49313,1009.8
122372,-0.221824,9.74027,0.335758,0.7,-0.14,0.07,-38.2344,-36.539,4.15083,1009.79
122378,-0.15487,9.86939,0.235328,-0.28,0.21,0.14,-37.7083,-36.539,4.3116,1009.79
122384,-0.260083,9.68766,0.431406,-0.42,0.14,0.07,-38.1175,-37.0067,2.98158,1009.81
122390,-0.217042,9.71636,0.35967,0.56,-0.07,0.07,-37.9714,-36.159,3.39082,1009.81
122396,-0.164435,9.88374,0.24011,0.28,0.07,0.14,-38.3806,-36.5975,2.35311,1009.81
122402,-0.231389,9.76896,0.374018,-0.63,0.42,0.14,-38.9652,-36.4221,3.17159,1009.81
122408,-0.236171,9.61114,0.440971,0.07,0.14,0.14,-38.3221,-35.8959,2.14849,1009.81
122414,-0.188347,9.83113,0.283152,0.42,0.28,0.28,-37.8544,-36.2175,2.89389,1009.79
122420,-0.245736,9.80722,0.297499,-0.14,0.77,0.56,-37.8252,-36.5683,2.47004,1009.79
122426,-0.250518,9.63984,0.412277,0.35,0.77,0.84,-37.796,-36.6559,3.61006,1009.83
122432,-0.217042,9.79287,0.307064,0.7,0.7,0.7,-37.8544,-36.8313,3.59544,1009.83
122438,-0.197912,9.81679,0.302282,-0.35,0.56,0.63,-37.5621,-36.2759,4.03391,1009.83
122444,-0.240954,9.62549,0.455318,0.21,0.42,0.63,-38.0006,-36.159,2.79158,1009.83
122450,-0.226606,9.76418,0.354888,0.77,0.28,0.49,-37.9421,-35.4575,4.19468,1009.79
122456,-0.174,9.88374,0.249675,0.07,0.49,0.63,-38.2637,-36.3052,3.96083,1009.79
122462,-0.197912,9.76896,0.364453,-0.28,0.28,0.42,-38.6144,-35.4867,3.37621,1009.79
122468,-0.197912,9.71636,0.402712,0.14,0.35,0.28,-38.2637,-34.5221,3.78544,1009.81
122474,-0.197912,9.76418,0.350106,0.49,0.21,0.35,-38.6729,-35.0775,3.84391,1009.81
122480,-0.164435,9.8933,0.24011,-0.21,0.14,0.28,-38.176,-36.1882,4.2093,1009.78
122486,-0.19313,9.76418,0.321411,-0.28,0.35,0.14,-39.0821,-36.2759,4.50161,1009.78
122492,-0.226606,9.69723,0.388365,0.07,0.21,0.14,-38.1467,-35.9836,3.08389,1009.8
122498,-0.188347,9.80244,0.297499,0.21,0.14,0.14,-38.4391,-36.0129,2.63081,1009.8
122504,-0.169218,9.80722,0.268805,-0.35,0.35,0.21,-38.059,-36.0713,3.01082,1009.8
122510,-0.231389,9.7307,0.35967,-0.42,0.21,0,-38.5852,-35.8667,2.57235,1009.8
122516,-0.164435,9.74505,0.364453,-0.14,0.07,-0.07,-38.7606,-35.2821,2.58696,1009.8
122522,-0.188347,9.7594,0.316629,-0.21,0.21,0,-38.2344,-36.0129,2.55773,1009.8
122528,-0.221824,9.79766,0.326194,-0.28,0.07,0,-38.3221,-35.5744,2.82081,1009.8
122534,-0.19313,9.78331,0.340541,-0.28,0.14,0,-37.9129,-35.8375,3.49313,1009.79
122540,-0.202694,9.74027,0.350106,-0.14,0.14,0,-38.5852,-35.2821,4.22391,1009.79
122546,-0.19313,9.80244,0.311846,-0.14,0.21,0,-38.7021,-35.4282,2.77697,1009.84
122552,-0.212259,9.76896,0.330976,-0.35,0.14,-0.07,-37.8252,-36.3636,3.80006,1009.84
122558,-0.188347,9.67331,0.388365,-0.14,0.07,-0.14,-38.4391,-35.8959,2.87928,1009.8
122564,-0.207477,9.74983,0.311846,0,0.07,0,-37.6206,-35.4575,3.61006,1009.8
122570,-0.236171,9.78331,0.345323,-0.14,0.07,-0.14,-37.6498,-35.8375,3.68313,1009.81
122576,-0.174,9.7594,0.326194,0.07,-0.07,-0.07,-37.7083,-35.6621,3.71236,1009.81
122582,-0.212259,9.77853,0.335758,-0.14,0.14,-0.14,-38.0298,-35.8667,3.85852,1009.81
122588,-0.236171,9.74983,0.354888,0,0,-0.21,-38.059,-35.5452,3.75621,1009.82
122594,-0.202694,9.76896,0.335758,0.07,-0.07,-0.14,-37.8544,-36.3052,2.95235,1009.82
122600,-0.202694,9.74505,0.383582,0.07,0.07,-0.07,-38.3221,-35.4282,2.55773,1009.82
122606,-0.245736,9.71157,0.350106,0.28,0,0.14,-38.2637,-35.6329,2.44081,1009.82
122612,-0.202694,9.77853,0.316629,0.28,-0.14,0.07,-38.0298,-36.2175,3.40544,1009.79
122618,-0.174,9.79766,0.297499,-0.07,0.14,-0.07,-38.7314,-35.1944,3.02543,1009.79
122624,-0.221824,9.74983,0.407494,-0.14,0.21,0,-38.059,-36.0129,3.04005,1009.82
122630,-0.169218,9.76418,0.335758,0.28,0,-0.07,-38.7898,-35.8375,2.67466,1009.82
122636,-0.15487,9.812,0.302282,0,0.14,0,-38.2929,-35.7206,2.16311,1009.82
122642,-0.269648,9.72592,0.388365,-0.14,0.07,-0.07,-38.059,-35.9252,4.48699,1009.83
122648,-0.231389,9.6781,0.393147,0.21,-0.07,0,-37.7083,-36.3052,3.20082,1009.83
122654,-0.183565,9.80244,0.297499,0.28,0.14,0.14,-38.3221,-35.6621,3.4639,1009.81
122660,-0.212259,9.82635,0.292717,0.07,0.14,0,-38.6437,-36.0713,3.28851,1009.81
122666,-0.212259,9.6781,0.345323,0.07,0.07,0.14,-38.2637,-35.6621,3.30313,1009.78
122672,-0.202694,9.7307,0.383582,0.35,0.07,0,-38.5852,-35.8959,3.7416,1009.78
122678,-0.226606,9.72592,0.350106,0.28,0.28,0.14,-38.176,-35.9544,3.49313,1009.8
122684,-0.255301,9.72592,0.369235,0.28,0.07,0.14,-38.059,-35.9252,3.31774,1009.8
122690,-0.150088,9.81679,0.297499,0.42,0.14,0.07,-38.4098,-35.4867,3.59544,1009.83
122696,-0.169218,9.80722,0.27837,0.21,0.28,0.14,-38.0006,-35.6329,3.24467,1009.83
122702,-0.236171,9.70679,0.383582,-0.14,0.14,0.14,-37.8252,-36.1006,3.63929,1009.83
122708,-0.159653,9.7307,0.369235,0.28,-0.07,0.07,-38.4098,-36.159,2.38234,1009.83
122714,-0.236171,9.7594,0.340541,0.14,0.42,0.21,-38.5267,-36.3929,3.14236,1009.83
122720,-0.212259,9.74505,0.369235,0.14,0.14,0.14,-38.3806,-35.779,3.66852,1009.81
122726,-0.130958,9.80722,0.27837,0,0.56,0.21,-38.3221,-34.9021,3.49313,1009.81
122732,-0.350949,9.65897,0.474448,0.07,0.42,0.42,-38.2637,-35.6913,3.39082,1009.8
122738,-0.178782,9.74027,0.374018,0.7,-0.14,0.28,-38.0298,-35.8959,3.91698,1009.8
122744,-0.174,9.81679,0.249675,0.28,0.63,0.49,-38.0298,-36.1882,3.61006,1009.8
122750,-0.236171,9.80722,0.283152,0.14,0.42,0.35,-38.4391,-36.4221,2.83543,1009.8
122756,-0.236171,9.65897,0.393147,0.14,0.28,0.63,-37.6498,-35.7206,1.63695,1009.8
122762,-0.159653,9.73549,0.354888,0.42,0.28,0.49,-38.059,-36.5098,2.70389,1009.82
122768,-0.202694,9.79287,0.297499,0.14,0.56,0.56,-37.8252,-35.8082,3.99006,1009.82
122774,-0.19313,9.76896,0.335758,-0.07,0.28,0.42,-38.2344,-35.8667,3.87314,1009.83
122780,-0.178782,9.70679,0.354888,0,0.49,0.49,-38.5852,-36.159,3.04005,1009.83
122786,-0.202694,9.72592,0.383582,0.21,0.42,0.35,-38.0883,-36.3929,3.02543,1009.78
122792,-0.202694,9.76896,0.35967,0.28,0.35,0.35,-38.2052,-36.2467,3.04005,1009.78
122798,-0.178782,9.76896,0.345323,0.21,0.35,0.28,-38.7898,-35.4575,2.70389,1009.83
122804,-0.19313,9.7594,0.354888,0.28,0.28,0.42,-38.7021,-35.9252,3.53698,1009.83
122810,-0.174,9.75461,0.345323,0.28,0.14,0.21,-38.0298,-35.779,4.44315,1009.83
122816,-0.207477,9.71157,0.364453,0.28,0.49,0.42,-38.5267,-35.399,3.34697,1009.79
122822,-0.217042,9.74983,0.340541,0.42,0.35,0.42,-38.3514,-35.8375,3.69775,1009.79
122828,-0.145306,9.72114,0.374018,0.42,0.49,0.42,-38.0006,-36.3929,2.95235,1009.8
122834,-0.19313,9.72114,0.35967,0.56,0.42,0.35,-38.1467,-36.8021,2.77697,1009.8
122840,-0.183565,9.77374,0.335758,0.42,0.21,0.28,-38.2344,-35.6329,3.42005,1009.85
122846,-0.174,9.70679,0.369235,0.42,0.35,0.42,-38.7898,-35.399,3.08389,1009.85
122852,-0.212259,9.6781,0.412277,0.7,0.14,0.28,-38.4975,-35.7498,4.37007,1009.8
122858,-0.188347,9.79287,0.330976,0.84,0.21,0.21,-38.4391,-35.6913,3.06928,1009.8
122864,-0.221824,9.78331,0.321411,0.49,0.28,0.35,-38.0298,-35.8082,2.93774,1009.8
122870,-0.183565,9.69244,0.388365,0.7,0.42,0.49,-37.8837,-36.159,1.79772,1009.8
122876,-0.217042,9.67331,0.383582,0.91,0.49,0.56,-38.2344,-35.8959,2.68927,1009.8
122882,-0.197912,9.76896,0.311846,1.05,0.28,0.49,-38.9652,-36.2759,3.52236,1009.81
122888,-0.145306,9.77853,0.287934,0.77,0.35,0.56,-37.8837,-36.2759,3.50775,1009.81
122894,-0.174,9.82157,0.283152,0.63,0.56,0.35,-38.0298,-35.7206,3.49313,1009.81
122900,-0.221824,9.79766,0.292717,0.28,0.56,0.42,-37.9714,-35.4867,2.98158,1009.81
122906,-0.150088,9.70679,0.388365,0.28,0.42,0.35,-38.6437,-35.7206,2.54312,1009.8
122912,-0.202694,9.65418,0.407494,0.49,0.7,0.42,-38.556,-36.0421,2.3385,1009.8
122918,-0.250518,9.67331,0.431406,1.12,0.42,0.7,-38.2637,-35.7206,3.40544,1009.81
122924,-0.207477,9.7307,0.330976,1.19,0.21,0.42,-37.9714,-35.7206,3.50775,1009.81
122930,-0.164435,9.77374,0.283152,0.91,0.56,0.49,-38.4683,-35.4282,3.2739,1009.81
122936,-0.212259,9.7594,0.297499,0.63,0.35,0.49,-38.3514,-35.6329,3.53698,1009.82
122942,-0.240954,9.68288,0.369235,0.98,0.21,0.63,-37.9421,-35.5744,3.17159,1009.82
122948,-0.202694,9.73549,0.326194,1.12,0.28,0.63,-38.3514,-36.1882,4.01929,1009.8
122954,-0.217042,9.76418,0.321411,0.84,0.35,0.7,-38.9068,-36.5975,3.55159,1009.8
122960,-0.221824,9.7307,0.316629,0.91,0.14,0.77,-38.4098,-36.2467,3.87314,1009.82
122966,-0.140523,9.85026,0.249675,0.98,0.14,0.7,-37.7083,-36.0129,4.07775,1009.82
122972,-0.130958,9.82157,0.230546,0.49,0.56,0.7,-38.0298,-36.4221,3.37621,1009.8
122978,-0.217042,9.7594,0.27837,0.49,0.49,0.77,-38.1175,-36.5683,4.01929,1009.8
122984,-0.231389,9.78331,0.264022,0.56,0.35,0.77,-38.2929,-35.5452,3.71236,1009.8
122990,-0.135741,9.74027,0.354888,0.28,0.28,0.63,-39.2575,-35.1944,3.81467,1009.79
122996,-0.264866,9.57767,0.484013,0.63,0.28,0.56,-38.8775,-35.8667,2.73312,1009.79
123002,-0.212259,9.60636,0.436189,1.82,-0.56,0.7,-38.2929,-35.5744,3.50775,1009.83
123008,-0.164435,9.76418,0.321411,1.96,-0.49,0.56,-38.7314,-35.1652,3.80006,1009.83
123014,-0.130958,9.84548,0.244893,1.54,-0.42,0.49,-38.4683,-35.3405,3.15697,1009.78
123020,-0.159653,9.82157,0.27837,1.4,-0.63,0.42,-39.1114,-35.8667,2.67466,1009.78
123026,-0.0209632,9.85026,0.187504,1.19,0,0.49,-38.176,-35.1944,3.49313,1009.8
123032,-0.298342,9.80722,0.345323,0.7,0.07,0.42,-38.4391,-35.8959,3.31774,1009.8
123038,-0.135741,9.76418,0.3788,0.56,0,0.56,-38.059,-35.7498,3.24467,1009.82
123044,-0.19313,9.86939,0.244893,1.4,0.42,0.63,-37.7375,-35.6913,4.42853,1009.82
123050,-0.174,9.91243,0.211416,0.84,0.14,0.77,-37.8544,-34.8728,4.72084,1009.82
123056,-0.0209632,9.80244,0.235328,0.14,1.26,0.77,-38.2344,-35.6329,4.3993,1009.8
123062,-0.269648,9.80244,0.287934,0.49,1.19,0.77,-37.679,-35.8082,4.35545,1009.8
123068,-0.116611,9.96504,0.182722,0.07,0.35,0.7,-38.5852,-35.6329,3.85852,1009.81
123074,0.0268608,9.93156,0.149245,-0.42,1.4,0.84,-38.2637,-35.779,3.17159,1009.81
123080,-0.207477,9.922,0.206634,-0.63,1.47,0.84,-38.2929,-35.3113,3.87314,1009.8
123086,-0.0879168,9.98417,0.201851,-0.98,1.19,0.77,-38.4098,-35.8082,2.77697,1009.8
123092,-0.0496576,9.90287,0.216198,-1.82,1.89,0.63,-38.7021,-36.0713,3.55159,1009.82
123098,-0.174,9.82635,0.307064,-1.89,1.82,0.56,-38.3221,-36.4513,4.00468,1009.82
123104,-0.169218,9.77853,0.307064,-1.54,1.4,0.49,-38.6144,-36.0129,3.72698,1009.82
123110,-0.150088,9.80722,0.287934,-1.75,1.54,0.42,-38.6437,-35.8667,2.93774,1009.8
123116,-0.212259,9.74027,0.3788,-1.68,1.19,0.21,-38.2052,-36.0129,2.64543,1009.8
123122,-0.202694,9.70201,0.388365,-1.61,1.12,0.21,-38.3514,-35.6913,3.30313,1009.78
123128,-0.178782,9.74027,0.321411,-1.12,0.77,0.14,-38.4098,-35.399,2.74773,1009.78
123134,-0.164435,9.77853,0.297499,-1.19,0.63,0.07,-38.3221,-35.019,3.69775,1009.81
123140,-0.116611,9.77374,0.307064,-1.26,0.56,0,-37.5621,-35.6621,3.15697,1009.81
123146,-0.135741,9.7594,0.326194,-1.47,0.56,-0.14,-37.7083,-35.4575,2.95235,1009.8
123152,-0.178782,9.68288,0.35967,-1.4,0.42,-0.21,-38.7606,-35.8375,3.59544,1009.8
123158,-0.178782,9.70679,0.35967,-0.98,0.21,-0.35,-37.796,-35.2528,2.85004,1009.8
123164,-0.174,9.77853,0.345323,-1.12,0.07,-0.42,-37.5329,-35.9836,3.87314,1009.8
123170,-0.159653,9.7307,0.354888,-1.05,-0.14,-0.49,-38.0006,-36.3052,2.66004,1009.8
123176,-0.221824,9.77374,0.311846,-0.91,-0.07,-0.49,-38.1467,-35.5744,3.25928,1009.82
123182,-0.240954,9.77853,0.335758,-1.19,-0.42,-0.56,-38.2929,-35.0775,3.96083,1009.82
123188,-0.212259,9.66375,0.383582,-1.05,-0.42,-0.49,-37.6206,-35.6036,3.21543,1009.81
123194,-0.236171,9.65418,0.412277,-0.28,-0.98,-0.42,-38.2637,-35.2236,3.72698,1009.81
123200,-0.178782,9.69244,0.369235,-0.21,-0.98,-0.49,-38.3514,-35.7206,2.66004,1009.79
123206,-0.221824,9.70201,0.393147,0,-1.19,-0.49,-38.1467,-35.9544,3.63929,1009.79
123212,-0.303125,9.68288,0.426624,0.28,-1.75,-0.49,-38.059,-36.4221,3.15697,1009.82
123218,0.0507728,9.8933,0.230546,0.35,-3.78,-0.98,-38.8775,-35.2821,3.34697,1009.82
123224,0.347282,9.78809,0.106203,0,-0.21,-0.7,-38.2929,-35.6621,3.53698,1009.82
123230,-0.556592,9.76896,0.417059,-0.28,-1.4,-0.98,-38.8483,-35.8667,2.92312,1009.78
123236,-0.245736,9.71636,0.436189,-0.14,-2.94,-0.98,-38.4683,-36.1298,3.20082,1009.78
123242,0.160768,9.73549,0.264022,0.28,-1.33,-1.05,-38.6144,-35.6621,3.82929,1009.81
123248,-0.212259,9.85983,0.24011,0.07,-0.56,-1.33,-38.7021,-35.6913,3.2739,1009.81
123254,-0.212259,9.77853,0.321411,-0.98,-2.03,-1.47,-38.8775,-35.399,3.1862,1009.81
123260,-0.159653,9.63984,0.436189,-0.63,-1.68,-1.33,-38.8775,-35.2528,3.24467,1009.81
123266,-0.126176,9.79287,0.316629,-0.07,-2.1,-1.54,-38.4975,-35.4575,3.39082,1009.82
123272,-0.0113984,9.88852,0.187504,-0.28,-1.33,-1.68,-37.8544,-35.6036,3.23005,1009.82
123278,-0.150088,9.93635,0.197069,-1.47,-1.26,-2.03,-37.8544,-36.3344,3.31774,1009.82
123284,-0.135741,9.95069,0.173157,-2.1,-1.47,-2.17,-37.8544,-34.8728,4.16545,1009.8
123290,-0.0353104,9.85026,0.225763,-2.94,-0.49,-2.45,-37.8252,-36.3052,3.94621,1009.8
123296,-0.169218,9.87896,0.316629,-3.29,-0.98,-2.94,-38.2052,-35.4282,3.9316,1009.84
123302,-0.0974816,9.96504,0.216198,-3.99,-1.19,-3.15,-37.8837,-35.5452,3.44928,1009.84
123308,-0.030528,9.8407,0.307064,-4.83,-0.35,-3.29,-38.556,-35.3405,4.70623,1009.84
123314,-0.183565,9.7307,0.39793,-4.69,-0.14,-3.43,-37.9129,-36.2759,3.59544,1009.84
123320,-0.169218,9.82635,0.273587,-4.2,-0.63,-3.57,-38.2929,-35.8375,3.01082,1009.79
123326,-0.0926992,9.94113,0.163592,-4.83,-0.35,-3.71,-37.9714,-36.6267,3.80006,1009.79
123332,-0.0735696,10.0033,0.163592,-5.74,-0.07,-4.06,-37.7375,-35.8667,3.24467,1009.79
123338,-0.0640048,10.1037,0.12055,-6.51,-0.14,-4.48,-38.2052,-35.5744,3.81467,1009.79
123344,-0.102264,9.99852,0.187504,-8.05,0.21,-4.97,-37.7667,-35.6913,3.62467,1009.79
123350,-0.212259,9.85026,0.354888,-8.75,0.28,-5.11,-37.5621,-35.9836,3.23005,1009.8
123356,-0.202694,9.72592,0.460101,-8.19,0.14,-5.25,-38.3221,-36.1298,3.44928,1009.8
123362,-0.212259,9.76896,0.440971,-7.91,-0.14,-5.39,-37.9714,-35.5744,3.05466,1009.77
123368,-0.102264,9.90765,0.335758,-7.7,-0.21,-5.88,-37.796,-36.6267,2.89389,1009.77
123374,-0.0831344,9.96982,0.24011,-8.12,0.14,-6.09,-38.0298,-36.4221,2.93774,1009.78
123380,-0.0926992,9.90765,0.307064,-8.82,0.77,-6.44,-38.059,-36.3344,2.77697,1009.78
123386,-0.19313,9.75461,0.417059,-8.75,0.98,-6.65,-37.796,-36.8606,3.34697,1009.78
123392,-0.19313,9.88374,0.3788,-8.12,1.12,-6.93,-37.8544,-36.0129,2.73312,1009.78
123398,-0.212259,10.0368,0.254458,-8.54,0.98,-7,-37.5037,-35.8959,1.62233,1009.78
123404,-0.0496576,9.94113,0.321411,-8.96,1.54,-7.84,-37.3867,-36.3929,3.69775,1009.82
123410,-0.174,9.92678,0.450536,-9.8,1.61,-8.54,-37.0944,-37.0067,2.61619,1009.82
123416,-0.0831344,9.81679,0.450536,-9.31,1.96,-8.68,-37.3283,-35.8959,2.32388,1009.79
123422,-0.102264,10.0655,0.431406,-8.19,2.45,-9.1,-36.6559,-36.1298,1.94388,1009.79
123428,0.0938144,9.87418,0.522272,-10.08,1.68,-11.06,-36.919,-36.6267,3.17159,1009.8
123434,0.089032,9.81679,0.59879,-8.12,3.15,-12.18,-37.299,-37.1821,2.51388,1009.8
123440,0.06512,9.80244,0.704003,-5.95,3.22,-13.58,-37.6498,-36.539,2.95235,1009.8
123446,0.44293,10.0511,0.450536,-6.23,3.29,-16.87,-36.7436,-37.2406,2.03157,1009.8
123452,0.476406,10.3476,0.952688,-3.5,5.04,-18.76,-37.299,-36.539,1.6808,1009.8
123458,1.06942,10.1372,1.4644,-0.21,4.62,-25.83,-37.796,-37.1821,1.73926,1009.84
123464,1.50462,9.72114,1.9283,7.49,7.14,-31.22,-37.0944,-36.4513,3.15697,1009.84
123470,0.66292,11.1367,0.990947,15.12,9.87,-38.29,-36.6267,-37.1529,2.39696,1009.83
123476,0.395106,12.0071,0.374018,14.77,8.12,-42.84,-37.1821,-36.539,1.54925,1009.83
123482,0.648573,13.3271,-0.0133568,8.12,5.67,-49.49,-37.0067,-36.6267,2.42619,1009.82
123488,1.28463,13.021,0.527054,4.06,4.55,-56.14,-36.5683,-36.919,3.11312,1009.82
123494,1.9446,12.7771,0.63705,4.83,6.58,-67.34,-36.9483,-36.6852,2.23619,1009.84
123500,1.90634,13.4705,0.374018,3.15,8.33,-75.11,-36.4513,-37.0652,1.3154,1009.84
123506,1.82504,13.9105,0.350106,0.42,8.61,-88.9,-35.5452,-37.1821,2.03157,1009.8
123512,1.74374,13.9583,-0.285954,-2.8,8.47,-98,-35.2528,-37.9714,2.86466,1009.8
123518,1.2655,12.7962,-0.448555,-9.24,10.08,-109.06,-34.4344,-38.2929,2.39696,1009.8
123524,0.749003,12.0741,0.0966384,-10.57,10.71,-115.22,-34.3467,-39.6668,0.482315,1009.79
123530,0.44293,12.8727,0.63705,-6.79,8.4,-122.22,-33.0313,-38.6144,2.51388,1009.79
123536,1.35159,13.7957,0.163592,-7.14,5.6,-129.01,-31.8328,-39.1114,1.57849,1009.8
123542,2.58066,15.7326,-0.945925,-15.05,6.93,-141.4,-31.862,-39.6083,2.85004,1009.8
123548,2.44676,14.9674,-0.883754,-20.3,9.17,-153.86,-31.482,-38.9944,2.48465,1009.81
123554,0.988123,14.0731,-0.429426,-23.66,7.77,-170.03,-30.8097,-38.8483,3.80006,1009.81
123560,0.825522,14.2357,-0.266824,-22.82,4.62,-179.69,-29.5235,-39.0821,1.94388,1009.85
123566,1.4568,16.1822,-1.24243,-26.04,-0.35,-194.95,-28.5881,-40.1052,1.6808,1009.85
123572,1.96852,17.306,-1.9311,-31.5,-1.4,-206.43,-27.7989,-39.4037,2.42619,1009.85
123578,1.97808,19.5777,-2.59585,-44.31,-4.69,-226.94,-26.7173,-40.6314,2.3385,1009.82
123584,1.85374,21.1272,-2.78715,-62.09,-7.98,-246.26,-24.9635,-41.0699,1.44695,1009.82
123590,1.90634,21.065,-3.63842,-72.31,-8.61,-258.58,-24.1158,-41.1576,1.5931,1009.8
123596,1.41376,21.1606,-4.42273,-90.16,-13.23,-279.3,-22.7711,-41.4791,0.760012,1009.8
123602,-0.0400928,21.4906,-3.97318,-101.43,-8.75,-287.98,-21.6896,-41.8883,0.36539,1009.8
123608,-0.781365,20.6967,-2.94975,-121.45,-17.64,-297.78,-19.7603,-41.8299,0.336159,1009.8
123614,-1.49394,18.3342,-2.21804,-119.63,-12.46,-302.96,-17.6557,-42.0637,0.292312,1009.78
123620,-2.5652,21.4571,-1.99327,-128.17,-29.4,-308.63,-16.5741,-42.2099,-0.409237,1009.78
123626,-0.570939,19.6924,-1.35243,-135.17,-24.92,-310.87,-16.1356,-43.2622,-2.9962,1009.78
123632,-3.89949,19.592,-0.324213,-126.28,-12.25,-311.22,-13.6802,-42.6776,-2.03157,1009.75
123638,-5.68333,20.5102,-0.620722,-126.21,-20.79,-309.47,-12.891,-43.1745,-2.26542,1009.75
123644,-3.45951,19.5633,-1.42416,-125.3,-25.48,-304.99,-10.6402,-43.1453,-2.85004,1009.74
123650,-3.10561,21.4428,-1.63459,-123.27,-23.59,-296.24,-8.7109,-43.7299,-3.78544,1009.74
123656,-2.56998,22.7436,-1.61546,-134.26,-22.4,-281.96,-7.57089,-42.4437,-4.57469,1009.76
123662,-2.21608,22.8584,-1.65372,-141.33,-27.3,-275.52,-6.48933,-43.116,-5.20316,1009.76
123668,0.90204,22.1745,-2.97366,-157.99,-34.51,-269.22,-5.057,-43.1453,-6.00702,1009.73
123674,3.64236,20.3142,-3.93492,-168.42,-33.46,-266.28,-4.15083,-43.1745,-5.48085,1009.73
123680,5.80878,17.4495,-4.73359,-175.21,-29.89,-261.31,-1.8708,-42.473,-7.57089,1009.74
123686,7.2722,16.1009,-5.21183,-179.9,-32.97,-261.8,-1.34464,-42.0637,-8.14089,1009.74
123692,10.529,14.1736,-6.32613,-184.87,-34.51,-268.45,-0.23385,-41.596,-8.00935,1009.74
123698,11.6242,13.5997,-6.20656,-192.08,-34.51,-279.79,1.28617,-40.3391,-9.48553,1009.77
123704,14.1397,13.0545,-5.99614,-199.36,-34.23,-305.83,3.24467,-40.2222,-11.6048,1009.77
123710,11.935,14.097,-5.54659,-204.75,-25.62,-331.38,4.35545,-39.6375,-11.7363,1009.78
123716,4.62753,11.725,-8.9421,-223.37,-36.12,-343.84,6.19702,-39.1991,-12.1456,1009.78
123722,-0.657022,5.88087,-8.04779,-240.1,-36.19,-287.49,7.54165,-38.3514,-14.221,1009.76
123728,-7.74454,-7.05074,-5.81919,-251.02,-35.63,-221.34,8.18474,-38.0883,-15.9895,1009.76
