Timestamp,AccX,AccY,AccZ,AngularVelX,AngularVelY,AngularVelZ,MagX,MagY,MagZ,AirPressure
1208822,0.186364,9.82743,0.375357,-1.75,0.08,-1.695,7.42468,-49.1377,7.52687,1009.08
1208828,0.186364,9.82267,0.375357,-1.89,-0.06,-1.415,7.45392,-49.2838,8.62304,1009.08
1208834,0.186364,9.82267,0.375357,-1.75,-0.13,-1.275,7.68776,-48.9915,8.31611,1009.09
1208840,0.186364,9.82267,0.375357,-1.68,-0.13,-1.275,7.39545,-48.553,8.08226,1009.09
1208846,0.181586,9.82267,0.375357,-1.47,-0.13,-1.205,6.86929,-49.6931,6.73762,1009.09
1208852,0.181586,9.8179,0.380107,-0.98,-0.13,-1.135,7.65853,-49.2546,8.31611,1009.09
1208858,0.181586,9.8179,0.380107,-0.84,-0.06,-1.065,8.00931,-49.3423,6.82532,1009.09
1208864,0.181586,9.8179,0.380107,-0.91,-0.13,-0.855,7.51238,-48.4946,8.46227,1009.09
1208870,0.181586,9.8179,0.380107,-0.77,-0.13,-0.855,7.57084,-48.4069,8.18457,1009.08
1208876,0.181586,9.81314,0.380107,-0.49,-0.13,-0.855,7.57084,-48.7284,8.0238,1009.08
1208882,0.181586,9.81314,0.380107,-0.35,-0.06,-0.855,7.54161,-48.8746,8.94458,1009.08
1208888,0.181586,9.81314,0.380107,-0.14,-0.2,-0.855,7.13237,-48.4653,8.09688,1009.08
1208894,0.181586,9.81314,0.380107,-0.07,-0.27,-0.785,7.22007,-48.4653,8.47688,1009.08
1208900,0.181586,9.80837,0.384857,0.49,-0.06,-0.715,7.2493,-49.0792,8.27226,1009.08
1208906,0.176807,9.80837,0.384857,0.91,-0.2,-0.645,7.27853,-49.5469,7.84841,1009.08
1208912,0.176807,9.80837,0.384857,1.12,-0.34,-0.645,8.53547,-48.4653,7.0007,1009.06
1208918,0.176807,9.80837,0.389607,1.47,-0.41,-0.855,7.86315,-48.7577,7.87764,1009.06
1208924,0.176807,9.80837,0.384857,1.61,-0.34,-0.785,7.717,-49.05,8.92997,1009.05
1208930,0.176807,9.80837,0.384857,1.4,-0.48,-0.785,7.1616,-48.7577,7.0007,1009.05
1208936,0.176807,9.80837,0.384857,1.47,-0.55,-0.715,8.00931,-49.2838,7.52687,1009.05
1208942,0.176807,9.80837,0.384857,1.75,-0.27,-0.785,6.92775,-49.5177,8.05303,1009.08
1208948,0.176807,9.80837,0.389607,1.82,-0.55,-0.645,7.68776,-48.6992,7.67302,1009.08
1208954,0.176807,9.80837,0.389607,1.82,-0.34,-0.505,8.12623,-48.933,7.83379,1009.08
1208960,0.176807,9.80837,0.389607,1.75,-0.41,-0.575,7.48315,-49.1084,8.52073,1009.08
1208966,0.176807,9.80837,0.384857,1.75,-0.48,-0.505,6.89852,-49.7515,8.33072,1009.06
1208972,0.176807,9.80837,0.384857,1.33,-0.27,-0.785,7.27853,-48.5823,8.34534,1009.06
1208978,0.176807,9.80837,0.384857,1.26,-0.41,-0.995,8.097,-49.1669,8.34534,1009.06
1208984,0.176807,9.80837,0.384857,1.12,-0.2,-1.205,8.21393,-48.8161,8.12611,1009.06
1208990,0.176807,9.80837,0.384857,1.19,-0.2,-1.275,7.36622,-49.3423,8.54996,1009.06
1208996,0.176807,9.80837,0.384857,1.4,-0.34,-1.275,7.60007,-49.313,8.18457,1009.08
1209002,0.176807,9.80837,0.389607,1.68,-0.48,-1.275,7.2493,-49.81,8.24303,1009.08
1209008,0.176807,9.80361,0.389607,2.03,-0.48,-1.065,7.1616,-49.6638,8.05303,1009.1
1209014,0.176807,9.80837,0.389607,1.96,-0.55,-0.995,7.68776,-49.6346,8.52073,1009.1
1209020,0.176807,9.80837,0.389607,1.75,-0.55,-0.995,8.21393,-49.6346,8.47688,1009.09
1209026,0.176807,9.80837,0.384857,1.4,-0.41,-1.065,7.83392,-49.1084,8.6815,1009.09
1209032,0.172029,9.80837,0.384857,1.05,-0.34,-0.995,7.95085,-49.1084,8.56458,1009.07
1209038,0.172029,9.80837,0.384857,0.28,-0.27,-0.995,6.86929,-49.8392,8.34534,1009.07
1209044,0.172029,9.80837,0.380107,0,-0.27,-0.925,7.01545,-49.8392,8.92997,1009.1
1209050,0.172029,9.81314,0.380107,-0.28,-0.13,-0.855,7.77546,-49.6638,7.5561,1009.1
1209056,0.172029,9.81314,0.380107,-0.35,-0.55,-0.645,7.60007,-49.5761,8.53534,1009.1
1209062,0.16725,9.81314,0.380107,-0.98,-0.06,-0.645,7.36622,-49.6931,9.49997,1009.07
1209068,0.16725,9.81314,0.380107,-0.98,-0.06,-0.575,6.98622,-49.4007,7.78995,1009.07
1209074,0.16725,9.81314,0.380107,-0.91,-0.13,-0.505,7.54161,-49.6054,8.25765,1009.07
1209080,0.16725,9.81314,0.380107,-0.98,-0.13,-0.435,7.30776,-49.1377,8.33072,1009.07
1209086,0.16725,9.81314,0.380107,-1.05,-0.06,-0.365,7.30776,-49.4007,8.22842,1009.07
1209092,0.16725,9.81314,0.380107,-0.98,-0.2,-0.365,8.5647,-49.4884,8.22842,1009.07
1209098,0.16725,9.81314,0.380107,-0.91,-0.06,-0.295,7.42468,-49.9269,7.9361,1009.05
1209104,0.16725,9.81314,0.380107,-0.91,0.01,-0.365,7.39545,-49.7223,8.31611,1009.05
1209110,0.16725,9.81314,0.380107,-0.91,-0.13,-0.505,8.33085,-49.5761,9.54382,1009.05
1209116,0.162472,9.81314,0.380107,-0.7,-0.06,-0.505,7.57084,-49.7223,9.41228,1009.06
1209122,0.162472,9.80837,0.380107,-0.63,0.08,-0.645,7.2493,-49.6931,9.07612,1009.06
1209128,0.16725,9.80837,0.380107,-0.42,0.01,-0.505,7.86315,-48.8161,7.99457,1009.08
1209134,0.16725,9.80837,0.380107,-0.28,-0.06,-0.505,7.717,-49.6054,8.82766,1009.08
1209140,0.162472,9.80837,0.380107,-0.14,0.01,-0.575,8.33085,-49.0792,8.2138,1009.07
1209146,0.162472,9.80837,0.384857,0,0.08,-0.505,7.95085,-49.4884,8.52073,1009.07
1209152,0.162472,9.80837,0.384857,0.35,-0.13,-0.435,8.47701,-49.5177,7.89226,1009.07
1209158,0.162472,9.80361,0.384857,0.35,-0.06,-0.365,7.80469,-48.7869,8.37457,1009.07
1209164,0.162472,9.80361,0.384857,0.7,-0.13,-0.435,7.13237,-49.4007,8.19918,1009.08
1209170,0.162472,9.80361,0.380107,0.84,-0.13,-0.435,8.36008,-49.3423,7.64379,1009.08
1209176,0.162472,9.80361,0.380107,0.56,-0.06,-0.295,7.51238,-48.5823,8.66688,1009.08
1209182,0.162472,9.80837,0.380107,0.42,-0.13,-0.435,7.48315,-49.5469,9.03227,1009.08
1209188,0.162472,9.80837,0.380107,0.14,-0.06,-0.435,6.60621,-48.9038,7.61456,1009.08
1209194,0.157693,9.80361,0.380107,0.21,-0.13,-0.365,7.717,-49.1377,9.70459,1009.09
1209200,0.157693,9.80361,0.375357,-0.07,-0.13,-0.365,7.83392,-48.9038,8.9592,1009.09
1209206,0.157693,9.80837,0.375357,-0.35,-0.06,-0.365,7.86315,-49.313,8.22842,1009.06
1209212,0.157693,9.80361,0.375357,-0.35,0.01,-0.365,8.47701,-49.7515,8.69612,1009.06
1209218,0.157693,9.80361,0.375357,-0.35,-0.06,-0.295,7.10314,-49.0207,9.54382,1009.09
1209224,0.157693,9.80361,0.375357,-0.21,-0.06,-0.365,7.36622,-49.8392,7.64379,1009.09
1209230,0.157693,9.80361,0.380107,-0.28,-0.13,-0.225,7.45392,-49.1961,9.00304,1009.09
1209236,0.152914,9.80361,0.380107,-0.14,0.01,-0.225,7.51238,-49.0792,7.95072,1009.07
1209242,0.152914,9.80361,0.380107,-0.21,0.08,-0.155,7.39545,-48.9038,7.10301,1009.07
1209248,0.152914,9.80361,0.380107,0,-0.13,-0.085,8.06777,-48.7284,7.78995,1009.08
1209254,0.152914,9.80361,0.380107,0.21,0.01,0.055,7.54161,-49.4592,7.78995,1009.08
1209260,0.152914,9.80361,0.380107,0.21,-0.06,-0.015,6.89852,-49.5177,7.9361,1009.07
1209266,0.152914,9.80361,0.380107,0.14,0.01,-0.015,7.33699,-48.9623,8.18457,1009.07
1209272,0.152914,9.80361,0.380107,0.07,0.08,-0.085,7.83392,-48.933,7.49764,1009.09
1209278,0.152914,9.80837,0.380107,0.07,0.01,-0.155,7.27853,-49.6346,8.0238,1009.09
1209284,0.148136,9.80837,0.380107,0,0.08,-0.085,8.06777,-49.0207,8.85689,1009.09
1209290,0.148136,9.80837,0.375357,-0.21,0.08,-0.085,7.74623,-48.9915,8.88612,1009.1
1209296,0.148136,9.80837,0.375357,-0.35,0.22,-0.155,8.27239,-48.5823,8.24303,1009.1
1209302,0.148136,9.80837,0.375357,-0.56,0.15,-0.155,7.95085,-49.3715,7.80456,1009.09
1209308,0.148136,9.80837,0.375357,-0.63,0.22,-0.085,7.92161,-49.43,8.15534,1009.09
1209314,0.148136,9.80837,0.375357,-0.56,0.08,-0.155,7.80469,-49.1669,7.86303,1009.07
1209320,0.148136,9.80837,0.375357,-0.56,0.08,-0.155,7.80469,-49.43,8.41842,1009.07
1209326,0.148136,9.80837,0.380107,-0.63,0.15,-0.015,6.95698,-49.3423,7.64379,1009.09
1209332,0.148136,9.80837,0.380107,-0.7,0.08,-0.155,7.27853,-48.8453,8.34534,1009.09
1209338,0.148136,9.80837,0.375357,-0.63,0.15,-0.085,7.2493,-49.05,8.4915,1009.04
1209344,0.148136,9.80837,0.375357,-0.77,0.15,-0.085,7.27853,-50.0146,7.96533,1009.04
1209350,0.148136,9.80837,0.375357,-0.98,0.15,-0.155,7.89238,-48.5238,7.81918,1009.04
1209356,0.148136,9.80837,0.375357,-0.98,0.29,-0.155,7.74623,-49.1377,8.25765,1009.08
1209362,0.143357,9.80837,0.375357,-0.91,0.29,-0.085,6.72313,-49.313,8.38919,1009.08
1209368,0.143357,9.80837,0.375357,-0.84,0.29,-0.015,7.717,-49.0792,9.54382,1009.08
1209374,0.143357,9.80837,0.375357,-0.91,0.29,-0.015,7.01545,-49.1377,8.72535,1009.08
1209380,0.143357,9.80837,0.375357,-0.84,0.22,-0.015,8.38931,-48.7869,8.56458,1009.06
1209386,0.143357,9.80837,0.380107,-0.91,0.43,0.055,7.51238,-48.67,9.06151,1009.06
1209392,0.143357,9.80837,0.380107,-0.77,0.36,0.125,7.6293,-48.7577,8.76919,1009.08
1209398,0.143357,9.80837,0.380107,-0.7,0.29,0.125,7.30776,-49.4884,8.72535,1009.08
1209404,0.143357,9.80837,0.380107,-0.7,0.22,0.125,7.65853,-49.1377,8.69612,1009.08
1209410,0.143357,9.80837,0.380107,-0.7,0.15,0.125,7.36622,-49.05,8.59381,1009.07
1209416,0.143357,9.80837,0.380107,-0.56,0.22,0.125,8.12623,-49.2838,8.90073,1009.07
1209422,0.143357,9.80361,0.380107,-0.63,0.22,0.055,6.92775,-48.8453,8.91535,1009.06
1209428,0.143357,9.80837,0.384857,-0.56,0.22,0.125,7.30776,-49.2253,9.00304,1009.06
1209434,0.143357,9.80361,0.384857,-0.42,0.22,0.055,7.92161,-49.5761,9.20766,1009.08
1209440,0.143357,9.80361,0.384857,-0.21,0.22,-0.015,6.86929,-49.313,8.72535,1009.08
1209446,0.138579,9.80837,0.384857,-0.28,0.15,0.055,8.33085,-49.4884,8.98843,1009.08
1209452,0.138579,9.80837,0.384857,-0.14,0.15,0.055,8.097,-49.8392,9.6169,1009.08
1209458,0.138579,9.80361,0.384857,-0.07,0.01,-0.015,7.07391,-49.6638,8.28688,1009.07
1209464,0.138579,9.80361,0.384857,-0.07,-0.13,-0.155,6.54775,-49.3715,9.35382,1009.07
1209470,0.138579,9.80361,0.384857,-0.14,-0.06,-0.085,7.6293,-49.3423,8.76919,1009.07
1209476,0.138579,9.80361,0.384857,-0.21,0.15,-0.015,7.83392,-50.0146,8.60842,1009.08
1209482,0.138579,9.80361,0.384857,-0.35,0.08,0.055,7.717,-49.6054,8.52073,1009.08
1209488,0.138579,9.80361,0.384857,-0.35,0.01,-0.015,7.74623,-49.9269,8.28688,1009.05
1209494,0.138579,9.80361,0.384857,-0.49,0.08,-0.015,8.50624,-50.0731,7.99457,1009.05
1209500,0.138579,9.80361,0.389607,-0.56,0.08,0.055,7.51238,-50.0438,8.84227,1009.1
1209506,0.138579,9.80361,0.389607,-0.56,0.08,0.055,7.60007,-49.9854,8.38919,1009.1
1209512,0.138579,9.80361,0.389607,-0.35,-0.06,0.055,7.717,-49.9854,8.22842,1009.09
1209518,0.138579,9.80361,0.389607,-0.35,0.08,0.125,7.83392,-48.933,8.30149,1009.09
1209524,0.138579,9.80361,0.389607,-0.28,0.15,-0.085,7.6293,-49.5469,8.60842,1009.09
1209530,0.138579,9.80361,0.389607,-0.21,0.08,0.055,7.80469,-49.7807,9.83613,1009.07
1209536,0.138579,9.80361,0.389607,0,0.08,-0.015,7.57084,-49.9854,9.76305,1009.07
1209542,0.138579,9.80361,0.394357,0.42,-0.06,0.055,7.2493,-50.5992,8.92997,1009.08
1209548,0.138579,9.80361,0.394357,0.42,-0.06,0.125,7.60007,-49.6638,8.46227,1009.08
1209554,0.138579,9.80361,0.394357,0.35,0.01,0.055,7.51238,-49.9269,9.76305,1009.1
1209560,0.138579,9.79884,0.394357,0.42,0.01,-0.085,7.45392,-50.1608,8.88612,1009.1
1209566,0.138579,9.79884,0.394357,0.35,-0.13,-0.085,7.54161,-50.57,8.46227,1009.05
1209572,0.138579,9.80361,0.389607,0.28,-0.06,-0.015,8.15546,-49.8977,8.8715,1009.05
1209578,0.138579,9.80361,0.389607,0.28,0.01,-0.155,7.45392,-49.7807,8.57919,1009.05
1209584,0.138579,9.80361,0.389607,0.14,-0.13,-0.155,8.15546,-50.0438,7.96533,1009.09
1209590,0.138579,9.80361,0.389607,0,-0.06,-0.155,7.13237,-50.5115,9.3392,1009.09
1209596,0.138579,9.80361,0.389607,-0.14,-0.06,-0.155,7.65853,-49.6054,9.07612,1009.09
1209602,0.138579,9.80361,0.389607,-0.21,-0.06,-0.155,7.54161,-50.19,9.36843,1009.09
1209608,0.138579,9.80361,0.389607,-0.21,-0.06,-0.295,7.95085,-50.19,8.08226,1009.06
1209614,0.138579,9.80361,0.389607,-0.28,-0.06,-0.225,7.2493,-49.6054,9.98229,1009.06
1209620,0.138579,9.80361,0.389607,-0.21,-0.13,-0.225,7.6293,-49.6638,9.1492,1009.1
1209626,0.138579,9.80837,0.389607,-0.35,-0.06,-0.225,7.92161,-49.4007,9.36843,1009.1
1209632,0.138579,9.80837,0.389607,-0.42,-0.06,-0.295,8.1847,-49.6054,9.17843,1009.06
1209638,0.138579,9.80361,0.389607,-0.42,-0.06,-0.295,8.36008,-49.7515,8.63765,1009.06
1209644,0.138579,9.80361,0.394357,-0.42,-0.06,-0.295,7.74623,-49.9269,9.8946,1009.06
1209650,0.138579,9.80361,0.394357,-0.49,0.08,-0.225,7.54161,-49.4007,8.4038,1009.04
1209656,0.138579,9.80361,0.394357,-0.42,0.01,-0.295,8.30162,-49.1084,9.36843,1009.04
1209662,0.138579,9.80361,0.394357,-0.35,-0.13,-0.365,7.36622,-49.2253,8.59381,1009.08
1209668,0.138579,9.80361,0.394357,-0.35,0.01,-0.575,8.47701,-49.5469,9.29535,1009.08
1209674,0.138579,9.80361,0.394357,-0.28,0.08,-0.365,8.30162,-49.6054,9.20766,1009.06
1209680,0.138579,9.80361,0.394357,-0.28,-0.06,-0.225,7.74623,-49.5761,8.46227,1009.06
1209686,0.138579,9.80361,0.394357,-0.35,-0.06,-0.295,8.5647,-49.1084,9.10535,1009.08
1209692,0.138579,9.80361,0.394357,-0.56,-0.13,-0.295,8.00931,-49.1084,8.37457,1009.08
1209698,0.138579,9.80361,0.394357,-0.77,-0.06,-0.225,7.39545,-49.6054,8.28688,1009.08
1209704,0.138579,9.80361,0.399107,-0.63,-0.06,-0.155,8.59393,-49.2838,7.97995,1009.08
1209710,0.138579,9.80361,0.399107,-0.56,-0.06,-0.225,8.00931,-49.2253,8.43303,1009.08
1209716,0.138579,9.80361,0.399107,-0.63,-0.06,-0.295,8.24316,-49.2838,8.00918,1009.1
1209722,0.138579,9.80361,0.399107,-3.08,0.43,-0.435,8.00931,-49.8977,9.26612,1009.1
1209728,0.1338,9.79884,0.399107,-0.49,-0.48,-0.225,7.83392,-49.0207,7.36609,1009.1
1209734,0.1338,9.80361,0.399107,-1.26,0.08,-0.085,8.24316,-49.81,8.2138,1009.1
1209740,0.1338,9.80361,0.399107,-1.68,0.08,-0.155,8.097,-49.3423,9.35382,1009.08
1209746,0.1338,9.80361,0.399107,-1.61,-0.27,-0.085,8.00931,-50.0146,9.45613,1009.08
1209752,0.1338,9.80361,0.399107,-1.61,0.29,-0.085,8.6524,-49.6346,9.38305,1009.08
1209758,0.1338,9.79884,0.399107,-1.33,0.08,-0.085,8.71086,-49.5761,8.35996,1009.05
1209764,0.1338,9.79884,0.403857,-1.05,-0.06,-0.015,8.62316,-49.9269,10.4354,1009.05
1209770,0.1338,9.79884,0.403857,-0.77,0.01,-0.015,8.97394,-49.7223,7.20532,1009.11
1209776,0.1338,9.79884,0.403857,-0.7,-0.06,-0.015,8.44778,-50.2484,9.28074,1009.11
1209782,0.1338,9.79884,0.403857,-0.56,-0.06,0.055,8.03854,-49.81,9.58767,1009.09
1209788,0.1338,9.79884,0.403857,-0.35,0.01,0.055,8.62316,-49.6346,9.38305,1009.09
1209794,0.1338,9.79884,0.403857,-0.21,0.01,-0.155,8.21393,-49.7515,8.50611,1009.06
1209800,0.1338,9.79884,0.403857,-0.07,-0.06,-0.155,8.68163,-50.1023,8.75458,1009.06
1209806,0.1338,9.79884,0.403857,-0.07,-0.13,0.055,8.30162,-49.6054,8.35996,1009.1
1209812,0.1338,9.79408,0.403857,-0.07,-0.2,-0.015,7.717,-50.2484,9.25151,1009.1
1209818,0.129022,9.79408,0.408606,-0.07,-0.06,0.055,8.36008,-50.8038,8.91535,1009.1
1209824,0.1338,9.79884,0.408606,-0.14,-0.06,0.055,7.98008,-49.0207,8.69612,1009.07
1209830,0.1338,9.79884,0.408606,-0.28,-0.06,0.055,8.33085,-49.1669,9.03227,1009.07
1209836,0.1338,9.79884,0.408606,-0.49,-0.06,0.055,8.44778,-49.8684,9.79229,1009.05
1209842,0.1338,9.79884,0.408606,-0.63,0.01,0.195,8.62316,-49.8392,10.83,1009.05
1209848,0.1338,9.79884,0.408606,-0.63,0.15,0.125,8.53547,-49.9561,9.3392,1009.06
1209854,0.1338,9.79884,0.408606,-0.63,0.01,0.195,8.097,-49.43,8.46227,1009.06
1209860,0.1338,9.79884,0.408606,-0.63,0.08,0.195,8.68163,-49.5761,9.82152,1009.06
1209866,0.1338,9.79884,0.408606,-0.63,0.22,0.195,8.68163,-49.3423,9.1492,1009.06
1209872,0.129022,9.79884,0.408606,-0.42,-0.06,-0.155,9.17856,-49.6638,9.1492,1009.06
1209878,0.129022,9.79408,0.408606,-0.35,-0.06,0.195,8.79855,-49.8977,9.54382,1009.05
1209884,0.129022,9.79408,0.408606,-0.35,0.15,0.265,8.68163,-50.4823,9.47074,1009.05
1209890,0.129022,9.79408,0.408606,-0.07,0.01,0.335,8.21393,-49.7807,8.88612,1009.07
1209896,0.129022,9.79408,0.408606,-0.14,0.08,0.265,9.35394,-49.9854,8.44765,1009.07
1209902,0.129022,9.79408,0.413356,0,-0.06,0.335,9.0324,-49.5177,8.78381,1009.06
1209908,0.129022,9.79408,0.413356,0.07,-0.13,0.335,8.53547,-49.8392,9.22228,1009.06
1209914,0.129022,9.79408,0.413356,0.07,-0.06,0.335,8.12623,-49.6931,8.05303,1009.08
1209920,0.129022,9.79408,0.413356,-0.14,0.01,0.265,8.94471,-49.9269,9.36843,1009.08
1209926,0.129022,9.79408,0.413356,-0.28,0.01,0.265,8.71086,-50.2777,8.73996,1009.07
1209932,0.129022,9.79408,0.413356,-0.21,-0.06,0.405,8.79855,-49.5761,9.09074,1009.07
1209938,0.129022,9.79408,0.413356,-0.28,0.01,0.265,9.17856,-50.1023,8.84227,1009.07
1209944,0.129022,9.79884,0.413356,-0.28,0.01,0.265,8.88624,-49.5177,8.50611,1009.04
1209950,0.1338,9.79884,0.413356,-0.28,-0.13,0.265,8.71086,-49.7807,9.54382,1009.04
1209956,0.1338,9.79884,0.413356,-0.35,0.08,0.265,8.76932,-50.1608,9.44151,1009.11
1209962,0.1338,9.79884,0.413356,-0.21,-0.06,0.195,9.17856,-49.9269,8.25765,1009.11
1209968,0.1338,9.79408,0.413356,0,0.01,0.265,8.74009,-49.81,8.6815,1009.02
1209974,0.1338,9.79408,0.413356,0,0.01,0.195,9.67549,-49.6054,9.74844,1009.02
1209980,0.1338,9.79408,0.418106,0.07,-0.06,0.055,8.85701,-50.4823,9.44151,1009.06
1209986,0.1338,9.79408,0.418106,0.21,-0.06,0.055,9.26625,-50.1608,8.41842,1009.06
1209992,0.1338,9.79408,0.418106,0.28,-0.06,0.125,8.44778,-49.4592,8.92997,1009.06
1209998,0.1338,9.79408,0.418106,0.28,-0.06,0.055,8.76932,-49.7807,8.97381,1009.09
1210004,0.1338,9.79408,0.418106,0.49,-0.13,0.195,8.59393,-49.5761,8.97381,1009.09
1210010,0.129022,9.79408,0.418106,0.42,-0.13,0.265,9.09086,-50.1023,9.52921,1009.06
1210016,0.129022,9.79408,0.418106,0.42,-0.06,0.195,8.12623,-49.6638,10.0115,1009.06
1210022,0.129022,9.79408,0.418106,0.49,0.01,0.125,8.44778,-49.1961,9.26612,1009.1
1210028,0.129022,9.79408,0.418106,0.56,-0.06,0.335,8.91548,-49.1669,9.03227,1009.1
1210034,0.129022,9.79408,0.418106,0.56,-0.13,0.335,8.71086,-49.6638,9.35382,1009.05
1210040,0.129022,9.79408,0.418106,0.63,-0.13,0.335,8.88624,-49.8977,8.53534,1009.05
1210046,0.129022,9.79408,0.418106,0.56,-0.06,0.195,8.5647,-50.3069,9.35382,1009.05
1210052,0.1338,9.79408,0.418106,0.42,0.01,0.125,9.20779,-49.81,8.44765,1009.06
1210058,0.1338,9.79408,0.418106,0.42,0.01,0.125,8.24316,-49.9561,9.44151,1009.06
1210064,0.1338,9.79408,0.418106,0.42,-0.06,-0.015,8.76932,-49.5177,8.2138,1009.04
1210070,0.1338,9.79408,0.418106,0.35,-0.2,0.055,8.44778,-49.05,7.48302,1009.04
1210076,0.1338,9.79408,0.418106,0.28,-0.13,-0.365,8.82778,-49.6346,9.54382,1009.06
1210082,0.1338,9.79408,0.418106,0.21,-0.06,-0.155,8.47701,-49.1669,9.16381,1009.06
1210088,0.1338,9.79408,0.418106,0.07,-0.06,-0.015,8.53547,-49.3715,9.44151,1009.06
1210094,0.1338,9.79408,0.418106,-0.07,0.01,-0.085,8.82778,-49.7807,7.97995,1009.06
1210100,0.1338,9.79408,0.418106,0.07,-0.06,-0.085,8.47701,-49.9561,9.09074,1009.07
1210106,0.1338,9.79408,0.418106,-0.07,-0.06,0.055,8.94471,-50.2777,8.34534,1009.07
1210112,0.1338,9.79408,0.418106,0,-0.06,-0.015,8.68163,-49.5761,9.32459,1009.07
1210118,0.1338,9.79408,0.418106,-0.07,-0.06,0.055,8.47701,-50.4238,9.4269,1009.04
1210124,0.129022,9.79408,0.418106,-0.07,0.01,-0.015,9.12009,-49.8392,9.82152,1009.04
1210130,0.1338,9.79408,0.418106,-0.07,0.01,-0.085,8.79855,-50.1608,10.2454,1009.07
1210136,0.1338,9.79408,0.418106,-0.14,0.08,-0.015,8.97394,-49.8977,9.49997,1009.07
1210142,0.1338,9.79408,0.418106,-0.21,0.08,0.125,8.76932,-50.3946,8.8715,1009.08
1210148,0.1338,9.79408,0.418106,-0.28,0.08,0.125,9.0324,-49.9854,9.22228,1009.08
1210154,0.1338,9.79408,0.418106,-0.21,-0.06,-0.015,8.97394,-49.8392,9.20766,1009.07
1210160,0.1338,9.79408,0.418106,-0.28,0.08,0.055,8.1847,-50.0146,9.73382,1009.07
1210166,0.1338,9.79408,0.418106,-0.21,0.01,-0.015,7.95085,-49.9561,8.82766,1009.07
1210172,0.1338,9.79408,0.418106,-0.14,0.01,0.055,8.74009,-50.0146,9.79229,1009.06
1210178,0.1338,9.79408,0.418106,-0.21,0.01,-0.015,8.79855,-49.9561,9.87998,1009.06
1210184,0.1338,9.79408,0.418106,-0.28,-0.06,0.055,8.6524,-50.4531,9.47074,1009.1
1210190,0.1338,9.79408,0.418106,-0.21,0.08,0.055,8.94471,-49.6054,9.90921,1009.1
1210196,0.1338,9.79408,0.418106,-0.21,0.01,-0.015,9.20779,-49.6931,9.71921,1009.06
1210202,0.1338,9.79408,0.418106,-0.28,0.01,-0.015,9.06163,-50.0731,9.35382,1009.06
1210208,0.1338,9.79408,0.418106,-0.28,0.01,0.055,9.23702,-49.81,9.36843,1009.07
1210214,0.138579,9.79408,0.418106,-0.28,0.08,-0.015,9.09086,-49.7223,9.96767,1009.07
1210220,0.138579,9.79408,0.418106,-0.28,0.01,0.055,9.09086,-50.19,10.4646,1009.07
1210226,0.138579,9.79408,0.418106,-0.35,0.08,-0.015,8.5647,-50.3946,9.28074,1009.06
1210232,0.138579,9.79408,0.418106,-0.21,0.01,-0.085,9.61703,-50.5115,10.0261,1009.06
1210238,0.138579,9.79408,0.418106,-0.21,0.08,-0.085,9.12009,-50.4238,10.07,1009.08
1210244,0.138579,9.79408,0.418106,-0.14,0.01,-0.015,8.94471,-50.5408,10.83,1009.08
1210250,0.138579,9.79408,0.418106,-0.07,-0.06,-0.015,8.6524,-50.2484,9.49997,1009.09
1210256,0.138579,9.79408,0.422856,0,-0.13,-0.085,8.97394,-50.1608,10.4354,1009.09
1210262,0.138579,9.79408,0.422856,-0.07,0.08,0.055,8.62316,-50.2484,11.7069,1009.09
1210268,0.138579,9.79408,0.422856,0.07,0.01,0.125,9.00317,-50.2192,10.2892,1009.09
1210274,0.138579,9.79408,0.422856,0,0.01,0.195,9.55856,-50.0146,9.9969,1009.09
1210280,0.138579,9.79408,0.422856,0.07,-0.13,0.055,8.68163,-51.6223,9.67536,1009.09
1210286,0.138579,9.79408,0.422856,-0.14,-0.06,0.125,9.58779,-50.1315,11.1369,1009.09
1210292,0.138579,9.79408,0.422856,-0.14,-0.06,0.265,9.38317,-50.19,9.82152,1009.05
1210298,0.138579,9.79408,0.422856,-0.14,0.08,0.195,8.88624,-49.6638,11.4585,1009.05
1210304,0.138579,9.79408,0.422856,0,-0.06,0.195,9.00317,-50.57,10.8008,1009.07
1210310,0.138579,9.79408,0.422856,0,0.01,0.055,9.38317,-50.7161,11.3708,1009.07
1210316,0.138579,9.79408,0.422856,0.07,-0.13,0.195,8.85701,-50.2484,10.0261,1009.1
1210322,0.138579,9.79408,0.422856,0.07,-0.06,0.125,8.27239,-50.3946,10.4061,1009.1
1210328,0.138579,9.79408,0.422856,0.07,0.08,0.265,8.62316,-49.6931,9.9969,1009.06
1210334,0.138579,9.79408,0.422856,0.07,-0.13,0.125,9.12009,-50.1023,10.8738,1009.06
1210340,0.138579,9.79408,0.422856,0,0.01,0.195,9.00317,-49.6054,11.59,1009.06
1210346,0.138579,9.79408,0.422856,0.07,0.01,0.195,8.76932,-49.5761,10.0261,1009.06
1210352,0.138579,9.79884,0.422856,0,-0.06,0.125,8.94471,-49.0207,10.1869,1009.06
1210358,0.138579,9.79884,0.422856,0,0.08,0.125,9.0324,-49.6346,11.2392,1009.08
1210364,0.138579,9.79408,0.422856,0,0.08,0.125,8.6524,-49.5469,10.6985,1009.08
1210370,0.138579,9.79408,0.422856,0,-0.06,0.125,8.97394,-49.8684,11.1954,1009.05
1210376,0.138579,9.79408,0.422856,0,0.01,0.195,8.76932,-50.0438,12.2185,1009.05
1210382,0.138579,9.79884,0.422856,0.07,-0.06,0.125,8.47701,-50.2777,9.8946,1009.08
1210388,0.138579,9.79408,0.422856,0.14,0.08,0.125,8.76932,-49.5469,10.5377,1009.08
1210394,0.138579,9.79884,0.422856,0,0.01,0.055,9.00317,-49.8684,10.6985,1009.08
1210400,0.138579,9.79884,0.422856,0.14,-0.06,0.125,8.24316,-49.8684,11.7654,1009.08
1210406,0.138579,9.79884,0.422856,0.14,0.01,0.265,8.85701,-50.3654,11.5608,1009.08
1210412,0.138579,9.79884,0.422856,0.28,-0.06,0.265,9.29548,-49.43,11.0931,1009.09
1210418,0.138579,9.79884,0.422856,0.28,-0.13,0.055,9.06163,-50.1315,12.1892,1009.09
1210424,0.138579,9.79884,0.422856,0,0.01,0.195,9.0324,-50.3946,11.8385,1009.11
1210430,0.138579,9.79884,0.422856,0.07,-0.13,0.125,9.88011,-50.3654,12.5693,1009.11
1210436,0.138579,9.79884,0.422856,0.14,0.01,0.195,10.0555,-49.5469,10.5523,1009.08
1210442,0.138579,9.79884,0.422856,0,-0.06,0.055,9.0324,-49.9269,11.7508,1009.08
1210448,0.138579,9.79884,0.422856,0.07,-0.13,0.125,8.44778,-49.7807,11.4,1009.06
1210454,0.138579,9.79884,0.422856,0.14,-0.06,0.055,9.47087,-49.2546,12.0577,1009.06
1210460,0.138579,9.79884,0.422856,0.21,-0.06,0.055,9.82164,-50.4531,12.0723,1009.06
1210466,0.138579,9.79884,0.422856,0.21,-0.13,0.125,9.32471,-50.1608,12.5108,1009.06
1210472,0.138579,9.79884,0.422856,0.21,-0.13,0.195,9.20779,-49.5469,12.0577,1009.06
1210478,0.138579,9.79884,0.422856,0.07,-0.2,0.125,8.88624,-49.8684,12.3939,1009.07
1210484,0.138579,9.79884,0.422856,0.14,-0.13,0.125,7.80469,-49.8977,10.2454,1009.07
1210490,0.138579,9.79884,0.422856,0,-0.06,0.055,10.0555,-50.19,11.9992,1009.08
1210496,0.138579,9.79884,0.422856,-0.07,-0.06,0.055,9.06163,-49.81,12.1162,1009.08
1210502,0.138579,9.79884,0.422856,-0.14,-0.2,-0.015,9.44164,-49.4884,11.0346,1009.08
1210508,0.138579,9.79884,0.422856,-0.21,-0.13,-0.015,8.76932,-50.0438,11.6923,1009.08
1210514,0.138579,9.79884,0.418106,-0.42,0.01,-0.155,8.85701,-49.5469,11.21,1009.08
1210520,0.138579,9.79884,0.422856,-0.28,-0.06,-0.295,9.06163,-49.4884,11.7654,1009.07
1210526,0.138579,9.79884,0.422856,-0.14,0.01,-0.295,9.47087,-49.9269,11.3123,1009.07
1210532,0.138579,9.79884,0.422856,-0.21,-0.06,-0.155,9.61703,-49.9269,12.5693,1009.06
1210538,0.138579,9.79408,0.422856,0,-0.13,-0.225,9.52933,-50.2484,11.8531,1009.06
1210544,0.138579,9.79408,0.422856,0.07,-0.13,-0.155,8.91548,-50.1023,12.0285,1009.04
1210550,0.138579,9.79408,0.422856,0.21,-0.13,-0.085,9.00317,-49.3715,11.6923,1009.04
1210556,0.138579,9.79408,0.422856,0.14,-0.06,-0.155,9.9678,-49.9561,11.8969,1009.08
1210562,0.138579,9.79408,0.422856,0.14,-0.06,-0.015,8.94471,-49.3423,12.4231,1009.08
1210568,0.138579,9.79408,0.422856,0.21,-0.06,-0.015,8.91548,-49.2546,12.8177,1009.09
1210574,0.138579,9.79408,0.422856,0.14,-0.13,-0.085,9.06163,-49.3423,12.5985,1009.09
1210580,0.143357,9.79884,0.422856,0.14,-0.06,-0.155,8.97394,-49.6931,12.4816,1009.09
1210586,0.138579,9.79884,0.422856,-0.07,0.01,-0.155,9.14933,-50.2192,12.7593,1009.07
1210592,0.138579,9.79884,0.422856,0.07,0.08,-0.015,9.38317,-50.1608,12.6423,1009.07
1210598,0.138579,9.79884,0.422856,0.21,-0.06,-0.085,9.47087,-49.2546,12.3062,1009.05
1210604,0.138579,9.79884,0.422856,0.21,0.01,-0.015,8.68163,-49.7515,12.3354,1009.05
1210610,0.138579,9.79408,0.422856,0.35,-0.06,-0.015,8.85701,-48.67,12.5254,1009.05
1210616,0.138579,9.79408,0.427606,0.35,-0.2,-0.085,9.26625,-49.6346,13.2123,1009.05
1210622,0.138579,9.79408,0.422856,0.42,-0.2,-0.085,8.91548,-49.6346,13.3731,1009.06
1210628,0.138579,9.79408,0.422856,0.21,-0.13,0.055,8.71086,-49.5761,12.7154,1009.06
1210634,0.138579,9.79408,0.427606,0.21,0.01,0.125,9.52933,-49.7223,12.4816,1009.06
1210640,0.138579,9.79408,0.427606,0.28,0.08,0.055,9.14933,-49.81,13.3293,1009.09
1210646,0.138579,9.79408,0.427606,0.28,-0.06,-0.015,8.94471,-49.1084,12.8908,1009.09
1210652,0.138579,9.79408,0.427606,0.42,-0.13,-0.015,9.26625,-49.4884,12.0723,1009.08
1210658,0.138579,9.79408,0.427606,0.28,-0.06,-0.155,9.67549,-48.6992,13.5923,1009.08
1210664,0.143357,9.79408,0.427606,0.28,-0.13,-0.155,9.06163,-48.553,13.5777,1009.09
1210670,0.143357,9.79408,0.427606,0.35,-0.13,-0.225,9.64626,-49.8684,11.3854,1009.09
1210676,0.143357,9.79408,0.427606,0.42,0.01,-0.225,9.29548,-49.2838,13.1831,1009.09
1210682,0.143357,9.79408,0.427606,0.49,-0.13,-0.155,9.9678,-48.6115,12.1454,1009.09
1210688,0.143357,9.79408,0.427606,0.49,-0.13,-0.085,9.82164,-49.05,11.7946,1009.09
1210694,0.143357,9.79408,0.427606,0.07,-0.13,-0.295,9.5001,-48.8161,12.6862,1009.09
1210700,0.143357,9.79408,0.427606,0,-0.06,-0.085,10.494,-49.05,14.06,1009.09
1210706,0.143357,9.79408,0.427606,0,-0.06,-0.085,9.41241,-48.2607,12.1016,1009.05
1210712,0.143357,9.79408,0.427606,0.07,-0.06,-0.015,9.79241,-48.4069,12.6131,1009.05
1210718,0.143357,9.79408,0.427606,-0.07,-0.13,-0.155,9.17856,-48.933,13.2708,1009.05
1210724,0.143357,9.79408,0.427606,-0.21,0.01,-0.155,9.47087,-48.2607,12.8469,1009.05
1210730,0.143357,9.79408,0.427606,-0.35,0.01,-0.155,9.38317,-48.9623,12.4669,1009.08
1210736,0.143357,9.79408,0.427606,-0.21,-0.06,-0.225,9.93857,-48.7577,12.8031,1009.08
1210742,0.143357,9.79408,0.427606,-0.07,0.01,-0.085,9.64626,-48.6407,12.6423,1009.06
1210748,0.143357,9.79408,0.427606,0,-0.13,-0.085,9.32471,-49.05,11.7508,1009.06
1210754,0.143357,9.79408,0.427606,0.07,-0.06,-0.085,9.17856,-48.7577,12.8616,1009.06
1210760,0.143357,9.79408,0.427606,0.07,-0.06,-0.155,9.61703,-48.8161,12.1746,1009.04
1210766,0.143357,9.79408,0.422856,0,-0.06,-0.225,9.14933,-49.4007,13.037,1009.04
1210772,0.143357,9.79408,0.422856,0,-0.13,-0.085,9.26625,-48.9915,13.8847,1009.07
1210778,0.143357,9.79408,0.422856,-0.07,-0.06,-0.085,9.82164,-49.4884,14.0454,1009.07
1210784,0.143357,9.79408,0.422856,-0.14,-0.06,-0.085,9.09086,-47.9392,13.3146,1009.08
1210790,0.143357,9.79408,0.422856,-0.28,0.08,-0.225,9.61703,-48.7577,12.2916,1009.08
1210796,0.143357,9.79408,0.422856,-0.14,0.15,-0.015,9.55856,-48.3776,12.9639,1009.05
1210802,0.143357,9.79408,0.422856,-0.07,-0.06,-0.085,10.0555,-48.8453,13.5047,1009.05
1210808,0.143357,9.79408,0.427606,0.07,-0.13,-0.085,10.2016,-48.0269,12.8177,1009.05
1210814,0.143357,9.79408,0.427606,0.28,-0.06,0.125,9.85088,-48.7577,11.9408,1009.05
1210820,0.143357,9.79408,0.427606,0.28,-0.06,0.055,9.52933,-48.2023,13.5777,1009.05
1210826,0.143357,9.79408,0.427606,0.21,0.08,-0.015,9.23702,-48.4361,13.6654,1009.1
1210832,0.138579,9.79408,0.427606,0.35,-0.27,-0.015,9.29548,-47.2961,13.1977,1009.1
1210838,0.138579,9.79408,0.427606,0.35,-0.2,-0.085,9.35394,-47.9976,12.92,1009.06
1210844,0.138579,9.79408,0.427606,0.14,-0.06,-0.225,9.5001,-47.9099,14.0747,1009.06
1210850,0.138579,9.79408,0.427606,0.14,0.01,-0.085,9.79241,-48.0561,13.227,1009.09
1210856,0.138579,9.79408,0.422856,0.07,-0.13,-0.155,9.76318,-48.6992,13.87,1009.09
1210862,0.138579,9.79408,0.422856,0,0.01,-0.155,9.35394,-48.3192,13.5923,1009.06
1210868,0.138579,9.79408,0.422856,0,-0.13,-0.085,9.20779,-48.4946,14.9224,1009.06
1210874,0.143357,9.79408,0.422856,0,-0.13,-0.155,9.90934,-48.2315,12.9346,1009.06
1210880,0.143357,9.79884,0.422856,-0.07,0.01,-0.085,9.17856,-48.8453,12.7154,1009.11
1210886,0.143357,9.79884,0.422856,-0.21,0.01,-0.015,9.82164,-47.2084,13.7239,1009.11
1210892,0.143357,9.79884,0.422856,-0.35,0.01,-0.085,10.2893,-47.9392,14.3377,1009.08
1210898,0.143357,9.79884,0.422856,-0.49,0.01,-0.225,9.5001,-48.0269,12.3939,1009.08
1210904,0.143357,9.79884,0.422856,-0.7,0.01,-0.015,9.70472,-47.8807,13.5777,1009.07
1210910,0.143357,9.79884,0.422856,-0.63,0.08,-0.015,9.09086,-47.793,13.1977,1009.07
1210916,0.143357,9.79884,0.422856,-0.77,0.15,0.055,9.20779,-47.6176,12.9493,1009.07
1210922,0.143357,9.79884,0.422856,-0.77,0.08,0.055,9.06163,-47.5884,13.5339,1009.07
1210928,0.143357,9.79884,0.422856,-0.7,0.15,0.055,9.64626,-47.5592,13.6216,1009.07
1210934,0.143357,9.79884,0.422856,-0.7,0.15,0.125,9.47087,-47.2669,14.0162,1009.08
1210940,0.143357,9.79884,0.422856,-0.63,-0.06,0.125,9.99703,-47.413,12.92,1009.08
1210946,0.143357,9.79884,0.422856,-0.63,0.01,0.125,9.55856,-46.9745,13.8554,1009.09
1210952,0.138579,9.79884,0.422856,-0.35,0.01,0.055,9.67549,-47.6469,13.4754,1009.09
1210958,0.138579,9.79884,0.422856,-0.21,0.01,-0.015,9.55856,-47.5592,13.9724,1009.09
1210964,0.138579,9.79884,0.422856,-0.21,0.01,0.055,9.93857,-46.7992,13.2854,1009.09
1210970,0.138579,9.79884,0.422856,-0.14,-0.13,0.055,9.70472,-46.8869,13.4462,1009.07
1210976,0.143357,9.79884,0.422856,-0.21,-0.2,0.125,9.55856,-46.6822,14.0308,1009.07
1210982,0.143357,9.79884,0.422856,-0.14,0.01,0.125,10.0847,-47.2376,13.9724,1009.07
1210988,0.138579,9.79884,0.422856,-0.21,0.08,0.055,9.61703,-47.3253,14.4839,1009.07
1210994,0.143357,9.79884,0.422856,-0.07,-0.13,0.055,9.14933,-47.5007,13.5339,1009.07
1211000,0.143357,9.79884,0.422856,-0.14,0.15,0.195,9.09086,-47.2376,13.9285,1009.07
1211006,0.143357,9.79884,0.422856,-0.28,0.15,0.125,9.44164,-46.5361,14.0308,1009.07
1211012,0.143357,9.79884,0.422856,-0.21,0.01,-0.015,9.90934,-47.1792,13.5631,1009.07
1211018,0.143357,9.79884,0.422856,-0.14,0.01,-0.015,9.12009,-47.6469,13.417,1009.07
1211024,0.143357,9.79884,0.422856,-0.21,0.08,-0.015,9.38317,-46.7992,13.5631,1009.04
1211030,0.138579,9.79884,0.427606,-0.28,-0.48,-0.015,9.17856,-46.9453,14.0747,1009.04
1211036,0.138579,9.79884,0.427606,-0.21,-0.34,0.055,9.70472,-46.9453,13.6216,1009.05
1211042,0.138579,9.79884,0.427606,-0.21,0.22,-0.085,9.64626,-46.4776,13.5485,1009.05
1211048,0.138579,9.79884,0.427606,-0.14,-0.34,-0.015,9.29548,-46.2438,14.3231,1009.05
1211054,0.138579,9.79884,0.427606,-0.21,-0.06,-0.015,9.82164,-46.8284,13.9431,1009.07
1211060,0.138579,9.79884,0.427606,-0.07,0.22,-0.015,9.47087,-46.0392,13.7093,1009.07
1211066,0.138579,9.79884,0.427606,0,-0.13,-0.015,9.93857,-47.6761,13.5777,1009.08
1211072,0.138579,9.79884,0.427606,0.28,-0.06,-0.015,9.93857,-46.4776,14.2939,1009.08
1211078,0.138579,9.79884,0.427606,0.21,0.01,-0.015,9.52933,-46.2145,13.3146,1009.07
1211084,0.138579,9.79884,0.427606,0.28,-0.06,0.055,9.44164,-46.4484,15.5508,1009.07
1211090,0.138579,9.79884,0.432356,0.35,-0.06,0.055,9.73395,-46.3607,14.3085,1009.07
1211096,0.138579,9.79884,0.432356,0.28,0.01,-0.015,9.12009,-45.9515,14.0893,1009.07
1211102,0.138579,9.79884,0.432356,0.28,-0.13,-0.295,9.55856,-46.7699,14.177,1009.07
1211108,0.143357,9.79884,0.432356,0.35,-0.2,-0.015,9.14933,-45.9515,14.7762,1009.07
1211114,0.143357,9.79884,0.427606,0.28,-0.2,-0.015,9.93857,-46.8869,13.87,1009.07
1211120,0.138579,9.79884,0.427606,0.28,-0.13,-0.015,9.47087,-46.8576,14.3962,1009.04
1211126,0.138579,9.79884,0.427606,0.35,-0.13,-0.015,9.99703,-47.2669,13.3439,1009.04
1211132,0.143357,9.79408,0.427606,0.28,-0.06,0.055,10.0555,-46.4484,14.5131,1009.06
1211138,0.138579,9.79408,0.427606,0.21,-0.06,0.055,8.88624,-46.7115,13.7093,1009.06
1211144,0.138579,9.79408,0.432356,0.14,0.01,0.125,9.5001,-46.3607,13.7531,1009.06
1211150,0.138579,9.79408,0.432356,0.21,0.01,-0.015,9.58779,-45.9222,13.3439,1009.06
1211156,0.138579,9.79884,0.432356,0.35,-0.06,0.055,9.82164,-45.893,13.9285,1009.06
1211162,0.143357,9.79884,0.432356,0.21,-0.06,-0.015,9.61703,-45.893,13.9431,1009.06
1211168,0.143357,9.79884,0.432356,0.14,0.08,-0.015,10.0847,-46.0099,13.5631,1009.06
1211174,0.138579,9.79884,0.432356,0.14,-0.06,0.055,9.44164,-45.5714,14.1477,1009.05
1211180,0.138579,9.79408,0.432356,0.21,-0.06,-0.085,9.09086,-45.6007,13.9724,1009.05
1211186,0.138579,9.79884,0.432356,0.14,-0.13,-0.085,9.76318,-45.5714,13.4608,1009.08
1211192,0.143357,9.79884,0.432356,0.14,-0.13,-0.085,9.70472,-46.0392,14.747,1009.08
1211198,0.143357,9.79408,0.432356,0.28,-0.06,-0.085,9.70472,-45.6591,14.4547,1009.06
1211204,0.143357,9.79884,0.432356,0.49,-0.55,0.265,9.79241,-45.8345,14.6885,1009.06
1211210,0.143357,9.79408,0.432356,0.49,-0.27,-0.015,9.70472,-45.6299,14.177,1009.05
1211216,0.143357,9.79408,0.432356,0.49,-0.06,-0.015,9.12009,-46.5653,14.4985,1009.05
1211222,0.143357,9.79408,0.432356,0.49,-0.06,-0.155,9.38317,-46.4484,14.6301,1009.05
1211228,0.138579,9.79884,0.432356,0.49,-0.2,-0.155,8.62316,-46.3022,13.0808,1009.09
1211234,0.138579,9.79884,0.432356,0.49,-0.06,-0.155,8.71086,-45.6591,14.2647,1009.09
1211240,0.138579,9.79884,0.432356,0.42,-0.06,-0.155,9.09086,-46.1561,13.7823,1009.07
1211246,0.138579,9.79884,0.432356,0.21,-0.13,0.055,10.0847,-45.7468,13.3293,1009.07
1211252,0.138579,9.79884,0.432356,0.21,-0.06,-0.085,10.377,-45.3961,14.2354,1009.04
1211258,0.138579,9.79884,0.432356,0.14,-0.06,-0.085,9.26625,-45.7761,14.367,1009.04
1211264,0.138579,9.79884,0.432356,0.21,-0.2,-0.155,9.82164,-45.8638,14.2354,1009.07
1211270,0.143357,9.79884,0.427606,0.14,-0.06,-0.085,9.47087,-45.7468,14.6593,1009.07
1211276,0.143357,9.79884,0.427606,0.07,-0.2,-0.155,8.74009,-45.2791,13.7677,1009.07
1211282,0.143357,9.79884,0.427606,0.14,-0.2,-0.155,9.35394,-45.6884,15.1562,1009.1
1211288,0.143357,9.79884,0.427606,0.07,-0.2,-0.085,9.09086,-45.2207,15.7262,1009.1
1211294,0.143357,9.79884,0.427606,-0.14,-0.06,-0.085,8.94471,-45.3084,14.6593,1009.05
1211300,0.143357,9.79884,0.427606,-0.14,-0.06,-0.155,9.14933,-46.1561,14.0016,1009.05
1211306,0.143357,9.79884,0.427606,-0.14,0.01,-0.365,9.06163,-45.9807,14.1039,1009.03
1211312,0.143357,9.79884,0.427606,-0.14,0.08,-0.085,9.90934,-45.9807,14.0016,1009.03
1211318,0.143357,9.79884,0.427606,-0.21,0.01,-0.085,9.14933,-45.8638,14.2062,1009.05
1211324,0.143357,9.79884,0.427606,-0.14,0.01,-0.155,9.17856,-45.9222,14.9224,1009.05
1211330,0.143357,9.79884,0.427606,-0.07,0.01,-0.085,9.58779,-45.7468,14.7762,1009.07
1211336,0.143357,9.79884,0.427606,0,-0.13,-0.085,9.23702,-44.9576,14.937,1009.07
1211342,0.143357,9.79884,0.432356,0.35,-0.13,-0.155,9.38317,-45.1037,14.5862,1009.07
1211348,0.143357,9.79884,0.432356,0.42,-0.13,-0.015,8.88624,-45.1037,13.417,1009.07
1211354,0.143357,9.79884,0.432356,0.49,-0.13,-0.015,8.91548,-44.7237,13.417,1009.07
1211360,0.143357,9.79884,0.432356,0.56,-0.2,-0.085,9.06163,-44.7822,14.7031,1009.1
1211366,0.148136,9.79884,0.432356,0.63,-0.2,-0.015,8.94471,-45.513,14.4985,1009.1
1211372,0.143357,9.79884,0.432356,0.56,-0.2,0.055,8.59393,-44.4314,13.9285,1009.05
1211378,0.143357,9.79884,0.432356,0.49,-0.2,0.055,8.76932,-44.0514,14.6008,1009.05
1211384,0.143357,9.79884,0.432356,0.35,-0.13,0.125,8.47701,-45.1622,13.3585,1009.06
1211390,0.143357,9.79884,0.432356,0.28,-0.2,0.055,8.94471,-44.4899,14.7031,1009.06
1211396,0.143357,9.79884,0.427606,0.21,-0.2,-0.015,9.00317,-44.3437,14.177,1009.06
1211402,0.143357,9.79884,0.432356,0.14,-0.13,-0.015,8.5647,-44.9576,12.6277,1009.06
1211408,0.143357,9.79884,0.427606,0.14,0.01,0.335,8.82778,-44.8407,14.0162,1009.06
1211414,0.143357,9.79884,0.427606,0.14,-0.06,0.195,9.29548,-45.0745,13.0954,1009.07
1211420,0.143357,9.79884,0.427606,0.14,-0.13,-0.015,9.06163,-44.8407,13.68,1009.07
1211426,0.143357,9.79884,0.427606,0.07,-0.06,0.055,8.79855,-44.8407,13.9285,1009.05
1211432,0.143357,9.79884,0.427606,0.14,-0.13,-0.015,9.32471,-44.9284,13.4023,1009.05
1211438,0.143357,9.79884,0.427606,0,-0.06,0.125,9.38317,-45.0453,13.8554,1009.06
1211444,0.143357,9.79884,0.427606,0.07,-0.13,-0.015,8.12623,-45.3961,13.227,1009.06
1211450,0.143357,9.79884,0.427606,0.07,-0.13,-0.015,9.32471,-45.2791,13.7385,1009.06
1211456,0.143357,9.79884,0.427606,0,-0.06,-0.015,9.32471,-45.2791,13.3146,1009.04
1211462,0.143357,9.79884,0.427606,0.14,-0.13,-0.155,9.32471,-43.876,13.0077,1009.04
1211468,0.143357,9.79408,0.427606,0.21,-0.06,-0.155,8.94471,-44.1976,12.3792,1009.06
1211474,0.143357,9.79408,0.427606,0.14,-0.06,-0.085,8.44778,-44.2853,13.7531,1009.06
1211480,0.143357,9.79884,0.427606,0,-0.13,-0.085,8.47701,-44.6361,13.3877,1009.06
1211486,0.143357,9.79408,0.427606,0.07,-0.13,-0.225,8.47701,-44.8114,14.1916,1009.06
1211492,0.143357,9.79408,0.427606,-0.07,-0.06,-0.155,8.5647,-44.3145,13.0808,1009.09
1211498,0.143357,9.79408,0.427606,0.21,-0.13,-0.225,8.79855,-44.4314,13.2708,1009.09
1211504,0.143357,9.79408,0.427606,0.07,-0.2,-0.155,8.82778,-44.8114,12.73,1009.09
1211510,0.143357,9.79408,0.427606,0.07,-0.13,-0.155,9.0324,-44.256,13.3731,1009.09
1211516,0.143357,9.79408,0.427606,0.21,-0.2,-0.365,8.53547,-44.5776,12.8031,1009.09
1211522,0.143357,9.79408,0.427606,0.14,-0.13,-0.085,7.95085,-43.876,12.2916,1009.08
1211528,0.143357,9.79408,0.427606,0.07,-0.06,-0.155,8.74009,-44.5484,12.2916,1009.08
1211534,0.143357,9.79884,0.427606,0.07,-0.06,-0.015,9.14933,-44.4022,12.0723,1009.07
1211540,0.143357,9.79884,0.427606,0,-0.13,-0.085,9.38317,-43.613,12.9493,1009.07
1211546,0.143357,9.79884,0.427606,0,-0.06,-0.085,8.71086,-44.256,13.6362,1009.07
1211552,0.143357,9.79884,0.427606,0,-0.06,-0.155,8.88624,-44.8407,13.0223,1009.07
1211558,0.143357,9.79884,0.427606,-0.14,0.01,-0.155,8.71086,-43.8468,12.4962,1009.08
1211564,0.143357,9.79884,0.427606,-0.07,0.01,-0.225,8.24316,-43.9345,13.1831,1009.08
1211570,0.148136,9.79884,0.427606,0.14,-0.13,-0.155,8.15546,-43.993,12.6716,1009.08
1211576,0.143357,9.79884,0.432356,0.21,-0.13,-0.085,8.12623,-44.5776,13.0516,1009.08
1211582,0.143357,9.79884,0.432356,0.14,-0.13,-0.085,8.68163,-44.6068,13.3439,1009.08
1211588,0.143357,9.79884,0.432356,0.14,-0.06,-0.155,7.89238,-44.0514,13.037,1009.09
1211594,0.143357,9.79884,0.432356,0.21,-0.13,-0.155,9.23702,-44.373,13.4023,1009.09
1211600,0.143357,9.79884,0.432356,0.21,0.01,-0.155,8.44778,-44.0514,12.35,1009.04
1211606,0.143357,9.79884,0.432356,0.21,-0.06,-0.155,8.76932,-43.6422,12.9639,1009.04
1211612,0.143357,9.79884,0.432356,0.28,-0.06,-0.225,7.83392,-44.6361,11.6631,1009.04
1211618,0.143357,9.79884,0.432356,0.35,-0.2,-0.085,8.50624,-44.3437,13.2123,1009.04
1211624,0.148136,9.79884,0.432356,0.49,-0.13,-0.225,8.00931,-43.7299,13.7677,1009.04
1211630,0.148136,9.79884,0.432356,0.49,-0.2,-0.225,8.71086,-44.256,13.3585,1009.05
1211636,0.148136,9.79884,0.432356,0.49,-0.2,-0.225,8.03854,-43.7299,12.7446,1009.05
1211642,0.148136,9.79884,0.432356,0.49,-0.06,-0.225,8.21393,-43.6714,14.0016,1009.09
1211648,0.148136,9.79884,0.432356,0.42,-0.13,-0.225,8.36008,-43.9053,12.9785,1009.09
1211654,0.148136,9.79884,0.432356,0.42,-0.2,-0.295,8.76932,-43.5545,12.1892,1009.09
1211660,0.148136,9.79884,0.432356,0.28,-0.06,-0.225,8.68163,-43.6422,12.7446,1009.09
1211666,0.148136,9.79884,0.432356,0.14,-0.2,-0.225,8.41854,-44.1391,12.4377,1009.1
1211672,0.148136,9.79884,0.432356,0.07,-0.13,-0.225,8.59393,-43.8468,12.0577,1009.1
1211678,0.148136,9.79884,0.432356,0.14,-0.13,-0.295,8.03854,-43.7299,12.7739,1009.07
1211684,0.143357,9.79884,0.432356,0.07,-0.2,-0.295,7.80469,-43.5837,12.9931,1009.07
1211690,0.143357,9.79884,0.432356,0.14,-0.13,-0.225,8.68163,-43.8176,12.5693,1009.07
1211696,0.148136,9.79884,0.432356,0,-0.13,-0.365,8.94471,-43.7299,13.1831,1009.05
1211702,0.148136,9.79884,0.432356,-0.07,-0.13,-0.435,7.89238,-43.496,12.0723,1009.05
1211708,0.143357,9.79884,0.432356,0,-0.2,-0.435,8.82778,-43.993,12.4231,1009.09
1211714,0.143357,9.79884,0.432356,-0.07,-0.06,-0.365,9.14933,-44.0222,12.1746,1009.09
1211720,0.143357,9.79884,0.432356,-0.07,-0.06,-0.575,8.06777,-43.5837,11.8239,1009.09
1211726,0.143357,9.79884,0.432356,0,-0.13,-0.295,8.82778,-44.1099,11.9992,1009.09
1211732,0.143357,9.79884,0.432356,-0.14,0.08,-0.295,8.38931,-43.2914,12.0431,1009.07
1211738,0.143357,9.79884,0.432356,-0.14,-0.06,-0.365,7.83392,-43.8468,12.9493,1009.07
1211744,0.143357,9.79884,0.432356,0,-0.27,-0.295,7.19083,-43.9345,12.4231,1009.07
1211750,0.148136,9.79884,0.432356,-0.07,-0.06,-0.225,8.41854,-43.8468,11.5462,1009.09
1211756,0.148136,9.79884,0.432356,-0.14,-0.06,-0.435,8.06777,-43.0868,11.7508,1009.09
1211762,0.143357,9.79884,0.432356,-0.07,-0.13,-0.435,8.24316,-43.4376,12.54,1009.06
1211768,0.143357,9.79884,0.432356,-0.07,-0.06,-0.435,8.50624,-43.7883,12.8323,1009.06
1211774,0.143357,9.79884,0.432356,-0.14,-0.13,-0.435,8.03854,-43.2622,11.8677,1009.09
1211780,0.148136,9.79884,0.432356,0.07,-0.06,-0.365,8.24316,-43.2037,11.9408,1009.09
1211786,0.143357,9.79884,0.432356,0.14,-0.06,-0.225,8.47701,-43.233,12.3062,1009.06
1211792,0.143357,9.79884,0.432356,0.14,-0.13,-0.295,8.03854,-43.7591,10.8885,1009.06
1211798,0.143357,9.79884,0.432356,0.21,-0.13,-0.365,7.54161,-43.496,12.7008,1009.07
1211804,0.143357,9.79884,0.432356,0.14,0.01,-0.365,7.48315,-43.7299,12.4377,1009.07
1211810,0.143357,9.79884,0.432356,0.14,-0.13,-0.365,7.92161,-44.256,10.8738,1009.07
1211816,0.143357,9.79884,0.432356,0.21,-0.13,-0.225,6.6939,-43.9053,10.8592,1009.07
1211822,0.143357,9.79884,0.432356,0.14,0.01,-0.015,7.51238,-43.7883,11.59,1009.07
1211828,0.143357,9.79884,0.432356,0.21,-0.13,-0.295,8.12623,-43.2622,11.5754,1009.09
1211834,0.143357,9.79884,0.432356,0.28,-0.13,-0.155,8.21393,-43.3206,11.0054,1009.09
1211840,0.143357,9.79884,0.432356,0.21,0.01,-0.155,7.19083,-43.7591,11.4438,1009.06
1211846,0.143357,9.79884,0.432356,0.21,-0.2,-0.225,7.717,-43.4668,11.6631,1009.06
1211852,0.143357,9.79884,0.432356,0.21,-0.13,-0.225,7.89238,-43.1745,10.7131,1009.06
1211858,0.143357,9.79884,0.432356,0.14,-0.2,-0.155,7.1616,-42.9406,11.0054,1009.06
1211864,0.143357,9.79884,0.432356,0.14,-0.13,-0.085,7.717,-43.2914,10.7569,1009.06
1211870,0.143357,9.79884,0.432356,0.28,-0.13,-0.155,7.48315,-43.496,10.3623,1009.05
1211876,0.143357,9.79884,0.432356,0.28,-0.06,-0.085,7.22007,-43.2914,11.6777,1009.05
1211882,0.143357,9.79884,0.432356,0.14,-0.13,-0.085,8.03854,-43.4376,11.6923,1009.04
1211888,0.143357,9.79884,0.432356,0.35,-0.13,-0.085,8.1847,-43.116,10.2746,1009.04
1211894,0.143357,9.79884,0.432356,0.42,-0.13,-0.085,7.92161,-43.1453,9.96767,1009.05
1211900,0.143357,9.79884,0.432356,0.35,-0.13,-0.085,7.51238,-43.2622,11.8385,1009.05
1211906,0.143357,9.79884,0.432356,0.21,-0.13,-0.015,7.6293,-43.0576,10.8446,1009.07
1211912,0.143357,9.79884,0.432356,0.28,-0.13,0.055,7.717,-43.116,11.7215,1009.07
1211918,0.143357,9.79884,0.432356,0.14,-0.13,-0.015,7.13237,-43.3791,9.28074,1009.07
1211924,0.143357,9.79884,0.432356,0.14,0.01,-0.015,7.30776,-43.2037,11.7946,1009.07
1211930,0.143357,9.79884,0.432356,0,-0.06,0.055,7.13237,-42.9991,11.6485,1009.07
1211936,0.143357,9.79884,0.432356,-0.07,-0.13,0.055,8.21393,-42.5022,11.59,1009.09
1211942,0.138579,9.79884,0.427606,0,-0.06,0.125,7.07391,-43.496,11.6046,1009.09
1211948,0.138579,9.79884,0.432356,0,0.01,0.195,7.54161,-42.9406,10.9908,1009.07
1211954,0.138579,9.79884,0.432356,0.14,-0.06,0.125,7.6293,-42.2976,10.4938,1009.07
1211960,0.138579,9.79884,0.427606,0.14,-0.13,0.195,7.01545,-42.7653,10.7715,1009.12
1211966,0.138579,9.79884,0.427606,0.28,-0.06,0.195,7.1616,-42.9114,9.85075,1009.12
1211972,0.138579,9.79884,0.432356,0.28,-0.27,0.195,6.98622,-43.1745,10.6985,1009.06
1211978,0.138579,9.79884,0.432356,0.35,-0.13,0.125,7.77546,-43.3499,10.3769,1009.06
1211984,0.138579,9.79884,0.427606,0.35,-0.2,0.125,7.33699,-42.1222,10.0261,1009.06
1211990,0.138579,9.79884,0.427606,0.49,-0.2,0.195,7.42468,-43.1745,10.07,1009.08
1211996,0.138579,9.79884,0.427606,0.49,-0.06,0.195,7.83392,-43.3206,10.8446,1009.08
1212002,0.138579,9.79884,0.427606,0.49,-0.13,0.195,7.45392,-43.613,10.1138,1009.09
1212008,0.138579,9.79884,0.427606,0.49,-0.13,0.265,6.63544,-43.3791,9.3392,1009.09
1212014,0.138579,9.79884,0.427606,0.56,-0.27,0.265,7.07391,-43.4083,10.3184,1009.09
1212020,0.138579,9.79884,0.427606,0.56,-0.2,0.265,5.81697,-44.0514,8.63765,1009.09
1212026,0.138579,9.79884,0.427606,0.56,-0.13,0.545,7.77546,-42.6483,9.92383,1009.05
1212032,0.138579,9.79884,0.427606,0.35,-0.13,0.265,7.19083,-43.496,10.0115,1009.05
1212038,0.138579,9.79884,0.427606,0.35,-0.13,0.265,7.19083,-43.0868,10.2892,1009.05
1212044,0.138579,9.79884,0.427606,0.28,-0.06,0.195,7.36622,-43.233,10.7861,1009.06
1212050,0.138579,9.79884,0.427606,0.35,-0.06,0.195,6.92775,-42.3268,9.85075,1009.06
1212056,0.138579,9.79884,0.432356,0.21,-0.13,0.195,6.86929,-42.5899,9.23689,1009.08
1212062,0.138579,9.79884,0.427606,0.21,-0.13,0.195,6.43082,-43.2914,9.66075,1009.08
1212068,0.138579,9.79884,0.427606,0.28,0.01,0.265,6.46005,-42.2683,10.1431,1009.11
1212074,0.138579,9.79884,0.427606,0.28,0.01,0.335,6.02159,-42.6191,9.07612,1009.11
1212080,0.138579,9.79884,0.427606,0.28,-0.13,0.195,6.57698,-42.9406,10.1723,1009.08
1212086,0.138579,9.79884,0.427606,0.21,-0.2,0.265,6.57698,-42.9699,9.45613,1009.08
1212092,0.138579,9.79884,0.427606,0.21,-0.2,0.265,6.63544,-42.8237,9.68998,1009.08
1212098,0.138579,9.79884,0.427606,0,0.08,0.195,6.51852,-42.7653,10.8885,1009.08
1212104,0.138579,9.79884,0.427606,0.07,-0.06,0.265,6.46005,-42.9991,9.68998,1009.08
1212110,0.138579,9.80361,0.427606,0.21,-0.27,0.195,6.75237,-42.6776,9.28074,1009.08
1212116,0.138579,9.80361,0.427606,0.14,-0.13,0.125,6.63544,-43.5545,9.74844,1009.08
1212122,0.138579,9.79884,0.427606,0.35,-0.2,-0.015,6.3139,-43.4083,8.31611,1009.07
1212128,0.138579,9.79884,0.427606,0.35,-0.06,0.125,6.57698,-42.6483,9.32459,1009.07
1212134,0.138579,9.79884,0.427606,0.28,0.08,0.265,7.19083,-42.736,8.84227,1009.1
1212140,0.138579,9.79884,0.427606,0.35,0.01,0.195,6.95698,-42.7068,9.1492,1009.1
1212146,0.138579,9.79884,0.427606,0.49,-0.13,0.125,6.37236,-42.4437,8.34534,1009.07
1212152,0.138579,9.79884,0.427606,0.35,-0.13,0.125,6.86929,-42.6483,9.13458,1009.07
1212158,0.138579,9.79884,0.427606,0.28,-0.06,0.195,6.84006,-42.5606,9.1492,1009.07
1212164,0.138579,9.79884,0.427606,0.42,-0.13,0.195,6.89852,-42.5606,9.00304,1009.07
1212170,0.138579,9.79884,0.427606,0.28,-0.13,0.195,7.33699,-42.4729,8.27226,1009.07
1212176,0.138579,9.79884,0.427606,0.35,-0.13,0.195,6.19697,-42.6483,9.79229,1009.05
1212182,0.138579,9.79884,0.427606,0.28,-0.13,0.195,6.19697,-42.7068,9.54382,1009.05
1212188,0.138579,9.79884,0.422856,0.28,-0.06,0.195,6.89852,-42.3852,8.35996,1009.07
1212194,0.138579,9.80361,0.422856,0.21,0.01,0.265,6.81083,-43.3791,9.11997,1009.07
1212200,0.138579,9.79884,0.422856,0.35,-0.13,0.335,6.16774,-42.3852,8.46227,1009.09
1212206,0.138579,9.80361,0.422856,0.28,-0.06,0.405,6.25543,-42.3852,8.2138,1009.09
1212212,0.138579,9.79884,0.422856,0.14,-0.06,0.265,6.89852,-41.976,8.52073,1009.09
1212218,0.138579,9.79884,0.422856,0.14,-0.13,0.265,6.13851,-43.3499,8.43303,1009.09
1212224,0.138579,9.80361,0.422856,0.21,0.01,0.195,6.54775,-42.356,8.6815,1009.09
1212230,0.143357,9.80361,0.422856,0.28,-0.13,0.475,6.16774,-42.7945,7.68764,1009.07
1212236,0.143357,9.80361,0.422856,0,0.01,0.195,6.60621,-43.1745,8.30149,1009.07
1212242,0.138579,9.80361,0.422856,0,0.08,0.195,6.13851,-42.9406,9.47074,1009.05
1212248,0.138579,9.80361,0.422856,-0.07,0.01,0.125,6.28467,-42.7945,8.98843,1009.05
1212254,0.143357,9.80361,0.422856,-0.07,-0.06,0.055,6.08005,-42.3852,9.87998,1009.06
1212260,0.143357,9.80361,0.422856,-0.07,0.01,0.125,6.34313,-43.1745,8.94458,1009.06
1212266,0.143357,9.80361,0.422856,-0.07,-0.13,0.125,6.08005,-43.0868,8.28688,1009.06
1212272,0.143357,9.80361,0.422856,-0.07,-0.06,-0.015,6.3139,-43.3206,9.58767,1009.06
1212278,0.143357,9.80361,0.422856,0.07,-0.06,0.055,5.87543,-43.1453,9.00304,1009.06
1212284,0.143357,9.80361,0.422856,0.14,-0.06,0.055,5.87543,-43.116,9.77767,1009.06
1212290,0.143357,9.80361,0.422856,0.07,0.08,-0.085,6.02159,-42.7068,7.65841,1009.06
1212296,0.143357,9.80361,0.422856,-0.07,0.01,0.055,5.49542,-43.0283,7.29302,1009.07
1212302,0.143357,9.80361,0.422856,0.14,-0.06,-0.015,5.99235,-42.7945,7.92149,1009.07
1212308,0.143357,9.79884,0.422856,-0.07,0.01,-0.085,6.28467,-42.8822,6.70839,1009.08
1212314,0.143357,9.79884,0.422856,-0.07,0.08,-0.155,5.49542,-43.3206,8.0238,1009.08
1212320,0.143357,9.79884,0.422856,0,0.08,-0.085,6.13851,-42.6776,7.49764,1009.09
1212326,0.143357,9.79884,0.422856,0,0.01,-0.085,5.99235,-43.2037,8.73996,1009.09
1212332,0.143357,9.80361,0.418106,0,-0.06,-0.085,4.50156,-44.0222,6.16761,1009.09
1212338,0.143357,9.80361,0.418106,0,0.01,-0.015,5.70004,-43.2037,6.8984,1009.08
1212344,0.143357,9.80361,0.418106,0,0.08,-0.015,5.2908,-42.5314,8.2138,1009.08
1212350,0.143357,9.80361,0.418106,-0.14,0.08,0.055,5.99235,-43.2622,6.59147,1009.06
1212356,0.143357,9.80361,0.422856,0,0.01,0.125,6.37236,-43.3499,7.65841,1009.06
1212362,0.143357,9.80361,0.422856,-0.07,0.08,0.055,6.02159,-43.2622,7.20532,1009.08
1212368,0.143357,9.80361,0.422856,-0.07,0.01,0.055,5.78773,-43.0868,8.47688,1009.08
1212374,0.143357,9.80361,0.422856,-0.07,-0.06,0.125,6.43082,-43.0868,7.64379,1009.07
1212380,0.143357,9.80361,0.418106,-0.07,-0.06,0.125,5.34927,-43.7007,8.24303,1009.07
1212386,0.143357,9.80361,0.418106,0,-0.13,0.055,5.8462,-44.3437,8.11149,1009.07
1212392,0.143357,9.80361,0.418106,-0.14,0.01,0.125,5.26157,-43.7591,8.34534,1009.1
1212398,0.143357,9.80361,0.418106,0,-0.06,0.125,5.72927,-43.3499,7.54148,1009.1
1212404,0.143357,9.80361,0.418106,0.07,-0.06,0.125,5.90466,-43.0576,8.12611,1009.09
1212410,0.143357,9.79884,0.418106,0.07,-0.06,0.125,6.02159,-42.9114,9.20766,1009.09
1212416,0.143357,9.79884,0.418106,0.14,-0.06,0.125,5.2908,-43.4376,8.35996,1009.1
1212422,0.143357,9.79884,0.418106,0.14,-0.06,0.125,5.55389,-43.3499,9.06151,1009.1
1212428,0.143357,9.80361,0.418106,0.07,-0.06,0.125,5.7585,-44.1684,8.92997,1009.08
1212434,0.143357,9.80361,0.418106,0,-0.2,0.195,5.99235,-43.5837,8.27226,1009.08
1212440,0.143357,9.80361,0.418106,-0.07,-0.06,0.125,5.7585,-43.9053,7.76072,1009.11
1212446,0.143357,9.80361,0.418106,-0.14,-0.06,0.125,5.99235,-44.5776,8.30149,1009.11
1212452,0.143357,9.80361,0.418106,-0.21,0.01,0.125,5.3785,-43.6714,7.54148,1009.11
1212458,0.143357,9.80361,0.418106,-0.21,-0.06,0.055,5.87543,-44.5484,7.64379,1009.1
1212464,0.143357,9.80361,0.418106,-0.21,-0.06,-0.015,5.87543,-44.3437,7.35148,1009.1
1212470,0.143357,9.80361,0.418106,-0.07,0.01,0.125,5.8462,-43.4668,7.2784,1009.08
1212476,0.143357,9.80361,0.418106,-0.07,-0.06,0.055,6.43082,-43.7299,7.29302,1009.08
1212482,0.143357,9.80361,0.413356,-0.21,0.01,0.055,5.70004,-44.2268,7.35148,1009.08
1212488,0.143357,9.80361,0.413356,-0.14,0.01,0.055,6.08005,-44.2268,7.20532,1009.08
1212494,0.143357,9.80361,0.418106,-0.14,-0.13,0.055,5.78773,-43.3791,6.51839,1009.07
1212500,0.143357,9.80361,0.418106,-0.07,-0.06,0.125,5.2908,-43.8468,6.35762,1009.07
1212506,0.143357,9.80361,0.418106,0,0.01,0.055,5.3785,-44.4899,7.13225,1009.07
1212512,0.143357,9.80361,0.418106,0.07,-0.06,-0.085,5.40773,-44.0514,7.02994,1009.05
1212518,0.143357,9.80361,0.418106,-0.07,0.08,-0.015,5.05696,-44.1684,7.45379,1009.05
1212524,0.143357,9.80361,0.418106,0,0.08,0.125,5.34927,-43.5545,7.04455,1009.05
1212530,0.143357,9.80361,0.418106,0,0.08,0.055,5.64158,-44.2853,7.01532,1009.05
1212536,0.143357,9.80361,0.418106,0.14,-0.06,0.125,5.55389,-42.9114,7.14686,1009.09
1212542,0.143357,9.80361,0.418106,0.21,-0.06,0.125,5.64158,-44.0222,6.92763,1009.09
1212548,0.143357,9.80361,0.418106,0.28,0.01,0.055,5.26157,-43.9637,6.41608,1009.09
1212554,0.143357,9.80361,0.418106,0.28,-0.2,0.055,5.52465,-44.256,6.343,1009.09
1212560,0.143357,9.80361,0.418106,0.35,-0.06,0.125,4.61849,-44.0514,6.98609,1009.09
1212566,0.143357,9.80361,0.418106,0.28,-0.06,0.055,5.34927,-44.7237,6.10915,1009.05
1212572,0.143357,9.80361,0.418106,0.14,-0.13,0.055,5.17388,-44.1099,6.6207,1009.05
1212578,0.148136,9.80361,0.413356,0.07,-0.13,0.055,5.55389,-44.1684,5.71453,1009.11
1212584,0.148136,9.80361,0.413356,0,-0.06,0.055,5.05696,-44.3437,6.41608,1009.11
1212590,0.148136,9.80361,0.413356,-0.07,0.01,0.055,5.78773,-44.1684,5.93376,1009.04
1212596,0.148136,9.80361,0.413356,-0.14,-0.06,-0.085,5.40773,-44.8991,6.25531,1009.04
1212602,0.148136,9.80361,0.413356,0,-0.06,-0.085,4.79387,-44.6068,5.81684,1009.08
1212608,0.148136,9.79884,0.413356,-0.07,-0.13,-0.015,4.76464,-43.7883,4.9399,1009.08
1212614,0.148136,9.79884,0.413356,0,-0.2,-0.015,5.2908,-44.373,5.08606,1009.07
1212620,0.148136,9.79884,0.413356,-0.07,-0.06,-0.015,4.88157,-44.1391,6.69378,1009.07
1212626,0.148136,9.79884,0.413356,-0.07,0.01,-0.085,4.76464,-44.373,5.8753,1009.07
1212632,0.148136,9.79884,0.413356,-0.07,-0.06,-0.015,5.55389,-44.5776,6.44531,1009.06
1212638,0.148136,9.80361,0.413356,0,-0.2,-0.155,4.73541,-44.7822,6.45993,1009.06
1212644,0.148136,9.80361,0.413356,-0.14,0.01,-0.085,4.88157,-44.8407,6.97147,1009.07
1212650,0.148136,9.80361,0.413356,-0.28,-0.06,-0.015,4.73541,-44.7822,6.31377,1009.07
1212656,0.148136,9.80361,0.408606,-0.35,-0.06,-0.155,4.58926,-44.8407,6.67916,1009.07
1212662,0.148136,9.80361,0.408606,-0.42,-0.06,-0.155,4.76464,-44.8114,6.50377,1009.07
1212668,0.148136,9.80361,0.408606,-0.42,-0.06,-0.155,5.32004,-45.1622,6.343,1009.11
1212674,0.148136,9.80361,0.408606,-0.35,-0.06,-0.225,4.99849,-44.8114,5.74376,1009.11
1212680,0.148136,9.80361,0.408606,-0.28,-0.06,-0.085,4.58926,-44.5484,6.4307,1009.11
1212686,0.148136,9.80361,0.408606,-0.28,-0.06,-0.015,5.43696,-44.4022,5.75838,1009.07
1212692,0.148136,9.80361,0.408606,-0.28,-0.06,-0.015,5.02772,-44.7822,5.62684,1009.07
1212698,0.148136,9.80361,0.408606,-0.21,0.01,-0.155,4.20925,-45.133,6.02146,1009.08
1212704,0.148136,9.80361,0.408606,-0.21,0.01,-0.155,4.88157,-44.7237,4.31143,1009.08
1212710,0.148136,9.80361,0.408606,-0.07,-0.06,-0.155,4.94003,-45.1037,6.10915,1009.1
1212716,0.148136,9.80361,0.408606,-0.21,-0.06,-0.085,5.14465,-45.2207,5.84607,1009.1
1212722,0.148136,9.80361,0.413356,-0.07,-0.2,-0.015,4.94003,-44.9576,5.81684,1009.07
1212728,0.148136,9.80361,0.413356,-0.14,-0.06,-0.015,5.11542,-45.2207,5.50991,1009.07
1212734,0.148136,9.80361,0.413356,-0.21,-0.06,-0.085,4.73541,-45.3084,4.9399,1009.05
1212740,0.148136,9.80361,0.413356,-0.14,0.01,-0.155,4.96926,-45.6299,5.59761,1009.05
1212746,0.148136,9.80361,0.413356,-0.21,0.01,-0.155,4.85234,-44.7822,5.65607,1009.05
1212752,0.148136,9.80361,0.413356,-0.21,-0.13,-0.225,4.00463,-44.6653,6.00684,1009.07
1212758,0.148136,9.80361,0.413356,-0.28,-0.06,-0.085,4.9108,-44.9576,5.4953,1009.07
1212764,0.148136,9.80361,0.413356,-0.35,0.08,-0.015,4.53079,-45.2499,6.70839,1009.07
1212770,0.148136,9.80361,0.413356,-0.21,-0.06,-0.015,4.47233,-45.2791,5.6853,1009.07
1212776,0.148136,9.80361,0.413356,-0.14,0.01,-0.085,4.4431,-45.3961,5.4076,1009.09
1212782,0.148136,9.80361,0.413356,-0.21,0.01,-0.015,4.67695,-46.0392,5.23222,1009.09
1212788,0.148136,9.80361,0.413356,-0.21,0.01,-0.015,3.85848,-46.0099,6.35762,1009.1
1212794,0.148136,9.80361,0.413356,-0.28,0.01,-0.085,4.53079,-45.8638,5.94838,1009.1
1212800,0.148136,9.80361,0.413356,-0.14,-0.06,-0.085,3.71232,-45.3668,6.26992,1009.1
1212806,0.148136,9.80361,0.413356,-0.14,0.08,-0.015,5.05696,-44.9868,4.26759,1009.06
1212812,0.148136,9.80361,0.413356,-0.14,-0.13,-0.015,4.58926,-44.9868,5.45145,1009.06
1212818,0.148136,9.80361,0.413356,-0.14,-0.06,0.055,4.99849,-45.3961,5.59761,1009.06
1212824,0.148136,9.80361,0.413356,-0.14,-0.06,0.055,4.94003,-46.1853,5.64145,1009.06
1212830,0.148136,9.80361,0.413356,-0.14,-0.06,0.125,5.20311,-45.2791,4.4722,1009.08
1212836,0.148136,9.80361,0.413356,-0.21,-0.06,-0.015,4.03386,-45.6299,5.07144,1009.08
1212842,0.148136,9.80361,0.413356,-0.07,-0.06,0.055,5.05696,-45.7176,4.42836,1009.08
1212848,0.148136,9.80361,0.413356,-0.14,-0.06,0.055,4.88157,-46.2438,4.54528,1009.08
1212854,0.148136,9.80361,0.413356,-0.07,0.01,0.055,4.99849,-46.1268,4.5599,1009.08
1212860,0.148136,9.80361,0.413356,-0.07,-0.13,-0.155,3.62463,-46.0976,4.85221,1009.04
1212866,0.148136,9.80361,0.413356,0,0.01,-0.015,4.99849,-45.4545,5.04221,1009.04
1212872,0.148136,9.80361,0.413356,-0.07,0.01,0.055,5.05696,-45.6299,4.58913,1009.07
1212878,0.148136,9.80361,0.413356,-0.07,-0.13,0.055,4.58926,-46.2438,5.0276,1009.07
1212884,0.148136,9.80361,0.413356,-0.14,0.01,0.125,4.47233,-45.6007,5.34914,1009.09
1212890,0.148136,9.80361,0.413356,-0.07,0.01,0.125,4.58926,-45.3376,5.34914,1009.09
1212896,0.148136,9.80361,0.413356,0.07,-0.06,0.195,4.32617,-46.1853,6.533,1009.08
1212902,0.148136,9.80361,0.413356,0,-0.13,0.055,4.50156,-46.5653,5.31991,1009.08
1212908,0.148136,9.80361,0.413356,-0.14,0.08,0.055,4.23848,-46.3315,4.31143,1009.06
1212914,0.148136,9.80361,0.413356,-0.07,-0.13,0.055,5.02772,-45.8638,5.74376,1009.06
1212920,0.148136,9.80361,0.413356,0,-0.06,0.055,5.08619,-45.5714,5.05683,1009.06
1212926,0.148136,9.80361,0.413356,-0.14,-0.06,0.125,4.61849,-46.4776,5.77299,1009.08
1212932,0.148136,9.80361,0.413356,-0.21,-0.06,0.195,4.53079,-45.7468,4.99837,1009.08
1212938,0.148136,9.80361,0.413356,-0.21,-0.06,0.055,4.99849,-45.9515,5.99223,1009.03
1212944,0.148136,9.80361,0.413356,-0.35,0.01,-0.015,4.76464,-46.3315,5.43683,1009.03
1212950,0.148136,9.80361,0.413356,-0.35,0.08,-0.015,5.14465,-45.9222,3.79989,1009.06
1212956,0.148136,9.80361,0.413356,-0.35,0.15,0.055,4.35541,-46.8869,5.20298,1009.06
1212962,0.148136,9.80361,0.413356,-0.28,-0.06,0.125,5.20311,-45.8345,6.56224,1009.07
1212968,0.148136,9.80361,0.413356,-0.35,-0.06,-0.015,5.08619,-46.8576,4.91067,1009.07
1212974,0.148136,9.80361,0.413356,-0.42,0.08,-0.015,5.2908,-46.3899,5.80222,1009.07
1212980,0.148136,9.80361,0.413356,-0.21,0.01,-0.085,5.08619,-46.3607,4.20912,1009.1
1212986,0.148136,9.80361,0.413356,-0.21,-0.13,-0.015,4.32617,-46.3899,4.9399,1009.1
1212992,0.148136,9.80361,0.413356,-0.21,0.01,-0.015,5.55389,-46.6822,4.61836,1009.07
1212998,0.148136,9.80361,0.413356,-0.14,-0.06,0.055,5.20311,-46.5068,5.72915,1009.07
1213004,0.148136,9.80361,0.413356,-0.14,-0.06,-0.015,4.82311,-46.9453,5.10068,1009.08
1213010,0.148136,9.80361,0.413356,-0.07,0.01,-0.015,4.79387,-47.033,4.96913,1009.08
1213016,0.148136,9.80361,0.413356,-0.07,0.01,-0.015,5.05696,-46.9161,4.99837,1009.1
1213022,0.148136,9.80361,0.413356,-0.07,0.08,-0.015,4.47233,-46.7992,4.50144,1009.1
1213028,0.148136,9.79884,0.413356,-0.07,0.01,-0.015,4.96926,-47.0622,5.53914,1009.1
1213034,0.148136,9.79884,0.418106,-0.07,-0.06,-0.015,4.61849,-46.4776,4.73529,1009.09
1213040,0.148136,9.79884,0.418106,-0.07,-0.06,-0.015,4.47233,-46.8869,4.73529,1009.09
1213046,0.148136,9.79884,0.418106,0,-0.06,0.055,4.88157,-46.9161,4.76452,1009.1
1213052,0.148136,9.79884,0.418106,0,-0.06,0.055,4.58926,-46.7699,5.01298,1009.1
1213058,0.148136,9.79884,0.418106,-0.07,-0.13,-0.295,4.18002,-47.0915,5.23222,1009.08
1213064,0.148136,9.79884,0.418106,-0.14,0.01,-0.085,4.18002,-47.033,5.39299,1009.08
1213070,0.148136,9.80361,0.413356,-0.21,0.01,-0.015,5.08619,-46.8284,5.90453,1009.09
1213076,0.148136,9.80361,0.413356,-0.28,0.01,0.055,4.79387,-47.7053,5.55376,1009.09
1213082,0.148136,9.80361,0.413356,-0.28,0.01,0.055,5.23234,-47.1207,5.48068,1009.09
1213088,0.148136,9.80361,0.418106,-0.35,0.08,0.055,5.14465,-46.3022,4.96913,1009.09
1213094,0.148136,9.80361,0.413356,-0.35,-0.06,-0.015,5.40773,-47.4422,4.96913,1009.09
1213100,0.148136,9.80361,0.413356,-0.28,0.01,0.055,4.88157,-47.5007,4.85221,1009.06
1213106,0.148136,9.80361,0.413356,-0.35,0.01,-0.085,4.35541,-46.9745,4.04835,1009.06
1213112,0.148136,9.79884,0.418106,-0.14,0.01,0.125,4.99849,-47.033,5.67068,1009.06
1213118,0.148136,9.79884,0.418106,-0.07,-0.13,0.055,5.05696,-47.9976,6.32839,1009.06
1213124,0.148136,9.80361,0.418106,-0.07,-0.06,0.055,4.85234,-46.7115,5.56838,1009.09
1213130,0.148136,9.80361,0.418106,-0.14,0.01,0.055,5.32004,-47.2961,6.22608,1009.09
1213136,0.148136,9.79884,0.418106,-0.07,-0.06,0.125,4.56002,-47.1792,5.77299,1009.08
1213142,0.148136,9.79884,0.418106,0,-0.06,0.055,4.58926,-46.7407,5.08606,1009.08
1213148,0.148136,9.79884,0.413356,0,0.01,0.055,5.08619,-46.7115,4.66221,1009.08
1213154,0.148136,9.79884,0.413356,0.07,-0.2,-0.155,5.02772,-46.8576,5.59761,1009.06
1213160,0.148136,9.79884,0.413356,0.14,-0.06,0.055,4.35541,-47.2376,5.43683,1009.06
1213166,0.148136,9.79884,0.413356,0,0.08,-0.085,4.67695,-47.413,6.02146,1009.06
1213172,0.148136,9.79884,0.413356,-0.07,-0.06,-0.015,4.35541,-48.7869,6.13838,1009.06
1213178,0.148136,9.79884,0.413356,0,-0.06,0.055,4.70618,-47.1792,5.4953,1009.07
1213184,0.148136,9.79884,0.413356,0.07,-0.06,-0.015,4.23848,-47.8807,4.25297,1009.07
1213190,0.148136,9.79884,0.413356,0.07,-0.13,-0.015,5.40773,-47.793,3.88758,1009.06
1213196,0.152914,9.79884,0.413356,0.07,-0.06,-0.015,4.67695,-47.8223,4.23835,1009.06
1213202,0.152914,9.79884,0.413356,0.07,-0.13,0.055,4.76464,-47.5884,5.58299,1009.07
1213208,0.152914,9.80361,0.413356,0,0.01,-0.015,5.11542,-47.7346,5.07144,1009.07
1213214,0.152914,9.80361,0.413356,0,0.01,-0.015,5.02772,-47.7638,3.11295,1009.07
1213220,0.152914,9.80361,0.413356,0,-0.13,-0.015,4.85234,-47.8223,4.86683,1009.07
1213226,0.152914,9.80361,0.413356,0,0.01,0.055,4.61849,-48.0561,5.08606,1009.07
1213232,0.148136,9.80361,0.413356,-0.14,0.08,0.055,5.3785,-47.5884,4.41374,1009.09
1213238,0.148136,9.80361,0.413356,-0.14,0.08,-0.015,3.80001,-48.1438,5.50991,1009.09
1213244,0.148136,9.80361,0.413356,0,0.01,0.055,5.17388,-47.9099,5.30529,1009.05
1213250,0.148136,9.80361,0.413356,0,-0.27,-0.085,5.20311,-48.29,5.69992,1009.05
1213256,0.148136,9.80361,0.408606,-0.07,-0.13,-0.015,4.26771,-47.3546,5.31991,1009.08
1213262,0.148136,9.80361,0.413356,-0.21,0.01,0.125,5.17388,-47.2084,5.20298,1009.08
1213268,0.148136,9.80361,0.413356,-0.07,0.01,0.055,4.32617,-47.9392,5.36376,1009.08
1213274,0.148136,9.80361,0.413356,-0.14,0.01,0.055,4.67695,-47.4422,5.33453,1009.08
1213280,0.148136,9.79884,0.413356,-0.07,0.01,-0.015,4.64772,-47.9392,5.55376,1009.08
1213286,0.152914,9.79884,0.413356,0,0.01,0.055,4.56002,-47.9099,6.25531,1009.06
1213292,0.148136,9.79884,0.413356,-0.07,-0.06,-0.015,4.79387,-47.9976,5.46607,1009.06
1213298,0.148136,9.79884,0.413356,0,0.01,0.125,4.12156,-47.9976,5.18837,1009.06
1213304,0.148136,9.79884,0.413356,-0.07,-0.13,0.195,4.73541,-48.1438,4.76452,1009.06
1213310,0.148136,9.79884,0.413356,-0.07,-0.13,0.125,4.76464,-48.1146,5.6853,1009.08
1213316,0.148136,9.79884,0.413356,-0.07,-0.13,0.055,5.05696,-48.2023,6.38685,1009.08
1213322,0.152914,9.80361,0.418106,0,0.15,0.125,4.9108,-48.2607,5.11529,1009.08
1213328,0.152914,9.79884,0.418106,-0.07,-0.06,0.055,4.94003,-48.2607,6.09454,1009.07
1213334,0.152914,9.79884,0.418106,0,-0.06,0.125,5.14465,-47.8515,5.83146,1009.07
1213340,0.152914,9.79884,0.418106,-0.07,0.01,0.125,4.96926,-47.2376,5.30529,1009.08
1213346,0.152914,9.79884,0.418106,0,-0.06,0.055,5.14465,-47.5592,5.18837,1009.08
1213352,0.152914,9.79884,0.418106,0.07,0.01,0.055,5.26157,-48.4946,5.58299,1009.04
1213358,0.152914,9.80361,0.418106,0,0.01,0.055,4.85234,-47.6469,5.4953,1009.04
1213364,0.148136,9.80361,0.418106,-0.07,-0.06,0.055,5.02772,-48.0853,5.64145,1009.09
1213370,0.148136,9.79884,0.413356,0,0.01,0.055,5.58312,-47.7638,5.20298,1009.09
1213376,0.148136,9.79884,0.413356,0,0.01,0.055,4.64772,-46.6238,6.59147,1009.09
1213382,0.148136,9.80361,0.413356,-0.07,-0.13,0.125,5.14465,-48.7284,6.41608,1009.09
1213388,0.148136,9.80361,0.413356,-0.07,-0.06,0.125,5.34927,-48.1146,6.12377,1009.09
1213394,0.148136,9.80361,0.413356,-0.14,-0.06,0.055,5.3785,-47.7638,6.70839,1009.05
1213400,0.148136,9.80361,0.413356,-0.21,-0.06,-0.015,5.02772,-48.67,5.65607,1009.05
1213406,0.148136,9.80361,0.413356,-0.14,-0.06,0.055,5.34927,-48.3776,5.6853,1009.06
1213412,0.148136,9.80361,0.418106,-0.14,-0.06,0.055,5.2908,-48.8746,5.56838,1009.06
1213418,0.148136,9.80361,0.418106,-0.07,-0.06,0.055,6.05082,-48.3192,5.90453,1009.08
1213424,0.148136,9.80361,0.418106,-0.14,-0.06,0.055,4.67695,-48.3484,6.56224,1009.08
1213430,0.148136,9.80361,0.418106,-0.14,-0.06,-0.015,4.99849,-48.2315,6.82532,1009.09
1213436,0.148136,9.80361,0.418106,0,-0.06,-0.015,4.76464,-47.9976,5.50991,1009.09
1213442,0.148136,9.80361,0.418106,-0.07,0.01,-0.015,4.79387,-48.6115,5.58299,1009.09
1213448,0.148136,9.80361,0.418106,0,-0.06,-0.085,4.82311,-47.9392,5.69992,1009.07
1213454,0.148136,9.80361,0.418106,0,-0.06,0.055,4.29694,-49.0792,4.10681,1009.07
1213460,0.148136,9.80361,0.418106,-0.07,-0.06,-0.155,5.46619,-48.173,5.61222,1009.08
1213466,0.148136,9.80361,0.418106,-0.07,0.01,-0.015,5.55389,-48.2023,6.57685,1009.08
1213472,0.148136,9.80361,0.418106,0.07,-0.13,-0.015,5.2908,-48.0269,5.27606,1009.08
1213478,0.152914,9.80361,0.418106,0,0.01,-0.015,5.34927,-48.4069,5.48068,1009.08
1213484,0.152914,9.80361,0.418106,0,-0.13,-0.015,4.64772,-48.6407,4.07758,1009.08
1213490,0.152914,9.80361,0.418106,-0.07,-0.06,-0.015,5.08619,-48.6407,5.55376,1009.08
1213496,0.152914,9.80361,0.418106,0.07,-0.06,-0.015,5.7585,-48.3192,6.13838,1009.08
1213502,0.148136,9.80361,0.418106,0.07,-0.06,-0.015,4.88157,-47.8807,4.34066,1009.07
1213508,0.152914,9.80361,0.422856,0,-0.13,-0.015,4.99849,-48.553,5.80222,1009.07
1213514,0.152914,9.80361,0.422856,-0.07,-0.13,-0.015,4.85234,-48.7577,6.60608,1009.08
1213520,0.152914,9.80361,0.422856,0,-0.06,-0.015,4.50156,-48.7869,4.66221,1009.08
1213526,0.152914,9.80361,0.422856,-0.07,-0.06,0.125,5.72927,-48.67,7.19071,1009.11
1213532,0.152914,9.80361,0.422856,-0.07,-0.06,0.055,5.46619,-48.553,5.81684,1009.11
1213538,0.152914,9.80361,0.422856,0,-0.06,0.055,5.43696,-49.1084,6.03607,1009.07
1213544,0.152914,9.80361,0.422856,-0.07,0.01,0.055,5.3785,-48.9915,6.26992,1009.07
1213550,0.152914,9.80361,0.422856,-0.07,0.01,-0.015,5.02772,-49.0207,5.93376,1009.06
1213556,0.152914,9.80361,0.422856,-0.07,0.08,0.055,4.70618,-49.1377,4.82298,1009.06
1213562,0.152914,9.80361,0.422856,0,-0.06,0.055,5.55389,-48.5823,6.73762,1009.06
1213568,0.152914,9.80361,0.422856,0.07,-0.06,-0.085,5.32004,-48.6407,5.94838,1009.08
1213574,0.152914,9.80361,0.422856,-0.07,-0.06,-0.015,5.26157,-48.7284,5.61222,1009.08
1213580,0.152914,9.80361,0.422856,-0.07,-0.13,0.055,5.34927,-47.9684,6.153,1009.07
1213586,0.152914,9.80361,0.422856,0,-0.06,-0.015,5.14465,-48.8161,5.90453,1009.07
1213592,0.152914,9.80361,0.422856,0,0.08,-0.015,4.96926,-48.9915,6.05069,1009.07
1213598,0.152914,9.80361,0.422856,0.14,-0.13,-0.015,5.3785,-48.9623,5.62684,1009.07
1213604,0.152914,9.80361,0.422856,0,-0.06,-0.015,5.26157,-48.8746,6.13838,1009.05
1213610,0.157693,9.80361,0.422856,0.07,0.01,-0.015,5.90466,-48.8453,6.75224,1009.05
1213616,0.152914,9.80361,0.422856,-0.07,-0.06,-0.015,5.08619,-48.4653,5.8753,1009.05
1213622,0.152914,9.80361,0.422856,-0.07,-0.06,0.055,5.02772,-48.2607,5.58299,1009.1
1213628,0.157693,9.80361,0.422856,-0.14,0.01,-0.015,6.10928,-49.7223,5.84607,1009.1
1213634,0.157693,9.80361,0.422856,-0.14,-0.06,-0.085,5.61235,-49.5469,5.23222,1009.08
1213640,0.157693,9.80361,0.422856,-0.14,-0.06,-0.155,5.05696,-49.5469,6.09454,1009.08
1213646,0.157693,9.80361,0.422856,-0.07,-0.06,-0.015,5.67081,-49.1961,6.78147,1009.1
1213652,0.152914,9.80361,0.422856,-0.07,-0.06,-0.015,5.8462,-48.6407,5.50991,1009.1
1213658,0.157693,9.80361,0.422856,-0.07,-0.13,0.055,4.67695,-49.0207,5.18837,1009.09
1213664,0.157693,9.80361,0.422856,-0.21,-0.06,-0.085,5.55389,-48.4069,7.02994,1009.09
1213670,0.157693,9.80361,0.422856,-0.21,0.01,-0.085,5.08619,-47.6761,6.10915,1009.05
1213676,0.157693,9.80361,0.422856,-0.28,-0.06,-0.085,5.52465,-49.05,5.99223,1009.05
1213682,0.157693,9.80361,0.422856,-0.21,-0.06,-0.015,5.55389,-48.67,5.99223,1009.05
1213688,0.157693,9.80361,0.422856,-0.28,0.01,-0.085,4.58926,-47.8807,5.61222,1009.07
1213694,0.157693,9.80361,0.422856,-0.21,0.01,-0.015,5.8462,-48.4069,5.42222,1009.07
1213700,0.157693,9.79884,0.422856,-0.21,0.01,-0.015,5.55389,-48.7284,5.72915,1009.04
1213706,0.157693,9.79884,0.422856,-0.21,0.08,-0.085,5.67081,-48.8453,4.50144,1009.04
1213712,0.157693,9.79884,0.422856,-0.07,-0.13,-0.085,5.90466,-48.4946,6.75224,1009.06
1213718,0.157693,9.79884,0.422856,0,-0.13,-0.085,5.43696,-49.1961,5.64145,1009.06
1213724,0.157693,9.79884,0.422856,0,-0.06,-0.015,5.61235,-48.7869,6.54762,1009.07
1213730,0.157693,9.79884,0.422856,0,-0.13,-0.015,5.61235,-48.3484,5.8753,1009.07
1213736,0.157693,9.79884,0.427606,0.07,0.01,0.055,5.81697,-48.4069,4.85221,1009.07
1213742,0.157693,9.79884,0.427606,0.07,-0.13,-0.085,5.20311,-48.5823,5.31991,1009.08
1213748,0.157693,9.80361,0.427606,0,-0.13,-0.015,6.28467,-48.4653,6.60608,1009.08
1213754,0.157693,9.79884,0.422856,-0.07,-0.13,-0.085,6.02159,-48.2607,5.93376,1009.09
1213760,0.157693,9.79884,0.427606,0,0.01,-0.085,5.23234,-48.553,5.20298,1009.09
1213766,0.157693,9.79884,0.427606,-0.14,0.29,0.195,5.2908,-49.4884,6.48916,1009.08
1213772,0.157693,9.79884,0.427606,-0.14,0.01,0.055,5.46619,-48.5238,4.86683,1009.08
1213778,0.157693,9.79884,0.427606,-0.14,-0.13,-0.015,5.26157,-48.9038,6.98609,1009.05
1213784,0.157693,9.79884,0.427606,-0.14,-0.13,0.055,5.11542,-49.0792,5.55376,1009.05
1213790,0.157693,9.79884,0.427606,-0.14,-0.06,0.055,6.16774,-48.6992,7.17609,1009.05
1213796,0.157693,9.79884,0.427606,-0.07,-0.06,-0.085,5.52465,-48.4653,5.91915,1009.08
1213802,0.157693,9.79884,0.427606,-0.21,0.01,-0.015,5.52465,-48.3484,5.65607,1009.08
1213808,0.157693,9.79884,0.427606,-0.28,0.08,-0.015,5.64158,-48.7577,6.64993,1009.09
1213814,0.157693,9.79884,0.427606,-0.14,-0.13,-0.155,5.78773,-48.9915,5.75838,1009.09
1213820,0.157693,9.79884,0.427606,0.07,-0.13,-0.085,5.81697,-48.4946,6.67916,1009.06
1213826,0.157693,9.79884,0.427606,-0.07,0.01,-0.085,5.58312,-48.553,5.94838,1009.06
1213832,0.157693,9.79884,0.427606,-0.07,-0.06,-0.155,5.43696,-48.173,5.07144,1009.07
1213838,0.157693,9.79884,0.427606,-0.14,-0.06,0.055,5.3785,-48.4653,6.19685,1009.07
1213844,0.157693,9.79884,0.427606,-0.14,0.08,-0.155,5.2908,-48.5238,5.59761,1009.04
1213850,0.157693,9.79884,0.427606,-0.07,-0.13,-0.155,5.72927,-48.6992,7.21994,1009.04
1213856,0.157693,9.79884,0.427606,-0.14,-0.13,-0.015,5.90466,-48.3484,7.2784,1009.04
1213862,0.157693,9.79884,0.427606,-0.07,-0.06,-0.085,4.9108,-48.4946,6.95686,1009.09
1213868,0.157693,9.79884,0.427606,0,-0.27,-0.505,5.43696,-49.0207,6.41608,1009.09
1213874,0.157693,9.80361,0.427606,0,0.01,-0.085,5.81697,-49.2546,5.24683,1009.1
1213880,0.157693,9.80361,0.427606,0,-0.06,-0.085,6.16774,-48.5823,7.02994,1009.1
1213886,0.157693,9.80361,0.427606,-0.07,-0.06,-0.085,6.10928,-48.6115,6.51839,1009.07
1213892,0.157693,9.80361,0.427606,-0.07,-0.13,-0.015,5.11542,-48.6407,6.19685,1009.07
1213898,0.157693,9.79884,0.427606,-0.07,-0.06,-0.085,5.70004,-49.1961,5.74376,1009.08
1213904,0.157693,9.79884,0.427606,-0.07,-0.06,-0.015,6.13851,-49.4592,7.05917,1009.08
1213910,0.157693,9.79884,0.427606,0,-0.06,-0.085,6.10928,-49.1377,6.63531,1009.08
1213916,0.157693,9.79884,0.432356,-0.07,-0.06,-0.155,6.05082,-49.5761,6.29916,1009.05
1213922,0.157693,9.79884,0.432356,0,-0.13,-0.155,5.78773,-48.9915,6.28454,1009.05
1213928,0.157693,9.79884,0.432356,-0.07,-0.13,-0.085,6.40159,-49.1084,5.8753,1009.08
1213934,0.157693,9.79884,0.432356,-0.07,-0.06,-0.155,6.13851,-48.933,6.54762,1009.08
1213940,0.157693,9.79884,0.432356,-0.07,0.01,-0.085,5.87543,-48.8746,7.4684,1009.07
1213946,0.157693,9.79884,0.432356,-0.07,-0.06,-0.015,6.25543,-48.4946,6.533,1009.07
1213952,0.157693,9.79884,0.432356,-0.14,0.01,-0.155,6.13851,-48.7284,6.86916,1009.06
1213958,0.157693,9.79884,0.432356,-0.07,0.08,-0.155,5.67081,-48.8453,6.73762,1009.06
1213964,0.157693,9.79884,0.432356,-0.21,-0.13,-0.155,5.46619,-47.9684,6.153,1009.06
1213970,0.157693,9.79884,0.432356,-0.21,-0.06,-0.225,5.81697,-49.1377,6.06531,1009.05
1213976,0.157693,9.79884,0.432356,-0.21,0.01,-0.155,6.46005,-48.3192,7.0007,1009.05
1213982,0.157693,9.79884,0.432356,-0.07,0.01,-0.225,5.87543,-48.3192,6.21146,1009.08
1213988,0.157693,9.79884,0.432356,0,-0.13,-0.155,5.34927,-48.4361,5.71453,1009.08
1213994,0.157693,9.79884,0.432356,0.07,-0.06,-0.225,5.99235,-48.173,6.63531,1009.08
1214000,0.157693,9.79884,0.432356,0,-0.13,-0.155,6.25543,-48.3484,6.343,1009.08
1214006,0.157693,9.79884,0.432356,0,-0.13,-0.015,5.70004,-48.6992,6.8984,1009.07
1214012,0.157693,9.80361,0.427606,0,-0.06,-0.155,5.55389,-49.1669,5.93376,1009.07
1214018,0.157693,9.80361,0.427606,-0.21,0.01,-0.155,6.13851,-48.1438,6.25531,1009.07
1214024,0.157693,9.80361,0.427606,-0.21,-0.06,-0.225,6.19697,-48.8161,6.02146,1009.07
1214030,0.157693,9.80361,0.427606,-0.14,-0.06,-0.155,5.67081,-48.4946,5.58299,1009.07
1214036,0.152914,9.80361,0.427606,0,-0.13,-0.225,6.13851,-48.8161,7.97995,1009.08
1214042,0.152914,9.79884,0.427606,-0.14,-0.2,-0.225,5.90466,-49.1084,7.57071,1009.08
1214048,0.157693,9.79884,0.427606,-0.14,0.01,-0.365,6.40159,-48.9915,6.72301,1009.07
1214054,0.157693,9.80361,0.427606,-0.14,-0.06,-0.225,5.8462,-48.7577,7.95072,1009.07
1214060,0.157693,9.80361,0.427606,-0.21,-0.06,-0.225,5.61235,-49.2838,6.51839,1009.06
1214066,0.157693,9.80361,0.432356,-0.21,-0.06,-0.225,6.28467,-49.1377,6.98609,1009.06
1214072,0.157693,9.80361,0.432356,-0.28,-0.06,-0.295,5.14465,-48.9623,5.84607,1009.09
1214078,0.157693,9.80361,0.427606,-0.35,0.08,-0.295,6.63544,-49.05,7.52687,1009.09
1214084,0.157693,9.80361,0.427606,-0.35,0.01,-0.505,6.05082,-49.3715,6.02146,1009.09
1214090,0.157693,9.80361,0.427606,-0.28,-0.06,-0.645,6.48929,-48.67,6.29916,1009.04
1214096,0.157693,9.80361,0.427606,-0.14,-0.06,-0.575,5.3785,-48.933,7.54148,1009.04
1214102,0.157693,9.79884,0.427606,-0.07,-0.06,-0.645,6.54775,-48.6115,5.71453,1009.08
1214108,0.157693,9.79884,0.427606,-0.07,0.01,-0.575,6.05082,-48.6115,7.05917,1009.08
1214114,0.157693,9.79884,0.432356,-0.07,-0.13,-0.505,6.60621,-48.5238,7.2784,1009.04
1214120,0.157693,9.79884,0.432356,0.07,-0.06,-0.575,6.19697,-48.3484,7.81918,1009.04
1214126,0.157693,9.79884,0.432356,0.07,-0.2,-0.365,6.28467,-48.3192,7.23455,1009.07
1214132,0.157693,9.79884,0.427606,0.07,-0.13,-0.435,5.93389,-48.3192,7.30763,1009.07
1214138,0.157693,9.79884,0.432356,-0.07,-0.06,-0.365,5.8462,-48.8161,7.5561,1009.07
1214144,0.157693,9.79884,0.432356,-0.14,0.01,-0.225,5.93389,-49.4592,7.20532,1009.07
1214150,0.157693,9.79884,0.432356,-0.21,0.01,-0.225,6.34313,-49.0207,6.75224,1009.07
1214156,0.157693,9.80361,0.432356,-0.28,0.08,-0.365,6.66467,-48.7869,7.57071,1009.08
1214162,0.157693,9.80361,0.432356,-0.28,-0.06,-0.225,5.49542,-48.7284,7.40994,1009.08
1214168,0.157693,9.80361,0.427606,-0.35,0.01,-0.225,6.81083,-48.9038,7.29302,1009.08
1214174,0.152914,9.80361,0.427606,-0.49,0.29,-0.155,6.19697,-48.9915,6.47454,1009.08
1214180,0.152914,9.80361,0.427606,-0.35,0.08,-0.295,6.46005,-49.0207,6.8107,1009.09
1214186,0.152914,9.79884,0.427606,-0.28,0.01,-0.365,6.28467,-48.7577,6.85455,1009.09
1214192,0.152914,9.79884,0.427606,-0.28,-0.06,-0.295,6.40159,-49.05,7.0007,1009.09
1214198,0.152914,9.79884,0.427606,-0.14,-0.06,-0.295,6.63544,-48.6992,7.17609,1009.09
1214204,0.152914,9.79884,0.427606,-0.14,-0.2,-0.295,5.78773,-49.0207,7.2784,1009.09
1214210,0.152914,9.79884,0.427606,-0.07,-0.2,-0.365,7.10314,-48.0561,7.0884,1009.07
1214216,0.152914,9.79884,0.427606,-0.14,0.01,-0.295,6.34313,-48.5823,7.11763,1009.07
1214222,0.152914,9.79884,0.427606,-0.14,-0.06,-0.365,5.55389,-48.4653,6.85455,1009.06
1214228,0.152914,9.79884,0.427606,-0.21,-0.06,-0.295,6.13851,-48.9915,6.70839,1009.06
1214234,0.152914,9.79884,0.427606,-0.21,0.01,-0.295,6.46005,-48.4946,6.60608,1009.06
1214240,0.152914,9.79884,0.427606,-0.28,0.01,-0.295,6.08005,-48.3776,7.35148,1009.06
1214246,0.152914,9.79884,0.427606,-0.28,-0.13,-0.225,6.51852,-48.0269,5.86069,1009.1
1214252,0.152914,9.79884,0.427606,-0.42,0.15,-0.225,6.43082,-48.9915,6.78147,1009.1
1214258,0.152914,9.79884,0.427606,-0.35,0.01,-0.155,6.28467,-48.3192,6.98609,1009.1
1214264,0.148136,9.79884,0.427606,-0.28,-0.06,-0.085,6.54775,-49.1669,7.70225,1009.09
1214270,0.148136,9.79884,0.427606,-0.35,0.08,-0.085,6.92775,-48.0561,6.18223,1009.09
1214276,0.152914,9.79884,0.427606,-0.49,0.15,-0.295,6.89852,-49.313,7.24917,1009.04
1214282,0.152914,9.79884,0.427606,-0.35,0.01,-0.155,6.48929,-49.2546,7.02994,1009.04
1214288,0.152914,9.79884,0.432356,-0.21,0.01,-0.015,6.51852,-49.0792,7.02994,1009.05
1214294,0.152914,9.79884,0.432356,-0.14,-0.06,-0.155,5.96312,-49.2546,7.17609,1009.05
1214300,0.148136,9.79884,0.432356,-0.21,-0.06,-0.085,6.13851,-49.81,7.16148,1009.07
1214306,0.148136,9.79884,0.432356,-0.21,-0.06,-0.015,6.7816,-48.933,7.04455,1009.07
1214312,0.152914,9.79884,0.432356,0,-0.06,-0.085,6.60621,-48.6407,6.98609,1009.05
1214318,0.152914,9.79884,0.432356,0,0.01,-0.085,6.46005,-49.2546,7.04455,1009.05
1214324,0.152914,9.79884,0.432356,0.07,-0.06,-0.085,6.84006,-49.43,5.93376,1009.05
1214330,0.152914,9.79884,0.432356,0.07,-0.06,-0.085,6.37236,-48.7284,7.32225,1009.05
1214336,0.152914,9.79884,0.432356,0.21,-0.06,-0.085,6.75237,-48.5238,8.37457,1009.05
1214342,0.152914,9.79884,0.432356,0.14,-0.13,-0.295,6.34313,-48.4946,8.06764,1009.04
1214348,0.152914,9.79884,0.432356,-0.07,-0.13,-0.225,7.22007,-49.0207,8.30149,1009.04
1214354,0.152914,9.79884,0.432356,-0.14,-0.06,-0.155,6.48929,-49.05,7.11763,1009.08
1214360,0.152914,9.79884,0.432356,-0.07,0.01,-0.225,6.34313,-48.8453,7.17609,1009.08
1214366,0.152914,9.79884,0.432356,-0.07,0.01,-0.225,6.7816,-48.3484,6.67916,1009.05
1214372,0.152914,9.79884,0.432356,-0.07,-0.06,-0.225,6.89852,-48.29,7.16148,1009.05
1214378,0.152914,9.79884,0.432356,-0.07,-0.06,-0.015,6.92775,-49.0207,7.04455,1009.05
1214384,0.152914,9.79884,0.432356,0,-0.06,-0.155,6.57698,-48.4361,7.38071,1009.05
1214390,0.152914,9.79884,0.432356,0.07,0.08,-0.225,6.89852,-48.5238,6.02146,1009.05
1214396,0.152914,9.79884,0.432356,0,-0.13,-0.225,7.27853,-49.4007,7.05917,1009.06
1214402,0.152914,9.79884,0.432356,0.07,-0.06,-0.155,7.13237,-49.5177,7.43917,1009.06
1214408,0.152914,9.79884,0.432356,0.14,0.01,-0.155,7.57084,-49.0207,7.04455,1009.08
1214414,0.152914,9.79884,0.432356,0.07,-0.06,-0.085,7.60007,-48.3192,7.14686,1009.08
1214420,0.152914,9.79884,0.432356,0,-0.06,-0.155,6.60621,-48.4653,5.83146,1009.06
1214426,0.148136,9.79884,0.432356,-0.07,-0.06,-0.085,6.7816,-48.9623,6.91301,1009.06
1214432,0.148136,9.79884,0.432356,-0.14,-0.06,-0.015,7.10314,-48.6115,7.01532,1009.06
1214438,0.148136,9.79884,0.432356,-0.21,0.01,-0.015,7.33699,-49.0792,6.16761,1009.07
1214444,0.148136,9.79884,0.427606,-0.21,0.01,-0.155,6.92775,-49.1084,6.48916,1009.07
1214450,0.148136,9.79884,0.427606,-0.21,-0.06,-0.155,7.10314,-48.6115,6.73762,1009.1
1214456,0.148136,9.79884,0.427606,-0.14,0.01,-0.155,6.84006,-48.7577,6.60608,1009.1
1214462,0.148136,9.79884,0.432356,-0.14,0.08,-0.295,7.68776,-48.7869,7.24917,1009.05
1214468,0.148136,9.79884,0.432356,0.07,-0.06,-0.225,7.51238,-48.67,6.47454,1009.05
1214474,0.148136,9.79884,0.432356,0.07,0.01,-0.365,6.28467,-48.7577,7.59994,1009.07
1214480,0.148136,9.79884,0.432356,0.07,0.01,-0.295,6.6939,-48.4069,7.33686,1009.07
1214486,0.152914,9.79408,0.432356,0.35,-0.34,-0.155,6.72313,-49.2253,6.66455,1009.08
1214492,0.148136,9.79408,0.432356,0.35,-0.13,-0.085,6.92775,-48.6992,6.54762,1009.08
1214498,0.148136,9.79408,0.432356,0.28,-0.13,-0.085,6.92775,-48.9038,6.57685,1009.08
1214504,0.148136,9.79408,0.432356,0.28,-0.13,-0.085,6.57698,-48.4946,5.56838,1009.06
1214510,0.148136,9.79408,0.432356,0.14,-0.06,-0.085,7.65853,-48.933,7.0884,1009.06
1214516,0.148136,9.79408,0.432356,0.21,-0.06,-0.015,6.16774,-49.81,7.10301,1009.06
1214522,0.148136,9.79408,0.432356,0.21,-0.06,-0.015,6.75237,-48.553,6.60608,1009.06
1214528,0.148136,9.79408,0.432356,0.21,-0.06,0.055,6.2262,-48.4069,7.36609,1009.07
1214534,0.148136,9.79408,0.432356,0.14,-0.06,-0.155,6.46005,-48.8746,7.97995,1009.07
1214540,0.148136,9.79408,0.432356,0,0.01,-0.015,6.7816,-49.1669,7.67302,1009.1
1214546,0.148136,9.79408,0.432356,0.07,0.01,-0.015,6.89852,-49.1377,7.38071,1009.1
1214552,0.148136,9.79408,0.432356,0.21,0.01,-0.085,7.39545,-49.1084,6.6207,1009.1
1214558,0.148136,9.79408,0.432356,0.14,-0.2,-0.085,7.01545,-49.2253,6.91301,1009.1
1214564,0.148136,9.79408,0.432356,0.21,-0.06,-0.085,6.95698,-49.1669,5.53914,1009.1
1214570,0.148136,9.79408,0.432356,0.21,-0.06,-0.085,7.74623,-49.05,6.44531,1009.02
1214576,0.148136,9.79408,0.432356,0.14,-0.13,-0.085,7.27853,-48.6407,7.23455,1009.02
1214582,0.148136,9.79408,0.432356,0.14,-0.13,-0.085,6.89852,-49.2546,5.65607,1009.06
1214588,0.148136,9.79408,0.432356,0.14,-0.06,-0.015,6.75237,-47.9976,5.94838,1009.06
1214594,0.148136,9.79408,0.432356,0.07,-0.06,-0.015,7.19083,-48.933,5.6853,1009.09
1214600,0.148136,9.79408,0.432356,0.07,-0.13,-0.015,7.65853,-48.933,6.35762,1009.09
1214606,0.148136,9.79408,0.432356,0.14,0.01,-0.085,6.92775,-48.29,6.98609,1009.06
1214612,0.148136,9.79408,0.432356,0.07,-0.13,-0.155,7.10314,-48.9038,7.13225,1009.06
1214618,0.148136,9.79408,0.437106,0,-0.06,-0.085,6.43082,-48.8161,6.85455,1009.06
1214624,0.148136,9.79408,0.437106,0.14,-0.06,-0.085,6.7816,-48.3776,6.86916,1009.07
1214630,0.148136,9.79408,0.437106,0.14,-0.06,-0.015,6.92775,-49.4592,6.82532,1009.07
1214636,0.143357,9.79408,0.437106,0.21,-0.13,-0.085,7.45392,-48.3776,7.17609,1009.06
1214642,0.143357,9.79408,0.437106,0.07,-0.13,-0.155,7.04468,-48.4653,6.75224,1009.06
1214648,0.143357,9.79884,0.437106,0.07,-0.2,-0.015,7.36622,-48.6992,6.56224,1009.06
1214654,0.143357,9.79884,0.437106,0.14,-0.06,-0.085,6.95698,-48.7869,6.31377,1009.06
1214660,0.143357,9.79884,0.437106,0.07,-0.13,-0.015,6.89852,-49.4007,7.16148,1009.05
1214666,0.143357,9.79884,0.437106,0.07,-0.13,-0.015,7.33699,-48.3192,6.13838,1009.05
1214672,0.143357,9.79408,0.432356,0.07,-0.06,0.055,7.22007,-48.933,8.2138,1009.05
1214678,0.143357,9.79884,0.437106,0.07,-0.06,0.055,6.60621,-48.6407,6.67916,1009.12
1214684,0.143357,9.79884,0.437106,0,0.01,-0.085,6.72313,-48.1146,7.35148,1009.12
1214690,0.143357,9.79884,0.437106,0.07,0.01,-0.085,6.7816,-48.9623,7.2784,1009.08
1214696,0.143357,9.79884,0.437106,0.14,-0.06,-0.015,6.48929,-48.4069,6.69378,1009.08
1214702,0.143357,9.79884,0.437106,0.14,-0.06,-0.015,6.66467,-48.0269,6.48916,1009.07
1214708,0.143357,9.79884,0.437106,0.14,-0.06,0.055,6.40159,-47.6761,6.88378,1009.07
1214714,0.143357,9.79884,0.437106,0.14,-0.06,0.055,6.7816,-48.3192,7.84841,1009.07
1214720,0.143357,9.79884,0.437106,0.14,0.01,0.055,6.48929,-48.4361,7.38071,1009.07
1214726,0.143357,9.79884,0.437106,0.35,-0.13,0.125,6.60621,-49.1084,7.45379,1009.07
1214732,0.143357,9.79884,0.437106,0.21,-0.06,0.055,7.1616,-48.9915,6.94224,1009.08
1214738,0.143357,9.79884,0.437106,0.07,-0.06,0.055,7.19083,-48.9038,6.6207,1009.08
1214744,0.143357,9.79884,0.437106,0.14,0.01,0.125,7.48315,-48.3192,6.10915,1009.08
1214750,0.143357,9.79884,0.437106,0.28,-0.06,0.125,7.80469,-47.9392,5.39299,1009.08
1214756,0.143357,9.79884,0.437106,0.28,-0.06,0.195,7.10314,-48.9038,6.48916,1009.08
1214762,0.143357,9.79884,0.432356,0.35,-0.2,0.125,6.60621,-48.8453,7.05917,1009.08
1214768,0.143357,9.79884,0.432356,0.42,-0.13,0.125,7.65853,-48.3776,6.76685,1009.09
1214774,0.143357,9.79884,0.432356,0.35,-0.13,-0.015,8.06777,-48.4653,7.32225,1009.09
1214780,0.143357,9.79884,0.432356,0.28,0.01,-0.015,7.1616,-48.2607,6.8107,1009.11
1214786,0.143357,9.79884,0.432356,0.35,-0.06,0.055,7.39545,-49.1377,5.36376,1009.11
1214792,0.143357,9.79884,0.432356,0.28,-0.2,-0.015,7.04468,-48.0561,6.56224,1009.11
1214798,0.143357,9.79884,0.432356,0.35,-0.13,0.125,6.75237,-48.4069,6.98609,1009.05
1214804,0.143357,9.79884,0.432356,0.42,-0.13,0.055,6.81083,-48.3192,7.39533,1009.05
1214810,0.143357,9.79884,0.432356,0.28,-0.2,0.125,6.95698,-48.0561,6.78147,1009.1
1214816,0.143357,9.79884,0.432356,0.21,-0.06,0.055,6.25543,-48.1146,8.06764,1009.1
1214822,0.143357,9.79884,0.432356,0.14,-0.13,0.055,6.51852,-47.9392,6.75224,1009.04
1214828,0.143357,9.79884,0.432356,0,-0.06,0.195,7.51238,-47.7346,6.31377,1009.04
1214834,0.143357,9.79884,0.432356,0.14,-0.13,0.195,6.54775,-48.6407,7.78995,1009.09
1214840,0.143357,9.79884,0.432356,-0.07,-0.06,0.125,7.51238,-49.1669,8.14072,1009.09
1214846,0.143357,9.79884,0.432356,0.07,-0.13,0.195,7.30776,-48.4946,7.4684,1009.09
1214852,0.143357,9.79884,0.432356,0.07,-0.06,0.265,7.27853,-48.0853,7.95072,1009.08
1214858,0.143357,9.79884,0.432356,0.07,-0.2,0.265,6.95698,-48.553,7.26379,1009.08
1214864,0.143357,9.79884,0.432356,0.07,0.01,0.265,7.19083,-48.8161,6.54762,1009.09
1214870,0.143357,9.79884,0.432356,-0.07,0.08,0.265,6.95698,-48.4946,6.13838,1009.09
1214876,0.143357,9.79884,0.432356,0,-0.06,0.265,6.86929,-48.5823,7.20532,1009.08
1214882,0.143357,9.79884,0.432356,0.14,-0.06,0.125,6.95698,-48.933,7.67302,1009.08
1214888,0.143357,9.79884,0.437106,0.21,0.08,0.195,6.92775,-48.4361,7.92149,1009.1
1214894,0.143357,9.79884,0.432356,0.21,0.15,0.265,7.717,-48.3192,7.02994,1009.1
1214900,0.143357,9.79884,0.437106,0.28,-0.13,0.335,7.27853,-48.3192,7.13225,1009.1
1214906,0.143357,9.79884,0.437106,0.28,-0.13,0.195,7.10314,-48.173,8.16995,1009.06
1214912,0.143357,9.79408,0.437106,0.35,-0.13,0.125,7.10314,-48.3776,6.95686,1009.06
1214918,0.143357,9.79408,0.437106,0.42,-0.13,0.195,7.42468,-48.6407,8.09688,1009.05
1214924,0.143357,9.79408,0.437106,0.49,-0.13,0.125,7.19083,-48.3484,8.08226,1009.05
1214930,0.143357,9.79884,0.437106,0.35,-0.2,0.195,7.04468,-48.3192,7.58533,1009.08
1214936,0.143357,9.79408,0.437106,0.35,-0.13,0.125,7.01545,-48.9038,7.19071,1009.08
1214942,0.143357,9.79408,0.437106,0.42,-0.13,0.125,6.46005,-49.2253,7.20532,1009.05
1214948,0.143357,9.79884,0.432356,0.21,0.01,0.055,6.81083,-48.553,6.60608,1009.05
1214954,0.143357,9.79884,0.432356,0.14,-0.2,0.055,6.89852,-48.933,6.70839,1009.1
1214960,0.143357,9.79884,0.432356,0.07,-0.06,0.055,6.72313,-49.4007,7.19071,1009.1
1214966,0.143357,9.79884,0.432356,0.28,-0.2,0.055,8.15546,-49.2546,6.47454,1009.1
1214972,0.143357,9.79884,0.437106,0.28,-0.2,-0.015,7.51238,-49.3423,8.14072,1009.05
1214978,0.143357,9.79884,0.432356,0.28,-0.13,-0.015,7.22007,-48.3484,7.0007,1009.05
1214984,0.143357,9.79884,0.432356,0.14,-0.06,-0.085,7.33699,-48.8161,6.153,1009.07
1214990,0.143357,9.79884,0.432356,0.07,-0.06,-0.085,6.84006,-49.1669,5.31991,1009.07
1214996,0.143357,9.79884,0.432356,0,0.08,0.265,6.92775,-49.1669,7.39533,1009.07
1215002,0.143357,9.79884,0.432356,0.07,-0.06,-0.155,7.22007,-49.1084,6.51839,1009.07
1215008,0.143357,9.79884,0.432356,0.07,0.01,-0.085,7.13237,-48.67,7.11763,1009.08
1215014,0.143357,9.79884,0.432356,0,-0.06,-0.085,6.95698,-49.1669,6.88378,1009.08
1215020,0.143357,9.79884,0.432356,0,-0.06,-0.085,6.02159,-48.933,7.29302,1009.08
1215026,0.143357,9.79884,0.432356,0.14,-0.06,-0.085,7.19083,-48.2315,7.16148,1009.07
1215032,0.143357,9.79884,0.432356,0.14,-0.06,-0.015,7.19083,-48.0561,7.62918,1009.07
1215038,0.143357,9.79884,0.432356,0.14,-0.2,-0.085,6.51852,-48.3776,7.2784,1009.07
1215044,0.143357,9.79884,0.427606,0.21,0.01,-0.085,7.04468,-47.9976,6.94224,1009.07
1215050,0.143357,9.79884,0.427606,0.07,-0.06,-0.155,7.2493,-48.0269,6.86916,1009.03
1215056,0.143357,9.79884,0.427606,0.07,-0.06,-0.155,7.30776,-48.7577,7.90687,1009.03
1215062,0.143357,9.79884,0.432356,0.07,0.01,-0.155,7.07391,-48.0269,7.86303,1009.06
1215068,0.143357,9.79884,0.427606,0.14,-0.13,-0.085,6.7816,-48.29,6.94224,1009.06
1215074,0.143357,9.79884,0.432356,0.21,-0.13,-0.155,6.48929,-48.2023,6.8107,1009.09
1215080,0.143357,9.79884,0.432356,0.21,-0.13,-0.015,7.33699,-48.2607,8.43303,1009.09
1215086,0.143357,9.79884,0.432356,0.28,0.01,-0.015,7.04468,-48.6992,7.16148,1009.09
1215092,0.143357,9.79884,0.427606,0.35,-0.13,-0.295,6.66467,-49.1961,6.13838,1009.07
1215098,0.143357,9.79884,0.427606,0.21,-0.13,-0.155,6.16774,-48.5823,6.56224,1009.07
1215104,0.143357,9.79884,0.427606,0.14,-0.06,-0.155,6.95698,-48.5238,7.26379,1009.07
1215110,0.143357,9.79884,0.427606,0.14,-0.06,-0.155,7.68776,-48.2023,6.60608,1009.07
1215116,0.143357,9.79884,0.427606,0.21,-0.13,-0.085,7.07391,-48.9038,7.4684,1009.07
1215122,0.143357,9.79884,0.427606,0.14,-0.13,-0.155,6.48929,-49.1377,7.67302,1009.07
1215128,0.143357,9.79884,0.427606,0.14,-0.13,-0.015,7.57084,-48.3192,8.06764,1009.1
1215134,0.143357,9.79884,0.427606,0.14,-0.06,-0.085,7.1616,-48.9038,7.57071,1009.1
1215140,0.143357,9.79884,0.427606,0.14,-0.27,-0.015,6.84006,-49.3423,8.09688,1009.1
1215146,0.143357,9.79884,0.427606,0.07,-0.13,-0.085,6.51852,-48.2607,6.86916,1009.08
1215152,0.143357,9.79884,0.427606,0.07,-0.06,-0.015,7.13237,-48.9038,7.0884,1009.08
1215158,0.143357,9.79884,0.427606,0.07,-0.13,-0.085,7.33699,-48.5823,8.27226,1009.08
1215164,0.143357,9.79884,0.427606,0,-0.13,-0.015,6.89852,-48.0561,7.51225,1009.08
1215170,0.143357,9.79884,0.427606,0,-0.13,-0.085,7.54161,-48.8746,6.32839,1009.09
1215176,0.143357,9.79884,0.427606,0.14,-0.27,-0.085,6.63544,-48.67,7.07378,1009.09
1215182,0.143357,9.79884,0.427606,0.07,-0.13,-0.085,7.19083,-48.933,6.91301,1009.09
1215188,0.143357,9.79884,0.427606,0,-0.2,0.055,7.2493,-48.6407,7.70225,1009.09
1215194,0.143357,9.79884,0.427606,0.07,-0.2,-0.015,6.89852,-48.6115,7.30763,1009.09
1215200,0.143357,9.79884,0.427606,0.14,-0.27,0.125,7.30776,-48.2023,6.78147,1009.09
1215206,0.143357,9.79884,0.427606,0.14,-0.06,0.055,7.19083,-48.2023,7.86303,1009.09
1215212,0.143357,9.79884,0.427606,0.21,-0.06,0.125,6.89852,-49.2838,7.5561,1009.08
1215218,0.143357,9.79884,0.427606,0.28,-0.06,0.055,6.63544,-48.7284,7.26379,1009.08
1215224,0.143357,9.79884,0.427606,0.21,-0.13,0.055,6.86929,-48.9915,7.83379,1009.1
1215230,0.143357,9.79884,0.427606,0.21,-0.06,0.055,7.01545,-48.7284,6.98609,1009.1
1215236,0.143357,9.79884,0.427606,0.14,-0.13,0.055,6.57698,-48.4653,8.82766,1009.09
1215242,0.143357,9.79884,0.427606,0.21,-0.13,0.125,6.95698,-48.8161,7.23455,1009.09
1215248,0.143357,9.79884,0.427606,0.21,-0.06,0.055,6.86929,-48.6992,6.40146,1009.09
1215254,0.143357,9.79884,0.427606,0.21,-0.06,0.125,7.13237,-48.6407,7.76072,1009.09
1215260,0.138579,9.79408,0.427606,0.21,-0.06,0.125,7.1616,-48.29,6.25531,1009.09
1215266,0.143357,9.79408,0.427606,0.28,-0.06,0.125,6.98622,-48.67,6.86916,1009.08
1215272,0.138579,9.79408,0.427606,0.28,-0.13,0.055,7.60007,-48.3192,7.58533,1009.08
1215278,0.138579,9.79408,0.427606,0.28,-0.13,0.055,6.7816,-48.5823,7.52687,1009.09
1215284,0.143357,9.79408,0.427606,0.28,-0.13,0.055,7.6293,-49.313,7.4684,1009.09
1215290,0.143357,9.79408,0.427606,0.21,0.01,-0.015,7.2493,-48.6115,5.8753,1009.08
1215296,0.143357,9.79408,0.427606,0.35,-0.06,0.125,7.07391,-48.2607,6.37223,1009.08
1215302,0.143357,9.79408,0.427606,0.21,-0.06,-0.015,7.2493,-48.933,7.43917,1009.07
1215308,0.143357,9.79408,0.422856,0.21,-0.06,0.055,7.13237,-48.29,6.85455,1009.07
1215314,0.143357,9.79408,0.422856,0.28,-0.06,0.125,7.54161,-48.8161,7.5561,1009.07
1215320,0.143357,9.79408,0.422856,0.21,-0.13,0.195,6.72313,-47.9392,7.07378,1009.09
1215326,0.143357,9.79408,0.422856,0.14,0.08,-0.015,7.27853,-47.9392,7.7461,1009.09
1215332,0.143357,9.79408,0.422856,0,-0.06,0.125,7.07391,-48.5823,7.20532,1009.04
1215338,0.143357,9.79408,0.422856,0.07,-0.06,0.055,6.60621,-47.8515,6.22608,1009.04
1215344,0.143357,9.79408,0.422856,0.07,-0.06,0.055,7.51238,-48.2315,7.59994,1009.09
1215350,0.143357,9.79884,0.422856,0.07,0.01,-0.015,6.92775,-48.173,8.11149,1009.09
1215356,0.143357,9.79884,0.422856,-0.07,0.01,-0.015,7.04468,-47.8223,7.10301,1009.06
1215362,0.143357,9.79884,0.418106,-0.07,-0.06,0.055,7.22007,-48.2607,6.32839,1009.06
1215368,0.143357,9.79884,0.422856,-0.07,0.01,0.055,7.1616,-48.6992,7.21994,1009.06
1215374,0.143357,9.79884,0.422856,0,-0.06,-0.015,7.1616,-48.2607,7.2784,1009.07
1215380,0.148136,9.79884,0.422856,0.14,-0.06,-0.085,7.6293,-48.8161,7.99457,1009.07
1215386,0.148136,9.79884,0.422856,0.14,-0.06,-0.155,7.30776,-48.173,6.51839,1009.06
1215392,0.148136,9.79884,0.422856,0.14,-0.06,-0.085,6.75237,-48.1438,7.26379,1009.06
1215398,0.148136,9.79884,0.418106,0.07,-0.06,-0.015,7.01545,-48.2607,6.69378,1009.05
1215404,0.148136,9.79884,0.418106,0.07,0.15,0.195,7.27853,-48.2315,7.84841,1009.05
1215410,0.143357,9.79884,0.418106,0.07,-0.06,-0.015,7.33699,-47.7346,7.38071,1009.07
1215416,0.143357,9.79884,0.418106,0,-0.13,-0.015,7.48315,-48.173,9.16381,1009.07
1215422,0.143357,9.79884,0.418106,-0.28,-0.06,-0.085,6.92775,-48.0561,8.2138,1009.08
1215428,0.148136,9.79884,0.418106,-0.28,-0.06,-0.085,7.51238,-47.9976,7.68764,1009.08
1215434,0.143357,9.79884,0.418106,-0.28,-0.06,0.055,7.2493,-48.8746,7.32225,1009.08
1215440,0.143357,9.79884,0.413356,-0.28,-0.06,-0.015,6.63544,-48.7577,6.76685,1009.08
1215446,0.143357,9.79884,0.413356,-0.21,0.08,0.055,7.36622,-48.1146,7.16148,1009.08
1215452,0.143357,9.79884,0.413356,-0.35,-0.06,0.055,6.86929,-48.4069,6.83993,1009.07
1215458,0.143357,9.79884,0.413356,-0.21,-0.2,0.125,6.54775,-47.9392,6.45993,1009.07
1215464,0.143357,9.79884,0.413356,0,0.01,-0.155,7.30776,-48.3484,6.76685,1009.09
1215470,0.143357,9.79884,0.413356,0,-0.13,0.055,8.21393,-48.8161,7.84841,1009.09
1215476,0.143357,9.79884,0.413356,0.07,-0.06,0.195,7.2493,-48.2315,7.40994,1009.1
1215482,0.143357,9.79884,0.413356,0.07,-0.06,0.125,6.34313,-48.4946,8.66688,1009.1
1215488,0.143357,9.79884,0.413356,0.14,-0.06,0.125,7.83392,-48.3192,6.6207,1009.1
1215494,0.143357,9.79884,0.413356,0.21,-0.06,-0.015,5.93389,-48.7284,6.92763,1009.08
1215500,0.143357,9.79884,0.413356,0.21,-0.06,-0.015,6.48929,-49.0792,7.32225,1009.08
1215506,0.143357,9.79884,0.413356,0.07,-0.06,0.055,6.3139,-49.2546,5.12991,1009.05
1215512,0.143357,9.79884,0.413356,0.07,-0.13,0.055,6.95698,-47.8223,6.31377,1009.05
1215518,0.143357,9.79884,0.413356,0.07,-0.13,0.055,6.81083,-48.2315,7.23455,1009.07
1215524,0.143357,9.79884,0.413356,0.14,0.01,0.125,7.51238,-48.173,7.58533,1009.07
1215530,0.143357,9.79884,0.413356,0,0.01,0.125,7.48315,-47.4422,6.91301,1009.05
1215536,0.143357,9.79884,0.413356,0,-0.06,0.195,7.717,-48.3192,6.70839,1009.05
1215542,0.143357,9.80361,0.413356,0.07,-0.13,0.125,7.51238,-48.3192,7.13225,1009.07
1215548,0.143357,9.79884,0.413356,0.07,-0.06,0.125,7.48315,-48.7577,6.92763,1009.07
1215554,0.143357,9.80361,0.413356,0.07,-0.13,0.125,7.01545,-48.2315,8.24303,1009.07
1215560,0.143357,9.80361,0.413356,0.07,-0.06,0.125,6.66467,-47.8515,7.4684,1009.1
1215566,0.143357,9.80361,0.413356,0,0.01,0.265,6.84006,-48.0269,6.54762,1009.1
1215572,0.143357,9.80361,0.413356,0,-0.06,0.125,7.33699,-48.4946,7.13225,1009.08
1215578,0.143357,9.80361,0.413356,-0.07,-0.06,0.195,7.42468,-48.2315,7.26379,1009.08
1215584,0.143357,9.80361,0.413356,-0.14,-0.13,0.125,6.81083,-48.4361,6.69378,1009.09
1215590,0.143357,9.80361,0.413356,-0.21,-0.06,0.195,7.57084,-49.0792,7.64379,1009.09
1215596,0.143357,9.80361,0.413356,-0.21,0.01,0.195,6.60621,-48.3192,6.51839,1009.06
1215602,0.143357,9.79884,0.408606,-0.21,0.08,0.195,6.81083,-48.4361,7.29302,1009.06
1215608,0.143357,9.79884,0.408606,-0.21,0.08,-0.015,7.19083,-47.8223,7.02994,1009.06
1215614,0.143357,9.79884,0.408606,-0.14,-0.06,0.125,6.3139,-48.7577,8.19918,1009.06
1215620,0.148136,9.79884,0.408606,-0.21,0.01,0.195,6.6939,-48.3484,6.79609,1009.06
1215626,0.148136,9.79884,0.408606,0,-0.06,0.265,7.07391,-49.1961,6.29916,1009.09
1215632,0.148136,9.79884,0.408606,-0.14,0.01,0.265,6.95698,-48.4361,7.04455,1009.09
1215638,0.148136,9.79884,0.408606,0,-0.13,0.265,6.43082,-47.793,6.60608,1009.08
1215644,0.148136,9.79884,0.408606,0,-0.06,0.195,6.66467,-48.7869,6.24069,1009.08
1215650,0.148136,9.79884,0.408606,-0.07,0.01,0.195,6.37236,-48.9623,6.40146,1009.09
1215656,0.148136,9.79884,0.408606,0.07,0.01,0.125,6.6939,-48.1146,6.56224,1009.09
1215662,0.148136,9.79884,0.408606,-0.07,0.01,0.125,7.57084,-48.6115,6.25531,1009.09
1215668,0.143357,9.79884,0.408606,0,-0.06,0.125,7.68776,-47.5884,5.93376,1009.08
1215674,0.148136,9.79884,0.408606,0,-0.06,0.055,6.92775,-48.1146,6.8107,1009.08
1215680,0.148136,9.79884,0.408606,0,0.01,0.125,6.54775,-47.9684,6.533,1009.07
1215686,0.148136,9.79884,0.408606,-0.07,-0.06,0.195,6.6939,-47.9976,6.19685,1009.07
1215692,0.148136,9.79884,0.408606,0,0.01,0.195,7.2493,-47.8807,5.61222,1009.06
1215698,0.148136,9.79884,0.408606,0.07,-0.13,0.125,6.72313,-48.1146,6.343,1009.06
1215704,0.143357,9.79884,0.408606,0,-0.13,0.265,7.48315,-48.0853,5.86069,1009.08
1215710,0.143357,9.79884,0.408606,0,-0.13,0.125,7.10314,-47.5884,6.6207,1009.08
1215716,0.148136,9.79884,0.408606,0.07,-0.06,0.055,6.63544,-47.7053,7.96533,1009.06
1215722,0.148136,9.79884,0.413356,0.14,-0.06,0.055,6.84006,-47.7346,6.86916,1009.06
1215728,0.148136,9.79884,0.413356,0.21,-0.06,0.125,7.07391,-47.6469,7.52687,1009.06
1215734,0.148136,9.79884,0.413356,0.07,-0.06,0.055,7.07391,-47.793,8.34534,1009.1
1215740,0.148136,9.79884,0.413356,0.07,-0.06,0.125,6.95698,-47.5299,7.33686,1009.1
1215746,0.148136,9.79884,0.413356,0.07,-0.13,0.125,6.60621,-48.4946,6.31377,1009.07
1215752,0.148136,9.79884,0.413356,0.14,-0.13,0.055,6.57698,-48.3192,7.26379,1009.07
1215758,0.148136,9.79408,0.413356,0.21,-0.06,0.055,6.48929,-47.5299,7.80456,1009.07
1215764,0.148136,9.79884,0.413356,0,-0.06,-0.015,6.63544,-47.8223,8.8715,1009.07
1215770,0.148136,9.79884,0.413356,-0.07,-0.06,0.055,7.717,-48.2607,6.07992,1009.05
1215776,0.152914,9.79884,0.408606,0,-0.06,0.055,7.10314,-48.9915,7.5561,1009.05
1215782,0.148136,9.79884,0.408606,0,-0.06,-0.015,6.7816,-48.1438,7.89226,1009.05
1215788,0.152914,9.79884,0.413356,-0.07,0.01,-0.085,6.66467,-48.4653,7.64379,1009.05
1215794,0.152914,9.79884,0.413356,-0.07,-0.06,-0.015,6.86929,-47.1499,7.13225,1009.05
1215800,0.152914,9.79884,0.413356,0,-0.06,-0.015,7.2493,-48.1438,7.86303,1009.08
1215806,0.152914,9.79884,0.408606,-0.07,-0.06,-0.085,6.60621,-47.5007,8.41842,1009.08
1215812,0.152914,9.79884,0.408606,-0.21,0.01,-0.155,7.04468,-47.7638,7.78995,1009.1
1215818,0.152914,9.79884,0.408606,-0.14,-0.27,-0.085,6.75237,-48.1146,6.18223,1009.1
1215824,0.152914,9.79884,0.408606,-0.28,-0.13,-0.155,6.81083,-48.2315,7.83379,1009.06
1215830,0.152914,9.79884,0.408606,-0.07,-0.13,-0.225,7.13237,-47.6761,7.64379,1009.06
1215836,0.152914,9.79884,0.408606,-0.14,-0.13,-0.225,6.86929,-48.8161,8.06764,1009.06
1215842,0.152914,9.79884,0.408606,-0.21,-0.13,-0.225,6.89852,-47.9392,7.04455,1009.11
1215848,0.152914,9.79884,0.408606,-0.21,-0.06,-0.225,6.84006,-47.9684,8.15534,1009.11
1215854,0.152914,9.79884,0.408606,-0.28,-0.13,-0.155,7.10314,-47.9392,7.70225,1009.03
1215860,0.152914,9.79884,0.408606,-0.49,-0.06,-0.085,6.34313,-48.6992,8.34534,1009.03
1215866,0.152914,9.79884,0.408606,-0.63,0.15,-0.085,6.57698,-48.1438,8.47688,1009.09
1215872,0.152914,9.79884,0.408606,-0.49,0.01,-0.225,7.54161,-47.5299,6.70839,1009.09
1215878,0.152914,9.79884,0.408606,-0.35,0.01,-0.085,6.75237,-47.9392,6.76685,1009.05
1215884,0.152914,9.79884,0.408606,-0.49,-0.13,-0.225,6.7816,-47.4422,7.36609,1009.05
1215890,0.152914,9.79884,0.408606,-0.56,0.08,-0.225,7.22007,-48.4361,7.14686,1009.07
1215896,0.152914,9.79884,0.408606,-0.63,-0.06,-0.155,6.16774,-48.173,7.76072,1009.07
1215902,0.157693,9.79884,0.408606,-0.49,0.01,-0.225,7.10314,-48.8161,7.29302,1009.07
1215908,0.157693,9.79884,0.408606,-0.35,-0.06,-0.155,6.92775,-48.4069,7.36609,1009.09
1215914,0.157693,9.79884,0.408606,-0.28,-0.06,-0.505,6.95698,-48.0269,7.45379,1009.09
1215920,0.157693,9.79884,0.408606,-0.28,-0.06,-0.085,6.81083,-48.0269,7.67302,1009.05
1215926,0.157693,9.79884,0.408606,-0.28,-0.06,-0.155,7.48315,-48.3776,7.19071,1009.05
1215932,0.152914,9.79408,0.408606,-0.35,-0.13,-0.155,7.01545,-48.4361,7.70225,1009.06
1215938,0.152914,9.79408,0.408606,-0.35,-0.13,-0.225,6.92775,-48.9623,8.24303,1009.06
1215944,0.157693,9.79408,0.408606,-0.35,0.08,-0.155,7.10314,-48.2023,7.24917,1009.09
1215950,0.157693,9.79408,0.408606,-0.42,0.08,-0.155,7.27853,-47.8223,6.26992,1009.09
1215956,0.157693,9.79408,0.408606,-0.35,0.01,-0.225,6.92775,-48.4361,7.30763,1009.09
1215962,0.157693,9.79408,0.408606,-0.42,0.01,-0.225,7.68776,-48.6407,8.33072,1009.05
1215968,0.157693,9.79408,0.408606,-0.35,0.08,-0.225,7.30776,-48.4361,7.7461,1009.05
1215974,0.157693,9.79408,0.408606,-0.21,0.01,-0.155,6.98622,-49.05,7.13225,1009.07
1215980,0.152914,9.79408,0.413356,-0.07,-0.06,-0.085,7.04468,-48.4653,8.69612,1009.07
1215986,0.152914,9.79408,0.413356,-0.21,0.01,-0.085,6.57698,-48.4361,7.07378,1009.07
1215992,0.152914,9.79408,0.413356,-0.14,-0.06,-0.155,7.33699,-48.2607,7.29302,1009.07
1215998,0.152914,9.79408,0.413356,-0.14,0.01,-0.155,7.07391,-48.3484,8.0238,1009.08
1216004,0.152914,9.79408,0.413356,-0.07,0.01,-0.085,7.89238,-47.7346,7.23455,1009.08
1216010,0.152914,9.79408,0.413356,-0.14,0.01,-0.155,6.6939,-47.8515,6.56224,1009.11
1216016,0.152914,9.79408,0.413356,-0.21,0.08,0.125,7.48315,-48.2607,7.49764,1009.11
1216022,0.152914,9.79408,0.413356,-0.21,-0.06,0.055,7.04468,-48.4653,7.14686,1009.11
1216028,0.152914,9.78932,0.413356,-0.28,-0.06,-0.015,7.13237,-48.6407,7.32225,1009.06
1216034,0.152914,9.78932,0.413356,-0.21,0.01,-0.085,7.6293,-48.8746,7.52687,1009.06
1216040,0.152914,9.78932,0.413356,-0.14,-0.13,-0.085,6.72313,-48.4361,6.60608,1009.09
1216046,0.152914,9.78932,0.413356,-0.14,0.01,-0.155,7.68776,-48.553,7.71687,1009.09
1216052,0.152914,9.78932,0.413356,-0.07,0.01,-0.085,7.39545,-48.6407,7.4684,1009.09
1216058,0.152914,9.78932,0.413356,-0.14,0.01,0.055,7.10314,-48.4946,7.65841,1009.09
1216064,0.152914,9.78932,0.413356,-0.14,0.01,0.055,6.92775,-48.933,7.61456,1009.06
1216070,0.152914,9.78932,0.413356,-0.14,-0.13,-0.085,7.30776,-48.4361,7.0007,1009.06
1216076,0.152914,9.78932,0.413356,-0.07,-0.06,-0.085,7.1616,-48.67,7.97995,1009.06
1216082,0.152914,9.78932,0.413356,0,0.01,-0.085,6.95698,-48.4653,7.5561,1009.06
1216088,0.152914,9.78932,0.418106,0,-0.06,-0.085,6.89852,-48.67,8.11149,1009.06
1216094,0.152914,9.79408,0.418106,0,-0.06,-0.085,7.42468,-48.4069,7.42456,1009.05
1216100,0.152914,9.79408,0.418106,0,-0.06,-0.155,7.45392,-47.6176,7.13225,1009.05
1216106,0.152914,9.79408,0.418106,-0.07,-0.06,-0.085,7.68776,-47.9392,6.40146,1009.08
1216112,0.152914,9.79408,0.418106,-0.07,-0.06,-0.085,7.74623,-47.8807,6.97147,1009.08
1216118,0.152914,9.79408,0.418106,-0.07,-0.06,-0.085,7.717,-48.2023,7.0007,1009.1
1216124,0.152914,9.78932,0.418106,-0.14,0.08,-0.155,7.45392,-48.7284,7.86303,1009.1
1216130,0.152914,9.79408,0.418106,-0.14,-0.06,-0.085,6.86929,-48.67,7.21994,1009.1
1216136,0.152914,9.79408,0.418106,-0.14,0.01,-0.085,7.92161,-47.3546,8.08226,1009.05
1216142,0.152914,9.79408,0.418106,-0.14,-0.13,-0.085,7.04468,-47.793,5.81684,1009.05
1216148,0.152914,9.79408,0.418106,-0.07,0.01,-0.155,7.33699,-47.6176,8.00918,1009.05
1216154,0.152914,9.79408,0.418106,-0.07,-0.06,-0.085,7.36622,-47.7638,7.21994,1009.05
1216160,0.152914,9.79408,0.422856,-0.07,-0.13,-0.085,7.13237,-47.6761,7.19071,1009.09
1216166,0.152914,9.79408,0.422856,-0.07,-0.06,-0.155,7.39545,-47.9684,7.76072,1009.09
1216172,0.152914,9.79408,0.422856,0,0.01,-0.155,7.22007,-47.9976,7.04455,1009.08
1216178,0.152914,9.79408,0.422856,-0.07,-0.13,-0.155,6.2262,-48.5823,7.30763,1009.08
1216184,0.157693,9.79408,0.422856,-0.14,0.01,-0.225,7.13237,-48.9623,6.67916,1009.05
1216190,0.157693,9.79408,0.422856,-0.07,0.01,-0.155,7.92161,-48.4069,6.83993,1009.05
1216196,0.157693,9.79408,0.422856,-0.14,0.08,-0.155,6.7816,-48.29,7.76072,1009.05
1216202,0.157693,9.79408,0.422856,-0.14,0.01,-0.225,6.75237,-48.3484,7.7461,1009.09
1216208,0.157693,9.78932,0.422856,-0.21,-0.06,-0.225,7.39545,-47.9684,8.2138,1009.09
1216214,0.157693,9.78932,0.422856,-0.21,-0.06,-0.295,7.92161,-48.2607,7.48302,1009.06
1216220,0.157693,9.79408,0.422856,-0.07,-0.2,-0.435,6.2262,-48.29,8.14072,1009.06
1216226,0.157693,9.79408,0.422856,-0.07,-0.13,-0.225,6.63544,-47.5884,8.2138,1009.04
1216232,0.157693,9.79408,0.422856,-0.07,0.01,-0.155,7.39545,-48.1146,8.03841,1009.04
1216238,0.157693,9.79408,0.422856,-0.14,-0.06,-0.225,6.3139,-47.9099,8.65227,1009.11
1216244,0.157693,9.79408,0.422856,0,-0.06,-0.295,7.19083,-48.2023,7.39533,1009.11
1216250,0.152914,9.79408,0.422856,-0.07,0.01,-0.365,7.19083,-47.9976,7.86303,1009.11
1216256,0.152914,9.79408,0.422856,0,0.01,-0.365,7.45392,-47.9099,8.05303,1009.06
1216262,0.152914,9.79408,0.422856,0,0.01,-0.365,7.39545,-48.6115,8.0238,1009.06
1216268,0.152914,9.79408,0.422856,-0.21,-0.06,-0.505,6.92775,-47.2669,7.73148,1009.04
1216274,0.152914,9.79408,0.422856,-0.28,0.08,-0.505,7.42468,-48.933,7.76072,1009.04
1216280,0.152914,9.79408,0.422856,-0.28,0.01,-0.575,6.48929,-48.3776,7.4684,1009.07
1216286,0.152914,9.79408,0.422856,-0.14,-0.13,-0.435,7.77546,-48.0561,7.80456,1009.07
1216292,0.152914,9.79408,0.422856,-0.07,-0.06,-0.505,7.04468,-48.5823,8.63765,1009.02
1216298,0.152914,9.79408,0.422856,-0.14,-0.06,-0.505,7.39545,-48.8161,7.64379,1009.02
1216304,0.152914,9.79408,0.422856,-0.07,-0.13,-0.575,7.07391,-48.4653,8.11149,1009.02
1216310,0.152914,9.79408,0.422856,-0.14,-0.06,-0.645,7.42468,-48.9623,7.17609,1009.07
1216316,0.152914,9.79408,0.422856,-0.28,-0.13,-0.505,6.66467,-48.1146,6.72301,1009.07
1216322,0.152914,9.79408,0.422856,-0.28,-0.2,-0.575,6.57698,-49.05,7.24917,1009.05
1216328,0.152914,9.79408,0.422856,-0.35,0.22,-0.645,7.45392,-48.4653,8.03841,1009.05
1216334,0.152914,9.79408,0.422856,-0.28,0.15,-0.645,7.2493,-48.8746,7.58533,1009.07
1216340,0.152914,9.79408,0.422856,-0.42,0.01,-0.715,7.07391,-48.1146,7.33686,1009.07
1216346,0.152914,9.79408,0.422856,-0.35,-0.06,-0.645,7.36622,-47.7053,8.03841,1009.07
1216352,0.152914,9.79408,0.422856,-0.42,0.01,-0.715,7.57084,-48.2607,7.61456,1009.07
1216358,0.152914,9.79408,0.422856,-0.35,0.01,-0.785,7.27853,-48.4946,8.14072,1009.09
1216364,0.152914,9.79408,0.422856,-0.42,0.08,-0.715,6.57698,-47.5592,7.90687,1009.09
1216370,0.152914,9.79408,0.422856,-0.28,-0.13,-0.715,6.66467,-48.3484,6.70839,1009.09
1216376,0.152914,9.79408,0.427606,-0.35,0.01,-0.645,7.27853,-48.9038,7.95072,1009.09
1216382,0.152914,9.79408,0.422856,-0.21,-0.13,-0.715,7.36622,-47.7638,7.38071,1009.09
1216388,0.152914,9.79884,0.422856,-0.42,-0.06,-0.715,7.10314,-47.9099,7.21994,1009.13
1216394,0.152914,9.79884,0.427606,-0.35,0.08,-0.645,7.33699,-47.7053,6.82532,1009.13
1216400,0.148136,9.79884,0.427606,-0.49,0.08,-0.575,7.68776,-47.2376,8.4915,1009.07
1216406,0.148136,9.79884,0.427606,-0.56,0.22,-0.645,7.22007,-47.6761,6.95686,1009.07
1216412,0.148136,9.79884,0.427606,-0.35,0.01,-0.645,6.95698,-48.4069,8.05303,1009.07
1216418,0.148136,9.79884,0.427606,-0.49,0.15,-0.645,7.77546,-48.4946,8.14072,1009.07
1216424,0.148136,9.79884,0.427606,-0.49,0.22,-0.505,6.51852,-49.1084,6.343,1009.07
1216430,0.148136,9.79884,0.427606,-0.21,0.01,-0.575,7.51238,-47.8515,7.58533,1009.05
1216436,0.148136,9.79884,0.427606,-0.49,0.08,-0.435,7.6293,-48.3192,6.91301,1009.05
1216442,0.148136,9.79884,0.432356,-0.35,0.01,-0.365,7.717,-47.3253,7.77533,1009.06
1216448,0.148136,9.79884,0.432356,-0.28,0.01,-0.295,7.30776,-48.4946,7.19071,1009.06
1216454,0.148136,9.79408,0.432356,-0.21,0.01,-0.295,7.33699,-48.5823,8.34534,1009.06
1216460,0.143357,9.79408,0.432356,-0.28,-0.06,-0.295,6.89852,-47.7638,7.24917,1009.06
1216466,0.143357,9.79884,0.432356,-0.21,-0.06,-0.225,7.48315,-48.4653,8.88612,1009.05
1216472,0.148136,9.80361,0.427606,-0.28,0.15,-0.015,7.22007,-48.4653,8.37457,1009.05
1216478,0.143357,9.79408,0.432356,-0.98,-0.13,-0.085,7.39545,-48.3192,8.4038,1009.07
1216484,0.148136,9.78932,0.437106,0.28,-0.06,-0.155,7.51238,-49.0792,8.18457,1009.07
1216490,0.143357,9.78932,0.437106,0.07,0.64,-0.085,7.04468,-48.2023,7.26379,1009.07
1216496,0.143357,9.78932,0.437106,-0.21,-0.41,-0.015,7.48315,-47.7638,8.81304,1009.08
1216502,0.143357,9.78932,0.437106,0,0.22,0.125,7.51238,-47.793,7.51225,1009.08
1216508,0.143357,9.78932,0.437106,0.07,0.08,0.195,7.86315,-48.5823,7.26379,1009.08
1216514,0.143357,9.78932,0.441856,-0.07,-0.27,0.195,6.7816,-48.2315,9.26612,1009.08
1216520,0.143357,9.78932,0.441856,0.07,0.22,0.195,7.54161,-48.4653,8.25765,1009.09
1216526,0.143357,9.78932,0.441856,0.07,-0.06,0.125,6.57698,-48.67,6.66455,1009.09
1216532,0.143357,9.78932,0.441856,-0.07,-0.06,0.125,7.60007,-48.5238,7.20532,1009.07
1216538,0.143357,9.78932,0.441856,0.14,0.01,0.195,7.65853,-48.1438,8.09688,1009.07
1216544,0.143357,9.78932,0.437106,0.07,-0.13,0.195,7.42468,-47.8807,7.99457,1009.07
1216550,0.143357,9.78932,0.437106,0,0.01,0.265,8.097,-47.6469,7.49764,1009.06
1216556,0.143357,9.78932,0.441856,0,0.01,0.195,7.2493,-47.9976,7.36609,1009.06
1216562,0.138579,9.78932,0.441856,0.14,0.01,0.195,7.92161,-47.8515,8.05303,1009.06
1216568,0.138579,9.78932,0.437106,0,-0.13,0.195,7.89238,-48.1438,6.64993,1009.06
1216574,0.138579,9.78932,0.437106,0.07,0.08,0.265,7.86315,-48.6115,8.9592,1009.06
1216580,0.138579,9.78932,0.441856,0.14,0.01,0.265,7.45392,-47.8223,8.35996,1009.06
1216586,0.143357,9.78932,0.437106,0,0.01,0.335,7.89238,-47.7346,7.59994,1009.08
1216592,0.143357,9.78932,0.437106,0,-0.06,0.335,7.68776,-48.7869,8.71073,1009.08
1216598,0.143357,9.78932,0.437106,0.14,0.01,0.265,7.80469,-48.4946,7.32225,1009.08
1216604,0.143357,9.78932,0.441856,0.14,0.01,0.195,7.39545,-48.1146,6.75224,1009.09
1216610,0.143357,9.78932,0.437106,0.14,-0.06,0.195,7.74623,-48.4653,7.04455,1009.09
1216616,0.138579,9.78932,0.437106,0,0.01,0.335,8.15546,-47.7346,6.94224,1009.06
1216622,0.138579,9.78932,0.437106,0,0.08,0.195,7.68776,-48.173,7.11763,1009.06
1216628,0.138579,9.78932,0.437106,0.07,0.01,0.265,7.83392,-48.2023,7.17609,1009.08
1216634,0.138579,9.78932,0.437106,0.07,0.01,0.125,7.98008,-47.7638,6.64993,1009.08
1216640,0.138579,9.78932,0.441856,0,-0.06,0.335,6.92775,-48.173,7.5561,1009.05
1216646,0.138579,9.78932,0.441856,0.07,0.08,0.265,7.68776,-48.173,5.963,1009.05
1216652,0.138579,9.78932,0.441856,0.07,-0.06,0.195,8.59393,-48.3192,7.01532,1009.05
1216658,0.138579,9.78932,0.441856,0.07,0.08,0.335,6.84006,-47.9099,7.04455,1009.05
1216664,0.138579,9.78932,0.441856,0.07,-0.13,0.265,7.45392,-47.6469,6.76685,1009.05
1216670,0.138579,9.78932,0.441856,0.07,-0.13,0.195,7.65853,-47.7638,6.78147,1009.1
1216676,0.138579,9.78932,0.441856,0.28,-0.13,0.265,7.27853,-47.6761,7.5561,1009.1
1216682,0.138579,9.78932,0.441856,0.35,-0.13,0.265,7.2493,-47.7638,6.98609,1009.08
1216688,0.138579,9.78932,0.441856,0.28,-0.2,0.335,7.65853,-47.6761,7.23455,1009.08
1216694,0.138579,9.78932,0.441856,0.28,-0.2,0.335,7.22007,-48.173,6.64993,1009.09
1216700,0.138579,9.78932,0.441856,0.28,-0.06,0.265,7.13237,-48.7577,7.97995,1009.09
1216706,0.138579,9.79408,0.441856,0.28,-0.13,0.265,7.54161,-48.29,7.54148,1009.06
1216712,0.138579,9.79408,0.441856,0.28,-0.06,0.335,8.30162,-47.6469,7.43917,1009.06
1216718,0.143357,9.79408,0.437106,0.14,0.01,0.405,6.92775,-48.3192,7.33686,1009.06
1216724,0.143357,9.79408,0.441856,0.21,0.01,0.335,7.57084,-47.9392,8.00918,1009.09
1216730,0.143357,9.79408,0.441856,0.21,-0.06,0.405,7.92161,-48.0853,8.60842,1009.09
1216736,0.143357,9.79408,0.441856,0.14,0.08,0.475,7.95085,-47.7346,7.14686,1009.06
1216742,0.143357,9.79408,0.441856,0.07,0.01,0.405,7.27853,-47.5884,8.25765,1009.06
1216748,0.143357,9.79408,0.441856,0.21,-0.06,0.335,7.48315,-48.0269,8.11149,1009.07
1216754,0.143357,9.79408,0.441856,0.07,0.01,0.475,7.33699,-48.29,7.83379,1009.07
1216760,0.143357,9.79408,0.441856,0.07,-0.06,0.405,7.42468,-48.553,7.78995,1009.08
1216766,0.143357,9.79408,0.441856,0.14,-0.06,0.405,7.30776,-48.2023,7.01532,1009.08
1216772,0.143357,9.79408,0.441856,0.14,0.01,0.335,7.10314,-48.3484,8.14072,1009.08
1216778,0.143357,9.79408,0.441856,0.14,0.01,0.475,7.04468,-47.9099,7.21994,1009.08
1216784,0.143357,9.79408,0.441856,0.21,0.01,0.335,6.72313,-48.2607,5.26145,1009.08
1216790,0.143357,9.79408,0.441856,0.21,-0.13,0.265,7.19083,-48.2023,6.86916,1009.08
1216796,0.143357,9.79884,0.441856,0.07,-0.13,0.405,6.60621,-47.7346,7.65841,1009.08
1216802,0.143357,9.79884,0.441856,0.21,-0.06,0.335,6.81083,-48.2023,7.64379,1009.06
1216808,0.143357,9.79884,0.441856,0.21,-0.13,0.335,7.42468,-48.2607,7.78995,1009.06
1216814,0.143357,9.79884,0.441856,0.35,-0.2,0.405,6.84006,-48.4069,7.07378,1009.03
1216820,0.143357,9.79884,0.441856,0.07,0.01,0.475,6.28467,-48.3776,7.01532,1009.03
1216826,0.143357,9.79884,0.441856,0.14,-0.27,0.405,7.51238,-48.933,6.86916,1009.05
1216832,0.143357,9.79408,0.441856,0.42,-0.55,0.195,7.80469,-48.8161,7.24917,1009.05
1216838,0.143357,9.79408,0.441856,0.56,-0.55,0.405,8.06777,-47.9392,8.0238,1009.05
1216844,0.143357,9.79884,0.441856,-0.21,0.15,0.265,7.30776,-48.29,8.60842,1009.09
1216850,0.143357,9.79884,0.441856,0,-0.2,0.195,6.81083,-48.173,9.00304,1009.09
1216856,0.143357,9.79408,0.441856,0.07,-0.06,0.195,6.89852,-47.8223,7.14686,1009.09
1216862,0.143357,9.79408,0.441856,0.07,0.08,0.335,6.6939,-48.7577,7.17609,1009.09
1216868,0.143357,9.79408,0.441856,0,-0.06,0.265,6.75237,-48.7284,7.57071,1009.06
1216874,0.143357,9.79408,0.441856,0.14,0.01,0.265,7.57084,-47.6761,8.16995,1009.06
1216880,0.143357,9.79408,0.441856,0.14,0.08,0.195,6.84006,-47.5884,7.68764,1009.08
1216886,0.143357,9.79408,0.441856,0.07,-0.13,0.265,6.72313,-48.1438,6.26992,1009.08
1216892,0.143357,9.79884,0.441856,0.14,0.01,0.055,7.19083,-48.8161,7.36609,1009.08
1216898,0.143357,9.79884,0.441856,0.14,-0.06,0.125,7.89238,-47.6761,8.71073,1009.08
1216904,0.143357,9.79884,0.441856,0.07,-0.13,0.125,7.74623,-48.933,7.68764,1009.08
1216910,0.143357,9.79408,0.441856,-0.07,-0.06,0.265,7.68776,-48.29,7.81918,1009.08
1216916,0.143357,9.79884,0.437106,0,0.01,0.195,7.27853,-47.8515,7.45379,1009.08
1216922,0.148136,9.79884,0.437106,0,0.01,0.055,7.1616,-47.8807,6.92763,1009.08
1216928,0.148136,9.79884,0.437106,-0.07,-0.06,0.125,7.33699,-47.6761,8.0238,1009.08
1216934,0.148136,9.79884,0.437106,0.07,0.01,0.195,7.74623,-48.5238,7.68764,1009.07
1216940,0.148136,9.79884,0.437106,0,0.01,0.125,6.72313,-48.6407,6.07992,1009.07
1216946,0.148136,9.79884,0.437106,0,0.08,0.125,8.50624,-48.2315,6.91301,1009.05
1216952,0.148136,9.79884,0.437106,0.07,-0.06,0.125,7.65853,-47.8515,6.88378,1009.05
1216958,0.148136,9.79884,0.437106,0.14,0.01,0.125,7.54161,-47.793,7.73148,1009.05
1216964,0.148136,9.79884,0.437106,0.07,-0.13,0.055,7.22007,-48.2315,7.87764,1009.05
1216970,0.148136,9.79884,0.437106,0.07,-0.13,0.055,7.1616,-48.1146,8.30149,1009.05
1216976,0.148136,9.79884,0.441856,0.14,0.01,-0.085,7.33699,-47.5884,7.42456,1009.03
1216982,0.148136,9.79884,0.441856,0.28,-0.06,0.125,7.33699,-47.5884,7.58533,1009.03
1216988,0.148136,9.79884,0.441856,0.28,-0.13,-0.015,7.2493,-47.2376,8.44765,1009.08
1216994,0.148136,9.79884,0.441856,0.21,-0.06,-0.015,7.74623,-47.9684,6.97147,1009.08
1217000,0.148136,9.79884,0.441856,0.14,-0.13,-0.015,7.07391,-47.6761,7.70225,1009.06
1217006,0.148136,9.79884,0.441856,0.14,-0.13,0.055,7.6293,-47.9684,7.52687,1009.06
1217012,0.148136,9.79884,0.441856,0.07,-0.06,0.055,7.39545,-48.67,7.14686,1009.06
1217018,0.148136,9.79884,0.441856,0.14,-0.13,-0.015,7.04468,-48.173,7.33686,1009.08
1217024,0.148136,9.79884,0.441856,0.07,-0.13,-0.015,6.51852,-48.5823,7.70225,1009.08
1217030,0.148136,9.79884,0.441856,0,-0.06,-0.085,7.57084,-48.1146,6.59147,1009.04
1217036,0.148136,9.79884,0.441856,0.07,-0.13,-0.015,7.22007,-47.793,7.70225,1009.04
1217042,0.148136,9.79884,0.441856,0,-0.13,-0.295,7.48315,-48.4361,6.73762,1009.08
1217048,0.148136,9.79884,0.437106,0.07,-0.06,-0.015,7.86315,-47.5007,7.57071,1009.08
1217054,0.148136,9.79884,0.437106,-0.14,0.08,-0.085,7.77546,-47.9392,8.00918,1009.1
1217060,0.148136,9.79884,0.437106,-0.07,0.08,0.055,7.36622,-47.793,7.45379,1009.1
1217066,0.148136,9.79408,0.437106,-0.07,0.01,0.055,7.68776,-47.793,6.35762,1009.1
1217072,0.152914,9.79408,0.437106,0,-0.13,0.055,8.24316,-47.4422,7.51225,1009.07
1217078,0.152914,9.79408,0.437106,-0.07,0.01,-0.015,7.42468,-48.3192,7.13225,1009.07
1217084,0.152914,9.79408,0.441856,0,0.08,-0.015,7.22007,-47.6176,7.4684,1009.06
1217090,0.152914,9.79408,0.441856,0,-0.13,0.055,6.86929,-47.9392,7.64379,1009.06
1217096,0.152914,9.79408,0.441856,-0.07,0.08,-0.015,7.13237,-47.9099,7.71687,1009.08
1217102,0.152914,9.79408,0.441856,0,-0.06,-0.015,7.6293,-47.8515,7.57071,1009.08
1217108,0.152914,9.79884,0.437106,0,-0.06,-0.015,7.33699,-47.6761,6.45993,1009.09
1217114,0.152914,9.79884,0.437106,0,0.01,0.055,7.80469,-47.9976,6.41608,1009.09
1217120,0.152914,9.79884,0.437106,0,0.01,0.055,7.10314,-48.4069,7.39533,1009.07
1217126,0.152914,9.79884,0.441856,0,-0.13,0.055,8.21393,-47.2961,7.57071,1009.07
1217132,0.152914,9.79884,0.441856,0.07,-0.06,-0.015,7.33699,-48.173,7.58533,1009.07
1217138,0.152914,9.79884,0.441856,0.07,0.08,-0.015,7.80469,-48.0561,8.4915,1009.04
1217144,0.152914,9.79884,0.441856,0.07,-0.06,0.265,7.22007,-48.4946,6.83993,1009.04
1217150,0.152914,9.79884,0.441856,0.07,-0.06,0.055,7.65853,-48.0561,7.83379,1009.07
1217156,0.152914,9.79884,0.441856,0.14,-0.06,-0.015,7.01545,-48.2607,7.51225,1009.07
1217162,0.152914,9.79884,0.441856,0.07,0.01,0.055,8.12623,-48.5823,6.97147,1009.09
1217168,0.152914,9.79884,0.441856,0.14,-0.2,-0.015,7.60007,-47.9684,8.56458,1009.09
1217174,0.152914,9.79884,0.441856,0.07,-0.06,0.125,7.6293,-47.9684,7.35148,1009.11
1217180,0.152914,9.79884,0.441856,0,0.01,0.055,6.7816,-48.2607,8.27226,1009.11
1217186,0.152914,9.79884,0.441856,-0.07,0.01,0.125,7.80469,-48.173,7.0007,1009.11
1217192,0.152914,9.79884,0.437106,0.07,0.01,0.055,6.95698,-48.6115,7.5561,1009.09
1217198,0.152914,9.79884,0.441856,0,-0.2,-0.015,6.86929,-48.3192,9.38305,1009.09
1217204,0.152914,9.79884,0.441856,0,-0.06,-0.015,7.22007,-48.3776,8.75458,1009.06
1217210,0.152914,9.79884,0.437106,-0.07,-0.06,0.055,7.01545,-48.4361,8.54996,1009.06
1217216,0.152914,9.79884,0.437106,0.14,-0.13,0.055,7.42468,-47.9099,8.2138,1009.11
1217222,0.152914,9.79884,0.441856,0.07,-0.06,-0.015,7.48315,-47.8223,7.21994,1009.11
1217228,0.152914,9.80361,0.441856,-0.14,0.01,-0.085,6.63544,-48.5238,7.9361,1009.07
1217234,0.152914,9.79884,0.441856,-0.14,0.01,0.055,7.36622,-47.7638,9.09074,1009.07
1217240,0.152914,9.79884,0.441856,0,-0.06,0.055,7.717,-47.5884,8.30149,1009.07
1217246,0.152914,9.79884,0.441856,0.07,-0.2,0.055,7.19083,-47.5884,8.57919,1009.07
1217252,0.152914,9.79884,0.441856,-0.07,-0.13,0.195,6.72313,-48.0561,7.42456,1009.07
1217258,0.152914,9.79884,0.437106,-0.07,-0.06,-0.085,7.51238,-47.413,8.31611,1009.07
1217264,0.152914,9.79884,0.437106,0.07,-0.06,-0.015,7.2493,-47.5884,7.90687,1009.07
1217270,0.152914,9.80361,0.437106,0.07,-0.06,0.055,7.6293,-47.9099,7.23455,1009.09
1217276,0.152914,9.80361,0.437106,0.07,0.01,0.125,7.54161,-48.2607,7.57071,1009.09
1217282,0.152914,9.80361,0.437106,0.07,-0.06,0.055,6.63544,-48.3776,8.44765,1009.09
1217288,0.152914,9.80361,0.437106,0.14,-0.06,0.125,7.89238,-48.0561,8.75458,1009.09
1217294,0.152914,9.80361,0.437106,0.14,-0.13,0.195,7.27853,-47.8515,8.2138,1009.06
1217300,0.152914,9.80361,0.437106,0.07,-0.06,-0.015,7.36622,-47.5299,9.06151,1009.06
1217306,0.152914,9.80361,0.437106,0.14,-0.06,-0.015,7.98008,-47.8807,8.73996,1009.06
1217312,0.152914,9.79884,0.437106,0.14,0.08,-0.085,7.92161,-48.6992,7.83379,1009.06
1217318,0.152914,9.79884,0.437106,0.21,-0.13,-0.085,7.39545,-47.7053,7.96533,1009.06
1217324,0.157693,9.79884,0.437106,0.28,-0.13,-0.155,7.13237,-47.7053,7.67302,1009.07
1217330,0.157693,9.80361,0.432356,0.07,-0.13,-0.295,7.57084,-48.4069,6.8107,1009.07
1217336,0.157693,9.80361,0.432356,0,-0.06,-0.295,7.22007,-47.9392,7.83379,1009.08
1217342,0.157693,9.80361,0.432356,0,-0.13,-0.295,6.98622,-48.2315,8.50611,1009.08
1217348,0.157693,9.80361,0.432356,0,0.08,-0.365,7.10314,-47.8807,7.29302,1009.07
1217354,0.157693,9.80361,0.432356,0.14,-0.06,-0.435,7.13237,-48.553,7.62918,1009.07
1217360,0.157693,9.79884,0.432356,0.28,-0.34,-0.435,6.25543,-48.29,6.8107,1009.07
1217366,0.157693,9.79884,0.432356,0.28,-0.2,-0.435,8.06777,-48.4946,7.17609,1009.08
1217372,0.157693,9.80361,0.432356,-0.14,-0.13,-0.505,7.19083,-48.3484,8.30149,1009.08
1217378,0.157693,9.80361,0.432356,-0.14,-0.2,-0.575,6.98622,-48.67,7.89226,1009.09
1217384,0.157693,9.80361,0.432356,0,-0.2,-0.715,8.03854,-48.6115,7.99457,1009.09
1217390,0.162472,9.80361,0.432356,0.14,-0.34,-0.785,6.92775,-48.9623,7.43917,1009.04
1217396,0.162472,9.80361,0.432356,-0.56,-0.06,-1.065,7.27853,-48.8161,7.92149,1009.04
1217402,0.162472,9.80361,0.432356,-0.77,-0.13,-1.065,7.19083,-48.2607,7.24917,1009.08
1217408,0.162472,9.80361,0.432356,-0.56,0.01,-1.065,7.10314,-48.7284,7.59994,1009.08
1217414,0.157693,9.80361,0.432356,-0.49,0.01,-0.995,7.04468,-48.2607,7.73148,1009.08
