Timestamp,AccX,AccY,AccZ,AngleX,AngleY,AngleZ,AngularVelX,AngularVelY,AngularVelZ,QW,QX,QY,QZ,MagX,MagY,MagZ,Height,AirPressure
352554,0.689063,-9.75215,1.07187,-83.54,-3.87817,127.321,0.366211,0,0.12207,-0.350922,0.272705,0.607849,-0.657959,25.9417,57.7083,-30.1417,-2295,-29471
352560,0.669922,-9.73301,1.08145,-83.54,-3.87817,127.321,0.244141,0,0.12207,-0.350922,0.272705,0.607819,-0.657959,26.1167,57.7083,-30.125,-2295,-29471
352566,0.689063,-9.73301,1.07187,-83.54,-3.87817,127.321,0.12207,0,0.183105,-0.350922,0.272705,0.607819,-0.657959,26.275,57.7083,-30.1083,-2295,-29471
352572,0.674707,-9.74736,1.08623,-83.5345,-3.87817,127.321,0.366211,0,0.305176,-0.350922,0.272705,0.607819,-0.657959,26.0083,57.7167,-30.1167,-2295,-29471
352578,0.689063,-9.71387,1.11016,-83.5345,-3.87817,127.321,0.183105,0.0610352,0.183105,-0.350891,0.272705,0.607819,-0.65799,25.9583,57.7583,-30.1417,-2295,-29471
352584,0.689063,-9.7665,1.07187,-83.5345,-3.87817,127.321,0.0610352,-0.12207,0.12207,-0.350891,0.272736,0.607819,-0.65799,26.1333,57.775,-30.15,-2295,-29471
352590,0.679492,-9.72344,1.07187,-83.5345,-3.87817,127.321,0,0,0.12207,-0.350891,0.272705,0.607819,-0.65799,26.2833,57.7917,-30.1417,-2295,-29471
352596,0.669922,-9.72344,1.10059,-83.5345,-3.87817,127.321,0.12207,0,0.366211,-0.350891,0.272736,0.607819,-0.65799,26.4167,57.7917,-30.1583,-2295,-29471
352602,0.679492,-9.72822,1.07666,-83.5345,-3.87268,127.321,0.0610352,-0.12207,0.244141,-0.350891,0.272736,0.607819,-0.65799,26.5417,57.7917,-30.1583,-2295,-29471
352608,0.703418,-9.73779,1.0958,-83.5345,-3.87268,127.321,0,-0.12207,0.305176,-0.350861,0.272736,0.607819,-0.65799,25.9667,57.7833,-30.175,-2295,-29471
352614,0.665137,-9.7665,1.0623,-83.5345,-3.87268,127.321,0.0610352,0.0610352,0.244141,-0.350861,0.272736,0.607819,-0.65799,25.7167,57.7917,-30.15,-2295,-29471
352620,0.679492,-9.74258,1.05273,-83.5345,-3.87268,127.321,0.0610352,0,0.183105,-0.350861,0.272736,0.607819,-0.65799,25.9167,57.7917,-30.1583,-2295,-29471
352626,0.708203,-9.74736,1.0623,-83.5345,-3.87268,127.321,0.12207,0.0610352,0,-0.350861,0.272736,0.607788,-0.65799,26.0833,57.8,-30.1417,-2295,-29471
352632,0.679492,-9.73301,1.0623,-83.5345,-3.87268,127.321,0.183105,0.12207,0.305176,-0.350861,0.272736,0.607788,-0.65799,26.25,57.8083,-30.1333,-2295,-29471
352638,0.684277,-9.74258,1.07187,-83.5345,-3.87268,127.321,0.0610352,0.0610352,0.0610352,-0.350861,0.272766,0.607788,-0.65802,26.5167,57.8083,-30.1417,-2295,-29471
352644,0.689063,-9.74258,1.0623,-83.5345,-3.87268,127.321,0.183105,-0.0610352,0.183105,-0.350861,0.272766,0.607788,-0.65799,26.625,57.8167,-30.1417,-2295,-29471
352650,0.660352,-9.72822,1.0958,-83.5345,-3.87268,127.321,0.244141,0,0.183105,-0.350861,0.272766,0.607788,-0.65802,26.725,57.8167,-30.15,-2295,-29471
352656,0.684277,-9.73779,1.0958,-83.5345,-3.86719,127.321,0.12207,0.0610352,0.12207,-0.350861,0.272766,0.607788,-0.65802,26.8167,57.825,-30.175,-2295,-29471
352662,0.689063,-9.73301,1.08623,-83.5345,-3.86719,127.321,0,-0.0610352,0,-0.350861,0.272766,0.607788,-0.65802,26.9,57.8417,-30.1833,-2295,-29471
352668,0.669922,-9.72822,1.04316,-83.5345,-3.87268,127.326,0,-0.183105,0,-0.350861,0.272766,0.607788,-0.65802,27.05,57.875,-30.1583,-2295,-29471
352674,0.669922,-9.75693,1.07666,-83.5345,-3.87268,127.326,0.12207,0.0610352,0,-0.350861,0.272736,0.607788,-0.65802,27.1083,57.875,-30.15,-2295,-29471
352680,0.698633,-9.74736,1.07666,-83.5345,-3.87268,127.326,0.12207,-0.0610352,0.0610352,-0.350861,0.272736,0.607788,-0.65802,27.1583,57.8667,-30.175,-2295,-29471
352686,0.674707,-9.75215,1.04795,-83.5345,-3.87268,127.326,0.12207,-0.0610352,0,-0.350861,0.272736,0.607788,-0.65802,27.2083,57.8583,-30.1833,-2295,-29471
352692,0.689063,-9.74736,1.0958,-83.5345,-3.87268,127.326,0.0610352,0,-0.0610352,-0.350861,0.272736,0.607788,-0.65802,27.25,57.8417,-30.2083,-2295,-29471
352698,0.655566,-9.74736,1.08145,-83.5345,-3.87268,127.326,0.0610352,0,0,-0.350861,0.272736,0.607788,-0.65802,26.55,57.825,-30.275,-2295,-29471
352704,0.674707,-9.73301,1.06709,-83.5345,-3.87268,127.326,0.0610352,0,-0.0610352,-0.350861,0.272736,0.607788,-0.65802,26.2667,57.8083,-30.3083,-2295,-29471
352710,0.684277,-9.74736,1.05752,-83.5345,-3.87268,127.326,0.0610352,0,0,-0.350861,0.272736,0.607819,-0.65802,26.0083,57.8,-30.3333,-2295,-29471
352716,0.703418,-9.77607,1.07666,-83.5345,-3.87268,127.326,0.0610352,-0.0610352,0,-0.350861,0.272736,0.607819,-0.65799,25.7667,57.8,-30.3667,-2295,-29471
352722,0.650781,-9.71865,1.08623,-83.5345,-3.87268,127.326,0.12207,-0.12207,0,-0.350861,0.272736,0.607819,-0.65799,25.5333,57.8,-30.35,-2295,-29471
352728,0.665137,-9.73779,1.06709,-83.5345,-3.87817,127.326,0,-0.12207,-0.0610352,-0.350861,0.272705,0.607819,-0.65799,25.925,57.7667,-30.2667,-2295,-29471
352734,0.669922,-9.76172,1.07187,-83.5345,-3.87817,127.326,0.0610352,0.0610352,0.0610352,-0.350861,0.272705,0.607819,-0.65799,26.075,57.7417,-30.225,-2295,-29471
352740,0.665137,-9.74258,1.09102,-83.5345,-3.87817,127.326,0,-0.0610352,-0.0610352,-0.350861,0.272705,0.607819,-0.65799,26.2167,57.725,-30.225,-2295,-29471
352746,0.650781,-9.7665,1.0958,-83.54,-3.87817,127.326,0,0,-0.183105,-0.350861,0.272705,0.607819,-0.65799,26.3333,57.7,-30.2417,-2295,-29471
352752,0.665137,-9.74258,1.08623,-83.54,-3.87817,127.326,0,0,-0.0610352,-0.350861,0.272705,0.607849,-0.65799,26.45,57.6917,-30.2583,-2295,-29471
352758,0.665137,-9.73301,1.07666,-83.54,-3.87817,127.326,0.0610352,-0.12207,-0.183105,-0.350861,0.272705,0.607849,-0.65799,26.65,57.7,-30.3,-2295,-29471
352764,0.679492,-9.7665,1.07187,-83.54,-3.88367,127.326,0.12207,0,-0.12207,-0.350891,0.272675,0.607849,-0.657959,26.7417,57.7167,-30.3167,-2295,-29471
352770,0.684277,-9.74736,1.07666,-83.54,-3.88367,127.326,0.0610352,-0.0610352,-0.0610352,-0.350891,0.272675,0.607849,-0.657959,26.825,57.725,-30.3417,-2295,-29471
352776,0.698633,-9.74258,1.08145,-83.54,-3.88367,127.326,0,-0.0610352,-0.183105,-0.350891,0.272675,0.607849,-0.657959,26.9167,57.7333,-30.3583,-2295,-29471
352782,0.674707,-9.76172,1.08145,-83.54,-3.88367,127.326,0.12207,0,-0.244141,-0.350891,0.272675,0.607849,-0.657959,26.9917,57.75,-30.3833,-2295,-29471
352788,0.684277,-9.71865,1.10059,-83.54,-3.88367,127.326,0.12207,0,0,-0.350891,0.272644,0.60788,-0.657959,27.1333,57.7833,-30.3667,-2295,-29471
352794,0.679492,-9.77129,1.05752,-83.54,-3.88367,127.326,0.0610352,0,-0.12207,-0.350891,0.272644,0.60788,-0.657959,26.7667,57.8083,-30.3417,-2295,-29471
352800,0.693848,-9.76172,1.10537,-83.54,-3.88916,127.326,0.12207,0,0.0610352,-0.350891,0.272644,0.60788,-0.657959,26.4417,57.8167,-30.3,-2295,-29471
352806,0.708203,-9.74736,1.08145,-83.54,-3.88916,127.326,0.0610352,0,0,-0.350891,0.272644,0.60788,-0.657959,26.5667,57.8167,-30.2667,-2295,-29471
352812,0.693848,-9.75693,1.06709,-83.54,-3.88916,127.326,-0.12207,0,0,-0.350891,0.272644,0.60788,-0.657959,26.675,57.8333,-30.2417,-2295,-29471
352818,0.665137,-9.76172,1.10059,-83.54,-3.88916,127.326,0.0610352,0.0610352,0.12207,-0.350891,0.272644,0.60788,-0.657959,26.85,57.8833,-30.225,-2295,-29471
352824,0.679492,-9.7665,1.08145,-83.54,-3.88916,127.326,0.0610352,0.0610352,0,-0.350891,0.272644,0.60788,-0.657959,26.9333,57.9083,-30.2,-2295,-29471
352830,0.674707,-9.72822,1.07666,-83.54,-3.88916,127.326,0.183105,-0.12207,-0.12207,-0.350891,0.272644,0.60788,-0.657959,27,57.925,-30.2167,-2295,-29471
352836,0.684277,-9.74736,1.06709,-83.54,-3.88916,127.326,0.0610352,0.12207,0,-0.350922,0.272644,0.60788,-0.657959,27.05,57.925,-30.25,-2295,-29471
352842,0.650781,-9.73779,1.10537,-83.54,-3.88916,127.326,0.0610352,0.0610352,-0.0610352,-0.350922,0.272644,0.60788,-0.657959,27.0917,57.9083,-30.275,-2295,-29471
352848,0.669922,-9.75215,1.07666,-83.54,-3.88916,127.326,0.183105,0,-0.12207,-0.350922,0.272644,0.60788,-0.657959,27.1583,57.8833,-30.3417,-2295,-29471
352854,0.693848,-9.73301,1.10537,-83.54,-3.88916,127.326,0.12207,0,0,-0.350922,0.272644,0.60788,-0.657959,27.2083,57.8667,-30.3417,-2295,-29471
352860,0.684277,-9.73779,1.08623,-83.54,-3.88916,127.326,0.0610352,0.0610352,0,-0.350922,0.272614,0.60788,-0.657959,27.2583,57.8667,-30.3417,-2295,-29471
352866,0.669922,-9.73301,1.09102,-83.54,-3.88916,127.326,0.0610352,0.183105,-0.12207,-0.350922,0.272644,0.60788,-0.657959,27.2917,57.875,-30.3417,-2295,-29471
352872,0.674707,-9.72822,1.10537,-83.54,-3.88916,127.326,0,-0.12207,-0.183105,-0.350952,0.272644,0.60788,-0.657928,27.325,57.875,-30.325,-2295,-29471
352878,0.679492,-9.73301,1.08145,-83.54,-3.89465,127.326,0,0,-0.0610352,-0.350952,0.272614,0.60788,-0.657928,27.3833,57.925,-30.3333,-2295,-29471
352884,0.679492,-9.75693,1.0958,-83.54,-3.89465,127.326,0,0,-0.183105,-0.350952,0.272614,0.60788,-0.657928,27.4167,57.925,-30.3417,-2295,-29471
352890,0.669922,-9.75215,1.0623,-83.54,-3.89465,127.326,0,0,0,-0.350952,0.272614,0.60791,-0.657928,27.025,57.925,-30.3417,-2295,-29471
352896,0.665137,-9.75215,1.06709,-83.54,-3.89465,127.326,0,-0.0610352,-0.0610352,-0.350952,0.272614,0.60791,-0.657928,26.675,57.9167,-30.3417,-2295,-29471
352902,0.665137,-9.75215,1.0623,-83.54,-3.89465,127.326,0.0610352,0,0,-0.350952,0.272614,0.60791,-0.657928,26.3583,57.9167,-30.35,-2295,-29471
352908,0.684277,-9.73779,1.0623,-83.54,-3.89465,127.326,0.12207,0,-0.12207,-0.350952,0.272614,0.60791,-0.657928,26.1917,57.8833,-30.3417,-2295,-29471
352914,0.669922,-9.73779,1.08145,-83.54,-3.89465,127.326,0.0610352,-0.12207,0,-0.350952,0.272583,0.60791,-0.657928,25.925,57.8667,-30.35,-2295,-29471
352920,0.708203,-9.76172,1.10537,-83.54,-3.89465,127.326,0.183105,-0.0610352,-0.12207,-0.350952,0.272583,0.60791,-0.657928,25.6833,57.85,-30.35,-2295,-29471
352926,0.689063,-9.74258,1.07666,-83.54,-3.90015,127.326,0.12207,-0.0610352,0,-0.350952,0.272583,0.60791,-0.657928,25.475,57.825,-30.35,-2295,-29471
352932,0.708203,-9.74258,1.07666,-83.54,-3.90015,127.326,0,-0.0610352,-0.0610352,-0.350952,0.272583,0.60791,-0.657928,25.2833,57.8083,-30.375,-2295,-29471
352938,0.693848,-9.74258,1.0623,-83.54,-3.90015,127.326,0.0610352,0,0.0610352,-0.350952,0.272583,0.60791,-0.657928,25.7167,57.7833,-30.4083,-2295,-29471
352944,0.708203,-9.72344,1.09102,-83.54,-3.90015,127.326,0.0610352,-0.0610352,0,-0.350952,0.272583,0.60791,-0.657928,25.9,57.775,-30.4333,-2295,-29471
352950,0.679492,-9.73301,1.08145,-83.54,-3.90015,127.326,0.0610352,-0.0610352,0.0610352,-0.350952,0.272583,0.60791,-0.657928,26.075,57.775,-30.4417,-2295,-29471
352956,0.684277,-9.74258,1.08623,-83.54,-3.90015,127.326,0.12207,-0.183105,0,-0.350952,0.272583,0.60791,-0.657928,26.2333,57.7833,-30.475,-2295,-29471
352962,0.689063,-9.73301,1.08623,-83.54,-3.90015,127.332,0,-0.12207,-0.12207,-0.350952,0.272552,0.60791,-0.657928,25.9667,57.7833,-30.4833,-2295,-29471
352968,0.679492,-9.74736,1.0958,-83.54,-3.90015,127.332,0.0610352,-0.183105,0,-0.350952,0.272552,0.607941,-0.657928,25.4917,57.7833,-30.4583,-2295,-29471
352974,0.708203,-9.74258,1.07666,-83.5455,-3.90015,127.332,0.0610352,-0.12207,0,-0.350952,0.272552,0.607941,-0.657898,25.3,57.7833,-30.4333,-2295,-29471
352980,0.679492,-9.74736,1.05752,-83.5455,-3.90015,127.332,-0.0610352,-0.0610352,0,-0.350952,0.272552,0.607941,-0.657898,25.125,57.7833,-30.4167,-2295,-29471
352986,0.679492,-9.73301,1.08145,-83.5455,-3.90015,127.332,0,-0.12207,0.0610352,-0.350952,0.272552,0.607941,-0.657898,24.9667,57.8,-30.3917,-2295,-29471
352992,0.669922,-9.75215,1.08623,-83.5455,-3.90015,127.332,0.0610352,-0.183105,0,-0.350922,0.272552,0.607941,-0.657898,24.8333,57.8,-30.375,-2295,-29471
352998,0.693848,-9.76172,1.07666,-83.5455,-3.90015,127.332,0,0,-0.0610352,-0.350922,0.272522,0.607941,-0.657898,25,57.8,-30.3583,-2295,-29471
353004,0.684277,-9.76172,1.0623,-83.5455,-3.90015,127.332,-0.0610352,-0.12207,0,-0.350922,0.272522,0.607971,-0.657898,24.85,57.7917,-30.3417,-2295,-29471
353010,0.712988,-9.7665,1.05273,-83.5455,-3.90564,127.332,0,-0.0610352,0,-0.350922,0.272522,0.607971,-0.657898,24.725,57.7833,-30.3167,-2295,-29471
353016,0.689063,-9.76172,1.0958,-83.5455,-3.90564,127.332,0.0610352,0.0610352,0.0610352,-0.350922,0.272522,0.607971,-0.657898,24.6083,57.7667,-30.2917,-2295,-29471
353022,0.712988,-9.74736,1.08145,-83.5455,-3.90564,127.332,0.0610352,0.0610352,0.183105,-0.350922,0.272522,0.607971,-0.657898,24.5167,57.7583,-30.2833,-2295,-29471
353028,0.693848,-9.75215,1.05752,-83.5455,-3.90015,127.332,0.12207,0,0.0610352,-0.350922,0.272522,0.607971,-0.657898,24.3333,57.7417,-30.2333,-2295,-29471
353034,0.679492,-9.73779,1.08623,-83.5455,-3.90564,127.332,0.305176,0.0610352,0.0610352,-0.350922,0.272522,0.607971,-0.657898,24.2667,57.7333,-30.1833,-2295,-29471
353040,0.698633,-9.75215,1.0958,-83.5455,-3.90564,127.332,0.0610352,0,0.0610352,-0.350952,0.272522,0.607941,-0.657898,24.1833,57.7417,-30.125,-2295,-29471
353046,0.703418,-9.7665,1.07666,-83.5455,-3.90564,127.332,0.183105,-0.0610352,0,-0.350952,0.272522,0.607941,-0.657898,24.5417,57.7417,-30.0917,-2295,-29471
353052,0.674707,-9.73779,1.04316,-83.5455,-3.90564,127.332,0.183105,0,0,-0.350952,0.272522,0.607941,-0.657898,24.4417,57.75,-30.075,-2295,-29471
353058,0.698633,-9.74736,1.08145,-83.54,-3.90564,127.332,0.183105,0,0.244141,-0.350952,0.272522,0.607941,-0.657898,24.2667,57.7833,-30.0833,-2295,-29471
353064,0.655566,-9.74258,1.10537,-83.54,-3.90564,127.332,0.0610352,0.0610352,0.0610352,-0.350952,0.272522,0.607941,-0.657928,24.1917,57.7917,-30.0583,-2295,-29471
353070,0.693848,-9.75693,1.09102,-83.54,-3.90564,127.332,0.0610352,0,0.12207,-0.350952,0.272522,0.607941,-0.657928,24.1333,57.7833,-30.05,-2295,-29471
353076,0.693848,-9.75215,1.07666,-83.54,-3.90015,127.332,0.0610352,0.0610352,0.244141,-0.350952,0.272522,0.607941,-0.657928,24.075,57.775,-30.0417,-2295,-29471
353082,0.679492,-9.73301,1.0958,-83.54,-3.90015,127.332,0.183105,0.183105,0.12207,-0.350922,0.272522,0.607941,-0.657928,24.0167,57.75,-30.0333,-2295,-29471
353088,0.693848,-9.77129,1.05752,-83.54,-3.90015,127.332,0.0610352,0,0.305176,-0.350952,0.272522,0.607941,-0.657928,23.9333,57.7083,-30.0667,-2295,-29471
353094,0.717773,-9.74258,1.06709,-83.54,-3.90015,127.332,0.366211,0,0.183105,-0.350922,0.272552,0.607941,-0.657928,23.9083,57.7083,-30.0833,-2295,-29471
353100,0.669922,-9.73301,1.04795,-83.54,-3.90015,127.332,0.183105,0.305176,0.366211,-0.350922,0.272552,0.60791,-0.657928,23.8833,57.7,-30.0833,-2295,-29471
353106,0.660352,-9.7665,1.08623,-83.54,-3.90015,127.332,0.305176,0,0.427246,-0.350922,0.272552,0.60791,-0.657959,23.85,57.7083,-30.075,-2295,-29471
353112,0.660352,-9.73301,1.05752,-83.54,-3.89465,127.332,0.12207,0.183105,0.12207,-0.350922,0.272552,0.60791,-0.657959,23.825,57.7,-30.0833,-2295,-29471
353118,0.665137,-9.76172,1.13408,-83.5345,-3.89465,127.332,0.244141,0,0.183105,-0.350922,0.272552,0.60788,-0.657959,24.5583,57.7,-30.0917,-2295,-29471
353124,0.679492,-9.74258,1.0623,-83.5345,-3.89465,127.332,0.0610352,0,0.244141,-0.350922,0.272583,0.60788,-0.657959,24.45,57.7,-30.1083,-2295,-29471
353130,0.674707,-9.77129,1.0958,-83.5345,-3.89465,127.332,0.244141,0,0.183105,-0.350922,0.272583,0.60788,-0.657959,24.3667,57.6917,-30.1167,-2295,-29471
353136,0.679492,-9.75215,1.08145,-83.5345,-3.89465,127.332,0.244141,0.12207,0.183105,-0.350922,0.272583,0.60788,-0.657959,24.2917,57.6833,-30.1167,-2295,-29471
353142,0.684277,-9.70908,1.09102,-83.5345,-3.89465,127.332,0.183105,0.0610352,0,-0.350922,0.272583,0.60788,-0.65799,24.2333,57.675,-30.1333,-2295,-29471
353148,0.679492,-9.75693,1.08145,-83.5345,-3.88916,127.332,0,-0.0610352,0.244141,-0.350922,0.272583,0.60788,-0.65799,24.125,57.6833,-30.0917,-2295,-29471
353154,0.669922,-9.7043,1.07187,-83.5345,-3.88916,127.332,0.0610352,0.0610352,0.12207,-0.350922,0.272583,0.60788,-0.65799,24.0583,57.7,-30.1,-2295,-29471
353160,0.660352,-9.75215,1.10059,-83.5345,-3.88916,127.332,0,0,0,-0.350922,0.272583,0.607849,-0.65799,24.4083,57.7167,-30.0583,-2295,-29471
353166,0.669922,-9.77607,1.05752,-83.5345,-3.88916,127.332,0.0610352,0,0.12207,-0.350922,0.272583,0.60788,-0.65799,24.725,57.725,-30.0417,-2295,-29471
353172,0.669922,-9.73779,1.07187,-83.5345,-3.88916,127.332,0.244141,0.12207,0.0610352,-0.350922,0.272583,0.60788,-0.65799,25.025,57.7333,-30.0167,-2295,-29471
353178,0.665137,-9.73779,1.08145,-83.5345,-3.88916,127.332,0.183105,0.183105,0.183105,-0.350922,0.272583,0.607849,-0.65799,25.1,57.725,-30.0417,-2295,-29471
353184,0.660352,-9.75693,1.0623,-83.5345,-3.88916,127.332,0.305176,0,0,-0.350922,0.272583,0.607849,-0.65799,24.9417,57.7083,-30.0417,-2295,-29471
353190,0.684277,-9.72822,1.09102,-83.5291,-3.88916,127.332,0.183105,0.12207,0.0610352,-0.350922,0.272583,0.607849,-0.65799,25.2083,57.6917,-30.0583,-2295,-29471
353196,0.669922,-9.71865,1.11494,-83.5291,-3.88916,127.332,0.12207,0,0,-0.350922,0.272583,0.607849,-0.65799,25.4583,57.6833,-30.075,-2295,-29471
353202,0.669922,-9.74736,1.07666,-83.5291,-3.88916,127.332,0.0610352,0,0,-0.350922,0.272583,0.607849,-0.65799,25.6667,57.6833,-30.0833,-2295,-29471
353208,0.689063,-9.77607,1.07187,-83.5291,-3.88916,127.332,0.183105,0,0.12207,-0.350922,0.272583,0.607849,-0.65799,25.6333,57.7,-30.125,-2295,-29471
353214,0.679492,-9.71865,1.10059,-83.5291,-3.88916,127.332,0.12207,-0.0610352,0,-0.350922,0.272583,0.607819,-0.65802,25.425,57.725,-30.1667,-2295,-29471
353220,0.674707,-9.70908,1.08145,-83.5291,-3.88916,127.332,0.12207,0,0.12207,-0.350922,0.272583,0.607819,-0.65802,25.2333,57.75,-30.1917,-2295,-29471
353226,0.674707,-9.72344,1.09102,-83.5291,-3.88916,127.332,0.12207,0,0,-0.350922,0.272583,0.607819,-0.65802,25.0667,57.775,-30.2333,-2295,-29471
353232,0.655566,-9.72344,1.09102,-83.5291,-3.88916,127.332,0.0610352,-0.0610352,-0.0610352,-0.350922,0.272583,0.607819,-0.65802,24.9083,57.7917,-30.2667,-2295,-29471
353238,0.679492,-9.74736,1.06709,-83.5291,-3.88916,127.332,0.0610352,-0.12207,0.0610352,-0.350922,0.272583,0.607819,-0.65802,25.4167,57.7917,-30.3,-2295,-29471
353244,0.679492,-9.73301,1.08623,-83.5291,-3.88916,127.332,0,0,0.12207,-0.350922,0.272583,0.607849,-0.65802,25.6417,57.775,-30.3167,-2295,-29471
353250,0.674707,-9.73301,1.09102,-83.5291,-3.88916,127.332,0,0,0,-0.350922,0.272583,0.607849,-0.65802,25.425,57.775,-30.3167,-2295,-29471
353256,0.655566,-9.76172,1.0958,-83.5291,-3.88916,127.332,0.12207,-0.0610352,0.0610352,-0.350922,0.272583,0.607849,-0.65799,25.65,57.775,-30.325,-2295,-29471
353262,0.689063,-9.71865,1.09102,-83.5291,-3.88916,127.332,0,-0.183105,0,-0.350922,0.272583,0.607849,-0.65802,25.8583,57.775,-30.3333,-2295,-29471
353268,0.669922,-9.76172,1.0958,-83.5345,-3.88916,127.332,-0.0610352,-0.0610352,0.12207,-0.350922,0.272583,0.607849,-0.65802,26.1833,57.7667,-30.35,-2295,-29471
353274,0.674707,-9.75693,1.08145,-83.5345,-3.88916,127.332,0.0610352,-0.12207,-0.0610352,-0.350891,0.272583,0.607849,-0.65799,26.3333,57.7667,-30.35,-2295,-29471
353280,0.674707,-9.7665,1.0958,-83.5345,-3.88916,127.332,0,0.0610352,0,-0.350891,0.272583,0.607849,-0.65799,26.475,57.75,-30.3417,-2295,-29471
353286,0.655566,-9.75215,1.10537,-83.5345,-3.88916,127.332,0.0610352,0,0,-0.350922,0.272583,0.607849,-0.65799,26.5833,57.7417,-30.3333,-2295,-29471
353292,0.698633,-9.73779,1.07187,-83.5345,-3.88916,127.332,0.0610352,0,-0.0610352,-0.350922,0.272583,0.607849,-0.65799,26.6917,57.7333,-30.3333,-2295,-29471
353298,0.665137,-9.75215,1.06709,-83.5345,-3.88916,127.332,0.0610352,-0.12207,0,-0.350922,0.272583,0.607849,-0.65799,26.85,57.7417,-30.3167,-2295,-29471
353304,0.689063,-9.7665,1.02881,-83.5345,-3.88916,127.332,0.12207,0,0,-0.350922,0.272552,0.607849,-0.65799,26.9333,57.775,-30.3083,-2295,-29471
353310,0.660352,-9.75215,1.08145,-83.5345,-3.88916,127.332,0.0610352,0.12207,0,-0.350922,0.272552,0.607849,-0.65799,26.5917,57.7917,-30.2833,-2295,-29471
353316,0.669922,-9.74736,1.07187,-83.5345,-3.88916,127.332,0.12207,0,0.0610352,-0.350922,0.272552,0.607849,-0.65799,26.7,57.8083,-30.2833,-2295,-29471
353322,0.703418,-9.72822,1.08145,-83.5345,-3.88916,127.332,0.183105,-0.183105,0,-0.350922,0.272552,0.607849,-0.65799,26.3833,57.8167,-30.2667,-2295,-29471
353328,0.698633,-9.76172,1.09102,-83.5345,-3.89465,127.332,0.12207,0.0610352,0,-0.350922,0.272552,0.607849,-0.65799,25.8417,57.8083,-30.25,-2295,-29471
353334,0.665137,-9.76172,1.0958,-83.5345,-3.89465,127.332,0.12207,0,0.0610352,-0.350922,0.272552,0.607849,-0.65799,25.6,57.7917,-30.225,-2295,-29471
353340,0.650781,-9.75215,1.09102,-83.5345,-3.89465,127.332,0.0610352,0.0610352,0.0610352,-0.350922,0.272552,0.607849,-0.65799,25.8167,57.8,-30.2083,-2295,-29471
353346,0.679492,-9.74258,1.10059,-83.5345,-3.89465,127.332,0,0.0610352,0,-0.350922,0.272552,0.607849,-0.65799,25.9917,57.8083,-30.1917,-2295,-29471
353352,0.660352,-9.74258,1.0623,-83.5345,-3.89465,127.332,0,0,0.0610352,-0.350922,0.272552,0.607849,-0.65799,26.1583,57.825,-30.1667,-2295,-29471
353358,0.655566,-9.75215,1.0623,-83.5345,-3.89465,127.332,0,0,0,-0.350922,0.272552,0.607849,-0.65799,25.65,57.825,-30.1917,-2295,-29471
353364,0.679492,-9.74736,1.08145,-83.5345,-3.89465,127.332,0.0610352,0,-0.0610352,-0.350922,0.272583,0.607849,-0.65799,25.4417,57.8333,-30.2,-2295,-29471
353370,0.674707,-9.73779,1.06709,-83.5345,-3.89465,127.332,0,-0.0610352,0.0610352,-0.350922,0.272552,0.607849,-0.65799,25.25,57.825,-30.2333,-2295,-29471
353376,0.684277,-9.74736,1.09102,-83.5345,-3.89465,127.332,0.12207,0,0,-0.350922,0.272552,0.60788,-0.65799,25.075,57.825,-30.2333,-2295,-29471
353382,0.684277,-9.75215,1.0623,-83.5345,-3.89465,127.332,0.0610352,-0.244141,0.0610352,-0.350922,0.272552,0.60788,-0.65799,25.3333,57.8417,-30.2333,-2295,-29471
353388,0.679492,-9.71865,1.10059,-83.5345,-3.89465,127.332,0,-0.183105,0,-0.350922,0.272552,0.60788,-0.65799,25.5667,57.8333,-30.2417,-2295,-29471
353394,0.712988,-9.77129,1.05273,-83.5345,-3.89465,127.332,0.0610352,0,0.183105,-0.350922,0.272552,0.60788,-0.65799,25.9583,57.8167,-30.2,-2295,-29471
353400,0.689063,-9.77607,1.0623,-83.5345,-3.89465,127.332,0.183105,-0.12207,0.0610352,-0.350891,0.272552,0.60788,-0.65799,26.1333,57.8,-30.175,-2295,-29471
353406,0.708203,-9.76172,1.08623,-83.5345,-3.89465,127.337,0.366211,0,0.0610352,-0.350891,0.272552,0.60788,-0.65799,26.2917,57.7917,-30.1167,-2295,-29471
353412,0.665137,-9.72344,1.0958,-83.5345,-3.89465,127.337,0.305176,0.0610352,0,-0.350891,0.272552,0.60788,-0.65799,26.425,57.7833,-30.0667,-2295,-29471
353418,0.669922,-9.7043,1.10059,-83.5291,-3.89465,127.337,0.0610352,0,0.0610352,-0.350922,0.272552,0.607849,-0.65802,26.65,57.775,-29.9583,-2295,-29471
353424,0.679492,-9.76172,1.08623,-83.5291,-3.89465,127.337,0.12207,0,0,-0.350922,0.272552,0.607849,-0.65802,26.7417,57.7833,-29.925,-2295,-29471
353430,0.679492,-9.7665,1.07666,-83.5291,-3.89465,127.337,0.12207,-0.0610352,0.0610352,-0.350922,0.272522,0.607849,-0.65802,26.8333,57.8,-29.925,-2295,-29471
353436,0.684277,-9.7665,1.07666,-83.5291,-3.89465,127.337,0.0610352,0,-0.0610352,-0.350922,0.272522,0.607849,-0.65802,26.5,57.8083,-29.9333,-2295,-29471
353442,0.650781,-9.73779,1.06709,-83.5291,-3.89465,127.337,0.0610352,0,0.12207,-0.350922,0.272522,0.607849,-0.65802,26.6167,57.825,-29.9333,-2295,-29471
353448,0.684277,-9.75215,1.07666,-83.5291,-3.89465,127.337,0.12207,0,0,-0.350922,0.272522,0.607849,-0.65802,26.7167,57.8333,-29.95,-2295,-29471
353454,0.679492,-9.76172,1.07666,-83.5291,-3.89465,127.337,0.0610352,-0.0610352,0.12207,-0.350922,0.272522,0.60788,-0.65799,26.8917,57.8417,-29.9417,-2295,-29471
353460,0.693848,-9.71865,1.09102,-83.5345,-3.89465,127.337,0.12207,0,0,-0.350922,0.272522,0.60788,-0.65799,26.9667,57.85,-29.9583,-2295,-29471
353466,0.679492,-9.73301,1.08145,-83.5291,-3.89465,127.337,0.0610352,0,0,-0.350922,0.272522,0.60788,-0.65799,27.0417,57.85,-29.9667,-2295,-29471
353472,0.679492,-9.75693,1.04316,-83.5291,-3.89465,127.337,0.0610352,-0.183105,0,-0.350922,0.272522,0.60788,-0.65799,26.6833,57.85,-29.975,-2295,-29471
353478,0.674707,-9.75215,1.08623,-83.5345,-3.89465,127.337,0.0610352,-0.12207,-0.0610352,-0.350922,0.272522,0.60788,-0.65799,26.7833,57.8417,-30,-2295,-29471
353484,0.698633,-9.73301,1.05752,-83.5345,-3.89465,127.337,0.12207,0.12207,0,-0.350922,0.272491,0.60788,-0.65799,26.9583,57.825,-30.025,-2295,-29471
353490,0.650781,-9.75693,1.07666,-83.5345,-3.89465,127.337,0.12207,0,0.0610352,-0.350922,0.272522,0.60788,-0.65799,26.6167,57.8333,-30.0417,-2295,-29471
353496,0.689063,-9.73301,1.06709,-83.5291,-3.89465,127.337,0.12207,-0.0610352,0,-0.350922,0.272522,0.60788,-0.65799,26.725,57.8333,-30.0417,-2295,-29471
353502,0.698633,-9.74258,1.09102,-83.5291,-3.89465,127.337,0.0610352,0.0610352,0,-0.350922,0.272491,0.60788,-0.65799,26.825,57.8333,-30.0417,-2295,-29471
353508,0.703418,-9.7665,1.08623,-83.5291,-3.90015,127.337,0.12207,0,-0.0610352,-0.350922,0.272491,0.60788,-0.65799,26.4917,57.825,-30.05,-2295,-29471
353514,0.693848,-9.74258,1.05752,-83.5291,-3.90015,127.337,0,-0.0610352,-0.0610352,-0.350922,0.272491,0.60788,-0.65799,25.925,57.825,-30.1,-2295,-29471
353520,0.689063,-9.78564,1.07666,-83.5345,-3.90015,127.337,0.12207,0,0,-0.350922,0.272491,0.60788,-0.65799,25.675,57.8417,-30.1417,-2295,-29471
353526,0.669922,-9.75693,1.07187,-83.5345,-3.90015,127.337,0.0610352,0.12207,-0.0610352,-0.350922,0.272491,0.60788,-0.65799,25.875,57.8583,-30.1667,-2295,-29471
353532,0.689063,-9.74736,1.10537,-83.5345,-3.90015,127.337,0.12207,0,0,-0.350922,0.272491,0.60788,-0.65799,26.05,57.8833,-30.1917,-2295,-29471
353538,0.693848,-9.75215,1.07187,-83.5291,-3.90015,127.337,0.183105,-0.12207,0,-0.350922,0.272491,0.60788,-0.65799,26.2167,57.9,-30.2167,-2295,-29471
353544,0.703418,-9.7665,1.07666,-83.5345,-3.90015,127.337,0.0610352,0.0610352,0,-0.350922,0.272491,0.60788,-0.65799,25.725,57.8917,-30.2167,-2295,-29471
353550,0.674707,-9.74736,1.07187,-83.5345,-3.90015,127.337,0.0610352,0,0.244141,-0.350922,0.272491,0.60788,-0.65799,25.5167,57.8583,-30.25,-2295,-29471
353556,0.674707,-9.74258,1.0623,-83.5345,-3.90015,127.337,0.12207,-0.0610352,-0.183105,-0.350922,0.272491,0.60788,-0.65799,25.3167,57.825,-30.2833,-2295,-29471
353562,0.689063,-9.74258,1.05752,-83.5345,-3.90015,127.337,0.12207,-0.0610352,0,-0.350922,0.272491,0.60788,-0.65799,25.1417,57.8,-30.3,-2295,-29471
353568,0.679492,-9.73779,1.07187,-83.5345,-3.90015,127.337,0.0610352,0,0,-0.350922,0.272491,0.60788,-0.65799,24.975,57.775,-30.3,-2295,-29471
353574,0.693848,-9.75693,1.09102,-83.5345,-3.90015,127.337,0.0610352,0,-0.0610352,-0.350922,0.272491,0.60788,-0.65799,24.7083,57.7583,-30.2333,-2295,-29471
353580,0.684277,-9.76172,1.0958,-83.5345,-3.90015,127.337,0.183105,-0.12207,0,-0.350922,0.272461,0.60788,-0.65799,25,57.7667,-30.2083,-2295,-29471
353586,0.679492,-9.75693,1.0958,-83.5345,-3.90015,127.337,0,0,0,-0.350922,0.272461,0.60788,-0.65799,25.2583,57.7667,-30.1917,-2295,-29471
353592,0.674707,-9.75693,1.04795,-83.5345,-3.90015,127.337,0.12207,0.0610352,0,-0.350922,0.272461,0.60791,-0.65799,25.4917,57.775,-30.1917,-2295,-29471
353598,0.655566,-9.72344,1.0623,-83.5291,-3.90015,127.337,0.183105,0.0610352,0.12207,-0.350952,0.272461,0.60791,-0.65799,25.7,57.7833,-30.2,-2295,-29471
353604,0.698633,-9.7665,1.07666,-83.5291,-3.90015,127.337,0.0610352,0.0610352,0,-0.350952,0.272461,0.60788,-0.65799,26.05,57.8083,-30.1833,-2295,-29471
353610,0.674707,-9.74736,1.07187,-83.5345,-3.90564,127.337,0.12207,0,0,-0.350952,0.272461,0.60791,-0.65799,26.2083,57.8083,-30.1917,-2295,-29471
353616,0.679492,-9.72822,1.10537,-83.5291,-3.90564,127.337,0.183105,-0.0610352,0,-0.350952,0.272461,0.60791,-0.65799,26.35,57.8,-30.1917,-2295,-29471
353622,0.693848,-9.77129,1.08145,-83.5291,-3.90564,127.337,0,-0.0610352,0,-0.350952,0.272461,0.60788,-0.65799,26.0667,57.7833,-30.2083,-2295,-29471
353628,0.679492,-9.75693,1.10059,-83.5345,-3.90564,127.337,0.0610352,0,0,-0.350952,0.272461,0.60791,-0.65799,25.8083,57.7667,-30.2333,-2295,-29471
353634,0.679492,-9.74736,1.0958,-83.5291,-3.90564,127.337,0.183105,-0.0610352,0,-0.350952,0.272461,0.60791,-0.65799,25.7917,57.775,-30.2833,-2295,-29471
353640,0.669922,-9.7665,1.09102,-83.5291,-3.90564,127.337,0.0610352,-0.0610352,0,-0.350952,0.272461,0.60791,-0.65799,25.975,57.8,-30.2667,-2295,-29471
353646,0.684277,-9.76172,1.08623,-83.5291,-3.90564,127.337,0.0610352,0,0,-0.350952,0.272461,0.60791,-0.65799,26.1333,57.825,-30.2583,-2295,-29471
353652,0.693848,-9.73779,1.08145,-83.5291,-3.90564,127.337,0,0,0,-0.350952,0.272461,0.60791,-0.65799,26.2833,57.85,-30.25,-2295,-29471
353658,0.684277,-9.72344,1.10059,-83.5345,-3.90564,127.337,0.12207,-0.0610352,0,-0.350952,0.272461,0.60791,-0.65799,26.4167,57.875,-30.2333,-2295,-29471
353664,0.698633,-9.76172,1.07187,-83.5345,-3.90564,127.343,0,-0.0610352,0,-0.350952,0.27243,0.60791,-0.65799,26.6667,57.8583,-30.2167,-2295,-29471
353670,0.674707,-9.75693,1.08145,-83.5345,-3.90564,127.343,0.0610352,-0.0610352,0,-0.350952,0.27243,0.60791,-0.65799,26.7583,57.8417,-30.1917,-2295,-29471
353676,0.660352,-9.73779,1.08145,-83.5345,-3.90564,127.343,0.0610352,0,0,-0.350952,0.27243,0.60791,-0.65799,26.8417,57.8333,-30.1917,-2295,-29471
353682,0.669922,-9.72822,1.09102,-83.5345,-3.90564,127.343,0,0,0,-0.350952,0.27243,0.60791,-0.65799,26.9167,57.825,-30.1833,-2295,-29471
353688,0.679492,-9.74258,1.10059,-83.5345,-3.90564,127.343,0,-0.0610352,0,-0.350952,0.27243,0.60791,-0.65799,26.975,57.8083,-30.1917,-2295,-29471
353694,0.689063,-9.77129,1.08145,-83.5345,-3.90564,127.343,0,0,0,-0.350952,0.27243,0.60791,-0.65799,27.1167,57.7917,-30.2583,-2295,-29471
353700,0.689063,-9.7665,1.08623,-83.5345,-3.90564,127.343,0,0.12207,0,-0.350922,0.27243,0.607941,-0.65799,26.7667,57.7833,-30.2917,-2295,-29471
353706,0.689063,-9.75215,1.11494,-83.5345,-3.90564,127.343,0.12207,0.0610352,0,-0.350952,0.27243,0.607941,-0.657959,26.45,57.7833,-30.325,-2295,-29471
353712,0.717773,-9.75693,1.10059,-83.5345,-3.90564,127.343,0.12207,-0.183105,0,-0.350952,0.27243,0.607941,-0.657959,26.1667,57.8,-30.325,-2295,-29471
353718,0.679492,-9.75215,1.08145,-83.5345,-3.90564,127.343,0.0610352,0,0,-0.350952,0.27243,0.607941,-0.65799,25.9083,57.825,-30.3167,-2295,-29471
353724,0.693848,-9.72822,1.07666,-83.5345,-3.91113,127.343,0.0610352,-0.0610352,0,-0.350952,0.27243,0.607941,-0.65799,25.4583,57.8583,-30.2917,-2295,-29471
353730,0.660352,-9.75215,1.0623,-83.5345,-3.91113,127.343,0.12207,0,0.305176,-0.350952,0.27243,0.607941,-0.657959,25.2667,57.85,-30.2833,-2295,-29471
353736,0.684277,-9.73301,1.05752,-83.5345,-3.90564,127.343,0.305176,0.12207,0.0610352,-0.350922,0.27243,0.607941,-0.65799,25.0917,57.825,-30.2917,-2295,-29471
353742,0.674707,-9.72822,1.08623,-83.5345,-3.90564,127.343,0.0610352,0.0610352,0.0610352,-0.350952,0.27243,0.60791,-0.65799,25.3583,57.8083,-30.3,-2295,-29471
353748,0.703418,-9.75215,1.10537,-83.5345,-3.90564,127.343,0.12207,0,0.12207,-0.350952,0.27243,0.60791,-0.65799,25.5833,57.775,-30.3,-2295,-29471
353754,0.684277,-9.78086,1.0958,-83.5291,-3.90564,127.343,0.244141,0,0,-0.350952,0.27243,0.60791,-0.65799,25.1833,57.7417,-30.2417,-2295,-29471
353760,0.679492,-9.74736,1.10537,-83.5291,-3.90564,127.343,0.0610352,0.0610352,0.12207,-0.350952,0.27243,0.60791,-0.65799,25.4333,57.7417,-30.1917,-2295,-29471
353766,0.679492,-9.72822,1.08623,-83.5291,-3.90564,127.343,0.183105,0,0.12207,-0.350952,0.27243,0.60791,-0.65799,25.2417,57.7417,-30.1583,-2295,-29471
353772,0.679492,-9.73301,1.08623,-83.5291,-3.90564,127.343,0.0610352,0,0,-0.350952,0.27243,0.60791,-0.65799,25.075,57.7417,-30.1333,-2295,-29471
353778,0.698633,-9.75215,1.06709,-83.5291,-3.90564,127.343,0.0610352,0,0.0610352,-0.350952,0.27243,0.60791,-0.65799,24.925,57.7333,-30.125,-2295,-29471
353784,0.665137,-9.73779,1.07666,-83.5291,-3.90564,127.343,0.183105,0,0.0610352,-0.350952,0.27243,0.60791,-0.65799,25.075,57.7333,-30.1667,-2295,-29471
353790,0.669922,-9.71865,1.07666,-83.5291,-3.90564,127.343,0.0610352,0.183105,0.0610352,-0.350922,0.27243,0.60791,-0.65799,25.3333,57.75,-30.1917,-2295,-29471
353796,0.641211,-9.72822,1.09102,-83.5291,-3.90564,127.343,0.183105,0,0,-0.350952,0.27243,0.60788,-0.65799,25.5583,57.7667,-30.2,-2295,-29471
353802,0.698633,-9.73301,1.08623,-83.5291,-3.90564,127.343,0.12207,0,0.183105,-0.350952,0.27243,0.60788,-0.65799,25.7583,57.7917,-30.2083,-2295,-29471
353808,0.669922,-9.74258,1.04795,-83.5291,-3.90564,127.343,0.0610352,0.0610352,0,-0.350952,0.27243,0.60788,-0.65802,25.9583,57.7917,-30.2167,-2295,-29471
353814,0.660352,-9.73779,1.10059,-83.5291,-3.90564,127.343,0.183105,0,0.244141,-0.350922,0.27243,0.60788,-0.65802,25.9083,57.775,-30.2333,-2295,-29471
353820,0.684277,-9.74258,1.08145,-83.5291,-3.90564,127.343,0.0610352,0,-0.0610352,-0.350922,0.27243,0.60788,-0.65802,26.0917,57.7833,-30.2333,-2295,-29471
353826,0.679492,-9.7665,1.07666,-83.5291,-3.90564,127.343,0,0.0610352,-0.0610352,-0.350952,0.27243,0.60788,-0.65802,26.25,57.8,-30.2333,-2295,-29471
353832,0.674707,-9.77129,1.08145,-83.5291,-3.90564,127.343,0.305176,0.0610352,0.183105,-0.350952,0.27243,0.60788,-0.65802,26.4,57.8083,-30.2333,-2295,-29471
353838,0.689063,-9.73301,1.08145,-83.5291,-3.90564,127.343,0.12207,0.0610352,0,-0.350952,0.27243,0.60788,-0.65802,26.525,57.8167,-30.2333,-2295,-29471
353844,0.689063,-9.73301,1.07666,-83.5291,-3.90564,127.343,0.183105,0,-0.12207,-0.350952,0.27243,0.60788,-0.65802,25.95,57.825,-30.2667,-2295,-29471
353850,0.693848,-9.75693,1.0623,-83.5291,-3.90564,127.343,0.0610352,-0.0610352,0,-0.350952,0.27243,0.60788,-0.65802,25.7167,57.8167,-30.275,-2295,-29471
353856,0.679492,-9.75215,1.07187,-83.5291,-3.90564,127.343,0,0,0,-0.350952,0.27243,0.60788,-0.65802,25.5083,57.7917,-30.2667,-2295,-29471
353862,0.665137,-9.74736,1.07187,-83.5291,-3.90564,127.343,0,-0.12207,0,-0.350952,0.27243,0.60788,-0.65802,25.325,57.7667,-30.275,-2295,-29471
353868,0.708203,-9.73301,1.07666,-83.5291,-3.90564,127.343,0.0610352,0,0,-0.350952,0.27243,0.60788,-0.65802,25.15,57.75,-30.2833,-2295,-29471
353874,0.665137,-9.74736,1.08145,-83.5291,-3.90564,127.343,0,-0.0610352,0,-0.350952,0.27243,0.60788,-0.65802,25.2667,57.7667,-30.2917,-2295,-29471
353880,0.684277,-9.7665,1.07666,-83.5291,-3.90564,127.343,0,0,0.12207,-0.350952,0.2724,0.60788,-0.65802,25.5083,57.7917,-30.2667,-2295,-29471
353886,0.669922,-9.75693,1.0958,-83.5291,-3.90564,127.343,0,0,0.0610352,-0.350952,0.2724,0.60788,-0.65802,25.725,57.8083,-30.25,-2295,-29471
353892,0.669922,-9.75693,1.06709,-83.5291,-3.90564,127.343,0.12207,0.0610352,0.0610352,-0.350952,0.27243,0.60791,-0.65802,25.925,57.825,-30.2667,-2295,-29471
353898,0.684277,-9.76172,1.07666,-83.5291,-3.90564,127.343,0.183105,0,0.12207,-0.350952,0.27243,0.60788,-0.65802,26.0917,57.85,-30.2833,-2295,-29471
353904,0.712988,-9.7665,1.07666,-83.5291,-3.90564,127.343,0.0610352,0,0,-0.350952,0.27243,0.60788,-0.65802,25.975,57.8667,-30.3167,-2295,-29471
353910,0.684277,-9.77129,1.09102,-83.5291,-3.90564,127.343,0.0610352,0,0.0610352,-0.350952,0.27243,0.60788,-0.65802,26.15,57.85,-30.2917,-2295,-29471
353916,0.655566,-9.72344,1.06709,-83.5291,-3.90564,127.343,0.0610352,0,0.0610352,-0.350952,0.27243,0.60788,-0.65802,25.8833,57.8417,-30.25,-2295,-29471
353922,0.674707,-9.75693,1.08623,-83.5291,-3.90564,127.343,0.12207,0,0.12207,-0.350922,0.27243,0.60788,-0.65802,25.65,57.8333,-30.2167,-2295,-29471
353928,0.689063,-9.75215,1.07666,-83.5291,-3.90564,127.343,0.183105,0,0.0610352,-0.350922,0.27243,0.60788,-0.65802,25.4417,57.8167,-30.175,-2295,-29471
353934,0.693848,-9.72822,1.07187,-83.5291,-3.90564,127.343,0,0,0,-0.350922,0.27243,0.60788,-0.65802,25.5083,57.7917,-30.1417,-2295,-29471
353940,0.684277,-9.77129,1.07666,-83.5291,-3.90564,127.343,0.12207,0.12207,0,-0.350922,0.27243,0.60788,-0.65802,25.725,57.7833,-30.1333,-2295,-29471
353946,0.684277,-9.74258,1.05752,-83.5291,-3.90564,127.343,-0.0610352,0.0610352,-0.0610352,-0.350952,0.27243,0.60788,-0.65802,25.9167,57.7667,-30.125,-2295,-29471
353952,0.693848,-9.74258,1.05752,-83.5291,-3.90564,127.343,0.0610352,0,-0.0610352,-0.350952,0.27243,0.60788,-0.65802,26.0833,57.7667,-30.125,-2295,-29471
353958,0.679492,-9.75215,1.09102,-83.5291,-3.90564,127.343,0.0610352,0,0,-0.350952,0.27243,0.60788,-0.65802,26.225,57.775,-30.1583,-2295,-29471
353964,0.669922,-9.74736,1.07187,-83.5291,-3.90564,127.343,0,0.183105,-0.0610352,-0.350952,0.27243,0.60791,-0.65799,26.5083,57.7833,-30.2167,-2295,-29471
353970,0.674707,-9.77607,1.08623,-83.5291,-3.90564,127.343,0.0610352,0.183105,0,-0.350952,0.27243,0.60791,-0.65799,26.2083,57.7833,-30.2417,-2295,-29471
353976,0.684277,-9.78086,1.07666,-83.5291,-3.90564,127.337,0.0610352,0.0610352,0,-0.350952,0.27243,0.60791,-0.65799,25.9333,57.775,-30.2667,-2295,-29471
353982,0.679492,-9.74736,1.10537,-83.5291,-3.90564,127.337,0.0610352,0.0610352,0,-0.350952,0.27243,0.60791,-0.65799,25.6917,57.775,-30.2667,-2295,-29471
353988,0.674707,-9.7665,1.09102,-83.5291,-3.90564,127.337,0.12207,0,0.0610352,-0.350952,0.27243,0.60791,-0.65799,25.4667,57.7667,-30.2667,-2295,-29471
353994,0.679492,-9.73779,1.08145,-83.5291,-3.90564,127.337,0.183105,0.0610352,0,-0.350983,0.27243,0.60788,-0.65799,25.8917,57.7583,-30.2333,-2286,-29472
354000,0.698633,-9.76172,1.10059,-83.5291,-3.90564,127.337,0,0.0610352,0.12207,-0.350983,0.27243,0.60788,-0.65799,26.05,57.7583,-30.2417,-2286,-29472
354006,0.674707,-9.73301,1.07666,-83.5291,-3.90564,127.337,0,0,0,-0.350983,0.27243,0.60788,-0.65799,26.1917,57.75,-30.2667,-2286,-29472
354012,0.655566,-9.73301,1.12451,-83.5291,-3.90564,127.337,0,0,0.183105,-0.350983,0.27243,0.60791,-0.65799,26.3167,57.7583,-30.2833,-2295,-29471
354018,0.712988,-9.74736,1.10537,-83.5291,-3.90564,127.337,0.0610352,0.0610352,0,-0.350952,0.27243,0.60791,-0.65799,26.4333,57.7583,-30.2917,-2295,-29471
354024,0.698633,-9.77607,1.07666,-83.5291,-3.90564,127.337,0,-0.0610352,0.183105,-0.350952,0.27243,0.60791,-0.65799,26.6583,57.7667,-30.275,-2295,-29471
354030,0.669922,-9.76172,1.09102,-83.5291,-3.90564,127.337,0.183105,0.12207,0.0610352,-0.350952,0.27243,0.60788,-0.65799,26.7417,57.775,-30.2583,-2295,-29471
354036,0.655566,-9.73779,1.12451,-83.5291,-3.90564,127.337,0.12207,0,0.244141,-0.350952,0.272461,0.60788,-0.65799,26.825,57.7833,-30.2833,-2295,-29471
354042,0.679492,-9.75693,1.08623,-83.5291,-3.90564,127.337,0.0610352,-0.0610352,0,-0.350952,0.272461,0.60788,-0.65799,26.9083,57.7917,-30.2917,-2295,-29471
354048,0.669922,-9.78564,1.03838,-83.5291,-3.90564,127.337,0.0610352,0,0.244141,-0.350952,0.272461,0.60788,-0.65799,26.9833,57.8,-30.3083,-2295,-29471
354054,0.708203,-9.76172,1.05752,-83.5291,-3.90015,127.337,0.244141,0,0.244141,-0.350952,0.272461,0.60788,-0.65802,26.325,57.8083,-30.3083,-2295,-29471
354060,0.689063,-9.73301,1.08145,-83.5291,-3.90015,127.337,0.12207,0.0610352,0.305176,-0.350952,0.272461,0.60788,-0.65802,26.4667,57.8167,-30.2917,-2295,-29471
354066,0.669922,-9.7665,1.07666,-83.5291,-3.90015,127.337,0.183105,0,0.244141,-0.350952,0.272461,0.607849,-0.65802,26.5917,57.825,-30.2917,-2295,-29471
354072,0.660352,-9.72822,1.07187,-83.5291,-3.90015,127.337,0.12207,0,0.183105,-0.350922,0.272461,0.607849,-0.65802,26.7,57.8417,-30.3,-2295,-29471
354078,0.669922,-9.73301,1.08623,-83.5291,-3.90015,127.337,0.0610352,0.0610352,0.305176,-0.350922,0.272461,0.607849,-0.65802,26.7917,57.85,-30.3,-2295,-29471
354084,0.655566,-9.74258,1.08623,-83.5291,-3.89465,127.337,0.12207,0.0610352,0.427246,-0.350922,0.272491,0.607849,-0.658051,26.5833,57.8417,-30.325,-2295,-29471
354090,0.665137,-9.72344,1.07187,-83.5291,-3.89465,127.337,0.0610352,-0.0610352,0.0610352,-0.350922,0.272491,0.607849,-0.658051,26.6833,57.825,-30.325,-2295,-29471
354096,0.684277,-9.72344,1.11494,-83.5291,-3.89465,127.337,0.0610352,-0.0610352,0.183105,-0.350922,0.272491,0.607849,-0.658051,26.7833,57.8167,-30.325,-2295,-29471
354102,0.689063,-9.73301,1.08145,-83.5291,-3.89465,127.337,0,-0.0610352,0.305176,-0.350891,0.272491,0.607849,-0.658051,26.85,57.8083,-30.3,-2295,-29471
354108,0.660352,-9.75215,1.08145,-83.5291,-3.89465,127.337,0,0,0,-0.350891,0.272491,0.607849,-0.658051,26.9167,57.8167,-30.2833,-2295,-29471
354114,0.684277,-9.7665,1.10059,-83.5291,-3.89465,127.337,0,0,0,-0.350891,0.272491,0.607849,-0.658051,27.0583,57.8,-30.2333,-2295,-29471
354120,0.669922,-9.75693,1.08145,-83.5291,-3.89465,127.337,0,0,0,-0.350891,0.272491,0.607849,-0.658051,27.1083,57.7917,-30.2,-2295,-29471
354126,0.674707,-9.73301,1.07666,-83.5291,-3.89465,127.337,0,0,0,-0.350891,0.272491,0.607849,-0.65802,27.1583,57.7833,-30.175,-2295,-29471
354132,0.679492,-9.72344,1.07187,-83.5291,-3.89465,127.337,0,0,0,-0.350891,0.272491,0.607849,-0.65802,27.2,57.775,-30.1417,-2295,-29471
354138,0.665137,-9.77607,1.07666,-83.5291,-3.89465,127.337,0,0,0,-0.350891,0.272491,0.607849,-0.65802,27.2333,57.775,-30.1417,-2295,-29471
354144,0.669922,-9.7665,1.0623,-83.5291,-3.89465,127.337,0,0,0,-0.350891,0.272491,0.60788,-0.65802,27.275,57.8,-30.1,-2295,-29471
354150,0.679492,-9.74736,1.07187,-83.5291,-3.89465,127.337,0,0,0,-0.350891,0.272491,0.60788,-0.65802,27.3,57.8083,-30.0917,-2295,-29471
354156,0.689063,-9.75215,1.11494,-83.5291,-3.89465,127.337,0,0,0,-0.350891,0.272491,0.60788,-0.65802,27.325,57.8083,-30.075,-2295,-29471
354162,0.669922,-9.74736,1.0958,-83.5291,-3.89465,127.337,0,0,0,-0.350891,0.272491,0.60788,-0.65802,27.3583,57.8083,-30.0667,-2295,-29471
354168,0.698633,-9.74736,1.10059,-83.5291,-3.89465,127.337,0,0,0,-0.350891,0.272491,0.60788,-0.65802,26.975,57.7917,-30.0667,-2295,-29471
354174,0.689063,-9.75215,1.0958,-83.5345,-3.89465,127.337,0,0,0,-0.350891,0.272491,0.60788,-0.65802,27.1,57.7667,-30.05,-2295,-29471
354180,0.655566,-9.73779,1.10059,-83.5345,-3.89465,127.337,0,0,0,-0.350891,0.272491,0.60788,-0.65802,27.15,57.775,-30.0417,-2295,-29471
354186,0.674707,-9.75693,1.10537,-83.5345,-3.89465,127.337,0,0,0,-0.350891,0.272491,0.60788,-0.65802,27.2,57.7917,-30.05,-2295,-29471
354192,0.665137,-9.73301,1.07666,-83.5345,-3.89465,127.337,0,0,0,-0.350891,0.272491,0.60788,-0.65799,27.2417,57.8167,-30.0667,-2295,-29471
354198,0.655566,-9.74258,1.08623,-83.5345,-3.89465,127.337,0,0,0,-0.350891,0.272491,0.60788,-0.65799,27.2667,57.8333,-30.0833,-2295,-29471
354204,0.655566,-9.74258,1.07187,-83.5345,-3.89465,127.337,0,0,0,-0.350891,0.272491,0.60788,-0.65799,27.3167,57.8167,-30.1083,-2295,-29471
354210,0.669922,-9.72822,1.05752,-83.5345,-3.89465,127.337,0,0,0,-0.350891,0.272491,0.60791,-0.65799,27.35,57.8,-30.125,-2295,-29471
354216,0.669922,-9.76172,1.07187,-83.5345,-3.89465,127.337,0,0,0,-0.350891,0.272491,0.60791,-0.65799,27.3833,57.775,-30.1417,-2295,-29471
354222,0.679492,-9.75693,1.08623,-83.5345,-3.89465,127.337,0,0,0,-0.350891,0.272491,0.60791,-0.65799,27.4167,57.7583,-30.1583,-2295,-29471
354228,0.689063,-9.7665,1.08623,-83.5345,-3.89465,127.337,0,0,0,-0.350891,0.272491,0.60791,-0.65799,27.4417,57.75,-30.1667,-2295,-29471
354234,0.665137,-9.76172,1.0623,-83.5345,-3.89465,127.337,0,0,0,-0.350891,0.272491,0.60791,-0.65799,27.1167,57.75,-30.1417,-2295,-29471
354240,0.684277,-9.75693,1.08145,-83.5345,-3.89465,127.337,0,0,0,-0.350891,0.272491,0.60791,-0.65799,27.1667,57.7583,-30.125,-2295,-29471
354246,0.689063,-9.74736,1.08623,-83.5345,-3.90015,127.337,0,0,0,-0.350891,0.272491,0.60791,-0.65799,27.225,57.775,-30.1167,-2295,-29471
354252,0.674707,-9.72344,1.12451,-83.5345,-3.90015,127.337,0,0,0,-0.350891,0.272491,0.60791,-0.65799,27.2667,57.7833,-30.1,-2295,-29471
354258,0.669922,-9.71865,1.0958,-83.54,-3.90015,127.337,0,0,0,-0.350891,0.272491,0.60791,-0.65799,27.275,57.7917,-30.1,-2295,-29471
354264,0.655566,-9.76172,1.10059,-83.54,-3.90015,127.337,0,0,0,-0.350891,0.272491,0.60791,-0.657959,27.3,57.7917,-30.05,-2295,-29471
354270,0.650781,-9.72344,1.0623,-83.54,-3.90015,127.337,0,0,0,-0.350891,0.272522,0.60791,-0.657959,27.3333,57.775,-30.0833,-2295,-29471
354276,0.693848,-9.76172,1.05273,-83.54,-3.90015,127.337,0,0,0,-0.350891,0.272522,0.607941,-0.657959,26.9583,57.7583,-30.125,-2295,-29471
354282,0.660352,-9.74736,1.0623,-83.54,-3.90015,127.337,0,0,0,-0.350891,0.272522,0.607941,-0.657959,26.6167,57.7417,-30.1833,-2295,-29471
354288,0.679492,-9.74736,1.07666,-83.54,-3.90015,127.337,0,0,0,-0.350891,0.272522,0.607941,-0.657959,26.325,57.725,-30.225,-2295,-29471
354294,0.689063,-9.72822,1.08145,-83.54,-3.90015,127.337,0,0,0,-0.350891,0.272522,0.607941,-0.657959,25.7917,57.7083,-30.2167,-2295,-29471
354300,0.660352,-9.73779,1.10059,-83.54,-3.90015,127.337,0,0,0,-0.350891,0.272522,0.607941,-0.657959,25.9833,57.7083,-30.2167,-2295,-29471
354306,0.665137,-9.73779,1.10537,-83.54,-3.90015,127.337,0,0,0,-0.350891,0.272522,0.607941,-0.657959,25.7333,57.7167,-30.2333,-2295,-29471
354312,0.689063,-9.75215,1.08623,-83.54,-3.90015,127.337,0,0,0,-0.350891,0.272522,0.607941,-0.657959,25.5167,57.7167,-30.25,-2295,-29471
354318,0.669922,-9.74736,1.07666,-83.54,-3.90015,127.337,0,0,0,-0.350891,0.272522,0.607941,-0.657959,25.325,57.725,-30.2667,-2295,-29471
354324,0.669922,-9.74736,1.0958,-83.54,-3.90015,127.337,0,0,0,-0.350891,0.272522,0.607941,-0.657959,25.4,57.725,-30.3,-2295,-29471
354330,0.689063,-9.78086,1.0623,-83.54,-3.90015,127.337,0,0,0,-0.350891,0.272522,0.607941,-0.657959,25.6333,57.725,-30.2917,-2295,-29471
354336,0.674707,-9.72822,1.08623,-83.5455,-3.90015,127.337,0,0,0,-0.350891,0.272522,0.607941,-0.657928,25.8333,57.7333,-30.2917,-2295,-29471
354342,0.660352,-9.72822,1.10537,-83.5455,-3.90015,127.337,0,0,0,-0.350891,0.272522,0.607941,-0.657928,26.0167,57.7417,-30.2917,-2295,-29471
354348,0.665137,-9.72344,1.11016,-83.5455,-3.90015,127.337,0,0,0,-0.350891,0.272522,0.607971,-0.657928,25.7667,57.7417,-30.3,-2295,-29471
354354,0.645996,-9.77607,1.03838,-83.5455,-3.90015,127.337,0,0,0,-0.350891,0.272522,0.607971,-0.657928,25.3583,57.7583,-30.2917,-2286,-29472
354360,0.717773,-9.8,1.17715,-83.5455,-3.90015,127.337,0.610352,0,0.183105,-0.350891,0.272522,0.607971,-0.657928,25.1833,57.775,-30.2833,-2286,-29472
354366,0.593359,-9.55117,1.11494,-83.54,-3.90015,127.337,0.0610352,0.0610352,0,-0.350891,0.272522,0.607941,-0.657959,25.025,57.8,-30.2833,-2286,-29472
354372,0.669922,-9.75215,1.1293,-83.54,-3.90015,127.337,-0.549316,-0.183105,0,-0.350891,0.272522,0.607941,-0.657959,24.8667,57.8167,-30.2833,-2286,-29472
354378,0.717773,-9.79043,1.04316,-83.5455,-3.90015,127.343,0,0,-0.0610352,-0.350891,0.272522,0.607971,-0.657928,25.15,57.8417,-30.275,-2286,-29472
354384,0.645996,-9.75215,1.05752,-83.5455,-3.90015,127.343,0.12207,0,0,-0.350891,0.272522,0.607971,-0.657928,25.2167,57.8667,-30.2833,-2286,-29472
354390,0.674707,-9.72822,1.07666,-83.5455,-3.90015,127.343,0,0.0610352,-0.12207,-0.350891,0.272522,0.607971,-0.657928,25.0417,57.85,-30.2917,-2286,-29472
354396,0.674707,-9.75693,1.07187,-83.5455,-3.90015,127.343,0,-0.183105,-0.0610352,-0.350891,0.272522,0.607971,-0.657928,25.3083,57.825,-30.3,-2286,-29472
354402,0.679492,-9.75215,1.08145,-83.5455,-3.90015,127.343,0,-0.12207,-0.12207,-0.350891,0.272491,0.607971,-0.657928,25.5417,57.8083,-30.2917,-2286,-29472
354408,0.650781,-9.75215,1.07666,-83.5455,-3.90015,127.343,-0.12207,0,-0.12207,-0.350891,0.272491,0.607971,-0.657928,25.75,57.7917,-30.2667,-2286,-29472
354414,0.693848,-9.77129,1.05273,-83.5455,-3.90564,127.343,0.183105,0.0610352,-0.0610352,-0.350891,0.272491,0.608002,-0.657928,26.0917,57.8,-30.2083,-2286,-29472
354420,0.669922,-9.74258,1.07187,-83.5455,-3.90564,127.343,0,-0.12207,-0.0610352,-0.350891,0.272491,0.608002,-0.657898,26.2333,57.8,-30.1917,-2286,-29472
354426,0.689063,-9.73779,1.07666,-83.5455,-3.90564,127.343,-0.12207,0,-0.0610352,-0.350891,0.272491,0.608002,-0.657898,26.3833,57.8,-30.175,-2286,-29472
354432,0.684277,-9.74736,1.11016,-83.5455,-3.90564,127.343,0,-0.0610352,-0.183105,-0.350891,0.272491,0.608002,-0.657898,26.0917,57.8,-30.1583,-2286,-29472
354438,0.679492,-9.75215,1.09102,-83.5455,-3.90564,127.343,-0.0610352,0.0610352,-0.12207,-0.350891,0.272491,0.608002,-0.657898,25.8333,57.8,-30.1583,-2286,-29472
354444,0.698633,-9.7665,1.09102,-83.551,-3.90564,127.343,0,0,0,-0.350891,0.272491,0.608002,-0.657898,25.4083,57.7917,-30.175,-2286,-29472
354450,0.689063,-9.75215,1.09102,-83.551,-3.90564,127.343,-0.0610352,0,-0.366211,-0.350891,0.272491,0.608002,-0.657898,25.6333,57.7833,-30.2167,-2286,-29472
354456,0.674707,-9.75693,1.08145,-83.551,-3.91113,127.343,0,0,-0.0610352,-0.350922,0.272461,0.608032,-0.657867,25.425,57.7583,-30.2417,-2286,-29472
354462,0.669922,-9.76172,1.10059,-83.551,-3.91113,127.343,0,0,-0.0610352,-0.350922,0.272461,0.608032,-0.657867,25.65,57.7333,-30.275,-2286,-29472
354468,0.679492,-9.71865,1.07187,-83.551,-3.91113,127.343,0,0,-0.0610352,-0.350922,0.272461,0.608032,-0.657867,25.85,57.7167,-30.2917,-2286,-29472
354474,0.669922,-9.74258,1.07187,-83.551,-3.91113,127.343,0,0,-0.0610352,-0.350922,0.272461,0.608032,-0.657867,26.1917,57.6917,-30.2667,-2286,-29472
354480,0.674707,-9.74258,1.0958,-83.551,-3.91113,127.343,0.0610352,0,-0.244141,-0.350922,0.272461,0.608032,-0.657867,26.3333,57.7,-30.2417,-2286,-29472
354486,0.665137,-9.72344,1.11973,-83.551,-3.91113,127.343,0.0610352,0,-0.0610352,-0.350922,0.272461,0.608032,-0.657867,26.4667,57.6917,-30.2667,-2286,-29472
354492,0.665137,-9.75693,1.07666,-83.551,-3.91113,127.343,0,0,0,-0.350922,0.272461,0.608032,-0.657867,26.5917,57.6917,-30.3,-2286,-29472
354498,0.689063,-9.75215,1.08623,-83.551,-3.91113,127.343,0,0,0,-0.350922,0.272461,0.608032,-0.657867,26.7083,57.6833,-30.3333,-2286,-29472
354504,0.703418,-9.77607,1.03838,-83.551,-3.91113,127.343,0,-0.0610352,0,-0.350922,0.272461,0.608032,-0.657867,26.1083,57.6333,-30.3833,-2286,-29472
354510,0.674707,-9.75215,1.08145,-83.551,-3.91113,127.343,0.183105,0.0610352,0,-0.350952,0.272461,0.608032,-0.657867,25.85,57.625,-30.35,-2286,-29472
354516,0.665137,-9.72822,1.11016,-83.551,-3.91113,127.337,0.0610352,0.0610352,0,-0.350952,0.272461,0.608032,-0.657867,26.025,57.625,-30.3167,-2286,-29472
354522,0.712988,-9.74258,1.09102,-83.551,-3.91113,127.337,0,0.0610352,0,-0.350952,0.272461,0.608032,-0.657867,26.1833,57.65,-30.2833,-2286,-29472
354528,0.679492,-9.78564,1.09102,-83.551,-3.91663,127.337,-0.0610352,0,-0.12207,-0.350952,0.272461,0.608032,-0.657867,26.3083,57.6583,-30.275,-2286,-29472
354534,0.708203,-9.74736,1.08145,-83.551,-3.91663,127.337,0,0.0610352,0,-0.350952,0.272461,0.608032,-0.657867,26.55,57.7167,-30.2417,-2286,-29472
354540,0.660352,-9.72822,1.07187,-83.551,-3.91663,127.337,0,0.0610352,0,-0.350952,0.272461,0.608032,-0.657837,26.65,57.7333,-30.225,-2286,-29472
354546,0.689063,-9.73779,1.10059,-83.551,-3.91663,127.337,0,-0.0610352,-0.0610352,-0.350952,0.272461,0.608032,-0.657837,26.7417,57.7667,-30.2167,-2286,-29472
354552,0.665137,-9.75693,1.08145,-83.551,-3.91663,127.337,0,0,-0.0610352,-0.350952,0.272461,0.608032,-0.657837,26.8333,57.7917,-30.225,-2286,-29472
354558,0.684277,-9.74258,1.08623,-83.551,-3.91663,127.337,-0.12207,-0.0610352,-0.12207,-0.350952,0.272461,0.608032,-0.657837,26.9167,57.8167,-30.225,-2286,-29472
354564,0.660352,-9.73779,1.0958,-83.551,-3.91663,127.337,0,0.244141,0,-0.350952,0.272461,0.608063,-0.657837,26.65,57.825,-30.2417,-2286,-29472
354570,0.674707,-9.75215,1.08623,-83.551,-3.91663,127.337,-0.0610352,0,0,-0.350952,0.272461,0.608063,-0.657837,26.3333,57.8083,-30.225,-2286,-29472
354576,0.650781,-9.74258,1.10537,-83.5565,-3.91663,127.337,0,0,0,-0.350952,0.272461,0.608063,-0.657837,26.4667,57.7833,-30.2167,-2286,-29472
354582,0.655566,-9.73779,1.08623,-83.5565,-3.91663,127.337,0,0,0,-0.350952,0.272461,0.608063,-0.657837,26.575,57.7667,-30.2,-2286,-29472
354588,0.660352,-9.73301,1.10537,-83.5565,-3.91663,127.337,0,-0.0610352,0.0610352,-0.350952,0.272461,0.608063,-0.657837,26.6667,57.7583,-30.1833,-2286,-29472
354594,0.674707,-9.75215,1.07666,-83.5565,-3.91663,127.337,0,0,-0.0610352,-0.350952,0.272461,0.608063,-0.657837,26.8417,57.775,-30.1583,-2286,-29472
354600,0.693848,-9.73301,1.0958,-83.5565,-3.91663,127.337,0,0,0,-0.350952,0.272461,0.608063,-0.657837,26.9333,57.7833,-30.1583,-2286,-29472
354606,0.674707,-9.74258,1.0958,-83.5565,-3.91663,127.337,0,-0.12207,0,-0.350952,0.272461,0.608063,-0.657806,26.5917,57.7917,-30.1667,-2286,-29472
354612,0.684277,-9.73301,1.08623,-83.5565,-3.91663,127.337,0,0,0,-0.350952,0.272461,0.608063,-0.657806,26.3,57.7917,-30.2,-2286,-29472
354618,0.679492,-9.79043,1.05273,-83.5565,-3.91663,127.337,0,0,0.12207,-0.350952,0.272461,0.608063,-0.657806,26.0417,57.7833,-30.2417,-2286,-29472
354624,0.660352,-9.76172,1.08145,-83.5565,-3.91663,127.337,0,0,0,-0.350952,0.272461,0.608063,-0.657806,25.575,57.7583,-30.3,-2286,-29472
354630,0.684277,-9.72344,1.0958,-83.5565,-3.91663,127.337,0,0,-0.183105,-0.350952,0.272461,0.608063,-0.657806,25.7833,57.75,-30.325,-2286,-29472
354636,0.689063,-9.74258,1.09102,-83.5565,-3.91663,127.337,0,-0.12207,-0.183105,-0.350952,0.27243,0.608063,-0.657806,25.975,57.7417,-30.3583,-2286,-29472
354642,0.679492,-9.76172,1.05752,-83.5565,-3.92212,127.337,0,0,-0.0610352,-0.350952,0.27243,0.608093,-0.657806,26.1417,57.7417,-30.3583,-2286,-29472
354648,0.669922,-9.76172,1.06709,-83.5565,-3.92212,127.337,0.0610352,0.0610352,-0.0610352,-0.350952,0.27243,0.608093,-0.657806,26.3,57.75,-30.3417,-2286,-29472
354654,0.655566,-9.75215,1.08145,-83.5565,-3.92212,127.337,0,0.183105,-0.183105,-0.350983,0.27243,0.608093,-0.657806,25.775,57.7417,-30.3167,-2286,-29472
354660,0.679492,-9.72822,1.07666,-83.5565,-3.92212,127.337,0,0,-0.0610352,-0.350983,0.27243,0.608093,-0.657806,25.5417,57.7417,-30.3083,-2286,-29472
354666,0.703418,-9.73779,1.0958,-83.5565,-3.92212,127.337,-0.12207,0,-0.12207,-0.350983,0.27243,0.608093,-0.657806,25.3417,57.75,-30.3167,-2286,-29472
354672,0.674707,-9.74736,1.09102,-83.5565,-3.92212,127.337,-0.0610352,0.0610352,-0.12207,-0.350983,0.27243,0.608093,-0.657776,25.1583,57.7667,-30.325,-2286,-29472
354678,0.679492,-9.77129,1.0958,-83.5565,-3.92212,127.337,-0.12207,0.0610352,0,-0.350983,0.27243,0.608093,-0.657776,25.4167,57.7667,-30.3333,-2286,-29472
354684,0.674707,-9.73779,1.0958,-83.562,-3.92212,127.337,-0.12207,0,-0.183105,-0.350983,0.27243,0.608093,-0.657776,25.825,57.7583,-30.325,-2286,-29472
354690,0.679492,-9.75693,1.0958,-83.562,-3.92761,127.337,0,0.0610352,-0.12207,-0.351013,0.27243,0.608124,-0.657776,25.9833,57.75,-30.275,-2286,-29472
354696,0.679492,-9.76172,1.07666,-83.562,-3.92761,127.337,-0.183105,0,-0.183105,-0.351013,0.27243,0.608124,-0.657745,26.125,57.7583,-30.225,-2286,-29472
354702,0.665137,-9.75215,1.06709,-83.562,-3.92761,127.337,-0.12207,0.0610352,-0.12207,-0.351013,0.27243,0.608124,-0.657745,26.2667,57.7583,-30.1667,-2286,-29472
354708,0.660352,-9.75215,1.08623,-83.562,-3.92761,127.337,0,0,-0.12207,-0.351013,0.27243,0.608124,-0.657745,26.4,57.7667,-30.1417,-2286,-29472
354714,0.674707,-9.76172,1.07666,-83.562,-3.92761,127.332,-0.0610352,0,-0.183105,-0.351013,0.27243,0.608124,-0.657745,26.6167,57.7917,-30.175,-2286,-29472
354720,0.679492,-9.73301,1.08145,-83.562,-3.93311,127.332,0,0,0,-0.351013,0.27243,0.608154,-0.657715,26.7,57.8083,-30.1833,-2286,-29472
354726,0.679492,-9.74258,1.07666,-83.562,-3.93311,127.332,0,0,-0.12207,-0.351013,0.27243,0.608154,-0.657715,26.775,57.8167,-30.2,-2286,-29472
354732,0.669922,-9.74258,1.11494,-83.562,-3.93311,127.332,0.0610352,0,-0.183105,-0.351013,0.27243,0.608154,-0.657715,26.85,57.825,-30.2083,-2286,-29472
354738,0.660352,-9.73779,1.08623,-83.562,-3.93311,127.332,0.0610352,0,-0.0610352,-0.351044,0.27243,0.608154,-0.657715,26.9167,57.8167,-30.2167,-2286,-29472
354744,0.660352,-9.74736,1.07666,-83.562,-3.93311,127.332,0,0,-0.183105,-0.351044,0.2724,0.608154,-0.657715,27.05,57.85,-30.2583,-2286,-29472
354750,0.674707,-9.74736,1.07187,-83.562,-3.93311,127.332,0,-0.0610352,0,-0.351044,0.2724,0.608154,-0.657715,27.1083,57.8583,-30.2833,-2286,-29472
354756,0.660352,-9.72822,1.0958,-83.5675,-3.93311,127.332,0,0.12207,-0.0610352,-0.351044,0.2724,0.608154,-0.657715,26.75,57.875,-30.2833,-2286,-29472
354762,0.669922,-9.73779,1.08623,-83.5675,-3.93311,127.332,0,0,-0.183105,-0.351044,0.2724,0.608154,-0.657715,26.85,57.875,-30.275,-2286,-29472
354768,0.679492,-9.75215,1.08623,-83.5675,-3.93311,127.332,-0.12207,-0.0610352,-0.0610352,-0.351044,0.2724,0.608154,-0.657715,26.925,57.8667,-30.2667,-2286,-29472
354774,0.674707,-9.77607,1.09102,-83.5675,-3.9386,127.332,-0.12207,0,-0.183105,-0.351044,0.2724,0.608154,-0.657715,27.0667,57.8333,-30.2667,-2286,-29472
354780,0.689063,-9.75215,1.0958,-83.5675,-3.9386,127.332,0,-0.0610352,0,-0.351044,0.2724,0.608185,-0.657684,27.125,57.825,-30.2833,-2286,-29472
354786,0.660352,-9.73301,1.09102,-83.5675,-3.9386,127.332,0,-0.0610352,-0.183105,-0.351044,0.2724,0.608185,-0.657684,27.1833,57.8083,-30.3083,-2286,-29472
354792,0.645996,-9.75215,1.04795,-83.5675,-3.9386,127.332,-0.0610352,-0.183105,-0.183105,-0.351044,0.2724,0.608185,-0.657684,27.2333,57.8,-30.3417,-2286,-29472
354798,0.679492,-9.73301,1.0958,-83.5675,-3.9386,127.337,-0.0610352,-0.0610352,-0.183105,-0.351044,0.272369,0.608185,-0.657684,27.2667,57.8,-30.3417,-2286,-29472
354804,0.669922,-9.74258,1.0958,-83.5675,-3.9386,127.337,-0.183105,-0.0610352,-0.183105,-0.351044,0.272369,0.608185,-0.657684,27.3167,57.825,-30.3,-2286,-29472
354810,0.679492,-9.74736,1.05752,-83.573,-3.94409,127.337,-0.0610352,0,-0.366211,-0.351044,0.272369,0.608215,-0.657654,27.3333,57.85,-30.2833,-2286,-29472
354816,0.655566,-9.75693,1.08145,-83.573,-3.94409,127.337,0.0610352,-0.12207,-0.305176,-0.351074,0.272369,0.608215,-0.657654,27.375,57.8583,-30.2917,-2286,-29472
354822,0.684277,-9.74258,1.08623,-83.573,-3.94409,127.337,0,0.0610352,-0.183105,-0.351074,0.272339,0.608246,-0.657654,27.4,57.85,-30.325,-2286,-29472
354828,0.655566,-9.74258,1.10059,-83.573,-3.94409,127.337,-0.12207,-0.0610352,-0.183105,-0.351074,0.272339,0.608246,-0.657654,27.0083,57.8333,-30.3417,-2286,-29472
354834,0.698633,-9.76172,1.0958,-83.573,-3.94958,127.337,0,-0.0610352,-0.183105,-0.351074,0.272339,0.608246,-0.657654,26.7583,57.8,-30.3667,-2286,-29472
354840,0.684277,-9.74736,1.0623,-83.573,-3.94958,127.337,-0.0610352,0,-0.183105,-0.351105,0.272308,0.608246,-0.657623,26.85,57.8083,-30.3667,-2286,-29472
354846,0.660352,-9.76172,1.09102,-83.573,-3.94958,127.337,0,0,-0.183105,-0.351105,0.272308,0.608246,-0.657623,26.9167,57.825,-30.4,-2286,-29472
354852,0.665137,-9.75693,1.0958,-83.573,-3.94958,127.337,0,0,-0.183105,-0.351105,0.272308,0.608276,-0.657623,26.9833,57.8417,-30.425,-2286,-29472
354858,0.669922,-9.72822,1.08623,-83.573,-3.95508,127.337,-0.0610352,-0.12207,-0.305176,-0.351105,0.272308,0.608276,-0.657623,27.0333,57.8667,-30.4583,-2286,-29472
354864,0.674707,-9.74258,1.10059,-83.5785,-3.95508,127.337,-0.244141,0,-0.183105,-0.351105,0.272308,0.608276,-0.657623,27.1083,57.8833,-30.4583,-2286,-29472
354870,0.679492,-9.75693,1.07187,-83.5785,-3.95508,127.337,-0.12207,-0.0610352,-0.12207,-0.351105,0.272308,0.608276,-0.657593,27.1417,57.8667,-30.4417,-2286,-29472
354876,0.684277,-9.77129,1.08623,-83.5785,-3.95508,127.337,0,0,-0.244141,-0.351105,0.272308,0.608307,-0.657593,27.175,57.85,-30.4,-2286,-29472
354882,0.650781,-9.74258,1.10059,-83.5785,-3.95508,127.337,0,0,-0.0610352,-0.351105,0.272278,0.608307,-0.657593,27.2167,57.85,-30.375,-2286,-29472
354888,0.660352,-9.73779,1.10059,-83.5785,-3.95508,127.337,-0.183105,-0.0610352,-0.183105,-0.351105,0.272278,0.608307,-0.657593,27.2583,57.8417,-30.3583,-2286,-29472
354894,0.674707,-9.7665,1.0958,-83.5785,-3.96057,127.337,-0.12207,0.183105,-0.183105,-0.351105,0.272278,0.608307,-0.657593,27.3333,57.8333,-30.35,-2286,-29472
354900,0.689063,-9.74258,1.08623,-83.5785,-3.96057,127.337,-0.244141,0,0,-0.351135,0.272278,0.608337,-0.657562,27.3583,57.8167,-30.35,-2286,-29472
354906,0.679492,-9.75215,1.08623,-83.5785,-3.96057,127.337,-0.12207,-0.12207,-0.305176,-0.351135,0.272278,0.608337,-0.657562,27.3917,57.8167,-30.325,-2286,-29472
354912,0.689063,-9.73301,1.08145,-83.584,-3.96057,127.337,-0.183105,-0.0610352,-0.12207,-0.351135,0.272278,0.608337,-0.657562,27.4083,57.8083,-30.3167,-2286,-29472
354918,0.669922,-9.72822,1.10059,-83.584,-3.96606,127.337,0,-0.0610352,-0.12207,-0.351135,0.272278,0.608337,-0.657532,27.4417,57.8083,-30.3167,-2286,-29472
354924,0.669922,-9.74258,1.10059,-83.584,-3.96606,127.337,0,0,-0.244141,-0.351135,0.272278,0.608368,-0.657532,27.4917,57.8,-30.3333,-2286,-29472
354930,0.669922,-9.76172,1.05752,-83.584,-3.96606,127.337,-0.12207,-0.183105,-0.366211,-0.351135,0.272247,0.608368,-0.657532,27.5167,57.7917,-30.3667,-2286,-29472
354936,0.679492,-9.76172,1.07187,-83.584,-3.96606,127.337,0,-0.0610352,-0.183105,-0.351135,0.272247,0.608368,-0.657532,27.5333,57.8,-30.3917,-2286,-29472
354942,0.660352,-9.77129,1.04795,-83.584,-3.96606,127.337,0,-0.0610352,-0.183105,-0.351135,0.272247,0.608368,-0.657532,27.5417,57.8,-30.4167,-2286,-29472
354948,0.693848,-9.74258,1.08623,-83.584,-3.97156,127.337,0.0610352,-0.244141,-0.244141,-0.351135,0.272217,0.608368,-0.657532,27.5333,57.8083,-30.4167,-2286,-29472
354954,0.669922,-9.77607,1.09102,-83.584,-3.97156,127.337,0,0,-0.183105,-0.351135,0.272217,0.608398,-0.657532,27.5417,57.825,-30.4333,-2286,-29472
354960,0.693848,-9.74736,1.07187,-83.584,-3.97156,127.343,0,0,-0.183105,-0.351166,0.272217,0.608398,-0.657532,27.5583,57.825,-30.4167,-2286,-29472
354966,0.698633,-9.77607,1.05752,-83.584,-3.97156,127.343,0.12207,0.0610352,-0.0610352,-0.351166,0.272217,0.608398,-0.657501,27.1667,57.8083,-30.4083,-2286,-29472
354972,0.698633,-9.74736,1.08145,-83.584,-3.97156,127.337,0.183105,0.0610352,0,-0.351166,0.272217,0.608398,-0.657501,26.8167,57.8,-30.3833,-2286,-29472
354978,0.684277,-9.7665,1.11494,-83.584,-3.97156,127.337,0,0,0,-0.351166,0.272217,0.608398,-0.657532,26.5083,57.7833,-30.35,-2286,-29472
354984,0.660352,-9.70908,1.11494,-83.584,-3.97156,127.337,0,0,0,-0.351166,0.272217,0.608398,-0.657532,25.975,57.7583,-30.3083,-2286,-29472
354990,0.679492,-9.73779,1.10537,-83.584,-3.97156,127.337,-0.0610352,0,0,-0.351166,0.272217,0.608398,-0.657501,25.7333,57.75,-30.2917,-2286,-29472
354996,0.679492,-9.72344,1.11494,-83.584,-3.97156,127.337,0,0,0,-0.351166,0.272217,0.608398,-0.657501,25.5083,57.75,-30.2833,-2286,-29472
355002,0.674707,-9.73301,1.08623,-83.584,-3.97156,127.337,0,0.0610352,-0.0610352,-0.351166,0.272217,0.608398,-0.657501,25.7333,57.7417,-30.25,-2286,-29472
355008,0.660352,-9.71865,1.09102,-83.584,-3.97156,127.337,-0.183105,0,-0.183105,-0.351166,0.272217,0.608398,-0.657501,25.9333,57.7417,-30.2333,-2286,-29472
355014,0.655566,-9.73779,1.07666,-83.5895,-3.97705,127.337,-0.183105,0,0,-0.351166,0.272217,0.608398,-0.657501,25.6917,57.7667,-30.2417,-2286,-29472
355020,0.674707,-9.73301,1.08145,-83.5895,-3.97705,127.337,-0.12207,-0.183105,0,-0.351166,0.272217,0.608429,-0.657501,26.075,57.7833,-30.2417,-2286,-29472
355026,0.693848,-9.72822,1.10059,-83.5895,-3.97705,127.343,-0.183105,-0.183105,-0.12207,-0.351166,0.272217,0.608429,-0.657501,26.2333,57.7917,-30.2417,-2286,-29472
355032,0.689063,-9.74736,1.06709,-83.5895,-3.97705,127.343,0,-0.183105,0,-0.351166,0.272186,0.608429,-0.657471,26.375,57.7917,-30.225,-2286,-29472
355038,0.684277,-9.77607,1.08145,-83.5895,-3.97705,127.343,-0.12207,-0.183105,0,-0.351135,0.272186,0.608429,-0.657501,26.5,57.7917,-30.2167,-2286,-29472
355044,0.669922,-9.73779,1.04316,-83.5895,-3.97705,127.343,0,-0.0610352,-0.183105,-0.351135,0.272186,0.608459,-0.657471,25.9333,57.7833,-30.1667,-2286,-29472
355050,0.684277,-9.75693,1.0623,-83.5895,-3.97705,127.343,0,-0.12207,-0.183105,-0.351135,0.272186,0.608459,-0.657471,25.6917,57.7667,-30.1333,-2286,-29472
355056,0.679492,-9.74736,1.08145,-83.5895,-3.97705,127.343,0,-0.0610352,-0.12207,-0.351135,0.272186,0.608459,-0.657471,25.8917,57.75,-30.125,-2286,-29472
355062,0.679492,-9.75215,1.05752,-83.5895,-3.97705,127.343,0,0,-0.12207,-0.351135,0.272156,0.608459,-0.657471,26.0667,57.7333,-30.125,-2286,-29472
355068,0.669922,-9.74736,1.0958,-83.5895,-3.97705,127.343,0,0,-0.0610352,-0.351166,0.272156,0.608459,-0.657471,26.225,57.7333,-30.15,-2286,-29472
355074,0.669922,-9.74736,1.10059,-83.5895,-3.97705,127.343,0.0610352,0.12207,0,-0.351166,0.272156,0.608459,-0.657471,26.4917,57.7667,-30.1833,-2286,-29472
355080,0.669922,-9.74736,1.0958,-83.595,-3.98254,127.343,0,0,-0.183105,-0.351166,0.272156,0.608459,-0.657471,26.1917,57.7917,-30.1917,-2286,-29472
355086,0.684277,-9.75215,1.07187,-83.595,-3.98254,127.343,-0.183105,-0.183105,0,-0.351166,0.272156,0.608459,-0.657471,25.9333,57.8083,-30.2083,-2286,-29472
355092,0.703418,-9.76172,1.08623,-83.595,-3.98254,127.343,-0.0610352,0,-0.12207,-0.351166,0.272156,0.60849,-0.657471,25.6917,57.8083,-30.225,-2286,-29472
355098,0.650781,-9.76172,1.10059,-83.595,-3.98254,127.343,-0.0610352,0.0610352,-0.12207,-0.351166,0.272156,0.60849,-0.657471,25.475,57.8,-30.2333,-2286,-29472
355104,0.679492,-9.71865,1.09102,-83.595,-3.98254,127.343,-0.0610352,0,-0.0610352,-0.351166,0.272156,0.60849,-0.65744,25.9,57.7917,-30.2667,-2286,-29472
355110,0.693848,-9.75693,1.07666,-83.595,-3.98254,127.343,-0.0610352,0,0,-0.351166,0.272156,0.60849,-0.65744,25.6583,57.7833,-30.275,-2286,-29472
355116,0.679492,-9.76172,1.07666,-83.595,-3.98254,127.343,0,0,-0.0610352,-0.351166,0.272156,0.60849,-0.65744,25.45,57.7667,-30.2917,-2286,-29472
355122,0.708203,-9.73301,1.07187,-83.595,-3.98254,127.343,0,0.0610352,-0.12207,-0.351166,0.272156,0.60849,-0.65744,25.25,57.75,-30.3,-2286,-29472
355128,0.665137,-9.73779,1.11494,-83.595,-3.98254,127.343,0,-0.12207,0,-0.351166,0.272156,0.60849,-0.65744,25.0833,57.75,-30.3333,-2286,-29472
355134,0.669922,-9.72822,1.09102,-83.595,-3.98254,127.343,-0.12207,-0.0610352,-0.0610352,-0.351166,0.272156,0.60849,-0.65744,24.8,57.75,-30.4083,-2286,-29472
355140,0.712988,-9.7665,1.11016,-83.595,-3.98254,127.343,0,0.12207,0,-0.351166,0.272156,0.608521,-0.65744,25.0917,57.775,-30.4083,-2286,-29472
355146,0.684277,-9.76172,1.08145,-83.595,-3.98254,127.343,0,0,-0.183105,-0.351166,0.272156,0.60849,-0.65744,25.35,57.7917,-30.3833,-2286,-29472
355152,0.679492,-9.75215,1.07187,-83.595,-3.98254,127.343,0,0.12207,-0.0610352,-0.351166,0.272156,0.608521,-0.65744,25.575,57.8083,-30.3667,-2286,-29472
355158,0.689063,-9.7665,1.04795,-83.595,-3.98254,127.343,-0.0610352,0,0.183105,-0.351166,0.272156,0.608521,-0.65744,25.3667,57.8167,-30.35,-2286,-29472
355164,0.684277,-9.77129,1.07187,-83.6005,-3.98254,127.343,0,0.0610352,-0.0610352,-0.351166,0.272156,0.608521,-0.65744,25.175,57.825,-30.3417,-2286,-29472
355170,0.674707,-9.75693,1.08145,-83.6005,-3.98254,127.343,0.183105,0.12207,0.12207,-0.351166,0.272156,0.608521,-0.65741,24.875,57.8417,-30.3667,-2286,-29472
355176,0.689063,-9.74258,1.0958,-83.595,-3.98254,127.343,0.0610352,0.0610352,0,-0.351166,0.272156,0.60849,-0.65744,24.75,57.85,-30.3833,-2286,-29472
355182,0.669922,-9.74258,1.08145,-83.595,-3.98254,127.343,0,0.0610352,0.183105,-0.351166,0.272156,0.60849,-0.65744,24.6417,57.8667,-30.3833,-2286,-29472
355188,0.674707,-9.74258,1.10059,-83.595,-3.98254,127.343,0,0,0.0610352,-0.351166,0.272186,0.60849,-0.65744,24.525,57.8583,-30.3917,-2286,-29472
355194,0.674707,-9.71865,1.08145,-83.595,-3.98254,127.343,0.0610352,-0.0610352,0.12207,-0.351166,0.272186,0.60849,-0.65744,24.4167,57.8583,-30.375,-2286,-29472
355200,0.674707,-9.72344,1.11016,-83.595,-3.98254,127.343,0,0,0,-0.351166,0.272186,0.60849,-0.65744,25.025,57.85,-30.3583,-2286,-29472
355206,0.669922,-9.75693,1.0958,-83.6005,-3.98254,127.343,0,0,-0.0610352,-0.351166,0.272186,0.60849,-0.65744,25.2833,57.8583,-30.35,-2286,-29472
355212,0.679492,-9.75693,1.08623,-83.6005,-3.98254,127.343,0,-0.0610352,-0.0610352,-0.351166,0.272186,0.60849,-0.65744,25.5167,57.8583,-30.3417,-2286,-29472
355218,0.684277,-9.74736,1.05752,-83.6005,-3.98254,127.343,0,0.0610352,-0.12207,-0.351166,0.272186,0.60849,-0.65744,25.7333,57.8583,-30.325,-2286,-29472
355224,0.698633,-9.74736,1.08623,-83.6005,-3.98254,127.343,0,0,-0.0610352,-0.351166,0.272186,0.60849,-0.65744,25.925,57.8667,-30.3083,-2286,-29472
355230,0.689063,-9.77129,1.10059,-83.6005,-3.98254,127.343,0,0.12207,-0.12207,-0.351166,0.272186,0.60849,-0.65741,26.25,57.8583,-30.3,-2286,-29472
355236,0.679492,-9.76172,1.08623,-83.6005,-3.98254,127.343,0.0610352,0.12207,-0.12207,-0.351166,0.272186,0.60849,-0.65741,26.3833,57.8417,-30.2917,-2286,-29472
355242,0.689063,-9.72344,1.11494,-83.6005,-3.98254,127.343,0,0.12207,0,-0.351196,0.272186,0.60849,-0.65741,26.5,57.8333,-30.2833,-2286,-29472
355248,0.693848,-9.72822,1.08623,-83.6005,-3.98254,127.343,0,0,0,-0.351196,0.272186,0.60849,-0.65741,26.6083,57.8167,-30.2583,-2286,-29472
355254,0.689063,-9.72822,1.08623,-83.6005,-3.98254,127.337,0,0.0610352,0,-0.351196,0.272186,0.60849,-0.65741,26.7083,57.8083,-30.2583,-2286,-29472
355260,0.665137,-9.72344,1.09102,-83.6005,-3.98254,127.337,0.0610352,0.0610352,0.0610352,-0.351196,0.272186,0.60849,-0.65741,26.8917,57.8083,-30.2667,-2286,-29472
355266,0.684277,-9.73301,1.11494,-83.595,-3.98254,127.337,0,0,-0.0610352,-0.351196,0.272186,0.60849,-0.65741,26.55,57.8167,-30.275,-2286,-29472
355272,0.665137,-9.75693,1.0958,-83.595,-3.98254,127.337,-0.0610352,0,-0.12207,-0.351196,0.272186,0.60849,-0.65741,26.6667,57.825,-30.2667,-2286,-29472
355278,0.698633,-9.75215,1.08145,-83.6005,-3.98254,127.337,-0.0610352,0,0,-0.351196,0.272186,0.60849,-0.65741,26.7667,57.825,-30.2583,-2286,-29472
355284,0.698633,-9.73301,1.07187,-83.6005,-3.98254,127.337,0,0.12207,0.183105,-0.351196,0.272186,0.60849,-0.65741,26.8583,57.825,-30.2583,-2286,-29472
355290,0.674707,-9.74736,1.07666,-83.6005,-3.98254,127.337,-0.0610352,0.12207,-0.0610352,-0.351196,0.272186,0.60849,-0.65741,26.5917,57.8,-30.3,-2286,-29472
355296,0.650781,-9.7665,1.0958,-83.6005,-3.98254,127.337,-0.12207,0.12207,0.0610352,-0.351196,0.272186,0.608521,-0.65741,26.7083,57.7917,-30.3167,-2286,-29472
355302,0.689063,-9.73779,1.08623,-83.6005,-3.98254,127.337,0.0610352,0.12207,-0.0610352,-0.351196,0.272186,0.608521,-0.65741,26.3833,57.775,-30.3167,-2286,-29472
355308,0.684277,-9.74258,1.10059,-83.6005,-3.98254,127.337,-0.12207,0,0,-0.351196,0.272186,0.60849,-0.65741,26.1,57.7583,-30.3167,-2286,-29472
355314,0.660352,-9.75215,1.07187,-83.6005,-3.98254,127.337,-0.12207,0.0610352,0,-0.351196,0.272217,0.608521,-0.657379,26.2583,57.75,-30.2917,-2286,-29472
355320,0.674707,-9.73301,1.11973,-83.6005,-3.98254,127.337,0,0,-0.12207,-0.351196,0.272217,0.608521,-0.657379,26.525,57.7417,-30.225,-2286,-29472
355326,0.660352,-9.74736,1.09102,-83.6005,-3.98254,127.337,-0.12207,-0.12207,0,-0.351196,0.272217,0.608521,-0.657379,26.2167,57.7417,-30.2167,-2286,-29472
355332,0.689063,-9.77607,1.08623,-83.6005,-3.98254,127.337,-0.183105,-0.12207,0,-0.351196,0.272217,0.608521,-0.657379,26.3667,57.725,-30.2417,-2286,-29472
355338,0.684277,-9.75693,1.07666,-83.6005,-3.98254,127.337,0,0,0,-0.351196,0.272217,0.608521,-0.657379,26.5083,57.725,-30.275,-2286,-29472
355344,0.665137,-9.74736,1.07187,-83.606,-3.98254,127.337,-0.0610352,0,0.12207,-0.351196,0.272217,0.608521,-0.657379,26.625,57.7417,-30.3,-2286,-29472
355350,0.641211,-9.73301,1.10059,-83.606,-3.98254,127.337,-0.12207,-0.0610352,-0.183105,-0.351196,0.272217,0.608521,-0.657379,26.7917,57.7833,-30.3167,-2286,-29472
355356,0.655566,-9.74736,1.09102,-83.606,-3.98804,127.337,-0.12207,-0.0610352,-0.0610352,-0.351196,0.272217,0.608551,-0.657379,26.8667,57.7917,-30.3,-2286,-29472
355362,0.669922,-9.74736,1.07187,-83.606,-3.98804,127.337,-0.12207,0,0,-0.351196,0.272186,0.608551,-0.657379,26.9417,57.8,-30.3,-2286,-29472
355368,0.674707,-9.75693,1.05752,-83.606,-3.98804,127.337,0,-0.0610352,-0.0610352,-0.351196,0.272217,0.608551,-0.657379,27.0083,57.7917,-30.3,-2286,-29472
355374,0.698633,-9.77607,1.04795,-83.606,-3.98804,127.337,-0.0610352,-0.0610352,0,-0.351166,0.272217,0.608551,-0.657379,27.0833,57.8,-30.3167,-2286,-29472
355380,0.660352,-9.78086,1.0623,-83.606,-3.98804,127.337,0,0,0,-0.351166,0.272217,0.608551,-0.657379,26.8167,57.8083,-30.3167,-2286,-29472
355386,0.689063,-9.73301,1.0958,-83.606,-3.98254,127.337,0,0,0,-0.351166,0.272217,0.608551,-0.657379,26.9,57.825,-30.3167,-2286,-29472
355392,0.679492,-9.72822,1.07666,-83.606,-3.98254,127.337,0,0,0,-0.351166,0.272217,0.608551,-0.657379,26.9833,57.825,-30.3167,-2286,-29472
355398,0.655566,-9.73301,1.08623,-83.606,-3.98254,127.337,0,0,0,-0.351166,0.272217,0.608551,-0.657349,26.6333,57.825,-30.3167,-2286,-29472
355404,0.674707,-9.75215,1.09102,-83.606,-3.98254,127.337,0,0,0,-0.351166,0.272217,0.608551,-0.657349,26.325,57.8167,-30.3083,-2286,-29472
355410,0.660352,-9.71865,1.10537,-83.606,-3.98254,127.337,0,0,0,-0.351166,0.272217,0.608551,-0.657349,25.7833,57.7583,-30.275,-2286,-29472
355416,0.669922,-9.73779,1.07666,-83.606,-3.98254,127.337,0,0,0,-0.351166,0.272217,0.608551,-0.657349,25.9833,57.7333,-30.2333,-2286,-29472
355422,0.689063,-9.75215,1.07666,-83.606,-3.98254,127.337,0,0,0,-0.351166,0.272217,0.608551,-0.657349,26.1417,57.7333,-30.2333,-2286,-29472
355428,0.674707,-9.74736,1.06709,-83.606,-3.98254,127.337,0,0,0,-0.351166,0.272217,0.608551,-0.657349,26.2917,57.725,-30.225,-2286,-29472
355434,0.674707,-9.74736,1.08623,-83.606,-3.98254,127.337,0,0,0,-0.351166,0.272217,0.608551,-0.657349,26.0083,57.7417,-30.225,-2286,-29472
355440,0.679492,-9.77607,1.08145,-83.606,-3.98254,127.337,0,0,0,-0.351166,0.272217,0.608551,-0.657349,25.5333,57.775,-30.25,-2286,-29472
355446,0.698633,-9.7665,1.07187,-83.606,-3.98254,127.337,0,0,0,-0.351166,0.272217,0.608551,-0.657349,25.3333,57.8,-30.2333,-2286,-29472
355452,0.665137,-9.75693,1.06709,-83.606,-3.98254,127.337,0,0,0,-0.351166,0.272217,0.608551,-0.657349,25.5667,57.8083,-30.2167,-2286,-29472
355458,0.660352,-9.73301,1.10537,-83.606,-3.98254,127.337,0,0,0,-0.351166,0.272217,0.608551,-0.657349,25.775,57.8167,-30.1917,-2286,-29472
355464,0.693848,-9.72344,1.08623,-83.606,-3.98254,127.337,0,0,0,-0.351166,0.272217,0.608551,-0.657349,25.9583,57.825,-30.1833,-2286,-29472
355470,0.631641,-9.71865,1.10059,-83.6115,-3.98254,127.337,0,0,0,-0.351166,0.272217,0.608551,-0.657349,25.9083,57.825,-30.25,-2286,-29472
355476,0.674707,-9.73779,1.07187,-83.6115,-3.98254,127.337,0,0,0,-0.351166,0.272217,0.608551,-0.657349,25.6667,57.825,-30.3,-2286,-29472
355482,0.674707,-9.74258,1.10537,-83.6115,-3.98254,127.337,0,0,0,-0.351166,0.272217,0.608551,-0.657349,25.4583,57.8167,-30.3083,-2286,-29472
355488,0.660352,-9.75215,1.06709,-83.6115,-3.98254,127.337,0,0,0,-0.351166,0.272217,0.608551,-0.657349,25.275,57.8083,-30.325,-2286,-29472
355494,0.669922,-9.7665,1.06709,-83.6115,-3.98254,127.337,0,0,0,-0.351166,0.272217,0.608551,-0.657349,25.1083,57.8083,-30.3,-2286,-29472
355500,0.689063,-9.78564,1.05273,-83.6115,-3.98254,127.337,0,0,0,-0.351166,0.272217,0.608551,-0.657349,25.225,57.8083,-30.2167,-2286,-29472
355506,0.655566,-9.79521,1.0623,-83.6115,-3.98254,127.337,0,0,0,-0.351166,0.272217,0.608551,-0.657349,25.475,57.8167,-30.1917,-2286,-29472
355512,0.698633,-9.73301,1.08623,-83.6115,-3.98254,127.337,0,0,0,-0.351166,0.272217,0.608551,-0.657349,25.6917,57.8167,-30.1667,-2286,-29472
355518,0.665137,-9.74258,1.09102,-83.6115,-3.98254,127.337,0,0,0,-0.351166,0.272247,0.608551,-0.657349,25.8833,57.8333,-30.15,-2286,-29472
355524,0.693848,-9.74736,1.10059,-83.6115,-3.98254,127.337,0,0,0,-0.351166,0.272247,0.608551,-0.657349,25.65,57.8333,-30.1333,-2286,-29472
355530,0.669922,-9.74736,1.07666,-83.6115,-3.98254,127.337,0,0,0,-0.351135,0.272247,0.608551,-0.657349,25.6583,57.8333,-30.1333,-2286,-29472
355536,0.660352,-9.75215,1.09102,-83.6115,-3.98254,127.337,0,0,0,-0.351135,0.272247,0.608551,-0.657349,25.8583,57.825,-30.1417,-2286,-29472
355542,0.689063,-9.74258,1.11016,-83.6115,-3.98254,127.337,0,0,0,-0.351135,0.272247,0.608551,-0.657349,26.0333,57.825,-30.15,-2286,-29472
355548,0.679492,-9.73301,1.10059,-83.6115,-3.98254,127.337,0,0,0,-0.351135,0.272247,0.608551,-0.657349,26.1917,57.8083,-30.1667,-2286,-29472
355554,0.684277,-9.74258,1.12451,-83.6115,-3.98254,127.337,0,0,0,-0.351135,0.272247,0.608551,-0.657349,25.9167,57.8083,-30.15,-2286,-29472
355560,0.660352,-9.74736,1.10537,-83.6115,-3.98254,127.337,0,0,0,-0.351135,0.272247,0.608551,-0.657349,25.475,57.8083,-30.1667,-2286,-29472
355566,0.655566,-9.75215,1.08623,-83.6115,-3.98254,127.337,0,0,0,-0.351135,0.272247,0.608551,-0.657349,25.6917,57.825,-30.1917,-2286,-29472
355572,0.665137,-9.7665,1.08623,-83.6115,-3.98254,127.337,0,0,0,-0.351135,0.272247,0.608551,-0.657349,25.875,57.825,-30.2167,-2286,-29472
355578,0.660352,-9.76172,1.07187,-83.6115,-3.98254,127.337,0,0,0,-0.351135,0.272247,0.608551,-0.657349,26.0333,57.8167,-30.2583,-2286,-29472
355584,0.689063,-9.75215,1.10537,-83.6115,-3.98254,127.337,0,0,0,-0.351135,0.272247,0.608551,-0.657349,26.1833,57.825,-30.2667,-2286,-29472
355590,0.655566,-9.77607,1.0623,-83.6115,-3.98254,127.337,0,0,0,-0.351135,0.272247,0.608551,-0.657349,26.05,57.8583,-30.2583,-2286,-29472
355596,0.679492,-9.74258,1.09102,-83.6115,-3.98254,127.337,0,0,0,-0.351135,0.272247,0.608551,-0.657349,25.8,57.8917,-30.275,-2286,-29472
355602,0.650781,-9.72822,1.08145,-83.6115,-3.98254,127.337,0,0,0,-0.351135,0.272247,0.608551,-0.657349,25.575,57.9167,-30.3,-2286,-29472
355608,0.679492,-9.74258,1.08145,-83.6115,-3.97705,127.337,0,0,0,-0.351135,0.272247,0.608551,-0.657349,25.3667,57.9333,-30.325,-2286,-29472
355614,0.660352,-9.7665,1.0958,-83.6115,-3.97705,127.337,0,0,0,-0.351135,0.272247,0.608551,-0.657349,25.1833,57.95,-30.3333,-2286,-29472
355620,0.655566,-9.74258,1.11973,-83.6115,-3.97705,127.337,0,0,0,-0.351135,0.272247,0.608551,-0.657349,25.6417,57.9333,-30.2917,-2286,-29472
355626,0.669922,-9.74258,1.10537,-83.6115,-3.97705,127.337,0,0,0,-0.351135,0.272247,0.608551,-0.657349,25.8333,57.9167,-30.2667,-2286,-29472
355632,0.665137,-9.7665,1.04795,-83.6115,-3.97705,127.337,0,0,0,-0.351135,0.272247,0.608551,-0.657349,26.0167,57.9083,-30.2417,-2286,-29472
355638,0.669922,-9.77129,1.04316,-83.6115,-3.97705,127.337,0,0,0,-0.351135,0.272247,0.608551,-0.657349,26.175,57.9083,-30.2333,-2286,-29472
355644,0.703418,-9.76172,1.0623,-83.6115,-3.97705,127.337,0,0,0,-0.351135,0.272247,0.608551,-0.657349,26.3083,57.9083,-30.225,-2286,-29472
355650,0.665137,-9.75215,1.06709,-83.6115,-3.97705,127.337,0,0,0,-0.351135,0.272247,0.608551,-0.657349,26.55,57.925,-30.2583,-2286,-29472
355656,0.674707,-9.7665,1.04795,-83.6115,-3.97705,127.337,0,0,0,-0.351135,0.272247,0.608551,-0.657349,26.6583,57.925,-30.2667,-2286,-29472
355662,0.674707,-9.76172,1.09102,-83.6115,-3.97705,127.337,0,0,0,-0.351135,0.272278,0.608551,-0.657349,26.75,57.925,-30.2667,-2286,-29472
355668,0.660352,-9.74736,1.09102,-83.6115,-3.97705,127.337,0,0,0,-0.351135,0.272278,0.608551,-0.657349,26.825,57.9083,-30.2667,-2286,-29472
355674,0.674707,-9.73301,1.05273,-83.6115,-3.97705,127.337,0,0,0,-0.351135,0.272278,0.608551,-0.657349,26.9,57.8917,-30.25,-2286,-29472
355680,0.655566,-9.75215,1.11973,-83.6115,-3.97705,127.337,0,0,0,-0.351135,0.272278,0.608551,-0.657349,27.0167,57.8667,-30.2667,-2286,-29472
355686,0.674707,-9.73301,1.10537,-83.6115,-3.97705,127.337,0,0,0,-0.351105,0.272278,0.608551,-0.657349,27.0833,57.85,-30.275,-2286,-29472
355692,0.665137,-9.7665,1.10059,-83.6115,-3.97705,127.337,0,0,0,-0.351105,0.272278,0.608551,-0.657349,27.1417,57.8417,-30.3,-2286,-29472
355698,0.708203,-9.74736,1.0623,-83.6115,-3.97705,127.337,0,0,0,-0.351105,0.272278,0.608551,-0.657349,27.2,57.8333,-30.3167,-2286,-29472
355704,0.669922,-9.76172,1.09102,-83.6115,-3.97705,127.337,0,0,0,-0.351105,0.272278,0.608551,-0.657349,27.2417,57.8167,-30.325,-2286,-29472
355710,0.660352,-9.77129,1.07187,-83.6115,-3.97705,127.337,0,0,0,-0.351105,0.272278,0.608551,-0.657349,27.3167,57.7833,-30.3583,-2286,-29472
355716,0.679492,-9.73779,1.10059,-83.6115,-3.97705,127.337,0,0,0,-0.351105,0.272278,0.608551,-0.657349,27.35,57.7667,-30.3917,-2286,-29472
355722,0.689063,-9.74736,1.11973,-83.6115,-3.97705,127.337,0,0,0,-0.351105,0.272278,0.608551,-0.657349,27.3833,57.7583,-30.4,-2286,-29472
355728,0.665137,-9.75693,1.09102,-83.6115,-3.97705,127.337,0,0,0,-0.351105,0.272278,0.608551,-0.657349,27.4083,57.7583,-30.4167,-2286,-29472
355734,0.650781,-9.73779,1.05752,-83.6115,-3.97705,127.337,0,0,0,-0.351105,0.272278,0.608551,-0.657349,27.025,57.7667,-30.4167,-2286,-29472
355740,0.641211,-9.74258,1.09102,-83.6115,-3.97705,127.337,0,0,0,-0.351105,0.272278,0.608551,-0.657349,26.35,57.8,-30.3333,-2286,-29472
355746,0.660352,-9.75693,1.07666,-83.6115,-3.97705,127.337,0,0,0,-0.351105,0.272278,0.608551,-0.657349,26.0667,57.8,-30.3083,-2286,-29472
355752,0.660352,-9.74736,1.08623,-83.6115,-3.97705,127.337,0,0,0,-0.351105,0.272278,0.608551,-0.657349,26.2167,57.8,-30.275,-2286,-29472
355758,0.689063,-9.76172,1.08145,-83.6115,-3.97705,127.337,0,0,0,-0.351105,0.272278,0.608551,-0.657349,26.3667,57.7917,-30.2667,-2286,-29472
355764,0.693848,-9.77129,1.08623,-83.6115,-3.97705,127.337,0,0,0,-0.351105,0.272278,0.608551,-0.657349,26.4917,57.8,-30.2667,-2286,-29472
355770,0.669922,-9.72822,1.0958,-83.6115,-3.97705,127.337,0,0,0,-0.351105,0.272278,0.608551,-0.657349,26.7083,57.8,-30.2667,-2286,-29472
355776,0.655566,-9.7043,1.07187,-83.6169,-3.97156,127.337,0,0,0,-0.351105,0.272278,0.608551,-0.657349,26.8,57.8083,-30.2333,-2286,-29472
355782,0.641211,-9.8335,1.02881,-83.6169,-3.97156,127.337,0,0,0,-0.351105,0.272308,0.608551,-0.657349,26.8833,57.8,-30.2167,-2286,-29472
355788,0.75127,-9.96748,1.0623,-83.6169,-3.97156,127.337,0.793457,-0.12207,0,-0.351105,0.272308,0.608551,-0.657349,26.9583,57.8083,-30.2,-2286,-29472
355794,0.526367,-9.38369,0.995313,-83.6115,-3.97156,127.337,1.09863,0.549316,0,-0.351105,0.272278,0.608551,-0.657379,27.0333,57.8083,-30.2,-2286,-29472
355800,0.631641,-9.78564,1.11973,-83.6115,-3.97156,127.343,-0.915527,-0.610352,0,-0.351105,0.272278,0.608551,-0.657379,27.1417,57.8333,-30.2417,-2286,-29472
355806,0.617285,-9.69951,1.15322,-83.606,-3.97156,127.343,0.0610352,0,0,-0.351105,0.272278,0.608521,-0.65741,27.175,57.8417,-30.2417,-2286,-29472
355812,0.722559,-9.78086,1.0623,-83.606,-3.97156,127.343,-0.0610352,-0.488281,0,-0.351105,0.272278,0.608521,-0.65741,27.1917,57.85,-30.225,-2286,-29472
355818,0.689063,-9.78564,1.06709,-83.606,-3.97156,127.343,0.244141,0.244141,0,-0.351074,0.272247,0.608521,-0.65741,27.2083,57.875,-30.2167,-2286,-29472
355824,0.645996,-9.74736,1.1293,-83.606,-3.97156,127.343,0.305176,-0.12207,0,-0.351105,0.272278,0.608521,-0.65741,27.2417,57.8917,-30.2,-2286,-29472
355830,0.693848,-9.76172,1.10059,-83.606,-3.97156,127.343,-0.0610352,0,0,-0.351105,0.272278,0.608521,-0.65741,26.9167,57.8917,-30.2083,-2286,-29472
355836,0.712988,-9.68994,1.06709,-83.606,-3.97156,127.343,-0.183105,-0.0610352,0,-0.351105,0.272247,0.608521,-0.65741,26.575,57.875,-30.175,-2286,-29472
355842,0.684277,-9.82871,1.06709,-83.606,-3.97156,127.343,-0.12207,0,0,-0.351074,0.272278,0.608521,-0.65741,26.2667,57.85,-30.175,-2286,-29472
355848,0.650781,-9.76172,1.0623,-83.606,-3.97156,127.343,0.244141,0,0,-0.351074,0.272278,0.608521,-0.65741,26.4083,57.825,-30.1667,-2286,-29472
355854,0.689063,-9.7043,1.08145,-83.606,-3.97156,127.343,-0.0610352,0,0,-0.351074,0.272278,0.608521,-0.65741,26.525,57.825,-30.15,-2286,-29472
355860,0.645996,-9.7665,1.10537,-83.606,-3.97156,127.343,0,0,0,-0.351074,0.272278,0.608521,-0.65741,26.7167,57.8417,-30.125,-2286,-29472
355866,0.645996,-9.73301,1.11973,-83.606,-3.97156,127.343,0.183105,0,0.12207,-0.351074,0.272278,0.608521,-0.65744,26.8083,57.8667,-30.0833,-2286,-29472
355872,0.669922,-9.72822,1.11973,-83.606,-3.96606,127.343,0,-0.12207,0.0610352,-0.351074,0.272278,0.60849,-0.65744,26.8917,57.875,-30.0667,-2286,-29472
355878,0.669922,-9.7665,1.09102,-83.606,-3.96606,127.343,0,-0.0610352,0,-0.351074,0.272278,0.60849,-0.65744,26.975,57.8917,-30.0667,-2286,-29472
355884,0.679492,-9.7665,1.08623,-83.606,-3.96606,127.343,0,-0.0610352,-0.0610352,-0.351074,0.272278,0.60849,-0.65744,27.05,57.9167,-30.075,-2286,-29472
355890,0.679492,-9.75693,1.05752,-83.606,-3.96606,127.343,-0.0610352,0,0.183105,-0.351074,0.272278,0.608521,-0.65744,26.75,57.9,-30.1167,-2286,-29472
355896,0.645996,-9.75693,1.09102,-83.606,-3.96606,127.343,0.12207,0.183105,0,-0.351074,0.272278,0.608521,-0.65744,26.8417,57.8833,-30.15,-2286,-29472
355902,0.665137,-9.75215,1.06709,-83.606,-3.96606,127.343,0.12207,0.12207,0,-0.351074,0.272278,0.60849,-0.65744,26.925,57.8583,-30.1667,-2286,-29472
355908,0.645996,-9.76172,1.05752,-83.606,-3.96606,127.343,-0.12207,0.0610352,0.12207,-0.351074,0.272278,0.60849,-0.65744,27.0083,57.85,-30.2,-2286,-29472
355914,0.655566,-9.76172,1.05752,-83.606,-3.96606,127.343,0,0.0610352,0.0610352,-0.351074,0.272308,0.60849,-0.65744,27.0667,57.8417,-30.2083,-2286,-29472
355920,0.669922,-9.74258,1.09102,-83.606,-3.96606,127.343,0.0610352,0.0610352,0,-0.351074,0.272308,0.60849,-0.65744,27.1417,57.8417,-30.2167,-2286,-29472
355926,0.655566,-9.73301,1.11016,-83.606,-3.96606,127.343,-0.0610352,0,0,-0.351074,0.272308,0.60849,-0.65744,27.1583,57.8583,-30.2083,-2286,-29472
355932,0.650781,-9.75215,1.06709,-83.606,-3.96606,127.343,-0.0610352,0,0.0610352,-0.351074,0.272308,0.60849,-0.65744,27.1833,57.875,-30.2333,-2286,-29472
355938,0.669922,-9.75215,1.06709,-83.606,-3.96606,127.343,0.0610352,0.0610352,0,-0.351074,0.272308,0.60849,-0.65744,27.2167,57.9,-30.25,-2286,-29472
355944,0.660352,-9.72822,1.08623,-83.606,-3.96606,127.343,0,0,-0.12207,-0.351074,0.272308,0.60849,-0.65744,27.2417,57.9083,-30.275,-2286,-29472
355950,0.674707,-9.7665,1.10537,-83.606,-3.96606,127.337,0,0.0610352,0,-0.351074,0.272339,0.60849,-0.65744,27.3,57.8917,-30.3,-2286,-29472
355956,0.665137,-9.74258,1.09102,-83.606,-3.96606,127.337,0.0610352,0.0610352,-0.0610352,-0.351074,0.272339,0.60849,-0.65744,27.3167,57.8833,-30.2583,-2286,-29472
355962,0.669922,-9.75215,1.0958,-83.606,-3.96606,127.337,0.183105,0.0610352,-0.183105,-0.351074,0.272339,0.60849,-0.65744,27.325,57.8667,-30.2417,-2286,-29472
355968,0.665137,-9.73779,1.09102,-83.606,-3.96606,127.337,0.0610352,0,-0.12207,-0.351074,0.272308,0.60849,-0.65744,27.3333,57.8583,-30.225,-2286,-29472
355974,0.665137,-9.72344,1.10059,-83.606,-3.96606,127.337,0,0.12207,0,-0.351074,0.272308,0.60849,-0.65744,27.3583,57.8417,-30.2083,-2286,-29472
355980,0.679492,-9.72822,1.1293,-83.606,-3.96606,127.337,0,-0.0610352,-0.12207,-0.351074,0.272308,0.60849,-0.65741,27.425,57.8167,-30.2,-2286,-29472
355986,0.698633,-9.77607,1.07187,-83.606,-3.96606,127.337,-0.12207,-0.0610352,0,-0.351074,0.272308,0.60849,-0.65741,27.45,57.8,-30.2,-2286,-29472
355992,0.684277,-9.7665,1.08145,-83.606,-3.96606,127.337,0,0.0610352,-0.12207,-0.351074,0.272308,0.60849,-0.65741,27.475,57.8,-30.2,-2286,-29472
355998,0.655566,-9.73779,1.0958,-83.606,-3.96606,127.337,0,0,-0.0610352,-0.351074,0.272308,0.60849,-0.65741,27.4917,57.7917,-30.2,-2286,-29472
356004,0.679492,-9.75215,1.11973,-83.606,-3.96606,127.337,0,0,-0.12207,-0.351074,0.272308,0.60849,-0.65741,27.5,57.7833,-30.1833,-2286,-29472
356010,0.679492,-9.74258,1.0958,-83.606,-3.96606,127.337,-0.0610352,-0.0610352,0,-0.351074,0.272308,0.60849,-0.65741,27.525,57.7833,-30.1417,-2286,-29472
356016,0.679492,-9.76172,1.08623,-83.606,-3.96606,127.337,0.0610352,0.0610352,0,-0.351074,0.272308,0.608521,-0.65741,27.5333,57.775,-30.1417,-2286,-29472
356022,0.650781,-9.77129,1.08145,-83.606,-3.96606,127.337,0,0,-0.12207,-0.351074,0.272308,0.608521,-0.65741,27.525,57.7583,-30.1583,-2286,-29472
356028,0.645996,-9.74736,1.08623,-83.606,-3.96606,127.337,0.0610352,0,0,-0.351074,0.272308,0.608521,-0.65741,27.525,57.7583,-30.1583,-2286,-29472
356034,0.679492,-9.7665,1.0958,-83.606,-3.96606,127.337,0.183105,0.183105,0,-0.351074,0.272308,0.60849,-0.65741,27.5333,57.75,-30.15,-2286,-29472
356040,0.679492,-9.74258,1.09102,-83.606,-3.96606,127.337,0,-0.12207,-0.0610352,-0.351074,0.272308,0.60849,-0.65741,27.5333,57.775,-30.1083,-2286,-29472
356046,0.665137,-9.7665,1.11494,-83.606,-3.96606,127.337,0,0,0,-0.351074,0.272308,0.60849,-0.65741,27.125,57.7667,-30.0917,-2286,-29472
356052,0.679492,-9.74736,1.08623,-83.606,-3.96606,127.337,0,0,0,-0.351074,0.272308,0.60849,-0.65741,26.7667,57.7583,-30.1,-2286,-29472
356058,0.679492,-9.76172,1.10537,-83.606,-3.96606,127.337,0,0,-0.12207,-0.351074,0.272308,0.60849,-0.65741,26.4417,57.7583,-30.1083,-2286,-29472
356064,0.693848,-9.74258,1.08623,-83.606,-3.96606,127.337,0.0610352,0,-0.12207,-0.351074,0.272308,0.60849,-0.65741,26.1417,57.7667,-30.1,-2286,-29472
356070,0.655566,-9.74258,1.09102,-83.606,-3.96606,127.337,0,-0.0610352,0,-0.351105,0.272308,0.60849,-0.65741,26.4167,57.7917,-30.075,-2286,-29472
356076,0.669922,-9.73301,1.06709,-83.606,-3.96606,127.337,-0.12207,-0.0610352,-0.12207,-0.351105,0.272308,0.60849,-0.65741,26.5333,57.8083,-30.05,-2286,-29472
356082,0.660352,-9.7665,1.07666,-83.606,-3.96606,127.337,-0.12207,-0.12207,-0.12207,-0.351105,0.272308,0.60849,-0.65741,26.6417,57.8083,-30.0417,-2286,-29472
356088,0.655566,-9.77129,1.07666,-83.606,-3.96606,127.337,0.0610352,0,0,-0.351074,0.272308,0.608521,-0.65741,26.7417,57.825,-30.0667,-2286,-29472
356094,0.689063,-9.75693,1.09102,-83.606,-3.96606,127.337,0,-0.12207,0,-0.351074,0.272308,0.608521,-0.65741,26.4167,57.825,-30.1167,-2286,-29472
356100,0.674707,-9.7665,1.09102,-83.606,-3.96606,127.343,0,-0.0610352,-0.0610352,-0.351074,0.272308,0.608521,-0.65741,25.8667,57.8333,-30.225,-2286,-29472
356106,0.674707,-9.77607,1.07666,-83.606,-3.96606,127.343,0,0,-0.0610352,-0.351074,0.272308,0.608521,-0.65741,26.05,57.8333,-30.2333,-2286,-29472
356112,0.665137,-9.74258,1.09102,-83.606,-3.96606,127.343,0,0,0,-0.351074,0.272308,0.608521,-0.65741,25.8,57.85,-30.2333,-2286,-29472
356118,0.684277,-9.7665,1.10059,-83.606,-3.96606,127.343,0,-0.183105,0,-0.351074,0.272308,0.608521,-0.65741,25.5667,57.8667,-30.2417,-2286,-29472
356124,0.703418,-9.76172,1.08623,-83.606,-3.96606,127.343,0,-0.0610352,0,-0.351074,0.272278,0.608521,-0.65741,25.3583,57.8833,-30.2583,-2286,-29472
356130,0.679492,-9.73779,1.12451,-83.606,-3.96606,127.343,0,-0.0610352,0,-0.351074,0.272278,0.608521,-0.65741,25.0167,57.9,-30.3,-2286,-29472
356136,0.679492,-9.75693,1.0958,-83.606,-3.96606,127.343,0,0,0,-0.351074,0.272278,0.608521,-0.65741,24.8583,57.8917,-30.3167,-2286,-29472
356142,0.679492,-9.74258,1.11016,-83.606,-3.96606,127.343,0.0610352,0,-0.0610352,-0.351074,0.272278,0.608521,-0.65741,25.1417,57.8833,-30.3083,-2286,-29472
356148,0.684277,-9.75693,1.09102,-83.606,-3.96606,127.343,0,0.0610352,-0.12207,-0.351074,0.272278,0.608521,-0.65741,25.3833,57.875,-30.2917,-2286,-29472
356154,0.684277,-9.74736,1.08623,-83.606,-3.97156,127.343,-0.12207,0,-0.12207,-0.351074,0.272278,0.608521,-0.65741,25.5833,57.875,-30.275,-2286,-29472
356160,0.703418,-9.75215,1.08623,-83.606,-3.97156,127.343,0,0.0610352,0,-0.351074,0.272278,0.608521,-0.65741,25.925,57.8667,-30.225,-2286,-29472
356166,0.674707,-9.75693,1.0958,-83.606,-3.97156,127.343,0,0,0.0610352,-0.351074,0.272278,0.608521,-0.65741,26.0917,57.875,-30.2,-2286,-29472
356172,0.669922,-9.75215,1.08623,-83.606,-3.97156,127.343,-0.0610352,-0.12207,0.12207,-0.351074,0.272278,0.608521,-0.65741,25.8417,57.875,-30.1583,-2286,-29472
356178,0.674707,-9.79043,1.06709,-83.606,-3.96606,127.343,-0.0610352,0.0610352,-0.12207,-0.351074,0.272278,0.608521,-0.65741,25.6083,57.8667,-30.1083,-2286,-29472
356184,0.660352,-9.76172,1.05752,-83.606,-3.97156,127.343,0,0,0.183105,-0.351074,0.272278,0.608521,-0.65741,25.8167,57.8667,-30.075,-2286,-29472
356190,0.679492,-9.76172,1.09102,-83.606,-3.96606,127.343,0,0,0,-0.351074,0.272308,0.608521,-0.65741,25.7917,57.8583,-30.0333,-2286,-29472
356196,0.693848,-9.75693,1.11494,-83.606,-3.96606,127.343,0.0610352,0,0.0610352,-0.351074,0.272308,0.608521,-0.65741,25.9833,57.8583,-30.0583,-2286,-29472
356202,0.650781,-9.75693,1.0958,-83.606,-3.96606,127.343,0.0610352,0,0,-0.351074,0.272308,0.608521,-0.65741,25.7417,57.8417,-30.0917,-2286,-29472
356208,0.674707,-9.75215,1.09102,-83.606,-3.96606,127.343,0,0,-0.12207,-0.351074,0.272308,0.608521,-0.65741,25.5167,57.8333,-30.1083,-2286,-29472
356214,0.684277,-9.75693,1.07666,-83.606,-3.96606,127.343,0,0.0610352,0.0610352,-0.351074,0.272308,0.608521,-0.65741,25.3083,57.825,-30.1333,-2286,-29472
356220,0.669922,-9.72344,1.07187,-83.606,-3.96606,127.343,0.12207,0,0,-0.351074,0.272308,0.608521,-0.65741,24.975,57.8417,-30.15,-2286,-29472
356226,0.669922,-9.73301,1.0958,-83.606,-3.96606,127.343,0.0610352,0,0,-0.351074,0.272278,0.608521,-0.65741,25.25,57.8667,-30.15,-2286,-29472
356232,0.655566,-9.75693,1.10059,-83.606,-3.96606,127.343,-0.12207,0,0.0610352,-0.351074,0.272278,0.608521,-0.65741,25.4917,57.8833,-30.125,-2286,-29472
356238,0.669922,-9.72822,1.10059,-83.606,-3.96606,127.343,0,0.0610352,0,-0.351074,0.272308,0.608521,-0.65741,25.7083,57.9,-30.1167,-2286,-29472
356244,0.660352,-9.73301,1.05273,-83.606,-3.96606,127.343,0,-0.0610352,0,-0.351074,0.272308,0.608521,-0.65741,25.8917,57.9,-30.0833,-2286,-29472
356250,0.689063,-9.72822,1.10059,-83.606,-3.96606,127.343,-0.12207,-0.183105,-0.0610352,-0.351074,0.272308,0.608521,-0.65741,25.8,57.9,-30.0917,-2286,-29472
356256,0.684277,-9.78086,1.07187,-83.606,-3.96606,127.343,0.0610352,0,0,-0.351044,0.272308,0.608521,-0.65741,25.9667,57.9,-30.0917,-2286,-29472
356262,0.655566,-9.78564,1.07187,-83.606,-3.96606,127.343,0.0610352,-0.0610352,0.183105,-0.351044,0.272308,0.608521,-0.65741,26.125,57.9,-30.1,-2286,-29472
356268,0.684277,-9.77129,1.05752,-83.606,-3.96606,127.343,0,0,0,-0.351044,0.272308,0.608521,-0.65744,26.2667,57.9,-30.1083,-2286,-29472
356274,0.674707,-9.7665,1.0958,-83.606,-3.96606,127.343,0.0610352,0.0610352,0,-0.351044,0.272308,0.608521,-0.65744,26.4,57.8833,-30.1,-2286,-29472
356280,0.660352,-9.77129,1.06709,-83.606,-3.96606,127.343,0.0610352,0.12207,0.244141,-0.351044,0.272308,0.608521,-0.65744,26.6417,57.8583,-30.0917,-2286,-29472
356286,0.645996,-9.73301,1.12451,-83.606,-3.96606,127.343,0.12207,0.0610352,0.12207,-0.351044,0.272308,0.60849,-0.65744,26.325,57.8417,-30.0917,-2286,-29472
356292,0.669922,-9.73301,1.11973,-83.606,-3.96057,127.343,0.0610352,0.0610352,0.12207,-0.351044,0.272308,0.60849,-0.65744,26.05,57.8083,-30.0833,-2286,-29472
356298,0.679492,-9.73301,1.10537,-83.606,-3.96057,127.343,0,0,0.0610352,-0.351044,0.272308,0.60849,-0.65744,25.8,57.7917,-30.075,-2286,-29472
356304,0.641211,-9.74258,1.07666,-83.606,-3.96057,127.343,0,0,0,-0.351044,0.272308,0.60849,-0.65744,25.5667,57.775,-30.075,-2286,-29472
356310,0.679492,-9.72822,1.11494,-83.606,-3.96057,127.343,0,0,0,-0.351044,0.272308,0.60849,-0.65744,25.175,57.7583,-30.0917,-2286,-29472
356316,0.660352,-9.75693,1.09102,-83.606,-3.96057,127.343,-0.12207,0,0.0610352,-0.351044,0.272339,0.60849,-0.65744,25.0167,57.7583,-30.1167,-2286,-29472
356322,0.669922,-9.74258,1.06709,-83.606,-3.96057,127.343,-0.0610352,0,0.183105,-0.351044,0.272339,0.60849,-0.65744,24.8583,57.75,-30.15,-2286,-29472
356328,0.669922,-9.75693,1.07187,-83.606,-3.96057,127.343,0.12207,0,0,-0.351013,0.272339,0.60849,-0.65744,24.7333,57.7333,-30.175,-2286,-29472
356334,0.689063,-9.74736,1.07187,-83.606,-3.96057,127.343,0.0610352,0.183105,0,-0.351044,0.272339,0.60849,-0.65744,24.6083,57.725,-30.2,-2286,-29472
356340,0.645996,-9.75215,1.09102,-83.606,-3.96057,127.343,0.0610352,0,0,-0.351044,0.272339,0.60849,-0.65744,25.1667,57.725,-30.2167,-2286,-29472
356346,0.655566,-9.74736,1.08623,-83.606,-3.96057,127.343,0.12207,0.12207,0,-0.351044,0.272339,0.608459,-0.65744,25.4,57.725,-30.2333,-2286,-29472
356352,0.674707,-9.74258,1.09102,-83.606,-3.96057,127.343,0,0.12207,0,-0.351044,0.272339,0.608459,-0.657471,25.6083,57.7417,-30.25,-2286,-29472
356358,0.660352,-9.74258,1.07666,-83.606,-3.96057,127.343,0,0,0,-0.351044,0.272339,0.608459,-0.65744,25.8,57.7417,-30.2833,-2286,-29472
356364,0.665137,-9.72822,1.11016,-83.606,-3.96057,127.343,0,0,0,-0.351044,0.272339,0.608459,-0.65744,25.975,57.775,-30.3,-2286,-29472
356370,0.650781,-9.73779,1.11494,-83.606,-3.96057,127.343,0,0,0,-0.351044,0.272339,0.608459,-0.65744,26.2917,57.775,-30.3167,-2286,-29472
356376,0.665137,-9.72344,1.08623,-83.606,-3.96057,127.343,0,-0.0610352,0,-0.351044,0.272339,0.608459,-0.65744,26.4167,57.7667,-30.3,-2286,-29472
356382,0.665137,-9.73779,1.09102,-83.606,-3.96057,127.343,0,-0.0610352,0,-0.351044,0.272339,0.608459,-0.65744,26.525,57.7583,-30.275,-2286,-29472
356388,0.636426,-9.73779,1.07666,-83.606,-3.95508,127.343,0,-0.12207,0,-0.351044,0.272339,0.608459,-0.657471,26.6167,57.75,-30.2583,-2286,-29472
356394,0.665137,-9.72822,1.12451,-83.606,-3.95508,127.343,-0.0610352,-0.0610352,0,-0.351013,0.272339,0.608459,-0.657471,26.7167,57.75,-30.2417,-2286,-29472
356400,0.684277,-9.74258,1.0958,-83.606,-3.95508,127.343,-0.183105,-0.12207,0,-0.351013,0.272339,0.608459,-0.657471,26.875,57.7667,-30.2083,-2286,-29472
356406,0.669922,-9.76172,1.09102,-83.606,-3.95508,127.343,0,-0.12207,0,-0.351013,0.272339,0.60849,-0.65744,26.9417,57.7833,-30.1917,-2286,-29472
356412,0.689063,-9.70908,1.11016,-83.606,-3.95508,127.343,-0.0610352,0,0,-0.351013,0.272339,0.60849,-0.657471,27,57.8,-30.1833,-2286,-29472
356418,0.660352,-9.73779,1.10059,-83.606,-3.95508,127.343,-0.0610352,-0.0610352,0,-0.351013,0.272339,0.60849,-0.657471,27.05,57.8333,-30.175,-2286,-29472
356424,0.665137,-9.74258,1.08623,-83.606,-3.95508,127.343,-0.12207,-0.183105,0,-0.351013,0.272339,0.60849,-0.657471,27.1,57.8583,-30.175,-2286,-29472
356430,0.665137,-9.76172,1.05273,-83.606,-3.95508,127.343,0,-0.0610352,0,-0.350983,0.272339,0.60849,-0.65744,27.2,57.8333,-30.1833,-2286,-29472
356436,0.679492,-9.75215,1.09102,-83.606,-3.95508,127.348,0.183105,0,0,-0.350983,0.272339,0.60849,-0.657471,27.2417,57.8167,-30.1833,-2286,-29472
356442,0.645996,-9.75215,1.11973,-83.606,-3.95508,127.348,0,-0.0610352,0,-0.350983,0.272339,0.60849,-0.657471,27.275,57.8,-30.1667,-2286,-29472
356448,0.674707,-9.75215,1.08623,-83.606,-3.95508,127.348,0,0,0,-0.350983,0.272339,0.60849,-0.657471,27.3167,57.7917,-30.1833,-2286,-29472
356454,0.669922,-9.76172,1.07666,-83.606,-3.95508,127.348,0,0,0,-0.350983,0.272339,0.60849,-0.657471,27.3417,57.7833,-30.2083,-2286,-29472
356460,0.650781,-9.74736,1.07187,-83.606,-3.95508,127.348,0.0610352,-0.0610352,0,-0.350983,0.272339,0.60849,-0.657471,27.3833,57.7833,-30.2583,-2286,-29472
356466,0.674707,-9.76172,1.08623,-83.606,-3.95508,127.348,0,-0.183105,0,-0.350983,0.272339,0.60849,-0.657471,27.4,57.7667,-30.2917,-2286,-29472
356472,0.665137,-9.74736,1.08145,-83.606,-3.95508,127.348,-0.0610352,-0.0610352,0,-0.350983,0.272339,0.60849,-0.657471,27.4167,57.7583,-30.3,-2286,-29472
356478,0.665137,-9.74258,1.08623,-83.606,-3.95508,127.348,0,0,0,-0.350983,0.272339,0.60849,-0.657471,27.4333,57.7583,-30.3167,-2286,-29472
356484,0.665137,-9.71865,1.09102,-83.606,-3.95508,127.348,0,0,0,-0.350983,0.272339,0.60849,-0.657471,27.45,57.7583,-30.325,-2286,-29472
356490,0.669922,-9.76172,1.07666,-83.606,-3.95508,127.348,-0.0610352,0,0,-0.350983,0.272339,0.60849,-0.657471,27.4667,57.7667,-30.2917,-2286,-29472
356496,0.669922,-9.73779,1.11973,-83.606,-3.95508,127.348,0,-0.183105,0,-0.350983,0.272339,0.60849,-0.657471,27.4667,57.7667,-30.2917,-2286,-29472
356502,0.669922,-9.73301,1.11494,-83.606,-3.95508,127.348,0,-0.12207,0,-0.350952,0.272339,0.60849,-0.657471,27.4667,57.775,-30.2833,-2286,-29472
356508,0.645996,-9.74736,1.10059,-83.606,-3.95508,127.348,-0.0610352,0,0,-0.350952,0.272339,0.60849,-0.657471,27.475,57.7833,-30.2917,-2286,-29472
356514,0.689063,-9.74736,1.10059,-83.606,-3.95508,127.348,-0.244141,-0.0610352,0,-0.350952,0.272339,0.60849,-0.657471,27.4833,57.7833,-30.3083,-2286,-29472
356520,0.665137,-9.75693,1.09102,-83.6115,-3.95508,127.348,0,0,0,-0.350952,0.272339,0.60849,-0.657471,27.5083,57.7833,-30.3083,-2286,-29472
356526,0.650781,-9.74258,1.07187,-83.6115,-3.95508,127.348,0,0,0,-0.350952,0.272339,0.60849,-0.657471,27.5167,57.775,-30.3167,-2286,-29472
356532,0.674707,-9.73301,1.05273,-83.6115,-3.95508,127.348,0,0,0,-0.350952,0.272339,0.60849,-0.657471,27.525,57.7667,-30.3333,-2286,-29472
356538,0.660352,-9.74736,1.0958,-83.6115,-3.95508,127.348,-0.0610352,-0.0610352,0,-0.350952,0.272339,0.60849,-0.657471,27.5333,57.775,-30.3583,-2286,-29472
356544,0.660352,-9.75215,1.08145,-83.6115,-3.95508,127.348,-0.183105,0,0,-0.350952,0.272339,0.60849,-0.657471,27.1333,57.775,-30.375,-2286,-29472
356550,0.679492,-9.71865,1.08145,-83.6115,-3.95508,127.348,0,-0.183105,0,-0.350952,0.272339,0.608521,-0.657471,26.45,57.7917,-30.425,-2286,-29472
356556,0.665137,-9.74736,1.11973,-83.6115,-3.95508,127.348,-0.0610352,-0.0610352,0,-0.350922,0.272339,0.608521,-0.657471,26.1583,57.7917,-30.4583,-2286,-29472
356562,0.674707,-9.74736,1.11494,-83.6115,-3.95508,127.348,-0.183105,-0.244141,0,-0.350922,0.272339,0.608521,-0.657471,26.3167,57.8083,-30.4833,-2286,-29472
356568,0.684277,-9.74736,1.0958,-83.6115,-3.95508,127.354,-0.183105,-0.12207,0,-0.350922,0.272339,0.608521,-0.657471,26.45,57.825,-30.475,-2286,-29472
356574,0.679492,-9.77129,1.07187,-83.6115,-3.95508,127.354,0,-0.12207,0,-0.350922,0.272339,0.608521,-0.657471,26.5833,57.8417,-30.4417,-2286,-29472
356580,0.665137,-9.74736,1.0623,-83.6115,-3.95508,127.354,-0.0610352,0,0,-0.350922,0.272339,0.608521,-0.657471,26.7833,57.8583,-30.3667,-2286,-29472
356586,0.650781,-9.74258,1.0958,-83.6115,-3.94958,127.354,0,0,0,-0.350922,0.272339,0.608551,-0.657471,26.8583,57.85,-30.35,-2286,-29472
356592,0.655566,-9.74736,1.11016,-83.6115,-3.94958,127.354,-0.0610352,-0.12207,0,-0.350922,0.272339,0.608551,-0.657471,26.9417,57.8333,-30.35,-2286,-29472
356598,0.679492,-9.7665,1.0958,-83.6169,-3.94958,127.354,-0.12207,0,0,-0.350891,0.272339,0.608551,-0.657471,27.0167,57.8167,-30.35,-2286,-29472
356604,0.674707,-9.75693,1.07666,-83.6169,-3.94958,127.354,0,0,0,-0.350891,0.272339,0.608551,-0.657471,27.0833,57.8,-30.3417,-2286,-29472
356610,0.698633,-9.76172,1.10059,-83.6169,-3.94958,127.354,0.0610352,-0.12207,0,-0.350891,0.272339,0.608551,-0.657471,27.1833,57.7917,-30.3167,-2286,-29472
356616,0.650781,-9.76172,1.07187,-83.6169,-3.94958,127.354,0,-0.0610352,0,-0.350891,0.272339,0.608551,-0.657471,27.2,57.7917,-30.2917,-2286,-29472
356622,0.674707,-9.73301,1.12451,-83.6169,-3.94958,127.354,0,-0.12207,0,-0.350891,0.272339,0.608551,-0.657471,27.2167,57.8,-30.3,-2286,-29472
356628,0.689063,-9.75215,1.1293,-83.6169,-3.94958,127.354,0,0.0610352,0,-0.350891,0.272339,0.608551,-0.657471,27.25,57.8167,-30.3083,-2286,-29472
356634,0.665137,-9.74258,1.10059,-83.6169,-3.94958,127.354,-0.0610352,0,0,-0.350891,0.272339,0.608551,-0.657471,27.275,57.8167,-30.3,-2286,-29472
356640,0.660352,-9.72344,1.10059,-83.6169,-3.94958,127.354,-0.183105,-0.12207,0,-0.350891,0.272339,0.608551,-0.657471,27.3417,57.7833,-30.3,-2286,-29472
356646,0.679492,-9.75693,1.09102,-83.6169,-3.94958,127.354,-0.0610352,0.0610352,0,-0.350891,0.272339,0.608551,-0.657471,27.3667,57.775,-30.2833,-2286,-29472
356652,0.660352,-9.73779,1.08145,-83.6169,-3.94958,127.354,0,0,0,-0.350891,0.272369,0.608551,-0.657471,27.3833,57.7583,-30.2833,-2286,-29472
356658,0.669922,-9.72344,1.07187,-83.6169,-3.94958,127.354,0,0,0,-0.350891,0.272369,0.608551,-0.657471,27.4,57.7667,-30.2833,-2286,-29472
356664,0.665137,-9.74736,1.08623,-83.6169,-3.94958,127.354,0,0,0,-0.350891,0.272369,0.608551,-0.657471,27.4167,57.7833,-30.2917,-2286,-29472
356670,0.650781,-9.73779,1.07666,-83.6169,-3.94958,127.354,-0.0610352,0.183105,0,-0.350891,0.272369,0.608551,-0.657471,27.4417,57.7833,-30.3167,-2286,-29472
356676,0.669922,-9.75215,1.10059,-83.6169,-3.94958,127.354,0,0.0610352,0,-0.350891,0.272369,0.608551,-0.65744,27.4583,57.775,-30.3333,-2286,-29472
356682,0.665137,-9.75215,1.06709,-83.6169,-3.94958,127.354,0.12207,0,0,-0.350891,0.272369,0.608551,-0.65744,27.475,57.7583,-30.3333,-2295,-29471
356688,0.689063,-9.75215,1.08145,-83.6169,-3.94958,127.354,0,0.0610352,0,-0.350891,0.272369,0.608551,-0.657471,27.4917,57.7583,-30.35,-2295,-29471
356694,0.679492,-9.76172,1.0958,-83.6169,-3.94958,127.354,0.0610352,0,0,-0.350891,0.272369,0.608551,-0.657471,27.5,57.7583,-30.375,-2286,-29472
356700,0.669922,-9.76172,1.0623,-83.6169,-3.94958,127.354,-0.0610352,0,0,-0.350891,0.272369,0.608551,-0.657471,27.5083,57.7917,-30.3667,-2286,-29472
356706,0.660352,-9.75693,1.10059,-83.6169,-3.94958,127.354,0,0,0,-0.350891,0.272369,0.608551,-0.657471,27.5167,57.8,-30.35,-2286,-29472
356712,0.674707,-9.74258,1.07187,-83.6169,-3.94958,127.354,0,0.0610352,0,-0.350891,0.272369,0.608551,-0.657471,27.5333,57.8,-30.325,-2286,-29472
356718,0.660352,-9.75215,1.09102,-83.6169,-3.94958,127.354,0,0,0,-0.350891,0.272369,0.608551,-0.657471,27.55,57.7917,-30.3333,-2286,-29472
356724,0.669922,-9.72822,1.0623,-83.6169,-3.94958,127.354,0,0.0610352,0,-0.350891,0.272369,0.608551,-0.657471,27.1417,57.7833,-30.3417,-2286,-29472
356730,0.665137,-9.73779,1.1293,-83.6169,-3.94958,127.354,0,0,0,-0.350891,0.272369,0.608551,-0.657471,27.2333,57.7917,-30.375,-2286,-29472
356736,0.669922,-9.75215,1.08623,-83.6169,-3.94958,127.354,0,0.0610352,0,-0.350891,0.272369,0.608551,-0.657471,27.2583,57.825,-30.3917,-2286,-29472
356742,0.665137,-9.73779,1.08623,-83.6169,-3.94958,127.354,0,0.0610352,0,-0.350891,0.272369,0.608551,-0.657471,27.2917,57.8417,-30.4083,-2286,-29472
356748,0.660352,-9.73301,1.11973,-83.6169,-3.94958,127.354,-0.0610352,-0.0610352,0,-0.350891,0.272369,0.608551,-0.657471,27.325,57.8583,-30.425,-2286,-29472
356754,0.660352,-9.72344,1.10537,-83.6169,-3.94958,127.354,-0.0610352,-0.244141,0,-0.350891,0.272369,0.608551,-0.657471,27.35,57.8667,-30.425,-2286,-29472
356760,0.669922,-9.74258,1.09102,-83.6169,-3.94958,127.354,-0.244141,0,0,-0.350891,0.272369,0.608551,-0.657471,26.625,57.8333,-30.4167,-2286,-29472
356766,0.660352,-9.77129,1.08145,-83.6169,-3.94958,127.354,-0.0610352,-0.244141,0,-0.350861,0.272369,0.608551,-0.65744,26.3083,57.8167,-30.3833,-2286,-29472
356772,0.650781,-9.76172,1.06709,-83.6169,-3.94958,127.354,0,-0.0610352,0,-0.350861,0.272369,0.608551,-0.65744,26.0333,57.8083,-30.375,-2286,-29472
356778,0.655566,-9.76172,1.07187,-83.6169,-3.94958,127.354,0,0,0,-0.350861,0.272369,0.608551,-0.65744,26.1917,57.8083,-30.3667,-2286,-29472
356784,0.674707,-9.75215,1.10059,-83.6169,-3.94958,127.354,0,-0.0610352,0,-0.350861,0.272369,0.608551,-0.65744,26.3417,57.8083,-30.3583,-2286,-29472
356790,0.660352,-9.74736,1.11973,-83.6169,-3.94958,127.354,0.0610352,-0.0610352,0,-0.350861,0.272369,0.608551,-0.65744,26.5917,57.8083,-30.375,-2286,-29472
356796,0.693848,-9.73779,1.10059,-83.6169,-3.94958,127.359,0,0,0,-0.350861,0.272369,0.608551,-0.657471,26.7083,57.8083,-30.3917,-2286,-29472
356802,0.660352,-9.74258,1.0958,-83.6169,-3.94958,127.359,0,0,0,-0.350861,0.272369,0.608551,-0.657471,26.3917,57.8167,-30.4167,-2286,-29472
356808,0.669922,-9.7665,1.10059,-83.6169,-3.94958,127.359,0,0,0,-0.350861,0.272369,0.608551,-0.657471,26.1083,57.825,-30.4333,-2286,-29472
356814,0.679492,-9.78086,1.07666,-83.6169,-3.94958,127.359,0,0,0,-0.350861,0.272369,0.608551,-0.657471,25.8417,57.8167,-30.4167,-2286,-29472
356820,0.693848,-9.77129,1.07666,-83.6169,-3.94958,127.359,0,0,0,-0.350861,0.272369,0.608551,-0.657471,26.2,57.8083,-30.4083,-2286,-29472
356826,0.684277,-9.77607,1.06709,-83.6169,-3.94958,127.359,0,0,0,-0.350861,0.272369,0.608551,-0.657471,26.3417,57.8,-30.3917,-2286,-29472
356832,0.693848,-9.78086,1.08145,-83.6169,-3.94958,127.359,0,0,0,-0.350861,0.272369,0.608551,-0.657471,26.475,57.8,-30.375,-2286,-29472
356838,0.669922,-9.74258,1.07187,-83.6169,-3.94958,127.359,0,0,0,-0.350861,0.272369,0.608551,-0.657471,26.5917,57.8083,-30.35,-2286,-29472
356844,0.689063,-9.77607,1.08145,-83.6169,-3.94958,127.359,0,0,0,-0.350861,0.272369,0.608551,-0.657471,26.6917,57.8083,-30.3417,-2286,-29472
356850,0.650781,-9.76172,1.09102,-83.6169,-3.94958,127.359,0,0,0,-0.350861,0.272369,0.608551,-0.657471,26.775,57.8083,-30.3333,-2286,-29472
356856,0.655566,-9.72344,1.10059,-83.6169,-3.94409,127.359,0,0,0,-0.350861,0.272369,0.608551,-0.657471,26.9333,57.8167,-30.3083,-2286,-29472
356862,0.674707,-9.71865,1.10059,-83.6169,-3.94409,127.359,0,0,0,-0.350861,0.272369,0.608551,-0.657471,27,57.8083,-30.2417,-2286,-29472
356868,0.665137,-9.71387,1.12451,-83.6169,-3.94409,127.359,0,0,0,-0.350861,0.272369,0.608551,-0.657471,27.0583,57.7917,-30.1917,-2286,-29472
356874,0.660352,-9.74258,1.11016,-83.6169,-3.94409,127.359,0,0,0,-0.350861,0.272369,0.608551,-0.657471,27.1083,57.7667,-30.175,-2286,-29472
356880,0.698633,-9.73779,1.08623,-83.6169,-3.94409,127.359,0,0,0,-0.350861,0.272369,0.608551,-0.657471,27.1583,57.7667,-30.1833,-2286,-29472
356886,0.660352,-9.76172,1.09102,-83.6169,-3.94409,127.359,0,0,0,-0.350861,0.272369,0.608551,-0.657471,27.2167,57.7917,-30.2083,-2286,-29472
356892,0.679492,-9.7665,1.07666,-83.6169,-3.94409,127.359,0,0,0,-0.350861,0.272369,0.608551,-0.657471,27.25,57.8167,-30.1833,-2286,-29472
356898,0.650781,-9.74258,1.10059,-83.6169,-3.94409,127.359,0,0,0,-0.350861,0.272369,0.608551,-0.657471,27.2667,57.8417,-30.1583,-2286,-29472
356904,0.665137,-9.75215,1.07666,-83.6169,-3.94409,127.359,0,0,0,-0.350861,0.272369,0.608551,-0.657471,27.3,57.8583,-30.15,-2286,-29472
356910,0.684277,-9.73301,1.07666,-83.6169,-3.94409,127.359,0,0,0,-0.350861,0.272369,0.608551,-0.657471,27.3417,57.8583,-30.1583,-2286,-29472
356916,0.665137,-9.74736,1.06709,-83.6169,-3.94409,127.359,0,0,0,-0.350861,0.272369,0.608551,-0.657471,26.9917,57.8333,-30.2333,-2286,-29472
356922,0.674707,-9.75215,1.0623,-83.6169,-3.94409,127.359,0,0,0,-0.350861,0.272369,0.608551,-0.657471,27.0583,57.8417,-30.2417,-2286,-29472
356928,0.631641,-9.73779,1.07187,-83.6169,-3.94409,127.359,0,0,0,-0.350861,0.272369,0.608551,-0.657471,27.125,57.8583,-30.2667,-2286,-29472
356934,0.693848,-9.75693,1.14365,-83.6169,-3.94409,127.359,0,0,0,-0.350861,0.272369,0.608551,-0.657471,27.175,57.875,-30.2917,-2286,-29472
356940,0.684277,-9.74736,1.07187,-83.6169,-3.94409,127.359,0,0,0,-0.350861,0.272369,0.608551,-0.657471,27.2083,57.8833,-30.2833,-2286,-29472
356946,0.655566,-9.74258,1.10059,-83.6169,-3.94409,127.359,0,0,0,-0.350861,0.272369,0.608551,-0.657471,27.275,57.9,-30.3,-2286,-29472
356952,0.650781,-9.75215,1.11016,-83.6169,-3.94409,127.359,0,0,0,-0.350861,0.272369,0.608551,-0.657471,27.3083,57.8917,-30.3,-2286,-29472
356958,0.669922,-9.72822,1.11973,-83.6169,-3.94409,127.359,0,0,0,-0.350861,0.272369,0.608551,-0.657471,27.35,57.8917,-30.3,-2286,-29472
356964,0.684277,-9.73301,1.08623,-83.6169,-3.94409,127.359,0,0,0,-0.350861,0.272369,0.608551,-0.657471,27.3917,57.875,-30.2917,-2286,-29472
356970,0.684277,-9.77129,1.09102,-83.6169,-3.94409,127.359,0,0,0,-0.350861,0.272369,0.608551,-0.657471,27.4167,57.875,-30.2833,-2286,-29472
356976,0.674707,-9.76172,1.05752,-83.6169,-3.94409,127.359,0,0,0,-0.35083,0.272369,0.608551,-0.657471,27.45,57.8833,-30.2583,-2286,-29472
356982,0.689063,-9.7665,1.06709,-83.6169,-3.94409,127.359,0,0,0,-0.35083,0.272369,0.608551,-0.657471,27.475,57.875,-30.25,-2286,-29472
356988,0.674707,-9.7665,1.09102,-83.6169,-3.94409,127.359,0,0,0,-0.35083,0.272369,0.608551,-0.657471,27.4917,57.8667,-30.2417,-2286,-29472
356994,0.684277,-9.75693,1.0958,-83.6169,-3.94409,127.359,0,0,0,-0.35083,0.272369,0.608551,-0.657471,27.5083,57.8583,-30.2583,-2286,-29472
357000,0.689063,-9.75215,1.07666,-83.6169,-3.94409,127.359,0,0,0,-0.35083,0.272369,0.608551,-0.657471,27.525,57.8417,-30.275,-2286,-29472
357006,0.665137,-9.74258,1.10059,-83.6169,-3.94409,127.359,0,0,0,-0.35083,0.272369,0.608551,-0.657471,27.5417,57.8333,-30.2833,-2286,-29472
357012,0.665137,-9.73779,1.11016,-83.6169,-3.94409,127.359,0,0,0,-0.35083,0.272369,0.608551,-0.657471,27.55,57.8333,-30.2833,-2286,-29472
357018,0.650781,-9.73301,1.10059,-83.6169,-3.94409,127.359,0,0,0,-0.35083,0.272369,0.608551,-0.657471,27.5583,57.8333,-30.2833,-2286,-29472
357024,0.679492,-9.73301,1.10537,-83.6169,-3.94409,127.359,0,0,0,-0.35083,0.272369,0.608551,-0.657471,27.5583,57.8417,-30.275,-2286,-29472
357030,0.660352,-9.71865,1.08145,-83.6169,-3.94409,127.359,0,0,0,-0.35083,0.272369,0.608551,-0.657471,27.15,57.825,-30.2583,-2286,-29472
357036,0.665137,-9.74736,1.07187,-83.6169,-3.94409,127.359,0,0,0,-0.35083,0.272369,0.608551,-0.657471,26.4833,57.775,-30.225,-2286,-29472
357042,0.650781,-9.73779,1.11016,-83.6169,-3.94409,127.359,0,0,0,-0.35083,0.272369,0.608551,-0.657471,26.1917,57.7583,-30.2,-2286,-29472
357048,0.684277,-9.75215,1.07187,-83.6169,-3.94409,127.359,0,0,0,-0.35083,0.272369,0.608551,-0.657471,25.925,57.7667,-30.2083,-2286,-29472
357054,0.660352,-9.7665,1.05273,-83.6169,-3.94409,127.359,0,0,0,-0.35083,0.272369,0.608551,-0.657471,26.1,57.7833,-30.225,-2286,-29472
357060,0.674707,-9.76172,1.07666,-83.6169,-3.94409,127.359,0,0,0,-0.35083,0.272369,0.608551,-0.657471,26.25,57.8,-30.2167,-2286,-29472
357066,0.674707,-9.7043,1.10059,-83.6169,-3.94409,127.359,0,0,0,-0.35083,0.2724,0.608551,-0.657471,26.4917,57.8083,-30.2417,-2286,-29472
357072,0.684277,-9.73779,1.12451,-83.6169,-3.94409,127.359,0,0,0,-0.35083,0.2724,0.608551,-0.657471,26.5917,57.8,-30.2083,-2286,-29472
357078,0.679492,-9.75215,1.0958,-83.6169,-3.94409,127.359,0,0,0,-0.35083,0.2724,0.608551,-0.657471,26.6833,57.8083,-30.2,-2286,-29472
357084,0.684277,-9.75693,1.10059,-83.6169,-3.94409,127.359,0,0,0,-0.35083,0.2724,0.608551,-0.657471,26.7667,57.8083,-30.175,-2286,-29472
357090,0.679492,-9.77607,1.09102,-83.6169,-3.94409,127.359,0,0,0,-0.35083,0.2724,0.608551,-0.657471,26.8417,57.8083,-30.15,-2286,-29472
357096,0.689063,-9.78086,1.08145,-83.6169,-3.94409,127.359,0,0,0,-0.35083,0.2724,0.608551,-0.657471,26.9833,57.8,-30.175,-2286,-29472
357102,0.674707,-9.75215,1.10059,-83.6169,-3.94409,127.359,0,0,0,-0.35083,0.2724,0.608551,-0.657471,26.6333,57.8,-30.1833,-2286,-29472
357108,0.674707,-9.75693,1.07666,-83.6169,-3.94409,127.359,0,0,0,-0.35083,0.2724,0.608551,-0.657471,26.325,57.8,-30.2083,-2286,-29472
357114,0.689063,-9.74258,1.08623,-83.6169,-3.94409,127.359,0,0,0,-0.35083,0.2724,0.608551,-0.657471,26.0417,57.7917,-30.2333,-2286,-29472
357120,0.679492,-9.71865,1.11016,-83.6169,-3.94409,127.359,0,0,0,-0.35083,0.2724,0.608551,-0.657471,26.2,57.8,-30.225,-2286,-29472
357126,0.679492,-9.75693,1.0958,-83.6169,-3.94409,127.359,0,0,0,-0.35083,0.2724,0.608551,-0.657471,26.45,57.7917,-30.2,-2286,-29472
357132,0.674707,-9.74736,1.0623,-83.6169,-3.94409,127.359,0,0,0,-0.35083,0.2724,0.608551,-0.657471,26.5583,57.8,-30.1833,-2286,-29472
357138,0.679492,-9.76172,1.0623,-83.6169,-3.94409,127.359,0,0,0,-0.35083,0.2724,0.608551,-0.657471,26.6417,57.8,-30.175,-2286,-29472
357144,0.660352,-9.75693,1.11016,-83.6169,-3.94409,127.359,0,0,0,-0.35083,0.272369,0.608551,-0.657471,26.7333,57.7917,-30.1667,-2286,-29472
357150,0.684277,-9.75693,1.09102,-83.6169,-3.94409,127.359,0,0,0,-0.35083,0.272369,0.608551,-0.657471,26.8167,57.7917,-30.1333,-2286,-29472
357438,0.631641,-9.73301,1.11973,-83.6169,-3.94409,127.359,0,0,0,-0.35083,0.272369,0.608551,-0.657471,26.5583,57.8417,-30.3583,-2286,-29472
357444,0.669922,-9.72822,1.09102,-83.6169,-3.94409,127.359,0,0,0,-0.35083,0.272369,0.608551,-0.657471,26.6667,57.8417,-30.35,-2286,-29472
357450,0.645996,-9.76172,1.08623,-83.6169,-3.94409,127.359,0,0,0,-0.35083,0.2724,0.608551,-0.657471,26.7583,57.8417,-30.3333,-2286,-29472
357456,0.660352,-9.71865,1.08623,-83.6169,-3.94409,127.359,0,0,0,-0.35083,0.2724,0.608551,-0.657471,26.925,57.825,-30.325,-2286,-29472
357462,0.645996,-9.72822,1.10059,-83.6169,-3.94409,127.359,0,0,0,-0.35083,0.2724,0.608551,-0.657471,26.9917,57.8167,-30.3333,-2286,-29472
357468,0.641211,-9.73779,1.10059,-83.6169,-3.94409,127.359,0,0,0,-0.35083,0.2724,0.608551,-0.657471,27.0583,57.8,-30.35,-2286,-29472
357474,0.650781,-9.75215,1.08145,-83.6169,-3.94409,127.359,0,0,0,-0.35083,0.2724,0.608551,-0.657471,27.1083,57.775,-30.3833,-2286,-29472
357480,0.669922,-9.74258,1.08145,-83.6169,-3.94409,127.359,0,0,0,-0.35083,0.2724,0.608551,-0.657471,27.1583,57.7833,-30.375,-2286,-29472
357486,0.665137,-9.75693,1.07187,-83.6169,-3.94409,127.359,0,0,0,-0.35083,0.2724,0.608551,-0.657471,27.2333,57.8167,-30.3167,-2286,-29472
357492,0.650781,-9.73301,1.11494,-83.6169,-3.94409,127.359,0,0,0,-0.35083,0.2724,0.608551,-0.657471,27.275,57.8333,-30.275,-2286,-29472
357498,0.645996,-9.74258,1.09102,-83.6169,-3.94409,127.359,0,0,0,-0.35083,0.2724,0.608551,-0.657471,27.3167,57.8417,-30.275,-2286,-29472
357504,0.655566,-9.74736,1.09102,-83.6169,-3.94409,127.359,0,0,0,-0.35083,0.2724,0.608551,-0.657471,27.3417,57.825,-30.2583,-2286,-29472
357510,0.669922,-9.74258,1.08145,-83.6169,-3.94409,127.359,0,0,0,-0.35083,0.2724,0.608551,-0.657471,26.9583,57.825,-30.2583,-2286,-29472
357516,0.669922,-9.7665,1.10537,-83.6169,-3.94409,127.359,0,0,0,-0.35083,0.2724,0.608521,-0.657471,26.675,57.825,-30.2417,-2286,-29472
357522,0.655566,-9.74736,1.10059,-83.6169,-3.94409,127.359,0,0,0,-0.35083,0.2724,0.608521,-0.657471,26.775,57.8417,-30.1917,-2286,-29472
357528,0.655566,-9.75693,1.07666,-83.6169,-3.94409,127.359,0,0,0,-0.35083,0.2724,0.608521,-0.657501,26.8583,57.8583,-30.175,-2286,-29472
357534,0.669922,-9.74258,1.11016,-83.6169,-3.94409,127.359,0,0,0,-0.35083,0.2724,0.608521,-0.657501,26.9333,57.8667,-30.1583,-2286,-29472
357540,0.674707,-9.73779,1.09102,-83.6169,-3.9386,127.359,0,0,0,-0.35083,0.2724,0.608521,-0.657501,27,57.8833,-30.15,-2286,-29472
357546,0.684277,-9.76172,1.05752,-83.6169,-3.9386,127.359,0,0,0,-0.35083,0.2724,0.608521,-0.657501,27.1083,57.9417,-30.2083,-2286,-29472
357552,0.665137,-9.75215,1.07666,-83.6169,-3.9386,127.359,0,0,0,-0.35083,0.2724,0.608521,-0.657501,27.1417,57.9667,-30.2417,-2286,-29472
357558,0.669922,-9.73301,1.08623,-83.6169,-3.9386,127.359,0,0,0,-0.35083,0.2724,0.608521,-0.657501,27.175,57.9667,-30.275,-2286,-29472
357564,0.650781,-9.75693,1.07666,-83.6169,-3.9386,127.359,0,0,0,-0.35083,0.2724,0.608521,-0.657501,27.2,57.9583,-30.3083,-2286,-29472
357570,0.674707,-9.75693,1.10059,-83.6169,-3.9386,127.359,0,0,0,-0.35083,0.2724,0.608521,-0.657501,27.225,57.95,-30.3167,-2286,-29472
357576,0.684277,-9.74736,1.10059,-83.6169,-3.9386,127.359,0,0,0,-0.35083,0.2724,0.608521,-0.657501,27.3,57.925,-30.3,-2286,-29472
357582,0.650781,-9.76172,1.09102,-83.6169,-3.9386,127.359,0,0,0,-0.35083,0.2724,0.608521,-0.657501,27.325,57.9333,-30.25,-2286,-29472
357588,0.650781,-9.74258,1.07666,-83.6169,-3.9386,127.359,0,0,0,-0.35083,0.2724,0.608521,-0.657501,27.35,57.9333,-30.225,-2286,-29472
357594,0.655566,-9.77129,1.07187,-83.6169,-3.9386,127.359,0,0,0,-0.35083,0.2724,0.608521,-0.657501,27.3667,57.9333,-30.175,-2286,-29472
357600,0.669922,-9.74736,1.08145,-83.6169,-3.9386,127.359,0,0,0,-0.35083,0.2724,0.608521,-0.657501,27.3917,57.925,-30.1417,-2286,-29472
357606,0.655566,-9.72344,1.1293,-83.6169,-3.9386,127.359,0,0,0,-0.3508,0.2724,0.608521,-0.657501,27.4,57.9167,-30.0583,-2286,-29472
357612,0.665137,-9.74258,1.11494,-83.6169,-3.9386,127.359,0,0,0,-0.3508,0.27243,0.608521,-0.657501,27.4083,57.925,-30.0333,-2286,-29472
357618,0.650781,-9.73301,1.10059,-83.6169,-3.9386,127.359,0,0,0,-0.3508,0.27243,0.608521,-0.657501,27.4083,57.9333,-30.0083,-2286,-29472
357624,0.655566,-9.74736,1.09102,-83.6169,-3.9386,127.359,0,0,0,-0.3508,0.27243,0.608521,-0.657501,27.4167,57.9333,-30,-2286,-29472
357630,0.645996,-9.71865,1.09102,-83.6169,-3.9386,127.359,0,0,0,-0.3508,0.27243,0.608521,-0.657501,27.4333,57.925,-30.025,-2286,-29472
357636,0.669922,-9.72344,1.07187,-83.6169,-3.9386,127.359,0,0,0,-0.3508,0.27243,0.608521,-0.657501,27.4417,57.9,-30.075,-2286,-29472
357642,0.655566,-9.73779,1.07187,-83.6169,-3.9386,127.359,0,0,0,-0.3508,0.27243,0.608521,-0.657501,27.45,57.8917,-30.0917,-2286,-29472
357648,0.655566,-9.77607,1.07666,-83.6169,-3.9386,127.359,0,0,0,-0.3508,0.27243,0.608521,-0.657501,27.4583,57.8833,-30.1083,-2286,-29472
357654,0.674707,-9.74736,1.09102,-83.6169,-3.9386,127.359,0,0,0,-0.3508,0.27243,0.608521,-0.657501,27.4583,57.8833,-30.1333,-2286,-29472
357660,0.650781,-9.74736,1.08145,-83.6169,-3.9386,127.359,0,0,0,-0.3508,0.27243,0.608521,-0.657501,27.45,57.9083,-30.1333,-2286,-29472
357666,0.669922,-9.75693,1.07666,-83.6169,-3.9386,127.359,0,0,0,-0.3508,0.27243,0.608521,-0.657501,27.425,57.9417,-30.175,-2286,-29472
357672,0.679492,-9.76172,1.0958,-83.6169,-3.9386,127.359,0,0,0,-0.3508,0.27243,0.608521,-0.657501,27.4333,57.9667,-30.175,-2286,-29472
357678,0.679492,-9.76172,1.07666,-83.6169,-3.93311,127.359,0,0,0,-0.3508,0.27243,0.608521,-0.657501,27.4333,57.9667,-30.2,-2286,-29472
357684,0.650781,-9.74736,1.10059,-83.6169,-3.93311,127.359,0,0,0,-0.3508,0.27243,0.608521,-0.657501,27.45,57.975,-30.2,-2286,-29472
357690,0.669922,-9.76172,1.08623,-83.6169,-3.93311,127.359,0,0,0,-0.3508,0.27243,0.608521,-0.657501,27.4583,57.9833,-30.225,-2286,-29472
357696,0.679492,-9.73301,1.09102,-83.6169,-3.93311,127.359,0,0,0,-0.3508,0.27243,0.608521,-0.657501,27.4667,57.9917,-30.275,-2286,-29472
357702,0.679492,-9.73779,1.11016,-83.6169,-3.93311,127.359,0,0,0,-0.3508,0.27243,0.608521,-0.657501,27.4667,57.9917,-30.3,-2286,-29472
357708,0.645996,-9.75215,1.10537,-83.6169,-3.93311,127.359,0,0,0,-0.3508,0.27243,0.608521,-0.657501,27.475,58,-30.2917,-2286,-29472
357714,0.674707,-9.74736,1.08145,-83.6169,-3.93311,127.359,0,0,0,-0.3508,0.27243,0.608521,-0.657501,27.4833,58.0083,-30.2833,-2286,-29472
357720,0.650781,-9.74736,1.10537,-83.6169,-3.93311,127.359,0,0,0,-0.3508,0.27243,0.608521,-0.657501,27.5,58.0083,-30.275,-2286,-29472
357726,0.636426,-9.75215,1.09102,-83.6169,-3.93311,127.359,0,0,0,-0.3508,0.27243,0.60849,-0.657501,27.5167,57.9917,-30.2333,-2286,-29472
