Timestamp,AccX,AccY,AccZ,AngleX,AngleY,AngleZ,AngularVelX,AngularVelY,AngularVelZ,QW,QX,QY,QZ,MagX,MagY,MagZ,Height,AirPressure,Label
328962,-0.775195,-9.73779,1.18672,-83.15,4.68567,-98.1409,0.12207,0.366211,0,0.510132,-0.411224,0.520966,-0.546906,-43.1333,15.0167,-8.43333,3527,-30170,Default
328968,-0.75127,-9.74736,1.14844,-83.15,4.68567,-98.1409,0.12207,0.12207,0.183105,0.510132,-0.411224,0.520966,-0.546906,-43.125,14.9917,-8.425,3527,-30170,Default
328974,-0.75127,-9.7665,1.21543,-83.15,4.68567,-98.1409,0,0.305176,0.244141,0.510132,-0.411224,0.520966,-0.546936,-43.1333,14.9667,-8.43333,3527,-30170,Default
328980,-0.75127,-9.73301,1.20107,-83.1445,4.68567,-98.1464,0.12207,0.0610352,0.366211,0.510132,-0.411194,0.520996,-0.546936,-43.1833,14.975,-8.40833,3527,-30170,Default
328986,-0.756055,-9.71865,1.21064,-83.1445,4.69116,-98.1464,0.12207,0,0.12207,0.510132,-0.411194,0.520996,-0.546936,-43.2,14.9833,-8.4,3527,-30170,Default
328992,-0.765625,-9.72344,1.20586,-83.1445,4.68567,-98.1464,0,0.12207,0.0610352,0.510132,-0.411163,0.520996,-0.546936,-43.2083,15,-8.375,3527,-30170,Default
328998,-0.756055,-9.76172,1.18193,-83.1445,4.68567,-98.1464,-0.0610352,0,0.0610352,0.510132,-0.411163,0.520996,-0.546936,-43.2083,15.0083,-8.38333,3527,-30170,Default
329004,-0.765625,-9.75693,1.18193,-83.1445,4.68567,-98.1464,0,0,0.0610352,0.510132,-0.411163,0.520996,-0.546936,-43.1833,15,-8.40833,3527,-30170,Default
329010,-0.722559,-9.7665,1.19629,-83.1445,4.68567,-98.1464,0,-0.0610352,0.0610352,0.510132,-0.411163,0.520966,-0.546967,-43.1083,14.9667,-8.49167,3527,-30170,Default
329016,-0.756055,-9.77607,1.1915,-83.1445,4.68567,-98.1464,0.0610352,0,0.183105,0.510132,-0.411163,0.520966,-0.546967,-43.075,14.95,-8.50833,3527,-30170,Default
329022,-0.765625,-9.78564,1.16758,-83.1445,4.68567,-98.1464,0.12207,0.12207,0.244141,0.510132,-0.411163,0.520966,-0.546967,-43.05,14.95,-8.50833,3527,-30170,Default
329028,-0.736914,-9.7665,1.21543,-83.1445,4.68567,-98.1519,0.183105,0,0.366211,0.510132,-0.411163,0.520966,-0.546967,-43.025,14.9583,-8.48333,3527,-30170,Default
329034,-0.741699,-9.74736,1.21064,-83.139,4.68567,-98.1519,0.12207,0,0.0610352,0.510132,-0.411163,0.520966,-0.546967,-43.0167,14.95,-8.45,3527,-30170,Default
329040,-0.77998,-9.70908,1.1915,-83.139,4.68567,-98.1519,0.183105,0.12207,0.305176,0.510132,-0.411133,0.520966,-0.546997,-43.0333,14.9667,-8.40833,3527,-30170,Default
329046,-0.775195,-9.73301,1.19629,-83.139,4.68567,-98.1519,0.12207,0,0.244141,0.510132,-0.411133,0.520966,-0.546997,-43.0583,14.9667,-8.375,3527,-30170,Default
329052,-0.76084,-9.73779,1.16279,-83.139,4.68567,-98.1519,0.183105,0.12207,0.0610352,0.510132,-0.411102,0.520966,-0.546997,-43.0833,14.9667,-8.375,3527,-30170,Default
329058,-0.77041,-9.75215,1.17236,-83.139,4.68567,-98.1519,0,0.12207,0.366211,0.510132,-0.411102,0.520966,-0.546997,-43.1083,14.9583,-8.375,3527,-30170,Default
329064,-0.775195,-9.73779,1.17236,-83.1335,4.68567,-98.1519,0,0,0,0.510132,-0.411102,0.520966,-0.546997,-43.1167,14.9417,-8.4,3527,-30170,Default
329070,-0.784766,-9.72344,1.16279,-83.1335,4.68567,-98.1519,-0.0610352,0,0.0610352,0.510132,-0.411102,0.520966,-0.547028,-43.1,14.9083,-8.36667,3527,-30170,Default
329076,-0.77041,-9.69951,1.22021,-83.1335,4.68567,-98.1573,0.0610352,0,-0.0610352,0.510132,-0.411102,0.520966,-0.547028,-43.1,14.925,-8.33333,3527,-30170,Default
329082,-0.77041,-9.78086,1.20107,-83.1335,4.68567,-98.1573,0.0610352,-0.12207,0,0.510132,-0.411102,0.520966,-0.547028,-43.125,14.9167,-8.29167,3527,-30170,Default
329088,-0.75127,-9.73301,1.20586,-83.1335,4.68567,-98.1573,0,0,0.0610352,0.510132,-0.411102,0.520935,-0.547028,-43.15,14.9,-8.25,3527,-30170,Default
329094,-0.77041,-9.75215,1.20107,-83.1335,4.68567,-98.1573,-0.183105,0,-0.244141,0.510132,-0.411102,0.520935,-0.547058,-43.1583,14.8917,-8.21667,3527,-30170,Default
329100,-0.775195,-9.74736,1.20586,-83.1335,4.68567,-98.1573,-0.0610352,-0.12207,0,0.510101,-0.411102,0.520935,-0.547058,-43.1833,14.8667,-8.25,3527,-30170,Default
329106,-0.746484,-9.74258,1.22021,-83.1335,4.68018,-98.1573,0,-0.12207,-0.183105,0.510101,-0.411102,0.520935,-0.547058,-43.1667,14.8417,-8.28333,3527,-30170,Default
329112,-0.775195,-9.75215,1.1915,-83.1335,4.68018,-98.1573,0,0,0.244141,0.510101,-0.411102,0.520935,-0.547058,-43.1417,14.8417,-8.33333,3527,-30170,Default
329118,-0.736914,-9.74258,1.19629,-83.1335,4.68018,-98.1573,0,0,-0.12207,0.510101,-0.411102,0.520935,-0.547058,-43.125,14.8583,-8.35,3527,-30170,Default
329124,-0.741699,-9.76172,1.22021,-83.1335,4.68018,-98.1573,-0.0610352,0,0.12207,0.510101,-0.411102,0.520935,-0.547089,-43.0833,14.9,-8.31667,3527,-30170,Default
329130,-0.736914,-9.79521,1.16758,-83.1335,4.68018,-98.1573,0.0610352,-0.0610352,0.12207,0.510101,-0.411102,0.520905,-0.547089,-43.075,14.9417,-8.33333,3527,-30170,Default
329136,-0.75127,-9.77129,1.17715,-83.1281,4.68018,-98.1573,0.12207,0.0610352,-0.244141,0.510101,-0.411102,0.520905,-0.547089,-43.0917,14.9667,-8.35,3527,-30170,Default
329142,-0.746484,-9.73779,1.22021,-83.1281,4.67468,-98.1573,0.0610352,0,0,0.510101,-0.411133,0.520905,-0.547089,-43.0833,14.975,-8.39167,3527,-30170,Default
329148,-0.775195,-9.75693,1.19629,-83.1281,4.67468,-98.1573,0,0,0.0610352,0.510101,-0.411102,0.520905,-0.547119,-43.0917,14.9833,-8.45,3527,-30170,Default
329154,-0.765625,-9.74258,1.19629,-83.1281,4.67468,-98.1573,-0.0610352,0,0,0.510101,-0.411102,0.520905,-0.547119,-43.1083,14.975,-8.53333,3527,-30170,Default
329160,-0.77998,-9.76172,1.18193,-83.1281,4.67468,-98.1573,0,0,0.366211,0.510101,-0.411133,0.520905,-0.547119,-43.1,14.9833,-8.55,3527,-30170,Default
329166,-0.76084,-9.73779,1.17236,-83.1281,4.67468,-98.1573,-0.0610352,0,-0.183105,0.510101,-0.411102,0.520905,-0.547119,-43.075,15.0083,-8.53333,3527,-30170,Default
329172,-0.77041,-9.74258,1.1915,-83.1281,4.67468,-98.1573,-0.183105,0.183105,0.12207,0.510071,-0.411102,0.520905,-0.547119,-43.0583,15.0333,-8.49167,3527,-30170,Default
329178,-0.784766,-9.77129,1.1915,-83.1281,4.67468,-98.1573,0,0.12207,0.244141,0.510071,-0.411102,0.520905,-0.547119,-43.0583,15.0667,-8.45833,3527,-30170,Default
329184,-0.76084,-9.75215,1.21543,-83.1281,4.67468,-98.1573,0,-0.12207,0,0.510071,-0.411102,0.520905,-0.547119,-43.0917,15.125,-8.45833,3527,-30170,Default
329190,-0.756055,-9.76172,1.17715,-83.1281,4.67468,-98.1573,0,0,0.0610352,0.510071,-0.411102,0.520905,-0.54715,-43.1,15.15,-8.51667,3527,-30170,Default
329196,-0.736914,-9.77607,1.1915,-83.1281,4.67468,-98.1628,-0.12207,0.183105,-0.0610352,0.510071,-0.411102,0.520905,-0.54715,-43.0917,15.1833,-8.575,3527,-30170,Default
329202,-0.784766,-9.74258,1.20107,-83.1281,4.67468,-98.1628,0.0610352,0,0.183105,0.510071,-0.411102,0.520905,-0.54715,-43.0833,15.1917,-8.61667,3527,-30170,Default
329208,-0.765625,-9.75693,1.19629,-83.1281,4.67468,-98.1628,0,0.0610352,0.0610352,0.510071,-0.411102,0.520905,-0.54715,-43.0667,15.1667,-8.60833,3527,-30170,Default
329214,-0.75127,-9.74736,1.16758,-83.1281,4.67468,-98.1628,0.0610352,0.183105,0.183105,0.510071,-0.411102,0.520905,-0.54715,-43.05,15.1167,-8.55,3527,-30170,Default
329220,-0.77041,-9.73779,1.20107,-83.1281,4.66919,-98.1628,-0.12207,0,0.427246,0.510071,-0.411102,0.520874,-0.54718,-43.0417,15.0833,-8.49167,3527,-30170,Default
329226,-0.756055,-9.77129,1.20107,-83.1281,4.67468,-98.1628,0,0,-0.183105,0.510071,-0.411102,0.520905,-0.54718,-43.0083,15.0583,-8.48333,3527,-30170,Default
329232,-0.77998,-9.76172,1.18193,-83.1281,4.66919,-98.1628,0,0.305176,0,0.51004,-0.411102,0.520874,-0.54718,-42.9833,15.0583,-8.48333,3527,-30170,Default
329238,-0.765625,-9.77129,1.19629,-83.1226,4.66919,-98.1683,0.0610352,0.12207,0.305176,0.51004,-0.411102,0.520874,-0.54718,-42.9833,15.0667,-8.5,3527,-30170,Default
329244,-0.741699,-9.77129,1.18193,-83.1226,4.66919,-98.1683,0.0610352,0,0.0610352,0.51004,-0.411072,0.520905,-0.54718,-43.0167,15.1083,-8.55833,3527,-30170,Default
329250,-0.775195,-9.72344,1.20107,-83.1226,4.66919,-98.1683,0,0,0,0.51004,-0.411072,0.520874,-0.547211,-43.0083,15.1417,-8.59167,3527,-30170,Default
329256,-0.732129,-9.73779,1.21543,-83.1226,4.66919,-98.1683,-0.0610352,0.0610352,-0.244141,0.51004,-0.411072,0.520874,-0.547211,-42.9833,15.1667,-8.625,3527,-30170,Default
329262,-0.746484,-9.78564,1.17236,-83.1226,4.66919,-98.1683,0,0,0.0610352,0.51001,-0.411072,0.520874,-0.547211,-42.9583,15.1917,-8.625,3527,-30170,Default
329268,-0.746484,-9.78564,1.17236,-83.1226,4.66919,-98.1683,0,0.12207,0,0.51001,-0.411072,0.520874,-0.547241,-42.9333,15.2,-8.63333,3527,-30170,Default
329274,-0.741699,-9.74258,1.20107,-83.1226,4.6637,-98.1738,0.12207,0.0610352,0.0610352,0.51001,-0.411072,0.520874,-0.547241,-42.95,15.2083,-8.55833,3527,-30170,Default
329280,-0.746484,-9.79521,1.17236,-83.1226,4.66919,-98.1738,-0.0610352,0.12207,0.0610352,0.51001,-0.411041,0.520874,-0.547241,-42.9667,15.225,-8.54167,3527,-30170,Default
329286,-0.746484,-9.7665,1.16279,-83.1226,4.66919,-98.1738,0.0610352,0,0.366211,0.51001,-0.411041,0.520874,-0.547241,-42.9833,15.25,-8.53333,3527,-30170,Default
329292,-0.76084,-9.73779,1.17715,-83.1226,4.66919,-98.1738,0.0610352,0.183105,0.244141,0.51001,-0.411041,0.520874,-0.547241,-42.9917,15.2583,-8.55,3527,-30170,Default
329298,-0.76084,-9.74258,1.17715,-83.1226,4.66919,-98.1738,0.12207,0,0.0610352,0.51001,-0.411041,0.520905,-0.547241,-42.9917,15.2917,-8.575,3527,-30170,Default
329304,-0.732129,-9.73779,1.225,-83.1171,4.66919,-98.1738,0.12207,0.12207,0.244141,0.51001,-0.411041,0.520874,-0.547272,-43.0083,15.2917,-8.64167,3527,-30170,Default
329310,-0.756055,-9.76172,1.19629,-83.1171,4.66919,-98.1793,0.12207,0.0610352,0.305176,0.51001,-0.411011,0.520905,-0.547272,-43,15.2583,-8.68333,3527,-30170,Default
329316,-0.75127,-9.76172,1.21543,-83.1171,4.66919,-98.1793,0.0610352,0.12207,0.12207,0.51001,-0.411011,0.520905,-0.547272,-43,15.2167,-8.71667,3527,-30170,Default
329322,-0.77998,-9.73779,1.225,-83.1171,4.66919,-98.1793,0.0610352,0.0610352,0.12207,0.51001,-0.411011,0.520905,-0.547272,-43.0083,15.1667,-8.75833,3527,-30170,Default
329328,-0.765625,-9.74258,1.21543,-83.1171,4.66919,-98.1793,0.0610352,-0.183105,0.0610352,0.51001,-0.41098,0.520905,-0.547272,-43.0083,15.1333,-8.81667,3527,-30170,Default
329334,-0.775195,-9.71387,1.23936,-83.1171,4.66919,-98.1793,-0.0610352,0,0,0.51001,-0.41098,0.520874,-0.547272,-43.05,15.0917,-8.83333,3527,-30170,Default
329340,-0.736914,-9.75693,1.18672,-83.1171,4.66919,-98.1793,0.0610352,0,0,0.51001,-0.411011,0.520905,-0.547302,-43.0417,15.0833,-8.81667,3527,-30170,Default
329346,-0.746484,-9.78564,1.18193,-83.1171,4.66919,-98.1793,-0.0610352,-0.183105,0.183105,0.51001,-0.411011,0.520874,-0.547302,-43.0417,15.0833,-8.775,3527,-30170,Default
329352,-0.77998,-9.75215,1.18672,-83.1171,4.66919,-98.1793,0.12207,0.0610352,0.12207,0.51001,-0.411011,0.520874,-0.547302,-43.025,15.0667,-8.70833,3527,-30170,Default
329358,-0.756055,-9.75693,1.18193,-83.1171,4.66919,-98.1793,0.0610352,0,-0.0610352,0.51001,-0.41098,0.520874,-0.547302,-43,15.0583,-8.65833,3527,-30170,Default
329364,-0.741699,-9.75215,1.18193,-83.1116,4.66919,-98.1793,0.12207,0,0.0610352,0.51001,-0.41098,0.520874,-0.547302,-42.95,15.0583,-8.6,3527,-30170,Default
329370,-0.75127,-9.78564,1.15801,-83.1116,4.66919,-98.1793,0,0,0.244141,0.51001,-0.41098,0.520874,-0.547333,-42.95,15.0667,-8.575,3527,-30170,Default
329376,-0.756055,-9.79043,1.18193,-83.1116,4.66919,-98.1793,0.12207,0,0,0.51001,-0.41098,0.520874,-0.547333,-42.9583,15.0833,-8.55833,3527,-30170,Default
329382,-0.765625,-9.74736,1.17236,-83.1116,4.66919,-98.1793,0.183105,0.12207,0.244141,0.51001,-0.41098,0.520874,-0.547333,-42.9583,15.0917,-8.54167,3527,-30170,Default
329388,-0.746484,-9.75215,1.18672,-83.1116,4.66919,-98.1793,0.244141,0.0610352,0.549316,0.51001,-0.41098,0.520874,-0.547333,-42.9667,15.1,-8.54167,3527,-30170,Default
329394,-0.775195,-9.75215,1.20586,-83.1061,4.66919,-98.1793,0.244141,0,0.305176,0.51004,-0.41095,0.520874,-0.547333,-42.9417,15.125,-8.56667,3527,-30170,Default
329400,-0.77041,-9.76172,1.16279,-83.1061,4.66919,-98.1848,0.12207,-0.0610352,0.427246,0.51004,-0.410919,0.520874,-0.547333,-42.9417,15.1167,-8.60833,3527,-30170,Default
329406,-0.775195,-9.74258,1.16758,-83.1061,4.67468,-98.1848,0.12207,0.12207,0.366211,0.51004,-0.410919,0.520874,-0.547333,-42.95,15.1,-8.65,3527,-30170,Default
329412,-0.784766,-9.75215,1.21064,-83.1061,4.67468,-98.1848,0,0.0610352,0.427246,0.51004,-0.410889,0.520874,-0.547333,-42.9583,15.0833,-8.675,3527,-30170,Default
329418,-0.76084,-9.78564,1.21064,-83.1061,4.67468,-98.1848,0.0610352,0,0.12207,0.51004,-0.410889,0.520874,-0.547333,-42.9667,15.0917,-8.70833,3527,-30170,Default
329424,-0.746484,-9.74736,1.1915,-83.1061,4.67468,-98.1848,0.183105,0,0.305176,0.510071,-0.410889,0.520874,-0.547333,-42.975,15.15,-8.71667,3527,-30170,Default
329430,-0.784766,-9.73779,1.21064,-83.1006,4.67468,-98.1848,0.183105,0,0.549316,0.510071,-0.410858,0.520874,-0.547363,-42.975,15.175,-8.7,3527,-30170,Default
329436,-0.765625,-9.74736,1.19629,-83.1006,4.68018,-98.1848,0.12207,-0.12207,0.488281,0.510071,-0.410858,0.520874,-0.547363,-42.9833,15.1917,-8.65,3527,-30170,Default
329442,-0.741699,-9.74258,1.20586,-83.1006,4.68018,-98.1848,0.12207,0.183105,0.610352,0.510101,-0.410858,0.520874,-0.547333,-43,15.1833,-8.575,3527,-30170,Default
329448,-0.765625,-9.7665,1.15322,-83.1006,4.68567,-98.1848,0.12207,0,0.12207,0.510101,-0.410828,0.520874,-0.547333,-43.0167,15.1417,-8.49167,3527,-30170,Default
329454,-0.77041,-9.74736,1.19629,-83.0951,4.68567,-98.1848,0.244141,0.183105,0.427246,0.510101,-0.410797,0.520874,-0.547363,-43.0583,15.0833,-8.425,3527,-30170,Default
329460,-0.765625,-9.75693,1.1915,-83.0951,4.68567,-98.1848,0.244141,-0.183105,0.244141,0.510101,-0.410797,0.520874,-0.547363,-43.075,15.0583,-8.44167,3527,-30170,Default
329466,-0.77998,-9.74258,1.16279,-83.0951,4.68567,-98.1848,0.366211,0.12207,0.0610352,0.510132,-0.410797,0.520874,-0.547363,-43.0833,15.0667,-8.475,3527,-30170,Default
329472,-0.77998,-9.74258,1.15322,-83.0896,4.68567,-98.1848,0.183105,0,0.366211,0.510132,-0.410767,0.520874,-0.547363,-43.075,15.0583,-8.46667,3527,-30170,Default
329478,-0.77998,-9.71865,1.17236,-83.0896,4.68567,-98.1848,0.12207,0,0.183105,0.510132,-0.410767,0.520874,-0.547363,-43.075,15.0667,-8.43333,3527,-30170,Default
329484,-0.808691,-9.73779,1.19629,-83.0896,4.68567,-98.1848,0.366211,0.0610352,0.427246,0.510132,-0.410736,0.520844,-0.547394,-43.0667,15.075,-8.425,3527,-30170,Default
329490,-0.77998,-9.73779,1.17715,-83.0896,4.68567,-98.1848,0.12207,-0.0610352,0,0.510162,-0.410736,0.520844,-0.547394,-43.0583,15.0917,-8.43333,3527,-30170,Default
329496,-0.736914,-9.74258,1.18193,-83.0896,4.68567,-98.1848,0.12207,0.244141,0.305176,0.510162,-0.410736,0.520844,-0.547394,-43.075,15.1167,-8.45833,3527,-30170,Default
329502,-0.775195,-9.73779,1.1915,-83.0841,4.68567,-98.1903,0.12207,0,0.0610352,0.510162,-0.410736,0.520844,-0.547394,-43.075,15.1333,-8.5,3527,-30170,Default
329508,-0.784766,-9.74258,1.21064,-83.0841,4.68567,-98.1903,0.12207,0.0610352,0.305176,0.510162,-0.410736,0.520844,-0.547394,-43.0667,15.1667,-8.48333,3527,-30170,Default
329514,-0.77041,-9.73301,1.18672,-83.0841,4.68567,-98.1903,0.12207,0.0610352,0.0610352,0.510162,-0.410706,0.520844,-0.547424,-43.0583,15.2083,-8.55833,3527,-30170,Default
329520,-0.756055,-9.75693,1.1915,-83.0841,4.68567,-98.1903,0,0.0610352,0.0610352,0.510162,-0.410706,0.520844,-0.547424,-43.075,15.2333,-8.59167,3527,-30170,Default
329526,-0.756055,-9.74736,1.14844,-83.0841,4.68567,-98.1903,0.12207,0,0.183105,0.510132,-0.410706,0.520844,-0.547424,-43.1083,15.2333,-8.61667,3527,-30170,Default
329532,-0.775195,-9.74736,1.20586,-83.0841,4.68567,-98.1903,0.12207,0.183105,0.0610352,0.510162,-0.410706,0.520844,-0.547424,-43.1417,15.2417,-8.64167,3527,-30170,Default
329538,-0.746484,-9.74736,1.17236,-83.0841,4.68567,-98.1903,0.183105,0,-0.12207,0.510132,-0.410706,0.520844,-0.547424,-43.1667,15.2417,-8.63333,3527,-30170,Default
329544,-0.765625,-9.73779,1.20107,-83.0786,4.68567,-98.1903,0.12207,0,0.0610352,0.510132,-0.410706,0.520813,-0.547455,-43.1583,15.25,-8.69167,3527,-30170,Default
329550,-0.765625,-9.75693,1.1915,-83.0786,4.68567,-98.1903,0.183105,0,0.12207,0.510162,-0.410706,0.520813,-0.547455,-43.1417,15.2583,-8.71667,3527,-30170,Default
329556,-0.76084,-9.74736,1.20107,-83.0786,4.68567,-98.1903,0.12207,0.12207,0.488281,0.510162,-0.410675,0.520813,-0.547455,-43.1333,15.2833,-8.75,3527,-30170,Default
329562,-0.77998,-9.73779,1.19629,-83.0786,4.68567,-98.1903,0.183105,0,0.366211,0.510162,-0.410675,0.520813,-0.547455,-43.125,15.3,-8.79167,3527,-30170,Default
329568,-0.784766,-9.76172,1.1915,-83.0786,4.68567,-98.1903,0.183105,0,0.0610352,0.510162,-0.410675,0.520813,-0.547455,-43.1083,15.3,-8.78333,3527,-30170,Default
329574,-0.765625,-9.74258,1.22021,-83.0731,4.68567,-98.1958,0,0.0610352,0.12207,0.510162,-0.410645,0.520813,-0.547455,-43.0417,15.25,-8.775,3527,-30170,Default
329580,-0.77041,-9.74736,1.18672,-83.0731,4.69116,-98.1958,0,0.12207,0.366211,0.510162,-0.410645,0.520813,-0.547455,-43.0083,15.2,-8.73333,3527,-30170,Default
329586,-0.76084,-9.73779,1.18193,-83.0731,4.69116,-98.1958,0.12207,0.0610352,-0.0610352,0.510162,-0.410645,0.520844,-0.547455,-42.975,15.15,-8.70833,3527,-30170,Default
329592,-0.77998,-9.7665,1.18193,-83.0731,4.69116,-98.1958,0.183105,-0.0610352,0.12207,0.510162,-0.410645,0.520813,-0.547485,-42.9583,15.125,-8.66667,3527,-30170,Default
329598,-0.799121,-9.76172,1.20586,-83.0731,4.69116,-98.1958,0.12207,-0.0610352,0,0.510162,-0.410645,0.520813,-0.547485,-42.9417,15.075,-8.60833,3527,-30170,Default
329604,-0.765625,-9.75693,1.16758,-83.0731,4.68567,-98.1958,0.0610352,-0.0610352,0.0610352,0.510162,-0.410645,0.520813,-0.547485,-42.95,15.1,-8.61667,3527,-30170,Default
329610,-0.77041,-9.75215,1.19629,-83.0731,4.68567,-98.1958,0.183105,0.12207,0,0.510162,-0.410645,0.520813,-0.547485,-42.9583,15.1167,-8.65,3527,-30170,Default
329616,-0.77041,-9.72344,1.21064,-83.0731,4.68567,-98.1958,0.0610352,0.12207,0,0.510162,-0.410614,0.520813,-0.547516,-42.95,15.1417,-8.70833,3527,-30170,Default
329622,-0.76084,-9.75693,1.18193,-83.0731,4.68567,-98.1958,0.12207,-0.12207,0.305176,0.510162,-0.410614,0.520813,-0.547516,-42.9333,15.1583,-8.775,3527,-30170,Default
329628,-0.746484,-9.74736,1.16279,-83.0676,4.68567,-98.1958,0.183105,0.0610352,0,0.510162,-0.410614,0.520813,-0.547516,-42.9333,15.175,-8.775,3527,-30170,Default
329634,-0.765625,-9.75693,1.18193,-83.0676,4.68567,-98.1958,0.305176,0,0,0.510162,-0.410614,0.520782,-0.547516,-42.9167,15.2,-8.78333,3527,-30170,Default
329640,-0.789551,-9.74736,1.18672,-83.0676,4.68567,-98.1958,0.12207,0,0.427246,0.510193,-0.410614,0.520782,-0.547516,-42.925,15.2167,-8.83333,3527,-30170,Default
329646,-0.76084,-9.73779,1.21064,-83.0676,4.68567,-98.1958,0.183105,0.183105,0.244141,0.510193,-0.410583,0.520782,-0.547516,-42.9417,15.2333,-8.89167,3527,-30170,Default
329652,-0.794336,-9.74736,1.20107,-83.0621,4.69116,-98.1958,0.12207,0,0.0610352,0.510193,-0.410583,0.520782,-0.547546,-42.9667,15.2333,-8.925,3527,-30170,Default
329658,-0.75127,-9.74258,1.20586,-83.0621,4.69116,-98.1958,0.183105,0.0610352,0.12207,0.510193,-0.410583,0.520782,-0.547546,-42.9917,15.25,-8.94167,3527,-30170,Default
329664,-0.77041,-9.76172,1.22021,-83.0621,4.69116,-98.1958,0.244141,-0.0610352,0.244141,0.510193,-0.410553,0.520782,-0.547546,-43.0333,15.25,-8.93333,3527,-30170,Default
329670,-0.775195,-9.74736,1.20107,-83.0621,4.68567,-98.1958,0.12207,0.0610352,0.0610352,0.510193,-0.410553,0.520752,-0.547546,-43.05,15.2583,-8.93333,3527,-30170,Default
329676,-0.736914,-9.76172,1.22979,-83.0566,4.68567,-98.1958,0.0610352,0,0.0610352,0.510193,-0.410553,0.520752,-0.547577,-43.05,15.225,-8.91667,3527,-30170,Default
329682,-0.76084,-9.73301,1.20586,-83.0566,4.68567,-98.2013,0,0.183105,0.0610352,0.510193,-0.410553,0.520752,-0.547577,-43.0583,15.2083,-8.9,3527,-30170,Default
329688,-0.765625,-9.72822,1.20107,-83.0566,4.68567,-98.2013,-0.12207,0.244141,0.183105,0.510193,-0.410553,0.520752,-0.547577,-43.05,15.1667,-8.85833,3527,-30170,Default
329694,-0.77041,-9.74736,1.14844,-83.0566,4.69116,-98.2013,-0.0610352,0.244141,0.305176,0.510193,-0.410522,0.520782,-0.547577,-43.05,15.1083,-8.8,3527,-30170,Default
329700,-0.77998,-9.71387,1.19629,-83.0621,4.69116,-98.2013,-0.0610352,0.183105,0.183105,0.510193,-0.410522,0.520782,-0.547577,-43.0833,15.1,-8.79167,3527,-30170,Default
329706,-0.77041,-9.74736,1.21064,-83.0621,4.69116,-98.2068,-0.305176,0.305176,0.183105,0.510162,-0.410522,0.520782,-0.547577,-43.1167,15.0833,-8.75,3527,-30170,Default
329712,-0.784766,-9.74736,1.21064,-83.0621,4.69116,-98.2068,-0.0610352,0.244141,0,0.510162,-0.410522,0.520813,-0.547577,-43.1333,15.075,-8.70833,3527,-30170,Default
329718,-0.75127,-9.7665,1.20107,-83.0621,4.69116,-98.2068,0,0.0610352,0.183105,0.510162,-0.410522,0.520813,-0.547577,-43.1333,15.075,-8.63333,3527,-30170,Default
329724,-0.784766,-9.78564,1.1915,-83.0621,4.69116,-98.2068,-0.12207,0,0.0610352,0.510162,-0.410522,0.520813,-0.547577,-43.1,15.075,-8.45833,3527,-30170,Default
329730,-0.808691,-9.73779,1.20586,-83.0621,4.68567,-98.2068,0.0610352,0,0,0.510132,-0.410522,0.520813,-0.547607,-43.0917,15.0583,-8.41667,3527,-30170,Default
329736,-0.756055,-9.7665,1.15801,-83.0621,4.68567,-98.2068,0.0610352,-0.244141,-0.12207,0.510132,-0.410522,0.520813,-0.547607,-43.075,15.0667,-8.38333,3527,-30170,Default
329742,-0.803906,-9.71865,1.19629,-83.0621,4.68567,-98.2068,0.0610352,0,0.183105,0.510132,-0.410522,0.520782,-0.547607,-43.0667,15.0583,-8.35,3527,-30170,Default
329748,-0.746484,-9.74736,1.18193,-83.0621,4.68567,-98.2068,0.183105,-0.183105,0.0610352,0.510132,-0.410522,0.520782,-0.547607,-43.0583,15.05,-8.36667,3527,-30170,Default
329754,-0.765625,-9.74736,1.18672,-83.0566,4.68567,-98.2068,0.183105,0,0.0610352,0.510162,-0.410522,0.520782,-0.547607,-43.0417,15.0167,-8.35833,3527,-30170,Default
329760,-0.77998,-9.73779,1.19629,-83.0566,4.68567,-98.2068,0.244141,0.183105,0,0.510162,-0.410522,0.520782,-0.547607,-43.0417,15,-8.35,3527,-30170,Default
329766,-0.799121,-9.73779,1.18672,-83.0566,4.68567,-98.2068,0.12207,0,-0.183105,0.510162,-0.410492,0.520782,-0.547638,-43.0333,15.0083,-8.34167,3527,-30170,Default
329772,-0.77041,-9.69473,1.20107,-83.0566,4.68567,-98.2123,0.183105,0.12207,0.244141,0.510132,-0.410492,0.520782,-0.547638,-43.0333,15.0083,-8.33333,3527,-30170,Default
329778,-0.76084,-9.72344,1.24893,-83.0566,4.68567,-98.2123,0,-0.12207,0,0.510162,-0.410492,0.520782,-0.547638,-43.0167,15.0167,-8.35833,3527,-30170,Default
329784,-0.77998,-9.70908,1.22021,-83.0511,4.68567,-98.2123,0,0.0610352,0.0610352,0.510162,-0.410492,0.520752,-0.547668,-42.9917,15.0167,-8.39167,3527,-30170,Default
329790,-0.765625,-9.71387,1.22979,-83.0511,4.68567,-98.2123,0,0,0.0610352,0.510132,-0.410492,0.520752,-0.547668,-42.9917,15.0167,-8.4,3527,-30170,Default
329796,-0.765625,-9.70908,1.19629,-83.0511,4.68567,-98.2123,-0.12207,0,-0.244141,0.510132,-0.410492,0.520752,-0.547668,-42.9917,15.0083,-8.40833,3527,-30170,Default
329802,-0.784766,-9.71865,1.19629,-83.0511,4.68018,-98.2123,-0.183105,0.12207,-0.183105,0.510132,-0.410522,0.520752,-0.547668,-43.0167,15.0167,-8.375,3527,-30170,Default
329808,-0.775195,-9.78086,1.14844,-83.0566,4.68018,-98.2123,-0.183105,-0.0610352,-0.12207,0.510132,-0.410522,0.520752,-0.547668,-43.0167,15.025,-8.375,3527,-30170,Default
329814,-0.794336,-9.68037,1.1915,-83.0511,4.67468,-98.2123,0.183105,0.0610352,-0.305176,0.510101,-0.410522,0.520752,-0.547699,-43.025,15.05,-8.36667,3527,-30170,Default
329820,-0.808691,-9.79521,1.16279,-83.0566,4.67468,-98.2178,-0.366211,-0.366211,-0.12207,0.510071,-0.410522,0.520752,-0.547699,-43.025,15.05,-8.38333,3527,-30170,Default
329826,-0.693848,-9.75215,1.225,-83.0566,4.67468,-98.2123,-0.12207,0,-0.488281,0.510071,-0.410553,0.520752,-0.547699,-43.0083,15.05,-8.4,3527,-30170,Default
329832,-0.799121,-9.71387,1.22021,-83.0566,4.66919,-98.2123,-0.305176,0.305176,-0.366211,0.51004,-0.410553,0.520752,-0.547699,-42.9833,15.05,-8.4,3527,-30170,Default
329838,-0.77041,-9.76172,1.17236,-83.0621,4.6637,-98.2178,-0.427246,0,-0.366211,0.51004,-0.410583,0.520752,-0.547729,-42.9667,15.05,-8.43333,3527,-30170,Default
329844,-0.77998,-9.72822,1.17236,-83.0621,4.6637,-98.2178,-0.244141,0.0610352,-0.183105,0.509979,-0.410614,0.520752,-0.547729,-42.9833,15.0583,-8.45833,3527,-30170,Default
329850,-0.775195,-9.72344,1.20107,-83.0621,4.6637,-98.2178,-0.244141,0,-0.0610352,0.509979,-0.410614,0.520752,-0.547729,-43.025,15.0667,-8.46667,3527,-30170,Default
329856,-0.76084,-9.74736,1.19629,-83.0621,4.6637,-98.2178,-0.305176,0.0610352,-0.366211,0.509979,-0.410614,0.520752,-0.547729,-43.0833,15.0667,-8.45833,3527,-30170,Default
329862,-0.76084,-9.71865,1.20107,-83.0676,4.6582,-98.2178,-0.305176,0,0.0610352,0.509949,-0.410645,0.520752,-0.54776,-43.125,15.0583,-8.44167,3527,-30170,Default
329868,-0.784766,-9.70908,1.21064,-83.0676,4.6582,-98.2233,-0.244141,0.12207,-0.366211,0.509949,-0.410645,0.520752,-0.547729,-43.15,15.0583,-8.425,3527,-30170,Default
329874,-0.77998,-9.68037,1.225,-83.0676,4.65271,-98.2233,-0.305176,0.12207,-0.549316,0.509918,-0.410675,0.520752,-0.54776,-43.1167,15.025,-8.45,3527,-30170,Default
329880,-0.77998,-9.68994,1.20586,-83.0731,4.65271,-98.2233,-0.610352,0.0610352,-0.793457,0.509888,-0.410675,0.520752,-0.54776,-43.1167,15,-8.48333,3527,-30170,Default
329886,-0.77041,-9.67559,1.225,-83.0731,4.64722,-98.2233,-0.671387,0.12207,-0.854492,0.509857,-0.410706,0.520752,-0.547791,-43.1,14.9917,-8.525,3527,-30170,Default
329892,-0.746484,-9.66602,1.23936,-83.0786,4.64172,-98.2233,-0.732422,0.0610352,-1.09863,0.509827,-0.410736,0.520752,-0.547791,-43.1167,14.9917,-8.59167,3527,-30170,Default
329898,-0.77998,-9.7043,1.19629,-83.0841,4.63074,-98.2288,-0.915527,0,-1.0376,0.509766,-0.410797,0.520752,-0.547791,-43.1333,14.9667,-8.65,3527,-30170,Default
329904,-0.789551,-9.68994,1.14844,-83.0896,4.62524,-98.2288,-1.09863,0.244141,-1.15967,0.509705,-0.410858,0.520752,-0.547821,-43.1583,14.9667,-8.7,3527,-30170,Default
329910,-0.808691,-9.73779,1.18672,-83.0896,4.61975,-98.2288,-1.09863,0.0610352,-1.28174,0.509644,-0.410919,0.520752,-0.547821,-43.1417,14.9417,-8.64167,3527,-30170,Default
329916,-0.736914,-9.74258,1.19629,-83.0951,4.61426,-98.2343,-0.915527,0.0610352,-1.77002,0.509583,-0.41095,0.520752,-0.547852,-43.1167,14.9333,-8.575,3527,-30170,Default
329922,-0.756055,-9.74736,1.20107,-83.1006,4.60327,-98.2343,-1.0376,0.305176,-1.28174,0.509521,-0.411011,0.520752,-0.547882,-43.075,14.9333,-8.50833,3527,-30170,Default
329928,-0.794336,-9.72344,1.20107,-83.1116,4.58679,-98.2397,-0.976562,0.305176,-1.70898,0.50946,-0.411041,0.520752,-0.547882,-43.0167,14.9333,-8.45833,3527,-30170,Default
329934,-0.746484,-9.74736,1.21543,-83.1171,4.5813,-98.2452,-1.2207,0.12207,-1.95312,0.509338,-0.411163,0.520752,-0.547943,-42.9667,14.8917,-8.51667,3527,-30170,Default
329940,-0.736914,-9.74258,1.16758,-83.1226,4.57031,-98.2452,-1.28174,0.305176,-1.46484,0.509247,-0.411224,0.520752,-0.547943,-42.9833,14.85,-8.53333,3527,-30170,Default
329946,-0.756055,-9.71387,1.26328,-83.1281,4.56482,-98.2507,-1.28174,0.183105,-1.77002,0.509186,-0.411255,0.520752,-0.547974,-43.0167,14.825,-8.54167,3527,-30170,Default
329952,-0.75127,-9.6708,1.22021,-83.1335,4.55383,-98.2507,-1.40381,0.366211,-1.95312,0.509125,-0.411316,0.520782,-0.548004,-43.0417,14.8,-8.525,3527,-30170,Default
329958,-0.732129,-9.6708,1.26807,-83.15,4.53186,-98.2617,-1.64795,0.549316,-2.44141,0.509033,-0.411377,0.520782,-0.548004,-43.1083,14.7917,-8.44167,3527,-30170,Default
329964,-0.75127,-9.81436,1.16758,-83.1555,4.52087,-98.2672,-1.52588,0.793457,-2.19727,0.50885,-0.41153,0.520782,-0.548065,-43.125,14.7917,-8.40833,3527,-30170,Default
329970,-0.756055,-9.80957,1.17236,-83.161,4.51538,-98.2727,-1.2207,0.915527,-2.31934,0.508728,-0.411591,0.520813,-0.548126,-43.125,14.7917,-8.38333,3527,-30170,Default
329976,-0.77041,-9.79043,1.12451,-83.172,4.50439,-98.2782,-1.09863,0.854492,-2.01416,0.508636,-0.411621,0.520813,-0.548157,-43.1167,14.8,-8.39167,3527,-30170,Default
329982,-0.736914,-9.83828,1.16279,-83.172,4.49341,-98.2837,-1.15967,0.488281,-2.0752,0.508545,-0.411682,0.520813,-0.548187,-43.1083,14.7917,-8.4,3527,-30170,Default
329988,-0.727344,-9.8335,1.16758,-83.1885,4.47144,-98.2892,-1.2207,0.549316,-1.95312,0.508484,-0.411743,0.520813,-0.548218,-43.1,14.775,-8.425,3527,-30170,Default
329994,-0.732129,-9.84307,1.11973,-83.194,4.46594,-98.2947,-1.34277,0.12207,-1.58691,0.508301,-0.411835,0.520813,-0.548279,-43.1083,14.775,-8.43333,3527,-30170,Default
330000,-0.722559,-9.85742,1.11494,-83.1995,4.45496,-98.3002,-0.976562,0.12207,-1.46484,0.50824,-0.411896,0.520844,-0.548309,-43.125,14.7667,-8.425,3527,-30170,Default
330006,-0.712988,-9.8335,1.10537,-83.205,4.44946,-98.3002,-0.732422,0.12207,-1.28174,0.508179,-0.411957,0.520844,-0.548309,-43.1333,14.7667,-8.39167,3527,-30170,Default
330012,-0.712988,-9.84307,1.11973,-83.205,4.44397,-98.3002,-0.793457,-0.0610352,-1.34277,0.508148,-0.411987,0.520813,-0.54834,-43.1417,14.7667,-8.36667,3527,-30170,Default
330018,-0.689063,-9.87178,1.11494,-83.2104,4.42749,-98.3057,-0.610352,0,-1.2207,0.508087,-0.412048,0.520813,-0.54834,-43.15,14.75,-8.40833,3527,-30170,Default
330024,-0.660352,-9.96748,1.07666,-83.2159,4.422,-98.3057,-0.244141,-0.0610352,-0.427246,0.508026,-0.412109,0.520813,-0.54837,-43.125,14.725,-8.45,3527,-30170,Default
330030,-0.698633,-9.94834,1.10537,-83.2159,4.422,-98.3057,0.183105,-0.183105,-0.366211,0.507996,-0.41214,0.520813,-0.54837,-43.1083,14.6917,-8.49167,3527,-30170,Default
330036,-0.679492,-9.94355,1.0958,-83.2159,4.422,-98.3057,0.671387,0,0,0.507996,-0.41214,0.520782,-0.548401,-43.1,14.6667,-8.48333,3527,-30170,Default
330042,-0.665137,-9.86699,1.12451,-83.2104,4.4165,-98.3057,0.549316,-0.183105,0,0.507996,-0.412109,0.520782,-0.548431,-43.0917,14.6583,-8.46667,3527,-30170,Default
330048,-0.689063,-9.8957,1.14844,-83.205,4.422,-98.3057,0.610352,-0.305176,0.610352,0.508026,-0.412109,0.520752,-0.548431,-43.0833,14.6667,-8.43333,3527,-30170,Default
330054,-0.665137,-9.8957,1.1293,-83.1995,4.422,-98.3057,0.976562,0,1.09863,0.508087,-0.412048,0.520721,-0.548431,-43.0917,14.6833,-8.40833,3527,-30170,Default
330060,-0.775195,-9.79521,1.14844,-83.194,4.42749,-98.3057,1.34277,0,1.0376,0.508118,-0.412018,0.520721,-0.548431,-43.075,14.7083,-8.4,3527,-30170,Default
330066,-0.75127,-9.7665,1.16279,-83.1885,4.43298,-98.3057,1.15967,-0.366211,1.70898,0.508148,-0.411957,0.520721,-0.548462,-43.075,14.7167,-8.36667,3527,-30170,Default
330072,-0.684277,-9.74736,1.21064,-83.183,4.43848,-98.3002,0.854492,-0.366211,1.46484,0.508209,-0.411896,0.520721,-0.548431,-43.0833,14.7417,-8.375,3527,-30170,Default
330078,-0.717773,-9.81436,1.16279,-83.1775,4.44946,-98.3002,0.915527,-0.244141,1.34277,0.50827,-0.411865,0.520721,-0.548431,-43.0583,14.7583,-8.475,3527,-30170,Default
330084,-0.674707,-9.82393,1.12451,-83.172,4.46045,-98.2947,1.15967,-0.427246,1.77002,0.508362,-0.411774,0.520691,-0.548401,-43.0583,14.7667,-8.525,3527,-30170,Default
330090,-0.684277,-9.81436,1.1293,-83.1665,4.46594,-98.2947,1.28174,-0.244141,2.19727,0.508423,-0.411713,0.520691,-0.548401,-43.0417,14.7833,-8.6,3527,-30170,Default
330096,-0.703418,-9.83828,1.15322,-83.161,4.47693,-98.2947,1.46484,-0.0610352,1.95312,0.508514,-0.411652,0.520691,-0.54837,-43.0417,14.7833,-8.63333,3527,-30170,Default
330102,-0.708203,-9.79521,1.17236,-83.15,4.48242,-98.2947,1.58691,0,2.19727,0.508575,-0.41156,0.520721,-0.54837,-43.05,14.8083,-8.64167,3527,-30170,Default
330108,-0.722559,-9.75693,1.14365,-83.1335,4.50439,-98.2947,1.77002,0.183105,1.77002,0.508636,-0.411499,0.520721,-0.54837,-43,14.8583,-8.61667,3527,-30170,Default
330114,-0.765625,-9.75215,1.13887,-83.1281,4.50989,-98.2947,2.01416,0,2.13623,0.508759,-0.411316,0.520721,-0.54837,-42.9833,14.8917,-8.6,3527,-30170,Default
330120,-0.765625,-9.68037,1.21064,-83.1171,4.52087,-98.2947,1.89209,0.0610352,1.77002,0.50882,-0.411224,0.520691,-0.548401,-42.975,14.925,-8.58333,3527,-30170,Default
330126,-0.77041,-9.64688,1.23936,-83.1116,4.53186,-98.2947,1.46484,0,1.70898,0.508881,-0.411133,0.520691,-0.548401,-42.9667,14.95,-8.56667,3527,-30170,Default
330132,-0.76084,-9.65166,1.23457,-83.1006,4.53735,-98.2947,1.28174,0.0610352,1.64795,0.508942,-0.411072,0.520691,-0.548401,-42.9583,14.975,-8.575,3527,-30170,Default
330138,-0.765625,-9.66602,1.21064,-83.0896,4.55383,-98.2947,0.976562,-0.12207,1.77002,0.509003,-0.411011,0.520691,-0.548401,-42.9583,14.9333,-8.50833,3527,-30170,Default
330144,-0.765625,-9.68516,1.18193,-83.0896,4.55933,-98.2947,0.732422,-0.305176,1.34277,0.509094,-0.410919,0.520691,-0.54837,-42.9417,14.925,-8.45,3527,-30170,Default
330150,-0.717773,-9.73301,1.16758,-83.0841,4.56482,-98.2892,0.610352,-0.366211,1.34277,0.509155,-0.410858,0.520691,-0.54837,-42.925,14.8833,-8.38333,3527,-30170,Default
330156,-0.674707,-9.79043,1.1915,-83.0786,4.57031,-98.2892,0.671387,-0.244141,1.83105,0.509186,-0.410828,0.520691,-0.54834,-42.9167,14.85,-8.35,3527,-30170,Default
330162,-0.665137,-9.77607,1.14365,-83.0786,4.57581,-98.2892,0.915527,0.0610352,1.89209,0.509247,-0.410797,0.520721,-0.548309,-42.9,14.8167,-8.325,3527,-30170,Default
330168,-0.765625,-9.76172,1.17236,-83.0676,4.59229,-98.2892,0.915527,0.244141,1.77002,0.509308,-0.410736,0.520721,-0.548309,-42.9,14.7583,-8.35,3527,-30170,Default
330174,-0.866113,-9.68994,1.16279,-83.0621,4.60327,-98.2892,1.28174,-0.12207,1.58691,0.509399,-0.410614,0.520752,-0.548279,-42.9333,14.75,-8.38333,3527,-30170,Default
330180,-0.818262,-9.57031,1.26807,-83.0566,4.60876,-98.2892,1.0376,-0.305176,1.40381,0.50946,-0.410553,0.520752,-0.548279,-42.9583,14.75,-8.41667,3527,-30170,Default
330186,-0.77998,-9.53203,1.35898,-83.0511,4.61426,-98.2837,0.366211,-0.12207,0.915527,0.509491,-0.410492,0.520752,-0.548279,-42.9833,14.7583,-8.45,3527,-30170,Default
330192,-0.784766,-9.59902,1.28242,-83.0511,4.61975,-98.2837,-0.183105,-0.427246,1.0376,0.509521,-0.410492,0.520752,-0.548248,-42.9917,14.7667,-8.48333,3527,-30170,Default
330198,-0.784766,-9.6708,1.24414,-83.0511,4.62524,-98.2782,-0.366211,-0.671387,0.732422,0.509552,-0.410461,0.520752,-0.548248,-43.0167,14.7917,-8.49167,3527,-30170,Default
330204,-0.722559,-9.81436,1.13887,-83.0566,4.63074,-98.2782,-0.427246,-0.915527,0.732422,0.509583,-0.410461,0.520782,-0.548187,-43.0083,14.8167,-8.475,3527,-30170,Default
330210,-0.47373,-10.0728,1.03838,-83.0566,4.63074,-98.2727,-0.671387,-1.15967,1.64795,0.509613,-0.410492,0.520782,-0.548157,-43.0167,14.8333,-8.48333,3527,-30170,Default
330216,-0.344531,-10.4029,0.856543,-83.0566,4.63623,-98.2672,0.305176,-0.244141,3.54004,0.509644,-0.410492,0.520813,-0.548065,-43.025,14.8333,-8.49167,3527,-30170,Default
330222,-0.526367,-10.4651,0.76084,-83.0566,4.65271,-98.2672,2.80762,1.2207,4.08936,0.509735,-0.410431,0.520844,-0.548004,-43.025,14.8333,-8.51667,3527,-30170,Default
330228,-0.684277,-10.1302,0.904395,-83.0182,4.69666,-98.2727,5.18799,0.976562,4.88281,0.51001,-0.410004,0.520874,-0.548035,-43,14.8333,-8.54167,3527,-30170,Default
330234,-0.899609,-9.56553,1.34463,-82.9962,4.71863,-98.2782,5.24902,1.64795,5.06592,0.510162,-0.409729,0.520874,-0.548096,-42.975,14.85,-8.55833,3527,-30170,Default
330240,-0.827832,-9.50332,1.19629,-82.9688,4.74609,-98.2837,5.12695,1.83105,4.15039,0.510345,-0.409485,0.520874,-0.548126,-42.9417,14.85,-8.56667,3527,-30170,Default
330246,-0.980957,-9.46025,1.41641,-82.9468,4.76257,-98.2947,3.23486,0.915527,3.78418,0.510468,-0.409241,0.520874,-0.548218,-42.9083,14.8583,-8.6,3527,-30170,Default
330252,-0.77041,-9.52246,1.31592,-82.9303,4.78455,-98.3002,2.44141,0.549316,3.60107,0.51059,-0.409058,0.520874,-0.548218,-42.8917,14.8583,-8.61667,3527,-30170,Default
330258,-0.818262,-9.63252,1.26328,-82.9083,4.8175,-98.3057,2.13623,1.0376,3.54004,0.510773,-0.408752,0.520935,-0.548218,-42.8667,14.8667,-8.63333,3527,-30170,Default
330264,-0.823047,-9.62773,1.25371,-82.8973,4.82849,-98.3057,2.2583,0.732422,2.86865,0.510834,-0.40863,0.520966,-0.548218,-42.8667,14.8833,-8.61667,3527,-30170,Default
330270,-0.890039,-9.5751,1.2585,-82.8864,4.83948,-98.3112,1.95312,0.793457,2.01416,0.510925,-0.408508,0.520966,-0.548218,-42.8583,14.9083,-8.59167,3527,-30170,Default
330276,-0.885254,-9.59424,1.22979,-82.8809,4.85046,-98.3112,1.40381,0.244141,2.01416,0.510986,-0.408417,0.520996,-0.548248,-42.825,14.9167,-8.575,3527,-30170,Default
330282,-0.827832,-9.64688,1.24893,-82.8754,4.86145,-98.3167,1.28174,0,1.95312,0.511017,-0.408325,0.520996,-0.548248,-42.8083,14.9417,-8.56667,3527,-30170,Default
330288,-0.827832,-9.68994,1.22021,-82.8589,4.87793,-98.3167,1.46484,0.0610352,1.58691,0.511139,-0.408173,0.520996,-0.548248,-42.8333,15.0417,-8.55833,3527,-30170,Default
330294,-0.832617,-9.69951,1.21064,-82.8534,4.88342,-98.3167,1.46484,0.305176,1.28174,0.511169,-0.408112,0.520996,-0.548248,-42.8667,15.0833,-8.575,3527,-30170,Default
330300,-0.842188,-9.67559,1.23936,-82.8479,4.88892,-98.3167,1.34277,0.12207,1.2207,0.51123,-0.408051,0.520996,-0.548279,-42.8833,15.1,-8.575,3527,-30170,Default
330306,-0.856543,-9.60381,1.29678,-82.8424,4.89441,-98.3167,1.34277,0,1.15967,0.511261,-0.40799,0.520966,-0.548279,-42.8833,15.1,-8.56667,3527,-30170,Default
330312,-0.832617,-9.55596,1.33506,-82.8314,4.89441,-98.3167,0.854492,0,0.671387,0.511292,-0.407928,0.520966,-0.548279,-42.8833,15.0833,-8.55,3527,-30170,Default
330318,-0.861328,-9.56074,1.33027,-82.8259,4.8999,-98.3167,0.366211,-0.12207,0.732422,0.511353,-0.407898,0.520966,-0.548309,-42.8417,15.05,-8.53333,3527,-30170,Default
330324,-0.813477,-9.64209,1.29199,-82.8259,4.8999,-98.3167,-0.305176,0,0.12207,0.511353,-0.407898,0.520966,-0.548309,-42.8333,15.0333,-8.51667,3527,-30170,Default
330330,-0.818262,-9.68037,1.29678,-82.8314,4.8999,-98.3221,-0.305176,-0.12207,0.0610352,0.511322,-0.407898,0.520966,-0.548309,-42.8083,15.0333,-8.53333,3527,-30170,Default
330336,-0.794336,-9.69951,1.26807,-82.8314,4.8999,-98.3221,-0.305176,0.12207,0.12207,0.511322,-0.407898,0.520966,-0.548309,-42.8,15.0417,-8.53333,3527,-30170,Default
330342,-0.803906,-9.7043,1.23936,-82.8314,4.8999,-98.3221,-0.366211,0.0610352,-0.0610352,0.511322,-0.407898,0.520996,-0.548279,-42.8,15.05,-8.49167,3527,-30170,Default
330348,-0.842188,-9.72344,1.23936,-82.8369,4.8999,-98.3221,-0.305176,0.183105,0.183105,0.511292,-0.407928,0.520996,-0.548279,-42.7667,15.05,-8.46667,3527,-30170,Default
330354,-0.803906,-9.65645,1.28242,-82.8369,4.8999,-98.3221,-0.427246,0.488281,-0.12207,0.511261,-0.407928,0.520996,-0.548279,-42.7333,15.025,-8.45833,3527,-30170,Default
330360,-0.77041,-9.72822,1.2585,-82.8369,4.8999,-98.3276,-0.427246,0.976562,-0.610352,0.511261,-0.407928,0.521027,-0.548309,-42.7083,14.9833,-8.45,3527,-30170,Default
330366,-0.818262,-9.76172,1.24414,-82.8424,4.89441,-98.3331,0.183105,1.58691,-0.305176,0.5112,-0.407928,0.521027,-0.54834,-42.7,14.975,-8.475,3527,-30170,Default
330372,-0.870898,-9.69473,1.24893,-82.8424,4.89441,-98.3386,0.12207,1.52588,-0.976562,0.511169,-0.407898,0.521057,-0.54837,-42.7,14.9833,-8.475,3527,-30170,Default
330378,-0.837402,-9.62773,1.3207,-82.8424,4.88342,-98.3551,-0.183105,1.15967,-0.976562,0.511047,-0.407867,0.521088,-0.548462,-42.7333,14.9917,-8.51667,3527,-30170,Default
330384,-0.794336,-9.62773,1.26807,-82.8424,4.87793,-98.3606,-0.854492,0.915527,-0.915527,0.510986,-0.407898,0.521088,-0.548523,-42.7583,15,-8.55833,3527,-30170,Default
330390,-0.837402,-9.66602,1.22979,-82.8479,4.87244,-98.3661,-1.40381,0.915527,-1.28174,0.510925,-0.407898,0.521118,-0.548523,-42.7833,15.0083,-8.6,3527,-30170,Default
330396,-0.823047,-9.77129,1.1915,-82.8534,4.86694,-98.3716,-1.34277,0.854492,-1.0376,0.510834,-0.407928,0.521149,-0.548553,-42.8167,15.0083,-8.625,3527,-30170,Default
330402,-0.842188,-9.73301,1.18193,-82.8589,4.86145,-98.3771,-1.0376,0.671387,-1.09863,0.510773,-0.407959,0.521179,-0.548553,-42.8333,15,-8.625,3527,-30170,Default
330408,-0.803906,-9.7043,1.24414,-82.8699,4.85046,-98.3826,-1.15967,0.244141,-1.40381,0.510651,-0.408051,0.52121,-0.548615,-42.8417,14.975,-8.51667,3527,-30170,Default
330414,-0.813477,-9.73301,1.24893,-82.8809,4.84497,-98.3881,-1.64795,0.366211,-1.40381,0.51059,-0.408112,0.52121,-0.548615,-42.85,14.9667,-8.48333,3527,-30170,Default
330420,-0.803906,-9.71387,1.19629,-82.8864,4.83398,-98.3881,-1.58691,0.183105,-1.2207,0.510529,-0.408173,0.52121,-0.548615,-42.8417,14.9917,-8.45833,3527,-30170,Default
330426,-0.803906,-9.72822,1.19629,-82.8918,4.82849,-98.3936,-1.64795,0.0610352,-1.40381,0.510468,-0.408234,0.52124,-0.548615,-42.8417,15.0167,-8.48333,3527,-30170,Default
330432,-0.765625,-9.75693,1.20586,-82.9028,4.823,-98.3936,-1.64795,0.12207,-1.28174,0.510406,-0.408295,0.52124,-0.548615,-42.8417,15.05,-8.49167,3527,-30170,Default
330438,-0.684277,-9.87178,1.14844,-82.9193,4.81201,-98.3936,-1.64795,-0.0610352,-0.915527,0.510284,-0.408417,0.521301,-0.548584,-42.8667,15.0917,-8.45833,3527,-30170,Default
330444,-0.727344,-9.86699,1.12451,-82.9248,4.80652,-98.3936,-1.15967,0.366211,-0.305176,0.510254,-0.408447,0.521301,-0.548553,-42.8583,15.0917,-8.44167,3527,-30170,Default
330450,-0.775195,-9.81436,1.18672,-82.9303,4.80652,-98.399,-0.610352,0.305176,-0.12207,0.510223,-0.408478,0.521332,-0.548553,-42.8417,15.1167,-8.41667,3527,-30170,Default
330456,-0.803906,-9.73301,1.21064,-82.9358,4.80652,-98.399,-0.488281,0.12207,0,0.510193,-0.408478,0.521362,-0.548553,-42.825,15.125,-8.39167,3527,-30170,Default
330462,-0.827832,-9.66602,1.2585,-82.9358,4.80652,-98.399,-0.793457,0.0610352,0,0.510193,-0.408508,0.521362,-0.548553,-42.8083,15.1167,-8.38333,3527,-30170,Default
330468,-0.789551,-9.64209,1.25371,-82.9468,4.80652,-98.399,-1.40381,-0.0610352,-0.366211,0.510132,-0.408539,0.521393,-0.548523,-42.8167,15.125,-8.40833,3527,-30170,Default
330474,-0.799121,-9.68994,1.225,-82.9523,4.80103,-98.399,-1.58691,-0.0610352,-0.244141,0.510101,-0.408569,0.521423,-0.548492,-42.8167,15.1083,-8.45,3527,-30170,Default
330480,-0.823047,-9.73779,1.17715,-82.9578,4.80103,-98.399,-1.77002,-0.305176,-0.244141,0.510071,-0.40863,0.521454,-0.548462,-42.8167,15.1,-8.48333,3527,-30170,Default
330486,-0.803906,-9.76172,1.17236,-82.9688,4.80103,-98.399,-1.40381,-0.305176,-0.549316,0.51004,-0.408661,0.521484,-0.548431,-42.825,15.1,-8.525,3527,-30170,Default
330492,-0.784766,-9.75215,1.15322,-82.9797,4.79553,-98.3936,-1.28174,-0.366211,-0.366211,0.51001,-0.408722,0.521515,-0.548401,-42.8083,15.1,-8.56667,3527,-30170,Default
330498,-0.799121,-9.72822,1.15801,-82.9852,4.79004,-98.3936,-1.15967,-0.244141,-0.549316,0.509949,-0.408813,0.521515,-0.54837,-42.8417,15.1,-8.525,3527,-30170,Default
330504,-0.765625,-9.73301,1.22979,-82.9907,4.79004,-98.3936,-0.976562,-0.366211,-0.427246,0.509949,-0.408844,0.521545,-0.54834,-42.8667,15.1,-8.50833,3527,-30170,Default
330510,-0.794336,-9.72344,1.21543,-82.9962,4.78455,-98.3936,-1.34277,-0.549316,-0.183105,0.509918,-0.408905,0.521545,-0.54834,-42.875,15.0833,-8.48333,3527,-30170,Default
330516,-0.794336,-9.73779,1.20586,-83.0017,4.78455,-98.3881,-1.34277,-0.305176,-0.305176,0.509888,-0.408936,0.521545,-0.548309,-42.9,15.0667,-8.48333,3527,-30170,Default
330522,-0.803906,-9.71865,1.17715,-83.0127,4.77905,-98.3881,-1.09863,-0.427246,-0.610352,0.509888,-0.408997,0.521576,-0.548279,-42.9083,15.0583,-8.49167,3527,-30170,Default
330528,-0.789551,-9.7043,1.1915,-83.0182,4.77356,-98.3826,-1.09863,-0.610352,-0.427246,0.509827,-0.409088,0.521576,-0.548248,-42.9333,15.0583,-8.55833,3527,-30170,Default
330534,-0.813477,-9.68037,1.22021,-83.0237,4.77356,-98.3826,-1.15967,-0.427246,-0.671387,0.509796,-0.409119,0.521576,-0.548218,-42.9417,15.05,-8.54167,3527,-30170,Default
330540,-0.803906,-9.68994,1.18672,-83.0292,4.76807,-98.3826,-1.34277,-0.610352,-0.732422,0.509766,-0.40918,0.521576,-0.548218,-42.9333,15.025,-8.56667,3527,-30170,Default
330546,-0.794336,-9.69951,1.20586,-83.0347,4.76257,-98.3826,-1.2207,-0.610352,-0.854492,0.509735,-0.409241,0.521606,-0.548187,-42.925,15.0167,-8.6,3527,-30170,Default
330552,-0.784766,-9.69951,1.18672,-83.0457,4.75159,-98.3771,-1.28174,-0.488281,-0.732422,0.509705,-0.409302,0.521606,-0.548187,-42.9167,15,-8.64167,3527,-30170,Default
330558,-0.77041,-9.72822,1.18672,-83.0511,4.74609,-98.3771,-1.64795,-0.427246,-0.793457,0.509613,-0.409393,0.521606,-0.548157,-42.9083,14.9833,-8.71667,3527,-30170,Default
330564,-0.784766,-9.73779,1.18193,-83.0566,4.74609,-98.3771,-1.58691,-0.732422,-0.915527,0.509583,-0.409454,0.521637,-0.548126,-42.9083,14.975,-8.725,3527,-30170,Default
330570,-0.803906,-9.73301,1.20107,-83.0676,4.7406,-98.3771,-1.34277,-0.671387,-1.09863,0.509552,-0.409515,0.521637,-0.548126,-42.9083,14.9833,-8.73333,3527,-30170,Default
330576,-0.799121,-9.69951,1.225,-83.0731,4.73511,-98.3716,-1.34277,-0.793457,-1.0376,0.509491,-0.409607,0.521637,-0.548096,-42.9167,14.975,-8.73333,3527,-30170,Default
330582,-0.741699,-9.7043,1.21064,-83.0841,4.71863,-98.3716,-1.64795,-0.488281,-1.15967,0.50946,-0.409668,0.521637,-0.548096,-42.925,14.9667,-8.725,3527,-30170,Default
330588,-0.727344,-9.79043,1.18193,-83.0951,4.71863,-98.3716,-1.34277,-0.366211,-0.732422,0.509369,-0.40979,0.521667,-0.548065,-42.9667,14.95,-8.73333,3527,-30170,Default
330594,-0.775195,-9.81914,1.11016,-83.1006,4.71313,-98.3716,-1.46484,0,-0.610352,0.509338,-0.409821,0.521667,-0.548065,-42.9833,14.9667,-8.73333,3527,-30170,Default
330600,-0.765625,-9.82393,1.15322,-83.1061,4.70764,-98.3716,-1.09863,-0.671387,-0.427246,0.509308,-0.409851,0.521698,-0.548035,-42.9833,15,-8.74167,3527,-30170,Default
330606,-0.736914,-9.78086,1.18193,-83.1116,4.70764,-98.3716,-0.793457,0,-0.183105,0.509277,-0.409912,0.521698,-0.548035,-42.9917,15.0167,-8.75833,3527,-30170,Default
330612,-0.746484,-9.76172,1.17715,-83.1171,4.70215,-98.3771,-0.732422,0.244141,-0.488281,0.509247,-0.409912,0.521698,-0.548004,-42.9667,15.0167,-8.775,3527,-30170,Default
330618,-0.741699,-9.74736,1.11016,-83.1226,4.70215,-98.3771,-1.0376,-0.244141,-0.0610352,0.509186,-0.409973,0.521759,-0.548004,-42.975,14.9667,-8.725,3527,-30170,Default
330624,-0.617285,-9.88135,1.12451,-83.1281,4.69666,-98.3771,-1.28174,-0.549316,0,0.509155,-0.410004,0.521759,-0.548004,-42.9917,14.95,-8.66667,3527,-30170,Default
330630,-0.545508,-9.92441,1.10537,-83.1335,4.69666,-98.3716,-0.793457,0.244141,0.793457,0.509125,-0.410034,0.52179,-0.547974,-43,14.9417,-8.59167,3527,-30170,Default
330636,-0.641211,-9.9627,1.10059,-83.139,4.70215,-98.3771,-0.366211,0.671387,1.34277,0.509125,-0.410034,0.52182,-0.547943,-43.0083,14.9167,-8.55,3527,-30170,Default
330642,-0.77041,-9.91484,1.01924,-83.139,4.71863,-98.3771,0.366211,0.366211,1.95312,0.509125,-0.410004,0.521851,-0.547913,-43.0167,14.9083,-8.49167,3527,-30170,Default
330648,-0.861328,-9.77129,1.13408,-83.1335,4.72412,-98.3826,1.34277,0.610352,1.64795,0.509216,-0.409882,0.521912,-0.547882,-43.0083,14.9083,-8.50833,3527,-30170,Default
330654,-0.827832,-9.61816,1.29199,-83.1281,4.72961,-98.3826,1.58691,0.305176,1.58691,0.509247,-0.40979,0.521942,-0.547913,-43.025,14.9083,-8.53333,3527,-30170,Default
330660,-0.784766,-9.45068,1.37334,-83.1226,4.7406,-98.3826,0.610352,0.732422,1.09863,0.509308,-0.409729,0.521942,-0.547913,-43.025,14.925,-8.575,3527,-30170,Default
330666,-0.789551,-9.52246,1.35898,-83.1171,4.74609,-98.3881,-0.305176,0.732422,0.610352,0.509308,-0.409668,0.521942,-0.547913,-43.025,14.9083,-8.60833,3527,-30170,Default
330672,-0.808691,-9.55117,1.25371,-83.1226,4.75159,-98.399,-0.732422,0.610352,0.549316,0.509308,-0.409637,0.521973,-0.547913,-43.05,14.8833,-8.625,3527,-30170,Default
330678,-0.77041,-9.64209,1.3207,-83.1281,4.75159,-98.399,-0.793457,0.366211,0,0.509247,-0.409637,0.522064,-0.547913,-43.0667,14.875,-8.625,3527,-30170,Default
330684,-0.746484,-9.60859,1.31592,-83.1281,4.74609,-98.4045,-1.28174,0.793457,0.244141,0.509216,-0.409637,0.522064,-0.547913,-43.0917,14.8833,-8.59167,3527,-30170,Default
330690,-0.789551,-9.73779,1.28721,-83.1335,4.75159,-98.4045,-1.46484,0.671387,0.305176,0.509186,-0.409637,0.522125,-0.547913,-43.1083,14.8833,-8.575,3527,-30170,Default
330696,-0.712988,-9.74258,1.25371,-83.1445,4.75159,-98.41,-1.28174,0.610352,0.610352,0.509155,-0.409637,0.522186,-0.547882,-43.1333,14.8917,-8.56667,3527,-30170,Default
330702,-0.698633,-9.64688,1.18672,-83.1555,4.75708,-98.421,-1.2207,1.15967,0.610352,0.509125,-0.409637,0.522217,-0.547852,-43.175,14.875,-8.63333,3527,-30170,Default
330708,-0.890039,-9.57988,1.20107,-83.161,4.76257,-98.4265,-0.854492,1.0376,0.366211,0.509064,-0.409607,0.522339,-0.547852,-43.2083,14.8667,-8.65,3527,-30170,Default
330714,-0.861328,-9.47939,1.36377,-83.161,4.76257,-98.432,-1.15967,0.488281,0.488281,0.509033,-0.409576,0.5224,-0.547852,-43.2583,14.8667,-8.66667,3527,-30170,Default
330720,-0.746484,-9.36934,1.38291,-83.1665,4.76257,-98.4375,-1.89209,0.610352,-0.244141,0.509003,-0.409576,0.52243,-0.547821,-43.2833,14.8417,-8.65,3527,-30170,Default
330726,-0.890039,-9.45547,1.28242,-83.1775,4.76257,-98.4375,-3.2959,0.732422,-0.244141,0.508942,-0.409607,0.522491,-0.547791,-43.275,14.825,-8.60833,3527,-30170,Default
330732,-0.894824,-9.5416,1.17236,-83.2104,4.75708,-98.443,-3.78418,-0.488281,-0.427246,0.50885,-0.409668,0.522583,-0.54776,-43.175,14.8167,-8.55833,3527,-30170,Default
330738,-0.535937,-9.74736,1.08623,-83.2269,4.75708,-98.443,-3.90625,0.427246,0.183105,0.508728,-0.409851,0.522705,-0.547607,-43.1333,14.8083,-8.53333,3527,-30170,Default
330744,-0.598145,-9.85742,0.957031,-83.2434,4.75708,-98.443,-3.66211,0.732422,0.854492,0.508667,-0.409912,0.522797,-0.547546,-43.1,14.8167,-8.50833,3527,-30170,Default
330750,-0.698633,-9.93398,0.957031,-83.2599,4.75708,-98.4485,-2.19727,0.915527,1.64795,0.508606,-0.409973,0.522919,-0.547455,-43.1,14.8167,-8.5,3527,-30170,Default
330756,-0.861328,-9.74736,0.985742,-83.2709,4.76807,-98.4485,-1.77002,0.915527,1.52588,0.508575,-0.409943,0.52301,-0.547394,-43.1,14.825,-8.45,3527,-30170,Default
330762,-0.837402,-9.56074,1.13408,-83.2874,4.77905,-98.454,-1.58691,0.427246,1.40381,0.508545,-0.409943,0.523071,-0.547333,-43.075,14.8583,-8.34167,3527,-30170,Default
330768,-0.808691,-9.71387,1.30635,-83.2983,4.78455,-98.454,-3.05176,0.0610352,1.0376,0.508514,-0.409943,0.523254,-0.547211,-43.0667,14.8667,-8.31667,3527,-30170,Default
330774,-0.980957,-9.52246,1.31592,-83.3148,4.79004,-98.454,-4.88281,0.488281,0.366211,0.508484,-0.410004,0.523315,-0.547119,-43.0583,14.875,-8.31667,3527,-30170,Default
330780,-0.784766,-9.79521,1.11016,-83.3368,4.79004,-98.4595,-4.21143,0.366211,0,0.508392,-0.410095,0.523438,-0.547028,-43.0667,14.8917,-8.33333,3527,-30170,Default
330786,-1.00488,-9.75215,0.947461,-83.3588,4.79004,-98.4595,-4.57764,0.915527,-0.0610352,0.508331,-0.410187,0.52356,-0.546936,-43.075,14.9083,-8.35,3527,-30170,Default
330792,-0.937891,-9.92441,1.07666,-83.3972,4.79004,-98.4595,-3.96729,-1.2207,-0.488281,0.508209,-0.410248,0.523682,-0.546844,-43.075,14.9083,-8.28333,3527,-30170,Default
330798,-0.77041,-9.93398,1.00488,-83.4247,4.79004,-98.454,-4.63867,-0.488281,-0.183105,0.508087,-0.410492,0.523834,-0.546661,-43.0417,14.8833,-8.24167,3527,-30170,Default
330804,-0.689063,-9.9627,1.31113,-83.4467,4.78455,-98.454,-3.72314,-1.09863,0,0.508026,-0.410614,0.523895,-0.546539,-43.0167,14.8667,-8.18333,3527,-30170,Default
330810,-0.784766,-9.88613,1.14844,-83.4631,4.78455,-98.443,-5.43213,-0.610352,0.793457,0.507996,-0.410736,0.523956,-0.546448,-42.9917,14.8583,-8.125,3527,-30170,Default
330816,-0.832617,-10.0967,0.870898,-83.4906,4.79004,-98.443,-4.08936,-0.549316,0.549316,0.507935,-0.410858,0.524078,-0.546295,-42.975,14.875,-8.09167,3527,-30170,Default
330822,-0.842188,-10.1158,0.91875,-83.5181,4.79553,-98.4265,-2.92969,-1.64795,0.854492,0.507874,-0.41095,0.52417,-0.546173,-42.9667,14.9417,-8.01667,3527,-30170,Default
330828,-0.741699,-9.99619,0.885254,-83.5345,4.79553,-98.4155,-2.44141,-1.77002,0.915527,0.507904,-0.411133,0.524261,-0.545929,-42.9667,14.9583,-7.96667,3527,-30170,Default
330834,-0.679492,-9.99141,0.995313,-83.5455,4.80103,-98.4045,-1.52588,-1.0376,1.28174,0.507935,-0.411194,0.524292,-0.545837,-42.9833,14.9583,-7.9,3527,-30170,Default
330840,-0.861328,-10.0345,0.985742,-83.551,4.80652,-98.399,-1.58691,-1.09863,1.77002,0.507965,-0.411255,0.524323,-0.545746,-43,14.95,-7.85833,3527,-30170,Default
330846,-0.674707,-10.001,0.980957,-83.562,4.81201,-98.3936,-0.366211,-1.64795,2.2583,0.507996,-0.411285,0.524353,-0.545654,-42.9917,14.9333,-7.85,3527,-30170,Default
330852,-0.736914,-10.044,1.03838,-83.5675,4.83398,-98.3716,-0.793457,-1.0376,2.38037,0.508087,-0.411285,0.524353,-0.545563,-42.975,14.95,-7.9,3527,-30170,Default
330858,-0.564648,-10.5034,0.827832,-83.5675,4.84497,-98.3606,0.915527,-1.0376,4.27246,0.50827,-0.411255,0.524414,-0.545349,-42.9667,14.9667,-7.91667,3527,-30170,Default
330864,-0.684277,-10.4891,0.75127,-83.562,4.86694,-98.3551,2.0752,-1.2207,5.61523,0.508392,-0.411194,0.524445,-0.545258,-42.9667,14.9833,-7.925,3527,-30170,Default
330870,-0.636426,-10.5082,0.808691,-83.551,4.88892,-98.3441,3.2959,-1.95312,6.46973,0.508606,-0.411041,0.524475,-0.545135,-42.975,14.9917,-7.91667,3527,-30170,Default
330876,-0.583789,-10.4986,0.803906,-83.5345,4.92188,-98.3276,4.27246,-2.01416,7.69043,0.50885,-0.410889,0.524445,-0.545044,-42.9833,14.9917,-7.91667,3527,-30170,Default
330882,-0.617285,-10.5991,0.693848,-83.4906,4.99878,-98.3002,5.18799,-1.95312,9.0332,0.50946,-0.410431,0.524445,-0.54483,-43,14.9917,-7.95833,3527,-30170,Default
330888,-0.559863,-10.446,0.913965,-83.4521,5.04822,-98.2837,10.3149,-1.34277,11.8408,0.509888,-0.410095,0.524414,-0.544708,-43.0083,15,-7.99167,3527,-30170,Default
330894,-0.540723,-10.135,1.10059,-83.4027,5.10315,-98.2727,11.1084,-0.366211,12.6343,0.510345,-0.409637,0.524353,-0.544678,-43.025,15.0167,-8.025,3527,-30170,Default
330900,-0.756055,-10.0058,1.1915,-83.3478,5.15808,-98.2617,11.1694,0.610352,13.2446,0.510834,-0.409149,0.524292,-0.544647,-43.025,15.025,-8.09167,3527,-30170,Default
330906,-0.913965,-9.91484,1.22979,-83.2983,5.224,-98.2617,11.8408,0.793457,12.7563,0.511292,-0.4086,0.524292,-0.544617,-43.025,15.0417,-8.1,3527,-30170,Default
330912,-0.904395,-9.8,1.40205,-83.183,5.34485,-98.2507,12.0239,0.488281,13.1226,0.51178,-0.408051,0.524261,-0.544617,-43.0167,15.1167,-8.15833,3527,-30170,Default
330918,-1.02881,-9.82393,1.15322,-83.1281,5.40527,-98.2507,11.5967,1.28174,12.2681,0.512695,-0.406952,0.5242,-0.544617,-43.0083,15.1833,-8.20833,3527,-30170,Default
330924,-0.942676,-9.85264,1.13887,-83.0731,5.4657,-98.2507,12.207,1.15967,12.4512,0.513153,-0.406403,0.52417,-0.544647,-43.0083,15.2667,-8.28333,3527,-30170,Default
330930,-0.947461,-9.8335,1.10537,-83.0127,5.52063,-98.2507,12.8784,2.19727,12.146,0.513611,-0.405853,0.524139,-0.544678,-43.0083,15.3167,-8.34167,3527,-30170,Default
330936,-1.0623,-9.88613,1.08623,-82.9523,5.58105,-98.2562,12.6343,2.13623,12.207,0.514038,-0.405243,0.524109,-0.544739,-43.0083,15.375,-8.39167,3527,-30170,Default
330942,-1.05273,-10.001,1.00967,-82.8259,5.69641,-98.2617,13.6719,1.40381,11.9019,0.514923,-0.404083,0.523987,-0.544861,-43.0083,15.475,-8.48333,3527,-30170,Default
330948,-1.00967,-9.8957,1.05273,-82.7545,5.75134,-98.2672,15.3809,1.83105,12.3291,0.515381,-0.403473,0.523895,-0.544983,-42.9917,15.5167,-8.50833,3527,-30170,Default
330954,-0.961816,-9.81436,1.14365,-82.6831,5.81177,-98.2672,15.2588,1.15967,12.6953,0.515869,-0.402802,0.523804,-0.545105,-42.9583,15.5583,-8.51667,3527,-30170,Default
330960,-0.985742,-9.93398,1.09102,-82.6117,5.87219,-98.2672,15.3198,1.46484,13.1836,0.516388,-0.402191,0.523682,-0.545166,-42.9083,15.6,-8.525,3527,-30170,Default
330966,-0.942676,-10.3646,1.11016,-82.5403,5.93262,-98.2672,15.564,0.854492,14.2822,0.516907,-0.40152,0.52359,-0.545258,-42.8833,15.6333,-8.525,3527,-30170,Default
330972,-0.990527,-10.4938,0.995313,-82.381,6.07544,-98.2562,17.395,0.183105,15.0757,0.518066,-0.400146,0.523376,-0.54538,-42.825,15.6667,-8.6,3527,-30170,Default
330978,-1.13887,-11.1303,1.07666,-82.2876,6.14685,-98.2452,21.8506,-2.38037,17.0898,0.518738,-0.399414,0.523224,-0.545441,-42.825,15.675,-8.6,3527,-30170,Default
330984,-0.794336,-11.025,0.674707,-82.1832,6.22925,-98.2233,24.4751,-4.5166,18.8599,0.519562,-0.398621,0.522949,-0.545502,-42.7917,15.675,-8.59167,3527,-30170,Default
330990,-0.856543,-10.6661,1.07187,-82.0624,6.31165,-98.1903,27.771,-3.78418,19.7144,0.520477,-0.397766,0.522614,-0.545563,-42.7417,15.6917,-8.575,3527,-30170,Default
330996,-0.957031,-10.2977,1.43555,-81.9305,6.40503,-98.1628,29.4189,-4.15039,20.5688,0.521454,-0.39682,0.522247,-0.545685,-42.7,15.725,-8.54167,3527,-30170,Default
331002,-0.990527,-10.4221,1.65566,-81.6449,6.59729,-98.0969,28.0762,-3.90625,21.1182,0.523499,-0.394836,0.521454,-0.545898,-42.6417,15.8083,-8.58333,3527,-30170,Default
331008,-0.799121,-9.98184,1.05752,-81.5076,6.69067,-98.0475,33.2031,-6.5918,22.9492,0.524628,-0.393921,0.520996,-0.545929,-42.6167,15.8667,-8.63333,3527,-30170,Default
331014,-0.976172,-9.36455,1.81836,-81.3428,6.79504,-98.0035,33.9355,-3.84521,21.9727,0.525818,-0.392822,0.520477,-0.546051,-42.6083,15.9333,-8.69167,3527,-30170,Default
331020,-1.0623,-9.20186,2.22031,-81.1725,6.89392,-97.9706,30.0293,-4.57764,22.7661,0.526947,-0.391693,0.519989,-0.546265,-42.575,16,-8.76667,3527,-30170,Default
331026,-0.784766,-9.52725,2.37822,-81.0242,6.99829,-97.9321,26.123,-4.82178,22.9492,0.528046,-0.390656,0.519562,-0.546326,-42.5333,16.05,-8.80833,3527,-30170,Default
331032,-0.435449,-10.2689,2.85195,-80.766,7.20703,-97.8607,26.3672,-2.99072,23.1934,0.53009,-0.388672,0.518951,-0.546356,-42.425,16.1333,-8.85833,3527,-30170,Default
331038,-0.990527,-9.80479,3.23955,-80.6726,7.33887,-97.8552,-0.12207,0.976562,31.0059,0.530975,-0.387604,0.519012,-0.546204,-42.3667,16.1667,-8.89167,3527,-30170,Default
331044,-0.617285,-10.3981,1.75137,-80.6726,7.48169,-97.8333,6.71387,0.976562,30.7617,0.531616,-0.386932,0.519562,-0.545532,-42.3167,16.225,-8.91667,3527,-30170,Default
331050,-1.52646,-9.87656,1.46426,-80.6396,7.62451,-97.8168,9.94873,5.7373,30.0903,0.53241,-0.386078,0.519928,-0.545013,-42.2667,16.2917,-8.95833,3527,-30170,Default
331056,-1.67959,-9.31191,1.95234,-80.5957,7.77283,-97.8223,5.98145,0.488281,30.8838,0.533112,-0.385101,0.520325,-0.544678,-42.2167,16.3583,-9,3527,-30170,Default
331062,-0.756055,-9.3167,2.34473,-80.5463,8.05847,-97.7783,3.66211,0.244141,30.8228,0.534607,-0.383545,0.521118,-0.543518,-42.1417,16.5,-9.1,3527,-30170,Default
331068,-1.49297,-9.87178,1.84229,-80.5408,8.20679,-97.7838,0.305176,4.21143,32.2266,0.535187,-0.382721,0.521698,-0.542969,-42.0917,16.575,-9.18333,3527,-30170,Default
331074,-1.3207,-9.74258,1.70352,-80.5408,8.3606,-97.7838,0.854492,1.58691,32.7148,0.535797,-0.381927,0.522308,-0.542328,-42.0417,16.6583,-9.275,3527,-30170,Default
331080,-1.225,-9.47461,1.63174,-80.5353,8.5144,-97.7673,1.70898,4.3335,32.1655,0.536499,-0.381165,0.522858,-0.541656,-41.9833,16.75,-9.36667,3527,-30170,Default
331086,-1.53125,-9.50811,1.61738,-80.5243,8.66821,-97.7618,0.976562,4.63867,32.5928,0.53714,-0.38031,0.523407,-0.541077,-41.9,16.85,-9.43333,3527,-30170,Default
331092,-1.51689,-9.60381,1.68916,-80.5188,8.98132,-97.7509,0.244141,2.86865,33.0811,0.538422,-0.378693,0.524597,-0.539764,-41.775,17.0917,-9.5,3527,-30170,Default
331098,-1.57432,-9.66602,1.41641,-80.5188,9.13513,-97.7399,0.183105,3.72314,33.1421,0.539093,-0.37793,0.525177,-0.539093,-41.7,17.225,-9.51667,3527,-30170,Default
331104,-1.68916,-10.044,1.57432,-80.5133,9.28894,-97.7344,0.244141,2.19727,33.6304,0.539734,-0.377106,0.525787,-0.538422,-41.6167,17.3667,-9.53333,3527,-30170,Default
331110,-1.4499,-9.97227,1.53125,-80.5133,9.44824,-97.7179,1.95312,1.2207,33.9966,0.540436,-0.376312,0.526367,-0.53772,-41.5333,17.4917,-9.51667,3527,-30170,Default
331116,-1.50732,-9.99619,1.33027,-80.5023,9.60754,-97.7014,2.31934,2.80762,34.6069,0.541168,-0.375519,0.526886,-0.537018,-41.4583,17.6167,-9.475,3527,-30170,Default
331122,-1.65566,-10.3359,1.225,-80.4694,9.93713,-97.6685,2.86865,1.58691,35.7666,0.542694,-0.373749,0.527954,-0.535645,-41.3167,17.8917,-9.35833,3527,-30170,Default
331128,-1.55518,-10.2115,1.47861,-80.4419,10.1129,-97.641,6.89697,0.793457,37.1704,0.543549,-0.372833,0.528442,-0.534943,-41.2667,18.025,-9.26667,3527,-30170,Default
331134,-1.72744,-10.2594,1.40205,-80.4089,10.2832,-97.619,6.95801,0.427246,38.5742,0.544464,-0.371857,0.52887,-0.534271,-41.225,18.1667,-9.23333,3527,-30170,Default
331140,-1.67002,-10.2163,1.33027,-80.3705,10.4645,-97.5916,8.17871,-0.671387,39.3066,0.54541,-0.37085,0.529327,-0.533569,-41.1667,18.3167,-9.225,3527,-30170,Default
331146,-1.71309,-10.3886,1.50254,-80.3265,10.6458,-97.5531,8.23975,-0.488281,40.9546,0.546417,-0.369812,0.529755,-0.532867,-41.1,18.4667,-9.2,3527,-30170,Default
331152,-1.65088,-10.1637,1.70352,-80.2277,11.0303,-97.4817,9.64355,-1.0376,41.687,0.548523,-0.367645,0.530579,-0.531342,-40.9083,18.75,-9.23333,3527,-30170,Default
331158,-1.75137,-10.4556,1.63174,-80.1672,11.228,-97.4432,9.70459,-0.732422,43.8843,0.549652,-0.366486,0.530945,-0.53064,-40.8167,18.875,-9.225,3527,-30170,Default
331164,-1.6126,-10.6039,1.76094,-80.1123,11.4313,-97.3993,10.9253,-1.58691,45.4102,0.550751,-0.365295,0.531372,-0.529816,-40.75,19,-9.225,3527,-30170,Default
331170,-1.47383,-10.9006,1.91885,-80.0519,11.64,-97.3553,10.7422,-0.671387,47.5464,0.551941,-0.364105,0.531799,-0.529022,-40.675,19.15,-9.20833,3527,-30170,Default
331176,-1.53604,-10.8192,1.90449,-79.9915,11.8652,-97.3114,12.0239,0.305176,50.0488,0.553162,-0.362823,0.532257,-0.528137,-40.6083,19.3,-9.18333,3527,-30170,Default
331182,-1.64609,-10.446,2.1916,-79.8596,12.3431,-97.2345,12.3291,0.976562,52.5513,0.555725,-0.359985,0.533295,-0.526367,-40.4417,19.6083,-9.11667,3527,-30170,Default
331188,-1.72266,-10.7905,2.11025,-79.8102,12.5958,-97.2015,8.05664,2.50244,57.5562,0.557007,-0.35849,0.533966,-0.52536,-40.325,19.75,-9.09167,3527,-30170,Default
331194,-1.5791,-10.8145,2.04805,-79.7607,12.8705,-97.1631,7.87354,3.60107,59.7534,0.558319,-0.356995,0.534698,-0.524261,-40.2083,19.9083,-9.11667,3527,-30170,Default
331200,-1.69395,-10.8288,2.08633,-79.7168,13.1506,-97.1301,7.14111,4.63867,62.6831,0.559631,-0.355408,0.535492,-0.523102,-40.0917,20.0583,-9.15,3527,-30170,Default
331206,-1.74658,-10.7235,2.29688,-79.6783,13.4473,-97.0972,6.65283,5.31006,64.7583,0.560974,-0.35376,0.536346,-0.521881,-39.9833,20.2083,-9.19167,3527,-30170,Default
331212,-1.74658,-10.781,2.22031,-79.6069,14.068,-97.0367,5.12695,6.28662,67.3828,0.563721,-0.350311,0.5383,-0.519226,-39.7167,20.6167,-9.28333,3527,-30170,Default
331218,-1.85186,-11.2978,2.0959,-79.585,14.4031,-97.0148,1.46484,9.0332,72.8149,0.565094,-0.34848,0.539398,-0.517822,-39.5667,20.8583,-9.325,3527,-30170,Default
331224,-1.81836,-11.4796,2.2251,-79.574,14.7491,-96.9928,2.19727,9.21631,76.355,0.566467,-0.346649,0.540649,-0.516296,-39.3917,21.1083,-9.38333,3527,-30170,Default
331230,-1.72744,-11.6566,1.94756,-79.5575,15.1117,-96.9708,-0.427246,9.82666,80.2002,0.567902,-0.344696,0.541901,-0.514679,-39.2167,21.35,-9.44167,3527,-30170,Default
331236,-1.66523,-12.1734,1.9667,-79.552,15.4907,-96.9489,-0.793457,11.4136,84.8999,0.569366,-0.342712,0.543304,-0.512909,-39.0333,21.6167,-9.49167,3527,-30170,Default
331242,-1.68916,-12.8769,2.03369,-79.563,16.3257,-96.9104,-2.44141,11.7798,90.0879,0.572479,-0.338379,0.546387,-0.509033,-38.6667,22.1083,-9.55,3527,-30170,Default
331248,-1.72266,-13.6951,1.95713,-79.5685,16.7816,-96.8884,-0.793457,12.3901,102.356,0.574127,-0.335999,0.548096,-0.506897,-38.4583,22.375,-9.50833,3527,-30170,Default
331254,-3.29697,-26.95,4.44063,-79.563,17.265,-96.8555,0,13.6108,108.459,0.575958,-0.333435,0.549835,-0.504608,-38.2333,22.6333,-9.44167,3527,-30170,Default
331260,-3.48359,-27.4094,4.90479,-79.5575,17.7814,-96.828,-0.427246,14.8315,114.99,0.577911,-0.330688,0.551666,-0.502228,-38,22.9167,-9.425,3527,-30170,Default
331266,-1.85664,-13.6042,2.05283,-79.552,18.3307,-96.795,-0.610352,14.7705,120.789,0.579926,-0.327789,0.553589,-0.499664,-37.7417,23.2167,-9.44167,3527,-30170,Default
331272,-1.63174,-13.9392,2.44521,-79.5355,19.5117,-96.7181,-0.12207,14.7705,127.625,0.58429,-0.321533,0.557678,-0.494049,-37.2333,23.85,-9.50833,3527,-30170,Default
331278,-1.9332,-13.6186,1.89971,-79.53,20.1434,-96.6797,2.01416,15.3809,139.221,0.586609,-0.318146,0.559845,-0.491058,-36.95,24.2,-9.53333,3527,-30170,Default
331284,-1.99541,-13.1975,1.51211,-79.5026,20.8026,-96.6302,1.46484,17.5781,144.348,0.58905,-0.314575,0.562012,-0.487915,-36.6417,24.5417,-9.51667,3527,-30170,Default
331290,-1.67959,-13.7669,2.01934,-79.4806,21.4893,-96.5863,1.09863,17.2119,150.452,0.591553,-0.310852,0.564301,-0.48468,-36.3333,24.9167,-9.54167,3527,-30170,Default
331296,-1.67959,-14.6234,2.04326,-79.4586,22.1979,-96.5369,0.549316,19.5923,156.921,0.594147,-0.306976,0.56662,-0.481232,-35.9833,25.3167,-9.58333,3527,-30170,Default
331302,-1.52646,-15.3604,1.90449,-79.4037,23.725,-96.427,3.60107,18.4326,165.161,0.599579,-0.298615,0.571533,-0.473907,-35.2333,26.1417,-9.725,3527,-30170,Default
331308,-1.95234,-16.7337,0.818262,-79.3488,24.5435,-96.3666,12.8174,19.4702,182.068,0.602539,-0.294006,0.574005,-0.470032,-34.8333,26.5667,-9.81667,3527,-30170,Default
331314,-2.20596,-17.2983,-0.13877,-79.2609,25.4004,-96.2952,20.2637,17.8833,193.054,0.605713,-0.289001,0.576447,-0.466034,-34.3833,27.0083,-9.875,3527,-30170,Default
331320,-3.03379,-18.0257,-1.05752,-79.1235,26.3068,-96.2018,27.2827,16.1133,201.416,0.609161,-0.283569,0.578796,-0.461945,-33.9083,27.4583,-9.925,3527,-30170,Default
331326,-2.82324,-17.93,-2.03369,-78.6841,28.2404,-95.9216,38.5132,7.50732,212.28,0.612854,-0.27774,0.581055,-0.457733,-32.9167,28.4333,-10,3527,-30170,Default
331332,-3.32568,-16.8007,-2.06719,-78.371,29.2786,-95.7404,54.6265,4.3335,232.666,0.62146,-0.264771,0.584778,-0.449036,-32.375,28.95,-10.075,3527,-30170,Default
331338,-3.2252,-16.7193,-2.22031,-78.0029,30.3552,-95.5151,61.9507,-1.58691,242.493,0.626129,-0.25766,0.586426,-0.444458,-31.85,29.45,-10.1833,3527,-30170,Default
331344,-3.11035,-17.2122,-2.27295,-77.5635,31.4703,-95.2405,67.8711,-4.3335,251.404,0.631165,-0.250183,0.58783,-0.439728,-31.2667,29.975,-10.2917,3527,-30170,Default
331350,-3.16299,-17.4275,-1.88057,-77.0801,32.6184,-94.9274,75.6836,-6.65283,261.292,0.636414,-0.242371,0.589111,-0.434814,-30.6333,30.5333,-10.3917,3527,-30170,Default
331356,-3.74199,-18.686,-1.45469,-75.91,35.0409,-94.1638,81.665,-11.0474,271.179,0.641876,-0.234131,0.59024,-0.429779,-29.1917,31.7,-10.5833,3527,-30170,Default
331362,-2.56006,-18.5616,-0.765625,-75.1959,36.3153,-93.6804,92.7124,-15.4419,297.363,0.653625,-0.216431,0.591766,-0.419067,-28.4,32.2833,-10.6917,3527,-30170,Default
331368,-3.97168,-18.2841,-0.851758,-74.4434,37.6447,-93.1586,81.3599,-15.9912,310.608,0.65976,-0.206909,0.592468,-0.413239,-27.625,32.8167,-10.8083,3527,-30170,Default
331374,-2.46914,-18.8296,0.339746,-73.7073,39.0344,-92.5873,70.6787,-28.4424,326.294,0.665924,-0.197327,0.593353,-0.406708,-26.7917,33.3583,-10.9583,3527,-30170,Default
331380,-0.732129,-17.8582,0.937891,-72.9218,40.4681,-91.8732,61.7676,-22.8271,342.896,0.672455,-0.187866,0.594116,-0.399261,-25.9,33.8917,-11.1667,3527,-30170,Default
331386,-3.96211,-20.1216,1.10059,-71.4496,43.5278,-90.412,46.875,-10.0708,349.487,0.678894,-0.178101,0.595215,-0.391144,-23.95,35,-11.5583,3527,-30170,Default
331392,-3.49795,-21.5858,1.24414,-70.5597,45.0714,-89.4946,59.9365,-26.6113,363.281,0.691315,-0.158569,0.597748,-0.373566,-22.8667,35.575,-11.7417,3527,-30170,Default
331398,-4.70859,-21.4758,-0.14834,-69.5929,46.637,-88.5388,53.4058,-33.9355,369.324,0.697632,-0.148315,0.598541,-0.364594,-21.6917,36.1583,-11.9167,3527,-30170,Default
331404,-1.84707,-19.9015,-0.555078,-68.5437,48.197,-87.4512,54.8096,-50.0488,379.333,0.70401,-0.138214,0.599152,-0.355225,-20.5333,36.6917,-12.0833,3527,-30170,Default
331410,-2.04805,-17.485,-1.36855,-67.3077,49.7571,-86.1548,42.1143,-40.4053,386.536,0.710785,-0.128021,0.599152,-0.345398,-19.3,37.2167,-12.2583,3527,-30170,Default
331416,-5.00049,-17.8056,-0.234473,-64.7864,52.9376,-83.3093,23.6206,-48.2178,393.372,0.717102,-0.117828,0.599579,-0.335083,-16.6667,38.225,-12.55,3527,-30170,Default
331422,-2.00498,-23.4233,1.23936,-63.2922,54.4647,-81.4911,5.92041,-64.6973,398.987,0.730133,-0.0991516,0.599609,-0.312134,-15.2583,38.6917,-12.6583,3527,-30170,Default
331428,-2.97158,-25.8973,-0.110059,-61.7157,55.9808,-79.6014,17.7002,-65.0024,396.79,0.73642,-0.0900574,0.599426,-0.300262,-13.8083,39.1167,-12.7333,3527,-30170,Default
331434,-2.85195,-24.6244,-1.51211,-59.9359,57.453,-77.5745,38.7573,-70.0684,390.137,0.742493,-0.0805664,0.598938,-0.288727,-12.2917,39.5083,-12.85,3535,-30171,Default
331440,-1.44033,-20.8489,-3.11035,-57.8815,58.8483,-75.3937,50.9644,-77.0264,370.911,0.748444,-0.0706177,0.5979,-0.277954,-10.8167,39.8583,-12.9917,3535,-30171,Default
331446,-0.239258,-18.9636,-5.29717,-53.2068,61.1719,-70.6531,57.7393,-90.7593,347.717,0.75415,-0.060791,0.596313,-0.268097,-7.71667,40.4,-13.2833,3535,-30171,Default
331452,9.39805,-10.58,-5.0627,-50.5096,62.0343,-68.0493,105.103,-120.483,294.983,0.765381,-0.0422668,0.59082,-0.251434,-6.08333,40.5667,-13.45,3535,-30171,Default
331458,18.6812,-2.66533,-6.10107,-47.6642,62.71,-65.473,125.244,-119.263,255.615,0.770721,-0.0328369,0.586975,-0.245514,-4.44167,40.6667,-13.6,3535,-30171,Default
331464,24.4139,11.2355,0.717773,-44.9011,63.2098,-63.1329,164.612,-67.3828,213.013,0.77536,-0.0235291,0.582947,-0.241486,-2.79167,40.7083,-13.7833,3535,-30171,Default
331470,-0.421094,24.2703,0.583789,-42.5391,63.7262,-61.496,108.093,92.2852,92.9565,0.778046,-0.0132446,0.580292,-0.240021,-1.23333,40.725,-13.9917,3535,-30171,Default
331476,-9.37412,5.26846,-0.31582,-42.594,64.248,-62.4408,17.334,-42.9688,-11.5356,0.775299,-0.00616455,0.583557,-0.241333,1.70833,40.6667,-14.4917,3535,-30171,Default
331482,10.9102,-2.54092,-2.12461,-43.2587,63.7262,-63.2428,-15.4419,20.1416,-166.321,0.774261,-0.00927734,0.582001,-0.248199,3.075,40.6,-14.7667,3535,-30171,Default
331488,4.87607,-7.29736,-4.50762,-45.1428,63.2812,-65.3687,-13.1836,1.46484,-219.788,0.770355,-0.0134277,0.584137,-0.255035,4.325,40.5,-15.0333,3535,-30171,Default
331494,9.82393,-12.1974,-4.08652,-47.1698,62.5507,-67.6868,0.610352,-18.6157,-247.437,0.766205,-0.0190125,0.585602,-0.263672,5.45833,40.4083,-15.2667,3535,-30171,Default
331500,11.6614,-14.456,-2.96201,-49.0485,61.6278,-69.9225,17.4561,13.0615,-258.667,0.762146,-0.0250549,0.586212,-0.273468,6.425,40.3333,-15.4833,3535,-30171,Default
331506,7.47441,-15.0924,-3.10557,-52.8168,59.8535,-74.707,26.2451,18.7378,-254.883,0.756989,-0.0303955,0.587616,-0.283997,7.93333,40.2417,-15.8917,3535,-30171,Default
331512,6.78535,-11.6423,-4.49805,-54.3439,58.9417,-76.7725,32.8369,8.78906,-231.628,0.746582,-0.0398254,0.589966,-0.304779,8.475,40.225,-16.05,3535,-30171,Default
331518,5.95273,-8.59414,-5.6752,-55.7391,58.0682,-78.6896,27.771,5.49316,-219.36,0.741516,-0.0440369,0.590881,-0.314575,8.9,40.2167,-16.2167,3535,-30171,Default
331524,6.19199,-6.01494,-5.92881,-56.9971,57.2168,-80.4419,20.1416,1.83105,-208.435,0.736603,-0.0481262,0.591766,-0.3237,9.19167,40.1833,-16.3667,3535,-30171,Default
331530,5.24932,-3.07207,-5.61299,-58.1616,56.3818,-82.0349,2.74658,2.92969,-200.928,0.731812,-0.0522766,0.592651,-0.332214,9.375,40.15,-16.4917,3535,-30171,Default
331536,4.76123,-1.64131,-5.35459,-60.4633,54.7174,-84.8529,-20.9961,-11.7188,-197.876,0.722473,-0.0621643,0.594757,-0.346863,9.50833,40.0917,-16.7167,3535,-30171,Default
331542,5.92881,-2.09111,-4.56504,-61.6388,53.844,-86.0889,-62.8662,-13.0615,-203.735,0.717896,-0.0684204,0.595947,-0.353058,9.425,40.075,-16.8,3535,-30171,Default
331548,5.61299,-1.91406,-4.00518,-62.8912,52.9431,-87.3029,-78.9795,-17.5781,-213.684,0.713043,-0.0753479,0.597473,-0.358887,9.26667,40.0583,-16.875,3544,-30172,Default
331554,6.61787,-2.41172,-3.53145,-64.1711,51.9708,-88.4674,-93.811,-21.8506,-229.431,0.708008,-0.0830994,0.59906,-0.364471,9.05,40.0583,-16.9417,3544,-30172,Default
331560,7.23994,-3.4166,-3.08643,-65.4895,50.9106,-89.5935,-101.807,-16.9678,-248.779,0.702667,-0.0918274,0.600616,-0.370087,8.775,40.05,-17,3544,-30172,Default
331566,7.33564,-4.58418,-2.26338,-68.2471,48.4991,-91.9006,-105.652,-15.7471,-268.555,0.690338,-0.111206,0.604004,-0.382263,8.09167,40.05,-17.0833,3544,-30172,Default
331572,8.71855,-7.81895,-1.01445,-69.6094,47.1423,-93.0322,-104.187,-4.39453,-300.232,0.683472,-0.121704,0.60553,-0.388947,7.66667,40.05,-17.0417,3544,-30172,Default
331578,8.25918,-8.75684,-0.880469,-70.9607,45.7251,-94.1968,-101.501,2.0752,-310.974,0.675934,-0.132294,0.607147,-0.396057,7.16667,40.0417,-17.0167,3544,-30172,Default
331584,8.01514,-9.38848,-0.837402,-72.2845,44.2529,-95.3503,-98.2056,9.33838,-316.956,0.667908,-0.142975,0.608734,-0.403473,6.58333,40.0083,-16.9333,3544,-30172,Default
331590,7.58447,-9.53203,-0.650781,-73.559,42.7423,-96.4874,-96.1914,18.3105,-319.824,0.659454,-0.153534,0.610291,-0.411041,5.93333,39.9667,-16.8167,3544,-30172,Default
331596,6.97676,-9.79043,-0.636426,-76.0034,39.6826,-98.7122,-96.9238,24.4751,-320.007,0.641296,-0.174255,0.613617,-0.42627,4.41667,39.8167,-16.4917,3544,-30172,Default
331602,5.74697,-10.1541,-0.818262,-77.179,38.15,-99.7833,-101.257,36.8042,-314.697,0.631775,-0.184387,0.615387,-0.433624,3.625,39.725,-16.3083,3544,-30172,Default
331608,4.95742,-10.4077,-0.47373,-78.327,36.6229,-100.816,-104.98,39.3066,-310.547,0.621979,-0.194366,0.617249,-0.440735,2.79167,39.5917,-16.125,3544,-30172,Default
331614,4.15352,-10.6039,-0.732129,-79.4476,35.1013,-101.805,-111.572,44.3726,-308.228,0.612,-0.204254,0.619141,-0.44754,1.88333,39.4167,-15.9583,3544,-30172,Default
331620,3.10557,-11.2499,-0.933105,-80.5627,33.5797,-102.761,-114.929,42.9688,-307.922,0.601746,-0.214111,0.621155,-0.45401,0.941667,39.2167,-15.7583,3544,-30172,Default
331626,2.68926,-11.6806,-0.866113,-82.6666,30.4926,-104.469,-117.371,39.1846,-309.937,0.580933,-0.2341,0.624664,-0.466278,-0.991667,38.6833,-15.3583,3544,-30172,Default
331632,1.79922,-12.9151,-0.727344,-83.6554,28.905,-105.222,-117.676,30.1514,-318.97,0.570343,-0.244324,0.626007,-0.472198,-1.98333,38.35,-15.2,3544,-30172,Default
331638,1.18672,-13.6712,-0.593359,-84.5837,27.2791,-105.897,-116.394,22.1558,-324.524,0.559723,-0.25473,0.626984,-0.478088,-2.925,38.0083,-15.0333,3544,-30172,Default
331644,1.13887,-14.3842,-0.277539,-85.4462,25.6146,-106.485,-113.831,14.4653,-329.834,0.549133,-0.265381,0.627472,-0.483917,-3.89167,37.6083,-14.9167,3544,-30172,Default
331650,0.880469,-14.7431,0.0957031,-86.2482,23.9117,-106.99,-111.938,9.33838,-333.191,0.538574,-0.276215,0.627472,-0.489685,-4.86667,37.175,-14.85,3544,-30172,Default
331656,0.76084,-15.1689,0.354102,-87.7039,20.4456,-107.792,-111.389,2.44141,-336.426,0.517487,-0.298309,0.626251,-0.500916,-6.80833,36.2167,-14.8167,3544,-30172,Default
331662,0.92832,-15.523,1.39248,-88.3795,18.6823,-108.089,-114.929,-6.71387,-340.271,0.506989,-0.309601,0.625092,-0.506226,-7.8,35.7,-14.8417,3544,-30172,Default
331668,0.966602,-15.9968,1.73701,-89.0442,16.9189,-108.325,-119.812,-10.1929,-341.614,0.49646,-0.321014,0.623657,-0.511292,-8.75,35.225,-14.8583,3586,-30177,Default
331674,1.03838,-16.8485,2.21553,-89.7089,15.1392,-108.512,-124.268,-11.2305,-342.407,0.48587,-0.332581,0.622009,-0.516022,-9.74167,34.7167,-14.9083,3586,-30177,Default
331680,0.923535,-17.7577,2.4835,-90.379,13.3594,-108.66,-126.953,-11.1084,-342.285,0.475189,-0.344238,0.620239,-0.520477,-10.7583,34.2,-14.9667,3586,-30177,Default
331686,0.349316,-19.7531,3.33047,-91.7084,9.81628,-108.836,-128.296,-10.6812,-341.553,0.453674,-0.367493,0.616119,-0.528595,-12.8667,33.1417,-15.1583,3586,-30177,Default
331692,0.00957031,-20.7867,3.71807,-92.3621,8.06396,-108.88,-128.906,-7.93457,-336.914,0.442902,-0.378937,0.613831,-0.532288,-13.9583,32.5917,-15.3,3586,-30177,Default
331698,-0.162695,-21.7916,4.03867,-93.0103,6.32812,-108.891,-127.991,-4.69971,-334.534,0.432159,-0.390228,0.611359,-0.535797,-15.0167,32.0583,-15.4333,3586,-30177,Default
331704,-0.378027,-22.5381,4.33057,-93.642,4.60876,-108.885,-124.878,0.183105,-331.665,0.421417,-0.401276,0.608765,-0.539124,-16.1,31.4833,-15.5583,3586,-30177,Default
331710,-0.311035,-22.9544,4.67988,-94.2572,2.91138,-108.875,-121.399,4.69971,-330.139,0.410675,-0.412018,0.606018,-0.542389,-17.2333,30.8667,-15.7083,3586,-30177,Default
331716,0.14834,-23.9736,5.6752,-95.4163,-0.444946,-108.842,-117.798,12.207,-329.834,0.389099,-0.432526,0.600098,-0.54892,-19.5167,29.4833,-15.875,3586,-30177,Default
331722,-0.397168,-23.7774,6.08193,-95.9601,-2.12585,-108.858,-106.018,37.4146,-332.825,0.378052,-0.442169,0.596924,-0.552399,-20.6417,28.7333,-15.925,3586,-30177,Default
331728,-1.53125,-23.3994,6.44561,-96.46,-3.81775,-108.918,-102.112,50.5981,-334.167,0.36673,-0.451324,0.593628,-0.556183,-21.7833,27.9583,-15.9167,3586,-30177,Default
331734,-3.33525,-23.2654,6.62266,-96.9269,-5.51514,-109.023,-100.342,62.5,-333.984,0.355133,-0.460022,0.59024,-0.56015,-22.8417,27.2417,-15.9167,3586,-30177,Default
331740,-5.98623,-23.074,6.4791,-97.3773,-7.21252,-109.16,-98.877,71.4111,-332.397,0.343262,-0.468262,0.586823,-0.56427,-23.9167,26.5167,-15.9167,3586,-30177,Default
331746,-11.8528,-22.6434,6.79492,-98.2233,-10.5634,-109.495,-97.29,74.8901,-331.116,0.319336,-0.483673,0.579895,-0.572418,-26.1083,25.075,-15.7417,3586,-30177,Default
331752,-14.6617,-23.2128,7.01982,-98.6243,-12.2058,-109.638,-93.5669,68.3594,-321.35,0.307526,-0.491028,0.576294,-0.576233,-27.2083,24.3,-15.575,3586,-30177,Default
331758,-17.2313,-23.8492,7.43613,-99.0198,-13.7988,-109.742,-86.4258,60.1196,-312.195,0.296143,-0.498199,0.572571,-0.579742,-28.325,23.4333,-15.325,3586,-30177,Default
331764,-19.5713,-24.2225,8.23047,-99.3823,-15.3314,-109.803,-74.646,48.0347,-297.363,0.28537,-0.505127,0.568695,-0.583008,-29.425,22.45,-15.0583,3586,-30177,Default
331770,-21.0403,-24.1124,8.93867,-99.6954,-16.7651,-109.797,-61.9507,36.499,-279.785,0.275604,-0.511688,0.564606,-0.585938,-30.4667,21.425,-14.7583,3586,-30177,Default
331776,-22.1409,-22.6481,9.80479,-100.173,-19.292,-109.644,-48.0347,26.6113,-258.911,0.259308,-0.523468,0.556122,-0.591064,-32.4,18.95,-14.0833,3586,-30177,Default
331782,-22.2558,-21.5093,9.77607,-100.316,-20.3687,-109.528,-19.2261,15.3198,-212.769,0.252838,-0.528503,0.55188,-0.593353,-33.2,17.5333,-13.75,3561,-30174,Default
331788,-22.2988,-20.3656,9.65166,-100.388,-21.3135,-109.413,-5.79834,15.0146,-189.636,0.247467,-0.532806,0.547791,-0.595551,-33.8583,16.075,-13.3917,3561,-30174,Default
331794,-22.5237,-19.2459,9.0583,-100.388,-22.1375,-109.314,6.34766,15.9912,-166.443,0.243042,-0.536346,0.543854,-0.597809,-34.3667,14.625,-13.0083,3561,-30174,Default
331800,-22.7678,-18.1645,7.93857,-100.162,-23.4393,-109.226,18.2495,19.2871,-144.958,0.239532,-0.539124,0.540161,-0.600067,-34.7583,13.2583,-12.65,3561,-30174,Default
331806,-23.9497,-15.8006,5.19189,-99.9481,-23.9227,-109.243,36.0107,26.123,-102.478,0.234833,-0.542358,0.53363,-0.604828,-35.1333,10.7833,-12.025,3561,-30174,Default
331812,-24.7249,-14.298,4.0291,-99.679,-24.3018,-109.303,41.1377,32.2266,-82.5806,0.233521,-0.542908,0.530823,-0.6073,-35.175,9.69167,-11.7333,3561,-30174,Default
331818,-25.4905,-12.5802,3.20127,-99.3604,-24.5764,-109.418,39.0625,35.3394,-61.7065,0.232727,-0.542755,0.528473,-0.609772,-35.1417,8.70833,-11.4417,3561,-30174,Default
331824,-26.639,-10.7762,2.51699,-99.0363,-24.7522,-109.578,31.8604,31.4331,-39.1235,0.232391,-0.542023,0.526764,-0.612061,-35.0667,7.81667,-11.1583,3561,-30174,Default
331830,-25.792,-9.47461,2.97158,-98.5089,-24.7412,-109.94,18.7988,36.499,-16.9067,0.232605,-0.540894,0.525726,-0.613831,-34.975,7.01667,-10.8417,3561,-30174,Default
331836,-25.9212,-9.82871,2.87109,-98.3441,-24.5764,-110.187,-13.3667,36.6821,25.0854,0.233429,-0.53714,0.526672,-0.615997,-34.775,5.65833,-10.275,3561,-30174,Default
331842,-24.7775,-10.8336,2.99551,-98.2507,-24.2963,-110.429,-20.3857,39.4897,43.5181,0.234222,-0.53479,0.528534,-0.61618,-34.675,5.09167,-9.98333,3561,-30174,Default
331848,-24.0885,-11.8768,2.90459,-98.1848,-23.9227,-110.698,-21.1182,40.2222,60.4858,0.235291,-0.532013,0.531036,-0.616028,-34.5917,4.6,-9.69167,3561,-30174,Default
331854,-22.7869,-12.8481,2.90459,-98.1189,-23.4668,-110.984,-17.5171,39.6118,75.5615,0.236786,-0.528778,0.533966,-0.615692,-34.5167,4.19167,-9.40833,3561,-30174,Default
331860,-27.4381,-57.13,-1.33984,-98.7726,-22.0111,-111.33,-161.56,-15.625,148.499,0.2388,-0.525177,0.53714,-0.615234,-34.4417,3.825,-9.10833,3561,-30174,Default
331866,-24.256,-9.37891,-1.71309,-97.9761,-20.8081,-111.72,116.455,33.3862,233.765,0.249359,-0.514587,0.547729,-0.610657,-34.3167,3.26667,-8.6,3561,-30174,Default
331872,-20.8011,-7.08203,-3.45967,-97.2235,-19.5007,-112.072,109.863,-3.41797,253.662,0.258606,-0.50592,0.55069,-0.611389,-34.2583,3.08333,-8.43333,3561,-30174,Default
331878,-13.0683,-10.2594,14.6091,-96.5863,-18.067,-112.22,102.722,23.8037,293.518,0.269012,-0.497803,0.553772,-0.610779,-34.175,2.96667,-8.275,3561,-30174,Default
331884,1.08145,-2.94287,1.07187,-95.9381,-16.4465,-112.516,91.98,-2.2583,269.104,0.279633,-0.487946,0.558105,-0.610016,-34.0833,2.925,-8.15833,3561,-30174,Default
331890,15.7479,-3.00986,11.3265,-95.0153,-13.4418,-112.896,54.6265,22.8882,272.4,0.289917,-0.479431,0.561737,-0.608612,-33.9,3.05833,-8.00833,3561,-30174,Default
331896,-9.87178,-17.0256,-0.253613,-94.7955,-12.1014,-113.758,-0.854492,44.6167,238.892,0.302795,-0.459686,0.574036,-0.60611,-33.8167,3.19167,-7.95,3561,-30174,Default
331902,0.215332,-12.7668,2.66055,-94.6912,-10.7831,-114.077,17.334,-18.7988,237.305,0.30899,-0.451752,0.579681,-0.603546,-33.7333,3.4,-7.95833,3527,-30170,Default
331908,1.47383,-10.2642,4.99092,-94.5593,-9.44824,-114.071,5.85938,33.7524,231.14,0.317047,-0.445282,0.583893,-0.600159,-33.6417,3.68333,-7.99167,3527,-30170,Default
331914,-5.36895,-11.6901,6.05801,-94.4495,-8.17383,-114.318,7.20215,38.147,228.394,0.323334,-0.437714,0.588867,-0.597473,-33.525,4.00833,-8.025,3527,-30170,Default
331920,-5.58906,-12.8434,5.40244,-94.2133,-5.65796,-114.681,12.5732,5.24902,228.455,0.329376,-0.430054,0.59375,-0.59491,-33.225,4.74167,-7.99167,3527,-30170,Default
331926,-4.65596,-16.3892,2.2873,-94.021,-4.43848,-114.78,19.5312,20.9351,200.317,0.343262,-0.416138,0.601471,-0.589172,-33.05,5.14167,-7.94167,3527,-30170,Default
331932,-6.35469,-12.3409,-4.7708,-93.8727,-3.32886,-114.933,32.8979,1.34277,177.368,0.349091,-0.409454,0.60498,-0.586823,-32.8667,5.53333,-7.88333,3527,-30170,Default
331938,-2.59355,-11.872,-0.449805,-93.6639,-2.33459,-114.972,28.1372,-14.6484,162.415,0.355042,-0.403687,0.607391,-0.584747,-32.7083,5.95,-7.81667,3527,-30170,Default
331944,-0.669922,-11.5753,-0.44502,-93.4882,-1.41174,-114.928,23.1323,5.79834,149.109,0.360901,-0.398773,0.609375,-0.582458,-32.5417,6.36667,-7.8,3527,-30170,Default
331950,-1.18672,-13.1927,-0.689063,-93.1146,0.219727,-115.093,37.5366,21.6064,140.259,0.365723,-0.393829,0.611542,-0.580566,-32.2333,7.19167,-7.79167,3527,-30170,Default
331956,-14.5947,-2.09111,-16.2265,-92.8345,1.01074,-115.406,59.7534,95.52,43.0298,0.373718,-0.381866,0.61554,-0.579254,-32.0667,7.61667,-7.775,3527,-30170,Default
331962,-12.8434,-11.9629,4.43584,-92.5214,1.30188,-115.862,5.00488,1.40381,33.8745,0.373993,-0.376892,0.616364,-0.581421,-31.9167,8.01667,-7.74167,3527,-30170,Default
331968,-0.153125,-11.0489,0.880469,-92.4774,1.56555,-115.84,27.4048,-34.9731,30.8838,0.375641,-0.375458,0.616913,-0.580719,-31.75,8.43333,-7.7,3527,-30170,Default
331974,5.47422,-7.10117,5.98623,-92.3126,1.82373,-115.642,46.6309,5.61523,38.147,0.378571,-0.374664,0.616211,-0.580048,-31.575,8.825,-7.71667,3527,-30170,Default
331980,-0.354102,-4.16787,3.49795,-91.983,2.36206,-115.801,10.498,37.2925,35.2173,0.380859,-0.372375,0.615784,-0.580475,-31.2583,9.54167,-7.81667,3527,-30170,Default
331986,-2.04805,-11.3743,0.311035,-92.027,2.59277,-115.862,13.2446,-8.05664,22.9492,0.382416,-0.368561,0.617889,-0.579651,-31.1167,9.825,-7.89167,3527,-30170,Default
331992,-0.689063,-7.46006,2.40693,-91.9336,2.79602,-115.79,16.9678,9.58252,15.4419,0.384125,-0.367584,0.617828,-0.579224,-30.9667,10.1,-7.93333,3527,-30170,Default
331998,-2.8998,-7.79023,1.60781,-91.8292,2.95532,-115.801,-3.11279,10.8643,9.76562,0.385223,-0.366333,0.617798,-0.579315,-30.8333,10.3667,-7.95833,3527,-30170,Default
332004,-2.40693,-10.58,0.512012,-91.8182,3.08167,-115.823,-4.76074,-4.39453,7.38525,0.385834,-0.36554,0.618225,-0.578979,-30.7,10.6083,-7.95833,3527,-30170,Default
332010,-0.239258,-10.4269,1.00967,-91.7853,3.30688,-115.703,1.40381,-4.94385,6.04248,0.386719,-0.365204,0.618408,-0.578369,-30.4833,11.0417,-7.96667,3527,-30170,Default
332016,-0.947461,-11.0872,0.344531,-91.7688,3.41675,-115.675,-2.01416,1.40381,8.54492,0.388458,-0.36438,0.61853,-0.577606,-30.425,11.2333,-7.975,3544,-30172,Default
332022,-0.837402,-11.336,0.531152,-91.7523,3.52661,-115.648,3.479,-2.31934,9.33838,0.389221,-0.363892,0.618713,-0.577179,-30.3583,11.3917,-7.99167,3544,-30172,Default
332028,-0.411523,-10.6183,0.890039,-91.7139,3.64197,-115.598,6.40869,0.183105,10.437,0.390198,-0.363434,0.618713,-0.576843,-30.2917,11.5333,-8.03333,3544,-30172,Default
332034,-1.27764,-9.77129,0.870898,-91.6589,3.75732,-115.565,3.41797,-1.40381,10.498,0.391144,-0.362823,0.618683,-0.576599,-30.225,11.6667,-8.075,3544,-30172,Default
332040,-0.239258,-10.8192,0.684277,-91.5875,3.99902,-115.444,1.2207,-7.8125,12.9395,0.39209,-0.362305,0.618683,-0.576294,-30.0917,11.9583,-8.15833,3544,-30172,Default
332046,-1.33506,-10.1828,0.660352,-91.5216,4.11987,-115.417,8.97217,0.976562,13.1836,0.394196,-0.361237,0.618652,-0.575562,-30.0333,12.0917,-8.2,3544,-30172,Default
332052,-0.679492,-10.4316,0.813477,-91.4557,4.24072,-115.384,7.8125,-3.23486,13.4277,0.395203,-0.360535,0.618591,-0.575378,-29.9917,12.225,-8.21667,3544,-30172,Default
332058,-0.588574,-10.4412,0.799121,-91.3953,4.36157,-115.334,9.94873,0.793457,13.7939,0.396271,-0.359985,0.618469,-0.575104,-29.95,12.3333,-8.23333,3544,-30172,Default
332064,-1.17236,-10.1062,0.756055,-91.3239,4.47693,-115.302,9.58252,-0.549316,13.4888,0.397247,-0.359314,0.618378,-0.574982,-29.9167,12.45,-8.275,3544,-30172,Default
332070,-1.11973,-9.98184,0.866113,-91.1865,4.70215,-115.214,9.21631,-2.56348,12.8174,0.398254,-0.358673,0.618256,-0.574799,-29.825,12.6333,-8.33333,3544,-30172,Default
332076,-0.765625,-10.2211,0.631641,-91.1206,4.80652,-115.159,10.0708,-1.77002,12.8784,0.400299,-0.357605,0.61792,-0.574402,-29.7917,12.7167,-8.33333,3544,-30172,Default
332082,-1.16279,-10.1493,0.641211,-91.0492,4.91089,-115.115,10.437,-3.72314,12.9395,0.401276,-0.357056,0.617737,-0.574249,-29.75,12.8,-8.29167,3544,-30172,Default
332088,-0.684277,-10.044,0.784766,-90.9778,5.01526,-115.06,11.7188,-4.94385,12.7563,0.402313,-0.356537,0.617523,-0.574097,-29.7083,12.8917,-8.29167,3544,-30172,Default
332094,-0.765625,-9.8,0.985742,-90.8954,5.11963,-114.999,12.3291,-1.83105,12.8784,0.403381,-0.356049,0.617249,-0.573944,-29.6667,12.9917,-8.3,3544,-30172,Default
332100,-1.00967,-9.58945,0.980957,-90.7361,5.31189,-114.906,12.207,-2.19727,12.3291,0.404358,-0.355469,0.617004,-0.573883,-29.6083,13.175,-8.325,3544,-30172,Default
332106,-0.947461,-9.56074,1.04795,-90.6537,5.40527,-114.862,12.3291,0.366211,11.6577,0.40625,-0.35437,0.616486,-0.573761,-29.6,13.275,-8.35833,3544,-30172,Default
332112,-1.10537,-9.55117,0.933105,-90.5713,5.49316,-114.829,11.1694,-0.732422,11.2915,0.407135,-0.353821,0.616241,-0.573761,-29.5833,13.3667,-8.35,3544,-30172,Default
332118,-0.966602,-9.72822,0.856543,-90.4944,5.58105,-114.791,10.9253,-1.09863,10.5591,0.40799,-0.353302,0.615997,-0.5737,-29.5667,13.45,-8.36667,3544,-30172,Default
332124,-0.880469,-9.74736,0.607715,-90.423,5.65796,-114.747,11.8408,-0.0610352,10.3149,0.408844,-0.352844,0.615753,-0.573669,-29.5417,13.525,-8.35,3544,-30172,Default
332130,-0.875684,-10.001,0.851758,-90.2582,5.81177,-114.675,13.6108,0.305176,9.82666,0.409637,-0.352356,0.615479,-0.573669,-29.475,13.6417,-8.39167,3544,-30172,Default
332136,-1.12451,-9.7043,0.837402,-90.1648,5.88318,-114.653,18.2495,2.92969,9.15527,0.411224,-0.351257,0.614838,-0.573914,-29.4417,13.675,-8.39167,3544,-30172,Default
332142,-0.971387,-9.51768,1.11016,-90.0604,5.9491,-114.631,17.395,1.58691,9.15527,0.411987,-0.350616,0.614441,-0.574158,-29.425,13.725,-8.40833,3544,-30172,Default
332148,-0.866113,-9.46504,1.07666,-89.9561,6.01501,-114.604,15.9302,2.80762,8.8501,0.412781,-0.350037,0.614044,-0.574371,-29.4083,13.7583,-8.425,3544,-30172,Default
332154,-1.00488,-9.87178,0.846973,-89.8627,6.08093,-114.582,16.4795,3.41797,8.8501,0.413483,-0.349487,0.613708,-0.574585,-29.4,13.8,-8.45,3544,-30172,Default
332160,-1.04795,-10.2498,0.521582,-89.6594,6.20178,-114.549,18.6768,4.21143,9.09424,0.414185,-0.348877,0.613342,-0.574799,-29.375,13.8917,-8.54167,3544,-30172,Default
332166,-1.02402,-10.513,0.531152,-89.5386,6.27319,-114.521,21.0571,-0.427246,11.4746,0.415741,-0.347595,0.612488,-0.575409,-29.35,13.9333,-8.6,3544,-30172,Default
332172,-0.947461,-11.2643,0.47373,-89.4177,6.3446,-114.483,23.8647,-2.31934,12.9395,0.416656,-0.346954,0.612,-0.575653,-29.3167,14,-8.65,3544,-30172,Default
332178,-0.990527,-12.006,0.287109,-89.2859,6.42151,-114.439,27.771,-5.85938,15.8081,0.417694,-0.346283,0.61142,-0.575897,-29.3,14.0333,-8.65833,3544,-30172,Default
332184,-0.76084,-11.5801,0.272754,-89.1321,6.51489,-114.373,35.0342,-8.05664,18.4937,0.418915,-0.345581,0.610718,-0.576172,-29.2833,14.0667,-8.675,3544,-30172,Default
332190,-0.679492,-10.8049,0.655566,-88.7201,6.72363,-114.236,40.4663,-6.28662,20.2026,0.42038,-0.344727,0.609863,-0.576538,-29.2417,14.1333,-8.7,3544,-30172,Default
332196,-0.995313,-11.3408,1.16758,-88.4949,6.83899,-114.17,43.335,-6.04248,22.0947,0.423462,-0.34256,0.607941,-0.577606,-29.225,14.15,-8.7,3544,-30172,Default
332202,-1.43555,-12.6854,0.631641,-88.2697,6.95435,-114.104,46.7529,-11.4746,24.9023,0.425049,-0.341431,0.606934,-0.578156,-29.1833,14.1833,-8.71667,3544,-30172,Default
332208,-1.17236,-10.7044,0.229688,-88.017,7.08618,-114.011,56.0303,-16.0522,26.1841,0.42688,-0.340271,0.605804,-0.578674,-29.1667,14.2083,-8.7,3544,-30172,Default
332214,-1.0001,-9.86699,1.44033,-87.7203,7.21802,-113.895,57.9224,-13.2446,26.1841,0.429016,-0.33905,0.60437,-0.579315,-29.15,14.2167,-8.70833,3544,-30172,Default
332220,-1.26328,-9.51289,1.3207,-87.1161,7.48718,-113.692,56.0303,-12.6343,26.6724,0.431061,-0.337738,0.602936,-0.580078,-29.15,14.3,-8.825,3544,-30172,Default
332226,-1.43076,-9.91484,1.51689,-86.8304,7.62451,-113.582,54.2603,-18.6157,28.6255,0.43515,-0.335114,0.600189,-0.58136,-29.1333,14.35,-8.9,3544,-30172,Default
332232,-1.05752,-9.33105,1.52646,-86.5393,7.76733,-113.45,53.772,-18.9819,29.2969,0.437347,-0.333923,0.598785,-0.581848,-29.1167,14.4167,-8.96667,3544,-30172,Default
332238,-1.20107,-8.30225,1.36855,-86.2482,7.91016,-113.318,50.4761,-14.0991,31.189,0.439545,-0.332733,0.597382,-0.582336,-29.1083,14.475,-9.05,3544,-30172,Default
332244,0.186621,-10.7857,5.17275,-85.979,8.05847,-113.209,33.6304,-11.7798,37.9639,0.441589,-0.331421,0.596161,-0.582764,-29.0917,14.55,-9.1,3544,-30172,Default
332250,1.1293,-11.5514,4.91914,-85.6824,8.47595,-113,17.5171,-11.7188,47.9736,0.443512,-0.330231,0.59552,-0.582642,-29.075,14.6917,-9.20833,3544,-30172,Default
332256,-1.94277,-10.2259,1.69873,-85.567,8.72314,-112.928,22.8271,0.488281,52.2461,0.447327,-0.327576,0.595367,-0.58139,-29.05,14.775,-9.3,3535,-30171,Default
332262,-1.55518,-9.45068,2.53135,-85.4407,8.98132,-112.879,19.2261,-8.48389,53.894,0.449097,-0.325897,0.595398,-0.580933,-29.025,14.85,-9.375,3535,-30171,Default
332268,0.196191,-9.92441,4.04824,-85.3198,9.2395,-112.786,13.1226,-4.63867,55.0537,0.451111,-0.324463,0.595337,-0.5802,-28.9833,14.9333,-9.45833,3535,-30171,Default
332274,-0.062207,-10.5561,3.26348,-85.2374,9.50867,-112.709,7.01904,3.78418,58.96,0.452972,-0.323059,0.59552,-0.579376,-28.95,15.0417,-9.53333,3535,-30171,Default
332280,-0.488086,-11.6662,3.10078,-85.1825,9.79431,-112.676,4.21143,3.23486,64.1479,0.45462,-0.321411,0.596069,-0.578461,-28.8917,15.1583,-9.575,3535,-30171,Default
332286,-0.244043,-12.1112,3.17734,-85.1056,10.4315,-112.593,3.54004,3.78418,68.7256,0.458191,-0.317963,0.597443,-0.576111,-28.7583,15.4,-9.575,3535,-30171,Default
332292,-0.689063,-11.9007,3.27783,-85.0671,10.7886,-112.566,3.11279,10.0708,78.4912,0.460052,-0.315918,0.598267,-0.57489,-28.6833,15.525,-9.58333,3535,-30171,Default
332298,-0.837402,-12.4223,2.45957,-85.0342,11.1676,-112.549,-1.09863,11.4746,83.4351,0.461945,-0.313721,0.599243,-0.573578,-28.6,15.6333,-9.625,3535,-30171,Default
332304,-0.880469,-13.4989,2.06719,-85.0232,11.5741,-112.544,-2.86865,11.2915,89.0503,0.463837,-0.311462,0.600403,-0.572052,-28.5333,15.75,-9.675,3535,-30171,Default
332310,-0.736914,-14.1114,1.60303,-85.0232,12.0026,-112.527,0,10.1318,96.4355,0.465851,-0.309113,0.601685,-0.570374,-28.4417,15.9083,-9.775,3535,-30171,Default
332316,-0.818262,-14.901,1.63174,-84.9902,12.9694,-112.484,0.915527,10.376,104.492,0.468079,-0.306519,0.602936,-0.568573,-28.275,16.2667,-9.95,3535,-30171,Default
332322,-0.942676,-15.8819,1.08623,-84.9628,13.5132,-112.451,5.24902,7.69043,123.108,0.473175,-0.30069,0.605713,-0.564545,-28.1917,16.4917,-10,3535,-30171,Default
332328,-1.05273,-16.1499,1.21064,-84.9188,14.1064,-112.407,7.08008,6.95801,133.484,0.476105,-0.297363,0.607117,-0.562286,-28.0833,16.725,-10.0417,3535,-30171,Default
332334,-0.799121,-16.1116,1.49775,-84.8639,14.7437,-112.352,9.27734,5.61523,143.921,0.479309,-0.293762,0.608582,-0.559875,-27.9667,16.9833,-10.1083,3535,-30171,Default
332340,-0.669922,-15.8437,1.6126,-84.7925,15.4303,-112.291,10.437,6.71387,153.198,0.482819,-0.289856,0.610107,-0.557251,-27.8083,17.2583,-10.15,3535,-30171,Default
332346,-0.636426,-15.7192,1.64609,-84.6387,16.9354,-112.165,11.7188,8.36182,162.109,0.486481,-0.285675,0.611694,-0.554474,-27.4083,17.875,-10.1833,3535,-30171,Default
332352,0.0287109,-15.7288,2.93809,-84.5618,17.7539,-112.11,9.46045,11.2915,181.641,0.494263,-0.276428,0.615173,-0.54837,-27.1583,18.2083,-10.1583,3535,-30171,Default
332358,0.239258,-15.2694,3.70371,-84.4958,18.6218,-112.055,7.38525,15.3809,191.406,0.498383,-0.271393,0.617126,-0.544983,-26.9083,18.5333,-10.125,3535,-30171,Default
332364,0.631641,-14.7957,4.69902,-84.4354,19.5337,-112.011,3.60107,21.8506,199.585,0.502533,-0.266052,0.619293,-0.541321,-26.6417,18.8917,-10.1333,3535,-30171,Default
332370,1.05273,-14.9201,5.24453,-84.408,20.484,-111.995,-4.15039,25.7568,210.144,0.506622,-0.260437,0.621704,-0.537476,-26.3417,19.2833,-10.175,3535,-30171,Default
332376,1.49775,-16.8294,4.52197,-84.4849,22.5385,-112.033,-11.9019,33.5083,219.788,0.514709,-0.248505,0.627563,-0.528534,-25.6917,20.1417,-10.2583,3527,-30170,Default
332382,0.129199,-18.2554,2.77061,-84.5782,23.6536,-112.11,-17.1509,41.0156,243.652,0.518677,-0.241943,0.631012,-0.523621,-25.3167,20.6417,-10.3,3527,-30170,Default
332388,0.957031,-20.1886,2.33994,-84.6826,24.8181,-112.181,-18.1274,34.729,258.728,0.522797,-0.235138,0.634521,-0.518311,-24.9,21.1583,-10.3167,3527,-30170,Default
332394,0.717773,-20.9781,0.0430664,-84.776,26.0486,-112.209,-13.916,40.8936,273.01,0.527374,-0.228088,0.638,-0.512543,-24.475,21.675,-10.35,3527,-30170,Default
332400,-0.0861328,-23.0501,0.181836,-84.9078,28.7402,-112.313,-5.67627,37.8418,292.053,0.532013,-0.220398,0.641602,-0.506561,-24.0083,22.2167,-10.375,3527,-30170,Default
332406,-0.727344,-27.8209,-2.82324,-84.9133,30.2014,-112.341,13.3667,25.3296,328.918,0.542603,-0.203125,0.648376,-0.493774,-22.9167,23.3667,-10.4333,3527,-30170,Default
332412,0.00478516,-29.8402,-3.82334,-84.8254,31.7615,-112.302,30.9448,17.8833,353.882,0.548798,-0.193512,0.651276,-0.486938,-22.2917,23.975,-10.4667,3527,-30170,Default
332418,0.29668,-30.357,-3.94297,-84.6167,33.4369,-112.209,46.5088,15.8691,379.456,0.555664,-0.182922,0.653748,-0.479858,-21.6167,24.5833,-10.5167,3527,-30170,Default
332424,0.75127,-30.3475,-1.18193,-84.3201,35.2277,-112.083,56.7627,13.2446,406.006,0.56308,-0.171265,0.655914,-0.472504,-20.9083,25.1917,-10.5833,3527,-30170,Default
332430,3.08164,-31.6682,1.6126,-83.5016,39.1882,-111.671,59.082,6.5918,432.678,0.571014,-0.1586,0.657837,-0.464691,-20.2083,25.7833,-10.6583,3527,-30170,Default
332436,4.96221,-34.123,-0.507227,-83.0127,41.3635,-111.418,77.2705,13.855,490.662,0.588074,-0.130737,0.661224,-0.44693,-18.5833,27.05,-10.8833,3527,-30170,Default
332442,5.43115,-31.1896,-1.0623,-82.4304,43.6761,-111.121,88.1348,18.8599,514.771,0.596985,-0.115051,0.662659,-0.437225,-17.6167,27.7083,-11.025,3527,-30170,Default
332448,0.531152,-26.682,-1.44512,-81.7712,46.0986,-110.808,77.5146,39.1846,530.029,0.605896,-0.0982666,0.663849,-0.427094,-16.5417,28.4,-11.1667,3527,-30170,Default
332454,-6.58437,-29.6249,-1.0623,-81.2219,48.6035,-110.583,39.2456,26.3062,535.339,0.614136,-0.0809021,0.665558,-0.416199,-15.375,29.0917,-11.3,3527,-30170,Default
332460,-0.210547,-33.8693,0.220117,-79.8541,53.6627,-109.281,27.71,-34.9731,551.514,0.622345,-0.0645752,0.667328,-0.403839,-14.1917,29.7333,-11.4417,3527,-30170,Default
332466,-2.58877,-28.9646,2.20596,-78.9752,56.2335,-108.446,17.9443,5.12695,556.885,0.641052,-0.0327759,0.667633,-0.376984,-11.4583,30.9417,-11.575,3527,-30170,Default
332472,-2.10068,-29.5148,0.177051,-78.1842,58.8098,-107.633,3.96729,-55.1147,554.871,0.649017,-0.0166931,0.668335,-0.362946,-9.93333,31.4917,-11.625,3527,-30170,Default
332478,5.67998,-31.0413,0.995313,-76.8164,61.2982,-106.111,6.40869,-74.585,548.645,0.658264,-0.00195312,0.667236,-0.348389,-8.31667,31.9833,-11.675,3527,-30170,Default
332484,8.45537,-31.4193,-0.569434,-75.0256,63.7097,-104.172,13.7939,-52.7954,532.349,0.667511,0.0124817,0.665283,-0.334015,-6.6,32.4417,-11.775,3527,-30170,Default
332490,6.51738,-31.4528,-2.6127,-71.0046,68.2361,-100.124,23.7427,-50.7202,504.883,0.675385,0.0271301,0.663635,-0.320282,-4.825,32.8167,-11.875,3527,-30170,Default
332496,25.1747,-13.6521,-11.6136,-67.7527,70.1587,-96.9928,112.549,-151.978,428.467,0.690094,0.0550842,0.657776,-0.296539,-1.35833,33.4083,-12.0583,3527,-30170,Default
332502,27.285,-2.73232,-13.2884,-63.2538,71.7188,-92.9443,163.147,-79.9561,379.089,0.697968,0.0689087,0.651642,-0.288727,0.433333,33.5833,-12.1167,3527,-30170,Default
332508,12.7477,24.3852,1.54082,-59.2218,73.1415,-89.6759,220.154,14.3433,317.566,0.702637,0.0838928,0.647095,-0.283539,2.23333,33.65,-12.1917,3527,-30170,Default
332514,-11.6471,26.2562,-5.84268,-56.2775,74.5093,-87.8851,78.5522,0.244141,138.184,0.703461,0.100159,0.644836,-0.281433,4.03333,33.65,-12.3083,3527,-30170,Default
332520,3.43096,4.9335,1.0958,-53.8934,74.8059,-86.1053,5.67627,-139.038,28.1982,0.702942,0.106842,0.644531,-0.280884,5.83333,33.5417,-12.45,3527,-30170,Default
332526,7.67061,-1.02402,-4.55547,-54.5142,74.317,-86.7041,-33.7524,-80.7495,-66.7114,0.705017,0.103241,0.640991,-0.285187,9.15833,33.225,-12.8833,3527,-30170,Default
332532,11.4748,-5.97188,-4.1583,-56.272,73.5535,-88.3685,-68.3594,-101.074,-201.599,0.703217,0.0971069,0.641815,-0.289825,10.65,33.0417,-13.1167,3527,-30170,Default
332538,16.1308,-11.5801,-2.66055,-57.8705,72.4548,-89.8132,-66.5283,-75.6226,-232.239,0.701843,0.0886841,0.641815,-0.295837,11.9917,32.8917,-13.35,3527,-30170,Default
332544,14.5086,-15.2599,-2.29688,-59.8645,71.2848,-91.6754,-51.2695,-46.814,-240.417,0.699219,0.0797424,0.6427,-0.302643,13.1917,32.8,-13.6,3527,-30170,Default
332550,11.915,-15.6188,-2.43564,-61.9684,70.1312,-93.7518,-33.2031,-47.0581,-235.413,0.695496,0.0714417,0.644226,-0.309906,14.225,32.775,-13.8,3527,-30170,Default
332556,11.5131,-12.5036,-1.73701,-65.3357,67.8735,-97.2729,-8.78906,-27.9541,-219.421,0.687653,0.0568237,0.646637,-0.325043,15.8583,32.85,-14.1167,3527,-30170,Default
332562,11.6279,-9.83828,-2.33994,-66.7914,66.8079,-98.9099,1.40381,-21.1792,-211.67,0.683289,0.0505981,0.647949,-0.332581,16.4583,32.9333,-14.2417,3527,-30170,Default
332568,11.6614,-6.05801,-2.62227,-68.1097,65.7806,-100.453,5.31006,-8.60596,-208.801,0.678741,0.0449524,0.649231,-0.340118,16.9083,33.075,-14.3667,3527,-30170,Default
332574,10.3646,-3.67979,-1.89014,-69.4226,64.7809,-102.019,-0.732422,0.671387,-209.534,0.673798,0.0397034,0.650787,-0.347534,17.2417,33.2417,-14.4833,3527,-30170,Default
332580,9.84785,-2.60791,-1.86143,-72.1143,62.7484,-105.123,-9.94873,8.05664,-213.684,0.668518,0.0343323,0.652649,-0.354736,17.6417,33.625,-14.675,3527,-30170,Default
332586,8.7042,-1.98105,-1.97627,-73.5315,61.6827,-106.677,-31.1279,21.7896,-234.619,0.656799,0.0225525,0.65744,-0.368469,17.7167,33.8417,-14.7083,3527,-30170,Default
332592,8.38359,-1.88535,-2.16289,-74.9762,60.5457,-108.21,-38.8184,26.4893,-250,0.650269,0.0158691,0.660278,-0.375244,17.7,34.0583,-14.6833,3527,-30170,Default
332598,8.21611,-1.7083,-2.41172,-76.4264,59.3207,-109.715,-45.8374,32.7759,-269.47,0.64328,0.00857544,0.66333,-0.382111,17.6417,34.275,-14.6667,3527,-30170,Default
332604,7.69453,-1.68438,-2.04326,-77.8821,57.9913,-111.209,-55.1147,37.5366,-290.894,0.635651,0.000579834,0.666595,-0.389191,17.5083,34.4917,-14.6,3527,-30170,Default
332610,7.45049,-2.3543,-2.73232,-80.7935,54.9756,-114.082,-60.9131,42.2363,-315.125,0.627441,-0.00817871,0.670044,-0.396484,17,34.9083,-14.475,3552,-30173,Default
332616,6.36904,-5.08184,-2.91416,-82.1503,53.2727,-115.395,-69.5801,36.9263,-355.103,0.609039,-0.0281677,0.677002,-0.412079,16.6333,35.1417,-14.4083,3552,-30173,Default
332622,5.90488,-6.8667,-3.096,-83.4082,51.4655,-116.57,-74.0356,37.9028,-370.85,0.599243,-0.0392761,0.680206,-0.420227,16.1833,35.3833,-14.325,3552,-30173,Default
332628,4.8665,-7.79502,-3.41182,-84.6057,49.5703,-117.658,-73.4863,36.1328,-380.737,0.588928,-0.0509644,0.683289,-0.428436,15.675,35.6417,-14.225,3552,-30173,Default
332634,4.07217,-8.32617,-3.29219,-85.6989,47.6093,-118.636,-75.2563,29.9683,-386.353,0.578308,-0.0629578,0.686096,-0.436768,15.1417,35.875,-14.1167,3552,-30173,Default
332640,3.56494,-8.70898,-3.14863,-87.583,43.5992,-120.212,-78.6743,23.0103,-389.526,0.567596,-0.0752258,0.688538,-0.444977,13.8417,36.2917,-13.8583,3552,-30173,Default
332646,2.63662,-10.068,-2.97158,-88.418,41.5723,-120.833,-86.6699,14.4653,-387.512,0.546021,-0.100555,0.692474,-0.460571,13.075,36.4583,-13.7417,3552,-30173,Default
332652,1.49775,-10.9149,-2.66533,-89.2035,39.5618,-121.371,-92.1021,3.54004,-382.751,0.535187,-0.113373,0.694092,-0.467804,12.2583,36.5917,-13.6167,3552,-30173,Default
332658,1.19629,-12.3888,-2.47871,-89.9286,37.5677,-121.789,-94.0552,-3.479,-377.014,0.524597,-0.126343,0.695343,-0.474548,11.3833,36.7,-13.475,3552,-30173,Default
332664,0.210547,-13.2214,-2.24424,-90.6042,35.6012,-122.119,-92.4683,-7.93457,-371.765,0.514221,-0.139282,0.696289,-0.480865,10.475,36.7833,-13.3083,3552,-30173,Default
332670,-0.593359,-13.3458,-1.89492,-91.7743,31.756,-122.542,-91.6748,-19.7754,-367.004,0.503937,-0.152069,0.69693,-0.486908,8.66667,36.8667,-12.975,3552,-30173,Default
332676,-1.00488,-13.6951,-1.14365,-92.2797,29.8663,-122.624,-91.8579,-34.3628,-362.732,0.484344,-0.177734,0.696869,-0.498077,7.75,36.8833,-12.8083,3552,-30173,Default
332682,-1.59824,-13.8482,-0.880469,-92.7576,27.9877,-122.651,-94.2383,-42.5415,-363.892,0.474762,-0.190613,0.69632,-0.503296,6.81667,36.8833,-12.6583,3552,-30173,Default
332688,-1.65566,-14.3746,-0.368457,-93.2135,26.1145,-122.613,-96.5576,-52.124,-366.455,0.465271,-0.203674,0.695435,-0.508209,5.83333,36.85,-12.5083,3552,-30173,Default
332694,-1.30635,-15.0206,0.0861328,-93.6475,24.2303,-122.498,-98.2056,-57.312,-368.774,0.455933,-0.21701,0.694183,-0.512878,4.825,36.8,-12.3083,3552,-30173,Default
332700,-1.20586,-15.5613,0.77998,-94.5099,20.4456,-122.146,-100.952,-60.0586,-370.911,0.446564,-0.230499,0.692596,-0.517303,2.79167,36.6667,-11.9333,3552,-30173,Default
332706,-0.899609,-16.7337,1.89014,-94.9603,18.5504,-121.921,-109.192,-61.5845,-373.169,0.427612,-0.257812,0.688812,-0.525452,1.79167,36.6,-11.7917,3552,-30173,Default
332712,-0.507227,-17.4658,2.44043,-95.4272,16.6553,-121.679,-112.549,-59.082,-373.108,0.417938,-0.271545,0.686707,-0.529083,0.775,36.4917,-11.675,3552,-30173,Default
332718,-0.272754,-18.1262,2.9333,-95.9216,14.7656,-121.426,-115.906,-52.1851,-372.62,0.408081,-0.285187,0.684479,-0.532471,-0.233333,36.3417,-11.6167,3552,-30173,Default
332724,-0.564648,-18.777,3.20605,-96.438,12.8815,-121.19,-118.408,-45.7153,-371.216,0.397919,-0.298645,0.68219,-0.535675,-1.24167,36.175,-11.575,3602,-30179,Default
332730,-0.631641,-19.1693,3.66064,-97.5256,9.14062,-120.723,-121.582,-41.3208,-369.568,0.387543,-0.31189,0.679901,-0.538666,-3.26667,35.8167,-11.45,3602,-30179,Default
332736,-0.488086,-20.8202,4.24443,-98.1079,7.28394,-120.498,-126.221,-25.8789,-368.469,0.36618,-0.33786,0.675079,-0.543976,-4.24167,35.6583,-11.3917,3602,-30179,Default
332742,-0.478516,-21.6576,4.46934,-98.6957,5.43274,-120.273,-125.671,-17.5781,-368.652,0.355164,-0.350525,0.672577,-0.546387,-5.20833,35.525,-11.325,3602,-30179,Default
332748,-0.641211,-22.6577,4.48848,-99.2834,3.57605,-120.053,-122.681,-9.39941,-368.835,0.343933,-0.362946,0.669891,-0.548737,-6.20833,35.3917,-11.25,3602,-30179,Default
332754,-1.00967,-23.586,4.52676,-99.8657,1.73035,-119.839,-117.737,-0.854492,-369.08,0.33255,-0.375092,0.666992,-0.551086,-7.21667,35.2917,-11.1833,3602,-30179,Default
332760,-1.71309,-24.4474,4.24922,-100.948,-1.95557,-119.394,-111.633,6.28662,-369.08,0.321106,-0.386932,0.663818,-0.553528,-9.35833,35.15,-10.975,3602,-30179,Default
332766,-3.71807,-25.347,3.43096,-101.437,-3.79578,-119.163,-94.6045,18.4326,-370.667,0.298218,-0.40976,0.656494,-0.558624,-10.4333,35.0917,-10.8833,3602,-30179,Default
332772,-5.1249,-24.9737,2.93809,-101.887,-5.63049,-118.922,-86.853,22.7661,-372.375,0.286865,-0.420715,0.652283,-0.561371,-11.525,35.0333,-10.7333,3602,-30179,Default
332778,-6.68965,-24.1076,2.33994,-102.305,-7.46521,-118.669,-82.5195,25.7568,-376.404,0.275574,-0.431458,0.647644,-0.564209,-12.675,34.975,-10.575,3602,-30179,Default
332784,-8.26396,-23.5573,1.69873,-102.711,-9.30542,-118.4,-81.2378,27.0386,-381.714,0.264221,-0.442108,0.6427,-0.567047,-13.8667,34.9,-10.45,3602,-30179,Default
332790,-9.58467,-23.6052,0.846973,-103.541,-13.0353,-117.773,-81.0547,26.9165,-387.329,0.241272,-0.463379,0.631866,-0.572418,-16.475,34.7417,-10.2417,3602,-30179,Default
332796,-12.2931,-24.8445,-0.358887,-103.975,-14.9084,-117.427,-79.4678,27.3438,-390.137,0.229706,-0.473969,0.626068,-0.57489,-17.9167,34.5917,-10.1583,3602,-30179,Default
332802,-13.786,-25.1938,-0.47373,-104.42,-16.7706,-117.054,-79.7119,26.001,-383.85,0.21817,-0.484344,0.620117,-0.577179,-19.3417,34.4083,-10.0917,3602,-30179,Default
332808,-14.7861,-24.8015,0.205762,-104.881,-18.5779,-116.664,-82.2754,28.3203,-370.85,0.206848,-0.494446,0.614166,-0.579163,-20.8833,34.125,-9.98333,3602,-30179,Default
332814,-16.1451,-22.9879,1.76572,-105.364,-20.3192,-116.279,-89.9048,35.4004,-352.417,0.19577,-0.503998,0.608429,-0.580811,-22.5083,33.6833,-9.925,3602,-30179,Default
332820,-16.8581,-19.6909,6.05322,-106.452,-23.4833,-115.631,-102.173,40.8936,-327.454,0.174164,-0.520782,0.598816,-0.582855,-25.8333,32.375,-9.9,3602,-30179,Default
332826,-20.9111,-16.9203,11.0298,-107.139,-24.8511,-115.428,-169.189,72.0825,-261.658,0.163361,-0.52771,0.595978,-0.582703,-27.425,31.525,-9.89167,3552,-30173,Default
332832,-24.5622,-21.6576,10.5034,-107.946,-26.076,-115.345,-179.077,82.6416,-228.699,0.152161,-0.533417,0.594818,-0.581726,-28.8917,30.6917,-9.89167,3552,-30173,Default
332838,-27.5721,-26.4284,9.89092,-108.759,-27.1527,-115.362,-163.269,91.5527,-196.228,0.141357,-0.537964,0.594666,-0.580414,-30.3167,29.8083,-9.875,3552,-30173,Default
332844,-30.9265,-30.0556,8.89561,-109.451,-28.0756,-115.466,-124.207,99.4873,-162.659,0.131561,-0.541229,0.59491,-0.579437,-31.6833,28.9083,-9.9,3552,-30173,Default
332850,-34.1277,-30.5245,7.32607,-110.012,-29.4708,-115.955,-66.5283,102.722,-129.395,0.117371,-0.543732,0.59436,-0.580688,-34.2417,27.075,-9.93333,3552,-30173,Default
332856,-40.023,-19.1789,4.90479,-109.792,-29.9487,-116.307,35.1562,104.309,-77.8198,0.113495,-0.543213,0.592957,-0.583405,-35.425,26.1583,-9.93333,3552,-30173,Default
332862,-43.0712,-12.2117,3.87598,-109.341,-30.3058,-116.708,50.415,99.6704,-58.2275,0.111237,-0.541809,0.591064,-0.587006,-36.5833,25.25,-9.89167,3552,-30173,Default
332868,-46.2055,-7.12988,3.27783,-108.809,-30.553,-117.131,41.2598,80.8716,-39.4287,0.109985,-0.539917,0.589294,-0.59079,-37.65,24.4,-9.85833,3552,-30173,Default
332874,-23.6339,-2.16289,1.44512,-108.353,-30.6628,-117.488,12.9395,58.96,-17.8833,0.109528,-0.537994,0.588135,-0.593719,-38.6917,23.5583,-9.85,3552,-30173,Default
332880,-46.2916,-3.89033,2.82803,-108.056,-30.4431,-117.944,-24.4751,31.6772,5.5542,0.110016,-0.534668,0.589661,-0.595184,-40.6167,21.875,-9.96667,3552,-30173,Default
332886,-38.3339,-10.2977,3.4501,-108.237,-30.0586,-118.015,-73.5474,-11.1084,65.0635,0.111298,-0.533173,0.592529,-0.593384,-41.5,21.0417,-10.1083,3552,-30173,Default
332892,-27.1797,-33.1707,-11.5035,-108.523,-29.5093,-118.07,-104.675,-47.1191,87.2192,0.113281,-0.531372,0.596497,-0.590668,-42.3083,20.2167,-10.25,3552,-30173,Default
332898,-32.2137,78.3521,78.0411,-109.039,-28.8007,-117.977,-199.707,-299.5,408.386,0.116028,-0.53006,0.601593,-0.586151,-43.075,19.4583,-10.425,3552,-30173,Default
332904,-14.6713,-0.387598,-22.5094,-110.319,-26.142,-117.186,733.276,13.2446,375.366,0.1315,-0.526886,0.61499,-0.571655,-43.7833,18.775,-10.6167,3552,-30173,Default
332910,30.6968,18.7339,-1.40684,-103.925,-22.1375,-117.488,497.07,-168.518,323.914,0.184418,-0.502167,0.599396,-0.595367,-44.9917,17.7667,-10.825,3552,-30173,Default
332916,16.5901,-12.7333,41.2002,-104.238,-19.9512,-117.768,34.1187,78.5522,365.967,0.195374,-0.492737,0.610535,-0.588379,-45.4917,17.525,-10.8667,3552,-30173,Default
332922,10.5465,-5.39766,5.22539,-103.727,-18.056,-118.641,50.354,-38.6353,409.363,0.204987,-0.479645,0.618591,-0.587463,-45.9083,17.4167,-10.8917,3552,-30173,Default
332928,8.94824,-11.6901,1.62217,-103.326,-15.8148,-118.938,3.54004,69.2749,415.283,0.219086,-0.46814,0.625854,-0.583984,-46.2333,17.45,-10.9833,3552,-30173,Default
332934,-9.12529,-16.2456,5.76133,-103.041,-13.6725,-119.767,1.34277,99.6704,398.071,0.229309,-0.454041,0.635162,-0.581146,-46.5,17.5167,-11.0833,3552,-30173,Default
332940,-3.53145,-9.24492,5.17754,-102.437,-9.62402,-121.201,36.0107,18.9819,384.399,0.249329,-0.427063,0.65097,-0.575836,-46.7833,17.9333,-11.3667,3552,-30173,Default
332946,-7.84766,-15.1211,6.2542,-102.129,-7.68494,-121.674,18.9209,79.1626,334.229,0.259949,-0.414948,0.657196,-0.572906,-46.7917,18.3083,-11.5,3519,-30169,Default
332952,-16.1978,-19.7962,2.91895,-101.893,-5.97107,-122.388,26.4282,62.2559,292.48,0.2677,-0.402405,0.663696,-0.57077,-46.7333,18.7833,-11.65,3519,-30169,Default
332958,-13.0156,-21.1887,-0.224902,-101.651,-4.43848,-122.959,59.4482,19.7144,240.356,0.274933,-0.391357,0.668945,-0.568909,-46.5917,19.3333,-11.8083,3519,-30169,Default
332964,-4.66074,-13.8195,-0.861328,-101.288,-3.1311,-123.256,75.3174,-15.8691,221.497,0.282593,-0.382507,0.671844,-0.56778,-46.3917,19.9417,-11.975,3519,-30169,Default
332970,-1.05752,-11.6614,0.234473,-100.541,-0.725098,-123.563,53.772,12.146,208.679,0.297852,-0.367188,0.67572,-0.56546,-45.9083,21.125,-12.3333,3519,-30169,Default
332976,-1.73223,-13.3458,0.502441,-100.289,0.296631,-123.909,53.2227,50.354,181.213,0.30304,-0.359436,0.678284,-0.564606,-45.575,21.7333,-12.5167,3519,-30169,Default
332982,-9.86699,-20.6336,11.5418,-99.9866,1.26892,-124.266,62.3169,132.202,164.551,0.307953,-0.351654,0.68042,-0.56427,-45.225,22.3417,-12.7333,3519,-30169,Default
332988,-15.992,-2.08633,-16.4562,-99.6515,2.0874,-125.008,74.2798,118.103,53.0396,0.31012,-0.342255,0.683075,-0.565674,-44.8417,22.95,-12.9667,3519,-30169,Default
332994,-16.4274,-13.7238,8.61328,-99.2725,2.37854,-125.579,25.8789,28.3813,41.1377,0.310089,-0.336334,0.683624,-0.568573,-44.4583,23.5417,-13.1833,3519,-30169,Default
333000,9.85742,-6.2207,6.70879,-98.7177,3.10913,-125.387,69.9463,-61.3403,51.6357,0.316956,-0.332214,0.682098,-0.569031,-43.7083,24.5917,-13.6333,3519,-30169,Default
333006,-1.12451,-6.51738,1.44033,-98.465,3.46069,-125.436,24.4751,75.6226,46.0815,0.319458,-0.329407,0.681824,-0.56958,-43.3083,25.05,-13.85,3519,-30169,Default
333012,-8.95303,-10.1972,-1.62217,-98.3276,3.74634,-125.788,12.8174,31.3721,41.5039,0.319763,-0.32547,0.682831,-0.570465,-42.925,25.45,-14.075,3519,-30169,Default
333018,-1.80879,-9.38369,0.679492,-98.2343,4.04297,-125.92,25.3296,-20.752,39.978,0.321075,-0.322906,0.683472,-0.570435,-42.55,25.8417,-14.3417,3519,-30169,Default
333024,1.1915,-8.1252,2.11982,-97.9266,4.59778,-125.881,22.9492,25.6958,30.2124,0.324036,-0.321564,0.683044,-0.570038,-42.1917,26.2083,-14.575,3519,-30169,Default
333030,-4.83301,-8.94346,0.823047,-97.8113,4.79004,-126.03,18.9209,37.9028,24.1089,0.32605,-0.317139,0.683441,-0.570862,-41.5417,26.8833,-15.0583,3519,-30169,Default
333036,-1.08623,-8.69941,1.871,-97.7014,4.98779,-125.986,6.65283,-10.437,13.6719,0.327667,-0.31604,0.683258,-0.570801,-41.275,27.2083,-15.2833,3519,-30169,Default
333042,0.856543,-10.3981,1.65088,-97.6245,5.15808,-125.887,2.50244,5.98145,12.207,0.329346,-0.315521,0.683014,-0.570404,-41.0333,27.4833,-15.4833,3519,-30169,Default
333048,-1.67959,-11.0776,-0.0239258,-97.5806,5.3064,-125.87,6.46973,13.0005,12.146,0.330444,-0.314728,0.683075,-0.57016,-40.7667,27.7333,-15.65,3519,-30169,Default
333054,-1.77051,-10.8671,0.133984,-97.4048,5.59204,-125.843,15.2588,1.70898,11.9629,0.331329,-0.313721,0.683105,-0.570129,-40.5333,27.9667,-15.8083,3519,-30169,Default
333060,-0.837402,-9.66123,1.40205,-97.2949,5.72388,-125.793,6.16455,3.84521,9.64355,0.333954,-0.312134,0.682434,-0.570282,-40.1333,28.375,-16.0833,3535,-30171,Default
333066,-1.34463,-10.3264,0.708203,-97.229,5.85022,-125.766,6.7749,1.89209,9.52148,0.334991,-0.311493,0.682281,-0.57019,-39.9833,28.5667,-16.2,3535,-30171,Default
333072,-0.890039,-10.2307,0.942676,-97.1576,5.97107,-125.722,8.05664,-3.90625,10.1929,0.33609,-0.310883,0.682129,-0.570068,-39.8333,28.7333,-16.3333,3535,-30171,Default
333078,-0.401953,-10.044,0.957031,-97.0807,6.09192,-125.651,7.87354,0.549316,10.1929,0.337341,-0.310425,0.681824,-0.569946,-39.6917,28.8667,-16.4417,3535,-30171,Default
333084,-1.02881,-10.2737,1.21543,-96.9324,6.32812,-125.557,7.14111,0.976562,10.8032,0.33847,-0.309845,0.68158,-0.569855,-39.5417,29.0167,-16.55,3535,-30171,Default
333090,-0.717773,-10.3072,0.846973,-96.861,6.45447,-125.497,4.63867,-3.72314,12.3291,0.340759,-0.308807,0.681152,-0.56958,-39.3083,29.3583,-16.7583,3535,-30171,Default
333096,-0.899609,-10.4412,0.799121,-96.8005,6.57532,-125.425,6.89697,-2.38037,12.8784,0.341949,-0.30838,0.680939,-0.569366,-39.2,29.5167,-16.8417,3535,-30171,Default
333102,-1.09102,-9.97227,0.91875,-96.7291,6.69617,-125.365,10.3149,-1.2207,12.207,0.34314,-0.307861,0.680695,-0.569214,-39.1167,29.65,-16.9333,3535,-30171,Default
333108,-0.913965,-9.56074,1.11973,-96.6357,6.81152,-125.31,9.94873,-1.83105,11.5356,0.344269,-0.307312,0.680389,-0.569214,-39.0333,29.7667,-17.0583,3535,-30171,Default
333114,-0.870898,-9.52725,1.33027,-96.4709,7.02576,-125.195,7.93457,-2.68555,11.2915,0.345398,-0.306824,0.680054,-0.569183,-38.9417,29.875,-17.1667,3535,-30171,Default
333120,-0.784766,-9.55117,1.09102,-96.394,7.12463,-125.14,8.72803,1.34277,10.1318,0.347534,-0.305939,0.679443,-0.569092,-38.7167,29.9917,-17.275,3535,-30171,Default
333126,-1.12451,-9.50811,1.10537,-96.3171,7.21802,-125.096,7.26318,0.732422,10.0098,0.34848,-0.30545,0.679138,-0.569122,-38.6,30.0333,-17.2583,3535,-30171,Default
333132,-1.02402,-9.65645,0.985742,-96.2457,7.30591,-125.052,5.85938,-0.854492,8.78906,0.349396,-0.305023,0.678864,-0.569122,-38.5,30.0667,-17.2333,3535,-30171,Default
333138,-0.971387,-9.87178,0.851758,-96.1743,7.38831,-124.997,6.28662,-0.915527,9.15527,0.350311,-0.304688,0.678589,-0.569092,-38.4167,30.1167,-17.25,3535,-30171,Default
333144,-0.823047,-9.84307,0.712988,-96.0315,7.54761,-124.898,7.99561,0.793457,8.54492,0.351227,-0.304352,0.678284,-0.569061,-38.3417,30.175,-17.3,3535,-30171,Default
333150,-1.00488,-10.0728,0.449805,-95.9546,7.61902,-124.86,10.437,0.549316,7.99561,0.352875,-0.303589,0.677643,-0.569214,-38.1833,30.3583,-17.4417,3535,-30171,Default
333156,-0.947461,-10.0105,0.344531,-95.8667,7.69043,-124.816,13.1836,1.0376,7.56836,0.353729,-0.303192,0.677246,-0.569366,-38.1,30.425,-17.5,3535,-30171,Default
333162,-0.942676,-9.96748,0.535937,-95.7678,7.75635,-124.772,15.7471,2.44141,6.5918,0.354553,-0.302795,0.676788,-0.569611,-38.025,30.4833,-17.5583,3535,-30171,Default
333168,-1.05752,-9.8335,0.425879,-95.6525,7.81677,-124.739,17.8223,3.60107,5.92041,0.355347,-0.302338,0.6763,-0.569946,-37.95,30.5417,-17.6,3535,-30171,Default
333174,-1.14844,-9.81436,0.607715,-95.4053,7.92114,-124.678,19.3481,3.2959,5.85938,0.35611,-0.301849,0.67572,-0.570404,-37.8667,30.575,-17.625,3535,-30171,Default
333180,-0.947461,-9.6708,0.794336,-95.2789,7.96509,-124.651,22.1558,6.16455,5.49316,0.357635,-0.300842,0.67453,-0.571381,-37.7167,30.625,-17.675,3552,-30173,Default
333186,-1.39727,-9.58467,0.861328,-95.1361,8.01453,-124.634,21.8506,5.24902,6.22559,0.358307,-0.300262,0.67392,-0.571991,-37.65,30.675,-17.7083,3552,-30173,Default
333192,-1.34941,-9.35977,0.980957,-94.9988,8.06396,-124.618,20.874,1.83105,5.7373,0.359039,-0.299683,0.673279,-0.572601,-37.5917,30.7083,-17.6917,3552,-30173,Default
333198,-0.899609,-9.84785,1.11973,-94.8669,8.10791,-124.579,21.1792,2.2583,6.16455,0.359833,-0.299225,0.672638,-0.57312,-37.5583,30.7417,-17.6833,3552,-30173,Default
333204,-1.14365,-9.86221,0.937891,-94.5923,8.20679,-124.514,21.9727,3.05176,6.83594,0.360596,-0.298737,0.671967,-0.573639,-37.475,30.8417,-17.625,3552,-30173,Default
333210,-1.18193,-9.68516,1.14844,-94.455,8.25623,-124.47,20.6909,-3.41797,7.93457,0.362274,-0.29776,0.670593,-0.574677,-37.4333,30.8833,-17.6667,3552,-30173,Default
333216,-0.894824,-9.65645,1.13408,-94.3176,8.31116,-124.409,20.1416,-3.35693,8.23975,0.363251,-0.297394,0.669891,-0.575104,-37.4083,30.9417,-17.7333,3552,-30173,Default
333222,-1.04795,-9.53203,1.39727,-94.1858,8.36609,-124.343,21.2402,-2.92969,9.27734,0.364197,-0.297028,0.669189,-0.5755,-37.375,30.9667,-17.8417,3552,-30173,Default
333228,-1.01924,-9.31191,1.56475,-94.043,8.42651,-124.288,20.2637,-2.38037,9.46045,0.365173,-0.2966,0.668488,-0.575928,-37.3417,31.0083,-18,3552,-30173,Default
333234,-1.08145,-9.28799,1.53604,-93.7848,8.54736,-124.184,18.9819,-1.64795,9.64355,0.366119,-0.296173,0.667816,-0.576324,-37.25,31.0833,-18.2667,3552,-30173,Default
333240,-1.33027,-9.30234,1.37813,-93.6694,8.5968,-124.135,16.2354,-1.77002,8.72803,0.367828,-0.295349,0.666595,-0.577057,-37.175,31.125,-18.3833,3552,-30173,Default
333246,-1.31592,-9.34541,1.29678,-93.5541,8.65173,-124.085,15.5029,-2.38037,8.11768,0.368683,-0.294983,0.666046,-0.577362,-37.1,31.1833,-18.4667,3552,-30173,Default
333252,-1.48818,-9.0918,1.51211,-93.4442,8.70117,-124.03,15.1978,-3.72314,7.56836,0.369507,-0.294678,0.665466,-0.577637,-37.05,31.2333,-18.4667,3552,-30173,Default
333258,-1.28242,-8.80469,1.77051,-93.3344,8.75061,-123.97,13.7939,-3.84521,6.5918,0.370361,-0.294403,0.664856,-0.577911,-36.9833,31.25,-18.4667,3552,-30173,Default
333264,-1.22021,-8.94346,1.72744,-93.1476,8.83301,-123.843,10.6201,-3.41797,5.98145,0.371155,-0.29422,0.664276,-0.578186,-36.875,31.25,-18.4333,3552,-30173,Default
333270,-1.00967,-9.78086,1.49775,-93.0707,8.87146,-123.777,7.8125,-5.24902,7.32422,0.37262,-0.293976,0.66333,-0.578461,-36.8167,31.2,-18.475,3552,-30173,Default
333276,-0.727344,-10.3024,1.4499,-92.9938,8.91541,-123.712,9.46045,-4.39453,9.0332,0.373413,-0.293884,0.662872,-0.578522,-36.75,31.175,-18.5417,3552,-30173,Default
333282,-0.746484,-10.4747,1.15801,-92.9114,8.96484,-123.646,11.4136,-2.2583,10.6201,0.374207,-0.293701,0.662415,-0.578613,-36.6917,31.1417,-18.6,3552,-30173,Default
333288,-0.942676,-10.6948,1.15801,-92.8235,9.02527,-123.596,12.8174,-3.41797,12.9395,0.375,-0.293396,0.661987,-0.578766,-36.6417,31.1167,-18.6583,3552,-30173,Default
333294,-0.856543,-10.9054,0.937891,-92.6257,9.17358,-123.486,14.4043,-2.99072,15.0757,0.375916,-0.29303,0.661499,-0.578888,-36.55,31.1417,-18.7083,3552,-30173,Default
333300,-0.837402,-10.6183,1.53125,-92.5049,9.25598,-123.431,21.4233,-3.23486,18.7378,0.377899,-0.292023,0.660492,-0.579285,-36.525,31.1667,-18.7,3535,-30171,Default
333306,-0.885254,-9.8335,2.26338,-92.3621,9.34937,-123.376,22.8882,-2.01416,19.7144,0.379028,-0.291351,0.659882,-0.57959,-36.4833,31.2,-18.6917,3535,-30171,Default
