Timestamp,AccX,AccY,AccZ,AngleX,AngleY,AngleZ,AngularVelX,AngularVelY,AngularVelZ,QW,QX,QY,QZ,MagX,MagY,MagZ,Height,AirPressure
1633671,-14.767,-22.873,-2.22031,-94.1199,-5.91614,-129.886,42.1753,100.647,278.015,0.247437,-0.353516,0.643127,-0.632507,9673,-27115,9965,-2943,-29393
1633677,-16.5519,-21.7533,-0.282324,-93.2959,-4.61975,-130.523,141.907,107.605,238.586,0.253845,-0.341431,0.6474,-0.632263,-32567,-8171,6637,-2943,-29393
1633683,-13.5037,-9.54639,-3.08164,-92.4335,-3.40576,-130.77,158.386,36.5601,217.407,0.268494,-0.319244,0.647491,-0.637695,-6967,11542,1517,-2943,-29393
1633689,-3.33047,-5.91924,9.45547,-91.4886,-1.19202,-130.995,56.9458,32.1045,187.256,0.276642,-0.311432,0.647278,-0.638275,-21046,-15594,-10772,-2943,-29393
1633695,-14.6378,-7.1251,13.1879,-91.1096,-0.422974,-131.622,62.8052,120.544,131.531,0.282532,-0.303619,0.648682,-0.638031,6347,3351,-19220,-2943,-29393
1633701,-20.2508,-1.871,-7.20166,-90.9503,-0.065918,-131.902,21.1792,52.4902,44.9219,0.284454,-0.29483,0.650177,-0.639771,-31285,21527,-28180,-2943,-29393
1633707,-11.6566,-9.58945,-3.53623,-91.0217,0.274658,-131.825,-24.9023,-17.0288,41.9922,0.285339,-0.290894,0.650879,-0.640472,-3893,-27113,29932,-2943,-29393
1633713,0.153125,-17.5185,-0.583789,-90.8569,0.637207,-131.726,23.8037,-21.7896,46.1426,0.290558,-0.287689,0.651672,-0.638733,23500,-11241,22252,-2943,-29393
1633719,-2.97158,-4.72773,2.11025,-90.0879,1.35132,-132.023,63.1714,36.2549,44.4946,0.29306,-0.283936,0.650574,-0.640442,7373,17176,8172,-2943,-29393
1633725,-5.2876,-4.08174,0.593359,-89.9341,1.66992,-132.089,23.6816,13.6719,39.4287,0.29483,-0.280029,0.649872,-0.642029,29901,30232,1772,-2943,-29393
1633731,-3.28262,-6.52695,1.91406,-89.8242,1.95557,-132.072,13.0615,-4.02832,32.5317,0.296631,-0.277435,0.649933,-0.642273,-14899,-23272,-4629,-2943,-29393
1633737,-3.89512,-5.44072,2.66533,-89.6979,2.18628,-132.122,17.2119,10.6201,22.0947,0.298584,-0.275665,0.649963,-0.64212,4814,-12520,-9493,-2943,-29393
1633743,-5.29238,-5.52207,2.26338,-89.6539,2.36206,-132.182,0.854492,11.6577,12.3291,0.300659,-0.272217,0.650269,-0.642303,23758,-2792,-11797,-2943,-29393
1633749,-2.46914,-10.6422,-0.942676,-89.6375,2.65869,-132.182,-3.90625,-1.0376,3.17383,0.301483,-0.271271,0.650696,-0.641876,-6194,14361,-16149,-2943,-29393
1633755,-1.59824,-11.7236,0.153125,-89.5825,2.79053,-132.198,4.3335,3.54004,4.39453,0.302307,-0.270508,0.650879,-0.641602,10191,22297,-17429,-2943,-29393
1633761,-3.33047,-10.3455,-0.15791,-89.5056,2.92236,-132.231,9.09424,7.69043,5.24902,0.303101,-0.269531,0.650909,-0.641632,25295,29465,-19477,-2943,-29393
1633767,-4.87607,-10.8384,2.11025,-89.4287,3.07068,-132.226,8.11768,0.610352,7.99561,0.303833,-0.268372,0.650879,-0.641815,-25649,-29671,-19989,-2943,-29393
1633773,-3.77549,-9.34062,0.449805,-89.3683,3.20251,-132.22,6.04248,-0.610352,5.92041,0.30484,-0.267334,0.650787,-0.641846,-11825,-23527,-19989,-2943,-29393
1633779,-2.66055,-11.2978,0.119629,-89.2694,3.47717,-132.198,3.17383,-2.80762,8.66699,0.30661,-0.265564,0.650787,-0.641754,14032,-13031,-18197,-2943,-29393
1633785,-2.5792,-11.3408,1.22021,-89.1815,3.63647,-132.177,12.5732,-3.05176,12.2681,0.307617,-0.26474,0.650787,-0.641571,26064,-8423,-18453,-2943,-29393
1633791,-2.27773,-10.1637,2.5457,-89.0771,3.80676,-132.171,14.6484,1.34277,16.3574,0.308838,-0.263733,0.650574,-0.641632,-28208,-4583,-18965,-2943,-29393
1633797,-4.4167,-9.01045,1.64131,-88.9948,3.97705,-132.177,10.6812,2.50244,15.1978,0.310059,-0.262451,0.650421,-0.641724,-17712,-999,-18709,-2943,-29393
1633803,-4.16787,-9.12051,2.48828,-88.9233,4.13635,-132.122,8.42285,-8.42285,14.8315,0.311157,-0.261261,0.65036,-0.641754,-7216,2586,-18453,-2943,-29393
1633809,-2.33994,-10.3312,2.08154,-88.83,4.43298,-132.072,3.96729,-2.44141,12.3291,0.313568,-0.259613,0.650238,-0.641357,13777,7962,-13589,-2943,-29393
1633815,-2.15811,-9.8335,1.31592,-88.7805,4.5813,-132.039,4.3335,-4.08936,13.1836,0.314606,-0.258759,0.650269,-0.641174,23761,10266,-10261,-2943,-29393
1633821,-2.56484,-9.85264,1.81836,-88.7366,4.72412,-132.017,2.68555,-2.2583,12.9395,0.315704,-0.257935,0.650238,-0.640991,-32047,12314,-6933,-2943,-29393
1633827,-2.79932,-9.56074,1.66045,-88.6981,4.86694,-131.984,1.70898,-3.96729,12.8174,0.316711,-0.257141,0.650299,-0.640778,-23087,14618,-4117,-2943,-29393
1633833,-2.78496,-9.56074,1.3207,-88.6652,4.99878,-131.962,1.0376,-1.89209,12.3291,0.317749,-0.256378,0.65033,-0.640503,-14127,16922,-1301,-2943,-29393
1633839,-3.23477,-9.10615,1.67959,-88.5883,5.26794,-131.918,3.479,-3.05176,12.6343,0.31958,-0.254822,0.650482,-0.640076,3282,21018,4076,-2943,-29393
1633845,-2.89502,-8.67549,1.69395,-88.5498,5.39978,-131.891,1.09863,-2.86865,11.8408,0.320557,-0.254089,0.650482,-0.639862,11730,22554,7404,-2943,-29393
1633851,-2.56484,-9.23535,1.15322,-88.5388,5.52063,-131.869,-2.2583,-1.34277,10.5591,0.321503,-0.253387,0.650513,-0.639618,19410,23834,11244,-2943,-29393
1633857,-2.68447,-10.0967,0.631641,-88.5168,5.64148,-131.852,-1.2207,-0.427246,11.2915,0.322327,-0.252777,0.650665,-0.639313,27602,25114,14060,-2943,-29393
1633863,-2.95244,-10.0632,0.421094,-88.4674,5.76782,-131.836,4.69971,-0.183105,12.085,0.32312,-0.252106,0.650787,-0.639038,-30254,25626,18668,-2943,-29393
1633869,-2.73232,-10.2307,0.191406,-88.374,6.02051,-131.808,6.71387,0.244141,12.2681,0.32486,-0.250549,0.650818,-0.638763,-15406,26394,26348,-2943,-29393
1633875,-1.95713,-10.4795,-0.0717773,-88.2971,6.13586,-131.786,11.2305,-1.40381,12.0239,0.325714,-0.249756,0.650757,-0.638702,-8238,26650,29932,-2943,-29393
1633881,-1.71787,-10.3216,0.200977,-88.1927,6.24573,-131.77,16.5405,0.0610352,11.1084,0.32666,-0.248993,0.650543,-0.638733,-1582,26906,-32276,-2943,-29393
1633887,-2.00498,-10.1732,0.358887,-88.0884,6.36108,-131.759,18.4326,2.13623,12.3291,0.327576,-0.248138,0.650177,-0.638947,5843,26906,-28180,-2943,-29393
1633893,-2.58398,-10.001,0.186621,-87.962,6.48193,-131.77,21.7896,5.24902,12.8174,0.328461,-0.247192,0.649811,-0.639221,13779,27162,-23316,-2951,-29392
1633899,-3.86162,-9.8335,0.0239258,-87.6709,6.69617,-131.754,28.8696,-1.89209,10.9253,0.330139,-0.245026,0.648956,-0.640106,28883,27162,-16404,-2951,-29392
1633905,-2.88545,-9.11572,0.803906,-87.4896,6.78955,-131.704,33.6304,-5.31006,9.76562,0.331207,-0.24411,0.648224,-0.640625,-29741,27162,-15892,-2943,-29393
1633911,-2.53135,-9.26406,1.46904,-87.3358,6.88293,-131.682,28.5034,-1.28174,9.09424,0.332367,-0.243256,0.647339,-0.641266,-23597,27418,-16148,-2943,-29393
1633917,-2.78496,-9.62295,1.13408,-87.182,6.98181,-131.638,27.2827,-4.57764,10.1929,0.333313,-0.242401,0.646606,-0.641785,-17453,27418,-16148,-2943,-29393
1633923,-2.60791,-10.5848,0.856543,-87.0392,7.08069,-131.561,24.7192,-11.6577,11.7798,0.335663,-0.241058,0.645172,-0.642517,-11053,27674,-17428,-2943,-29393
1633929,-2.51221,-10.4508,0.741699,-86.6986,7.30591,-131.396,32.3486,-11.9019,15.2588,0.337067,-0.240387,0.644318,-0.642914,1748,28698,-18196,-2943,-29393
1633935,-3.12949,-9.8335,1.27764,-86.5009,7.43225,-131.309,35.7666,-13.1836,17.334,0.338501,-0.239655,0.643402,-0.643341,7636,28698,-16916,-2943,-29393
1633941,-3.20127,-9.8957,1.28242,-86.3141,7.5531,-131.204,34.0576,-15.1978,17.7612,0.340057,-0.238831,0.642395,-0.643829,13524,28698,-15124,-2943,-29393
1633947,-3.04814,-10.0297,1.13408,-86.1163,7.67944,-131.089,35.7056,-18.8599,17.8223,0.341675,-0.238098,0.641418,-0.644226,18900,28954,-13076,-2943,-29393
1633953,-2.61748,-9.75693,1.03838,-85.9021,7.80579,-130.952,38.147,-21.5454,20.1416,0.345276,-0.236755,0.63916,-0.64505,24788,28954,-11540,-2943,-29393
1633959,-2.20117,-10.0249,1.30156,-85.4846,8.07495,-130.693,37.5977,-20.752,21.6675,0.347107,-0.236084,0.638,-0.645477,-29228,29210,-10772,-2943,-29393
1633965,-2.45957,-10.8384,1.29678,-85.2649,8.22327,-130.551,38.9404,-22.0337,24.7192,0.348999,-0.235382,0.636841,-0.645844,-22828,29210,-11028,-2943,-29393
1633971,-2.67012,-10.3359,1.12451,-85.0122,8.37158,-130.408,46.2646,-23.0713,25.4517,0.350983,-0.234589,0.635681,-0.646179,-16428,29466,-11796,-2943,-29393
1633977,-2.56484,-9.52725,1.61738,-84.743,8.52539,-130.259,49.4385,-23.4375,26.4893,0.353088,-0.233734,0.634308,-0.646729,-10028,29210,-12052,-2943,-29393
1633983,-2.45957,-8.34531,2.15811,-84.4794,8.6792,-130.122,48.7671,-21.0571,27.2827,0.357361,-0.231781,0.631409,-0.647888,-3372,28698,-12564,-2943,-29393
1633989,-2.86631,-8.80469,2.49307,-84.0179,8.98132,-129.864,40.1611,-20.3857,26.9165,0.359314,-0.230835,0.630157,-0.648376,11477,28186,-13588,-2943,-29393
1633995,-2.46436,-9.68994,2.46914,-83.7982,9.14062,-129.738,38.9404,-18.1885,28.5645,0.361298,-0.22995,0.628967,-0.648712,18901,28186,-14612,-2943,-29393
1634001,-2.5792,-9.7043,1.804,-83.5785,9.31091,-129.628,41.0156,-14.0991,29.9683,0.363251,-0.228973,0.627869,-0.649048,26837,28186,-15380,-2943,-29393
1634007,-3.21084,-10.1158,1.90449,-83.3478,9.48669,-129.518,42.0532,-14.9536,32.2876,0.365143,-0.227814,0.626801,-0.649445,-31275,28698,-16148,-2943,-29393
1634013,-2.98115,-9.40762,1.66045,-83.1116,9.66797,-129.397,43.2739,-16.6016,33.0811,0.369202,-0.225433,0.624512,-0.650177,-24107,28954,-17172,-2959,-29391
1634019,-1.15801,-10.757,5.59385,-82.7765,10.1239,-129.177,22.9492,-10.6812,46.936,0.371307,-0.224182,0.623657,-0.650269,-10283,29978,-19732,-2959,-29391
1634025,-1.71787,-9.29756,3.44053,-82.6556,10.3931,-129.117,19.9585,-1.2207,49.8657,0.373352,-0.222778,0.62323,-0.649933,-3371,30490,-21268,-2959,-29391
1634031,-2.9333,-9.18272,2.91895,-82.5513,10.6622,-129.073,17.4561,1.0376,50.9033,0.375214,-0.221069,0.623077,-0.649597,4566,30746,-22036,-2959,-29391
1634037,-2.8376,-10.8814,3.96689,-82.4689,10.9479,-129.012,12.3901,-1.52588,53.9551,0.377014,-0.21933,0.623047,-0.6492,13270,31002,-23060,-2959,-29391
1634043,-2.56963,-12.8099,3.57451,-82.4249,11.2665,-128.969,5.12695,2.86865,61.5845,0.380829,-0.215759,0.623535,-0.647705,22230,31258,-23572,-2959,-29391
1634049,-3.53623,-11.6854,2.1916,-82.3315,12.0026,-128.919,8.11768,7.75146,72.6929,0.382751,-0.213562,0.624115,-0.646729,-23082,30746,-26644,-2959,-29391
1634055,-3.11514,-11.2164,2.85674,-82.2546,12.3926,-128.87,11.7798,5.00488,76.0498,0.384857,-0.211212,0.624603,-0.645782,-12586,30490,-27668,-2959,-29391
1634061,-2.43564,-11.0346,3.49316,-82.1942,12.7936,-128.848,9.15527,10.1318,77.5146,0.387177,-0.208771,0.624939,-0.644867,-1834,30234,-27668,-2959,-29391
1634067,-2.3543,-11.5274,4.04346,-82.1503,13.222,-128.859,6.71387,16.6626,83.0078,0.389313,-0.206207,0.625458,-0.64386,9175,30234,-27668,-2959,-29391
1634073,-2.83281,-13.5276,3.36875,-82.1338,13.678,-128.886,1.2207,20.813,87.5854,0.393494,-0.200378,0.627167,-0.64151,20439,30234,-26900,-2959,-29391
1634079,-2.63662,-15.1067,2.22031,-82.1558,14.6887,-128.837,-3.60107,25.1465,101.318,0.396027,-0.19754,0.628204,-0.639832,-22825,29722,-26132,-2959,-29391
1634085,-3.40225,-16.8246,1.3542,-82.1613,15.2655,-128.831,-1.52588,27.0996,112.732,0.39856,-0.194427,0.629425,-0.638031,-11817,29210,-26388,-2959,-29391
1634091,-4.1918,-18.0544,1.47383,-82.1338,15.9082,-128.782,4.45557,21.0571,126.77,0.401337,-0.190918,0.630676,-0.636078,472,28442,-25876,-2959,-29391
1634097,-3.6415,-16.8007,2.03848,-82.0404,16.5948,-128.705,15.7471,17.2119,137.817,0.404694,-0.187103,0.631775,-0.634003,13528,27418,-24084,-2959,-29391
1634103,-3.10078,-13.6521,4.32578,-81.947,17.3199,-128.639,15.8691,20.6909,145.325,0.412415,-0.178406,0.633453,-0.629822,27352,26650,-22548,-2959,-29391
1634109,-2.75625,-13.0443,3.97168,-81.8701,18.913,-128.513,0.488281,24.9023,163.757,0.416504,-0.173706,0.634613,-0.627319,-9256,25114,-21780,-2959,-29391
1634115,-2.79932,-13.03,5.49336,-81.8701,19.7809,-128.436,-3.54004,23.4985,175.049,0.420624,-0.168884,0.636047,-0.62439,6105,24346,-22036,-2959,-29391
1634121,-2.37822,-15.0063,5.08662,-81.9525,20.6818,-128.425,-16.5405,36.9263,180.542,0.425018,-0.163849,0.637634,-0.621155,22745,23834,-22292,-2959,-29391
1634127,-3.67979,-15.4321,4.55547,-82.0239,21.6486,-128.397,-15.8691,35.7056,194.397,0.429077,-0.158569,0.639801,-0.617493,-25127,23834,-22548,-2959,-29391
1634133,-2.95244,-17.9348,2.51221,-82.1448,22.6593,-128.397,-17.395,39.0625,213.44,0.437897,-0.147003,0.644409,-0.609283,-5927,23834,-22036,-2959,-29391
1634139,-3.05293,-20.2364,3.48359,-82.3041,24.8511,-128.331,-18.9209,34.9121,231.506,0.442596,-0.140778,0.646729,-0.604919,-31526,22810,-23572,-2959,-29391
1634145,-2.69883,-19.8249,2.90937,-82.37,26.0651,-128.304,-13.4888,40.3442,247.437,0.447845,-0.134216,0.649017,-0.600067,-10022,22298,-24852,-2959,-29391
1634151,-1.31592,-21.8825,2.74668,-82.4194,27.3724,-128.238,-14.1602,36.5601,267.822,0.453278,-0.126923,0.651306,-0.595062,12763,21018,-25876,-2959,-29391
1634157,-3.32568,-21.5284,0.368457,-82.4744,28.7677,-128.265,-7.87354,53.833,284.607,0.459259,-0.119202,0.653564,-0.589569,-28453,18970,-25876,-2959,-29391
1634163,-3.79941,-26.7347,-2.07676,-82.4744,30.2234,-128.188,14.4043,10.6812,322.693,0.47171,-0.101624,0.658081,-0.577911,-2853,16410,-25620,-2959,-29391
1634169,-2.03369,-28.2037,-0.645996,-82.1008,33.4094,-127.755,21.0571,23.8037,340.881,0.479614,-0.0924377,0.659088,-0.571747,-15140,7962,-25620,-2959,-29391
1634175,-2.43564,-29.6775,-0.808691,-81.8756,35.1782,-127.518,22.4609,21.1792,369.08,0.487488,-0.0822754,0.660187,-0.565369,13789,2842,-27156,-2959,-29391
1634181,-3.00029,-32.874,-0.215332,-81.6394,37.0514,-127.26,21.1792,22.3999,392.029,0.495941,-0.0713501,0.661133,-0.558319,-21027,-2279,-29204,-2959,-29391
1634187,-0.799121,-35.4437,1.37813,-81.2714,39.0454,-126.887,32.1655,10.376,419.495,0.504761,-0.0598145,0.662079,-0.550598,11998,-8679,-32276,-2959,-29391
1634193,0.91875,-37.0563,4.26836,-80.2771,43.4839,-126.09,57.6782,24.8413,483.459,0.524414,-0.0339355,0.662415,-0.533783,19423,-23527,25324,-2959,-29391
1634199,0.626855,-37.7645,2.56006,-79.6564,45.9064,-125.607,62.0117,25.8179,511.414,0.534698,-0.0189819,0.662079,-0.524628,-6177,32281,18924,-2959,-29391
1634205,3.56016,-33.8693,0.358887,-78.8763,48.4552,-125.019,74.9512,23.9868,539.429,0.545319,-0.00311279,0.661438,-0.514771,32480,22041,10988,-2959,-29391
1634211,1.97627,-27.3567,1.14365,-78.1183,51.0974,-124.492,76.0498,46.0815,557.983,0.556305,0.0137329,0.660156,-0.504395,7905,10009,2284,-2959,-29391
1634217,-7.54619,-25.0838,2.68926,-77.6349,53.7616,-124.063,33.9966,67.749,559.387,0.566681,0.0316162,0.659027,-0.493378,-14623,-4328,-9493,-2959,-29391
1634223,0.990527,-34.6302,4.95742,-75.5365,59.0405,-121.674,36.9873,-6.04248,576.355,0.587494,0.0642395,0.657867,-0.466736,13027,23576,32747,-2959,-29391
1634229,-1.52646,-28.9023,5.81396,-74.2731,61.6443,-120.427,40.8936,22.0947,566.589,0.598694,0.0804443,0.655182,-0.453552,-1821,-489,21483,-2959,-29391
1634235,-4.58896,-30.5819,4.37842,-72.7295,64.1437,-118.79,21.8506,4.15039,555.115,0.608521,0.0969543,0.652832,-0.44043,-18716,-25065,11499,-2959,-29391
1634241,-1.65088,-34.9077,0.550293,-70.7135,66.5277,-116.713,30.3955,-10.2539,542.114,0.618347,0.112213,0.650116,-0.426971,31717,12823,1259,-2959,-29391
1634247,3.08164,-33.9698,-2.99551,-68.1207,68.7469,-114.153,50.9033,-22.644,520.325,0.62793,0.126984,0.646576,-0.413971,17382,-17386,-10262,-2951,-29392
1634253,7.08682,-28.0123,-5.70391,-61.6168,72.6086,-107.875,62.5,-30.3345,465.759,0.644897,0.155182,0.637848,-0.391205,-9497,-20203,26858,-2951,-29392
1634259,14.3028,-18.7578,-11.5992,-57.041,74.1467,-103.425,65.7349,-63.3545,435.913,0.652557,0.168121,0.632996,-0.380981,-23320,7701,11242,-2951,-29392
1634265,17.3653,-9.20186,-16.5806,-51.6687,75.4321,-98.5364,137.024,-61.2183,402.466,0.660278,0.179657,0.627197,-0.371857,27113,-31468,-5655,-2951,-29392
1634271,6.27334,23.3229,-7.45527,-46.17,76.3495,-93.8562,195.496,-56.3965,332.52,0.666534,0.192322,0.620483,-0.36554,8170,-4333,-21527,-2951,-29392
1634277,-5.01484,39.7981,-6.74707,-42.8906,76.344,-90.8899,85.144,-103.455,144.531,0.670868,0.204803,0.613434,-0.362732,-12310,22035,26089,-2951,-29392
1634283,12.8625,1.49297,-8.87646,-42.0007,74.8334,-89.4452,-54.1992,-121.948,-77.7588,0.678497,0.203705,0.604614,-0.363922,3052,10514,-12568,-2951,-29392
1634289,6.26855,-0.842188,-6.01494,-43.4894,73.7402,-90.6262,-65.7349,-127.563,-148.804,0.680023,0.196899,0.603302,-0.367035,-27668,-24047,31464,-2951,-29392
1634295,9.34541,-4.71338,-3.33525,-45.1703,72.3669,-91.8127,-104.98,-160.339,-195.129,0.680542,0.187805,0.6026,-0.371948,2029,10769,9960,-2951,-29392
1634301,12.9869,-11.4987,-2.41172,-47.2247,70.9662,-93.3179,-120.605,-138.794,-221.313,0.681366,0.175781,0.601898,-0.377411,28141,-16112,-10521,-2951,-29392
1634307,11.7236,-15.6618,-2.89502,-49.2737,69.5929,-94.8834,-110.962,-119.202,-229.004,0.681122,0.162964,0.602234,-0.383026,-15891,28432,-29721,-2951,-29392
1634313,11.537,-16.4992,-2.55527,-52.5916,66.8628,-97.5201,-72.5708,-107.605,-225.769,0.678589,0.138702,0.603363,-0.395142,15086,2064,-1306,-2951,-29392
1634319,11.3025,-14.4512,-1.36377,-53.9923,65.5609,-98.7616,-49.1943,-93.5669,-223.145,0.676697,0.127716,0.603577,-0.401672,24302,-4081,-17690,-2951,-29392
1634325,11.159,-11.7523,-1.0958,-55.2612,64.2755,-99.9591,-32.0435,-83.9233,-222.29,0.674225,0.117706,0.603729,-0.4086,30702,-6129,31462,-2951,-29392
1634331,11.6088,-9.30234,-0.923535,-56.4697,63.0176,-101.179,-18.6157,-70.9229,-223.45,0.671295,0.108398,0.60379,-0.415833,-32274,-4337,15846,-2951,-29392
1634337,11.1686,-7.15859,-0.813477,-57.7057,61.7761,-102.486,-10.6812,-52.6733,-227.844,0.663666,0.0914001,0.604401,-0.431,-30994,-1009,-27,-2951,-29392
1634343,9.56074,-3.89512,-0.813477,-60.271,59.2712,-105.298,-7.01904,-24.353,-245.667,0.658875,0.0832825,0.605194,-0.438873,29166,14096,-28443,-2951,-29392
1634349,8.84297,-2.52178,-0.756055,-61.6553,57.9584,-106.815,-11.4746,-10.437,-261.108,0.653381,0.0751648,0.606323,-0.446899,23278,25104,23269,-2951,-29392
1634355,8.30225,-1.86621,-0.870898,-63.111,56.5796,-108.391,-19.9585,1.40381,-277.954,0.647095,0.0667725,0.60791,-0.455109,15854,-27632,10725,-2951,-29392
1634361,8.01035,-2.34951,-1.27285,-64.6765,55.1184,-110.05,-32.3486,16.9067,-298.706,0.640076,0.0579529,0.609955,-0.46344,7662,-12784,-540,-2934,-29394
1634367,7.3835,-3.55537,-1.81836,-66.2695,53.5858,-111.731,-39.5508,27.771,-316.162,0.623352,0.0386353,0.615662,-0.480408,-1299,2065,-9756,-2934,-29394
1634373,6.14414,-5.80439,-2.6749,-69.3787,50.2679,-115.005,-47.4854,42.2363,-346.252,0.613892,0.0283203,0.618896,-0.489075,-24851,-28911,-23580,-2934,-29394
1634379,5.39287,-6.53174,-3.08643,-70.8453,48.5046,-116.548,-50.293,46.5088,-357.605,0.60379,0.0177307,0.622192,-0.497894,25837,-8687,-27932,-2934,-29394
1634385,4.5124,-7.16816,-3.38789,-72.2296,46.6809,-118.015,-52.3682,49.0112,-367.371,0.59317,0.00686646,0.625488,-0.506714,8685,13330,-30492,-2934,-29394
1634391,3.96211,-7.73281,-3.43574,-73.526,44.8077,-119.388,-54.6265,49.9268,-374.084,0.582092,-0.00424194,0.628693,-0.515533,-11028,-28398,-32284,-2934,-29394
1634397,3.30654,-8.19219,-3.53623,-74.7455,42.9016,-120.663,-58.2275,50.5371,-378.662,0.55896,-0.0270996,0.634735,-0.532776,32748,-3054,-32028,-2934,-29394
1634403,2.30645,-9.30234,-3.59365,-76.9592,39.007,-122.915,-66.1011,47.1191,-382.08,0.547058,-0.0387878,0.637512,-0.540985,-13333,-16877,-28700,-2934,-29394
1634409,1.53125,-9.13965,-3.65107,-77.97,37.0349,-123.898,-71.4722,45.2271,-383.606,0.535065,-0.0506287,0.640106,-0.54892,25579,10772,-24604,-2934,-29394
1634415,0.765625,-9.2832,-3.60322,-78.9423,35.0464,-124.783,-79.895,40.0391,-385.315,0.522919,-0.0626221,0.642548,-0.556458,-3350,-25836,-18460,-2934,-29394
1634421,0.368457,-10.0823,-3.55059,-79.8706,33.0359,-125.568,-87.5244,34.8511,-386.597,0.510712,-0.0749207,0.644867,-0.563568,30698,3349,-10780,-2934,-29394
1634427,-1.22021,-12.3266,-3.50273,-80.7495,31.0199,-126.26,-92.2241,29.4189,-387.451,0.486267,-0.100342,0.648865,-0.576477,-2839,-31979,-2332,-2934,-29394
1634433,-1.78486,-13.2549,-3.23955,-82.337,26.9604,-127.343,-96.4966,11.9019,-388.123,0.474121,-0.113373,0.650421,-0.582397,-5144,24854,15077,-2934,-29394
1634439,-2.12461,-13.9104,-2.71318,-83.0402,24.928,-127.733,-96.1914,2.86865,-387.329,0.462189,-0.126617,0.65155,-0.587982,23528,-11754,25317,-2934,-29394
1634445,-2.48828,-14.4272,-2.04326,-83.6938,22.9065,-128.04,-96.2524,-5.06592,-385.803,0.450439,-0.139954,0.652252,-0.593262,-15641,17431,-28187,-2934,-29394
1634451,-2.71318,-15.2455,-1.225,-84.3146,20.9015,-128.271,-96.8018,-12.2681,-382.568,0.438873,-0.153412,0.652588,-0.598236,7911,-19433,-16411,-2934,-29394
1634457,-3.31611,-17.4706,0.545508,-84.9023,18.9404,-128.441,-97.6562,-16.7236,-375.366,0.416504,-0.180176,0.652283,-0.607025,30182,8728,-2587,-2934,-29394
1634463,-4.26836,-18.0448,1.53604,-86.001,15.2051,-128.666,-95.0317,-17.6392,-351.868,0.405731,-0.193115,0.651825,-0.610809,4837,-3816,27110,-2934,-29394
1634469,-5.01006,-18.3941,2.45,-86.5228,13.4528,-128.727,-95.1538,-18.4326,-337.891,0.395294,-0.205536,0.651215,-0.614227,23268,20505,-22298,-2934,-29394
1634475,-5.06748,-18.7147,3.09121,-87.0502,11.7828,-128.76,-98.0225,-18.0664,-323.853,0.385254,-0.217529,0.650513,-0.617218,-25373,-22247,-4378,-2934,-29394
1634481,-4.57939,-19.1598,3.56016,-87.583,10.1843,-128.787,-100.708,-13.7329,-310.425,0.37558,-0.229095,0.649841,-0.61972,-10526,-999,13799,-2926,-29395
1634487,-4.56982,-19.2268,4.1583,-88.1213,8.64075,-128.82,-102.783,-7.20215,-301.025,0.35672,-0.250641,0.648804,-0.623596,3298,18202,31975,-2926,-29395
1634493,-4.97178,-18.9109,4.45498,-89.2365,5.61951,-128.925,-110.596,5.61523,-298.828,0.34726,-0.260834,0.648407,-0.625153,31200,-14566,4072,-2926,-29395
1634499,-5.3498,-18.9157,4.36406,-89.8242,4.06494,-128.979,-115.662,9.27734,-308.899,0.337524,-0.270935,0.648041,-0.626587,-20513,-486,22504,-2926,-29395
1634505,-5.95752,-19.198,3.85205,-90.423,2.42798,-129.051,-119.141,14.3433,-325.806,0.327362,-0.281158,0.647614,-0.62793,-7458,11547,-24088,-2926,-29395
1634511,-6.82363,-20.0929,3.5123,-91.0327,0.703125,-129.106,-122.253,15.8691,-346.619,0.316498,-0.291656,0.646973,-0.629333,4574,22043,-4632,-2926,-29395
1634517,-8.42188,-23.2176,3.0625,-91.6315,-1.13159,-129.139,-117.615,14.8926,-394.653,0.292786,-0.314117,0.644623,-0.632416,15581,29979,14825,-2926,-29395
1634523,-8.84775,-24.3373,2.92852,-92.7466,-5.12512,-129.128,-110.413,13.3667,-415.466,0.279999,-0.32608,0.642548,-0.634247,31963,-25061,-11799,-2926,-29395
1634529,-9.07266,-25.146,3.01465,-93.252,-7.25098,-129.1,-103.027,16.0522,-433.105,0.266724,-0.33844,0.639771,-0.636292,-23334,-23013,6378,-2926,-29395
1634535,-9.61816,-25.8111,2.91416,-93.7189,-9.42078,-129.067,-96.6187,19.5923,-444.397,0.252991,-0.350922,0.636353,-0.63858,-16679,-22757,24810,-2926,-29395
1634541,-10.6518,-26.1317,2.53613,-94.1528,-11.6125,-129.045,-90.5151,25.7568,-450.195,0.238892,-0.363373,0.632385,-0.640991,-12328,-25061,-24086,-2926,-29395
1634547,-14.6282,-23.7727,2.97637,-94.5593,-13.8043,-129.04,-83.9233,34.9121,-447.998,0.209961,-0.387329,0.623322,-0.645935,-10025,-30693,-7702,-2926,-29395
1634553,-16.5566,-21.9495,4.07217,-95.3888,-18.067,-129.045,-92.8955,38.208,-437.073,0.195496,-0.398712,0.618469,-0.648224,-10795,11547,19947,-2926,-29395
1634559,-19.2124,-21.6337,4.58896,-95.8942,-20.083,-129.073,-108.887,44.2505,-422.058,0.181061,-0.409576,0.613892,-0.649994,-9004,-3302,32235,-2926,-29395
1634565,-22.1361,-22.8778,5.01963,-96.4655,-21.9891,-129.1,-122.253,44.2505,-402.527,0.166595,-0.419769,0.609924,-0.651093,-7981,-21478,-21781,-2926,-29395
1634571,-25.6102,-26.4332,10.3551,-97.0642,-23.736,-129.1,-127.075,40.1611,-372.681,0.152496,-0.429321,0.606506,-0.651489,-7470,22298,-11285,-2926,-29395
1634577,-29.7685,-24.5909,5.25889,-97.619,-25.3125,-129.089,-118.591,30.3955,-308.716,0.127258,-0.445862,0.600922,-0.651001,-6191,-2023,-2325,-2926,-29395
1634583,-34.7307,-26.2179,2.47871,-98.5748,-27.9602,-129.001,-80.8105,25.2686,-279.907,0.116333,-0.452789,0.598785,-0.650208,-1073,9497,12268,-2926,-29395
1634589,-40.1666,-23.4281,1.51211,-98.7671,-29.0149,-128.886,-36.0107,9.76562,-245.972,0.107147,-0.458832,0.596039,-0.650085,4303,-20456,17900,-2926,-29395
1634595,-43.789,-17.4084,1.84707,-98.8275,-29.8608,-128.699,-1.70898,-8.60596,-208.801,0.100281,-0.464111,0.592621,-0.650543,13774,16408,22764,-2951,-29392
1634601,-46.7701,-8.93867,3.45967,-98.8385,-30.498,-128.48,11.9019,-20.2026,-170.837,0.0956726,-0.468689,0.588928,-0.651337,25293,-12777,26348,-2951,-29392
1634607,-51.3687,8.82383,9.61338,-98.9319,-30.943,-128.238,-44.4336,-40.2832,-103.394,0.0909424,-0.475677,0.583313,-0.652008,-25396,23319,28652,-2951,-29392
1634613,-52.0051,10.5034,11.2403,-99.8108,-31.3165,-127.694,-94.9707,-47.6074,-74.9512,0.089447,-0.478394,0.582916,-0.650574,12235,32022,32236,-2951,-29392
1634619,-50.6748,5.82832,11.8959,-100.536,-31.2726,-127.425,-128.418,-52.4292,-45.8984,0.0879517,-0.480682,0.584534,-0.647614,-30518,5142,-30740,-2951,-29392
1634625,-48.4497,-1.52168,12.4462,-101.255,-31.0474,-127.172,-130.798,-56.1523,-12.6343,0.086731,-0.482422,0.587677,-0.643646,-3895,-19947,-27668,-2951,-29392
1634631,-48.598,-25.9882,4.62725,-102.217,-30.542,-126.876,-174.011,-75.5615,40.5273,0.0865173,-0.483368,0.591553,-0.639404,26313,21525,-22804,-2951,-29392
1634637,-36.2811,-42.7506,14.3794,-102.217,-28.3337,-126.227,99.8535,-112,192.749,0.0935669,-0.482086,0.602173,-0.629364,-5432,-236,-17428,-2951,-29392
1634643,-27.8831,-33.4961,16.8868,-101.135,-26.8451,-126.057,218.689,-93.1396,240.967,0.105347,-0.478302,0.603577,-0.629059,9672,29460,-4116,-2951,-29392
1634649,-25.4188,-54.7757,65.2647,-100.19,-24.3402,-125.728,201.294,-156.006,439.453,0.120361,-0.472107,0.602661,-0.631897,-9017,18196,3309,-2951,-29392
1634655,2.88066,19.5282,-17.3079,-97.9102,-22.3901,-125.145,487.732,-170.349,327.637,0.142029,-0.462372,0.605621,-0.631805,-22841,11540,10221,-2951,-29392
1634661,45.66,22.4615,-6.31162,-97.5696,-20.2698,-124.486,102.6,-182.007,364.197,0.166687,-0.453918,0.597961,-0.63916,31943,7956,16877,-2951,-29392
1634667,-3.86162,-12.7716,1.28721,-97.1411,-15.9357,-126.271,-61.5845,110.718,399.658,0.19519,-0.431763,0.610657,-0.634369,25799,9492,21997,-2951,-29392
1634673,-5.29717,-26.1078,2.15332,-97.0917,-13.6945,-126.486,-17.6392,-15.625,416.748,0.203339,-0.417328,0.620941,-0.631531,29383,25364,27885,-2951,-29392
1634679,0.516797,-15.9154,8.25918,-96.4764,-11.64,-126.881,89.9048,28.1982,384.521,0.216064,-0.405457,0.628906,-0.627106,-26681,-26604,30189,-2951,-29392
1634685,-8.40273,-4.63682,8.21611,-95.9326,-9.75037,-127.518,67.9321,84.5337,359.07,0.228546,-0.392212,0.633545,-0.626465,-12857,-9452,32493,-2951,-29392
1634691,-16.0925,-11.5035,6.93848,-95.6689,-8.02551,-128.062,20.2637,72.876,323.425,0.238281,-0.378235,0.638641,-0.626251,2248,8213,-32019,-2951,-29392
1634697,-14.1449,-23.2846,2.3543,-94.5209,-5.15808,-129.128,123.657,99.5483,242.554,0.254517,-0.354553,0.64798,-0.624115,20936,26901,-30227,-2951,-29392
1634703,-12.2596,-12.9391,-2.71318,-93.6365,-3.9386,-129.402,159.729,41.687,219.666,0.261292,-0.342682,0.649445,-0.626404,1993,1558,-30227,-2951,-29392
1634709,-4.52676,-5.58906,4.89522,-92.9773,-2.76306,-129.424,119.629,-5.67627,206.97,0.269531,-0.332642,0.648804,-0.628967,28361,21782,-32019,-2943,-29393
1634715,-0.248828,-5.6082,6.68008,-92.6257,-1.6864,-129.562,57.8003,20.813,190.43,0.278137,-0.324707,0.648438,-0.629761,-9527,-22506,29165,-2943,-29393
1634721,-3.48359,-11.3647,5.2876,-92.406,-0.681152,-129.919,29.9683,67.3828,178.345,0.284607,-0.317261,0.64978,-0.629303,18890,-1514,22765,-2943,-29393
1634727,-16.2647,-3.52666,-5.52686,-91.6095,0.549316,-130.836,75.0122,83.0078,43.8232,0.292297,-0.300415,0.653839,-0.629852,-20022,17687,17389,-2943,-29393
1634733,-11.8768,-3.52188,-5.12969,-91.5381,0.961304,-130.836,5.31006,2.86865,56.1523,0.293091,-0.295166,0.653381,-0.632416,-30261,-11753,5613,-2943,-29393
1634739,-3.45488,-14.5852,-1.77051,-91.4392,1.30188,-130.737,10.376,-15.1978,42.0532,0.295624,-0.292694,0.653992,-0.631744,-3893,4888,-532,-2943,-29393
1634745,3.02422,-14.9058,0.636426,-91.0876,1.69739,-130.71,62.439,-1.58691,53.833,0.298309,-0.291077,0.654053,-0.631165,21708,20504,-6932,-2943,-29393
1634751,0.00957031,-6.88105,3.75156,-90.5878,2.06543,-130.891,92.7734,41.4429,51.2695,0.301575,-0.288147,0.653015,-0.63205,-19764,-30184,-12820,-2943,-29393
1634757,-6.14893,-4.3832,1.55996,-90.1593,2.66418,-131.05,15.3809,1.64795,33.9355,0.30542,-0.280121,0.651062,-0.635803,24781,-4328,-22292,-2943,-29393
1634763,-1.54561,-7.29736,2.79932,-90.0494,2.8894,-131.023,13.3667,1.09863,21.0571,0.307434,-0.27829,0.651062,-0.63562,-19763,6937,-26132,-2943,-29393
1634769,-3.27783,-7.83809,0.368457,-89.9615,3.07617,-131.122,12.085,24.8413,14.7705,0.309052,-0.276886,0.65097,-0.635559,462,16665,-28948,-2943,-29393
1634775,-6.32119,-9.35977,0.0765625,-89.8627,3.23547,-131.149,12.6343,12.3901,8.91113,0.309814,-0.275024,0.651123,-0.635834,19918,26137,-30484,-2943,-29393
1634781,-4.23008,-9.91963,0.856543,-89.7638,3.3783,-131.089,12.6343,-5.24902,5.92041,0.31076,-0.273682,0.651062,-0.636047,-27186,-30695,-32532,-2943,-29393
1634787,-3.58408,-10.0201,2.38301,-89.6045,3.63647,-131.061,7.14111,7.20215,4.27246,0.313232,-0.272095,0.650421,-0.636139,-10034,-22247,32492,-2943,-29393
1634793,-4.27793,-10.0584,0.885254,-89.5441,3.75732,-131.05,5.00488,4.5166,2.92969,0.314087,-0.271179,0.65036,-0.636169,19919,-6631,30444,-2943,-29393
1634799,-3.95732,-10.2307,1.30156,-89.4836,3.87817,-131.012,5.67627,-0.549316,3.23486,0.314941,-0.270416,0.650299,-0.636139,-32305,1050,30700,-2943,-29393
1634805,-3.25869,-10.2737,1.43076,-89.4232,3.99353,-130.968,6.34766,-1.34277,3.17383,0.315948,-0.269775,0.650177,-0.636047,-19505,7962,29932,-2943,-29393
1634811,-3.64629,-10.0297,1.67959,-89.3628,4.11987,-130.924,6.40869,-1.0376,5.43213,0.316986,-0.269196,0.649994,-0.635956,-6705,14106,30956,-2943,-29393
1634817,-2.97158,-9.71865,0.617285,-89.2365,4.38904,-130.836,8.91113,-0.488281,8.66699,0.319153,-0.267883,0.64978,-0.635651,5840,18970,32748,-2943,-29393
1634823,-3.33047,-10.2211,1.18672,-89.176,4.53186,-130.792,7.14111,-1.77002,10.0098,0.320312,-0.26712,0.649597,-0.635559,28880,27418,-29716,-2943,-29393
1634829,-2.72754,-9.33584,1.20107,-89.0936,4.66919,-130.715,10.0708,-6.71387,10.1929,0.321503,-0.266418,0.649475,-0.635406,-25648,29978,-27412,-2943,-29393
1634835,-2.13418,-9.26406,2.08633,-89.0387,4.80652,-130.649,5.67627,-5.5542,9.46045,0.322845,-0.265808,0.6492,-0.635254,-14896,-32230,-24596,-2943,-29393
1634841,-1.77529,-9.36934,2.56963,-88.9948,4.93835,-130.594,3.35693,-2.62451,9.8877,0.324097,-0.265259,0.649017,-0.63501,-4144,-28902,-22036,-2943,-29393
1634847,-2.7084,-9.87178,1.80879,-88.9673,5.19104,-130.501,-3.84521,-1.95312,9.21631,0.326202,-0.264099,0.649078,-0.634369,6353,-25574,-18452,-2943,-29393
1634853,-2.64619,-9.83828,1.14844,-88.9508,5.32288,-130.446,-2.92969,-2.44141,10.3149,0.327179,-0.263641,0.6492,-0.633911,26833,-19430,-12308,-2943,-29393
1634859,-2.92373,-9.94834,1.95713,-88.9343,5.44922,-130.391,-1.52588,-2.19727,10.9253,0.328217,-0.263184,0.649323,-0.633484,-28975,-17382,-9492,-2943,-29393
1634865,-2.84238,-9.0918,1.36855,-88.9124,5.57007,-130.336,-0.854492,-2.50244,9.82666,0.329254,-0.262695,0.649384,-0.633057,-19759,-15846,-6676,-2943,-29393
1634871,-2.62705,-9.20186,1.52168,-88.9069,5.68542,-130.281,-4.21143,-2.68555,8.97217,0.330261,-0.262238,0.649414,-0.63269,-11311,-14310,-4116,-2943,-29393
1634877,-2.81367,-9.78564,0.708203,-88.9014,5.91614,-130.177,-3.479,-0.183105,9.94873,0.332153,-0.261566,0.649689,-0.631714,-3375,-12262,-1300,-2943,-29393
1634883,-3.32568,-9.72822,0.172266,-88.8904,6.03149,-130.128,-1.58691,-0.915527,10.1929,0.333038,-0.261139,0.649811,-0.631287,11218,-8678,5869,-2943,-29393
1634889,-3.26826,-9.8,0.588574,-88.8629,6.14136,-130.067,1.09863,-2.92969,9.52148,0.333984,-0.260712,0.649902,-0.63089,18642,-7654,10221,-2943,-29393
1634895,-2.44521,-9.64209,0.263184,-88.83,6.24573,-129.985,1.34277,-6.34766,7.93457,0.334961,-0.260315,0.649841,-0.630554,25810,-7398,14829,-2943,-29393
1634901,-1.60781,-10.1015,0.421094,-88.797,6.3446,-129.913,2.19727,-5.37109,8.05664,0.335999,-0.260101,0.64975,-0.630219,-31790,-7142,19437,-2943,-29393
1634907,-2.09111,-10.0105,0.229688,-88.6761,6.55334,-129.809,11.1084,1.15967,10.7422,0.338013,-0.25946,0.649445,-0.6297,-24110,-6374,23789,-2943,-29393
1634913,-2.45479,-9.64209,-0.0526367,-88.6047,6.66321,-129.754,11.0474,-1.89209,11.9019,0.338989,-0.25885,0.649231,-0.629669,-9518,-4326,32493,-2943,-29393
1634919,-2.4835,-10.068,0.119629,-88.5278,6.77307,-129.705,12.0239,-0.183105,11.8408,0.340057,-0.258331,0.648956,-0.629578,-2606,-3558,-29715,-2943,-29393
1634925,-3.15342,-10.4556,-0.62207,-88.4344,6.88293,-129.655,15.686,-0.610352,11.7798,0.341095,-0.257721,0.648682,-0.629547,4563,-2534,-26131,-2943,-29393
1634931,-3.20127,-10.3694,0.363672,-88.3081,6.9928,-129.589,23.1323,-3.35693,12.0239,0.342163,-0.257111,0.648315,-0.629578,11987,-1510,-22547,-2943,-29393
1634937,-2.25381,-9.39326,1.4834,-88.0225,7.20154,-129.452,26.062,-1.52588,11.1084,0.344727,-0.25589,0.647003,-0.630066,18899,-742,-20755,-2943,-29393
1634943,-2.53135,-9.28799,1.31113,-87.8906,7.30042,-129.38,23.9258,-4.02832,11.2305,0.345886,-0.255188,0.646332,-0.630402,32467,-230,-17427,-2951,-29392
1634949,-2.61748,-9.43633,1.17236,-87.7533,7.39929,-129.309,23.9258,-4.63867,11.1084,0.347076,-0.254608,0.64566,-0.630646,-26925,-486,-15635,-2951,-29392
1634955,-2.71797,-9.35977,1.21064,-87.6215,7.49268,-129.232,24.292,-5.7373,11.0474,0.348297,-0.254028,0.644989,-0.63089,-21037,-998,-14611,-2951,-29392
1634961,-2.75146,-8.9626,1.71309,-87.4841,7.59155,-129.161,24.7192,-3.66211,11.4746,0.349548,-0.25351,0.644287,-0.631134,-15149,-1254,-13331,-2959,-29391
1634967,-2.7084,-8.78076,1.94277,-87.2369,7.77283,-128.99,20.1416,-8.05664,10.8032,0.351959,-0.252411,0.642944,-0.631592,-9261,-1254,-11795,-2959,-29391
1634973,-2.64141,-9.07266,1.74658,-87.1326,7.8717,-128.897,17.0898,-8.66699,12.085,0.35318,-0.252014,0.642303,-0.631714,4052,-1766,-6419,-2959,-29391
1634979,-3.13906,-9.74736,1.43076,-87.0392,7.97607,-128.798,15.1978,-9.15527,13.855,0.354431,-0.251648,0.641754,-0.631714,10708,-1766,-4371,-2959,-29391
1634985,-3.40703,-10.0775,0.555078,-86.9238,8.08594,-128.683,18.7378,-12.7563,14.8315,0.355743,-0.251312,0.641266,-0.631622,16340,-2278,-3347,-2959,-29391
1634991,-3.29219,-10.2737,0.593359,-86.7975,8.1958,-128.551,21.7285,-15.5029,16.2964,0.357178,-0.250946,0.640656,-0.631561,21716,-2790,-1299,-2959,-29391
1634997,-2.39736,-10.178,1.15801,-86.4954,8.43201,-128.243,25.8789,-20.1416,18.3716,0.360535,-0.250305,0.639069,-0.631561,32212,-1766,494,-2959,-29391
1635003,-2.8376,-10.0058,0.937891,-86.3361,8.56384,-128.095,27.5269,-19.5923,20.6299,0.362335,-0.25,0.638153,-0.631561,-26668,-742,2030,-2959,-29391
1635009,-2.84717,-10.1732,1.18672,-86.1603,8.70117,-127.936,30.8838,-20.2026,22.2168,0.364197,-0.249573,0.637238,-0.631561,-20012,283,3310,-2959,-29391
1635015,-2.65576,-9.73779,1.30635,-85.9735,8.84399,-127.766,32.4097,-22.8882,24.9023,0.36615,-0.249084,0.636261,-0.631622,-13356,795,5614,-2959,-29391
1635021,-2.2251,-9.82393,1.78486,-85.7812,9.0033,-127.606,33.6304,-20.2637,26.5503,0.368256,-0.248566,0.635193,-0.631683,-5932,1563,8174,-2959,-29391
1635027,-2.33037,-10.7762,1.24893,-85.4022,9.33838,-127.304,35.2783,-18.7378,31.4331,0.372375,-0.247162,0.63324,-0.631775,8405,3611,12270,-2959,-29391
1635033,-2.32559,-11.1207,1.55996,-85.177,9.52515,-127.156,40.4663,-16.8457,33.4473,0.374542,-0.246307,0.632233,-0.631836,16085,4635,12014,-2959,-29391
1635039,-2.51221,-11.5849,1.42119,-84.9408,9.71741,-127.018,42.6025,-15.5029,34.9731,0.37674,-0.2453,0.631134,-0.632019,24277,5659,12014,-2959,-29391
1635045,-2.47871,-11.1446,1.33506,-84.6716,9.91516,-126.854,49.1943,-18.9209,37.7197,0.378998,-0.244171,0.630005,-0.632233,32213,6427,12270,-2959,-29391
1635051,-2.31123,-10.1589,1.79922,-84.3915,10.1129,-126.722,52.7954,-13.6108,37.1094,0.381439,-0.24295,0.628662,-0.632568,-25899,6683,12014,-2959,-29391
1635057,-3.91426,-11.1446,1.58389,-83.8422,10.5139,-126.458,49.8657,-14.7705,37.8418,0.386017,-0.240112,0.625977,-0.633545,-11051,7195,10478,-2959,-29391
1635063,-3.47402,-11.848,0.775195,-83.5455,10.7117,-126.299,55.3589,-18.4937,37.9028,0.388336,-0.23877,0.624695,-0.633911,-3115,7707,8430,-2959,-29391
1635069,-3.51709,-12.0155,0.803906,-83.2104,10.9094,-126.123,61.9507,-20.2026,38.6353,0.390808,-0.237457,0.623169,-0.634369,5334,8219,6638,-2959,-29391
1635075,-3.29697,-12.0395,1.21064,-82.8369,11.1127,-125.942,69.6411,-22.3389,41.0156,0.393433,-0.236053,0.62146,-0.634949,14550,8987,4590,-2959,-29391
1635081,-3.44053,-11.9916,1.871,-82.4579,11.3434,-125.771,71.7773,-18.1274,45.2271,0.39624,-0.234528,0.619537,-0.635681,23254,8987,3054,-2959,-29391
1635087,-1.00967,-14.0396,5.99102,-81.958,12.052,-125.392,27.8931,-16.8457,82.7026,0.402161,-0.230774,0.61618,-0.636566,-24106,8987,-2323,-2959,-29391
1635093,-0.47373,-16.839,6.85234,-81.8646,12.5354,-125.244,13.3667,-6.5918,98.0835,0.405518,-0.228699,0.615875,-0.635498,-13866,8475,-6163,-2959,-29391
1635099,-1.72744,-17.0495,3.59844,-81.7603,13.0957,-125.134,16.6626,3.90625,111.633,0.408844,-0.226196,0.616241,-0.633911,-3114,9243,-11027,-2959,-29391
1635105,-4.09131,-17.1787,1.78965,-81.6284,13.7,-125.03,22.8271,6.46973,121.46,0.412262,-0.222992,0.616821,-0.632263,8407,9499,-15635,-2959,-29391
1635111,-3.03379,-15.1067,2.19639,-81.4362,14.3372,-124.838,30.3345,-6.83594,130.066,0.415924,-0.21936,0.61734,-0.630585,21207,9243,-19475,-2959,-29391
1635117,-1.60781,-12.3457,5.69912,-81.0626,15.7434,-124.568,30.7007,12.7563,147.156,0.424683,-0.211761,0.617706,-0.627014,-18985,7195,-27667,-2959,-29391
1635123,-1.804,-13.4128,7.02939,-80.9583,16.496,-124.481,16.2354,19.2871,151.672,0.428925,-0.207214,0.618256,-0.625061,-4649,5915,32749,-2959,-29391
1635129,-0.823047,-12.6711,7.45527,-80.8704,17.298,-124.404,13.6719,22.7661,161.438,0.432983,-0.202606,0.619354,-0.622711,10456,4123,27885,-2959,-29391
1635135,-0.90918,-12.4605,5.93838,-80.8594,18.1274,-124.398,1.58691,36.7432,165.649,0.437164,-0.197723,0.620605,-0.620117,26328,2843,22509,-2959,-29391
1635141,-2.23467,-11.9533,6.24463,-80.8429,19.0063,-124.404,3.23486,42.1143,175.476,0.444824,-0.187012,0.624329,-0.614227,-21800,1819,18925,-2959,-29391
1635147,-2.74668,-13.7143,4.11045,-81.0681,20.8575,-124.497,-22.8882,49.1943,189.819,0.448334,-0.181458,0.626923,-0.610657,13529,27,11757,-2959,-29391
1635153,-3.41182,-17.2888,4.04824,-81.2494,21.8628,-124.552,-32.3486,53.3447,200.684,0.452118,-0.175812,0.6297,-0.606659,32473,-742,8941,-2959,-29391
1635159,-3.07207,-18.0975,2.39736,-81.4142,22.912,-124.579,-31.9214,49.5605,211.304,0.455963,-0.169952,0.632843,-0.602173,-11815,-1510,5613,-2959,-29391
1635165,-3.61279,-21.16,4.87607,-81.535,24.0546,-124.585,-23.4375,47.3022,230.713,0.460114,-0.163879,0.635895,-0.597443,9946,-2278,1773,-2959,-29391
1635171,-2.25381,-23.9784,1.50732,-81.6943,25.2576,-124.596,-30.8838,49.0723,244.446,0.469727,-0.150208,0.641937,-0.587006,-32550,-3046,-1044,-2959,-29391
1635177,-4.12959,-26.7921,-0.459375,-81.8481,27.9712,-124.525,-14.5264,43.457,287.415,0.475311,-0.142517,0.644836,-0.581268,16091,-5606,-6932,-2967,-29390
1635183,-2.8041,-29.0985,-2.4835,-81.7987,29.4489,-124.376,-2.68555,25.9399,306.335,0.481323,-0.134155,0.647583,-0.575195,-24357,-6886,-9236,-2967,-29390
1635189,-2.44521,-30.5628,-3.49795,-81.6504,31.0583,-124.222,17.2729,30.2124,333.679,0.488251,-0.125488,0.649719,-0.568878,2780,-8934,-11796,-2967,-29390
1635195,-5.17275,-31.7734,-5.98623,-81.4142,32.7667,-124.008,28.1372,22.9492,355.713,0.495697,-0.115509,0.651489,-0.5625,31708,-12006,-15124,-2967,-29390
1635201,-2.28252,-33.6779,-4.58418,-81.0187,34.5795,-123.602,47.3022,5.06592,407.349,0.513123,-0.0938721,0.653351,-0.548523,-2340,-15846,-18452,-2967,-29390
1635207,-1.54561,-35.2044,-2.08633,-79.9695,38.5785,-122.69,63.5376,-5.31006,439.697,0.522644,-0.0817871,0.653809,-0.540894,-1059,-25830,-28180,-2967,-29390
1635213,-0.0526367,-36.0753,0.239258,-79.2224,40.7867,-122.08,76.4771,-7.08008,469.788,0.533051,-0.0686951,0.653564,-0.532776,-31778,-32230,31724,-2967,-29390
1635219,0.0526367,-37.1855,2.30166,-78.3325,43.1213,-121.41,95.0928,-1.52588,499.207,0.544006,-0.0544739,0.652863,-0.52417,5599,25370,25324,-2967,-29390
1635225,-0.263184,-35.927,1.30635,-77.3657,45.5823,-120.701,100.281,9.39941,525.146,0.555206,-0.0388794,0.651642,-0.515228,-20001,15386,17644,-2967,-29390
1635231,0.813477,-29.3234,1.22021,-75.1025,50.7898,-118.85,94.5435,11.7798,570.129,0.577942,-0.00509644,0.648712,-0.494995,22752,3098,7660,-2967,-29390
1635237,-8.42188,-26.548,4.22529,-74.2291,53.421,-118.092,62.0117,53.6499,560.059,0.589294,0.0126343,0.646942,-0.483643,-19487,-26087,-18197,-2967,-29390
1635243,-9.37891,-32.0893,1.26328,-72.8558,55.9698,-116.51,22.8882,-27.771,569.153,0.598938,0.0301514,0.646576,-0.471344,26594,21529,32491,-2967,-29390
1635249,3.9334,-30.3905,3.29219,-70.8728,58.4308,-114.45,55.9692,-56.9458,568.237,0.610748,0.0451965,0.644562,-0.457611,9699,537,16363,-2967,-29390
1635255,-0.75127,-28.6152,4.11045,-69.2743,60.8643,-112.819,43.6401,12.9395,545.593,0.622864,0.0604248,0.640747,-0.444672,-5661,-23784,-790,-2967,-29390
1635261,0.00957031,-43.0281,-5.69912,-64.2206,65.2588,-107.474,43.7012,-79.5288,531.494,0.642029,0.0901184,0.636078,-0.418274,-19228,14104,-18710,-2967,-29390
1635267,9.25449,-40.2814,-6.52695,-60.5896,67.2089,-103.997,95.0317,-69.458,512.939,0.652985,0.103485,0.631073,-0.405609,20198,15383,10730,-2967,-29390
1635273,7.89072,-30.5389,-7.79502,-56.7334,68.9996,-100.475,122.62,-41.3818,480.835,0.66272,0.11792,0.625275,-0.394745,3815,-17386,-6423,-2967,-29390
1635279,12.0634,-18.7722,-13.0156,-51.9983,70.3729,-96.0809,128.723,-92.9565,441.345,0.670654,0.13266,0.619751,-0.385254,-12569,12566,-24855,-2967,-29390
1635285,19.6718,-11.8959,-11.6519,-46.8732,71.3672,-91.593,183.655,-100.647,384.644,0.678925,0.145569,0.612671,-0.377289,-29720,-24811,20201,-2967,-29390
1635291,15.925,40.8939,-2.6127,-38.1226,72.4878,-85.2924,288.574,3.54004,195.435,0.691559,0.172272,0.594788,-0.371704,16873,2069,-1304,-2967,-29390
1635297,-0.344531,34.3861,-8.36445,-37.2437,72.3065,-84.787,85.3271,-58.6548,48.4619,0.691467,0.184845,0.589447,-0.37439,-25622,-14061,18408,-2959,-29391
1635303,13.6377,7.51748,-4.52197,-37.6501,71.6913,-85.1276,-9.46045,-97.5342,-44.5557,0.692078,0.186493,0.5867,-0.376709,13547,12307,-4889,-2959,-29391
1635309,11.5274,1.98584,-7.3165,-39.6497,71.098,-87.0227,-34.4849,-31.25,-120.972,0.692871,0.182251,0.585144,-0.379761,-15893,-25582,-28953,-2959,-29391
1635315,6.3499,0.062207,-6.5126,-42.0612,70.2191,-89.1046,-81.2988,-57.6782,-171.936,0.690826,0.176422,0.586639,-0.383911,16108,5394,12263,-2959,-29391
1635321,15.3604,-11.4174,-4.4167,-47.5049,68.1866,-93.4937,-133.24,-29.6021,-213.013,0.687073,0.156219,0.590698,-0.393066,-22036,-24303,-12058,-2959,-29391
1635327,11.9438,-14.1832,-4.97178,-50.3284,67.2144,-95.8337,-125.061,-12.5732,-215.698,0.683777,0.145111,0.594482,-0.397308,19693,-1008,9702,-2959,-29391
1635333,11.3265,-14.8866,-4.76602,-52.8113,66.2036,-97.8717,-116.028,-20.0806,-211.975,0.67984,0.13446,0.598572,-0.401672,-31251,-14064,-8987,-2959,-29391
1635339,11.7619,-14.5229,-3.51709,-55.1514,65.1984,-99.8438,-102.905,-7.20215,-210.876,0.675964,0.124054,0.602173,-0.406128,-18963,-23792,-25371,-2959,-29391
1635345,10.4986,-13.4176,-2.47871,-57.3376,64.1986,-101.739,-88.8062,2.38037,-209.656,0.67157,0.114319,0.605865,-0.410767,-9747,-29168,26597,-2959,-29391
1635351,10.1924,-10.9484,-1.43076,-61.2817,62.1497,-105.276,-66.2842,16.2964,-213.501,0.661774,0.096405,0.612946,-0.420654,-3603,-31216,15077,-2959,-29391
1635357,8.91475,-10.1206,-1.97627,-63.111,61.073,-107.018,-53.5278,24.4141,-221.619,0.65625,0.0880737,0.616425,-0.426025,750,-25328,-2332,-2959,-29391
1635363,8.13477,-9.02002,-2.41172,-64.7809,59.9304,-108.677,-38.5742,23.9258,-232.056,0.650208,0.0800476,0.619843,-0.431885,-531,-18416,-8732,-2959,-29391
1635369,7.7998,-7.29258,-2.25859,-66.33,58.7164,-110.292,-26.8555,26.123,-244.995,0.643829,0.0721436,0.622925,-0.438354,-2323,-10224,-14620,-2959,-29391
1635375,7.42178,-5.50771,-1.90449,-67.8021,57.4091,-111.852,-23.0103,27.9541,-260.315,0.636993,0.06427,0.625793,-0.445404,-6675,-240,-19228,-2959,-29391
1635381,6.57959,-2.82324,-2.01934,-70.6476,54.5197,-114.84,-34.1187,31.7993,-294.373,0.621948,0.0474548,0.631348,-0.460632,-21011,27921,-24604,-2959,-29391
1635387,5.9958,-2.45,-2.24424,-72.0483,52.9266,-116.246,-46.5088,32.0435,-311.829,0.613678,0.038147,0.634308,-0.468506,-31251,-21231,-24860,-2959,-29391
1635393,5.7374,-2.6749,-2.51699,-73.4271,51.2457,-117.554,-61.0962,30.3955,-326.66,0.604889,0.0280151,0.637421,-0.476349,21997,-3055,-24092,-2959,-29391
1635399,5.46943,-3.44531,-2.49307,-74.7894,49.4879,-118.779,-76.0498,30.0903,-339.966,0.595703,0.0170593,0.640625,-0.48407,7405,16914,-23068,-2943,-29393
1635405,4.71338,-4.19658,-2.48828,-76.1298,47.6587,-119.905,-90.7593,28.2593,-350.83,0.586121,0.00534058,0.644012,-0.491516,-7188,-29166,-20764,-2943,-29393
1635411,3.78984,-7.15859,-1.59346,-78.6841,43.83,-121.816,-115.601,21.1792,-365.906,0.565979,-0.0201111,0.650909,-0.505463,21484,16403,-12572,-2943,-29393
1635417,3.31611,-9.44111,-1.19629,-79.8761,41.8689,-122.618,-120.605,18.6157,-370.056,0.555573,-0.0336609,0.654266,-0.511871,-1045,-23533,-6172,-2943,-29393
1635423,2.9333,-10.9628,-0.665137,-80.9637,39.8859,-123.311,-119.141,14.2212,-371.582,0.544983,-0.0474854,0.657471,-0.518036,-26133,3604,1253,-2943,-29393
1635429,2.64619,-11.8241,-0.186621,-81.958,37.8973,-123.904,-116.028,10.1318,-372.314,0.534332,-0.0613708,0.660248,-0.524078,12267,31508,9957,-2943,-29393
1635435,2.28252,-12.3122,0.373242,-82.8589,35.9033,-124.409,-112.183,5.85938,-371.46,0.523651,-0.0752563,0.662628,-0.530029,-14614,-7404,19429,-2943,-29393
1635441,1.36377,-12.8003,1.05273,-84.4464,31.9318,-125.206,-106.323,-0.0610352,-369.995,0.50235,-0.102783,0.666168,-0.541473,-10007,-17899,-21531,-2943,-29393
1635447,0.765625,-13.1113,1.27764,-85.1495,29.9432,-125.502,-104.065,-4.63867,-370.3,0.491699,-0.116425,0.667358,-0.546997,21737,10518,-6683,-2943,-29393
1635453,0.497656,-13.4176,1.42598,-85.7977,27.9602,-125.728,-102.661,-9.64355,-370.422,0.481079,-0.130096,0.668152,-0.552368,-14872,-26602,7142,-2943,-29393
1635459,0.287109,-13.7812,1.95713,-86.4075,25.9827,-125.898,-101.135,-13.6108,-369.629,0.470551,-0.143768,0.668549,-0.557556,12264,1815,21222,-2943,-29393
1635465,-0.234473,-14.1162,2.31123,-86.9788,24.0161,-126.013,-101.074,-16.9678,-368.408,0.460052,-0.15741,0.668579,-0.562531,-28185,30231,-29466,-2943,-29393
1635471,-1.52168,-15.2407,3.03379,-88.0719,20.1379,-126.101,-103.821,-23.6206,-363.22,0.439331,-0.18457,0.667786,-0.571716,21478,17176,743,-2943,-29393
1635477,-2.20596,-16.3222,3.59365,-88.5992,18.2483,-126.074,-104.98,-26.7944,-357.788,0.429108,-0.19809,0.667023,-0.575806,-22555,-23016,17383,-2943,-29393
1635483,-2.82803,-17.662,4.12002,-89.1101,16.4081,-126.013,-104.492,-28.3203,-350.22,0.419098,-0.211456,0.666077,-0.579559,-3100,1049,-31769,-2943,-29393
1635489,-3.69893,-18.3463,4.71338,-89.5935,14.6118,-125.92,-101.624,-29.1748,-342.346,0.409302,-0.224548,0.664886,-0.582977,14308,23065,-15129,-2943,-29393
1635495,-4.04824,-18.5233,5.36416,-90.0549,12.8705,-125.793,-99.3652,-31.0059,-334.656,0.390503,-0.249725,0.661865,-0.58902,30179,-21991,1256,-2943,-29393
1635501,-3.46445,-18.5999,6.20156,-90.9833,9.49768,-125.497,-102.051,-27.832,-323.608,0.381409,-0.261902,0.660126,-0.591644,-2335,14874,-31768,-2943,-29393
1635507,-3.33525,-19.2172,6.36426,-91.4667,7.85522,-125.343,-104.37,-24.231,-320.19,0.372345,-0.273804,0.658386,-0.593964,12001,31258,-13848,-2943,-29393
1635513,-3.44531,-20.0881,6.32598,-91.9556,6.22925,-125.195,-106.262,-18.9209,-319.031,0.363251,-0.285461,0.656616,-0.596069,24800,-18918,5353,-2943,-29393
1635519,-4.24922,-20.9638,6.28291,-92.45,4.59778,-125.057,-106.14,-14.7095,-322.021,0.354004,-0.296875,0.654816,-0.598022,-28961,-5350,25321,-2934,-29394
1635525,-4.70381,-21.3753,5.9623,-92.9388,2.93884,-124.92,-106.628,-11.7188,-328.857,0.334778,-0.319397,0.650818,-0.601837,-17954,6683,-19479,-2934,-29394
1635531,-5.21104,-22.2701,5.546,-93.9221,-0.527344,-124.678,-105.164,-0.915527,-354.553,0.324585,-0.330688,0.648499,-0.603821,2013,25627,19434,-2934,-29394
1635537,-5.63691,-22.8013,5.31631,-94.4055,-2.36755,-124.579,-103.76,7.08008,-370.178,0.313812,-0.342072,0.645874,-0.605988,12252,32283,-27414,-2934,-29394
1635543,-6.27334,-23.476,4.88564,-94.8779,-4.28467,-124.519,-102.173,17.1509,-386.23,0.302368,-0.353516,0.642944,-0.608368,20699,-28645,-8214,-2934,-29394
1635549,-7.21602,-24.3804,4.5124,-95.3394,-6.26221,-124.497,-99.7925,29.2358,-400.513,0.290192,-0.36496,0.639679,-0.610962,28122,-26597,11755,-2934,-29394
1635555,-8.8334,-25.2704,4.11045,-95.7623,-8.29468,-124.519,-94.1772,42.6025,-410.828,0.263794,-0.387238,0.632202,-0.616974,-31015,-27621,31211,-2934,-29394
1635561,-14.5612,-24.5479,3.83291,-96.4709,-12.3981,-124.684,-79.3457,61.1572,-417.175,0.249969,-0.397797,0.62793,-0.620361,-19241,29467,1516,-2934,-29394
1635567,-18.0257,-23.519,3.7707,-96.806,-14.425,-124.805,-82.1533,67.4438,-414.429,0.235992,-0.407898,0.623383,-0.623871,-13866,22043,16876,-2934,-29394
1635573,-25.3135,-33.1994,2.55527,-97.3608,-16.3531,-124.926,-126.892,67.8711,-396.851,0.221832,-0.417542,0.618866,-0.627136,-10795,11035,29676,-2934,-29394
1635579,-31.2519,-33.721,8.88603,-97.5256,-18.1494,-125.052,-49.6826,66.2231,-372.925,0.207367,-0.42691,0.615784,-0.628845,-8492,-3046,-24852,-2934,-29394
1635585,-30.3618,-21.4614,7.01504,-97.6849,-19.8138,-125.068,-42.3584,43.8843,-353.21,0.18399,-0.442505,0.605835,-0.634949,-6701,-19942,-14868,-2934,-29394
1635591,-27.7156,-12.7094,9.95312,-98.053,-23.0548,-125.184,-61.7065,57.0068,-342.041,0.173126,-0.449982,0.600769,-0.637573,-2095,3098,2285,-2934,-29394
1635597,-30.3427,-16.059,7.71367,-98.3002,-24.5599,-125.288,-68.1152,55.7861,-325.195,0.161743,-0.456848,0.596405,-0.639771,3537,-18919,8941,-2934,-29394
1635603,-31.8883,-18.2123,2.71797,-98.454,-25.9552,-125.403,-52.3682,55.603,-305.542,0.150757,-0.463165,0.592499,-0.641541,9424,23577,14829,-2934,-29394
1635609,-38.4248,-22.1792,-0.593359,-98.4979,-27.2076,-125.546,-32.3486,56.4575,-277.649,0.140656,-0.46875,0.58847,-0.643463,16335,-1768,18925,-2934,-29394
1635615,-49.6986,-13.7478,-1.45947,-98.3112,-28.2953,-125.64,18.7378,41.626,-249.573,0.125122,-0.477264,0.579498,-0.64856,25038,-28392,21741,-2934,-29394
1635621,-52.5889,-6.18721,-0.411523,-97.7454,-29.8389,-125.689,45.8984,11.2915,-169.556,0.120392,-0.480438,0.574493,-0.65155,-16180,-19433,20973,-2934,-29394
1635627,-52.8425,1.62695,1.11494,-97.6135,-30.2179,-125.634,23.5596,-5.61523,-119.812,0.117432,-0.482849,0.570343,-0.653961,1228,18967,18157,-2934,-29394
1635633,-52.7563,1.36855,4.0626,-97.7728,-30.2838,-125.568,-35.0952,-16.6626,-59.2651,0.115906,-0.484558,0.56781,-0.655182,20939,-8426,14573,-2959,-29391
1635639,-52.7898,-3.56016,7.17773,-98.1354,-29.9652,-125.497,-74.4629,-28.4424,15.2588,0.115204,-0.485321,0.568176,-0.654419,-21558,30742,10989,-2959,-29391
1635645,-46.6936,-13.1831,12.7668,-98.4924,-29.3225,-125.442,-77.2705,-36.377,78.7354,0.118988,-0.482727,0.575623,-0.649139,4298,5654,7917,-2959,-29391
1635651,-41.8749,-19.7531,17.0926,-98.7946,-27.2186,-125.338,-14.7095,-52.5513,184.57,0.124054,-0.479431,0.580597,-0.646179,4297,28181,8173,-2959,-29391
1635657,-36.4198,-23.9545,18.7722,-98.4869,-25.8618,-125.321,50.293,-51.9409,222.778,0.131653,-0.474823,0.585205,-0.643921,-22328,12053,9197,-2959,-29391
1635663,-35.9652,-83.3096,101.441,-98.7836,-23.0878,-124.986,-49.4385,-153.503,497.864,0.141602,-0.468811,0.588715,-0.643036,20424,-1260,10989,-2959,-29391
1635669,5.45508,17.595,-11.4174,-96.048,-21.2805,-124.964,533.081,-59.3872,317.81,0.159698,-0.459045,0.599548,-0.635742,3272,-10220,13549,-2959,-29391
1635675,14.0014,-4.39756,11.2738,-95.6195,-19.0613,-124.755,84.4727,-91.9189,398.254,0.198334,-0.437256,0.595825,-0.643677,-9529,-14316,16621,-2959,-29391
1635681,-9.5416,-22.3084,-12.1639,-95.603,-14.6173,-126.722,-56.3354,96.4355,412.964,0.205322,-0.420319,0.608276,-0.641144,-17721,-8684,21997,-2959,-29391
1635687,-2.72754,-28.5291,4.49326,-95.3723,-12.3706,-126.953,21.3013,-2.0752,417.786,0.214417,-0.405823,0.618439,-0.637756,-13369,21,24045,-2959,-29391
1635693,1.14844,-9.13008,14.2215,-94.5703,-10.2667,-127.48,124.146,63.6597,394.775,0.227539,-0.393158,0.625366,-0.634369,-5945,9749,25069,-2959,-29391
1635699,-10.714,-2.38301,9.34062,-94.2627,-8.3606,-128.254,22.3999,120.85,359.314,0.239899,-0.378204,0.629395,-0.634918,7112,22805,25069,-2959,-29391
1635705,-14.6139,-25.9403,-0.110059,-94.1144,-6.61377,-128.848,49.3774,87.8296,282.654,0.255493,-0.350922,0.642212,-0.631683,24008,-26603,23789,-2959,-29391
1635711,-13.6425,-18.4659,-2.58877,-92.9169,-3.65845,-129.847,146.24,73.3643,260.925,0.262543,-0.338989,0.646179,-0.631256,2761,13078,16877,-2959,-29391
1635717,-11.1159,-9.45547,-0.60293,-92.2028,-2.30713,-130.051,129.822,28.6255,242.981,0.270782,-0.326935,0.646912,-0.633392,28361,-30954,12269,-2959,-29391
1635723,-7.08203,-9.34541,6.30684,-91.7029,-1.03821,-130.144,89.5996,11.2305,225.525,0.27948,-0.316803,0.647156,-0.634491,-9527,-8682,6381,-2959,-29391
1635729,-12.1782,-8.20654,16.6141,-91.214,0,-130.583,85.2051,83.1299,183.655,0.287567,-0.308105,0.64798,-0.634338,17098,12055,1773,-2959,-29391
1635735,-17.9443,-4.76602,-8.3501,-90.8789,0.32959,-131.155,-39.856,22.4609,51.5137,0.291931,-0.292755,0.649567,-0.63797,-20790,-32745,-3092,-2959,-29391
1635741,-7.21602,-18.7387,-1.62217,-90.9723,1.11511,-131.067,2.01416,-40.1611,49.1943,0.293152,-0.290253,0.651703,-0.636383,-31285,6168,-12308,-2959,-29391
1635747,4.15352,-16.3078,1.84707,-90.5658,1.49963,-131.034,72.8149,-6.16455,50.2319,0.296631,-0.289062,0.651855,-0.635162,-4661,24088,-16660,-2959,-29391
1635753,0.0382813,-5.8666,4.90957,-90.1044,1.85669,-131.276,85.6934,50.1709,46.3257,0.299988,-0.286041,0.650452,-0.636383,20940,-25064,-20500,-2943,-29393
1635759,-5.93359,-1.69873,0.13877,-89.8956,2.18628,-131.396,33.5083,25.7568,39.6118,0.301788,-0.281403,0.649353,-0.638702,-20788,-9704,-25108,-2943,-29393
1635765,-2.11982,-6.49346,2.34473,-89.8132,2.4884,-131.331,3.41797,17.4561,23.5596,0.305695,-0.276764,0.649414,-0.638794,1997,4889,-29460,-2943,-29393
1635771,-7.40742,-6.79971,1.19629,-89.6924,2.93335,-131.495,6.28662,18.9819,15.3198,0.306763,-0.27478,0.649902,-0.638672,-21811,31769,27628,-2943,-29393
1635777,-6.2877,-6.03887,0.741699,-89.6484,3.12012,-131.462,0.305176,-4.39453,12.085,0.307587,-0.27298,0.650208,-0.638763,-2099,-21991,25580,-2943,-29393
1635783,-3.33525,-8.01035,1.20107,-89.6594,3.25195,-131.451,-10.3149,0.305176,2.0752,0.308899,-0.271973,0.65033,-0.638428,16078,-11495,23532,-2943,-29393
1635789,-2.92852,-9.69951,-2.25859,-89.6759,3.3783,-131.462,-10.7422,4.82178,0.244141,0.309662,-0.271301,0.650696,-0.63797,-31282,-1511,22252,-2943,-29393
1635795,-3.43574,-10.9102,-0.100488,-89.6539,3.49915,-131.462,-1.64795,2.44141,1.46484,0.310974,-0.269806,0.651276,-0.63736,-14642,7450,21996,-2943,-29393
1635801,-3.96211,-8.46016,1.97627,-89.4287,3.74634,-131.435,14.6484,2.31934,0.427246,0.312103,-0.26889,0.650848,-0.637634,16079,23834,22252,-2943,-29393
1635807,-3.92861,-9.63731,2.33994,-89.4067,3.8562,-131.418,-1.58691,-0.366211,0.366211,0.312988,-0.267975,0.650513,-0.637909,29903,30746,23532,-2943,-29393
1635813,-2.00977,-9.68516,-0.468945,-89.3683,3.97156,-131.396,1.2207,0.12207,1.0376,0.313782,-0.267365,0.650604,-0.637695,-22577,-28390,25324,-2943,-29393
1635819,-3.25869,-12.9056,2.12461,-89.3188,4.08691,-131.369,4.15039,-2.38037,2.92969,0.314575,-0.266724,0.650635,-0.637543,-10033,-22758,28652,-2943,-29393
1635825,-2.3208,-10.6709,1.3207,-89.231,4.21875,-131.325,11.1694,-4.45557,6.34766,0.316681,-0.26532,0.650299,-0.637421,1488,-17638,31980,-2943,-29393
1635831,-2.42607,-10.6087,1.59346,-89.0717,4.53186,-131.254,10.6201,-3.60107,13.0005,0.317871,-0.264435,0.650116,-0.63739,25040,-7654,-24340,-2943,-29393
1635837,-2.71318,-9.99141,1.00488,-88.9893,4.69666,-131.21,11.1694,-3.96729,14.9536,0.319153,-0.263519,0.649963,-0.637299,-28720,-3046,-19988,-2943,-29393
1635843,-2.92373,-9.82393,2.65098,-88.8849,4.86145,-131.149,14.5874,-6.53076,15.5029,0.320496,-0.262573,0.64978,-0.637177,-17456,1307,-15892,-2943,-29393
1635849,-2.62705,-8.43623,2.75625,-88.8025,5.02625,-131.116,11.2305,-1.95312,14.9536,0.32196,-0.261658,0.649475,-0.637115,-6192,5403,-11028,-2943,-29393
1635855,-2.30166,-9.59902,1.30635,-88.7585,5.18005,-131.089,3.54004,-1.09863,14.0381,0.324341,-0.259796,0.649384,-0.63681,4817,8731,-6932,-2943,-29393
1635861,-1.29678,-10.6422,1.42598,-88.7091,5.4657,-130.979,0.12207,-5.98145,12.4512,0.32547,-0.259216,0.649475,-0.636353,26577,14619,1005,-2943,-29393
1635867,-1.67002,-10.2546,1.48818,-88.6597,5.60852,-130.952,4.39453,-0.305176,13.3667,0.326599,-0.258636,0.649506,-0.635986,-28207,17179,6125,-2951,-29392
1635873,-2.8376,-9.65166,2.15811,-88.6047,5.75684,-130.935,5.79834,2.38037,14.9536,0.327637,-0.257812,0.649506,-0.635773,-17967,19739,9709,-2951,-29392
1635879,-3.50752,-8.6707,1.38291,-88.5663,5.90515,-130.913,3.479,0.366211,14.3433,0.328644,-0.256866,0.649536,-0.63562,-7983,22043,13293,-2951,-29392
1635885,-2.79932,-9.22578,0.478516,-88.5333,6.03699,-130.869,0.671387,-2.86865,12.207,0.330688,-0.255432,0.649628,-0.63504,1490,24091,16621,-2951,-29392
1635891,-2.72275,-10.0536,0.220117,-88.5059,6.27869,-130.798,-1.28174,-0.671387,10.1318,0.331604,-0.254913,0.64975,-0.634674,18642,27163,22765,-2951,-29392
1635897,-2.5457,-10.757,0.722559,-88.4564,6.39954,-130.77,4.69971,0,10.9253,0.332428,-0.254333,0.649841,-0.634338,27346,27931,26349,-2951,-29392
1635903,-2.98594,-10.245,0.143555,-88.3905,6.51489,-130.743,9.82666,0.183105,11.2915,0.333344,-0.253662,0.649811,-0.634155,-29742,28955,29677,-2951,-29392
1635909,-2.71797,-10.1062,0.641211,-88.3136,6.63025,-130.699,10.9253,-3.35693,10.6201,0.33429,-0.25293,0.649628,-0.634125,-22318,29723,-32275,-2951,-29392
1635945,-2.81367,-8.95303,1.52646,-87.3523,7.38281,-130.38,35.0952,-7.8125,11.1084,0.343201,-0.246857,0.645081,-0.636414,25811,-30181,-12307,-2951,-29392
1635951,-2.46914,-9.96748,1.46904,-87.0172,7.59155,-130.204,27.5879,-13.6719,12.2681,0.344543,-0.246155,0.644135,-0.636932,-26157,-28389,-8979,-2951,-29392
1635957,-2.11982,-9.63731,1.09102,-86.8469,7.70142,-130.089,29.7241,-15.8081,13.7939,0.345978,-0.245636,0.643311,-0.637177,-19245,-27365,-8467,-2951,-29392
1635963,-2.62227,-10.0249,1.30156,-86.6766,7.81128,-129.996,30.0903,-12.085,14.9536,0.347565,-0.245117,0.642365,-0.637482,-12333,-26597,-9491,-2951,-29392
1635969,-3.24912,-9.89092,1.00488,-86.5063,7.93762,-129.886,30.7007,-14.8315,17.1509,0.34903,-0.244446,0.641479,-0.637787,-5421,-25829,-10771,-2951,-29392
1635975,-3.2874,-9.13008,1.63174,-86.3196,8.06396,-129.754,35.0952,-20.6299,18.4326,0.352448,-0.243225,0.639557,-0.638336,2516,-25573,-11283,-2951,-29392
1635981,-3.03379,-8.79033,1.67959,-85.9241,8.31665,-129.468,34.4849,-21.5454,18.4937,0.354309,-0.242645,0.638428,-0.638641,16340,-24037,-10515,-2951,-29392
1635987,-2.62227,-8.4793,1.59824,-85.7373,8.44299,-129.315,32.1655,-22.3999,18.9209,0.356201,-0.242096,0.637329,-0.638916,22996,-23269,-9747,-2959,-29391
1635993,-2.17725,-9.09658,1.63174,-85.567,8.56934,-129.166,29.2969,-22.0947,20.3247,0.358063,-0.241608,0.636261,-0.639099,29396,-21989,-8979,-2959,-29391
1635999,-2.39258,-10.0967,1.31113,-85.3912,8.71216,-129.018,30.5786,-21.8506,22.3389,0.359924,-0.241119,0.635315,-0.639191,-29228,-20453,-7699,-2959,-29391
1636005,-2.17725,-10.9293,1.41162,-85.188,8.86597,-128.864,42.3584,-21.6675,27.8931,0.363922,-0.239868,0.63324,-0.639465,-22316,-18661,-6931,-2959,-29391
1636011,-2.03369,-10.1732,1.67959,-84.6936,9.19006,-128.562,47.3633,-20.3857,29.1748,0.366089,-0.238983,0.631989,-0.639801,-8492,-16357,-7187,-2959,-29391
1636017,-2.01455,-9.49375,1.66045,-84.4409,9.36584,-128.425,46.0815,-18.9819,30.7007,0.368286,-0.237976,0.630615,-0.640259,-2092,-15333,-7443,-2959,-29391
1636023,-2.46914,-9.72822,1.83271,-84.1992,9.54712,-128.287,43.396,-18.1274,32.5928,0.370453,-0.236877,0.629333,-0.640686,4053,-14309,-7187,-2959,-29391
1636029,-2.4835,-10.1302,1.76094,-83.952,9.72839,-128.145,45.166,-18.1274,33.5083,0.37265,-0.235779,0.628143,-0.640991,10709,-13797,-7443,-2959,-29391
1636035,-2.8998,-10.0393,1.59346,-83.6938,9.91516,-128.013,48.0347,-15.7471,35.8887,0.377045,-0.233368,0.62561,-0.641785,17109,-12773,-7699,-2959,-29391
1636041,-3.25391,-9.99141,1.65566,-83.161,10.2942,-127.749,49.5605,-16.1743,35.2173,0.379242,-0.232056,0.624329,-0.642181,31189,-11749,-11027,-2959,-29391
1636047,-3.27783,-9.67559,1.89492,-82.8754,10.4865,-127.612,52.6733,-16.7236,36.2549,0.38147,-0.230743,0.623016,-0.642609,-26411,-10981,-13075,-2959,-29391
1636053,-3.37832,-8.85254,2.42129,-82.6007,10.6787,-127.48,50.5371,-15.4419,36.0107,0.383759,-0.22937,0.621613,-0.643127,-18731,-10725,-14355,-2959,-29391
1636059,-2.40215,-9.70908,3.8377,-82.3755,10.882,-127.326,40.5884,-19.7754,39.2456,0.385986,-0.227997,0.62027,-0.643555,-11051,-10213,-16915,-2959,-29391
1636065,-1.32549,-12.9199,3.98125,-82.2546,11.1401,-127.189,8.30078,-0.793457,59.5703,0.390533,-0.225616,0.618866,-0.643036,-3115,-9701,-18707,-2959,-29391
1636071,-3.89033,-14.2167,2.20596,-82.1173,11.7938,-127.046,12.5122,2.01416,67.0166,0.392578,-0.223938,0.61911,-0.64212,15062,-8421,-22035,-2959,-29391
1636077,-3.49316,-14.322,3.70371,-81.98,12.1729,-126.909,21.6675,-10.1318,75.2563,0.394775,-0.221893,0.619385,-0.641235,25302,-7909,-23315,-2959,-29391
1636083,-2.01455,-12.0825,4.12002,-81.8427,12.5848,-126.788,21.4844,-6.65283,82.5806,0.397614,-0.219849,0.619232,-0.64032,-30762,-7141,-25107,-2959,-29391
1636089,-1.86143,-10.7235,3.44531,-81.7438,13.0298,-126.711,16.2354,3.72314,87.2192,0.400543,-0.217499,0.619232,-0.639313,-20266,-7141,-27923,-2959,-29391
1636095,-2.47871,-12.829,4.55068,-81.6724,13.4912,-126.661,7.8125,9.64355,95.5811,0.405823,-0.212006,0.620178,-0.636902,-9002,-6629,-30995,-2959,-29391
1636101,-1.73223,-13.4654,4.34971,-81.557,14.4855,-126.524,8.05664,11.9629,101.929,0.408508,-0.209137,0.62088,-0.635437,16343,-6629,29165,-2967,-29390
1636107,-2.24902,-14.0157,4.55068,-81.5131,15.0568,-126.486,7.32422,22.2168,111.511,0.411469,-0.206177,0.621582,-0.633789,30423,-5861,26605,-2967,-29390
1636113,-3.42139,-14.9919,3.56494,-81.4911,15.6665,-126.458,2.99072,26.001,120.483,0.414429,-0.202728,0.622589,-0.632019,-21545,-5349,24301,-2967,-29390
1636119,-3.2874,-15.5948,2.23467,-81.4746,16.3147,-126.409,1.52588,22.522,128.967,0.41745,-0.199005,0.62381,-0.629974,-6697,-5093,22253,-2967,-29390
1636125,-3.69893,-14.1354,3.05771,-81.4252,17.0178,-126.359,13.0005,20.3857,150.452,0.424316,-0.190948,0.626312,-0.625397,9432,-4581,20717,-2967,-29390
1636131,-2.40215,-13.7717,3.73721,-81.2988,18.5339,-126.227,6.65283,25.5737,154.114,0.428284,-0.186401,0.62735,-0.623016,-22824,-5093,15341,-2967,-29390
1636137,-2.72754,-13.0635,5.01484,-81.2659,19.3524,-126.205,5.37109,33.4473,163.574,0.432129,-0.181732,0.628662,-0.620392,-5672,-5349,11245,-2967,-29390
1636143,-3.01943,-13.6568,5.30195,-81.3153,20.2039,-126.205,-8.23975,39.0015,169.678,0.436005,-0.176636,0.630219,-0.617584,12505,-5349,7149,-2967,-29390
1636149,-2.71318,-13.5181,5.91924,-81.3483,21.1102,-126.178,-8.97217,35.5835,182.861,0.439728,-0.171448,0.632233,-0.614349,30169,-5605,3821,-2967,-29390
1636155,-2.86152,-15.0063,3.91904,-81.601,23.0493,-126.233,-22.7051,48.7671,199.402,0.447754,-0.160492,0.63678,-0.60675,5594,-8421,-532,-2967,-29390
1636161,-4.06738,-18.5377,4.33057,-81.7438,24.104,-126.244,-28.0762,45.2881,213.135,0.451782,-0.154572,0.639435,-0.602509,27866,-10213,-3092,-2967,-29390
1636167,-3.68936,-21.2748,1.66045,-81.9031,25.2191,-126.255,-30.2124,46.3867,225.098,0.456177,-0.148438,0.642181,-0.597778,-13862,-12261,-5652,-2967,-29390
1636173,-3.9334,-22.0356,1.90449,-81.958,26.4166,-126.222,-13.4277,40.5273,244.263,0.460754,-0.142029,0.64505,-0.592743,10715,-13797,-9236,-2967,-29390
1636179,-3.10078,-22.5955,0.16748,-82.0569,27.713,-126.211,-19.4092,46.3867,265.259,0.466003,-0.134888,0.64743,-0.587677,-31269,-14821,-13332,-2967,-29390
1636185,-3.8999,-26.2896,-1.22979,-81.991,30.531,-125.997,-0.366211,24.0479,299.438,0.47757,-0.118744,0.652313,-0.576385,19676,-18149,-18964,-2967,-29390
1636191,-1.80879,-27.3041,-2.49785,-81.8372,32.0746,-125.793,13.3057,19.8364,320.984,0.484436,-0.110229,0.654083,-0.570282,-17444,-21989,-20244,-2967,-29390
1636197,-2.04805,-29.2804,-1.78486,-81.6339,33.7061,-125.59,22.1558,22.583,340.82,0.491882,-0.100922,0.655457,-0.564026,12253,-27109,-21012,-2967,-29390
1636203,-2.6749,-30.5293,-2.07197,-81.3812,35.4749,-125.338,25.5737,19.9585,370.422,0.499634,-0.0907898,0.656647,-0.557495,-21283,32539,-22804,-2967,-29390
1636209,-1.225,-35.3671,0.387598,-81.0901,37.348,-125.057,29.4189,21.2402,391.907,0.516724,-0.0681763,0.6586,-0.542664,12510,25883,-26388,-2967,-29390
1636215,1.51211,-36.8553,2.6749,-80.0739,41.4624,-124.178,58.5938,13.0615,450.195,0.526459,-0.0558777,0.658691,-0.534546,15839,12059,26604,-2967,-29390
1636221,1.45947,-37.1759,3.37354,-79.4366,43.7366,-123.728,72.3267,23.2544,480.042,0.536377,-0.0421143,0.658508,-0.526123,-11553,2843,18412,-2967,-29390
1636227,-0.287109,-37.463,2.50742,-78.7115,46.1371,-123.228,78.9185,28.7476,508.118,0.546478,-0.026947,0.65802,-0.517212,29408,-7654,8172,-2967,-29390
1636233,1.58389,-36.238,-0.545508,-77.7997,48.653,-122.547,87.5244,18.3105,536.072,0.556763,-0.0107727,0.657288,-0.50769,6625,-20710,-2581,-2967,-29390
1636239,-5.51729,-25.4522,3.46924,-76.7889,51.2677,-121.844,99.6094,31.7383,556.396,0.578217,0.0242004,0.654144,-0.486908,-13855,29210,-15637,-2967,-29390
1636245,-8.52236,-33.5918,2.47393,-74.9377,56.4972,-120.092,24.7192,4.5166,564.941,0.587616,0.0421753,0.653412,-0.475281,11491,-6119,23019,-2967,-29390
1636251,2.52178,-35.903,4.47891,-73.1525,59.046,-118.334,65.2466,-35.8276,572.388,0.598541,0.0579224,0.651825,-0.461945,-4893,-28391,7915,-2967,-29390
1636257,2.51221,-30.692,5.87139,-71.488,61.5729,-116.873,83.4961,19.3481,557.861,0.61026,0.0740356,0.648041,-0.449493,-19484,11545,-7446,-2967,-29390
1636263,-5.20147,-33.5296,4.39277,-69.6094,63.9899,-115.104,66.5283,11.9629,543.945,0.61972,0.0912781,0.64505,-0.437561,-32027,-17128,-22294,-2967,-29390
1636269,5.46465,-37.7788,-5.03877,-66.9617,66.264,-112.621,83.252,-23.2544,535.583,0.638275,0.123077,0.637238,-0.413849,21478,16408,27114,-2967,-29390
1636275,7.00068,-31.606,-3.93818,-59.9194,70.3455,-106.353,140.015,-20.4468,492.188,0.647095,0.138947,0.631683,-0.403503,-4889,13079,-5911,-2967,-29390
1636281,9.02959,-24.5574,-6.69922,-55.6677,72.0923,-102.563,136.23,-21.9116,466.37,0.654694,0.154846,0.625854,-0.39447,-20248,-23786,-23575,-2967,-29390
1636287,15.8724,-12.4605,-13.7621,-50.5426,73.3997,-97.9047,140.869,-67.2607,417.48,0.66156,0.16983,0.619995,-0.385956,29161,1814,23529,-2967,-29390
1636293,21.1408,-5.56035,-14.8196,-45.3186,74.3719,-93.5156,206.055,-55.9082,352.417,0.668488,0.1828,0.613007,-0.379242,10986,25109,3817,-2967,-29390
1636299,-4.68945,44.9709,-8.58936,-40.2264,75.0861,-89.621,272.4,-41.3208,293.64,0.675842,0.209808,0.598083,-0.376038,-9238,-18924,-16664,-2967,-29390
1636305,8.02471,17.8582,-5.38809,-37.8479,74.2181,-87.8851,-2.80762,-150.879,-34.9121,0.676544,0.214508,0.593689,-0.379059,8940,24595,4072,-2967,-29390
1636311,13.3314,2.17246,-7.09639,-39.3475,73.3118,-89.2474,-32.5317,-104.797,-124.939,0.678925,0.209778,0.590393,-0.382568,-19988,-16622,-19737,-2967,-29390
1636317,5.80439,-0.105273,-6.41211,-41.6217,72.1857,-91.2524,-65.2466,-107.056,-190.369,0.678802,0.202667,0.589813,-0.387543,12781,10770,21479,-2967,-29390
1636323,9.76172,-5.92881,-4.11523,-43.8245,70.7629,-92.9498,-114.014,-149.536,-225.037,0.677795,0.192841,0.590271,-0.393555,-24595,-22255,-3866,-2967,-29390
1636329,12.3266,-17.4419,-4.13916,-46.2579,69.3567,-94.812,-116.882,-99.7314,-243.591,0.6763,0.166595,0.591888,-0.405457,-1555,16145,-27162,-2967,-29390
1636335,10.9006,-18.0496,-3.90947,-50.5316,66.6431,-98.2013,-99.0601,-104.98,-237.305,0.674133,0.153992,0.593658,-0.411438,30446,-19952,-5915,-2951,-29392
1636341,11.7715,-17.3318,-2.53135,-52.1906,65.3082,-99.5416,-81.543,-100.037,-230.713,0.671936,0.141968,0.594818,-0.417603,-23826,-31472,-24091,-2951,-29392
1636347,11.939,-15.5757,-1.39248,-53.7122,64.0283,-100.854,-60.8521,-83.7402,-226.318,0.669495,0.130737,0.595673,-0.42392,-16658,27408,24293,-2951,-29392
1636353,11.6423,-13.3027,-0.665137,-55.1129,62.7759,-102.134,-44.7388,-71.7163,-224.304,0.666473,0.120514,0.596527,-0.430481,-12562,24848,8421,-2951,-29392
1636359,11.6136,-8.66592,-0.272754,-56.4313,61.5399,-103.431,-17.2119,-41.8701,-233.276,0.658905,0.102173,0.598175,-0.444397,-11794,25872,-6684,-2951,-29392
1636365,10.9628,-6.97676,-0.181836,-59.09,59.057,-106.276,-8.36182,-26.123,-245.3,0.654114,0.093811,0.599213,-0.451874,-18194,-27120,27364,-2951,-29392
1636371,10.757,-5.88096,-0.363672,-60.4413,57.7661,-107.825,-0.183105,-11.4136,-259.705,0.648499,0.0856628,0.600494,-0.459778,-23314,-18672,12260,-2951,-29392
1636377,9.70908,-4.70381,-0.263184,-61.8365,56.4148,-109.457,1.70898,3.54004,-276.855,0.64209,0.0776672,0.60199,-0.46817,-30482,-8176,-1565,-2951,-29392
1636383,9.01523,-3.55537,-0.435449,-63.2812,54.9921,-111.138,-3.60107,15.0146,-294.495,0.634796,0.0695801,0.603821,-0.476929,25582,4625,-14109,-2951,-29392
1636389,7.51748,-3.61758,-1.76572,-64.7809,53.4924,-112.868,-21.4844,40.2222,-332.214,0.617767,0.0521545,0.608704,-0.494995,14318,19729,-25117,-2951,-29392
1636395,6.66572,-4.04346,-2.64619,-67.8461,50.224,-116.34,-30.3955,44.9219,-349.731,0.607941,0.0427246,0.611786,-0.504181,-12051,-9455,24547,-2951,-29392
1636401,6.11064,-4.75166,-3.08643,-69.3457,48.4607,-117.993,-40.2832,49.3164,-364.868,0.597473,0.0326843,0.615051,-0.513397,-28179,11794,19171,-2951,-29392
1636407,5.38809,-5.43594,-3.55537,-70.8069,46.615,-119.57,-50.5371,52.002,-376.648,0.586365,0.0220642,0.6185,-0.522522,20973,-32750,14563,-2951,-29392
1636413,4.46455,-6.30205,-3.81855,-72.2131,44.7144,-121.053,-59.8145,53.3447,-385.559,0.574768,0.0109558,0.62204,-0.531464,3053,-10222,12259,-2951,-29392
1636419,3.11035,-8.11084,-3.97168,-74.8114,40.7593,-123.668,-75.5005,48.9502,-397.034,0.550446,-0.0125427,0.62915,-0.548553,-17684,13587,12259,-2951,-29392
1636425,2.49785,-9.10137,-3.7707,-76.0034,38.7268,-124.81,-82.8247,45.7764,-399.475,0.537933,-0.0248718,0.632538,-0.55658,-277,1556,15331,-2951,-29392
1636431,1.73223,-10.2594,-3.58887,-77.124,36.6724,-125.826,-88.501,40.6494,-401.489,0.525269,-0.0374756,0.635803,-0.56424,-28693,30228,19171,-2951,-29392
1636437,1.01924,-11.1638,-3.74199,-78.1567,34.5959,-126.722,-92.2241,33.2031,-402.893,0.512512,-0.050354,0.638794,-0.571503,6123,-5612,24547,-2951,-29392
1636473,-3.05293,-16.2791,-0.756055,-83.4137,19.7314,-129.93,-97.6562,-31.4941,-397.888,0.425934,-0.147095,0.648285,-0.613617,-538,7704,23780,-2934,-29394
1636479,-4.29229,-18.619,1.75615,-84.5233,15.7764,-130.117,-96.4966,-34.4849,-370.361,0.403412,-0.175385,0.647491,-0.622192,19686,-29416,-27932,-2934,-29394
1636485,-5.28281,-19.9302,2.88545,-85.0507,13.9636,-130.166,-95.459,-31.4331,-347.839,0.392761,-0.188782,0.646851,-0.625732,-13084,23321,4837,-2934,-29394
1636491,-6.42168,-20.8872,4.84736,-85.5396,12.2607,-130.188,-90.271,-30.0293,-326.904,0.38266,-0.201385,0.64621,-0.628754,-29,-17895,22245,-2934,-29394
1636497,-6.12979,-20.9638,5.479,-86.001,10.6897,-130.188,-87.0361,-27.4658,-304.382,0.373138,-0.213165,0.645386,-0.631409,11747,4378,-25371,-2934,-29394
1636503,-5.55078,-20.9542,6.09629,-86.4624,9.22302,-130.221,-87.0972,-16.2964,-284.79,0.364227,-0.224152,0.644562,-0.633667,25570,25114,-9499,-2934,-29394
1636509,-5.97188,-18.1118,5.91445,-87.3798,6.44348,-130.38,-87.2803,4.45557,-272.278,0.346954,-0.243439,0.643494,-0.637299,-28191,-21478,7398,-2934,-29394
1636515,-5.90967,-15.9729,6.125,-87.8687,5.00977,-130.507,-95.0928,13.6108,-284.607,0.338135,-0.252441,0.643036,-0.638977,-5153,10267,-21786,-2934,-29394
1636521,-6.64658,-15.7192,5.50771,-88.407,3.46619,-130.671,-105.469,22.644,-307.922,0.328644,-0.261536,0.6427,-0.640625,5087,23579,-2842,-2934,-29394
1636527,-7.69932,-17.6094,4.55068,-88.9618,1.81274,-130.842,-109.985,26.123,-332.031,0.318146,-0.271057,0.642365,-0.642303,14814,-30437,15591,-2934,-29394
1636539,-14.2693,-27.0026,2.99072,-90.412,-3.42224,-131.309,-90.332,27.4048,-353.76,0.282745,-0.301636,0.639374,-0.648193,-24613,-8165,2280,-2934,-29394
1636545,-16.9586,-27.7396,2.60791,-90.7965,-5.08667,-131.396,-81.3599,20.3857,-341.614,0.270966,-0.311584,0.637543,-0.65033,-17702,-4837,19944,-2934,-29394
1636551,-18.4324,-25.6676,2.51699,-91.17,-6.66321,-131.424,-77.6367,10.3149,-327.087,0.259857,-0.321136,0.635437,-0.652283,-11303,-4581,-29208,-2934,-29394
1636557,-17.9587,-21.9974,2.97637,-91.5601,-8.19031,-131.407,-81.604,3.60107,-318.298,0.249481,-0.330383,0.633179,-0.65387,-5416,-6629,-14616,-2934,-29394
1636563,-16.8868,-17.6764,3.5123,-91.9995,-9.71191,-131.391,-91.6748,5.85938,-320.129,0.239532,-0.339508,0.631012,-0.655029,-41,-11493,-1560,-2934,-29394
1636569,-15.2216,-13.2022,4.58896,-93.0597,-12.9694,-131.396,-116.394,17.1509,-354.065,0.218414,-0.35788,0.627136,-0.656342,15062,-26853,19177,-2934,-29394
1636575,-14.6904,-13.3267,5.69912,-93.6255,-14.7327,-131.424,-120.972,24.4141,-373.718,0.206573,-0.367523,0.625214,-0.656708,22229,26651,29161,-2943,-29393
1636581,-15.1211,-13.9966,6.77578,-94.2078,-16.5509,-131.462,-125.183,30.4565,-384.644,0.193878,-0.37738,0.623016,-0.657074,28884,12315,-26647,-2943,-29393
1636587,-16.9729,-15.9059,7.46006,-94.812,-18.3636,-131.528,-131.836,38.5742,-386.108,0.180664,-0.387238,0.620636,-0.657349,-29997,-4838,-17175,-2943,-29393
1636593,-19.7579,-18.7387,7.95293,-95.4108,-20.1324,-131.594,-132.141,40.8936,-378.235,0.167084,-0.39679,0.618347,-0.65741,-23342,-24294,-8471,-2943,-29393
1636599,-25.7824,-22.4376,7.80459,-96.4545,-23.3844,-131.682,-108.643,37.9028,-341.431,0.140869,-0.414337,0.613678,-0.657104,-7984,-1767,5866,-2943,-29393
1636605,-29.7637,-22.9305,6.57959,-96.8225,-24.8236,-131.693,-84.2285,31.9824,-317.932,0.129028,-0.422058,0.611084,-0.657013,2256,-25063,13034,-2943,-29393
1636611,-33.3334,-22.1457,4.3832,-97.0532,-26.1255,-131.655,-52.124,19.7754,-293.518,0.1185,-0.429016,0.608124,-0.657257,13775,15129,19946,-2943,-29393
1636617,-36.5634,-20.3943,2.26816,-97.1466,-27.2791,-131.545,-18.1885,5.43213,-266.724,0.109619,-0.435425,0.604553,-0.657867,27342,-12008,26602,-2943,-29393
1636623,-39.6881,-17.0447,-0.0143555,-97.1136,-28.2623,-131.364,13.4888,-11.5967,-237.671,0.10257,-0.441254,0.600433,-0.658905,-23347,25112,32490,-2943,-29393
1636629,-45.2437,-6.08193,-1.16758,-96.9269,-29.6796,-130.803,40.5884,-43.8843,-169.006,0.0941467,-0.451355,0.591278,-0.66156,11724,-31721,-24598,-2943,-29393
1636635,-47.3348,0.397168,0.162695,-96.9379,-30.0586,-130.441,25.5127,-57.9834,-127.38,0.0924377,-0.455566,0.587189,-0.662567,-32309,5399,-21526,-2943,-29393
1636641,-48.0621,6.04844,2.37344,-97.1686,-30.2014,-130.023,-12.085,-72.4487,-82.0923,0.0920715,-0.459106,0.584351,-0.662689,-7478,-23018,-19990,-2943,-29393
1636647,-46.6553,8.76641,4.49805,-97.6849,-30.0916,-129.584,-67.749,-83.7402,-35.5835,0.0926514,-0.462006,0.583435,-0.661377,20426,15126,-19990,-2943,-29393
1636653,-43.3296,6.26377,5.6082,-98.443,-29.762,-129.155,-118.713,-87.8296,6.53076,0.0952759,-0.465637,0.588959,-0.653564,-13879,-10987,-18966,-2943,-29393
1636659,-38.3722,-2.40693,7.7041,-100.151,-28.5425,-128.408,-148.621,-90.6372,76.0498,0.0974121,-0.466125,0.594269,-0.648071,-11064,8469,-13590,-2943,-29393
1636665,-36.5012,-46.8228,21.9591,-101.393,-27.4493,-127.897,-212.769,-134.094,150.391,0.100372,-0.465851,0.600311,-0.642212,27080,-10988,-8982,-2943,-29393
1636671,-30.6059,-52.6319,20.3034,-101.393,-26.1255,-127.469,25.6958,-131.653,198.608,0.105225,-0.465118,0.609314,-0.633392,4040,-27372,-1814,-2943,-29393
1636677,-18.2458,-92.521,-11.2499,-101.459,-24.5764,-126.892,25.7568,-163.574,239.99,0.11618,-0.461945,0.612579,-0.630676,-14649,25620,6379,-2943,-29393
1636683,-4.22051,-41.2385,59.4843,-98.8715,-22.489,-126.612,526.489,-127.319,362.854,0.154144,-0.447998,0.608704,-0.636322,-28729,17172,17131,-2943,-29393
1636689,44.8465,25.969,5.70391,-96.7511,-18.5394,-125.766,-59.1431,-110.901,366.455,0.178284,-0.438751,0.599762,-0.644897,21447,13332,-25109,-2959,-29391
1636695,17.2122,-7.63232,23.543,-96.7731,-16.452,-126.826,-82.7637,149.414,402.527,0.191589,-0.431488,0.60788,-0.638336,18119,15124,-14101,-2959,-29391
1636701,-6.95283,-22.8778,-4.24922,-96.817,-14.3481,-127.425,-52.9785,63.4766,396.79,0.198425,-0.416107,0.619171,-0.63559,19143,20756,-4885,-2959,-29391
1636731,-17.2266,-13.6138,1.00488,-93.5156,-3.99353,-130.787,164.673,103.76,240.295,0.254913,-0.337189,0.651794,-0.629578,-12856,-17643,16876,-2959,-29391
1636737,-13.2166,-5.02441,-0.282324,-92.8839,-2.7356,-130.864,116.211,3.84521,225.403,0.261932,-0.324799,0.651978,-0.633026,11977,2326,16876,-2959,-29391
1636743,-3.47402,-6.68008,6.21592,-92.5269,-1.56006,-130.842,60.73,-13.2446,207.52,0.278534,-0.309082,0.653046,-0.63269,-27191,22550,14060,-2959,-29391
1636749,-13.8674,-12.5371,11.5227,-91.8896,0.422974,-131.649,68.6646,115.479,160.828,0.28421,-0.301331,0.65506,-0.631836,29130,-2538,5612,-2959,-29391
1636755,-18.0783,-2.64619,-6.64658,-91.5161,0.741577,-132.127,66.5894,97.0459,40.9546,0.28714,-0.291931,0.656677,-0.63324,-7734,17687,492,-2959,-29391
1636761,-15.2407,-5.27803,-7.68975,-91.5161,1.08765,-132.204,-8.66699,17.0898,43.6401,0.287262,-0.286469,0.656586,-0.635742,19147,-29161,-4117,-2959,-29391
1636767,-4.45977,-17.9635,-0.119629,-91.3788,1.42822,-132.061,20.3247,-27.0386,41.626,0.288818,-0.284088,0.657654,-0.63504,-19765,-11497,-8725,-2959,-29391
1636773,-0.674707,-5.63691,4.96221,-90.9723,1.80176,-132.056,73.9746,1.83105,50.7812,0.295013,-0.279572,0.655945,-0.635925,5580,5144,-13845,-2959,-29391
1636779,-6.32119,-0.6125,0.77998,-90.3021,2.46094,-132.363,36.438,26.9775,39.6118,0.296997,-0.27536,0.654694,-0.638123,-12340,-31720,-22805,-2959,-29391
1636785,-4.51719,-5.95273,2.81367,-90.2527,2.74658,-132.33,2.68555,-3.23486,33.6304,0.298615,-0.272339,0.654541,-0.638824,9421,-18408,-27413,-2959,-29391
1636791,-1.74658,-8.69941,1.80879,-90.1703,2.98279,-132.352,9.27734,8.17871,24.9023,0.300537,-0.270782,0.654846,-0.638275,30925,-5864,-32021,-2959,-29391
1636797,-5.41201,-8.51279,-0.765625,-90.0769,3.19153,-132.462,13.4888,26.2451,19.5312,0.301941,-0.269104,0.655029,-0.638153,-15155,5145,29675,-2959,-29391
1636803,-3.73242,-8.63721,1.40684,-89.9725,3.38379,-132.473,14.8315,6.40869,15.3198,0.303955,-0.265594,0.655121,-0.63855,3278,15385,25323,-2959,-29391
1636809,-2.27773,-9.12529,1.33027,-89.7748,3.68591,-132.391,10.8032,-0.610352,7.56836,0.305389,-0.264709,0.654724,-0.638672,-27698,32537,20715,-2951,-29392
1636815,-2.01934,-10.2833,2.14375,-89.7089,3.82324,-132.385,7.32422,3.41797,6.71387,0.306549,-0.263794,0.65451,-0.638702,-12082,-25319,21739,-2951,-29392
1636821,-3.19648,-10.5896,0.732129,-89.6429,3.96606,-132.396,7.08008,7.38525,8.42285,0.307495,-0.262878,0.654449,-0.638672,2511,-17895,23787,-2951,-29392
1636875,-2.66533,-9.00088,1.40205,-88.7695,5.61401,-132.006,6.04248,-7.87354,11.5967,0.320312,-0.252594,0.652649,-0.638367,-4656,-30694,-15381,-2951,-29392
1636881,-1.44512,-9.37891,1.83271,-88.7421,5.74036,-131.957,-0.244141,-3.78418,9.8877,0.321564,-0.252075,0.652466,-0.638123,5841,-27878,-11541,-2951,-29392
1636887,-1.98584,-9.99141,1.19629,-88.7146,5.86121,-131.924,0.488281,0.183105,10.1929,0.322571,-0.251587,0.652496,-0.637787,16593,-24806,-7957,-2951,-29392
1636893,-2.86152,-10.0967,2.20117,-88.6761,5.99304,-131.891,3.78418,-0.244141,12.4512,0.324463,-0.250305,0.652527,-0.637299,27345,-22246,-4885,-2951,-29392
1636899,-3.20605,-8.44102,1.54082,-88.6102,6.24023,-131.825,-1.15967,0.0610352,10.6812,0.325439,-0.249603,0.652496,-0.637115,-19247,-16870,1004,-2951,-29392
1636905,-2.65098,-9.42676,0.813477,-88.6102,6.3501,-131.776,-4.39453,-2.86865,10.1318,0.326294,-0.249054,0.652588,-0.63678,-10287,-14822,3052,-2951,-29392
1636911,-2.12461,-10.2594,0.550293,-88.5938,6.46545,-131.743,-1.46484,-0.0610352,10.498,0.327179,-0.248657,0.65274,-0.636353,-2351,-12518,5612,-2951,-29392
1636917,-2.73232,-10.4699,0.397168,-88.5663,6.5863,-131.721,2.01416,2.99072,11.9629,0.328033,-0.248138,0.652832,-0.636017,5074,-9702,8428,-2951,-29392
1636923,-3.08164,-10.4651,0.0526367,-88.5168,6.70166,-131.688,5.67627,-0.0610352,11.7798,0.329773,-0.246857,0.652802,-0.63562,12754,-7910,12780,-2959,-29391
1636929,-2.11504,-10.135,0.311035,-88.3575,6.92139,-131.589,13.0615,-1.34277,11.4746,0.330841,-0.246307,0.652527,-0.63559,26834,-5094,19180,-2959,-29391
1636935,-2.6749,-10.4412,0.119629,-88.2642,7.03125,-131.561,15.9912,1.77002,11.4136,0.331848,-0.245667,0.652222,-0.63562,-31278,-4838,23276,-2959,-29391
1636941,-3.3209,-10.0297,0.00478516,-88.1378,7.14111,-131.523,22.522,-0.12207,11.7188,0.332794,-0.244904,0.651886,-0.635773,-23342,-4326,26604,-2959,-29391
1636947,-3.40225,-9.62773,-0.0813477,-88.0005,7.24548,-131.473,24.292,-2.13623,10.5591,0.333862,-0.24411,0.651337,-0.636047,-15662,-3558,29420,-2959,-29391
1636953,-3.41182,-9.60381,0.411523,-87.8577,7.34436,-131.418,26.4893,-3.78418,10.0708,0.336121,-0.242706,0.649994,-0.63678,-7470,-2790,-32020,-2959,-29391
1636959,-2.98594,-9.09658,1.29199,-87.5391,7.53113,-131.287,29.48,-5.5542,10.1929,0.337311,-0.242096,0.6492,-0.637207,6867,-998,-25620,-2959,-29391
1636965,-2.99551,-9.01045,1.95234,-87.3798,7.63,-131.226,28.2593,-5.00488,10.8643,0.338531,-0.241425,0.648376,-0.637665,13267,283,-23572,-2959,-29391
1637049,-2.42129,-9.24014,2.01934,-84.2761,9.8877,-128.93,42.7246,-16.6626,31.9214,0.3685,-0.231476,0.631866,-0.641296,-9516,539,749,-2959,-29391
1637055,-2.50742,-9.33105,2.11504,-84.0454,10.0635,-128.793,41.3208,-16.8457,31.5552,0.370605,-0.230408,0.630676,-0.641632,-1580,1563,1261,-2959,-29391
1637061,-2.8041,-9.77129,2.58398,-83.8202,10.2338,-128.683,41.748,-11.2305,31.7383,0.372711,-0.229401,0.629517,-0.641937,6101,2587,1005,-2959,-29391
1637067,-3.45488,-9.78086,2.20596,-83.5895,10.415,-128.568,42.3584,-12.0239,32.8369,0.374634,-0.22821,0.628418,-0.642273,14037,4379,-276,-2959,-29391
1637073,-2.64141,-8.80947,2.46436,-83.3478,10.5908,-128.441,43.9453,-14.2822,32.4707,0.378693,-0.22583,0.626129,-0.643005,21717,6171,-1812,-2959,-29391
1637079,-2.59355,-9.24971,2.53135,-82.9138,10.9204,-128.221,36.377,-8.97217,30.4565,0.380615,-0.224701,0.624969,-0.643372,-28459,9243,-5652,-2959,-29391
1637085,-3.56016,-10.6087,1.89492,-82.7325,11.0962,-128.134,32.5317,-6.34766,32.0435,0.382385,-0.223572,0.624023,-0.643616,-21035,10779,-6164,-2959,-29391
1637091,-3.67021,-12.8003,2.79932,-82.5403,11.2939,-128.024,34.4849,-9.70459,37.4146,0.384094,-0.222382,0.62326,-0.643768,-13355,12315,-7444,-2959,-29391
1637097,-1.20586,-14.7048,6.41211,-82.3975,11.5631,-127.881,23.3765,-14.4653,52.8564,0.386047,-0.22113,0.622437,-0.643829,-5675,12827,-8468,-2959,-29391
1637103,-2.38779,-12.2931,3.38789,-82.2876,11.8872,-127.787,17.2729,-2.62451,63.7207,0.390747,-0.217896,0.621948,-0.642548,2262,13083,-10772,-2959,-29391
1637109,-2.95723,-13.2118,3.67021,-82.1228,12.6453,-127.672,11.4136,2.74658,78.6743,0.392853,-0.215607,0.622253,-0.641785,19414,13595,-15380,-2959,-29391
1637115,-2.47871,-13.9344,3.48838,-82.0624,13.0847,-127.612,9.09424,7.99561,86.1206,0.395355,-0.213318,0.622589,-0.640656,29398,14619,-17684,-2959,-29391
1637121,-3.21563,-14.0253,2.87588,-81.9965,13.5571,-127.579,10.8643,13.2446,93.1396,0.397888,-0.210724,0.623138,-0.639435,-25898,15899,-19988,-2959,-29391
1637127,-3.40225,-14.1354,3.11992,-81.9196,14.0625,-127.518,12.207,10.0098,100.403,0.400452,-0.207764,0.62381,-0.638153,-15146,17179,-22036,-2959,-29391
1637133,-2.60313,-15.4656,3.096,-81.8591,14.6173,-127.48,8.66699,14.5264,109.985,0.406281,-0.201263,0.625275,-0.635101,-3370,18459,-24596,-2959,-29391
1637139,-2.68447,-16.1021,3.30176,-81.7493,15.8588,-127.375,9.70459,16.9678,129.028,0.409332,-0.197601,0.626282,-0.63327,22999,20763,-30228,-2959,-29391
1637145,-2.44043,-15.0015,3.22041,-81.6669,16.5509,-127.304,13.5498,19.165,138.245,0.412872,-0.193756,0.627228,-0.631226,-27433,21787,31980,-2959,-29391
1637151,-2.40215,-14.121,3.98125,-81.601,17.287,-127.255,10.9863,24.1699,147.034,0.416595,-0.189545,0.628174,-0.62912,-13097,22811,29420,-2959,-29391
1637157,-2.81367,-13.1448,4.69424,-81.5625,18.0725,-127.194,5.5542,24.4751,158.142,0.42038,-0.185028,0.629303,-0.626831,2776,23067,27884,-2967,-29390
1637163,-2.95723,-14.8818,4.71338,-81.5845,18.8855,-127.167,-3.05176,37.4756,173.462,0.428223,-0.175415,0.632416,-0.621124,19672,23323,27372,-2967,-29390
1637169,-3.35439,-13.6616,3.80898,-81.6284,20.6653,-127.145,-6.40869,36.0718,182.8,0.432159,-0.170105,0.634277,-0.617981,-10024,23067,25324,-2967,-29390
1637175,-2.79453,-14.834,3.79941,-81.6833,21.6101,-127.112,-13.0005,34.3628,191.101,0.43634,-0.164612,0.6362,-0.614532,10457,22555,24300,-2967,-29390
1637181,-2.52178,-14.834,2.94766,-81.7657,22.6099,-127.09,-16.9678,37.7197,202.637,0.440674,-0.159058,0.638306,-0.610718,31449,21531,23788,-2967,-29390
1637187,-3.25869,-18.1357,2.91895,-81.8701,23.6536,-127.079,-21.8506,40.5884,210.632,0.445129,-0.153198,0.640625,-0.606537,-13351,20763,22764,-2967,-29390
1637193,-3.62715,-20.7149,3.26826,-81.9745,25.9113,-126.985,-8.11768,38.9404,238.892,0.454651,-0.140839,0.645355,-0.597382,8666,19739,21996,-2967,-29390
1637199,-3.68457,-19.7053,0.416309,-81.98,27.1252,-126.925,-6.10352,34.6069,249.023,0.459869,-0.133759,0.647522,-0.592651,-8230,16923,16876,-2967,-29390
1637205,-2.97158,-19.8488,0.234473,-81.9745,28.4546,-126.843,-3.96729,34.4238,274.048,0.465424,-0.126495,0.649536,-0.587677,18139,15131,14316,-2967,-29390
1637211,-4.77559,-21.6337,-1.82314,-81.958,29.8279,-126.755,-2.68555,34.9731,282.776,0.471527,-0.1185,0.651581,-0.582184,-20005,12571,12524,-2967,-29390
1637217,-4.07217,-23.8396,-0.277539,-81.8152,31.2726,-126.53,8.48389,12.146,302.124,0.477753,-0.110199,0.653564,-0.576508,6876,9499,10988,-2967,-29390
1637223,-0.861328,-28.4669,3.6415,-81.4691,34.4641,-126.041,14.9536,21.9727,344.849,0.492767,-0.0927124,0.656006,-0.564026,-30244,5915,9196,-2967,-29390
1637229,-1.6748,-30.5819,3.93818,-81.3098,36.2274,-125.854,14.4653,32.7148,367.371,0.50058,-0.0826721,0.657257,-0.55722,31197,-3558,3820,-2967,-29390
1637235,-1.20107,-32.1228,2.0959,-81.0516,38.0951,-125.585,21.9116,24.1699,392.09,0.508484,-0.0717468,0.658691,-0.549835,-1059,-8678,-533,-2967,-29390
1637241,0.311035,-32.0701,2.92373,-80.6891,40.0891,-125.283,38.208,25.6348,419.678,0.517059,-0.0601807,0.659668,-0.541992,-31010,-14822,-5653,-2967,-29390
1637247,-0.598145,-32.3237,3.44531,-80.3265,42.215,-125.03,43.0298,41.5649,445.19,0.535065,-0.0335083,0.660767,-0.525208,6367,-22758,-11285,-2967,-29390
1637253,0.478516,-32.941,1.96191,-79.3872,46.8127,-124.272,43.5181,33.8135,497.864,0.544464,-0.0188904,0.661041,-0.515869,16864,24346,-26389,-2967,-29390
1637259,2.49307,-29.022,-0.856543,-78.8379,49.2847,-123.805,46.1426,39.5508,521.362,0.554321,-0.00366211,0.661011,-0.505615,-7456,12314,31211,-2967,-29390
1637265,-2.70361,-25.4235,2.74189,-78.4149,51.839,-123.481,38.3301,67.1997,536.194,0.564209,0.0123291,0.660797,-0.49472,-28959,-1767,20971,-2967,-29390
1637271,-9.92441,-27.0696,1.82793,-78.1128,54.3933,-123.019,-9.33838,56.3354,537.964,0.573303,0.0291748,0.661102,-0.482971,17378,-18663,11243,-2967,-29390
1637277,-3.49795,-33.922,3.59365,-77.2668,56.9147,-121.921,-8.54492,-7.75146,548.95,0.593445,0.0589905,0.660553,-0.455963,483,26905,1771,-2967,-29390
1637283,-5.88574,-28.1846,7.13467,-75.2399,61.9299,-119.795,17.9443,27.4048,540.588,0.603302,0.0746765,0.658722,-0.443207,31716,-16616,-15894,-2967,-29390
1637289,-5.84268,-31.4863,3.1582,-73.8391,64.3359,-118.224,2.56348,-3.66211,534.668,0.612305,0.0900879,0.657196,-0.430023,17125,23064,-25622,-2967,-29390
1637295,0.803906,-35.6303,-0.45459,-71.9879,66.6266,-116.279,19.9585,-16.0522,519.836,0.621826,0.104248,0.654846,-0.416534,3302,-5865,29930,-2967,-29390
1637301,3.99561,-32.2376,-3.17256,-69.7797,68.7909,-114.164,52.7344,-7.01904,497.986,0.631012,0.118164,0.651672,-0.403839,-10778,27927,18666,-2967,-29390
1637307,1.77529,-28.041,-3.44531,-67.2693,70.7849,-111.769,57.1289,-6.10352,469.299,0.64621,0.145996,0.644257,-0.381989,-24601,-6890,6634,-2967,-29390
1637313,16.8198,-15.4465,-13.8052,-59.3701,74.0863,-104.095,67.9321,-82.5806,423.645,0.653748,0.158386,0.639618,-0.371857,8937,-14571,-18199,-2967,-29390
1637319,21.6146,-5.94795,-13.8243,-54.278,75.3333,-99.5197,139.038,-69.3359,384.827,0.661682,0.169556,0.633545,-0.363251,-9239,13077,-31767,-2967,-29390
1637325,7.83809,28.3568,-3.63672,-49.8285,76.2891,-95.8722,186.035,-28.3203,305.664,0.667786,0.181854,0.626892,-0.357605,-28182,-26348,19177,-2967,-29390
1637331,-6.58916,38.4918,-5.69434,-47.3236,76.3605,-93.5266,49.1333,-79.7729,128.296,0.67099,0.193909,0.621216,-0.355164,16875,-1005,4329,-2967,-29390
1637337,9.66123,11.939,-3.38789,-46.1371,75.7507,-91.9885,-59.021,-144.47,8.17871,0.677521,0.191437,0.614868,-0.355194,-5909,24595,-13592,-2967,-29390
1637343,5.67998,-1.72266,-5.63691,-48.8507,73.8501,-94.0045,-81.4819,-112.671,-163.757,0.677948,0.184326,0.614838,-0.358154,3053,18450,14568,-2967,-29390
1637349,11.8959,-6.54131,-2.39736,-50.5865,72.4878,-95.191,-118.286,-136.108,-205.75,0.67804,0.174622,0.614777,-0.362915,-32531,-11503,-4633,-2967,-29390
1637355,14.1162,-13.3506,-2.2873,-52.7563,71.131,-96.8115,-124.207,-103.088,-229.309,0.678223,0.162323,0.614899,-0.368042,-6931,29201,-24601,-2967,-29390
1637361,12.1687,-17.3031,-2.60791,-54.8273,69.7742,-98.432,-106.445,-87.8906,-236.267,0.677002,0.14975,0.61618,-0.373413,13550,9745,22759,-2967,-29390
1637367,11.4222,-18.5951,-2.49307,-56.5851,68.4064,-99.8438,-85.6934,-87.4634,-237,0.672699,0.126373,0.618591,-0.385651,29678,-4592,4327,-2967,-29390
1637373,11.1494,-16.8581,-1.03359,-59.5184,65.7477,-102.502,-33.2642,-64.4531,-233.398,0.66983,0.115936,0.619415,-0.392548,-15378,-18416,-30490,-2967,-29390
1637379,11.4413,-14.6569,-0.354102,-60.7269,64.4513,-103.777,-8.05664,-54.7485,-232.788,0.666443,0.106567,0.620026,-0.399963,-8978,-20464,19942,-2967,-29390
1637385,11.6423,-12.5132,-0.29668,-61.8365,63.1714,-105.079,13.5498,-41.687,-234.375,0.662537,0.098114,0.620392,-0.407928,-6418,-18416,7654,-2967,-29390
1637391,10.9771,-10.202,-0.368457,-62.9022,61.897,-106.441,30.7007,-26.3672,-238.77,0.658081,0.0904541,0.620697,-0.416382,-6162,-13552,-4635,-2951,-29392
1637397,9.92441,-5.88574,-0.650781,-63.9459,60.6061,-107.864,43.0298,-13.3667,-245.972,0.647125,0.0768127,0.621521,-0.434631,-8210,-5872,-16667,-2951,-29392
1637403,9.13965,-3.60801,-0.899609,-66.1102,57.9254,-110.896,46.3257,13.1836,-270.264,0.640625,0.0703125,0.622192,-0.444305,-18962,14865,23013,-2951,-29392
1637409,8.10606,-1.73701,-1.30156,-67.3077,56.4807,-112.505,34.1797,24.7192,-289.062,0.633392,0.0636292,0.62323,-0.454132,-25874,25873,10981,-2951,-29392
1637415,7.5749,-1.3542,-1.9667,-68.5767,54.9481,-114.137,20.2026,33.02,-309.387,0.625397,0.0563049,0.624756,-0.46402,30446,-26863,-28,-2951,-29392
1637421,6.93369,-1.90449,-2.72275,-69.884,53.3112,-115.752,5.37109,39.2456,-328.247,0.616608,0.0481873,0.626709,-0.473907,18926,-12015,-9244,-2951,-29392
1637427,5.34502,-3.95732,-4.19658,-71.2024,51.5918,-117.328,-7.99561,44.6167,-344.971,0.597046,0.0296631,0.631653,-0.4935,5358,4114,-17180,-2951,-29392
1637433,4.34492,-5.05312,-4.38799,-73.7677,47.9443,-120.256,-32.5928,47.7295,-367.493,0.586426,0.0194397,0.634491,-0.503021,-27411,-22766,-28444,-2951,-29392
1637439,3.33525,-5.88096,-4.44541,-74.9707,46.0327,-121.542,-45.166,43.8232,-374.023,0.575439,0.00863647,0.63739,-0.512268,18925,-238,-31260,-2951,-29392
1637445,2.79453,-6.80928,-4.23486,-76.1188,44.0936,-122.701,-57.251,39.7949,-377.686,0.56424,-0.00271606,0.640289,-0.521118,-276,22547,32228,-2951,-29392
1637451,2.2251,-7.88594,-4.09609,-77.2174,42.1271,-123.755,-67.9321,37.0483,-379.028,0.552917,-0.0145569,0.643127,-0.52948,-21780,-18669,31972,-2951,-29392
1637457,1.40205,-10.001,-3.78506,-78.2501,40.155,-124.684,-76.1108,31.3721,-378.601,0.53006,-0.0392151,0.64856,-0.544739,19948,7956,-32540,-2951,-29392
1637463,0.607715,-10.824,-3.675,-80.1123,36.2054,-126.194,-84.5337,19.043,-374.817,0.518738,-0.0518799,0.65097,-0.551697,31723,-1516,-26652,-2951,-29392
1637469,-0.00957031,-11.2978,-3.26826,-80.9308,34.2334,-126.782,-86.4868,10.6201,-372.986,0.507477,-0.0646362,0.653076,-0.558258,1003,28181,-21532,-2951,-29392
1637475,-0.708203,-11.8385,-2.97158,-81.6888,32.2668,-127.277,-88.562,3.41797,-370.361,0.496399,-0.0775452,0.654816,-0.564484,-29462,-8939,-15644,-2951,-29392
1637481,-1.39248,-12.5467,-2.56484,-82.392,30.3113,-127.672,-90.1489,-4.5166,-368.286,0.485504,-0.0905762,0.65625,-0.570374,2538,19734,-8476,-2951,-29392
1637487,-2.10547,-13.9248,-1.73701,-83.0402,28.3722,-127.974,-91.2476,-13.6108,-364.868,0.464325,-0.116913,0.65802,-0.581055,31721,-16106,-284,-2951,-29392
1637493,-2.31602,-14.298,-1.14365,-84.1992,24.5435,-128.326,-91.4917,-30.4565,-357.727,0.454132,-0.130219,0.658356,-0.585876,16872,-23017,20965,-2934,-29394
1637499,-2.56963,-14.6904,-0.569434,-84.7266,22.6648,-128.392,-91.4307,-36.7432,-354.187,0.444214,-0.143524,0.658325,-0.590393,-26137,5400,-31259,-2934,-29394
1637505,-2.8041,-15.1259,0.0861328,-85.2319,20.8136,-128.408,-92.1021,-41.9922,-349.182,0.43454,-0.15683,0.65799,-0.594574,-4890,-32488,-16923,-2934,-29394
1637511,-3.1582,-15.6666,0.832617,-85.7208,19.0009,-128.375,-93.5059,-44.7998,-343.811,0.425079,-0.170074,0.65741,-0.598389,18150,-6632,-2843,-2934,-29394
1637517,-4.26836,-16.7528,2.03369,-86.2042,17.2266,-128.309,-94.4824,-48.584,-329.895,0.406799,-0.196075,0.65567,-0.605011,-26139,18457,12006,-2934,-29394
1637523,-4.60811,-16.9538,2.46436,-87.149,13.8153,-128.079,-96.1914,-49.5605,-322.937,0.397949,-0.20874,0.654572,-0.607819,11492,794,-23066,-2934,-29394
1637529,-4.68945,-17.3271,2.97637,-87.6379,12.1729,-127.925,-100.342,-50.1099,-316.223,0.389343,-0.221191,0.653381,-0.610291,27875,22298,-6682,-2934,-29394
1637535,-4.38799,-17.9013,3.44531,-88.1488,10.5743,-127.76,-105.103,-48.645,-309.998,0.380859,-0.233429,0.652191,-0.612366,-23582,-22758,10471,-2934,-29394
1637541,-4.1918,-18.6573,3.92383,-88.6761,9.00879,-127.59,-108.765,-44.0063,-304.749,0.372467,-0.245483,0.651031,-0.614044,-7711,-4070,27111,-2934,-29394
1637547,-4.6416,-19.0449,4.76123,-89.22,7.46521,-127.425,-116.516,-35.9497,-306.641,0.35556,-0.268768,0.648834,-0.616638,6369,12827,-20249,-2934,-29394
1637553,-4.91914,-19.3512,4.79951,-90.368,4.31763,-127.101,-119.995,-32.1655,-315.552,0.346802,-0.280304,0.647705,-0.617645,31199,-24805,21480,-2934,-29394
1637559,-5.35938,-19.9637,4.64639,-90.9558,2.66968,-126.936,-121.094,-29.0527,-330.261,0.337646,-0.291931,0.646484,-0.618622,-23074,-13541,-23064,-2934,-29394
1637565,-5.74219,-20.691,4.61768,-91.5436,0.939331,-126.771,-120.605,-25.8789,-347.351,0.327942,-0.303772,0.64502,-0.61969,-13603,-4069,-2584,-2934,-29394
1637571,-6.04844,-21.7007,4.68467,-92.1313,-0.856934,-126.601,-119.812,-22.2168,-364.136,0.317688,-0.315857,0.643188,-0.620911,-5668,3612,18409,-2934,-29394
1637577,-6.37383,-23.6004,5.08184,-92.7026,-2.7356,-126.442,-115.112,-9.0332,-395.203,0.295441,-0.340637,0.638336,-0.623779,4060,9500,-27159,-2934,-29394
1637583,-6.90977,-24.6483,5.13447,-93.8068,-6.66321,-126.183,-111.694,1.58691,-405.945,0.283386,-0.353058,0.635376,-0.625488,18394,14620,12522,-2934,-29394
1637589,-7.79023,-25.6484,4.82344,-94.3176,-8.68469,-126.118,-106.201,13.9771,-412.781,0.270752,-0.365295,0.63205,-0.627411,22745,12572,-32534,-2934,-29394
1637595,-9.30234,-26.3327,4.18701,-94.7845,-10.7117,-126.096,-98.3276,27.1606,-416.26,0.25766,-0.377136,0.628448,-0.629517,25304,7964,-13334,-2934,-29394
1637601,-11.4413,-26.0504,3.76592,-95.1801,-12.7441,-126.129,-86.792,39.7949,-416.87,0.244171,-0.388428,0.624542,-0.631927,26071,-485,4075,-2934,-29394
1637607,-16.5854,-22.4998,5.10576,-95.8502,-16.6882,-126.293,-78.6743,55.3589,-402.161,0.216888,-0.409119,0.615692,-0.637482,29142,-10469,20203,-2934,-29394
1637613,-23.0357,-28.7205,6.81885,-96.3391,-18.49,-126.431,-113.892,62.439,-375.366,0.203339,-0.418457,0.611267,-0.640137,30420,25883,-16917,-2943,-29393
1637619,-26.9787,-26.3375,7.46963,-96.5753,-20.1709,-126.595,-66.2231,65.6738,-352.966,0.189697,-0.427032,0.608246,-0.641541,30163,6939,-6165,-2943,-29393
1637625,-26.2992,-17.9587,7.62275,-96.861,-21.7365,-126.711,-73.8525,54.6875,-333.496,0.177521,-0.434326,0.604187,-0.643951,29906,-14054,3308,-2943,-29393
1637631,-25.6771,-14.4799,9.01045,-97.1686,-23.2361,-126.848,-81.1157,58.5938,-321.35,0.166077,-0.441315,0.600555,-0.64566,30929,27674,11500,-2943,-29393
1637637,-31.0796,-21.5236,5.43115,-97.8168,-25.9387,-127.205,-84.4116,62.439,-282.166,0.143494,-0.453552,0.594727,-0.64798,-28976,3610,18156,-2943,-29393
1637643,-36.0562,-24.1746,1.3542,-97.9321,-27.0978,-127.381,-48.4619,57.8003,-258.24,0.133179,-0.458618,0.592255,-0.648895,-13362,17177,26604,-2943,-29393
1637649,-42.6357,-21.6146,-0.890039,-97.8223,-28.114,-127.491,2.80762,43.2739,-233.154,0.12439,-0.462891,0.589172,-0.650391,-2355,-11240,28652,-2943,-29393
1637655,-46.7558,-15.4656,-0.531152,-97.5531,-28.96,-127.524,42.2974,23.0713,-205.566,0.117798,-0.466522,0.585083,-0.65271,10189,25368,29164,-2943,-29393
1637661,-49.4498,-7.45049,0.77041,-97.2565,-29.6246,-127.491,53.4668,6.71387,-171.997,0.113342,-0.469757,0.580322,-0.655426,25292,-4841,28396,-2943,-29393
1637667,-52.0242,6.76143,4.41191,-97.0862,-30.3113,-127.293,-0.183105,-19.4702,-93.3838,0.108917,-0.474609,0.572662,-0.659393,-22069,30231,26092,-2943,-29393
1637673,-51.5553,9.68037,5.84268,-97.3553,-30.3333,-127.161,-50.5981,-28.4424,-53.2227,0.108032,-0.476196,0.57132,-0.659576,24778,-26858,20460,-2943,-29393
1637679,-49.4067,7.50791,6.56045,-97.8552,-30.1465,-127.024,-96.0083,-35.4614,-13.4277,0.107544,-0.477203,0.572266,-0.658112,-13111,11798,17388,-2943,-29393
1637685,-46.0571,-8.575,-0.77041,-98.6298,-29.7455,-126.848,-146.79,-47.5464,26.3062,0.107422,-0.47757,0.575317,-0.655212,17865,-13547,14828,-2943,-29393
1637691,-44.9183,-36.0083,22.1601,-99.3219,-28.9325,-126.612,-127.136,-72.3877,107.239,0.107758,-0.477509,0.580566,-0.650543,-13624,28693,14060,-2943,-29393
1637697,-31.9218,-30.2039,18.8439,-98.8934,-26.51,-126.299,97.3511,-70.4346,210.144,0.119232,-0.472382,0.590668,-0.643158,-57,-9452,19180,-2943,-29393
1637703,-21.6959,-98.0479,14.0444,-99.5911,-24.5929,-125.623,-93.75,-186.89,317.139,0.13031,-0.46701,0.592468,-0.64328,-20025,-23276,23020,-2943,-29393
1637709,11.1016,-12.6711,14.4512,-97.0258,-22.7252,-125.568,506.836,-68.0542,328.125,0.143433,-0.463226,0.600952,-0.635284,29895,-32492,27372,-2943,-29393
1637715,31.027,30.7016,-34.678,-95.6085,-20.7587,-125.299,293.457,-94.9707,346.375,0.165741,-0.451935,0.593384,-0.64505,18631,29204,31980,-2943,-29393
1637721,32.2759,17.1069,61.6137,-95.4712,-18.5999,-125.92,-28.7476,67.9321,403.809,0.184906,-0.44223,0.591675,-0.648102,12231,29204,-30228,-2943,-29393
1637727,-2.1916,-21.0116,-5.01006,-95.4987,-14.2603,-127.211,-37.6587,24.4751,418.762,0.202759,-0.414001,0.611847,-0.64267,13767,-23532,-25108,-2943,-29393
1637733,1.68916,-22.7151,11.2786,-95.1471,-12.1509,-127.711,33.1421,55.1758,398.193,0.214233,-0.401245,0.620789,-0.638428,19399,-14060,-23572,-2951,-29392
1637739,-4.85215,-5.69912,9.61338,-94.4879,-10.1843,-128.419,88.9893,103.821,374.146,0.225433,-0.387512,0.627411,-0.636597,29639,-2284,-21268,-2951,-29392
1637745,-13.2645,-4.12002,6.91934,-94.2847,-8.32214,-129.084,4.21143,100.342,350.891,0.235474,-0.372406,0.632294,-0.637146,-21561,13077,-19732,-2951,-29392
1637751,-14.0731,-17.8582,3.74199,-94.1364,-6.61926,-129.672,0.0610352,89.7217,320.557,0.2435,-0.358826,0.638885,-0.635345,-3385,30997,-20244,-2951,-29392
1637757,-17.7816,-17.0495,-1.26807,-92.8674,-3.81226,-130.787,146.301,78.125,236.389,0.257477,-0.333771,0.64859,-0.633667,-22072,6166,-24084,-2951,-29392
1637763,-12.4318,-5.45986,0.641211,-92.2192,-2.58179,-130.842,118.774,0.549316,219.055,0.264832,-0.322357,0.648865,-0.63623,2761,26902,-27668,-2951,-29392
1637769,-5.24453,-5.68477,6.80928,-91.8896,-1.47766,-130.825,55.1758,-9.21631,193.97,0.273499,-0.313873,0.648682,-0.637024,29641,-17898,-31252,-2951,-29392
1637775,-3.91904,-9.53682,5.70391,-91.6974,-0.505371,-131.012,26.062,32.0435,170.41,0.280792,-0.307129,0.649689,-0.636078,-7223,3351,30700,-2951,-29392
1637781,-12.7764,-9.96748,11.7476,-91.3623,0.236206,-131.572,55.2368,109.009,127.258,0.285828,-0.300262,0.651642,-0.635132,21706,24599,25836,-2951,-29392
1637787,-12.7189,-9.01045,-5.8666,-91.2085,0.807495,-131.946,-20.874,5.79834,31.5552,0.288086,-0.287994,0.653503,-0.637878,12747,-233,15852,-2951,-29392
1637793,-1.65088,-18.174,-0.933105,-91.0712,1.12061,-131.836,18.0054,-20.6299,36.6821,0.289429,-0.286377,0.654602,-0.636871,-26165,17944,10476,-2951,-29392
1637799,3.46924,-14.4081,2.02412,-90.6647,1.45569,-131.885,73.1812,11.2915,43.457,0.292145,-0.284912,0.654327,-0.636566,-1077,-31208,5868,-2951,-29392
1637805,-1.20586,-4.74209,3.52188,-90.2417,1.77429,-132.083,77.5757,41.3818,40.5884,0.294769,-0.281677,0.653015,-0.638123,23244,-16360,2284,-2951,-29392
1637811,-5.92402,-1.86621,1.18193,-90.0659,2.05994,-132.177,28.0762,20.5078,33.6914,0.298004,-0.275055,0.651825,-0.640747,-19508,-2792,-1045,-2951,-29392
1637817,-2.22031,-7.99121,1.43555,-89.9121,2.54883,-132.204,9.52148,12.0239,22.3389,0.299744,-0.273529,0.652039,-0.64035,22221,22809,-6421,-2951,-29392
1637823,-5.19668,-8.18262,0.430664,-89.8242,2.75208,-132.314,10.6812,24.4751,17.9443,0.300964,-0.271729,0.652191,-0.640381,-24371,-30695,-8469,-2951,-29392
1637829,-6.08193,-8.86211,-0.516797,-89.7363,2.91687,-132.319,10.437,4.3335,9.8877,0.301666,-0.269714,0.652466,-0.640656,-6451,-19431,-10261,-2951,-29392
1637835,-2.72275,-9.29756,0.440234,-89.6429,3.0542,-132.248,10.6201,-11.2305,5.79834,0.302734,-0.268524,0.652374,-0.640747,11470,-9447,-11541,-2951,-29392
1637841,-0.655566,-10.3503,1.20107,-89.577,3.18604,-132.237,7.01904,0.610352,4.82178,0.304138,-0.267883,0.652008,-0.640717,28878,282,-12053,-2951,-29392
1637847,-3.39746,-10.3312,0.942676,-89.4122,3.4552,-132.237,8.48389,1.28174,7.50732,0.305939,-0.265961,0.651733,-0.64093,-20530,9754,-11285,-2951,-29392
1637853,-3.05771,-10.5465,1.32549,-89.3353,3.59253,-132.226,8.05664,1.64795,8.05664,0.306946,-0.265015,0.651611,-0.640961,9423,26650,-6677,-2951,-29392
1637859,-3.37354,-11.4078,1.31592,-89.2694,3.73535,-132.22,7.44629,2.01416,9.52148,0.307953,-0.264099,0.651489,-0.640991,23247,-31462,-3861,-2951,-29392
1637865,-3.06729,-10.2929,0.502441,-89.165,3.89465,-132.166,14.6484,-6.46973,13.3057,0.308929,-0.263153,0.651428,-0.640961,-29233,-24806,-1045,-2951,-29392
1637871,-1.68916,-10.7235,2.3543,-89.0936,4.05396,-132.111,8.48389,-6.46973,14.1602,0.310364,-0.262238,0.651093,-0.640991,-16689,-18406,2796,-2951,-29392
1637877,-3.87598,-10.2163,1.59824,-88.9288,4.39453,-132.083,9.33838,1.83105,16.7847,0.312927,-0.260284,0.650818,-0.640839,7888,-7398,12012,-2951,-29392
1637883,-3.06729,-9.52246,2.4165,-88.83,4.57031,-132.023,14.0991,-8.11768,19.165,0.314087,-0.259186,0.650757,-0.640747,19664,-2278,15596,-2951,-29392
1637889,-2.02412,-8.74248,1.94756,-88.7585,4.74609,-131.99,7.8125,-1.64795,18.6157,0.315674,-0.25824,0.650452,-0.640686,31440,2587,18412,-2951,-29392
1637895,-2.7084,-9.62295,2.26816,-88.6981,4.9054,-131.962,6.34766,0.183105,15.9302,0.316956,-0.257233,0.650391,-0.640503,-23088,6939,21740,-2951,-29392
1637901,-1.804,-9.38848,1.55518,-88.6487,5.0592,-131.924,5.00488,-2.68555,15.3809,0.318085,-0.256256,0.650391,-0.64035,-11568,11291,24044,-2951,-29392
1637907,-2.72754,-9.77607,1.27285,-88.5663,5.35034,-131.863,1.95312,-0.427246,14.4043,0.320343,-0.254669,0.65036,-0.639862,9425,19483,29420,-2951,-29392
1637913,-2.63184,-9.2832,1.80879,-88.5114,5.49316,-131.825,5.79834,-1.95312,14.6484,0.321381,-0.253906,0.650421,-0.639587,19409,22811,32236,-2951,-29392
1637919,-2.31602,-8.41709,2.17725,-88.4674,5.625,-131.803,3.72314,0.549316,13.6108,0.322479,-0.253113,0.65036,-0.639435,28881,25883,-29716,-2951,-29392
1637925,-3.10557,-8.58457,1.87578,-88.4509,5.75684,-131.786,-2.19727,1.89209,12.6953,0.323425,-0.25235,0.65036,-0.639221,-26927,28443,-25364,-2951,-29392
1637931,-3.1582,-9.20664,0.961816,-88.4509,5.88318,-131.759,-4.88281,0,11.6577,0.32428,-0.251617,0.650543,-0.638916,-17455,30491,-19988,-2951,-29392
1637937,-3.0625,-9.75693,0.459375,-88.418,6.12488,-131.71,-1.2207,2.0752,12.2681,0.325958,-0.250458,0.650879,-0.638153,1746,-32741,-8980,-2951,-29392
1637943,-3.49795,-10.312,0.363672,-88.3905,6.25122,-131.682,0.671387,-0.366211,12.4512,0.326752,-0.249786,0.651031,-0.637878,11730,-31717,-3092,-2951,-29392
1637949,-3.29697,-10.4795,0.14834,-88.3521,6.36658,-131.649,3.96729,-0.488281,11.7188,0.327637,-0.249176,0.651093,-0.637573,20178,-29925,1517,-2951,-29392
1637955,-3.29697,-10.891,0.090918,-88.2806,6.48193,-131.611,9.76562,-2.99072,11.8408,0.328522,-0.248535,0.651062,-0.637421,28626,-28133,6637,-2951,-29392
1637961,-2.45957,-10.3694,0.45459,-88.1708,6.59729,-131.556,18.0054,-4.5166,12.0239,0.329559,-0.247925,0.650848,-0.63736,-28974,-26597,10477,-2951,-29392
1637967,-3.04336,-9.87656,0.153125,-87.9456,6.81702,-131.484,18.6768,-1.0376,11.0474,0.331757,-0.246429,0.649902,-0.637756,-13870,-23781,16621,-2951,-29392
1637973,-3.46445,-10.2546,-0.31582,-87.8137,6.93237,-131.44,22.583,-2.56348,12.4512,0.332764,-0.245697,0.649445,-0.63797,-5934,-23013,19181,-2951,-29392
1637979,-3.48838,-10.2881,0.0478516,-87.6544,7.03674,-131.385,28.8086,-4.39453,11.9629,0.333893,-0.244904,0.648895,-0.638245,1235,-22245,22253,-2951,-29392
1637985,-2.90459,-9.26885,0.468945,-87.4622,7.14661,-131.32,35.7056,-7.26318,11.5356,0.335083,-0.24408,0.648132,-0.638702,8403,-21477,27117,-2951,-29392
1637991,-2.81846,-8.94824,1.79443,-87.2809,7.24548,-131.259,33.1421,-5.79834,10.5591,0.336456,-0.243286,0.647156,-0.639282,15059,-20453,31469,-2951,-29392
1637997,-1.91406,-9.08223,2.01934,-86.9568,7.44873,-131.116,26.1841,-7.99561,11.8408,0.338989,-0.241791,0.645355,-0.64032,28115,-19173,-27155,-2951,-29392
1638003,-2.26338,-9.86221,1.58389,-86.825,7.5531,-131.05,23.1323,-7.08008,12.5122,0.34024,-0.24115,0.644592,-0.640656,-31021,-18661,-26643,-2951,-29392
1638009,-2.65576,-9.88135,1.11494,-86.6821,7.66296,-130.974,25.3296,-9.27734,14.0381,0.341461,-0.240509,0.643951,-0.6409,-24109,-18405,-27155,-2951,-29392
1638015,-2.86631,-9.85742,1.11973,-86.5283,7.77283,-130.891,27.3438,-9.27734,15.3198,0.342773,-0.239899,0.643219,-0.641174,-16941,-17893,-26899,-2951,-29392
1638021,-3.18691,-9.54639,1.14365,-86.369,7.89368,-130.803,28.3203,-11.1084,15.9912,0.344147,-0.239197,0.642456,-0.641479,-10541,-17125,-26387,-2951,-29392
1638027,-2.90459,-9.24492,1.40684,-86.0394,8.12988,-130.573,29.8462,-17.5171,17.0898,0.347137,-0.237946,0.640808,-0.641998,2004,-15589,-24083,-2951,-29392
1638033,-2.72754,-9.15879,1.37334,-85.8691,8.24524,-130.435,28.4424,-19.8364,17.9443,0.348785,-0.237396,0.639832,-0.642242,7892,-14821,-23059,-2951,-29392
1638039,-2.50264,-9.80957,1.13408,-85.7098,8.37708,-130.292,27.4658,-21.2402,19.8364,0.350525,-0.236938,0.638916,-0.642395,14292,-14309,-23059,-2951,-29392
1638045,-2.29688,-10.7762,0.741699,-85.5341,8.50891,-130.144,30.0293,-22.3999,22.1558,0.352325,-0.236481,0.638,-0.642487,20948,-13029,-24595,-2951,-29392
1638051,-2.5792,-11.1877,0.378027,-85.3308,8.65723,-129.99,35.8276,-22.3999,24.5361,0.356262,-0.235291,0.635895,-0.642822,27604,-11493,-26643,-2951,-29392
1638057,-2.65576,-11.1159,1.0623,-84.8309,8.99231,-129.644,47.3633,-27.71,31.0669,0.35849,-0.234497,0.634613,-0.643158,-24876,-9701,-30995,-2951,-29392
1638063,-2.10547,-9.83828,1.28721,-84.5398,9.16809,-129.457,52.6123,-27.9541,32.8979,0.360931,-0.233643,0.633148,-0.643555,-18732,-8677,31981,-2951,-29392
1638069,-1.85186,-9.63731,2.05283,-84.2596,9.35486,-129.287,50.9644,-24.231,34.3018,0.363495,-0.232666,0.631531,-0.644043,-12076,-7397,30189,-2951,-29392
1638075,-2.18203,-9.7043,1.24893,-84.0015,9.54712,-129.128,46.7529,-22.583,35.5225,0.365936,-0.231598,0.630066,-0.644501,-5676,-5605,28397,-2951,-29392
1638081,-2.85195,-10.9532,2.01934,-83.7268,9.74487,-128.974,50.354,-20.6299,37.2314,0.370758,-0.229279,0.627319,-0.645233,1237,-4325,27373,-2959,-29391
1638087,-3.60801,-9.37891,1.64131,-83.1061,10.1459,-128.644,59.5093,-24.5972,37.9639,0.373199,-0.227905,0.625854,-0.645752,15829,-1509,24301,-2959,-29391
1638093,-2.47871,-8.79033,2.78496,-82.7875,10.3326,-128.485,58.4106,-21.5454,35.9497,0.375824,-0.226593,0.624115,-0.646332,23253,-485,20973,-2959,-29391
1638099,-2.8998,-8.47451,2.91895,-82.5073,10.5194,-128.337,51.5747,-18.9209,35.5835,0.378265,-0.225281,0.622467,-0.646973,31957,540,18669,-2959,-29391
1638105,-3.096,-9.48418,3.06729,-82.2601,10.7117,-128.194,44.1895,-17.8223,36.3159,0.380585,-0.22403,0.621033,-0.64743,-24363,796,16621,-2959,-29391
1638111,-3.23477,-10.8479,2.95723,-82.0294,10.9149,-128.051,42.0532,-16.9678,39.4897,0.385071,-0.221558,0.618713,-0.647858,-15147,1052,16365,-2959,-29391
1638117,-1.02881,-14.2598,5.01484,-81.7822,11.5302,-127.766,12.3291,-9.94873,67.9321,0.387543,-0.220184,0.618164,-0.647369,4310,2332,15597,-2959,-29391
1638123,-2.7084,-14.3076,2.71797,-81.6833,11.9147,-127.672,15.1978,-1.89209,75.7446,0.390106,-0.218475,0.618225,-0.646362,14038,3356,14061,-2959,-29391
1638129,-2.99072,-14.2311,3.029,-81.546,12.3376,-127.546,21.9727,-6.5918,84.8389,0.39267,-0.216278,0.618408,-0.645355,24790,4124,12525,-2959,-29391
1638135,-2.01455,-12.7429,3.85684,-81.3977,12.7936,-127.408,22.9492,-7.75146,91.7969,0.39566,-0.213867,0.618408,-0.644348,-29994,4892,10221,-2959,-29391
1638141,-1.40684,-11.5753,4.1583,-81.2604,13.277,-127.299,22.2168,-0.671387,96.9238,0.402039,-0.208435,0.61853,-0.642059,-17706,5916,7661,-2959,-29391
1638147,-2.10068,-13.1879,4.60332,-81.0846,14.3427,-127.156,10.1929,8.78906,110.596,0.405029,-0.205292,0.619019,-0.640686,8663,8220,749,-2959,-29391
1638153,-2.55527,-14.9058,4.31143,-81.0352,14.9414,-127.079,6.95801,17.0288,118.835,0.408142,-0.201996,0.619751,-0.639069,21719,8988,-2324,-2959,-29391
1638159,-3.54102,-16.4035,2.75146,-80.9857,15.5731,-127.013,7.87354,20.874,125.732,0.411438,-0.198517,0.620697,-0.637115,-29993,8988,-5652,-2959,-29391
1638165,-3.50273,-15.7001,2.88066,-80.8868,16.2598,-126.909,15.1367,14.3433,138.062,0.414825,-0.194733,0.621735,-0.635071,-15657,8476,-8468,-2959,-29391
1638171,-1.90928,-14.7766,3.01465,-80.799,16.9794,-126.81,12.4512,16.7236,144.897,0.422699,-0.186401,0.623505,-0.630615,-297,7708,-11284,-2959,-29391
1638177,-2.26338,-13.3554,5.01006,-80.6561,18.5394,-126.689,8.97217,28.4424,161.072,0.426666,-0.181671,0.624573,-0.628296,-29736,7196,-17940,-2959,-29391
1638183,-1.94277,-12.9917,5.17754,-80.6342,19.3634,-126.661,2.86865,34.729,165.039,0.430664,-0.176727,0.625916,-0.625641,-9768,6940,-21268,-2959,-29391
1638189,-2.65098,-13.6042,6.34033,-80.6451,20.2478,-126.65,-2.2583,39.7339,177.124,0.43454,-0.171631,0.627502,-0.622772,9945,6428,-24596,-2959,-29391
1638195,-2.3543,-12.5467,4.39756,-80.722,21.1597,-126.656,-14.5264,43.396,182.19,0.438538,-0.166168,0.629364,-0.619537,30681,5404,-27668,-2967,-29390
1638201,-2.75146,-15.523,3.2252,-80.7935,22.121,-126.639,-15.625,42.2363,194.214,0.446655,-0.154999,0.633942,-0.611969,-13351,4124,-31252,-2967,-29390
1638207,-3.17256,-18.1357,2.77061,-81.0901,24.1754,-126.694,-24.9023,49.9878,212.524,0.450623,-0.149139,0.636749,-0.607574,31194,3356,26604,-2967,-29390
1638213,-3.62236,-21.4519,4.09131,-81.2,25.307,-126.672,-22.9492,43.5791,230.469,0.454926,-0.142883,0.639465,-0.602997,-10534,3100,21996,-2967,-29390
1638219,-2.23945,-21.3753,1.67002,-81.2933,26.499,-126.661,-19.165,47.2412,243.286,0.459808,-0.136261,0.642059,-0.598022,12251,2844,17644,-2967,-29390
1638225,-3.86162,-22.4185,0.0957031,-81.3593,27.7954,-126.661,-11.0474,51.0864,263.245,0.464874,-0.12915,0.644653,-0.592896,-28709,2076,14828,-2967,-29390
1638231,-4.24443,-25.4618,-0.90918,-81.3647,29.1577,-126.584,-6.34766,39.5508,280.945,0.47641,-0.112976,0.649353,-0.581818,-2341,28,13036,-2967,-29390
1638237,-2.02412,-27.0648,-2.83281,-81.1066,32.135,-126.189,11.7798,20.1416,320.129,0.483368,-0.10437,0.65094,-0.575867,-10532,-5605,10988,-2967,-29390
1638243,-2.25381,-28.553,-1.98105,-80.9143,33.7665,-125.991,21.1182,28.2593,340.454,0.490845,-0.0951538,0.652283,-0.56958,20701,-8165,8684,-2967,-29390
1638249,-4.01475,-30.0651,-0.368457,-80.6891,35.5188,-125.739,20.813,24.231,366.638,0.498474,-0.0849915,0.653534,-0.56308,-11811,-12261,4844,-2967,-29390
1638255,-2.01934,-32.9554,-0.181836,-80.343,37.37,-125.365,28.8086,9.94873,390.991,0.506714,-0.0742188,0.654694,-0.555878,20190,-16101,236,-2967,-29390
1638261,-1.45469,-34.6015,2.23945,-79.3817,41.4679,-124.601,58.1665,30.1514,444.824,0.525269,-0.0503235,0.655365,-0.540314,-11042,-21989,-5397,-2967,-29390
1638267,-1.76572,-35.281,1.35898,-78.75,43.7146,-124.118,66.2842,21.9727,474.915,0.534668,-0.036377,0.655457,-0.532043,-1569,24859,-21013,-2967,-29390
1638273,-1.15322,-35.5202,1.82793,-78.0139,46.0876,-123.547,71.7163,23.1323,504.333,0.5448,-0.021637,0.654968,-0.523102,-26400,12571,-30997,-2967,-29390
1638279,0.703418,-33.3908,-1.0001,-77.2009,48.587,-122.877,69.7632,24.9023,531.616,0.555267,-0.00588989,0.654144,-0.513428,16097,-1766,23787,-2967,-29390
1638285,0.0430664,-28.4525,-0.856543,-76.3055,51.1798,-122.141,72.2656,31.4941,552.551,0.565948,0.0105286,0.653137,-0.502869,-7967,-16870,13035,-2967,-29390
1638291,-8.48408,-34.9699,2.10547,-74.5642,56.3269,-120.201,5.12695,-9.76562,560.73,0.58609,0.0445557,0.651672,-0.479279,17891,10266,-11286,-2967,-29390
1638297,2.67012,-34.4723,4.19658,-72.8174,58.8483,-118.411,51.8799,-38.8184,568.542,0.597473,0.0593567,0.650116,-0.465546,1764,-13799,-25110,-2967,-29390
1638303,-0.143555,-29.1799,5.23018,-71.2793,61.3477,-116.927,56.1523,16.6626,553.162,0.609314,0.0749512,0.646484,-0.45282,-13340,25369,25834,-2967,-29390
1638309,-6.7375,-32.5534,2.51221,-69.3842,63.7262,-114.966,36.438,-6.95801,542.114,0.618927,0.0912476,0.643951,-0.440247,-27163,-4328,10986,-2967,-29390
1638315,-2.81846,-37.1232,-2.2251,-66.7694,65.9674,-112.352,53.6499,-37.2314,534.119,0.628693,0.106171,0.6409,-0.427307,25318,27928,-3095,-2967,-29390
1638321,6.08193,-30.8068,-4.86172,-59.6832,69.928,-105.667,105.652,-44.4946,488.525,0.648224,0.135284,0.631042,-0.403961,-5145,25111,-30999,-2967,-29390
1638327,6.93848,-24.567,-6.05801,-55.5084,71.6144,-101.783,106.628,-36.9873,462.341,0.656647,0.14975,0.625244,-0.394165,-20248,-13802,17897,-2967,-29390
1638333,13.3649,-13.3793,-12.0634,-50.3998,72.8998,-96.9214,101.135,-85.9985,424.622,0.664062,0.163544,0.619629,-0.384979,28649,11030,-1816,-2967,-29390
1638339,19.3033,-7.4792,-12.8146,-45.1318,73.8721,-92.1643,145.691,-76.7212,370.483,0.671936,0.175262,0.612793,-0.377014,10474,-31723,-22296,-2967,-29390
1638345,14.7813,19.5665,-11.7523,-39.5453,74.5587,-87.4292,211.487,-79.2847,328.552,0.67804,0.18692,0.605835,-0.371704,-9750,-10476,21224,-2967,-29390
1638351,5.55078,22.9688,-6.81406,-36.6284,73.9764,-84.8914,-29.7852,-145.63,-2.62451,0.684082,0.204773,0.593903,-0.370514,6124,-30957,-21785,-2967,-29390
1638357,14.6665,3.23477,-7.56533,-37.9193,73.114,-85.9021,-59.3872,-114.746,-103.394,0.687103,0.200287,0.590851,-0.372253,-23060,-6894,21735,-2967,-29390
1638363,7.90029,-0.0526367,-6.20635,-40.2704,72.0978,-87.9346,-76.5991,-95.6421,-176.392,0.687836,0.19281,0.590118,-0.375946,8941,20242,-538,-2967,-29390
1638369,9.221,-4.56025,-4.19658,-42.6819,70.7574,-89.8352,-116.821,-135.986,-221.741,0.686951,0.183258,0.590851,-0.381165,-29203,-13039,-23322,-2967,-29390
1638375,14.7574,-11.6901,-2.86631,-45.2802,69.3732,-91.8567,-133.545,-120.789,-245.3,0.686493,0.170654,0.59137,-0.386963,-6931,24849,19942,-2967,-29390
1638381,12.2883,-17.4993,-2.97158,-50.1691,66.72,-95.8173,-108.704,-83.9844,-247.559,0.6828,0.144348,0.594757,-0.398865,25582,-14320,-19227,-2967,-29390
1638387,12.1687,-16.9729,-2.82803,-52.196,65.4181,-97.4872,-94.0552,-76.9043,-241.15,0.680023,0.132172,0.596588,-0.405029,-29714,-25072,28133,-2967,-29390
1638393,11.9246,-15.3843,-1.87578,-54.0472,64.1711,-99.0802,-76.5381,-61.5234,-235.107,0.676971,0.120728,0.598267,-0.411255,-22802,-31216,11237,-2967,-29390
1638399,11.4557,-13.2453,-0.856543,-55.7446,62.9462,-100.602,-61.4624,-50.8423,-232.727,0.67337,0.110229,0.599945,-0.417603,-18962,32528,-4892,-2967,-29390
1638405,11.5083,-10.7379,-0.325391,-57.3376,61.7377,-102.09,-50.5981,-39.3677,-232.117,0.669342,0.100433,0.601562,-0.424133,-18706,-30960,-20252,-2967,-29390
1638411,9.94355,-7.74238,-0.842188,-60.4688,59.3152,-105.178,-34.4238,-10.8643,-244.934,0.65976,0.0823364,0.605194,-0.437714,-24338,-21232,18660,-2967,-29390
1638417,9.45547,-6.30684,-1.07187,-61.9739,58.0408,-106.76,-25.8789,-1.34277,-257.69,0.653992,0.0737305,0.607269,-0.444946,-30482,-12784,7652,-2967,-29390
1638423,8.7999,-4.74209,-1.24414,-63.4845,56.6895,-108.375,-22.522,8.60596,-275.452,0.647614,0.0652161,0.609406,-0.452637,26350,-2544,-2077,-2967,-29390
1638429,8.17305,-3.84727,-1.43076,-64.9951,55.2612,-110.012,-25.0244,17.5171,-292.114,0.640442,0.0565186,0.611694,-0.460785,15854,11025,-8477,-2943,-29393
1638435,7.8333,-3.76592,-1.68916,-66.5167,53.7616,-111.643,-31.9214,26.4282,-307.678,0.632599,0.0474548,0.614227,-0.469208,3822,26385,-13341,-2943,-29393
1638441,6.01016,-4.18701,-2.79932,-69.5215,50.5261,-114.785,-49.9878,35.2783,-334.595,0.614929,0.0280151,0.620117,-0.486237,-25363,-3055,-18973,-2943,-29393
1638447,5.31152,-4.66074,-3.00029,-70.9827,48.8068,-116.241,-62.1338,37.2314,-344.971,0.605316,0.0174866,0.623291,-0.49469,25325,15890,-22045,-2943,-29393
1638453,4.82822,-5.10098,-3.25391,-72.4109,47.038,-117.609,-74.1577,39.3677,-352.966,0.595245,0.00643921,0.626617,-0.502869,8685,-29166,-23837,-2943,-29393
1638459,3.98604,-5.66084,-3.38789,-73.8062,45.2087,-118.889,-85.6323,39.6118,-360.84,0.584808,-0.00506592,0.630066,-0.510742,-10772,-6638,-25629,-2943,-29393
1638465,3.24912,-6.56523,-3.49795,-75.1465,43.3301,-120.053,-96.6187,36.7432,-367.737,0.562958,-0.0296326,0.637085,-0.525543,-32532,17427,-25885,-2943,-29393
1638471,2.26338,-9.74736,-3.07207,-77.6239,39.4684,-122.031,-109.253,28.0151,-373.962,0.551788,-0.0425415,0.640442,-0.53241,-18453,4628,-19997,-2943,-29393
1638477,1.63652,-11.0824,-2.71797,-78.7335,37.5128,-122.86,-109.436,24.9634,-374.268,0.540527,-0.0556946,0.643524,-0.538971,20459,30996,-14621,-2943,-29393
1638483,0.818262,-11.8241,-2.31602,-79.7552,35.5573,-123.58,-108.643,19.3481,-372.314,0.529175,-0.0688477,0.646332,-0.545319,-7958,-6636,-6685,-2943,-29393
1638489,0.334961,-12.3457,-1.84707,-80.6946,33.6127,-124.195,-109.558,13.0005,-369.019,0.517914,-0.0820618,0.648743,-0.551392,26602,21525,3044,-2943,-29393
1638495,-0.229688,-12.9678,-1.44512,-81.5735,31.6791,-124.717,-109.924,7.56836,-364.99,0.49585,-0.108429,0.652588,-0.5625,-6935,-15595,15588,-2943,-29393
1638501,-1.26807,-13.3984,-0.808691,-83.1445,27.8668,-125.486,-110.596,-6.53076,-357.422,0.485077,-0.121613,0.653992,-0.567535,-13592,-23274,-23068,-2943,-29393
1638507,-1.47861,-13.5611,-0.363672,-83.8641,25.9772,-125.75,-111.145,-12.4512,-354.919,0.474548,-0.134796,0.655029,-0.572235,12264,5399,-8476,-2943,-29393
1638513,-1.86143,-13.743,0.0287109,-84.5453,24.1095,-125.947,-112.427,-18.0054,-352.356,0.464142,-0.14801,0.655762,-0.57666,-26137,32279,5349,-2943,-29393
1638519,-1.82314,-14.1114,0.674707,-85.2045,22.2473,-126.079,-114.624,-23.2544,-350.281,0.453918,-0.161224,0.656189,-0.58075,-1306,-6633,20965,-2943,-29393
1638525,-2.00498,-14.8005,1.15801,-85.8472,20.4126,-126.167,-116.333,-25.2686,-347.29,0.433807,-0.187683,0.656372,-0.587921,21222,19480,-28699,-2943,-29393
1638531,-2.89502,-16.4944,2.57441,-87.0996,16.8256,-126.205,-119.141,-30.3955,-338.196,0.42395,-0.200806,0.656189,-0.590973,-3868,2073,6630,-2943,-29393
1638537,-3.5458,-17.2601,3.32568,-87.7094,15.0897,-126.172,-119.629,-30.4565,-331.665,0.414215,-0.213745,0.655792,-0.59375,13796,24089,26598,-2943,-29393
1638543,-3.79463,-17.8295,4.07695,-88.2971,13.3923,-126.118,-117.92,-29.9683,-325.867,0.404663,-0.22641,0.655304,-0.596191,-32541,-20967,-19482,-2943,-29393
1638549,-3.91904,-18.1692,4.61768,-88.8794,11.7334,-126.041,-117.371,-28.2593,-320.496,0.395264,-0.2388,0.654602,-0.598419,-15134,-1511,743,-2934,-29394
