Timestamp,AccX,AccY,AccZ,AngleX,AngleY,AngleZ,AngularVelX,AngularVelY,AngularVelZ,QW,QX,QY,QZ,MagX,MagY,MagZ,Height,AirPressure
1323807,-2.89023,-9.96748,1.03838,-84.5013,7.17407,-134.187,22.4609,-9.94873,12.8174,0.325012,-0.218994,0.63681,-0.66391,10451,27419,3308,-3067,-29378
1323813,-2.68926,-10.0488,0.890039,-84.3585,7.27295,-134.099,25.6958,-11.1084,13.3667,0.326233,-0.218506,0.636139,-0.664093,21459,28443,4844,-3067,-29378
1323819,-2.85674,-9.76172,1.14844,-84.2102,7.37183,-134.006,28.0151,-11.8408,14.0991,0.327545,-0.217987,0.635376,-0.664337,27347,27931,4332,-3067,-29378
1323825,-2.87588,-9.68994,1.42119,-84.0564,7.48169,-133.912,27.832,-11.7798,15.9302,0.328918,-0.217438,0.634552,-0.664642,-32045,27163,3564,-3067,-29378
1323831,-3.4166,-10.0297,1.01924,-83.9136,7.59155,-133.819,27.4658,-11.3525,15.564,0.330322,-0.216858,0.633728,-0.664917,-26157,27163,1772,-3075,-29377
1323837,-2.13896,-9.87178,1.25371,-83.562,7.81677,-133.555,33.7524,-21.1182,18.0054,0.333313,-0.21579,0.631989,-0.665436,-14893,26395,-21,-3075,-29377
1323843,-1.804,-9.42676,1.58389,-83.3698,7.92664,-133.44,35.3394,-15.0757,16.9678,0.335052,-0.215363,0.63089,-0.665741,-9261,26395,-533,-3067,-29378
1323849,-2.9668,-9.35498,1.82793,-83.194,8.0365,-133.33,33.2642,-14.1602,18.0054,0.336639,-0.214752,0.629822,-0.666168,-4653,25883,-789,-3067,-29378
1323855,-2.98115,-9.2832,1.48818,-83.0182,8.15186,-133.198,32.2876,-18.4937,18.8599,0.338165,-0.214142,0.628845,-0.666504,212,25371,-1045,-3067,-29378
1323861,-2.8041,-8.78555,1.7083,-82.8314,8.27271,-133.066,34.0576,-19.165,19.9585,0.339844,-0.213623,0.627808,-0.666779,5332,24603,-1045,-3067,-29378
1323867,-3.32568,-8.49844,1.85664,-82.5073,8.50342,-132.841,27.9541,-13.4888,18.6157,0.343201,-0.212524,0.625793,-0.667328,16084,24347,-533,-3067,-29378
1323873,-3.76113,-9.38369,1.94277,-82.359,8.61877,-132.715,27.0996,-16.7236,19.7754,0.344696,-0.211945,0.624939,-0.667542,21460,24347,236,-3067,-29378
1323879,-3.46924,-8.99609,1.75615,-82.1887,8.73413,-132.583,29.7852,-18.8599,19.7144,0.346283,-0.211426,0.624115,-0.667664,26836,24603,492,-3067,-29378
1323885,-2.71318,-8.85732,2.25381,-82.0349,8.84399,-132.451,28.4424,-18.3716,18.8599,0.347961,-0.210938,0.623169,-0.667816,31700,24859,-21,-3067,-29378
1323891,-1.67002,-9.54639,3.50273,-81.9086,8.96484,-132.325,21.7896,-16.6016,20.4468,0.349579,-0.21048,0.622253,-0.667969,-28972,25115,-1045,-3067,-29378
1323897,-3.01465,-10.1015,2.65098,-81.7328,9.25049,-132.16,14.1602,-5.67627,25.7568,0.352478,-0.209412,0.621185,-0.667786,-18220,25883,-4373,-3067,-29378
1323903,-3.38311,-9.17314,1.70352,-81.6284,9.4043,-132.067,18.1274,-10.1318,26.4893,0.353821,-0.208618,0.62088,-0.667572,-12588,26395,-5397,-3067,-29378
1323909,-3.07207,-9.00566,2.8376,-81.524,9.55261,-131.973,17.6392,-8.91113,26.3062,0.355316,-0.207886,0.620453,-0.66745,-7724,27419,-5653,-3067,-29378
1323915,-3.09121,-8.48887,3.04336,-81.4362,9.70642,-131.891,15.1367,-7.08008,27.1606,0.356781,-0.207123,0.619995,-0.667297,-2348,27931,-5653,-3067,-29378
1323921,-2.85195,-9.06787,3.32568,-81.3757,9.86572,-131.825,9.58252,-4.3335,27.6489,0.358185,-0.206329,0.61969,-0.667084,3285,28443,-5141,-3067,-29378
1323927,-2.40693,-9.60859,3.12471,-81.2714,10.1843,-131.704,7.50732,-0.854492,28.6865,0.360748,-0.204742,0.619476,-0.666382,15061,29467,-5909,-3067,-29378
1323933,-2.4165,-9.69473,2.77539,-81.2384,10.3601,-131.66,4.27246,1.28174,30.6396,0.361938,-0.203857,0.619446,-0.666016,21973,30235,-6677,-3067,-29378
1323939,-3.029,-9.81436,2.45479,-81.2054,10.5469,-131.627,4.3335,3.35693,32.7759,0.363098,-0.202911,0.619568,-0.665588,28373,30747,-8469,-3067,-29378
1323945,-3.40703,-9.59424,1.49775,-81.1725,10.7336,-131.578,3.96729,0.12207,33.3862,0.364288,-0.201813,0.619751,-0.6651,-30763,31003,-10005,-3075,-29377
1323951,-2.94766,-9.35977,1.39248,-81.134,10.9149,-131.523,5.31006,-0.183105,32.7759,0.36554,-0.200836,0.619873,-0.664581,-23851,31771,-10773,-3075,-29377
1323957,-3.60322,-10.1493,2.24424,-81.0516,11.3159,-131.424,5.43213,0.244141,37.5366,0.368103,-0.19873,0.620056,-0.663635,-9515,-31205,-9749,-3075,-29377
1323963,-3.27783,-9.90049,2.69404,-80.9967,11.5356,-131.358,7.56836,-1.09863,40.5884,0.369476,-0.197601,0.620178,-0.663086,-1835,-29669,-9237,-3075,-29377
1323969,-3.10557,-10.2689,1.7418,-80.9637,11.7554,-131.309,3.05176,1.09863,41.4429,0.371002,-0.196411,0.620239,-0.662537,5590,-28901,-7957,-3075,-29377
1323975,-3.39268,-10.7235,1.98584,-80.9253,11.9971,-131.248,5.06592,0.488281,44.7388,0.372467,-0.195221,0.620483,-0.661835,13014,-27621,-6933,-3075,-29377
1323981,-3.20605,-12.1304,2.0959,-80.8868,12.2552,-131.177,4.88281,-0.732422,49.4385,0.374023,-0.193909,0.620667,-0.661163,20438,-27109,-5653,-3075,-29377
1323987,-3.3209,-12.0107,2.72754,-80.744,12.8375,-131.034,13.4277,-0.915527,59.5093,0.377533,-0.190979,0.621033,-0.659668,-28970,-25573,-3093,-3075,-29377
1323993,-3.00508,-11.7284,2.24902,-80.6671,13.1616,-130.957,11.1084,0.488281,63.1714,0.379608,-0.189209,0.621094,-0.658966,-20010,-24293,-789,-3075,-29377
1323999,-3.14863,-11.2786,2.91416,-80.5847,13.5077,-130.886,13.1226,2.13623,68.0542,0.381714,-0.187347,0.621246,-0.658142,-10794,-23013,748,-3075,-29377
1324005,-3.20605,-11.9342,3.39746,-80.5188,13.8812,-130.825,10.6812,5.00488,72.876,0.383942,-0.185272,0.621399,-0.657288,-2090,-21477,2540,-3075,-29377
1324011,-2.78975,-11.2212,2.99551,-80.4474,14.2657,-130.759,10.376,5.12695,76.4771,0.388489,-0.180695,0.622009,-0.655273,7383,-20197,4332,-3075,-29377
1324017,-2.34951,-11.3647,2.98594,-80.3705,15.1227,-130.627,2.80762,14.1602,86.3037,0.390839,-0.178192,0.622498,-0.654114,28631,-17381,3820,-3075,-29377
1324023,-3.34004,-13.207,3.12471,-80.365,15.6006,-130.573,-0.12207,18.5547,92.8345,0.393402,-0.175751,0.623169,-0.652588,-25385,-16613,3820,-3075,-29377
1324029,-3.66543,-12.8099,3.19648,-80.343,16.1115,-130.479,2.38037,13.6719,100.952,0.395966,-0.173065,0.624054,-0.650909,-13353,-15333,3052,-3075,-29377
1324035,-2.36387,-13.0491,3.89033,-80.321,16.6443,-130.402,1.46484,17.4561,106.018,0.398926,-0.170227,0.624817,-0.649139,-1833,-13797,2540,-3075,-29377
1324041,-2.67012,-11.7715,3.8999,-80.3101,17.2156,-130.369,2.31934,27.0996,111.694,0.404724,-0.163727,0.626709,-0.645355,9944,-12773,2284,-3075,-29377
1324047,-3.37354,-11.3839,3.75635,-80.3705,18.4296,-130.303,-8.8501,29.2969,122.314,0.407623,-0.160217,0.62796,-0.643219,-29992,-11237,236,-3075,-29377
1324053,-2.90937,-10.5848,2.80889,-80.4419,19.0613,-130.292,-13.3057,33.3252,124.146,0.410583,-0.156586,0.629364,-0.640839,-15656,-11237,-1045,-3075,-29377
1324059,-3.74199,-12.0729,2.72754,-80.5243,19.7205,-130.281,-15.3809,33.4473,130.432,0.413452,-0.152893,0.630981,-0.638306,-552,-10469,-2581,-3075,-29377
1324065,-4.57461,-12.2309,2.98594,-80.6067,20.4181,-130.248,-16.7847,31.3721,138.489,0.416443,-0.149078,0.63266,-0.63559,15833,-9189,-4373,-3075,-29377
1324071,-4.54111,-14.365,3.1582,-80.7111,21.1377,-130.221,-21.3623,32.6538,143.494,0.422974,-0.141083,0.636261,-0.629486,31961,-7909,-5141,-3075,-29377
1324077,-3.7707,-15.0541,2.55049,-80.8649,22.7197,-130.111,-20.2637,29.9072,163.33,0.426666,-0.136719,0.637909,-0.626282,1498,-6629,-5397,-3075,-29377
1324083,-4.56504,-15.0158,2.17725,-80.9692,23.5822,-130.139,-17.0288,45.4712,172.18,0.430511,-0.132172,0.639771,-0.622742,20186,-6373,-5397,-3075,-29377
1324089,-6.49346,-15.4608,0.555078,-81.1121,24.4885,-130.122,-26.4893,39.3066,181.03,0.434113,-0.126923,0.641846,-0.619141,-25638,-6629,-3861,-3075,-29377
1324095,-4.71816,-18.1501,1.91885,-81.1505,25.4498,-129.996,-16.1133,20.2637,196.838,0.438049,-0.121796,0.644073,-0.615082,-4902,-5861,-2837,-3075,-29377
1324101,-3.31611,-19.1885,1.78486,-81.178,26.4551,-129.875,-12.3291,22.9492,206.36,0.447968,-0.11084,0.647308,-0.606537,15067,-5349,-277,-3075,-29377
1324107,-4.74209,-18.8583,-0.090918,-81.1176,28.6633,-129.644,0.244141,28.3203,233.459,0.453308,-0.104584,0.648743,-0.602173,-6437,-5861,4076,-3075,-29377
1324113,-5.71826,-21.2174,-1.11973,-81.0681,29.8663,-129.474,-1.58691,20.2637,249.451,0.458801,-0.0978088,0.650146,-0.597626,17372,-6373,6124,-3075,-29377
1324119,-5.12969,-21.4088,-0.961816,-80.9033,31.1407,-129.21,10.376,6.53076,266.296,0.464844,-0.0908203,0.651459,-0.59259,-21028,-7909,6380,-3075,-29377
1324125,-3.95732,-23.0788,-0.229688,-80.733,32.4866,-128.958,13.0005,11.9629,281.86,0.471649,-0.0834961,0.652191,-0.587463,7133,-10213,6124,-3075,-29377
1324131,-4.01475,-24.1842,2.53135,-80.5023,33.9203,-128.677,16.6016,8.78906,317.139,0.485992,-0.066925,0.653473,-0.576355,-28195,-13029,5100,-3075,-29377
1324137,-0.861328,-23.5908,3.37832,-79.9475,37.0184,-127.963,22.7661,2.44141,338.196,0.493713,-0.0580139,0.653992,-0.570129,31454,-20709,1004,-3075,-29377
1324143,-0.272754,-23.9545,4.91436,-79.6674,38.7213,-127.656,23.3765,22.8882,357.422,0.502014,-0.0485535,0.654144,-0.563538,-1826,-26341,-3349,-3075,-29377
1324149,-3.03379,-23.6961,5.43594,-79.3433,40.5011,-127.365,32.959,31.25,373.474,0.510101,-0.0380554,0.654633,-0.556488,31967,32539,-8725,-3075,-29377
1324155,-2.59355,-24.8206,4.50762,-78.9807,42.3468,-127.013,30.8228,27.4048,389.343,0.518158,-0.0267029,0.654938,-0.549286,1760,24603,-15637,-3075,-29377
1324161,-0.354102,-21.6433,1.8375,-78.0853,46.2415,-126.266,45.0439,38.9404,418.762,0.535034,-0.00271606,0.654877,-0.53363,-26144,14875,-23573,-3075,-29377
1324167,-3.84248,-17.9061,1.68438,-77.7393,48.3069,-125.975,31.4331,56.6406,433.777,0.543396,0.0102844,0.654572,-0.525391,-17695,-6118,26091,-3075,-29377
1324173,-8.78076,-18.6382,1.51689,-77.5305,50.4218,-125.607,-8.42285,52.9785,445.007,0.551422,0.0237427,0.654816,-0.516235,21986,-19686,17387,-3075,-29377
1324179,-5.61777,-24.5287,2.27773,-77.2284,52.5641,-124.98,-32.7759,25.8179,458.252,0.559601,0.036499,0.65564,-0.505524,-2078,29978,9451,-3075,-29377
1324185,-4.10088,-27.7683,2.90459,-76.8054,54.7009,-124.349,-10.9863,31.25,458.252,0.568665,0.0483704,0.656097,-0.493683,-24093,12314,747,-3075,-29377
1324191,-5.89531,-23.4281,4.14395,-75.3333,58.9197,-122.58,3.17383,1.28174,460.144,0.585632,0.0736389,0.655273,-0.471283,3557,-29671,-15382,-3075,-29377
1324197,-3.50273,-23.9401,3.6415,-74.3939,61.0016,-121.459,-0.915527,6.95801,460.205,0.594635,0.0858459,0.653656,-0.460083,-16155,13849,-23318,-3067,-29378
1324203,-5.03398,-26.4428,1.99063,-73.3612,63.078,-120.273,1.52588,14.5264,459.412,0.60321,0.0979919,0.652039,-0.448639,31206,-10728,-30998,-3067,-29378
1324209,-3.7707,-27.0696,-1.3542,-71.911,65.0885,-118.724,14.9536,-4.3335,455.139,0.611298,0.110291,0.65036,-0.437134,13799,27928,26346,-3067,-29378
1324215,0.655566,-24.1268,-3.04814,-70.0653,66.9946,-116.829,28.1372,-17.2729,443.359,0.619476,0.122406,0.647766,-0.426056,-3609,-745,17642,-3067,-29378
1324221,0.16748,-20.7532,-3.34004,-65.9235,70.5048,-112.659,30.1514,-4.3335,410.4,0.634613,0.14563,0.641327,-0.405762,25577,791,-3863,-3067,-29378
1324227,5.83311,-14.5756,-7.90986,-62.8418,72.0154,-109.589,39.3066,-46.814,394.531,0.641174,0.156708,0.638214,-0.396088,5098,-31210,-14615,-3067,-29378
1324233,13.3554,-4.03389,-9.97705,-59.2987,73.2623,-106.216,68.2983,-57.312,354.614,0.648346,0.166809,0.633789,-0.387329,-16918,534,-26647,-3067,-29378
1324239,13.987,4.85693,-10.8814,-55.7556,74.3115,-103.013,97.7173,-41.0156,314.453,0.654694,0.176392,0.628754,-0.380554,25835,30741,27369,-3067,-29378
1324245,3.28262,29.1655,-0.92832,-52.6575,74.9982,-100.322,104.797,-39.917,235.596,0.659485,0.185913,0.623962,-0.375549,1516,-5612,15337,-3067,-29378
1324251,6.33076,9.14922,-2.60313,-50.6525,74.3225,-98.0255,-41.3818,-110.291,-31.0669,0.665497,0.193481,0.617096,-0.372467,13805,-13293,-12056,-3067,-29378
1324257,6.77578,4.23008,-3.54102,-51.5973,73.4546,-98.7781,-41.0156,-83.9844,-119.324,0.66748,0.188538,0.615417,-0.374237,-17939,18451,-27672,-3067,-29378
1324263,4.85215,4.12002,-1.86143,-53.0914,72.2681,-99.9756,-65.979,-98.5107,-189.392,0.667236,0.181671,0.615234,-0.378326,12270,-11758,21992,-3067,-29378
1324269,8.01514,-1.71787,-1.3207,-54.9371,70.8618,-101.409,-94.4824,-102.234,-238.403,0.666321,0.171967,0.615601,-0.383881,-27922,28434,6632,-3067,-29378
1324275,8.4458,-7.68975,-2.65098,-56.9312,69.3732,-102.997,-96.6797,-89.1113,-264.771,0.664764,0.160034,0.616608,-0.390076,-7442,7954,-7705,-3067,-29378
1324281,7.13945,-13.8291,-3.30654,-60.1831,66.2585,-105.65,-68.2373,-90.5762,-275.757,0.659302,0.135071,0.619385,-0.404114,21743,-17135,30695,-3067,-29378
1324287,5.84746,-13.9152,-2.89023,-61.4191,64.7205,-106.716,-50.354,-88.2568,-269.409,0.656097,0.123077,0.62027,-0.411743,30447,-22511,17639,-3067,-29378
1324293,5.20625,-13.1209,-1.83271,-62.3749,63.2153,-107.573,-34.1187,-91.4917,-259.521,0.65271,0.111786,0.620758,-0.419556,-28689,-24815,4839,-3067,-29378
1324299,5.546,-11.5753,-1.225,-63.1494,61.7596,-108.303,-22.2778,-90.332,-248.718,0.649353,0.101196,0.620697,-0.427429,-26129,-23023,-7450,-3059,-29379
1324305,5.6082,-9.78564,-0.875684,-63.7866,60.3589,-108.946,-11.1694,-86.4258,-237.671,0.646027,0.0912476,0.620331,-0.435242,-27153,-17647,-20506,-3059,-29379
1324311,6.08672,-7.21123,-1.0623,-64.8523,57.6727,-110.127,3.05176,-76.2939,-225.342,0.639099,0.0731506,0.618988,-0.4505,27119,786,18406,-3059,-29379
1324317,6.10107,-5.75654,-0.736914,-65.3247,56.3599,-110.737,11.1084,-69.2139,-225.403,0.635406,0.0647888,0.618195,-0.458038,17647,12306,5862,-3059,-29379
1324323,5.81875,-3.78027,-0.593359,-65.8191,55.0415,-111.385,14.3433,-61.8896,-230.835,0.631409,0.0567932,0.617371,-0.465698,6127,25874,-5915,-3059,-29379
1324329,5.75654,-1.95234,-0.535937,-66.3574,53.6792,-112.099,13.0615,-54.3213,-242.432,0.626953,0.0488586,0.616608,-0.47348,-5906,-25838,-16667,-3059,-29379
1324335,5.96709,-1.00967,-0.669922,-66.9727,52.2565,-112.885,8.11768,-45.6543,-258.118,0.616364,0.0322571,0.615784,-0.489655,-19730,-10734,-26395,-3059,-29379
1324341,6.56045,-1.77529,-1.4499,-68.4119,49.2078,-114.67,-2.2583,-27.5879,-293.701,0.609985,0.0233154,0.615814,-0.498047,14062,24339,22245,-3059,-29379
1324347,6.79971,-2.27295,-1.64131,-69.2249,47.5873,-115.653,-8.11768,-17.2119,-309.265,0.602844,0.0139771,0.616119,-0.506653,-4371,-21229,14565,-3059,-29379
1324353,6.33076,-2.77539,-1.84707,-70.0818,45.9119,-116.664,-15.8691,-8.66699,-322.754,0.59494,0.00427246,0.616699,-0.51535,-24851,-237,6885,-3059,-29379
1324359,5.89053,-3.49316,-2.08154,-70.9772,44.1925,-117.697,-25.1465,0.183105,-333.801,0.586334,-0.0057373,0.617584,-0.524048,20205,20500,-540,-3059,-29379
1324365,5.54121,-4.50283,-2.34951,-71.911,42.4347,-118.735,-34.4238,8.54492,-342.651,0.567291,-0.0267944,0.620209,-0.540985,-2324,-23532,-6940,-3059,-29379
1324371,4.30664,-6.61309,-2.98594,-73.8007,38.8861,-120.789,-48.1567,24.8413,-348.083,0.556946,-0.0375061,0.621918,-0.549103,10220,23829,-17436,-3059,-29379
1324377,3.38311,-7.50313,-3.30654,-74.7235,37.1118,-121.756,-54.2603,28.3203,-347.29,0.546265,-0.0482178,0.623749,-0.556854,-18709,-16619,-19996,-3059,-29379
1324383,2.94287,-8.50322,-3.11992,-75.6244,35.354,-122.684,-59.9976,32.5928,-343.567,0.53537,-0.05896,0.625641,-0.56424,16107,9494,-19484,-3059,-29379
1324389,2.23945,-9.23057,-3.04814,-76.5143,33.6237,-123.58,-65.4297,38.9404,-337.952,0.524292,-0.0696106,0.627594,-0.571198,-15894,-29418,-19228,-3059,-29379
1324395,1.0001,-9.88135,-3.12949,-77.3822,31.9153,-124.426,-70.2515,41.0156,-333.008,0.501862,-0.0903015,0.631744,-0.58374,18154,-4330,-17948,-3059,-29379
1324401,-0.607715,-11.0346,-3.37832,-78.9972,28.537,-125.92,-75.0732,37.7808,-327.209,0.490723,-0.100555,0.633698,-0.589417,14825,-17641,-10524,-3059,-29379
1324407,-1.34463,-11.3313,-3.30654,-79.7333,26.8451,-126.573,-75.7446,33.9355,-327.271,0.479584,-0.110809,0.635498,-0.594788,-22552,9240,-5404,-3059,-29379
1324413,-2.22988,-11.5274,-3.20605,-80.4309,25.1312,-127.156,-76.4771,28.3203,-331.421,0.468506,-0.121094,0.637024,-0.599915,4584,-29672,1253,-3042,-29381
1324419,-2.97158,-11.915,-3.00986,-81.0846,23.3844,-127.656,-78.2471,19.4702,-337.097,0.457428,-0.131622,0.638275,-0.604919,29927,-3304,10213,-3042,-29381
1324425,-4.13438,-12.7716,-2.30645,-81.7108,21.5991,-128.079,-80.5054,11.5356,-344.238,0.435425,-0.153809,0.63974,-0.614288,-8730,21785,19173,-3042,-29381
1324431,-4.88564,-13.408,-2.01934,-82.8973,17.9407,-128.721,-88.6841,-4.27246,-356.873,0.424408,-0.165466,0.640015,-0.618683,-25627,3866,-22043,-3042,-29381
1324437,-6.13936,-14.9058,-2.03369,-83.4851,16.0895,-128.919,-95.2759,-15.0757,-359.253,0.413391,-0.177521,0.640045,-0.622772,-4124,26906,-6939,-3042,-29381
1324443,-6.98154,-16.7911,-1.78965,-84.0619,14.2657,-129.034,-99.5483,-24.231,-353.882,0.402557,-0.189972,0.639801,-0.626404,15076,-17126,8934,-3042,-29381
1324449,-8.63721,-18.3367,-1.7418,-84.6277,12.5024,-129.078,-102.051,-32.2876,-343.506,0.39212,-0.202545,0.639404,-0.629517,32227,3611,25062,-3042,-29381
1324455,-10.8767,-19.3225,-0.200977,-85.177,10.827,-129.023,-102.966,-44.4336,-327.454,0.372986,-0.227203,0.638031,-0.634094,-14878,22811,-24602,-3042,-29381
1324461,-10.2785,-19.4517,0.76084,-86.2811,7.78381,-128.666,-110.779,-63.9038,-287.964,0.364685,-0.239166,0.637146,-0.635406,17377,-8677,11751,-3042,-29381
1324467,-9.36455,-19.6861,1.51689,-86.8689,6.43799,-128.425,-117.126,-65.1245,-267.151,0.357117,-0.250793,0.636353,-0.636017,31456,6428,32743,-3042,-29381
1324473,-8.61807,-19.6383,1.92842,-87.4841,5.18555,-128.167,-122.253,-63.0493,-249.634,0.350159,-0.261902,0.635803,-0.635956,-21025,19996,-11545,-3042,-29381
1324479,-8.00557,-19.3368,2.38301,-88.1213,4.01001,-127.919,-126.526,-58.5327,-237.061,0.343536,-0.27243,0.635529,-0.635437,-9762,31772,10472,-3042,-29381
1324485,-7.69932,-18.6573,3.16299,-88.775,2.86743,-127.7,-130.371,-50.7812,-231.812,0.330566,-0.292114,0.63559,-0.633514,1758,-24036,-32280,-3042,-29381
1324491,-7.996,-19.1789,3.029,-90.1593,0.587769,-127.343,-139.099,-32.959,-237.549,0.3237,-0.301514,0.635895,-0.632324,29660,-9444,11753,-3042,-29381
1324497,-8.40273,-19.7005,3.05771,-90.8514,-0.587769,-127.216,-137.878,-22.8271,-244.263,0.316406,-0.310791,0.63623,-0.631195,-21797,-5092,-30743,-3042,-29381
1324503,-4.44541,-9.89092,1.53125,-91.5381,-1.79626,-127.128,-136.658,-11.8408,-251.953,0.308624,-0.319855,0.636475,-0.630249,-7974,-2532,-7191,-3042,-29381
1324509,-9.52246,-19.6718,3.78027,-92.2192,-3.03772,-127.095,-137.024,0.854492,-258.423,0.300385,-0.328735,0.636658,-0.629517,5082,-2020,16618,-3042,-29381
1324515,-10.7522,-19.3512,4.42148,-92.8949,-4.30115,-127.101,-136.963,12.8174,-264.648,0.282288,-0.345703,0.636902,-0.62854,17881,-3300,-25622,-3042,-29381
1324521,-11.4317,-18.6478,4.72295,-94.2023,-6.91589,-127.266,-135.254,39.4897,-277.832,0.272491,-0.35376,0.636963,-0.628326,-18217,-10468,18411,-3042,-29381
1324527,-12.2213,-18.04,5.09141,-94.834,-8.28918,-127.43,-135.132,54.5044,-287.415,0.262115,-0.361511,0.636902,-0.628357,-4394,-17636,-27413,-3050,-29380
1324533,-12.7812,-18.0448,5.45986,-95.4327,-9.70642,-127.645,-131.653,66.5894,-296.753,0.251068,-0.369019,0.63678,-0.628632,9430,-27108,-9493,-3050,-29380
1324539,-13.2166,-18.1118,6.05801,-95.9821,-11.1731,-127.892,-124.451,77.8198,-305.725,0.239502,-0.376282,0.636414,-0.629181,23509,27420,6892,-3050,-29380
1324545,-17.1165,-24.634,14.2885,-96.46,-12.6782,-128.188,-93.4448,91.3086,-305.603,0.215118,-0.389984,0.634644,-0.63147,-27692,14620,21996,-3050,-29380
1324551,-14.4272,-14.8436,12.8769,-97.0203,-15.5292,-128.804,-66.4062,91.2476,-292.542,0.203278,-0.396027,0.632965,-0.633301,3027,-15077,-17940,-3050,-29380
1324557,-16.9634,-12.3553,13.9583,-97.2015,-16.8695,-129.271,-73.1812,119.324,-280.029,0.192261,-0.401367,0.630676,-0.635681,19410,-31461,-5396,-3050,-29380
1324563,-23.3946,-13.9487,10.2594,-97.3169,-18.1494,-129.76,-63.4766,121.46,-269.043,0.180725,-0.405487,0.628906,-0.638184,-29487,15387,4333,-3050,-29380
1324569,-27.0983,-16.839,7.57012,-97.3169,-19.3524,-130.172,-38.147,104.797,-256.836,0.169647,-0.409058,0.627014,-0.640808,-12592,-5350,12525,-3050,-29380
1324575,-32.764,-17.0017,3.63672,-97.1136,-20.4675,-130.545,27.5879,77.5146,-223.145,0.151428,-0.415375,0.62085,-0.647278,5072,-28134,17901,-3050,-29380
1324581,-35.2379,-13.3123,1.15322,-96.3501,-22.3242,-131.094,63.5376,58.2886,-199.951,0.144501,-0.417938,0.616821,-0.651062,-22834,-10215,22509,-3050,-29380
1324587,-37.53,-7.67061,1.39727,-95.8612,-23.0164,-131.259,74.707,39.4897,-171.143,0.139465,-0.420105,0.612061,-0.655212,-819,-32487,23533,-3050,-29380
1324593,-39.4345,-2.88066,0.492871,-95.4437,-23.5162,-131.336,67.749,18.3716,-136.719,0.135956,-0.421875,0.607422,-0.659119,22221,10777,23533,-3050,-29380
1324599,-40.8461,-0.406738,2.5792,-95.1801,-23.7799,-131.325,43.335,-3.72314,-93.689,0.133942,-0.423309,0.603516,-0.662201,-18484,-11240,22253,-3050,-29380
1324605,-38.5014,-2.2251,7.27822,-95.1031,-23.7799,-131.243,-20.5688,-37.9639,8.17871,0.134064,-0.424683,0.60025,-0.664276,8908,32280,20205,-3050,-29380
1324611,-34.4244,-5.16318,9.37891,-95.3668,-22.9999,-130.935,-29.0527,-47.7905,56.0913,0.136169,-0.424286,0.601318,-0.663147,7883,-9193,11757,-3050,-29380
1324617,-30.8212,-7.88594,12.9534,-95.4437,-22.2803,-130.798,-17.7612,-46.9971,96.9238,0.139771,-0.422913,0.603424,-0.661346,-20278,-27113,7405,-3050,-29380
1324623,-24.4904,-47.7654,-2.56963,-95.9326,-21.3245,-130.507,-87.2192,-78.9185,143.25,0.144745,-0.420349,0.605927,-0.659607,20938,21783,3053,-3050,-29380
1324629,-19.2411,-50.5982,61.1591,-95.0867,-19.7919,-130.512,154.663,-36.3159,265.625,0.150574,-0.41803,0.611053,-0.65506,202,7447,237,-3050,-29380
1324635,9.87178,17.8199,5.92881,-92.9114,-16.6003,-130.573,123.474,-77.2705,270.874,0.176758,-0.397522,0.609222,-0.662903,-16951,-3306,-1556,-3050,-29380
1324641,25.8877,1.98105,15.5805,-92.8015,-14.826,-130.814,-7.38525,20.0195,320.679,0.189911,-0.390198,0.609985,-0.662964,27849,-13802,-5652,-3050,-29380
1324647,-4.24443,-12.652,0.267969,-92.5763,-13.1726,-131.907,-24.5972,188.538,305.847,0.199585,-0.37973,0.615936,-0.660675,22729,-15338,-7700,-3067,-29378
1324653,-15.7671,-24.8302,-1.53604,-92.4609,-11.5137,-132.188,-3.78418,34.2407,300.049,0.203949,-0.36496,0.623413,-0.660645,22473,-13546,-10772,-3067,-29378
1324659,-0.234473,-15.9394,5.95273,-91.983,-9.89319,-132.248,79.3457,-5.79834,292.358,0.212616,-0.354584,0.628693,-0.658539,26313,-8938,-13332,-3067,-29378
1324665,-9.77129,-10.0536,5.62256,-91.3953,-6.93237,-132.874,14.4043,35.5835,261.536,0.231262,-0.333771,0.634125,-0.657928,-31287,-1514,-17172,-3067,-29378
1324671,-6.81885,-12.3601,3.81377,-91.2469,-5.5426,-132.924,14.5264,-0.488281,248.779,0.238953,-0.324249,0.637878,-0.656311,-6711,19991,-23316,-3067,-29378
1324677,-6.39297,-15.7527,1.28721,-91.0822,-4.27368,-133.11,17.2119,30.4565,226.196,0.247223,-0.316132,0.640991,-0.654175,9418,-32745,-25620,-3067,-29378
1324683,-12.3122,-14.8914,-1.86621,-90.6866,-3.14758,-133.308,63.5376,34.1797,198.975,0.253998,-0.307739,0.643951,-0.65271,25802,-19433,-27412,-3067,-29378
1324689,-9.75215,-11.0106,-2.29209,-90.2527,-2.07642,-133.231,77.2705,-17.0898,186.34,0.260437,-0.2995,0.645203,-0.65274,-21302,-5609,-28948,-3067,-29378
1324695,-3.67979,-10.3981,5.65605,-89.4727,-0.219727,-133.341,65.7349,31.4331,148.438,0.274994,-0.286682,0.645386,-0.652344,-1846,8216,-29716,-3067,-29378
1324701,-12.9917,-3.11514,4.17744,-89.0442,0.153809,-133.868,75.6836,106.018,48.5229,0.279999,-0.279968,0.645752,-0.652771,-25653,-29416,29676,-3067,-29378
1324707,-13.0491,-4.13916,-6.83799,-88.9728,0.532837,-133.945,4.57764,16.8457,49.8047,0.280182,-0.273804,0.645477,-0.655579,-3637,-15336,25324,-3067,-29378
1324713,-5.6082,-15.3604,1.16758,-88.8464,0.802002,-133.923,16.9678,-2.86865,27.771,0.282043,-0.270996,0.64621,-0.655212,16844,-1768,20716,-3067,-29378
1324719,0.540723,-13.6999,1.4499,-88.4729,1.12061,-133.951,66.8335,7.93457,38.8184,0.283966,-0.269257,0.646057,-0.655243,-28724,11801,16108,-3067,-29378
1324725,-3.05771,-6.01973,1.13887,-87.9126,1.71936,-134.187,30.4565,22.4609,35.8887,0.288177,-0.262939,0.643616,-0.658356,-9268,24345,11244,-3067,-29378
1324731,-2.38301,-9.68516,0.47373,-87.8027,2.005,-134.214,13.855,9.27734,34.79,0.289734,-0.260162,0.643494,-0.658936,25805,-20199,2284,-3067,-29378
1324737,-1.59824,-10.3886,0.674707,-87.6324,2.30164,-134.247,28.1982,10.0098,36.0107,0.291382,-0.258026,0.643616,-0.658905,-22835,-11751,-2325,-3067,-29378
1324743,-3.32568,-7.7998,0.650781,-87.4292,2.58179,-134.319,34.5459,18.1274,33.3252,0.293213,-0.255707,0.643372,-0.659241,-6451,-4071,-6677,-3067,-29378
1324749,-5.70391,-5.92402,1.28242,-87.2699,2.81799,-134.357,25.6348,11.7188,25.9399,0.2948,-0.253143,0.643005,-0.659882,8910,2842,-10773,-3067,-29378
1324755,-2.80889,-8.91475,0.708203,-87.1051,3.20801,-134.33,9.33838,1.2207,14.4043,0.297668,-0.249725,0.6427,-0.660187,-27954,16154,-16405,-3067,-29378
1324761,-2.97637,-10.0297,1.11973,-87.0117,3.3728,-134.33,13.3057,3.84521,12.5732,0.298889,-0.248566,0.642639,-0.660126,-14642,23066,-19221,-3067,-29378
1324767,-3.31611,-9.00088,1.10059,-86.9073,3.52661,-134.319,15.2588,0.915527,11.2305,0.299988,-0.247314,0.642487,-0.660248,-2098,29722,-21269,-3067,-29378
1324773,-3.11514,-8.53672,1.98584,-86.8195,3.67493,-134.28,11.5356,-2.99072,9.76562,0.301147,-0.246216,0.642212,-0.6604,10447,-29414,-23317,-3067,-29378
1324779,-2.50264,-8.74248,2.27295,-86.759,3.80676,-134.264,6.89697,0,7.14111,0.302338,-0.2453,0.641968,-0.660431,21455,-24038,-25109,-3067,-29378
1324785,-2.63662,-10.5608,2.03369,-86.6711,4.05396,-134.198,2.74658,-6.46973,7.01904,0.304108,-0.243713,0.641846,-0.660339,-22321,-15334,-24597,-3067,-29378
1324791,-2.16289,-10.135,1.78486,-86.6162,4.1803,-134.171,5.24902,-1.15967,8.72803,0.305176,-0.243164,0.641785,-0.660126,-11825,-11750,-23061,-3067,-29378
1324797,-3.13428,-9.17314,1.38291,-86.5778,4.31213,-134.154,2.31934,0.427246,9.27734,0.306152,-0.242371,0.641693,-0.660004,-2353,-8166,-21525,-3067,-29378
1324803,-2.52178,-9.87178,2.18203,-86.5558,4.44946,-134.11,-0.915527,-3.479,10.7422,0.307068,-0.241608,0.641754,-0.659821,6352,-4326,-21269,-3067,-29378
1324809,-2.22988,-10.068,1.28242,-86.5283,4.5813,-134.083,0.915527,-1.28174,10.8032,0.308075,-0.240967,0.641846,-0.659515,14288,27,-20757,-3067,-29378
1324815,-3.34482,-9.95312,1.37334,-86.4624,4.86694,-134.028,2.56348,-1.2207,13.1226,0.309967,-0.239471,0.642029,-0.658997,29392,6427,-15893,-3067,-29378
1324821,-3.62715,-9.08223,1.62695,-86.4075,5.00427,-133.995,6.10352,-1.58691,12.5122,0.311005,-0.238708,0.642059,-0.658752,-28720,9243,-11541,-3067,-29378
1324827,-2.71318,-8.89561,1.34941,-86.3855,5.13062,-133.956,-0.488281,-2.99072,11.5967,0.312042,-0.237946,0.641998,-0.6586,-20784,11803,-6421,-3067,-29378
1324833,-2.33037,-10.4604,2.33994,-86.3525,5.25146,-133.923,2.44141,-1.46484,10.5591,0.312988,-0.237335,0.64209,-0.658264,-13616,14619,-1045,-3067,-29378
1324839,-2.25381,-9.36934,1.16279,-86.3141,5.37781,-133.901,3.11279,0.671387,11.5967,0.313904,-0.236694,0.64209,-0.658081,-5936,17435,2796,-3067,-29378
1324845,-3.08643,-9.30234,0.808691,-86.2372,5.63049,-133.852,5.49316,-0.12207,12.146,0.315674,-0.23526,0.642151,-0.657654,2001,20251,6380,-3067,-29378
1324851,-3.18213,-9.38369,1.04316,-86.1932,5.75134,-133.824,4.3335,0,11.7188,0.316589,-0.234528,0.64209,-0.657532,16593,25371,13036,-3067,-29378
1324857,-3.15342,-9.47461,1.0001,-86.1438,5.87219,-133.797,6.28662,0.0610352,11.4746,0.317474,-0.233826,0.64209,-0.657379,24273,27675,15340,-3067,-29378
1324863,-3.51709,-9.48897,0.631641,-86.0999,5.98206,-133.775,5.18799,0.366211,10.498,0.318359,-0.233154,0.641998,-0.657257,31185,29979,17900,-3067,-29378
1324869,-3.18691,-9.40283,0.425879,-86.0449,6.09192,-133.737,7.38525,-2.0752,9.52148,0.319214,-0.232483,0.641968,-0.657135,-27695,32283,19948,-3067,-29378
1324875,-2.04805,-10.0201,0.789551,-85.9515,6.28418,-133.671,6.04248,0.427246,7.93457,0.320953,-0.231384,0.641663,-0.656982,-20783,-30693,23020,-3067,-29378
1324881,-2.77061,-10.3407,0.397168,-85.8911,6.37756,-133.649,9.76562,0.244141,8.30078,0.321686,-0.230835,0.641571,-0.656891,-6703,-26085,29676,-3067,-29378
1324887,-3.26826,-9.85264,0.00478516,-85.8087,6.47095,-133.616,14.0991,-0.854492,7.99561,0.322479,-0.230225,0.641357,-0.656921,1490,-24037,32236,-3067,-29378
1324893,-3.33525,-9.52246,0.368457,-85.7153,6.55884,-133.572,15.7471,-2.80762,7.44629,0.323303,-0.229645,0.641022,-0.657043,9170,-21221,-30740,-3059,-29379
1324899,-2.89502,-9.21143,0.899609,-85.6165,6.64124,-133.522,17.5171,-3.96729,6.65283,0.324188,-0.229095,0.640625,-0.657196,17362,-19429,-28436,-3059,-29379
1324905,-3.20605,-9.40283,1.33506,-85.4132,6.80603,-133.434,20.2026,-4.27246,7.69043,0.325928,-0.228058,0.639709,-0.657562,24786,-17637,-27412,-3059,-29379
1324911,-2.73711,-8.85732,1.99063,-85.2979,6.88843,-133.38,20.6909,-5.37109,6.89697,0.326904,-0.227509,0.63916,-0.657837,-27438,-15077,-24596,-3059,-29379
1324917,-2.37822,-8.80469,1.90449,-85.199,6.96533,-133.319,17.5171,-6.10352,6.7749,0.32785,-0.22699,0.63858,-0.658112,-20782,-13797,-22804,-3059,-29379
1324923,-2.10547,-9.31191,1.95713,-85.1111,7.03674,-133.27,14.8315,-4.82178,6.28662,0.328796,-0.226562,0.638031,-0.658295,-13870,-13541,-20500,-3059,-29379
1324929,-2.41172,-9.73779,1.78486,-85.0287,7.11914,-133.231,14.5874,-2.0752,7.75146,0.329651,-0.226166,0.637604,-0.658417,-6702,-13285,-17684,-3059,-29379
1324935,-2.45,-9.94355,1.08623,-84.8584,7.28943,-133.116,15.1367,-7.20215,9.0332,0.33136,-0.225159,0.636841,-0.658661,979,-13285,-15380,-3059,-29379
1324941,-2.63662,-9.84307,1.63174,-84.7595,7.37732,-133.072,17.334,-2.80762,10.6201,0.332336,-0.224762,0.636383,-0.658722,14035,-13029,-10772,-3059,-29379
1324947,-3.43574,-9.55117,1.31113,-84.6606,7.4707,-133.017,17.0898,-4.76074,11.4136,0.333252,-0.224182,0.635956,-0.658905,20179,-12517,-8724,-3059,-29379
1324953,-3.27783,-9.3502,1.4499,-84.5618,7.56958,-132.946,17.6392,-8.23975,12.2681,0.334259,-0.223633,0.635498,-0.659027,25811,-12005,-6420,-3059,-29379
1324959,-2.61748,-9.50811,1.26807,-84.4574,7.66296,-132.863,17.5171,-9.82666,12.146,0.335358,-0.223145,0.634979,-0.659119,31699,-11749,-5396,-3059,-29379
1324965,-2.07197,-9.72344,1.36855,-84.2596,7.85522,-132.704,16.8457,-8.66699,13.7329,0.337708,-0.222351,0.633911,-0.65921,-27181,-12261,-3348,-3059,-29379
1324971,-2.56963,-9.79043,1.41162,-84.1498,7.9541,-132.632,19.7754,-7.8125,14.1602,0.338837,-0.221893,0.633423,-0.659271,-14893,-12517,-532,-3059,-29379
1324977,-2.95723,-9.21621,1.33984,-84.0289,8.05847,-132.539,21.4844,-11.2305,15.2588,0.339996,-0.221344,0.632843,-0.659393,-8749,-13029,749,-3059,-29379
1324983,-2.82803,-9.35977,1.69395,-83.9026,8.15735,-132.435,22.0337,-14.4043,14.4653,0.341278,-0.220856,0.632202,-0.659515,-3885,-12517,1261,-3059,-29379
1324989,-2.49307,-8.78076,1.78008,-83.7872,8.25623,-132.33,19.7754,-13.4888,15.0146,0.342651,-0.220459,0.6315,-0.659607,1236,-12261,2029,-3059,-29379
1324995,-3.46924,-9.46982,1.00967,-83.573,8.46497,-132.171,18.7378,-10.1929,15.2588,0.345154,-0.219513,0.630341,-0.659729,10196,-11493,3565,-3059,-29379
1325001,-2.58877,-9.45068,1.06709,-83.4521,8.55835,-132.05,20.6909,-16.4795,14.8315,0.346375,-0.219055,0.629791,-0.65976,15316,-11749,5101,-3067,-29378
1325007,-1.93799,-9.36934,1.61738,-83.3258,8.65723,-131.946,22.4609,-13.916,15.4419,0.347778,-0.21875,0.629089,-0.659821,20692,-12261,5869,-3067,-29378
1325013,-2.5792,-9.46025,2.0959,-83.1995,8.76709,-131.869,22.0947,-8.60596,16.9067,0.349121,-0.218323,0.628357,-0.659912,27092,-12261,6125,-3067,-29378
1325019,-3.00508,-9.91484,1.92363,-83.0731,8.87146,-131.781,22.2778,-10.3149,17.395,0.350342,-0.217743,0.627747,-0.660065,32468,-12261,5869,-3067,-29378
1325025,-2.74668,-8.90039,2.52178,-82.804,9.06921,-131.594,23.1934,-11.1084,15.0757,0.352966,-0.216614,0.626343,-0.66037,-22828,-9701,5357,-3067,-29378
1325031,-2.60313,-9.01523,2.40693,-82.6941,9.16809,-131.528,19.4092,-6.7749,15.4419,0.354218,-0.216125,0.625641,-0.660522,-17964,-9445,5357,-3067,-29378
1325037,-3.03857,-9.42197,1.85186,-82.5952,9.26697,-131.462,17.7612,-6.40869,15.0757,0.355316,-0.215546,0.625092,-0.660645,-13356,-8677,5613,-3067,-29378
1325043,-2.73711,-9.82871,1.54561,-82.4799,9.36035,-131.38,20.2026,-8.97217,15.2588,0.356384,-0.214996,0.624603,-0.660706,-7980,-8677,5613,-3067,-29378
1325049,-2.31602,-9.73779,1.47383,-82.3535,9.45923,-131.292,21.7896,-9.8877,16.2354,0.357513,-0.214508,0.624023,-0.660797,-2348,-9189,5357,-3067,-29378
1325055,-3.43096,-10.4938,1.38291,-82.1063,9.67346,-131.155,23.3765,-6.65283,18.6157,0.359863,-0.213318,0.622772,-0.661072,9173,-9701,4589,-3067,-29378
1325061,-3.60322,-10.2594,1.22021,-81.9525,9.78333,-131.072,28.0762,-9.0332,18.6157,0.361084,-0.212646,0.622162,-0.661224,15061,-10469,3821,-3067,-29378
1325067,-3.26348,-9.86699,1.64609,-81.7822,9.8877,-130.974,31.6162,-12.4512,17.7612,0.362366,-0.211945,0.621368,-0.661499,20437,-10725,2797,-3067,-29378
1325073,-2.77061,-9.23057,1.94756,-81.6119,9.98657,-130.869,30.8838,-12.3291,17.5171,0.36377,-0.211304,0.620422,-0.661804,25557,-10981,1261,-3067,-29378
1325079,-3.00508,-9.82393,1.93799,-81.4581,10.0964,-130.781,27.71,-10.2539,19.165,0.365173,-0.210693,0.619476,-0.662109,30933,-11749,237,-3067,-29378
1325085,-3.0625,-11.1111,1.75137,-81.1285,10.3326,-130.551,30.8228,-18.0054,23.1934,0.36792,-0.20932,0.617859,-0.662537,-24875,-12005,-4628,-3067,-29378
1325091,-1.41162,-11.8002,3.88555,-80.9802,10.4919,-130.419,25.9399,-15.564,31.189,0.369598,-0.20874,0.616882,-0.662689,-19499,-12005,-6932,-3067,-29378
1325097,-1.91406,-11.7284,3.12949,-80.8594,10.6952,-130.325,20.2637,-7.56836,38.6353,0.371399,-0.207947,0.61615,-0.662628,-14123,-10725,-9748,-3067,-29378
1325103,-2.96201,-11.5466,1.41162,-80.744,10.9149,-130.243,21.3623,-4.63867,42.7246,0.373138,-0.206818,0.615753,-0.662354,-9003,-9445,-11540,-3067,-29378
1325109,-3.11035,-11.1398,1.44033,-80.6067,11.1511,-130.139,23.9868,-8.54492,46.3867,0.374908,-0.205475,0.615448,-0.662079,-3371,-7909,-12820,-3067,-29378
1325115,-1.33027,-12.3457,5.04355,-80.387,11.7114,-129.93,15.3809,-2.44141,59.2041,0.379059,-0.202728,0.614685,-0.661255,10198,-4069,-13332,-3067,-29378
1325121,-1.76094,-12.8099,4.50762,-80.3265,12.0575,-129.886,10.6201,6.71387,67.8711,0.381165,-0.201019,0.614655,-0.660583,18134,-2277,-14868,-3067,-29378
1325127,-2.2251,-12.3792,3.05293,-80.2661,12.431,-129.831,9.58252,6.7749,73.2422,0.38324,-0.198883,0.615021,-0.659729,26838,-997,-16916,-3067,-29378
1325133,-2.05762,-12.0107,3.07686,-80.2057,12.832,-129.771,9.46045,7.38525,79.2236,0.385406,-0.196655,0.615417,-0.658722,-29226,28,-19732,-3067,-29378
1325139,-2.74189,-12.0825,3.4501,-80.1617,13.266,-129.738,6.71387,12.6343,85.6934,0.390076,-0.191559,0.616547,-0.656433,-20266,796,-22036,-3067,-29378
1325145,-2.3543,-12.6232,3.61758,-80.0848,14.1998,-129.666,7.20215,14.3433,95.0928,0.392456,-0.188751,0.61734,-0.65509,-2090,3868,-23572,-3067,-29378
1325151,-1.78486,-12.6854,4.56504,-80.0409,14.7162,-129.655,7.56836,19.8975,101.257,0.394989,-0.185791,0.618073,-0.653717,8151,6172,-23572,-3067,-29378
1325157,-2.14854,-11.4652,4.47412,-80.0134,15.2545,-129.672,5.67627,27.1606,105.957,0.397552,-0.182465,0.618896,-0.652313,18903,8732,-23060,-3067,-29378
1325163,-2.37822,-11.092,4.22051,-80.0299,15.8148,-129.666,-2.56348,32.959,108.887,0.400024,-0.178864,0.619934,-0.650818,31191,10780,-23060,-3067,-29378
1325169,-3.1917,-12.1687,4.10088,-80.0739,16.4136,-129.672,-6.71387,36.6821,116.394,0.405273,-0.171753,0.622711,-0.64679,-22313,12828,-23060,-3067,-29378
1325175,-3.67021,-11.9485,3.55537,-80.1837,17.699,-129.639,-10.8032,31.311,131.104,0.408112,-0.16806,0.624329,-0.64444,5848,18716,-27156,-3067,-29378
1325181,-3.24434,-13.8817,2.75625,-80.2881,18.3911,-129.639,-19.2871,39.1235,136.108,0.411255,-0.164215,0.625916,-0.641876,21208,21276,-28692,-3067,-29378
1325187,-4.16309,-14.7957,1.98584,-80.3925,19.1272,-129.639,-19.6533,39.0625,145.874,0.414246,-0.160187,0.627899,-0.639008,-27944,24092,-31252,-3067,-29378
1325193,-4.05781,-15.2168,1.54561,-80.5298,19.8962,-129.622,-26.5503,36.0107,152.588,0.41748,-0.155884,0.629944,-0.635956,-10536,25884,32748,-3067,-29378
1325199,-4.85215,-16.7289,1.30635,-80.6287,20.7312,-129.584,-20.6909,34.668,168.213,0.424774,-0.146881,0.634247,-0.628967,7385,27676,31212,-3067,-29378
1325205,-5.78525,-17.0543,1.30156,-80.7385,22.5385,-129.408,-13.916,19.9585,185.059,0.428986,-0.141754,0.63623,-0.625275,-21031,30492,28652,-3067,-29378
1325211,-3.00029,-17.1404,1.64609,-80.755,23.5107,-129.26,-10.6201,18.0664,199.463,0.433685,-0.13681,0.637939,-0.621399,-1063,31772,29164,-3067,-29378
1325217,-2.95244,-17.3893,0.899609,-80.8044,24.527,-129.161,-14.7095,27.71,207.092,0.438782,-0.13147,0.639526,-0.61731,19930,32540,29932,-3067,-29378
1325223,-4.73252,-20.2077,0.344531,-80.8154,25.6036,-129.018,-10.2539,22.1558,222.046,0.443726,-0.125732,0.641449,-0.612976,-22566,-32484,31212,-3075,-29377
1325229,-4.55068,-22.2988,-0.813477,-80.777,26.7297,-128.837,-4.76074,15.4419,233.643,0.455048,-0.113373,0.644623,-0.603668,2011,-32484,31980,-3075,-29377
1325235,-3.72285,-21.6768,-2.90937,-80.3925,29.1852,-128.309,23.0103,4.27246,262.573,0.461639,-0.106415,0.645447,-0.59906,-13605,32284,-32532,-3075,-29377
1325241,-4.2875,-22.1696,-1.77051,-80.0958,30.509,-127.991,33.5693,0.488281,279.358,0.468536,-0.0990601,0.645996,-0.59436,13788,31004,31724,-3075,-29377
1325247,-4.17266,-21.8395,-0.90918,-79.7662,31.8988,-127.634,34.3018,-1.77002,295.105,0.475922,-0.0911255,0.646179,-0.589508,-23076,29468,29164,-3075,-29377
1325253,-3.84727,-23.3707,0.880469,-79.3927,33.3765,-127.211,36.1328,-6.53076,314.514,0.483673,-0.0827942,0.646301,-0.58429,6365,26908,23532,-3075,-29377
1325259,0.497656,-25.7968,3.096,-78.9642,34.9146,-126.738,39.2456,-9.64355,328.552,0.500488,-0.0648499,0.645966,-0.572632,-27427,22812,16620,-3075,-29377
1325265,-1.0958,-25.2082,2.40693,-77.9535,38.2379,-125.815,59.6313,9.64355,364.502,0.509216,-0.0549622,0.645569,-0.566376,-28450,11804,-21,-3075,-29377
1325271,-3.94775,-26.2083,3.11992,-77.3767,40.0397,-125.349,63.4766,14.6484,383.789,0.517914,-0.0439148,0.64505,-0.560028,5343,4892,-8981,-3075,-29377
1325277,-3.65107,-25.2943,3.58887,-76.6846,41.9128,-124.772,69.7632,7.38525,402.161,0.526733,-0.032135,0.644409,-0.553284,-23585,-3813,-17941,-3075,-29377
1325283,-1.02881,-25.2513,1.97148,-75.943,43.8519,-124.124,67.0166,7.38525,418.457,0.536041,-0.0198975,0.643341,-0.546143,15072,-13541,-27669,-3075,-29377
1325289,-2.78496,-17.729,-1.62217,-74.3665,47.9608,-122.8,65.0024,26.7944,448.669,0.554871,0.00616455,0.640869,-0.530334,-9248,-25573,26603,-3075,-29377
1325295,-10.1445,-16.9873,1.54082,-73.7677,50.0482,-122.151,29.4189,39.4287,448.242,0.564056,0.0199585,0.639801,-0.521515,8674,12315,1003,-3075,-29377
1325301,-10.0488,-25.9116,2.05283,-73.0096,52.1082,-121.075,-9.21631,-6.71387,456.543,0.572723,0.0331116,0.639648,-0.511536,-15134,-4582,-12054,-3075,-29377
1325307,-0.655566,-27.9166,2.45957,-71.889,54.1736,-119.734,18.1885,-23.3765,467.346,0.582642,0.0444946,0.638947,-0.500183,28387,-24038,-25622,-3075,-29377
1325313,-1.94277,-19.9493,2.44043,-70.7629,56.2555,-118.542,35.8887,8.97217,465.271,0.592957,0.0564575,0.637024,-0.489197,8676,19482,27370,-3075,-29377
1325319,-6.62266,-24.4043,1.72744,-68.2306,60.1996,-115.422,-16.6016,-20.5688,451.05,0.611115,0.0812378,0.633728,-0.467133,-10268,-4583,13034,-3075,-29377
1325325,-5.22539,-28.8354,-0.727344,-66.6211,62.0837,-113.555,0,-19.4092,447.327,0.620361,0.0917969,0.631958,-0.455231,19942,7705,-18711,-3075,-29377
1325331,-2.78018,-26.0982,-5.21582,-64.5117,63.8635,-111.264,20.3247,-41.1377,441.895,0.629181,0.102661,0.62973,-0.443787,231,-19432,30953,-3075,-29377
1325337,0.722559,-21.1504,-5.08662,-62.0673,65.495,-108.688,30.1514,-50.415,422.852,0.638123,0.113495,0.626343,-0.433014,-19737,16664,15593,-3067,-29378
1325343,1.10059,-18.1884,-5.19668,-59.491,66.9946,-105.991,27.832,-44.6167,402.161,0.646637,0.12384,0.622467,-0.422974,25576,-15337,1001,-3067,-29378
1325349,6.46475,-11.3887,-8.3166,-53.1793,69.4501,-99.4592,38.6963,-72.998,362.427,0.662292,0.142426,0.614563,-0.404083,5097,16151,-12568,-3067,-29378
1325355,9.60859,-4.75166,-9.37891,-49.389,70.351,-95.8063,77.8809,-88.9282,336.792,0.669586,0.150848,0.609924,-0.395935,26858,10006,23272,-3067,-29378
1325361,7.49356,18.442,-2.99072,-45.7251,70.9882,-92.45,105.774,-85.7544,283.02,0.676392,0.159424,0.604248,-0.389648,1003,-25067,8424,-3067,-29378
1325367,-2.7084,28.1511,-2.68926,-43.8245,71.131,-90.5768,32.0435,-72.876,146.729,0.681854,0.16745,0.598511,-0.38559,-25621,4117,-7449,-3067,-29378
1325373,3.83291,10.3886,-3.49795,-42.8741,70.719,-89.3298,-38.7573,-125.366,42.2974,0.68515,0.169922,0.595367,-0.383545,8940,-31980,-24089,-3067,-29378
1325379,7.19688,3.59844,-1.52168,-44.1486,69.2578,-90.1428,-52.124,-91.3696,-116.577,0.68988,0.161591,0.591125,-0.385223,2797,-31213,3815,-3067,-29378
1325385,9.55596,-0.368457,-0.229688,-45.824,68.1921,-91.4777,-81.4209,-95.6421,-177.49,0.689667,0.154449,0.59082,-0.389008,25837,7699,-15130,-3067,-29378
1325391,10.7714,-6.57002,-0.674707,-47.9059,67.077,-93.219,-88.9282,-70.6787,-211.792,0.688599,0.144806,0.591248,-0.39389,-19219,-15342,32486,-3067,-29378
1325397,9.4459,-10.8432,-1.43555,-50.0043,65.907,-95.0427,-80.0171,-58.8989,-229.065,0.686249,0.13446,0.592743,-0.399445,-2323,31250,15846,-3067,-29378
1325403,9.26406,-12.8051,-1.94277,-51.9379,64.7205,-96.7786,-66.8945,-53.3447,-233.093,0.683075,0.124115,0.594452,-0.405609,10734,16914,1766,-3067,-29378
1325409,7.55576,-13.0635,-1.53604,-55.3162,62.3969,-99.9976,-37.4756,-37.8418,-225.525,0.675415,0.104828,0.597717,-0.418884,26606,1810,-24603,-3067,-29378
1325415,7.72324,-11.9055,-1.16758,-56.7114,61.2872,-101.415,-24.231,-31.4941,-216.797,0.671173,0.0962219,0.599091,-0.425751,29934,18,28645,-3067,-29378
1325421,7.23994,-10.3359,-1.24893,-57.9803,60.2216,-102.772,-12.4512,-22.2778,-208.435,0.666779,0.0883484,0.600281,-0.432617,29934,1298,17125,-3067,-29378
1325427,6.53652,-9.13008,-1.47383,-59.1119,59.1888,-104.03,-3.41797,-18.4326,-200.195,0.66217,0.0812073,0.60144,-0.439453,28910,3858,7141,-3067,-29378
1325433,6.31162,-7.70889,-1.86143,-60.1392,58.1836,-105.222,3.54004,-14.2212,-194.336,0.657501,0.0746155,0.602448,-0.446198,25838,8722,-2332,-3067,-29378
1325439,5.31631,-4.4502,-1.69873,-62.0508,56.2115,-107.523,7.56836,-4.21143,-190.674,0.647766,0.0626221,0.604309,-0.459503,12526,25106,-21020,-3067,-29378
1325445,4.94785,-3.01465,-1.68438,-63.0011,55.2118,-108.649,2.80762,0,-194.824,0.642639,0.0568542,0.605347,-0.466064,3054,-29678,-29980,-3067,-29378
1325451,4.6751,-2.14375,-1.83271,-63.9954,54.1791,-109.792,-5.43213,5.18799,-201.904,0.637268,0.0509033,0.606537,-0.472534,-8723,-17902,27620,-3050,-29380
1325457,4.39756,-1.57432,-2.13418,-65.0226,53.0969,-110.934,-14.2212,8.17871,-213.074,0.631561,0.0446777,0.608002,-0.478882,-20755,-5614,20708,-3050,-29380
1325463,4.40713,-1.16279,-2.38779,-66.0828,51.9434,-112.077,-23.4985,10.0098,-226.318,0.625488,0.0379333,0.609711,-0.48526,31981,7443,16868,-3050,-29380
1325469,4.68467,-1.31113,-2.29209,-68.3679,49.411,-114.379,-48.2788,15.1978,-257.507,0.61203,0.0227051,0.613861,-0.497986,2541,-28397,12516,-3050,-29380
1325475,5.14883,-2.09111,-2.1916,-69.5654,48.0212,-115.521,-59.082,18.6157,-273.621,0.604553,0.0140076,0.616302,-0.504333,-12820,-12013,11236,-3050,-29380
1325481,4.95742,-3.23477,-2.06719,-70.7849,46.5546,-116.653,-68.1763,21.9727,-288.574,0.596527,0.00469971,0.619019,-0.510712,-30484,5652,9956,-3050,-29380
1325487,5.00527,-4.13438,-1.90449,-71.9989,45.0165,-117.751,-76.2329,24.4141,-301.27,0.587952,-0.00515747,0.621918,-0.51709,15852,24852,10468,-3050,-29380
1325493,4.81865,-5.26367,-1.65088,-73.2239,43.418,-118.828,-84.6558,29.2358,-312.988,0.569336,-0.0263062,0.628082,-0.529724,-2837,-21740,11236,-3050,-29380
1325499,4.01475,-7.11553,-1.51689,-75.5695,40.0452,-120.806,-95.0928,29.0527,-331.482,0.559387,-0.0375061,0.631165,-0.535919,18411,20757,17636,-3050,-29380
1325505,3.59844,-8.26875,-1.43076,-76.6846,38.2983,-121.723,-97.8394,31.5552,-337.646,0.549103,-0.0489807,0.634186,-0.542023,-6166,-21739,24036,-3050,-29380
1325511,2.9668,-9.14922,-1.19629,-77.7502,36.524,-122.569,-99.6704,31.7993,-341.064,0.538483,-0.0606384,0.637115,-0.548035,32490,2070,31716,-3050,-29380
1325517,2.48828,-9.86221,-1.08145,-78.7555,34.7333,-123.354,-101.196,30.5176,-343.018,0.527649,-0.0723572,0.639893,-0.553864,4074,25622,-25372,-3050,-29380
1325523,1.94756,-10.647,-0.827832,-79.7168,32.937,-124.069,-102.234,29.9683,-343.323,0.505646,-0.0959778,0.644867,-0.564941,-26391,-15850,-15644,-3050,-29380
1325529,0.401953,-11.8146,-0.717773,-81.4966,29.339,-125.327,-104.492,27.6489,-342.346,0.494507,-0.107758,0.647064,-0.570129,-23064,30231,4837,-3050,-29380
1325535,-0.803906,-11.9964,-0.76084,-82.3206,27.5317,-125.848,-107.3,23.5596,-343.323,0.483368,-0.119537,0.649017,-0.575104,7912,-10985,17381,-3050,-29380
1325541,-1.57432,-12.2548,-0.933105,-83.1116,25.719,-126.288,-110.84,16.4795,-344.421,0.47226,-0.131439,0.650726,-0.579773,-28185,13336,31205,-3050,-29380
1325547,-2.20596,-12.8051,-0.645996,-83.8696,23.8953,-126.656,-114.014,11.1084,-345.459,0.461243,-0.143555,0.652161,-0.584137,-538,-28136,-18715,-3050,-29380
1325553,-3.11035,-13.5181,-0.669922,-84.6112,22.077,-126.947,-117.798,4.69971,-346.68,0.439453,-0.168304,0.654297,-0.591888,24806,-4328,-2075,-3050,-29380
1325559,-4.63203,-15.2838,0.344531,-85.99,18.457,-127.266,-121.765,-14.4043,-343.811,0.428894,-0.181,0.654877,-0.595245,10981,-25575,31206,-3050,-29380
1325565,-4.9957,-16.1164,1.48818,-86.6492,16.6992,-127.321,-124.146,-19.104,-337.585,0.41861,-0.193787,0.655151,-0.598206,-32284,-4071,-16666,-3050,-29380
1325571,-5.21104,-17.3366,2.27295,-87.3083,14.9963,-127.332,-126.953,-22.3389,-328.003,0.4086,-0.206482,0.655243,-0.6008,-12061,16410,2279,-3042,-29381
1325577,-5.78525,-18.2602,3.12471,-87.951,13.3539,-127.304,-127.441,-23.3154,-317.444,0.398926,-0.218964,0.655243,-0.602875,5859,-29670,23527,-3042,-29381
1325583,-6.125,-18.4563,3.99082,-88.5773,11.7828,-127.233,-126.587,-25.8789,-305.603,0.380585,-0.242828,0.654877,-0.605957,21986,-11750,-19993,-3042,-29381
1325589,-5.48857,-18.8679,5.52686,-89.8407,8.81104,-127.035,-130.493,-21.4844,-287.292,0.371918,-0.254211,0.654602,-0.606995,-9248,19483,23272,-3042,-29381
1325595,-5.22061,-19.8967,5.85225,-90.4724,7.38281,-126.936,-130.188,-17.0898,-282.288,0.363312,-0.265228,0.654419,-0.607697,5856,-32229,-20248,-3042,-29381
1325601,-5.18711,-20.6814,6.29727,-91.0822,5.96558,-126.854,-126.892,-11.5967,-281.311,0.354767,-0.275879,0.654175,-0.608276,19935,-19941,1257,-3042,-29381
1325607,-5.54121,-21.1121,6.57002,-91.6754,4.53735,-126.782,-122.986,-5.24902,-286.743,0.3461,-0.286224,0.653809,-0.608887,-32034,-9701,22505,-3042,-29381
1325613,-7.04375,-22.1648,6.61787,-92.2357,3.04871,-126.727,-117.188,0,-298.34,0.327789,-0.306488,0.652313,-0.610748,-19491,-1253,-20247,-3042,-29381
1325619,-7.82373,-22.3515,6.55088,-93.186,-0.12085,-126.639,-95.0317,10.1318,-329.712,0.318024,-0.31665,0.650848,-0.612274,6620,11804,23786,-3042,-29381
1325625,-8.53672,-22.3658,6.45518,-93.5706,-1.81824,-126.623,-83.8623,16.7236,-345.459,0.3078,-0.326843,0.648773,-0.614319,19163,15900,-20758,-3042,-29381
1325631,-9.16357,-22.3036,6.27813,-93.9111,-3.57605,-126.634,-75.1953,25.5737,-358.337,0.297119,-0.337006,0.646149,-0.616852,30170,18204,-534,-3042,-29381
1325637,-10.1015,-22.1792,5.95752,-94.2078,-5.37781,-126.683,-68.2983,35.8887,-368.225,0.285919,-0.347046,0.643066,-0.619781,-25895,18204,18411,-3042,-29381
1325643,-12.7285,-21.4327,5.03398,-94.4714,-7.21252,-126.782,-63.0493,47.1191,-375.061,0.262177,-0.366333,0.635956,-0.626526,-17448,15388,-28693,-3042,-29381
1325649,-14.4655,-21.2557,4.33535,-94.8834,-10.9039,-127.156,-53.6499,72.5098,-379.517,0.249664,-0.375336,0.63208,-0.630188,-1322,3612,4588,-3042,-29381
1325655,-16.193,-21.3657,3.43096,-95.0372,-12.7332,-127.43,-50.1709,83.6792,-377.197,0.236847,-0.38382,0.628052,-0.634033,7126,-5349,18668,-3042,-29381
1325661,-17.7912,-21.5332,2.73232,-95.1471,-14.5294,-127.755,-45.5933,93.0786,-371.338,0.223846,-0.391693,0.623993,-0.63797,14549,-17381,31980,-3042,-29381
1325667,-19.0066,-20.5762,3.03379,-95.2075,-16.2708,-128.128,-40.8325,101.196,-361.938,0.210815,-0.398956,0.619843,-0.641937,20948,-31205,-23316,-3042,-29381
1325673,-19.2842,-14.5708,7.59883,-95.235,-17.9352,-128.551,-39.0625,108.093,-347.351,0.185211,-0.411346,0.611694,-0.64978,27603,17947,-15892,-3042,-29381
1325679,-21.2987,-13.4894,7.55576,-95.3613,-20.9015,-129.644,-68.3594,134.583,-298.828,0.172729,-0.416168,0.608337,-0.65329,-24879,-23526,-9236,-3042,-29381
1325685,-25.4427,-15.3986,5.50293,-95.4492,-22.1814,-130.287,-75.0732,138.916,-271.79,0.160217,-0.419861,0.606079,-0.656219,-14128,19482,-6932,-3059,-29379
1325691,-30.3905,-16.9873,4.13438,-95.4492,-23.313,-130.919,-58.3496,133.301,-245.605,0.148285,-0.422607,0.604431,-0.658752,-1841,-4327,-7188,-3059,-29379
1325697,-35.1805,-16.4705,3.65586,-95.3284,-24.3018,-131.501,-31.9824,119.69,-220.154,0.137573,-0.424591,0.602722,-0.661346,11727,-28391,-8724,-3059,-29379
1325703,-42.1477,-11.8672,3.13906,-95.0977,-25.1367,-132.006,19.8975,80.2002,-164.185,0.121185,-0.427032,0.598175,-0.667114,27854,13081,-11796,-3059,-29379
1325709,-44.3058,-7.00547,2.8041,-94.411,-26.2958,-132.715,38.3301,54.8096,-132.996,0.115784,-0.427704,0.595398,-0.670105,461,29464,-24340,-3059,-29379
1325715,-45.2915,-1.3877,3.5458,-94.0704,-26.5924,-132.896,42.2363,30.0903,-97.9004,0.112335,-0.428101,0.59256,-0.672943,24012,6168,-31508,-3059,-29379
1325721,-45.5882,3.07686,4.56504,-93.8562,-26.6858,-132.984,26.1841,9.82666,-60.8521,0.110687,-0.428223,0.590179,-0.675232,-15925,-17129,25836,-3059,-29379
1325727,-46.5835,-7.54619,8.07256,-93.9661,-26.4716,-132.935,-26.9165,-20.5078,-1.2207,0.110382,-0.428009,0.588898,-0.676544,12747,25367,17900,-3059,-29379
1325733,-38.7789,-14.2885,9.68516,-94.054,-25.9607,-132.748,3.41797,-68.3594,108.887,0.115601,-0.425995,0.591827,-0.674377,-20790,4119,10476,-3059,-29379
1325739,-33.3717,-12.317,9.80479,-93.988,-24.1754,-132.16,38.9404,-78.7964,150.574,0.121918,-0.423737,0.593964,-0.672821,-11575,32278,-1557,-3059,-29379
1325745,-28.553,-12.1687,14.3555,-93.6914,-23.0164,-131.858,72.3267,-78.5522,182.861,0.130402,-0.420471,0.595734,-0.671722,31689,17942,-5909,-3059,-29379
1325751,-10.8479,-39.1809,7.97686,-93.5266,-21.7255,-131.391,57.373,-109.192,210.51,0.140411,-0.416138,0.597015,-0.671265,12233,5654,-8725,-3059,-29379
1325757,12.5563,-18.1501,34.8216,-92.6752,-19.9017,-131.105,179.016,-80.7495,322.021,0.151703,-0.412109,0.598938,-0.669556,-3384,-3563,-9749,-3059,-29379
1325763,20.6479,3.24434,49.6604,-91.7523,-18.2538,-131.034,-39.2456,-25.2075,316.345,0.181183,-0.394226,0.599243,-0.672729,-15160,-9707,-10517,-3059,-29379
1325769,8.4123,-9.47939,8.53672,-92.0544,-14.6613,-131.309,-67.1997,38.3301,332.52,0.191528,-0.38562,0.605804,-0.668945,-25400,-12267,-10261,-3059,-29379
1325775,-1.62217,-22.7056,-6.99111,-92.3621,-12.821,-131.49,-84.1064,15.9912,335.51,0.200165,-0.374969,0.61377,-0.665192,-23864,-7403,-8469,-3059,-29379
1325781,-3.4501,-27.1462,1.99063,-92.1204,-11.0413,-131.677,26.7944,18.5547,326.05,0.209137,-0.365021,0.621948,-0.66037,-20536,-1259,-6421,-3059,-29379
1325787,-3.12471,-9.56553,3.52188,-91.5326,-9.34937,-131.957,95.3369,41.9922,310.242,0.219452,-0.354279,0.626587,-0.658478,-13368,8214,-3349,-3059,-29379
1325793,-7.65625,-10.6805,3.93818,-91.2469,-7.75085,-132.248,-13.3667,28.3813,277.954,0.23822,-0.331848,0.632965,-0.657562,-2616,20758,-789,-3059,-29379
1325799,-8.29268,-17.9252,-0.531152,-91.0437,-4.81201,-132.66,20.2026,38.6353,254.944,0.246124,-0.322479,0.637665,-0.654755,27593,-14570,-1813,-3059,-29379
1325805,-12.0634,-19.6622,-0.430664,-90.5768,-3.60901,-133,77.0264,63.9648,214.233,0.25354,-0.31311,0.641083,-0.653107,-18743,2327,-3605,-3059,-29379
1325811,-10.9341,-10.6374,-4.09609,-90,-2.49939,-133.099,105.164,19.5923,195.679,0.259796,-0.303558,0.642548,-0.653748,2250,19479,-5909,-3059,-29379
1325817,-4.18223,-9.23057,3.13906,-89.5935,-1.4447,-133.077,71.8994,-3.35693,186.34,0.26712,-0.295471,0.642395,-0.654663,22986,-29417,-8213,-3059,-29379
1325823,-13.5659,-6.57002,9.4124,-88.8684,0.109863,-133.704,62.5,91.1865,112.61,0.279022,-0.281891,0.64328,-0.654816,-19766,-13033,-10005,-3059,-29379
1325829,-17.2074,-1.96191,-6.15371,-88.6542,0.406494,-133.901,33.3862,41.8701,32.4097,0.281281,-0.274536,0.643982,-0.65625,28363,20504,-14613,-3059,-29379
1325835,-7.38828,-9.20664,-0.885254,-88.6707,0.697632,-133.83,-10.6201,-12.6953,33.02,0.282288,-0.27121,0.643982,-0.657227,-13365,-28392,-18965,-3059,-29379
1325841,-1.55518,-15.4226,0.866113,-88.4729,0.977783,-133.846,31.7993,6.5918,31.4331,0.284332,-0.269958,0.644562,-0.656281,8908,-12776,-23573,-3059,-29379
1325847,-0.870898,-11.4652,0.368457,-88.1213,1.26343,-133.94,62.8052,21.6675,33.4473,0.286255,-0.267761,0.644165,-0.656738,29644,1817,-28181,-3059,-29379
1325853,-3.40703,-7.68018,0.105273,-87.7039,1.8457,-134.127,21.6064,21.3623,31.8604,0.289886,-0.261688,0.642426,-0.659302,-16180,15129,-32021,-3059,-29379
1325859,-3.45967,-9.34062,0.818262,-87.561,2.12036,-134.127,23.0103,4.3335,32.8979,0.291229,-0.259216,0.642456,-0.659637,20429,-27111,25067,-3059,-29379
1325865,-1.98105,-7.4457,1.30635,-87.3743,2.38403,-134.149,31.4941,8.48389,30.2124,0.293091,-0.257233,0.642273,-0.65976,-27955,-16615,21739,-3059,-29379
1325871,-4.63682,-5.58906,1.06709,-87.226,2.59277,-134.231,24.7192,20.3857,19.2261,0.29483,-0.255096,0.641876,-0.660217,-11827,-6887,19691,-3059,-29379
1325877,-5.82354,-6.44082,1.43555,-87.1545,2.76306,-134.225,8.05664,2.2583,12.3291,0.295837,-0.253021,0.641693,-0.660736,3534,2586,19179,-3059,-29379
1325883,-0.980957,-10.0488,1.58867,-87.0831,3.03223,-134.143,1.34277,3.66211,4.63867,0.298309,-0.251404,0.641602,-0.660339,18126,11546,19435,-3059,-29379
1325889,-2.76104,-10.2498,1.17236,-87.0227,3.16406,-134.143,6.71387,3.84521,5.43213,0.299072,-0.250549,0.641693,-0.660217,-21810,27930,21739,-3059,-29379
1325895,-2.60313,-9.51289,0.555078,-86.9733,3.28491,-134.099,3.96729,-4.39453,5.7373,0.299896,-0.249634,0.641632,-0.660248,-10802,-30182,21739,-3059,-29379
1325901,-1.4834,-10.0823,1.40684,-86.9238,3.41125,-134.072,4.3335,-1.95312,5.7373,0.300934,-0.249023,0.641571,-0.660095,463,-24294,22507,-3059,-29379
1325907,-2.42607,-9.63252,0.808691,-86.8799,3.52661,-134.061,4.76074,1.77002,4.76074,0.30188,-0.248352,0.64151,-0.659973,11471,-19174,23531,-3059,-29379
1325913,-2.39736,-9.97227,1.93799,-86.781,3.76282,-133.951,6.7749,-8.60596,6.83594,0.30365,-0.24704,0.641418,-0.659729,21967,-14566,23787,-3059,-29379
1325919,-2.21553,-8.68027,1.56953,-86.7371,3.87817,-133.923,3.72314,-0.488281,6.89697,0.304779,-0.246552,0.641205,-0.659576,-23089,-6118,28139,-3067,-29378
1325925,-3.18213,-9.77129,2.22988,-86.7261,4.00452,-133.896,-1.95312,-1.15967,8.60596,0.305664,-0.24588,0.641174,-0.659454,-14129,-1510,31211,-3067,-29378
1325931,-3.04814,-9.87178,1.02402,-86.7041,4.13086,-133.835,-0.976562,-7.01904,9.21631,0.306549,-0.24527,0.641327,-0.659119,-5681,3099,-29973,-3067,-29378
1325937,-2.5792,-9.91963,1.56953,-86.6766,4.25171,-133.781,0.915527,-5.49316,9.58252,0.307617,-0.244812,0.641388,-0.658752,2256,7707,-24597,-3067,-29378
1325943,-2.55049,-9.58945,1.04316,-86.6327,4.49341,-133.704,0.12207,-3.54004,8.72803,0.30954,-0.243713,0.641479,-0.658173,17872,15899,-16149,-3067,-29378
1325949,-2.97158,-9.77129,0.794336,-86.6107,4.59229,-133.66,-0.366211,-4.27246,6.34766,0.310486,-0.243195,0.64151,-0.657867,26064,19995,-12565,-3067,-29378
1325955,-3.096,-9.91006,1.43076,-86.5942,4.69666,-133.61,0.0610352,-4.21143,7.32422,0.31134,-0.242798,0.641541,-0.657593,-31536,24347,-9493,-3067,-29378
1325961,-2.78496,-9.29277,1.4499,-86.5558,4.80103,-133.555,2.86865,-6.40869,6.7749,0.312225,-0.242401,0.641541,-0.657318,-23856,28955,-7701,-3067,-29378
1325967,-2.06719,-9.01045,2.0002,-86.5283,4.8999,-133.511,1.34277,-2.99072,6.53076,0.313171,-0.242035,0.641449,-0.657074,-16432,-32485,-3605,-3067,-29378
1325973,-3.34961,-9.35498,1.2585,-86.5118,4.99329,-133.489,-2.38037,-1.64795,6.22559,0.314697,-0.241119,0.64151,-0.656647,-9264,-28389,748,-3067,-29378
1325979,-3.2874,-9.43154,0.961816,-86.4899,5.18005,-133.407,-0.671387,-3.66211,5.79834,0.315399,-0.240753,0.641602,-0.656342,4817,-22245,10476,-3067,-29378
1325985,-2.65576,-9.39326,1.24893,-86.4734,5.26245,-133.363,-0.12207,-3.35693,4.88281,0.316193,-0.240417,0.641632,-0.656067,11985,-19941,15084,-3067,-29378
1325991,-2.3208,-9.45068,1.21543,-86.4624,5.34485,-133.336,-1.64795,-0.671387,4.63867,0.316925,-0.240112,0.641632,-0.655823,19921,-18149,19692,-3067,-29378
1325997,-2.55049,-10.0823,0.282324,-86.4624,5.42175,-133.303,-2.68555,-0.915527,4.63867,0.317535,-0.239746,0.641693,-0.655579,27601,-16869,24044,-3067,-29378
1326003,-2.12461,-10.001,0.46416,-86.413,5.58105,-133.209,2.86865,-3.72314,5.24902,0.318909,-0.239197,0.641785,-0.65506,-30255,-15077,28652,-3067,-29378
1326009,-2.65098,-10.3599,0.693848,-86.38,5.66345,-133.182,4.02832,0.12207,6.22559,0.319672,-0.238922,0.641693,-0.654877,-15663,-12261,-29716,-3067,-29378
1326015,-3.43574,-9.82393,0.0526367,-86.3251,5.75134,-133.143,9.0332,-1.52588,7.38525,0.320343,-0.238495,0.641632,-0.654755,-9263,-10469,-26132,-3067,-29378
1326021,-3.25391,-9.81914,0.722559,-86.2592,5.84473,-133.099,10.6812,-2.99072,8.36182,0.321136,-0.238007,0.641418,-0.654755,-2095,-9189,-21524,-3067,-29378
1326027,-2.97158,-9.26885,0.607715,-86.1877,5.93811,-133.055,12.207,-3.41797,8.54492,0.321991,-0.237518,0.641174,-0.654755,4818,-8421,-17940,-3067,-29378
1326033,-2.30166,-9.94834,1.04316,-86.0394,6.1084,-132.951,13.5498,-4.3335,8.42285,0.323761,-0.236603,0.640564,-0.654785,12242,-7141,-13844,-3067,-29378
1326039,-2.55527,-9.99619,1.12451,-85.946,6.20178,-132.913,16.2354,-2.2583,9.64355,0.324677,-0.236145,0.640198,-0.654877,26834,-5605,-5396,-3067,-29378
1326045,-2.64619,-9.63252,1.28242,-85.8417,6.28967,-132.858,18.6157,-4.57764,9.76562,0.325592,-0.235565,0.639801,-0.654999,-31790,-4837,-1300,-3067,-29378
1326051,-2.53135,-9.29277,1.46426,-85.7373,6.38306,-132.803,18.9819,-5.06592,9.94873,0.326599,-0.235046,0.639313,-0.655182,-25646,-3557,2797,-3067,-29378
1326057,-2.69883,-9.02959,1.77051,-85.6384,6.47095,-132.759,17.6392,-2.99072,9.58252,0.327637,-0.234497,0.638794,-0.655365,-20270,-3045,5101,-3067,-29378
1326063,-2.75146,-8.93389,1.99541,-85.4626,6.64673,-132.654,15.2588,-5.18799,9.82666,0.329468,-0.233398,0.637939,-0.65567,-15150,-2533,5869,-3067,-29378
1326069,-2.17725,-8.63721,2.01934,-85.3857,6.73462,-132.616,13.1226,-1.77002,9.27734,0.330444,-0.232941,0.637512,-0.655762,-4398,-1509,9709,-3067,-29378
1326075,-2.45479,-8.97695,2.00977,-85.3253,6.81702,-132.583,10.1929,0,9.09424,0.331268,-0.232422,0.637177,-0.655853,467,-1253,11757,-3067,-29378
1326081,-2.76104,-9.3502,1.44033,-85.2704,6.90491,-132.556,8.72803,-0.305176,9.76562,0.332001,-0.231903,0.636963,-0.655853,6867,-485,14317,-3067,-29378
1326087,-2.76582,-9.40283,1.11494,-85.21,6.9873,-132.517,9.82666,-1.40381,9.15527,0.332764,-0.231384,0.63678,-0.655823,13267,540,17645,-3067,-29378
1326093,-2.33037,-9.33584,1.17236,-85.0891,7.15759,-132.424,9.15527,-3.60107,9.76562,0.334351,-0.230499,0.636292,-0.655823,19923,1564,20205,-3067,-29378
1326099,-2.53613,-9.7043,1.20586,-85.0397,7.23999,-132.396,8.72803,0.671387,9.94873,0.335175,-0.230103,0.636047,-0.655762,32467,1820,26093,-3067,-29378
1326105,-3.19648,-9.8957,1.26807,-84.9628,7.32788,-132.352,12.9395,-2.13623,10.2539,0.335876,-0.229584,0.635895,-0.655731,-27949,1308,29165,-3067,-29378
1326111,-2.86152,-9.50332,0.947461,-84.8859,7.41577,-132.292,13.7329,-5.7373,11.3525,0.336731,-0.229095,0.63559,-0.655792,-22573,796,31725,-3067,-29378
1326117,-2.29688,-9.10615,1.10537,-84.8035,7.50366,-132.22,13.6108,-8.05664,11.5356,0.337677,-0.228668,0.635193,-0.655823,-17197,540,-31251,-3067,-29378
1326123,-2.94287,-10.2833,1.05752,-84.6661,7.69043,-132.1,12.4512,-5.00488,13.916,0.339661,-0.227905,0.634491,-0.655731,-11053,796,-28179,-3067,-29378
1326129,-3.11992,-10.1876,0.746484,-84.5728,7.7948,-132.023,16.7236,-8.48389,15.1978,0.340668,-0.227417,0.634186,-0.65567,724,1564,-23059,-3067,-29378
1326135,-2.88066,-9.81914,1.24414,-84.4629,7.89917,-131.94,19.3481,-9.94873,15.625,0.341827,-0.226929,0.633728,-0.655701,6356,2076,-20499,-3067,-29378
1326141,-2.82324,-9.51289,1.54561,-84.3585,8.00354,-131.863,18.7378,-8.17871,16.6016,0.343048,-0.22644,0.633179,-0.655762,11476,2844,-18963,-3067,-29378
1326147,-3.15342,-10.3312,1.43555,-84.2596,8.1134,-131.786,16.9067,-7.69043,16.9067,0.344238,-0.225891,0.63266,-0.655823,16852,3868,-17683,-3067,-29378
1326153,-2.64141,-10.3264,0.899609,-84.0179,8.33862,-131.616,24.4141,-10.9863,18.3105,0.346649,-0.224792,0.631683,-0.655853,21972,4892,-16659,-3067,-29378
1326159,-2.36865,-9.74736,1.50254,-83.8751,8.44849,-131.523,26.123,-11.0474,18.4937,0.348022,-0.224213,0.630981,-0.656006,31956,7452,-15379,-3075,-29377
1326165,-2.17246,-9.46504,2.02891,-83.7433,8.55835,-131.44,24.5972,-9.52148,18.0664,0.349396,-0.223602,0.630249,-0.656189,-28972,8732,-15635,-3075,-29377
1326171,-2.56963,-9.42676,2.02412,-83.6115,8.6792,-131.364,23.5596,-7.69043,19.2261,0.350708,-0.222961,0.629578,-0.656372,-24364,10012,-16147,-3075,-29377
1326177,-2.79453,-10.0775,2.05762,-83.4906,8.79456,-131.292,22.7661,-7.08008,19.7144,0.35199,-0.22229,0.628937,-0.656494,-20012,11036,-16659,-3075,-29377
1326183,-3.3209,-10.0728,1.55039,-83.1995,9.04175,-131.138,28.5645,-6.28662,20.752,0.354584,-0.220856,0.627716,-0.656769,-15404,11548,-17683,-3075,-29377
1326189,-3.97168,-9.83828,1.63174,-83.0457,9.16809,-131.061,29.48,-8.42285,21.4844,0.355927,-0.220032,0.626984,-0.657043,-6444,12828,-21779,-3075,-29377
1326195,-3.38311,-10.0871,1.68916,-82.8754,9.28345,-130.963,30.9448,-11.8408,20.6909,0.35733,-0.219208,0.62619,-0.657288,-1580,13084,-23571,-3075,-29377
1326201,-2.76582,-9.63731,1.84707,-82.6886,9.4043,-130.864,34.729,-11.4136,20.6909,0.358826,-0.218506,0.625305,-0.657562,3029,13596,-25107,-3075,-29377
1326207,-2.67012,-9.69951,1.83271,-82.5128,9.52515,-130.776,32.5928,-9.39941,20.874,0.360321,-0.217712,0.624329,-0.657928,7637,13596,-26387,-3075,-29377
1326213,-3.21563,-10.5991,1.46426,-82.1448,9.77234,-130.589,34.5459,-10.437,22.2168,0.36322,-0.216064,0.622498,-0.6586,17877,14108,-28435,-3075,-29377
1326219,-3.36396,-10.8958,1.65566,-81.936,9.89868,-130.479,39.4287,-13.6108,23.8037,0.364716,-0.21524,0.621552,-0.658936,24277,14620,-30739,-3075,-29377
1326225,-3.16299,-10.7953,1.2585,-81.7053,10.0305,-130.358,42.6636,-14.8926,24.7192,0.366394,-0.214355,0.620422,-0.659363,30933,15132,-32019,-3075,-29377
1326231,-3.00029,-11.0729,1.63652,-81.4581,10.1733,-130.237,46.814,-15.1367,26.7944,0.368164,-0.21344,0.619171,-0.659851,-27691,15644,32493,-3075,-29377
1326237,-2.99551,-11.3982,2.16768,-81.1835,10.3271,-130.117,51.4526,-14.9536,29.1138,0.370026,-0.212433,0.617859,-0.66037,-21291,16412,31213,-3075,-29377
1326243,-0.507227,-11.5609,4.71338,-80.8099,10.7996,-129.858,23.9868,-10.8032,52.9175,0.374176,-0.209961,0.615295,-0.661224,-9259,17436,28909,-3075,-29377
1326249,-1.33027,-10.2402,2.75146,-80.6891,11.0962,-129.798,22.2778,2.19727,57.4951,0.376434,-0.208496,0.614868,-0.660797,-2859,18460,26861,-3075,-29377
1326255,-2.78496,-12.2691,4.2875,-80.6177,11.4313,-129.738,12.7563,4.27246,65.1245,0.378448,-0.206604,0.614746,-0.660339,3542,19996,25325,-3075,-29377
1326261,-1.46426,-12.7955,4.23008,-80.5682,11.7938,-129.655,6.16455,0.488281,72.0825,0.380524,-0.204559,0.61499,-0.659546,11222,21276,21997,-3075,-29377
1326267,-1.40684,-13.5324,3.47402,-80.5353,12.2003,-129.633,5.37109,14.0991,79.4067,0.382843,-0.202576,0.615387,-0.658447,19670,23068,19693,-3075,-29377
1326273,-4.13916,-13.81,2.74189,-80.4694,13.1287,-129.578,6.7749,11.0474,95.52,0.387146,-0.197235,0.616974,-0.656067,-27434,26396,13805,-3075,-29377
1326279,-3.0625,-13.5276,2.67969,-80.4144,13.645,-129.512,7.8125,9.52148,102.539,0.389832,-0.194336,0.617706,-0.654663,-16426,27676,11501,-3075,-29377
1326285,-2.24424,-12.2452,3.7707,-80.3375,14.1833,-129.463,12.9395,13.4888,107.239,0.392731,-0.191284,0.618439,-0.653137,-4906,29212,9965,-3075,-29377
1326291,-1.31113,-11.4126,5.10098,-80.2826,14.7491,-129.441,8.91113,19.9585,112.122,0.39566,-0.187897,0.61911,-0.651703,7127,31004,8429,-3075,-29377
1326297,-0.971387,-10.3838,4.87607,-80.2936,15.3369,-129.408,-2.13623,28.1982,116.028,0.398529,-0.184265,0.620026,-0.650146,19415,-32228,7405,-3075,-29377
1326303,-2.81846,-12.4462,3.67021,-80.4089,16.6223,-129.391,-11.5356,36.1328,128.784,0.404388,-0.177032,0.622894,-0.645752,-20265,-27876,5101,-3075,-29377
1326309,-3.1917,-12.4701,3.23477,-80.4749,17.3145,-129.375,-13.0005,35.0342,136.414,0.407349,-0.173157,0.624634,-0.64328,-5161,-25572,5101,-3075,-29377
1326315,-4.42627,-11.5801,3.55537,-80.5353,18.0396,-129.348,-12.3901,33.2642,143.677,0.410522,-0.169128,0.626404,-0.640594,11736,-23780,5869,-3075,-29377
1326321,-4.22051,-13.207,2.84717,-80.6451,18.7921,-129.337,-21.3013,37.6587,148.743,0.41394,-0.164917,0.628174,-0.637787,29912,-22244,6637,-3075,-29377
1326327,-4.20615,-13.9392,1.94277,-80.766,19.5776,-129.309,-24.7192,35.2783,156.921,0.420837,-0.156219,0.632446,-0.631195,-16680,-20964,6637,-3075,-29377
1326333,-5.36416,-16.3413,0.440234,-81.0681,21.275,-129.26,-27.2827,33.8745,174.438,0.424438,-0.151642,0.634949,-0.62735,21209,-18916,5613,-3075,-29377
1326339,-4.54111,-16.0877,1.04795,-81.1285,22.1869,-129.133,-18.4937,19.3481,186.401,0.428406,-0.146881,0.637238,-0.623474,-24615,-17892,5101,-3075,-29377
1326345,-2.74668,-17.7051,2.20117,-81.189,23.1372,-129.023,-17.8223,23.0103,194.519,0.433105,-0.141998,0.639069,-0.619446,-3879,-16612,4077,-3075,-29377
1326351,-2.65098,-17.973,2.40693,-81.2219,24.1425,-128.919,-12.4512,25.2075,205.75,0.437866,-0.13681,0.640961,-0.615295,18138,-15844,3053,-3075,-29377
1326357,-3.70371,-20.0642,1.76094,-81.2769,25.2081,-128.842,-14.0381,31.6772,217.285,0.447876,-0.125031,0.644775,-0.606567,-23846,-15332,2541,-3075,-29377
1326363,-4.15352,-21.1121,-1.54561,-81.178,27.5098,-128.513,6.34766,12.5732,246.399,0.45343,-0.118622,0.646515,-0.601868,24283,-15588,237,-3075,-29377
1326369,-4.22051,-21.3562,-3.18691,-81.0187,28.7402,-128.293,15.9912,11.5356,256.592,0.459686,-0.111816,0.647644,-0.597168,-15397,-16868,237,-3075,-29377
1326375,-4.65596,-21.3753,-2.18203,-80.7715,30.0201,-128.024,28.0151,5.12695,269.897,0.466187,-0.104553,0.648529,-0.592468,12252,-18404,-2580,-3075,-29377
1326381,-4.22529,-22.8013,-2.23467,-80.5078,31.3879,-127.711,26.7334,1.34277,287.781,0.473175,-0.0968628,0.648987,-0.587708,-24100,-20964,-6420,-3075,-29377
1326387,-3.31611,-24.9354,0.808691,-80.1508,32.8271,-127.315,36.0718,-7.8125,305.908,0.488678,-0.0802307,0.649353,-0.577026,6365,-23780,-11540,-3075,-29377
1326393,-2.76104,-25.6771,2.05283,-79.3488,35.9198,-126.469,44.3115,-9.0332,339.172,0.496765,-0.0711365,0.649506,-0.571136,5342,-31460,-24852,-3075,-29377
1326399,-0.593359,-26.8782,3.08643,-78.8379,37.6007,-125.997,51.9409,-1.64795,359.009,0.505463,-0.061554,0.649109,-0.565033,-27938,28700,-31508,-3075,-29377
1326405,-0.894824,-26.1413,3.34004,-78.2446,39.3585,-125.535,68.1763,7.38525,375.549,0.514313,-0.0510559,0.648621,-0.558624,5855,22044,25324,-3075,-29377
1326411,-1.871,-26.7203,3.89033,-77.6184,41.1987,-125.046,68.3594,12.5732,392.883,0.523163,-0.0395203,0.647797,-0.552246,-24353,13852,15084,-3075,-29377
1326417,-3.08164,-25.3853,0.531152,-76.1737,45.1373,-123.904,75.1343,13.2446,432.068,0.541199,-0.0145874,0.646027,-0.537964,13024,4124,3820,-3075,-29377
1326423,-1.77051,-22.0835,1.02881,-75.3278,47.2192,-123.179,71.5942,11.9629,450.317,0.550659,-0.0012207,0.644745,-0.53009,29153,-19429,-23573,-3075,-29377
1326429,-4.74209,-17.4228,3.31133,-74.6521,49.3726,-122.552,49.1333,38.0859,460.876,0.560333,0.0124512,0.64328,-0.521515,4322,-32229,27627,-3075,-29377
1326435,-10.6709,-22.1122,1.4499,-74.1138,51.4929,-121.811,-0.488281,29.2358,457.275,0.569275,0.0264893,0.642731,-0.511871,-18462,17691,11755,-3075,-29377
1326441,-5.03398,-29.0794,1.10059,-73.1415,53.5638,-120.597,8.72803,-19.4702,464.111,0.578217,0.0389709,0.642853,-0.500763,25571,283,-5398,-3075,-29377
1326447,-5.11055,-23.5717,3.1582,-70.708,57.7277,-118.087,38.147,6.28662,466.553,0.597992,0.0638733,0.639008,-0.479462,5348,-19942,-22550,-3075,-29377
1326453,-6.12021,-27.1127,1.1915,-69.2249,59.7546,-116.455,24.353,-16.2354,468.018,0.606934,0.0769653,0.637054,-0.468781,-32027,-2279,10730,-3075,-29377
1326459,-3.62715,-29.1272,-2.35908,-67.4286,61.7267,-114.587,40.7715,-21.4844,463.989,0.616272,0.0892029,0.634583,-0.457642,15334,-29927,-4631,-3075,-29377
1326465,-1.25371,-25.8207,-5.44072,-65.1709,63.6053,-112.379,64.8804,-33.3862,457.336,0.625366,0.101624,0.631439,-0.44693,-4378,7961,-18455,-3075,-29377
1326471,2.25859,-22.5716,-5.50293,-62.5452,65.3522,-109.77,61.4624,-48.0957,445.74,0.634247,0.114258,0.62738,-0.437012,-24089,-21736,32489,-3075,-29377
1326477,3.40225,-19.1167,-6.11064,-56.5961,68.4833,-103.876,57.4951,-45.7764,416.748,0.651031,0.137573,0.6185,-0.417816,22248,11544,16873,-3075,-29377
1326483,7.80938,-10.1206,-9.92441,-52.8003,69.7247,-100.151,70.6787,-77.4536,393.982,0.658722,0.148468,0.613983,-0.408569,-17943,6423,-16920,-3075,-29377
1326489,9.93877,-4.97656,-9.07744,-49.0814,70.7739,-96.6797,95.459,-55.8472,350.769,0.666534,0.158508,0.608337,-0.400482,25834,-31722,30440,-3075,-29377
1326495,13.4463,10.4029,-8.63242,-44.7803,71.499,-92.7631,125.671,-93.9941,319.824,0.672607,0.168457,0.603119,-0.394104,491,-2795,12264,-3075,-29377
1326501,3.90469,33.008,-1.60303,-42.193,71.911,-90.5768,109.497,-42.7246,198.73,0.678741,0.177795,0.596436,-0.389679,-25621,24597,-8217,-3075,-29377
1326507,9.61816,9.79521,-4.79473,-41.2701,71.109,-89.2749,-43.6401,-103.21,-30.4565,0.684174,0.183289,0.589935,-0.387512,11244,-14060,-30745,-3067,-29378
1326513,7.74717,7.19209,-3.08164,-42.7533,70.3784,-90.4559,-67.2607,-69.8853,-112.976,0.685699,0.178345,0.588623,-0.389099,10989,-22253,-11290,-3067,-29378
1326519,6.24941,3.79463,-2.6127,-44.8297,69.3677,-92.0819,-104.004,-82.7026,-177.246,0.685059,0.171173,0.589386,-0.392303,-27155,11795,32486,-3067,-29378
1326525,9.64688,-3.43096,-2.12939,-47.2302,68.2031,-93.9496,-126.221,-80.8105,-218.079,0.683807,0.161041,0.590851,-0.396545,-3603,-15086,14054,-3067,-29378
1326531,10.0728,-9.36455,-3.29697,-49.7516,67.0001,-95.9656,-125.793,-61.6455,-238.464,0.681824,0.1492,0.592987,-0.401367,17134,27666,-2331,-3067,-29378
1326537,8.37881,-14.2311,-3.20127,-54.1736,64.4897,-99.5691,-101.501,-56.3354,-243.896,0.675354,0.125397,0.598419,-0.412292,-31762,10258,-16923,-3067,-29378
1326543,7.83809,-14.6665,-2.44043,-56.0193,63.2538,-101.113,-86.1816,-49.4385,-236.877,0.671661,0.114044,0.600769,-0.418091,-12050,-9455,24293,-3067,-29378
1326549,6.87627,-13.9583,-1.77051,-57.6233,62.0618,-102.491,-69.2139,-44.7998,-226.318,0.667755,0.103455,0.602936,-0.424011,-8466,-12271,13029,-3067,-29378
1326555,6.61309,-12.5467,-1.07187,-58.9966,60.9082,-103.711,-54.6875,-42.4805,-215.454,0.663696,0.0937195,0.604767,-0.429962,-7698,-10735,3045,-3067,-29378
1326561,6.54609,-10.9963,-0.990527,-60.2325,59.7931,-104.854,-43.457,-35.8887,-206.36,0.659637,0.0847473,0.606262,-0.435913,-8210,-7919,-6428,-3067,-29378
1326567,5.79961,-7.67061,-1.05752,-62.3859,57.6343,-106.979,-22.644,-26.2451,-200.806,0.651093,0.0687561,0.608917,-0.447693,-11794,-2031,-14876,-3067,-29378
1326573,5.7709,-5.52207,-0.856543,-63.3691,56.5302,-108.018,-15.9912,-21.5454,-206.055,0.646545,0.0614014,0.610046,-0.453827,-24850,16402,-28700,-3067,-29378
1326579,5.7374,-3.87598,-0.794336,-64.3579,55.3876,-109.089,-13.1836,-14.9536,-216.614,0.641663,0.0541687,0.611115,-0.460205,31214,27410,30692,-3067,-29378
1326585,5.63213,-2.91895,-0.90918,-65.3632,54.1791,-110.187,-15.0757,-9.82666,-230.652,0.636292,0.046875,0.612244,-0.466858,20974,-26350,26596,-3067,-29378
1326591,5.75654,-2.43086,-1.01924,-66.3904,52.9047,-111.313,-18.0054,-4.21143,-245.972,0.630432,0.0392456,0.613556,-0.473785,8430,-13294,22756,-3067,-29378
1326597,5.56514,-2.42129,-1.22021,-68.5492,50.1306,-113.632,-29.7852,6.46973,-278.748,0.616943,0.0227661,0.616699,-0.488312,-18963,15379,16356,-3067,-29378
1326603,5.62734,-2.84717,-1.33984,-69.6698,48.6365,-114.796,-39.0625,12.0239,-292.297,0.609314,0.0137939,0.61853,-0.495819,30189,31507,14820,-3067,-29378
1326609,5.50771,-3.62715,-1.33506,-70.8179,47.0874,-115.955,-49.3164,18.1274,-303.955,0.601135,0.00430298,0.620605,-0.503326,12013,-15341,13796,-3067,-29378
1326615,5.13926,-4.52676,-1.60781,-71.955,45.4889,-117.07,-57.9834,20.874,-312.988,0.592407,-0.00558472,0.622955,-0.510712,-8212,4628,12516,-3067,-29378
1326621,4.98135,-5.40723,-1.58867,-73.0975,43.8574,-118.158,-66.3452,26.062,-318.909,0.583252,-0.0158997,0.625427,-0.517975,-30740,25876,12260,-3067,-29378
1326627,3.90469,-7.02939,-1.33984,-75.3442,40.545,-120.212,-81.665,35.1562,-323.547,0.563782,-0.0371399,0.630798,-0.531738,-11797,2581,14308,-3042,-29381
1326633,3.08164,-8.03428,-1.39727,-76.4319,38.8696,-121.157,-88.1348,36.8652,-324.28,0.553589,-0.0479431,0.633667,-0.538147,28139,24597,17892,-3042,-29381
1326639,2.56006,-8.7377,-1.26807,-77.4866,37.1777,-122.042,-92.5903,37.6587,-325.073,0.543213,-0.0588379,0.636536,-0.54422,747,-18155,23268,-3042,-29381
1326645,1.86621,-9.15879,-1.16758,-78.4973,35.4749,-122.866,-95.7031,38.0249,-326.965,0.532654,-0.0698242,0.639374,-0.549988,-27926,5398,29668,-3042,-29381
1326651,1.08145,-9.57988,-1.20107,-79.4696,33.7555,-123.635,-98.4497,38.0249,-329.102,0.521942,-0.0809021,0.642059,-0.555573,6890,29718,-28700,-3042,-29381
1326657,-0.545508,-10.3503,-1.34463,-81.2549,30.2344,-124.942,-101.807,28.6865,-338.074,0.500183,-0.103394,0.646912,-0.566162,7145,14103,-12572,-3042,-29381
1326663,-1.13408,-10.9245,-1.28242,-82.0844,28.4271,-125.469,-105.042,22.1558,-343.628,0.489197,-0.11499,0.648895,-0.571198,-27416,-26345,-1820,-3042,-29381
1326669,-2.14375,-11.6375,-1.12451,-82.8644,26.5869,-125.92,-107.178,15.1978,-348.816,0.47821,-0.126923,0.650604,-0.576019,2024,-1001,9957,-3042,-29381
1326675,-3.11992,-12.3074,-1.1293,-83.6005,24.7247,-126.271,-109.314,4.27246,-353.943,0.467194,-0.13916,0.651978,-0.580658,29415,24600,22501,-3042,-29381
1326681,-3.61279,-13.097,-0.832617,-84.2981,22.8461,-126.53,-111.572,-6.16455,-357.422,0.445587,-0.164734,0.653503,-0.589172,-10266,-15592,-29211,-3042,-29381
1326687,-4.31143,-14.5756,0.196191,-85.6165,19.1217,-126.788,-117.31,-23.1934,-353.21,0.435089,-0.177887,0.653717,-0.592926,-26395,32025,1254,-3042,-29381
1326693,-4.78037,-15.8771,0.722559,-86.2537,17.309,-126.81,-120.972,-30.3955,-346.802,0.424866,-0.191101,0.653687,-0.596252,-2844,-11239,17894,-3042,-29381
1326699,-5.02441,-16.9395,1.44512,-86.8689,15.5676,-126.771,-121.216,-35.2783,-335.083,0.414978,-0.204285,0.653473,-0.599091,18148,10266,-29210,-3042,-29381
1326705,-5.36895,-17.4419,2.49307,-87.4786,13.8922,-126.689,-121.399,-37.4756,-322.937,0.405518,-0.217194,0.653076,-0.601471,-28957,31002,-8474,-3042,-29381
1326711,-5.6082,-17.4897,3.46445,-88.0664,12.2937,-126.573,-121.033,-39.0015,-310.12,0.387756,-0.241852,0.651947,-0.605011,-12062,-15334,12263,-3042,-29381
1326717,-5.20625,-17.3414,4.79951,-89.2694,9.28894,-126.266,-126.465,-39.0625,-288.452,0.379395,-0.253632,0.651306,-0.606171,15329,20507,-11801,-3042,-29381
1326723,-4.72295,-18.1788,5.0627,-89.8901,7.86072,-126.101,-128.54,-34.1187,-281.616,0.371246,-0.265045,0.650726,-0.606934,30688,-29925,7912,-3042,-29381
1326729,-4.78994,-18.8248,5.30674,-90.4999,6.47095,-125.947,-127.625,-29.3579,-276.55,0.363159,-0.276093,0.650208,-0.607452,-21025,-16357,28648,-3042,-29381
1326735,-4.91914,-19.1837,5.46465,-91.1096,5.09216,-125.804,-127.441,-25.1465,-275.146,0.355042,-0.286774,0.649689,-0.60788,-7970,-5093,-15896,-3042,-29381
1326741,-5.27803,-19.5187,5.51729,-91.7194,3.70239,-125.673,-127.319,-19.7144,-278.992,0.338379,-0.307404,0.648407,-0.608643,4318,5148,7145,-3042,-29381
1326747,-6.54131,-20.1742,5.34023,-92.9224,0.802002,-125.409,-124.695,-13.3667,-299.561,0.32959,-0.317688,0.647552,-0.609131,26332,18716,-12055,-3042,-29381
1326753,-6.91934,-20.2508,5.50293,-93.4991,-0.730591,-125.277,-122.131,-9.46045,-313.599,0.320374,-0.328064,0.646362,-0.609772,-25893,23068,10474,-3042,-29381
1326759,-7.17773,-20.3848,5.75654,-94.0759,-2.3291,-125.162,-120.911,-2.68555,-327.271,0.31073,-0.338623,0.644867,-0.610596,-13862,24604,31722,-3042,-29381
1326765,-7.82852,-20.8346,5.71348,-94.6472,-3.98804,-125.074,-120.605,6.65283,-339.905,0.300507,-0.349213,0.643066,-0.611633,-2855,24348,-12566,-3042,-29381
1326771,-9.56553,-22.6194,5.69912,-95.2075,-5.69092,-125.013,-119.568,16.0522,-349.854,0.27829,-0.370178,0.638824,-0.614258,7897,21276,8427,-3042,-29381
1326777,-10.9484,-23.6482,5.70391,-96.2787,-9.16809,-125.008,-113.525,38.7573,-358.765,0.266449,-0.380341,0.636444,-0.615784,26583,10268,-17685,-3042,-29381
1326783,-12.7429,-24.4713,5.69434,-96.7511,-10.9039,-125.074,-106.079,49.6216,-357.971,0.254242,-0.390015,0.633881,-0.617493,-30506,1308,1004,-3042,-29381
1326789,-14.5517,-24.6388,6.24941,-97.1521,-12.6123,-125.189,-95.2148,61.7065,-353.516,0.241882,-0.399139,0.631134,-0.619446,-20011,-8421,17388,-3042,-29381
1326795,-16.37,-22.94,7.7998,-97.4817,-14.2932,-125.349,-84.3506,70.8618,-347.351,0.229492,-0.407532,0.628174,-0.621704,-10284,-19941,-32020,-3042,-29381
1326801,-18.8248,-18.0927,11.0776,-97.7838,-15.9247,-125.552,-81.1157,78.3081,-337.708,0.205017,-0.422333,0.621857,-0.62674,-301,31003,-17940,-3042,-29381
1326807,-23.1697,-22.7343,11.5992,-98.399,-19.0009,-126.183,-97.4731,103.577,-310.669,0.192596,-0.428589,0.619141,-0.62912,19666,-5094,3565,-3042,-29381
1326813,-25.3374,-21.9399,7.11074,-98.4979,-20.4181,-126.524,-55.542,100.342,-296.753,0.180176,-0.434052,0.616943,-0.631195,29905,-25574,12013,-3042,-29381
1326819,-27.4477,-20.1742,4.80908,-98.4155,-21.7694,-126.887,-21.9727,101.013,-284.546,0.169037,-0.438751,0.61377,-0.634094,-22320,19482,19437,-3042,-29381
1326825,-32.764,-19.1454,2.93809,-98.1409,-23.0219,-127.244,16.4795,95.2759,-269.043,0.158905,-0.442719,0.609863,-0.637726,-8753,-1511,25581,-3042,-29381
1326831,-40.6643,-10.0058,2.74668,-97.6685,-24.1534,-127.557,57.312,82.2144,-248.474,0.143036,-0.448792,0.599518,-0.647003,5839,-24295,30445,-3042,-29381
1326837,-44.2914,-2.97637,3.88555,-96.5149,-25.8728,-128.156,78.7354,62.8052,-180.115,0.137482,-0.450745,0.593842,-0.652039,-25907,-9192,-32019,-3042,-29381
1326843,-46.5165,4.4502,5.42158,-96.059,-26.3727,-128.425,56.5796,49.5605,-133.789,0.133362,-0.451904,0.588898,-0.656586,-4916,29720,31213,-3042,-29381
1326849,-46.995,10.6661,7.21602,-95.8228,-26.6034,-128.677,12.8784,40.3442,-83.6182,0.130493,-0.452271,0.585419,-0.660004,18124,3352,26349,-3042,-29381
1326855,-46.3012,12.7524,8.21611,-95.8777,-26.5814,-128.936,-46.7529,35.0952,-34.5459,0.12851,-0.451752,0.584167,-0.661835,-21301,-20457,20973,-3042,-29381
1326861,-43.2387,-21.2557,12.7189,-96.449,-26.2079,-129.128,-144.836,14.2212,33.6914,0.125946,-0.448364,0.591034,-0.658539,7627,22807,14317,-3067,-29378
1326867,-38.4966,-24.4761,13.5372,-96.806,-24.549,-129.348,-36.0718,-18.1274,152.161,0.128387,-0.444916,0.595764,-0.656128,8394,-16618,6125,-3067,-29378
1326873,-33.7736,-20.6814,13.5276,-96.4819,-23.3789,-129.402,46.5088,-27.6489,189.514,0.133759,-0.440155,0.600128,-0.654297,-18231,32534,4333,-3067,-29378
1326879,-28.2707,-17.8104,14.7574,-95.8282,-22.121,-129.419,113.647,-33.5693,208.13,0.141998,-0.434143,0.602722,-0.654175,24521,18454,4077,-3067,-29378
1326885,-19.9876,-60.5849,30.3188,-96.0535,-20.3247,-129.018,-30.3955,-122.131,310.669,0.152191,-0.427399,0.603607,-0.655518,5321,6678,4077,-3067,-29378
1326891,21.5811,11.1686,-1.63174,-94.4714,-18.7756,-128.6,81.1157,-20.9351,277.161,0.182526,-0.413879,0.604645,-0.655487,-8504,-1003,3053,-3067,-29378
1326897,12.9534,-4.21572,8.31182,-93.8727,-15.4797,-128.947,-7.69043,25.4517,311.401,0.193573,-0.405182,0.607452,-0.655182,-23096,-4843,1517,-3067,-29378
1326903,2.20117,-17.4706,-3.45488,-94.0375,-13.7219,-129.155,-57.0068,10.5591,320.068,0.202728,-0.394928,0.613617,-0.652924,-24120,-1515,-20,-3067,-29378
1326909,0.153125,-23.854,2.28252,-93.8068,-11.9312,-129.309,26.6113,0.488281,326.538,0.211578,-0.385345,0.621033,-0.648804,-21304,5398,-2068,-3067,-29378
1326915,-0.823047,-11.0059,3.90947,-93.241,-10.2338,-129.633,89.1113,38.6963,312.805,0.222229,-0.375061,0.625916,-0.646576,-14392,14614,-4116,-3067,-29378
1326921,-7.64668,-7.5749,4.72295,-92.8674,-8.59131,-130.001,13.1836,34.5459,289.612,0.24118,-0.352112,0.632996,-0.645782,-5688,24342,-5652,-3067,-29378
1326927,-8.14434,-14.9488,2.67012,-92.4994,-5.52063,-130.512,22.583,31.9824,272.095,0.249512,-0.341949,0.637512,-0.643646,23497,-15850,-10004,-3067,-29378
1326933,-11.537,-19.3177,-0.253613,-92.1204,-4.22974,-130.88,57.5562,61.0352,233.154,0.257446,-0.332214,0.641327,-0.641815,-23095,-1258,-11796,-3067,-29378
1326939,-13.1831,-13.6473,-2.92852,-91.5491,-3.06519,-131.078,102.234,30.2734,207.458,0.263977,-0.322357,0.643829,-0.641693,-1591,14871,-14356,-3067,-29378
1326945,-7.39307,-10.9819,-0.14834,-91.1041,-1.96106,-131.034,80.0781,-14.8315,195.19,0.271179,-0.313599,0.644287,-0.642548,20682,32023,-18452,-3067,-29378
1326951,-7.93857,-8.20654,8.18262,-90.6812,-1.01074,-131.067,69.8853,46.875,150.635,0.285339,-0.300201,0.644836,-0.642303,-23094,-17129,-23316,-3067,-29378
1326957,-14.1784,0.794336,1.66523,-89.8792,0.164795,-131.759,70.9229,87.8296,36.2549,0.289917,-0.292938,0.645447,-0.642975,21707,15896,28908,-3067,-29378
1326963,-10.4221,-3.54102,-3.97168,-89.9231,0.521851,-131.781,-17.4561,2.99072,46.6309,0.290161,-0.287689,0.645081,-0.645599,-21557,32024,21996,-3067,-29378
1326969,-4.22529,-15.925,-0.234473,-89.8682,0.807495,-131.759,2.80762,-4.08936,32.5317,0.291962,-0.285645,0.646271,-0.64447,460,-18408,16620,-3067,-29378
1326975,0.60293,-14.9249,-1.04795,-89.5166,1.12061,-131.825,62.3169,12.7563,39.0015,0.293823,-0.283997,0.646637,-0.644012,22220,-4328,11500,-3059,-29379
1326981,-3.22041,-5.56035,1.77051,-89.1266,1.42822,-131.957,43.1519,24.4141,35.4614,0.297974,-0.277466,0.64447,-0.647125,-22068,8217,8428,-3059,-29379
1326987,-2.78975,-7.31172,1.67002,-88.7366,1.99951,-132.105,20.9961,7.38525,34.3018,0.29953,-0.274506,0.644073,-0.648071,16077,30233,1772,-3059,-29379
1326993,-2.15811,-6.49346,1.2585,-88.5938,2.25769,-132.171,22.7661,14.0381,29.2358,0.301239,-0.272339,0.644043,-0.648224,-31795,-24295,-1813,-3059,-29379
1326999,-5.65127,-5.85225,1.56475,-88.4839,2.47192,-132.281,15.9302,23.2544,20.4468,0.302643,-0.270111,0.643982,-0.648529,-16179,-14055,-5909,-3059,-29379
1327005,-6.05801,-6.30684,1.84707,-88.4015,2.64771,-132.292,9.0332,3.41797,12.8784,0.303467,-0.267975,0.644165,-0.648895,-1587,-4071,-9237,-3059,-29379
1327011,-2.09111,-8.94346,1.4499,-88.3356,2.8949,-132.314,-2.2583,10.8032,0.610352,0.305573,-0.2659,0.644165,-0.648743,11982,5146,-12821,-3059,-29379
1327017,-2.59355,-10.5608,1.24414,-88.3191,3.00476,-132.33,-2.68555,3.84521,1.46484,0.305939,-0.264923,0.64444,-0.648682,-28722,21018,-15637,-3059,-29379
1327023,-2.04805,-10.4651,0.492871,-88.2806,3.11462,-132.347,2.38037,4.94385,2.0752,0.306488,-0.264191,0.644623,-0.64856,-16690,28442,-16149,-3059,-29379
1327029,-2.81846,-10.044,0.904395,-88.2147,3.22449,-132.369,6.65283,5.98145,2.50244,0.307068,-0.263336,0.644684,-0.64856,-5426,-29670,-15381,-3059,-29379
1327035,-2.78018,-9.81436,0.406738,-88.1653,3.32886,-132.38,5.18799,3.2959,2.56348,0.307678,-0.26239,0.644653,-0.648682,5327,-23270,-14357,-3059,-29379
1327041,-2.97637,-10.0728,1.55996,-88.0499,3.5376,-132.358,6.53076,-0.915527,4.27246,0.309082,-0.260925,0.644531,-0.648743,14799,-16870,-12821,-3059,-29379
1327047,-3.04336,-9.92441,1.76094,-87.9895,3.66394,-132.347,6.7749,-0.12207,7.38525,0.309875,-0.260193,0.644409,-0.648743,31439,-4838,-8981,-3059,-29379
1327053,-3.24912,-8.9626,1.04795,-87.9401,3.7793,-132.33,4.63867,-1.2207,6.83594,0.31076,-0.259369,0.644348,-0.648743,-26673,-230,-7445,-3059,-29379
1327059,-2.42129,-9.61816,1.46426,-87.9071,3.90564,-132.297,0.854492,-3.96729,8.05664,0.311615,-0.258636,0.644318,-0.648651,-18737,4379,-5141,-3059,-29379
1327065,-1.94277,-10.1541,1.17236,-87.8741,4.021,-132.275,1.28174,-2.31934,7.20215,0.3125,-0.258026,0.644348,-0.648438,-10545,7963,-1813,-3059,-29379
1327071,-3.34004,-10.5273,3.27783,-87.7972,4.24622,-132.242,1.52588,-1.0376,7.32422,0.314178,-0.256714,0.644348,-0.648132,-2353,11291,1516,-3059,-29379
1327077,-3.36875,-8.94346,0.76084,-87.7588,4.35059,-132.22,3.23486,-1.64795,6.22559,0.314941,-0.256073,0.644379,-0.64798,13520,19483,9708,-3059,-29379
1327083,-2.92373,-9.28799,1.92842,-87.7368,4.44946,-132.182,-0.732422,-4.76074,5.18799,0.315735,-0.255463,0.644379,-0.647858,20432,23323,14316,-3059,-29379
1327089,-2.4165,-9.8,2.0959,-87.7094,4.54834,-132.138,-0.366211,-6.46973,6.04248,0.316498,-0.255035,0.644379,-0.647644,27344,26651,19180,-3059,-29379
1327095,-2.88545,-9.37891,1.45947,-87.6874,4.64722,-132.122,-0.183105,-0.732422,6.71387,0.317352,-0.254639,0.644379,-0.647369,-31280,29211,24300,-3067,-29378
1327101,-3.13906,-8.62764,1.38291,-87.6434,4.83948,-132.061,-2.99072,-4.08936,5.24902,0.318817,-0.25354,0.64444,-0.647034,-24880,31259,29420,-3067,-29378
1327107,-2.84717,-9.39805,1.56475,-87.6379,4.92188,-132.034,-3.84521,-2.92969,4.15039,0.319519,-0.253174,0.644501,-0.646759,-10544,-30949,-26132,-3067,-29378
1327113,-2.80889,-9.54639,1.33506,-87.6324,5.00977,-132.012,-3.11279,-1.34277,4.27246,0.32016,-0.252808,0.644623,-0.646484,-3632,-28901,-22036,-3067,-29378
1327119,-3.11514,-9.45547,0.693848,-87.627,5.08667,-131.99,-2.92969,-1.64795,3.2959,0.32074,-0.252411,0.644745,-0.64624,3025,-26597,-17684,-3067,-29378
1327125,-2.81367,-9.82871,0.995313,-87.616,5.16357,-131.962,-2.74658,-3.41797,3.66211,0.321289,-0.252045,0.644836,-0.645996,10193,-24293,-14100,-3067,-29378
1327131,-3.17256,-9.74258,0.708203,-87.605,5.24048,-131.94,-1.09863,-0.610352,3.90625,0.322479,-0.251373,0.644958,-0.645569,17617,-21733,-10004,-3067,-29378
1327137,-2.90937,-9.48897,0.287109,-87.572,5.39429,-131.891,-0.549316,-3.72314,4.02832,0.322998,-0.250977,0.64502,-0.645386,30929,-17893,-788,-3067,-29378
1327143,-2.72275,-9.79521,0.574219,-87.55,5.47119,-131.863,1.2207,-2.80762,3.60107,0.323639,-0.250671,0.64502,-0.645172,-27695,-16357,3565,-3067,-29378
1327149,-2.59834,-9.69473,0.29668,-87.5171,5.5426,-131.83,2.99072,-3.60107,4.15039,0.324249,-0.250305,0.644989,-0.64505,-21807,-15077,6893,-3067,-29378
1327155,-2.8041,-9.66123,0.435449,-87.4731,5.61951,-131.803,5.43213,-2.86865,4.57764,0.32489,-0.249969,0.644897,-0.644928,-15407,-13797,9965,-3067,-29378
1327161,-2.7084,-9.27363,0.91875,-87.3358,5.76233,-131.715,11.8408,-6.10352,4.3335,0.326324,-0.249176,0.644531,-0.644897,-8751,-13029,12525,-3067,-29378
1327167,-2.26338,-9.07266,1.26807,-87.2644,5.82825,-131.666,10.1318,-6.71387,3.66211,0.327118,-0.24881,0.644135,-0.64502,4050,-12517,16365,-3067,-29378
1327173,-2.24424,-9.39805,1.5791,-87.204,5.89417,-131.627,9.46045,-4.63867,3.479,0.327911,-0.248505,0.643799,-0.645081,10962,-12773,18413,-3067,-29378
1327179,-2.50264,-9.37412,1.14844,-87.1381,5.96008,-131.583,9.46045,-5.5542,3.90625,0.328583,-0.248169,0.643524,-0.645142,17106,-12517,20205,-3067,-29378
1327185,-2.18203,-9.61338,1.29678,-87.0721,6.02051,-131.539,10.1318,-5.7373,3.96729,0.329315,-0.247833,0.643219,-0.645203,22738,-12005,22253,-3067,-29378
1327191,-2.58877,-9.76172,1.15801,-87.0062,6.08643,-131.501,9.82666,-4.27246,5.18799,0.33078,-0.247192,0.642578,-0.645325,28370,-10725,24813,-3067,-29378
1327197,-2.58398,-9.45547,1.46426,-86.8689,6.22375,-131.413,11.1084,-6.04248,6.04248,0.331482,-0.246826,0.642303,-0.645386,-25646,-7653,31725,-3067,-29378
1327203,-2.29688,-9.21621,1.65088,-86.8085,6.29517,-131.375,9.21631,-4.94385,6.46973,0.332275,-0.24646,0.641937,-0.645477,-18990,-6373,-30483,-3067,-29378
1327209,-2.34951,-9.07744,1.10537,-86.759,6.37207,-131.331,7.32422,-4.76074,7.32422,0.333038,-0.246094,0.641663,-0.645508,-13358,-5605,-27155,-3067,-29378
1327215,-2.42129,-9.69951,1.35898,-86.7096,6.44897,-131.298,6.22559,-3.72314,7.99561,0.333771,-0.245728,0.641449,-0.645477,-7470,-5349,-23571,-3067,-29378
1327221,-2.29209,-9.48418,1.54561,-86.6547,6.53137,-131.254,9.58252,-5.43213,9.21631,0.335297,-0.244934,0.641083,-0.645355,-1582,-5349,-20243,-3067,-29378
1327227,-1.91406,-9.35498,1.34463,-86.5283,6.69067,-131.155,8.97217,-6.53076,9.15527,0.336121,-0.244507,0.640808,-0.645355,10195,-5349,-15379,-3067,-29378
1327233,-1.7418,-9.60859,1.49297,-86.4679,6.76758,-131.105,9.0332,-6.46973,8.78906,0.336945,-0.244141,0.640533,-0.645325,16083,-5349,-12563,-3067,-29378
1327239,-2.25381,-9.65645,1.31113,-86.4075,6.84998,-131.056,8.91113,-6.53076,10.9253,0.337769,-0.243805,0.640259,-0.645325,22227,-5349,-11027,-3067,-29378
1327245,-2.78018,-9.55596,1.04795,-86.3416,6.93237,-131.001,9.76562,-6.89697,10.437,0.338623,-0.243408,0.639984,-0.645264,28115,-4837,-9491,-3067,-29378
1327251,-2.79932,-9.32148,1.52168,-86.2152,7.09167,-130.886,8.8501,-6.65283,9.70459,0.340424,-0.242706,0.639374,-0.645203,-31533,-4837,-8211,-3067,-29378
1327257,-3.17256,-9.00566,1.42598,-86.1493,7.16858,-130.825,9.70459,-8.60596,9.76562,0.341248,-0.24234,0.63913,-0.645142,-21037,-5349,-6675,-3067,-29378
1327263,-2.67012,-8.76162,1.55039,-86.0834,7.24548,-130.759,9.64355,-9.0332,9.27734,0.342133,-0.242035,0.638794,-0.645111,-15149,-6373,-5907,-3067,-29378
1327269,-2.33037,-8.78076,1.41641,-86.0229,7.3114,-130.693,8.17871,-9.8877,7.99561,0.343048,-0.24176,0.638458,-0.645081,-9517,-7397,-4371,-3067,-29378
1327275,-1.99541,-9.48897,1.27285,-85.9845,7.37732,-130.627,4.69971,-9.21631,7.8125,0.343903,-0.241547,0.638153,-0.64502,-3885,-8421,-3603,-3067,-29378
1327281,-2.66055,-10.3838,0.861328,-85.8856,7.53113,-130.54,8.78906,-4.5166,10.9253,0.345398,-0.241089,0.637756,-0.644745,2004,-9445,-1299,-3067,-29378
1327287,-2.78018,-10.0823,1.00488,-85.8087,7.61353,-130.479,11.9019,-7.44629,12.146,0.346191,-0.240692,0.637543,-0.644714,13524,-10469,2030,-3067,-29378
1327293,-2.15332,-10.0297,1.29678,-85.7373,7.70691,-130.424,11.2915,-7.69043,13.1226,0.347107,-0.240265,0.637207,-0.644714,17876,-9701,3822,-3067,-29378
1327299,-2.04326,-10.2785,1.21064,-85.6659,7.80029,-130.375,11.4746,-5.85938,14.2822,0.348053,-0.239838,0.636871,-0.644653,22740,-9445,5870,-3067,-29378
1327305,-2.43564,-10.6613,1.23936,-85.589,7.91565,-130.336,13.4888,-2.31934,18.0054,0.348999,-0.239349,0.636597,-0.644623,27860,-9701,8174,-3067,-29378
1327311,-2.9333,-9.69951,1.07187,-85.3748,8.15186,-130.248,18.2495,-5.49316,18.9819,0.351013,-0.237793,0.635925,-0.644775,32468,-9957,10734,-3067,-29378
1327317,-2.54092,-10.3024,1.55039,-85.2704,8.26721,-130.177,17.9443,-8.78906,19.8364,0.352112,-0.237061,0.635529,-0.644836,-23084,-9701,13550,-3067,-29378
1327323,-2.44521,-10.7618,1.03838,-85.1715,8.39355,-130.111,16.9678,-8.8501,21.4844,0.353302,-0.236389,0.635071,-0.644867,-17964,-9701,13550,-3067,-29378
1327329,-3.18691,-11.0633,0.894824,-85.0452,8.52539,-130.04,23.2544,-8.97217,22.3999,0.354553,-0.235718,0.634644,-0.644836,-12588,-9189,14574,-3067,-29378
1327335,-3.45967,-10.6565,1.16279,-84.8859,8.65723,-129.957,27.8931,-10.8032,23.7427,0.355896,-0.234924,0.634064,-0.644958,-6956,-8677,17134,-3067,-29378
1327341,-3.42617,-10.0105,1.63174,-84.5618,8.93738,-129.771,29.2969,-13.5498,25.0854,0.358917,-0.233246,0.632568,-0.645386,-2348,-8165,19438,-3067,-29378
1327347,-3.42617,-10.1254,1.32549,-84.3915,9.08569,-129.672,29.7852,-14.8315,26.001,0.360504,-0.232391,0.631775,-0.645599,8405,-7909,24558,-3067,-29378
1327353,-3.15342,-11.0011,1.05752,-84.2212,9.23401,-129.562,31.189,-15.1978,27.2827,0.362152,-0.231567,0.630951,-0.645752,14293,-7397,25326,-3067,-29378
1327359,-2.77061,-12.1974,0.866113,-84.0289,9.39331,-129.435,34.4849,-19.4092,30.2124,0.363861,-0.230713,0.630096,-0.645935,21717,-6885,25070,-3067,-29378
1327365,-2.20117,-12.3696,0.875684,-83.7817,9.5636,-129.309,45.3491,-18.4326,32.3486,0.365784,-0.229828,0.62912,-0.646118,28629,-5605,23790,-3067,-29378
1327371,-3.47881,-10.8671,0.851758,-83.1775,9.93164,-129.089,62.0728,-16.1133,36.5601,0.369873,-0.227264,0.626526,-0.647217,-24107,-2021,20206,-3067,-29378
1327377,-3.24912,-9.95312,1.5791,-82.8369,10.1129,-128.969,64.7583,-16.7847,34.6069,0.372131,-0.225708,0.624908,-0.648041,-18219,-229,19438,-3067,-29378
1327383,-3.25869,-10.1541,1.90928,-82.5018,10.2887,-128.842,62.9883,-16.9678,34.79,0.374359,-0.224182,0.623138,-0.648956,-12075,1308,18158,-3067,-29378
1327389,-3.33525,-12.1304,1.64131,-82.1832,10.4755,-128.721,60.9741,-16.1133,36.5601,0.376587,-0.222687,0.62146,-0.649841,-5419,2588,16622,-3067,-29378
1327395,-3.17734,-13.2214,0.91875,-81.8152,10.6732,-128.589,69.5801,-17.5781,39.0015,0.378815,-0.22113,0.619843,-0.650604,1750,3356,14062,-3067,-29378
1327401,0.913965,-13.5659,7.31172,-81.2878,11.3599,-128.309,31.311,-7.87354,81.9092,0.384155,-0.217407,0.616333,-0.652039,16598,4636,9454,-3067,-29378
1327407,-0.0143555,-13.8626,7.4792,-81.2109,11.8378,-128.271,14.0991,10.2539,94.4214,0.387115,-0.214935,0.616058,-0.651367,24278,5660,6126,-3067,-29378
1327413,-1.54561,-13.676,6.19678,-81.1395,12.3651,-128.254,11.7188,15.8081,104.919,0.389771,-0.211914,0.616669,-0.650208,32214,6684,2542,-3067,-29378
1327419,-1.85664,-12.5371,4.56982,-81.0846,12.9199,-128.26,10.1318,20.9961,109.68,0.392548,-0.208496,0.617493,-0.648865,-24362,7708,-1811,-3067,-29378
1327425,-2.30166,-10.9245,4.78994,-81.0352,13.5077,-128.276,8.72803,24.4141,115.967,0.395264,-0.204834,0.618469,-0.647461,-14122,8988,-6163,-3067,-29378
1327431,-2.87588,-13.3841,4.9335,-81.0736,14.7546,-128.32,-3.72314,34.4238,125.854,0.400604,-0.196991,0.621094,-0.644073,11735,11804,-13075,-3075,-29377
1327437,-3.24434,-13.4319,4.72773,-81.0956,15.4413,-128.282,-5.37109,29.2969,135.498,0.403595,-0.193085,0.62265,-0.641907,25047,13596,-16403,-3075,-29377
1327443,-2.24902,-14.3411,3.65586,-81.1505,16.1609,-128.282,-10.6812,36.3159,141.541,0.406952,-0.189056,0.624207,-0.639465,-26153,16156,-19731,-3075,-29377
1327449,-3.56973,-14.2358,2.43086,-81.2054,16.9135,-128.304,-9.70459,41.8091,149.048,0.410217,-0.184784,0.626068,-0.63678,-11561,18716,-23571,-3075,-29377
1327455,-4.70381,-14.365,2.51221,-81.2714,17.7155,-128.293,-12.4512,36.6211,158.447,0.413544,-0.180145,0.628021,-0.634064,4312,22300,-28179,-3075,-29377
1327461,-4.1248,-15.5518,1.86143,-81.4471,19.4678,-128.205,-23.4375,35.9497,181.824,0.421295,-0.170685,0.632019,-0.627563,-26408,27164,28909,-3075,-29377
1327467,-5.479,-16.0398,0.488086,-81.546,20.4126,-128.156,-21.2402,32.8369,190.308,0.425446,-0.165558,0.634399,-0.623688,-8232,28956,25837,-3075,-29377
1327473,-4.90479,-16.949,-0.971387,-81.6394,21.3904,-128.062,-22.3389,24.1699,198.547,0.429871,-0.160217,0.636719,-0.61969,11481,30236,23789,-3075,-29377
1327479,-4.30186,-18.3176,0.990527,-81.6449,22.4231,-127.919,-9.82666,17.0288,211.304,0.434662,-0.154938,0.638947,-0.615387,32217,31772,23021,-3075,-29377
1327485,-3.66543,-20.1742,0.267969,-81.6614,23.5052,-127.776,-11.5356,17.6392,221.68,0.445587,-0.143311,0.642609,-0.606506,-11047,-31972,21997,-3075,-29377
1327491,-4.00039,-23.3324,-0.0430664,-81.5186,25.8618,-127.392,3.2959,9.39941,250.549,0.451599,-0.13681,0.644165,-0.601898,-27942,-27108,15341,-3075,-29377
1327497,-1.9332,-23.6291,-1.42119,-81.3483,27.1362,-127.134,15.5029,3.05176,266.663,0.458069,-0.130005,0.645538,-0.597015,-806,-26084,10221,-3075,-29377
1327503,-3.14863,-23.921,-0.153125,-81.1011,28.4985,-126.881,30.7007,8.42285,283.936,0.465088,-0.122681,0.646515,-0.592072,25819,-25572,4589,-3075,-29377
1327509,-3.78027,-23.9258,-0.559863,-80.8154,29.9213,-126.601,34.1187,6.89697,299.194,0.472382,-0.11441,0.647217,-0.587158,-10277,-26084,-2580,-3075,-29377
1327515,-2.15332,-22.8491,1.16758,-80.4419,31.4319,-126.216,40.8936,-6.53076,319.214,0.488434,-0.0966492,0.647888,-0.576385,20444,-27620,-9492,-3075,-29377
1327521,-1.57432,-25.1651,2.14854,-79.7278,34.7058,-125.541,42.7246,13.7329,353.088,0.496765,-0.0868835,0.648346,-0.570282,21469,32028,-24340,-3075,-29377
1327527,-1.26807,-27.3137,1.74658,-79.2444,36.4526,-125.118,52.7954,5.79834,370.667,0.505188,-0.0763245,0.648712,-0.563934,-8995,27932,-32020,-3075,-29377
1327533,-0.813477,-26.615,0.363672,-78.6566,38.2709,-124.678,70.3735,9.70459,387.451,0.51413,-0.0653076,0.64859,-0.557343,25822,22812,25324,-3075,-29377
1327539,-2.90459,-27.017,1.62217,-77.981,40.177,-124.222,83.1909,15.3809,404.968,0.523224,-0.0533142,0.64801,-0.550781,-2594,16668,16364,-3075,-29377
1327545,-1.78008,-25.4188,-0.114844,-77.1954,42.149,-123.64,92.8345,14.0991,441.895,0.542084,-0.0271301,0.645813,-0.536835,-29217,9244,5612,-3075,-29377
1327551,-2.11504,-22.2031,-1.69873,-75.4321,46.3293,-122.305,87.3413,10.5591,458.069,0.551758,-0.0130615,0.644379,-0.529205,-11296,-12005,-21525,-3067,-29378
1327557,-3.8042,-18.6573,2.00977,-74.5312,48.4991,-121.542,75.3784,19.104,468.75,0.561646,0.00119019,0.642731,-0.520874,32481,-26341,29675,-3067,-29378
1327563,-10.2402,-20.7771,2.04805,-73.8776,50.647,-120.833,28.9917,34.0576,462.83,0.571289,0.0156555,0.641357,-0.51178,12514,22555,13035,-3067,-29378
1327569,-6.82363,-27.2515,1.1915,-72.8339,52.7509,-119.575,18.7378,-24.4751,472.473,0.58017,0.0291443,0.641174,-0.501343,-9246,4891,-2070,-3067,-29378
1327575,-4.18701,-19.1263,2.87109,-71.488,54.8273,-118.207,49.1943,5.06592,464.539,0.600708,0.0543823,0.636841,-0.480103,-29213,-14822,-17942,-3067,-29378
1327581,-7.1873,-22.6338,1.90928,-68.8184,58.8757,-115.345,18.8599,-17.4561,459.778,0.609619,0.0676575,0.634857,-0.469727,997,5914,16362,-3067,-29378
1327587,-3.39268,-27.194,-0.703418,-67.077,60.7874,-113.45,25.8789,-30.9448,456.482,0.618866,0.0794678,0.63266,-0.458588,-16155,-19943,-23,-3067,-29378
1327593,-0.124414,-25.6676,-4.70381,-65.0006,62.6276,-111.313,46.6919,-34.8511,449.463,0.628143,0.091095,0.629791,-0.447632,32486,17433,-16919,-3067,-29378
1327599,1.77051,-21.3035,-5.37852,-62.6221,64.3195,-108.94,56.8237,-41.2598,430.725,0.637024,0.102966,0.626282,-0.437378,13031,-10216,31209,-3067,-29378
1327605,2.75146,-17.2983,-5.61777,-57.2827,67.2638,-103.596,50.6592,-52.2461,391.479,0.652985,0.125244,0.618439,-0.418732,-6681,25368,14057,-3067,-29378
1327611,7.90029,-11.8768,-8.01035,-53.9813,68.4283,-100.349,65.0635,-75.6836,367.615,0.660492,0.135193,0.614227,-0.410004,18921,23575,-19480,-3067,-29378
1327617,13.4271,-6.21113,-9.23535,-50.3613,69.3677,-97.0203,110.229,-80.0171,334.595,0.667877,0.144409,0.6091,-0.402435,-2839,-12522,28392,-3067,-29378
1327623,13.7669,16.1643,-5.89053,-46.6095,70.0708,-93.8232,156.494,-80.6274,293.213,0.674316,0.153992,0.60321,-0.397034,-25878,15894,9448,-3067,-29378
1327629,0.339746,32.4721,-4.24443,-44.7363,70.3784,-92.373,107.849,-36.1938,153.992,0.679535,0.163757,0.59671,-0.394012,14315,-21483,-11289,-3067,-29378
1327635,9.71865,5.23496,-5.37852,-43.9728,69.4226,-91.4996,-10.437,-96.4966,-47.8516,0.683807,0.167755,0.590454,-0.394348,-14357,8469,-31513,-3067,-29378
1327641,6.34033,4.09131,-3.39268,-45.0714,68.6426,-92.5049,-25.6348,-74.0356,-118.286,0.68454,0.163483,0.588867,-0.397186,-14612,6676,-8730,-3067,-29378
1327647,6.6418,2.33037,-3.08643,-46.582,67.6154,-93.7628,-62.1338,-90.7593,-170.593,0.683533,0.157318,0.588745,-0.401581,12525,-22509,-30234,-3067,-29378
1327653,10.2546,-3.49316,-2.72754,-48.4552,66.4893,-95.3064,-84.2896,-78.9185,-204.346,0.68222,0.148468,0.589111,-0.406677,-30227,17939,14310,-3067,-29378
1327659,9.48418,-8.22568,-3.8999,-50.4877,65.3632,-97.0367,-83.4351,-56.2134,-220.154,0.679993,0.138275,0.590393,-0.412079,-11795,-1774,-5659,-3067,-29378
1327665,8.1252,-11.3887,-3.98125,-54.0637,63.045,-100.124,-68.6646,-52.9785,-220.703,0.673248,0.118073,0.594269,-0.423676,3566,-18414,-23835,-3050,-29380
1327671,7.64189,-10.9389,-3.21084,-55.6403,61.9354,-101.519,-61.2183,-42.4194,-213.44,0.669586,0.108398,0.596008,-0.429596,23022,26130,8421,-3050,-29380
1327677,6.98633,-10.0105,-2.49307,-57.0685,60.8643,-102.805,-52.7954,-36.6821,-203.674,0.665649,0.0993042,0.597778,-0.435394,27630,21266,-5404,-3050,-29380
1327683,6.6083,-8.50322,-2.27773,-58.3923,59.837,-104.008,-48.5229,-30.2124,-195.251,0.661621,0.0908203,0.599487,-0.44104,29422,19986,-18716,-3050,-29380
1327689,6.50781,-7.13467,-2.41172,-59.6503,58.8373,-105.161,-45.3491,-22.8271,-189.087,0.657471,0.0828247,0.601196,-0.446442,27630,22034,-29980,-3050,-29380
1327695,5.69912,-5.05791,-2.46436,-62.0068,56.8597,-107.375,-38.8184,-13.7939,-189.27,0.648651,0.0678406,0.604828,-0.456848,23790,26898,25572,-3050,-29380
1327701,5.479,-3.68457,-2.12461,-63.1494,55.838,-108.479,-36.5601,-8.30078,-196.106,0.643921,0.0605774,0.606659,-0.462097,11246,-25326,8420,-3050,-29380
1327707,5.30195,-2.96201,-1.83271,-64.314,54.7723,-109.611,-38.147,-1.83105,-206.604,0.638855,0.0533142,0.608551,-0.467529,2542,-16110,484,-3050,-29380
1327713,4.98135,-2.72754,-1.8375,-65.4895,53.6462,-110.753,-40.9546,2.62451,-219.666,0.633301,0.0458679,0.610626,-0.473145,-7955,-5358,-6429,-3050,-29380
1327719,4.79951,-3.10078,-1.9332,-66.6705,52.4487,-111.901,-43.7012,5.31006,-234.558,0.627289,0.0380554,0.612854,-0.478912,-19731,6931,-12829,-3050,-29380
1327725,4.8665,-3.71807,-1.72744,-69.0271,49.823,-114.197,-48.4009,13.2446,-264.832,0.613831,0.0212708,0.617523,-0.491241,32749,21267,-16669,-3050,-29380
1327731,4.69424,-4.10088,-1.78008,-70.1862,48.4003,-115.329,-51.1475,15.7471,-279.236,0.606293,0.0122986,0.619965,-0.497772,4333,-14573,-19741,-3050,-29380
1327737,4.74209,-4.55547,-1.6748,-71.3342,46.9061,-116.439,-54.9316,18.7988,-291.992,0.598267,0.00292969,0.622467,-0.504486,-11540,2580,-19485,-3050,-29380
1327743,4.35449,-5.19668,-1.75615,-72.4658,45.3571,-117.532,-58.96,23.5596,-303.223,0.589752,-0.00680542,0.625,-0.511292,-29204,21012,-17437,-3050,-29380
1327749,4.0626,-5.78047,-1.78008,-73.5754,43.764,-118.586,-63.1104,26.4893,-311.279,0.58075,-0.0168457,0.627594,-0.518158,17132,-24812,-14621,-3050,-29380
1327755,3.16777,-6.99111,-1.6126,-75.7233,40.4681,-120.553,-74.2798,31.25,-321.533,0.561584,-0.0376587,0.632843,-0.531586,-28693,16405,-5149,-3050,-29380
1327761,2.78496,-7.5127,-1.37813,-76.7615,38.7927,-121.47,-80.2612,34.9121,-324.402,0.551575,-0.0483398,0.635468,-0.538025,12779,-28139,-285,-3050,-29380
1327767,2.38301,-8.35488,-1.3877,-77.7832,37.1008,-122.344,-86.0596,37.7808,-326.05,0.54129,-0.0591431,0.638153,-0.544189,-13590,-6379,7140,-3050,-29380
1327773,1.75615,-9.13486,-1.20107,-78.7665,35.4034,-123.168,-89.4165,39.5508,-327.209,0.530762,-0.0700073,0.640839,-0.550079,23018,17174,15332,-3050,-29380
1327779,1.26328,-9.68037,-1.11016,-79.7113,33.6896,-123.931,-91.7358,39.4897,-328.308,0.52002,-0.0809326,0.643463,-0.555756,-7191,-24042,24804,-3050,-29380
1327785,0.224902,-10.8432,-1.05273,-81.4856,30.2344,-125.294,-96.6797,38.269,-330.933,0.49826,-0.102905,0.648254,-0.566376,-7704,25367,-17948,-3042,-29381
1327791,-0.75127,-11.1446,-1.07666,-82.3151,28.4875,-125.881,-98.5107,35.2173,-333.252,0.487213,-0.113983,0.650421,-0.571381,25064,-16617,-5148,-3042,-29381
1327797,-1.40684,-11.5131,-0.76084,-83.1061,26.7242,-126.409,-101.013,32.1655,-336.06,0.476135,-0.125183,0.652344,-0.576172,-9497,6680,8421,-3042,-29381
1327803,-2.21074,-12.0395,-0.492871,-83.8696,24.95,-126.87,-104.065,27.771,-339.355,0.465027,-0.136505,0.654022,-0.580719,19175,30488,22757,-3042,-29381
1327809,-2.7084,-12.8816,-0.239258,-84.6002,23.1537,-127.26,-106.445,22.3999,-342.346,0.453888,-0.148071,0.655487,-0.585052,-18970,-11496,-27675,-3042,-29381
1327815,-3.5793,-15.0589,0.272754,-85.9845,19.5612,-127.859,-110.168,12.8784,-344.543,0.431763,-0.171722,0.657562,-0.592957,29157,-31207,4582,-3042,-29381
1327821,-4.17744,-16.3174,0.617285,-86.6217,17.7814,-128.062,-109.07,7.8125,-342.468,0.420807,-0.183685,0.658203,-0.596527,-14108,-9703,24038,-3042,-29381
1327827,-4.85215,-17.6381,0.990527,-87.226,16.04,-128.216,-106.689,3.96729,-336.365,0.410065,-0.195618,0.658508,-0.599854,9188,10010,-23066,-3042,-29381
1327833,-5.82354,-18.7961,1.41641,-87.7863,14.3427,-128.32,-102.356,0.183105,-328.308,0.399597,-0.207367,0.658569,-0.602905,30179,29466,-3866,-3042,-29381
1327839,-6.71836,-19.5809,2.07197,-88.2916,12.7057,-128.364,-95.7031,-5.43213,-318.42,0.389526,-0.218811,0.658295,-0.605743,-15390,-17382,15847,-3042,-29381
1327845,-7.29258,-18.8296,3.53145,-89.1925,9.63501,-128.315,-88.6841,-14.4043,-295.715,0.370911,-0.240662,0.656738,-0.610779,18401,16411,-11033,-3042,-29381
1327851,-7.1873,-19.0258,3.76113,-89.6429,8.20129,-128.254,-91.0645,-14.4653,-283.447,0.362305,-0.251099,0.655731,-0.612854,-32544,30491,8936,-3042,-29381
1327857,-7.11074,-19.2076,4.12959,-90.0989,6.828,-128.172,-93.1396,-14.2212,-273.499,0.354065,-0.261139,0.654755,-0.614532,-16417,-21989,28392,-3042,-29381
1327863,-7.05332,-18.8535,4.9335,-90.5713,5.49866,-128.095,-96.8628,-12.2681,-266.357,0.346069,-0.270874,0.653809,-0.615845,-1826,-10469,-17176,-3042,-29381
1327869,-7.3165,-18.4659,5.60342,-91.0712,4.1748,-128.024,-102.478,-8.42285,-265.93,0.330078,-0.289551,0.652283,-0.617767,11742,-997,2537,-3042,-29381
1327875,-7.89551,-19.1406,5.82354,-92.1533,1.46118,-127.892,-113.586,-1.2207,-280.518,0.321716,-0.298889,0.651642,-0.618408,-27172,12316,-25879,-3042,-29381
1327881,-8.48887,-19.9302,5.84268,-92.6862,0.0274658,-127.842,-110.962,4.15039,-293.945,0.312897,-0.308319,0.650909,-0.61908,-14117,15644,-7447,-3042,-29381
1327887,-9.154,-20.5522,5.85225,-93.186,-1.46667,-127.798,-106.018,7.56836,-307.068,0.303589,-0.317841,0.649872,-0.619965,-1830,17948,10218,-3042,-29381
1327893,-9.68994,-20.8968,6.05322,-93.6639,-3.01025,-127.766,-100.83,13.1226,-317.993,0.293884,-0.327484,0.648468,-0.621094,12762,19484,27882,-3042,-29381
1327899,-10.3934,-21.0834,6.1585,-94.1144,-4.59778,-127.749,-96.6797,19.8975,-327.759,0.273315,-0.346588,0.644684,-0.624084,26841,19228,-21782,-3050,-29380
1327905,-11.4748,-20.5044,6.2207,-94.9438,-7.84973,-127.809,-89.9048,37.0483,-338.989,0.262451,-0.355896,0.642395,-0.625824,-14121,11548,7915,-3050,-29380
1327911,-12.2979,-19.5665,6.3499,-95.3174,-9.49768,-127.903,-85.3271,47.8516,-341.675,0.251251,-0.364929,0.639923,-0.627777,-2346,4124,21227,-3050,-29380
1327917,-13.1353,-17.7099,7.41699,-95.6525,-11.1292,-128.029,-81.1157,55.9082,-340.088,0.239746,-0.373535,0.637299,-0.629883,8406,-5861,-31253,-3050,-29380
1327923,-13.8052,-15.145,8.81426,-95.993,-12.7222,-128.205,-85.2051,65.0635,-332.947,0.228088,-0.381683,0.634521,-0.632111,22485,-16357,-18965,-3050,-29380
1327929,-16.2265,-14.5421,9.20186,-96.3885,-14.2822,-128.447,-101.257,79.3457,-325.012,0.204132,-0.39624,0.630005,-0.635864,-29484,-28645,-7957,-3050,-29380
1327935,-20.8298,-18.4851,8.41709,-97.2015,-17.2321,-128.963,-104.065,82.1533,-304.932,0.191956,-0.402802,0.628326,-0.637177,-4654,6683,12780,-3050,-29380
1327941,-22.9448,-20.1838,7.62754,-97.5037,-18.5999,-129.227,-88.7451,81.1157,-291.748,0.180206,-0.408875,0.626617,-0.638428,7378,-10982,20972,-3050,-29380
1327947,-25.4905,-21.27,6.17764,-97.674,-19.8853,-129.474,-63.2324,77.2095,-276.428,0.169128,-0.414368,0.624603,-0.639893,19409,-30694,27372,-3050,-29380
1327953,-28.4525,-20.6432,4.39756,-97.674,-21.0773,-129.688,-27.2217,68.2983,-260.071,0.159058,-0.41922,0.622101,-0.641754,-32560,14106,32492,-3050,-29380
1327959,-32.9889,-13.5324,2.72754,-97.5037,-22.1539,-129.858,10.3149,55.603,-241.76,0.14328,-0.427368,0.614624,-0.647247,-15409,-6375,-28692,-3050,-29380
1327965,-34.8359,-8.89082,2.64619,-96.861,-23.9008,-130.1,50.1099,34.9121,-190.979,0.137634,-0.430664,0.610107,-0.650574,22222,14873,-24084,-3050,-29380
1327971,-36.8648,-3.24434,3.17256,-96.5369,-24.494,-130.182,46.936,23.2544,-153.076,0.133301,-0.433289,0.605652,-0.65387,-22323,-8168,-22804,-3050,-29380
1327977,-37.6592,1.00967,4.19658,-96.3171,-24.873,-130.243,27.2827,13.6108,-114.197,0.130341,-0.435181,0.60199,-0.656616,-308,-30952,-23572,-3050,-29380
1327983,-37.5874,4.00039,5.35938,-96.2512,-25.0378,-130.303,-3.2959,7.56836,-73.0591,0.128418,-0.43634,0.599579,-0.658417,24268,12056,-25364,-3050,-29380
1327989,-35.3001,2.65098,6.47432,-96.3556,-24.9884,-130.38,-38.5132,4.69971,-31.4941,0.12677,-0.436218,0.599854,-0.658569,-12853,-9193,-27668,-3050,-29380
1327995,-33.9746,-0.449805,6.9624,-96.8829,-24.3073,-130.573,-81.604,-1.70898,43.0908,0.126892,-0.434814,0.602448,-0.657074,-12598,15639,-32532,-3050,-29380
1328001,-31.8644,-3.73721,7.42178,-97.196,-23.7305,-130.66,-83.8013,-7.08008,72.6929,0.12793,-0.432678,0.60611,-0.654938,25290,-2282,31724,-3050,-29380
1328007,-33.2664,-33.7976,17.4275,-97.663,-22.8516,-130.649,-106.567,-33.9355,129.761,0.129913,-0.429901,0.610321,-0.652466,714,-17898,31212,-3050,-29380
1328013,-28.1606,-31.1131,9.40762,-97.3938,-21.8079,-130.594,43.396,-44.1284,162.659,0.13382,-0.426514,0.616028,-0.648529,-20535,-30442,32236,-3050,-29380
1328019,-19.4229,-11.915,11.1638,-96.7126,-20.6653,-130.589,122.62,-37.4146,185.608,0.151428,-0.415527,0.618042,-0.649841,26569,24854,-31252,-3067,-29378
1328025,-7.20645,-25.2034,-6.16807,-94.8175,-18.3801,-130.479,162.781,-47.0581,181.946,0.162445,-0.408569,0.616058,-0.653473,-824,10774,-28436,-3067,-29378
1328031,21.6624,-20.9494,18.0879,-94.2572,-16.8256,-129.941,131.47,-132.446,263.977,0.172974,-0.402496,0.614685,-0.655853,-9784,7446,-27924,-3067,-29378
1328037,24.4713,5.2876,-6.05322,-93.2355,-15.4688,-130.292,172.546,44.2505,239.502,0.187531,-0.396912,0.614777,-0.655151,-15416,6422,-28436,-3067,-29378
1328043,10.1685,0.349316,11.3647,-92.818,-14.0076,-130.803,43.0908,78.6743,263.245,0.197266,-0.386566,0.614594,-0.65863,-17464,7958,-29716,-3067,-29378
1328049,3.25869,-22.318,0.598145,-92.9333,-12.4365,-131.061,-6.34766,49.4385,289.917,0.212097,-0.366394,0.625061,-0.655701,-15672,11798,-31764,-3067,-29378
1328055,-0.358887,-16.4322,1.3877,-92.2961,-9.29443,-131.863,79.1626,73.4253,284.851,0.21991,-0.356049,0.630432,-0.653687,-5944,24086,29676,-3067,-29378
1328061,-1.09102,-5.10098,6.06758,-91.7908,-7.77832,-132.275,76.6602,67.9932,278.076,0.22818,-0.34436,0.633362,-0.654297,4297,-31722,27628,-3067,-29378
1328067,-3.08164,-4.23486,6.50303,-91.604,-6.26221,-132.638,16.5405,60.9741,278.564,0.236298,-0.332977,0.636047,-0.654663,18121,-20714,26348,-3067,-29378
1328073,-7.42178,-12.2356,6.16328,-91.4612,-4.8175,-133.05,8.11768,73.8525,264.404,0.243683,-0.322388,0.640259,-0.653168,-30775,-7914,24300,-3067,-29378
1328079,-17.4802,-15.3938,-3.00986,-91.2085,-3.52112,-133.495,85.6934,51.0864,201.05,0.255859,-0.301666,0.647675,-0.651093,-11063,5911,19948,-3067,-29378
1328085,-11.0729,-9.17314,-2.77061,-90.2252,-1.34583,-133.715,89.7827,-11.3525,183.716,0.262085,-0.292755,0.648468,-0.651917,31946,-30185,9452,-3067,-29378
1328091,-3.26348,-8.88125,4.87129,-89.8737,-0.422974,-133.671,61.9507,-9.15527,160.767,0.269623,-0.286041,0.648163,-0.65213,-10550,-15081,4076,-3067,-29378
1328097,-8.43623,-7.43613,8.47451,-89.5111,0.373535,-133.802,63.1714,28.3203,135.925,0.276031,-0.280243,0.648315,-0.651794,13003,792,-2069,-3067,-29378
1328103,-14.6665,0.708203,0.378027,-89.231,0.65918,-134.061,47.6074,52.7344,32.0435,0.28067,-0.274048,0.648529,-0.652252,-27957,16408,-8725,-3067,-29378
1328109,-2.07197,-17.0352,-0.344531,-89.3298,0.961304,-134,1.70898,10.9253,29.6631,0.283295,-0.269104,0.649384,-0.652313,-4405,31768,-13845,-3067,-29378
1328115,-1.50732,-15.0637,-0.655566,-88.9178,1.51611,-134.16,65.7959,24.5972,33.5083,0.284668,-0.267181,0.649841,-0.652039,-26932,-4072,-22037,-3067,-29378
1328121,-2.45479,-7.65146,2.22031,-88.5553,1.79077,-134.242,66.2842,20.0195,32.959,0.286438,-0.264038,0.648712,-0.653687,-7220,8473,-24853,-3067,-29378
1328127,-2.95244,-5.57471,1.7418,-88.407,2.05444,-134.308,22.9492,15.1367,29.9683,0.28833,-0.261017,0.647491,-0.655273,11469,19993,-27413,-3067,-29378
1328133,-2.40215,-9.82871,1.92363,-88.3411,2.31262,-134.319,6.5918,5.5542,30.6396,0.289764,-0.258789,0.6474,-0.655609,29645,29977,-29973,-3059,-29379
1328139,-4.00996,-6.50303,1.29678,-88.2037,2.56531,-134.346,21.8506,18.3105,23.1934,0.292847,-0.255035,0.647491,-0.655609,-18483,-26599,-32277,-3059,-29379
1328145,-5.27324,-5.78047,1.5791,-87.984,2.9718,-134.44,10.0098,5.85938,16.2354,0.293945,-0.25296,0.6474,-0.656036,13006,-8935,28907,-3059,-29379
1328151,-3.28262,-7.8668,1.47861,-87.9565,3.1311,-134.39,-0.915527,-6.89697,11.2305,0.295074,-0.251587,0.647369,-0.656067,27086,-999,26091,-3059,-29379
1328157,-2.27773,-9.02002,1.68438,-87.9236,3.26294,-134.39,0.793457,2.74658,6.7749,0.296265,-0.250885,0.647461,-0.655701,-25650,5914,23275,-3059,-29379
1328163,-2.59355,-9.49854,1.28721,-87.8796,3.38379,-134.39,2.92969,3.35693,5.31006,0.297089,-0.250031,0.647583,-0.655579,-12850,12314,21483,-3059,-29379
1328169,-2.01934,-9.7043,1.34941,-87.8082,3.59802,-134.363,0.549316,1.34277,2.31934,0.298645,-0.248535,0.647614,-0.655396,-306,17434,20459,-3059,-29379
1328175,-2.51221,-9.9292,0.368457,-87.7808,3.6969,-134.341,0.854492,-0.976562,2.13623,0.299316,-0.247894,0.647644,-0.655273,24271,28442,18411,-3059,-29379
1328181,-2.56963,-10.1541,0.550293,-87.7423,3.79578,-134.319,2.50244,-0.793457,3.11279,0.300049,-0.247375,0.647644,-0.655151,-30769,-31462,17643,-3059,-29379
1328187,-2.71797,-9.58467,0.77041,-87.6874,3.88916,-134.297,5.79834,-1.64795,2.44141,0.300812,-0.246796,0.647614,-0.65506,-20273,-26342,18667,-3059,-29379
1328193,-2.97158,-9.33105,1.52168,-87.6434,3.98804,-134.264,4.21143,-2.31934,2.99072,0.301575,-0.246246,0.647461,-0.65506,-10545,-21990,20971,-3059,-29379
1328199,-3.69893,-9.51768,1.3207,-87.5775,4.18579,-134.209,1.28174,-1.77002,4.39453,0.303162,-0.245239,0.647308,-0.654877,-2097,-17894,24043,-3059,-29379
1328205,-3.44531,-9.65166,1.72266,-87.5446,4.27917,-134.171,1.34277,-4.02832,3.60107,0.303925,-0.24472,0.647278,-0.654694,13008,-9958,29931,-3059,-29379
1328211,-3.18213,-9.59902,1.63174,-87.5226,4.36707,-134.127,-0.610352,-5.06592,2.56348,0.304718,-0.244293,0.647247,-0.654541,19152,-6374,32747,-3059,-29379
1328217,-2.6749,-9.75693,1.99063,-87.5116,4.44946,-134.077,-2.68555,-5.61523,3.05176,0.305511,-0.243988,0.647217,-0.654327,25808,-3302,-29973,-3059,-29379
1328223,-2.45957,-10.1541,1.4499,-87.5006,4.53735,-134.05,-1.89209,-1.15967,3.05176,0.306274,-0.243713,0.647247,-0.654022,32720,-742,-26389,-3059,-29379
1328229,-3.05771,-9.83828,2.12461,-87.4457,4.70215,-133.978,0.732422,-5.79834,2.74658,0.307556,-0.24292,0.647308,-0.653687,-26160,1819,-22293,-3059,-29379
1328235,-2.49307,-8.85254,1.85664,-87.4182,4.77905,-133.929,1.34277,-5.18799,3.2959,0.308319,-0.242645,0.647217,-0.653503,-11312,5915,-12565,-3059,-29379
1328241,-2.72275,-9.07266,2.42607,-87.4017,4.86145,-133.912,-1.83105,-0.12207,3.479,0.309082,-0.24234,0.647125,-0.65332,-4144,7963,-8213,-3059,-29379
1328247,-3.30176,-8.98174,1.3207,-87.3907,4.94934,-133.901,-1.40381,2.19727,4.57764,0.309692,-0.241943,0.647186,-0.653137,2513,9755,-4629,-3067,-29378
1328253,-3.63193,-9.43633,0.985742,-87.3798,5.02625,-133.874,-2.19727,-0.793457,3.54004,0.310242,-0.241455,0.647278,-0.652954,9169,12059,-789,-3067,-29378
1328259,-1.78965,-9.74736,1.2585,-87.3578,5.10315,-133.819,-1.52588,-3.84521,2.86865,0.311584,-0.240906,0.647308,-0.652496,15825,14363,2796,-3067,-29378
1328265,-2.22988,-10.1158,0.837402,-87.3358,5.25146,-133.764,-1.77002,1.09863,4.08936,0.312256,-0.240662,0.647278,-0.652283,28113,18203,12012,-3067,-29378
1328271,-2.73711,-10.3216,0.378027,-87.3193,5.33386,-133.737,-0.183105,-0.854492,4.82178,0.312775,-0.240265,0.647369,-0.6521,-31023,19995,17132,-3067,-29378
1328277,-2.38779,-10.312,0.880469,-87.2864,5.41626,-133.693,2.38037,-4.57764,5.92041,0.313385,-0.239899,0.6474,-0.651917,-24367,21531,22508,-3067,-29378
1328283,-2.30645,-9.91006,1.24414,-87.2479,5.49866,-133.66,4.21143,-2.19727,5.98145,0.314148,-0.239594,0.647308,-0.651764,-18223,23067,26860,-3067,-29378
1328289,-3.37832,-9.47461,0.607715,-87.204,5.57556,-133.632,5.7373,-3.23486,7.01904,0.315552,-0.238739,0.647064,-0.651611,-11823,24859,30956,-3067,-29378
1328295,-2.87109,-9.47939,0.650781,-87.1051,5.74036,-133.55,7.87354,-3.78418,6.34766,0.316315,-0.238342,0.646912,-0.65155,-1583,26907,-28436,-3067,-29378
1328301,-2.7084,-9.31191,0.717773,-87.0447,5.82275,-133.517,8.60596,-2.19727,6.40869,0.317108,-0.237946,0.646698,-0.65152,3538,27419,-25364,-3067,-29378
1328307,-2.66533,-9.65645,0.6125,-86.9897,5.89966,-133.467,8.36182,-5.49316,5.98145,0.317871,-0.237518,0.646454,-0.65155,9170,27419,-22036,-3067,-29378
1328313,-2.13896,-9.86699,0.985742,-86.9183,5.97656,-133.412,10.6201,-5.92041,6.83594,0.318665,-0.237183,0.64621,-0.65152,14802,27931,-18708,-3067,-29378
1328319,-2.37822,-9.45547,1.28242,-86.8469,6.05896,-133.369,12.207,-3.60107,7.32422,0.320374,-0.236389,0.645538,-0.651642,21202,28187,-15124,-3067,-29378
1328325,-2.79453,-9.20664,1.225,-86.6931,6.21277,-133.275,11.9629,-4.76074,7.62939,0.321198,-0.235962,0.645203,-0.651733,-31022,29723,-9236,-3067,-29378
1328331,-2.78975,-9.45068,1.44512,-86.6272,6.29517,-133.226,10.3149,-5.49316,7.99561,0.322052,-0.235565,0.644836,-0.651794,-24622,30235,-8468,-3067,-29378
1328337,-2.8376,-9.33105,1.29678,-86.5558,6.36658,-133.176,11.4746,-4.94385,7.32422,0.322906,-0.235199,0.644531,-0.651825,-18734,30747,-6932,-3067,-29378
1328343,-2.73232,-9.07266,1.36855,-86.4899,6.44897,-133.121,10.1929,-5.67627,7.93457,0.323761,-0.234802,0.644196,-0.651886,-13358,31003,-5652,-3067,-29378
1328349,-2.50742,-9.05352,1.92842,-86.4294,6.52039,-133.066,9.39941,-4.39453,7.01904,0.325439,-0.234161,0.643555,-0.651886,-8494,31003,-4372,-3067,-29378
1328355,-2.82324,-9.01045,1.68438,-86.3086,6.6687,-132.968,7.87354,-5.79834,7.62939,0.326233,-0.233826,0.64328,-0.651917,1235,30747,1005,-3067,-29378
1328361,-2.59355,-9.07266,1.62217,-86.2646,6.74011,-132.902,6.16455,-7.8125,7.44629,0.327026,-0.233521,0.643036,-0.651855,6099,30491,4077,-3067,-29378
1328367,-1.85664,-9.56074,1.59346,-86.2207,6.81152,-132.836,4.57764,-8.11768,8.42285,0.327881,-0.233307,0.642792,-0.651764,10963,29979,8173,-3067,-29378
1328373,-2.11982,-10.0201,1.33027,-86.1768,6.89392,-132.792,6.04248,-3.54004,9.82666,0.328735,-0.233124,0.642578,-0.651581,15571,29211,12781,-3067,-29378
1328379,-3.05771,-9.59424,1.14844,-86.1163,6.9873,-132.753,10.7422,-7.93457,12.2681,0.330322,-0.232269,0.642212,-0.651459,19923,28443,16877,-3067,-29378
1328385,-2.21074,-9.12051,1.18672,-85.979,7.16309,-132.61,10.1929,-9.82666,11.1084,0.331329,-0.231873,0.641876,-0.651398,29651,28443,20461,-3067,-29378
1328391,-1.98584,-9.14443,1.40205,-85.9241,7.25098,-132.556,7.87354,-5.7373,11.7188,0.332367,-0.231598,0.641541,-0.651337,-31277,28699,21229,-3067,-29378
1328397,-2.74189,-9.65166,0.76084,-85.8746,7.33887,-132.495,7.20215,-6.10352,11.8408,0.333252,-0.231232,0.641296,-0.651245,-26157,29467,20973,-3067,-29378
1328403,-2.72754,-10.1445,0.689063,-85.8032,7.43225,-132.424,11.0474,-9.52148,12.8174,0.334137,-0.230865,0.641083,-0.651093,-21293,29723,22509,-3067,-29378
1328409,-2.47871,-9.3502,1.55039,-85.611,7.61902,-132.303,17.2119,-4.76074,13.7329,0.336243,-0.230072,0.640289,-0.651093,-16429,29723,24557,-3067,-29378
1328415,-2.86152,-9.04395,1.73223,-85.5231,7.7179,-132.253,15.2588,-4.76074,13.855,0.337219,-0.229492,0.639832,-0.651245,-6957,31003,29165,-3067,-29378
1328421,-2.95244,-9.24971,1.79922,-85.4407,7.81128,-132.193,13.3667,-6.83594,13.7329,0.338196,-0.228943,0.639435,-0.651306,-2605,31259,32237,-3067,-29378
1328427,-2.2251,-9.61338,1.44033,-85.3693,7.90466,-132.138,12.5122,-5.06592,13.5498,0.339203,-0.228485,0.639069,-0.651306,1748,31515,-30995,-3067,-29378
1328433,-2.35908,-10.0153,1.53604,-85.2924,7.99805,-132.1,12.9395,-2.2583,14.2822,0.340149,-0.227997,0.638733,-0.651306,6356,32283,-28947,-3067,-29378
1328439,-2.81846,-10.7092,1.50732,-85.1166,8.20679,-132.001,17.1509,-2.86865,16.0522,0.34201,-0.226868,0.638123,-0.651367,11220,-32741,-28179,-3067,-29378
1328445,-2.86631,-9.92441,1.30156,-84.9957,8.31665,-131.946,21.5454,-4.76074,17.334,0.342987,-0.226196,0.637695,-0.651459,20692,-31461,-26387,-3067,-29378
1328451,-2.63184,-9.47939,1.63174,-84.8804,8.42102,-131.891,20.0195,-5.61523,17.334,0.344086,-0.225464,0.637146,-0.651672,26068,-30693,-25875,-3067,-29378
1328457,-2.73232,-9.88613,1.68916,-84.7815,8.54187,-131.83,17.7612,-5.5542,19.2261,0.345215,-0.224792,0.636658,-0.651825,30932,-29925,-24339,-3067,-29378
1328463,-3.029,-10.3024,1.14844,-84.6716,8.66272,-131.781,19.2261,-3.72314,20.2026,0.346344,-0.224121,0.6362,-0.651855,-29484,-29157,-23315,-3067,-29378
1328469,-2.35908,-10.0249,1.59824,-84.4025,8.90442,-131.627,24.7192,-9.76562,21.4844,0.348755,-0.222565,0.635162,-0.652161,-23596,-28389,-22803,-3067,-29378
1328475,-2.15811,-10.2689,1.45947,-84.2651,9.03625,-131.572,24.8413,-4.82178,21.9116,0.350128,-0.221863,0.634491,-0.652313,-12332,-27621,-22291,-3067,-29378
