Timestamp,AccX,AccY,AccZ,AngleX,AngleY,AngleZ,AngularVelX,AngularVelY,AngularVelZ,QW,QX,QY,QZ,MagX,MagY,MagZ,Height,AirPressure
89214,-0.957031,-10.4316,0.124414,-82.6556,-0.933838,-127.826,6.83594,-6.28662,48.0957,0.323547,-0.297211,0.589966,-0.677338,25547,9496,21743,-3689,-29303
89220,-0.00957031,-10.6565,0.756055,-82.6007,-0.708618,-127.815,9.52148,2.0752,41.5039,0.325317,-0.295868,0.590332,-0.676758,-31029,13592,22255,-3689,-29303
89226,-0.258398,-10.2977,0.512012,-82.5348,-0.488892,-127.815,12.0239,3.90625,39.4287,0.326691,-0.294434,0.590668,-0.676453,-21813,18200,22255,-3689,-29303
89232,0.459375,-10.4938,0.6125,-82.4634,-0.280151,-127.826,12.9395,5.12695,38.0859,0.328003,-0.292938,0.590912,-0.676239,-12853,23064,21487,-3689,-29303
89238,-0.842188,-10.4077,1.40205,-82.37,-0.0823975,-127.886,17.6392,15.8081,34.729,0.329193,-0.291473,0.591125,-0.676117,3788,-32232,19951,-3689,-29303
89244,-3.81855,-8.28789,1.85186,-82.2546,0.148315,-127.963,3.78418,1.95312,12.207,0.330719,-0.288177,0.5914,-0.676544,11980,-27624,19183,-3689,-29303
89250,-0.512012,-9.5751,1.56475,-82.2656,0.20874,-127.925,-2.99072,-8.42285,8.97217,0.331146,-0.287598,0.591522,-0.676483,20172,-23272,18927,-3689,-29303
89256,0.952246,-10.6565,1.50732,-82.2491,0.274658,-127.925,2.56348,0.0610352,9.09424,0.331665,-0.287476,0.591644,-0.676147,27596,-18920,17391,-3689,-29303
89262,0.114844,-10.0297,1.11494,-82.2052,0.340576,-127.952,8.42285,5.12695,9.21631,0.332031,-0.287048,0.591736,-0.676086,-30260,-14568,14831,-3689,-29303
89268,-0.0669922,-9.84785,1.21543,-82.1667,0.401001,-127.963,6.28662,2.68555,9.21631,0.332336,-0.286377,0.591705,-0.676239,-17204,-6120,10479,-3689,-29303
89274,0,-10.3981,0.913965,-82.1063,0.543823,-128.018,7.01904,5.85938,11.0474,0.332947,-0.285248,0.591827,-0.6763,-11316,-2280,8175,-3689,-29303
89280,0.129199,-9.73779,1.1293,-82.0569,0.620728,-128.035,9.94873,4.21143,12.5122,0.333221,-0.284576,0.591888,-0.676392,-6196,793,6639,-3689,-29303
89286,0.334961,-9.45068,1.34463,-82.0129,0.692139,-128.051,7.8125,4.15039,12.146,0.333649,-0.283875,0.591858,-0.676514,-1588,3865,4847,-3689,-29303
89292,0.354102,-9.8335,1.07666,-81.98,0.769043,-128.073,6.34766,4.08936,12.207,0.334015,-0.283203,0.591858,-0.676605,2509,5913,4335,-3689,-29303
89298,0.291895,-10.3646,1.0623,-81.947,0.85144,-128.09,7.26318,4.82178,14.5874,0.334381,-0.282562,0.591949,-0.676636,10701,10777,3055,-3689,-29303
89304,-0.320605,-9.53682,1.40205,-81.8262,1.0437,-128.15,13.4888,7.56836,17.334,0.335236,-0.281006,0.59201,-0.676788,14285,12825,2799,-3689,-29303
89310,-0.526367,-8.79512,1.68438,-81.7657,1.13708,-128.177,11.4746,5.85938,16.0522,0.335724,-0.28006,0.59198,-0.676971,17613,14873,2543,-3689,-29303
89316,-0.46416,-8.59893,1.82314,-81.7328,1.21399,-128.194,6.65283,4.02832,13.855,0.336182,-0.279205,0.591949,-0.677124,20685,17177,2031,-3689,-29303
89322,-0.287109,-9.154,1.75137,-81.7163,1.2854,-128.205,3.05176,3.11279,12.207,0.336578,-0.278564,0.592041,-0.677124,24013,19225,2543,-3689,-29303
89328,-0.607715,-9.69473,1.44033,-81.6998,1.35132,-128.221,2.99072,4.21143,11.5356,0.336884,-0.278046,0.592163,-0.677063,30669,22809,3567,-3689,-29303
89334,-0.875684,-9.58467,1.52646,-81.6504,1.47766,-128.249,4.69971,2.31934,11.0474,0.337463,-0.276947,0.592377,-0.677063,-32307,25369,2799,-3689,-29303
89340,-0.579004,-9.51768,1.33984,-81.6339,1.53259,-128.254,3.84521,1.58691,9.27734,0.337769,-0.276459,0.592438,-0.677032,-30003,27929,2543,-3689,-29303
89346,-0.425879,-9.68994,1.13408,-81.6174,1.58203,-128.265,2.74658,2.19727,7.99561,0.338043,-0.276031,0.592468,-0.677032,-26931,29465,2031,-3689,-29303
89352,-0.502441,-9.84307,1.33027,-81.5955,1.62598,-128.276,4.21143,1.46484,7.50732,0.338257,-0.275665,0.59256,-0.677032,-23859,31257,1263,-3689,-29303
89358,-0.693848,-9.76172,1.33506,-81.579,1.66992,-128.287,3.60107,2.50244,7.50732,0.33847,-0.275299,0.59256,-0.677032,-16179,-31719,239,-3689,-29303
89364,-0.90918,-9.57031,1.46904,-81.5405,1.75232,-128.309,3.90625,1.46484,6.65283,0.338867,-0.274536,0.592651,-0.677094,-12339,-30183,-18,-3689,-29303
89370,-0.607715,-9.37891,1.45469,-81.524,1.78528,-128.315,2.56348,0.366211,5.67627,0.339081,-0.27417,0.592682,-0.677094,-8755,-28903,-1042,-3689,-29303
89376,-0.258398,-9.75693,1.33506,-81.5186,1.81824,-128.315,1.28174,0,5.24902,0.339264,-0.273926,0.592712,-0.677094,-5683,-27367,-2066,-3689,-29303
89382,-0.0717773,-10.1397,1.11016,-81.5131,1.8512,-128.32,1.40381,0.854492,5.37109,0.339417,-0.273712,0.592773,-0.677063,-3123,-26599,-3602,-3689,-29303
89388,-0.339746,-10.2977,1.11494,-81.4966,1.88965,-128.331,3.17383,1.64795,6.34766,0.339569,-0.273468,0.592834,-0.677032,718,-25575,-4370,-3689,-29303
89394,-0.784766,-9.68994,1.53604,-81.4526,1.97205,-128.353,5.31006,1.89209,7.56836,0.339935,-0.272766,0.592865,-0.677063,2254,-24807,-4114,-3689,-29303
89400,-0.669922,-9.48418,1.52646,-81.4307,2.01599,-128.359,4.02832,1.15967,7.08008,0.340149,-0.272369,0.592865,-0.677124,3790,-23527,-4114,-3689,-29303
89406,-0.392383,-9.61816,1.54082,-81.4197,2.04895,-128.359,2.62451,-0.0610352,6.71387,0.340363,-0.272034,0.592896,-0.677124,5582,-22503,-4626,-3689,-29303
89412,-0.133984,-9.76172,1.45947,-81.4087,2.0874,-128.364,2.19727,0.732422,6.22559,0.340576,-0.27179,0.592926,-0.677094,7630,-21479,-5138,-3689,-29303
89418,-0.540723,-9.92441,1.42119,-81.4032,2.12585,-128.37,1.89209,1.58691,6.89697,0.340759,-0.271515,0.592957,-0.677094,11726,-21223,-6418,-3689,-29303
89424,-1.0623,-9.23057,1.79443,-81.3702,2.20276,-128.386,2.86865,0.671387,6.34766,0.341095,-0.270844,0.593079,-0.677063,13518,-20967,-5906,-3689,-29303
89430,-0.77998,-9.154,1.66523,-81.3702,2.23022,-128.392,0.244141,0.244141,5.00488,0.341278,-0.270569,0.593109,-0.677063,15054,-20199,-6418,-3689,-29303
89436,-0.550293,-9.53203,1.45469,-81.3702,2.25769,-128.397,-0.671387,-0.0610352,4.21143,0.3414,-0.270386,0.593201,-0.677002,16590,-19175,-6930,-3689,-29303
89442,-0.416309,-9.61816,1.42119,-81.3757,2.27966,-128.397,-0.427246,-0.0610352,3.60107,0.341522,-0.270233,0.593292,-0.67691,18382,-17639,-7698,-3689,-29303
89448,-0.593359,-9.58945,1.58867,-81.3757,2.30164,-128.403,-0.427246,0.610352,4.02832,0.341675,-0.269928,0.593475,-0.676819,21966,-16103,-10258,-3689,-29303
89454,-0.952246,-9.28799,1.76094,-81.3812,2.34558,-128.414,-1.0376,-0.366211,3.11279,0.341766,-0.269745,0.593567,-0.676758,24014,-16103,-11538,-3689,-29303
89460,-0.550293,-9.24492,1.69873,-81.3977,2.35657,-128.414,-2.62451,-1.0376,2.13623,0.341827,-0.269623,0.593658,-0.676697,26574,-15847,-12050,-3689,-29303
89466,-0.224902,-9.50332,1.43076,-81.4142,2.36755,-128.414,-4.27246,-0.671387,0.732422,0.341888,-0.269592,0.593781,-0.676575,28366,-15847,-11794,-3689,-29303
89472,-0.224902,-9.73779,1.30635,-81.4362,2.37305,-128.425,-4.08936,0.305176,0.549316,0.341858,-0.269592,0.593903,-0.676483,30414,-15591,-10770,-3689,-29303
89478,-0.607715,-9.69473,1.33984,-81.4526,2.37854,-128.43,-3.17383,0.976562,0.305176,0.341736,-0.269531,0.594208,-0.6763,-31282,-14823,-7186,-3689,-29303
89484,-1.10059,-9.4459,1.38291,-81.4856,2.38953,-128.452,-3.60107,0.12207,-0.305176,0.341675,-0.26947,0.59433,-0.676239,-28978,-14311,-5650,-3689,-29303
89490,-0.818262,-9.50811,1.18193,-81.5076,2.38953,-128.452,-4.3335,-0.854492,-0.610352,0.341614,-0.26947,0.594452,-0.676147,-26930,-13799,-5138,-3689,-29303
89496,-0.258398,-9.76172,1.13408,-81.5295,2.38403,-128.452,-4.57764,-1.40381,-1.28174,0.341553,-0.269531,0.594604,-0.676056,-25394,-13287,-5138,-3689,-29303
89502,0.0382813,-10.1302,1.04316,-81.5515,2.38953,-128.458,-4.39453,0.12207,-0.305176,0.341461,-0.269623,0.594727,-0.675934,-24114,-12519,-5138,-3689,-29303
89508,-0.282324,-10.2929,1.0001,-81.5625,2.39502,-128.469,-2.44141,1.58691,0.854492,0.341339,-0.269562,0.595001,-0.675781,-22322,-11239,-3858,-3689,-29303
89514,-0.947461,-9.74736,1.50732,-81.568,2.42798,-128.491,0,1.34277,2.50244,0.341339,-0.269409,0.595062,-0.675781,-21298,-10215,-2834,-3689,-29303
89520,-0.574219,-9.33584,1.50254,-81.5735,2.43347,-128.502,-1.15967,0.976562,0.915527,0.341339,-0.269257,0.595154,-0.675751,-20274,-9703,-3090,-3689,-29303
89526,-0.411523,-9.83828,1.57432,-81.5845,2.44446,-128.507,-2.0752,-0.0610352,1.58691,0.341309,-0.269196,0.595245,-0.675751,-19506,-9447,-3090,-3689,-29303
89532,-0.210547,-9.91963,1.18193,-81.5955,2.45544,-128.518,-2.13623,0.854492,1.40381,0.341309,-0.269135,0.595337,-0.675659,-18482,-9191,-2834,-3689,-29303
89538,-0.339746,-9.86699,1.25371,-81.601,2.47192,-128.529,-1.15967,1.2207,2.19727,0.341278,-0.268921,0.595551,-0.675568,-16690,-9447,-1042,-3689,-29303
89544,-1.1915,-9.47939,1.54561,-81.6064,2.49939,-128.551,-0.183105,1.52588,2.0752,0.341278,-0.268768,0.595673,-0.675537,-15666,-9703,495,-3689,-29303
89550,-0.92832,-9.23057,1.58867,-81.6174,2.51038,-128.557,-1.77002,0,1.40381,0.341278,-0.268616,0.595734,-0.675537,-14130,-9703,2031,-3689,-29303
89556,-0.320605,-9.47939,1.34941,-81.6339,2.51587,-128.562,-3.60107,-0.671387,0.12207,0.341278,-0.268585,0.595825,-0.675476,-12594,-9191,3823,-3689,-29303
89562,0.0239258,-9.79043,1.04795,-81.6559,2.51587,-128.568,-4.02832,0.0610352,-0.244141,0.341217,-0.268585,0.595947,-0.675385,-10802,-8679,4335,-3689,-29303
89568,-0.555078,-9.9292,1.23936,-81.6724,2.52136,-128.578,-3.23486,1.0376,0.305176,0.341064,-0.268585,0.596222,-0.675201,-7986,-7655,6383,-3689,-29303
89574,-1.01924,-9.7043,1.29678,-81.6888,2.53235,-128.6,-1.09863,1.46484,0.671387,0.341003,-0.268494,0.596344,-0.675171,-7474,-6631,7919,-3689,-29303
89580,-0.837402,-9.63252,1.31592,-81.6998,2.53784,-128.606,-1.64795,-0.183105,0,0.340942,-0.268402,0.596436,-0.675171,-6706,-6375,10479,-3689,-29303
89586,-0.287109,-9.75215,1.20586,-81.7108,2.53784,-128.611,-2.44141,0,-0.305176,0.340912,-0.268402,0.596497,-0.67511,-6450,-6375,13807,-3689,-29303
89592,-0.0287109,-10.0393,1.02402,-81.7273,2.53784,-128.617,-2.62451,-0.12207,-0.183105,0.340851,-0.268402,0.596619,-0.675079,-4914,-6375,15855,-3689,-29303
89598,-0.531152,-9.90527,1.29199,-81.7383,2.53784,-128.628,-1.2207,0.671387,-0.183105,0.340729,-0.268402,0.596771,-0.674988,-1842,-7143,17903,-3689,-29303
89604,-1.05752,-9.69951,1.55996,-81.7383,2.54883,-128.655,0.12207,1.70898,0.549316,0.340668,-0.26828,0.596832,-0.675018,207,-7655,18671,-3689,-29303
89610,-1.09102,-9.42676,1.52168,-81.7438,2.55432,-128.661,-0.610352,0,0.488281,0.340607,-0.268188,0.596893,-0.675018,1999,-8423,18159,-3689,-29303
89616,-0.636426,-9.47461,1.47383,-81.7548,2.55432,-128.661,-2.01416,-0.793457,-0.427246,0.340607,-0.268158,0.596954,-0.675018,3535,-8935,18415,-3689,-29303
89622,-0.0287109,-9.7665,1.29199,-81.7712,2.55432,-128.666,-2.80762,-0.427246,-0.793457,0.340546,-0.268158,0.597015,-0.674957,4815,-8935,18159,-3689,-29303
89628,-0.540723,-10.0775,1.33984,-81.7822,2.55432,-128.677,-2.13623,0.732422,0.0610352,0.340424,-0.268188,0.597198,-0.674866,6863,-8423,18671,-3689,-29303
89634,-1.15801,-9.71387,1.43076,-81.7877,2.5708,-128.705,0.244141,1.77002,1.0376,0.340363,-0.268066,0.59729,-0.674835,7119,-7911,20207,-3689,-29303
89640,-0.961816,-9.47461,1.41641,-81.7877,2.57629,-128.705,-0.305176,-0.427246,0.488281,0.340332,-0.267944,0.597321,-0.674866,7375,-7911,22255,-3689,-29303
89646,-0.14834,-9.60859,1.39727,-81.7987,2.57629,-128.705,-1.34277,-1.09863,-0.427246,0.340332,-0.267914,0.597382,-0.674835,8143,-8167,23535,-3689,-29303
89652,0.16748,-9.90049,1.15322,-81.8097,2.57629,-128.716,-2.19727,0.488281,-0.183105,0.340302,-0.267944,0.597412,-0.674805,9423,-7911,24559,-3689,-29303
89658,-0.90918,-9.91963,1.21543,-81.8152,2.58179,-128.727,-0.610352,2.01416,0.854492,0.340179,-0.267822,0.597595,-0.674774,14031,-8679,25839,-3689,-29303
89664,-1.16758,-9.5416,1.49775,-81.8042,2.60376,-128.754,0.915527,1.34277,1.34277,0.340149,-0.2677,0.597626,-0.674805,16079,-8167,26607,-3689,-29303
89670,-1.11973,-9.55117,1.29678,-81.8097,2.60925,-128.76,-0.366211,0.488281,1.0376,0.340149,-0.267578,0.597656,-0.674835,17615,-8423,28911,-3689,-29303
89676,-0.459375,-9.88613,1.09102,-81.8152,2.61475,-128.76,-0.976562,-0.976562,0.305176,0.340118,-0.267487,0.597717,-0.674835,18895,-8167,30703,-3689,-29303
89682,-0.0239258,-10.0823,0.966602,-81.8207,2.62024,-128.771,-0.610352,0.549316,0.793457,0.340118,-0.267487,0.597748,-0.674774,19919,-7911,-32529,-3689,-29303
89688,-0.765625,-10.0871,0.775195,-81.8207,2.62573,-128.776,1.77002,0.976562,2.56348,0.340088,-0.267334,0.59787,-0.674774,21711,-7143,-29969,-3689,-29303
89694,-0.957031,-10.2067,1.75137,-81.7987,2.66418,-128.793,3.66211,0.549316,3.54004,0.340118,-0.267181,0.5979,-0.674805,22479,-6375,-29457,-3689,-29303
89700,-1.25371,-9.67559,1.37813,-81.7822,2.68066,-128.804,3.17383,1.64795,3.41797,0.34024,-0.266968,0.59787,-0.674835,22991,-5863,-29201,-3689,-29303
89706,-0.894824,-9.66123,1.3542,-81.7712,2.69714,-128.798,3.11279,-1.46484,3.11279,0.340302,-0.266754,0.59787,-0.674896,24271,-5095,-29969,-3689,-29303
89712,-0.196191,-9.77129,1.42598,-81.7603,2.71912,-128.798,2.0752,-0.366211,3.17383,0.340454,-0.266632,0.597809,-0.674896,25039,-3815,-30737,-3689,-29303
89718,-0.564648,-10.001,1.36377,-81.7548,2.74109,-128.804,3.72314,1.28174,4.69971,0.340668,-0.266327,0.597839,-0.674866,25295,-1511,-31761,-3689,-29303
89724,-1.16758,-9.62773,1.52168,-81.7218,2.79602,-128.82,3.96729,1.40381,5.18799,0.34079,-0.266083,0.597839,-0.674927,25807,-743,-31249,-3689,-29303
89730,-1.0958,-9.55117,1.77529,-81.7108,2.81799,-128.82,2.50244,-0.366211,4.57764,0.340942,-0.265808,0.597839,-0.674957,26063,-231,-29713,-3689,-29303
89736,-0.62207,-9.36934,1.55996,-81.7053,2.83997,-128.82,1.58691,-0.12207,3.479,0.341095,-0.265625,0.597839,-0.674957,26319,282,-27921,-3689,-29303
89742,-0.263184,-9.57988,1.48818,-81.7053,2.85645,-128.82,0,-0.0610352,2.92969,0.341187,-0.265503,0.59787,-0.674957,27343,1050,-26897,-3689,-29303
89748,-0.689063,-9.78086,1.22979,-81.7053,2.87292,-128.826,1.70898,1.40381,3.78418,0.341309,-0.265259,0.597961,-0.674866,29135,2330,-23825,-3689,-29303
89754,-1.05752,-9.53682,1.50732,-81.6888,2.91687,-128.842,2.31934,0.671387,3.54004,0.3414,-0.265045,0.597992,-0.674896,30159,2586,-22033,-3689,-29303
89760,-1.20586,-9.25449,1.43555,-81.6833,2.92786,-128.848,1.15967,0,2.56348,0.341492,-0.264862,0.598022,-0.674896,31183,2074,-21009,-3689,-29303
89766,-0.856543,-9.56074,1.34941,-81.6833,2.93884,-128.842,0.305176,-0.915527,1.64795,0.341553,-0.26474,0.598022,-0.674896,32719,1562,-19217,-3689,-29303
89772,-0.253613,-9.66123,1.20107,-81.6779,2.94434,-128.842,0.610352,-1.28174,1.15967,0.341614,-0.264709,0.598053,-0.674866,-31537,1050,-18449,-3689,-29303
89778,-0.478516,-9.87178,1.225,-81.6779,2.95532,-128.848,1.64795,0.732422,1.0376,0.341675,-0.264587,0.598053,-0.674866,-28721,1818,-18449,-3689,-29303
89784,-1.01445,-9.76172,1.48818,-81.6559,2.96631,-128.859,2.92969,0.488281,1.15967,0.341675,-0.264496,0.598053,-0.674896,-27697,2586,-18705,-3689,-29303
89790,-1.18193,-9.36934,1.60303,-81.6394,2.97729,-128.864,3.23486,0,0.915527,0.341705,-0.264374,0.598022,-0.674988,-26673,2842,-18961,-3689,-29303
89796,-0.976172,-9.36934,1.59346,-81.6339,2.97729,-128.87,1.64795,-0.305176,0.183105,0.341766,-0.264252,0.597961,-0.675049,-25905,3098,-18193,-3689,-29303
89802,-0.406738,-9.45068,1.27285,-81.6339,2.97729,-128.87,0.793457,-0.915527,-0.305176,0.341766,-0.264191,0.597931,-0.675079,-24369,3354,-17681,-3689,-29303
89808,-0.440234,-9.97227,1.09102,-81.6229,2.98279,-128.881,1.15967,0.671387,0,0.341766,-0.26416,0.597931,-0.67514,-23857,3866,-18705,-3689,-29303
89814,-0.913965,-9.89092,1.33984,-81.6174,2.98828,-128.886,1.95312,0.488281,1.0376,0.341736,-0.264069,0.597931,-0.675171,-23089,3354,-19985,-3689,-29303
89820,-1.11973,-9.75215,1.40205,-81.6119,2.99377,-128.892,1.34277,-0.549316,0.976562,0.341736,-0.263977,0.5979,-0.675201,-22321,3098,-21777,-3689,-29303
89826,-0.851758,-9.45068,1.36855,-81.601,2.99927,-128.892,1.95312,-0.244141,0.427246,0.341797,-0.263916,0.5979,-0.675232,-20785,3354,-22801,-3689,-29303
89832,-0.162695,-9.56074,1.42598,-81.6064,2.99927,-128.892,0,-1.77002,-0.244141,0.341827,-0.263855,0.59787,-0.675262,-18225,4122,-23313,-3689,-29303
89838,-0.234473,-10.1685,1.1915,-81.6064,3.01025,-128.903,1.09863,1.34277,0.976562,0.341797,-0.263855,0.5979,-0.675232,-17713,4634,-22545,-3689,-29303
89844,-0.842188,-9.88135,1.3877,-81.5955,3.02124,-128.914,2.01416,0.793457,2.19727,0.341766,-0.263733,0.597931,-0.675293,-17713,4890,-21521,-3689,-29303
89850,-1.13408,-9.5416,1.53604,-81.59,3.03223,-128.919,2.01416,0.671387,1.58691,0.341827,-0.263611,0.597931,-0.675323,-17457,5146,-21265,-3689,-29303
89856,-0.890039,-9.48897,1.4834,-81.5845,3.03772,-128.919,0.854492,-0.427246,0.976562,0.341858,-0.263489,0.597931,-0.675354,-16689,6170,-21777,-3689,-29303
89862,-0.287109,-9.62773,1.37334,-81.5845,3.04321,-128.919,0.244141,-0.610352,0.793457,0.341888,-0.263428,0.597931,-0.675354,-14385,8218,-23313,-3689,-29303
89868,-0.468945,-9.88613,1.23457,-81.5845,3.04871,-128.936,0.732422,0.915527,0.976562,0.341858,-0.263367,0.597961,-0.675354,-13873,9242,-24337,-3689,-29303
89874,-1.00967,-9.81436,1.46426,-81.579,3.05969,-128.947,1.09863,1.15967,1.0376,0.341858,-0.263275,0.597992,-0.675354,-13873,10010,-24337,-3689,-29303
89880,-1.26328,-9.58467,1.56475,-81.579,3.06519,-128.952,1.0376,0.488281,0.915527,0.341858,-0.263153,0.597992,-0.675385,-13873,10522,-24849,-3689,-29303
89886,-1.13887,-9.51768,1.51211,-81.5735,3.06519,-128.952,0.671387,-0.244141,0.183105,0.341858,-0.263092,0.598022,-0.675415,-14129,11546,-24593,-3689,-29303
89892,-0.588574,-9.47939,1.33506,-81.5735,3.06519,-128.958,0.183105,-0.915527,-0.793457,0.341858,-0.263031,0.598022,-0.675446,-13361,12570,-24337,-3689,-29303
89898,-0.421094,-9.9627,1.18672,-81.5735,3.06519,-128.969,0.366211,0.671387,-0.305176,0.341797,-0.263031,0.598022,-0.675446,-11825,12058,-24337,-3689,-29303
89904,-1.06709,-9.87178,1.38291,-81.568,3.07068,-128.974,1.28174,0.976562,0.549316,0.341766,-0.263,0.598053,-0.675476,-9777,10778,-23569,-3689,-29303
89910,-1.42119,-9.5751,1.51689,-81.5625,3.07068,-128.979,1.40381,0.12207,0.12207,0.341736,-0.262909,0.598053,-0.675507,-7729,10010,-22289,-3689,-29303
89916,-1.12451,-9.45547,1.47861,-81.5625,3.07617,-128.979,0.793457,-0.854492,-0.12207,0.341736,-0.262848,0.598022,-0.675537,-6193,9498,-21265,-3689,-29303
89922,-0.569434,-9.62773,1.3877,-81.5625,3.07068,-128.979,-0.0610352,-1.89209,-0.854492,0.341766,-0.262817,0.598022,-0.675568,-4657,11034,-20241,-3689,-29303
89928,-0.0191406,-10.0393,1.16279,-81.5625,3.06519,-128.979,0.854492,-0.12207,-1.0376,0.341766,-0.262878,0.598022,-0.675537,-3889,11546,-19473,-3689,-29303
89934,-0.684277,-9.92441,1.31592,-81.557,3.06519,-128.99,1.70898,1.0376,-0.0610352,0.341736,-0.262878,0.597992,-0.675568,-3121,11290,-19217,-3689,-29303
89940,-1.18672,-9.72344,1.55996,-81.546,3.07068,-128.996,1.95312,0.732422,0,0.341705,-0.262787,0.597992,-0.675629,-2353,10522,-18449,-3689,-29303
89946,-1.22021,-9.51289,1.57432,-81.5405,3.07068,-129.001,1.64795,-0.305176,-0.427246,0.341675,-0.262726,0.597961,-0.67569,-1585,10010,-18705,-3689,-29303
89952,-0.674707,-9.47461,1.41162,-81.535,3.06519,-128.996,0.549316,-2.01416,-0.915527,0.341675,-0.262665,0.597931,-0.675751,-49,8986,-17681,-3689,-29303
89958,0.177051,-10.1876,1.11973,-81.535,3.07068,-128.996,1.2207,0,0.183105,0.341705,-0.262756,0.5979,-0.67572,976,8986,-18449,-3689,-29303
89964,-0.569434,-9.97705,1.52646,-81.524,3.07617,-129.007,2.38037,1.46484,1.09863,0.341705,-0.262695,0.59787,-0.675751,1232,8986,-18449,-3689,-29303
89970,-1.21543,-9.64688,1.63652,-81.5131,3.08716,-129.012,2.13623,0.915527,1.83105,0.341705,-0.262573,0.59787,-0.675812,1232,9498,-18193,-3689,-29303
89976,-1.26328,-9.56074,1.73701,-81.5076,3.09265,-129.018,1.58691,-0.0610352,0.732422,0.341736,-0.262421,0.59787,-0.675842,2000,9754,-19985,-3689,-29303
89982,-0.851758,-9.59424,1.52168,-81.5076,3.09814,-129.012,0.793457,-1.46484,0.549316,0.341766,-0.26236,0.597839,-0.675873,4048,10010,-19217,-3689,-29303
89988,0.0239258,-9.98662,1.0623,-81.5076,3.10364,-129.007,0.183105,-0.793457,0.366211,0.341858,-0.26236,0.597839,-0.675842,5584,10010,-17937,-3689,-29303
89994,-0.468945,-10.068,1.24893,-81.5021,3.10913,-129.012,1.64795,0.671387,0.976562,0.341888,-0.262329,0.597839,-0.675842,6608,9754,-16913,-3689,-29303
90000,-1.11973,-9.77129,1.37334,-81.4911,3.12012,-129.023,2.38037,0.610352,1.15967,0.341888,-0.262238,0.597839,-0.675873,7376,9498,-15889,-3689,-29303
90006,-1.29199,-9.56553,1.57432,-81.4801,3.12561,-129.023,2.13623,0,1.15967,0.341919,-0.262115,0.597809,-0.675934,7888,9498,-15377,-3689,-29303
90012,-0.856543,-9.45068,1.36855,-81.4746,3.12561,-129.018,1.09863,-2.31934,0.305176,0.341949,-0.262024,0.597778,-0.675964,8400,10778,-14353,-3689,-29303
90018,0.177051,-10.0297,1.05273,-81.4691,3.1311,-129.012,1.40381,-0.366211,0,0.342072,-0.262085,0.597717,-0.675964,8912,11802,-12305,-3689,-29303
90024,-0.320605,-9.98184,1.2585,-81.4581,3.1311,-129.018,2.86865,0.549316,0.366211,0.342072,-0.262054,0.597687,-0.675995,9424,12570,-11281,-3689,-29303
90030,-0.961816,-9.68516,1.50254,-81.4417,3.1366,-129.023,3.54004,0.671387,1.0376,0.342072,-0.261963,0.597656,-0.676056,9680,12826,-9489,-3689,-29303
90036,-1.18672,-9.43154,1.55996,-81.4307,3.14209,-129.029,2.80762,-0.244141,0.305176,0.342102,-0.261841,0.597595,-0.676147,9936,12826,-7441,-3689,-29303
90042,-0.823047,-9.51768,1.51689,-81.4197,3.14209,-129.023,1.58691,-1.89209,0,0.342194,-0.26178,0.597473,-0.676239,10192,12570,-5393,-3689,-29303
90048,-0.15791,-9.94355,1.26328,-81.4142,3.14209,-129.018,1.52588,-0.427246,0.0610352,0.342224,-0.26178,0.597443,-0.676239,9936,13082,-4625,-3689,-29303
90054,-0.531152,-9.86221,1.41641,-81.4032,3.14758,-129.029,2.50244,0.732422,0.549316,0.342224,-0.261749,0.597412,-0.67627,9936,12826,-3857,-3689,-29303
90060,-1.02402,-9.71865,1.63652,-81.3922,3.15308,-129.034,2.50244,0.732422,1.2207,0.342224,-0.261658,0.597382,-0.676331,9936,13338,-2577,-3689,-29303
90066,-1.19629,-9.74258,1.72266,-81.3812,3.16406,-129.04,2.19727,0.427246,1.28174,0.342255,-0.261536,0.597351,-0.676392,10448,13850,-2065,-3689,-29303
90072,-1.04316,-9.63252,1.52168,-81.3702,3.16956,-129.04,2.2583,-0.305176,1.0376,0.342346,-0.261353,0.59729,-0.676483,11728,14362,-1553,-3689,-29303
90078,-0.0717773,-9.84307,1.3207,-81.3593,3.18054,-129.034,1.2207,-0.976562,0.305176,0.342407,-0.261322,0.59726,-0.676483,13264,14362,-529,-3689,-29303
90084,-0.239258,-10.044,1.43076,-81.3483,3.18604,-129.045,1.95312,0.976562,1.46484,0.342438,-0.261292,0.597229,-0.676514,14288,14618,240,-3689,-29303
90090,-0.976172,-9.83828,1.50732,-81.3318,3.20251,-129.056,3.54004,2.01416,1.77002,0.342438,-0.261169,0.597229,-0.676544,15056,15130,1520,-3689,-29303
90096,-1.39727,-9.51289,1.69873,-81.3153,3.2135,-129.062,3.60107,0.854492,1.77002,0.342468,-0.260986,0.597198,-0.676636,15824,15898,2544,-3689,-29303
90102,-1.12451,-9.24971,1.55518,-81.3098,3.21899,-129.062,2.01416,-0.549316,0.976562,0.34259,-0.260742,0.597107,-0.676758,16592,16666,2800,-3689,-29303
90108,0.119629,-9.85264,1.24893,-81.3043,3.22449,-129.056,0.488281,-1.46484,0.488281,0.342651,-0.260742,0.597107,-0.676727,17616,17178,2800,-3689,-29303
90114,-0.13877,-10.0871,1.3542,-81.2988,3.22998,-129.062,1.40381,1.15967,1.0376,0.342682,-0.260742,0.597076,-0.676727,18896,17434,2544,-3689,-29303
90120,-0.861328,-9.86699,1.47383,-81.2878,3.24097,-129.073,2.80762,1.46484,1.64795,0.342682,-0.260651,0.597076,-0.676758,20176,18458,2544,-3689,-29303
90126,-1.225,-9.5416,1.70352,-81.2714,3.25195,-129.078,2.92969,0.305176,1.95312,0.342712,-0.260498,0.597076,-0.676819,21712,19738,3312,-3689,-29303
90132,-1.11016,-9.36934,1.64609,-81.2659,3.26294,-129.078,1.77002,-0.671387,1.2207,0.342834,-0.260284,0.596985,-0.67691,24272,21018,5872,-3689,-29303
90138,0.0143555,-9.85264,1.31592,-81.2604,3.26843,-129.067,0.183105,-1.58691,0.793457,0.342896,-0.260284,0.596985,-0.67688,25296,21018,7920,-3689,-29303
90144,-0.162695,-10.001,1.30156,-81.2549,3.27393,-129.067,1.34277,0,0.854492,0.342957,-0.260284,0.596985,-0.676849,26320,21018,8944,-3689,-29303
90150,-0.789551,-9.82871,1.54082,-81.2439,3.28491,-129.078,2.44141,1.40381,1.52588,0.342957,-0.260223,0.596954,-0.67688,27088,20762,9968,-3689,-29303
90156,-1.28242,-9.63252,1.60303,-81.2329,3.2959,-129.084,2.56348,0.793457,1.95312,0.342987,-0.260101,0.596954,-0.676941,27088,20762,11504,-3689,-29303
90162,-0.717773,-9.53682,1.6126,-81.2219,3.30688,-129.084,2.13623,-0.854492,1.34277,0.343109,-0.259888,0.596893,-0.677032,27344,19994,13040,-3689,-29303
90168,-0.287109,-9.87656,1.3207,-81.2219,3.31787,-129.078,-0.244141,-0.732422,1.2207,0.34317,-0.259827,0.596863,-0.677002,27600,19738,13552,-3689,-29303
90174,-0.16748,-10.1972,1.225,-81.2164,3.32886,-129.078,1.28174,-0.244141,1.46484,0.343201,-0.259796,0.596893,-0.676971,28624,19482,13296,-3689,-29303
90180,-0.392383,-10.0249,1.16758,-81.2054,3.34534,-129.084,2.74658,0.549316,2.86865,0.343262,-0.259735,0.596893,-0.677002,30416,19226,13040,-3689,-29303
90186,-1.08623,-9.9292,1.60781,-81.1835,3.36182,-129.095,4.21143,2.13623,3.35693,0.343323,-0.259583,0.596863,-0.677032,31952,19738,12784,-3689,-29303
90192,-0.665137,-9.47939,1.37813,-81.1615,3.38379,-129.1,4.15039,0.732422,4.08936,0.343536,-0.259125,0.596802,-0.677185,-31536,22042,12016,-3689,-29303
90198,-0.0957031,-9.88613,1.3207,-81.1395,3.41675,-129.095,2.19727,-1.0376,3.11279,0.343658,-0.259003,0.596741,-0.677185,-31024,23066,11760,-3689,-29303
90204,0,-10.3551,1.1915,-81.1285,3.43872,-129.095,3.11279,0.671387,3.90625,0.343781,-0.258911,0.59671,-0.677185,-30768,23834,12272,-3689,-29303
90210,-0.449805,-10.1397,1.13408,-81.1011,3.46069,-129.111,5.61523,3.05176,4.57764,0.343903,-0.258728,0.59671,-0.677216,-30512,24602,12272,-3689,-29303
90216,-1.14365,-9.95312,1.6126,-81.0736,3.48816,-129.128,6.46973,2.86865,5.24902,0.343994,-0.258423,0.596649,-0.677338,-29488,24858,12016,-3689,-29303
90222,-0.856543,-9.43633,1.6748,-81.0406,3.52112,-129.133,6.95801,1.46484,5.61523,0.344299,-0.257751,0.596497,-0.677582,-27440,26394,10736,-3689,-29303
90228,-0.492871,-9.3167,1.44512,-80.9857,3.57056,-129.133,5.61523,0.0610352,4.82178,0.344482,-0.257507,0.596405,-0.677643,-26672,27418,10992,-3689,-29303
90234,-0.516797,-9.90049,1.5791,-80.9637,3.59802,-129.144,4.5166,2.13623,5.49316,0.344666,-0.257294,0.596313,-0.677734,-25904,28698,10480,-3689,-29303
90240,-0.91875,-10.245,1.85664,-80.9253,3.63098,-129.15,7.99561,1.58691,5.7373,0.344818,-0.256989,0.596283,-0.677795,-25392,30490,11504,-3689,-29303
90246,-0.674707,-9.78564,1.65566,-80.8978,3.65845,-129.161,5.7373,2.0752,5.7373,0.345001,-0.256653,0.596161,-0.677917,-24624,32282,13808,-3689,-29303
90252,-0.899609,-9.64688,1.40684,-80.8704,3.69141,-129.177,6.53076,3.11279,5.24902,0.345276,-0.255981,0.596039,-0.678131,-22320,-29414,15856,-3689,-29303
90258,-0.540723,-10.1206,0.890039,-80.8099,3.75183,-129.183,6.34766,0.183105,5.18799,0.345459,-0.255676,0.595978,-0.678223,-20528,-28902,16112,-3689,-29303
90264,-0.435449,-10.3646,1.21543,-80.777,3.7793,-129.188,7.99561,0.854492,5.49316,0.345673,-0.255432,0.595886,-0.678284,-19248,-28646,16112,-3689,-29303
90270,-0.181836,-10.0153,0.966602,-80.733,3.81226,-129.194,9.09424,1.34277,6.22559,0.345886,-0.255127,0.595734,-0.678436,-17968,-28646,15088,-3689,-29303
90276,-0.746484,-10.4986,1.0623,-80.6836,3.85071,-129.21,10.8643,4.27246,7.32422,0.3461,-0.254761,0.595581,-0.678589,-16176,-28902,15344,-3689,-29303
90282,-1.42119,-10.5321,1.32549,-80.6287,3.89465,-129.221,12.3901,2.19727,8.17871,0.346588,-0.253815,0.595245,-0.678986,-11568,-29158,13808,-3689,-29303
90288,-0.244043,-10.6948,1.30156,-80.4913,3.97705,-129.194,14.1602,-2.80762,8.78906,0.346985,-0.253387,0.59494,-0.679199,-9520,-28646,13808,-3689,-29303
90294,0.15791,-11.025,1.16758,-80.4089,4.02649,-129.172,17.6392,-2.99072,10.6812,0.347443,-0.253021,0.594604,-0.679413,-7472,-28134,13296,-3689,-29303
90300,0.196191,-11.0776,1.23936,-80.3101,4.08142,-129.166,20.2637,-0.488281,11.6577,0.347992,-0.252563,0.594177,-0.679657,-6192,-27366,13552,-3689,-29303
90306,-0.851758,-11.3073,1.22979,-80.2002,4.14185,-129.155,23.5596,0.0610352,13.3667,0.348541,-0.251984,0.59375,-0.679962,-4656,-26854,14832,-3689,-29303
90312,-1.00488,-11.3839,1.21543,-80.0684,4.21326,-129.128,27.5879,-3.60107,15.3198,0.349945,-0.25061,0.59259,-0.680786,-2096,-26342,14576,-3689,-29303
90318,-0.172266,-10.7762,0.980957,-79.7498,4.35059,-129.056,34.729,-6.34766,15.7471,0.350769,-0.249908,0.591797,-0.681274,-304,-25574,12528,-3689,-29303
90324,-0.277539,-10.7762,1.79443,-79.574,4.422,-129.018,36.499,-5.7373,16.3574,0.351715,-0.249207,0.590912,-0.681824,1489,-24806,10480,-3689,-29303
90330,-0.373242,-11.3073,1.65566,-79.3927,4.4989,-128.974,37.7808,-6.22559,17.4561,0.352692,-0.248413,0.589966,-0.682434,3281,-24038,8688,-3689,-29303
90336,-0.598145,-10.8192,1.4834,-79.1895,4.57581,-128.941,42.2363,-4.63867,18.0054,0.353729,-0.247589,0.588989,-0.683044,5329,-23526,7152,-3689,-29303
90342,-0.502441,-11.5083,2.70361,-78.9587,4.65271,-128.897,46.9971,-6.16455,17.2119,0.355896,-0.245728,0.586639,-0.684601,10961,-21990,2544,-3689,-29303
90348,0.512012,-8.35967,4.02432,-78.5303,4.86145,-128.837,35.9497,0.183105,27.832,0.357025,-0.244629,0.585236,-0.685608,13265,-21222,-529,-3689,-29303
90354,0.354102,-8.91953,4.10566,-78.4863,5.00427,-128.815,9.0332,1.64795,30.7617,0.358185,-0.243408,0.584503,-0.686066,15313,-19686,-4625,-3689,-29303
90360,0.196191,-10.4029,1.91406,-78.4259,5.15259,-128.82,13.0615,6.65283,30.7007,0.35907,-0.242462,0.584625,-0.685852,17617,-18150,-9233,-3689,-29303
90366,-1.44512,-10.5704,1.78965,-78.3765,5.31738,-128.831,11.5356,8.30078,34.0576,0.359894,-0.241333,0.584656,-0.68576,20177,-16358,-13585,-3689,-29303
90372,-1.16758,-10.7379,2.55527,-78.3545,5.49866,-128.798,4.57764,-0.305176,38.208,0.361877,-0.239075,0.585114,-0.68515,26065,-11494,-24081,-3689,-29303
90378,-0.689063,-9.59902,2.41172,-78.2776,5.87219,-128.782,7.75146,8.11768,38.5742,0.362976,-0.237915,0.585327,-0.684784,29905,-9190,-29201,-3689,-29303
90384,-0.846973,-9.32627,2.08154,-78.2666,6.05896,-128.765,3.479,4.15039,39.6118,0.363922,-0.236603,0.585632,-0.684479,-32047,-6630,32495,-3689,-29303
90390,-0.47373,-10.1254,2.27773,-78.2666,6.25122,-128.754,0.305176,5.12695,40.2222,0.36496,-0.235474,0.585999,-0.68399,-28207,-4326,29423,-3689,-29303
90396,-1.03838,-11.0585,2.29209,-78.2611,6.45447,-128.754,0.976562,8.17871,42.2363,0.365967,-0.234344,0.586487,-0.683441,-24367,-2022,26351,-3689,-29303
90402,-1.28721,-10.2307,1.73701,-78.2446,6.6687,-128.743,4.27246,6.16455,44.1284,0.368042,-0.23172,0.587433,-0.682373,-16943,2075,20719,-3689,-29303
90408,-1.16758,-9.38848,1.65088,-78.1787,7.10266,-128.71,6.46973,5.18799,45.4102,0.369263,-0.230377,0.587769,-0.681885,-12335,4123,17903,-3689,-29303
90414,-1.15322,-9.51289,1.65566,-78.1622,7.31689,-128.694,3.66211,5.31006,44.9219,0.370453,-0.229004,0.588135,-0.681396,-7215,5659,13807,-3689,-29303
90420,-1.37813,-10.4412,1.7083,-78.1512,7.53662,-128.677,2.56348,5.43213,45.7764,0.371613,-0.227692,0.588562,-0.680847,-1071,7707,10223,-3689,-29303
90426,-1.5791,-11.159,1.81357,-78.1238,7.76184,-128.65,5.5542,4.5166,47.8516,0.372772,-0.226379,0.58902,-0.680237,4306,10267,6127,-3689,-29303
90432,-1.75615,-10.2354,1.64609,-78.0853,7.99805,-128.622,8.36182,4.08936,49.9268,0.375397,-0.223511,0.589722,-0.679108,15826,15643,239,-3689,-29303
90438,-1.78965,-9.90527,1.78008,-77.9865,8.49243,-128.557,9.21631,2.68555,52.124,0.376831,-0.221954,0.590027,-0.678589,21714,17947,-2066,-3689,-29303
90444,-1.40205,-9.83828,1.79443,-77.937,8.73962,-128.513,9.8877,1.70898,52.124,0.378326,-0.220459,0.590302,-0.678009,28370,20251,-5138,-3689,-29303
90450,-1.52168,-10.1732,1.92363,-77.8876,8.98682,-128.485,10.376,3.90625,52.063,0.379822,-0.218964,0.590546,-0.677429,-30254,22555,-9234,-3689,-29303
90456,-1.84229,-10.4891,1.88057,-77.8271,9.2395,-128.447,11.7188,3.66211,53.5278,0.381287,-0.217407,0.59082,-0.67688,-23598,24859,-13586,-3689,-29303
90462,-1.72266,-10.0201,2.14854,-77.7557,9.49768,-128.408,15.3198,2.44141,55.3589,0.384369,-0.214172,0.591217,-0.675842,-9774,29211,-21010,-3689,-29303
90468,-1.62695,-9.46982,2.0959,-77.6019,10.0195,-128.32,15.686,3.05176,55.6641,0.385986,-0.212494,0.591339,-0.675323,-2350,31003,-24082,-3689,-29303
90474,-1.62217,-9.1875,2.00498,-77.525,10.2832,-128.282,14.2212,3.35693,55.2368,0.387604,-0.210754,0.591461,-0.674835,4819,-32229,-27410,-3689,-29303
90480,-1.73701,-9.50811,2.17725,-77.4591,10.5414,-128.238,13.0615,3.11279,55.2368,0.38916,-0.209076,0.591614,-0.674316,11987,-29413,-31250,-3689,-29303
90486,-1.81357,-9.88135,2.29688,-77.3932,10.8051,-128.205,12.9395,4.08936,55.3589,0.390747,-0.207428,0.591797,-0.673767,19667,-26853,30190,-3689,-29303
90492,-2.00498,-9.71865,2.53135,-77.3218,11.0687,-128.167,14.5874,4.21143,57.1899,0.39386,-0.203979,0.592194,-0.672668,-31021,-21733,22510,-3689,-29303
90498,-1.86621,-9.14443,2.32559,-77.168,11.6125,-128.09,14.7095,4.69971,56.6406,0.395447,-0.202179,0.592346,-0.672119,-22829,-18917,18158,-3689,-29303
90504,-1.79922,-8.77119,2.36865,-77.0966,11.8707,-128.062,13.7329,5.49316,55.4199,0.397034,-0.200409,0.592499,-0.6716,-14893,-15845,13038,-3689,-29303
90510,-1.94756,-8.93389,2.26816,-77.0361,12.1344,-128.029,11.6577,5.79834,54.8706,0.398529,-0.198669,0.592651,-0.671082,-6701,-12517,6894,-3689,-29303
90516,-2.12939,-9.50811,2.21553,-76.9812,12.3926,-128.002,10.6201,6.16455,54.9316,0.399994,-0.19696,0.592896,-0.670502,2004,-9445,1262,-3689,-29303
90522,-1.97148,-10.6565,1.91406,-76.9208,12.6617,-127.969,12.6953,5.18799,59.4482,0.402954,-0.193512,0.593414,-0.669281,17364,-3045,-10259,-3689,-29303
90528,-1.85186,-10.7905,1.88535,-76.7725,13.233,-127.886,14.8926,5.18799,61.8286,0.404572,-0.191681,0.593628,-0.66861,24276,284,-15123,-3681,-29304
90534,-1.70352,-10.7953,1.98584,-76.6901,13.5352,-127.842,16.3574,4.88281,63.4155,0.40625,-0.189758,0.593811,-0.667999,30932,3100,-19475,-3681,-29304
90540,-1.54082,-10.5608,2.11025,-76.5967,13.8373,-127.793,17.395,4.88281,64.8804,0.40802,-0.187775,0.593964,-0.667358,-27692,6172,-22547,-3681,-29304
90546,-1.79443,-10.5321,2.21074,-76.5033,14.1559,-127.749,17.5781,6.46973,67.2607,0.40979,-0.18576,0.594055,-0.666718,-9772,10268,-25875,-3681,-29304
90552,-2.42129,-10.8719,2.08154,-76.3055,14.8206,-127.656,18.0664,6.34766,71.7163,0.413483,-0.181396,0.594391,-0.665375,-556,12572,-28435,-3681,-29304
90558,-2.18682,-10.7044,2.07676,-76.2012,15.1666,-127.59,19.7754,4.5166,73.4253,0.415436,-0.179138,0.594543,-0.664642,9429,15132,32749,-3681,-29304
90564,-1.85664,-10.2642,2.11982,-76.0913,15.5127,-127.529,19.8975,5.12695,74.8291,0.41748,-0.17688,0.594635,-0.663879,19413,17692,27629,-3681,-29304
90570,-1.89014,-10.1876,2.01934,-75.9869,15.8698,-127.469,19.2871,5.98145,75.4395,0.419525,-0.174561,0.594727,-0.663116,29653,20252,22509,-3681,-29304
90576,-2.12939,-10.5273,2.12939,-75.8826,16.2268,-127.408,18.2495,6.65283,77.0264,0.42157,-0.172211,0.594849,-0.662323,-16171,23580,13805,-3681,-29304
90582,-2.39736,-11.6423,2.68447,-75.6793,16.9904,-127.266,17.7002,4.76074,83.313,0.425781,-0.167389,0.595245,-0.660522,-6955,24860,11245,-3681,-29304
90588,-2.0959,-11.6662,2.84717,-75.5695,17.3914,-127.183,18.8599,5.00488,86.3647,0.42804,-0.164917,0.595428,-0.659515,2518,26140,7405,-3681,-29304
90594,-1.88535,-11.403,2.64619,-75.4486,17.7979,-127.101,20.6299,5.98145,88.4399,0.430389,-0.162323,0.595581,-0.658478,12502,27676,2797,-3681,-29304
90600,-1.67002,-10.9724,2.58398,-75.3278,18.2153,-127.029,21.6675,8.30078,89.5386,0.43277,-0.159637,0.595734,-0.65744,22742,29468,-2324,-3681,-29304
90606,-2.25381,-11.3695,2.55049,-75.2124,18.6493,-126.953,20.1416,8.23975,92.8955,0.437531,-0.153992,0.5961,-0.655304,-22058,32028,-14356,-3681,-29304
90612,-2.45,-12.3983,2.77061,-74.9817,19.5776,-126.782,17.9443,9.0332,101.929,0.440063,-0.151062,0.596344,-0.654053,-11306,-31716,-21524,-3681,-29304
90618,-2.59834,-12.8146,2.62705,-74.8608,20.072,-126.683,20.0195,8.8501,106.506,0.442688,-0.14801,0.596649,-0.652679,-810,-30180,-28436,-3681,-29304
90624,-2.52656,-12.5275,2.43086,-74.7235,20.5774,-126.584,22.522,9.70459,109.497,0.445435,-0.144806,0.596924,-0.651276,10199,-28132,28908,-3681,-29304
90630,-2.63184,-12.4797,2.29688,-74.5642,21.1047,-126.414,24.5972,9.52148,113.159,0.448273,-0.141479,0.597168,-0.649872,21463,-26340,20972,-3681,-29304
90636,-2.68926,-12.0682,2.04805,-74.3994,21.6431,-126.238,25.3296,10.0098,117.126,0.454926,-0.13504,0.59729,-0.646454,-18217,-23524,3564,-3681,-29304
90642,-4.13438,-12.5467,1.54082,-74.0918,22.8021,-125.865,20.813,9.70459,127.991,0.458435,-0.131683,0.597412,-0.644562,-4393,-22244,-5141,-3681,-29304
90648,-3.85684,-12.7094,1.63652,-73.9325,23.4174,-125.634,19.6533,4.57764,134.399,0.462036,-0.128204,0.597656,-0.642456,8920,-20964,-13845,-3681,-29304
90654,-3.35439,-12.3936,1.51689,-73.7732,24.0436,-125.392,18.8599,4.57764,138,0.465942,-0.124756,0.597839,-0.640167,22488,-19940,-22293,-3681,-29304
90660,-3.30654,-12.4079,1.38291,-73.6029,24.6808,-125.145,19.7144,3.479,140.869,0.469879,-0.121216,0.598083,-0.637726,-28712,-18916,-30741,-3681,-29304
90666,-3.18691,-12.5754,1.46426,-73.4271,25.3235,-124.898,20.9961,4.3335,141.724,0.477905,-0.113953,0.598419,-0.632782,2777,-17636,19179,-3681,-29304
90672,-3.65107,-14.9105,2.39736,-72.9712,26.6364,-124.365,33.2642,0.976562,148.01,0.481964,-0.110168,0.59845,-0.630341,19673,-17124,10731,-3681,-29304
90678,-3.8042,-14.4703,2.64141,-72.6801,27.312,-124.074,39.7339,0.976562,151.062,0.486237,-0.106171,0.598206,-0.627991,-28455,-17124,2283,-3681,-29304
90684,-3.56016,-13.1975,2.30645,-72.3779,27.9987,-123.783,40.6494,1.46484,153.687,0.49057,-0.101959,0.597748,-0.625732,-11559,-17124,-5654,-3681,-29304
90690,-3.17256,-12.5706,2.41172,-72.0703,28.6963,-123.492,40.7104,3.72314,156.372,0.494904,-0.0976562,0.597321,-0.623413,5850,-17892,-14870,-3681,-29304
90696,-3.44053,-11.5227,1.72266,-71.7737,29.4104,-123.217,40.1611,8.17871,157.898,0.503448,-0.0886536,0.596588,-0.618591,-23590,-19940,30698,-3681,-29304
90702,-4.51719,-10.1445,1.45469,-71.2134,30.8276,-122.607,30.0293,2.44141,160.583,0.507721,-0.0841675,0.596283,-0.615997,-4902,-21476,20714,-3681,-29304
90708,-5.30674,-10.068,1.56475,-70.9717,31.5417,-122.283,22.522,2.0752,161.56,0.512054,-0.079895,0.5961,-0.613159,13787,-23780,10986,-3681,-29304
90714,-5.24453,-10.0967,1.44033,-70.7245,32.2449,-121.91,18.2495,-5.37109,161.438,0.516357,-0.0757751,0.596069,-0.610077,31451,-25828,746,-3681,-29304
90720,-4.51719,-9.47461,1.39248,-70.4718,32.9315,-121.525,17.2119,-7.50732,160.278,0.520813,-0.0719299,0.595978,-0.606842,-16421,-28388,-9751,-3681,-29304
90726,-5.01963,-8.58936,1.28242,-70.2246,33.6017,-121.146,15.7471,-6.89697,157.166,0.52951,-0.0645447,0.595764,-0.600342,20700,31516,-31767,-3681,-29304
90732,-5.21582,-7.23037,0.976172,-69.7137,34.8816,-120.306,11.0474,-16.4185,151.245,0.533875,-0.0611572,0.595551,-0.597046,-24868,27932,23529,-3681,-29304
90738,-5.26846,-6.45518,0.846973,-69.4501,35.4913,-119.861,9.76562,-18.8599,148.376,0.538177,-0.0580139,0.595306,-0.593719,-4388,24348,13033,-3681,-29304
90744,-4.93828,-5.23496,0.440234,-69.1754,36.0681,-119.394,8.8501,-23.8647,143.738,0.542419,-0.0550232,0.595032,-0.590424,15069,20252,3305,-3681,-29304
90750,-3.77549,-2.96201,-0.153125,-68.8788,36.59,-118.916,10.376,-29.6631,134.338,0.546661,-0.0522766,0.594604,-0.587158,-30499,16156,-6168,-3681,-29304
90756,-1.67959,2.01934,-1.03838,-68.5986,37.0239,-118.433,8.11768,-34.8511,117.798,0.554565,-0.0480957,0.593292,-0.58139,9694,7452,-25112,-3681,-29304
90762,-1.9332,3.71807,-1.18672,-68.2416,37.5238,-117.636,-10.3149,-39.0625,63.4155,0.557739,-0.0470276,0.592712,-0.579041,28894,2588,29928,-3673,-29305
90768,-1.40684,1.28242,-1.03359,-68.2141,37.5018,-117.285,-28.6255,-49.6216,24.1089,0.560181,-0.0471497,0.592255,-0.577148,-17442,-2789,19688,-3673,-29305
90774,0.842188,-2.64619,-1.02402,-68.2361,37.3041,-116.949,-35.4614,-61.1572,-8.11768,0.56189,-0.0490112,0.591919,-0.575684,-34,-7653,9704,-3673,-29305
90780,2.67969,-4.89043,-0.717773,-68.2581,36.98,-116.658,-31.0669,-64.5142,-33.0811,0.563019,-0.0521545,0.591431,-0.574799,16095,-12005,488,-3673,-29305
90786,2.21553,-6.19199,0.0765625,-68.2745,36.568,-116.417,-23.3154,-64.0259,-51.6357,0.563629,-0.059967,0.589691,-0.575226,-22049,-20709,-11033,-3673,-29305
90792,2.51699,-6.39297,0.110059,-68.2416,35.5518,-116.021,-9.33838,-67.3218,-76.5381,0.563354,-0.0641479,0.58844,-0.576324,-11041,-24549,-14617,-3673,-29305
90798,3.68457,-6.1585,0.129199,-68.2086,34.9805,-115.851,-4.3335,-67.4438,-82.4585,0.562836,-0.068573,0.586945,-0.57785,-2593,-27877,-17177,-3673,-29305
90804,3.94297,-5.06748,-0.00957031,-68.1812,34.3927,-115.714,-2.44141,-63.5376,-86.5479,0.562134,-0.0730591,0.585266,-0.579651,4320,-30437,-21785,-3673,-29305
90810,3.66543,-4.20615,-0.224902,-68.1702,33.7885,-115.598,-2.0752,-62.0728,-90.5151,0.561188,-0.0775452,0.583649,-0.581635,9440,-32229,-25881,-3673,-29305
90816,3.81855,-3.14863,0.210547,-68.1812,33.1732,-115.505,-4.02832,-59.9976,-93.0786,0.558777,-0.0866394,0.580444,-0.585846,12768,31259,31975,-3673,-29305
90822,3.62715,-3.13906,0.210547,-68.3405,31.9373,-115.395,-18.2495,-53.4058,-95.7642,0.557312,-0.0913086,0.579132,-0.58786,11488,30747,29415,-3673,-29305
90828,3.79463,-3.47881,0.191406,-68.4998,31.3165,-115.373,-25.1465,-49.6216,-96.0693,0.555634,-0.0961609,0.578033,-0.589722,8160,29979,27623,-3673,-29305
90834,3.73721,-3.74199,0.162695,-68.692,30.6958,-115.378,-30.7617,-45.105,-97.29,0.553802,-0.101105,0.57724,-0.591431,3296,29723,26343,-3673,-29305
90840,3.87119,-3.74678,0.16748,-68.9282,30.0751,-115.411,-35.3394,-40.9546,-98.5718,0.551727,-0.106079,0.57663,-0.593048,-2849,30235,24551,-3673,-29305
90846,3.70371,-3.99082,0.244043,-69.1974,29.4489,-115.477,-44.0063,-31.0059,-105.652,0.546936,-0.11618,0.57605,-0.596161,-18209,31259,21735,-3673,-29305
90852,3.71807,-4.31621,0.258398,-69.8346,28.1415,-115.708,-47.0581,-27.4658,-110.657,0.544098,-0.121338,0.57605,-0.597717,-27681,32027,19687,-3673,-29305
90858,3.5458,-4.63682,0.263184,-70.1917,27.4548,-115.867,-49.1943,-22.8882,-117.065,0.540985,-0.126617,0.576172,-0.599335,27359,-32741,18407,-3673,-29305
90864,3.12949,-4.83779,0.162695,-70.5652,26.7407,-116.054,-50.415,-19.8975,-123.779,0.537537,-0.131958,0.576385,-0.601074,16351,-31973,18151,-3673,-29305
90870,2.68447,-5.10098,0.0334961,-70.9497,25.9827,-116.257,-51.6357,-18.4326,-132.202,0.533813,-0.137421,0.57666,-0.602936,4831,-30437,19175,-3673,-29305
90876,2.15811,-5.85225,-0.253613,-71.3397,25.1917,-116.472,-52.5513,-17.9443,-147.766,0.525452,-0.148926,0.577118,-0.607086,-18210,-26853,24039,-3673,-29305
90882,1.66523,-6.21592,-0.301465,-72.1252,23.4998,-116.911,-53.5278,-19.4702,-154.846,0.520905,-0.154938,0.57724,-0.609375,-31010,-24293,28135,-3673,-29305
90888,1.34941,-6.51738,-0.411523,-72.5208,22.6154,-117.114,-55.2368,-21.9116,-159.241,0.516174,-0.161194,0.577301,-0.611725,20446,-21733,-32025,-3673,-29305
90894,1.08623,-6.88584,-0.459375,-72.9108,21.709,-117.301,-57.373,-24.6582,-162.415,0.511353,-0.167603,0.577271,-0.614075,4830,-18917,-26137,-3665,-29306
90900,0.756055,-7.15381,-0.44502,-73.3063,20.7971,-117.46,-59.5703,-28.6865,-164.001,0.5065,-0.174225,0.577179,-0.616333,-11299,-16357,-19225,-3665,-29306
90906,0.459375,-7.89551,-0.244043,-73.7073,19.8743,-117.592,-66.1621,-36.5601,-164.673,0.496826,-0.187927,0.576813,-0.620483,20189,-10981,-4633,-3665,-29306
90912,0.411523,-8.20176,-0.00957031,-74.5148,18.0286,-117.762,-69.2749,-40.2832,-164.001,0.492096,-0.195007,0.576599,-0.622284,1245,-8421,3816,-3665,-29306
90918,0.16748,-8.61328,0.162695,-74.9268,17.1057,-117.801,-72.998,-44.0063,-163.574,0.487427,-0.202209,0.576324,-0.623901,-18980,-6373,13544,-3665,-29306
90924,-0.062207,-9.27842,0.325391,-75.3442,16.1829,-117.812,-75.6836,-48.5229,-163.208,0.482849,-0.209564,0.576019,-0.625336,26076,-4325,23272,-3665,-29306
90930,-0.287109,-9.94355,0.497656,-75.7562,15.2655,-117.79,-76.0498,-52.4292,-162.964,0.478333,-0.217041,0.575653,-0.626556,5084,-2789,-32280,-3665,-29306
90936,-0.890039,-11.1207,0.942676,-76.1517,14.3481,-117.74,-73.4863,-61.2793,-162.17,0.469666,-0.232147,0.574585,-0.628693,28635,28,-12056,-3665,-29306
90942,-1.14844,-11.604,1.20107,-76.8933,12.5189,-117.548,-71.4722,-65.2466,-161.316,0.465515,-0.239746,0.573792,-0.629639,7387,1308,-1816,-3665,-29306
90948,-1.28721,-11.8624,1.52168,-77.2394,11.6235,-117.416,-69.1528,-68.9697,-159.119,0.461517,-0.247345,0.572815,-0.630524,-14630,2076,10473,-3665,-29306
90954,-1.3877,-11.9677,1.78486,-77.5745,10.7446,-117.263,-67.688,-70.8008,-156.616,0.457703,-0.254883,0.571716,-0.631317,28634,3612,21737,-3665,-29306
90960,-1.56475,-11.9964,2.03848,-77.9095,9.8822,-117.092,-67.8101,-71.5332,-152.893,0.45401,-0.262329,0.570496,-0.63205,-18983,5660,-20759,-3665,-29306
90966,-1.55996,-11.738,2.32559,-78.5907,8.21777,-116.735,-71.167,-71.4722,-148.743,0.44693,-0.276886,0.568085,-0.633057,23513,5916,-8215,-3665,-29306
90972,-1.36377,-11.6471,2.50742,-78.9532,7.39929,-116.554,-74.646,-70.1904,-148.071,0.44342,-0.284058,0.566925,-0.633392,-808,5660,4842,-3665,-29306
90978,-1.08623,-11.7476,2.69883,-79.3433,6.5918,-116.384,-78.6743,-67.1387,-147.949,0.43988,-0.291199,0.565857,-0.633575,-25384,4380,19690,-3665,-29306
90984,-0.942676,-12.1256,2.84717,-79.7498,5.78979,-116.224,-82.4585,-63.2935,-148.132,0.436188,-0.298279,0.564911,-0.633667,16344,2588,-29974,-3665,-29306
90990,-0.75127,-12.7237,3.01943,-80.1672,4.99329,-116.087,-85.2051,-58.4106,-148.376,0.432343,-0.305298,0.564117,-0.633667,32727,-2021,2283,-3665,-29306
90996,-1.11016,-14.1162,3.18213,-81.0297,3.44421,-115.867,-86.9751,-47.6074,-145.63,0.424194,-0.318878,0.562897,-0.633575,8151,-5349,19179,-3665,-29306
91002,-1.37334,-14.8771,3.26348,-81.4526,2.70813,-115.785,-85.7544,-42.2363,-142.212,0.419952,-0.325317,0.562408,-0.633545,-15658,-8933,-30741,-3665,-29306
91008,-1.78008,-15.3221,3.24434,-81.8646,1.99951,-115.719,-82.3364,-37.2925,-137.573,0.41571,-0.331482,0.562012,-0.633484,26326,-13029,-13845,-3665,-29306
91014,-2.01455,-15.3986,3.23955,-82.2546,1.32935,-115.659,-79.0405,-33.2642,-131.348,0.411499,-0.33728,0.561676,-0.633484,2518,-17893,4076,-3673,-29305
91020,-2.18203,-15.2024,3.25391,-82.6282,0.692139,-115.62,-76.0498,-28.9917,-125.549,0.40744,-0.342743,0.561371,-0.633484,21205,-28133,-26900,-3673,-29305
91026,-2.44521,-14.3938,3.44531,-83.3478,-0.466919,-115.571,-73.4863,-20.9961,-113.403,0.399628,-0.35257,0.560944,-0.633423,-2604,31515,-10772,-3673,-29305
91032,-2.52178,-14.0684,3.60801,-83.7048,-0.994263,-115.565,-73.6694,-16.8457,-107.849,0.395844,-0.356995,0.560883,-0.633362,-25132,25883,5101,-3673,-29305
91038,-2.60791,-13.7669,3.85684,-84.0674,-1.49963,-115.576,-74.7681,-12.5122,-103.455,0.39212,-0.361176,0.561005,-0.633209,17876,19739,20461,-3673,-29305
91044,-2.67012,-13.5851,4.08174,-84.4354,-1.97754,-115.604,-76.4771,-8.17871,-99.1211,0.388397,-0.365082,0.561249,-0.633026,-4141,13083,-30483,-3673,-29305
91050,-2.6749,-13.6568,4.3832,-84.798,-2.43347,-115.653,-77.2095,-3.11279,-95.5811,0.384674,-0.368774,0.561676,-0.632782,18387,-2022,494,-3673,-29305
91056,-2.89023,-13.8817,4.93828,-85.5121,-3.29041,-115.818,-75.5005,7.08008,-89.5996,0.377167,-0.375427,0.562927,-0.632294,-2606,-10214,17390,-3673,-29305
91062,-3.05293,-14.1832,5.24453,-85.8417,-3.6969,-115.933,-73.1201,12.207,-88.3789,0.373352,-0.378357,0.56369,-0.632141,-22318,-18150,-32018,-3673,-29305
91068,-3.02422,-14.3028,5.48379,-86.1548,-4.09241,-116.071,-69.397,17.4561,-86.9141,0.369537,-0.381042,0.564453,-0.63208,23506,-26086,-17170,-3673,-29305
91074,-3.13428,-14.5899,5.58906,-86.4294,-4.47693,-116.235,-64.0869,22.8271,-84.7168,0.365692,-0.383453,0.565216,-0.632172,4050,30490,-3602,-3673,-29305
91080,-3.16777,-14.6521,5.60342,-86.6711,-4.85046,-116.428,-57.312,28.8696,-82.8247,0.361847,-0.385559,0.565948,-0.632446,30673,12314,21743,-3673,-29305
91086,-3.69414,-14.0444,5.33066,-87.0227,-5.56458,-116.889,-42.6636,39.0625,-80.6274,0.354279,-0.388733,0.567139,-0.633728,12241,3354,-30737,-3673,-29305
91092,-3.86162,-13.274,5.05312,-87.1381,-5.92163,-117.158,-36.0718,44.2505,-81.665,0.350555,-0.389862,0.567535,-0.634735,-6192,-4839,-17937,-3673,-29305
91098,-4.03867,-12.5706,4.76123,-87.226,-6.28418,-117.444,-31.5552,48.4009,-83.5571,0.346771,-0.390778,0.567841,-0.635986,-23600,-13031,-6929,-3673,-29305
91104,-4.21572,-11.7619,4.48848,-87.2974,-6.65771,-117.751,-28.6865,52.3071,-85.9985,0.342957,-0.39151,0.568024,-0.637451,25040,-21223,3312,-3673,-29305
91110,-4.35449,-11.2308,4.2875,-87.3523,-7.04224,-118.076,-27.4658,54.9927,-88.501,0.338989,-0.39212,0.568146,-0.639069,-8497,27417,18672,-3681,-29304
91116,-4.37363,-11.3552,3.96689,-87.4622,-7.82227,-118.773,-27.5269,61.0352,-91.4307,0.33075,-0.393188,0.568298,-0.642578,-25393,19225,24816,-3681,-29304
91122,-4.35928,-11.6471,3.8377,-87.5006,-8.20679,-119.147,-26.4282,64.7583,-91.0034,0.326477,-0.393585,0.56842,-0.644409,22991,11545,30448,-3681,-29304
91128,-4.48369,-11.7763,3.77549,-87.5171,-8.58032,-119.542,-24.1699,68.1152,-88.623,0.322144,-0.39386,0.568542,-0.646332,6351,4377,-29968,-3681,-29304
91134,-4.39277,-11.6375,3.64629,-87.5226,-8.93188,-119.949,-21.9116,71.3501,-85.5713,0.317841,-0.39389,0.568695,-0.648285,-10290,-2792,-25104,-3681,-29304
91140,-4.39756,-11.4748,3.62715,-87.5171,-9.26147,-120.377,-20.1416,74.9512,-81.0547,0.313599,-0.393738,0.568878,-0.650299,22222,-17128,-15888,-3681,-29304
91146,-4.45977,-11.0968,3.5123,-87.4567,-9.82178,-121.278,-16.7236,81.8481,-69.7021,0.305359,-0.392548,0.569458,-0.654419,5838,-24808,-12816,-3681,-29304
91152,-4.52197,-10.8049,3.39746,-87.4072,-10.0525,-121.756,-15.686,85.4492,-63.7207,0.301361,-0.391541,0.569885,-0.656464,-11059,-31976,-10000,-3681,-29304
91158,-4.7373,-10.3886,3.49316,-87.3578,-10.2502,-122.25,-15.4419,87.7075,-57.5562,0.297516,-0.390259,0.570435,-0.658539,-26931,24856,-7184,-3681,-29304
91164,-4.72295,-10.0488,3.53145,-87.3029,-10.415,-122.745,-15.7471,88.9893,-51.0254,0.293762,-0.388733,0.571106,-0.660522,23501,16408,-3856,-3681,-29304
91170,-4.87129,-9.86221,3.65107,-87.2534,-10.5469,-123.245,-16.2354,90.332,-45.4102,0.286713,-0.38504,0.572815,-0.664276,-6452,280,-784,-3681,-29304
91176,-5.27803,-10.4747,3.56494,-87.1381,-10.7172,-124.239,-14.7705,89.1113,-33.1421,0.283417,-0.382935,0.573853,-0.666046,-21044,-7401,-1552,-3681,-29304
91182,-5.30674,-10.8384,3.4501,-87.0557,-10.7501,-124.722,-10.376,87.4023,-26.7334,0.280365,-0.380676,0.574921,-0.667725,30412,-14057,-4368,-3681,-29304
91188,-5.30674,-10.7762,3.29219,-86.9513,-10.7556,-125.195,-4.76074,85.5713,-21.1182,0.277618,-0.378235,0.575928,-0.669373,16588,-20457,-8464,-3681,-29304
91194,-5.33545,-10.4651,3.13428,-86.8195,-10.7336,-125.656,0.305176,83.313,-16.2354,0.275177,-0.37561,0.576843,-0.671051,3532,-26857,-12304,-3681,-29304
91200,-5.30195,-10.044,2.87109,-86.6711,-10.6897,-126.107,4.57764,81.4209,-11.9019,0.271118,-0.370026,0.578369,-0.6745,-20277,27415,-21776,-3681,-29304
91206,-5.52686,-8.86689,2.18682,-86.3525,-10.5579,-126.964,8.8501,75.7446,-7.50732,0.269409,-0.367096,0.579041,-0.676178,-31029,22039,-26640,-3681,-29304
91212,-5.5125,-8.25918,1.96191,-86.1987,-10.4865,-127.359,8.23975,71.7773,-7.26318,0.267822,-0.364227,0.579681,-0.677826,24779,17431,-30992,-3681,-29304
91218,-5.50771,-7.79502,1.64131,-86.0614,-10.415,-127.738,6.10352,67.8101,-7.69043,0.266357,-0.36145,0.580261,-0.679382,15563,13079,29168,-3681,-29304
91224,-5.55557,-7.67061,1.40684,-85.946,-10.3491,-128.095,2.74658,63.2935,-8.78906,0.264954,-0.358826,0.580872,-0.680817,6859,9239,23792,-3681,-29304
91230,-5.49814,-7.79502,1.17715,-85.8472,-10.2832,-128.425,0.549316,58.0444,-9.8877,0.262268,-0.354156,0.582153,-0.683228,-9014,2327,12016,-3681,-29304
91236,-4.95742,-8.49365,0.980957,-85.6824,-10.1678,-129.007,-1.34277,47.7905,-10.2539,0.261047,-0.352112,0.582764,-0.684235,-16950,-746,4080,-3681,-29304
91242,-4.79951,-8.92432,0.851758,-85.611,-10.0964,-129.26,-1.34277,43.6401,-8.11768,0.259949,-0.350189,0.583344,-0.68512,-24118,-3562,-3089,-3681,-29304
91248,-4.74209,-9.13008,0.775195,-85.545,-10.014,-129.485,-1.15967,38.4521,-4.76074,0.259033,-0.348358,0.583923,-0.685913,-30774,-5354,-10513,-3681,-29304
91254,-4.62725,-9.24014,0.617285,-85.4901,-9.90967,-129.688,-1.70898,33.4473,-0.854492,0.258331,-0.346558,0.584473,-0.686584,29130,-7402,-17169,-3681,-29304
91260,-5.01006,-14.1928,3.19648,-85.4407,-9.76135,-129.842,-1.0376,25.8789,8.60596,0.257935,-0.343109,0.585693,-0.687439,18634,-12266,-25361,-3681,-29304
91266,-3.83291,-9.85742,1.84229,-85.1605,-9.40979,-130.106,21.6675,20.9351,15.9912,0.258423,-0.341187,0.585907,-0.688049,14538,-16106,-29201,-3681,-29304
91272,-3.45488,-8.52715,1.70352,-84.9847,-9.23401,-130.232,25.5127,20.0806,15.7471,0.259125,-0.339172,0.585938,-0.688751,11210,-19178,32239,-3681,-29304
91278,-3.27783,-8.65156,2.04326,-84.8035,-9.05823,-130.347,27.5879,19.104,15.1978,0.259888,-0.337158,0.585815,-0.689575,8394,-21738,27375,-3681,-29304
91284,-2.83281,-9.13965,2.97158,-84.6112,-8.88794,-130.463,30.0293,18.9819,14.7705,0.260681,-0.335144,0.585602,-0.690399,6602,-23786,21743,-3681,-29304
91290,-1.3542,-9.46025,3.73721,-84.408,-8.71765,-130.583,31.6772,20.2026,14.0381,0.262299,-0.331116,0.584961,-0.692322,3786,-26090,13039,-3681,-29304
91296,0.382812,-6.83799,2.71318,-83.9301,-8.41003,-130.869,41.8091,28.3203,9.09424,0.263092,-0.329041,0.584503,-0.693359,2250,-26346,8687,-3681,-29304
91302,0.301465,-5.15361,1.51689,-83.7323,-8.28369,-131.072,28.7476,35.5835,4.5166,0.263611,-0.326813,0.583862,-0.694763,1226,-26346,4335,-3681,-29304
91308,0.947461,-6.92412,2.27295,-83.6005,-8.16833,-131.265,16.1133,32.8979,4.08936,0.263641,-0.324615,0.583588,-0.696014,202,-26346,239,-3681,-29304
91314,1.89014,-8.39316,2.40215,-83.5016,-8.05298,-131.479,8.54492,37.8418,4.02832,0.263489,-0.322662,0.583679,-0.696899,-311,-26346,-5394,-3681,-29304
91320,1.95234,-8.63721,1.33506,-83.4137,-7.94312,-131.715,6.16455,42.4805,3.35693,0.262512,-0.318634,0.584473,-0.698425,1226,-26602,-17938,-3681,-29304
91326,2.16289,-8.93389,1.25371,-83.2819,-7.70691,-132.188,0.366211,44.5557,6.46973,0.261932,-0.31665,0.585052,-0.699097,2250,-26602,-23826,-3681,-29304
91332,1.79443,-9.35977,1.24893,-83.2434,-7.57507,-132.424,-1.89209,43.8232,9.46045,0.261261,-0.314575,0.585724,-0.699707,3018,-25578,-28690,-3681,-29304
91338,10.5369,-22.4807,16.7768,-83.4631,-7.27844,-132.435,-50.5981,2.74658,50.8423,0.260651,-0.3125,0.586517,-0.700226,4042,-25322,-32530,-3681,-29304
91344,6.26855,-6.81406,-7.23994,-83.5126,-6.95984,-132.748,-22.1558,64.3311,48.645,0.261627,-0.311218,0.588776,-0.698517,4810,-25578,29678,-3681,-29304
91350,2.5457,-14.6521,-0.842188,-83.6554,-6.63574,-132.962,-38.0859,43.5791,52.9175,0.261414,-0.305237,0.593231,-0.697479,6602,-25322,24046,-3681,-29304
91356,2.78975,-14.9249,0.488086,-83.7872,-5.80627,-132.94,-3.72314,19.6533,77.4536,0.263824,-0.30365,0.595001,-0.69574,7882,-24298,21742,-3681,-29304
91362,-1.60781,-11.0824,-1.25371,-83.7158,-5.34485,-132.946,12.146,6.46973,86.6699,0.265717,-0.300781,0.596375,-0.695068,10186,-23274,19694,-3681,-29304
91368,0.478516,-11.0872,2.0002,-83.6719,-4.86145,-132.836,8.23975,-16.2964,94.1162,0.268402,-0.297882,0.59726,-0.694519,13514,-20970,17902,-3681,-29304
91374,2.5457,-10.3599,2.08154,-83.6115,-4.35608,-132.759,11.1084,-7.75146,98.2056,0.27182,-0.295532,0.598083,-0.693481,17610,-18666,16366,-3681,-29304
91380,0.191406,-10.9102,1.96191,-83.54,-3.83972,-132.731,11.9019,1.83105,99.7314,0.27832,-0.289764,0.599884,-0.691803,28874,-12266,12782,-3681,-29304
91386,0.105273,-10.1397,1.18672,-83.3862,-2.8125,-132.687,14.2212,7.38525,97.1069,0.281586,-0.286743,0.60083,-0.690948,-30774,-8426,10734,-3681,-29304
91392,-1.32549,-11.0489,0.837402,-83.3203,-2.35657,-132.715,11.4136,11.7188,88.1958,0.284485,-0.283569,0.601715,-0.690277,-24374,-4330,9198,-3681,-29304
91398,-1.95713,-12.1734,0.153125,-83.2269,-1.94458,-132.731,16.8457,9.39941,79.1016,0.286957,-0.280579,0.6026,-0.689697,-16950,791,7406,-3681,-29304
91404,-2.23467,-11.1207,0.330176,-83.1006,-1.57654,-132.77,23.4985,12.207,68.9087,0.289307,-0.277802,0.60321,-0.689301,-9014,5911,6638,-3681,-29304
91410,-1.43555,-9.81436,0.885254,-82.9852,-1.26343,-132.803,15.564,2.38037,53.6499,0.293091,-0.272797,0.60376,-0.68924,9163,17175,4846,-3681,-29304
91416,-0.387598,-10.0632,1.46904,-82.8094,-0.725098,-132.819,18.5547,6.46973,48.4009,0.2948,-0.270905,0.604004,-0.689026,18123,22807,3054,-3681,-29304
91422,-1.16758,-9.84307,2.08633,-82.7051,-0.483398,-132.874,18.9819,13.3057,44.2505,0.296295,-0.269012,0.604156,-0.688995,27083,28439,2798,-3681,-29304
91428,-4.55068,-8.16348,2.11982,-82.6062,-0.318604,-132.973,18.5547,20.3857,27.2217,0.297455,-0.266998,0.60434,-0.689117,-30517,-30953,1774,-3681,-29304
91434,-4.34971,-7.89551,0.368457,-82.6007,-0.247192,-132.973,0.793457,-2.62451,11.2305,0.297974,-0.265228,0.604401,-0.689545,-21813,-24809,750,-3681,-29304
91440,0.684277,-11.3456,1.34463,-82.6117,-0.181274,-132.935,6.40869,7.69043,11.9629,0.29892,-0.264648,0.604706,-0.689087,-5173,-13545,-2579,-3681,-29304
91446,-0.899609,-9.99141,1.05752,-82.5018,-0.0109863,-133.011,13.855,4.94385,14.2822,0.299133,-0.263824,0.604797,-0.689209,2764,-8937,-3859,-3681,-29304
91452,0.234473,-9.50811,1.22979,-82.4579,0.065918,-133.028,8.60596,1.46484,14.2212,0.299591,-0.262909,0.604675,-0.689484,10188,-4329,-5651,-3681,-29304
91458,0.741699,-10.5656,0.813477,-82.4304,0.148315,-133.066,5.31006,5.67627,13.1226,0.300049,-0.262207,0.604645,-0.689575,17612,536,-8467,-3681,-29304
91464,0.162695,-11.2834,0.368457,-82.3755,0.241699,-133.105,10.0098,7.08008,15.7471,0.300323,-0.261444,0.604767,-0.689636,24012,4376,-11283,-3681,-29304
91470,-0.349316,-9.52246,1.50254,-82.2931,0.346069,-133.143,17.5781,7.50732,18.9209,0.301208,-0.25946,0.604645,-0.690094,-30260,12568,-17427,-3681,-29304
91476,-0.373242,-9.21143,1.36377,-82.1283,0.560303,-133.226,14.7095,7.14111,17.7002,0.301727,-0.258362,0.604492,-0.69043,-25396,16408,-19219,-3689,-29303
91482,-0.0191406,-9.29756,1.225,-82.0679,0.653687,-133.264,13.0615,6.16455,15.8081,0.302185,-0.257324,0.604401,-0.690674,-20276,19736,-20755,-3689,-29303
91488,-0.0382813,-9.46504,1.30635,-82.002,0.736084,-133.297,12.2681,5.98145,14.3433,0.302612,-0.256409,0.60434,-0.690918,-15924,23064,-23059,-3689,-29303
91494,-0.421094,-9.34541,1.29678,-81.947,0.818481,-133.336,11.4136,6.22559,13.7939,0.302948,-0.255554,0.604248,-0.691132,-11572,25368,-24851,-3689,-29303
91500,-0.650781,-9.20186,1.67002,-81.8921,0.900879,-133.369,10.1929,4.82178,13.4277,0.30365,-0.253906,0.604156,-0.691528,-2868,28952,-30995,-3689,-29303
91506,-0.521582,-9.14922,1.64609,-81.8042,1.0437,-133.423,7.75146,3.78418,11.9019,0.303986,-0.253113,0.604126,-0.691711,973,30488,31981,-3689,-29303
91512,-0.440234,-9.17314,1.53125,-81.7712,1.10413,-133.451,6.34766,3.72314,10.1318,0.30426,-0.252472,0.604126,-0.691803,4557,31768,28653,-3689,-29303
91518,-0.564648,-9.30234,1.60781,-81.7493,1.15906,-133.473,4.88281,2.0752,9.27734,0.304474,-0.251862,0.604156,-0.691925,8397,-32232,26349,-3689,-29303
91524,-0.512012,-9.39805,1.55996,-81.7328,1.2085,-133.495,3.2959,1.89209,8.23975,0.304688,-0.251373,0.604187,-0.691956,14285,-29672,24045,-3689,-29303
91530,-0.957031,-9.42676,1.65566,-81.6998,1.29639,-133.539,2.99072,1.83105,7.08008,0.304993,-0.250488,0.604309,-0.692047,16589,-27624,23789,-3689,-29303
91536,-0.933105,-9.21621,1.62695,-81.6888,1.33484,-133.55,2.13623,0.732422,6.04248,0.305145,-0.250061,0.60437,-0.692078,18893,-25576,23533,-3689,-29303
91542,-0.741699,-9.16836,1.63174,-81.6833,1.3678,-133.566,0.610352,0.488281,4.45557,0.305267,-0.249725,0.604431,-0.692078,21453,-23784,22765,-3689,-29303
91548,-0.488086,-9.36455,1.51211,-81.6888,1.38977,-133.577,-0.915527,-0.488281,3.479,0.305328,-0.249451,0.604523,-0.692078,24269,-22248,23021,-3689,-29303
91554,-0.416309,-9.58467,1.4499,-81.6943,1.41174,-133.594,-0.976562,0.610352,3.23486,0.305389,-0.249268,0.604645,-0.692047,29645,-19944,23277,-3689,-29303
91560,-1.08145,-9.54639,1.51211,-81.6943,1.46118,-133.632,-0.427246,1.15967,3.11279,0.305389,-0.24881,0.604858,-0.691986,32205,-19432,23277,-3689,-29303
91566,-0.827832,-9.55117,1.49297,-81.6998,1.47766,-133.643,-0.854492,-0.610352,2.80762,0.305389,-0.248566,0.60498,-0.691986,-30771,-19176,22509,-3689,-29303
91572,-0.177051,-9.68516,1.3542,-81.7053,1.49963,-133.654,-1.77002,-0.732422,2.31934,0.30542,-0.248383,0.605072,-0.691956,-28211,-18920,21229,-3689,-29303
91578,0.0478516,-10.044,1.15322,-81.7163,1.51611,-133.676,-2.2583,0.793457,2.56348,0.30542,-0.24823,0.605194,-0.691895,-25907,-18920,20461,-3689,-29303
91584,-0.311035,-10.202,0.995313,-81.7218,1.53809,-133.698,-0.671387,2.0752,3.2959,0.305389,-0.248047,0.605347,-0.691833,-22835,-16616,16365,-3681,-29304
91590,-0.756055,-9.36934,1.21064,-81.7108,1.59302,-133.748,1.09863,2.31934,3.41797,0.305389,-0.247498,0.60556,-0.691864,-20787,-15336,15085,-3681,-29304
91596,-0.789551,-9.5416,1.58389,-81.7053,1.61499,-133.77,0.488281,2.01416,3.05176,0.305359,-0.247192,0.605652,-0.691895,-18995,-13800,15085,-3681,-29304
91602,-0.717773,-9.4459,1.3542,-81.7108,1.63147,-133.786,-0.488281,0.305176,2.31934,0.305359,-0.246918,0.605743,-0.691925,-16691,-12776,16621,-3681,-29304
91608,-0.100488,-9.41719,1.39248,-81.7163,1.64795,-133.797,-1.34277,-0.488281,2.0752,0.305359,-0.246735,0.605835,-0.691925,-14387,-12008,19181,-3681,-29304
91614,-0.15791,-9.5751,1.62695,-81.7218,1.66443,-133.819,-1.34277,1.89209,1.77002,0.305359,-0.246613,0.605927,-0.691864,-10803,-10472,22509,-3681,-29304
91620,-1.09102,-9.38848,1.78486,-81.7383,1.70288,-133.863,-2.13623,0.671387,2.50244,0.305176,-0.246155,0.606201,-0.691864,-8755,-10216,21997,-3681,-29304
91626,-0.880469,-9.26885,1.76094,-81.7548,1.71387,-133.879,-3.05176,0,1.2207,0.305176,-0.245972,0.606354,-0.691803,-6451,-9704,21229,-3681,-29304
91632,-0.521582,-9.42197,1.59824,-81.7822,1.71936,-133.89,-5.67627,-0.305176,0.183105,0.305115,-0.24588,0.606506,-0.691742,-4147,-9448,21229,-3681,-29304
91638,-0.387598,-9.84307,1.41162,-81.8097,1.71936,-133.912,-6.40869,0.366211,-0.549316,0.304993,-0.245819,0.606689,-0.69162,-1587,-8936,19949,-3681,-29304
91644,-0.15791,-10.2067,1.225,-81.8427,1.73035,-133.923,-6.46973,0.183105,0.305176,0.30484,-0.245789,0.606934,-0.691498,2510,-7912,19949,-3681,-29304
91650,-1.19629,-9.79043,1.16758,-81.8701,1.74133,-133.967,-2.13623,0.549316,0.366211,0.304565,-0.245636,0.60733,-0.691315,4046,-7144,20973,-3681,-29304
91656,-0.952246,-9.47461,1.2585,-81.8866,1.74683,-133.978,-3.17383,-0.610352,-0.610352,0.304504,-0.245514,0.607452,-0.691284,5326,-6376,21741,-3681,-29304
91662,-0.478516,-9.61816,1.22021,-81.9031,1.74133,-133.989,-3.84521,-1.0376,-1.83105,0.304413,-0.245483,0.607574,-0.691223,6350,-5864,23277,-3681,-29304
91668,0.0143555,-9.7665,1.22979,-81.9196,1.73584,-134,-4.02832,-1.28174,-2.13623,0.30426,-0.245483,0.607697,-0.691162,7374,-6120,24813,-3681,-29304
91674,-0.0143555,-9.87178,1.22021,-81.9415,1.73035,-134.017,-3.54004,0.549316,-1.83105,0.304138,-0.245544,0.607819,-0.691101,8654,-5864,26861,-3681,-29304
91680,-0.77998,-9.82393,1.28242,-81.969,1.73035,-134.061,-2.68555,0.732422,-0.732422,0.303772,-0.245453,0.608124,-0.691071,9422,-5864,28141,-3681,-29304
91686,-0.564648,-9.7665,1.23936,-81.9855,1.73584,-134.077,-2.86865,0.366211,-0.732422,0.30365,-0.245361,0.608246,-0.69104,9934,-5608,28909,-3681,-29304
91692,-0.30625,-9.8957,1.02881,-82.002,1.73035,-134.094,-3.11279,0.305176,-1.28174,0.303528,-0.2453,0.608368,-0.69101,10702,-5352,30189,-3681,-29304
91698,-0.0143555,-10.0728,0.937891,-82.0129,1.73035,-134.11,-2.74658,0,-0.793457,0.303375,-0.24527,0.60849,-0.690948,10958,-4584,30957,-3681,-29304
91704,-0.0191406,-10.1062,1.05752,-82.0239,1.73584,-134.127,-1.77002,0.793457,-0.549316,0.303253,-0.245209,0.608612,-0.690918,10958,-2792,31981,-3681,-29304
91710,-1.0623,-9.74258,1.2585,-82.0294,1.75232,-134.176,-0.12207,1.89209,0.671387,0.303009,-0.244965,0.608826,-0.690948,11982,-2280,32493,-3681,-29304
91716,-1.11016,-9.64688,1.55996,-82.0294,1.76331,-134.193,-0.12207,0.183105,1.28174,0.302917,-0.244781,0.608887,-0.690979,13006,-1512,32237,-3681,-29304
91722,-0.746484,-9.4459,1.47383,-82.0404,1.76331,-134.209,-1.83105,0,-0.183105,0.302887,-0.244659,0.608978,-0.690979,14542,-1256,32749,-3681,-29304
91728,-0.253613,-9.75693,1.39248,-82.0569,1.7688,-134.214,-3.35693,-0.915527,-0.488281,0.302795,-0.244568,0.60907,-0.690948,16078,-1000,-32531,-3681,-29304
91734,0.0191406,-9.94834,1.27285,-82.0734,1.77429,-134.231,-3.23486,0.488281,0.0610352,0.302704,-0.244568,0.609192,-0.690887,17870,281,-31763,-3681,-29304
91740,-0.923535,-9.74736,1.33984,-82.0953,1.78528,-134.28,-1.64795,1.40381,0.732422,0.30246,-0.244354,0.609467,-0.690826,19406,537,-30227,-3681,-29304
91746,-0.92832,-9.53682,1.41641,-82.1063,1.79077,-134.291,-1.83105,0.366211,0.305176,0.302338,-0.244202,0.609589,-0.690826,20686,537,-28179,-3681,-29304
91752,-0.483301,-9.50811,1.3207,-82.1173,1.79077,-134.308,-2.99072,-0.0610352,-0.732422,0.302277,-0.24411,0.609711,-0.690796,22478,793,-25875,-3681,-29304
91758,-0.0287109,-9.7665,1.11973,-82.1393,1.79626,-134.319,-3.66211,-0.488281,-0.610352,0.302155,-0.24408,0.609833,-0.690735,24014,25,-22803,-3681,-29304
91764,0.153125,-9.97705,1.02881,-82.1558,1.79626,-134.335,-3.05176,0.244141,-0.427246,0.301941,-0.244019,0.610107,-0.690643,26318,-488,-19987,-3681,-29304
91770,-0.90918,-9.87178,1.225,-82.1722,1.80725,-134.385,-1.28174,2.01416,0.12207,0.301788,-0.243866,0.610229,-0.690613,27598,-744,-20243,-3681,-29304
91776,-1.13408,-9.48897,1.27285,-82.1777,1.81274,-134.401,-1.0376,0.732422,0.0610352,0.301666,-0.243744,0.610352,-0.690613,29134,-232,-20499,-3681,-29304
91782,-0.727344,-9.46982,1.26807,-82.1887,1.81274,-134.412,-2.13623,-1.0376,-0.732422,0.301575,-0.243622,0.610413,-0.690643,30158,793,-20243,-3681,-29304
91788,-0.0478516,-9.78564,1.11494,-82.2052,1.80725,-134.418,-2.92969,-1.2207,-1.58691,0.301483,-0.243622,0.610504,-0.690582,31694,1305,-18963,-3681,-29304
91794,0.062207,-10.0488,1.01924,-82.2217,1.80176,-134.434,-2.74658,-0.366211,-1.2207,0.301239,-0.243622,0.610718,-0.690521,-32306,1049,-13331,-3681,-29304
91800,-0.890039,-10.0488,1.46904,-82.2327,1.80725,-134.467,0,1.15967,-0.305176,0.301117,-0.243561,0.610809,-0.690521,-31282,537,-11539,-3681,-29304
91806,-1.21543,-9.56074,1.44512,-82.2272,1.80725,-134.484,0.732422,0,-0.488281,0.301025,-0.243439,0.61087,-0.690552,-31026,537,-10003,-3681,-29304
91812,-0.76084,-9.57031,1.47383,-82.2272,1.80725,-134.489,-0.12207,-1.64795,-0.732422,0.300934,-0.243347,0.61087,-0.690582,-30770,793,-9491,-3681,-29304
91818,-0.196191,-9.88135,1.17236,-82.2382,1.80725,-134.5,-1.2207,-0.671387,-1.0376,0.300903,-0.243317,0.610901,-0.690613,-29490,793,-9491,-3681,-29304
91824,0.196191,-10.1876,1.08145,-82.2437,1.80725,-134.511,-0.854492,-0.549316,-0.0610352,0.300751,-0.243225,0.611023,-0.690613,-28210,-488,-8723,-3681,-29304
91830,-0.77998,-10.2785,0.976172,-82.2382,1.83472,-134.55,1.34277,1.64795,3.05176,0.30069,-0.243073,0.611084,-0.690613,-27698,-1256,-7955,-3681,-29304
91836,-0.77998,-9.86699,1.12451,-82.2272,1.86218,-134.561,2.56348,0,4.02832,0.30069,-0.242828,0.611145,-0.690643,-27442,-1768,-6931,-3681,-29304
91842,-0.46416,-9.2832,1.01924,-82.2217,1.88416,-134.577,1.70898,0.793457,3.84521,0.300751,-0.242615,0.611176,-0.690674,-27186,-1768,-6419,-3681,-29304
91848,-0.119629,-10.0775,1.04316,-82.2217,1.90063,-134.583,-0.488281,-0.976562,2.74658,0.300812,-0.242371,0.611206,-0.690704,-26418,-1512,-5907,-3681,-29304
91854,0.105273,-10.6135,0.808691,-82.2107,1.91711,-134.599,2.99072,1.28174,3.35693,0.300873,-0.242004,0.611298,-0.690735,-24370,-488,-3859,-3681,-29304
91860,-0.516797,-9.96748,1.26807,-82.1777,1.97205,-134.626,4.45557,0.732422,5.37109,0.300934,-0.24173,0.611298,-0.690796,-22834,25,-2323,-3681,-29304
91866,-1.31113,-9.71387,1.4499,-82.1558,1.99951,-134.648,4.39453,2.19727,5.06592,0.301025,-0.241425,0.611267,-0.690887,-21810,537,-275,-3681,-29304
91872,-1.1293,-9.57988,1.4499,-82.1448,2.02148,-134.643,3.41797,-2.56348,4.57764,0.301117,-0.241089,0.611267,-0.690948,-21042,1049,1006,-3681,-29304
91878,-0.100488,-9.42197,1.50732,-82.1283,2.03796,-134.643,2.62451,-2.56348,3.11279,0.30127,-0.240936,0.611237,-0.690979,-20530,1817,1006,-3681,-29304
91884,-0.531152,-9.86699,1.28242,-82.1283,2.05444,-134.659,1.09863,0.671387,2.80762,0.301422,-0.240601,0.611267,-0.69101,-18738,2585,494,-3681,-29304
91890,-0.851758,-9.50332,1.3542,-82.1118,2.0929,-134.681,2.13623,0.366211,3.2959,0.301453,-0.240448,0.611298,-0.69104,-17714,3353,1006,-3681,-29304
91896,-1.37334,-9.40762,1.57432,-82.1118,2.10938,-134.698,1.28174,0.427246,2.44141,0.301483,-0.240234,0.611328,-0.691071,-16946,3865,1006,-3681,-29304
91902,-1.18193,-9.33105,1.33984,-82.1063,2.12036,-134.698,0.915527,-1.77002,1.70898,0.301514,-0.240051,0.611359,-0.691101,-15410,4377,1262,-3681,-29304
91908,-0.507227,-9.46982,1.53125,-82.1063,2.12585,-134.698,0.244141,-2.2583,0.610352,0.301544,-0.23996,0.611359,-0.691101,-13874,4377,1774,-3681,-29304
91914,-0.421094,-9.80479,1.22979,-82.1063,2.13135,-134.709,0,-0.793457,0.732422,0.301544,-0.239838,0.61142,-0.691101,-12338,4633,2542,-3681,-29304
91920,-0.899609,-9.7043,1.45469,-82.0953,2.15332,-134.731,1.52588,0.244141,1.46484,0.301544,-0.239716,0.61142,-0.691132,-11058,4633,2542,-3681,-29304
91926,-1.2585,-9.43633,1.50732,-82.0898,2.16431,-134.742,1.58691,-0.793457,1.40381,0.301544,-0.239563,0.61145,-0.691162,-9778,4889,3054,-3681,-29304
91932,-0.913965,-9.39326,1.41641,-82.0844,2.1698,-134.747,1.09863,-0.915527,0.732422,0.301544,-0.239441,0.61145,-0.691193,-8754,5145,3310,-3681,-29304
91938,-0.46416,-9.69473,1.26328,-82.0844,2.17529,-134.753,0.183105,-1.70898,0.183105,0.301575,-0.239319,0.61145,-0.691223,-7218,5145,3822,-3681,-29304
91944,-0.0861328,-10.0297,1.22979,-82.0789,2.18079,-134.758,1.0376,-1.34277,0.366211,0.301544,-0.239227,0.61145,-0.691254,-4914,5145,4334,-3681,-29304
91950,-0.502441,-10.0249,1.17236,-82.0624,2.19727,-134.786,1.89209,0.732422,1.52588,0.301544,-0.239075,0.611481,-0.691315,-3890,5657,4334,-3681,-29304
91956,-0.952246,-9.78564,1.31592,-82.0514,2.21924,-134.802,2.99072,0.671387,2.86865,0.301514,-0.238892,0.611481,-0.691376,-2866,6425,4334,-3681,-29304
91962,-1.03838,-9.59902,1.35898,-82.0404,2.23572,-134.808,2.2583,-0.549316,2.56348,0.301575,-0.238678,0.611481,-0.691437,-1586,7193,5102,-3681,-29304
91968,-0.397168,-9.64209,1.32549,-82.0294,2.2467,-134.813,1.95312,-1.40381,1.77002,0.301636,-0.238495,0.61145,-0.691467,-818,8217,5870,-3681,-29304
91974,-0.143555,-9.90049,1.05752,-82.0239,2.25769,-134.824,1.70898,1.28174,2.31934,0.301697,-0.238251,0.61145,-0.691528,719,9753,6894,-3681,-29304
91980,-0.717773,-9.93877,1.2585,-82.0074,2.29065,-134.852,2.2583,0.915527,3.2959,0.301666,-0.238037,0.611481,-0.691589,1743,9753,7662,-3681,-29304
91986,-1.02402,-9.64209,1.34941,-81.9965,2.31262,-134.868,2.2583,0.610352,3.41797,0.301697,-0.237823,0.611511,-0.69162,3279,9241,9198,-3681,-29304
91992,-1.07187,-9.56553,1.45469,-81.991,2.32361,-134.879,1.77002,0.183105,2.38037,0.301758,-0.23761,0.611511,-0.691681,4047,8729,10990,-3681,-29304
91998,-0.655566,-9.5751,1.27285,-81.9855,2.33459,-134.885,1.34277,-0.976562,1.52588,0.301788,-0.237427,0.611542,-0.691711,4303,8217,12526,-3681,-29304
92004,-0.124414,-9.8957,1.05752,-81.98,2.34558,-134.896,1.34277,0.305176,1.15967,0.301788,-0.237213,0.611572,-0.691742,5583,8217,12270,-3681,-29304
92010,-0.516797,-9.9292,1.20586,-81.969,2.36755,-134.923,2.13623,0.732422,1.70898,0.301788,-0.237061,0.611572,-0.691803,6351,8473,9198,-3681,-29304
92016,-0.961816,-9.63252,1.3877,-81.958,2.37854,-134.94,2.50244,1.0376,1.77002,0.301758,-0.236908,0.611572,-0.691864,7375,8473,7662,-3681,-29304
92022,-1.05273,-9.46504,1.47383,-81.947,2.38953,-134.951,2.31934,0.305176,1.28174,0.301758,-0.236725,0.611572,-0.691925,8655,7961,6382,-3681,-29304
92028,-0.535937,-9.40762,1.38291,-81.9415,2.38953,-134.956,1.52588,-0.915527,0.183105,0.301758,-0.236572,0.611572,-0.691986,9423,7961,6126,-3681,-29304
92034,0.100488,-10.0345,1.15322,-81.936,2.38953,-134.967,1.0376,0.427246,0,0.301697,-0.23642,0.611572,-0.692078,11727,7961,9710,-3681,-29304
92040,-0.373242,-10.0297,1.33506,-81.925,2.40051,-135.005,2.44141,2.19727,0.854492,0.301605,-0.236328,0.611572,-0.692108,12751,8473,12014,-3681,-29304
92046,-0.985742,-9.71387,1.43555,-81.9141,2.4115,-135.022,2.2583,1.83105,1.40381,0.301544,-0.236145,0.611572,-0.6922,13519,8217,14574,-3681,-29304
92052,-1.1915,-9.50332,1.50254,-81.9086,2.42249,-135.038,1.77002,0.427246,1.2207,0.301514,-0.235931,0.611603,-0.692291,14031,8217,17134,-3681,-29304
92058,-0.492871,-9.98184,1.50254,-81.9031,2.42798,-135.044,1.46484,-0.671387,1.15967,0.301483,-0.235779,0.611603,-0.692352,14543,8217,19182,-3681,-29304
92064,-0.105273,-10.1015,1.15801,-81.8921,2.43347,-135.055,2.68555,0.427246,1.77002,0.301483,-0.235565,0.611572,-0.692444,16847,8985,21486,-3681,-29304
92070,-0.406738,-10.0297,1.29199,-81.8646,2.46094,-135.088,3.54004,1.58691,2.38037,0.301483,-0.235413,0.611572,-0.692505,18127,8985,22766,-3681,-29304
92076,-0.990527,-9.71387,1.37334,-81.8481,2.47742,-135.104,4.02832,1.52588,3.17383,0.301483,-0.235199,0.611542,-0.692596,19151,9241,24046,-3681,-29304
92082,-1.16758,-9.71865,1.60303,-81.8317,2.4939,-135.115,3.479,0.732422,2.62451,0.301514,-0.234924,0.611511,-0.692719,19407,9241,24302,-3681,-29304
92088,-1.1915,-9.55117,1.61738,-81.8152,2.51038,-135.126,3.23486,0,3.11279,0.301544,-0.234711,0.611481,-0.69278,19151,8985,23790,-3681,-29304
92094,-0.0430664,-9.8,1.29199,-81.7932,2.54333,-135.143,2.38037,-0.0610352,2.38037,0.301697,-0.234375,0.61142,-0.692902,19663,7449,23790,-3681,-29304
92100,-0.29668,-9.94355,1.37334,-81.7822,2.55981,-135.154,2.62451,0.732422,3.11279,0.301727,-0.234192,0.61142,-0.692932,20175,6937,23790,-3681,-29304
92106,-1.01445,-9.95791,1.43555,-81.7712,2.58179,-135.17,2.31934,1.34277,3.96729,0.301758,-0.234009,0.61142,-0.692993,21199,6681,23534,-3681,-29304
92112,-1.47383,-9.49854,1.41162,-81.7548,2.60376,-135.181,3.90625,0.854492,3.66211,0.301819,-0.233734,0.61145,-0.693024,22479,7193,22766,-3681,-29304
92118,-1.1293,-9.31191,1.71309,-81.7438,2.62024,-135.181,2.56348,-1.64795,2.62451,0.30188,-0.23349,0.61142,-0.693115,24015,9241,21998,-3681,-29304
92124,0.0478516,-9.90527,0.976172,-81.7328,2.64221,-135.192,1.09863,-1.34277,1.89209,0.302032,-0.233246,0.611389,-0.693146,24527,11289,20718,-3681,-29304
92130,-0.258398,-10.0919,1.11494,-81.7273,2.65869,-135.203,2.13623,0.610352,2.68555,0.302063,-0.233154,0.611389,-0.693146,25039,12569,20206,-3681,-29304
92136,-0.995313,-9.84785,1.24893,-81.7163,2.67517,-135.214,2.44141,0.671387,3.23486,0.302094,-0.232971,0.61142,-0.693207,25551,13849,18926,-3681,-29304
92142,-1.14365,-9.51289,1.1915,-81.7053,2.69165,-135.22,2.2583,-0.549316,2.44141,0.302155,-0.232758,0.61142,-0.693237,26831,14617,17902,-3681,-29304
92148,-1.04795,-9.61338,1.54082,-81.6943,2.70264,-135.231,2.50244,-0.732422,1.77002,0.302216,-0.232605,0.611389,-0.693268,28623,15641,19438,-3681,-29304
92154,-0.0669922,-9.79043,1.25371,-81.6833,2.71912,-135.236,1.0376,-0.427246,0.976562,0.302307,-0.232391,0.611359,-0.693329,29647,16665,20462,-3681,-29304
92160,-0.239258,-10.178,1.29199,-81.6779,2.7301,-135.247,1.58691,0.427246,1.89209,0.302307,-0.2323,0.611359,-0.693359,31183,16921,20974,-3681,-29304
92166,-0.732129,-10.0967,1.11973,-81.6669,2.74658,-135.258,2.56348,0,2.31934,0.302307,-0.232147,0.611389,-0.69342,32207,17433,20718,-3681,-29304
92172,-1.01445,-9.91006,1.41162,-81.6504,2.76306,-135.269,3.66211,1.0376,3.2959,0.302338,-0.231995,0.611359,-0.693451,-32049,17689,19694,-3681,-29304
92178,-0.823047,-9.59902,1.46904,-81.6339,2.77954,-135.275,3.35693,-0.915527,3.11279,0.302399,-0.23175,0.611359,-0.693542,-30257,18201,18926,-3681,-29304
92184,-0.172266,-9.78564,1.42119,-81.6064,2.8125,-135.286,3.11279,-0.854492,3.05176,0.302551,-0.231415,0.611267,-0.693634,-28721,18201,19182,-3681,-29304
92190,-0.14834,-9.78564,1.64131,-81.59,2.83447,-135.297,3.2959,0.488281,3.66211,0.302612,-0.231262,0.611237,-0.693695,-27185,18201,19694,-3681,-29304
92196,-0.435449,-10.0967,1.55996,-81.579,2.85645,-135.319,3.35693,2.2583,4.27246,0.302704,-0.231049,0.611206,-0.693756,-25393,17945,19438,-3681,-29304
92202,-1.33027,-9.75215,1.55518,-81.5515,2.88391,-135.335,5.12695,1.64795,4.57764,0.302734,-0.230743,0.611206,-0.693848,-24113,17945,17902,-3681,-29304
92208,-0.952246,-9.50332,1.63174,-81.535,2.90588,-135.341,4.3335,-0.244141,3.96729,0.302826,-0.230438,0.611176,-0.693939,-22065,15897,17390,-3681,-29304
92214,0,-9.81914,1.23936,-81.5131,2.93335,-135.352,0.854492,-0.854492,2.2583,0.30304,-0.230042,0.611053,-0.694061,-21553,15129,17390,-3681,-29304
92220,-0.0239258,-10.3407,0.995313,-81.5076,2.94983,-135.363,2.13623,0.915527,3.35693,0.30307,-0.229919,0.611084,-0.694092,-21041,14617,17646,-3681,-29304
92226,-0.521582,-10.0584,0.957031,-81.4856,2.9718,-135.379,4.69971,1.77002,3.35693,0.303101,-0.229736,0.611084,-0.694122,-20529,15385,17646,-3681,-29304
92232,-1.14844,-9.67559,1.33506,-81.4526,2.99377,-135.401,6.5918,2.50244,3.78418,0.303131,-0.229462,0.611053,-0.694244,-20273,16665,17902,-3681,-29304
92238,-0.995313,-9.1875,1.40205,-81.4307,3.01025,-135.406,4.63867,-0.305176,3.35693,0.303192,-0.229126,0.610962,-0.694397,-18737,19737,18670,-3681,-29304
92244,-0.234473,-9.66123,1.26328,-81.4087,3.03772,-135.423,2.38037,-0.12207,2.38037,0.303345,-0.228729,0.61084,-0.69455,-17713,21017,19182,-3681,-29304
92250,-0.277539,-9.98662,1.39727,-81.3922,3.05969,-135.445,3.479,1.95312,3.479,0.303375,-0.228577,0.61084,-0.694611,-16433,22041,20462,-3681,-29304
92256,-0.823047,-9.83828,1.20586,-81.3757,3.07617,-135.461,3.66211,1.70898,3.11279,0.303406,-0.228333,0.610809,-0.694702,-15409,23065,21486,-3681,-29304
92262,-1.52168,-9.60381,1.67959,-81.3538,3.09814,-135.478,5.12695,1.77002,3.84521,0.303436,-0.228088,0.610809,-0.694763,-14385,23065,23022,-3681,-29304
92268,-1.24893,-9.70908,1.804,-81.3318,3.12012,-135.489,4.21143,0.976562,4.27246,0.303497,-0.227814,0.610748,-0.694885,-12849,24089,23534,-3681,-29304
92274,-0.679492,-9.55117,1.50254,-81.2988,3.15857,-135.505,3.35693,0.183105,2.86865,0.30368,-0.227356,0.610657,-0.695038,-11569,24089,24046,-3681,-29304
92280,-0.344531,-9.91484,1.56475,-81.2878,3.18054,-135.516,3.11279,0.366211,3.60107,0.303741,-0.227142,0.610626,-0.695099,-10545,24089,24814,-3681,-29304
92286,-0.583789,-10.3551,1.27764,-81.2659,3.20801,-135.533,4.02832,2.13623,4.76074,0.303802,-0.226929,0.610596,-0.69516,-9265,23321,26094,-3681,-29304
92292,-1.30156,-10.3551,1.30635,-81.2384,3.23547,-135.549,5.98145,2.80762,5.18799,0.303864,-0.226624,0.610596,-0.695251,-7729,23065,26350,-3681,-29304
92298,-1.7083,-10.001,1.47383,-81.2054,3.27393,-135.566,7.26318,1.64795,6.46973,0.303955,-0.226257,0.610535,-0.695374,-6193,23065,27118,-3681,-29304
92304,-0.0334961,-9.73779,1.27285,-81.1395,3.32886,-135.582,6.95801,0.244141,5.00488,0.304321,-0.225525,0.610321,-0.695648,-5937,23065,27630,-3681,-29304
92310,0.119629,-10.1062,1.15322,-81.1066,3.36182,-135.593,7.20215,1.15967,5.5542,0.304474,-0.22522,0.610199,-0.69577,-5937,23065,28910,-3681,-29304
92316,-0.727344,-9.47939,0.727344,-81.0681,3.40027,-135.615,8.66699,3.72314,6.95801,0.304626,-0.224884,0.610107,-0.695923,-5169,22553,30190,-3681,-29304
92322,-1.29678,-10.6613,1.6748,-81.0242,3.44421,-135.637,9.39941,3.35693,7.99561,0.304749,-0.224426,0.609985,-0.696106,-3889,22553,30446,-3681,-29304
92328,-0.933105,-9.55596,0.995313,-80.9637,3.48816,-135.643,12.207,0,8.05664,0.304932,-0.223938,0.609863,-0.696289,-305,23833,31470,-3681,-29304
92334,-0.717773,-9.86221,1.6748,-80.8649,3.57056,-135.654,10.1929,0.793457,8.17871,0.305542,-0.223083,0.609436,-0.696655,720,25625,31982,-3681,-29304
92340,-0.0717773,-10.379,1.21064,-80.8264,3.6145,-135.654,8.8501,-1.09863,8.36182,0.305817,-0.222626,0.609253,-0.696838,2000,26649,32494,-3681,-29304
92346,0.00478516,-5.546,0.172266,-80.777,3.65845,-135.654,10.6201,0.0610352,8.48389,0.306122,-0.22229,0.6091,-0.69696,2256,27673,-31762,-3681,-29304
92352,-0.277539,-11.0441,0.440234,-80.7056,3.70239,-135.648,15.1367,-1.46484,9.58252,0.306427,-0.221863,0.608917,-0.697144,3280,28185,-30994,-3681,-29304
92358,-0.373242,-10.891,0.674707,-80.6232,3.75732,-135.648,17.2729,-0.366211,10.5591,0.306824,-0.221405,0.608582,-0.697388,6608,29209,-30226,-3681,-29304
92364,-0.564648,-11.3121,0.76084,-80.4254,3.86719,-135.626,23.8647,-4.27246,12.4512,0.307709,-0.220306,0.607788,-0.698029,9424,29721,-30226,-3681,-29304
92370,-0.105273,-10.9006,0.722559,-80.2991,3.92761,-135.604,26.7944,-3.96729,13.3667,0.30835,-0.219757,0.607208,-0.698425,12240,30489,-30738,-3681,-29304
92376,-0.062207,-11.7332,1.3542,-80.1508,3.99902,-135.582,30.3955,-4.57764,15.1978,0.309052,-0.219147,0.606537,-0.698914,14800,31513,-31506,-3681,-29304
92382,-0.387598,-11.4939,0.722559,-79.9915,4.06494,-135.555,33.4473,-4.08936,15.3809,0.309814,-0.218445,0.605743,-0.699463,17104,-32231,32238,-3681,-29304
92388,-0.980957,-11.9198,1.51689,-79.8047,4.14734,-135.533,39.0625,-4.08936,17.395,0.310638,-0.217712,0.604889,-0.700073,21968,-30183,27886,-3681,-29304
92394,0.229688,-10.5417,2.11982,-79.3542,4.30664,-135.439,48.645,-8.91113,17.395,0.312653,-0.215942,0.602722,-0.701599,24784,-28903,24558,-3681,-29304
92400,1.17715,-10.8192,3.13906,-79.1071,4.38354,-135.406,51.0864,-5.43213,17.5171,0.313782,-0.215088,0.601349,-0.702515,27344,-27623,21486,-3681,-29304
92406,0.799121,-9.28799,3.59844,-78.9313,4.50439,-135.401,36.7432,2.74658,25.3296,0.314819,-0.214111,0.599945,-0.703552,29904,-26343,17390,-3681,-29304
92412,-0.114844,-10.3359,3.68457,-78.8928,4.6582,-135.39,9.52148,1.46484,32.5928,0.315765,-0.212891,0.599152,-0.704193,32720,-24807,13038,-3681,-29304
92418,0.0191406,-11.1255,2.10068,-78.8159,4.8175,-135.379,15.8691,2.99072,34.0576,0.316711,-0.211853,0.599213,-0.70401,-27696,-22247,3566,-3681,-29304
92424,-0.617285,-10.2307,2.72275,-78.7225,5.19653,-135.341,6.7749,-1.52588,40.8936,0.318756,-0.20932,0.599182,-0.703857,-24880,-21223,-1555,-3681,-29304
92430,0.617285,-10.3599,2.86152,-78.6896,5.39978,-135.319,7.32422,1.09863,42.5415,0.320007,-0.208221,0.599365,-0.703461,-22064,-19687,-5907,-3681,-29304
92436,-0.177051,-11.3073,2.56963,-78.6786,5.61401,-135.33,3.23486,9.70459,44.6167,0.321228,-0.207001,0.599579,-0.703094,-18224,-17639,-9747,-3681,-29304
92442,-1.06709,-11.427,2.15332,-78.6621,5.85022,-135.324,4.39453,6.22559,48.4619,0.322235,-0.205536,0.600037,-0.702667,-14640,-16103,-13331,-3681,-29304
92448,-0.794336,-11.1207,2.37822,-78.6346,6.09192,-135.308,5.37109,4.57764,50.8423,0.323486,-0.204041,0.600464,-0.702179,-5936,-12775,-21267,-3681,-29304
92454,-1.22021,-10.0105,2.03369,-78.5907,6.5918,-135.291,4.45557,6.16455,52.4902,0.326141,-0.200897,0.601227,-0.701202,-1840,-10983,-26131,-3681,-29304
92460,-0.995313,-9.75215,2.00498,-78.5742,6.84448,-135.269,3.41797,4.3335,53.894,0.327515,-0.19928,0.601654,-0.700653,2769,-9447,-29715,-3681,-29304
92466,-0.861328,-10.7092,1.80879,-78.5687,7.10266,-135.253,1.15967,6.28662,53.894,0.328949,-0.197723,0.602081,-0.700043,7633,-7399,31981,-3681,-29304
92472,-1.28721,-11.2116,1.65566,-78.5522,7.37732,-135.242,3.479,6.83594,56.8237,0.330292,-0.196136,0.602631,-0.699402,12753,-5351,28141,-3681,-29304
92478,-1.75615,-11.0585,1.68438,-78.5303,7.65747,-135.22,5.18799,5.43213,59.2041,0.331757,-0.194427,0.603119,-0.698761,23761,-231,20461,-3681,-29304
92484,-1.66045,-9.71387,1.6126,-78.4534,8.23975,-135.159,7.62939,4.08936,61.0962,0.334991,-0.190887,0.603912,-0.69751,29905,3098,17389,-3681,-29304
92490,-1.49775,-9.61816,1.47861,-78.4204,8.52539,-135.121,5.92041,3.11279,60.6689,0.33667,-0.189087,0.604279,-0.696869,-29487,6426,15853,-3681,-29304
92496,-1.30156,-10.0488,1.52168,-78.3875,8.81653,-135.082,5.92041,2.74658,60.9741,0.338348,-0.187347,0.604675,-0.696198,-22831,9498,14829,-3681,-29304
92502,-1.27285,-10.5704,1.62695,-78.3545,9.10217,-135.044,6.40869,3.35693,61.1572,0.340027,-0.185608,0.605042,-0.695496,-16431,12314,13805,-3681,-29304
92508,-1.60781,-11.1351,2.00498,-78.3051,9.4043,-135.005,10.1929,3.23486,63.3545,0.341705,-0.183868,0.605408,-0.694824,-1839,17434,12269,-3681,-29304
92514,-1.75615,-9.75215,1.97148,-78.1622,10.014,-134.929,14.4043,3.479,64.5752,0.345306,-0.180054,0.605865,-0.693634,5842,19994,10989,-3681,-29304
92520,-1.74658,-9.24971,1.78965,-78.0963,10.3162,-134.885,13.0005,3.11279,64.4531,0.347137,-0.178101,0.606018,-0.693115,13778,23066,8429,-3681,-29304
92526,-1.67959,-9.71865,1.86143,-78.0359,10.6183,-134.841,11.1694,2.99072,64.7583,0.348969,-0.176178,0.606201,-0.692535,22226,26394,5613,-3681,-29304
92532,-1.80879,-10.5273,1.89014,-77.9755,10.9314,-134.802,11.1084,3.54004,65.7959,0.3508,-0.174255,0.606415,-0.691895,30162,30234,2541,-3681,-29304
92538,-1.94756,-11.0106,2.17246,-77.9041,11.25,-134.753,13.916,3.05176,68.2373,0.354553,-0.170258,0.606812,-0.690613,-19758,-27366,-5652,-3681,-29304
92544,-1.85186,-10.0632,2.24424,-77.7228,11.9147,-134.659,17.5781,4.15039,70.8008,0.356537,-0.168121,0.606903,-0.690033,-12078,-24550,-9236,-3681,-29304
92550,-1.69873,-9.56553,2.18682,-77.6349,12.2498,-134.61,16.7847,3.72314,70.9839,0.358551,-0.165924,0.606995,-0.689453,-3374,-21478,-13076,-3681,-29304
92556,-1.56475,-9.64209,2.20117,-77.558,12.5848,-134.566,14.9536,4.82178,71.8384,0.360565,-0.163727,0.607086,-0.688873,6099,-18662,-16404,-3681,-29304
92562,-1.804,-10.1637,2.30645,-77.4811,12.9309,-134.522,13.6719,5.7373,73.3032,0.362549,-0.16153,0.607239,-0.688202,15059,-15846,-19988,-3681,-29304
92568,-1.95713,-10.7331,2.4835,-77.4097,13.288,-134.484,12.9395,6.46973,75.5005,0.366547,-0.156982,0.607697,-0.686737,-32557,-9190,-27668,-3681,-29304
92574,-1.90928,-10.4364,2.50264,-77.2449,14.0295,-134.396,15.9302,7.08008,78.9795,0.368652,-0.154572,0.60788,-0.685974,-23853,-5862,-30996,-3681,-29304
92580,-1.871,-9.91006,2.36387,-77.1625,14.4031,-134.352,15.2588,7.93457,79.4067,0.370758,-0.1521,0.608063,-0.685242,-13869,-2534,30956,-3681,-29304
92586,-1.804,-10.0871,2.17246,-77.0911,14.7821,-134.319,12.7563,9.33838,79.5898,0.372864,-0.149597,0.608276,-0.684448,-3885,795,26604,-3681,-29304
92592,-2.09111,-10.8097,2.19639,-77.0251,15.1721,-134.28,12.085,8.91113,82.5806,0.374908,-0.147125,0.608551,-0.683624,6356,3867,22764,-3681,-29304
92598,-2.40215,-11.7141,2.23945,-76.9592,15.5786,-134.236,12.3901,8.30078,88.623,0.379242,-0.141937,0.609222,-0.681732,26836,8731,13804,-3681,-29304
92604,-1.98584,-11.5514,2.23945,-76.8054,16.4246,-134.127,14.0381,7.69043,91.4917,0.381561,-0.139252,0.609558,-0.680695,-28460,10779,11756,-3681,-29304
92610,-1.76572,-11.2164,2.19639,-76.723,16.864,-134.072,14.7095,8.97217,93.3228,0.383972,-0.136475,0.609833,-0.679657,-17708,12827,9196,-3681,-29304
92616,-2.00498,-11.4604,2.20596,-76.6351,17.3145,-134.011,15.0757,9.52148,95.9473,0.386383,-0.133606,0.610107,-0.678619,-5932,15131,6124,-3681,-29304
92622,-2.20117,-11.7858,2.12461,-76.5472,17.7814,-133.956,15.0757,9.82666,98.8159,0.388855,-0.130676,0.610382,-0.677521,6357,17179,2540,-3681,-29304
92628,-2.74189,-12.0634,2.49307,-76.4484,18.2593,-133.89,18.6157,8.36182,107.483,0.394043,-0.124481,0.610931,-0.675201,29909,23835,-8981,-3681,-29304
92634,-2.44521,-11.5753,2.78496,-76.2231,19.281,-133.726,18.3105,8.42285,110.657,0.396881,-0.121216,0.611115,-0.67395,-24107,27163,-14101,-3681,-29304
92640,-2.20117,-11.293,2.86631,-76.1078,19.8083,-133.638,17.6392,8.72803,113.342,0.399811,-0.117889,0.611298,-0.672638,-12075,30747,-19989,-3681,-29304
92646,-2.2873,-11.7141,2.56006,-76.0089,20.3467,-133.555,15.686,10.5591,115.295,0.402771,-0.114471,0.611511,-0.671265,214,-31973,-25365,-3681,-29304
92652,-2.50264,-12.1878,2.14854,-75.899,20.9015,-133.467,16.9678,9.82666,118.469,0.405701,-0.110992,0.611816,-0.6698,12758,-29413,-31509,-3681,-29304
92658,-3.05771,-12.2548,1.804,-75.7727,21.4728,-133.369,21.4233,10.1318,126.892,0.411926,-0.10376,0.612274,-0.666748,-24106,-24805,21227,-3681,-29304
92664,-3.45488,-11.5322,1.56475,-75.4816,22.6703,-133.066,21.4844,9.82666,131.592,0.415192,-0.0999146,0.612396,-0.665192,-10538,-22757,15083,-3681,-29304
92670,-3.52188,-11.0154,1.39248,-75.3387,23.2965,-132.847,18.0664,7.99561,135.559,0.419098,-0.0963745,0.612396,-0.663269,4055,-20709,8939,-3681,-29304
92676,-3.35439,-10.6948,1.18672,-75.2069,23.9337,-132.621,14.5264,6.95801,137.695,0.423126,-0.092865,0.612488,-0.661133,17879,-18917,4331,-3681,-29304
92682,-3.29219,-11.5801,1.40684,-75.0806,24.5764,-132.38,12.3901,5.31006,140.198,0.427216,-0.089386,0.61264,-0.658844,32727,-17125,-790,-3681,-29304
92688,-3.56016,-13.2979,2.21074,-74.7894,25.8838,-131.907,17.4561,7.56836,144.043,0.435547,-0.0823669,0.612946,-0.653992,-1065,-14309,-10262,-3681,-29304
92694,-3.62715,-13.7382,1.99541,-74.6191,26.5594,-131.655,18.6157,6.22559,147.705,0.439697,-0.0786438,0.613007,-0.651611,14552,-13285,-15638,-3681,-29304
92700,-3.25391,-13.8291,1.42119,-74.4269,27.2461,-131.391,22.3999,5.06592,151.306,0.44397,-0.0748596,0.613007,-0.649139,31960,-12517,-22806,-3681,-29304
92706,-3.01943,-13.0156,1.27285,-74.1907,27.9437,-131.116,29.7852,4.69971,153.687,0.448364,-0.0709229,0.612885,-0.646698,-15912,-12261,-28694,-3681,-29304
92712,-3.16299,-11.872,1.41641,-73.938,28.6414,-130.847,33.0811,5.5542,154.846,0.452789,-0.0668335,0.612518,-0.644379,21721,-10981,24554,-3681,-29304
92718,-3.8377,-11.4987,1.07187,-73.4271,30.0641,-130.27,30.2124,4.3335,160.217,0.461639,-0.0583496,0.611664,-0.639709,-24615,-10981,18410,-3681,-29304
92724,-4.45977,-11.2116,1.17236,-73.1744,30.8057,-129.957,27.2217,2.99072,165.222,0.466156,-0.0540771,0.611267,-0.637207,-6183,-10725,11754,-3681,-29304
92730,-4.52197,-10.8767,1.10059,-72.9163,31.5527,-129.611,24.4751,-1.52588,168.64,0.470825,-0.0497742,0.610901,-0.63446,13274,-10469,3562,-3681,-29304
92736,-4.05781,-10.001,1.40205,-72.6581,32.3053,-129.249,22.0337,-2.38037,170.837,0.475647,-0.0455322,0.610535,-0.631531,-32550,-10725,-4887,-3681,-29304
92742,-4.43105,-9.77607,1.42598,-72.4329,33.0579,-128.892,16.4795,0,170.41,0.480499,-0.0413513,0.610168,-0.628479,8667,-12261,-24343,-3673,-29305
92748,-5.30674,-10.8767,1.61738,-72.0099,34.563,-128.161,7.99561,-2.2583,171.814,0.489929,-0.0331421,0.609924,-0.621887,30171,-13285,31209,-3673,-29305
92754,-5.28281,-10.7044,1.6126,-71.7792,35.3156,-127.749,8.36182,-6.40869,173.401,0.49469,-0.0291748,0.609894,-0.618347,-13093,-14821,21481,-3673,-29305
92760,-4.8665,-9.05352,1.20586,-71.532,36.0626,-127.315,8.54492,-10.1929,173.157,0.499542,-0.0252991,0.609741,-0.614746,7900,-16101,12521,-3673,-29305
92766,-4.98613,-6.8332,1.05273,-71.2793,36.7822,-126.87,7.44629,-11.9629,169.373,0.504456,-0.0214844,0.609497,-0.611115,29660,-18405,4073,-3673,-29305
92772,-5.20625,-4.77559,1.27764,-71.0266,37.4689,-126.409,3.78418,-16.1743,162.415,0.509277,-0.0178833,0.609192,-0.607513,8669,-23781,-11032,-3673,-29305
92778,-3.92383,-1.97148,-0.124414,-70.5872,38.6719,-125.469,-6.46973,-22.7051,142.456,0.518524,-0.0118713,0.608612,-0.600372,30685,-26853,-19480,-3673,-29305
92784,-3.96211,-1.36377,-0.516797,-70.4004,39.1882,-124.997,-11.8408,-26.4282,131.409,0.522827,-0.00952148,0.608398,-0.596924,-13091,-29925,-28184,-3673,-29305
92790,-1.1915,-0.16748,-1.24414,-70.1917,39.6112,-124.47,-15.625,-40.5273,117.126,0.526917,-0.00765991,0.608215,-0.593536,7134,-32229,29928,-3673,-29305
92796,-0.191406,0.588574,-0.545508,-70.0488,39.9463,-124.036,-17.4561,-32.959,95.0317,0.530975,-0.00665283,0.607788,-0.590363,27614,30491,21736,-3673,-29305
92802,-1.68438,1.2585,-0.559863,-69.9774,40.1221,-123.646,-25.6958,-36.499,63.6597,0.53421,-0.00604248,0.607574,-0.587646,2015,23067,5864,-3673,-29305
92808,2.30166,-4.07695,0.00957031,-69.9115,39.9683,-122.893,-31.1279,-55.481,1.34277,0.538727,-0.0085144,0.607269,-0.583801,21215,19483,-2073,-3673,-29305
92814,3.44053,-4.68945,0.287109,-69.8895,39.7046,-122.613,-22.3999,-53.0396,-23.0713,0.5401,-0.011261,0.606842,-0.582916,-27169,15643,-8985,-3673,-29305
92820,3.71328,-4.73252,0.358887,-69.8621,39.3365,-122.388,-14.5264,-52.9785,-45.2271,0.540771,-0.0144348,0.606232,-0.582855,-10785,12315,-14617,-3673,-29305
92826,3.38789,-4.46455,0.741699,-69.8401,38.8806,-122.223,-7.50732,-49.6826,-63.7207,0.540833,-0.0180054,0.605408,-0.583557,3808,9243,-19481,-3673,-29305
92832,2.88545,-4.14395,0.574219,-69.8291,38.3313,-122.102,-4.69971,-50.354,-82.3364,0.540314,-0.0218201,0.604431,-0.58493,27616,3355,-26137,-3673,-29305
92838,4.06738,-3.38311,0.14834,-69.8676,37.0404,-121.976,-4.08936,-46.814,-107.971,0.537903,-0.0307007,0.602203,-0.58905,-29216,795,-28441,-3673,-29305
92844,3.87598,-2.94287,-0.0478516,-69.939,36.3318,-121.976,-6.95801,-44.4946,-116.882,0.536041,-0.035553,0.601105,-0.591553,-23328,-486,-30489,-3673,-29305
92850,3.69414,-2.70361,-0.133984,-70.0543,35.5902,-121.998,-13.0615,-42.6636,-124.268,0.533875,-0.0406494,0.600128,-0.594208,-19488,-1510,-32281,-3673,-29305
92856,3.42617,-2.75625,-0.162695,-70.2246,34.8157,-122.047,-20.813,-40.8936,-129.883,0.531372,-0.046051,0.599304,-0.596863,-16672,-1766,31975,-3673,-29305
92862,3.23477,-3.04814,-0.220117,-70.4498,34.0247,-122.113,-29.6021,-39.978,-133.972,0.528625,-0.0517578,0.598694,-0.599426,-18208,-1766,27623,-3673,-29305
92868,3.04336,-3.77549,-0.47373,-71.0101,32.3987,-122.261,-43.8843,-38.7573,-139.771,0.522552,-0.0639343,0.598083,-0.604156,-22816,-1254,25575,-3673,-29305
92874,2.87588,-4.04824,-0.559863,-71.3342,31.5637,-122.344,-48.7061,-38.6353,-142.822,0.519287,-0.070343,0.598053,-0.606323,-29216,-742,24039,-3673,-29305
92880,2.77061,-4.45977,-0.540723,-71.6693,30.7068,-122.426,-52.1851,-39.7339,-145.996,0.515839,-0.0769348,0.598083,-0.608398,27872,795,24551,-3673,-29305
92886,2.74668,-5.24453,-0.535937,-72.0154,29.8444,-122.509,-53.3447,-39.6118,-148.438,0.512299,-0.0837097,0.598145,-0.610443,19168,2331,25319,-3673,-29305
92892,2.58398,-5.95752,-0.411523,-72.356,28.9655,-122.585,-52.8564,-40.1611,-150.452,0.508606,-0.0905457,0.598236,-0.612457,-2849,5403,28391,-3673,-29305
92898,2.2873,-6.50303,-0.339746,-72.9987,27.1967,-122.728,-49.4385,-41.0156,-152.283,0.501007,-0.104309,0.598145,-0.616608,-16417,7195,30183,-3673,-29305
92904,2.20596,-6.35947,-0.191406,-73.3063,26.3068,-122.783,-49.0723,-42.1143,-152.527,0.497162,-0.111176,0.597992,-0.618713,-31521,9499,31463,-3673,-29305
92910,2.16768,-6.28291,-0.090918,-73.6194,25.4114,-122.838,-50.354,-42.4805,-153.503,0.493256,-0.118042,0.597748,-0.620758,17631,12827,-32537,-3673,-29305
92916,2.00498,-6.3499,-0.110059,-73.9325,24.5105,-122.882,-52.002,-43.0298,-154.419,0.489319,-0.124939,0.597473,-0.622772,479,16411,-29721,-3673,-29305
92922,1.93799,-6.40254,-0.133984,-74.2566,23.6041,-122.921,-54.3213,-44.1895,-156.25,0.481293,-0.139008,0.596954,-0.626556,31198,23579,-22297,-3673,-29305
92928,1.48818,-6.704,-0.110059,-74.9377,21.7584,-122.964,-60.9741,-46.5698,-160.828,0.477173,-0.146179,0.59668,-0.628326,11998,25883,-15385,-3673,-29305
92934,1.1293,-7.21602,-0.0957031,-75.3003,20.8136,-122.97,-65.0024,-48.5229,-164.001,0.472961,-0.153564,0.596436,-0.629974,-7459,28187,-6681,-3673,-29305
92940,0.693848,-7.72324,-0.0191406,-75.6683,19.8578,-122.953,-67.5659,-51.3916,-166.382,0.468689,-0.161102,0.596191,-0.631531,-27683,30747,3048,-3673,-29305
92946,0.368457,-8.3501,0.0861328,-76.0419,18.891,-122.915,-69.8853,-54.5654,-168.64,0.464386,-0.168823,0.595886,-0.632965,17629,-32485,13288,-3673,-29305
92952,0.14834,-8.92432,0.291895,-76.4154,17.9187,-122.855,-71.8994,-57.8613,-170.227,0.455811,-0.184692,0.595093,-0.635529,-22820,-27365,31976,-3673,-29305
92958,0.119629,-10.0153,0.827832,-77.1625,15.9686,-122.662,-74.585,-63.3545,-171.631,0.451569,-0.19281,0.594543,-0.636658,20700,-25317,-24088,-3673,-29305
92964,0.143555,-10.4556,1.20107,-77.536,15.0018,-122.547,-74.9512,-64.3311,-170.349,0.447357,-0.200958,0.593964,-0.637634,-2853,-24037,-13592,-3673,-29305
92970,0.0143555,-10.7762,1.56475,-77.915,14.046,-122.421,-76.2939,-64.5752,-169.25,0.443176,-0.209076,0.593323,-0.63855,-27173,-22757,-2328,-3673,-29305
92976,-0.143555,-11.1159,1.84229,-78.2886,13.1012,-122.283,-77.0264,-64.6362,-167.297,0.439026,-0.217163,0.592651,-0.639313,13275,-21221,9193,-3665,-29306
92982,-0.406738,-11.4365,2.02891,-78.6731,12.1783,-122.141,-78.064,-63.9038,-165.771,0.430817,-0.233063,0.591309,-0.640564,29402,-18917,32745,-3665,-29306
92988,-0.775195,-12.4797,2.50742,-79.4421,10.3766,-121.855,-79.3457,-60.9131,-160.645,0.426758,-0.240845,0.590668,-0.640991,4570,-18661,-20503,-3665,-29306
92994,-1.14844,-12.896,2.60313,-79.8322,9.50867,-121.712,-79.5898,-59.082,-157.41,0.422699,-0.248444,0.590027,-0.641357,-20263,-18661,-7959,-3665,-29306
93000,-1.52646,-13.2214,2.72754,-80.2167,8.66821,-121.564,-79.4678,-57.4341,-154.358,0.418671,-0.255859,0.589447,-0.641632,19929,-19685,6122,-3665,-29306
93006,-1.76572,-13.4702,2.83281,-80.5957,7.84973,-121.421,-78.7354,-55.4199,-151.001,0.414703,-0.263092,0.588867,-0.641815,-5928,-21477,20458,-3665,-29306
93012,-2.01934,-13.7238,2.85195,-80.9747,7.04773,-121.284,-78.2471,-52.9785,-148.499,0.406891,-0.276917,0.587769,-0.641998,8152,-25829,-14870,-3665,-29306
93018,-2.43086,-13.8482,2.97158,-81.7108,5.50415,-121.014,-75.4395,-49.1333,-144.47,0.403046,-0.283569,0.587189,-0.642059,-16681,-28901,-534,-3665,-29306
93024,-2.48828,-13.8387,3.07207,-82.0734,4.74609,-120.888,-74.585,-47.1191,-143.494,0.3992,-0.290039,0.586609,-0.64209,23511,-32229,14827,-3665,-29306
93030,-2.47393,-13.7956,3.20605,-82.4359,4.00452,-120.767,-74.2798,-44.7998,-142.456,0.395355,-0.296356,0.586029,-0.64212,-2090,29979,30187,-3665,-29306
93036,-2.4165,-13.7095,3.33047,-82.7875,3.27393,-120.657,-73.4253,-41.8091,-141.541,0.391479,-0.302521,0.58548,-0.64212,-27434,26907,-19989,-3665,-29306
93042,-2.0624,-13.3889,3.84727,-83.1445,2.54883,-120.558,-73.4863,-38.3911,-141.541,0.383575,-0.314392,0.584381,-0.642181,-11819,19483,11500,-3665,-29306
93048,-1.88535,-13.3841,4.1248,-83.8586,1.12061,-120.421,-74.4019,-28.1982,-141.296,0.379486,-0.320099,0.583893,-0.642242,28885,14875,26604,-3665,-29306
93054,-1.6748,-13.5563,4.36885,-84.2212,0.41748,-120.394,-74.8901,-21.6675,-141.296,0.375214,-0.325592,0.583496,-0.642334,3797,10267,-25108,-3665,-29306
93060,-1.60303,-13.8147,4.66074,-84.5728,-0.274658,-120.399,-73.8525,-13.916,-140.869,0.370789,-0.330902,0.583191,-0.642487,-21036,5147,-11540,-3665,-29306
93066,-1.75615,-13.9583,4.83301,-84.9133,-0.955811,-120.443,-71.9604,-5.37109,-139.954,0.366211,-0.335907,0.582947,-0.642731,19668,-486,1261,-3665,-29306
93072,-2.38301,-14.3028,5.07705,-85.2374,-1.63147,-120.526,-69.9463,2.99072,-138.672,0.356567,-0.34491,0.582672,-0.643646,-29997,-12774,29677,-3665,-29306
93078,-2.6749,-14.5421,5.14404,-85.8307,-2.93884,-120.789,-63.5376,18.1885,-135.803,0.351532,-0.348907,0.582611,-0.644318,12499,-19430,-22291,-3665,-29306
93084,-2.91416,-14.8771,5.21582,-86.0834,-3.57056,-120.976,-58.8379,25.5737,-133.545,0.346436,-0.35257,0.58255,-0.645142,-10286,-26598,-8723,-3665,-29306
93090,-3.11992,-14.9775,5.31152,-86.3086,-4.1803,-121.196,-53.833,33.6914,-130.432,0.341278,-0.355835,0.582458,-0.646149,31954,31514,4334,-3673,-29305
93096,-3.45967,-15.035,5.36416,-86.5009,-4.76257,-121.454,-48.8892,41.1377,-126.404,0.336121,-0.358704,0.582397,-0.647339,8402,22810,16622,-3673,-29305
93102,-4.22529,-13.8817,5.10098,-86.6602,-5.32837,-121.745,-43.7012,48.2788,-122.803,0.325775,-0.363159,0.582306,-0.650238,26321,3866,-24850,-3673,-29305
93108,-4.52197,-13.1305,5.03877,-86.9019,-6.42151,-122.421,-37.4756,60.73,-120.483,0.320526,-0.364868,0.582214,-0.651947,3025,-5095,-13074,-3673,-29305
93114,-4.57461,-12.5563,4.83779,-87.0007,-6.97083,-122.8,-36.1938,66.3452,-121.948,0.315247,-0.366333,0.582184,-0.653748,-18992,-14055,-1042,-3673,-29305
93120,-4.74688,-12.2644,4.63203,-87.0831,-7.52563,-123.206,-34.6069,71.7773,-124.023,0.309784,-0.367615,0.582123,-0.65567,24016,-23015,11247,-3673,-29305
93126,-4.98613,-12.0155,4.46934,-87.1545,-8.08594,-123.64,-33.1421,76.0498,-126.343,0.304138,-0.368713,0.582062,-0.657745,2256,-31975,21487,-3673,-29305
93132,-4.95742,-12.1447,4.15352,-87.204,-8.65173,-124.091,-31.0669,79.5898,-128.601,0.29248,-0.370575,0.581818,-0.662201,22735,15129,-29969,-3673,-29305
93138,-5.08184,-12.317,4.00039,-87.2314,-9.77783,-125.052,-24.7192,86.5479,-128.235,0.28653,-0.371307,0.581573,-0.664581,207,5913,-26385,-3673,-29305
93144,-5.10576,-12.4271,3.84727,-87.204,-10.3162,-125.546,-19.8975,88.3179,-125,0.280579,-0.371826,0.581299,-0.667084,-21298,-3048,-23569,-3673,-29305
93150,-5.94316,-14.7766,2.0002,-87.182,-10.816,-126.057,-21.7896,90.5762,-118.164,0.27478,-0.372101,0.580963,-0.669647,22478,-12520,-21265,-3673,-29305
93156,-7.55098,-17.217,5.45508,-87.0612,-11.2335,-126.552,-2.86865,88.4399,-102.417,0.269073,-0.372131,0.58078,-0.672058,462,-21736,-18449,-3673,-29305
93162,-6.97676,-10.5034,2.94287,-86.9073,-11.5796,-127.024,10.9863,84.5337,-79.9561,0.259949,-0.370728,0.579742,-0.677338,22477,23576,-13841,-3673,-29305
93168,-7.53662,-9.4124,2.53613,-86.5228,-12.1399,-127.952,11.7188,80.6274,-73.1201,0.256073,-0.369507,0.579132,-0.679993,461,12568,-12049,-3673,-29305
93174,-8.27832,-9.64688,2.23945,-86.3525,-12.3651,-128.381,8.78906,74.646,-67.0166,0.252533,-0.368164,0.578613,-0.682465,-20276,2328,-11025,-3673,-29305
93180,-9.13965,-10.0249,2.42129,-86.2042,-12.5464,-128.771,6.16455,68.6646,-58.96,0.249268,-0.366882,0.578217,-0.684723,25036,-8681,-9745,-3673,-29305
93186,-9.33584,-9.82871,2.22988,-86.0889,-12.6892,-129.117,1.46484,59.5703,-50.9644,0.246368,-0.36554,0.577942,-0.686676,5580,-19433,-10001,-3673,-29305
93192,-8.73291,-9.49375,1.99541,-85.979,-12.7936,-129.424,-3.23486,45.8984,-39.3066,0.24176,-0.363129,0.57785,-0.689667,-30005,26903,-15633,-3673,-29305
93198,-8.7042,-9.86221,2.14375,-85.8197,-12.9199,-129.935,-1.0376,39.7339,-32.5928,0.239899,-0.36203,0.578003,-0.690796,18891,17687,-19217,-3673,-29305
93204,-8.69463,-9.76172,2.41172,-85.7373,-12.9309,-130.15,0.244141,35.0952,-26.4282,0.238464,-0.360901,0.578125,-0.691772,3787,8983,-22801,-3673,-29305
93210,-8.54629,-10.8384,2.71797,-85.6659,-12.8979,-130.325,0,28.6865,-17.395,0.237366,-0.359711,0.578247,-0.692657,-10550,1047,-26897,-3681,-29304
93216,-8.85732,-10.202,2.52656,-85.567,-12.8265,-130.496,6.71387,27.4048,-9.58252,0.236694,-0.35849,0.578491,-0.693329,-24630,-5866,-31761,-3681,-29304
93222,-8.47451,-9.56553,2.94287,-85.4626,-12.7167,-130.633,8.60596,21.6675,3.60107,0.236481,-0.35553,0.578796,-0.694672,15306,-17642,21487,-3681,-29304
93228,-9.36934,-10.0919,3.40225,-85.2649,-12.3981,-130.886,8.05664,19.043,11.1084,0.236816,-0.353851,0.579041,-0.695221,3530,-23530,16623,-3681,-29304
93234,-8.92432,-9.84785,4.18701,-85.155,-12.1729,-130.995,10.3149,18.1274,20.1416,0.237396,-0.352081,0.579376,-0.695618,-6967,-28906,12271,-3681,-29304
93240,-8.88603,-8.74727,3.90469,-85.0616,-11.9147,-131.105,7.50732,19.2261,26.6724,0.238342,-0.350067,0.579803,-0.695984,-16183,31254,8431,-3681,-29304
93246,-8.52715,-8.56543,3.93818,-84.9738,-11.618,-131.215,6.16455,20.0195,33.3252,0.23941,-0.34787,0.580383,-0.696198,-24119,26646,6127,-3681,-29304
93252,-1.89492,-3.48359,0.722559,-84.8584,-11.3214,-131.336,14.8926,18.8599,24.0479,0.241943,-0.342957,0.581726,-0.696655,28105,20502,495,-3681,-29304
93258,0.0287109,-4.85215,2.60791,-84.6552,-10.8655,-131.622,1.28174,32.1655,15.1367,0.243042,-0.340759,0.582031,-0.697083,22985,17686,-2578,-3681,-29304
93264,3.45967,-15.5135,3.62236,-84.7321,-10.6897,-131.743,-27.4658,20.752,12.5122,0.243347,-0.338501,0.582764,-0.697479,18121,15382,-6162,-3681,-29304
93270,12.7142,-16.5231,8.36445,-84.8859,-10.3546,-131.803,-40.4053,11.8408,47.2412,0.243378,-0.337036,0.584198,-0.696991,14025,13334,-10002,-3681,-29304
93276,1.71309,-17.2601,-5.26367,-85.0726,-10.0305,-132.122,-54.1992,62.439,41.626,0.244415,-0.335175,0.586334,-0.695709,8649,10006,-16146,-3681,-29304
93282,6.94805,-12.7716,-2.08633,-85.0342,-9.26697,-132.006,5.61523,-9.21631,66.4673,0.246124,-0.330383,0.590332,-0.694031,7369,10006,-19474,-3681,-29304
93288,3.56973,-12.7237,-0.60293,-84.9243,-8.82202,-132.078,16.9067,18.2495,73.8525,0.24884,-0.328339,0.591156,-0.693329,6601,11286,-21522,-3681,-29304
93294,0.765625,-11.0489,0.062207,-84.7705,-8.32764,-132.061,28.3813,1.46484,85.2051,0.25119,-0.325165,0.592041,-0.693207,6601,13590,-23314,-3681,-29304
93300,2.71318,-8.49365,2.44043,-84.6222,-7.7948,-132.001,28.3203,-6.10352,95.6421,0.254486,-0.322144,0.59256,-0.692993,7625,16150,-24594,-3681,-29304
93306,1.86143,-8.21611,3.01465,-84.5123,-7.24548,-132.006,18.9209,7.69043,97.9614,0.25824,-0.319061,0.593079,-0.692566,12489,21782,-26642,-3681,-29304
93312,-0.607715,-9.28799,1.91406,-84.353,-6.19629,-131.995,12.6343,3.90625,91.4917,0.264709,-0.312347,0.595154,-0.691406,16329,24598,-27666,-3681,-29304
93318,-1.17236,-8.88125,1.31592,-84.2926,-5.73486,-131.995,9.52148,6.22559,81.9092,0.267792,-0.309296,0.596161,-0.690735,21705,28182,-29202,-3681,-29304
93324,-1.7083,-9.44111,1.03359,-84.2487,-5.32288,-131.99,5.24902,4.02832,73.1201,0.270477,-0.306458,0.597107,-0.690094,27593,32534,-30226,-3681,-29304
93330,-1.6748,-10.824,0.808691,-84.2212,-4.93835,-131.968,3.90625,0,67.0776,0.272888,-0.303986,0.598053,-0.689423,-31287,-28138,-30482,-3681,-29304
93336,-1.14365,-10.9293,1.02881,-84.1608,-4.58679,-131.946,10.1929,-0.366211,62.0117,0.275177,-0.301819,0.598907,-0.688751,-16439,-17386,-31506,-3681,-29304
93342,0.593359,-10.8719,0.76084,-84.0289,-3.92761,-131.891,11.7188,-1.46484,56.6406,0.279572,-0.297791,0.600006,-0.687775,-9271,-11754,-30994,-3681,-29304
93348,0.598145,-11.0394,0.741699,-83.941,-3.62,-131.896,15.9912,4.02832,53.7109,0.281647,-0.295868,0.600433,-0.687378,-2103,-5866,-32018,-3681,-29304
93354,0.133984,-10.4173,0.502441,-83.8422,-3.32336,-131.896,18.4937,4.15039,51.5137,0.283539,-0.293854,0.600769,-0.687164,5066,279,32750,-3681,-29304
93360,0.368457,-10.0823,0.899609,-83.7433,-3.03772,-131.907,17.5171,5.12695,50.1099,0.28537,-0.29187,0.601013,-0.687042,11978,6679,31982,-3681,-29304
93366,-0.904395,-10.044,1.33984,-83.6444,-2.77954,-131.962,17.7002,14.5874,44.0063,0.287109,-0.289917,0.601257,-0.686951,26058,18455,30446,-3681,-29304
93372,0.0430664,-10.0058,1.29199,-83.4851,-2.29065,-132.028,14.7095,9.33838,41.4429,0.289734,-0.286041,0.601837,-0.686981,-32054,24343,29166,-3681,-29304
93378,-0.287109,-9.98184,1.11973,-83.3972,-2.05994,-132.078,16.7236,12.8174,39.917,0.291046,-0.284241,0.602081,-0.68692,-24374,29463,28910,-3681,-29304
93384,-0.378027,-9.92441,1.06709,-83.3093,-1.83472,-132.116,15.8691,10.2539,38.8184,0.292206,-0.282349,0.602325,-0.687012,-15926,-31209,26350,-3681,-29304
93390,-0.435449,-10.0728,1.28242,-83.2324,-1.6095,-132.16,15.0146,11.8408,38.269,0.293396,-0.280609,0.602509,-0.687042,-7478,-26089,24302,-3681,-29304
93396,-2.20596,-9.27363,1.9332,-83.139,-1.41174,-132.237,17.4561,17.395,32.5317,0.294495,-0.278839,0.602753,-0.687073,8395,-16105,20206,-3681,-29304
93402,-1.70352,-8.45537,1.24414,-83.0951,-1.19751,-132.264,-3.11279,-4.76074,11.4746,0.295868,-0.275848,0.603088,-0.687408,15307,-10729,17902,-3681,-29304
93408,0.947461,-10.4699,1.18193,-83.1006,-1.1261,-132.264,-2.13623,-0.12207,9.21631,0.296417,-0.275513,0.603302,-0.687134,21195,-5865,17134,-3681,-29304
93414,0.392383,-10.4412,0.980957,-83.0676,-1.04919,-132.303,6.53076,7.08008,9.82666,0.296753,-0.275085,0.603546,-0.686951,26827,-1001,16366,-3681,-29304
93420,-0.143555,-9.59902,1.0623,-83.0237,-0.97229,-132.341,7.56836,6.5918,10.5591,0.297028,-0.274323,0.603607,-0.687073,-32565,2840,16622,-3681,-29304
93426,-0.330176,-9.61338,1.0958,-83.0017,-0.889893,-132.38,3.66211,7.69043,10.437,0.297333,-0.27356,0.603668,-0.687195,-20277,8472,18158,-3681,-29304
93432,-0.129199,-9.53203,1.24893,-82.9413,-0.74707,-132.44,6.53076,4.69971,9.82666,0.297791,-0.272156,0.603973,-0.687286,-15157,10776,18670,-3681,-29304
93438,0.00478516,-9.14443,1.54561,-82.9138,-0.681152,-132.473,5.06592,5.67627,9.09424,0.298096,-0.271484,0.604034,-0.687378,-9781,13080,17390,-3681,-29304
93444,-0.368457,-9.35498,1.28242,-82.9028,-0.620728,-132.512,1.89209,6.83594,7.32422,0.29834,-0.270844,0.604095,-0.687439,-4661,16152,14574,-3681,-29304
93450,-0.483301,-9.95312,1.24893,-82.8918,-0.565796,-132.539,1.15967,4.57764,7.44629,0.298462,-0.270264,0.604279,-0.687469,204,19480,10478,-3681,-29304
93456,-0.368457,-9.98184,1.04316,-82.8754,-0.510864,-132.567,2.50244,5.37109,6.95801,0.298615,-0.269745,0.604431,-0.687469,8908,26648,2798,-3681,-29304
93462,-0.521582,-9.46982,1.14844,-82.8369,-0.411987,-132.627,3.60107,3.84521,5.67627,0.298889,-0.268677,0.604645,-0.687592,11724,29208,1006,-3681,-29304
93468,-0.234473,-9.54639,1.18672,-82.8204,-0.368042,-132.654,2.01416,4.3335,4.45557,0.299042,-0.268188,0.604706,-0.687653,14540,32024,-275,-3681,-29304
93474,-0.387598,-9.82393,1.07187,-82.8149,-0.32959,-132.682,1.34277,4.21143,3.72314,0.299133,-0.267792,0.604797,-0.687683,16844,-31720,-19,-3681,-29304
93480,-0.555078,-9.91484,1.21064,-82.7985,-0.296631,-132.709,2.31934,4.3335,4.15039,0.299164,-0.267395,0.604919,-0.687714,19660,-29928,-275,-3681,-29304
93486,-0.765625,-9.74736,1.18193,-82.782,-0.252686,-132.737,3.11279,4.3335,4.27246,0.299316,-0.266571,0.605072,-0.687836,26828,-26344,-19,-3681,-29304
93492,-0.210547,-9.38848,1.29199,-82.7655,-0.192261,-132.77,0.488281,1.52588,2.50244,0.299438,-0.266205,0.605133,-0.687897,29644,-24040,-275,-3681,-29304
93498,0.0382813,-9.82393,1.28721,-82.771,-0.164795,-132.781,-0.976562,1.46484,2.19727,0.2995,-0.265961,0.605194,-0.687866,32716,-22504,-275,-3681,-29304
93504,-0.0717773,-10.111,1.23936,-82.771,-0.142822,-132.803,-1.0376,2.13623,2.38037,0.29953,-0.265747,0.605316,-0.687836,-30516,-21480,1006,-3681,-29304
93510,-0.483301,-10.0632,1.15801,-82.771,-0.109863,-132.819,0.12207,2.80762,3.35693,0.299561,-0.265503,0.605469,-0.687805,-28212,-20968,1774,-3681,-29304
93516,-0.756055,-9.87178,1.13408,-82.7655,-0.0769043,-132.836,0.488281,1.70898,3.479,0.299683,-0.264954,0.605652,-0.687775,-23092,-20968,4078,-3681,-29304
93522,-0.387598,-9.69951,1.17715,-82.76,-0.0274658,-132.858,0.0610352,0.732422,2.0752,0.299774,-0.264709,0.605743,-0.687775,-20532,-20712,4590,-3681,-29304
93528,-0.196191,-9.94355,1.17236,-82.7655,-0.00549316,-132.863,-0.732422,0.488281,2.56348,0.299835,-0.264526,0.605804,-0.687744,-18484,-20200,4590,-3681,-29304
93534,-0.234473,-10.001,1.02881,-82.7655,0.0164795,-132.88,0.244141,1.2207,2.56348,0.299896,-0.264343,0.605927,-0.687714,-16436,-19688,4846,-3681,-29304
93540,-0.650781,-9.8957,1.15801,-82.7545,0.0439453,-132.891,1.2207,1.83105,3.35693,0.299957,-0.26413,0.605988,-0.687683,-14900,-18664,5870,-3681,-29304
93546,-0.933105,-9.68516,1.3542,-82.749,0.0714111,-132.907,1.28174,1.28174,3.2959,0.30014,-0.26358,0.60614,-0.687714,-12596,-16360,7406,-3681,-29304
93552,-0.736914,-9.49854,1.32549,-82.7435,0.115356,-132.924,0,-0.244141,1.64795,0.300201,-0.263367,0.606201,-0.687683,-11316,-15592,7918,-3681,-29304
93558,-0.31582,-9.57988,1.225,-82.749,0.131836,-132.929,-0.610352,0,0.976562,0.300262,-0.263214,0.606262,-0.687653,-9524,-14824,7406,-3681,-29304
93564,-0.368457,-9.66123,1.30156,-82.749,0.142822,-132.946,-0.549316,1.15967,0.488281,0.300323,-0.263092,0.606323,-0.687622,-7732,-14312,4846,-3681,-29304
93570,-0.875684,-9.68994,1.38291,-82.7545,0.159302,-132.962,-0.549316,1.70898,0.244141,0.300293,-0.262939,0.606415,-0.687622,-6196,-14312,3822,-3681,-29304
93576,-1.0958,-9.56553,1.42119,-82.7545,0.170288,-132.968,-0.610352,0.427246,0.366211,0.300262,-0.262665,0.606567,-0.687622,-2100,-13544,2030,-3681,-29304
93582,-0.483301,-9.61338,1.29678,-82.7655,0.186768,-132.984,-2.13623,-0.488281,-1.15967,0.300262,-0.262573,0.606628,-0.687592,205,-12520,2798,-3681,-29304
93588,0,-9.88135,1.05752,-82.7765,0.192261,-132.984,-2.2583,-0.976562,-1.2207,0.300232,-0.262543,0.60672,-0.687531,1997,-11496,2286,-3681,-29304
93594,0.133984,-10.0871,1.11494,-82.782,0.197754,-132.995,-1.28174,-0.12207,-0.549316,0.300201,-0.262512,0.606781,-0.6875,3533,-10216,1774,-3681,-29304
93600,-0.272754,-10.0297,1.08623,-82.7875,0.20874,-133.006,-0.427246,1.28174,0,0.300201,-0.262451,0.606873,-0.687469,4813,-9704,1262,-3681,-29304
93606,-0.827832,-9.55117,1.23936,-82.782,0.219727,-133.022,0.610352,1.28174,0.549316,0.300171,-0.262146,0.606964,-0.6875,7373,-9448,2542,-3681,-29304
93612,-0.483301,-9.49854,1.22979,-82.782,0.241699,-133.033,-0.427246,-0.915527,-0.183105,0.300171,-0.262054,0.606995,-0.6875,8909,-9448,3822,-3681,-29304
93618,0.0143555,-9.86221,1.03838,-82.7875,0.247192,-133.039,-1.34277,-0.610352,-0.366211,0.300201,-0.261993,0.607056,-0.687469,10701,-9448,5614,-3681,-29304
93624,0.090918,-10.0823,0.899609,-82.7875,0.258179,-133.044,-0.244141,0,0,0.300201,-0.261932,0.607117,-0.687439,11725,-8936,6894,-3681,-29304
93630,-0.248828,-10.0345,1.03359,-82.782,0.269165,-133.061,0.854492,1.09863,0.610352,0.300171,-0.261841,0.607147,-0.687439,12493,-8168,7406,-3681,-29304
93636,-0.741699,-9.43633,1.02881,-82.7765,0.285645,-133.072,1.70898,1.28174,1.15967,0.300201,-0.261505,0.607208,-0.6875,14285,-6632,7150,-3681,-29304
93642,-0.564648,-9.63252,1.22979,-82.7655,0.307617,-133.083,0.671387,-0.305176,0.671387,0.300232,-0.261383,0.607239,-0.687531,15565,-6632,6894,-3681,-29304
93648,-0.162695,-9.73779,1.20586,-82.771,0.318604,-133.083,-0.183105,-1.40381,0.488281,0.300262,-0.261261,0.607269,-0.687531,16589,-6120,6382,-3681,-29304
93654,0.392383,-9.9627,1.01924,-82.771,0.324097,-133.083,-0.488281,-1.77002,0.671387,0.300293,-0.2612,0.6073,-0.6875,17613,-5352,5870,-3681,-29304
93660,0.196191,-10.202,1.00488,-82.771,0.340576,-133.094,0,0.305176,1.70898,0.300354,-0.261169,0.60733,-0.687469,18637,-5352,6382,-3681,-29304
93666,-0.540723,-9.79521,1.13887,-82.771,0.362549,-133.099,1.0376,0.610352,2.99072,0.300476,-0.260864,0.607452,-0.687439,21709,-4840,7406,-3681,-29304
93672,-0.425879,-9.49375,1.17236,-82.749,0.406494,-133.11,1.83105,-0.610352,3.11279,0.300568,-0.26062,0.607452,-0.687469,23245,-4328,7150,-3681,-29304
93678,0.0526367,-9.55117,1.14365,-82.7435,0.422974,-133.11,0.671387,-1.0376,2.19727,0.30069,-0.260468,0.607452,-0.687469,25037,-3560,6638,-3681,-29304
93684,0.411523,-9.87656,1.05273,-82.7435,0.439453,-133.116,0.183105,-0.915527,2.19727,0.300781,-0.260345,0.607483,-0.687439,27085,-2792,6638,-3681,-29304
93690,0.224902,-10.0967,0.985742,-82.7435,0.461426,-133.121,0.732422,0.488281,3.17383,0.300842,-0.260254,0.607544,-0.687408,28877,-2280,6638,-3681,-29304
93696,-0.6125,-9.67559,1.20107,-82.738,0.483398,-133.132,1.64795,1.09863,3.72314,0.300995,-0.259857,0.607635,-0.687408,32717,-2536,10990,-3681,-29304
93702,-0.703418,-9.44111,1.27285,-82.7216,0.532837,-133.143,1.40381,-0.488281,3.54004,0.301086,-0.259644,0.607666,-0.687408,-31795,-3048,14830,-3681,-29304
93708,-0.100488,-9.5416,1.2585,-82.7216,0.549316,-133.138,0,-2.68555,2.62451,0.301208,-0.259491,0.607697,-0.687408,-30259,-4328,18158,-3681,-29304
93714,0.272754,-9.80957,1.15801,-82.7271,0.560303,-133.132,-1.0376,-1.52588,2.01416,0.301331,-0.25943,0.607727,-0.687347,-29235,-5864,20974,-3681,-29304
93720,0.062207,-10.0823,1.03838,-82.7325,0.576782,-133.138,-0.549316,-0.671387,2.44141,0.301392,-0.259369,0.607788,-0.687286,-28211,-6888,23534,-3681,-29304
93726,-0.842188,-9.75693,1.33984,-82.7325,0.598755,-133.143,1.64795,0.0610352,3.90625,0.301544,-0.259125,0.60791,-0.687225,-26163,-8168,27118,-3681,-29304
93732,-0.885254,-9.50811,1.35898,-82.7161,0.6427,-133.154,1.34277,-0.488281,3.2959,0.301636,-0.258911,0.607941,-0.687195,-24883,-8680,28654,-3681,-29304
93738,-0.512012,-9.48897,1.34941,-82.7161,0.65918,-133.149,0.183105,-1.95312,2.56348,0.301758,-0.258759,0.607971,-0.687195,-24115,-8424,29678,-3681,-29304
93744,-0.0143555,-9.75215,1.13887,-82.7216,0.670166,-133.149,-0.671387,-1.40381,1.89209,0.301849,-0.258698,0.608002,-0.687134,-22835,-8168,29934,-3681,-29304
93750,-0.0574219,-10.0823,1.04795,-82.7216,0.686646,-133.149,0,-0.305176,1.89209,0.30191,-0.258636,0.608063,-0.687103,-21811,-7912,30190,-3681,-29304
93756,-0.894824,-9.76172,1.20586,-82.7216,0.708618,-133.154,2.0752,1.52588,2.74658,0.302063,-0.258392,0.608185,-0.687012,-20275,-6632,28910,-3681,-29304
93762,-1.10059,-9.44111,1.36855,-82.7051,0.741577,-133.171,2.01416,-0.732422,2.2583,0.302094,-0.258179,0.608185,-0.687073,-18483,-5864,28398,-3681,-29304
93768,-0.368457,-9.47461,1.38291,-82.7051,0.752563,-133.16,-0.12207,-2.56348,1.83105,0.302185,-0.258057,0.608185,-0.687073,-16691,-5352,26862,-3681,-29304
93774,0.210547,-9.82871,1.14844,-82.7106,0.76355,-133.154,-1.28174,-2.19727,1.34277,0.302307,-0.258026,0.608215,-0.687042,-14387,-4584,25582,-3681,-29304
93780,0.224902,-10.2115,0.913965,-82.7161,0.774536,-133.16,-0.793457,-0.488281,2.01416,0.302368,-0.257996,0.608276,-0.686951,-12595,-3816,24814,-3681,-29304
93786,-0.626855,-10.1302,1.21064,-82.7106,0.791016,-133.165,2.62451,1.15967,3.90625,0.30246,-0.257751,0.608368,-0.68692,-9779,-2280,24814,-3681,-29304
93792,-0.717773,-9.7665,1.23936,-82.6831,0.840454,-133.182,3.41797,0.183105,4.39453,0.302551,-0.257538,0.608368,-0.686951,-9011,-1256,25582,-3681,-29304
93798,-0.272754,-9.49375,1.28721,-82.6721,0.86792,-133.182,2.86865,-0.488281,4.39453,0.302704,-0.257324,0.608368,-0.686981,-8243,-232,26606,-3681,-29304
93804,0.153125,-9.62295,1.33506,-82.6611,0.895386,-133.187,2.0752,0,4.45557,0.302856,-0.257111,0.608368,-0.686981,-7475,25,27118,-3681,-29304
93810,-0.0287109,-9.7665,1.1915,-82.6556,0.922852,-133.198,1.58691,0.854492,5.00488,0.302979,-0.256927,0.608368,-0.686981,-6451,281,27630,-3681,-29304
93816,-0.76084,-9.75215,1.68438,-82.6447,0.950317,-133.215,2.01416,1.83105,5.61523,0.303162,-0.256378,0.608459,-0.687012,-4147,1049,27886,-3681,-29304
93822,-1.13887,-9.52246,1.41162,-82.6227,1.01074,-133.237,2.44141,1.52588,5.06592,0.303284,-0.256104,0.608521,-0.687042,-2611,1049,28398,-3681,-29304
93828,-0.784766,-9.4459,1.39727,-82.6172,1.03821,-133.237,0.976562,-1.0376,4.45557,0.303406,-0.255829,0.608551,-0.687042,-1075,1049,29422,-3681,-29304
93834,-0.0478516,-9.72822,1.24414,-82.6227,1.06018,-133.237,-0.732422,-1.0376,4.15039,0.303558,-0.255676,0.608582,-0.687012,718,793,30702,-3681,-29304
93840,0.0191406,-9.73779,0.846973,-82.6282,1.08215,-133.242,-0.366211,0.793457,2.68555,0.30368,-0.255554,0.608673,-0.68692,4558,537,31982,-3681,-29304
93846,-0.803906,-9.1875,1.34463,-82.6172,1.12061,-133.27,1.58691,1.83105,2.56348,0.303741,-0.255188,0.608826,-0.68692,6094,-232,32238,-3681,-29304
93852,-0.875684,-9.16836,1.99541,-82.6117,1.13708,-133.281,0.915527,1.0376,2.68555,0.303772,-0.254974,0.608856,-0.686951,6862,-488,32750,-3681,-29304
93858,-0.885254,-9.08701,1.8375,-82.6227,1.15356,-133.292,-2.13623,0.732422,2.19727,0.303802,-0.254822,0.608887,-0.686951,8398,-1768,-32274,-3681,-29304
93864,0.0669922,-9.64688,1.45469,-82.6392,1.16455,-133.292,-4.45557,-1.2207,2.13623,0.303802,-0.2547,0.609009,-0.68689,10190,-2536,-30738,-3681,-29304
93870,0.062207,-9.99619,0.91875,-82.6611,1.17554,-133.308,-3.54004,1.77002,0.854492,0.303833,-0.254669,0.609161,-0.686737,13262,-2280,-26642,-3681,-29304
93876,-0.258398,-9.95791,1.6126,-82.6666,1.2085,-133.336,-1.2207,1.40381,3.2959,0.303711,-0.254395,0.609436,-0.686676,14542,-1768,-25362,-3681,-29304
93882,-0.866113,-9.87656,1.11016,-82.6721,1.23047,-133.352,-0.732422,2.56348,3.11279,0.303741,-0.254242,0.609528,-0.686615,15566,-1512,-25106,-3681,-29304
93888,-0.784766,-10.0775,0.856543,-82.6776,1.24695,-133.347,-1.34277,-1.70898,2.74658,0.303741,-0.254028,0.60965,-0.686615,16590,-1256,-26130,-3681,-29304
93894,0.0813477,-10.0058,0.913965,-82.6831,1.26343,-133.358,-1.2207,1.0376,2.68555,0.303864,-0.253967,0.609711,-0.686523,17358,-488,-27666,-3681,-29304
93900,-0.579004,-10.3216,1.29199,-82.6831,1.29089,-133.374,-0.427246,2.2583,3.84521,0.303864,-0.253815,0.609802,-0.686462,19406,25,-29714,-3681,-29304
93906,-0.631641,-10.2259,0.980957,-82.6831,1.32385,-133.385,3.72314,3.479,6.65283,0.304047,-0.253326,0.610016,-0.686401,20174,281,-29458,-3681,-29304
93912,-1.27285,-9.88613,0.842188,-82.6501,1.40076,-133.407,3.54004,0.793457,7.01904,0.304169,-0.25293,0.610046,-0.686462,21198,281,-27666,-3681,-29304
93918,-0.76084,-9.47939,1.08145,-82.6337,1.43921,-133.418,3.17383,1.34277,6.22559,0.304382,-0.252625,0.610077,-0.686462,22478,537,-25874,-3681,-29304
93924,-0.799121,-9.35498,1.66045,-82.6227,1.46667,-133.429,2.38037,1.28174,5.00488,0.304535,-0.252319,0.610077,-0.686493,24270,793,-24850,-3681,-29304
93930,0.13877,-9.83828,1.42119,-82.6172,1.49963,-133.434,0.549316,0.610352,5.92041,0.304657,-0.252075,0.610107,-0.686493,26830,793,-24082,-3681,-29304
93936,-0.904395,-9.6708,1.37334,-82.6007,1.56555,-133.462,2.2583,2.13623,5.5542,0.304901,-0.251556,0.61026,-0.686462,27854,793,-25106,-3681,-29304
