Timestamp,AccX,AccY,AccZ,AngleX,AngleY,AngleZ,AngularVelX,AngularVelY,AngularVelZ,QW,QX,QY,QZ,MagX,MagY,MagZ,Height,AirPressure
1414179,0.645996,-28.5243,3.61758,-78.36,40.1385,-126.546,62.439,15.686,417.114,0.511475,-0.0419922,0.650208,-0.56015,22239,-27108,-32532,-3042,-29381
1414185,-1.86621,-28.2468,5.03398,-77.7008,42.1985,-126.046,72.5098,21.3013,437.744,0.521057,-0.0292358,0.649597,-0.552765,-5665,28700,21996,-3042,-29381
1414191,-2.04326,-29.022,3.96211,-76.9812,44.3408,-125.425,65.0635,14.2822,458.801,0.530792,-0.0155945,0.648712,-0.545044,-32032,17948,9452,-3042,-29381
1414197,2.05762,-18.9444,0.354102,-75.3113,48.9001,-124.03,67.9932,32.3486,496.46,0.551392,0.013031,0.646088,-0.527496,9697,5148,-4373,-3042,-29381
1414203,-4.44063,-15.3986,4.01953,-74.7894,51.2402,-123.492,27.771,61.2793,495.789,0.561432,0.0283813,0.644836,-0.517731,-31518,-27877,31723,-3042,-29381
1414209,-8.06777,-23.9641,1.50732,-74.295,53.5529,-122.64,-29.1138,29.9683,499.39,0.570404,0.0433655,0.644958,-0.506622,13283,19739,17387,-3042,-29381
1414215,-1.98584,-29.6058,1.91406,-73.3118,55.8435,-121.393,-0.732422,-4.02832,508.362,0.58017,0.0562744,0.645294,-0.493713,-5661,-1510,3563,-3042,-29381
1414221,-1.00967,-25.1986,4.40713,-72.1637,58.1396,-120.13,23.5596,10.5591,508.911,0.590698,0.069397,0.64386,-0.481262,-23068,-25062,-10518,-3042,-29381
1414227,-3.55537,-25.7059,3.68457,-69.505,62.6166,-116.999,-8.8501,5.5542,500.854,0.610046,0.0968628,0.640137,-0.456696,26085,14618,-23830,-3042,-29381
1414233,-2.70361,-28.1319,-0.478516,-67.8186,64.7424,-115.082,-1.70898,-0.12207,490.662,0.619324,0.109558,0.638306,-0.443695,-4634,19737,12010,-3042,-29381
1414239,1.68916,-26.4715,-3.21084,-65.5444,66.7145,-112.621,11.3525,-26.7944,477.6,0.628204,0.122009,0.636017,-0.431091,-22041,-11240,-2071,-3042,-29381
1414245,4.05781,-23.586,-2.38779,-63.089,68.5602,-110.034,18.1885,-16.1133,454.59,0.637177,0.133881,0.632629,-0.41922,26600,21016,-17431,-3042,-29381
1414251,2.42607,-22.2749,-3.99082,-60.3809,70.3125,-107.21,16.6016,-8.54492,440.735,0.645111,0.145447,0.629364,-0.40799,9705,-14569,31465,-3042,-29381
1414257,10.111,-10.6374,-8.66113,-52.7454,73.114,-99.613,66.9556,-33.9355,386.78,0.6604,0.166718,0.62146,-0.386993,-7447,13591,15849,-3042,-29381
1414263,10.647,5.49814,-11.4413,-47.8015,74.1028,-95.0867,125.122,-75.8667,357.788,0.666504,0.177338,0.616943,-0.378937,21227,-1771,-16664,-3042,-29381
1414269,3.12949,30.7303,0.0239258,-44.2145,74.6301,-91.9336,113.464,-54.9316,237.732,0.672607,0.188141,0.610382,-0.373535,-277,21269,32232,-3042,-29381
1414275,-1.9667,27.5146,-5.24453,-42.4127,74.4873,-90.0549,2.44141,-96.4966,96.9238,0.676147,0.195709,0.60553,-0.371124,-25108,-19436,15848,-3042,-29381
1414281,6.88105,8.99131,-3.84727,-42.1106,73.8995,-89.5605,-31.189,-113.464,-14.3433,0.679352,0.195618,0.602478,-0.37027,12781,5396,-1049,-3042,-29381
1414287,6.15371,3.50752,-2.55049,-45.0055,71.955,-91.9226,-74.0356,-112.488,-175.232,0.681671,0.184601,0.599915,-0.375793,12014,-2030,28391,-3042,-29381
1414293,9.89092,-2.95723,-1.30635,-47.2192,70.6421,-93.7134,-100.647,-112.549,-224.182,0.681305,0.174866,0.599915,-0.381104,-27410,-31214,10727,-3042,-29381
1414299,10.6374,-9.01045,-2.36387,-49.5758,69.2743,-95.6854,-98.5107,-95.2148,-248.962,0.680145,0.163086,0.600677,-0.387115,-5906,10770,-6682,-3026,-29383
1414305,9.221,-12.6567,-3.50752,-51.7676,67.868,-97.5531,-87.2803,-88.7451,-259.033,0.677948,0.15097,0.602051,-0.393707,12527,-8431,-23322,-3026,-29383
1414311,8.82383,-14.6378,-3.26826,-53.6407,66.4508,-99.1681,-72.876,-89.2944,-257.263,0.675171,0.139069,0.603394,-0.400787,26351,-22767,25830,-3026,-29383
1414317,7.6084,-13.9774,-1.78965,-56.5411,63.7152,-101.821,-37.1094,-82.0923,-237.854,0.668945,0.116913,0.605072,-0.415466,-23313,29969,-5403,-3026,-29383
1414323,7.74717,-12.2021,-1.11016,-57.6508,62.4243,-102.903,-24.4751,-76.9043,-226.074,0.66568,0.107117,0.605347,-0.422913,-21521,29457,-19483,-3026,-29383
1414329,7.81895,-10.2498,-0.846973,-58.623,61.1938,-103.914,-12.4512,-68.9697,-215.881,0.662292,0.098114,0.605408,-0.430267,-23313,31761,-31771,-3026,-29383
1414335,7.98164,-8.97695,-0.794336,-59.5074,60.0128,-104.881,-4.27246,-60.1807,-207.458,0.658722,0.0898438,0.605347,-0.437531,-28689,-28143,22501,-3026,-29383
1414341,8.00078,-7.4457,-0.885254,-60.3479,58.8702,-105.853,2.92969,-49.4385,-202.759,0.654999,0.0821838,0.605316,-0.444641,30703,-21743,11749,-3026,-29383
1414347,7.48398,-3.7707,-0.6125,-62.0892,56.64,-107.941,7.56836,-24.6582,-208.13,0.646454,0.0682983,0.605621,-0.458862,13551,-2287,-8988,-3026,-29383
1414353,6.98154,-1.94756,-0.645996,-63.0505,55.4919,-109.083,2.50244,-14.0381,-218.933,0.641449,0.0616455,0.606201,-0.466003,3311,10770,-18460,-3026,-29383
1414359,6.95283,-0.76084,-0.655566,-64.1272,54.2834,-110.325,-6.71387,-1.95312,-235.657,0.635864,0.0547791,0.607117,-0.473236,-8210,24850,-28700,-3026,-29383
1414365,6.87627,-0.440234,-0.995313,-65.3192,53.0035,-111.654,-17.8223,10.376,-255.676,0.629547,0.0474548,0.608582,-0.48056,-21010,-25326,27108,-3026,-29383
1414371,6.81885,-0.837402,-1.33984,-66.6101,51.6193,-113.06,-28.8696,21.1792,-278.564,0.622375,0.0395508,0.610565,-0.488068,31982,-9966,18148,-3026,-29383
1414377,6.21113,-3.25391,-2.11982,-69.3127,48.5431,-115.939,-46.6919,34.9121,-322.083,0.605469,0.021637,0.615784,-0.503601,1774,24595,4068,-3026,-29383
1414383,5.85225,-4.63682,-2.31602,-70.675,46.8622,-117.367,-52.7344,41.5649,-339.233,0.595856,0.0116882,0.618805,-0.511658,-15891,-20973,-541,-3026,-29383
1414389,5.08184,-5.99102,-2.50264,-72.0044,45.1099,-118.751,-57.8003,46.0205,-353.271,0.58551,0.00128174,0.621979,-0.519836,29677,788,-2589,-3026,-29383
1414395,4.24922,-7.57969,-2.66533,-73.2678,43.2916,-120.059,-62.5,46.3257,-362.244,0.574554,-0.00946045,0.625183,-0.528046,7661,24084,-2333,-3026,-29383
1414401,3.57451,-8.8334,-2.86631,-74.4543,41.4349,-121.273,-64.209,45.8984,-368.164,0.551666,-0.0319519,0.631256,-0.544098,-16404,-16364,-29,-3026,-29383
1414407,1.78965,-10.1062,-2.81846,-76.5912,37.6611,-123.437,-66.6504,43.2739,-369.69,0.539886,-0.043335,0.634033,-0.551849,-533,-31979,8164,-3026,-29383
1414413,0.92832,-10.3694,-2.85195,-77.536,35.7715,-124.365,-69.0308,38.9404,-367.065,0.528076,-0.0547791,0.636536,-0.559326,-28949,-5355,12772,-3009,-29385
1414419,0.258398,-10.7714,-2.81846,-78.4204,33.8928,-125.195,-72.3267,34.0576,-362.854,0.516327,-0.0662537,0.638794,-0.566467,6379,22806,19172,-3009,-29385
1414425,-0.746484,-11.1973,-2.77539,-79.2499,32.0416,-125.914,-77.3926,27.5269,-356.14,0.5047,-0.0777588,0.640808,-0.573151,-26646,-13290,26340,-3009,-29385
1414431,-1.82793,-11.7619,-2.67969,-80.0354,30.2124,-126.53,-83.374,19.8364,-349.243,0.482239,-0.100983,0.644196,-0.5849,3818,16407,-31004,-3009,-29385
1414437,-3.26826,-13.0683,-2.11982,-81.4746,26.6418,-127.441,-92.5903,1.2207,-335.632,0.471558,-0.112762,0.645569,-0.589966,-792,7448,-14108,-3009,-29385
1414443,-4.00996,-13.676,-1.85186,-82.1283,24.906,-127.76,-94.6655,-6.89697,-328.552,0.461243,-0.124573,0.646667,-0.594513,27112,-30440,-5660,-3009,-29385
1414449,-4.34971,-14.0014,-1.26807,-82.7435,23.2031,-127.991,-94.9097,-16.4185,-322.51,0.451294,-0.136353,0.647522,-0.598602,-11801,-3304,5093,-3009,-29385
1414455,-4.20137,-14.0684,-0.478516,-83.3258,21.5277,-128.139,-96.0693,-24.353,-317.2,0.441742,-0.148193,0.648041,-0.602356,12519,23065,18149,-3009,-29385
1414461,-4.35449,-14.0444,0.177051,-83.8861,19.8633,-128.238,-98.3276,-29.2358,-315.491,0.423492,-0.171906,0.648346,-0.608795,-30490,-16103,32741,-3009,-29385
1414467,-3.90469,-14.4033,1.64131,-84.9902,16.5948,-128.309,-101.929,-33.02,-311.34,0.414612,-0.183777,0.648193,-0.611572,15077,-32230,-1563,-3009,-29385
1414473,-3.97168,-14.6617,2.28252,-85.545,14.9799,-128.326,-105.164,-30.1514,-310.059,0.405762,-0.195587,0.647949,-0.614105,-29724,-7654,15846,-3009,-29385
1414479,-4.39756,-14.9728,2.91416,-86.1273,13.3868,-128.331,-110.962,-27.1606,-308.472,0.39682,-0.207275,0.647705,-0.616394,-10525,15899,-30746,-3009,-29385
1414485,-4.30186,-15.8245,3.66064,-86.7371,11.8103,-128.32,-117.981,-24.4141,-306.091,0.387817,-0.218842,0.647461,-0.618347,7651,-28133,-10522,-3009,-29385
1414491,-4.13916,-19.0736,4.91914,-87.3743,10.2612,-128.32,-124.573,-18.0664,-303.101,0.369476,-0.241608,0.647339,-0.621246,24290,-8677,9703,-3009,-29385
1414497,-4.34014,-20.9925,5.44551,-88.6871,7.25098,-128.364,-129.944,-1.89209,-294.25,0.360107,-0.252533,0.647461,-0.622284,-7712,25116,-12057,-3009,-29385
1414503,-5.10576,-22.6625,5.57949,-89.3134,5.7843,-128.408,-124.817,6.10352,-291.626,0.350616,-0.263031,0.647614,-0.623169,8160,-26084,9704,-3009,-29385
1414509,-6.18721,-23.6578,5.43594,-89.8901,4.31763,-128.469,-115.967,11.9629,-293.274,0.341064,-0.273102,0.647644,-0.624146,23007,-13540,-32536,-3009,-29385
1414515,-7.55098,-23.921,5.23975,-90.401,2.81799,-128.535,-102.966,16.2354,-301.147,0.33139,-0.282806,0.647339,-0.625336,-29218,-2276,-8728,-3009,-29385
1414521,-9.82871,-23.342,4.41191,-90.835,1.26892,-128.6,-89.1113,18.2495,-312.927,0.311432,-0.301788,0.645111,-0.628998,-16931,6941,16105,-3009,-29385
1414527,-10.8097,-22.8874,4.1583,-91.4777,-2.02148,-128.721,-61.0962,21.9727,-341.675,0.301117,-0.31134,0.642975,-0.631561,6620,19229,-1303,-3009,-29385
1414533,-11.5705,-22.3036,4.08652,-91.7139,-3.74634,-128.798,-52.1851,25.6348,-352.478,0.290497,-0.320892,0.640198,-0.634552,17627,22813,20458,-3009,-29385
1414539,-12.4079,-21.7485,3.99082,-91.9226,-5.48218,-128.892,-47.8516,31.0059,-357.727,0.279572,-0.330414,0.636963,-0.637848,26330,24093,-24342,-3009,-29385
1414545,-13.1065,-21.3514,3.59844,-92.1204,-7.22351,-129.018,-46.6919,38.6353,-358.887,0.268433,-0.339722,0.633453,-0.641235,-32295,22557,-4374,-3009,-29385
1414551,-15.0685,-20.4278,2.89502,-92.3016,-8.93738,-129.194,-46.3867,48.4009,-355.103,0.245453,-0.357147,0.626282,-0.647949,-26920,18973,13803,-3009,-29385
1414557,-16.5184,-18.3941,3.07686,-92.6202,-12.2443,-129.699,-46.6919,69.5801,-341.919,0.233795,-0.36499,0.622803,-0.651245,-20778,3357,-20245,-3009,-29385
1414563,-17.4036,-14.944,4.9,-92.7905,-13.8208,-130.007,-53.4058,73.6694,-331.97,0.222015,-0.372223,0.619476,-0.654449,-15403,-6372,-7701,-3009,-29385
1414569,-18.0688,-11.6327,6.45996,-93.0377,-15.3314,-130.369,-74.585,85.7544,-320.312,0.210297,-0.378967,0.616425,-0.657318,-10284,-19428,1260,-3009,-29385
1414575,-21.093,-11.6088,7.11074,-93.3893,-16.7816,-130.792,-100.586,95.8862,-309.387,0.198273,-0.385101,0.614197,-0.659576,-4653,29724,8172,-3009,-29385
1414581,-25.4618,-15.9824,6.89541,-93.8068,-18.1714,-131.193,-114.197,88.4399,-285.461,0.173676,-0.396118,0.61203,-0.661987,1491,11292,13548,-3009,-29385
1414587,-28.1606,-18.04,5.6082,-94.5428,-20.7202,-131.94,-99.2432,85.022,-271.118,0.161987,-0.401154,0.611267,-0.662628,16849,-31205,20716,-3009,-29385
1414593,-31.7734,-18.9875,4.03389,-94.7351,-21.8683,-132.264,-70.4956,75.6836,-256.348,0.151093,-0.40567,0.61026,-0.663391,28624,12827,23532,-3009,-29385
1414599,-34.9077,-18.064,2.94766,-94.7681,-22.923,-132.517,-34.6069,61.4014,-239.807,0.141418,-0.40976,0.608551,-0.664551,-24113,-10214,25836,-3009,-29385
1414605,-37.0945,-15.7527,2.01934,-94.6637,-23.8568,-132.704,-2.13623,46.814,-219.91,0.13327,-0.413513,0.606018,-0.66626,-9778,31002,26348,-3009,-29385
1414611,-39.8269,-8.42188,0.0287109,-94.4604,-24.6533,-132.83,36.377,16.7847,-162.964,0.121765,-0.419769,0.599243,-0.670624,6862,5658,25580,-3009,-29385
1414617,-40.4585,-3.31611,-0.177051,-93.999,-25.708,-132.902,35.4614,4.21143,-127.869,0.118408,-0.42215,0.595795,-0.672791,-18996,19737,19692,-3009,-29385
1414623,-40.8987,1.77529,0.435449,-93.8892,-25.9497,-132.863,18.4937,-7.20215,-91.7969,0.116455,-0.42395,0.593018,-0.6745,3788,-5608,15084,-3009,-29385
1414629,-40.6643,5.7709,1.26328,-93.9661,-25.9937,-132.775,-15.0146,-19.4092,-54.9927,0.11557,-0.425171,0.591339,-0.675354,29643,-29160,10220,-3009,-29385
1414635,-39.0421,6.97197,2.5792,-94.2682,-25.8508,-132.654,-56.7017,-29.1748,-19.3481,0.115509,-0.425903,0.591309,-0.674896,-7478,13336,6892,-3009,-29385
1414641,-35.2379,-18.9923,8.10127,-94.9384,-25.3839,-132.435,-42.9688,-60.791,92.4683,0.117737,-0.425812,0.597931,-0.668701,23754,-9193,5356,-3009,-29385
1414647,-32.0797,-17.0399,12.5993,-95.2515,-23.7689,-132.006,-2.2583,-55.4199,131.348,0.122589,-0.424011,0.601196,-0.666046,31177,16151,5356,-3034,-29382
1414653,-28.7492,-15.6857,13.5563,-95.0372,-22.7307,-131.819,47.9126,-58.3496,158.875,0.129181,-0.420776,0.603973,-0.664337,8137,-234,6124,-3034,-29382
1414659,-24.4139,-17.8438,16.3604,-94.4989,-21.6156,-131.655,107.971,-53.772,175.964,0.137543,-0.416595,0.605713,-0.663727,-11832,-14058,6380,-3034,-29382
1414665,-18.241,78.3521,29.156,-95.1141,-19.9237,-131.039,-95.0928,-153.748,281.555,0.147339,-0.411438,0.605927,-0.664642,-27704,-24298,6636,-3034,-29382
1414671,25.0503,23.7822,-28.577,-92.2742,-16.8091,-131.105,132.141,8.05664,290.955,0.175873,-0.397888,0.605774,-0.666107,26312,-31978,8684,-3034,-29382
1414677,11.7236,-2.21553,17.351,-92.3071,-14.9854,-131.704,-56.3354,92.041,326.599,0.187683,-0.38736,0.607361,-0.667603,15560,30742,11244,-3034,-29382
1414683,-3.35439,-15.5948,-4.92871,-92.5433,-13.1561,-132.155,-83.0078,65.6128,327.881,0.195068,-0.374908,0.615509,-0.665161,16328,-30954,11244,-3034,-29382
1414689,-3.11035,-27.8544,0.971387,-92.5104,-11.3434,-132.385,-16.6626,26.5503,324.585,0.202728,-0.363464,0.624054,-0.661255,21192,-23530,10220,-3034,-29382
1414695,-2.56963,-13.0635,8.52236,-91.8896,-9.60754,-132.72,99.5483,50.1709,311.584,0.212341,-0.352692,0.630127,-0.658295,28104,-15594,9964,-3034,-29382
1414701,-11.7619,-9.60381,8.68506,-91.6205,-6.41052,-133.369,-28.3813,42.0532,275.94,0.231049,-0.328918,0.636719,-0.657959,-26168,-5098,10220,-3034,-29382
1414707,-11.0202,-18.2027,-2.71797,-91.5985,-4.99878,-133.539,-10.376,27.1606,248.718,0.238556,-0.319122,0.641998,-0.654968,6345,22295,10476,-3034,-29382
1414713,-12.0442,-22.5094,0.191406,-91.2195,-3.7738,-133.781,62.1338,43.9453,211.731,0.245941,-0.310394,0.646149,-0.652344,26569,-27369,10220,-3034,-29382
1414719,-9.6708,-11.7667,-3.92861,-90.6372,-2.63672,-133.835,107.971,11.4136,195.374,0.252716,-0.301514,0.647827,-0.652252,-17207,-11497,10220,-3034,-29382
1414725,-3.5458,-8.9291,2.83281,-90.2307,-1.54907,-133.764,73.4863,-11.9019,185.303,0.260498,-0.293518,0.647552,-0.653076,4298,3864,9452,-3034,-29382
1414731,-8.28311,-10.4173,6.54131,-89.6539,0.302124,-134.176,46.9971,67.1997,145.874,0.273895,-0.280121,0.648743,-0.652313,27594,18968,7660,-3034,-29382
1414737,-15.2168,-3.27783,-1.30635,-89.3353,0.6427,-134.665,57.7393,102.478,36.8042,0.277802,-0.272675,0.650055,-0.652496,10699,-16360,4076,-3034,-29382
1414743,-12.3553,-5.70869,-5.80918,-89.3243,1.0437,-134.665,-3.72314,5.5542,48.9502,0.27771,-0.267181,0.650208,-0.654694,-30261,-1000,1516,-3034,-29382
1414749,-4.09609,-15.102,-0.382812,-89.2255,1.3678,-134.594,14.0381,-7.14111,35.6445,0.279968,-0.264893,0.651062,-0.653778,-6197,14105,-21,-3034,-29382
1414755,1.33506,-14.2215,1.43076,-88.8959,1.72485,-134.599,61.5234,7.50732,42.9077,0.28241,-0.263153,0.651123,-0.653381,16844,29209,-2581,-3034,-29382
1414761,-3.40225,-4.11523,-0.320605,-88.3356,2.40051,-134.824,33.3862,31.5552,38.9404,0.287323,-0.256744,0.648956,-0.655945,-27444,-21991,-4885,-3034,-29382
1414767,-4.60332,-8.46494,0.947461,-88.2532,2.71912,-134.835,13.1226,10.498,37.3535,0.28891,-0.253662,0.648956,-0.656464,13005,3354,-10261,-3026,-29383
1414773,-2.56006,-7.7998,0.923535,-88.0884,3.01025,-134.813,28.9917,4.63867,31.7993,0.290802,-0.251526,0.649231,-0.656158,31949,14874,-13077,-3026,-29383
1414779,-4.45977,-5.74219,2.28252,-87.9401,3.24646,-134.885,27.4048,22.644,21.0571,0.292877,-0.249512,0.648895,-0.656342,-15411,25626,-15381,-3026,-29383
1414785,-6.07236,-6.01016,1.55039,-87.8796,3.43872,-134.89,8.48389,8.91113,12.6953,0.294128,-0.247345,0.648712,-0.656799,1486,-29926,-16405,-3026,-29383
1414791,-1.53125,-11.1207,0.669922,-87.8192,3.75183,-134.802,5.37109,3.35693,6.16455,0.29657,-0.245422,0.648956,-0.656158,30670,-10726,-16661,-3026,-29383
1414797,-3.029,-10.9771,0.6125,-87.7423,3.90015,-134.808,13.3667,9.8877,5.98145,0.297638,-0.244568,0.648987,-0.655975,-21298,-1766,-14869,-3026,-29383
1414803,-3.34482,-9.56074,0.320605,-87.6544,4.04297,-134.769,14.8315,0.793457,6.7749,0.298584,-0.243439,0.648865,-0.656067,-8242,6427,-13077,-3026,-29383
1414809,-2.0624,-10.2881,1.49297,-87.594,4.18579,-134.709,8.97217,-2.2583,6.40869,0.299805,-0.242584,0.648621,-0.656097,4559,13595,-10005,-3026,-29383
1414815,-2.60313,-10.5561,1.0623,-87.5336,4.32312,-134.681,9.15527,3.41797,6.83594,0.301025,-0.241913,0.648468,-0.655945,17615,19995,-6677,-3026,-29383
1414821,-2.02891,-10.0249,2.03848,-87.3962,4.61975,-134.55,10.6201,-4.57764,9.8877,0.303345,-0.240387,0.648193,-0.655701,-24625,31771,-277,-3026,-29383
1414827,-2.36387,-9.36455,1.79922,-87.3413,4.76807,-134.506,8.23975,1.0376,10.8032,0.304688,-0.239746,0.647949,-0.655518,-13873,-28133,2284,-3026,-29383
1414833,-3.67979,-9.84307,2.7084,-87.3029,4.91638,-134.462,5.61523,0.183105,11.9629,0.305878,-0.238983,0.647888,-0.655334,-2609,-21989,5356,-3026,-29383
1414839,-3.4166,-8.21611,1.21064,-87.2589,5.07568,-134.396,4.82178,-2.50244,13.1836,0.307068,-0.23822,0.647888,-0.65506,7888,-16357,7148,-3026,-29383
1414845,-3.82812,-9.33105,2.63662,-87.2369,5.224,-134.33,1.89209,-2.80762,11.9019,0.30835,-0.237549,0.647858,-0.654694,18384,-10469,10476,-3026,-29383
1414851,-2.37822,-9.69473,1.59824,-87.2095,5.47668,-134.187,-1.70898,-4.76074,8.42285,0.31073,-0.236542,0.64798,-0.653839,-26416,540,18668,-3026,-29383
1414857,-2.2873,-10.3407,1.15322,-87.1985,5.60303,-134.116,-0.854492,-4.63867,8.91113,0.311859,-0.236206,0.648041,-0.653351,-16944,5148,23532,-3026,-29383
1414863,-2.87109,-10.135,1.12451,-87.171,5.72388,-134.044,2.62451,-3.54004,8.97217,0.312958,-0.23587,0.648102,-0.652893,-7984,10012,28140,-3026,-29383
1414869,-3.12949,-9.33105,1.71787,-87.1216,5.84473,-133.967,5.92041,-5.06592,9.09424,0.314087,-0.235443,0.648041,-0.652557,977,14364,32492,-3026,-29383
1414875,-3.38311,-8.80947,1.97627,-87.0941,5.96008,-133.907,2.74658,-2.38037,8.78906,0.315247,-0.235046,0.647888,-0.652283,10193,17948,-28948,-3026,-29383
1414881,-3.14863,-8.72334,1.27285,-87.0667,6.16882,-133.764,-2.62451,-3.84521,5.98145,0.317322,-0.234314,0.647797,-0.651642,19921,21788,-24340,-3026,-29383
1414887,-2.88545,-9.39326,1.37813,-87.0667,6.26221,-133.693,-3.2959,-3.84521,5.37109,0.318268,-0.234131,0.647858,-0.651184,-26671,27932,-14612,-3026,-29383
1414893,-3.07686,-9.55596,0.598145,-87.0667,6.36108,-133.632,-3.2959,-1.58691,5.85938,0.319183,-0.233948,0.647919,-0.650757,-17455,30492,-9748,-3026,-29383
1414899,-3.36396,-9.8335,0.851758,-87.0667,6.45447,-133.577,-2.13623,-1.0376,5.7373,0.320038,-0.233734,0.64801,-0.650299,-8495,-32484,-5140,-3026,-29383
1414905,-3.10078,-9.54639,0.727344,-87.0557,6.54785,-133.5,-0.488281,-5.00488,5.98145,0.320862,-0.23349,0.648102,-0.649902,-47,-30436,-276,-3026,-29383
1414911,-2.68926,-10.2402,0.799121,-87.0447,6.72363,-133.358,-1.52588,-1.34277,5.92041,0.322784,-0.233246,0.648071,-0.649078,8146,-28644,4333,-3026,-29383
1414917,-3.36396,-10.2307,0.200977,-87.0117,6.81702,-133.297,4.15039,-2.2583,7.01904,0.323608,-0.233032,0.648102,-0.648682,22482,-26596,13549,-3026,-29383
1414923,-3.21563,-9.95312,0.200977,-86.9623,6.9104,-133.215,7.99561,-4.94385,7.75146,0.324524,-0.232758,0.64801,-0.648438,29394,-25572,17389,-3026,-29383
1414929,-2.67012,-9.85742,0.29668,-86.9019,7.00378,-133.127,9.46045,-6.7749,8.11768,0.325592,-0.232513,0.647766,-0.648254,-29486,-24036,20461,-3026,-29383
1414935,-2.55527,-10.1397,0.655566,-86.8304,7.09717,-133.05,12.207,-5.43213,8.91113,0.326691,-0.232269,0.64743,-0.648071,-22574,-23012,22765,-3026,-29383
1414941,-3.19648,-9.77607,0.823047,-86.6492,7.28943,-132.88,17.7612,-6.5918,9.21631,0.328949,-0.231598,0.646667,-0.64798,-15150,-21988,25581,-3026,-29383
1414947,-2.78975,-9.17793,1.3207,-86.5338,7.38281,-132.781,20.4468,-9.15527,8.91113,0.33017,-0.231262,0.646118,-0.64801,467,-20708,30957,-3026,-29383
1414953,-2.60313,-9.01523,2.11982,-86.4294,7.4707,-132.693,18.9209,-6.53076,8.54492,0.331451,-0.230957,0.645477,-0.648102,7891,-20452,-31507,-3026,-29383
1414959,-2.69404,-8.68984,1.56475,-86.3306,7.55859,-132.605,17.334,-6.22559,8.42285,0.332611,-0.230621,0.644897,-0.648193,14803,-19940,-29203,-3026,-29383
1414965,-2.18682,-8.85732,1.84229,-86.2427,7.6355,-132.506,15.3198,-8.42285,7.26318,0.33374,-0.230286,0.644379,-0.648254,21715,-19428,-27411,-3026,-29383
1414971,-2.32559,-9.42197,1.5791,-86.0944,7.78931,-132.352,11.3525,-3.17383,7.56836,0.335968,-0.229889,0.643372,-0.648254,27859,-18916,-25363,-3026,-29383
1414977,-2.62227,-9.23535,1.53125,-86.0175,7.8717,-132.27,13.3667,-5.06592,8.54492,0.336914,-0.229614,0.643036,-0.648193,-26669,-17380,-24851,-3026,-29383
1414983,-2.23467,-8.82861,1.47861,-85.946,7.9541,-132.193,11.2915,-4.15039,9.09424,0.337952,-0.22937,0.642609,-0.648163,-21037,-16868,-25107,-3026,-29383
1414989,-2.65576,-9.43154,1.9332,-85.8801,8.04199,-132.122,11.6577,-3.479,9.39941,0.338959,-0.229095,0.642273,-0.648102,-15405,-16868,-26131,-3026,-29383
1414995,-2.68926,-8.96738,1.03359,-85.8087,8.12439,-132.039,12.0239,-5.67627,9.94873,0.339935,-0.22879,0.641907,-0.648041,-9261,-16868,-26643,-3026,-29383
1415001,-2.34951,-9.55596,1.37334,-85.6714,8.30017,-131.858,10.8643,-6.83594,10.6201,0.342102,-0.228302,0.641144,-0.647797,-3373,-16612,-26387,-3026,-29383
1415007,-2.50742,-9.68037,0.947461,-85.6,8.38806,-131.765,11.5356,-7.69043,11.2305,0.343201,-0.228088,0.640778,-0.647675,6612,-17124,-22547,-3034,-29382
1415013,-2.51699,-10.0967,1.25371,-85.5176,8.47595,-131.66,14.0381,-9.09424,12.2681,0.34433,-0.227875,0.640381,-0.647552,11476,-16612,-19731,-3034,-29382
1415019,-2.73232,-9.75693,1.41162,-85.4132,8.57483,-131.561,17.5171,-8.8501,13.6108,0.345551,-0.227661,0.639893,-0.64743,16084,-16100,-16403,-3034,-29382
1415025,-3.01465,-9.40762,1.33984,-85.3198,8.66821,-131.462,16.3574,-8.30078,13.3667,0.346832,-0.227325,0.639343,-0.64743,20692,-15076,-13843,-3034,-29382
1415031,-2.86631,-9.40283,1.6748,-85.1221,8.86597,-131.221,14.8315,-12.207,14.7705,0.349457,-0.226776,0.638214,-0.647308,31700,-13284,-11027,-3034,-29382
1415037,-2.65098,-9.42197,1.41641,-85.0287,8.97034,-131.111,15.8691,-10.437,15.2588,0.35083,-0.226562,0.637695,-0.647156,-28716,-12772,-10259,-3034,-29382
1415043,-2.98594,-9.46025,1.49297,-84.9353,9.06921,-131.001,15.9912,-9.76562,14.6484,0.352173,-0.226288,0.637177,-0.647064,-23084,-13028,-9747,-3034,-29382
1415049,-2.76582,-9.49854,1.45469,-84.8419,9.16809,-130.88,15.2588,-13.0005,15.5029,0.353455,-0.225983,0.636627,-0.646973,-18220,-12772,-8979,-3034,-29382
1415055,-2.41172,-10.1206,1.7418,-84.7485,9.27246,-130.759,15.686,-12.2681,16.1743,0.354858,-0.225769,0.636078,-0.64682,-13100,-13028,-7699,-3034,-29382
1415061,-2.53613,-10.1206,1.65088,-84.5343,9.48669,-130.54,19.104,-9.82666,17.7002,0.357605,-0.225189,0.634979,-0.646576,-2348,-13028,-3347,-3034,-29382
1415067,-2.43564,-9.77607,1.6748,-84.4244,9.59656,-130.435,19.165,-9.21631,18.6768,0.359009,-0.224792,0.634399,-0.646545,2773,-12516,-19,-3034,-29382
1415073,-3.04814,-10.135,1.69873,-84.3091,9.7229,-130.342,20.6909,-5.49316,20.2026,0.360413,-0.224335,0.63382,-0.646484,8149,-12004,3054,-3034,-29382
1415079,-3.34961,-9.86699,1.49297,-84.1827,9.84924,-130.237,22.3999,-8.42285,21.2402,0.361755,-0.223724,0.63327,-0.646484,13525,-11492,5358,-3034,-29382
1415085,-2.79453,-9.93398,1.60781,-84.0509,9.97559,-130.122,22.4609,-11.4746,21.9116,0.36322,-0.223145,0.632629,-0.646484,19413,-10724,8174,-3034,-29382
1415091,-2.7084,-10.8432,1.49297,-83.7762,10.2393,-129.902,26.7334,-8.23975,24.4141,0.366302,-0.222076,0.631317,-0.646393,32469,-7396,8174,-3034,-29382
1415097,-3.17734,-10.8623,1.53125,-83.606,10.3821,-129.792,30.6396,-9.0332,26.2451,0.367859,-0.221344,0.630585,-0.646484,-26667,-5092,8686,-3034,-29382
1415103,-3.38311,-10.6183,1.40684,-83.4302,10.5304,-129.677,32.3486,-10.0098,26.8555,0.369537,-0.22052,0.629761,-0.646606,-20523,-2788,9966,-3034,-29382
1415109,-3.64629,-11.2882,1.55996,-83.2379,10.6787,-129.551,35.7666,-11.2915,27.4048,0.371277,-0.219696,0.628876,-0.646759,-14635,-484,11502,-3042,-29381
1415115,-3.71328,-10.8384,0.789551,-83.0127,10.8325,-129.43,42.2363,-10.9253,28.0762,0.373108,-0.218811,0.627869,-0.646973,-7723,1309,11758,-3042,-29381
1415121,-2.03848,-10.2163,2.03369,-82.5018,11.1292,-129.133,47.3022,-17.2729,28.2593,0.376984,-0.216858,0.625336,-0.647827,5078,3869,8942,-3042,-29381
1415127,-1.78008,-11.0585,1.85664,-82.2491,11.283,-128.996,46.7529,-13.3057,30.1514,0.379089,-0.215942,0.623932,-0.648254,11222,4125,7150,-3042,-29381
1415133,-2.74189,-11.9533,1.55039,-81.9855,11.4532,-128.881,50.1099,-8.66699,32.5928,0.381104,-0.214905,0.62262,-0.648712,17110,4893,7150,-3042,-29381
1415139,-3.69414,-12.25,0.827832,-81.6669,11.6345,-128.732,60.1196,-13.6108,35.4614,0.383057,-0.213623,0.621307,-0.649231,23510,5661,6126,-3042,-29381
1415145,-1.75137,-14.1641,5.70391,-81.3428,11.8542,-128.568,60.9741,-16.6626,44.4336,0.387939,-0.210663,0.617981,-0.650452,29654,6685,5102,-3042,-29381
1415151,-0.421094,-15.0924,6.40254,-81.1121,12.5958,-128.342,9.27734,6.7749,81.2988,0.390686,-0.208832,0.617554,-0.649811,-20522,11293,1518,-3042,-29381
1415157,-1.65566,-15.523,3.65586,-81.0626,13.0682,-128.271,7.62939,10.8643,92.6514,0.393219,-0.206512,0.618011,-0.64859,-11818,13341,-1299,-3042,-29381
1415163,-1.98105,-14.2646,3.38789,-80.9637,13.5681,-128.194,16.9678,10.1318,100.037,0.395905,-0.203796,0.618683,-0.647156,-2602,15389,-4627,-3042,-29381
1415169,-1.79443,-12.1304,4.39756,-80.8594,14.101,-128.128,18.3105,13.916,106.506,0.398895,-0.200775,0.619141,-0.645844,7895,16925,-9747,-3042,-29381
1415175,-1.4499,-10.9006,4.61289,-80.8099,14.6503,-128.095,9.09424,20.874,109.131,0.404816,-0.194031,0.620544,-0.642883,17879,18461,-14611,-3042,-29381
1415181,-1.29199,-12.2021,5.50293,-80.8374,15.8588,-128.068,-8.17871,34.668,120.483,0.407776,-0.19043,0.621704,-0.640961,-23081,22557,-23315,-3042,-29381
1415187,-2.02412,-13.1353,5.80439,-80.8923,16.5125,-128.106,-7.93457,43.5791,128.296,0.410522,-0.186737,0.623322,-0.638702,-8233,24349,-27155,-3042,-29381
1415193,-2.69883,-13.073,3.70371,-80.9967,17.1991,-128.15,-18.8599,44.7998,134.583,0.413269,-0.182587,0.625092,-0.636414,8152,26141,-29715,-3042,-29381
1415199,-3.67021,-13.8865,3.12949,-81.1176,17.9407,-128.205,-19.4092,48.4009,145.02,0.416016,-0.178436,0.627228,-0.633698,25816,27421,-32275,-3042,-29381
1415205,-4.96699,-13.2788,2.73232,-81.2219,18.7262,-128.221,-19.7754,42.2363,155.762,0.422272,-0.169281,0.631714,-0.627563,-21032,28957,30701,-3042,-29381
1415211,-3.5793,-16.3604,0.91875,-81.546,20.4016,-128.282,-30.7617,49.9268,172.424,0.42572,-0.164673,0.634125,-0.624023,16857,31261,25581,-3042,-29381
1415217,-3.99082,-17.0064,0.425879,-81.7218,21.33,-128.276,-34.9121,39.2456,186.951,0.429108,-0.159576,0.636871,-0.620209,-28455,-32739,20973,-3042,-29381
1415223,-4.46934,-19.6861,1.26328,-81.8646,22.3187,-128.249,-28.6255,37.5977,199.524,0.433136,-0.154449,0.639587,-0.615906,-7207,-31971,16621,-3042,-29381
1415229,-5.27324,-19.0928,0.468945,-81.9415,23.3734,-128.177,-18.3716,30.0903,214.6,0.437531,-0.148926,0.642151,-0.611511,14810,-31459,12781,-3042,-29381
1415235,-3.675,-20.6814,1.08145,-82.002,24.472,-128.062,-18.7378,22.9492,226.318,0.447937,-0.136871,0.646454,-0.602142,-27942,-31971,9965,-3042,-29381
1415241,-4.24922,-22.4185,-1.0623,-82.0294,26.8671,-127.837,-7.99561,24.0479,252.319,0.453583,-0.130188,0.648468,-0.59726,19163,32029,5869,-3042,-29381
1415247,-3.98125,-23.8253,-1.31592,-81.925,28.158,-127.612,4.21143,8.36182,269.775,0.459534,-0.123169,0.65033,-0.592102,-20261,30493,3821,-3042,-29381
1415253,-2.27295,-24.8254,-1.45947,-81.7493,29.5312,-127.37,15.8691,8.17871,286.926,0.46637,-0.115784,0.651642,-0.586823,6876,28445,1517,-3042,-29381
1415259,-2.6749,-25.0455,-1.89492,-81.5076,30.9705,-127.128,28.9307,10.9253,302.246,0.473572,-0.107727,0.652618,-0.581451,-30244,26141,-1812,-3042,-29381
1415265,-2.48828,-25.0359,-0.334961,-81.1725,32.5085,-126.832,40.1001,6.46973,322.754,0.489075,-0.089386,0.653687,-0.570465,477,22301,-5908,-3042,-29381
1415271,-1.54561,-25.7154,1.66045,-80.3815,35.8264,-126.09,45.2271,3.84521,359.802,0.49765,-0.0794678,0.653778,-0.564362,-1827,12061,-18196,-3042,-29381
1415277,-0.952246,-27.3185,1.67959,-79.9146,37.6172,-125.645,45.7153,0.0610352,380.92,0.506378,-0.0688782,0.653809,-0.557892,31966,5149,-27156,-3042,-29381
1415283,-0.736914,-27.8305,3.07207,-79.3268,39.4958,-125.189,65.4907,5.24902,400.33,0.515564,-0.0577698,0.653656,-0.550873,2015,-2532,28140,-3042,-29381
1415289,-2.08633,-29.1033,3.9334,-78.6951,41.4679,-124.744,74.8901,17.395,418.823,0.524933,-0.0455627,0.653046,-0.543884,-26145,-11748,16876,-3042,-29381
1415295,-1.26328,-28.7971,2.0959,-77.135,45.6812,-123.574,80.9937,12.7563,460.51,0.543915,-0.0185242,0.651123,-0.5289,13024,-22500,3564,-3042,-29381
1415301,0.971387,-23.7296,-0.0191406,-76.2177,47.9114,-122.871,86.6699,15.3809,479.37,0.553864,-0.00415039,0.64975,-0.520508,29153,16412,-24853,-3042,-29381
1415307,-0.904395,-16.9873,0.77041,-75.4431,50.2075,-122.239,66.5894,38.5132,490.54,0.563873,0.0108948,0.648102,-0.511658,6626,-485,26603,-3042,-29381
1415313,-11.1207,-20.5331,1.3542,-74.9597,52.4982,-121.657,12.4512,52.7954,486.694,0.573212,0.0262756,0.647186,-0.50177,-14366,-19941,10731,-3042,-29381
1415319,-6.75664,-31.1131,1.31592,-73.9764,54.7559,-120.35,-8.05664,-23.6206,503.662,0.581848,0.0404663,0.647552,-0.490265,32227,23835,-4886,-3042,-29381
1415325,-1.40684,-21.605,3.24912,-71.3287,59.2987,-117.636,45.4712,16.8457,503.662,0.603271,0.066925,0.643555,-0.466187,14052,-486,-20758,-3042,-29381
1415331,-6.39775,-22.6481,2.07676,-69.8236,61.4905,-115.95,12.146,-8.60596,499.268,0.612274,0.0815125,0.641571,-0.454681,-18203,9754,9962,-3042,-29381
1415337,-3.88076,-28.8641,0.559863,-68.0054,63.5944,-113.906,6.89697,-21.7896,492.92,0.621765,0.0945435,0.639313,-0.442322,28902,-18919,-7447,-3034,-29382
1415343,-0.14834,-30.29,-3.38311,-65.7257,65.6104,-111.484,24.4751,-31.189,486.816,0.631195,0.106934,0.636597,-0.429871,11495,15897,-26135,-3034,-29382
1415349,3.98125,-26.4428,-4.55547,-62.8857,67.4945,-108.583,39.7339,-45.0439,475.708,0.64035,0.119415,0.633118,-0.417999,-5145,-17896,22505,-3034,-29382
1415355,4.65596,-20.1742,-7.54141,-56.272,70.8398,-101.904,40.8936,-49.4995,437.256,0.657104,0.143738,0.624939,-0.396088,25065,-25321,-10008,-3034,-29382
1415361,10.5943,-11.1063,-11.6375,-51.9379,72.1198,-97.6355,62.3779,-74.8901,406.677,0.664917,0.154816,0.620392,-0.385895,6378,-234,-26648,-3034,-29382
1415367,14.2406,-4.37842,-12.4175,-47.3126,73.158,-93.3124,104.919,-68.4814,367.92,0.672516,0.165192,0.614838,-0.377258,-14614,26390,21480,-3034,-29382
1415373,11.2547,21.4088,-6.41689,-42.3193,73.894,-88.8409,144.409,-83.0078,327.515,0.678711,0.175812,0.608978,-0.370789,27371,-15083,2536,-3034,-29382
1415379,-1.07666,38.5014,-4.24443,-39.8639,74.0973,-86.6107,67.688,-59.9976,163.086,0.684143,0.186279,0.602264,-0.366638,2796,7701,-17433,-3034,-29382
1415385,10.7188,6.42168,-4.55068,-39.5673,72.9987,-85.7318,-61.4014,-100.464,-54.3823,0.690094,0.187317,0.5961,-0.36499,9453,-11245,6375,-3034,-29382
1415391,6.31162,5.33066,-3.40703,-41.3855,72.1417,-87.16,-86.6089,-89.1724,-131.165,0.691315,0.181335,0.595306,-0.366974,-25619,16403,-13850,-3034,-29382
1415397,8.28311,1.13408,-2.13418,-43.6871,71.0156,-88.9014,-126.404,-107.666,-188.171,0.691132,0.172791,0.595886,-0.370514,750,-16622,32230,-3034,-29382
1415403,11.8002,-5.75176,-1.76094,-46.3513,69.7906,-90.9503,-142.151,-92.8345,-224.792,0.690674,0.161285,0.596954,-0.374817,23534,19986,13798,-3034,-29382
1415409,11.3647,-11.226,-2.56484,-49.0814,68.5437,-93.1311,-134.521,-71.4722,-242.737,0.689178,0.14859,0.598907,-0.379669,-23058,-3311,-2843,-3034,-29382
1415415,9.72822,-14.9488,-2.53135,-53.8,65.9894,-97.0203,-101.013,-58.6548,-247.253,0.683502,0.123871,0.60379,-0.390869,2543,32529,-32283,-3034,-29382
1415421,8.79033,-14.6856,-1.871,-55.7886,64.7314,-98.7341,-81.8481,-49.3774,-242.676,0.680023,0.112396,0.605957,-0.397003,9967,25361,20709,-3034,-29382
1415427,8.07256,-13.7621,-1.24414,-57.5189,63.501,-100.278,-65.0635,-44.6777,-235.168,0.676147,0.101746,0.607971,-0.403381,14063,23057,9445,-3034,-29382
1415433,7.929,-11.8576,-0.799121,-59.0735,62.298,-101.722,-48.9502,-35.7666,-228.943,0.672089,0.0918579,0.60968,-0.409882,15599,22801,-540,-3034,-29382
1415439,7.68975,-9.94355,-0.593359,-60.5017,61.1279,-103.123,-36.1938,-25.8789,-225.403,0.667725,0.0827942,0.611298,-0.416534,14831,26385,-9500,-3034,-29382
1415445,7.37871,-6.21592,-0.990527,-63.111,58.7659,-105.837,-17.6392,-10.437,-230.53,0.65799,0.0663452,0.614349,-0.430267,4591,-24303,-23324,-3034,-29382
1415451,7.37393,-4.33057,-0.880469,-64.3799,57.5464,-107.216,-14.4043,-0.488281,-239.258,0.652496,0.0585938,0.615875,-0.4375,-4114,-13039,-29724,-3034,-29382
1415457,6.99111,-2.99072,-0.952246,-65.6653,56.283,-108.633,-15.3809,9.76562,-251.343,0.646484,0.0508728,0.617554,-0.444946,-15122,530,29924,-3017,-29384
1415463,6.68486,-2.11982,-1.17236,-66.9836,54.9481,-110.072,-20.5688,17.8833,-266.418,0.639862,0.0429993,0.619476,-0.452606,-26386,14354,25060,-3017,-29384
1415469,6.50303,-1.82314,-1.62695,-68.3514,53.5364,-111.544,-28.5034,27.4048,-283.325,0.632599,0.034729,0.621704,-0.460419,26606,29458,20196,-3017,-29384
1415475,6.06279,-2.15811,-2.3543,-71.153,50.4492,-114.45,-50.1709,38.7573,-317.2,0.615997,0.0166016,0.627075,-0.47641,-4371,-1518,13028,-3017,-29384
1415481,5.61299,-3.029,-2.56963,-72.5647,48.7793,-115.856,-61.0352,43.8232,-332.336,0.60672,0.00656128,0.630127,-0.484406,-21779,17427,10724,-3017,-29384
1415487,5.42637,-4.1583,-2.66533,-73.96,47.038,-117.202,-71.7773,47.3022,-344.543,0.596863,-0.00405884,0.633423,-0.49234,24045,-26861,10212,-3017,-29384
1415493,5.16797,-5.55078,-2.79932,-75.3278,45.2417,-118.493,-79.7119,51.7578,-353.882,0.586487,-0.0151978,0.636871,-0.500122,3053,-3821,11492,-3017,-29384
1415499,4.51719,-6.75664,-2.85195,-76.6516,43.407,-119.713,-85.7544,55.2979,-359.863,0.575592,-0.0267029,0.640381,-0.507721,-17428,18708,13028,-3017,-29384
1415505,3.72764,-9.10137,-2.84717,-79.118,39.6606,-121.899,-94.2383,57.0679,-363.159,0.552734,-0.0503235,0.647369,-0.522247,1004,2837,21988,-3017,-29384
1415511,3.07686,-9.89092,-2.52656,-80.2606,37.782,-122.877,-98.0835,58.7769,-361.389,0.541016,-0.0622253,0.650696,-0.529053,-26133,29717,28900,-3017,-29384
1415517,2.26338,-10.4221,-2.64141,-81.3538,35.9143,-123.772,-102.234,58.5327,-357.605,0.529114,-0.0740967,0.653931,-0.535522,9707,-8427,-28188,-3017,-29384
1415523,1.14844,-10.6135,-2.81846,-82.392,34.0631,-124.574,-106.628,55.7251,-353.088,0.517181,-0.085907,0.657043,-0.541565,-22550,19734,-18716,-3017,-29384
1415529,0.0574219,-10.4843,-3.10078,-83.3862,32.2229,-125.294,-111.816,52.3682,-349.182,0.49353,-0.109558,0.662781,-0.552307,8938,-17386,-6940,-3017,-29384
1415535,-2.44043,-10.5465,-2.94287,-85.2924,28.5754,-126.425,-129.517,36.9263,-341.98,0.481873,-0.121521,0.665375,-0.556915,6377,-29417,19429,-3017,-29384
1415541,-3.26348,-11.2212,-2.39736,-86.2317,26.7792,-126.843,-141.418,29.4189,-339.172,0.47049,-0.133789,0.667847,-0.560883,-30744,-2025,-29979,-3017,-29384
1415547,-4.2875,-12.1064,-1.84707,-87.182,24.9939,-127.167,-153.687,22.3389,-336.06,0.459259,-0.146301,0.670258,-0.564209,-3865,24600,-12059,-3017,-29384
1415553,-5.40723,-13.3123,-1.27285,-88.1378,23.2251,-127.403,-165.1,13.7329,-334.29,0.448181,-0.159088,0.672607,-0.566833,21223,-14312,7398,-3017,-29384
1415559,-6.45518,-14.8483,-1.10537,-89.0881,21.4618,-127.54,-173.401,4.02832,-334.534,0.426636,-0.185547,0.67688,-0.570343,-21530,11801,27878,-3017,-29384
1415565,-8.46494,-17.5711,-0.660352,-90.8514,17.9132,-127.496,-169.983,-21.1182,-342.896,0.416168,-0.199219,0.678467,-0.571564,25061,-5863,4071,-3017,-29384
1415571,-9.07744,-18.6765,-0.090918,-91.626,16.1115,-127.31,-161.133,-35.0952,-349.976,0.406067,-0.213196,0.679413,-0.572662,-20252,16666,27623,-3009,-29385
1415577,-9.61338,-19.5665,0.421094,-92.3071,14.2932,-127.018,-148.682,-49.7437,-356.628,0.396271,-0.227478,0.679565,-0.573822,-2333,-27366,-13849,-3009,-29385
1415583,-10.0058,-20.0163,1.21064,-92.8839,12.4695,-126.623,-131.531,-63.7817,-362.854,0.386871,-0.242004,0.678894,-0.575104,13283,-7654,10472,-3009,-29385
1415589,-10.5704,-20.9973,2.52656,-93.3893,10.6567,-126.151,-118.164,-76.0498,-363.281,0.369476,-0.271271,0.674835,-0.578247,27362,9755,-29208,-3009,-29385
1415595,-10.9341,-20.9446,2.60313,-94.2188,7.17407,-125.019,-93.6279,-92.7734,-350.647,0.361511,-0.285706,0.671844,-0.579803,-8992,-25573,17897,-3009,-29385
1415601,-10.8432,-19.9015,2.77539,-94.5703,5.53162,-124.387,-85.022,-100.464,-339.05,0.354156,-0.299744,0.668304,-0.58136,3808,-13797,-22039,-3009,-29385
1415607,-9.91963,-18.7435,3.03379,-94.9274,3.98254,-123.728,-83.4961,-104.919,-324.463,0.347412,-0.313354,0.664429,-0.582703,15071,-4325,2794,-3009,-29385
1415613,-8.9291,-18.1501,3.01465,-95.3174,2.51587,-123.074,-87.0361,-103.882,-309.753,0.341156,-0.326508,0.660461,-0.583679,25310,2844,29930,-3009,-29385
1415619,-7.1873,-17.6524,3.08643,-95.7404,1.13708,-122.437,-91.7358,-100.647,-294.495,0.329376,-0.351196,0.653168,-0.58432,-31267,8220,-10006,-3009,-29385
1415625,-6.34033,-17.9491,3.79941,-96.7072,-1.37878,-121.273,-102.539,-83.1299,-264.587,0.323669,-0.36264,0.650024,-0.584015,-12069,13852,-28437,-3009,-29385
1415631,-5.74697,-17.8965,4.52197,-97.2345,-2.53235,-120.795,-106.995,-67.0166,-251.404,0.317932,-0.373352,0.647278,-0.583466,-1830,13596,-7189,-3009,-29385
1415637,-5.46465,-17.5807,5.34023,-97.7838,-3.64746,-120.416,-111.572,-46.3257,-241.394,0.311981,-0.38324,0.644989,-0.582825,8410,11804,13292,-3009,-29385
1415643,-5.36895,-17.1261,6.07236,-98.3496,-4.72961,-120.152,-116.272,-22.3389,-233.276,0.305634,-0.392303,0.643127,-0.582184,18393,8476,-32532,-3009,-29385
1415649,-6.33076,-17.0064,6.57002,-98.9209,-5.80078,-120.015,-120.056,5.06592,-229.187,0.291107,-0.407867,0.6409,-0.581421,28632,3100,-12308,-3009,-29385
1415655,-7.35479,-17.5376,6.52217,-100.014,-7.97607,-120.13,-118.286,60.1196,-225.83,0.282745,-0.414398,0.64035,-0.581512,-14378,-9957,29421,-3009,-29385
1415661,-9.06309,-17.662,6.29248,-100.486,-9.09119,-120.377,-112.305,85.5713,-225.525,0.273682,-0.420105,0.639984,-0.582184,-1579,-18405,-15635,-3009,-29385
1415667,-10.8623,-17.528,6.14893,-100.904,-10.2228,-120.723,-105.957,107.605,-226.013,0.264008,-0.424957,0.639709,-0.583405,13269,-29157,2798,-3009,-29385
1415673,-12.7285,-16.9251,5.9623,-101.261,-11.3818,-121.152,-99.1821,126.282,-229.004,0.253876,-0.429077,0.639465,-0.585144,30420,23579,17646,-3009,-29385
1415679,-15.2503,-14.4225,6.79971,-101.558,-12.5739,-121.652,-92.3462,140.198,-233.337,0.232269,-0.435791,0.638611,-0.590088,-17453,9499,30446,-3009,-29385
1415685,-15.078,-12.3648,9.78564,-101.959,-15.0293,-122.789,-76.7212,159.241,-240.54,0.220978,-0.438599,0.637817,-0.593201,19410,-21478,-14354,-3009,-29385
1415691,-14.5325,-9.92441,13.1257,-102.118,-16.2323,-123.442,-81.665,169.861,-232.849,0.209595,-0.44104,0.63678,-0.596588,-25647,28698,-5906,-3034,-29382
1415697,-17.3845,-10.1015,14.633,-102.299,-17.3914,-124.217,-97.1069,190.063,-221.191,0.198029,-0.442902,0.636047,-0.599945,-4912,12058,1263,-3034,-29382
1415703,-22.2414,-12.829,14.5277,-102.48,-18.479,-125.041,-104.065,194.092,-205.078,0.185913,-0.443939,0.636017,-0.603088,15824,-5863,5103,-3034,-29382
1415709,-29.9024,-25.9355,14.2741,-102.645,-19.4458,-125.837,-60.2417,169.922,-156.982,0.162964,-0.444214,0.637024,-0.608429,-27441,-24551,7407,-3034,-29382
1415715,-31.4385,-24.4904,8.25918,-102.25,-20.9344,-127.299,3.17383,148.743,-134.827,0.153839,-0.443359,0.636932,-0.611542,21454,1817,4591,-3034,-29382
1415721,-30.869,-21.5858,3.89033,-101.618,-21.5002,-127.881,67.3218,122.314,-121.216,0.147156,-0.441956,0.635376,-0.615784,-15667,-16360,1775,-3034,-29382
1415727,-31.448,-16.7289,-0.684277,-100.69,-22.0166,-128.381,133.484,104.37,-116.577,0.142792,-0.440369,0.632233,-0.621155,14541,30744,-3090,-3034,-29382
1415733,-34.3048,-12.5275,-3.30654,-99.5691,-22.4615,-128.793,178.955,82.7637,-109.619,0.14032,-0.43869,0.627258,-0.627899,-19764,13336,-9490,-3034,-29382
1415739,-38.6688,-4.84736,-4.67988,-98.3936,-22.8131,-129.073,188.721,26.6113,-74.9512,0.140167,-0.435669,0.614349,-0.642639,12492,-3817,-17938,-3034,-29382
1415745,-39.2239,-0.985742,-5.33545,-96.4819,-23.0109,-129.265,156.189,-1.64795,-39.3066,0.142059,-0.434448,0.608215,-0.648865,17867,27159,26094,-3034,-29382
1415751,-37.2094,3.10557,-2.0624,-95.8942,-22.7802,-129.216,111.206,-21.7896,3.05176,0.145081,-0.433197,0.603546,-0.653381,-8758,10007,12014,-3034,-29382
1415757,-34.2139,3.94297,1.8375,-95.6415,-22.2968,-129.1,49.0112,-38.6353,50.9644,0.149017,-0.43161,0.60083,-0.656036,-32310,-6122,-1299,-3034,-29382
1415763,-30.8403,0.200977,6.69922,-95.6305,-21.5717,-128.974,0.854492,-46.814,99.1211,0.153625,-0.429626,0.600708,-0.656403,11978,-20970,-15123,-3034,-29382
1415769,-15.8867,-46.1433,71.4137,-96.048,-20.5774,-128.738,90.0269,-32.1045,328.369,0.164886,-0.424072,0.607788,-0.650726,-6711,31766,-28179,-3034,-29382
1415775,-35.6542,-0.870898,24.0071,-94.0704,-16.9739,-129.205,244.812,33.5693,320.679,0.177795,-0.414154,0.611359,-0.65036,30921,15126,17389,-3034,-29382
1415781,16.1834,18.1022,7.996,-93.2465,-15.2545,-129.095,155.09,-54.6265,304.81,0.191498,-0.401245,0.610687,-0.655212,22217,12054,8685,-3034,-29382
1415787,17.8104,2.71797,12.7381,-93.1531,-13.3813,-129.705,-30.3955,86.853,345.276,0.205414,-0.391907,0.611298,-0.656067,16585,10518,749,-3034,-29382
1415793,-13.097,-18.1932,1.33506,-92.9828,-11.673,-130.743,-28.5645,174.683,318.787,0.21344,-0.378998,0.618927,-0.6539,16073,12822,-7700,-3034,-29382
1415799,1.24414,-12.0395,7.87637,-92.1918,-8.32214,-130.995,94.1772,3.23486,297.729,0.228424,-0.354279,0.631012,-0.651184,20169,17942,-16916,-3034,-29382
1415805,-7.67061,-6.19678,7.83809,-91.9226,-6.8335,-131.418,26.6113,66.1621,269.653,0.239197,-0.343811,0.632996,-0.651001,-24887,-29930,25580,-3034,-29382
1415811,-12.4988,-12.6807,7.56533,-91.8347,-5.41626,-131.567,-0.854492,15.1978,254.578,0.246338,-0.332977,0.636993,-0.650055,-10551,-17386,14572,-3034,-29382
1415817,-6.90498,-16.3796,-0.373242,-91.7468,-4.10889,-131.627,1.15967,-0.732422,232.727,0.254028,-0.32428,0.640869,-0.647675,4554,-4586,4076,-3034,-29382
1415823,-7.9625,-17.2122,0.105273,-91.3898,-2.94983,-131.841,54.6875,32.4707,205.139,0.261536,-0.31665,0.644135,-0.645233,22474,9495,-4373,-3034,-29382
1415829,-4.83301,-10.4938,2.2251,-90.5328,-0.86792,-131.962,68.1152,-3.05176,173.584,0.274811,-0.300629,0.646301,-0.645203,-22582,23575,-11029,-3034,-29382
1415835,-1.45947,-9.52725,5.04355,-90.1373,-0.0439453,-132.155,66.5283,35.8276,139.282,0.281494,-0.294006,0.646637,-0.64502,22475,-14569,-19733,-3034,-29382
1415841,-11.8815,-6.57959,11.0011,-89.7363,0.571289,-132.682,68.1152,103.516,98.6938,0.286072,-0.287323,0.647003,-0.64566,-18997,-745,-24341,-3034,-29382
1415847,-16.1882,-2.62705,-4.87129,-89.5386,0.878906,-132.929,28.1982,47.1191,35.2783,0.287598,-0.279785,0.647583,-0.647705,4812,12824,-28181,-3034,-29382
1415853,-8.29268,-10.9006,-1.92363,-89.5825,1.17554,-132.924,-20.2637,-2.86865,32.5317,0.288422,-0.276154,0.647827,-0.648651,27596,25880,31979,-3034,-29382
1415859,1.16758,-11.4509,2.33516,-88.9838,1.8457,-133.006,68.9087,21.8506,45.2271,0.292419,-0.2724,0.648285,-0.64798,-15924,-27112,26859,-3034,-29382
1415865,-2.17725,-4.56504,2.43564,-88.6652,2.1698,-133.16,54.7485,30.1514,40.7104,0.294678,-0.268799,0.647186,-0.649597,24781,-4840,17643,-3034,-29382
1415871,-3.47881,-5.2876,-0.0239258,-88.5773,2.47192,-133.259,8.66699,20.5078,36.1938,0.296387,-0.265259,0.646515,-0.65094,-22323,5401,13291,-3034,-29382
1415877,-3.58887,-9.99141,0.200977,-88.4949,2.75757,-133.303,8.42285,9.33838,34.668,0.297668,-0.262726,0.646942,-0.650909,-5171,14617,10475,-3034,-29382
1415883,-3.27783,-9.38369,-0.062207,-88.3191,3.03223,-133.358,26.9165,12.4512,31.9214,0.299225,-0.26059,0.647247,-0.650787,10446,23321,7147,-3034,-29382
1415889,-4.78516,-6.03887,1.33506,-87.9675,3.47717,-133.445,22.3999,5.24902,17.2729,0.302246,-0.25589,0.646606,-0.651886,26062,31257,4331,-3034,-29382
1415895,-3.675,-6.97197,1.04316,-87.8796,3.63098,-133.445,10.498,0.732422,8.66699,0.303558,-0.254211,0.646271,-0.652283,-11570,-19431,491,-3034,-29382
1415901,-2.56963,-9.09658,1.19629,-87.8082,3.76831,-133.429,5.85938,-2.13623,6.53076,0.304596,-0.253082,0.646088,-0.652405,2511,-12519,-534,-3034,-29382
1415907,-2.11982,-9.77129,1.32549,-87.7203,3.91113,-133.434,10.8032,3.41797,7.01904,0.305603,-0.252197,0.645996,-0.652374,16079,-6119,-1302,-3034,-29382
1415913,-3.43574,-9.21143,0.47373,-87.6324,4.03198,-133.473,11.7188,8.36182,3.96729,0.306488,-0.251068,0.645844,-0.652527,29647,-231,-22,-3034,-29382
1415919,-1.49297,-10.6948,2.05762,-87.4951,4.24072,-133.423,5.67627,-3.17383,1.28174,0.308075,-0.249237,0.645416,-0.652893,-11825,10266,1771,-3034,-29382
1415925,-2.39258,-10.5082,0.583789,-87.4347,4.34509,-133.429,6.28662,2.86865,2.92969,0.308868,-0.248596,0.645264,-0.652924,-1073,15130,2795,-3026,-29383
1415931,-3.16299,-11.0681,1.35898,-87.3688,4.46594,-133.401,6.95801,-2.50244,5.92041,0.30957,-0.247772,0.645172,-0.653015,8912,19482,4075,-3026,-29383
1415937,-2.53135,-9.53203,1.35898,-87.2754,4.59229,-133.369,12.085,-4.76074,7.87354,0.310486,-0.24704,0.64502,-0.653015,18128,23322,4843,-3026,-29383
1415943,-2.91895,-9.56553,2.52656,-87.215,4.72412,-133.347,6.22559,-1.58691,9.09424,0.311584,-0.246246,0.644684,-0.653076,26832,26394,5867,-3026,-29383
1415949,-1.95234,-9.02002,1.88535,-87.1216,4.97681,-133.259,2.19727,-7.20215,9.64355,0.313568,-0.244751,0.644531,-0.652863,-22320,31770,7915,-3026,-29383
1415955,-2.45479,-9.90527,1.95234,-87.0996,5.10315,-133.226,-1.28174,-3.23486,9.58252,0.314636,-0.244171,0.64447,-0.652649,-14128,-30950,9195,-3026,-29383
1415961,-3.01943,-10.0297,1.36855,-87.0612,5.22949,-133.209,1.77002,-0.488281,9.94873,0.315552,-0.243561,0.644531,-0.652344,-5936,-28134,10731,-3026,-29383
1415967,-3.00029,-9.52246,1.87578,-87.0117,5.35034,-133.171,4.27246,-4.57764,9.58252,0.316376,-0.242798,0.644592,-0.652191,2001,-25062,12779,-3026,-29383
1415973,-2.75146,-9.40283,1.61738,-86.9843,5.46021,-133.132,-0.244141,-5.06592,8.72803,0.317352,-0.242157,0.644501,-0.652039,10193,-22502,14315,-3026,-29383
1415979,-2.67012,-9.24492,1.95234,-86.9183,5.68542,-133.061,0.183105,-1.64795,8.60596,0.319183,-0.241119,0.64447,-0.651581,17361,-20198,17643,-3026,-29383
1415985,-3.16777,-9.24971,1.57432,-86.9019,5.78979,-133.044,-1.34277,-0.732422,7.87354,0.319946,-0.24054,0.644501,-0.651367,31697,-16870,23531,-3026,-29383
1415991,-2.86152,-9.21143,0.971387,-86.8854,5.88867,-133.006,-3.23486,-4.63867,7.08008,0.320679,-0.23996,0.644562,-0.651154,-26927,-15846,27627,-3026,-29383
1415997,-2.46914,-9.88613,1.16279,-86.8799,5.98206,-132.973,-3.96729,-3.479,6.95801,0.321442,-0.239563,0.644653,-0.650818,-19759,-14822,31723,-3026,-29383
1416003,-2.44043,-10.068,0.856543,-86.8744,6.08093,-132.946,-3.17383,-1.89209,8.05664,0.322174,-0.239166,0.644745,-0.650513,-12847,-13542,-30485,-3026,-29383
1416009,-2.38779,-9.97227,0.727344,-86.8414,6.28418,-132.891,-0.549316,-1.0376,9.09424,0.323608,-0.23822,0.644958,-0.649963,-5679,-12262,-26901,-3026,-29383
1416015,-3.00029,-9.92441,0.397168,-86.8195,6.38306,-132.863,0,-1.89209,9.0332,0.32431,-0.237701,0.64502,-0.649719,7634,-9446,-20245,-3026,-29383
1416021,-2.81846,-10.1397,0.272754,-86.792,6.49292,-132.825,0.427246,-4.39453,11.6577,0.325043,-0.237213,0.645081,-0.649506,13778,-8422,-17429,-3026,-29383
1416027,-2.59355,-10.4364,0.129199,-86.759,6.60828,-132.792,2.99072,-2.74658,12.207,0.325928,-0.236725,0.645111,-0.6492,20434,-7910,-13845,-3026,-29383
1416033,-2.74189,-10.4556,-0.507227,-86.7041,6.71814,-132.753,7.38525,-3.54004,13.1226,0.326782,-0.236145,0.645081,-0.648987,26578,-7142,-10773,-3026,-29383
1416039,-2.41172,-10.4508,0.239258,-86.5228,6.95984,-132.654,18.0054,-5.12695,15.625,0.328796,-0.234894,0.644684,-0.648834,32722,-6118,-8213,-3026,-29383
1416045,-2.73711,-9.51289,0.756055,-86.3965,7.08618,-132.616,22.3389,-2.86865,15.8691,0.329926,-0.234131,0.644257,-0.648956,-20014,-4326,-2069,-3034,-29382
1416051,-3.20127,-9.25449,0.875684,-86.2811,7.20154,-132.567,20.813,-5.18799,15.5029,0.331055,-0.233246,0.643738,-0.6492,-14382,-4326,492,-3034,-29382
1416057,-3.15342,-9.31191,0.966602,-86.1603,7.31689,-132.512,21.1182,-6.89697,14.7705,0.332214,-0.232483,0.643219,-0.649414,-9006,-3558,2540,-3034,-29382
1416063,-3.12949,-9.19707,1.11973,-86.0339,7.42676,-132.451,22.0337,-7.32422,13.5498,0.333374,-0.23175,0.6427,-0.649597,-4142,-3302,5356,-3034,-29382
1416069,-2.29209,-8.93389,1.89971,-85.7758,7.62451,-132.314,22.3999,-9.82666,11.8408,0.335724,-0.230469,0.641449,-0.650085,1491,-2790,7148,-3034,-29382
1416075,-1.90928,-8.95303,2.30166,-85.6604,7.7179,-132.259,19.9585,-6.04248,11.9629,0.336884,-0.229919,0.640778,-0.65033,13011,-1766,9964,-3034,-29382
1416081,-2.44521,-8.74727,2.0002,-85.5615,7.81677,-132.22,17.8833,-3.54004,12.2681,0.337921,-0.229279,0.640259,-0.650543,18899,-1510,11500,-3034,-29382
1416087,-2.76104,-9.1875,1.73223,-85.4736,7.91565,-132.171,14.1602,-4.88281,12.5732,0.338867,-0.228638,0.639801,-0.650726,24275,-1510,13036,-3034,-29382
1416093,-2.74668,-9.52246,1.42119,-85.3857,8.01453,-132.122,15.1978,-5.61523,13.0005,0.339813,-0.228058,0.639435,-0.650787,30419,-1766,15852,-3034,-29382
1416099,-3.73242,-9.95312,0.62207,-85.1935,8.22876,-132.017,16.8457,-7.20215,15.3198,0.341736,-0.226807,0.638672,-0.65094,-29229,-2278,18156,-3034,-29382
1416105,-3.26826,-10.2737,0.803906,-85.0781,8.33862,-131.918,19.104,-14.9536,16.7847,0.342865,-0.226196,0.638245,-0.651001,-17709,-3558,21484,-3034,-29382
1416111,-2.24902,-9.55117,0.933105,-84.9463,8.44849,-131.803,23.0713,-17.2119,17.0898,0.344238,-0.225739,0.637634,-0.651031,-11821,-4326,21996,-3034,-29382
1416117,-2.34473,-9.74736,1.42119,-84.8145,8.55835,-131.715,22.3389,-12.6953,16.7236,0.345703,-0.225281,0.636902,-0.651123,-5677,-4838,22252,-3034,-29382
1416123,-2.93809,-9.69473,1.13887,-84.6881,8.67371,-131.627,21.8506,-12.5732,17.395,0.347046,-0.224731,0.63623,-0.651276,468,-5350,22252,-3034,-29382
1416129,-2.53135,-9.39326,1.73223,-84.386,8.90991,-131.418,27.4048,-14.4043,19.8364,0.349884,-0.223633,0.634796,-0.65152,12756,-5862,23532,-3034,-29382
1416135,-2.94287,-9.29756,2.07197,-84.2432,9.03076,-131.325,25.6348,-12.207,19.165,0.351379,-0.222961,0.634003,-0.651733,18388,-5862,25068,-3034,-29382
1416141,-3.15342,-9.69951,1.54082,-84.1058,9.15161,-131.232,24.292,-12.8174,20.1416,0.352783,-0.22229,0.63327,-0.651917,23764,-5350,25836,-3034,-29382
1416147,-2.88545,-10.068,1.27285,-83.9575,9.27246,-131.127,25.7568,-15.2588,20.3857,0.354218,-0.221649,0.632568,-0.652039,29396,-4838,26348,-3034,-29382
1416153,-2.14375,-9.97227,1.25371,-83.7872,9.3988,-131.023,29.7852,-14.2822,21.3013,0.355713,-0.221039,0.631775,-0.652191,-30508,-4326,26860,-3034,-29382
1416159,-2.50264,-10.2977,1.6748,-83.4467,9.65698,-130.853,30.5786,-11.6577,23.1323,0.358704,-0.219452,0.630066,-0.65274,-18476,-3558,27116,-3034,-29382
1416165,-2.15811,-10.3838,1.44033,-83.2709,9.79431,-130.765,32.959,-11.1084,23.8037,0.360199,-0.218628,0.629242,-0.652985,-12076,-3046,26860,-3034,-29382
1416171,-2.67969,-9.57988,1.5791,-83.0731,9.93164,-130.682,36.8042,-9.39941,24.4141,0.361725,-0.217712,0.628357,-0.65332,-6700,-3046,26860,-3042,-29381
1416177,-3.11992,-9.2832,1.79443,-82.8699,10.069,-130.616,37.2925,-6.71387,24.292,0.363251,-0.216675,0.62738,-0.653748,-1324,-3302,26860,-3042,-29381
1416183,-3.58408,-9.32627,1.89014,-82.6776,10.2008,-130.54,36.0718,-8.8501,23.7427,0.364685,-0.215576,0.626434,-0.654205,3797,-3302,25836,-3042,-29381
1416189,-2.22031,-9.78564,2.08154,-82.2931,10.47,-130.325,34.729,-12.8784,24.5972,0.367859,-0.213715,0.624451,-0.654968,14549,-4070,23020,-3042,-29381
1416195,-2.8376,-10.4651,1.57432,-82.1063,10.6073,-130.254,34.6069,-7.44629,25.4517,0.369446,-0.21283,0.623474,-0.655273,20437,-4070,22252,-3042,-29381
1416201,-3.94297,-10.7331,1.01445,-81.9031,10.7556,-130.161,37.1704,-10.8032,27.0996,0.37088,-0.211761,0.622589,-0.65564,26325,-4326,21484,-3042,-29381
1416207,-3.97646,-10.5656,1.42598,-81.6614,10.9094,-130.034,44.5557,-16.9067,28.9307,0.372498,-0.210724,0.621613,-0.655975,32469,-4582,20716,-3042,-29381
1416213,-3.10557,-9.60381,1.94756,-81.4087,11.0632,-129.908,46.936,-17.0898,30.3345,0.37439,-0.209656,0.620331,-0.656464,-26155,-5094,20716,-3042,-29381
1416219,-2.08154,-11.1829,4.81865,-81.0956,11.4862,-129.71,16.4185,-8.23975,47.2412,0.378204,-0.207275,0.618011,-0.657227,-12843,-5606,15852,-3042,-29381
1416225,-2.01934,-11.4652,2.87109,-81.0187,11.7664,-129.633,11.1084,-3.23486,53.4668,0.380127,-0.205933,0.617828,-0.656708,-6187,-5350,14060,-3042,-29381
1416231,-2.03369,-13.1065,3.58887,-80.9308,12.063,-129.562,14.7095,-1.0376,58.2275,0.382019,-0.204407,0.617889,-0.656006,726,-4582,12524,-3042,-29381
1416237,-1.92842,-12.7764,4.41191,-80.8264,12.3981,-129.485,16.9067,-0.793457,66.2842,0.384033,-0.202637,0.61795,-0.655365,7126,-3814,10988,-3042,-29381
1416243,-1.82793,-12.494,4.4502,-80.744,12.7771,-129.435,13.4888,5.79834,74.3408,0.388489,-0.198242,0.618256,-0.653778,14550,-3302,9196,-3042,-29381
1416249,-2.58398,-12.5754,2.67969,-80.6561,13.6121,-129.38,4.02832,12.9395,84.9609,0.390686,-0.195648,0.618805,-0.65274,31190,-1254,5868,-3042,-29381
1416255,-3.20605,-14.3985,2.4835,-80.6506,14.0955,-129.37,-0.305176,16.4795,94.5435,0.392914,-0.192993,0.619537,-0.651489,-24362,-230,4332,-3042,-29381
1416261,-3.52188,-15.3986,3.26826,-80.5957,14.6228,-129.32,7.93457,11.8408,105.408,0.395264,-0.190033,0.620544,-0.649963,-13354,795,4844,-3042,-29381
1416267,-2.15332,-14.5756,3.5123,-80.5188,15.1831,-129.271,12.207,12.6953,112.366,0.398102,-0.186768,0.621307,-0.648438,-1066,1819,4844,-3042,-29381
1416273,-1.68916,-12.4797,4.07695,-80.4364,15.7819,-129.249,13.7939,19.2871,119.202,0.404175,-0.179352,0.622803,-0.645325,10711,3099,4076,-3042,-29381
1416279,-2.45479,-11.6231,4.94785,-80.4089,17.0728,-129.188,-2.01416,31.4331,130.493,0.40741,-0.175446,0.623871,-0.643372,-28969,4379,3052,-3042,-29381
1416285,-1.89971,-10.7666,4.03389,-80.4639,17.7484,-129.183,-10.0098,35.3394,133.057,0.410553,-0.171448,0.625275,-0.641083,-15145,5659,1004,-3042,-29381
1416291,-2.82803,-12.9438,4.39756,-80.5298,18.457,-129.183,-11.8408,38.147,140.503,0.413605,-0.167419,0.626953,-0.63855,-41,6427,492,-3042,-29381
1416297,-3.94775,-12.4271,3.19648,-80.6012,19.1986,-129.199,-12.6953,41.4429,146.606,0.416748,-0.163147,0.628754,-0.635834,16344,7963,748,-3042,-29381
1416303,-4.03867,-13.1687,2.58877,-80.7166,19.9622,-129.205,-21.4844,39.856,151.306,0.423218,-0.154175,0.632751,-0.629761,32728,8987,1004,-3042,-29381
1416309,-2.45,-13.8004,0.397168,-80.9967,21.6541,-129.21,-28.6865,42.7856,175.171,0.426758,-0.149506,0.63501,-0.626221,2521,11035,3052,-3042,-29381
1416315,-6.03887,-17.2648,0.373242,-81.1725,22.5824,-129.254,-29.0527,50.5981,184.692,0.430481,-0.14447,0.637482,-0.622345,22233,12059,5100,-3042,-29381
1416321,-6.01494,-17.528,1.74658,-81.2274,23.5437,-129.15,-17.5781,22.8882,196.594,0.434174,-0.138977,0.640167,-0.618286,-22823,13083,7148,-3042,-29381
1416327,-2.31602,-19.9972,2.77539,-81.3098,24.5544,-129.051,-22.4609,26.062,207.092,0.438995,-0.133698,0.642029,-0.614105,-1319,13851,8172,-3042,-29381
1416333,-4.03389,-21.7868,1.34941,-81.3428,25.6421,-128.996,-8.8501,35.8887,221.436,0.448914,-0.121674,0.646027,-0.605164,20698,14363,9452,-3042,-29381
1416339,-4.27793,-22.4663,-0.13877,-81.3757,28.0206,-128.804,-4.3335,27.6489,253.906,0.454224,-0.114929,0.648071,-0.600311,-806,13851,11500,-3042,-29381
1416345,-3.90947,-24.3899,-3.01465,-81.3318,29.3225,-128.65,-1.40381,24.1699,269.592,0.460175,-0.107697,0.64978,-0.595245,23259,12571,11500,-3042,-29381
1416351,-4.06738,-25.3087,-2.28252,-81.1615,30.6958,-128.436,16.4795,15.7471,286.194,0.466553,-0.100067,0.651337,-0.589874,-16677,10779,10220,-3042,-29381
1416357,-3.6415,-25.9021,-0.77041,-80.9583,32.168,-128.194,20.9351,16.1743,307.861,0.473572,-0.0918274,0.652283,-0.584564,10716,8475,7404,-3042,-29381
1416363,-1.55996,-27.1462,2.5457,-80.7056,33.728,-127.903,23.8647,11.4136,328.857,0.488983,-0.0734253,0.653778,-0.572662,-26148,5915,4076,-3042,-29381
1416369,-0.430664,-28.6248,2.44521,-80.1013,37.1393,-127.238,29.6021,16.4185,370.361,0.497375,-0.0634766,0.654297,-0.56601,32221,-1254,-3093,-3042,-29381
1416375,-0.617285,-28.3521,2.25859,-79.7058,39.007,-126.903,43.9453,22.8882,393.311,0.505981,-0.0526123,0.654755,-0.558929,-1315,-6374,-8213,-3042,-29381
1416381,-2.52656,-28.9263,4.4167,-79.2554,40.9735,-126.552,50.1709,28.6255,414.917,0.514801,-0.0406799,0.654877,-0.551666,-32546,-12518,-13845,-3042,-29381
1416387,-2.57441,-28.108,4.35928,-78.739,43.0389,-126.112,49.6826,23.0713,436.34,0.523804,-0.0278625,0.654846,-0.543976,4575,-19686,-19989,-3042,-29381
1416393,1.66523,-25.2273,1.72744,-77.536,47.3895,-125.09,59.6313,30.2124,470.703,0.542847,-0.000854492,0.654083,-0.526672,-21793,-28646,-27925,-3042,-29381
1416399,-1.35898,-19.7579,1.79922,-77.0087,49.6802,-124.656,45.6543,52.3071,483.582,0.552429,0.0137024,0.653259,-0.517487,-5920,16666,21739,-3042,-29381
1416405,-10.0871,-21.1839,2.60791,-76.6791,51.9598,-124.2,0.854492,55.6641,482.544,0.561401,0.0287476,0.653015,-0.507416,-28703,4378,12267,-3042,-29381
1416411,-5.6417,-31.6155,3.99082,-75.9869,54.234,-123.151,-23.0103,-7.75146,496.948,0.570068,0.0427246,0.653564,-0.495911,15586,-10727,2027,-3042,-29381
1416417,3.24912,-31.515,4.6416,-74.9817,56.5411,-122.036,22.1558,0.12207,507.141,0.580597,0.0551147,0.652802,-0.483307,-3614,-29159,-8982,-3042,-29381
1416423,-6.17285,-24.7871,3.30654,-72.757,61.1224,-119.729,19.4092,4.76074,501.16,0.599548,0.0839539,0.649384,-0.460114,-21021,15641,-20502,-3042,-29381
1416429,-3.38789,-30.0508,1.57432,-71.1969,63.2977,-118.043,17.9443,-9.64355,494.629,0.608826,0.0976257,0.647186,-0.44812,9701,-31464,23018,-3042,-29381
1416435,0.650781,-30.5963,-0.392383,-69.2358,65.4181,-116.087,44.6777,-11.6577,489.197,0.618134,0.110718,0.64444,-0.436157,-7707,8728,11754,-3042,-29381
1416441,4.52676,-26.1317,-2.27295,-66.8573,67.4286,-113.747,51.7578,-20.1416,478.455,0.626923,0.124268,0.64093,-0.424988,-23834,-18921,-791,-3042,-29381
1416447,4.20137,-23.6722,-2.88545,-64.3359,69.3237,-111.264,47.3633,-7.56836,458.496,0.635437,0.137482,0.636902,-0.414215,26599,16407,-13591,-3042,-29381
1416453,10.9819,-15.0732,-8.5415,-61.2817,71.087,-108.259,57.9224,-52.4292,428.406,0.650238,0.162354,0.629089,-0.393646,11240,-16874,-26647,-3042,-29381
1416459,13.408,-9.84307,-9.54639,-53.2068,73.9984,-100.541,92.3462,-26.3062,393.188,0.657837,0.173584,0.623871,-0.38443,-22295,-25067,11241,-3042,-29381
1416465,10.7762,11.1159,-10.4221,-48.0817,75.0696,-95.9491,144.653,-57.4341,364.929,0.663635,0.185242,0.618958,-0.376892,22506,3605,-2584,-3042,-29381
1416471,-0.392383,34.2952,-1.78008,-44.8187,75.6079,-93.1256,110.84,-34.8511,220.093,0.669128,0.197052,0.612457,-0.371765,747,30996,-17688,-3042,-29381
1416477,2.55049,20.6527,-3.81377,-43.1104,75.3333,-91.2909,-10.437,-109.192,73.2422,0.671844,0.204376,0.608307,-0.36972,-22805,-7661,30696,-3042,-29381
1416483,5.3498,5.71348,-3.38311,-44.6869,73.9435,-92.6587,-30.2124,-75.5615,-120.178,0.67627,0.199066,0.60376,-0.372009,-12564,-16110,-4889,-3042,-29381
1416489,5.98145,2.85195,-2.68447,-46.5656,72.7789,-94.2462,-67.0166,-108.582,-184.998,0.675598,0.192627,0.60379,-0.376556,18925,17426,-23321,-3042,-29381
1416495,10.3455,-4.12002,-1.73701,-48.8672,71.4661,-96.1798,-89.8438,-100.769,-227.905,0.674927,0.182831,0.603943,-0.382294,-18195,-10479,25319,-3042,-29381
1416501,9.95791,-9.18272,-2.73232,-51.2897,70.1038,-98.2397,-92.6514,-83.9844,-249.695,0.673401,0.171387,0.605011,-0.388611,4846,32017,8423,-3042,-29381
1416507,8.93389,-12.2356,-3.43096,-53.454,68.6865,-100.063,-87.9517,-85.9985,-257.202,0.670898,0.159546,0.60672,-0.395264,23534,14353,-8986,-3042,-29381
1416513,8.28311,-14.0875,-2.58877,-57.0026,65.8521,-103.046,-71.0449,-80.6274,-249.634,0.665161,0.135925,0.609589,-0.409119,-17682,-4592,24038,-3026,-29383
1416519,7.99121,-13.7812,-1.79922,-58.3923,64.4843,-104.233,-59.5703,-79.4067,-239.624,0.661987,0.124756,0.610748,-0.416046,-11538,-6128,8678,-3026,-29383
1416525,7.996,-12.6711,-1.0001,-59.6063,63.1714,-105.298,-47.7905,-72.876,-229.187,0.658752,0.114227,0.611603,-0.422882,-8466,-4080,-5403,-3026,-29383
1416531,7.6084,-11.4748,-0.765625,-60.683,61.9025,-106.282,-37.6587,-65.6738,-219.91,0.655365,0.104431,0.612274,-0.429626,-7698,-752,-17947,-3026,-29383
1416537,7.42656,-10.312,-0.746484,-61.6553,60.6775,-107.205,-28.7476,-59.6313,-213.806,0.651825,0.0952759,0.612854,-0.436279,-10514,5905,-29723,-3026,-29383
1416543,6.76621,-8.34053,-0.129199,-63.446,58.2495,-109.034,-13.2446,-45.0439,-215.82,0.644073,0.0784302,0.613831,-0.449585,-22546,25105,16101,-3026,-29383
1416549,6.39775,-7.37871,0.162695,-64.2865,57.0081,-109.973,-4.63867,-38.4521,-223.694,0.639679,0.0704651,0.614319,-0.456482,-31506,-28143,6629,-3026,-29383
1416555,6.31641,-6.49824,-0.0526367,-65.116,55.7227,-110.967,3.35693,-30.3955,-236.145,0.634827,0.0626831,0.614746,-0.463715,23790,-14575,-2588,-3026,-29383
1416561,6.30684,-5.73262,-0.354102,-65.9344,54.3713,-112.011,11.9629,-22.8882,-251.709,0.629425,0.0549316,0.615204,-0.471436,13294,-1007,-11548,-3026,-29383
1416567,6.34512,-4.85215,-0.579004,-66.7584,52.9596,-113.104,15.9302,-15.3809,-268.066,0.623352,0.0471802,0.615631,-0.479675,1006,14866,-19740,-3026,-29383
1416573,6.19678,-3.32568,-0.952246,-68.4998,49.9054,-115.422,10.2539,-0.0610352,-303.894,0.609161,0.0309448,0.616791,-0.497406,-29203,-15854,32228,-3026,-29383
1416579,6.08193,-2.93809,-1.25371,-69.4446,48.2739,-116.614,-1.58691,7.44629,-319.092,0.601013,0.0221863,0.617645,-0.506653,19181,3859,26084,-3026,-29383
1416585,5.94316,-3.30654,-1.67959,-70.4443,46.582,-117.828,-15.0757,16.9678,-332.581,0.592224,0.0128784,0.618835,-0.515808,-20,24339,20452,-3026,-29383
1416591,5.48379,-3.49316,-2.07197,-71.5045,44.8462,-119.037,-30.7617,24.8413,-343.079,0.582703,0.00308228,0.620453,-0.52478,-21012,-19437,15076,-3026,-29383
1416597,4.76602,-4.01475,-2.37822,-72.5977,43.0554,-120.212,-48.2178,29.0527,-352.6,0.561951,-0.0180664,0.624817,-0.541656,23276,1812,10468,-3026,-29383
1416603,4.19658,-5.97666,-2.46914,-74.8828,39.364,-122.415,-83.0688,36.377,-364.929,0.550903,-0.0294495,0.627472,-0.549347,-25365,-18412,5092,-3026,-29383
1416609,3.68936,-7.58447,-2.31602,-76.0474,37.4799,-123.437,-97.1069,39.3066,-367.676,0.539459,-0.0413208,0.630432,-0.556519,12779,5909,6628,-3026,-29383
1416615,3.04336,-9.23057,-2.20596,-77.1899,35.5792,-124.393,-106.445,40.2832,-369.385,0.527679,-0.0534668,0.633606,-0.563141,-17430,31509,10212,-3026,-29383
1416621,2.31123,-10.9389,-2.02412,-78.2996,33.6731,-125.272,-112.122,40.5884,-369.568,0.515686,-0.0657959,0.63678,-0.569305,15338,-7403,15588,-3026,-29383
1416627,1.43555,-12.1352,-1.77529,-79.3433,31.7505,-126.079,-113.525,39.978,-370.544,0.491272,-0.0906982,0.642761,-0.580658,-16663,18454,21732,-3009,-29385
1416633,-0.679492,-14.1401,-1.44512,-81.2274,27.8723,-127.436,-111.145,30.7007,-373.291,0.479004,-0.10321,0.645325,-0.585968,-22552,6679,-27932,-3009,-29385
1416639,-1.59824,-15.0924,-1.41162,-82.0569,25.9113,-127.98,-107.91,23.8037,-374.878,0.466766,-0.115784,0.64743,-0.591125,3816,-31465,-17180,-3009,-29385
1416645,-2.5792,-15.7862,-1.41162,-82.7985,23.9447,-128.436,-103.088,16.6016,-376.221,0.454651,-0.128479,0.649078,-0.59613,28647,-3561,-5404,-3009,-29385
1416651,-3.35918,-16.0398,-1.17236,-83.4631,21.9727,-128.798,-97.29,6.34766,-377.93,0.442657,-0.141205,0.650208,-0.601013,-13338,24344,7653,-3009,-29385
1416657,-3.75156,-16.0925,-0.665137,-84.0674,20.0006,-129.067,-93.8721,-3.23486,-377.075,0.419464,-0.167023,0.650757,-0.610352,11238,-14824,21221,-3009,-29385
1416663,-4.83779,-16.9442,0.732129,-85.177,16.1444,-129.402,-95.1538,-15.8691,-366.394,0.408264,-0.179962,0.650482,-0.614594,-12316,-31719,-12315,-3009,-29385
1416669,-5.69434,-17.4658,1.46904,-85.7153,14.2932,-129.485,-98.2666,-19.8364,-357.239,0.3974,-0.19281,0.649933,-0.618378,4836,-9703,5606,-3009,-29385
1416675,-6.54131,-17.796,2.24902,-86.2592,12.4969,-129.512,-102.722,-24.4751,-347.961,0.386871,-0.205444,0.649292,-0.621643,20451,11034,24038,-3009,-29385
1416681,-6.70879,-17.8869,3.19648,-86.814,10.7556,-129.485,-108.337,-28.5645,-338.44,0.376678,-0.217957,0.648529,-0.62442,-31774,30490,-23834,-3009,-29385
1416687,-6.43125,-18.1214,4.09131,-87.3907,9.06372,-129.424,-115.234,-30.0293,-330.2,0.357208,-0.242462,0.647095,-0.628326,-19743,-16614,-6426,-3009,-29385
1416693,-5.45508,-20.3226,5.93359,-88.6377,5.81726,-129.287,-127.869,-21.7896,-317.322,0.347656,-0.254395,0.646484,-0.629578,6624,14619,28391,-3009,-29385
1416699,-5.89053,-21.2748,6.63223,-89.2749,4.22424,-129.243,-129.333,-13.916,-316.04,0.338013,-0.265961,0.646057,-0.630493,17887,27419,-18969,-3009,-29385
1416705,-6.76621,-21.8538,6.78057,-89.9121,2.62573,-129.227,-129.578,-5.7373,-320.129,0.328125,-0.277161,0.64563,-0.631317,27870,-26853,744,-3009,-29385
1416711,-7.82852,-22.385,6.71357,-90.5273,0.983276,-129.232,-125.488,1.34277,-330.688,0.317902,-0.288116,0.645111,-0.632141,-29219,-17381,19176,-3009,-29385
1416717,-9.51768,-22.5572,5.97188,-91.0931,-0.725098,-129.249,-117.188,8.78906,-346.802,0.295959,-0.309875,0.643005,-0.634644,-22308,-9957,-26904,-3009,-29385
1416723,-10.5513,-22.7438,5.43594,-92.0544,-4.40552,-129.364,-95.459,25.0244,-383.423,0.284119,-0.32077,0.641144,-0.636566,-5414,-229,7657,-3009,-29385
1416729,-12.0442,-22.5907,5.1584,-92.4335,-6.35559,-129.468,-83.5571,35.0952,-398.376,0.271637,-0.331635,0.638611,-0.638977,986,284,24297,-3009,-29385
1416735,-14.2071,-21.9734,4.7708,-92.7521,-8.34412,-129.617,-74.4019,45.8374,-407.654,0.258636,-0.342346,0.635498,-0.641815,6873,-1765,-24343,-3009,-29385
1416741,-16.8342,-20.9351,4.45498,-93.0432,-10.3381,-129.792,-69.9463,53.4058,-411.011,0.245178,-0.352722,0.631927,-0.644989,11480,-6629,-7703,-3009,-29385
1416747,-21.5571,-19.0832,4.9335,-93.3234,-12.2992,-129.985,-70.3125,57.7393,-406.555,0.217773,-0.372314,0.624237,-0.651276,15063,-14821,9194,-3009,-29385
1416753,-24.4952,-18.0975,5.65605,-93.9386,-16.0071,-130.43,-84.2285,65.2466,-380.676,0.204193,-0.381287,0.620605,-0.653961,22997,28187,-27158,-3009,-29385
1416759,-26.5576,-17.2601,7.22559,-94.3066,-17.7209,-130.649,-94.9097,63.4155,-362.61,0.190796,-0.389679,0.61734,-0.656128,27092,14107,-16150,-3009,-29385
1416765,-27.8353,-16.5614,9.33584,-94.7241,-19.3195,-130.869,-106.201,62.561,-342.468,0.177826,-0.397583,0.614563,-0.657654,30931,-2790,-7958,-3009,-29385
1416771,-28.7779,-16.7241,10.9819,-95.1691,-20.7916,-131.1,-113.831,63.9648,-318.909,0.165283,-0.404846,0.612335,-0.658569,-30510,-22246,-534,-3009,-29385
1416777,-34.4005,-23.0214,6.36904,-95.6415,-22.077,-131.342,-122.864,64.27,-282.471,0.142151,-0.416779,0.609772,-0.658905,-25135,21018,4843,-3009,-29385
1416783,-35.6494,-20.8441,1.89971,-95.8612,-24.1589,-131.732,-23.4375,45.2271,-223.267,0.133118,-0.421143,0.60791,-0.659729,-6705,-27111,14315,-3009,-29385
1416789,-40.0422,-18.9109,-1.12451,-95.5811,-24.9994,-131.863,35.9497,35.1562,-200.989,0.126068,-0.424744,0.605103,-0.661377,6095,13849,18155,-3009,-29385
1416795,-43.8512,-13.5898,-1.1293,-95.0702,-25.7025,-131.907,89.7827,15.2588,-176.636,0.121063,-0.427673,0.600952,-0.664246,21454,-10728,20971,-3009,-29385
1416801,-45.1527,-7.72324,0.550293,-94.5209,-26.2134,-131.885,103.088,-1.34277,-142.7,0.118347,-0.430145,0.595581,-0.667938,-27187,30744,23531,-3009,-29385
1416807,-47.5979,0.440234,3.75635,-94.0704,-26.4825,-131.841,58.1665,-24.5972,-42.8467,0.117584,-0.433136,0.586609,-0.674042,-7732,6424,23787,-3009,-29385
1416813,-45.1049,3.46445,5.08662,-93.7408,-26.1804,-131.6,11.7798,-37.4756,12.3291,0.119324,-0.433289,0.584564,-0.675415,-25141,24599,19947,-3009,-29385
1416819,-42.3773,0.531152,7.41699,-93.9276,-25.6146,-131.457,-33.3862,-41.4429,66.5894,0.122131,-0.432617,0.5849,-0.675079,3787,2839,18923,-3009,-29385
1416825,-40.9227,-6.54609,8.91953,-94.1638,-24.8071,-131.325,-46.0205,-42.6636,114.075,0.125824,-0.430878,0.587524,-0.673218,-28726,-17386,16875,-3009,-29385
1416831,-38.932,-15.078,11.6854,-94.3066,-23.7579,-131.171,-26.7944,-52.2461,161.255,0.130707,-0.427979,0.59137,-0.670746,8138,31510,16619,-3009,-29385
1416837,-28.1702,-53.5507,78.0411,-94.2133,-22.522,-130.984,-16.1133,-110.657,434.204,0.146667,-0.418945,0.598633,-0.666687,-16439,17174,17387,-3009,-29385
1416843,-4.54111,30.2565,-34.367,-92.774,-18.501,-130.32,322.449,-87.1582,277.039,0.163055,-0.409393,0.606567,-0.661652,12233,1046,19435,-3009,-29385
1416849,28.2324,8.02471,-10.6039,-93.0432,-16.6058,-129.93,-42.6636,-101.257,333.252,0.180328,-0.400757,0.601898,-0.666687,-568,-3307,21483,-3009,-29385
1416855,15.0924,-9.24971,30.0508,-93.0817,-14.6667,-130.452,-50.354,72.937,354.431,0.193146,-0.39386,0.608521,-0.661194,-8760,-3819,24043,-3009,-29385
1416861,-5.546,-22.7199,-13.9774,-93.2849,-12.7991,-130.721,-65.8569,27.2827,338.135,0.201691,-0.381378,0.616852,-0.658203,-11576,-491,26347,-3026,-29383
1416867,0.507227,-9.22578,5.79004,-93.0322,-10.8984,-130.715,99.6704,39.1235,325.134,0.222961,-0.360565,0.629242,-0.651337,-9528,5910,28395,-3026,-29383
1416873,-7.65146,-4.7373,9.26406,-92.1478,-7.44873,-131.407,32.0435,63.0493,303.528,0.233734,-0.348389,0.63205,-0.651459,7113,28438,-32021,-3026,-29383
1416879,-9.3167,-11.6375,6.20156,-92.038,-5.88318,-131.655,4.21143,35.5835,282.898,0.242157,-0.336761,0.636505,-0.650177,21449,-21994,-28437,-3026,-29383
1416885,-8.50322,-18.7817,-1.41641,-91.8237,-4.44946,-131.957,25.3906,49.8657,257.263,0.250244,-0.326752,0.640991,-0.647797,-28727,-6890,-25365,-3026,-29383
1416891,-12.4079,-18.0975,-1.45947,-91.2469,-3.2135,-132.352,101.074,72.3877,219.788,0.257477,-0.316833,0.644562,-0.646332,-11063,10007,-23573,-3026,-29383
1416897,-4.72295,-9.67559,3.20127,-90.1923,-0.961304,-132.429,81.4209,-9.0332,187.805,0.271606,-0.297943,0.645599,-0.648499,9418,27159,-22805,-3026,-29383
1416903,-1.61738,-9.50811,6.18242,-89.7803,-0.032959,-132.578,73.3643,30.2124,158.813,0.279175,-0.291046,0.645721,-0.648315,-11318,-3305,-26901,-3026,-29383
1416909,-12.0251,-4.12002,11.1781,-89.3188,0.565796,-133.204,83.5571,126.709,92.3462,0.284637,-0.283966,0.646088,-0.648682,13003,14104,-29973,-3026,-29383
1416915,-19.1502,-1.39248,-5.84268,-89.1925,0.944824,-133.412,17.7612,43.8232,47.2412,0.285614,-0.275848,0.646484,-0.651367,-29237,29976,32491,-3026,-29383
1416921,-9.7665,-10.9389,-0.0669922,-89.2859,1.25793,-133.314,-26.3672,-18.5547,34.9121,0.286865,-0.272186,0.647186,-0.651672,-5941,-20712,29419,-3026,-29383
1416927,1.15322,-11.8624,2.31602,-88.6926,1.93909,-133.418,72.0825,35.4614,41.2598,0.291718,-0.269043,0.647736,-0.650269,16588,-6120,26603,-3026,-29383
1416933,-3.48838,-5.54121,0.784766,-88.3685,2.26868,-133.566,58.8379,33.8745,39.1846,0.293579,-0.265167,0.646698,-0.652039,-7988,19993,22763,-3026,-29383
1416939,-3.30176,-6.10107,0.0861328,-88.2147,2.58179,-133.605,24.6582,10.6201,37.4756,0.295258,-0.261597,0.645996,-0.653412,10957,31769,20715,-3026,-29383
1416945,-2.17725,-7.88594,2.39736,-88.0884,2.88391,-133.632,20.1416,9.39941,35.5835,0.29715,-0.259186,0.645935,-0.653564,28877,-22759,18667,-3026,-29383
1416951,-5.16318,-5.70869,2.0624,-87.9401,3.1366,-133.709,23.9868,19.8975,25.5127,0.29895,-0.256927,0.645966,-0.653625,-20019,-12519,15851,-3026,-29383
1416957,-2.8376,-6.8332,1.8375,-87.8632,3.51013,-133.665,-6.95801,-4.15039,10.0708,0.301575,-0.253296,0.645905,-0.6539,-3635,-2791,13547,-3026,-29383
1416963,-1.9332,-9.93877,1.69395,-87.8796,3.66394,-133.676,-8.60596,5.5542,7.56836,0.302704,-0.252502,0.64624,-0.653351,26062,15642,9963,-3026,-29383
1416969,-2.2873,-11.2116,0.0478516,-87.8577,3.81775,-133.698,-0.854492,7.99561,7.93457,0.303467,-0.251587,0.646698,-0.652924,-25650,23578,10475,-3026,-29383
1416975,-3.10557,-10.0393,-0.923535,-87.8027,3.97156,-133.704,5.61523,5.5542,7.8125,0.30423,-0.250488,0.646942,-0.65271,-12082,31258,11499,-3026,-29383
1416981,-2.91416,-9.98184,-0.669922,-87.7533,4.10889,-133.66,5.06592,-4.45557,6.53076,0.305115,-0.24942,0.647003,-0.652649,719,-27366,13291,-3026,-29383
1416987,-2.90459,-9.88135,0.980957,-87.6324,4.37256,-133.627,6.22559,3.72314,6.71387,0.307281,-0.247955,0.64679,-0.652405,12751,-20966,15339,-3026,-29383
1416993,-3.77549,-10.3072,2.26338,-87.5665,4.51538,-133.588,8.17871,-2.01416,8.30078,0.308167,-0.24704,0.64679,-0.652344,-29745,-8422,19179,-3026,-29383
1416999,-2.83281,-9.27842,2.0002,-87.5006,4.65271,-133.533,8.60596,-6.71387,9.09424,0.309235,-0.246246,0.646667,-0.652252,-19505,-1766,20971,-3026,-29383
1417005,-2.56484,-8.93867,2.16289,-87.4512,4.79004,-133.506,4.39453,-1.09863,9.09424,0.310486,-0.245575,0.646454,-0.65213,-9265,4891,24043,-3026,-29383
1417011,-3.7707,-9.99141,1.86143,-87.4347,4.92737,-133.478,-0.915527,-0.244141,9.39941,0.311493,-0.244812,0.646454,-0.651947,208,10779,27883,-3026,-29383
1417017,-3.11992,-10.8527,2.18682,-87.3798,5.20752,-133.374,0.0610352,-6.65283,10.2539,0.313538,-0.243408,0.646637,-0.651276,17872,21019,-27925,-3026,-29383
1417023,-2.78975,-9.42676,0.827832,-87.3413,5.34485,-133.336,3.54004,-2.38037,10.8032,0.314667,-0.242889,0.646698,-0.650909,26576,25371,-23573,-3026,-29383
1417029,-3.26348,-9.6708,1.07666,-87.3083,5.47119,-133.286,1.95312,-4.57764,9.58252,0.315704,-0.242188,0.646698,-0.650665,-30000,29467,-20245,-3026,-29383
1417035,-2.45,-9.61338,1.73223,-87.2644,5.59204,-133.22,3.66211,-7.75146,8.72803,0.316742,-0.241608,0.646698,-0.65036,-21040,-32229,-16405,-3026,-29383
1417041,-2.38301,-9.50332,1.41641,-87.2369,5.71289,-133.171,1.70898,-4.08936,8.8501,0.317871,-0.24115,0.646576,-0.650085,-11824,-28133,-11541,-3026,-29383
1417047,-3.29697,-8.7377,1.77051,-87.1545,5.95459,-133.077,2.86865,-3.60107,9.52148,0.319855,-0.240082,0.646515,-0.649597,-3376,-24549,-6421,-3026,-29383
1417053,-3.19648,-8.6085,1.95713,-87.1271,6.06445,-133.033,1.28174,-3.23486,7.69043,0.320831,-0.239532,0.646484,-0.649353,12753,-18405,3564,-3026,-29383
1417059,-2.59834,-8.72813,1.03359,-87.1161,6.16333,-132.979,-2.31934,-5.92041,6.5918,0.321747,-0.239044,0.646454,-0.649078,20689,-15333,7916,-3026,-29383
1417065,-2.32559,-9.88135,0.923535,-87.1161,6.26221,-132.929,-3.66211,-3.66211,6.16455,0.322632,-0.238739,0.646515,-0.648712,28625,-13029,12524,-3026,-29383
1417071,-2.53613,-10.0967,0.957031,-87.0886,6.36108,-132.88,1.2207,-4.45557,6.95801,0.323425,-0.238403,0.646606,-0.648346,-28975,-10725,17388,-3026,-29383
1417077,-2.83281,-9.20664,1.29678,-87.0172,6.55884,-132.803,2.44141,-0.915527,7.62939,0.325134,-0.237549,0.646484,-0.647919,-21807,-8165,21740,-3026,-29383
1417083,-2.83281,-9.59424,0.579004,-86.9897,6.65771,-132.764,2.38037,-2.0752,7.26318,0.325928,-0.237091,0.646454,-0.647705,-7215,-3813,31724,-3026,-29383
1417089,-2.82803,-10.2929,0.0143555,-86.9458,6.7511,-132.72,4.39453,-2.99072,7.62939,0.326721,-0.236633,0.646423,-0.647522,466,-1509,-29716,-3026,-29383
1417095,-2.50264,-10.5513,0.521582,-86.8909,6.84998,-132.687,8.48389,-1.0376,8.78906,0.327576,-0.236237,0.646332,-0.647339,8146,28,-25876,-3026,-29383
1417101,-2.51699,-10.044,0.119629,-86.8195,6.95435,-132.643,11.7798,-2.44141,10.376,0.3284,-0.235657,0.646149,-0.647278,15314,1308,-22804,-3026,-29383
1417107,-3.14385,-9.69473,0.258398,-86.7371,7.06421,-132.605,18.8599,-0.976562,11.4136,0.330292,-0.234406,0.645569,-0.647369,22994,2588,-20244,-3026,-29383
1417113,-2.86152,-9.40283,1.18672,-86.5173,7.27295,-132.528,20.6299,-2.31934,10.8643,0.331299,-0.233673,0.645142,-0.647552,-28462,4380,-16148,-3026,-29383
1417119,-2.78975,-9.15879,1.16758,-86.402,7.37183,-132.49,20.6909,-1.28174,10.1318,0.332336,-0.232971,0.644623,-0.647797,-21806,5148,-13588,-3026,-29383
1417125,-2.93809,-9.23535,1.57432,-86.2976,7.4707,-132.457,18.9209,-0.244141,10.437,0.333313,-0.232269,0.644135,-0.648041,-14894,5660,-10516,-3026,-29383
1417131,-2.49785,-9.12051,0.933105,-86.1932,7.56958,-132.413,18.0054,-1.95312,10.1929,0.334229,-0.231537,0.643677,-0.648254,-8238,6172,-7700,-3026,-29383
1417137,-2.03848,-9.5751,1.63652,-85.979,7.75085,-132.314,20.2637,-3.90625,10.2539,0.336121,-0.230347,0.642761,-0.648621,-2094,7196,-4628,-3026,-29383
1417143,-1.86621,-9.38369,1.86621,-85.8746,7.84424,-132.27,18.9819,-2.0752,10.9863,0.337128,-0.229767,0.642212,-0.648834,9683,9244,237,-3026,-29383
1417149,-2.5457,-9.27363,2.26338,-85.7703,7.94312,-132.237,18.4937,-0.0610352,11.2305,0.338104,-0.229126,0.641754,-0.649048,15827,8988,2797,-3026,-29383
1417155,-3.14863,-9.59902,1.17236,-85.6879,8.0365,-132.198,14.8315,-0.366211,11.9629,0.338989,-0.228424,0.641296,-0.649261,21971,9244,4845,-3026,-29383
1417161,-3.05771,-9.71387,0.827832,-85.589,8.13538,-132.138,16.6016,-5.7373,11.8408,0.339874,-0.227783,0.640961,-0.649353,28883,9244,5869,-3026,-29383
1417191,-2.87588,-9.85742,1.05273,-84.8694,8.79456,-131.671,23.9868,-10.6812,18.3105,0.347015,-0.224335,0.637665,-0.650024,-45,9756,15853,-3026,-29383
1417197,-3.07686,-10.2833,1.70352,-84.5782,9.03625,-131.462,26.4282,-13.5498,19.5312,0.349884,-0.223145,0.63623,-0.650299,5332,10268,16365,-3026,-29383
1417203,-2.9668,-9.71865,1.20586,-84.4189,9.1571,-131.353,28.8086,-13.916,19.8364,0.35141,-0.222534,0.635437,-0.650452,16596,12060,15597,-3034,-29382
1417209,-2.93809,-9.35977,1.59346,-84.2487,9.27795,-131.237,30.0293,-15.3198,19.9585,0.352936,-0.221924,0.634583,-0.650665,22484,13084,14317,-3034,-29382
1417215,-2.58877,-9.25928,1.66523,-84.0839,9.39331,-131.111,28.9307,-16.9067,19.3481,0.354553,-0.221313,0.633667,-0.650879,28628,13084,13293,-3034,-29382
1417221,-2.38301,-9.43154,2.06719,-83.9246,9.50867,-130.995,28.1372,-14.6484,19.8364,0.356171,-0.220795,0.632751,-0.651062,-30764,13340,11501,-3034,-29382
1417227,-2.67969,-10.5704,1.62695,-83.6005,9.76135,-130.776,30.1514,-15.0146,21.5454,0.359222,-0.219543,0.631104,-0.651428,-19244,14876,10221,-3034,-29382
1417233,-2.30645,-9.92441,1.50732,-83.4082,9.8822,-130.66,34.729,-14.8926,21.8506,0.36084,-0.218903,0.630188,-0.651611,-13612,16668,10221,-3034,-29382
1417239,-2.53613,-9.48418,1.76094,-83.2214,10.0085,-130.562,35.1562,-11.4136,21.7285,0.362488,-0.21817,0.62915,-0.651947,-7980,17948,9709,-3034,-29382
1417245,-2.94287,-9.33584,2.01455,-83.0292,10.1349,-130.463,34.6069,-10.8643,22.522,0.364044,-0.217346,0.628174,-0.652313,-2092,17948,9709,-3034,-29382
1417251,-2.7084,-9.37412,2.00977,-82.8479,10.2612,-130.358,32.8369,-12.3291,22.522,0.365601,-0.216522,0.627197,-0.652649,4309,18204,9197,-3034,-29382
1417257,-3.10557,-9.8957,2.45957,-82.4963,10.5084,-130.166,31.9214,-9.8877,23.0713,0.368683,-0.214935,0.625305,-0.653259,17109,18204,7149,-3034,-29382
1417263,-3.37354,-10.1445,1.92842,-82.3151,10.6403,-130.067,32.6538,-10.6812,23.8647,0.370178,-0.214111,0.62442,-0.653534,22741,18972,5357,-3034,-29382
1417269,-3.53145,-10.4077,1.7418,-82.1173,10.7776,-129.952,35.7056,-13.7939,25.0244,0.371735,-0.213257,0.623535,-0.653778,28117,19740,3309,-3034,-29382
1417275,-3.38789,-10.714,2.25381,-81.8976,10.9149,-129.836,40.1001,-13.0615,25.7568,0.373413,-0.212402,0.622498,-0.654083,-32043,20252,2285,-3034,-29382
1417281,-2.89023,-11.6279,4.04346,-81.6998,11.0797,-129.721,35.4614,-12.4512,31.3721,0.375153,-0.211456,0.621338,-0.65448,-26411,21020,1773,-3034,-29382
1417287,-2.8041,-11.4796,2.75625,-81.4966,11.5631,-129.556,14.9536,-0.0610352,48.7061,0.378845,-0.209167,0.620056,-0.654327,-13099,20508,-788,-3034,-29382
1417293,-3.90469,-10.7379,1.24893,-81.3922,11.8378,-129.485,17.5171,-0.793457,53.1006,0.380615,-0.207642,0.620026,-0.653809,-5675,20252,-3348,-3034,-29382
1417299,-2.71318,-12.4845,3.85684,-81.3153,12.1399,-129.38,11.5967,-5.31006,59.2651,0.382568,-0.205994,0.619934,-0.65329,1494,20508,-6164,-3034,-29382
1417305,-1.39248,-13.1831,3.82812,-81.2549,12.475,-129.298,8.23975,-1.0376,66.04,0.384735,-0.204407,0.619995,-0.652466,9430,21276,-8468,-3034,-29382
1417311,-1.77529,-12.561,3.19648,-81.189,12.854,-129.243,10.8643,6.5918,73.1201,0.386963,-0.202576,0.620239,-0.651459,17110,22812,-10004,-3034,-29382
1417317,-2.68447,-12.3218,3.37832,-81.0516,13.7,-129.122,7.69043,7.93457,85.9375,0.391632,-0.197784,0.620972,-0.649414,-31530,26908,-11284,-3042,-29381
1417323,-2.20596,-12.2596,3.34961,-81.0132,14.1614,-129.078,5.06592,11.5967,90.9424,0.394135,-0.19519,0.621552,-0.648163,-21546,29212,-11796,-3042,-29381
1417329,-2.71797,-13.8291,3.96211,-80.9857,14.6667,-129.051,3.60107,16.0522,99.1211,0.396606,-0.192413,0.622284,-0.64679,-10026,31260,-12052,-3042,-29381
1417335,-2.82803,-14.1736,2.22988,-80.9637,15.1941,-129.023,1.89209,16.6016,104.492,0.3992,-0.189331,0.623169,-0.645264,1495,-32228,-12564,-3042,-29381
1417341,-2.84238,-14.5421,3.12471,-80.9143,15.7599,-128.99,7.38525,16.9678,113.403,0.401855,-0.186127,0.624146,-0.643585,14039,-29924,-14356,-3042,-29381
1417347,-2.36865,-12.5371,4.17266,-80.8099,17.0013,-128.848,8.05664,22.2778,126.892,0.408142,-0.179016,0.625854,-0.639954,-23849,-25572,-17428,-3042,-29381
1417353,-1.95234,-10.7427,3.71807,-80.8099,17.655,-128.804,-1.46484,27.0996,130.005,0.41153,-0.175171,0.626831,-0.637909,-8489,-23524,-18452,-3042,-29381
1417359,-2.83281,-11.9725,4.72295,-80.8374,18.3472,-128.793,-5.12695,33.8135,137.634,0.414764,-0.171295,0.628113,-0.63559,7384,-21220,-18708,-3042,-29381
1417365,-3.49316,-11.915,4.02432,-80.8923,19.0723,-128.782,-10.0708,35.7666,143.799,0.417999,-0.167084,0.629669,-0.633057,23256,-19428,-19476,-3042,-29381
1417371,-3.01943,-11.7428,3.096,-80.9857,19.8083,-128.771,-19.043,35.2173,146.667,0.421265,-0.162781,0.631409,-0.63028,-24616,-18148,-19732,-3042,-29381
1417377,-3.71807,-15.3173,2.12939,-81.2384,21.4343,-128.743,-25.6958,36.499,166.931,0.42804,-0.154083,0.635529,-0.623718,13017,-15588,-21524,-3042,-29381
1417383,-3.27783,-15.6379,0.669922,-81.3757,22.3022,-128.721,-26.4282,36.6211,175.232,0.431702,-0.149384,0.637787,-0.620026,-32551,-14308,-22804,-3042,-29381
1417389,-4.91914,-17.4084,1.53604,-81.4966,23.2526,-128.738,-21.5454,44.3726,190.674,0.435547,-0.144501,0.640076,-0.616119,-11559,-13028,-23828,-3042,-29381
1417395,-5.95752,-17.6572,0.995313,-81.579,24.2468,-128.666,-19.4702,30.3345,202.393,0.439575,-0.138885,0.642456,-0.612061,11226,-11748,-24852,-3042,-29381
1417401,-2.17725,-19.3129,1.56953,-81.6064,25.285,-128.524,-14.8926,17.9443,214.355,0.449554,-0.127594,0.646301,-0.60318,-32038,-11236,-26388,-3042,-29381
1417407,-3.71807,-21.5811,1.08145,-81.59,27.5537,-128.315,-4.57764,30.3955,239.258,0.455017,-0.121185,0.647919,-0.598633,16859,-10724,-30484,-3042,-29381
1417413,-4.20137,-22.7438,-1.84229,-81.5186,28.7897,-128.167,3.72314,22.4609,255.249,0.46051,-0.114288,0.649658,-0.593872,-22053,-11492,-32276,-3042,-29381
1417419,-4.72295,-24.5383,-2.68926,-81.3757,30.0916,-127.974,13.6108,16.7847,271.79,0.466583,-0.106995,0.651062,-0.588928,5596,-12516,30188,-3042,-29381
1417425,-4.4502,-25.6245,-2.42129,-81.134,31.4813,-127.694,24.1699,4.63867,292.236,0.473206,-0.0991821,0.65213,-0.583832,-31012,-14564,27116,-3042,-29381
1417431,-3.97168,-26.2705,0.291895,-80.8264,32.948,-127.386,34.1797,4.3335,309.082,0.488373,-0.0819397,0.652954,-0.572968,-2852,-16868,22508,-3042,-29381
1417437,-3.10557,-26.9691,0.521582,-80.0574,36.145,-126.65,40.8936,-2.62451,348.45,0.496399,-0.0722351,0.653137,-0.567169,-7715,-24292,11756,-3042,-29381
1417443,-0.626855,-28.7923,2.07676,-79.5245,37.8864,-126.161,54.1382,-6.10352,371.338,0.505066,-0.0621948,0.652985,-0.560822,25566,-29924,5868,-3042,-29381
1417449,-0.215332,-27.9357,2.25381,-78.9478,39.7321,-125.706,65.2466,7.32422,392.395,0.514282,-0.0513611,0.652374,-0.55423,-4642,28188,-1045,-3042,-29381
1417455,-2.15332,-28.5817,2.83281,-78.2611,41.6602,-125.217,79.4067,11.3525,411.316,0.523438,-0.0393677,0.651672,-0.547394,-32545,19228,-8981,-3042,-29381
1417461,-1.51689,-27.9884,2.33516,-76.6901,45.78,-123.992,78.2471,10.6812,453.43,0.542358,-0.0130005,0.649292,-0.532867,6880,8476,-18197,-3042,-29381
1417467,-0.507227,-23.3851,0.933105,-75.7947,47.9663,-123.267,78.9185,13.7939,471.497,0.552277,0.00100708,0.647858,-0.524597,19937,-15589,24043,-3042,-29381
1417473,-1.29199,-18.4563,2.2873,-74.9982,50.2185,-122.569,60.9741,31.5552,482.361,0.562225,0.0155945,0.64621,-0.515717,-3359,-30181,10475,-3042,-29381
1417479,-8.99131,-20.7771,2.20117,-74.4818,52.4487,-121.948,13.6108,48.8892,476.44,0.571655,0.0303955,0.645172,-0.50589,-25630,18971,-4630,-3042,-29381
1417485,-7.77109,-29.802,1.30635,-73.5425,54.668,-120.729,-1.77002,-12.146,492.004,0.580322,0.04422,0.645355,-0.494659,19427,539,-19478,-3042,-29381
1417491,-1.3877,-25.8111,5.79004,-70.7959,59.1064,-117.85,45.3491,7.08008,499.451,0.601318,0.0700989,0.641388,-0.471191,1252,-21222,30442,-3042,-29381
1417497,-5.29238,-26.7347,4.03867,-69.2358,61.2982,-116.175,26.1841,-2.86865,499.084,0.610657,0.0843201,0.639069,-0.459839,28389,-3047,490,-3042,-29381
1417503,-4.06738,-30.0699,-0.258398,-67.3627,63.4076,-114.175,25.5127,-13.855,492.615,0.620056,0.0977478,0.636627,-0.447845,11238,-31975,-13079,-3042,-29381
1417509,-0.75127,-30.7781,-3.47881,-64.9951,65.4126,-111.78,48.0347,-25.2686,484.07,0.629303,0.110718,0.633698,-0.435913,-5914,1561,-28183,-3042,-29381
1417515,3.00508,-27.4764,-5.42637,-62.1112,67.2803,-108.924,58.96,-38.147,471.863,0.638306,0.12381,0.629852,-0.424774,-23321,32536,21737,-3042,-29381
1417521,4.26357,-22.2558,-6.2542,-58.9691,69.0271,-105.848,65.6128,-34.0576,440.857,0.654877,0.148987,0.62088,-0.404114,24296,-4073,5097,-3042,-29381
1417527,10.8479,-10.6326,-12.2452,-50.7678,71.8835,-97.8827,82.7026,-79.4067,411.682,0.662354,0.161011,0.616211,-0.394409,-14615,-13546,-30488,-3042,-29381
1417533,13.7669,-4.25879,-10.824,-46.3403,72.9218,-93.8013,112.549,-53.894,360.168,0.670135,0.171906,0.609985,-0.3862,29418,13334,16360,-3042,-29381
1417539,15.3699,12.2548,-9.52246,-41.391,73.6029,-89.3793,149.353,-85.3271,322.205,0.675903,0.182678,0.60434,-0.380066,7403,-27115,-2073,-3042,-29381
1417545,3.89512,36.305,-4.40234,-38.7323,73.9819,-87.2095,119.812,-28.8696,185.73,0.681335,0.192963,0.597382,-0.376251,-17173,-3564,-21529,-3042,-29381
1417551,8.46494,5.61299,-6.30684,-38.2983,73.103,-86.4679,-40.7104,-99.4263,-41.9312,0.685425,0.198425,0.591492,-0.375275,21740,19988,23783,-3034,-29382
1417557,6.9959,2.92852,-4.20137,-40.0507,72.356,-87.951,-61.3403,-73.0591,-117.554,0.686676,0.193359,0.590363,-0.377441,24045,7699,-15898,-3034,-29382
1417563,6.40254,-0.248828,-3.36396,-42.3029,71.3507,-89.7803,-96.8018,-91.4307,-173.584,0.686066,0.186157,0.591034,-0.381073,-12819,-25582,29670,-3034,-29382
1417569,10.4986,-6.9002,-2.78018,-44.8352,70.2136,-91.8127,-117.676,-88.1348,-208.374,0.685211,0.176178,0.592163,-0.385559,11246,11282,10470,-3034,-29382
1417575,10.5417,-12.2165,-3.78506,-47.4664,69.071,-93.9825,-114.136,-66.3452,-224.06,0.683716,0.164734,0.593994,-0.390503,31214,-12527,-6939,-3034,-29382
1417581,8.47451,-14.9967,-3.55537,-51.9818,66.709,-97.7673,-90.9424,-62.5,-225.586,0.678253,0.142273,0.598724,-0.401398,-6930,21777,26085,-3034,-29382
1417587,7.82373,-14.5086,-2.63662,-53.877,65.5389,-99.3823,-76.7212,-56.2134,-221.497,0.675201,0.131592,0.600769,-0.407135,495,13841,10725,-3034,-29382
1417593,7.48877,-13.073,-1.76094,-55.5304,64.3799,-100.844,-62.0117,-52.9175,-216.187,0.671875,0.121552,0.6026,-0.412994,6127,8465,-2332,-3034,-29382
1417599,7.7041,-11.2643,-1.53125,-57.03,63.2428,-102.206,-49.6216,-46.9971,-212.463,0.668365,0.112122,0.604187,-0.419006,8175,7441,-15388,-3034,-29382
1417605,7.64668,-9.22578,-1.55996,-58.4363,62.1057,-103.524,-41.3818,-39.5508,-212.463,0.664581,0.103271,0.605621,-0.42514,7407,10001,-26140,-3034,-29382
1417611,7.43613,-4.83779,-1.78965,-61.095,59.7601,-106.128,-30.7617,-27.0386,-227.844,0.656036,0.0865173,0.608521,-0.437897,-786,23569,22756,-3034,-29382
1417617,7.75674,-3.25391,-1.55996,-62.4408,58.5187,-107.474,-32.1655,-18.4326,-240.906,0.651062,0.0781555,0.610046,-0.444672,-7442,-31727,15844,-3034,-29382
1417623,7.35,-1.99063,-1.53604,-63.847,57.2003,-108.869,-38.8794,-9.0332,-258.789,0.645538,0.0695496,0.611816,-0.45166,-14866,-21231,9956,-3034,-29382
1417629,7.32607,-1.62695,-1.51689,-65.3027,55.8051,-110.281,-48.4009,-2.62451,-276.611,0.639313,0.0604858,0.613953,-0.458893,-24082,-8687,4836,-3034,-29382
1417635,7.1251,-1.79443,-1.83271,-66.8188,54.3219,-111.714,-60.9741,6.71387,-294.434,0.632446,0.0507812,0.616425,-0.466217,30190,5906,-285,-3034,-29382
1417641,6.26377,-3.62715,-2.20596,-69.939,51.1414,-114.565,-82.7026,20.9961,-323.73,0.616486,0.0295715,0.62265,-0.480927,494,-24814,-6685,-3034,-29382
1417647,6.26855,-4.63682,-2.01934,-71.4825,49.4495,-115.911,-93.8721,25.4517,-335.388,0.607605,0.018158,0.62616,-0.488159,-17427,-4334,-7453,-3034,-29382
1417653,5.86182,-5.55557,-1.89971,-73.0096,47.7026,-117.191,-104.553,30.5176,-343.872,0.598236,0.00622559,0.629852,-0.495239,29933,15891,-6685,-3034,-29382
1417659,5.61777,-6.59873,-1.75615,-74.5148,45.9174,-118.416,-113.708,36.8042,-349.487,0.588348,-0.006073,0.633728,-0.502075,9453,-27117,-4893,-3034,-29382
1417665,4.68467,-7.6084,-1.81357,-75.976,44.0991,-119.57,-120.239,40.2222,-354.797,0.577972,-0.0186157,0.637787,-0.508636,-12564,-3053,-541,-3034,-29382
1417671,3.60322,-9.48418,-1.30156,-78.6621,40.3473,-121.575,-126.099,38.3911,-362.732,0.556274,-0.0443726,0.645752,-0.521057,492,-15852,12260,-3017,-29384
1417677,3.37354,-10.5943,-1.00967,-79.8871,38.4412,-122.443,-126.587,37.3535,-364.99,0.545074,-0.0574646,0.649414,-0.526978,-29205,12053,20708,-3017,-29384
1417683,2.99551,-11.4413,-0.741699,-81.0352,36.5186,-123.234,-125.122,37.6587,-364.807,0.533722,-0.0706177,0.652863,-0.532745,4587,-24299,29668,-3017,-29384
1417689,2.01934,-11.9007,-0.708203,-82.1063,34.5959,-123.942,-125.122,35.8887,-364.868,0.522247,-0.0836792,0.656006,-0.53833,-26390,3862,-26908,-3017,-29384
1417695,1.17236,-12.2835,-0.516797,-83.1116,32.6678,-124.557,-124.939,31.189,-364.258,0.499146,-0.109772,0.661377,-0.548859,6634,32022,-16668,-3017,-29384
1417701,-0.90918,-12.7189,-0.200977,-84.9298,28.8007,-125.508,-127.808,17.5781,-364.014,0.487671,-0.122925,0.663574,-0.553741,233,23831,12005,-3017,-29384
1417707,-1.4499,-13.2788,-0.062207,-85.7648,26.8671,-125.837,-130.005,9.76562,-363.586,0.476349,-0.13623,0.665344,-0.558319,26088,-13545,29669,-3017,-29384
1417713,-2.03848,-14.1736,0.258398,-86.5558,24.9445,-126.079,-131.47,2.19727,-362.183,0.465179,-0.149689,0.666809,-0.562531,-15897,14872,-16923,-3017,-29384
1417719,-2.88066,-14.6234,0.492871,-87.3029,23.0328,-126.233,-132.751,-7.08008,-360.718,0.454224,-0.163239,0.667877,-0.566437,8423,-24296,1766,-3017,-29384
1417725,-3.50273,-15.1785,1.08145,-88.006,21.1432,-126.277,-133.606,-19.2261,-358.032,0.433136,-0.190796,0.668854,-0.573151,29670,1305,21222,-3017,-29384
1417731,-4.29229,-16.9299,2.68447,-89.3518,17.4792,-126.161,-135.925,-32.1045,-344.543,0.423096,-0.20459,0.668823,-0.575928,1509,-16103,-1306,-3017,-29384
1417737,-4.92871,-17.8869,3.26826,-90.0055,15.7379,-126.013,-137.207,-38.4521,-334.229,0.413422,-0.218231,0.668549,-0.578247,18660,5914,21223,-3017,-29384
1417743,-5.3833,-18.7052,4.25879,-90.6317,14.0625,-125.804,-136.169,-43.396,-322.815,0.404144,-0.231628,0.668091,-0.580139,-31517,26394,-19737,-3017,-29384
1417749,-5.47422,-18.6908,5.30674,-91.2524,12.4585,-125.563,-135.864,-46.2646,-311.157,0.395325,-0.244751,0.667389,-0.581604,-17694,-19430,5352,-3017,-29384
1417755,-5.05791,-18.8104,6.34033,-91.8787,10.9204,-125.294,-138.062,-46.9971,-300.476,0.378784,-0.269867,0.665741,-0.583374,-2335,-1254,29928,-3017,-29384
1417761,-4.5459,-19.8201,7.41221,-93.1586,7.98706,-124.75,-141.052,-38.4521,-286.438,0.370758,-0.28186,0.664978,-0.583771,24032,29211,15337,-3017,-29384
1417767,-4.23008,-20.1312,8.11084,-93.8068,6.55334,-124.492,-141.357,-33.1421,-285.461,0.362732,-0.293518,0.664154,-0.583984,-29985,-23525,-24855,-3017,-29384
1417773,-4.16309,-20.8776,8.38359,-94.455,5.10315,-124.261,-141.174,-24.231,-289.917,0.354553,-0.304901,0.66333,-0.584137,-19490,-13285,234,-3017,-29384
1417779,-4.58896,-21.9878,8.51279,-95.0867,3.62,-124.058,-136.536,-15.0146,-298.767,0.346008,-0.31604,0.662415,-0.584381,-9507,-4069,25322,-3017,-29384
1417785,-5.12969,-23.0884,8.37881,-95.6635,2.07642,-123.882,-126.343,-5.79834,-310.059,0.327545,-0.337769,0.659698,-0.585938,3037,3356,-16662,-3017,-29384
1417791,-6.04365,-23.7104,8.89561,-96.6357,-1.16455,-123.662,-100.891,18.9209,-333.496,0.317596,-0.348297,0.657623,-0.587555,25307,12828,31211,-3017,-29384
1417797,-6.98154,-23.9401,9.03916,-97.0258,-2.86194,-123.646,-88.9282,36.1328,-342.163,0.307159,-0.35849,0.655121,-0.589752,-30502,13852,-11797,-3009,-29385
1417803,-8.27354,-24.1985,8.77598,-97.3499,-4.59229,-123.706,-77.5146,53.5889,-347.778,0.296173,-0.368195,0.652283,-0.59256,-21799,13340,9708,-3009,-29385
1417809,-10.0393,-24.2512,8.77119,-97.597,-6.32812,-123.843,-64.0259,70.4346,-348.633,0.284668,-0.377289,0.649139,-0.595917,-14120,10012,28908,-3009,-29385
1417815,-15.4561,-21.9591,9.14922,-97.7728,-8.04749,-124.058,-53.3447,86.4258,-344.91,0.260895,-0.393219,0.64212,-0.604065,-6953,4636,-18964,-3009,-29385
1417821,-18.7817,-21.4279,8.60371,-97.9816,-11.4148,-124.755,-44.7388,116.699,-335.266,0.248657,-0.399872,0.63855,-0.608612,9942,-9189,10477,-3009,-29385
1417827,-21.4949,-20.7724,8.25918,-98.0145,-13.0682,-125.173,-37.4756,123.718,-333.13,0.236206,-0.405945,0.63501,-0.613251,17109,-19429,21485,-3009,-29385
1417833,-23.409,-20.1981,8.54629,-97.9871,-14.7162,-125.623,-30.0903,127.502,-332.947,0.223724,-0.411499,0.631287,-0.618042,23764,-31973,30189,-3009,-29385
1417839,-24.5909,-20.0785,9.00566,-97.8882,-16.3477,-126.107,-19.6533,131.836,-332.031,0.211304,-0.416687,0.627319,-0.622955,31187,18203,-29459,-3009,-29385
1417845,-27.1031,-20.1934,8.87168,-97.674,-17.9572,-126.634,-2.38037,137.634,-328.552,0.18689,-0.42569,0.618286,-0.633606,-26414,283,-25619,-3009,-29385
1417851,-29.3521,-20.3656,6.74229,-96.7731,-21.0223,-127.87,50.0488,149.963,-309.814,0.175262,-0.429169,0.613007,-0.639709,-2608,27930,-22035,-3009,-29385
1417857,-32.3572,-20.7819,2.33516,-96.0205,-22.4121,-128.551,87.0972,148.743,-292.236,0.164337,-0.431793,0.607086,-0.646454,9936,5914,-24083,-3009,-29385
1417863,-37.0419,-18.7435,-1.60781,-95.0043,-23.681,-129.254,136.292,144.958,-271.606,0.154633,-0.433563,0.600372,-0.65387,22735,-17127,-28947,-3009,-29385
1417869,-42.6932,-12.6902,-3.67021,-93.7848,-24.7906,-129.941,177.429,132.629,-246.155,0.146545,-0.434448,0.59259,-0.662201,-29234,24089,29421,-3009,-29385
1417875,-50.7609,6.36904,0.119629,-92.5269,-25.7025,-130.589,187.561,117.188,-212.585,0.135651,-0.434113,0.575653,-0.679443,-13875,-1256,18925,-3009,-29385
1417881,-53.1583,15.0589,2.02891,-90.7141,-26.7407,-131.699,88.3789,81.543,-115.601,0.132202,-0.433014,0.568909,-0.686493,24012,12568,-10516,-3009,-29385
1417887,-53.1152,18.1166,2.68447,-90.4779,-26.8341,-132.122,-0.671387,62.561,-62.439,0.129517,-0.431458,0.565125,-0.691071,-17717,-13033,-26900,-3009,-29385
1417893,-52.6176,0.143555,6.7375,-90.9009,-26.51,-132.429,-122.986,40.8936,20.2026,0.127258,-0.429565,0.564941,-0.69281,9163,28183,21740,-3009,-29385
1417899,-52.1486,-14.4799,3.38789,-91.4008,-25.8124,-132.654,-129.883,23.4985,95.0928,0.125793,-0.42691,0.569855,-0.690704,-26678,5399,6380,-3009,-29385
1417905,-40.4154,-20.2316,8.93867,-91.8018,-24.7577,-132.654,-21.0571,-41.3208,216.431,0.131866,-0.418243,0.582489,-0.684296,6602,-14826,-6677,-3034,-29382
1417911,-31.0987,-21.3562,13.2214,-91.615,-21.9836,-132.407,56.7627,-45.166,246.948,0.140198,-0.412506,0.587372,-0.681946,18121,17942,-27925,-3034,-29382
1417917,5.66563,-24.3804,43.2961,-91.4502,-19.8248,-131.968,51.0864,-106.873,388.489,0.15094,-0.405579,0.590363,-0.681244,-2360,6422,29163,-3034,-29382
1417923,11.3408,5.84746,-26.3088,-90.9448,-18.0835,-131.852,97.229,-39.1235,305.847,0.167236,-0.39679,0.595337,-0.678284,-17208,-1003,23531,-3034,-29382
1417929,15.4321,-6.48867,40.4059,-91.214,-16.1829,-131.77,-63.2935,-35.2783,341.248,0.180115,-0.387787,0.597839,-0.677979,-27192,-3819,19435,-3034,-29382
1417935,0.693848,-21.0978,-6.87148,-91.4062,-14.2548,-131.863,-100.098,-14.5874,353.394,0.201508,-0.368744,0.613098,-0.668915,-31544,-2283,17131,-3034,-29382
1417941,-4.17744,-26.1126,3.14863,-91.8073,-10.4535,-132.001,-11.8408,4.63867,337.585,0.211609,-0.359222,0.621735,-0.662964,-29752,11030,16619,-3034,-29382
1417947,-5.10576,-10.4843,4.9335,-91.3953,-8.69568,-132.166,64.6973,17.0288,319.58,0.222015,-0.348785,0.627563,-0.659637,-23352,21526,17131,-3034,-29382
1417953,-5.02441,-4.17266,5.10098,-91.3184,-7.05872,-132.319,-0.488281,17.395,296.753,0.232697,-0.337708,0.630859,-0.658569,-13112,-30442,18667,-3034,-29382
1417959,-5.74697,-13.5516,4.39277,-91.3293,-5.51514,-132.545,-19.4702,33.02,278.625,0.241669,-0.32785,0.635498,-0.655853,201,-14826,21483,-3034,-29382
1417965,-12.9726,-20.0354,-3.75635,-91.1371,-4.13635,-132.913,123.413,64.6362,207.825,0.255768,-0.308197,0.644104,-0.651642,17609,1559,24043,-3034,-29382
1417971,-8.36924,-9.92441,-2.8376,-89.7583,-1.8512,-133.363,128.601,16.5405,193.909,0.26236,-0.298126,0.644196,-0.653595,-6967,-28393,25067,-3034,-29382
1417977,-3.55059,-8.71855,4.61768,-89.2914,-0.823975,-133.423,85.6323,12.5122,178.162,0.269928,-0.289764,0.643341,-0.65509,13770,-10985,24555,-3034,-29382
1417983,-3.68457,-7.31172,6.48389,-88.8849,0.0384521,-133.665,71.8384,49.0112,146.484,0.276581,-0.282471,0.643402,-0.655457,-29750,6680,20715,-3034,-29382
1417989,-14.0588,-3.76113,9.17793,-88.5059,0.631714,-134.193,67.688,105.164,90.0269,0.281067,-0.275177,0.643829,-0.65625,-6710,24344,16363,-3034,-29382
1417995,-5.86182,-10.3072,-0.105273,-88.4784,1.31287,-134.154,-20.4468,-29.541,39.1235,0.283875,-0.265015,0.644928,-0.658112,16587,-24040,13291,-3034,-29382
1418001,0.698633,-16.2073,1.05752,-88.3246,1.64246,-134.138,22.7051,-2.01416,39.978,0.286377,-0.264099,0.645721,-0.656647,-2869,7449,8939,-3034,-29382
1418007,0.172266,-11.5992,0.92832,-87.984,1.97205,-134.308,62.8052,33.9966,40.0391,0.288605,-0.261902,0.645599,-0.656677,17868,21785,7659,-3034,-29382
1418013,-4.10566,-6.68965,0.693848,-87.6929,2.27417,-134.467,51.6968,33.2031,35.5225,0.290283,-0.258179,0.644745,-0.658234,-27444,-30695,6635,-3034,-29382
1418019,-3.87119,-6.23506,0.531152,-87.5336,2.5708,-134.506,26.3062,8.60596,34.2407,0.291687,-0.254761,0.644165,-0.659485,-8500,-17383,5867,-3026,-29383
1418025,-4.24922,-6.54131,2.24424,-87.2754,3.08167,-134.588,21.6675,14.9536,22.8882,0.295166,-0.250397,0.643982,-0.65979,9677,-5351,4587,-3026,-29383
1418031,-6.00537,-5.22061,2.36387,-87.182,3.26843,-134.643,12.6343,11.5967,14.0991,0.296356,-0.248291,0.64389,-0.660187,-21555,17434,1515,-3026,-29383
1418037,-4.17744,-6.91934,1.78965,-87.1655,3.41675,-134.637,-2.92969,-0.12207,6.65283,0.297272,-0.246613,0.64389,-0.66037,-5683,27930,-278,-3026,-29383
1418043,-2.00977,-9.51289,1.33506,-87.171,3.54309,-134.643,-7.44629,0.793457,1.89209,0.298126,-0.245728,0.644135,-0.660095,8910,-27878,-3350,-3026,-29383
1418049,-1.57432,-11.3121,0.133984,-87.1655,3.65845,-134.665,-4.57764,5.67627,1.2207,0.298767,-0.244995,0.64444,-0.65976,22734,-18918,-5910,-3026,-29383
1418055,-2.61748,-10.1972,0.320605,-87.0776,3.88916,-134.692,5.5542,2.56348,3.84521,0.299835,-0.243286,0.644836,-0.659515,-30002,-10470,-6934,-3026,-29383
1418061,-3.76113,-9.36455,1.21064,-87.0227,4.00452,-134.703,6.53076,2.99072,2.50244,0.300598,-0.242401,0.644806,-0.659546,-6962,4635,-3350,-3026,-29383
1418067,-3.99561,-9.1875,0.851758,-86.9897,4.11438,-134.703,1.64795,1.34277,2.01416,0.30127,-0.241516,0.644745,-0.659607,4047,11291,1003,-3026,-29383
1418073,-3.38789,-10.3072,2.2873,-86.9513,4.22424,-134.692,2.56348,-1.52588,3.41797,0.301941,-0.240784,0.644806,-0.659515,13775,17435,4843,-3026,-29383
1418079,-2.40215,-9.74736,0.77998,-86.9128,4.3396,-134.665,2.86865,-3.11279,4.5166,0.302704,-0.240112,0.644836,-0.659393,22991,22555,8939,-3026,-29383
1418085,-3.24912,-10.1254,1.18193,-86.8469,4.58679,-134.637,0.976562,-0.366211,7.26318,0.304382,-0.238708,0.644836,-0.659119,31183,28187,13035,-3026,-29383
1418091,-3.63193,-9.88135,1.68438,-86.781,4.71313,-134.61,9.21631,-4.27246,8.42285,0.305176,-0.237976,0.644928,-0.658936,-18993,-26085,21995,-3026,-29383
1418097,-3.42139,-9.1875,2.08633,-86.7426,4.83398,-134.583,2.38037,-3.66211,7.08008,0.306183,-0.237213,0.644745,-0.658905,-11313,-19429,26603,-3026,-29383
1418103,-2.78975,-9.26885,2.67012,-86.6986,4.94385,-134.539,3.72314,-6.53076,6.7749,0.307068,-0.236572,0.644745,-0.658722,-2353,-13285,31979,-3026,-29383
1418109,-2.97158,-9.37891,1.58867,-86.6876,5.05371,-134.522,-2.01416,-1.2207,5.5542,0.308014,-0.236023,0.644653,-0.658569,6352,-7653,-28693,-3026,-29383
1418115,-2.75146,-9.81436,1.63174,-86.6602,5.15808,-134.489,0.427246,-5.31006,5.92041,0.309509,-0.234924,0.644806,-0.658112,14800,-2277,-23061,-3026,-29383
1418121,-2.81367,-9.40283,1.58389,-86.6162,5.36133,-134.423,0.12207,-3.60107,5.85938,0.310333,-0.234436,0.644836,-0.657898,30928,7196,-8981,-3026,-29383
1418127,-2.71797,-9.38369,1.58867,-86.5887,5.4657,-134.396,0.12207,-3.479,6.22559,0.311096,-0.233917,0.644867,-0.657684,-26672,11548,-1813,-3026,-29383
1418133,-2.8376,-9.26885,1.31113,-86.5723,5.56458,-134.363,-0.549316,-4.21143,5.49316,0.311859,-0.233429,0.644897,-0.657471,-18736,15900,5356,-3026,-29383
1418139,-2.66533,-9.52246,1.34463,-86.5558,5.65796,-134.335,-1.64795,-3.60107,6.22559,0.312592,-0.232971,0.644928,-0.657227,-10544,20508,12780,-3034,-29382
1418145,-3.08643,-9.47939,0.957031,-86.5393,5.75684,-134.308,0.671387,-3.54004,6.89697,0.314056,-0.232056,0.645081,-0.656738,-2096,25372,18924,-3034,-29382
1418151,-2.95244,-9.46982,0.980957,-86.4954,5.95459,-134.247,0.549316,-3.05176,6.83594,0.314819,-0.231567,0.645081,-0.656525,15825,-30692,31468,-3034,-29382
1418157,-2.82803,-9.69473,1.10059,-86.4679,6.04248,-134.203,1.2207,-5.7373,6.16455,0.315521,-0.23111,0.645111,-0.656311,25041,-26852,-28692,-3034,-29382
1418163,-2.33037,-9.71865,0.712988,-86.4459,6.13586,-134.154,0.549316,-7.56836,6.89697,0.316315,-0.230713,0.645081,-0.656097,-32303,-24036,-23060,-3034,-29382
1418169,-2.1916,-9.8,0.789551,-86.4185,6.22375,-134.116,2.31934,-5.43213,6.89697,0.317139,-0.230408,0.64505,-0.655853,-23599,-22500,-16916,-3034,-29382
1418175,-2.77539,-9.73779,1.02402,-86.3416,6.39954,-134.039,5.06592,-3.96729,7.14111,0.318665,-0.229614,0.644897,-0.655548,-15919,-20964,-12052,-3034,-29382
1418181,-3.15342,-9.42676,0.823047,-86.2921,6.49292,-134,6.34766,-5.24902,7.99561,0.319427,-0.229156,0.644775,-0.655457,-1583,-17636,-788,-3034,-29382
1418187,-3.13428,-9.35977,0.765625,-86.2427,6.5863,-133.967,6.89697,-3.54004,8.30078,0.320251,-0.228699,0.644623,-0.655365,5586,-15844,4333,-3034,-29382
1418193,-3.10557,-9.40283,0.626855,-86.1877,6.67419,-133.923,7.87354,-5.67627,7.87354,0.321014,-0.22818,0.64447,-0.655304,12498,-13796,9197,-3034,-29382
1418199,-2.50742,-9.76172,1.02881,-86.1163,6.75659,-133.868,10.0708,-7.87354,7.44629,0.321869,-0.227753,0.644257,-0.655243,19922,-12004,13549,-3034,-29382
1418205,-1.80879,-9.91963,1.36377,-86.0504,6.83899,-133.813,10.8032,-5.24902,7.75146,0.323608,-0.22699,0.643646,-0.655273,27346,-10468,18157,-3034,-29382
1418211,-2.0624,-10.1206,1.76094,-85.9131,7.01477,-133.737,11.0474,-4.39453,9.64355,0.324432,-0.226532,0.643341,-0.655304,-23086,-8676,27117,-3034,-29382
1418217,-2.52656,-9.87656,1.13887,-85.8417,7.10815,-133.704,12.146,-2.74658,10.7422,0.325256,-0.225983,0.643066,-0.655334,-15918,-8164,30189,-3034,-29382
1418223,-2.79453,-9.64209,1.16279,-85.7538,7.20154,-133.665,14.2822,-4.39453,11.1084,0.32608,-0.225372,0.642792,-0.655396,-9518,-7652,32749,-3034,-29382
1418229,-2.97158,-9.59424,1.6126,-85.6659,7.30042,-133.627,15.3809,-4.39453,11.4136,0.326996,-0.224792,0.642426,-0.655518,-3118,-6884,-29971,-3034,-29382
1418235,-2.42607,-9.08701,1.75137,-85.4956,7.48718,-133.528,13.6108,-6.22559,11.2915,0.328857,-0.223633,0.641663,-0.655731,3283,-6372,-27667,-3034,-29382
1418241,-2.58398,-9.15879,1.40205,-85.4242,7.58057,-133.489,11.7188,-4.45557,11.7188,0.329773,-0.223083,0.641296,-0.655823,15827,-4836,-23571,-3034,-29382
1418247,-2.63184,-9.71865,0.91875,-85.3473,7.67944,-133.434,12.5122,-7.32422,12.207,0.330658,-0.222534,0.641022,-0.655853,23251,-4580,-21523,-3034,-29382
1418253,-1.99063,-9.55117,1.225,-85.2539,7.77283,-133.369,15.1978,-9.70459,13.0005,0.331604,-0.222046,0.640656,-0.655853,30163,-4068,-19731,-3042,-29381
1418259,-2.0959,-9.7043,1.20586,-85.166,7.8717,-133.319,14.4043,-6.28662,12.8784,0.332672,-0.221588,0.640228,-0.655914,-28717,-4068,-17939,-3042,-29381
1418265,-3.01943,-9.17314,1.34463,-84.9683,8.07495,-133.204,17.6392,-6.83594,14.5264,0.334686,-0.220428,0.639374,-0.656097,-21805,-3812,-14867,-3042,-29381
1418271,-3.1917,-9.03438,1.45469,-84.8694,8.17932,-133.143,16.7236,-8.05664,14.7095,0.335724,-0.219818,0.638916,-0.656219,-10029,-3812,-11027,-3042,-29381
1418277,-2.60313,-9.14922,1.29199,-84.7705,8.2782,-133.072,16.1743,-10.5591,14.1602,0.336792,-0.219238,0.638458,-0.656311,-3885,-4324,-9491,-3042,-29381
1418283,-2.09111,-9.04873,1.57432,-84.6771,8.37158,-133,15.9912,-9.94873,13.6108,0.337921,-0.218781,0.63797,-0.656372,2516,-4580,-8211,-3042,-29381
1418289,-1.99063,-9.5751,1.85186,-84.5892,8.46497,-132.951,14.2212,-6.53076,13.916,0.338989,-0.218323,0.637512,-0.656433,8916,-4580,-6419,-3042,-29381
1418295,-2.49785,-10.3024,1.4499,-84.408,8.66821,-132.841,15.9302,-7.69043,16.1743,0.340881,-0.217163,0.636749,-0.656555,15060,-3812,-4627,-3042,-29381
1418301,-2.46914,-10.3359,1.26328,-84.3091,8.78357,-132.786,17.4561,-6.46973,18.1885,0.341949,-0.216583,0.636322,-0.656616,25812,-1508,-275,-3042,-29381
1418307,-2.82324,-10.6183,1.25371,-84.1992,8.90442,-132.731,19.7144,-6.5918,19.9585,0.343048,-0.215912,0.635895,-0.656677,30932,29,1774,-3042,-29381
1418313,-2.8041,-10.2929,1.07666,-84.0729,9.02527,-132.66,22.583,-8.97217,20.6909,0.344208,-0.215149,0.635406,-0.656799,-29484,1053,2798,-3042,-29381
1418319,-2.49307,-10.5273,1.17236,-83.9465,9.15161,-132.599,22.7661,-7.99561,21.4233,0.34549,-0.214386,0.634827,-0.656921,-23852,1821,2798,-3042,-29381
1418325,-2.73232,-11.2308,0.92832,-83.6719,9.42627,-132.451,26.1841,-9.21631,24.292,0.348083,-0.212799,0.633636,-0.657227,-17964,2333,2798,-3042,-29381
1418331,-3.05293,-10.6805,0.91875,-83.4961,9.56909,-132.363,31.9214,-11.5356,25.6958,0.349457,-0.211914,0.632996,-0.65741,-7468,4381,2286,-3042,-29381
1418337,-2.94766,-10.0584,1.3207,-83.3148,9.71191,-132.27,33.5693,-12.6953,25.8179,0.351013,-0.210999,0.632141,-0.657684,-2604,6173,2542,-3042,-29381
1418343,-3.01465,-10.5465,1.82793,-83.1281,9.85474,-132.182,33.8135,-11.9019,26.1841,0.3526,-0.210083,0.631226,-0.65799,2773,7965,2030,-3042,-29381
1418349,-3.47402,-10.3312,1.3542,-82.9358,9.99756,-132.089,36.3159,-11.9019,27.0386,0.354187,-0.209106,0.630341,-0.658325,8149,10269,-19,-3042,-29381
1418355,-3.27783,-10.9532,1.5791,-82.4963,10.2942,-131.841,41.3818,-20.9961,28.1982,0.357574,-0.207153,0.628296,-0.659058,21717,12829,-1811,-3042,-29381
1418361,-2.38779,-10.4173,0.937891,-82.2491,10.4425,-131.715,46.2646,-19.104,28.5645,0.359497,-0.206268,0.627045,-0.659485,28117,13853,-2323,-3042,-29381
1418367,-2.63184,-10.714,1.53604,-81.991,10.5963,-131.6,48.2178,-15.3198,29.3579,0.36142,-0.205292,0.625702,-0.660004,-31019,14621,-3859,-3050,-29380
1418373,-3.33047,-10.3072,0.990527,-81.7218,10.7556,-131.479,50.2319,-17.4561,30.8228,0.363281,-0.204132,0.624359,-0.660614,-25131,15133,-5139,-3050,-29380
1418379,-3.18213,-10.7188,1.59346,-81.4362,10.9094,-131.336,53.6499,-20.3857,30.8838,0.365265,-0.202972,0.622925,-0.661224,-19755,16157,-6675,-3050,-29380
1418385,-2.78975,-10.4221,2.14854,-80.8154,11.239,-131.05,59.2041,-20.3247,34.3018,0.369507,-0.200653,0.61972,-0.662598,-7467,18717,-12563,-3050,-29380
1418391,-1.01445,-13.3841,6.21592,-80.5627,11.4642,-130.902,45.0439,-19.043,46.814,0.371704,-0.199371,0.618011,-0.663361,-811,20765,-17171,-3050,-29380
1418397,-0.248828,-13.6425,5.5125,-80.4309,11.7883,-130.77,21.5454,-11.7798,65.2466,0.374084,-0.197937,0.616821,-0.663544,5846,22301,-21523,-3050,-29380
1418403,-1.20107,-14.7622,3.91904,-80.3375,12.1674,-130.693,15.564,-0.305176,76.355,0.376617,-0.196167,0.616547,-0.662903,13526,24093,-25107,-3050,-29380
1418409,-2.18203,-15.7767,3.33047,-80.2332,12.6013,-130.616,18.5547,2.2583,86.853,0.379059,-0.193909,0.61673,-0.661987,21974,25885,-29715,-3050,-29380
1418415,-2.53135,-12.9391,3.44531,-79.964,13.5901,-130.408,24.7192,0.366211,104.553,0.384796,-0.188385,0.617096,-0.659943,-24618,29725,29677,-3050,-29380
1418421,-2.22988,-12.6089,3.94775,-79.8486,14.1284,-130.336,18.9209,7.8125,109.436,0.388062,-0.185242,0.617218,-0.658813,-13866,32285,27373,-3050,-29380
1418427,-2.7084,-12.2261,5.94316,-79.7443,14.7107,-130.27,18.0664,10.5591,117.004,0.391205,-0.181824,0.617645,-0.657501,-2602,-30435,24813,-3050,-29380
1418433,-1.56475,-13.2692,5.85703,-79.6838,15.3149,-130.226,8.8501,16.1133,121.765,0.39447,-0.178162,0.618164,-0.656067,9431,-27875,23277,-3050,-29380
1418439,-1.22979,-13.0539,5.76611,-79.6234,15.9467,-130.155,9.82666,24.5972,126.404,0.397644,-0.174347,0.619049,-0.654327,22743,-25315,20973,-3050,-29380
1418445,-2.42129,-12.3505,5.27803,-79.6179,17.3474,-130.056,-2.19727,33.0811,143.921,0.404541,-0.166473,0.621185,-0.650116,-12073,-21219,14829,-3050,-29380
1418451,-3.08164,-13.7669,3.94775,-79.6948,18.1055,-130.045,-14.5874,41.3208,149.536,0.408112,-0.16214,0.62265,-0.647583,5336,-18915,10733,-3050,-29380
1418457,-4.47891,-14.1688,3.03379,-79.7498,18.9075,-130.034,-10.0098,42.5415,158.691,0.411499,-0.157654,0.624603,-0.644653,23768,-16867,6381,-3050,-29380
1418463,-5.19668,-13.1305,3.00986,-79.7992,19.7424,-129.985,-10.6812,36.0107,167.297,0.415131,-0.152802,0.626465,-0.641663,-23592,-14563,2541,-3050,-29380
1418469,-4.34014,-12.7668,1.47861,-79.8871,20.6213,-129.952,-17.2119,40.3442,175.171,0.423157,-0.142792,0.630402,-0.634857,-3880,-12771,-276,-3050,-29380
1418475,-3.79463,-16.8725,0.669922,-80.1123,22.4725,-129.792,-28.3203,22.522,191.589,0.427246,-0.137543,0.632751,-0.63092,-24871,-11235,-3860,-3050,-29380
1418481,-3.00508,-19.0832,1.82314,-80.1617,23.4833,-129.655,-17.5781,24.6582,206.909,0.432037,-0.13269,0.634857,-0.626556,-295,-10467,-6420,-3050,-29380
1418487,-4.2875,-22.2031,0.899609,-80.2496,24.5654,-129.6,-18.3105,40.3442,218.75,0.437195,-0.127167,0.636749,-0.622192,25306,-9699,-10004,-3050,-29380
1418493,-5.44072,-23.586,-1.21543,-80.2606,25.7025,-129.452,-11.2305,25.7568,234.253,0.442139,-0.120911,0.639008,-0.617615,-15142,-8931,-13588,-3050,-29380
1418499,-4.53154,-26.1126,-1.49297,-80.1782,26.9275,-129.177,-2.86865,6.53076,256.226,0.454651,-0.107819,0.64212,-0.607635,11227,-9187,-16660,-3050,-29380
1418505,-4.62725,-26.4619,-2.57441,-79.7003,29.6136,-128.589,35.5835,7.38525,292.419,0.461792,-0.100342,0.642975,-0.602631,1244,-12003,-24340,-3050,-29380
1418511,-4.70381,-25.5049,-2.84238,-79.3213,31.0913,-128.188,42.7856,-3.35693,312.256,0.469452,-0.0918884,0.64328,-0.597687,30684,-14307,-30484,-3050,-29380
1418517,-1.85186,-24.768,0.162695,-78.8489,32.6404,-127.7,50.0488,-12.5732,331.909,0.477844,-0.0830078,0.643219,-0.592377,-3876,-17891,26860,-3050,-29380
1418523,-0.358887,-25.9978,2.21074,-78.4204,34.2883,-127.238,40.7104,-1.0376,350.83,0.486877,-0.0737,0.642731,-0.586792,28893,-22499,17132,-3050,-29380
1418529,-0.555078,-29.9407,2.07676,-77.9315,36.0352,-126.749,48.3398,2.68555,373.108,0.505219,-0.0529785,0.642365,-0.573761,-4643,-27619,7404,-3050,-29380
1418535,-1.32549,-29.8067,2.33994,-76.6901,39.8254,-125.695,75.2563,13.1226,415.588,0.51474,-0.0412903,0.641846,-0.566772,1503,23069,-15125,-3050,-29380
1418541,-2.79932,-29.9551,3.96689,-75.954,41.8689,-125.107,77.3315,18.7988,436.951,0.524506,-0.0284729,0.6409,-0.559662,-24609,12573,-28181,-3050,-29380
1418547,-1.79443,-28.6535,1.42119,-75.119,44.0112,-124.382,75.4395,11.7798,461.365,0.534424,-0.0149231,0.639832,-0.551971,17120,-228,23787,-3050,-29380
1418553,0.44502,-27.0313,0.870898,-74.2236,46.236,-123.591,75.0122,17.2119,481.262,0.544891,-0.000915527,0.638458,-0.543457,-5408,-15332,9451,-3050,-29380
1418559,-8.37881,-20.9111,4.08652,-73.2788,48.5321,-122.745,27.2217,45.2881,488.77,0.565704,0.0288086,0.635529,-0.524536,-29471,-30180,-5398,-3050,-29380
1418565,-7.05811,-29.8546,2.38301,-71.6473,53.042,-120.668,-8.60596,-10.8643,500.732,0.575134,0.0430603,0.635315,-0.513458,-6430,-3301,30698,-3050,-29380
1418571,2.56484,-30.4049,2.67012,-70.2301,55.2832,-119.031,24.7192,-30.2124,513.916,0.586151,0.0554199,0.634216,-0.501007,-25117,-25317,14314,-3050,-29380
1418577,0.0669922,-23.6147,2.86631,-68.8733,57.5519,-117.57,34.9121,11.5356,510.742,0.597565,0.0685425,0.631622,-0.489014,23012,14363,-791,-3050,-29380
1418583,-6.7375,-26.1317,2.44043,-67.3572,59.7382,-115.774,3.90625,-6.83594,505.432,0.607422,0.0826721,0.629639,-0.477112,7141,-13798,-17431,-3050,-29380
1418589,1.55518,-33.8789,-3.53145,-62.9187,63.8525,-110.88,32.8979,-36.7432,502.197,0.62793,0.107483,0.624542,-0.45163,-10779,23834,31977,-3050,-29380
1418595,3.4166,-28.8641,-5.31152,-60.0128,65.7751,-107.913,51.1475,-38.3301,493.164,0.637939,0.120209,0.620667,-0.439575,19943,24857,-792,-3050,-29380
1418601,3.60322,-23.2128,-5.31152,-56.7389,67.522,-104.612,55.6641,-40.6494,472.046,0.6474,0.133087,0.616211,-0.428162,3048,-11752,-18712,-3042,-29381
1418607,6.01494,-17.1931,-7.49834,-52.9486,69.0326,-100.8,56.0303,-59.8145,447.937,0.656189,0.145416,0.611542,-0.417328,-13848,15128,28648,-3042,-29381
1418613,11.6854,-7.33564,-10.0393,-48.6639,70.2081,-96.5918,73.4253,-83.374,407.593,0.664734,0.156677,0.606323,-0.407227,-32023,-25577,8936,-3042,-29381
1418619,20.0498,19.4038,-6.74707,-39.8145,71.6803,-88.5168,156.189,-91.2476,313.049,0.679474,0.176514,0.594086,-0.392578,14570,-2282,-12313,-3042,-29381
1418625,5.85703,39.9226,-3.75156,-38.1281,71.9769,-87.2809,109.802,-12.207,142.212,0.684998,0.186493,0.586914,-0.389099,-32021,-18923,13031,-3042,-29381
1418631,2.01934,21.3562,-1.7418,-37.9468,71.6418,-86.9458,-22.2168,-76.416,20.6909,0.685852,0.192047,0.58429,-0.388855,6636,5397,-7706,-3042,-29381
1418637,11.0968,6.45996,-3.46924,-39.0784,71.0376,-87.8357,-52.8564,-71.3501,-72.937,0.687317,0.189453,0.583008,-0.389435,-23572,31508,-28442,-3042,-29381
1418643,7.929,4.35449,-2.6127,-41.4185,70.3015,-89.8517,-81.665,-40.5884,-150.94,0.687256,0.183685,0.583221,-0.391998,8173,-5357,16614,-3042,-29381
1418649,12.9295,-5.82832,-2.81367,-47.0215,68.1482,-94.4714,-131.531,-50.9033,-236.877,0.682922,0.164764,0.588043,-0.400696,-29203,27667,-3099,-3042,-29381
1418655,11.9868,-10.5943,-3.86641,-50.0098,67.0056,-97.0148,-123.047,-24.353,-252.441,0.679749,0.152802,0.5914,-0.405853,14318,-23022,28389,-3042,-29381
1418661,9.61338,-12.8146,-4.57939,-52.7069,65.8136,-99.3274,-110.046,-23.2544,-255.188,0.675385,0.141174,0.595398,-0.411438,28654,25874,15333,-3042,-29381
1418667,9.4124,-13.5276,-3.75156,-55.069,64.5996,-101.371,-97.168,-24.7192,-250.671,0.670715,0.129852,0.599152,-0.417328,-26898,14610,3813,-3042,-29381
1418673,8.36924,-12.9869,-2.85674,-57.2113,63.4131,-103.25,-85.083,-15.686,-242.92,0.665955,0.119019,0.602509,-0.42334,-20754,8722,-5916,-3042,-29381
1418679,6.99111,-10.8623,-2.04805,-59.0955,62.243,-104.914,-66.7114,-13.855,-223.816,0.655853,0.0992432,0.608704,-0.43515,-17682,7186,-15132,-3042,-29381
1418685,6.37861,-9.97227,-2.05283,-62.287,59.9854,-107.787,-58.1055,-7.62939,-215.881,0.650818,0.0901794,0.611389,-0.440887,-18194,12562,-31004,-3042,-29381
1418691,5.74219,-8.61328,-2.46914,-63.6658,58.8922,-109.067,-49.3164,-5.31006,-209.534,0.64566,0.0816956,0.614014,-0.446503,-21522,19218,29156,-3042,-29381
1418697,5.24453,-7.07725,-2.25381,-64.9017,57.7936,-110.248,-41.0767,-5.98145,-208.74,0.640411,0.0736694,0.616394,-0.452087,-26642,28178,24804,-3042,-29381
1418703,5.17754,-5.29717,-1.84229,-66.0553,56.662,-111.368,-35.6445,-5.67627,-212.341,0.635132,0.0658875,0.61853,-0.457794,32238,-26350,21732,-3042,-29381
1418709,4.55068,-2.66055,-1.4834,-68.3185,54.2725,-113.582,-39.4897,0.549316,-232.849,0.623779,0.050354,0.62262,-0.469666,13550,19,19940,-3042,-29381
1418715,4.91914,-2.20596,-1.53125,-69.4501,52.9596,-114.659,-45.4102,2.13623,-248.291,0.617554,0.0420837,0.624756,-0.47583,2798,14099,19428,-3042,-29381
1418721,5.00049,-2.41172,-1.54561,-70.5927,51.5698,-115.735,-51.0864,5.18799,-265.32,0.61087,0.0332947,0.627014,-0.482147,-10003,29715,18916,-3026,-29383
1418727,5.08184,-2.79453,-1.40684,-71.7462,50.0812,-116.812,-57.251,8.91113,-283.936,0.603668,0.0239258,0.629395,-0.488647,-24851,-18669,19172,-3026,-29383
1418733,5.17754,-3.26826,-1.30156,-72.8998,48.5046,-117.861,-63.2935,10.9253,-300.72,0.595856,0.0140076,0.631897,-0.495361,23533,276,19172,-3026,-29383
1418739,4.98135,-5.08662,-1.17236,-75.1849,45.1263,-119.872,-76.9653,16.2354,-329.468,0.578552,-0.00753784,0.637146,-0.509064,-16148,-23020,20452,-3026,-29383
1418745,4.76123,-6.10107,-1.05752,-76.3055,43.3466,-120.822,-83.1909,20.1416,-339.844,0.569122,-0.019043,0.639862,-0.515961,26604,-236,22500,-3026,-29383
1418751,4.23965,-7.10596,-1.10059,-77.3987,41.5228,-121.723,-88.562,23.1934,-346.924,0.559204,-0.0309143,0.642578,-0.522766,3820,21525,25572,-3026,-29383
1418757,3.84727,-8.06299,-0.976172,-78.4534,39.6826,-122.569,-92.9565,24.7192,-350.708,0.548889,-0.0429688,0.645325,-0.529449,-20757,-20715,29924,-3026,-29383
1418763,3.34004,-8.95781,-0.756055,-79.4751,37.8204,-123.354,-97.3511,26.7944,-352.6,0.5383,-0.0552063,0.64801,-0.535889,17643,3094,-29212,-3026,-29383
1418769,2.1916,-10.6853,-0.339746,-81.4307,34.1016,-124.794,-104.553,32.3486,-351.318,0.516449,-0.0797729,0.653137,-0.547913,21738,-11754,-10268,-3026,-29383
1418817,-4.21094,-15.8724,1.65088,-88.2422,18.0121,-127.996,-118.103,-2.68555,-321.838,0.41861,-0.188507,0.666901,-0.586792,-3868,11802,1255,-3026,-29383
1418823,-4.78994,-16.5184,3.19648,-88.8739,16.3586,-128.046,-121.765,-5.49316,-315.186,0.399109,-0.212189,0.66748,-0.591644,17124,-32742,21735,-3026,-29383
1418829,-5.57949,-18.0257,3.95732,-90.0934,13.2056,-128.013,-121.887,-10.0708,-299.622,0.389771,-0.223755,0.667542,-0.593536,-10270,5659,744,-3026,-29383
1418835,-7.17295,-18.3319,5.20625,-90.6866,11.7059,-127.98,-120.789,-4.94385,-291.687,0.380707,-0.235016,0.66748,-0.595123,6114,22811,23016,-3017,-29384
1418841,-8.62764,-19.9445,4.84258,-91.2744,10.2228,-127.903,-122.192,-9.52148,-290.161,0.371765,-0.24585,0.667389,-0.596527,21473,-27109,-19736,-3017,-29384
1418847,-5.30195,-19.9732,5.21582,-91.8073,8.77258,-127.727,-114.136,-24.6582,-285.706,0.363007,-0.256683,0.667114,-0.597656,-26912,-13029,2025,-3017,-29384
1418853,-4.45498,-19.2842,6.21592,-92.3346,7.32239,-127.623,-111.816,-6.5918,-287.354,0.346313,-0.277954,0.665497,-0.599823,-11041,28,24297,-3017,-29384
1418859,-5.09619,-19.9062,5.92402,-93.3453,4.4165,-127.343,-108.154,-13.3667,-292.603,0.337708,-0.288239,0.66452,-0.600983,18142,19996,3818,-3017,-29384
1418865,-4.81387,-19.7053,5.97666,-93.8397,2.92786,-127.249,-105.347,2.86865,-298.645,0.329163,-0.298645,0.663239,-0.602051,30941,27164,25066,-3017,-29384
1418871,-7.91465,-20.3178,5.75654,-94.3561,1.40625,-127.2,-110.413,13.7939,-307.373,0.320007,-0.308655,0.661896,-0.603394,-22052,32028,-19990,-3017,-29384
1418877,-8.01992,-21.6815,5.58428,-94.8615,-0.148315,-127.106,-108.948,9.46045,-316.65,0.310242,-0.318573,0.660645,-0.604736,-10789,-30692,-278,-3017,-29384
1418883,-7.40264,-22.1122,5.46465,-95.3448,-1.75781,-127.057,-103.638,21.0571,-327.698,0.289886,-0.338715,0.657104,-0.607727,3035,-28900,19691,-3017,-29384
1418889,-8.93389,-22.7726,4.96221,-96.2128,-5.13062,-127.073,-91.7358,41.9312,-348.511,0.27887,-0.348511,0.654907,-0.609711,25561,-31972,-5653,-3017,-29384
1418895,-10.0632,-22.9879,4.67988,-96.5588,-6.87744,-127.156,-81.1157,56.5796,-356.018,0.267365,-0.358124,0.652374,-0.61203,-31528,29468,13292,-3017,-29384
1418901,-12.317,-22.2988,4.43584,-96.8445,-8.65173,-127.288,-69.8853,68.1763,-361.206,0.255402,-0.367249,0.649475,-0.614777,-23849,23068,30444,-3017,-29384
1418907,-14.1688,-20.5762,5.17754,-97.0807,-10.4205,-127.447,-62.1338,74.8291,-361.877,0.243164,-0.375977,0.646149,-0.61795,-16938,14108,-19220,-3017,-29384
1418913,-16.0686,-18.7004,6.02451,-97.3169,-12.1564,-127.65,-65.2466,82.5806,-356.262,0.218323,-0.39209,0.63913,-0.624512,-7467,4380,-5396,-3017,-29384
