Timestamp,AccX,AccY,AccZ,AngleX,AngleY,AngleZ,AngularVelX,AngularVelY,AngularVelZ,QW,QX,QY,QZ,MagX,MagY,MagZ,Height,AirPressure
815187,-4.95264,-5.55078,-5.11533,-79.3378,57.6672,-138.466,105.347,7.38525,159.729,0.524475,0.142761,0.657562,-0.521576,20201,-32492,-17688,-3374,-29341
815193,-6.23506,-6.48389,-6.84277,-78.6072,58.0902,-138.115,92.9565,-14.2822,116.821,0.526886,0.148834,0.654449,-0.521332,-3607,-2541,31208,-3374,-29341
815199,-4.40234,-9.72822,-6.6418,-77.8546,58.3539,-137.664,82.5806,-30.3955,87.5244,0.528992,0.152924,0.651459,-0.52182,-30742,28179,13800,-3374,-29341
815205,-4.9335,-12.561,-6.55566,-77.1735,58.5406,-137.225,69.8853,-32.6538,71.9604,0.530884,0.155579,0.648499,-0.522766,3819,-5358,-4377,-3374,-29341
815211,-7.62275,-17.595,-4.76602,-75.8716,58.9032,-136.027,21.4844,-56.0913,81.1157,0.534576,0.158661,0.643585,-0.52417,-3093,-751,23015,-3374,-29341
815217,-8.33574,-18.7674,-3.52188,-75.2673,59.1669,-135.214,-10.498,-66.4062,98.3276,0.537384,0.15918,0.641541,-0.523621,20972,-27887,5863,-3382,-29340
815223,-8.33574,-20.1312,-2.0002,-74.7455,59.5239,-134.302,-44.3726,-70.4956,118.713,0.541046,0.15918,0.639893,-0.521851,-23060,12049,-12058,-3382,-29340
815229,-8.63242,-23.476,-1.75137,-74.2896,59.9854,-133.275,-78.0029,-74.8291,142.578,0.545532,0.158905,0.638733,-0.518677,-3348,-12016,-28698,-3382,-29340
815235,-8.03906,-27.3041,-1.81357,-73.7512,60.5457,-132.039,-98.938,-87.4634,168.274,0.550842,0.158417,0.638092,-0.514038,14573,30992,19942,-3382,-29340
815241,-5.30674,-31.3715,-1.5791,-72.1362,61.9244,-128.93,-102.417,-110.229,214.05,0.56427,0.157501,0.636353,-0.50174,31469,9232,4070,-3382,-29340
815247,-3.84727,-32.0079,-1.04316,-70.9387,62.7045,-127.046,-88.0737,-119.446,232.117,0.572052,0.157593,0.634766,-0.494843,-5651,-31217,-24603,-3382,-29340
815253,-2.86152,-31.0126,-0.564648,-69.4556,63.512,-124.958,-69.5801,-126.526,245.85,0.580292,0.158356,0.632446,-0.487915,7406,14607,27877,-3382,-29340
815259,-1.804,-28.9789,1.07187,-67.6648,64.3085,-122.646,-52.002,-135.193,253.723,0.588776,0.15979,0.629425,-0.481171,19182,-5362,13797,-3382,-29340
815265,-0.516797,-26.572,2.50264,-65.6653,65.0665,-120.196,-38.4521,-137.634,253.723,0.597412,0.161682,0.625671,-0.474762,30958,-25330,-28,-3382,-29340
815271,0.564648,-23.3563,3.79463,-61.3422,66.3245,-115.131,-20.3857,-136.902,231.262,0.613983,0.166046,0.617218,-0.463013,-13074,-2291,-29980,-3382,-29340
815277,2.08633,-21.983,4.72295,-59.1504,66.7749,-112.659,-11.8408,-132.69,209.595,0.621643,0.16806,0.612732,-0.457977,-3346,-24819,19428,-3382,-29340
815283,3.45967,-21.2892,5.82832,-57.1124,67.099,-110.402,-4.39453,-122.192,184.326,0.628601,0.1698,0.608307,-0.453735,5103,19213,3300,-3382,-29340
815289,4.74688,-21.1217,6.76621,-55.3217,67.3132,-108.463,3.90625,-107.971,155.09,0.634674,0.171234,0.604156,-0.450256,12271,-2804,-15133,-3382,-29340
815295,6.34512,-21.0068,7.61797,-53.855,67.4231,-106.935,14.4653,-89.5386,123.169,0.643402,0.17337,0.597229,-0.446289,18671,-24564,31459,-3382,-29340
815301,10.2785,-19.1311,8.64678,-52.0917,67.3627,-105.392,42.7856,-46.5698,50.6592,0.645813,0.174225,0.594604,-0.446014,29679,-2293,-5150,-3382,-29340
815307,12.0634,-17.2888,8.24961,-51.8829,67.2034,-105.491,61.5845,-20.5688,9.46045,0.646759,0.174896,0.59259,-0.447052,-31249,-23029,-21534,-3382,-29340
815313,13.4941,-15.5853,6.70879,-52.1466,66.9452,-106.227,83.0078,6.65283,-34.9731,0.646057,0.175537,0.591248,-0.449585,-27409,23307,27618,-3382,-29340
815319,14.2933,-14.7383,5.17275,-52.8223,66.5881,-107.545,109.009,32.3486,-78.6133,0.643585,0.176178,0.590576,-0.453705,-23825,4875,11746,-3374,-29341
815325,14.7287,-13.097,3.60801,-53.811,66.1377,-109.352,134.094,55.7251,-116.882,0.633484,0.177734,0.590729,-0.466949,-20753,-11766,-2847,-3374,-29341
815331,13.719,-10.3838,-0.15791,-56.5027,64.9402,-113.978,155.762,88.4399,-177.917,0.626251,0.178497,0.591431,-0.475433,-14609,27658,-32031,-3374,-29341
815337,13.0635,-8.35967,-2.27773,-58.0463,64.1986,-116.516,152.1,97.1069,-198.425,0.61795,0.178955,0.592499,-0.48468,-11025,17162,21985,-3374,-29341
815343,11.8289,-4.78516,-4.42627,-59.6667,63.3746,-119.108,143.372,104.004,-216.248,0.608917,0.178955,0.593964,-0.494263,-7697,8202,11489,-3374,-29341
815349,9.85264,-1.00488,-6.82842,-61.3531,62.4298,-121.696,126.221,105.469,-236.145,0.599274,0.178345,0.595825,-0.503937,-4369,1290,3553,-3374,-29341
815355,7.91465,2.18203,-8.88125,-63.056,61.3422,-124.189,101.562,98.7549,-258.423,0.578827,0.173737,0.600952,-0.52298,-1297,-3831,-2336,-3374,-29341
815361,3.96689,4.2875,-12.0634,-66.3794,58.667,-128.644,44.4946,70.9839,-305.481,0.568329,0.169098,0.604156,-0.532257,2800,-6647,-11296,-3374,-29341
815367,1.89971,4.22529,-13.1496,-67.879,57.074,-130.446,12.085,43.396,-325.317,0.55777,0.162689,0.607727,-0.54126,3824,-2807,-16672,-3374,-29341
815373,0.636426,3.79463,-13.8913,-69.2413,55.3217,-131.891,-24.0479,11.6577,-344.055,0.547577,0.154297,0.61142,-0.549927,4080,4106,-21280,-3374,-29341
815379,-0.77998,3.65107,-14.054,-70.4993,53.41,-133.006,-59.8145,-20.5078,-363.953,0.537903,0.143738,0.615204,-0.558014,3568,12042,-25632,-3374,-29341
815385,-1.99063,1.46904,-14.054,-71.6418,51.3336,-133.759,-130.981,-95.1538,-408.02,0.520111,0.115845,0.623047,-0.57254,1520,24330,-28192,-3374,-29341
815391,-1.22021,0,-13.1592,-73.6963,46.6919,-134.352,-158.691,-132.935,-430.115,0.511871,0.0983887,0.626892,-0.578979,-9489,-6390,-31008,-3374,-29341
815397,0.923535,-2.11025,-11.2643,-74.6631,44.1705,-134.308,-182.312,-157.593,-451.355,0.503998,0.0787354,0.630463,-0.584961,-19217,16651,-31264,-3374,-29341
815403,2.04805,-4.321,-9.36934,-75.6464,41.5393,-134.127,-204.346,-175.659,-470.703,0.496124,0.0573425,0.633881,-0.590454,-31761,-22261,-32032,-3374,-29341
815409,4.47891,-6.53174,-7.38828,-76.6626,38.8312,-133.824,-222.778,-188.843,-484.497,0.488068,0.0344849,0.637177,-0.595367,20463,5132,-32032,-3374,-29341
815415,7.09639,-11.8624,-3.14385,-77.7228,36.0791,-133.467,-237.244,-193.054,-496.033,0.470917,-0.0140991,0.643311,-0.603394,3311,-28404,-31520,-3374,-29341
815421,7.84766,-15.7145,-1.66523,-80.0079,30.5695,-132.759,-251.648,-170.776,-502.93,0.461548,-0.0390015,0.646179,-0.606445,21998,-19187,-26144,-3374,-29341
815427,7.1251,-18.3319,-0.114844,-81.1505,27.8613,-132.49,-239.624,-151.428,-501.526,0.451294,-0.0634155,0.649048,-0.60907,-7443,23054,-21792,-3374,-29341
815433,6.81406,-19.0976,1.52646,-82.2601,25.1862,-132.248,-228.271,-135.864,-499.573,0.440277,-0.0869141,0.651489,-0.611603,24301,1551,-16160,-3349,-29344
815439,7.3835,-19.3225,3.12471,-83.3423,22.533,-132.067,-218.689,-115.112,-499.695,0.42865,-0.109619,0.653473,-0.614105,-12564,-18673,-8736,-3349,-29344
815445,7.44092,-21.6289,3.66543,-84.4025,19.9017,-131.984,-187.744,-61.2793,-498.352,0.402893,-0.152191,0.656464,-0.619263,16108,24592,-1056,-3349,-29344
815451,6.9624,-21.2844,3.39746,-86.3086,14.7217,-132.067,-170.044,-36.6821,-496.582,0.388763,-0.171722,0.657349,-0.622223,-2838,-17903,20705,-3349,-29344
815457,6.01494,-19.222,2.87109,-87.182,12.1564,-132.209,-160.461,-15.1367,-495.605,0.373932,-0.190094,0.657806,-0.625488,15594,26642,-31263,-3349,-29344
815463,5.01963,-16.705,2.2251,-88.0664,9.59656,-132.418,-161.56,6.71387,-497.681,0.358459,-0.20755,0.657928,-0.628845,30185,5651,-15903,-3349,-29344
815469,3.30654,-14.8531,1.31113,-89.0057,7.01477,-132.698,-173.462,29.541,-502.808,0.342163,-0.224335,0.658051,-0.63205,-23320,-15597,738,-3349,-29344
815475,-2.98594,-15.5135,0.516797,-90.0165,4.40552,-133.022,-209.961,56.0913,-516.357,0.306488,-0.256714,0.658966,-0.637054,-9241,26132,18146,-3349,-29344
815481,-6.48867,-18.5377,0.555078,-92.2632,-0.85144,-133.594,-226.929,60.8521,-516.541,0.287445,-0.272797,0.659698,-0.638458,9958,-25579,-7454,-3349,-29344
815487,-10.5991,-22.7104,0.703418,-93.4332,-3.42773,-133.786,-233.215,57.6782,-507.935,0.268036,-0.288757,0.660553,-0.639008,15589,11286,16099,-3349,-29344
815493,-14.6521,-26.371,1.39727,-94.5538,-5.89966,-133.857,-224.915,44.1284,-491.882,0.248871,-0.304382,0.661194,-0.638824,18148,-19690,-23837,-3349,-29344
815499,-17.997,-28.0506,3.8377,-95.5975,-8.22327,-133.781,-207.092,24.9023,-467.834,0.230682,-0.319611,0.661285,-0.638123,18915,12567,3300,-3349,-29344
815505,-21.1695,-24.6101,9.89092,-97.4377,-12.464,-133.325,-169.739,-1.0376,-425.171,0.198853,-0.348328,0.659393,-0.635773,17634,-23529,32484,-3349,-29344
815511,-22.05,-20.6288,12.6854,-98.2507,-14.436,-133.039,-154.48,-1.2207,-411.682,0.184845,-0.361664,0.657532,-0.634491,17376,25624,25317,-3349,-29344
815517,-23.7392,-16.169,14.6426,-99.0198,-16.3751,-132.775,-148.56,8.54492,-407.715,0.171478,-0.374298,0.655243,-0.633301,15327,-20712,-10523,-3349,-29344
815523,-25.9978,-12.7812,15.59,-99.8053,-18.3307,-132.556,-153.381,21.6675,-412.598,0.158112,-0.38623,0.65271,-0.632233,11742,-4584,20198,-3349,-29344
815529,-28.5339,-11.6327,15.9059,-100.629,-20.3302,-132.385,-164.673,38.3301,-422.363,0.144196,-0.397736,0.650085,-0.631104,7645,7961,-14106,-3349,-29344
815535,-35.3288,-15.7432,15.8628,-102.382,-24.3787,-132.242,-188.477,74.7681,-426.392,0.113739,-0.419495,0.645111,-0.628326,3292,17177,14823,-3349,-29344
815541,-40.2336,-19.3607,15.4417,-103.244,-26.3232,-132.286,-191.711,90.6982,-410.095,0.0974731,-0.429291,0.642883,-0.626709,-39,28697,4072,-3349,-29344
815547,-45.569,-22.6386,14.9823,-104.041,-28.125,-132.413,-186.768,102.173,-380.493,0.0812073,-0.437988,0.64093,-0.625031,-3112,29465,31208,-3349,-29344
815553,-50.9476,-24.6627,14.1306,-104.727,-29.7235,-132.616,-173.279,107.544,-339.417,0.0655212,-0.445251,0.639282,-0.623444,-6697,26649,-7448,-3366,-29342
815559,-54.9958,-24.6148,12.7189,-105.282,-31.0693,-132.841,-151.123,101.257,-290.344,0.0511169,-0.450958,0.637939,-0.62207,-9514,21273,18921,-3366,-29342
815565,-57.4793,-16.9395,10.7283,-105.881,-32.9865,-133.412,-92.8345,87.5244,-190.002,0.0285034,-0.45813,0.635895,-0.620331,-10283,13081,-21015,-3366,-29342
815571,-57.2448,-10.9532,10.2307,-105.958,-33.5742,-133.748,-70.1294,77.6367,-143.372,0.0203857,-0.459686,0.635132,-0.6203,-3117,-7656,24042,-3366,-29342
815577,-56.0964,-5.91924,9.93877,-105.974,-33.9313,-134.099,-59.8145,66.4673,-99.4873,0.0142822,-0.460114,0.634644,-0.620636,5587,-18920,-21014,-3366,-29342
815583,-54.168,-1.90449,8.68984,-105.98,-34.0741,-134.462,-59.2651,55.6641,-58.3496,0.0098877,-0.459564,0.634766,-0.621033,17362,-31464,-2070,-3366,-29342
815589,-51.5026,0.784766,8.68027,-106.007,-34.0192,-134.841,-66.4673,46.7529,-20.1416,0.00695801,-0.458069,0.635712,-0.621185,32721,21528,15339,-3366,-29342
815595,-51.0959,-25.725,-4.48848,-106.782,-33.2336,-135.637,-198.73,25.5127,74.4019,0.00430298,-0.452698,0.640533,-0.620178,8912,-3049,-22293,-3366,-29342
815601,-57.1061,-47.8946,17.9683,-106.672,-32.1515,-136.011,-35.1562,-11.7188,177.185,0.00311279,-0.448303,0.647858,-0.615784,-29489,-13801,-10005,-3366,-29342
815607,-48.7942,-27.0888,15.4178,-105.98,-30.6134,-136.247,96.1914,-55.7251,258.179,0.00891113,-0.441956,0.65271,-0.615173,3023,-23273,2028,-3366,-29342
815613,-63.9105,-73.1698,10.3742,-106.375,-28.3063,-136.505,-122.07,-91.2476,408.813,0.0206909,-0.434418,0.655487,-0.61731,-24626,-30697,13036,-3366,-29342
815619,-72.1889,-10.446,-15.8628,-104.073,-25.4169,-136.697,428.04,-120.911,520.935,0.0333862,-0.423706,0.666748,-0.612122,20174,30999,24300,-3366,-29342
815625,-25.7106,-6.32119,19.9541,-102.206,-18.6603,-135.126,249.817,-358.948,583.496,0.0877991,-0.397034,0.669037,-0.62204,1486,-30953,-23316,-3366,-29342
815631,-1.02881,-7.4792,39.5445,-100.344,-15.9631,-135.494,334.351,-37.9028,500,0.119781,-0.387177,0.67099,-0.620819,5326,-23017,-17940,-3366,-29342
815637,-26.6246,0.535937,34.8024,-97.8223,-15.6006,-137.532,375.488,371.887,91.6748,0.141418,-0.3703,0.670197,-0.62738,13006,-14569,-15380,-3366,-29342
815643,-72.5765,28.2085,-44.2292,-96.2622,-15.9247,-139.296,201.355,339.294,-66.4673,0.140411,-0.353577,0.663696,-0.643951,27342,-4329,-16660,-3366,-29342
815649,-34.2713,-43.5306,-31.7974,-97.4762,-15.6555,-137.878,-177.002,-278.076,-24.4141,0.133118,-0.34314,0.659271,-0.655579,-19506,6680,-19732,-3366,-29342
815655,46.9998,-16.1164,28.1846,-95.8722,-14.1174,-135.467,328.491,-56.0303,118.347,0.156097,-0.360718,0.658173,-0.642029,207,16920,-25108,-3366,-29342
815661,10.1062,22.4089,0.650781,-94.411,-13.4418,-136.879,210.266,258.545,119.69,0.16745,-0.355347,0.650604,-0.649841,-26673,-32488,29932,-3366,-29342
815667,-21.5906,9.27842,20.7628,-93.9441,-12.7936,-137.384,55.2979,85.4492,97.4731,0.16803,-0.341736,0.648529,-0.658997,-8753,-26344,25068,-3358,-29343
815673,-11.3791,-9.9292,6.62744,-94.4495,-12.1014,-137.175,-107.849,-54.6875,95.0928,0.170502,-0.334778,0.64917,-0.661316,9680,-20968,19180,-3358,-29343
815679,-0.301465,-17.1117,2.85674,-94.5319,-11.4532,-137.054,-26.4893,-35.7666,89.5996,0.174469,-0.33313,0.653381,-0.656921,28624,-15848,13036,-3358,-29343
815685,-3.87119,2.82803,1.03838,-93.7848,-10.3711,-137.351,26.7334,14.4653,66.9556,0.182861,-0.325714,0.654388,-0.657379,-17200,-11240,6892,-3358,-29343
815691,-2.74189,-4.78516,5.36416,-93.7463,-9.86023,-137.346,-7.01904,-9.39941,64.4531,0.185974,-0.32193,0.654816,-0.657928,21457,-2280,-1045,-3358,-29343
815697,-6.98633,-9.88135,-3.33047,-93.7354,-9.46472,-137.587,-19.8975,41.5039,44.7998,0.189209,-0.319153,0.655975,-0.657196,-24623,2329,-4629,-3358,-29343
815703,-12.9869,-17.2648,-2.81846,-93.6255,-9.07471,-137.692,6.28662,15.3809,42.1143,0.190247,-0.315643,0.657623,-0.656952,-6191,6937,-7189,-3358,-29343
815709,-6.12021,-12.4031,-2.38779,-93.3508,-8.64624,-137.51,48.3398,-41.1987,47.5464,0.192322,-0.312775,0.658295,-0.657043,12242,11545,-9749,-3358,-29343
815715,-3.67021,-10.4029,3.76592,-92.9169,-7.92664,-137.582,24.0479,17.7002,30.8228,0.199982,-0.308655,0.656891,-0.658112,30162,15897,-11797,-3358,-29343
815721,-5.26367,-19.5761,-3.34482,-92.8949,-7.58057,-137.675,-9.76562,17.2119,35.4004,0.201874,-0.305969,0.656891,-0.658783,211,23321,-13845,-3358,-29343
815727,-9.60859,-26.0552,-7.05332,-92.7081,-7.16309,-137.692,28.3203,2.01416,50.7812,0.20343,-0.303528,0.657928,-0.658386,17619,26137,-12309,-3358,-29343
815733,-10.2594,-22.7678,-7.11553,-92.2797,-6.70166,-137.56,81.665,-26.1841,58.7158,0.20636,-0.300812,0.657959,-0.658691,-31277,29209,-10517,-3358,-29343
815739,-7.67061,-15.7767,1.56953,-91.6699,-6.21277,-137.302,120.667,-50.0488,64.5142,0.211029,-0.298279,0.656311,-0.660034,-14381,31257,-8213,-3358,-29343
815745,-5.50293,-15.9633,9.81436,-90.6702,-5.26245,-136.807,82.3364,-49.7437,61.7065,0.222687,-0.293427,0.650665,-0.66394,3028,-32231,-6165,-3358,-29343
815751,-0.689063,-26.7586,14.7096,-90.3021,-4.73511,-136.62,69.2139,-34.4238,77.3926,0.228027,-0.291504,0.648712,-0.664886,-27948,-28391,-5909,-3358,-29343
815757,4.61768,-26.3997,13.8435,-90.1923,-3.95508,-136.78,11.0474,35.4004,129.395,0.233154,-0.288849,0.64743,-0.665527,-11052,-26343,-6677,-3358,-29343
815763,1.15801,-27.2658,7.16338,-90.434,-2.9718,-137.131,-61.0962,74.3408,172.546,0.23703,-0.283325,0.649139,-0.664856,5333,-24295,-7957,-3358,-29343
815769,-3.32568,-31.8069,0.00957031,-90.5383,-1.88965,-137.395,-31.0669,56.2744,194.641,0.240112,-0.276276,0.653778,-0.66217,22229,-22503,-8213,-3358,-29343
815775,1.80879,-26.8017,3.98125,-90.3845,0.670166,-137.615,13.1836,39.2456,250.793,0.251587,-0.261505,0.660156,-0.657562,-25643,-20967,-8469,-3358,-29343
815781,-2.08154,-24.3517,4.35449,-90.39,2.22473,-137.812,-3.90625,54.6875,293.518,0.258606,-0.252563,0.662964,-0.655518,15318,-18407,-7957,-3358,-29343
815787,-4.01475,-25.5049,4.00996,-90.5603,3.90015,-138.043,-35.7666,60.73,318.97,0.266418,-0.242462,0.666748,-0.652344,-25898,-17639,-7445,-3358,-29343
815793,-1.45469,-28.7396,1.99541,-90.9119,5.76233,-138.17,-71.3501,38.0859,358.826,0.274323,-0.231842,0.671631,-0.647919,1495,-16615,-6677,-3358,-29343
815799,2.39258,-35.7355,6.45518,-91.225,7.72888,-138.351,-61.9507,46.0205,381.958,0.283539,-0.2211,0.67749,-0.641571,28887,-15591,-5653,-3358,-29343
815805,9.93877,-40.4202,5.56992,-91.4172,12.063,-138.625,-3.41797,35.8276,445.251,0.303894,-0.196808,0.687897,-0.628967,-6953,-15079,-3861,-3358,-29343
815811,8.68506,-38.2238,2.13896,-91.2634,14.447,-138.878,39.7339,56.0303,474.792,0.315674,-0.18277,0.691864,-0.623047,-2600,-15079,-1045,-3358,-29343
815817,4.321,-32.831,0.77998,-90.9723,16.9354,-139.18,72.0825,66.5283,498.474,0.327759,-0.166687,0.694855,-0.61792,-28455,-17127,-277,-3358,-29343
815823,1.91885,-27.352,-0.813477,-90.6262,19.4788,-139.378,78.7354,47.0581,511.719,0.340179,-0.149139,0.697021,-0.613251,14810,-20455,492,-3358,-29343
815829,4.57939,-26.0217,1.30635,-90.2966,22.1155,-139.493,73.0591,35.0342,531.311,0.353363,-0.131622,0.698425,-0.608185,-8230,-24551,492,-3358,-29343
815835,1.63174,-28.1654,0.545508,-89.6045,27.5098,-139.861,85.2051,47.5464,552.734,0.380371,-0.0952454,0.700409,-0.596252,20188,28185,-2325,-3358,-29343
815841,4.48369,-24.3756,-0.645996,-89.209,30.2893,-139.96,89.1724,39.6118,567.139,0.393829,-0.0763855,0.700775,-0.589783,5597,18457,-6421,-3358,-29343
815847,-2.22988,-19.6957,1.92363,-89.0277,33.0194,-140.273,70.3125,78.186,557.739,0.407623,-0.057251,0.700531,-0.582855,-6947,5913,-13589,-3358,-29343
815853,-7.64668,-25.2991,-1.58389,-88.8519,35.6342,-140.251,35.4614,21.8506,536.926,0.419647,-0.0377808,0.701019,-0.575256,-17186,-8680,-22293,-3358,-29343
815859,3.79463,-26.2274,1.59824,-88.3081,38.1555,-139.944,72.8149,-22.0337,521.667,0.432526,-0.0209961,0.700989,-0.566559,-26401,-26088,-32533,-3358,-29343
815865,-2.91895,-19.4564,1.33027,-87.3907,42.8796,-139.834,83.313,14.0381,484.375,0.457153,0.0116882,0.69696,-0.552277,17633,2840,10475,-3358,-29343
815871,4.03389,-16.8868,1.69873,-86.6656,45.1483,-139.395,86.9141,-26.2451,477.051,0.468231,0.0274353,0.694641,-0.545319,7650,-19433,-2070,-3358,-29343
815877,6.76143,-13.4463,2.98594,-86.0449,47.3126,-139.169,93.811,8.78906,456.848,0.480072,0.0420227,0.691132,-0.538483,-2590,20759,-15894,-3358,-29343
815883,1.33506,-13.7669,0.483301,-85.4517,49.389,-138.999,96.8018,20.5688,439.819,0.490143,0.0569153,0.687988,-0.532043,-13341,-6890,-30486,-3358,-29343
815889,1.03838,-13.7238,-0.320605,-84.6497,51.46,-138.686,115.723,7.26318,441.956,0.499207,0.0715637,0.684845,-0.525848,-24348,29206,19946,-3358,-29343
815895,-9.41719,-7.84287,-0.129199,-82.7545,55.2173,-138.23,173.401,12.3291,396.606,0.515808,0.101318,0.676697,-0.515411,12262,-30187,-9239,-3358,-29343
815901,-9.79521,-2.58877,-0.617285,-81.6833,56.6455,-137.834,154.846,4.94385,315.918,0.523224,0.116058,0.671204,-0.511993,-3866,2837,-24599,-3382,-29340
815907,-2.63662,-9.154,0.526367,-80.5792,57.7277,-137.406,153.198,-3.41797,249.329,0.528992,0.127838,0.666229,-0.509766,-21529,-31212,23273,-3382,-29340
815913,-1.33506,-7.11074,-2.92852,-79.7058,58.5461,-137.252,153.87,20.3247,191.711,0.533447,0.13739,0.661346,-0.508972,24296,-749,5097,-3382,-29340
815919,-3.71807,-6.57959,-4.52197,-78.9313,59.0955,-137.164,145.508,19.165,138.367,0.537018,0.152496,0.653778,-0.510712,1513,29715,-13080,-3382,-29340
815925,-2.98115,-11.4461,-5.34502,-77.4481,59.6393,-136.912,128.784,6.16455,71.4111,0.537781,0.157471,0.650299,-0.512848,12266,29202,17128,-3382,-29340
815931,-5.27803,-13.9535,-4.74688,-76.8658,59.7986,-136.824,107.483,3.35693,61.1572,0.537872,0.16156,0.647247,-0.515289,-20502,-495,-25,-3382,-29340
815937,-7.35,-16.3078,-4.14873,-76.322,59.9469,-136.571,72.998,-13.1226,63.2935,0.537933,0.164795,0.644714,-0.517395,10475,-28911,-17433,-3382,-29340
815943,-8.24004,-18.2027,-3.45488,-75.8661,60.1337,-136.236,40.0391,-19.8975,73.2422,0.538757,0.166901,0.642578,-0.518524,-27669,9745,31719,-3382,-29340
815949,-9.67559,-20.1264,-3.13906,-75.4431,60.3864,-135.753,7.8125,-31.0059,88.623,0.542511,0.169342,0.639679,-0.517395,-3093,-15344,14823,-3382,-29340
815955,-8.45537,-24.5191,-2.50742,-74.4653,61.1224,-134.138,-49.4995,-62.6221,130.615,0.545898,0.169739,0.63858,-0.515045,-25620,3600,-16922,-3382,-29340
815961,-7.41221,-26.5768,-3.16299,-73.8116,61.6223,-132.962,-67.688,-80.1392,155.334,0.550415,0.1698,0.637543,-0.511475,-7444,-18417,-31770,-3382,-29340
815967,-5.70391,-28.0171,-2.23467,-72.9492,62.1991,-131.528,-74.1577,-96.3745,178.04,0.556061,0.169739,0.636322,-0.506927,9709,26127,19174,-3382,-29340
815973,-3.76113,-28.3808,-1.0623,-71.8781,62.8418,-129.864,-74.707,-108.398,198.73,0.562592,0.1698,0.634644,-0.50177,25837,5647,4582,-3382,-29340
815979,-2.66533,-28.8736,-0.124414,-70.5817,63.5284,-127.974,-71.106,-118.713,214.478,0.577637,0.170746,0.629852,-0.490265,-24339,-14066,-10267,-3382,-29340
815985,-0.234473,-28.443,2.49307,-67.2638,64.9182,-123.574,-55.2979,-133.484,232.971,0.585785,0.171631,0.626648,-0.484344,4334,12558,24549,-3382,-29340
815991,0.425879,-27.6726,3.5458,-65.3412,65.5554,-121.196,-42.4805,-134.338,230.286,0.594025,0.172821,0.623047,-0.478516,16878,-5875,8933,-3382,-29340
815997,1.55996,-26.5576,4.65596,-63.2758,66.1102,-118.757,-26.8555,-135.986,219.727,0.60202,0.174225,0.61911,-0.473053,27630,-25331,-6172,-3382,-29340
816003,3.19648,-25.1747,5.9623,-61.2048,66.5442,-116.417,-11.2305,-129.883,199.951,0.60965,0.17569,0.614838,-0.468323,-28690,19981,-22556,-3382,-29340
816009,6.24463,-22.0165,7.24951,-59.2548,66.8518,-114.307,6.16455,-119.019,171.509,0.622223,0.178497,0.606323,-0.461761,-19986,-244,26596,-3382,-29340
816015,8.52236,-20.2364,7.70889,-56.0468,67.0056,-111.198,48.1567,-91.7969,94.1772,0.62677,0.179718,0.602264,-0.46048,-5138,25100,-6941,-3374,-29341
816021,10.4843,-17.5902,7.70889,-55.014,66.8683,-110.446,70.7397,-69.458,49.0112,0.629822,0.180695,0.598541,-0.460785,1263,6156,-22813,-3374,-29341
816027,11.9868,-15.5278,7.47441,-54.4208,66.6046,-110.297,93.3838,-44.7998,3.23486,0.631165,0.181549,0.595306,-0.462769,7919,-12277,25571,-3374,-29341
816033,12.8673,-13.7143,6.33555,-54.2999,66.2366,-110.764,112.122,-17.7612,-41.4429,0.630737,0.182312,0.592651,-0.466461,13551,-30709,8931,-3374,-29341
816039,12.8099,-12.4127,2.82803,-54.5856,65.7697,-111.764,127.319,7.08008,-82.8247,0.624664,0.183472,0.589417,-0.478149,18671,17163,-8222,-3374,-29341
816045,13.3362,-10.7905,0.689063,-55.9534,64.5612,-114.846,148.682,39.917,-145.691,0.619446,0.183807,0.588562,-0.485779,26351,-14070,25826,-3374,-29341
816051,13.2262,-7.93379,-1.05752,-56.9641,63.847,-116.779,148.499,56.5186,-169.434,0.613098,0.183868,0.588135,-0.494232,29679,-27126,10722,-3374,-29341
816057,12.0825,-5.01484,-3.23955,-58.1396,63.067,-118.856,139.771,67.627,-188.721,0.605743,0.183655,0.588287,-0.503113,32239,27146,-3359,-3374,-29341
816063,10.2546,-2.03848,-5.51729,-59.425,62.2046,-120.976,122.681,71.8994,-205.444,0.597656,0.182922,0.58902,-0.512115,-30993,18442,-16415,-3374,-29341
816069,6.48389,3.64629,-9.68516,-60.7928,61.2433,-123.074,99.9146,70.2515,-223.022,0.580292,0.178711,0.592163,-0.529663,-28177,11274,-29215,-3374,-29341
816075,4.70859,5.63691,-11.1207,-63.6493,58.9142,-126.98,43.7012,49.3774,-264.648,0.571259,0.174683,0.594543,-0.538086,-23313,4618,14305,-3374,-29341
816081,4.22529,6.88584,-11.3647,-65.0665,57.5189,-128.655,8.60596,30.2734,-286.072,0.562256,0.168976,0.597351,-0.546234,-22033,4874,5857,-3374,-29341
816087,3.82812,6.95283,-11.403,-66.5112,55.9644,-130.155,-30.0293,13.7329,-309.143,0.553345,0.161346,0.600616,-0.554016,-21009,7434,-1312,-3374,-29341
816093,3.03857,5.72783,-11.6949,-67.9614,54.256,-131.446,-69.0918,-5.67627,-330.688,0.544495,0.151764,0.604462,-0.561249,-21521,12810,-6944,-3374,-29341
816099,2.08154,2.18203,-10.9819,-70.73,50.3668,-133.325,-128.601,-52.9785,-375.977,0.527039,0.126556,0.613586,-0.574097,-23057,22282,-11552,-3374,-29341
816105,2.39258,-0.0287109,-9.75215,-72.0319,48.197,-133.956,-150.879,-72.8149,-399.475,0.518433,0.111145,0.618347,-0.579987,-31249,-14070,-16928,-3374,-29341
816111,2.6749,-2.06719,-8.51758,-73.2733,45.8899,-134.407,-167.297,-91.3696,-421.753,0.509705,0.0940552,0.623138,-0.585632,26607,6411,-19488,-3374,-29341
816117,3.5793,-4.11045,-6.98633,-74.4708,43.4674,-134.714,-181.641,-106.506,-442.871,0.500732,0.0755005,0.627777,-0.591034,16111,30731,-21536,-3374,-29341
816123,4.14873,-6.57959,-5.546,-75.6299,40.9406,-134.907,-189.758,-116.76,-461.731,0.491486,0.0556946,0.632233,-0.596252,4335,-9461,-23840,-3374,-29341
816129,5.46465,-10.8671,-2.66533,-77.8656,35.722,-135.066,-199.524,-120.544,-482.727,0.471649,0.0134888,0.640289,-0.606049,-10002,20236,-25376,-3374,-29341
816135,5.11055,-13.0922,-1.45947,-78.9587,33.0798,-135.088,-200.5,-116.333,-487.915,0.461029,-0.00808716,0.64389,-0.610504,16366,23309,-24352,-3349,-29344
816141,4.79951,-14.3746,-0.440234,-80.0134,30.4376,-135.088,-196.777,-111.023,-491.333,0.44986,-0.0296631,0.647186,-0.614624,-8979,-3827,-21280,-3349,-29344
816147,4.54111,-14.6569,1.00488,-81.0406,27.7954,-135.071,-194.336,-103.882,-493.286,0.438232,-0.0510864,0.650085,-0.618561,28141,-29170,-15648,-3349,-29344
816153,4.83301,-14.9728,2.21074,-82.0624,25.1587,-135.06,-193.787,-93.6279,-495.972,0.426147,-0.0722046,0.652588,-0.622253,-532,10255,-10016,-3349,-29344
816159,5.69434,-16.906,3.13428,-84.0894,19.9127,-135.093,-189.514,-66.1621,-497.62,0.400208,-0.113434,0.656891,-0.628784,32748,-14065,-1824,-3349,-29344
816165,5.6752,-17.9013,3.029,-85.0836,17.309,-135.148,-186.218,-52.063,-497.131,0.386322,-0.13324,0.658661,-0.631714,24043,6673,19681,-3349,-29344
816171,4.9,-18.3176,2.79453,-86.0504,14.7327,-135.22,-182.068,-38.4521,-495.667,0.371887,-0.152435,0.660156,-0.63446,-18454,-15343,32481,-3349,-29344
816177,3.7707,-17.3605,2.44521,-87.0007,12.1619,-135.291,-181.213,-29.7852,-495.056,0.356995,-0.171051,0.661346,-0.637024,1514,27922,-18975,-3349,-29344
816183,2.92852,-15.7862,2.25859,-87.9565,9.59106,-135.33,-183.533,-25.5127,-497.375,0.341736,-0.18924,0.662262,-0.639282,18409,5395,-2591,-3349,-29344
816189,0.14834,-18.9014,2.14375,-89.9176,4.4989,-135.363,-193.726,-13.1836,-493.408,0.310242,-0.225037,0.663361,-0.642609,-14105,21268,-32030,-3349,-29344
816195,-3.22998,-21.5715,1.81357,-90.8899,2.04346,-135.335,-192.871,-9.70459,-481.262,0.294159,-0.242401,0.663696,-0.643524,-2074,-4332,-11038,-3349,-29344
816201,-7.32129,-22.6481,1.66045,-91.8402,-0.302124,-135.209,-188.171,-19.4702,-464.111,0.278259,-0.259125,0.663788,-0.643982,7654,-31979,11235,-3349,-29344
816207,-9.89092,-22.3754,2.30166,-92.7576,-2.53784,-134.978,-182.556,-33.3252,-443.909,0.263214,-0.27536,0.663452,-0.64389,14309,4630,-31517,-3349,-29344
816213,-11.9868,-21.3466,3.51709,-93.6694,-4.65271,-134.637,-179.565,-46.6919,-425.537,0.249207,-0.291199,0.66272,-0.64325,18916,-26858,-7197,-3349,-29344
816219,-14.7431,-19.3225,7.72803,-95.4932,-8.60229,-133.726,-172.363,-60.6079,-399.17,0.223999,-0.321686,0.660431,-0.64032,31202,-31977,-20764,-3349,-29344
816225,-16.059,-16.7337,10.4938,-96.3831,-10.5084,-133.204,-166.626,-60.4858,-398.071,0.212372,-0.336365,0.658905,-0.638367,-30751,-4841,6629,-3349,-29344
816231,-17.0639,-13.719,12.762,-97.2784,-12.4475,-132.66,-164.673,-56.9458,-408.508,0.200928,-0.350769,0.656952,-0.636292,-28448,19736,-29723,-3349,-29344
816237,-17.7099,-11.4748,14.365,-98.1628,-14.4635,-132.127,-162.048,-46.1426,-427.795,0.189148,-0.365143,0.654602,-0.634277,-26913,-24040,-1307,-3349,-29344
816243,-19.088,-10.8432,15.5039,-99.0253,-16.5784,-131.649,-157.654,-27.0996,-449.524,0.176636,-0.379456,0.651703,-0.632446,-26914,-5352,27622,-3349,-29344
816249,-24.6101,-16.2169,15.8724,-100.618,-20.9729,-130.941,-147.522,22.7661,-467.834,0.148499,-0.407227,0.644318,-0.629974,-25892,23321,17639,-3349,-29344
816255,-30.5484,-19.088,15.3508,-101.288,-23.1372,-130.776,-137.024,50.5371,-457.52,0.13327,-0.419861,0.640076,-0.629395,-26405,32537,-21017,-3349,-29344
816261,-37.1807,-20.9877,14.9058,-101.871,-25.1917,-130.721,-128.784,69.8853,-434.753,0.117737,-0.431061,0.635712,-0.629364,-28198,-26599,4584,-3349,-29344
816267,-43.3679,-21.6815,14.3842,-102.382,-27.0868,-130.759,-122.131,82.5195,-403.015,0.102478,-0.440796,0.631439,-0.629578,-31271,-23783,29928,-3349,-29344
816273,-47.3156,-21.5523,13.9296,-102.827,-28.7842,-130.875,-118.103,89.0503,-362.427,0.0878906,-0.449036,0.627502,-0.629913,30424,-25063,-9496,-3349,-29344
816279,-50.7131,-18.0927,11.8863,-103.502,-31.4923,-131.342,-104.797,96.7407,-270.508,0.0621338,-0.460876,0.62149,-0.630371,27606,30745,-26903,-3349,-29344
816285,-51.8663,-15.0254,10.6948,-103.683,-32.5085,-131.721,-94.3604,102.905,-224.731,0.0512085,-0.464447,0.619507,-0.630676,29141,22297,-4631,-3349,-29344
816291,-53.0817,-11.6375,9.23535,-103.777,-33.316,-132.177,-86.1206,103.333,-182.556,0.0416565,-0.466492,0.618134,-0.631226,32468,12569,15850,-3349,-29344
816297,-53.5603,-9.30713,7.98643,-103.832,-33.9038,-132.665,-82.2144,97.5342,-140.991,0.0334167,-0.467224,0.617371,-0.631897,-27693,1049,-31254,-3349,-29344
816303,-53.5507,-7.68018,6.93369,-103.848,-34.2773,-133.187,-79.7119,92.041,-98.2056,0.0211487,-0.465576,0.618134,-0.632935,-19246,-11240,-13334,-3349,-29344
816309,-50.5982,-2.85674,6.36904,-103.859,-34.3542,-134.297,-83.0688,74.8901,-12.5732,0.0171509,-0.463196,0.619751,-0.633179,7889,29208,18411,-3349,-29344
816315,-53.498,-21.8203,-10.3359,-104.222,-34.0302,-134.857,-151.428,64.6362,35.8887,0.0144958,-0.4599,0.622345,-0.633118,28112,17688,32747,-3349,-29344
816321,-59.6518,-55.4887,22.7391,-104.337,-33.0853,-135.401,-99.5483,31.9824,157.471,0.0121155,-0.455597,0.627838,-0.63089,-13617,6936,-19477,-3349,-29344
816327,-53.0626,-33.2999,16.0351,-103.738,-31.5198,-135.786,62.2559,-21.1182,270.996,0.0149841,-0.448822,0.634216,-0.629272,15567,-2281,-7701,-3349,-29344
816333,-49.9379,-9.74736,6.94805,-102.859,-29.6411,-136.285,108.459,-9.82666,338.806,0.0387268,-0.429352,0.64212,-0.63382,-15154,-9193,2540,-3349,-29344
816339,-97.7033,-25.9308,29.6249,-100.926,-23.335,-136.945,232.91,-93.689,634.766,0.0578308,-0.414581,0.650513,-0.633667,11214,-15337,21740,-3349,-29344
816345,-54.0531,3.2252,2.34473,-99.8383,-20.2148,-136.818,211.67,-139.709,564.148,0.0836182,-0.396851,0.655365,-0.637115,462,-14569,30188,-3349,-29344
816351,-11.7811,-8.31182,21.2652,-98.5199,-17.2705,-136.846,245.911,-92.4683,538.574,0.108337,-0.382202,0.658813,-0.638763,-819,-9961,-26900,-3349,-29344
816357,-32.1419,9.73301,31.5007,-96.2622,-16.1279,-138.658,330.688,310.181,228.516,0.131439,-0.366577,0.660553,-0.641785,6862,-1001,-20500,-3349,-29344
816363,-67.2697,24.2225,-16.3078,-94.6088,-16.2543,-140.306,221.741,309.814,-39.6729,0.135498,-0.347839,0.656769,-0.655121,21710,10264,-16916,-3349,-29344
816369,15.1546,-53.589,9.01045,-96.1688,-15.7489,-137.362,-12.2681,-400.33,21.7896,0.132294,-0.343597,0.654724,-0.660034,-6706,-30696,-18708,-3349,-29344
816375,44.0809,-39.0517,34.5345,-95.1581,-15.0623,-136.538,235.168,-171.448,79.1626,0.145569,-0.35321,0.653381,-0.653473,11471,-20200,-21268,-3366,-29342
816381,17.1213,16.1978,1.59824,-93.4497,-14.3152,-137.856,262.39,242.737,127.869,0.157684,-0.353088,0.647064,-0.657013,28623,-11240,-24340,-3366,-29342
816387,-19.399,9.27842,10.6996,-92.8839,-13.5901,-138.488,70.1294,112,110.474,0.159851,-0.339386,0.643372,-0.667267,-18993,-3816,-28436,-3366,-29342
816393,-10.5561,-4.53154,12.1447,-93.0377,-12.876,-138.181,-29.541,-68.9087,98.4497,0.162262,-0.331238,0.643982,-0.670166,-305,2585,32236,-3366,-29342
816399,-3.62715,-8.25918,-1.37334,-92.8564,-11.6125,-138.252,60.6689,23.4375,78.3691,0.172028,-0.326569,0.648895,-0.665283,-24880,13081,23788,-3366,-29342
816405,-5.0292,0.325391,-5.33066,-92.6038,-11.0468,-138.356,35.8276,14.4653,73.6694,0.175781,-0.32196,0.648621,-0.666779,-3888,18201,21740,-3366,-29342
816411,-2.49785,-8.38838,3.26348,-92.5488,-10.5084,-138.252,3.96729,-25.6958,67.9932,0.179321,-0.317963,0.648956,-0.66745,16337,23065,20204,-3366,-29342
816417,-2.15332,-9.15879,0.0478516,-92.3566,-9.99756,-138.345,24.4141,15.0146,63.9648,0.18338,-0.315552,0.649811,-0.666656,-29231,28441,19692,-3366,-29342
816423,-11.5131,-11.2547,-0.0669922,-92.1478,-9.58557,-138.549,24.5972,36.6821,46.5088,0.186432,-0.31192,0.650299,-0.667023,-9775,-32487,19436,-3366,-29342
816429,-0.478516,-10.6948,2.81367,-91.7578,-8.71216,-138.279,32.959,-24.292,46.936,0.192444,-0.306244,0.65036,-0.667908,28626,-24807,20460,-3366,-29342
816435,-2.79453,-13.81,3.76592,-91.6095,-8.3551,-138.378,16.7847,19.2871,35.0952,0.196198,-0.30426,0.650024,-0.66803,-18478,-21735,21484,-3366,-29342
816441,-5.66563,-18.3271,-5.62734,-91.5436,-7.98706,-138.362,5.98145,-2.80762,37.6587,0.19812,-0.301514,0.65036,-0.668396,-1070,-18919,23020,-3366,-29342
816447,-5.93838,-25.9882,-5.23496,-91.3733,-7.55859,-138.296,29.6021,-10.437,51.1475,0.200592,-0.299469,0.650879,-0.66806,16595,-16103,25836,-3366,-29342
816453,-9.08223,-23.141,-4.07695,-90.9558,-7.08069,-138.197,81.1157,-17.0288,62.439,0.203979,-0.29715,0.650818,-0.668152,-31533,-12263,28908,-3366,-29342
816459,-6.04365,-10.2163,4.64639,-89.8572,-6.07544,-137.703,109.497,-54.0771,67.627,0.21405,-0.291565,0.64682,-0.671326,2772,-4327,32492,-3366,-29342
816465,-3.68457,-16.4227,7.12988,-89.4781,-5.64148,-137.455,76.5381,-43.396,56.3354,0.220093,-0.289429,0.644165,-0.672852,19668,-231,32236,-3366,-29342
816471,-1.14844,-22.3228,5.46465,-89.0552,-5.13611,-137.192,84.1675,-46.6919,72.1436,0.225037,-0.287598,0.642426,-0.673676,-28716,3098,30188,-3366,-29342
816477,2.14375,-32.1945,19.7818,-88.6597,-4.49341,-137.104,75.1953,-8.78906,101.257,0.230591,-0.2854,0.640564,-0.6745,-11820,5914,27884,-3366,-29342
816483,5.10576,-22.3802,11.7332,-88.6707,-3.55957,-137.263,-10.6812,40.7715,161.011,0.240234,-0.275177,0.642395,-0.673645,5845,7962,26604,-3366,-29342
816489,-2.37822,-28.5674,3.62715,-88.9563,-1.30737,-137.73,-28.5034,44.0063,215.271,0.24411,-0.267792,0.646698,-0.671082,-22059,10778,23788,-3358,-29343
816495,-1.63652,-28.3712,3.58408,-89.0222,0.00549316,-137.884,-19.8364,43.1519,243.042,0.249725,-0.260223,0.650482,-0.668335,-811,12314,22508,-3358,-29343
816501,-2.61748,-25.0981,0.626855,-89.0991,1.51062,-138.005,-18.4326,46.4478,282.166,0.256226,-0.251831,0.654236,-0.665436,22486,14106,21228,-3358,-29343
816507,-4.45498,-25.1412,4.00996,-89.2419,3.14758,-138.197,-29.6631,60.6689,308.838,0.263947,-0.242523,0.658264,-0.661896,-19754,15898,20204,-3358,-29343
816513,-3.72764,-25.0934,2.45479,-89.5221,4.92188,-138.345,-56.4575,50.5371,338.623,0.280457,-0.221619,0.668365,-0.652222,6615,17434,18924,-3358,-29343
816519,5.04355,-37.9846,9.03916,-90.2692,8.87695,-138.604,-66.9556,48.584,392.761,0.290009,-0.210602,0.67453,-0.645325,216,18970,20204,-3358,-29343
816525,9.23057,-40.5494,7.01504,-90.4999,11.0907,-138.741,-44.8608,42.5415,435.303,0.299866,-0.198639,0.680298,-0.638519,-31528,18202,21228,-3358,-29343
816531,10.6565,-40.5494,4.42148,-90.5109,13.4418,-138.983,4.08936,61.2183,466.675,0.311066,-0.185333,0.685486,-0.631592,4825,17434,23788,-3358,-29343
816537,6.95762,-34.3096,1.42119,-90.3186,15.9082,-139.29,51.6968,74.3408,492.126,0.322754,-0.169922,0.689514,-0.62561,-20775,15386,25068,-3358,-29343
816543,2.46914,-28.3664,0.741699,-90.0769,18.446,-139.614,65.918,78.3691,509.033,0.347198,-0.134735,0.69458,-0.615417,18394,12826,25324,-3358,-29343
816549,4.66553,-31.0796,0.287109,-89.5496,23.7744,-139.944,70.8618,48.645,545.044,0.360535,-0.117004,0.696442,-0.609222,-24613,3610,20972,-3358,-29343
816555,2.71318,-33.1851,0.588574,-89.1705,26.521,-140.18,95.6421,66.7114,556.03,0.374207,-0.0986328,0.697601,-0.602905,23516,-4071,16108,-3358,-29343
816561,3.7707,-33.8502,-0.406738,-88.6487,29.317,-140.246,111.328,39.0625,569.397,0.387421,-0.0790405,0.698029,-0.596893,9949,-13543,10220,-3358,-29343
816567,6.79971,-28.0219,2.11504,-88.028,32.1625,-140.356,136.841,52.4902,580.2,0.401581,-0.0595398,0.697235,-0.590698,-1827,-25063,3820,-3358,-29343
816573,-3.54102,-23.9593,1.00488,-87.7039,34.9146,-140.702,105.896,94.2383,562.622,0.427032,-0.0184326,0.695129,-0.577942,-15394,28441,-2837,-3358,-29343
816579,7.80938,-22.6194,2.55049,-86.3635,40.1166,-140.339,131.958,21.2402,523.926,0.440826,-0.000701904,0.692749,-0.570648,31200,-5608,-22037,-3358,-29343
816585,0.698633,-19.5617,2.0959,-85.8472,42.5226,-140.471,123.84,67.749,498.474,0.453125,0.0171814,0.689514,-0.564667,23521,-27624,31467,-3358,-29343
816591,0.105273,-19.0449,0.282324,-85.1111,44.8407,-140.229,117.859,15.9912,486.572,0.463135,0.0352783,0.687073,-0.558655,17122,13592,17643,-3358,-29343
816597,6.8332,-15.8102,0.449805,-84.2542,47.0764,-139.9,129.028,9.33838,471.619,0.474152,0.0515747,0.683441,-0.552551,10467,-13545,2539,-3358,-29343
816603,3.50752,-9.03916,0.0813477,-83.5016,49.1913,-139.779,136.414,42.1753,447.327,0.493469,0.0834045,0.675293,-0.541656,3044,23063,-14358,-3358,-29343
816609,-0.497656,-8.74248,-0.44502,-81.925,53.3057,-139.4,132.202,56.4575,428.833,0.502472,0.0988464,0.670868,-0.536255,-18715,28950,16362,-3382,-29340
816615,-12.1447,-9.07266,-5.44072,-81.0461,55.2228,-139.202,150.269,44.9829,410.522,0.509918,0.114441,0.667023,-0.530884,-31258,-4075,-1815,-3382,-29340
816621,-16.0494,-1.06709,-4.33535,-79.8212,56.8213,-138.615,153.137,-1.89209,352.722,0.516998,0.129578,0.662415,-0.526337,20199,26133,-19479,-3382,-29340
816627,-8.40752,-8.93389,-2.33516,-78.4424,57.9639,-137.78,142.334,-35.7056,269.653,0.523926,0.141998,0.65686,-0.523224,4840,-10732,27625,-3382,-29340
816633,-5.73262,-6.6418,-5.6082,-77.1515,58.8098,-137.153,158.142,-20.3857,206.604,0.533722,0.158875,0.645874,-0.522156,-13336,17428,7657,-3382,-29340
816639,-5.80439,-7.42178,-7.43135,-74.8553,59.6448,-136.022,133.728,-43.0908,99.0601,0.536102,0.164978,0.641296,-0.523407,6634,11283,-32024,-3382,-29340
816645,-3.675,-9.57031,-6.771,-73.7128,59.7382,-135.363,124.329,-53.6499,64.209,0.538208,0.168762,0.63678,-0.525604,-21270,-24046,13288,-3382,-29340
816651,-4.1918,-10.9484,-5.94795,-72.7515,59.7382,-134.813,106.75,-49.1333,44.0063,0.539795,0.171143,0.632477,-0.528412,13035,7698,-7449,-3382,-29340
816657,-6.18242,-13.475,-4.90479,-71.889,59.6887,-134.214,78.0029,-57.373,36.8652,0.540894,0.172638,0.628845,-0.531097,-21525,-24815,-28953,-3382,-29340
816663,-5.00049,-17.4754,-2.41172,-71.153,59.6503,-133.555,42.4194,-63.8428,40.9546,0.544098,0.172699,0.623322,-0.534302,6124,10257,16359,-3382,-29340
816669,-4.52676,-20.0259,-0.775195,-70.1312,59.7876,-132.149,-27.9541,-59.9365,73.7915,0.546478,0.171936,0.621643,-0.534119,-12820,21776,-23578,-3382,-29340
816675,-2.9668,-22.7582,-0.47373,-69.7961,60.0183,-131.353,-61.7065,-58.8989,99.1821,0.549469,0.170868,0.620697,-0.532471,6381,-1777,23270,-3382,-29340
816681,-2.48828,-25.2178,-0.708203,-69.538,60.3754,-130.507,-87.0972,-53.9551,125.366,0.553253,0.169708,0.620361,-0.529297,23533,-24305,5606,-3382,-29340
816687,-2.26816,-27.1653,-1.03359,-69.2468,60.8588,-129.545,-101.196,-55.4199,153.442,0.557617,0.168793,0.620544,-0.52475,-26643,19983,-12827,-3382,-29340
816693,-2.24902,-29.8929,-0.497656,-68.8733,61.4465,-128.463,-107.422,-57.1289,177.002,0.568359,0.168152,0.620941,-0.512848,-12563,-242,-29211,-3382,-29340
816699,-2.26338,-30.5006,0.354102,-67.5165,62.8143,-125.782,-88.6841,-72.6929,211.975,0.574524,0.168549,0.620575,-0.506226,12782,27406,5349,-3382,-29340
816705,-2.03369,-29.8067,1.23457,-66.4948,63.5284,-124.195,-72.5098,-79.5288,219.971,0.581055,0.169525,0.619568,-0.499634,23790,10510,-8220,-3382,-29340
816711,-2.0959,-28.3903,2.18682,-65.2423,64.2096,-122.481,-52.7954,-85.8154,219.177,0.587769,0.170929,0.61795,-0.493286,-31250,-6643,-21020,-3382,-29340
816717,-1.55996,-26.8974,2.92852,-63.8031,64.8029,-120.674,-33.2031,-93.689,208.252,0.594391,0.172699,0.615662,-0.487549,-21266,-24307,31204,-3382,-29340
816723,2.16289,-24.6148,4.89043,-62.243,65.2863,-118.861,9.15527,-91.4917,164.734,0.606628,0.176239,0.609558,-0.478821,-11794,23309,17892,-3374,-29341
816729,3.72764,-23.586,5.7374,-59.2548,65.885,-115.746,29.1138,-84.8999,136.23,0.611572,0.178009,0.60614,-0.476196,5103,-14580,-8733,-3374,-29341
816735,5.52686,-22.0739,6.16807,-57.9584,65.9839,-114.565,47.4243,-76.9043,104.065,0.61557,0.179688,0.602692,-0.474792,12271,32268,-21789,-3374,-29341
816741,7.28301,-19.8393,6.18721,-56.9092,65.9674,-113.758,65.5518,-62.8662,69.0918,0.6185,0.181152,0.599335,-0.47467,18671,13580,29923,-3374,-29341
816747,8.93867,-17.3797,5.93359,-56.1731,65.8301,-113.373,80.8716,-46.2036,32.959,0.620178,0.182465,0.596252,-0.475891,24815,-4597,14819,-3374,-29341
816753,11.0729,-12.9582,4.58418,-55.6952,65.2478,-113.934,106.201,-9.33838,-40.4053,0.619446,0.18454,0.591309,-0.482147,30959,-22773,-542,-3374,-29341
816759,11.3313,-11.5274,3.26348,-55.9589,64.8138,-114.835,113.22,8.72803,-74.7681,0.617035,0.185181,0.589661,-0.486969,-24593,9483,-29982,-3374,-29341
816765,12.0586,-9.80479,1.45947,-56.4862,64.281,-116.049,117.31,22.7661,-105.652,0.613342,0.185486,0.588593,-0.492798,-20497,-5622,22242,-3374,-29341
816771,12.4462,-7.83809,-0.272754,-57.2717,63.6658,-117.548,116.272,37.5977,-134.46,0.608521,0.185364,0.588074,-0.49939,-16401,-19190,10466,-3374,-29341
816777,12.1782,-5.40723,-1.79443,-58.2495,62.9572,-119.273,114.929,49.9878,-160.583,0.602661,0.184784,0.588135,-0.506592,-12561,-30966,-1311,-3374,-29341
816783,10.5465,0.062207,-5.28281,-60.6281,61.2433,-122.992,86.853,58.0444,-204.956,0.588379,0.181946,0.589844,-0.522186,-8977,25098,-13087,-3374,-29341
816789,9.3167,2.45479,-6.85234,-62.0123,60.2106,-124.926,65.1855,60.3027,-229.614,0.580414,0.179169,0.591522,-0.53009,-4113,13066,31969,-3374,-29341
816795,7.63232,4.20615,-8.21133,-63.468,59.0405,-126.815,39.5508,55.3589,-253.601,0.571869,0.175201,0.593903,-0.537994,-2833,10250,24801,-3374,-29341
816801,6.82363,4.60332,-8.71377,-64.9567,57.7167,-128.573,8.36182,43.335,-276.306,0.563019,0.16983,0.596863,-0.545715,-2065,8458,18913,-3374,-29341
816807,5.98145,4.01475,-9.07266,-66.4783,56.25,-130.21,-21.8506,33.8135,-299.194,0.54483,0.154144,0.604431,-0.560303,-1809,9994,13537,-3374,-29341
816813,2.71318,1.82793,-10.4269,-69.4556,52.8662,-132.929,-81.9092,-1.89209,-342.346,0.535522,0.14386,0.609009,-0.567017,-5393,22794,4065,-3374,-29341
816819,1.80879,0.430664,-10.6709,-70.8124,50.9326,-133.912,-106.14,-28.0151,-365.295,0.526337,0.131714,0.61377,-0.573425,-8977,-30710,-288,-3374,-29341
816825,0.851758,-0.870898,-10.2737,-72.0923,48.8232,-134.67,-127.686,-52.6123,-392.639,0.517242,0.117737,0.6185,-0.57959,-14097,-14582,-3104,-3374,-29341
816831,0.30625,-2.49785,-9.43633,-73.2623,46.5601,-135.17,-147.827,-82.2144,-415.283,0.508087,0.101898,0.623199,-0.585663,-20241,2315,-6176,-3374,-29341
816837,0.832617,-5.08184,-8.17783,-74.3555,44.165,-135.461,-162.781,-106.567,-436.096,0.48999,0.0650024,0.631683,-0.597107,-28177,23819,-7200,-3358,-29343
816843,2.34473,-9.33105,-5.68955,-76.355,39.0894,-135.571,-181.274,-140.076,-467.712,0.480865,0.0445557,0.635376,-0.602448,13039,12556,-5920,-3358,-29343
816849,2.55527,-10.6613,-4.62725,-77.2833,36.4581,-135.461,-184.753,-150.208,-478.943,0.471497,0.0232544,0.638672,-0.607574,-3602,-20724,-3104,-3358,-29343
816855,3.93818,-11.5131,-3.11992,-78.1952,33.7994,-135.264,-189.636,-157.715,-484.68,0.461884,0.00134277,0.641449,-0.612457,-24082,14349,-32,-3358,-29343
816861,4.03389,-12.7524,-1.66523,-79.118,31.1188,-135.038,-194.519,-156.616,-490.723,0.452057,-0.0209656,0.643829,-0.616882,19950,-16371,4065,-3358,-29343
816867,4.49326,-13.1831,-0.239258,-80.0574,28.4436,-134.786,-199.768,-153.87,-492.31,0.441803,-0.043457,0.645966,-0.620911,-6163,20750,7905,-3358,-29343
816873,5.94316,-14.054,2.45479,-82.1008,23.1482,-134.341,-215.698,-127.319,-493.103,0.419983,-0.0882263,0.649719,-0.62735,-3604,-29937,17889,-3358,-29343
816879,6.93848,-15.1977,3.27783,-83.205,20.5334,-134.176,-223.083,-110.657,-492.798,0.408051,-0.110138,0.651672,-0.629761,25324,12048,24289,-3358,-29343
816885,7.50313,-16.7002,3.58887,-84.342,17.9352,-134.066,-225.22,-90.0879,-492.981,0.395416,-0.131561,0.653656,-0.631622,-14357,-9712,-32287,-3358,-29343
816891,8.00557,-18.0688,3.83291,-85.4956,15.3644,-134.017,-225.525,-68.2983,-491.089,0.381958,-0.152313,0.65564,-0.633179,8171,-30703,-21791,-3358,-29343
816897,7.97686,-19.289,3.99082,-86.6327,12.832,-134.044,-220.154,-43.0908,-487.61,0.352783,-0.191254,0.659363,-0.635651,31210,12050,-10271,-3358,-29343
816903,5.75176,-19.7483,3.67021,-88.8135,7.86621,-134.247,-205.383,-1.34277,-477.234,0.33725,-0.209198,0.660919,-0.636841,2025,31507,21474,-3358,-29343
816909,3.81377,-20.7389,3.66543,-89.8352,5.45471,-134.418,-198.059,16.7847,-468.201,0.321259,-0.226166,0.662231,-0.63797,15592,7188,-24606,-3358,-29343
816915,0.645996,-21.16,3.42139,-90.824,3.09814,-134.615,-192.932,33.2642,-459.351,0.304962,-0.242096,0.663269,-0.639008,26599,-18668,-2590,-3358,-29343
816921,-2.78496,-20.5379,3.07686,-91.7743,0.785522,-134.797,-187.866,39.5508,-451.355,0.288452,-0.257111,0.664124,-0.639954,-29722,19989,20195,-3358,-29343
816927,-5.58428,-19.3464,3.48838,-92.6971,-1.47766,-134.945,-185.181,41.3818,-444.824,0.255768,-0.28537,0.664886,-0.641083,-18971,-9707,-22557,-3358,-29343
816933,-11.4748,-18.7722,5.5125,-94.5209,-5.93811,-135.143,-186.035,43.8232,-440.063,0.239471,-0.29895,0.664856,-0.641205,-3101,-7914,26084,-3358,-29343
816939,-14.0253,-19.6431,7.02939,-95.3888,-8.12439,-135.159,-178.284,41.9312,-436.951,0.223358,-0.312317,0.664551,-0.640961,1507,22551,-13084,-3358,-29343
816945,-17.0017,-18.82,8.92432,-96.1798,-10.2887,-135.148,-164.917,43.9453,-436.157,0.207581,-0.325409,0.663727,-0.640594,4578,-15849,13285,-3358,-29343
816951,-20.002,-16.7624,10.4412,-96.9324,-12.453,-135.099,-155.457,42.6636,-440.002,0.192047,-0.338104,0.662292,-0.64035,5089,8728,-24603,-3358,-29343
816957,-24.4043,-13.6425,12.7046,-97.6465,-14.6503,-135.011,-147.888,41.0156,-451.111,0.161102,-0.363159,0.657593,-0.640015,4576,29976,2790,-3341,-29345
816963,-27.3137,-14.5038,13.1257,-99.0363,-19.2096,-134.802,-143.555,50.9644,-479.736,0.145203,-0.375702,0.654388,-0.639862,7134,-1512,-10010,-3341,-29345
816969,-31.027,-17.2936,13.0061,-99.7064,-21.5442,-134.692,-139.832,55.9692,-487.549,0.128754,-0.388184,0.650696,-0.639709,5853,11033,16359,-3341,-29345
816975,-35.1757,-20.0307,12.4988,-100.327,-23.8458,-134.588,-130.066,59.5703,-484.863,0.11203,-0.400391,0.646576,-0.639496,3036,19737,-23833,-3341,-29345
816981,-40.1953,-22.1026,12.2691,-100.882,-26.0706,-134.5,-117.065,63.6597,-471.191,0.09552,-0.412079,0.641968,-0.639404,-806,25369,744,-3341,-29345
816987,-50.2011,-24.4952,11.3121,-101.365,-28.147,-134.429,-104.98,64.7583,-444.641,0.0645447,-0.432678,0.632141,-0.639465,-5927,27673,24552,-3341,-29345
816993,-54.1584,-24.9402,10.379,-102.156,-31.5582,-134.319,-81.2988,52.002,-346.619,0.0510559,-0.441132,0.627625,-0.639374,-10793,25625,2025,-3341,-29345
816999,-57.2065,-22.8252,9.34062,-102.42,-32.7942,-134.297,-65.3687,43.5181,-283.691,0.0396423,-0.448059,0.623627,-0.639252,-14122,20249,22249,-3341,-29345
817005,-58.8383,-18.0018,8.77119,-102.596,-33.7006,-134.313,-52.6123,36.377,-220.215,0.0305786,-0.453339,0.620361,-0.639221,-16171,12057,-22807,-3341,-29345
817011,-58.9675,-12.116,7.95293,-102.755,-34.2938,-134.363,-50.9033,26.7944,-159.485,0.0237427,-0.45694,0.61795,-0.639252,-16684,1561,-4119,-3341,-29345
817017,-56.6562,-2.67012,7.21602,-102.914,-34.6014,-134.44,-56.2744,18.8599,-103.699,0.0158386,-0.459961,0.61676,-0.638519,-13869,-10472,12010,-3341,-29345
817023,-53.9574,0.507227,7.51748,-103.403,-34.4916,-134.654,-85.144,1.77002,-13.5498,0.0140991,-0.459625,0.618103,-0.637482,5330,29720,-26902,-3341,-29345
817029,-49.8374,2.72754,8.65156,-103.777,-34.1565,-134.769,-103.638,-5.7373,19.2871,0.0134277,-0.458435,0.620758,-0.635773,21457,17176,-16150,-3341,-29345
817035,-46.7271,-3.25869,5.27324,-104.271,-33.6896,-134.907,-130.127,-9.64355,45.4102,0.0134888,-0.456512,0.624573,-0.633423,-23344,5144,-4886,-3341,-29345
817041,-55.8715,-57.8095,30.7303,-104.908,-32.6733,-135.016,-157.104,-41.3818,152.161,0.013916,-0.453979,0.629608,-0.630219,1744,-5609,8171,-3341,-29345
817047,-49.957,-21.6672,5.79004,-104.447,-31.0968,-135.022,159.546,-84.4116,328.613,0.0299072,-0.442963,0.640747,-0.626282,31695,-15337,22251,-3341,-29345
817053,-74.993,-38.6497,39.4632,-102.651,-26.2958,-135.093,159.607,-137.756,514.038,0.0457764,-0.434265,0.643005,-0.629089,-23090,-27369,-12053,-3341,-29345
817059,-97.0813,-27.6582,20.2173,-101.459,-22.9669,-134.868,241.089,-182.129,597.229,0.0682068,-0.421692,0.648285,-0.630157,24782,-29417,1772,-3341,-29345
817065,-53.6799,5.53643,16.0638,-100.212,-19.6765,-134.456,264.221,-201.721,586.914,0.0956421,-0.407471,0.652222,-0.631927,15054,-27881,13548,-3341,-29345
817071,-7.63232,-1.80879,15.4991,-99.0417,-16.6223,-134.187,235.168,-152.954,549.5,0.123688,-0.393616,0.654602,-0.633362,14542,-22249,21740,-3374,-29341
817077,-25.0407,4.76123,40.3149,-96.6687,-15.683,-135.961,358.521,309.387,189.392,0.152344,-0.361511,0.652039,-0.648682,23246,-13289,27372,-3374,-29341
817083,-43.454,-38.2286,-49.8565,-96.2073,-15.7928,-136.769,-198.303,-198.73,-36.0718,0.145538,-0.35025,0.647369,-0.661011,-9266,9752,27884,-3374,-29341
817089,23.2559,-65.2695,-2.91895,-96.7181,-15.1007,-134.445,13.3057,-456.787,43.8232,0.148529,-0.356873,0.651642,-0.652557,9167,21272,27628,-3374,-29341
817095,48.4736,-27.1031,40.7791,-95.2844,-14.2603,-133.797,309.814,-138.794,112.61,0.164398,-0.367279,0.649261,-0.645294,27855,31256,26604,-3374,-29341
817101,20.4422,23.5143,-0.339746,-93.5431,-13.5352,-135.066,275.818,236.084,123.23,0.177856,-0.364594,0.641602,-0.650909,-18993,-26088,25068,-3374,-29341
817107,-14.5517,-8.20654,6.81406,-92.9169,-12.9089,-135.879,75.6226,150.024,92.2241,0.181519,-0.342316,0.638458,-0.664948,-305,-19176,23276,-3374,-29341
817113,-3.44531,-14.8053,-0.736914,-93.6749,-11.5521,-135.533,-47.9126,-43.1519,85.9375,0.185181,-0.340302,0.643158,-0.660431,-26672,-7144,14828,-3374,-29341
817119,-0.397168,-6.98633,-3.84248,-93.2245,-11.0248,-135.637,75.3174,15.9302,67.3218,0.189514,-0.338318,0.645691,-0.657715,-7984,-1512,10220,-3374,-29341
817125,-2.39258,-1.52646,3.92383,-93.0048,-10.4974,-135.731,29.8462,14.5874,66.6504,0.193451,-0.334167,0.644897,-0.659454,10705,3609,6380,-3374,-29341
817131,-3.78506,-4.62246,4.55547,-92.9443,-10.0085,-135.786,-1.46484,7.44629,59.2041,0.196747,-0.330475,0.645355,-0.659882,29137,8473,2796,-3374,-29341
817137,-9.65645,-18.9684,-2.86631,-93.0157,-9.58008,-135.967,-30.7007,33.7524,48.4619,0.200867,-0.32428,0.648651,-0.658508,-18223,13337,1260,-3374,-29341
817143,-3.19648,-13.2166,-0.722559,-92.5983,-8.73962,-135.786,53.894,-25.8789,49.4995,0.203918,-0.322174,0.648895,-0.658356,19410,21273,1516,-3374,-29341
817149,-4.40234,-10.6805,6.9624,-92.3456,-8.3551,-135.851,40.0391,13.6719,40.5884,0.20816,-0.320007,0.648041,-0.658936,-27950,25625,2796,-3374,-29341
817155,-9.02002,-13.0587,3.20605,-92.2577,-7.99805,-135.961,6.16455,23.1323,36.0718,0.210785,-0.317108,0.647797,-0.659729,-10542,29465,3564,-3374,-29341
817161,-8.27832,-18.8487,-6.23027,-92.2083,-7.6355,-135.945,2.38037,-0.183105,36.8042,0.212524,-0.314392,0.648529,-0.659729,6611,-32743,5100,-3374,-29341
817167,-6.06279,-19.4229,-2.04805,-92.016,-7.22351,-135.862,35.3394,-13.3057,47.3022,0.218384,-0.310303,0.648926,-0.659393,22995,-28647,6124,-3374,-29341
817173,-6.76143,-13.4271,4.48848,-91.0217,-6.30615,-135.544,104.309,-23.1934,59.9365,0.223358,-0.307922,0.646973,-0.660767,-9005,-22759,8940,-3374,-29341
817179,-8.80947,-13.2118,6.94326,-90.5713,-5.85022,-135.352,88.6841,-32.0435,58.5938,0.228333,-0.305115,0.644745,-0.662537,8404,-19943,8172,-3374,-29341
817185,-7.70889,-22.2558,6.87627,-90.2362,-5.38879,-135.088,67.5049,-45.6543,60.9131,0.233307,-0.302765,0.642853,-0.663727,25044,-17895,6636,-3374,-29341
817191,-3.71328,-33.0319,11.1494,-89.7858,-4.85596,-134.852,89.9658,-39.7949,77.7588,0.238403,-0.300995,0.641418,-0.664093,-23596,-15335,4844,-3358,-29343
817197,4.87607,-26.749,12.006,-89.6649,-3.97705,-134.879,17.6392,15.0146,148.682,0.249268,-0.292999,0.641235,-0.663879,-6188,-13031,2796,-3358,-29343
817203,-0.459375,-30.5915,4.90479,-90.1154,-1.71936,-135.478,-42.2974,69.0918,216.797,0.252899,-0.286011,0.646301,-0.660614,30421,-9959,2284,-3358,-29343
817209,-3.45967,-30.8738,0.0957031,-90.1813,-0.422974,-135.659,-20.0806,44.7998,238.831,0.25766,-0.277893,0.65094,-0.657684,-14635,-8679,2540,-3358,-29343
817215,-0.60293,-27.8687,1.50732,-90.1978,1.08765,-135.714,-6.40869,25.9399,283.569,0.263947,-0.269653,0.654846,-0.654724,7894,-7655,3820,-3358,-29343
817221,-2.79932,-26.4571,2.84238,-90.2856,2.71912,-135.939,-20.3857,60.3027,308.472,0.272247,-0.260712,0.658569,-0.651215,30166,-6631,5612,-3358,-29343
817227,-1.15801,-34.7642,6.66572,-90.5328,4.54834,-136.132,-49.8657,51.4526,350.403,0.288818,-0.239197,0.668854,-0.641785,-10282,-5607,7148,-3358,-29343
817233,4.72295,-40.3484,5.01006,-91.2085,8.62427,-136.423,-59.8145,34.5459,414.246,0.298187,-0.227875,0.675201,-0.634949,-17961,-3559,14828,-3358,-29343
817239,7.46963,-43.698,4.57939,-91.3623,10.8984,-136.604,-28.9307,42.1753,448.486,0.308807,-0.215576,0.681091,-0.627808,15576,-2791,17388,-3358,-29343
817245,8.5415,-41.7648,0.13877,-91.236,13.3374,-136.769,29.6021,38.3301,483.948,0.320251,-0.20163,0.686279,-0.621033,-13352,-2279,18668,-3358,-29343
817251,6.83799,-35.7116,0.363672,-90.9174,15.8807,-137.032,74.1577,57.7393,508.362,0.333038,-0.185913,0.68985,-0.615234,23257,-2279,19180,-3358,-29343
817257,5.31631,-28.5004,-0.220117,-90.5493,18.4955,-137.269,85.9375,54.9316,523.743,0.359314,-0.150116,0.694244,-0.605194,-2087,-2791,17900,-3358,-29343
817263,6.08193,-28.5817,0.526367,-89.7253,23.9557,-137.527,95.2759,46.6309,555.725,0.373688,-0.131897,0.695496,-0.599274,24795,-9447,12780,-3358,-29343
817269,5.09141,-27.017,0.14834,-89.2804,26.7297,-137.675,101.624,46.5088,562.927,0.387573,-0.112793,0.696472,-0.593201,10204,-15847,7916,-3358,-29343
817275,5.03877,-20.7054,-0.722559,-88.9563,29.5642,-137.823,80.3223,50.7812,577.454,0.401367,-0.0933838,0.696869,-0.586884,-1828,-25319,2796,-3358,-29343
817281,-3.90469,-19.8058,1.02402,-88.8904,32.3053,-138.126,44.5557,76.416,559.448,0.414978,-0.073822,0.697571,-0.579346,-11811,28441,-3861,-3358,-29343
817287,5.1584,-24.9833,2.58398,-88.6981,34.9475,-137.983,24.1089,1.28174,541.626,0.44046,-0.0386047,0.699402,-0.561432,-23842,15897,-10773,-3358,-29343
817293,2.8376,-19.7005,3.71807,-87.8467,39.9023,-137.708,73.5474,25.6348,501.709,0.453674,-0.0224304,0.697968,-0.553558,24032,-17128,-29461,-3358,-29343
817299,-0.531152,-20.1024,3.73242,-87.4017,42.2095,-137.521,66.4673,3.72314,482.056,0.464966,-0.00598145,0.696777,-0.546021,17377,27672,24555,-3358,-29343
817305,5.30195,-19.667,2.48828,-86.7261,44.4122,-137.17,88.8672,-16.3574,463.44,0.476196,0.00915527,0.695038,-0.538483,10722,4632,11755,-3382,-29340
817311,6.29727,-16.9107,1.63174,-86.0065,46.4722,-136.989,121.216,12.6343,434.753,0.487335,0.0236816,0.692108,-0.531799,3555,-20457,-1558,-3382,-29340
817317,0.14834,-11.4222,-0.0334961,-85.144,48.4662,-136.813,172.241,38.4521,404.602,0.50531,0.0540161,0.684814,-0.522186,-6941,19991,-14870,-3382,-29340
817323,-5.87617,-10.068,-0.808691,-83.1445,52.1411,-136.637,207.52,33.7524,380.493,0.512604,0.0697021,0.680573,-0.518707,-31515,29206,19690,-3382,-29340
817329,-9.75693,2.39736,-0.421094,-82.0404,53.6188,-136.533,209.045,35.4614,321.045,0.519226,0.0852966,0.675323,-0.516663,19686,-1515,2282,-3382,-29340
817335,-5.96709,-2.03369,-0.45459,-80.9802,54.7174,-136.274,174.5,11.7188,247.803,0.524292,0.0992126,0.670105,-0.515869,4071,31765,-17175,-3382,-29340
817341,-0.77041,-2.27773,-3.03857,-80.1233,55.5194,-136.203,164.978,26.6113,186.584,0.528442,0.109619,0.665344,-0.515717,-13337,-1516,28905,-3382,-29340
817347,-4.08174,-2.42607,-6.84756,-79.5135,56.0577,-136.296,120.056,13.7329,85.022,0.531494,0.125183,0.658386,-0.517944,31976,30228,9449,-3382,-29340
817353,-2.50264,-6.14414,-6.32598,-78.382,56.4862,-136.203,103.333,5.06592,54.2603,0.531982,0.129669,0.65564,-0.519806,-18455,-32749,-27416,-3382,-29340
817359,-4.31143,-9.154,-5.95273,-77.9755,56.5302,-136.165,81.4209,2.01416,36.5601,0.532043,0.13266,0.65329,-0.521942,17130,3091,19688,-3382,-29340
817365,-6.01973,-12.0012,-5.33545,-77.5909,56.5411,-135.978,52.7954,-15.5029,33.1421,0.531921,0.134613,0.651459,-0.523865,-15894,-25070,-25,-3382,-29340
817371,-6.2207,-14.767,-4.40234,-77.2559,56.5741,-135.665,21.7285,-29.4189,40.5273,0.532349,0.135437,0.649933,-0.525116,13547,14354,-18969,-3382,-29340
817377,-7.2208,-19.1119,-2.72275,-76.7505,56.8213,-134.698,-37.5366,-50.5371,71.6553,0.535339,0.134888,0.64801,-0.524567,-25621,-10223,27879,-3382,-29340
817383,-6.31162,-21.6863,-2.05283,-76.4868,57.0795,-133.956,-64.7583,-65.979,94.4824,0.538116,0.133942,0.647552,-0.522552,19436,13073,-6170,-3382,-29340
817389,-5.41201,-24.8732,-2.05762,-76.1737,57.442,-133.061,-82.1533,-77.3926,119.812,0.541962,0.13266,0.647217,-0.519287,-26644,-5104,-21530,-3382,-29340
817395,-4.50762,-27.3376,-2.02412,-75.7233,57.9034,-131.99,-84.6558,-89.4775,144.836,0.546783,0.13147,0.64682,-0.515015,-8980,-21744,29670,-3382,-29340
817401,-3.61279,-28.5626,-1.871,-75.0586,58.4637,-130.704,-78.4302,-103.943,170.349,0.552429,0.130615,0.646057,-0.510132,7405,26896,17382,-3382,-29340
817407,-1.95713,-27.9214,-0.181836,-73.0646,59.8041,-127.595,-56.3354,-124.939,210.022,0.566101,0.130676,0.642578,-0.499451,21485,10000,5606,-3382,-29340
817413,-1.09102,-26.6246,0.90918,-71.7188,60.5292,-125.76,-43.8843,-133.789,222.839,0.573792,0.131592,0.639832,-0.493896,-18451,-20721,-15899,-3374,-29341
817419,-0.531152,-24.768,1.5791,-70.1807,61.2323,-123.783,-34.1797,-140.564,226.379,0.581818,0.132935,0.636505,-0.488434,-7443,29199,-28187,-3374,-29341
817425,-0.172266,-22.5907,2.0959,-68.4613,61.8695,-121.674,-22.583,-148.071,222.046,0.589966,0.13446,0.63269,-0.483154,2542,13071,22501,-3374,-29341
817431,0.564648,-19.9972,2.84717,-66.6321,62.4023,-119.504,-13.6108,-151.917,208.496,0.598053,0.136017,0.628418,-0.478302,12014,-4082,6885,-3374,-29341
817437,2.43086,-17.1691,4.04346,-62.9791,63.067,-115.302,-1.77002,-150.879,161.804,0.613098,0.138184,0.619293,-0.47052,20974,-21746,-10012,-3374,-29341
817443,3.96689,-17.5232,5.01963,-61.3037,63.1879,-113.439,5.7373,-144.47,134.827,0.619629,0.138519,0.614716,-0.467804,-27666,7182,23012,-3374,-29341
817449,5.40244,-18.3367,6.03408,-59.8206,63.1989,-111.835,13.4888,-132.263,108.093,0.625336,0.138489,0.610321,-0.465973,-19730,-10739,6372,-3374,-29341
817455,6.67051,-19.5904,7.03896,-58.5571,63.1219,-110.511,18.9819,-117.249,84.7778,0.630096,0.138153,0.606232,-0.465027,-13074,-28659,-11293,-3374,-29341
817461,8.28789,-20.7437,7.67061,-57.5354,62.9956,-109.501,25.9399,-98.8159,63.7817,0.633881,0.137665,0.60257,-0.464783,-6930,19213,-29213,-3374,-29341
817467,11.0011,-20.6958,7.92422,-56.228,62.6385,-108.468,45.166,-55.3589,24.7803,0.638428,0.136841,0.596741,-0.466339,1519,-12788,-1822,-3374,-29341
817473,11.6519,-20.1646,6.98633,-55.9589,62.4243,-108.49,59.082,-29.9683,2.62451,0.63913,0.136719,0.594604,-0.46817,4591,-27124,-19486,-3374,-29341
817479,11.6471,-19.1454,5.09619,-55.9259,62.1661,-108.896,79.6509,-5.31006,-23.5596,0.63858,0.136932,0.593018,-0.470825,7151,24588,29154,-3374,-29341
817485,11.3982,-17.9061,2.55527,-56.0907,61.8256,-109.682,106.873,15.1978,-56.7627,0.636749,0.137512,0.591858,-0.474609,9455,11532,12258,-3374,-29341
817491,11.5609,-15.858,0.823047,-56.4148,61.4026,-110.775,129.272,31.25,-87.2192,0.633484,0.138397,0.590881,-0.479919,11759,-1269,-3103,-3374,-29341
817497,10.6518,-9.85264,-2.58398,-57.5134,60.2655,-113.719,153.137,54.3213,-146.667,0.623322,0.140442,0.589386,-0.494232,16367,-23029,-30751,-3374,-29341
817503,9.44111,-6.41689,-4.36885,-58.288,59.5349,-115.477,151.794,63.1104,-175.415,0.616669,0.141052,0.588959,-0.502808,18159,-31989,21985,-3374,-29341
817509,7.56055,-3.11992,-6.26377,-59.2053,58.667,-117.356,142.7,66.4062,-205.444,0.6091,0.141022,0.588928,-0.512024,19951,26123,9953,-3374,-29341
817515,6.11064,-0.899609,-7.72324,-60.238,57.6562,-119.284,124.756,64.5142,-235.229,0.600739,0.140015,0.589294,-0.521667,22255,19979,-2080,-3374,-29341
817521,5.16318,0.741699,-9.51768,-61.3696,56.4972,-121.201,101.99,59.2041,-263.245,0.591736,0.137726,0.590118,-0.531525,24047,15115,-13344,-3374,-29341
817527,4.39756,4.01953,-11.4987,-63.8031,53.6847,-124.788,40.7715,35.5225,-315.735,0.572449,0.12851,0.59317,-0.551178,25839,12811,32736,-3366,-29342
817533,4.50283,4.65596,-12.0969,-65.1324,52.0477,-126.403,1.46484,23.4375,-340.088,0.562439,0.121185,0.595459,-0.560608,24559,16395,24032,-3366,-29342
817539,3.46924,3.81855,-12.4893,-66.5222,50.235,-127.87,-38.269,7.8125,-366.455,0.552185,0.111969,0.598419,-0.569489,23023,21515,16352,-3366,-29342
817545,2.71318,1.84229,-12.518,-67.923,48.2574,-129.161,-72.7539,-10.6201,-392.09,0.541748,0.100677,0.60202,-0.577789,20463,30219,8928,-3366,-29342
817551,1.62695,-3.15342,-11.3647,-69.3237,46.1261,-130.292,-99.9146,-25.5737,-415.833,0.520203,0.0724792,0.610229,-0.593018,16879,-23285,3040,-3366,-29342
817557,2.02412,-5.9623,-10.2546,-71.933,41.4349,-131.946,-139.282,-67.1387,-457.886,0.509186,0.0558777,0.61438,-0.600037,2799,12812,-5665,-3366,-29342
817563,2.01455,-9.03438,-9.3167,-73.1415,38.9246,-132.534,-148.865,-79.834,-474.548,0.497986,0.0378418,0.618317,-0.60675,-7954,-28660,-8225,-3366,-29342
817569,2.06719,-11.5322,-7.87637,-74.2566,36.3483,-132.984,-149.231,-89.9048,-484.558,0.486481,0.0188293,0.621948,-0.61322,-22290,-500,-9249,-3366,-29342
817575,1.90928,-13.14,-6.16328,-75.2893,33.7445,-133.358,-146.606,-92.8955,-490.967,0.474762,-0.000640869,0.625061,-0.619507,28398,28173,-10785,-3366,-29342
817581,1.1293,-15.4656,-3.68936,-76.2561,31.1243,-133.632,-146.606,-98.3887,-492.432,0.450592,-0.0401001,0.629822,-0.631348,9710,-5363,-10785,-3366,-29342
817587,1.31113,-14.7096,-2.33037,-78.0414,25.9277,-133.984,-145.386,-97.9004,-489.624,0.438324,-0.0598145,0.6315,-0.636688,25837,1295,-6689,-3366,-29342
817593,1.68438,-13.4606,-1.15801,-78.9423,23.3569,-134.138,-151.489,-88.9282,-488.159,0.425873,-0.0793457,0.632874,-0.641632,-4628,-25329,-1825,-3366,-29342
817599,2.65098,-13.0683,-0.330176,-79.8926,20.8026,-134.302,-162.292,-77.3926,-488.525,0.412994,-0.0986023,0.634216,-0.646027,26092,15632,4064,-3366,-29342
817605,3.27783,-14.0588,0.0574219,-80.8978,18.2593,-134.5,-172.729,-60.5469,-489.38,0.399597,-0.117645,0.635712,-0.649811,-8469,-10224,10976,-3366,-29342
817611,3.31611,-16.9299,-0.0239258,-81.9305,15.7324,-134.731,-179.321,-43.5791,-489.197,0.370667,-0.15448,0.63916,-0.655823,19691,31249,18912,-3366,-29342
817617,2.76582,-17.3893,-0.263184,-84.0344,10.7611,-135.313,-185.913,-5.24902,-485.107,0.355255,-0.172058,0.640991,-0.658173,1002,-13550,-25376,-3366,-29342
817623,1.45947,-17.2983,-0.976172,-85.0781,8.30017,-135.665,-185.73,11.4136,-484.558,0.339203,-0.188843,0.642853,-0.660248,19689,30227,-10784,-3366,-29342
817629,0.0765625,-16.7528,-1.62217,-86.0889,5.84473,-136.016,-183.35,22.7661,-485.291,0.322571,-0.205017,0.644562,-0.662048,-29976,7700,5857,-3366,-29342
817635,-1.72266,-16.1499,-1.79922,-87.0886,3.39478,-136.373,-185.181,33.6304,-485.046,0.305542,-0.220703,0.646027,-0.663696,-17433,-16108,25313,-3366,-29342
817641,-8.41709,-16.9347,-3.00986,-88.1104,0.955811,-136.719,-192.383,42.6636,-484.253,0.270386,-0.250793,0.648529,-0.665802,-3610,22549,-20511,-3366,-29342
817647,-11.5705,-16.9969,-3.03379,-90.1868,-3.85071,-137.181,-203.43,29.48,-479.858,0.252686,-0.265564,0.649597,-0.665985,14821,30486,23522,-3341,-29345
817653,-14.2693,-16.8198,-1.99063,-91.2634,-6.21826,-137.252,-209.412,17.9443,-476.013,0.235321,-0.280457,0.65036,-0.665497,20196,23,-16926,-3341,-29345
817659,-17.2122,-16.6284,-0.330176,-92.3676,-8.53638,-137.214,-214.844,7.62939,-470.459,0.218323,-0.295441,0.650879,-0.664307,23523,-32233,9699,-3341,-29345
817665,-19.9397,-16.1164,1.97148,-93.5101,-10.7941,-137.071,-220.093,-3.35693,-463.318,0.201782,-0.310394,0.651184,-0.662415,25058,-1257,-27933,-3341,-29345
817671,-23.8157,-16.3461,7.64189,-94.7021,-12.9913,-136.829,-229.858,-18.6768,-448.669,0.170227,-0.340088,0.651306,-0.656525,28897,26648,-541,-3341,-29345
817677,-24.7632,-17.2648,9.95791,-97.1576,-17.2046,-136.126,-225.891,-21.4233,-441.589,0.15506,-0.354645,0.651184,-0.65271,29407,6425,-7964,-3341,-29345
817683,-26.0791,-17.5854,11.915,-98.3331,-19.2426,-135.714,-213.135,-18.3105,-438.66,0.140289,-0.368774,0.650757,-0.648621,26846,23833,22245,-3341,-29345
817689,-28.2372,-17.8295,13.3649,-99.4373,-21.2531,-135.302,-198.12,-9.8877,-436.768,0.125793,-0.382385,0.64975,-0.644714,22493,-28391,-12059,-3341,-29345
817695,-31.8452,-18.8104,14.1449,-100.464,-23.2471,-134.901,-182.495,-1.58691,-435.242,0.11142,-0.395355,0.648132,-0.641174,17116,-17383,19174,-3341,-29345
817701,-40.5542,-21.0834,15.2934,-101.415,-25.1971,-134.489,-144.47,7.99561,-416.138,0.0833435,-0.419495,0.643036,-0.635193,10715,-10215,-14106,-3341,-29345
817707,-44.8991,-21.3609,15.4656,-103.03,-28.8007,-133.693,-128.235,8.17871,-393.005,0.0701599,-0.430389,0.639709,-0.632843,3033,-3815,-18713,-3341,-29345
817713,-47.9664,-21.2939,15.3316,-103.733,-30.3552,-133.297,-114.807,5.5542,-359.436,0.0579834,-0.440399,0.6362,-0.630707,-1577,-5863,11496,-3341,-29345
817719,-50.292,-20.6623,14.8962,-104.348,-31.6956,-132.94,-100.403,3.84521,-316.833,0.0470886,-0.44931,0.632843,-0.628754,-5930,-11239,-25112,-3341,-29345
817725,-52.3209,-18.4898,14.4895,-104.875,-32.7832,-132.627,-86.6089,2.13623,-268.066,0.0377197,-0.456879,0.629791,-0.626953,-8235,-19943,3049,-3341,-29345
817731,-54.2828,-11.7715,13.073,-105.32,-33.6127,-132.38,-69.7632,-4.94385,-167.053,0.0240173,-0.467682,0.625488,-0.623962,-9260,-30439,29929,-3341,-29345
817737,-53.6751,-8.69463,12.2787,-106.057,-34.53,-132.017,-68.0542,-11.1694,-120.789,0.0196838,-0.471039,0.624512,-0.622589,-302,10265,13802,-3341,-29345
817743,-52.0721,-6.75186,11.5322,-106.37,-34.6564,-131.902,-66.8945,-16.2964,-78.5522,0.0168152,-0.473236,0.62442,-0.621094,8658,-4072,-28694,-3341,-29345
817749,-50.3111,-5.16797,11.1207,-106.644,-34.5959,-131.841,-64.4531,-19.4092,-40.5884,0.0152588,-0.474396,0.625153,-0.619507,21457,-18664,-8726,-3341,-29345
817755,-47.6075,-3.75156,10.8145,-106.902,-34.3542,-131.808,-65.3687,-25.2075,-5.61523,0.0148926,-0.474548,0.626617,-0.61792,-27184,-32232,11243,-3341,-29345
817761,-47.775,-33.8837,-3.40703,-107.924,-33.2831,-131.896,-183.655,-35.8276,82.5806,0.0172119,-0.472321,0.631653,-0.61441,-5937,19992,29931,-3391,-29339
817767,-52.2826,-61.1304,25.7776,-107.825,-32.0361,-131.924,0.366211,-75.5005,189.697,0.0181885,-0.469604,0.638824,-0.60907,-16690,-2537,2796,-3391,-29339
817773,-42.1859,-32.9219,17.3605,-106.902,-30.3717,-131.924,167.358,-101.99,269.958,0.0269165,-0.464813,0.643127,-0.607849,17870,-11497,21228,-3391,-29339
817779,-55.7519,-67.7482,5.04355,-106.941,-27.9108,-132.017,-32.7148,-128.235,430.115,0.0418396,-0.458252,0.644501,-0.610565,-7475,-18409,-26388,-3391,-29339
817785,-68.9302,-13.4606,-14.7909,-104.755,-25.0818,-132.198,406.799,-121.46,506.653,0.0578003,-0.448181,0.654083,-0.606537,-25907,-22249,-10772,-3391,-29339
817791,5.45508,-0.16748,23.7392,-102.085,-18.2153,-131.786,221.802,-173.035,580.994,0.115112,-0.418976,0.656342,-0.616699,29133,-21737,2029,-3391,-29339
817797,-14.2837,-6.63223,17.4658,-100.042,-16.062,-133.682,280.579,274.414,450.195,0.141174,-0.404419,0.660187,-0.616913,28877,-12777,20461,-3391,-29339
817803,-54.6226,-0.0526367,21.916,-97.5366,-15.3369,-135.571,382.263,337.585,157.593,0.151703,-0.38092,0.662292,-0.627014,-26163,-4073,25581,-3391,-29339
817809,-62.5755,19.4182,-42.5783,-96.6797,-15.3699,-136.285,120.117,137.146,-33.1421,0.153992,-0.36319,0.656708,-0.642639,-9267,7192,26349,-3391,-29339
817815,-18.8057,-39.5732,-13.2549,-97.998,-14.9359,-134.626,-187.134,-326.843,1.34277,0.152466,-0.358093,0.654053,-0.64856,11982,18968,24557,-3391,-29339
817821,35.123,-19.088,25.7729,-97.9266,-14.2053,-133.039,270.142,40.5884,150.574,0.173981,-0.37265,0.654175,-0.634674,-31026,30232,21997,-3391,-29339
817827,0.76084,16.3892,4.85693,-94.9164,-12.6398,-134.61,237.183,236.023,114.502,0.18277,-0.364075,0.649628,-0.641785,12239,-16360,15597,-3391,-29339
817833,-16.7433,13.5324,14.432,-94.5264,-11.8817,-134.703,62.2559,6.83594,113.77,0.184387,-0.351196,0.646881,-0.651245,32719,-8424,11757,-3391,-29339
817839,-0.698633,-6.45518,10.5417,-95.0317,-11.1951,-134.506,-106.201,-47.4854,94.4824,0.189728,-0.34613,0.647125,-0.652161,-11569,-1000,5613,-3391,-29339
817845,-2.57441,-12.7046,-2.63662,-95.1086,-10.5853,-134.736,-37.5366,37.2314,88.2568,0.193512,-0.344513,0.651367,-0.647675,11216,6937,-2068,-3391,-29339
817851,-5.9623,-1.15801,-1.11016,-94.6747,-10.0525,-134.923,39.856,-32.7148,67.3218,0.199188,-0.335602,0.653778,-0.648193,-31024,14105,-8724,-3391,-29339
817857,1.51689,-6.06279,7.1873,-94.3286,-9.0033,-134.67,15.3198,-25.3906,63.9648,0.203918,-0.333191,0.653564,-0.648163,13777,26137,-14612,-3391,-29339
817863,-5.39766,-7.42656,-0.507227,-94.2627,-8.5968,-134.934,-5.18799,49.3164,48.0957,0.208008,-0.330902,0.654022,-0.647583,-31279,31769,-16404,-3391,-29339
817869,-13.7095,-17.4563,-2.57441,-94.2242,-8.21777,-134.962,-2.86865,5.61523,39.6729,0.209198,-0.327148,0.655487,-0.647614,-11567,-28391,-16660,-3391,-29339
817875,-2.40693,-14.9775,-0.698633,-93.9825,-7.75635,-134.703,46.9971,-52.5513,53.1006,0.211426,-0.32489,0.656403,-0.647125,8146,-23527,-17172,-3391,-29339
817881,-8.32617,-13.9392,1.36855,-93.7189,-7.36084,-134.758,19.9585,26.7334,41.3208,0.219177,-0.320557,0.655243,-0.647858,28114,-18663,-18452,-3349,-29344
817887,-10.2307,-22.117,-6.63223,-93.5321,-6.58081,-134.857,-1.83105,-4.45557,48.2788,0.2211,-0.317535,0.65567,-0.648254,2259,-9703,-19732,-3349,-29344
817893,-7.996,-25.1699,-6.50781,-93.252,-6.1084,-134.659,54.8096,-35.9497,60.3638,0.223816,-0.315491,0.656525,-0.647461,21203,-5351,-20244,-3349,-29344
817899,-6.84756,-18.3224,-1.45947,-92.6807,-5.63049,-134.467,113.098,-35.1562,62.6831,0.228516,-0.313507,0.65564,-0.647675,-26157,-1255,-20500,-3349,-29344
817905,-5.50293,-8.82383,6.0915,-92.0654,-5.11414,-134.203,123.413,-48.1567,70.2515,0.234039,-0.310883,0.653137,-0.649506,-8237,2074,-18964,-3349,-29344
817911,-5.08662,-19.3416,8.48887,-91.6809,-4.6637,-134.044,68.6035,-45.4102,72.6318,0.244812,-0.305908,0.648834,-0.652222,10452,4634,-16916,-3349,-29344
817917,0.45459,-30.7303,17.4802,-91.0107,-3.57056,-133.698,58.2886,-11.8408,87.8296,0.250214,-0.303772,0.647491,-0.652496,-18732,8474,-17428,-3349,-29344
817923,5.10098,-21.4901,8.50322,-91.0876,-2.69714,-133.901,-25.0244,46.0205,151.001,0.254913,-0.300385,0.646942,-0.652802,-556,10010,-19220,-3349,-29344
817929,-0.521582,-26.1222,5.39287,-91.3184,-1.73035,-134.214,-56.3965,68.0542,170.959,0.258636,-0.294525,0.650146,-0.650818,16597,12058,-20756,-3349,-29344
817935,-0.765625,-29.0746,3.61758,-91.4172,-0.620728,-134.363,-27.771,33.8135,201.355,0.261841,-0.287872,0.654663,-0.647949,-31019,13850,-22036,-3349,-29344
817941,-1.42598,-26.4811,2.87109,-91.5106,1.95557,-134.692,-13.7939,40.0391,261.23,0.272949,-0.273499,0.661743,-0.642395,-10539,15130,-21524,-3349,-29344
817947,-3.04814,-26.8352,5.87617,-91.626,3.46069,-134.956,-25.3906,61.4624,286.011,0.279968,-0.264862,0.665588,-0.639038,-28714,19226,-20244,-3349,-29344
817953,-1.56475,-25.6245,3.63193,-91.9226,5.16357,-135.159,-60.9741,46.5088,326.782,0.286804,-0.255035,0.670135,-0.635223,-1834,21018,-18708,-3349,-29344
817959,0.574219,-30.0938,5.79961,-92.3456,6.99829,-135.423,-83.6792,55.3589,356.689,0.294739,-0.244904,0.675781,-0.629547,27607,22298,-17428,-3349,-29344
817965,1.46426,-36.238,5.1249,-92.7411,8.95386,-135.714,-76.2329,57.4341,384.216,0.302856,-0.233948,0.682281,-0.622803,-9001,23578,-16660,-3349,-29344
817971,6.60352,-42.9324,0.698633,-93.0652,13.3484,-136.137,-6.34766,29.7241,451.294,0.321808,-0.209167,0.694275,-0.608734,22744,23578,-15380,-3349,-29344
817977,8.51279,-39.0038,-0.526367,-92.8674,15.7434,-136.384,48.584,39.4287,479.858,0.333435,-0.195038,0.698547,-0.602264,30169,22042,-16148,-3349,-29344
817983,3.98125,-33.075,-1.55996,-92.5104,18.2098,-136.736,88.8062,61.2183,497.803,0.345734,-0.178955,0.701416,-0.596924,5850,19994,-16404,-3349,-29344
817989,-0.200977,-30.0747,-1.89971,-92.1313,20.7806,-136.978,89.7827,40.7715,519.165,0.35791,-0.161194,0.70343,-0.592438,-15398,17178,-17940,-3349,-29344
817995,2.57441,-30.9217,-0.253613,-91.6754,23.4613,-137.082,97.5342,16.7236,541.87,0.371033,-0.14325,0.704865,-0.58725,28379,13338,-19220,-3374,-29341
818001,3.90947,-29.2038,-0.363672,-90.5164,28.9215,-137.411,139.221,35.2173,557.861,0.399109,-0.105774,0.705475,-0.575958,9948,7450,-22036,-3374,-29341
818007,5.80918,-22.8396,-1.21064,-89.8682,31.6791,-137.543,144.104,36.0718,564.819,0.412781,-0.085968,0.704651,-0.570618,-18467,-10215,31212,-3374,-29341
818013,-2.56963,-16.504,1.07666,-89.5166,34.3762,-137.944,114.563,84.0454,553.04,0.42627,-0.0658569,0.703308,-0.564972,-28962,-22503,21740,-3374,-29341
818019,-7.76631,-22.4232,-1.85664,-89.165,36.9745,-137.928,70.3125,17.1509,534.668,0.437622,-0.0454712,0.703156,-0.558472,26847,27929,9708,-3374,-29341
818025,3.80898,-22.428,0.674707,-88.4729,39.4409,-137.626,103.699,-24.4141,511.475,0.450165,-0.0281372,0.702393,-0.550537,18144,9497,-3861,-3374,-29341
818031,-1.60781,-15.7049,2.33994,-87.3688,43.9398,-137.51,96.6797,10.8643,457.886,0.473633,0.00488281,0.697449,-0.537689,7137,-9960,-17429,-3374,-29341
818037,4.05303,-15.0637,1.21064,-86.6327,45.9998,-137.137,96.5576,-19.6533,435.608,0.483826,0.0201111,0.695007,-0.531403,-13086,8216,16107,-3374,-29341
818043,6.5748,-12.3505,1.36855,-85.9131,47.8729,-136.945,119.019,8.60596,398.926,0.494202,0.033905,0.691681,-0.525452,-22557,-18921,-790,-3374,-29341
818049,3.4166,-10.9915,0.0382813,-85.1605,49.6143,-136.818,134.644,21.0571,373.779,0.502625,0.0476685,0.688324,-0.520782,32484,18967,-18198,-3374,-29341
818055,1.37813,-9.2832,0.0382813,-84.3805,51.3171,-136.73,145.935,29.4189,366.15,0.509888,0.0612488,0.684753,-0.516998,21221,-10730,30186,-3374,-29341
818061,-10.2163,5.01963,-0.0143555,-82.4634,54.256,-136.615,194.824,34.2407,297.913,0.522125,0.0888977,0.676575,-0.511475,6630,25110,13802,-3374,-29341
818067,-9.09658,-1.24893,-0.344531,-81.5131,55.1843,-136.346,151.672,3.2959,214.111,0.526642,0.101807,0.671783,-0.510773,-28697,26133,-22551,-3374,-29341
818073,-1.83271,-6.35469,-2.3208,-80.6177,55.816,-136.176,155.518,8.42285,155.518,0.530273,0.110565,0.667542,-0.510742,16616,-8428,23529,-3374,-29341
818079,-4.55547,-5.16318,-4.49326,-79.986,56.2335,-136.236,142.09,27.4048,107.056,0.532379,0.117798,0.663544,-0.512146,-6680,23316,3305,-3374,-29341
818085,-5.93838,-6.75664,-6.21592,-79.2938,56.4368,-136.121,125.183,0.488281,69.0308,0.532867,0.123749,0.660553,-0.514099,32745,-8941,-17432,-3374,-29341
818091,-4.23008,-13.1209,-6.01494,-78.0963,56.5576,-135.829,94.0552,-7.14111,37.1094,0.5336,0.130249,0.654694,-0.519165,-29718,-1006,9448,-3374,-29341
818097,-5.91445,-14.767,-5.3498,-77.5909,56.6016,-135.604,70.2515,-19.4092,40.9546,0.533661,0.132324,0.652405,-0.521484,-278,-26862,-9241,-3374,-29341
818103,-6.22549,-15.6714,-4.32578,-77.1515,56.6895,-135.269,39.917,-29.7241,51.6968,0.534271,0.133698,0.65036,-0.523071,26347,14098,-28441,-3374,-29341
818109,-5.91445,-17.0782,-3.38789,-76.8164,56.8542,-134.863,6.28662,-34.668,67.627,0.535553,0.13446,0.648712,-0.52359,-15381,-8687,18919,-3374,-29341
818115,-5.18232,-19.5426,-2.5457,-76.5253,57.1014,-134.346,-21.3013,-42.1753,87.4023,0.537537,0.134766,0.647644,-0.522827,6380,-30447,2279,-3374,-29341
818121,-2.75146,-25.3709,-1.66523,-76.0309,57.9749,-133.011,-64.1479,-50.1099,144.043,0.543976,0.134888,0.646515,-0.517456,-21524,-4848,-30746,-3374,-29341
818127,-2.56006,-26.6677,-1.17236,-75.7452,58.6066,-132.204,-73.8525,-52.124,172.119,0.548431,0.135376,0.64624,-0.513,-5140,-23024,19686,-3374,-29341
818133,-3.04814,-27.7778,-0.990527,-75.3442,59.3481,-131.259,-76.5991,-59.1431,196.533,0.553558,0.136353,0.645935,-0.507568,9453,24336,5350,-3374,-29341
818139,-2.97637,-28.1319,-0.775195,-74.7565,60.1776,-130.117,-74.3408,-70.5566,218.628,0.559357,0.137817,0.645355,-0.501526,22765,6672,-9243,-3374,-29341
818145,-2.50742,-27.6582,-0.516797,-73.9819,61.0345,-128.809,-66.8945,-80.1392,229.492,0.565887,0.139709,0.644257,-0.495056,-30227,-11249,-23323,-3374,-29341
818151,-1.79922,-24.4809,1.24893,-71.8341,62.6605,-125.728,-49.4385,-100.281,226.624,0.579834,0.144135,0.640533,-0.4823,-6675,18703,16869,-3374,-29341
818157,-1.43555,-22.6146,1.97627,-70.5322,63.3417,-124.019,-40.6494,-107.483,210.754,0.586945,0.14621,0.63797,-0.47644,4334,1039,4581,-3374,-29341
818163,-1.28242,-21.0547,2.51699,-69.115,63.8745,-122.245,-29.3579,-115.662,187.622,0.593781,0.147888,0.635101,-0.471283,15086,-17394,-7964,-3374,-29341
818169,-0.0717773,-20.2412,3.15342,-67.6428,64.2426,-120.493,-18.1274,-120.789,158.325,0.60022,0.149048,0.631866,-0.467041,25838,29966,-19996,-3374,-29341
818175,1.87578,-20.3513,4.29707,-66.1981,64.4513,-118.845,-5.37109,-120.361,128.113,0.611176,0.149597,0.624969,-0.461945,-29202,11790,31716,-3374,-29341
818181,5.74219,-22.0931,6.75186,-63.6932,64.4733,-116.186,19.165,-102.966,72.3267,0.615417,0.149231,0.621552,-0.46106,-10770,-24563,4324,-3374,-29341
818187,6.84756,-22.6099,7.40264,-62.7374,64.3469,-115.28,29.6631,-87.5854,48.8892,0.618652,0.148743,0.618347,-0.461151,-3602,24077,-9245,-3374,-29341
818193,8.38359,-22.4424,8.04863,-61.9739,64.1547,-114.664,43.0298,-71.2891,27.2217,0.620941,0.148193,0.615509,-0.462067,2287,7949,-23581,-3374,-29341
818199,9.81436,-21.16,7.5127,-61.4575,63.9075,-114.412,58.7769,-49.3774,4.76074,0.622223,0.147766,0.612946,-0.463867,7151,-7668,28131,-3374,-29341
818205,10.5417,-20.313,6.34033,-61.1719,63.6108,-114.51,75.8057,-26.7944,-17.6392,0.621246,0.147705,0.6091,-0.470245,11247,-22260,13283,-3374,-29341
818211,11.4796,-17.5998,2.92852,-61.1444,62.8638,-115.681,119.141,13.855,-62.8662,0.618988,0.148193,0.607605,-0.474945,18671,17164,-17438,-3374,-29341
818217,11.1542,-14.6282,1.46426,-61.3696,62.4078,-116.697,135.864,31.311,-84.4727,0.61554,0.149109,0.606384,-0.480713,21743,6156,-32286,-3374,-29341
818223,10.5656,-11.5657,-0.291895,-61.7542,61.886,-117.916,140.869,44.0674,-105.713,0.611023,0.150208,0.605347,-0.487366,24559,-4341,20194,-3374,-29341
818229,9.68994,-8.16348,-2.36865,-62.287,61.2817,-119.306,139.343,52.9175,-127.93,0.605621,0.151154,0.604675,-0.494568,26607,-13813,7394,-3366,-29342
818235,8.14912,-4.44541,-4.30664,-62.9407,60.5731,-120.806,134.766,57.4341,-152.283,0.592651,0.151367,0.604401,-0.510345,27887,-21237,-4895,-3366,-29342
818241,5.59385,2.3543,-7.97686,-64.5502,58.7549,-123.959,104.797,52.4902,-207.336,0.585236,0.150177,0.604767,-0.518738,30447,-32501,-28447,-3366,-29342
818247,4.7373,4.30186,-9.03916,-65.484,57.6068,-125.491,76.7212,40.8936,-235.474,0.577332,0.147583,0.605591,-0.527313,32239,29963,26593,-3366,-29342
818253,4.55547,5.59385,-10.0105,-66.5002,56.2939,-126.925,44.0063,27.5879,-263.306,0.569153,0.143219,0.606903,-0.535828,-31249,27915,16353,-3366,-29342
818259,4.1248,6.02451,-10.7331,-67.5934,54.8218,-128.26,7.14111,14.4653,-290.1,0.560822,0.136963,0.608734,-0.544098,-29969,27915,7649,-3366,-29342
818265,3.36396,4.39277,-11.2499,-68.7579,53.1903,-129.457,-67.8711,-18.1274,-340.637,0.54364,0.118561,0.614319,-0.559387,-29969,31243,225,-3366,-29342
818271,3.15342,2.42607,-10.4364,-71.2079,49.4714,-131.369,-102.234,-35.9497,-364.563,0.534882,0.106384,0.61792,-0.566254,30959,-18165,-12064,-3366,-29342
818277,3.73242,-0.746484,-9.79043,-72.4438,47.4005,-132.083,-127.625,-51.9409,-386.658,0.526031,0.0923157,0.621918,-0.572601,25839,-5365,-16160,-3366,-29342
818283,4.35449,-4.01475,-8.82383,-73.6414,45.2142,-132.676,-141.602,-62.8662,-406.677,0.516968,0.0766296,0.626099,-0.578583,19439,9228,-20000,-3366,-29342
818289,4.81387,-6.45039,-7.82852,-74.7949,42.9346,-133.165,-147.766,-70.4346,-423.706,0.507568,0.0597839,0.630249,-0.584351,10735,27660,-22048,-3366,-29342
818295,6.1585,-9.94355,-4.46934,-75.8661,40.567,-133.544,-149.353,-78.5522,-452.576,0.487579,0.0238647,0.637695,-0.595734,-530,-14836,-22816,-3366,-29342
818301,5.98623,-10.9006,-3.18691,-77.9095,35.6561,-134.193,-150.574,-74.2798,-464.966,0.476807,0.00521851,0.640961,-0.60141,-30482,-23283,-22560,-3366,-29342
818307,6.51738,-11.872,-2.27773,-78.9038,33.1238,-134.484,-151.123,-68.9697,-476.013,0.465393,-0.0136108,0.643982,-0.606964,16366,9742,-21280,-3366,-29342
818313,6.82842,-12.7524,-1.56953,-79.8871,30.5475,-134.791,-151.245,-58.4717,-487.244,0.453278,-0.0325928,0.646759,-0.612396,-5651,-20978,-18976,-3366,-29342
818319,7.40742,-13.1879,-1.34941,-80.8649,27.9272,-135.099,-151.733,-49.4385,-497.437,0.440369,-0.0515747,0.649384,-0.617737,-28435,13327,-15648,-3366,-29342
818325,7.50791,-13.7286,-0.899609,-81.8481,25.2795,-135.428,-162.964,-21.4233,-512.695,0.412201,-0.0893555,0.654144,-0.627777,10733,-15601,-11552,-3366,-29342
818331,6.93848,-14.9871,-1.06709,-83.9191,19.9347,-136.154,-170.898,-6.83594,-515.442,0.396851,-0.108032,0.656494,-0.632233,12524,-1776,737,-3366,-29342
818337,6.13936,-16.0686,-1.35898,-84.9847,17.2705,-136.522,-179.626,4.3335,-515.259,0.380798,-0.126404,0.658936,-0.636169,-24341,-25071,9697,-3366,-29342
818343,4.90957,-17.3079,-1.69395,-86.0779,14.6173,-136.873,-188.599,12.6343,-513.489,0.364166,-0.14447,0.661346,-0.639526,1003,18962,20961,-3366,-29342
818349,3.6415,-18.7817,-2.13896,-87.182,11.9861,-137.186,-196.777,17.4561,-510.193,0.347168,-0.162292,0.663727,-0.642242,26602,-4334,-31775,-3333,-29346
818355,-0.186621,-19.6431,-3.17256,-89.3408,6.81152,-137.582,-200.928,7.8125,-501.343,0.312683,-0.197144,0.667999,-0.645782,-17175,-27885,-16671,-3333,-29346
818361,-1.98105,-20.2221,-2.56484,-90.3955,4.27368,-137.62,-203.003,-2.99072,-495.605,0.295715,-0.214447,0.669525,-0.646667,17128,-10220,24802,-3333,-29346
818367,-5.27324,-21.5619,-1.82314,-91.4612,1.79626,-137.565,-207.458,-10.9863,-486.938,0.279175,-0.23172,0.670593,-0.646942,29415,29973,-16670,-3333,-29346
818373,-10.3455,-22.9257,-1.25371,-92.5269,-0.615234,-137.373,-208.313,-27.832,-478.516,0.263031,-0.248871,0.671387,-0.646515,-26650,3606,9187,-3333,-29346
818379,-13.8243,-23.4616,-0.0765625,-93.5815,-2.94434,-136.978,-204.407,-57.6172,-467.59,0.24762,-0.266052,0.671753,-0.645416,-19995,-24554,-28701,-3333,-29346
818385,-16.6619,-22.5285,4.34492,-95.7074,-7.34436,-135.736,-197.937,-97.7173,-446.289,0.220398,-0.301056,0.670532,-0.641144,-11804,10007,-2333,-3333,-29346
818391,-17.5232,-22.4998,6.34033,-96.7786,-9.42078,-134.929,-190.43,-113.342,-436.584,0.208191,-0.318542,0.669189,-0.638153,-3102,7192,-9500,-3333,-29346
818397,-17.9587,-21.6911,8.76162,-97.8113,-11.4148,-134.039,-176.941,-119.934,-427.917,0.196899,-0.335938,0.667328,-0.634796,-2335,-31208,22245,-3333,-29346
818403,-18.9636,-20.0594,11.0346,-98.8,-13.3539,-133.138,-163.452,-115.356,-422.424,0.186279,-0.352905,0.664825,-0.631378,-3616,-7144,-10523,-3333,-29346
818409,-20.5905,-18.2649,12.4701,-99.7559,-15.271,-132.259,-154.541,-104.126,-421.326,0.175934,-0.369263,0.661835,-0.628143,-6945,13849,22758,-3333,-29346
818415,-24.7345,-14.1114,13.8578,-101.651,-19.1382,-130.644,-152.161,-67.2607,-433.35,0.154602,-0.400055,0.654633,-0.622375,-7714,32025,-11034,-3333,-29346
818421,-27.3807,-14.5038,13.8865,-102.645,-21.1102,-129.935,-161.499,-45.4712,-438.293,0.142883,-0.414581,0.650757,-0.619781,-13860,-6887,-14617,-3333,-29346
818427,-30.6154,-16.2887,13.7238,-103.656,-23.0658,-129.32,-168.823,-22.1558,-434.998,0.13031,-0.428436,0.646912,-0.617126,-18469,1050,17384,-3333,-29346
818433,-35.1518,-18.2075,14.2023,-104.656,-24.9554,-128.815,-172.058,2.68555,-420.288,0.117065,-0.441345,0.64328,-0.614502,-23846,5658,-16920,-3333,-29346
818439,-40.3054,-19.2746,14.9967,-105.634,-26.7188,-128.408,-175.72,20.813,-393.188,0.103485,-0.452911,0.639923,-0.612,-29223,6170,14825,-3333,-29346
818445,-47.7367,-17.9156,17.796,-107.523,-29.696,-127.875,-183.472,42.2974,-316.04,0.077301,-0.471588,0.63501,-0.606873,31447,-487,8682,-3333,-29346
818451,-49.5264,-16.8485,19.4421,-108.413,-30.8716,-127.776,-186.035,52.063,-269.409,0.0653076,-0.478577,0.633789,-0.604065,29398,-8935,-26390,-3333,-29346
818457,-51.2921,-15.0876,20.3417,-109.199,-31.8219,-127.809,-180.481,60.8521,-220.276,0.0541992,-0.483856,0.633545,-0.601227,28117,-19687,3051,-3333,-29346
818463,-52.9813,-13.2788,20.5427,-109.863,-32.536,-127.963,-170.044,65.979,-170.105,0.0443115,-0.487396,0.634125,-0.598541,29140,-31975,30699,-3374,-29341
818469,-54.4168,-11.5944,19.7053,-110.363,-33.0249,-128.249,-151.367,70.8618,-120.667,0.0358276,-0.489258,0.635468,-0.596191,32467,19993,-7445,-3374,-29341
818475,-55.6179,-8.79512,15.8771,-110.929,-33.3545,-128.996,-108.704,55.7861,-35.8887,0.0237122,-0.488464,0.639648,-0.592957,-14639,-8424,-26132,-3374,-29341
818481,-54.5077,-10.7666,11.4413,-111.039,-33.2501,-129.38,-86.1206,42.9077,-4.27246,0.0203552,-0.486572,0.642181,-0.591888,721,-23016,-4372,-3374,-29341
818487,-63.566,-51.9429,27.8161,-111.094,-32.6678,-129.803,-79.0405,15.0757,86.9141,0.0186462,-0.484039,0.644775,-0.591187,19920,28696,16109,-3374,-29341
818493,-58.0918,-31.6921,12.6759,-110.237,-31.6187,-130.078,119.69,-38.147,165.771,0.0202332,-0.479706,0.649078,-0.589966,-21553,15640,-29459,-3374,-29341
818499,-52.6989,-8.81426,15.1594,-108.979,-30.3278,-130.364,200.439,-48.4619,212.83,0.0295105,-0.474304,0.649811,-0.593109,7119,5144,-12307,-3374,-29341
818505,-84.6781,-7.34521,-26.6103,-106.381,-25.2081,-130.655,456.726,-156.067,486.633,0.0575867,-0.457672,0.657837,-0.595276,15310,-9961,18926,-3374,-29341
818511,-84.1087,-6.00537,40.9609,-105.161,-21.5607,-129.957,279.907,-325.073,622.681,0.0852661,-0.444916,0.655396,-0.604248,-3891,-13033,30958,-3374,-29341
818517,0.866113,-2.40693,22.3323,-104.31,-18.0286,-129.205,202.148,-317.932,603.577,0.117828,-0.432953,0.658875,-0.603699,-13363,-12265,-23826,-3374,-29341
818523,3.59365,-6.77578,31.6969,-102.178,-15.7709,-130.798,312.5,192.871,468.018,0.148071,-0.421326,0.663269,-0.600433,-13107,-7145,-15634,-3374,-29341
818529,-48.8517,4.51719,23.0214,-99.8547,-15.0128,-132.979,328.064,381.104,188.11,0.161865,-0.3992,0.664917,-0.610107,-3379,2072,-11794,-3374,-29341
818535,-31.0509,-38.4774,-25.4427,-99.1846,-14.5789,-133.149,-105.896,-241.577,7.93457,0.160034,-0.369934,0.658691,-0.635254,13006,13848,-11538,-3374,-29341
818541,26.4523,-44.9948,19.9015,-99.0637,-13.8043,-131.462,92.041,-345.459,59.6313,0.166901,-0.375732,0.660309,-0.628357,-13618,-27112,-18450,-3374,-29341
818547,37.1902,-26.6485,24.5335,-97.7124,-12.9309,-131.358,259.155,-43.8232,131.165,0.181396,-0.3815,0.656433,-0.624908,5839,-16360,-22546,-3374,-29341
818553,8.3501,16.2695,11.6854,-95.9821,-12.2607,-132.638,273.987,232.91,123.901,0.191925,-0.375671,0.651337,-0.630615,25551,-6376,-27666,-3374,-29341
818559,-21.7772,18.1405,7.28301,-95.5371,-11.5082,-132.869,63.0493,28.5645,114.99,0.194519,-0.362152,0.647858,-0.641205,-18993,2841,31470,-3374,-29341
818565,-1.99063,-18.3846,1.16758,-96.0315,-10.2008,-132.693,-34.6069,10.9253,88.2568,0.203766,-0.355194,0.651794,-0.638275,25552,19737,15854,-3374,-29341
818571,-10.4938,-5.49814,-6.32598,-95.5042,-9.65149,-132.808,85.8154,12.8174,73.5474,0.206726,-0.351471,0.654327,-0.63678,-17200,27417,7918,-3374,-29341
818577,-3.8377,-0.588574,6.11543,-95.257,-9.09119,-132.671,38.147,-35.6445,70.7397,0.21106,-0.347046,0.65329,-0.638824,5329,-30439,1774,-3349,-29344
818583,1.13887,-3.92383,5.22539,-95.213,-8.61877,-132.66,-6.10352,-9.0332,56.7017,0.215942,-0.344482,0.653107,-0.638763,27857,-23271,-3091,-3349,-29344
818589,-5.26846,-12.183,-0.550293,-95.213,-8.23425,-132.891,-22.3389,40.5884,43.6401,0.219025,-0.34201,0.654144,-0.638,-15151,-16871,-6419,-3349,-29344
818595,-4.95264,-13.0587,-0.30625,-94.8615,-7.43225,-132.786,38.5132,-30.5176,45.4102,0.222504,-0.336334,0.656433,-0.637451,5842,-10727,-8467,-3349,-29344
818601,-1.57432,-11.7811,6.11543,-94.6912,-7.04773,-132.797,20.5078,0,41.4429,0.226532,-0.334442,0.655853,-0.637634,-18478,-487,-10771,-3349,-29344
818607,-6.41689,-15.6714,1.2585,-94.6033,-6.73462,-132.995,0.0610352,38.0859,31.1279,0.229248,-0.332031,0.655975,-0.637787,467,3866,-10771,-3349,-29344
818613,-8.58936,-21.3131,-9.58467,-94.4934,-6.39404,-133.039,10.0098,9.82666,34.8511,0.230316,-0.329102,0.656891,-0.63797,19155,8474,-10259,-3349,-29344
818619,-7.98643,-28.2659,-7.09639,-94.2682,-5.96558,-132.924,38.4521,-22.8271,51.6357,0.232422,-0.326813,0.657349,-0.637939,-27949,12570,-8979,-3349,-29344
818625,-6.05801,-14.5373,6.125,-93.0157,-4.96033,-132.534,131.042,-28.5034,65.6128,0.242249,-0.322174,0.654419,-0.639648,6100,21018,-8979,-3349,-29344
818631,-8.37402,-16.7433,9.59902,-92.4939,-4.47144,-132.292,100.83,-45.3491,65.6738,0.247925,-0.31897,0.651489,-0.642059,22484,25114,-10515,-3349,-29344
818637,-3.14863,-31.9888,20.49,-91.9666,-3.93311,-131.94,101.746,-66.1621,76.4771,0.253632,-0.316559,0.6492,-0.643341,-27692,28954,-12563,-3349,-29344
818643,6.0915,-18.7291,13.6951,-91.5546,-3.12012,-132.006,72.998,17.1509,135.864,0.260193,-0.314453,0.646698,-0.644257,-11564,-32486,-15635,-3349,-29344
818649,0.75127,-18.7913,9.29277,-91.9116,-2.13135,-132.495,-85.5713,100.037,175.415,0.265625,-0.308655,0.646698,-0.644836,6101,-29414,-17683,-3349,-29344
818655,-1.32549,-32.0414,-1.21064,-92.2247,0.170288,-132.946,-22.644,35.6445,221.069,0.27182,-0.294189,0.65741,-0.638153,-18475,-24550,-20243,-3349,-29344
818661,-0.684277,-28.2563,-0.985742,-92.1533,1.53259,-133.077,7.8125,31.8604,253.235,0.277679,-0.286682,0.661194,-0.635162,4822,-22246,-21267,-3349,-29344
818667,-1.79443,-26.0121,5.89053,-92.1259,3.0542,-133.286,2.31934,45.8984,287.842,0.284943,-0.278198,0.664368,-0.632385,30678,-19686,-21779,-3349,-29344
818673,-2.26816,-26.3471,6.93848,-92.2632,4.72412,-133.522,-30.6396,51.3306,319.153,0.292603,-0.268372,0.668152,-0.62912,-9002,-17382,-23059,-3349,-29344
818679,-1.65088,-30.2278,6.41689,-92.6587,6.59729,-133.786,-79.5898,53.1006,362.732,0.300476,-0.257935,0.673126,-0.624451,18903,-15334,-23315,-3349,-29344
818685,3.24912,-42.9276,1.99541,-93.2684,10.7556,-134.16,-43.8843,15.9912,427.063,0.31781,-0.235077,0.68634,-0.610382,18136,-11494,-21779,-3349,-29344
818691,8.1252,-42.8894,2.8376,-93.2355,13.0573,-134.33,8.17871,24.7803,455.2,0.328979,-0.222565,0.691681,-0.603058,-10536,-10470,-19987,-3349,-29344
818697,9.47461,-38.1377,0.60293,-93.0048,15.5017,-134.583,54.4434,38.6353,488.647,0.340942,-0.208221,0.69577,-0.596802,29657,-10726,-18963,-3374,-29341
818703,4.24922,-33.6588,-1.19629,-92.6697,18.0341,-134.929,83.6182,58.0444,508.972,0.353516,-0.191803,0.698883,-0.591339,3802,-10982,-18963,-3374,-29341
818709,0.387598,-32.3237,-3.34482,-92.2632,20.6488,-135.115,90.5762,28.5034,526.428,0.366028,-0.173828,0.701324,-0.586365,-18470,-13542,-21011,-3374,-29341
818715,6.67529,-30.3331,0.100488,-91.0712,26.0706,-135.313,137.817,29.8462,552.368,0.394318,-0.137695,0.703308,-0.575134,11484,-24038,-31763,-3374,-29341
818721,4.45498,-28.5339,-1.16279,-90.3845,28.8171,-135.45,149.963,32.3486,559.998,0.408295,-0.118195,0.703156,-0.569916,-1828,-32742,24301,-3374,-29341
818727,5.53643,-23.3372,-1.804,-89.6539,31.6187,-135.522,154.297,26.7944,572.266,0.422089,-0.0981445,0.702332,-0.564636,-12579,22554,11245,-3374,-29341
818733,-2.49785,-17.7673,-1.74658,-89.1815,34.2993,-135.829,128.357,71.5332,549.438,0.436035,-0.0778198,0.700928,-0.558929,-21538,9498,-3860,-3374,-29341
818739,-6.69922,-23.3276,-4.31143,-88.6487,36.8811,-135.725,96.4355,5.31006,531.433,0.447632,-0.0575867,0.700562,-0.552643,-32289,-4071,-19220,-3374,-29341
818745,1.68438,-15.8628,-1.82793,-87.0886,41.6766,-135.297,135.864,19.6533,484.558,0.473511,-0.023407,0.696136,-0.539001,15841,24089,12268,-3374,-29341
818751,-2.19639,-13.7908,-1.16758,-86.3031,43.8739,-134.989,117.432,-9.52148,461.304,0.484253,-0.00631714,0.693512,-0.533295,7906,1561,-7189,-3374,-29341
818757,4.21572,-10.7379,-0.545508,-85.3967,45.9174,-134.462,110.962,-34.729,434.692,0.495056,0.00894165,0.690399,-0.527313,-286,-23272,-28181,-3374,-29341
818763,4.23008,-9.73301,-0.210547,-84.6332,47.7905,-134.171,113.953,2.44141,399.231,0.505798,0.0226746,0.686676,-0.521545,-8733,14872,17387,-3374,-29341
818769,0.267969,-11.293,-3.33047,-83.8257,49.5538,-133.863,119.446,3.35693,379.028,0.514374,0.0362244,0.683563,-0.516479,-20508,-12009,-1302,-3374,-29341
818775,-4.17744,-8.95303,-4.1583,-81.7822,52.8497,-133.187,175.964,9.21631,347.473,0.529724,0.0623779,0.6763,-0.507935,18918,-6890,26346,-3374,-29341
818781,-10.135,4.86172,-0.684277,-80.6891,54.2285,-132.918,180.847,16.7236,303.955,0.536224,0.0758362,0.6716,-0.505493,3559,26134,5610,-3374,-29341
818787,-10.312,-0.741699,-1.804,-79.7003,55.1788,-132.528,140.076,-6.65283,220.276,0.541412,0.0883179,0.666992,-0.504059,-14105,-7403,-17687,-3374,-29341
818793,-3.08164,-5.31631,-3.74678,-78.8489,55.8105,-132.264,132.69,-0.793457,156.189,0.545502,0.0968628,0.662964,-0.503387,30952,24085,23529,-3374,-29341
818799,-4.89522,-5.40723,-4.78516,-78.2336,56.217,-132.198,118.896,12.6343,107.178,0.548981,0.108734,0.65683,-0.505188,8169,-10476,-792,-3374,-29341
818805,-3.00029,-11.1016,-5.0292,-77.113,56.5247,-131.957,91.6138,-3.96729,47.9126,0.549683,0.112213,0.654266,-0.507019,17898,-9709,20200,-3374,-29341
818811,-4.28271,-14.6809,-4.6751,-76.7505,56.5796,-131.951,78.3081,3.11279,37.0483,0.549927,0.114746,0.65213,-0.508942,-14358,25363,-281,-3382,-29340
818817,-5.9001,-17.4036,-4.34971,-76.4264,56.6345,-131.88,60.4248,-4.08936,37.7197,0.549774,0.116821,0.650543,-0.510681,15595,-3054,-20761,-3382,-29340
818823,-6.01016,-19.5378,-3.7085,-76.1407,56.7224,-131.732,39.917,-11.9629,46.6919,0.549896,0.118317,0.64917,-0.511932,-23573,-28910,24295,-3382,-29340
818829,-5.84268,-21.3849,-3.12471,-75.932,56.8817,-131.567,21.3013,-10.5591,61.1572,0.551514,0.120544,0.647308,-0.512024,-277,12562,3303,-3382,-29340
818835,-4.72295,-24.902,-2.3543,-75.5914,57.5024,-130.974,-20.0806,-20.3247,107.788,0.553131,0.121704,0.646851,-0.51059,-26644,-30191,31974,-3382,-29340
818841,-3.84727,-27.0409,-2.0959,-75.4156,58.0078,-130.523,-34.5459,-23.9258,136.292,0.555634,0.122925,0.646545,-0.507965,-10260,15377,16358,-3382,-29340
818847,-3.9334,-28.2707,-2.11982,-75.1685,58.645,-129.963,-39.4287,-27.2217,165.222,0.558868,0.124542,0.646332,-0.504272,4333,-3056,1254,-3382,-29340
818853,-3.89512,-29.0507,-1.85186,-74.8004,59.3976,-129.254,-42.2974,-34.3018,192.81,0.562836,0.12677,0.645966,-0.499756,18157,-20208,-12571,-3382,-29340
818859,-4.0291,-29.6058,-1.53604,-74.2676,60.2435,-128.37,-41.0767,-44.3726,215.149,0.572968,0.132751,0.644257,-0.4888,30957,28688,-25627,-3382,-29340
818865,-2.8998,-29.0603,-0.732129,-72.5537,62.1002,-126.013,-25.1465,-65.4297,246.948,0.578979,0.136414,0.642609,-0.482819,-11027,-4081,14565,-3382,-29340
818871,-2.16289,-27.0601,0.119629,-71.3672,63.045,-124.541,-18.8599,-75.2563,252.014,0.585388,0.140442,0.640381,-0.476837,1006,-21745,1509,-3382,-29340
818877,-2.03848,-24.8493,0.875684,-69.9939,63.9294,-122.893,-16.7847,-85.8765,247.314,0.592072,0.144562,0.637695,-0.470947,13294,24591,-10524,-3382,-29340
818883,-1.22021,-22.5812,1.871,-68.4778,64.704,-121.108,-13.9771,-95.2759,233.093,0.598846,0.148346,0.634644,-0.465271,24814,4111,-22812,-3382,-29340
818889,0.947461,-19.0976,3.34482,-66.8958,65.3412,-119.284,-11.3525,-100.708,209.167,0.611694,0.154144,0.62796,-0.455658,-29970,-17138,30692,-3382,-29340
818895,2.62227,-18.0161,4.37363,-63.7811,66.0773,-115.812,1.40381,-105.713,143.616,0.61731,0.155884,0.624512,-0.452209,-9234,5646,7140,-3382,-29340
818901,4.64639,-18.0065,4.97178,-62.4353,66.1816,-114.379,9.82666,-100.83,106.384,0.622162,0.15686,0.621124,-0.449921,239,-16371,-4637,-3382,-29340
818907,6.62744,-19.2315,5.73262,-61.3202,66.1432,-113.258,19.8364,-90.9424,72.3267,0.626038,0.157135,0.61795,-0.448822,9455,28173,-17949,-3382,-29340
818913,7.91943,-20.3034,5.9958,-60.4083,65.9894,-112.445,35.7666,-80.2002,41.4429,0.628876,0.156952,0.615051,-0.448883,17647,8461,-32285,-3382,-29340
818919,11.2451,-19.935,5.68955,-59.6942,65.7367,-111.962,56.2744,-66.8945,13.916,0.631409,0.156281,0.609802,-0.452698,24559,-9972,18403,-3382,-29340
818925,12.3266,-19.3272,4.68467,-58.9032,65.061,-112.066,101.379,-29.2358,-32.1045,0.630981,0.156311,0.607513,-0.45636,-30225,22284,-11038,-3382,-29340
818931,13.231,-17.552,2.87588,-58.7549,64.6545,-112.593,126.343,-11.8408,-52.8564,0.629425,0.156738,0.605408,-0.461121,-26129,7180,-23838,-3366,-29342
818937,13.8243,-13.8817,1.34463,-58.7769,64.1986,-113.423,146.179,5.98145,-73.6694,0.626801,0.157623,0.603394,-0.46698,-22545,-6645,28898,-3366,-29342
818943,14.2071,-9.10137,0.0143555,-58.9746,63.6932,-114.516,159.18,21.9116,-94.7266,0.623077,0.158844,0.601593,-0.473816,-19473,-19701,16098,-3366,-29342
818949,14.0923,0.344531,-3.79463,-59.4031,63.1274,-115.856,145.325,51.9409,-145.386,0.612732,0.161102,0.599152,-0.48938,-16913,-31989,2274,-3366,-29342
818955,12.3122,4.23486,-6.24463,-61.1444,61.6937,-119.328,128.601,67.5049,-176.819,0.606079,0.161255,0.59903,-0.497681,-12561,13579,-25631,-3366,-29342
818961,9.87178,7.10117,-8.59893,-62.4188,60.7654,-121.328,99.6094,72.1436,-210.938,0.598389,0.160492,0.599854,-0.506226,-10769,5643,26593,-3366,-29342
818967,7.33086,8.39316,-11.0011,-63.869,59.6503,-123.338,64.0259,66.8945,-245.728,0.589905,0.158112,0.601593,-0.51474,-10001,-246,13281,-3366,-29342
818973,5.53643,8.47451,-11.9007,-65.4071,58.3319,-125.244,25.8179,53.833,-278.87,0.580933,0.153748,0.604218,-0.523163,-9745,-3830,737,-3366,-29342
818979,3.23955,5.12969,-13.9392,-68.6261,55.1678,-128.535,-57.5562,21.4844,-330.566,0.562317,0.138428,0.611511,-0.539032,-10769,-3318,-18976,-3366,-29342
818985,1.28242,2.76104,-14.9823,-70.1587,53.3386,-129.798,-90.5151,-4.3335,-353.943,0.552948,0.127625,0.616119,-0.546112,-12561,1803,-25120,-3366,-29342
818991,0.545508,0.679492,-15.1977,-71.5594,51.3446,-130.732,-118.042,-37.4756,-374.939,0.543793,0.114746,0.62088,-0.552765,-14609,8971,-29728,-3366,-29342
818997,-0.0813477,-1.24893,-14.9919,-72.8339,49.1968,-131.391,-137.756,-66.1011,-396.423,0.534973,0.099823,0.625458,-0.559021,-18961,20747,31968,-3366,-29342
819003,-0.373242,-3.5458,-14.0301,-73.9819,46.9281,-131.781,-154.114,-95.5811,-414.307,0.526337,0.0831299,0.629791,-0.565094,-25105,-28917,29920,-3366,-29342
819009,1.8375,-6.93369,-10.044,-75.9705,42.0831,-131.935,-174.438,-141.174,-443.665,0.509644,0.0452271,0.636963,-0.576508,19695,14348,28640,-3366,-29342
819015,3.97168,-8.19219,-7.77109,-76.9208,39.5837,-131.83,-184.937,-149.78,-452.393,0.501373,0.0245361,0.639862,-0.581818,4591,-23284,29152,-3366,-29342
819021,5.56992,-9.63731,-5.546,-77.8986,37.0514,-131.677,-194.641,-150.696,-458.923,0.492889,0.00320435,0.642487,-0.586639,-14610,8717,29920,-3366,-29342
819027,6.52695,-10.9054,-3.8377,-78.9313,34.53,-131.534,-203.918,-141.113,-461.426,0.484039,-0.0184631,0.644958,-0.590973,30958,-24563,31968,-3366,-29342
819033,7.39785,-12.3074,-1.75137,-80.0134,32.0142,-131.413,-210.876,-129.578,-463.379,0.474579,-0.0401611,0.647522,-0.594788,7406,10766,-29984,-3366,-29342
819039,8.6707,-14.0636,1.26807,-82.3755,27.0374,-131.424,-221.191,-79.9561,-467.59,0.4534,-0.0826111,0.652924,-0.600983,-19475,-16114,-25888,-3366,-29342
819045,9.00566,-14.5134,2.11982,-83.6444,24.5435,-131.545,-227.844,-55.8472,-472.229,0.441254,-0.102997,0.655945,-0.603577,-17684,-497,-12320,-3349,-29344
819051,9.56074,-16.059,2.37344,-84.9573,22.0441,-131.765,-231.262,-26.9165,-477.295,0.42804,-0.122864,0.65918,-0.605835,11500,-23024,-3616,-3349,-29344
819057,9.3167,-17.4084,2.15332,-86.2811,19.5447,-132.083,-229.675,3.72314,-480.713,0.413635,-0.14209,0.662598,-0.607941,-24341,17425,6369,-3349,-29344
819063,8.11084,-18.1692,1.63652,-87.5885,17.0343,-132.457,-227.051,27.832,-483.276,0.398041,-0.160431,0.666077,-0.609985,1515,-6639,18657,-3349,-29344
819069,5.27324,-19.5952,0.540723,-90.1483,11.9916,-133.275,-225.83,59.8755,-485.901,0.364197,-0.195007,0.672699,-0.61377,-19223,12051,-12575,-3349,-29344
819075,3.72285,-18.7339,0.531152,-91.3953,9.46472,-133.682,-226.196,72.3267,-487.183,0.346375,-0.211487,0.675659,-0.615356,-792,-10733,9186,-3349,-29344
819081,1.23936,-18.1262,0.411523,-92.6257,6.92139,-134.039,-229.126,76.2329,-490.845,0.328033,-0.227478,0.678406,-0.616699,15592,31252,-31006,-3349,-29344
819087,-1.19629,-17.796,0.842188,-93.8452,4.36157,-134.33,-233.643,74.646,-494.69,0.309326,-0.243347,0.680786,-0.617676,29415,6421,-3358,-3349,-29344
819093,-4.79951,-18.6573,1.54082,-95.0647,1.80725,-134.533,-237.915,70.1294,-496.399,0.290466,-0.259247,0.6828,-0.618134,-21786,-20459,22755,-3349,-29344
819099,-13.3171,-21.2987,3.63193,-97.4432,-3.20801,-134.561,-234.131,41.3208,-491.15,0.253021,-0.291107,0.685425,-0.617493,-1564,-14058,16356,-3349,-29344
819105,-16.2695,-23.1841,5.35938,-98.5693,-5.60852,-134.346,-223.206,22.3999,-481.506,0.23526,-0.307159,0.68576,-0.616364,3812,19991,-17180,-3349,-29344
819111,-18.6956,-24.5,7.32607,-99.6185,-7.89917,-134.011,-205.933,5.61523,-466.309,0.218506,-0.32309,0.685333,-0.614868,7395,-14057,16101,-3349,-29344
819117,-20.4709,-23.9162,9.64688,-100.58,-10.0525,-133.561,-183.838,-10.1929,-446.35,0.202972,-0.338623,0.684143,-0.613159,8418,14616,-15387,-3349,-29344
819123,-21.4854,-21.4327,12.3457,-101.464,-12.0905,-133.05,-164.551,-18.1274,-429.565,0.175873,-0.367828,0.679596,-0.609772,11745,-24808,17382,-3349,-29344
819129,-24.0358,-16.6188,16.1451,-103.09,-15.9796,-132.056,-144.897,-4.57764,-413.574,0.1633,-0.381287,0.676666,-0.608246,13023,16409,17895,-3349,-29344
819135,-25.7585,-15.9537,17.15,-103.848,-17.9187,-131.649,-141.479,15.0757,-414.856,0.150696,-0.394043,0.673462,-0.606934,11230,31257,-13593,-3349,-29344
819141,-28.51,-16.3748,17.5041,-104.568,-19.8798,-131.347,-139.404,41.5039,-418.03,0.137604,-0.406036,0.670044,-0.605896,7901,-22503,19688,-3349,-29344
819147,-32.4912,-17.9826,16.7768,-105.244,-21.8628,-131.166,-137.634,67.5659,-418.457,0.123718,-0.417145,0.666504,-0.605255,4060,-13799,-11800,-3349,-29344
819153,-37.2333,-20.4518,15.6235,-105.842,-23.8239,-131.089,-130.615,89.7217,-412.17,0.0942688,-0.436432,0.659027,-0.605164,-806,-9191,20201,-3349,-29344
819159,-47.1194,-22.629,13.2645,-106.694,-27.5208,-131.265,-103.76,122.62,-371.643,0.0795288,-0.444305,0.655121,-0.605774,-3368,-7399,13802,-3349,-29344
819165,-51.4931,-21.672,12.4414,-106.941,-29.1357,-131.523,-91.2476,131.653,-334.167,0.0653381,-0.450806,0.651215,-0.606873,-4905,-11495,-26134,-3358,-29343
819171,-55.0389,-19.7148,11.5992,-107.067,-30.5145,-131.88,-80.2612,134.888,-286.072,0.0521851,-0.45578,0.647644,-0.608246,-7210,-18663,-1558,-3358,-29343
819177,-57.4937,-16.5566,10.4604,-107.095,-31.6241,-132.341,-71.167,133.911,-231.689,0.0404358,-0.459076,0.644684,-0.609802,-7723,-27879,20715,-3358,-29343
819183,-58.7282,-11.5083,10.2307,-107.034,-32.4536,-132.896,-64.5752,130.066,-174.561,0.0221252,-0.460754,0.641296,-0.613068,-6700,26393,-25621,-3358,-29343
819189,-63.3363,-15.3986,-1.26328,-107.078,-33.2172,-134.198,-115.784,114.38,-57.8003,0.0154419,-0.45929,0.641357,-0.614288,8403,2329,8684,-3358,-29343
819195,-69.9494,-43.9612,22.4472,-107.067,-32.8546,-134.896,-90.9424,81.1768,57.251,0.00976562,-0.45636,0.643829,-0.614014,21202,-11240,22764,-3358,-29343
819201,-62.5372,-24.4139,12.8003,-106.551,-31.9647,-135.461,24.9023,31.6772,150.391,0.00857544,-0.45105,0.647888,-0.613678,-27183,-24040,-30740,-3358,-29343
819207,-61.9199,-15.7145,6.32598,-105.864,-30.7892,-136.049,58.2886,22.583,206.726,0.0135498,-0.444336,0.650635,-0.61557,-5168,30232,-18964,-3358,-29343
819213,-90.4921,-64.1115,56.7759,-105.183,-28.526,-136.494,73.9136,-55.1147,411.316,0.0364075,-0.424286,0.659515,-0.619324,22480,21784,-8468,-3358,-29343
819219,-103.091,-13.6568,24.2895,-102.415,-23.0109,-135.967,225.342,-256.714,538.574,0.0584412,-0.412872,0.658173,-0.62677,-32049,12824,6637,-3358,-29343
819225,-63.1258,-3.14863,18.9492,-101.558,-19.7369,-135.56,183.899,-213.196,579.468,0.085968,-0.402161,0.661163,-0.62738,17359,12568,12525,-3358,-29343
819231,-26.371,-10.8288,26.0935,-100.091,-17.0343,-135.352,290.344,-143.494,479.736,0.112579,-0.388916,0.665588,-0.626862,10959,16152,16109,-3358,-29343
819237,-23.8827,11.0681,40.4346,-97.6355,-16.507,-136.439,410.278,184.326,92.4683,0.136139,-0.375916,0.665161,-0.630554,13007,23064,17901,-3358,-29343
819243,-54.0627,30.8116,-35.4341,-96.1469,-16.8036,-137.944,194.58,285.278,-69.458,0.141357,-0.364105,0.656555,-0.645172,21455,31768,16109,-3358,-29343
819249,33.1803,-58.6564,20.6384,-97.641,-15.9082,-135.319,45.0439,-322.815,50.4761,0.138702,-0.361572,0.656982,-0.646759,-18993,-17384,8429,-3358,-29343
819255,40.3341,-31.2088,34.5775,-95.8777,-14.9689,-135.368,336.975,-14.7705,147.339,0.151459,-0.367584,0.654816,-0.6427,-5681,-10472,2541,-3358,-29343
819261,11.0011,22.1505,8.16348,-93.7518,-14.3042,-136.664,344.482,235.901,112.976,0.16272,-0.360199,0.647797,-0.651154,8144,-4072,-4116,-3358,-29343
819267,-21.3466,27.0457,12.0347,-93.2629,-13.5132,-137.054,63.9648,60.73,121.582,0.165924,-0.346466,0.641571,-0.663849,22736,1305,-12308,-3358,-29343
819273,-7.45527,-5.20625,6.79014,-93.8507,-12.865,-137.005,-131.226,-22.1558,88.0737,0.172485,-0.337158,0.647308,-0.661377,-26672,6681,-22036,-3358,-29343
819279,-7.35,-9.45068,-9.50811,-93.4827,-11.7444,-137.225,97.3511,16.3574,56.8237,0.175323,-0.333588,0.650635,-0.65921,6609,17689,26604,-3358,-29343
819285,-1.47861,-0.334961,0.430664,-93.1805,-11.2115,-137.071,52.9785,-39.0015,65.0635,0.179169,-0.329437,0.648956,-0.661865,24017,23321,20204,-3358,-29343
819291,5.74219,-2.67969,8.50801,-93.0267,-10.6897,-137,20.1416,-21.5454,64.5752,0.184174,-0.327026,0.648254,-0.662415,-23855,28953,15596,-3358,-29343
819297,-4.05303,-8.49365,4.90479,-92.9333,-10.2832,-137.411,-10.9253,73.8525,47.3633,0.188202,-0.324371,0.64859,-0.662262,-6191,-31975,11244,-3358,-29343
819303,-16.6141,-17.1261,-0.287109,-92.8949,-9.86572,-137.593,-11.8408,30.5176,47.5464,0.190125,-0.316345,0.651733,-0.662506,10962,-27623,7404,-3358,-29343
819309,-4.08174,-13.6521,-0.0574219,-92.5433,-8.98682,-137.411,24.4751,-8.48389,47.8516,0.194275,-0.314514,0.651489,-0.662415,-20782,-20199,3820,-3358,-29343
819315,-5.87617,-20.6384,-2.6749,-92.4664,-8.55286,-137.472,2.86865,8.66699,51.2085,0.197449,-0.312042,0.65152,-0.662598,-4398,-16615,3052,-3358,-29343
819321,-7.38828,-24.6148,-10.5513,-92.2357,-8.06946,-137.357,40.6494,-23.7427,60.2417,0.199951,-0.309235,0.652405,-0.662323,11987,-13031,4332,-3358,-29343
819327,-7.67539,-23.2319,-2.0624,-91.7249,-7.57507,-137.153,101.257,-40.2832,62.8052,0.204102,-0.306854,0.652039,-0.662506,29651,-9703,5612,-3358,-29343
819333,-6.06279,-13.2979,2.85674,-91.0712,-7.05322,-136.862,131.348,-57.0679,70.0073,0.216125,-0.30191,0.646576,-0.66629,-18477,-6887,6124,-3358,-29343
819339,-4.00039,-18.7435,12.3122,-90.1373,-5.96558,-136.329,84.8999,-51.6357,80.0781,0.222076,-0.2995,0.644348,-0.667603,15828,-743,3308,-3358,-29343
819345,2.69883,-20.9398,17.93,-89.9286,-5.23499,-136.362,32.1655,9.33838,116.394,0.228058,-0.297058,0.642578,-0.668365,32468,1818,1516,-3358,-29343
819351,0.401953,-21.0786,8.13477,-90.1154,-4.37256,-136.758,-53.6499,82.9468,144.47,0.232697,-0.292358,0.643311,-0.668121,-16172,4890,-789,-3358,-29343
819357,-6.76143,-26.5002,0.823047,-90.2637,-3.38928,-137.076,-41.5649,67.1997,170.044,0.234924,-0.285645,0.647614,-0.666107,1749,7194,-1813,-3358,-29343
819363,-5.43594,-31.1562,1.53125,-90.3131,-2.31812,-137.17,-18.3105,23.1323,189.148,0.244019,-0.272064,0.654724,-0.66156,21205,9242,-1813,-3358,-29343
819369,3.35918,-24.122,7.25908,-90.1538,0.214233,-137.313,7.93457,45.4712,241.577,0.251343,-0.264954,0.656982,-0.659454,-555,14106,-277,-3358,-29343
819375,-1.65088,-20.9781,2.75625,-90.2307,1.71387,-137.554,-18.3716,64.3921,279.053,0.25824,-0.256409,0.659973,-0.657196,24278,16922,236,-3358,-29343
819381,-6.08672,-23.0884,-0.851758,-90.4614,3.30688,-137.78,-47.9126,60.5469,300.354,0.265289,-0.246582,0.664185,-0.65387,-16170,19482,492,-3358,-29343
819387,-3.48838,-27.0361,1.61738,-90.7965,5.09766,-137.856,-69.519,28.8696,341.492,0.272614,-0.236603,0.669342,-0.649292,10967,21786,1260,-3358,-29343
819393,0.0717773,-34.4483,6.73272,-91.1261,6.95435,-138.016,-66.04,42.9077,357.483,0.290741,-0.215637,0.680603,-0.636871,-25385,23066,2796,-3358,-29343
819399,5.17275,-43.3535,5.83789,-91.5601,11.1676,-138.334,-34.79,43.457,430.786,0.301025,-0.203644,0.685791,-0.630493,-24360,24090,8684,-3366,-29342
819405,6.53174,-42.3917,0.746484,-91.5216,13.5406,-138.494,11.3525,36.6211,470.093,0.312012,-0.190186,0.690735,-0.623901,13529,23834,11500,-3366,-29342
819411,7.23994,-35.5011,0.119629,-91.2744,16.0181,-138.702,57.312,45.7764,493.835,0.324432,-0.17511,0.694397,-0.617859,-15143,23322,13548,-3366,-29342
819417,3.36875,-30.6585,0.0526367,-90.9833,18.5504,-138.972,72.4487,59.3262,506.592,0.337341,-0.158417,0.696808,-0.612732,25818,21530,14060,-3366,-29342
819423,6.85713,-30.2039,2.29688,-90.6537,21.1926,-139.087,72.2656,30.8228,531.433,0.364044,-0.123108,0.700073,-0.601746,3803,17178,13548,-3366,-29342
819429,4.71816,-30.692,1.81357,-89.967,26.7023,-139.422,84.8999,53.6499,561.462,0.378174,-0.104584,0.70105,-0.595398,-30500,2842,4588,-3366,-29342
819435,6.44082,-27.194,-1.20586,-89.5386,29.5367,-139.51,93.9331,33.5693,575.806,0.391724,-0.0852356,0.701752,-0.588837,21725,-6887,-1301,-3366,-29342
819441,5.33545,-19.0449,2.45479,-89.22,32.3712,-139.785,92.4072,69.7632,579.285,0.405945,-0.0658264,0.701508,-0.581909,11486,-19175,-9493,-3366,-29342
819447,-6.95762,-22.2414,-0.459375,-89.198,35.0848,-140.087,39.978,73.7915,554.626,0.418854,-0.0454712,0.701538,-0.574646,-290,-31975,-17173,-3366,-29342
819453,6.52217,-22.8252,2.29209,-88.786,37.7216,-139.872,58.2886,-10.5591,543.945,0.444397,-0.0101013,0.70105,-0.557495,-9505,17433,-26389,-3366,-29342
819459,1.09102,-20.6814,1.99063,-87.8577,42.6489,-139.856,92.8955,30.8838,501.648,0.456238,0.0072937,0.699036,-0.550476,-21791,-24808,17131,-3366,-29342
819465,3.04814,-20.1886,0.6125,-87.2205,44.9725,-139.581,91.9189,-6.34766,487.427,0.467163,0.0242004,0.696899,-0.543518,-27934,15384,5867,-3366,-29342
819471,7.57969,-16.8007,0.62207,-86.4789,47.1698,-139.29,108.826,-4.08936,463.196,0.478638,0.0397339,0.693726,-0.536621,31459,-12009,-6166,-3366,-29342
819477,5.42637,-10.7618,1.3542,-85.7483,49.1693,-139.164,130.981,22.644,424.866,0.489166,0.0548706,0.690002,-0.530548,22244,26647,-18198,-3366,-29342
819483,6.65137,-5.71826,-0.210547,-84.8804,51.037,-138.856,129.639,2.50244,401.367,0.506165,0.0836792,0.681824,-0.521332,11749,-2794,-32278,-3366,-29342
819489,-2.40215,-3.20127,-4.6751,-83.4192,54.5197,-138.796,152.893,53.894,363.037,0.513184,0.0977478,0.677826,-0.517242,-12058,-2283,2282,-3366,-29342
819495,-13.0108,10.6757,-2.45957,-82.5513,55.9314,-138.664,155.396,28.7476,310.303,0.518738,0.111938,0.67392,-0.513916,-26137,28437,-15127,-3366,-29342
819501,-9.82871,3.27305,-1.804,-81.6504,56.8597,-138.197,107.178,-16.7236,219.177,0.523712,0.124084,0.669525,-0.51181,23272,-7916,-31255,-3374,-29341
819507,-3.29697,-2.58398,-3.23477,-80.9198,57.4695,-137.884,98.3276,-7.01904,153.87,0.528137,0.131439,0.665588,-0.510559,4329,21268,17129,-3374,-29341
819513,-7.05332,-5.15361,-5.46465,-80.4199,57.7991,-137.736,80.3223,2.50244,95.2148,0.532013,0.140503,0.660217,-0.511078,-17943,-13037,1001,-3374,-29341
819519,-5.31152,-9.47461,-5.39766,-79.3213,57.7661,-137.043,52.063,-36.438,13.6108,0.533051,0.141663,0.658081,-0.512421,-6166,-14318,-32536,-3374,-29341
819525,-6.2207,-13.2884,-4.98135,-78.8489,57.5629,-136.719,46.3867,-37.5977,-6.95801,0.533661,0.141418,0.656158,-0.514313,27371,20754,15848,-3374,-29341
819531,-7.08203,-16.3317,-4.49326,-78.371,57.3212,-136.324,35.7666,-48.2178,-13.0615,0.533844,0.140442,0.65451,-0.51651,-8469,-6895,-1305,-3374,-29341
819537,-7.46484,-18.4755,-3.76113,-77.8821,57.085,-135.851,24.4141,-57.373,-9.94873,0.534241,0.138855,0.652893,-0.518585,17644,-31727,-17177,-3374,-29341
819543,-7.09639,-22.7917,-1.63174,-77.4371,56.8927,-135.341,-6.89697,-67.627,19.3481,0.536224,0.134796,0.649933,-0.521301,-24340,11281,-31513,-3374,-29341
819549,-5.39287,-25.9403,-0.937891,-76.6406,56.8268,-134.072,-32.0435,-68.7866,50.2319,0.538116,0.132751,0.648651,-0.521484,14061,-28144,5863,-3374,-29341
819555,-3.46445,-29.8785,-1.37334,-76.2726,57.041,-133.286,-51.8188,-73.4253,87.3413,0.540863,0.130981,0.647766,-0.520203,29165,19984,-8474,-3374,-29341
819561,-1.16758,-33.0798,-2.24424,-75.8167,57.4255,-132.358,-59.9365,-80.1392,126.221,0.544647,0.129669,0.647003,-0.517548,-22547,3856,-24090,-3374,-29341
819567,1.71309,-34.7211,-2.63662,-75.1904,57.9803,-131.27,-52.6123,-86.731,164.124,0.549469,0.12912,0.646027,-0.513763,-10515,-10993,26086,-3374,-29341
819573,5.14404,-31.8021,-1.8375,-74.3719,58.6725,-130.078,-16.7847,-87.0972,218.872,0.561523,0.1315,0.642365,-0.504608,750,-24561,10726,-3374,-29341
819579,5.97188,-27.8831,-0.856543,-72.2131,60.282,-127.37,-6.89697,-91.2476,230.774,0.568115,0.134399,0.639709,-0.499847,21998,15375,-21787,-3374,-29341
819585,6.84756,-24.6627,0.224902,-70.9607,61.0785,-125.898,-2.68555,-91.6138,229.858,0.574921,0.137756,0.636597,-0.495087,31470,1039,27109,-3374,-29341
819591,6.67051,-21.2413,0.492871,-69.6698,61.7981,-124.42,2.92969,-90.21,216.797,0.581604,0.141174,0.633362,-0.490448,-24082,-14834,10469,-3374,-29341
819597,6.11543,-18.0065,1.07187,-68.3899,62.3694,-122.97,4.08936,-91.9189,190.125,0.58783,0.144348,0.630096,-0.486267,-14354,-31986,-5148,-3374,-29341
819603,6.3499,-13.4367,3.44053,-66.1652,62.9077,-120.46,1.34277,-91.0645,108.765,0.598297,0.148163,0.623901,-0.480347,-5138,15374,-20508,-3374,-29341
819609,7.14424,-14.4799,4.53154,-65.4071,62.8693,-119.564,-4.57764,-84.7168,63.2935,0.602112,0.148315,0.621277,-0.478943,11759,-19187,16612,-3374,-29341
819615,7.92422,-17.3127,5.16318,-64.9182,62.6385,-118.971,-5.00488,-76.0498,18.8599,0.604797,0.147186,0.619202,-0.478546,19183,29453,2788,-3374,-29341
819621,8.55586,-19.6335,5.83311,-64.6271,62.2485,-118.636,1.34277,-68.4814,-18.9819,0.606323,0.14502,0.617676,-0.479279,26351,12557,-11549,-3366,-29342
819627,9.30713,-20.2938,5.69434,-64.5337,61.7157,-118.586,12.146,-58.0444,-55.8472,0.60675,0.142181,0.616455,-0.48114,31983,-2804,-25117,-3366,-29342
819633,10.4651,-19.8153,3.95254,-64.6875,60.26,-119.174,47.9126,-40.0391,-120.422,0.604279,0.135254,0.614594,-0.488556,-28945,-16628,27875,-3366,-29342
819639,10.7188,-18.0113,2.43086,-64.8853,59.3427,-119.789,67.8711,-30.7007,-152.832,0.60144,0.1315,0.613708,-0.494171,-23313,27404,4323,-3366,-29342
819645,10.5561,-15.2838,1.02881,-65.1324,58.288,-120.569,86.2427,-24.353,-185.608,0.597504,0.127594,0.612762,-0.501099,-21777,19980,-6942,-3366,-29342
819651,10.5226,-12.3553,-0.224902,-65.4401,57.1014,-121.492,97.7173,-18.1274,-217.529,0.592499,0.123413,0.611725,-0.509308,-20753,14348,-18974,-3366,-29342
819657,9.40283,-9.11094,-1.67959,-65.8026,55.7886,-122.531,102.661,-13.0005,-247.07,0.586487,0.118805,0.610718,-0.518494,-20241,11276,-32542,-3366,-29342
819663,6.53652,-3.96689,-4.48369,-66.7584,52.7893,-124.717,76.7822,-15.0757,-298.584,0.571838,0.107483,0.6091,-0.538788,-21777,11276,8418,-3366,-29342
819669,5.40244,-2.4835,-5.60342,-67.3517,51.1249,-125.793,55.6641,-17.2119,-319.275,0.56366,0.100189,0.608765,-0.549133,-23569,13836,-3103,-3366,-29342
819675,4.22529,-1.77051,-6.76621,-68.0109,49.3781,-126.815,30.0293,-22.4609,-334.9,0.554962,0.0917664,0.608856,-0.559235,-27153,18700,-13855,-3366,-29342
819681,3.90947,-0.966602,-7.42178,-68.7634,47.5488,-127.749,-4.39453,-30.4565,-348.816,0.546021,0.0821533,0.609375,-0.568878,32495,26892,-24351,-3366,-29342
819687,3.12471,-0.746484,-7.69453,-69.6204,45.6372,-128.628,-36.0718,-34.1187,-364.441,0.527496,0.0588684,0.612183,-0.585999,24815,-27636,30689,-3366,-29342
819693,2.84717,-1.52646,-7.73281,-71.5704,41.5723,-130.128,-98.2056,-46.875,-392.456,0.517883,0.0452881,0.61438,-0.593445,3567,5389,12257,-3366,-29342
819699,2.13418,-3.95254,-7.34521,-72.6416,39.4135,-130.743,-123.108,-55.481,-406.433,0.507904,0.0305176,0.617096,-0.600159,-8466,24077,5345,-3366,-29342
819705,2.18682,-7.81895,-6.53174,-73.7238,37.1887,-131.292,-138.184,-59.3872,-419.617,0.49762,0.0146484,0.620087,-0.606262,-22034,-19699,-32,-3366,-29342
819711,1.52168,-10.6183,-5.70391,-74.7729,34.9091,-131.77,-143.372,-62.9272,-430.237,0.486938,-0.00198364,0.623169,-0.611908,27630,5646,-3616,-3366,-29342
819717,2.03369,-12.5658,-4.07695,-75.7727,32.5964,-132.171,-144.592,-66.6504,-436.646,0.4646,-0.0364685,0.628601,-0.622559,9454,-31986,-5408,-3366,-29342
819723,2.03848,-14.4177,-2.1916,-77.7063,27.8998,-132.907,-145.203,-57.6172,-448.547,0.452759,-0.0537415,0.630981,-0.627594,30445,31503,-7968,-3366,-29342
819729,2.82324,-14.8436,-1.45947,-78.6237,25.5212,-133.253,-142.273,-49.1333,-455.261,0.440552,-0.0710754,0.633118,-0.632385,3565,784,-7200,-3366,-29342
819735,3.04336,-14.6617,-0.703418,-79.541,23.1152,-133.621,-142.761,-37.5977,-463.074,0.427765,-0.0882263,0.634979,-0.637115,-23572,-29936,-5920,-3349,-29344
819741,3.27305,-14.7718,-0.143555,-80.4639,20.6653,-134,-145.935,-27.9541,-474.487,0.414276,-0.105194,0.636749,-0.641663,11244,6673,-2848,-3349,-29344
819747,4.00996,-15.2072,-0.0478516,-81.3977,18.1659,-134.396,-151.733,-16.7236,-486.145,0.384979,-0.13916,0.639954,-0.650177,-22549,-20463,3041,-3349,-29344
819753,4.7373,-17.1931,-0.851758,-83.2874,13.0573,-135.286,-158.081,15.0146,-504.761,0.36908,-0.156006,0.641449,-0.654114,31210,-6382,20705,-3349,-29344
819759,3.81855,-18.2697,-1.51211,-84.2432,10.481,-135.764,-163.208,27.2217,-508.545,0.352264,-0.172485,0.642883,-0.657837,-11799,-31469,32225,-3349,-29344
819765,2.55527,-19.1646,-2.06719,-85.199,7.89368,-136.23,-169.189,34.9731,-510.803,0.334808,-0.18869,0.644257,-0.661163,10985,6676,-21023,-3349,-29344
819771,1.00967,-20.1694,-2.78496,-86.1713,5.33386,-136.664,-176.331,39.3066,-506.042,0.316925,-0.204651,0.645477,-0.664001,29160,-20460,-6687,-3349,-29344
819777,-2.42129,-23.5956,-3.60801,-87.1381,2.82898,-137.06,-181.091,43.0298,-496.582,0.280884,-0.235474,0.647736,-0.667816,-21273,18197,9442,-3349,-29344
819783,-5.18711,-23.9066,-3.94297,-89.0442,-1.98303,-137.648,-184.814,31.9824,-472.168,0.263214,-0.250214,0.648651,-0.668762,230,27158,-18206,-3349,-29344
819789,-6.89541,-23.275,-3.1582,-90,-4.30664,-137.758,-187.378,14.8315,-463.318,0.246155,-0.26474,0.649261,-0.669067,7909,-3050,3043,-3349,-29344
819795,-8.29268,-22.2558,-1.56953,-90.9833,-6.59729,-137.769,-192.383,4.63867,-459.167,0.229797,-0.279388,0.649536,-0.668671,12516,29463,26339,-3349,-29344
819801,-10.8145,-22.4807,-0.497656,-92.005,-8.87146,-137.659,-198.914,-9.52148,-458.74,0.213806,-0.294098,0.649597,-0.667603,19683,-6121,-16413,-3349,-29344
819807,-14.0588,-22.5524,3.72285,-93.0597,-11.1292,-137.411,-199.402,-28.1982,-459.9,0.183044,-0.324463,0.648743,-0.663513,24034,21528,9700,-3349,-29344
819813,-15.4321,-21.7198,6.27813,-95.2295,-15.6555,-136.593,-197.937,-50.354,-470.459,0.168152,-0.340027,0.647583,-0.660767,25056,3097,741,-3349,-29344
819819,-16.1499,-20.9686,8.42188,-96.3611,-17.9352,-136.055,-197.205,-54.9316,-479.187,0.153412,-0.355865,0.645935,-0.657654,21983,22553,30181,-3349,-29344
819825,-17.3462,-21.3227,10.0153,-97.4872,-20.2368,-135.478,-191.65,-50.8423,-487.366,0.138641,-0.371796,0.643768,-0.654205,16606,-27367,-5147,-3349,-29344
819831,-19.734,-21.7437,11.3217,-98.5748,-22.5439,-134.907,-181.152,-40.0391,-491.455,0.123627,-0.387543,0.641022,-0.650787,13277,-14055,24294,-3349,-29344
819837,-28.7109,-24.1698,12.2787,-99.613,-24.8236,-134.368,-171.326,-23.8647,-489.685,0.0930176,-0.417145,0.63382,-0.644592,7132,-4839,-11546,-3349,-29344
819843,-34.7067,-25.1316,11.872,-101.563,-29.1467,-133.44,-159.485,6.16455,-456.909,0.0776978,-0.43042,0.629791,-0.641815,-11559,1562,-14617,-3349,-29344
819849,-41.272,-25.5145,11.1829,-102.497,-31.0968,-133.05,-158.508,15.0757,-427.673,0.0627441,-0.442444,0.625854,-0.63913,-22312,-1255,14824,-3349,-29344
819855,-46.5883,-25.8255,11.1542,-103.425,-32.8491,-132.682,-158.264,18.1274,-390.869,0.0484314,-0.453156,0.622284,-0.636353,32471,-8423,-22040,-3349,-29344
819861,-50.7035,-25.3757,11.7476,-104.326,-34.3762,-132.374,-157.227,22.2168,-347.595,0.0351562,-0.462555,0.619293,-0.633392,22998,-19687,5097,-3349,-29344
819867,-54.0914,-18.9923,14.8053,-105.172,-35.6561,-132.133,-154.663,25.4517,-297.668,0.0123291,-0.476715,0.615631,-0.627258,17877,-31719,29673,-3358,-29343
819873,-53.7899,-14.2023,15.9537,-106.666,-37.4634,-131.984,-155.334,39.978,-195.312,0.00296021,-0.481323,0.615234,-0.624268,11731,3097,8682,-3358,-29343
819879,-53.833,-10.6135,15.9394,-107.292,-38.0182,-132.122,-157.349,49.9878,-146.362,-0.00521851,-0.484222,0.615875,-0.621368,12754,-14824,28650,-3358,-29343
