Timestamp,AccX,AccY,AccZ,AngleX,AngleY,AngleZ,AngularVelX,AngularVelY,AngularVelZ,QW,QX,QY,QZ,MagX,MagY,MagZ,Height,AirPressure
639492,-6.49346,-21.4471,-1.73223,-72.5757,58.1616,-132.737,-48.2178,-14.0991,81.2988,0.543854,0.151825,0.63031,-0.532715,20203,-15087,-3610,-3416,-29336
639498,-4.66553,-23.8636,-1.62217,-72.4933,58.4802,-132.226,-63.1104,-30.7007,105.103,0.545868,0.151581,0.630859,-0.530029,-23573,30481,-17434,-3416,-29336
639504,-3.90947,-25.5862,-1.57432,-72.29,58.8922,-131.534,-69.7632,-42.8467,129.456,0.549011,0.151276,0.631226,-0.526459,-3861,11537,-30490,-3416,-29336
639510,-3.51709,-26.1796,-2.16289,-71.8671,59.3921,-130.6,-69.7021,-60.73,153.809,0.553009,0.151184,0.631287,-0.522186,14572,-6640,23270,-3416,-29336
639516,-3.23477,-24.6962,-1.30635,-71.1859,59.9414,-129.408,-55.9692,-100.525,184.204,0.563843,0.151794,0.629425,-0.512604,-18452,24848,1766,-3416,-29336
639522,-3.43096,-22.8061,-0.248828,-69.0491,61.0455,-126.271,-48.9502,-118.652,189.636,0.570404,0.152252,0.62735,-0.507721,-4116,8720,-6939,-3416,-29336
639528,-3.5793,-21.4231,0.14834,-67.6428,61.5179,-124.354,-48.4619,-138.855,186.707,0.577454,0.152649,0.624573,-0.503021,9197,-7153,-15899,-3416,-29336
639534,-2.82324,-20.9733,1.23457,-66.0773,61.886,-122.278,-46.2036,-155.396,176.758,0.58493,0.152527,0.621307,-0.498474,22253,-23025,-24859,-3416,-29336
639540,-1.3877,-20.9638,2.45,-64.4128,62.1222,-120.119,-42.9688,-168.335,159.912,0.592529,0.151825,0.617554,-0.494354,-30739,26639,31461,-3416,-29336
639546,3.36396,-21.27,5.39766,-62.7264,62.2156,-117.982,-26.6724,-173.584,114.502,0.607086,0.14856,0.609192,-0.488007,-7699,-5874,9189,-3416,-29336
639552,6.01016,-20.7437,6.97197,-59.6503,62.0123,-114.214,-15.1978,-165.344,87.0361,0.613464,0.146271,0.604858,-0.486115,2286,-21234,-3356,-3416,-29336
639558,8.46016,-19.2507,8.01514,-58.4308,61.7377,-112.786,-3.17383,-149.353,56.7017,0.618927,0.143738,0.600647,-0.485168,10478,28942,-16924,-3416,-29336
639564,10.1972,-17.9443,8.16348,-57.4969,61.3586,-111.78,13.5498,-127.014,22.7661,0.623169,0.141083,0.596771,-0.485291,17134,13582,-31772,-3416,-29336
639570,11.4174,-17.15,7.54619,-56.8542,60.8862,-111.226,35.2783,-102.112,-13.1836,0.625977,0.138428,0.593323,-0.486664,22766,-1267,17636,-3416,-29336
639576,12.0203,-15.2838,5.88574,-56.4807,60.3424,-111.127,83.313,-49.1943,-78.9185,0.626801,0.13382,0.587738,-0.493652,31726,-28403,-15645,-3407,-29337
639582,11.7954,-13.8817,4.84736,-56.4203,59.0845,-112.066,96.8018,-23.2544,-105.469,0.624878,0.13208,0.58551,-0.499146,-30738,25869,-32285,-3407,-29337
639588,11.4317,-12.829,3.46445,-56.7059,58.4088,-112.994,104.492,-0.305176,-125.977,0.621613,0.130585,0.583832,-0.505585,-28690,16141,16867,-3407,-29337
639594,10.8623,-10.9484,1.50254,-57.1729,57.7222,-114.148,104.98,20.0195,-141.968,0.617188,0.129272,0.582672,-0.512604,-27410,7437,1251,-3407,-29337
639600,10.3407,-8.30703,-0.45459,-57.7881,57.0026,-115.444,98.6328,33.9966,-155.579,0.611847,0.12796,0.582123,-0.519928,-25874,-5364,-29726,-3407,-29337
639606,8.88603,-2.88545,-4.09609,-59.5404,55.481,-118.427,68.4814,61.3403,-182.983,0.599091,0.124603,0.582825,-0.534576,-26386,-9716,21986,-3407,-29337
639612,7.38828,-1.1915,-5.69912,-60.6445,54.6295,-120.037,47.3022,66.8335,-198.792,0.591736,0.122192,0.58429,-0.541656,-27410,-12788,8930,-3407,-29337
639618,6.14893,-0.545508,-7.33564,-61.8585,53.6792,-121.652,24.4141,66.4062,-216.553,0.583893,0.118958,0.586456,-0.548523,-28690,-14324,-2591,-3407,-29337
639624,4.40713,-0.220117,-8.65156,-63.1329,52.619,-123.234,3.479,60.6079,-235.657,0.575684,0.114624,0.589203,-0.555145,-30738,-13556,-12575,-3407,-29337
639630,3.32568,-0.0669922,-9.65645,-64.4293,51.416,-124.722,-17.395,48.9502,-256.47,0.567169,0.109161,0.592346,-0.561615,28142,-6900,-26655,-3407,-29337
639636,0.866113,-0.0382813,-10.5321,-67.0276,48.5651,-127.343,-61.2183,16.7847,-303.162,0.549591,0.0939941,0.599365,-0.574249,24302,-244,32737,-3407,-29337
639642,0.277539,-0.258398,-10.2881,-68.2745,46.8842,-128.408,-81.9092,-6.7749,-327.454,0.540527,0.0840759,0.603119,-0.580414,19950,8973,27105,-3407,-29337
639648,0.382812,-1.31592,-10.0632,-69.4995,45.0494,-129.309,-103.21,-27.1606,-351.99,0.531433,0.0724182,0.606842,-0.586487,15854,18957,21473,-3407,-29337
639654,0.177051,-2.81846,-9.4459,-70.6915,43.0719,-130.051,-122.253,-47.4854,-374.756,0.522186,0.059082,0.610565,-0.592377,10734,32013,16353,-3407,-29337
639660,0.880469,-4.74209,-8.63242,-71.8561,40.9515,-130.627,-141.846,-67.8101,-395.935,0.512817,0.04422,0.614197,-0.598083,3310,-17651,13025,-3407,-29337
639666,1.95713,-7.42178,-6.36904,-72.9877,38.7323,-131.067,-173.401,-93.2007,-424.011,0.493591,0.0102539,0.621094,-0.608582,-18707,22286,12769,-3407,-29337
639672,2.43086,-8.79512,-5.43594,-75.2783,34.1016,-131.649,-185.242,-97.8394,-434.692,0.483673,-0.00814819,0.624451,-0.613129,31725,-19698,14817,-3407,-29337
639678,2.61748,-9.99619,-4.55547,-76.4374,31.7175,-131.814,-198.181,-103.333,-443.298,0.473389,-0.0272522,0.627716,-0.617249,15853,4623,16865,-3407,-29337
639684,3.71328,-11.3839,-3.38789,-77.5964,29.295,-131.924,-205.688,-104.492,-451.233,0.462799,-0.0469055,0.63089,-0.62085,-3348,32271,19681,-3407,-29337
639690,4.66553,-12.2117,-1.98105,-78.772,26.8341,-132.012,-212.036,-100.098,-460.205,0.451813,-0.066925,0.633911,-0.624054,-25620,-3057,23521,-3391,-29339
639696,6.79014,-14.5277,0.090918,-79.964,24.3512,-132.1,-218.811,-75.8667,-477.173,0.427856,-0.107239,0.639587,-0.629456,-15637,-1008,-29983,-3391,-29339
639702,7.36914,-15.992,0.502441,-82.359,19.3085,-132.347,-217.896,-61.8286,-483.765,0.414673,-0.127136,0.642273,-0.631836,17131,-29935,-20255,-3391,-29339
639708,7.61318,-17.6381,0.980957,-83.54,16.7706,-132.512,-214.783,-44.4336,-488.098,0.400726,-0.146729,0.644745,-0.634094,-18710,8210,-8735,-3391,-29339
639714,7.23037,-19.021,0.995313,-84.6826,14.2438,-132.709,-207.947,-26.8555,-487.732,0.385986,-0.165771,0.647003,-0.63623,11242,-20206,3298,-3391,-29339
639720,5.81396,-19.3895,0.765625,-85.7867,11.7444,-132.929,-201.294,-11.2305,-484.924,0.370636,-0.184082,0.648987,-0.638306,-28183,17427,17634,-3391,-29339
639726,3.2874,-19.155,0.253613,-86.8414,9.26697,-133.138,-193.848,5.5542,-474.854,0.338806,-0.218536,0.651947,-0.64209,13800,26644,-12062,-3391,-29339
639732,1.7418,-19.3512,0.440234,-88.9014,4.44946,-133.522,-194.702,15.1367,-466.125,0.322662,-0.234894,0.652985,-0.643585,30183,-2028,9187,-3391,-29339
639738,-1.17236,-19.7818,0.0574219,-89.9341,2.11487,-133.709,-199.219,23.8647,-456.787,0.306396,-0.25058,0.6539,-0.644684,-21274,-31211,31971,-3391,-29339
639744,-4.96699,-19.5665,-0.220117,-90.9723,-0.153809,-133.835,-202.454,22.8271,-447.571,0.290039,-0.265686,0.654816,-0.645264,-6427,2838,-11293,-3391,-29339
639750,-8.49844,-17.7242,0.564648,-92.0325,-2.38953,-133.89,-209.778,17.334,-442.444,0.273926,-0.280396,0.655609,-0.645325,5093,-30442,13540,-3391,-29339
639756,-13.5133,-17.3605,3.64629,-93.1696,-4.61426,-133.857,-240.112,1.34277,-446.96,0.242157,-0.309875,0.656891,-0.643219,21731,26135,3301,-3391,-29339
639762,-14.6139,-18.7865,5.76133,-95.6305,-9.06372,-133.489,-244.324,-5.12695,-451.538,0.226257,-0.325043,0.657471,-0.6409,27362,-14825,-31771,-3391,-29339
639768,-15.9968,-18.9253,8.55107,-96.8665,-11.2994,-133.215,-239.807,-4.5166,-459.167,0.210449,-0.340363,0.657715,-0.638092,31713,7704,-1563,-3391,-29339
639774,-17.8008,-19.0497,11.0776,-98.0695,-13.5626,-132.907,-233.276,0.549316,-467.896,0.194489,-0.35556,0.657379,-0.635223,-31776,28696,29414,-3391,-29339
639780,-19.8297,-20.2938,13.0396,-99.212,-15.8533,-132.599,-220.215,11.1694,-475.769,0.178253,-0.370514,0.656433,-0.632385,-27425,-17640,-6426,-3391,-29339
639786,-27.8209,-22.94,15.035,-100.239,-18.1494,-132.336,-179.932,47.7295,-476.562,0.14505,-0.398651,0.652283,-0.628052,-26147,11033,-10009,-3391,-29339
639792,-34.0847,-24.6866,14.9823,-101.937,-22.6318,-131.995,-159.119,61.0962,-462.036,0.128235,-0.411285,0.64917,-0.626801,-28196,20249,22760,-3391,-29339
639798,-40.5925,-25.4522,14.322,-102.607,-24.6918,-131.907,-140.503,69.5801,-435.12,0.111877,-0.422699,0.645538,-0.626068,-31781,26137,-11800,-3391,-29339
639804,-47.0046,-25.3518,13.877,-103.195,-26.5594,-131.863,-126.892,73.4253,-398.01,0.096405,-0.432739,0.641754,-0.625671,29658,28185,19433,-3399,-29338
639810,-52.5841,-24.189,13.5516,-103.716,-28.1909,-131.847,-117.981,70.2515,-353.027,0.0821533,-0.441315,0.638153,-0.625397,25304,26137,9194,-3399,-29338
639816,-58.7952,-18.4324,13.3793,-104.683,-30.6573,-131.858,-111.572,51.7578,-252.747,0.0584412,-0.454285,0.63269,-0.624329,22743,20249,-30742,-3399,-29338
639822,-59.1254,-14.4033,13.3745,-105.134,-31.5033,-131.885,-108.948,41.9922,-204.956,0.0491943,-0.458832,0.631226,-0.623291,20950,11801,-6422,-3399,-29338
639828,-58.4507,-11.5418,13.6903,-105.557,-32.113,-131.929,-106.689,33.6304,-159.79,0.0415955,-0.462189,0.630554,-0.62204,21205,1049,16107,-3399,-29338
639834,-57.2209,-9.84307,13.408,-105.925,-32.5031,-132.028,-100.647,30.0903,-116.272,0.035553,-0.464447,0.630737,-0.620544,24020,-10984,-27157,-3399,-29338
639840,-60.5322,-28.955,1.77529,-106.545,-32.6074,-132.193,-158.447,25.6958,-58.8379,0.0309143,-0.465515,0.631622,-0.61911,-25646,28696,10732,-3399,-29338
639846,-53.455,-19.7244,18.2027,-105.974,-31.6077,-132.572,60.4248,-12.4512,90.5151,0.0284119,-0.46283,0.63681,-0.615906,-11823,14872,28652,-3399,-29338
639852,-49.3685,-2.70361,15.3604,-105.172,-30.7782,-132.929,105.53,6.83594,129.639,0.0338135,-0.459076,0.637482,-0.617767,5585,1304,-20500,-3399,-29338
639858,-66.3653,-70.7772,1.27764,-105.82,-29.3829,-133.264,-180.298,-24.1699,238.22,0.0406189,-0.453583,0.637695,-0.621185,27088,-11241,-4884,-3399,-29338
639864,-69.7197,-31.7878,2.03848,-103.799,-27.4493,-133.506,367.004,-62.1338,338.989,0.0455933,-0.446411,0.647644,-0.615692,-10545,-22505,10733,-3399,-29338
639870,-70.5332,10.2642,9.88135,-102.173,-25.2191,-133.445,315.552,-114.746,387.024,0.0649719,-0.436218,0.644592,-0.62442,-3378,27159,-29715,-3399,-29338
639876,-21.1647,3.76592,5.28281,-100.684,-19.8358,-133.813,75.8667,-14.9536,443.42,0.109192,-0.412598,0.648438,-0.630249,-23346,24343,-22035,-3399,-29338
639882,-24.6914,-23.7535,36.4533,-98.855,-18.056,-135.038,268.311,162.781,347.778,0.124542,-0.398529,0.65448,-0.630249,30670,24855,-17427,-3399,-29338
639888,-29.4335,0.507227,-9.66602,-97.2565,-16.7047,-135.731,262.146,88.8062,242.859,0.135437,-0.381134,0.654144,-0.639069,26830,28951,-15891,-3399,-29338
639894,-18.4851,-10.9437,18.241,-96.1963,-16.0455,-136.247,165.894,77.5757,100.83,0.145325,-0.368652,0.651581,-0.646759,31182,-29161,-17171,-3399,-29338
639900,-17.1644,-10.69,-17.9348,-95.658,-15.6335,-136.659,71.4722,65.6738,47.1802,0.149933,-0.361084,0.6492,-0.652344,-13618,-12009,-23315,-3399,-29338
639906,17.3127,-27.0266,-2.54092,-94.7516,-14.2218,-135.934,183.96,-86.5479,113.892,0.157776,-0.354919,0.649231,-0.65387,207,-2793,-27667,-3399,-29338
639912,13.8004,-7.95772,10.068,-93.3289,-13.2111,-136.412,250.183,77.0264,169.495,0.167603,-0.351593,0.645386,-0.657013,15055,5656,32237,-3399,-29338
639918,-15.078,12.9008,11.6806,-92.2357,-12.6343,-137.071,175.049,119.507,82.7026,0.175354,-0.341522,0.641541,-0.664032,31183,13848,25581,-3399,-29338
639924,-6.07715,2.79453,6.35947,-92.3181,-11.8488,-136.615,-10.1929,-98.8159,114.441,0.178253,-0.333099,0.638794,-0.670135,-17969,21272,17645,-3399,-29338
639930,7.87158,-9.4459,6.07236,-92.2522,-11.2885,-136.664,-2.68555,2.68555,75.0732,0.185425,-0.331604,0.640167,-0.667633,18896,-31464,-3092,-3399,-29338
639936,-11.0394,-8.16348,0.588574,-91.582,-10.1294,-136.818,80.9326,-48.645,83.252,0.190552,-0.322723,0.642639,-0.668152,-28464,-25576,-12564,-3399,-29338
639942,2.15811,-0.736914,6.36904,-91.2909,-9.54163,-136.626,52.4902,-42.4805,79.5898,0.196686,-0.319946,0.641235,-0.669067,-10288,-19688,-20244,-3399,-29338
639948,-1.97148,-5.45508,6.01494,-91.1646,-9.07471,-136.835,6.04248,36.8652,57.9834,0.202118,-0.317291,0.640594,-0.669312,8401,-14312,-26900,-3399,-29338
639954,-11.0585,-10.8097,-3.4501,-91.1096,-8.64624,-136.95,-4.08936,19.7144,49.9878,0.204041,-0.313385,0.641693,-0.669525,27089,-9192,32748,-3399,-29338
639960,-7.60361,-16.5566,0.77998,-90.9448,-8.21228,-136.829,25.5737,-26.001,51.2085,0.206055,-0.310303,0.642853,-0.66925,-559,793,21484,-3399,-29338
639966,-3.78506,-10.9149,2.88545,-90.5054,-7.39929,-136.747,18.7988,3.17383,44.2505,0.213623,-0.305969,0.641876,-0.6698,16850,5145,17132,-3399,-29338
639972,-3.89512,-14.9871,0.31582,-90.368,-7.02576,-136.741,18.0664,-1.2207,41.8701,0.216217,-0.303406,0.64209,-0.669922,-31790,10009,13804,-3399,-29338
639978,-4.94785,-16.4466,-1.58867,-90.1593,-6.65771,-136.785,32.4097,9.46045,40.7104,0.218842,-0.301086,0.642242,-0.669952,-14894,14105,11756,-3399,-29338
639984,-8.77119,-14.0444,-0.90918,-89.8462,-6.27319,-136.78,54.6265,0.793457,44.9829,0.221313,-0.298401,0.64209,-0.670502,1747,17433,10732,-3399,-29338
639990,-9.82393,-17.4563,1.25371,-89.61,-5.85571,-136.686,41.5649,-15.9912,51.3306,0.224426,-0.295654,0.641235,-0.671509,-31021,22297,10988,-3399,-29338
639996,-3.97646,-11.5992,3.16299,-88.9288,-4.97131,-136.28,66.7114,-29.6631,57.6782,0.232819,-0.291504,0.639313,-0.672302,-15661,24601,12012,-3399,-29338
640002,-4.44541,-16.4322,4.96699,-88.6487,-4.52087,-136.115,51.7578,-27.832,60.791,0.237244,-0.289246,0.637939,-0.673035,-1069,26393,13548,-3399,-29338
640008,-4.00996,-24.8876,6.29727,-88.3356,-4.04297,-135.939,59.2041,-29.6631,69.0918,0.241486,-0.287048,0.637024,-0.673309,13524,27673,14828,-3399,-29338
640014,-0.368457,-30.8308,12.9008,-87.9291,-3.48267,-135.758,76.4771,-28.7476,87.1582,0.246063,-0.284637,0.635956,-0.673706,29140,29465,15596,-3399,-29338
640020,4.29707,-20.4039,8.80947,-87.7423,-2.67517,-135.851,29.3579,29.4189,136.23,0.255768,-0.27597,0.635742,-0.67392,-3628,-32231,15596,-3399,-29338
640026,-2.08154,-27.1893,5.30195,-88.0115,-0.653687,-136.335,-26.6724,55.6641,191.101,0.259155,-0.269348,0.63974,-0.671478,13525,-30439,15340,-3399,-29338
640032,-3.03857,-28.1271,1.68916,-88.0664,0.505371,-136.511,-16.7847,48.8281,213.257,0.263702,-0.262146,0.643372,-0.669098,30421,-28647,14316,-3399,-29338
640038,-3.17256,-25.2369,0.483301,-88.0994,1.83472,-136.631,-12.4512,38.9404,247.559,0.269165,-0.254486,0.64679,-0.666595,-16939,-27367,15340,-3407,-29337
640044,-3.87119,-23.921,2.46914,-88.1708,3.29041,-136.73,-15.3198,45.8374,272.766,0.275848,-0.246124,0.650238,-0.663605,2774,-26343,16108,-3407,-29337
640050,-1.60303,-23.5143,5.40244,-88.3081,4.86145,-136.802,-29.4189,40.6494,297.913,0.29129,-0.227875,0.658295,-0.655579,-17706,-24039,17132,-3407,-29337
640056,4.34971,-32.3285,6.2877,-88.9563,8.3551,-137.027,-67.1387,53.1006,351.013,0.299561,-0.218201,0.663605,-0.64975,7639,-23015,17644,-3407,-29337
640062,3.32568,-38.5492,3.21563,-89.1705,10.2667,-137.17,-40.6494,51.5747,373.047,0.308136,-0.20752,0.66925,-0.643402,-29993,-22503,18412,-3407,-29337
640068,4.92393,-39.9656,1.14844,-89.1595,12.3267,-137.23,1.58691,35.2783,406.311,0.317444,-0.195892,0.674133,-0.637421,-2089,-21991,19948,-3407,-29337
640074,6.46953,-37.4534,0.0478516,-88.9398,14.4965,-137.324,46.2646,42.2974,430.786,0.328339,-0.183197,0.677673,-0.631866,28120,-22247,20972,-3407,-29337
640080,4.06738,-31.1274,-1.9667,-88.5663,16.7706,-137.433,79.9561,47.5464,454.712,0.351929,-0.153412,0.681519,-0.622925,31449,-24039,24556,-3407,-29337
640086,1.56953,-27.5864,-2.82803,-87.6434,21.5332,-137.439,96.3745,21.0571,489.197,0.364319,-0.13739,0.682495,-0.618439,4826,-26599,24300,-3407,-29337
640092,2.50264,-27.6104,-0.722559,-87.0557,24.0106,-137.411,116.638,33.9355,500.549,0.377747,-0.121246,0.682739,-0.613464,-19238,-30183,22252,-3407,-29337
640098,2.71797,-26.3758,-1.36377,-86.3965,26.5155,-137.307,124.756,24.7803,509.888,0.390961,-0.104095,0.682404,-0.608704,21723,31513,19692,-3407,-29337
640104,5.26846,-22.6434,-3.14863,-85.7098,29.0533,-137.148,125.61,21.9727,518.738,0.40448,-0.086792,0.681427,-0.603668,-805,25625,15084,-3407,-29337
640110,-8.29268,-16.4274,-2.8376,-85.1385,31.6241,-137.098,58.5938,52.5513,499.878,0.430664,-0.0512085,0.679169,-0.592041,27613,8729,-533,-3407,-29337
640116,-1.7418,-24.7393,-1.79922,-84.2981,36.4197,-136.505,49.6826,-35.3394,492.615,0.442108,-0.0347595,0.679413,-0.584473,13022,-2792,-11541,-3407,-29337
640122,7.01504,-23.3755,0.990527,-83.573,38.7268,-136.049,94.1772,-11.1694,482.849,0.455688,-0.0209351,0.677917,-0.576385,223,-16360,-23061,-3407,-29337
640128,-0.253613,-19.3416,2.15332,-82.9138,40.9955,-135.769,101.501,22.3999,474.487,0.468079,-0.00598145,0.675476,-0.569611,-11553,-32744,29163,-3407,-29337
640134,-0.837402,-18.8822,2.72275,-82.0569,43.2257,-135.154,93.811,-20.813,473.633,0.479034,0.00967407,0.673279,-0.563019,-25632,16152,16363,-3407,-29337
640140,5.35938,-12.1543,3.18213,-81.1176,45.3735,-134.467,99.8535,12.0239,432.861,0.502472,0.0380554,0.666534,-0.549255,12770,-24297,-12310,-3407,-29337
640146,1.80879,-13.1209,2.19639,-79.4312,49.2682,-133.473,102.234,6.7749,406.494,0.511993,0.052063,0.663513,-0.542938,-286,17431,-27158,-3407,-29337
640152,4.23486,-13.4702,0.674707,-78.4039,51.0699,-132.858,115.967,0.732422,394.409,0.520813,0.0651855,0.660217,-0.53714,-14365,-7914,21994,-3407,-29337
640158,1.71787,-12.4893,0.827832,-77.4701,52.7673,-132.517,139.099,37.9028,368.591,0.529297,0.0780945,0.656281,-0.531891,-28444,30486,4330,-3416,-29336
640164,-0.162695,-8.82383,0.378027,-76.2067,54.3549,-131.995,174.011,19.9585,352.356,0.535828,0.0916138,0.652618,-0.527679,19941,4118,-12823,-3416,-29336
640170,-3.96211,-2.43086,0.937891,-75.2234,55.6293,-131.836,151.245,36.0718,201.965,0.545837,0.117218,0.643616,-0.523407,-17690,11541,17129,-3416,-29336
640176,0.468945,-5.77568,-2.40693,-73.6963,57.1014,-131.737,150.146,45.8374,142.09,0.548218,0.12619,0.640076,-0.523193,27111,-19692,-536,-3416,-29336
640182,-1.08145,-6.32598,-3.12471,-73.2404,57.4695,-132.023,146.545,56.8848,92.5293,0.548889,0.133667,0.637085,-0.524261,4072,13844,-17944,-3416,-29336
640188,-2.1916,-8.35488,-3.76592,-72.8503,57.6782,-132.308,132.874,47.0581,60.1807,0.548096,0.139893,0.634705,-0.526337,-21272,-17901,30184,-3416,-29336
640194,-2.46914,-12.1399,-3.58408,-72.5922,57.821,-132.632,113.525,46.3867,46.814,0.546875,0.144714,0.632629,-0.528839,16617,16659,12776,-3416,-29336
640200,-6.61309,-16.2265,-2.98115,-72.4274,57.9584,-132.913,56.0913,28.8086,59.1431,0.544281,0.151917,0.629913,-0.532684,16874,25874,-16409,-3416,-29336
640206,-8.13477,-17.9443,-2.78018,-72.2406,58.3813,-133.055,21.2402,18.5547,75.5615,0.543976,0.154449,0.629181,-0.533142,-19222,18,-31513,-3416,-29336
640212,-8.00078,-19.3416,-2.39736,-72.1637,58.7,-132.841,-13.4888,0.976562,96.6797,0.544556,0.156403,0.628937,-0.532288,6891,-24303,20455,-3416,-29336
640218,-6.70879,-21.1839,-2.21553,-72.0209,59.101,-132.396,-40.7104,-16.9678,119.812,0.546326,0.157715,0.628906,-0.530121,31211,18705,7143,-3416,-29336
640224,-5.53164,-22.9879,-1.99541,-71.8121,59.5844,-131.759,-59.9365,-30.2124,140.747,0.549286,0.1586,0.628937,-0.526733,7916,-22512,-17946,-3416,-29336
640230,-4.25879,-25.0072,-2.14375,-70.9387,60.7599,-129.825,-73.9746,-61.8286,180.359,0.557983,0.160034,0.628723,-0.517334,26092,23824,-28954,-3416,-29336
640236,-3.0625,-25.0455,-0.717773,-70.1862,61.3971,-128.507,-73.8525,-78.6133,192.932,0.563629,0.160767,0.627991,-0.511841,-22292,6160,25318,-3416,-29336
640242,-2.66533,-24.811,0.0669922,-69.2413,62.0343,-126.991,-71.8384,-91.6138,201.172,0.569946,0.161499,0.626709,-0.506165,-6164,-11249,14566,-3416,-29336
640248,-2.26338,-24.4043,1.15801,-68.1097,62.6495,-125.288,-68.8477,-104.309,203.735,0.576691,0.162201,0.624969,-0.500427,9197,-28657,3046,-3416,-29336
640254,-1.67959,-23.9736,2.0959,-66.8134,63.2153,-123.437,-65.0024,-115.417,200.5,0.58374,0.16275,0.622772,-0.494751,-25363,1039,-21019,-3416,-29336
640260,0.44502,-24.2416,4.12002,-63.9185,64.0668,-119.531,-51.1475,-126.77,175.171,0.598022,0.163086,0.61734,-0.484314,-10771,-16626,-32283,-3416,-29336
640266,1.67959,-24.1985,4.72295,-62.4243,64.325,-117.642,-37.2925,-127.686,154.175,0.604706,0.162842,0.614258,-0.47998,3054,31246,20453,-3416,-29336
640272,3.50752,-23.8492,5.3498,-60.9686,64.4458,-115.906,-17.8223,-125.183,127.563,0.610809,0.162354,0.610992,-0.476562,15854,13582,8421,-3407,-29337
640278,5.47422,-22.562,5.64648,-59.6118,64.4183,-114.417,5.92041,-118.896,94.9707,0.616089,0.161743,0.607574,-0.474365,27374,-3827,-4636,-3407,-29337
640284,7.52705,-20.2316,5.58906,-58.4363,64.248,-113.28,34.3628,-106.995,57.8613,0.6203,0.161011,0.604004,-0.473633,-18706,26893,-31260,-3407,-29337
640290,9.81436,-14.4177,5.03398,-56.8597,63.479,-112.352,89.4165,-72.0215,-26.4893,0.624542,0.159637,0.597015,-0.477386,-10770,10765,21476,-3416,-29336
640296,10.1685,-12.9726,4.1248,-56.5137,62.9022,-112.538,105.835,-54.3823,-66.4673,0.624329,0.158905,0.593842,-0.481842,-4114,-4340,8676,-3416,-29336
640302,10.6565,-11.5896,2.78496,-56.4917,62.2321,-113.154,117.126,-32.5928,-104.614,0.62265,0.157959,0.591064,-0.487701,1775,-18420,-4893,-3416,-29336
640308,10.4986,-10.4843,1.97148,-56.7059,61.4905,-114.071,121.277,-15.4419,-131.714,0.619476,0.156769,0.588898,-0.49472,6383,-31732,-17693,-3416,-29336
640314,10.4843,-8.98652,0.430664,-57.1509,60.694,-115.214,114.38,-0.244141,-153.32,0.615204,0.155365,0.587219,-0.502441,14319,11276,18659,-3416,-29336
640320,9.19229,-5.11055,-3.51709,-58.5901,58.9691,-117.883,82.5195,19.7144,-185.059,0.604248,0.151093,0.585907,-0.518311,16623,3340,3299,-3416,-29336
640326,8.1874,-2.60791,-5.34502,-59.5404,58.0078,-119.355,64.5752,26.001,-202.942,0.597931,0.14798,0.586304,-0.526062,18415,-3317,-12318,-3416,-29336
640332,6.56045,-0.866113,-6.95283,-60.6226,56.9586,-120.872,44.6167,28.5645,-223.145,0.591064,0.144073,0.587311,-0.533691,18927,-8437,-27166,-3416,-29336
640338,5.01484,0.0287109,-8.11563,-61.7706,55.7886,-122.349,22.1558,22.7051,-243.286,0.58371,0.13916,0.588959,-0.54126,19183,-11765,24802,-3416,-29336
640344,3.77549,0.330176,-8.82861,-62.9626,54.4977,-123.739,-3.2959,12.146,-263,0.57608,0.132996,0.591034,-0.548645,17647,-12021,2274,-3416,-29336
640350,1.75137,0.76084,-9.98184,-65.4675,51.5204,-126.222,-56.1523,-11.5356,-306.091,0.560333,0.116394,0.596405,-0.562714,15599,-8181,-6943,-3416,-29336
640356,0.732129,0.435449,-10.3503,-66.7145,49.7955,-127.244,-81.604,-32.5928,-330.505,0.552185,0.105804,0.59967,-0.569397,13039,-3061,-16159,-3416,-29336
640362,0.521582,-0.0765625,-9.87656,-67.9504,47.9059,-128.123,-103.638,-50.5981,-357.788,0.543945,0.0934448,0.603027,-0.575867,8687,5644,-25375,-3416,-29336
640368,0.650781,-1.14365,-9.04395,-69.1809,45.8514,-128.864,-125.427,-68.4204,-384.216,0.535461,0.0793762,0.606506,-0.582245,3311,16908,32481,-3416,-29336
640374,1.13408,-2.82324,-7.88594,-70.4169,43.6432,-129.485,-146.912,-82.8247,-411.682,0.526672,0.0636292,0.610046,-0.58847,-14610,-15092,21217,-3416,-29336
640380,3.26826,-7.03896,-5.96709,-72.8778,38.8422,-130.408,-176.392,-103.21,-458.191,0.507751,0.0276184,0.617249,-0.600281,-26642,6669,18657,-3416,-29336
640386,4.08174,-8.86689,-4.65596,-74.0918,36.2769,-130.754,-185.974,-106.873,-478.088,0.497437,0.00790405,0.620697,-0.605896,24302,31757,17633,-3416,-29336
640392,5.27803,-10.5608,-3.7085,-75.2948,33.6511,-131.05,-192.383,-106.323,-492.126,0.486481,-0.0126038,0.623962,-0.611328,8686,-7923,16609,-3391,-29339
640398,5.57949,-12.5897,-2.34951,-76.4978,30.9814,-131.325,-196.655,-99.9756,-502.441,0.474854,-0.0335999,0.627075,-0.616486,-10003,21518,15585,-3391,-29339
640404,5.63213,-14.3938,-1.41162,-77.6733,28.2953,-131.561,-197.571,-93.75,-508.057,0.462524,-0.054718,0.630005,-0.621368,7149,24079,16353,-3391,-29339
640410,6.29248,-16.6954,0.91875,-79.9805,22.9559,-132.039,-198.181,-68.1152,-506.958,0.436066,-0.0964661,0.635071,-0.630157,-22548,-4337,19169,-3391,-29339
640416,6.84277,-17.5185,1.26328,-81.1121,20.3522,-132.303,-195.74,-50.6592,-500.732,0.421967,-0.116608,0.63739,-0.634003,9452,-30704,24545,-3391,-29339
640422,6.67529,-18.0305,1.20586,-82.2272,17.7924,-132.599,-192.261,-32.0435,-494.934,0.407379,-0.135925,0.639587,-0.637482,-23829,7441,30433,-3391,-29339
640428,6.22549,-17.3223,1.34463,-83.3148,15.2655,-132.929,-189.575,-13.9771,-489.685,0.392242,-0.154388,0.641663,-0.640686,4843,-19439,-25631,-3391,-29339
640434,5.20147,-16.3652,1.0958,-84.4025,12.7661,-133.275,-192.078,1.34277,-486.877,0.376617,-0.172028,0.643585,-0.643616,-13847,-4590,1250,-3391,-29339
640440,4.15352,-17.1021,0.124414,-86.5558,7.80579,-133.951,-195.801,20.5078,-483.337,0.343872,-0.205688,0.647247,-0.648376,5097,-29933,17378,-3391,-29339
640446,3.23955,-18.6478,-0.0574219,-87.5995,5.37781,-134.28,-195.374,31.0059,-475.586,0.326996,-0.221863,0.648834,-0.650208,20712,10004,-30750,-3391,-29339
640452,0.837402,-19.8584,-0.16748,-88.6267,3.00476,-134.599,-195.007,38.8184,-465.027,0.309967,-0.237335,0.650238,-0.651672,-28185,-17644,-13598,-3391,-29339
640458,-2.39736,-20.0594,-0.574219,-89.6429,0.703125,-134.863,-196.838,39.2456,-453.186,0.292908,-0.252136,0.651489,-0.65274,-14618,18965,6371,-3391,-29339
640464,-5.14404,-19.8249,-0.669922,-90.6537,-1.53259,-135.038,-198.975,30.3955,-441.895,0.276154,-0.266449,0.652557,-0.653259,5093,23062,-13341,-3391,-29339
640470,-9.8,-18.5233,1.69395,-92.7026,-5.86121,-135.126,-204.712,14.0381,-428.223,0.244232,-0.294525,0.654053,-0.652466,12004,-10474,12260,-3391,-29339
640476,-11.5753,-18.5042,3.66064,-93.7573,-7.98706,-135.011,-207.947,1.15967,-427.734,0.228851,-0.308441,0.654449,-0.651215,17379,18967,-26652,-3391,-29339
640482,-12.2931,-18.4946,5.87617,-94.823,-10.1184,-134.802,-208.618,-7.32422,-432.8,0.213837,-0.322571,0.65448,-0.649414,20962,-18665,1509,-3391,-29339
640488,-12.9151,-17.3701,8.24482,-95.8887,-12.2827,-134.539,-205.872,-9.94873,-442.993,0.199005,-0.336884,0.654114,-0.647247,27105,6424,28133,-3391,-29339
640494,-13.6281,-15.8293,10.0728,-96.9653,-14.5074,-134.231,-205.505,-8.11768,-459.9,0.184021,-0.351318,0.653198,-0.644928,32735,-16360,17894,-3391,-29339
640500,-17.8678,-17.8726,12.0969,-99.0527,-19.2096,-133.61,-193.787,14.5874,-497.498,0.152283,-0.380554,0.649628,-0.640198,32734,1561,-19738,-3391,-29339
640506,-22.1553,-21.0451,12.9247,-99.9976,-21.6266,-133.336,-179.871,29.2358,-505.188,0.135345,-0.394928,0.646729,-0.638214,31709,16409,9959,-3391,-29339
640512,-28.7492,-24.6388,13.4271,-100.838,-23.9886,-133.11,-161.316,44.3726,-495.789,0.118073,-0.408722,0.643127,-0.636627,29148,27673,-24857,-3391,-29339
640518,-35.4628,-26.639,13.3219,-101.563,-26.2189,-132.935,-143.127,54.3823,-471.375,0.100983,-0.421387,0.638947,-0.635498,28891,-29159,4840,-3391,-29339
640524,-42.2338,-26.9261,12.7955,-102.2,-28.2568,-132.803,-128.357,59.6313,-434.326,0.0847168,-0.432739,0.634521,-0.634705,21465,-23271,-792,-3382,-29340
640530,-51.9812,-22.4854,12.2548,-103.315,-31.5857,-132.621,-113.953,51.8799,-338.989,0.0561218,-0.450897,0.626343,-0.633331,15832,-26855,26857,-3382,-29340
640536,-54.0053,-18.7961,12.4845,-103.848,-32.8491,-132.572,-116.699,47.9736,-287.109,0.0443115,-0.457825,0.62323,-0.632385,9175,31769,-13335,-3382,-29340
640542,-54.924,-15.4561,12.6615,-104.387,-33.8489,-132.578,-122.742,44.5557,-234.985,0.0340271,-0.463287,0.621155,-0.631073,3542,21017,10218,-3382,-29340
640548,-54.8235,-12.2883,12.9773,-104.908,-34.585,-132.654,-128.357,43.7012,-183.167,0.025177,-0.467285,0.62027,-0.629395,-1068,7961,-32534,-3382,-29340
640554,-54.546,-9.68516,12.8625,-105.414,-35.0903,-132.819,-136.292,46.1426,-135.925,0.0177307,-0.469818,0.620575,-0.627472,1747,-20968,10475,-3382,-29340
640560,-53.3832,-7.17773,11.8624,-106.326,-35.4749,-133.396,-140.869,48.7671,-51.3306,0.006073,-0.470673,0.624542,-0.623108,7378,28696,29163,-3382,-29340
640566,-50.5504,-5.97666,12.1639,-106.683,-35.3979,-133.775,-133.484,46.936,-15.9912,0.00192261,-0.469269,0.627838,-0.62088,16593,12824,-18197,-3382,-29340
640572,-54.1153,-29.8737,2.11504,-107.424,-35.0519,-134.242,-219.299,44.9829,38.6353,-0.00106812,-0.466888,0.631653,-0.618805,29904,-2537,-1045,-3382,-29340
640578,-59.1828,-50.0623,19.289,-107.369,-34.2059,-134.731,-61.4624,20.0195,137.756,-0.00427246,-0.463013,0.638855,-0.614288,-17969,-17641,15852,-3382,-29340
640584,-52.8473,-26.4093,17.9922,-106.611,-32.948,-135.126,90.271,-16.8457,211.914,-0.000915527,-0.457123,0.643768,-0.613586,31182,21015,-17172,-3382,-29340
640590,-83.1373,-10.8097,-26.5337,-104.727,-28.092,-135.78,424.744,-109.497,479.553,0.0193176,-0.439209,0.657959,-0.611328,-2099,10519,-1044,-3382,-29340
640596,-89.1953,-1.89492,-6.84277,-103.381,-25.0653,-134.934,332.092,-294.189,503.418,0.0448608,-0.426422,0.655914,-0.621124,-29235,3095,14829,-3382,-29340
640602,-50.4164,-8.03906,38.8459,-102.821,-21.4728,-133.429,218.018,-432.251,591.248,0.0745544,-0.417755,0.655945,-0.624146,15565,535,29421,-3382,-29340
640608,8.89561,-13.4176,27.1797,-101.821,-18.501,-132.946,219.055,-214.294,517.7,0.108459,-0.410309,0.659424,-0.620422,4045,2583,-23059,-3382,-29340
640614,-0.244043,-5.08662,16.6141,-99.6625,-16.5948,-134.176,343.018,160.217,376.587,0.133972,-0.398712,0.661896,-0.620361,3021,16407,-4371,-3382,-29340
640620,-29.1225,-13.1735,-14.2646,-96.828,-15.26,-136.659,187.195,196.716,46.6919,0.150574,-0.365021,0.659332,-0.63974,12493,27159,-275,-3416,-29336
640626,-29.7828,-32.4481,-45.0762,-96.449,-14.837,-136.796,59.8755,18.7988,45.166,0.150574,-0.355621,0.656403,-0.64801,28109,-25577,2030,-3416,-29336
640632,1.60303,-39.6354,-2.21074,-95.5536,-14.0295,-135.89,216.431,-187.378,102.234,0.153625,-0.352203,0.655884,-0.649658,-18227,-11753,1006,-3416,-29336
640638,26.6916,-12.9821,30.9935,-94.032,-13.0518,-135.423,317.749,-104.126,148.254,0.166565,-0.35202,0.650391,-0.6521,2510,1048,-1555,-3416,-29336
640644,11.0824,20.4757,26.505,-92.6093,-12.3322,-136.049,245.728,114.563,111.755,0.184906,-0.337799,0.638855,-0.665924,-21810,24344,-11539,-3416,-29336
640650,-5.27324,-13.9057,4.47412,-92.9388,-10.9149,-136.247,-78.0029,-19.2261,90.9424,0.18808,-0.332184,0.641663,-0.665131,-1074,-31464,-19475,-3416,-29336
640656,-2.5792,-18.686,-2.29209,-92.829,-10.2338,-136.208,12.9395,-13.4277,98.2666,0.191406,-0.329681,0.645294,-0.661926,21199,-21992,-28947,-3416,-29336
640662,-4.58896,-4.48369,1.78965,-92.1918,-9.62952,-136.307,113.22,16.1133,85.4492,0.196075,-0.326111,0.646423,-0.661224,-21553,-13288,27117,-3416,-29336
640668,-9.23057,5.74697,6.11064,-91.8787,-9.09119,-136.445,47.7905,24.7803,71.5942,0.200958,-0.321167,0.644714,-0.663849,1488,-5352,17133,-3416,-29336
640674,-8.16826,-4.12002,1.82314,-91.983,-8.5968,-136.384,-29.3579,-14.7095,61.5845,0.207306,-0.314758,0.646515,-0.663208,-18224,7705,493,-3416,-29336
640680,-6.42647,-15.4896,-0.272754,-91.8622,-7.77832,-136.401,25.6348,6.7749,40.8325,0.209808,-0.312561,0.64798,-0.662018,3025,13849,-6420,-3416,-29336
640686,-6.05322,-9.9627,0.363672,-91.637,-7.37183,-136.318,38.6353,-16.2964,44.8608,0.212372,-0.309967,0.648071,-0.662354,23761,19737,-12052,-3416,-29336
640692,-2.78496,-11.2021,6.40732,-91.5271,-6.97083,-136.258,14.2822,-10.9863,45.3491,0.215881,-0.307831,0.647583,-0.662689,-20783,25369,-15124,-3416,-29336
640698,-3.85684,-13.5037,3.71807,-91.4612,-6.62476,-136.362,1.83105,21.3623,35.8887,0.218903,-0.305756,0.647858,-0.662415,-1071,30745,-17940,-3416,-29336
640704,-7.28779,-16.2647,-3.03379,-91.3733,-6.29517,-136.445,7.50732,19.2871,33.8745,0.222229,-0.300659,0.649231,-0.662262,-27950,-24807,-22548,-3416,-29336
640710,-10.6709,-24.5861,-6.21113,-90.9778,-5.4657,-136.329,50.0488,-20.813,60.73,0.22467,-0.29834,0.649414,-0.662323,-10030,-19943,-25108,-3416,-29336
640716,-8.91953,-18.6765,-2.75625,-90.4669,-4.97131,-136.049,103.088,-51.0254,67.8101,0.22879,-0.295959,0.648743,-0.662628,7891,-15335,-26644,-3416,-29336
640722,-7.24951,-14.7383,5.68477,-89.8901,-4.50439,-135.742,116.76,-55.603,63.4155,0.23465,-0.293762,0.646332,-0.66391,25299,-11239,-26900,-3416,-29336
640728,-3.5793,-18.4372,9.74258,-89.3958,-4.0155,-135.363,100.281,-68.6035,69.1528,0.240631,-0.291656,0.643402,-0.665558,-23341,-6631,-26644,-3416,-29336
640734,2.75625,-28.1654,21.2796,-88.8739,-3.47168,-135.088,102.6,-47.3633,83.4961,0.252991,-0.287262,0.638458,-0.667633,9940,794,-27924,-3416,-29336
640740,-0.660352,-23.1458,7.29258,-89.1101,-1.67542,-135.725,-83.0078,101.318,166.321,0.256989,-0.281219,0.640289,-0.666931,27092,4634,-29716,-3391,-29339
640746,-4.39756,-32.1323,1.41641,-89.3463,-0.571289,-135.928,-54.2603,50.9033,199.036,0.258911,-0.273987,0.645874,-0.663788,-21804,7962,-31252,-3391,-29339
640752,-1.78965,-33.5057,0.334961,-89.3573,0.615234,-136.027,-6.95801,31.0059,218.018,0.263489,-0.267029,0.65036,-0.660431,-4652,10778,-32532,-3391,-29339
640758,-0.186621,-26.639,1.63174,-89.2365,2.0105,-136.115,19.5312,29.3579,260.925,0.269684,-0.259613,0.653412,-0.657898,14805,13338,-32532,-3391,-29339
640764,-4.25879,-21.5715,4.22051,-89.2365,3.52112,-136.313,-1.70898,59.4482,285.034,0.284729,-0.240875,0.65979,-0.652283,-6443,18458,-29204,-3391,-29339
640770,-1.43076,-26.5815,3.71328,-89.7748,6.93237,-136.522,-72.1436,37.0483,338.318,0.292938,-0.230957,0.66449,-0.64743,19670,20762,-29204,-3391,-29339
640776,3.21563,-33.1133,5.12969,-90.0659,8.80005,-136.615,-58.6548,35.3394,362.244,0.301544,-0.221039,0.670197,-0.641052,-20266,23578,-28436,-3391,-29339
640782,6.41211,-35.9652,4.40234,-90.2252,10.7666,-136.719,-30.9448,37.4146,384.766,0.310852,-0.210327,0.675507,-0.634583,7895,25882,-27924,-3391,-29339
640788,7.03418,-35.9461,2.79932,-90.1868,12.865,-136.824,9.52148,36.438,414.124,0.320862,-0.198547,0.680084,-0.62851,-26409,27930,-27412,-3391,-29339
640794,1.8375,-29.8211,0.119629,-90.033,15.0732,-137.005,38.0249,50.6592,439.148,0.343109,-0.170654,0.686371,-0.618011,-21032,31002,-25108,-3391,-29339
640800,1.82793,-27.4524,-1.01445,-89.4727,19.6985,-137.247,67.0166,29.7852,469.299,0.354706,-0.15509,0.688629,-0.613037,19161,32282,-24596,-3391,-29339
640806,4.48369,-26.7203,0.866113,-89.0552,22.1045,-137.285,86.1816,29.9683,484.802,0.367188,-0.139587,0.690063,-0.607788,-3111,31514,-25876,-3391,-29339
640812,2.34951,-25.6389,2.61748,-88.5663,24.549,-137.406,108.459,48.7671,494.507,0.380005,-0.123352,0.690735,-0.6026,-25638,29978,-27924,-3391,-29339
640818,1.94756,-24.8732,0.421094,-88.006,26.9934,-137.439,115.295,36.5601,495.667,0.392365,-0.105927,0.690918,-0.597809,2268,22042,27116,-3391,-29339
640824,1.66523,-15.3221,1.23457,-86.8909,31.9373,-137.598,118.225,73.9746,505.371,0.417603,-0.0712891,0.689117,-0.587799,-12836,15130,19180,-3391,-29339
640830,-8.59414,-16.7385,-2.82324,-86.6272,34.3158,-137.686,64.4531,56.3965,486.694,0.428772,-0.0528259,0.688599,-0.582336,-25635,6170,9196,-3391,-29339
640836,1.1915,-23.1027,-0.717773,-86.0669,36.6064,-137.296,70.1904,-20.3247,476.257,0.439606,-0.0363464,0.688751,-0.575287,29150,-5863,-2581,-3391,-29339
640842,7.17773,-21.471,1.30635,-85.4187,38.8092,-137.131,112.122,19.7144,458.069,0.45224,-0.0220337,0.686981,-0.568268,16863,-18407,-14101,-3391,-29339
640848,-0.354102,-18.3415,2.46914,-84.7925,40.957,-137.049,118.835,37.1704,447.144,0.463013,-0.00650024,0.684692,-0.562714,-4640,12569,24043,-3391,-29339
640854,4.10566,-16.2935,1.39248,-83.2434,45.1154,-136.373,116.15,2.62451,432.739,0.483063,0.0239563,0.679443,-0.551636,-14623,-7656,9195,-3416,-29336
640860,5.80439,-10.5896,0.703418,-82.4304,47.005,-136.11,129.517,22.2168,402.893,0.493042,0.0382996,0.676025,-0.546204,-23838,-30184,-6934,-3416,-29336
640866,2.34473,-9.16357,0.468945,-81.6559,48.7354,-135.95,134.705,37.2314,369.385,0.501495,0.0524597,0.672516,-0.541626,32227,10520,-23062,-3416,-29336
640872,1.13408,-10.5848,-1.48818,-80.8099,50.3778,-135.709,138,29.2358,354.858,0.508514,0.06604,0.669159,-0.53775,21732,-15081,25322,-3416,-29336
640878,1.15801,-12.6376,-2.04805,-79.9969,51.9598,-135.604,151.001,49.3774,340.576,0.515259,0.079071,0.665405,-0.53421,-6939,-2794,-7959,-3416,-29336
640884,-8.54629,5.01484,-0.459375,-78.1073,54.7064,-135.379,164.734,58.0444,263.489,0.526367,0.10611,0.656799,-0.529297,-24090,-32234,-25367,-3416,-29336
640890,-6.02451,-4.42627,-0.0334961,-77.3712,55.5743,-135.264,134.766,32.4097,199.219,0.529633,0.117676,0.653137,-0.528137,22503,2326,23273,-3416,-29336
640896,-2.27773,-6.45039,-2.99551,-76.7889,56.2115,-135.291,126.648,38.6963,151.001,0.532227,0.126099,0.649811,-0.527679,2280,-29931,6121,-3416,-29336
640902,-3.74199,-6.45518,-3.68936,-76.3715,56.6345,-135.423,111.877,40.5884,106.75,0.533508,0.133087,0.647064,-0.528046,-20760,3093,-11032,-3416,-29336
640908,-3.3209,-8.69941,-3.65107,-75.9869,56.8982,-135.483,94.7266,25.1465,76.5381,0.533752,0.13855,0.644958,-0.528961,-9495,7956,20968,-3416,-29336
640914,-4.42627,-14.2933,-3.42617,-75.4541,57.1893,-135.593,60.6079,13.7939,50.9033,0.5336,0.145325,0.641632,-0.531372,25322,-21229,3816,-3416,-29336
640920,-5.31631,-16.3078,-2.91895,-75.2124,57.3102,-135.494,38.7573,-0.671387,53.6499,0.533539,0.14743,0.640472,-0.532257,-7958,16915,-13593,-3416,-29336
640926,-6.5748,-16.8103,-1.98584,-74.9927,57.4475,-135.286,16.6626,-11.5967,59.6313,0.534058,0.148773,0.639465,-0.532562,21483,-8942,-31257,-3416,-29336
640932,-6.55566,-18.8822,-1.14365,-74.7784,57.6123,-134.923,-11.1084,-25.6348,69.9463,0.535156,0.149567,0.638672,-0.532166,-16149,32018,17127,-3416,-29336
640938,-5.31631,-22.0309,-1.39727,-74.5038,57.8485,-134.374,-30.8838,-42.2974,88.0737,0.537079,0.149658,0.638184,-0.530823,32492,-12527,-14874,-3416,-29336
640944,-3.8377,-25.1412,-1.64609,-73.6084,58.5187,-132.775,-39.7949,-68.7256,124.207,0.54361,0.149261,0.636841,-0.525848,-11796,32273,-28442,-3416,-29336
640950,-3.16299,-24.9259,-1.23936,-72.9272,58.9471,-131.704,-40.2832,-82.1533,142.944,0.548035,0.149231,0.63562,-0.522736,7149,13329,23526,-3416,-29336
640956,-3.05771,-24.2703,-0.368457,-72.1088,59.4196,-130.485,-40.2832,-91.6748,156.372,0.553223,0.149414,0.633972,-0.519226,24301,-4592,10470,-3416,-29336
640962,-3.27783,-24.1555,0.574219,-71.1365,59.9139,-129.078,-42.4194,-104.98,168.335,0.558929,0.14975,0.631989,-0.515442,-25363,-21488,-1307,-3416,-29336
640968,-3.1582,-23.7104,1.16758,-70.0214,60.4083,-127.513,-42.5415,-115.845,175.354,0.565186,0.150055,0.629608,-0.511383,1262,11792,-26651,-3416,-29336
640974,-2.84238,-23.4951,2.42129,-67.4231,61.3037,-124.025,-37.9639,-132.751,173.462,0.578735,0.150482,0.623932,-0.503021,13294,-4081,27365,-3416,-29336
640980,-1.8375,-23.4903,3.29697,-65.9729,61.6443,-122.157,-33.1421,-140.198,164.673,0.585663,0.150421,0.620636,-0.499084,24558,-20209,15077,-3416,-29336
640986,-0.287109,-23.4616,4.47891,-64.4952,61.8915,-120.311,-25.1465,-142.09,149.902,0.592468,0.150055,0.617065,-0.495544,-30226,28431,1253,-3416,-29336
640992,1.55518,-23.2989,5.56035,-63.0341,62.0288,-118.553,-14.0381,-140.686,130.554,0.598907,0.149475,0.613342,-0.492584,-20242,11535,-12828,-3416,-29336
640998,4.05781,-23.031,6.40254,-61.6388,62.0508,-116.971,3.60107,-133.606,106.567,0.604767,0.148712,0.609528,-0.490417,-2578,-20466,18916,-3416,-29336
641004,8.62285,-19.1789,7.81416,-59.3427,61.7596,-114.752,48.3398,-101.99,44.0674,0.613525,0.147186,0.601837,-0.489471,5103,29454,2020,-3416,-29336
641010,9.87178,-16.4274,7.41699,-58.5571,61.441,-114.258,71.8384,-79.1626,5.49316,0.615967,0.146576,0.598206,-0.491058,12015,14350,-14365,-3416,-29336
641016,10.8336,-14.3794,6.95283,-58.0627,61.0016,-114.214,93.5669,-54.6875,-35.7056,0.616791,0.146057,0.59494,-0.494141,17647,-755,-29213,-3416,-29336
641022,11.1686,-12.7907,5.73262,-57.887,60.4578,-114.631,110.901,-28.6865,-76.416,0.615906,0.145569,0.592102,-0.498779,22511,-15347,21731,-3416,-29336
641028,11.0968,-12.0921,4.1248,-57.9749,59.8151,-115.433,123.474,-6.04248,-113.586,0.613312,0.14502,0.589813,-0.504791,27887,23821,-6174,-3416,-29336
641034,11.159,-9.91484,0.689063,-58.8318,58.3044,-117.927,129.272,33.2031,-168.457,0.603729,0.143524,0.586853,-0.519989,29679,13069,-21022,-3416,-29336
641040,10.7522,-8.02949,-1.44512,-59.5239,57.475,-119.438,120.911,47.2412,-186.096,0.597198,0.142426,0.586273,-0.528412,30959,3341,29666,-3416,-29336
641046,9.39326,-5.63691,-3.62236,-60.3589,56.5961,-121.075,111.389,59.9976,-201.599,0.589874,0.140961,0.586304,-0.536957,31983,-4596,13538,-3416,-29336
641052,7.64668,-3.38311,-5.61299,-61.2927,55.6567,-122.772,98.6938,67.2607,-216.553,0.581818,0.139099,0.586914,-0.545471,32239,-10228,-2335,-3416,-29336
641058,5.79004,-1.8375,-7.11553,-62.2925,54.635,-124.448,80.2612,65.4907,-231.018,0.564331,0.133362,0.5896,-0.562134,32239,-16884,-31775,-3416,-29336
641064,3.55059,0.593359,-9.61816,-64.3909,52.3059,-127.579,35.9497,49.4385,-260.01,0.555298,0.128998,0.591522,-0.570099,31471,-18420,21473,-3416,-29336
641070,2.72754,1.40684,-10.5848,-65.4785,50.9766,-128.99,12.085,37.1094,-277.954,0.546173,0.123413,0.593811,-0.577698,30447,-17652,9953,-3416,-29336
641076,1.66523,1.97148,-11.4748,-66.5497,49.5044,-130.248,-12.6343,18.1274,-296.509,0.536926,0.116486,0.596436,-0.585052,28399,-14580,1249,-3416,-29336
641082,1.13887,2.05762,-11.9677,-67.6044,47.8839,-131.347,-35.0342,-2.13623,-318.481,0.527771,0.107971,0.599274,-0.592102,25583,-8692,-8224,-3407,-29337
641088,0.162695,1.63174,-11.8433,-68.6316,46.1151,-132.275,-57.312,-25.5127,-340.576,0.509338,0.0859985,0.605225,-0.605621,15087,12045,-24096,-3407,-29337
641094,0.15791,-0.818262,-10.3981,-70.5981,42.1436,-133.621,-98.6938,-69.7021,-383.728,0.500122,0.0724792,0.608185,-0.612061,7407,27917,-30752,-3407,-29337
641100,0.6125,-2.55049,-9.21621,-71.5649,39.9738,-134.077,-117.126,-88.3179,-402.161,0.490814,0.0574036,0.611176,-0.618195,-786,-21491,29664,-3407,-29337
641106,1.63652,-3.79463,-7.9625,-72.5482,37.7106,-134.44,-134.399,-98.7549,-418.762,0.481415,0.0409546,0.614105,-0.623962,-11794,-2547,26336,-3407,-29337
641112,2.26338,-5.77568,-6.74229,-73.5425,35.365,-134.703,-150.024,-109.07,-433.105,0.47168,0.023407,0.617096,-0.629333,-25874,19214,24288,-3407,-29337
641118,3.05293,-7.8668,-5.47422,-74.5532,32.9645,-134.901,-161.377,-113.342,-444.458,0.46167,0.00491333,0.620026,-0.634247,2542,6927,21216,-3407,-29337
641124,3.74199,-10.6135,-2.62705,-76.6406,28.0371,-135.209,-179.199,-107.91,-463.074,0.440338,-0.0336914,0.625793,-0.642853,-22035,-27377,20960,-3407,-29337
641130,4.321,-11.7811,-1.42119,-77.7173,25.5322,-135.341,-187.012,-101.562,-470.581,0.428864,-0.0534363,0.628601,-0.646515,18669,3856,20704,-3407,-29337
641136,5.22061,-13.6664,-0.440234,-78.8104,23.0164,-135.467,-191.711,-92.2852,-476.807,0.416779,-0.0732727,0.631378,-0.64975,-9236,-27888,21728,-3407,-29337
641142,6.26377,-15.6857,0.516797,-79.8981,20.495,-135.61,-192.383,-79.5898,-479.919,0.404053,-0.0929871,0.634033,-0.652679,24300,8465,24544,-3407,-29337
641148,7.11074,-17.1404,1.18193,-80.9747,17.9956,-135.797,-189.331,-60.9131,-479.065,0.390686,-0.112396,0.636536,-0.655304,15851,21010,-26656,-3407,-29337
641154,5.479,-17.3414,1.02402,-83.0731,13.0737,-136.318,-182.068,-22.0337,-476.074,0.361969,-0.148804,0.641144,-0.660034,-26646,-3822,-15136,-3407,-29337
641160,4.58896,-17.0352,0.507227,-84.0839,10.6348,-136.599,-179.626,-10.498,-475.342,0.34671,-0.165955,0.643188,-0.66217,-6167,-27885,-1824,-3407,-29337
641166,3.37832,-16.6715,-0.0382813,-85.0671,8.20679,-136.873,-178.101,-1.40381,-473.633,0.331055,-0.182556,0.644958,-0.664062,15081,11284,12001,-3407,-29337
641172,1.89492,-16.2025,-0.545508,-86.0394,5.81177,-137.126,-179.688,4.08936,-469.543,0.315094,-0.1987,0.646484,-0.66571,-31768,-15084,27617,-3407,-29337
641178,0.14834,-15.7432,-0.626855,-87.0227,3.4552,-137.34,-184.753,5.49316,-462.708,0.299011,-0.214478,0.647797,-0.666962,-1562,-3819,-3871,-3407,-29337
641184,-4.50283,-15.011,-0.631641,-89.0717,-1.15906,-137.593,-200.867,-0.305176,-453.857,0.266968,-0.245117,0.650177,-0.667694,9702,-32234,16354,-3407,-29337
641190,-5.98145,-14.121,0.0669922,-90.1318,-3.44971,-137.56,-206.726,-12.9395,-453.674,0.251129,-0.260376,0.651184,-0.667053,18405,2839,-27678,-3407,-29337
641196,-7.75674,-13.1065,1.75615,-91.236,-5.74036,-137.444,-215.332,-20.2026,-458.313,0.235596,-0.275909,0.651917,-0.665771,28644,-29929,-5150,-3382,-29340
641202,-10.1015,-13.5994,3.36875,-92.417,-8.06396,-137.23,-227.905,-28.6865,-466.919,0.220062,-0.291656,0.652405,-0.663879,-29981,1560,20451,-3382,-29340
641208,-11.8768,-16.1308,4.71816,-93.6365,-10.4041,-136.901,-232.422,-39.978,-476.013,0.204407,-0.307861,0.65274,-0.661255,-24351,-7144,12516,-3382,-29340
641214,-16.4274,-19.6144,8.43623,-95.9711,-15.0732,-135.994,-206.604,-50.415,-483.826,0.173309,-0.341003,0.651733,-0.654816,-24608,17433,-21532,-3382,-29340
641220,-19.5139,-19.844,11.1398,-97.0477,-17.3529,-135.472,-191.528,-48.645,-479.675,0.158173,-0.35733,0.649994,-0.651672,-27425,-26599,10725,-3382,-29340
641226,-22.7391,-20.5857,13.5659,-98.0695,-19.5447,-134.94,-176.575,-42.5415,-467.163,0.143402,-0.373077,0.647583,-0.648682,-32034,-8423,-20251,-3382,-29340
641232,-26.237,-22.1218,15.657,-98.9978,-21.6101,-134.451,-160.583,-30.4565,-444.336,0.12912,-0.387909,0.644684,-0.645874,31197,6682,13542,-3382,-29340
641238,-30.4145,-22.8826,16.6188,-99.8108,-23.5272,-134.05,-142.7,-12.3291,-416.443,0.102448,-0.413208,0.638245,-0.641327,19163,27418,14823,-3382,-29340
641244,-37.4965,-20.9016,15.6475,-101.118,-26.9165,-133.511,-113.831,18.0054,-358.398,0.09021,-0.423462,0.634949,-0.63974,10970,31770,-17945,-3382,-29340
641250,-40.5255,-19.3033,14.4751,-101.624,-28.4216,-133.401,-104.797,36.1328,-332.825,0.0786133,-0.432251,0.631744,-0.63858,2265,31770,13544,-3382,-29340
641256,-44.2771,-18.509,13.0826,-102.047,-29.7949,-133.401,-99.3652,50.5981,-306.152,0.0674744,-0.439606,0.628723,-0.637817,-5929,27418,-21016,-3382,-29340
641262,-47.8851,-18.4707,11.5657,-102.404,-31.0144,-133.478,-94.1162,58.8379,-274.353,0.0568237,-0.445648,0.626007,-0.637299,-9770,22042,6889,-3382,-29340
641268,-51.1103,-18.4755,10.3742,-102.673,-32.0361,-133.627,-84.8389,62.0728,-235.168,0.0383301,-0.453918,0.622009,-0.63678,-14380,3610,-3863,-3382,-29340
641274,-54.1584,-15.3316,8.74248,-102.958,-33.3325,-134.066,-61.8286,53.833,-136.475,0.031311,-0.456055,0.62085,-0.636749,-14125,-8679,20970,-3382,-29340
641280,-53.321,-10.0967,8.57979,-103.019,-33.5907,-134.324,-55.7861,44.9829,-86.6089,0.0261536,-0.456879,0.620392,-0.636841,-12078,-22759,-20246,-3382,-29340
641286,-50.8471,-3.97646,8.63721,-103.107,-33.6401,-134.594,-63.9038,36.2549,-45.8984,0.0227661,-0.456543,0.620758,-0.636871,-6703,27161,1515,-3382,-29340
641292,-47.3826,-0.665137,8.54629,-103.293,-33.5193,-134.857,-82.3975,27.4048,-14.2212,0.0205994,-0.455292,0.622131,-0.636475,2513,10521,20715,-3382,-29340
641298,-56.3356,-49.3493,30.1226,-103.755,-32.8601,-135.132,-139.709,4.08936,91.9189,0.0202332,-0.44931,0.630829,-0.632202,-31537,-19944,-12053,-3382,-29340
641304,-44.2292,-3.26826,13.4224,-102.535,-30.4431,-135.258,148.865,-59.3262,207.153,0.028717,-0.444244,0.633301,-0.632965,-9010,32024,1516,-3382,-29340
641310,-74.2991,-76.3232,49.5264,-103.425,-27.9657,-135.209,-190.979,-128.174,436.951,0.0403137,-0.438354,0.633514,-0.6362,19150,19992,14572,-3382,-29340
641316,-82.6588,-30.381,-34.1182,-101.821,-25.2631,-135.132,313.049,-136.23,478.821,0.0536804,-0.428558,0.647156,-0.628113,-12851,11288,27628,-3424,-29335
641322,-70.4566,9.15879,43.7698,-100.047,-21.7804,-135.082,342.041,-145.63,638.184,0.0778503,-0.416473,0.6474,-0.633453,28621,6424,-25364,-3424,-29335
641328,-26.5002,6.82363,11.7858,-99.7174,-18.6713,-135.055,52.5513,-116.272,568.359,0.12851,-0.384918,0.657043,-0.635193,-820,6424,-3604,-3424,-29335
641334,-44.2244,-5.29238,24.4856,-96.4105,-15.0677,-137.395,273.56,173.34,251.648,0.141205,-0.365204,0.659332,-0.641785,-2100,12568,6381,-3424,-29335
641340,-37.1137,7.81416,-6.9002,-95.3064,-14.8645,-138.17,164.429,140.442,13.0615,0.148895,-0.349915,0.65683,-0.651031,5837,22808,15341,-3424,-29335
641346,-25.4235,-30.1226,-50.3494,-95.8447,-14.5734,-137.906,-105.469,-59.1431,10.6201,0.149048,-0.342987,0.653473,-0.65802,19917,-30696,20717,-3424,-29335
641352,9.66602,-50.7179,5.32109,-95.7349,-13.9417,-136.708,71.106,-242.371,60.5469,0.150818,-0.343719,0.656586,-0.654144,-27699,-17384,23533,-3424,-29335
641358,15.4513,16.7146,20.9829,-94.3121,-13.0353,-136.154,299.133,-123.413,132.568,0.174988,-0.343567,0.646973,-0.657776,11214,7449,22509,-3424,-29335
641364,-22.6673,18.8152,1.15801,-92.0599,-11.5741,-137.642,31.5552,55.1147,105.591,0.178558,-0.330017,0.641113,-0.669373,30926,18713,20973,-3424,-29335
641370,-6.45996,-8.06299,4.42148,-92.4445,-10.9369,-137.236,-72.876,-87.4634,86.1816,0.181793,-0.323944,0.642365,-0.670288,-14130,29721,16621,-3424,-29335
641376,2.58877,-18.7913,2.89502,-92.4445,-10.3217,-137.126,-8.78906,-27.771,83.8013,0.186981,-0.323425,0.645203,-0.666351,7375,-25575,12781,-3424,-29335
641382,-3.99082,-6.33555,4.26357,-91.7633,-9.82727,-137.373,116.638,44.4946,64.1479,0.191315,-0.32074,0.646576,-0.66507,29647,-14823,7917,-3424,-29335
641388,-7.88115,-7.73281,5.1249,-91.4886,-9.31091,-137.505,37.7197,22.2168,66.4673,0.197815,-0.311462,0.644806,-0.669312,7632,3610,1261,-3424,-29335
641394,-3.23955,-14.5995,-1.11973,-91.582,-8.38806,-137.411,-10.0708,-6.16455,50.7202,0.200958,-0.309418,0.646454,-0.667725,28880,11802,-276,-3424,-29335
641400,-5.88096,-18.2506,0.373242,-91.4062,-7.99255,-137.494,22.7051,15.4419,43.8232,0.203674,-0.307129,0.647552,-0.666901,-15152,18714,-532,-3424,-29335
641406,-6.2207,-11.3552,-1.62695,-91.1536,-7.56958,-137.444,42.0532,-11.1084,48.8281,0.205994,-0.304138,0.647766,-0.667358,6097,25114,-1556,-3424,-29335
641412,-4.66553,-13.1209,2.53135,-91.0162,-7.15759,-137.444,17.0288,-0.488281,47.8516,0.209473,-0.301636,0.647247,-0.667908,27601,31002,-2068,-3424,-29335
641418,-7.57012,-18.1645,-2.71318,-90.8789,-6.76758,-137.483,17.8833,8.78906,44.5557,0.214691,-0.296478,0.647827,-0.667999,3282,-24806,-2580,-3424,-29335
641424,-6.11543,-18.5521,-1.75137,-90.368,-5.93811,-137.313,51.8799,-29.3579,57.9834,0.21759,-0.293976,0.64743,-0.668549,22994,-20710,-1812,-3424,-29335
641430,-3.92861,-16.3604,1.88057,-90.011,-5.44922,-137.148,68.8477,-29.541,66.2842,0.221893,-0.291809,0.646545,-0.668915,-23598,-16870,-1044,-3382,-29340
641436,-6.06279,-13.4798,1.38291,-89.621,-4.94934,-137.021,74.1577,-21.7285,69.6411,0.226624,-0.289307,0.645264,-0.669678,-4398,-13286,-20,-3382,-29340
641442,-10.4843,-21.1121,2.69883,-89.2694,-4.47693,-136.879,67.1387,-23.2544,64.8193,0.231293,-0.286438,0.643921,-0.670624,14035,-9190,1005,-3382,-29340
641448,3.09121,-25.6437,15.2981,-88.8025,-3.96606,-136.423,94.2383,-83.8623,75.4395,0.242462,-0.282501,0.640137,-0.671967,-14125,-742,-1044,-3382,-29340
641454,5.23975,-9.93398,10.5034,-88.1158,-2.34009,-136.318,-22.0947,43.9453,163.696,0.249786,-0.278473,0.636719,-0.674194,3796,3099,-2580,-3382,-29340
641460,0.191406,-23.653,12.2883,-88.4125,-1.32935,-136.604,-67.8711,68.7866,176.88,0.254059,-0.272247,0.639862,-0.67215,20948,7963,-6932,-3382,-29340
641466,-2.26816,-29.6536,1.0623,-88.6047,-0.214233,-136.763,-45.4712,42.9688,200.317,0.257416,-0.265442,0.644684,-0.668976,-26924,12571,-11284,-3382,-29340
641472,-3.096,-31.673,0.545508,-88.6487,1.01624,-136.868,-14.8926,33.0811,227.6,0.26239,-0.258545,0.648773,-0.665771,-7724,17179,-15124,-3382,-29340
641478,-2.8041,-21.9974,3.10078,-88.5883,2.43347,-136.862,-0.305176,46.3257,288.94,0.276825,-0.242462,0.654877,-0.660004,-29483,25883,-18452,-3382,-29340
641484,-4.78516,-21.7198,3.11514,-88.6707,5.59204,-137.032,-18.0664,37.1094,308.228,0.284821,-0.232849,0.658356,-0.656586,-6443,29723,-18964,-3382,-29340
641490,-1.90449,-25.0503,4.24443,-88.9124,7.33337,-137.021,-50.354,23.3154,335.327,0.293335,-0.223145,0.662292,-0.652222,18902,-32741,-20500,-3382,-29340
641496,2.55527,-32.3907,5.80918,-89.1431,9.1571,-137.01,-47.9736,20.813,352.539,0.302582,-0.213501,0.667084,-0.646332,-18474,-29413,-21524,-3382,-29340
641502,6.69443,-36.7356,4.6416,-89.2749,11.1292,-137.01,-28.4424,22.8271,386.414,0.312286,-0.2034,0.671722,-0.640137,11991,-26085,-23572,-3382,-29340
641508,4.68467,-34.367,0.062207,-89.2255,13.222,-137.093,48.2178,40.1001,441.406,0.333832,-0.178833,0.67926,-0.62854,18136,-20197,-25108,-3382,-29340
641514,1.48818,-30.7446,0.16748,-88.6597,17.71,-137.28,73.0591,45.8374,451.05,0.345673,-0.164276,0.68158,-0.623596,-6696,-17637,-27156,-3382,-29340
641520,2.4835,-27.7922,-1.871,-88.2312,20.0446,-137.208,80.8716,16.7847,468.567,0.357574,-0.148926,0.683105,-0.619019,-31527,-16101,-29204,-3382,-29340
641526,3.89512,-26.7251,1.1293,-87.7258,22.4451,-137.203,101.624,32.1045,484.131,0.370667,-0.133698,0.683838,-0.614014,11738,-15845,32748,-3382,-29340
641532,0.263184,-27.2563,1.3207,-87.1436,24.873,-137.214,119.202,39.6118,490.479,0.383575,-0.117279,0.684021,-0.609192,-23845,-21989,19436,-3382,-29340
641538,6.95283,-22.1792,-0.215332,-85.6,29.7784,-136.923,151.001,24.353,503.784,0.409607,-0.0832825,0.682068,-0.599945,27100,-28389,9196,-3382,-29340
641544,0.277539,-13.9822,0.775195,-84.9792,32.2284,-137.027,138.184,73.4863,498.474,0.422699,-0.0656738,0.679962,-0.595428,15581,27931,-2325,-3407,-29337
641550,-7.32607,-15.5709,-2.95244,-84.5343,34.5905,-136.923,81.7871,39.5508,483.582,0.433899,-0.0471802,0.678772,-0.590454,2014,17947,-14869,-3407,-29337
641556,2.9333,-19.2555,-2.42129,-83.8422,36.8481,-136.417,84.2896,-22.644,471.985,0.445343,-0.0310974,0.67807,-0.583771,-8994,5403,-28437,-3407,-29337
641562,5.6752,-17.2457,-0.406738,-83.1335,39.0125,-136.148,113.037,20.2026,451.904,0.458099,-0.0169373,0.675842,-0.577057,-26912,-26854,3819,-3407,-29337
641568,-1.23457,-19.332,1.11494,-81.6998,43.2092,-135.363,91.0034,-8.97217,442.383,0.478912,0.013031,0.671204,-0.565521,30177,18458,-14102,-3407,-29337
641574,4.5124,-15.8197,-0.722559,-80.8429,45.2307,-134.824,101.379,-5.06592,432.129,0.489838,0.0267334,0.668304,-0.559113,21474,-4583,30442,-3407,-29337
641580,3.41182,-8.46494,-0.550293,-79.9915,47.0929,-134.368,110.84,9.46045,400.208,0.500122,0.0403748,0.66507,-0.55304,12515,-29927,8938,-3407,-29337
641586,-0.172266,-6.39775,-1.41641,-79.2059,48.7628,-133.951,100.037,13.9771,362.549,0.508972,0.0536194,0.661743,-0.54776,740,9753,-11031,-3407,-29337
641592,-2.6127,-10.4173,-2.10068,-78.338,50.3339,-133.473,106.934,8.48389,344.849,0.516663,0.0656128,0.658752,-0.542877,-23835,16408,13545,-3407,-29337
641598,1.01445,0.349316,-1.68438,-75.9485,53.1793,-132.281,177.368,-7.08008,314.148,0.530609,0.0883179,0.651367,-0.535034,28390,-15593,-6168,-3407,-29337
641604,-9.98662,12.2787,0.0574219,-75.0806,54.1626,-132.083,149.963,32.5317,222.168,0.536987,0.100128,0.645905,-0.533203,13287,16663,-26136,-3407,-29337
641610,-8.32617,0.717773,0.124414,-74.2621,54.7284,-131.677,104.919,-10.3149,146.973,0.540131,0.109619,0.642334,-0.532501,-3865,-17898,19176,-3407,-29337
641616,-2.71797,-5.71826,-2.9668,-73.6249,55.0305,-131.451,97.6562,-3.66211,90.8203,0.542908,0.114929,0.639099,-0.53244,-24600,14614,-537,-3407,-29337
641622,-4.00996,-7.8668,-2.91895,-73.136,55.1239,-131.391,95.2148,2.74658,45.9595,0.544189,0.118713,0.636475,-0.533447,-10007,14101,24551,-3407,-29337
641628,-2.75625,-15.48,-2.03848,-72.334,54.9591,-131.309,78.2471,-5.12695,4.08936,0.543976,0.12265,0.632263,-0.53772,25322,-17388,4839,-3407,-29337
641634,-3.79941,-18.0783,-1.72266,-72.0374,54.8492,-131.342,73.6694,-1.09863,3.90625,0.543304,0.123535,0.630554,-0.540222,-8982,17684,-14618,-3407,-29337
641640,-4.57939,-19.9732,-1.00488,-71.7517,54.7833,-131.336,63.3545,-3.96729,12.6953,0.542511,0.124451,0.629059,-0.542542,18923,-11501,-32282,-3407,-29337
641646,-3.95254,-21.5715,0.00957031,-71.521,54.7998,-131.287,46.0205,-3.05176,31.311,0.542053,0.125275,0.627686,-0.544403,-22037,27155,16102,-3407,-29337
641652,-3.80898,-23.1602,0.0478516,-71.3123,54.9371,-131.171,30.0293,-2.92969,56.1523,0.542786,0.127502,0.625854,-0.545258,18668,-18926,-16411,-3407,-29337
641658,-2.31123,-25.28,-0.177051,-70.8838,55.5908,-130.677,4.63867,-7.14111,112.793,0.544189,0.12912,0.625275,-0.544159,-29716,26386,32485,-3407,-29337
641664,-1.4499,-25.3948,-0.239258,-70.6091,56.1127,-130.303,0.305176,-5.79834,139.343,0.546448,0.131226,0.624664,-0.542084,-14356,7698,16357,-3416,-29336
641670,-1.32549,-24.6244,-0.741699,-70.2521,56.7334,-129.82,-1.95312,-9.39941,162.781,0.549255,0.134003,0.624054,-0.539246,-532,-10735,997,-3416,-29336
641676,-1.46426,-23.6291,-0.588574,-69.8071,57.4255,-129.221,-5.5542,-15.625,181.885,0.552704,0.137238,0.62326,-0.535828,12525,-28655,-12828,-3416,-29336
641682,-1.78965,-22.4711,-0.244043,-69.2578,58.1671,-128.48,-8.66699,-23.9258,194.885,0.561249,0.144409,0.621063,-0.527557,-29459,3089,30180,-3416,-29336
641688,-1.91885,-20.4757,0.660352,-67.8735,59.6448,-126.623,-17.334,-42.1753,203.491,0.566162,0.147888,0.619629,-0.52301,-18195,-13808,19172,-3416,-29336
641694,-2.23945,-19.7292,1.23936,-67.077,60.3204,-125.541,-22.8882,-51.0864,197.876,0.57132,0.151093,0.618042,-0.518341,-7955,-31472,9700,-3416,-29336
641700,-2.12461,-18.9779,1.85186,-66.2256,60.9137,-124.365,-29.1138,-62.1948,185.852,0.576569,0.153778,0.616364,-0.513733,2542,15376,484,-3416,-29336
641706,-1.34941,-19.0784,2.79932,-65.3467,61.3971,-123.146,-31.6162,-71.0449,168.03,0.581818,0.155731,0.614594,-0.509308,12782,-3313,-9501,-3416,-29336
641712,0,-19.6287,3.56494,-64.4733,61.7487,-121.948,-32.4707,-77.0874,145.569,0.591583,0.157379,0.610931,-0.501923,31982,24335,-28189,-3416,-29336
641718,3.70371,-19.9302,4.80908,-62.8748,62.0563,-119.844,-17.0288,-78.6133,89.7217,0.595703,0.157227,0.609039,-0.499359,-23314,6159,27107,-3416,-29336
641724,5.27324,-19.0497,4.52197,-62.2101,61.9849,-119.064,-0.610352,-76.2329,55.603,0.59906,0.156555,0.607147,-0.497864,-13586,-11762,15331,-3416,-29336
641730,7.03418,-17.4993,4.37842,-61.6443,61.7596,-118.542,25.1465,-69.458,18.1885,0.60141,0.155457,0.605225,-0.497681,-4114,-29426,2787,-3416,-29336
641736,7.88594,-16.0303,3.35439,-61.2433,61.3806,-118.356,49.8657,-57.0068,-21.8506,0.6026,0.154175,0.60318,-0.499146,4591,19726,-10782,-3416,-29336
641742,8.1252,-15.2742,1.8375,-60.9906,60.8588,-118.455,70.0073,-47.6074,-59.2651,0.600952,0.151093,0.599243,-0.506805,19183,-8691,28386,-3416,-29336
641748,8.98174,-12.3266,-0.736914,-60.7819,59.4635,-119.301,103.027,-33.9355,-118.896,0.598389,0.149261,0.597198,-0.512726,24303,-21747,17122,-3416,-29336
641754,9.0918,-9.58467,-2.18682,-60.8478,58.6395,-119.965,106.323,-26.9775,-139.832,0.594971,0.147156,0.595245,-0.519562,28143,31757,6114,-3416,-29336
641760,8.98652,-6.04365,-3.52666,-61.0455,57.7551,-120.767,100.769,-19.2261,-158.081,0.59079,0.144745,0.593506,-0.526917,30447,21261,-4895,-3416,-29336
641766,8.21133,-2.46914,-5.10098,-61.4081,56.8103,-121.69,88.0127,-11.1694,-175.354,0.585968,0.141876,0.592194,-0.534515,30703,12301,-15647,-3416,-29336
641772,7.47441,1.84229,-7.93857,-61.9135,55.8051,-122.673,68.0542,-7.56836,-191.101,0.574707,0.134064,0.59137,-0.5495,27887,781,28385,-3416,-29336
641778,7.3835,3.12949,-8.39795,-63.4296,53.6133,-124.821,16.2964,3.2959,-220.581,0.56842,0.128845,0.59198,-0.556549,25583,-2292,18145,-3407,-29337
641784,7.21602,4.1583,-8.72813,-64.4897,52.4213,-125.958,-21.9116,8.23975,-235.413,0.561707,0.122681,0.593506,-0.56308,22255,-3572,7393,-3407,-29337
641790,6.94805,4.4502,-9.29756,-65.7367,51.1633,-127.112,-57.1899,13.0005,-250.366,0.554657,0.115295,0.59613,-0.568848,18671,-3060,-3872,-3407,-29337
641796,6.14414,3.88076,-10.0919,-67.132,49.8175,-128.276,-88.9893,15.9302,-268.616,0.54715,0.106781,0.599762,-0.573914,13295,-244,-14880,-3407,-29337
641802,4.00039,0.717773,-10.7522,-68.6316,48.3453,-129.413,-115.784,14.4653,-291.016,0.530609,0.0860596,0.609497,-0.582611,495,14093,30176,-3407,-29337
641808,3.33525,-1.31113,-10.4651,-71.6803,44.9945,-131.462,-148.01,1.09863,-338.074,0.521606,0.0737915,0.615021,-0.586639,-6930,23565,22752,-3407,-29337
641814,1.99541,-2.72275,-9.75215,-73.158,43.1213,-132.33,-159.241,-9.0332,-361.328,0.512054,0.0604553,0.620636,-0.590637,-15378,-29171,17376,-3407,-29337
641820,1.92363,-4.56982,-8.87646,-74.5862,41.1218,-133.077,-169.25,-19.4702,-382.019,0.502075,0.0459595,0.62619,-0.594604,-25362,-12787,14560,-3407,-29337
641826,1.11494,-6.33555,-8.01992,-75.965,39.0125,-133.709,-176.819,-28.6865,-401.611,0.49173,0.030426,0.631622,-0.598511,28142,6926,14304,-3407,-29337
641832,1.00967,-7.95772,-6.95283,-77.2723,36.8097,-134.209,-181.763,-39.4897,-417.603,0.46991,-0.00323486,0.641693,-0.606049,-1811,-9458,20960,-3407,-29337
641838,0.765625,-10.6613,-5.00527,-79.7278,32.2064,-134.94,-188.66,-51.1475,-440.552,0.458435,-0.0210266,0.64624,-0.60965,-20755,19471,27360,-3407,-29337
641844,0.875684,-11.5466,-3.54102,-80.9033,29.8499,-135.17,-194.031,-54.9927,-446.594,0.446747,-0.0392761,0.650391,-0.613007,25069,-16881,-31776,-3407,-29337
641850,0.674707,-12.5802,-1.98584,-82.0679,27.4823,-135.33,-201.843,-55.9692,-450.134,0.434814,-0.0578308,0.654266,-0.615967,2285,14864,-23584,-3407,-29337
641856,1.45469,-13.4559,-0.559863,-83.2434,25.1147,-135.456,-209.106,-51.6357,-450.806,0.422638,-0.0765686,0.657959,-0.618439,-24084,-16624,-14368,-3407,-29337
641862,1.85186,-14.4416,0.62207,-84.4354,22.7527,-135.555,-216.431,-45.2271,-451.782,0.397247,-0.113861,0.66507,-0.621918,-19477,-10991,9185,-3407,-29337
641868,4.10088,-16.571,2.55527,-86.814,18.0341,-135.725,-220.276,-26.2451,-454.529,0.383972,-0.132233,0.668427,-0.623047,10731,26130,24033,-3407,-29337
641874,4.60332,-17.2505,3.58408,-87.9785,15.683,-135.829,-216.98,-12.7563,-455.139,0.370117,-0.150238,0.67157,-0.623962,-24598,-3566,-26143,-3407,-29337
641880,4.8043,-17.5137,4.58418,-89.1101,13.3319,-135.956,-212.158,2.92969,-455.139,0.355743,-0.167694,0.674438,-0.624756,2282,-32749,-8223,-3407,-29337
641886,4.22051,-17.863,5.02441,-90.2087,10.9918,-136.115,-207.764,18.7988,-454.102,0.340851,-0.18454,0.677002,-0.625549,26089,3860,12770,-3407,-29337
641892,3.4166,-18.7961,5.24453,-91.2744,8.67371,-136.285,-202.332,30.8838,-450.867,0.309692,-0.216278,0.681305,-0.626923,-2073,11797,-4382,-3407,-29337
641898,0.0669922,-19.4517,5.82832,-93.2465,4.14734,-136.642,-188.049,51.9409,-436.523,0.293823,-0.23111,0.682892,-0.627533,12775,-17387,21219,-3391,-29339
641904,-3.25391,-19.6144,5.9001,-94.1583,1.95557,-136.802,-181.519,55.9692,-427.673,0.277924,-0.245178,0.684174,-0.628052,29158,16150,-20509,-3391,-29339
641910,-6.62266,-19.8058,5.86182,-95.0208,-0.159302,-136.901,-174.194,51.2695,-416.321,0.262207,-0.258667,0.685059,-0.628418,-21531,-17130,4068,-3391,-29339
641916,-9.5751,-20.5283,6.0293,-95.8337,-2.19727,-136.934,-166.077,44.6167,-402.832,0.24707,-0.271698,0.685486,-0.628571,-9756,13079,30180,-3391,-29339
641922,-12.5467,-21.2461,6.29727,-96.5863,-4.14185,-136.879,-154.724,34.3018,-387.756,0.219177,-0.296478,0.685028,-0.628235,6627,2072,21477,-3391,-29339
641928,-16.3748,-16.815,7.84287,-97.9102,-7.81128,-136.472,-129.7,3.66211,-373.047,0.206787,-0.308441,0.683899,-0.627899,12258,26136,-14107,-3391,-29339
641934,-16.8677,-13.2118,8.94824,-98.5638,-9.63501,-136.126,-128.845,-9.52148,-380.737,0.195129,-0.320526,0.68222,-0.627411,17633,-18408,15590,-3391,-29339
641940,-17.2457,-11.848,9.82871,-99.2505,-11.5192,-135.709,-131.714,-16.7236,-397.705,0.183746,-0.332947,0.680084,-0.626678,26080,281,-22298,-3391,-29339
641946,-18.3702,-12.4653,10.8192,-99.9591,-13.4857,-135.242,-132.202,-18.9819,-419.006,0.172058,-0.345917,0.677551,-0.625732,32479,15897,5351,-3391,-29339
641952,-22.2318,-16.4992,13.5372,-100.673,-15.5402,-134.758,-131.226,-14.7095,-439.27,0.147125,-0.373016,0.670868,-0.623749,-23843,-24807,-9497,-3391,-29339
641958,-25.1269,-19.4038,14.6665,-102.025,-19.7699,-133.885,-117.981,13.5498,-455.811,0.133728,-0.386505,0.666779,-0.622925,-21796,-16615,14312,-3391,-29339
641964,-29.0076,-21.5811,15.3651,-102.568,-21.8463,-133.577,-102.417,34.1797,-445.679,0.119904,-0.399261,0.662231,-0.622528,-20773,-10983,-27672,-3391,-29339
641970,-33.7162,-23.0979,15.5518,-102.975,-23.8129,-133.401,-85.083,55.4199,-421.021,0.106079,-0.410858,0.657349,-0.62265,-17446,-7143,-5912,-3391,-29339
641976,-38.176,-23.3324,14.8148,-103.244,-25.6146,-133.352,-65.979,72.2046,-384.766,0.0926514,-0.420837,0.652374,-0.623413,-15655,-6887,15849,-3391,-29339
641982,-44.545,-17.2553,10.9341,-103.359,-27.1912,-133.434,-48.8892,85.9375,-339.355,0.0687256,-0.435272,0.642853,-0.626434,-14377,-15079,-10263,-3391,-29339
641988,-46.6218,-11.2403,8.88603,-103.31,-29.7235,-133.967,-36.8652,105.103,-253.906,0.0585327,-0.439789,0.638794,-0.628479,-14122,-23015,7402,-3391,-29339
641994,-48.0956,-4.9957,7.26865,-103.266,-30.7288,-134.374,-49.2554,109.68,-221.863,0.0492554,-0.44281,0.635468,-0.630524,-13099,32025,23018,-3391,-29339
642000,-48.4736,-0.885254,6.771,-103.304,-31.5747,-134.83,-72.1436,108.765,-190.857,0.0404968,-0.444672,0.633118,-0.632202,-10284,19737,-27158,-3391,-29339
642006,-47.1864,0.650781,6.96719,-103.464,-32.2174,-135.33,-101.99,104.797,-151.062,0.0322266,-0.445648,0.631958,-0.633148,-3629,7193,-12822,-3391,-29339
642012,-43.3439,-0.363672,8.19219,-103.705,-32.6294,-135.879,-125.061,101.929,-105.713,0.0178223,-0.444244,0.634308,-0.632355,17874,-20456,10219,-3416,-29336
642018,-41.2241,1.01924,8.97217,-104.288,-32.6953,-137.164,-152.527,94.5435,-3.90625,0.0123291,-0.441498,0.637634,-0.631073,-32303,29976,20715,-3416,-29336
642024,-48.1482,-25.1651,-12.0729,-105.018,-32.3328,-137.895,-242.126,92.8955,52.4902,0.00808716,-0.437408,0.642212,-0.629333,-13360,14872,29931,-3416,-29336
642030,-58.1636,-59.7235,27.6534,-105.397,-31.3055,-138.543,-161.011,45.166,178.955,0.00375366,-0.431854,0.65033,-0.624847,9680,280,-26389,-3416,-29336
642036,-55.1633,-33.4243,12.9678,-104.936,-29.6521,-138.862,43.0298,-39.3677,285.706,0.00576782,-0.423981,0.658478,-0.621674,-29233,-12521,-17429,-3416,-29336
642042,-92.3104,-13.341,-44.2531,-104.886,-26.8835,-139.065,-27.4048,-112.061,499.268,0.0346069,-0.402313,0.672791,-0.619843,-26930,-30441,2028,-3416,-29336
642048,-102.67,-16.5758,-20.112,-102.014,-20.6543,-137.247,312.317,-431.58,526.245,0.0619812,-0.389679,0.671539,-0.627075,16078,30743,13548,-3416,-29336
642054,-25.9978,-10.8575,37.908,-101.223,-16.8256,-134.83,302.795,-598.389,613.403,0.0958252,-0.383728,0.670898,-0.627197,974,29975,24044,-3416,-29336
642060,5.479,4.30186,44.9422,-99.3549,-14.3427,-134.44,381.592,-159.607,432.8,0.136597,-0.379333,0.670227,-0.622986,-5171,-32233,-31508,-3416,-29336
642066,-9.83828,-12.1495,50.6461,-97.5366,-13.8812,-135.72,285.4,231.934,86.4258,0.160767,-0.36734,0.666168,-0.628754,-2611,-25577,-23316,-3416,-29336
642072,-43.3583,-52.3209,-74.414,-95.647,-14.3481,-138.098,-72.876,-46.0815,-3.35693,0.151703,-0.341187,0.656647,-0.655182,16334,-8425,-14868,-3416,-29336
642078,14.2885,-58.422,5.72783,-95.1746,-13.2935,-136.203,246.887,-329.468,93.5059,0.15329,-0.341949,0.658813,-0.652222,31694,2072,-15124,-3416,-29336
642084,37.7214,-8.45537,44.9996,-92.9993,-12.3651,-135.747,448.914,-96.9238,139.771,0.170502,-0.345917,0.651306,-0.653412,-17458,12312,-18452,-3416,-29336
642090,13.6042,37.4534,19.7436,-91.5106,-11.6235,-136.516,256.714,145.874,114.929,0.185333,-0.340271,0.640076,-0.663361,-1586,20504,-24596,-3416,-29336
642096,-12.963,17.6859,13.6233,-91.6479,-11.0083,-137.098,-61.3403,111.755,86.0596,0.189697,-0.32962,0.635773,-0.6716,14799,27672,32236,-3416,-29336
642102,-4.65117,-27.6199,1.31592,-92.428,-10.3931,-137.126,49.6216,-50.354,89.8438,0.190948,-0.321106,0.646301,-0.665283,-16689,-26088,12524,-3416,-29336
642108,-1.07187,-0.617285,0.583789,-91.3898,-9.1571,-136.989,145.935,20.4468,80.2002,0.19696,-0.318542,0.645935,-0.665131,2000,-20712,-21,-3416,-29336
642114,-5.01484,7.68018,9.87656,-91.0822,-8.64075,-137.071,49.8047,16.6626,65.6128,0.202026,-0.313385,0.643219,-0.668671,21712,-15336,-11029,-3416,-29336
642120,-3.37354,0.0574219,5.45986,-91.2305,-8.15735,-137.109,-41.3208,6.83594,59.5703,0.205444,-0.309509,0.643036,-0.669617,-24112,-9704,-21269,-3416,-29336
642126,-7.01982,-15.1546,0.13877,-91.4172,-7.75635,-137.285,-51.3916,35.8276,43.5791,0.207733,-0.306915,0.645294,-0.667908,-4656,-4072,-29717,-3416,-29336
642132,-5.40244,-8.53193,-0.980957,-91.2909,-7.36633,-137.307,36.9873,-19.9585,41.4429,0.21109,-0.301544,0.648224,-0.666473,-31535,4633,24555,-3399,-29338
642138,-3.89512,-13.9774,3.92383,-91.1096,-6.61377,-137.236,-15.564,10.5591,38.3301,0.2146,-0.299622,0.647705,-0.666718,-13615,8729,20715,-3399,-29338
642144,-5.86182,-18.4516,-4.57461,-91.0931,-6.26221,-137.296,-4.27246,15.2588,35.7056,0.216461,-0.297424,0.648956,-0.665924,4818,11801,19435,-3399,-29338
642150,-7.25908,-19.9685,-4.71816,-90.8954,-5.92163,-137.307,33.6304,7.32422,34.729,0.218231,-0.295105,0.649872,-0.665466,22226,14617,18667,-3399,-29338
642156,-7.56533,-17.284,-0.430664,-90.5878,-5.55359,-137.192,58.8379,-18.1274,40.5273,0.220673,-0.292755,0.649628,-0.665924,-26158,16665,18411,-3399,-29338
642162,-5.32109,-11.2499,4.29707,-90.3131,-5.11414,-137.032,44.0063,-16.7236,57.373,0.228485,-0.288696,0.647583,-0.667053,7123,21273,17899,-3399,-29338
642168,-8.76641,-16.1355,3.34961,-89.8682,-4.27368,-136.802,39.3677,-16.1743,49.3164,0.232361,-0.286377,0.647034,-0.667267,22227,23577,16363,-3399,-29338
642174,-6.65137,-27.2275,4.12959,-89.61,-3.86719,-136.516,50.5981,-49.3774,52.002,0.23587,-0.284332,0.646515,-0.667419,-28461,25113,15339,-3399,-29338
642180,0.46416,-31.4959,13.8243,-89.1486,-3.31787,-136.291,90.1489,-36.6211,83.4351,0.240509,-0.283112,0.645325,-0.667419,-13357,27161,15851,-3399,-29338
642186,5.62734,-18.0688,10.4077,-89.209,-2.46094,-136.401,-18.6157,31.9824,145.752,0.246155,-0.280273,0.643433,-0.668365,980,28953,15595,-3399,-29338
642192,-1.871,-29.5292,2.50264,-89.5715,-1.46118,-136.708,-51.7578,65.8569,187.988,0.253357,-0.26825,0.651367,-0.662933,32212,32537,17643,-3399,-29338
642198,-3.37354,-29.979,-2.92373,-89.9176,0.796509,-137.131,-30.5786,39.3677,223.083,0.257263,-0.261108,0.655731,-0.659943,-17708,-30695,17899,-3399,-29338
642204,-3.24912,-27.931,-4.34014,-89.989,2.15332,-137.236,-17.334,31.1279,252.747,0.263123,-0.253571,0.659515,-0.656799,-1068,-28135,19179,-3399,-29338
642210,-2.84717,-27.1701,0.205762,-90.033,3.66943,-137.373,-11.2915,37.7197,287.903,0.270111,-0.245331,0.663086,-0.653503,18133,-25575,20971,-3399,-29338
642216,-2.20117,-27.5529,0.45459,-90.1868,5.33936,-137.466,-31.6162,34.668,318.665,0.277893,-0.235809,0.666809,-0.649933,-1579,-20455,28139,-3399,-29338
642222,2.51699,-35.0273,1.69395,-90.4779,9.04724,-137.598,-20.4468,31.0059,367.004,0.296143,-0.215485,0.675842,-0.639526,25558,-17639,31211,-3399,-29338
642228,4.1583,-36.5634,0.60293,-90.401,11.0907,-137.609,14.0381,14.8926,402.161,0.30603,-0.204163,0.679993,-0.634155,-12330,-15335,-31509,-3399,-29338
642234,6.04844,-33.1755,-0.00957031,-90.1428,13.233,-137.659,52.7954,23.7427,423.157,0.317474,-0.191833,0.683105,-0.629028,17367,-13543,-28949,-3399,-29338
642240,4.31143,-28.5817,0.631641,-89.7638,15.4688,-137.714,78.186,27.8931,445.251,0.329376,-0.178101,0.685181,-0.624664,-15145,-11495,-27413,-3399,-29338
642246,2.0624,-26.7729,1.14844,-89.3848,17.7155,-137.78,79.5898,30.9448,449.524,0.341766,-0.163208,0.686554,-0.620544,-6440,-10471,-24341,-3399,-29338
642252,3.00986,-25.4714,2.58398,-88.4894,22.4231,-137.791,97.229,37.4756,480.591,0.367035,-0.132935,0.688232,-0.61142,-30759,-10727,-25109,-3407,-29337
642258,-0.818262,-23.4903,1.19629,-88.0225,24.8181,-137.856,100.952,42.7246,483.948,0.379578,-0.116455,0.688629,-0.606659,12762,-12263,-27157,-3407,-29337
642264,1.86621,-19.8871,0.746484,-87.5555,27.2845,-137.802,90.271,23.6816,501.221,0.391815,-0.0997009,0.688721,-0.601715,-10022,-14311,-29205,-3407,-29337
642270,0.468945,-11.7858,0.789551,-87.2809,29.7784,-137.856,62.8052,46.814,506.409,0.404816,-0.0830994,0.688538,-0.595825,-29733,-18407,31723,-3407,-29337
642276,-9.2832,-14.6234,-0.62207,-87.2754,32.0911,-137.928,11.5356,48.8892,471.741,0.427643,-0.0513,0.690796,-0.580688,4317,32537,17387,-3407,-29337
642282,5.80918,-18.7147,2.68447,-86.6656,36.4581,-137.258,44.7998,-9.94873,446.594,0.440155,-0.0388489,0.690735,-0.572296,-8227,22041,7915,-3407,-29337
642288,-0.0765625,-13.7334,3.90469,-86.4349,38.54,-137.137,34.5459,18.9209,431.641,0.45163,-0.0255737,0.68985,-0.565094,-19746,9241,-1302,-3407,-29337
642294,-1.10059,-14.5995,4.53154,-86.1328,40.5615,-136.813,21.5454,-11.4746,423.035,0.4617,-0.0122681,0.689545,-0.557739,31711,-3560,-11542,-3407,-29337
642300,4.5124,-15.6427,3.11992,-85.7812,42.5226,-136.472,28.2593,-10.376,412.72,0.47226,-0.000244141,0.688721,-0.550018,18400,-18920,-21270,-3407,-29337
642306,-0.301465,-15.3125,-0.00478516,-85.4242,44.3793,-136.291,50.1709,13.5498,392.456,0.490997,0.0237732,0.686218,-0.536072,-7711,8472,23786,-3407,-29337
642312,-2.23945,-15.3843,0,-84.2981,47.9004,-135.95,104.187,20.0806,371.216,0.499023,0.0361938,0.684113,-0.530579,-21790,-13545,12522,-3407,-29337
642318,2.59834,-16.0398,0.497656,-83.3917,49.5319,-135.588,130.249,-3.05176,353.271,0.506592,0.0490417,0.681366,-0.525909,28643,29207,746,-3407,-29337
642324,3.48838,-4.72295,4.61289,-82.5623,51.0699,-135.566,166.687,45.105,330.322,0.514221,0.0613403,0.677399,-0.522339,13028,5143,-11287,-3407,-29337
642330,-5.12969,-1.19629,1.79443,-82.0789,52.2894,-135.829,142.212,74.3408,261.841,0.519653,0.0748291,0.673584,-0.520142,-5660,-18666,-23575,-3407,-29337
642336,-1.31592,-6.52217,-0.162695,-81.6174,53.2507,-135.956,116.516,52.1851,213.928,0.525208,0.0954285,0.668762,-0.517395,20454,-4331,16105,-3407,-29337
642342,-3.56494,-7.15381,-2.46436,-81.2439,54.5581,-136.703,96.1304,67.8101,130.127,0.526001,0.103394,0.667328,-0.516876,-1050,-31723,2025,-3407,-29337
642348,-3.08164,-10.0967,-1.64609,-81.1505,54.9866,-137.01,73.0591,56.0913,105.164,0.526215,0.109863,0.666138,-0.516876,-24089,5909,-10776,-3407,-29337
642354,-4.21094,-13.5085,-2.13418,-81.167,55.3491,-137.318,51.8799,52.9175,93.0176,0.526245,0.114838,0.665314,-0.516846,15592,-21484,-23832,-3407,-29337
642360,-5.88096,-17.2505,-1.75615,-81.1835,55.7007,-137.516,34.1187,39.5508,92.1021,0.526184,0.118866,0.664978,-0.516449,-13080,18196,29416,-3407,-29337
642366,-6.77578,-20.002,-1.37813,-81.167,56.0742,-137.565,16.1133,23.2544,98.877,0.527618,0.124939,0.664459,-0.514191,-12823,-30701,7400,-3416,-29336
642372,-7.87158,-24.567,-0.756055,-80.8978,57.0081,-137.126,-10.437,-14.0991,131.897,0.529572,0.127411,0.664062,-0.512054,15850,11795,-3609,-3416,-29336
642378,-7.08682,-26.0265,-1.21543,-80.5243,57.5903,-136.582,-13.4277,-35.4614,150.94,0.532562,0.1297,0.663361,-0.509277,-23318,-10222,-14617,-3416,-29336
642384,-5.65605,-26.3327,-1.46426,-79.953,58.244,-135.802,-12.4512,-55.7251,169.861,0.53656,0.131989,0.66214,-0.506104,1515,-30702,-25113,-3416,-29336
642390,-4.17744,-25.1508,-1.4499,-79.14,58.9526,-134.775,-9.09424,-77.0264,186.279,0.541504,0.134399,0.660278,-0.502594,24811,14866,30183,-3416,-29336
642396,-2.10068,-21.4231,-1.01445,-78.1293,59.6887,-133.517,-8.97217,-94.6655,197.693,0.553864,0.139343,0.654694,-0.495026,236,-21487,8935,-3416,-29336
642402,-1.40205,-19.5904,-0.248828,-75.5585,61.1279,-130.347,-17.2119,-126.526,205.872,0.560974,0.141479,0.651245,-0.490967,19948,25873,-794,-3416,-29336
642408,-1.13408,-18.5042,0.387598,-74.0588,61.7706,-128.469,-25.2075,-139.587,201.477,0.568451,0.14325,0.647491,-0.486816,-26900,6673,-11546,-3416,-29336
642414,-0.837402,-17.8582,0.823047,-72.4329,62.3254,-126.431,-31.0059,-152.161,192.566,0.576172,0.144379,0.643555,-0.482574,-8980,-13296,-22042,-3416,-29336
642420,-0.301465,-18.0209,1.68916,-70.7684,62.7814,-124.316,-38.3911,-158.264,179.688,0.584015,0.144867,0.639465,-0.478485,8429,32272,31974,-3416,-29336
642426,1.55996,-19.734,3.13906,-69.0436,63.111,-122.141,-39.3677,-165.71,162.476,0.599152,0.143768,0.631195,-0.470947,-26899,-5361,5094,-3416,-29336
642432,3.21084,-20.8681,4.29229,-65.6104,63.4406,-117.867,-32.5928,-166.992,128.052,0.606323,0.142395,0.626984,-0.467865,-13843,-24561,-9755,-3416,-29336
642438,4.88086,-21.6098,5.21104,-64.0063,63.446,-115.928,-23.4985,-160.828,109.863,0.612885,0.140717,0.622772,-0.465393,-1555,22543,-26395,-3416,-29336
642444,7.13945,-21.7533,6.26855,-62.5177,63.3691,-114.208,-9.0332,-149.597,91.1865,0.618805,0.138885,0.618652,-0.463623,9966,3855,22501,-3416,-29336
642450,8.9626,-20.9733,6.96719,-61.2103,63.2153,-112.775,7.26318,-133.545,70.0073,0.623901,0.137177,0.614624,-0.462677,19950,-14322,5349,-3416,-29336
642456,11.3791,-18.0018,6.36904,-60.1062,62.9901,-111.676,26.001,-114.807,46.3257,0.63089,0.134338,0.607239,-0.463715,-28946,18190,-28700,-3416,-29336
642462,10.8958,-15.9441,4.52197,-58.645,62.2925,-110.742,78.0029,-66.8945,-16.2354,0.632416,0.133423,0.604034,-0.466125,-22802,2318,18404,-3416,-29336
642468,10.178,-14.2167,2.90937,-58.222,61.7871,-110.847,104.797,-51.2085,-51.1475,0.632416,0.132874,0.601135,-0.470032,-17426,-12275,-1053,-3416,-29336
642474,10.0153,-12.25,1.49297,-57.9749,61.1829,-111.281,126.892,-35.7666,-84.4727,0.631104,0.132446,0.598297,-0.475494,-12306,-26355,-20253,-3416,-29336
642480,9.5416,-10.647,-0.100488,-57.9254,60.4962,-111.989,135.437,-21.7896,-112.305,0.62851,0.13205,0.595612,-0.482361,-7954,26125,27619,-3416,-29336
642486,7.46006,-6.00059,-3.7085,-58.0298,59.7437,-112.879,131.714,-4.02832,-155.151,0.620453,0.130432,0.591248,-0.498322,-1298,3597,-7710,-3407,-29337
642492,5.35938,-3.16299,-5.32588,-58.6945,58.0353,-115.098,120.239,2.38037,-174.377,0.615326,0.128967,0.58963,-0.506927,-18,-5876,-24606,-3407,-29337
642498,3.61758,-1.1293,-6.63701,-59.2218,57.0685,-116.29,101.379,1.2207,-191.162,0.609589,0.126801,0.588531,-0.515594,751,-14068,23522,-3407,-29337
642504,2.79932,0.526367,-7.6084,-59.8535,56.0248,-117.482,76.8433,-2.38037,-205.811,0.603546,0.123657,0.58786,-0.52417,1007,-20468,7138,-3407,-29337
642510,1.98584,2.31602,-8.48887,-60.6171,54.9097,-118.652,46.7529,-5.67627,-220.52,0.59729,0.119415,0.587708,-0.53241,-18,-24564,-9503,-3407,-29337
642516,0.985742,4.06738,-9.65166,-61.5015,53.7012,-119.773,-25.0854,-20.9961,-252.502,0.584412,0.106903,0.589355,-0.547333,-3858,-28148,25569,-3407,-29337
642522,0.961816,3.8377,-10.2498,-63.6603,50.9875,-121.866,-57.1899,-26.7334,-271.606,0.57782,0.0983582,0.591217,-0.553894,-7442,-26612,10977,-3407,-29337
642528,-0.0957031,2.89502,-10.7379,-64.8633,49.4495,-122.816,-83.5571,-37.5977,-294.373,0.570953,0.0883484,0.59375,-0.559967,-12306,-22772,-2592,-3407,-29337
642534,-0.363672,1.34463,-10.7857,-66.0938,47.774,-123.673,-104.431,-50.415,-316.833,0.563812,0.0768433,0.596649,-0.565765,-18706,-15860,-15392,-3407,-29337
642540,-0.684277,-0.45459,-9.80957,-67.3352,45.9558,-124.47,-118.591,-58.4717,-343.323,0.556396,0.0639038,0.599762,-0.571411,-25874,-5876,-25888,-3407,-29337
642546,0.425879,-5.04355,-7.46006,-68.5437,44.0167,-125.167,-132.69,-71.7773,-385.925,0.54007,0.0344849,0.606049,-0.582855,20206,22541,23520,-3407,-29337
642552,1.10537,-6.55088,-6.27813,-70.8838,39.8694,-126.414,-135.132,-73.1201,-398.193,0.531097,0.0185547,0.609009,-0.588715,9198,-25843,16864,-3407,-29337
642558,1.77051,-7.55576,-4.85693,-72.0264,37.7216,-127.007,-137.817,-65.0635,-408.447,0.521667,0.00222778,0.611816,-0.594513,-3859,-6131,11744,-3407,-29337
642564,1.70352,-8.30703,-4.26357,-73.1689,35.5627,-127.584,-142.822,-57.373,-414.368,0.511566,-0.0141602,0.614624,-0.600189,-19475,17166,7904,-3407,-29337
642570,2.3543,-8.57022,-3.99082,-74.3225,33.3929,-128.167,-147.522,-44.8608,-418.823,0.500946,-0.0306091,0.617462,-0.605591,28141,-22258,5856,-3407,-29337
642576,2.32559,-8.11084,-3.53623,-75.4706,31.2067,-128.743,-160.645,-24.231,-428.955,0.477844,-0.0631409,0.623474,-0.615509,-17684,-27633,5856,-3407,-29337
642582,3.03857,-8.26396,-3.13906,-77.8711,26.7792,-129.924,-170.654,-9.27734,-437.195,0.465363,-0.0793457,0.626678,-0.619934,20460,6160,7392,-3407,-29337
642588,2.82324,-9.25928,-3.16299,-79.129,24.516,-130.562,-180.42,7.44629,-445.984,0.452057,-0.0954895,0.630127,-0.623993,-6677,-26864,9696,-3407,-29337
642594,2.61748,-10.7857,-3.38789,-80.4034,22.2198,-131.193,-189.026,18.3716,-453.979,0.437836,-0.111572,0.63382,-0.627716,29419,7185,13792,-3407,-29337
642600,2.2873,-12.0634,-3.34961,-81.6724,19.8853,-131.803,-194.031,26.5503,-461.243,0.422882,-0.127625,0.637604,-0.631073,-2582,-22767,20704,-3391,-29339
642606,2.03848,-13.7765,-3.33047,-82.9248,17.5342,-132.402,-196.35,42.7856,-467.651,0.391174,-0.159515,0.644836,-0.636902,-8727,-13550,-21024,-3391,-29339
642612,1.79443,-14.4272,-3.51709,-85.3088,12.8046,-133.5,-195.068,47.7905,-467.712,0.374664,-0.175079,0.648102,-0.639404,16873,25107,-6432,-3382,-29340
642618,1.06709,-14.8579,-3.81377,-86.4404,10.448,-133.978,-193.848,49.1943,-465.393,0.35788,-0.190399,0.651031,-0.641632,-22040,-3565,9697,-3382,-29340
642624,-0.0765625,-14.7431,-4.01475,-87.5446,8.10242,-134.39,-194.946,46.1426,-463.562,0.341034,-0.205444,0.653625,-0.643524,1512,-32492,28129,-3382,-29340
642630,-1.55039,-14.3603,-4.1918,-88.6322,5.76782,-134.703,-197.693,39.0015,-460.632,0.324219,-0.220398,0.655884,-0.644989,21479,3861,-17183,-3382,-29340
642636,-5.44072,-13.6186,-3.85684,-89.7253,3.44421,-134.907,-204.712,26.6113,-460.388,0.291199,-0.250641,0.659363,-0.646149,-11803,9750,28898,-3382,-29340
642642,-7.06768,-13.7478,-2.67969,-91.983,-1.21948,-134.83,-218.628,-18.1274,-467.529,0.275238,-0.266479,0.660522,-0.645599,997,-20970,-12062,-3382,-29340
642648,-7.9625,-14.5899,-0.799121,-93.1586,-3.55957,-134.539,-223.938,-40.5884,-472.717,0.259705,-0.28302,0.661194,-0.644318,15332,11287,12515,-3382,-29340
642654,-8.45059,-16.2695,1.37334,-94.3561,-5.88867,-134.105,-225.403,-57.312,-474.915,0.244598,-0.300201,0.661316,-0.642334,27363,-24041,-27165,-3382,-29340
642660,-9.23057,-17.7194,3.87598,-95.5481,-8.18481,-133.561,-220.093,-69.0918,-473.267,0.229919,-0.317719,0.660889,-0.639771,-28958,4376,740,-3382,-29340
642666,-11.3791,-19.5139,9.40762,-96.7126,-10.415,-132.94,-199.341,-68.0542,-454.834,0.201935,-0.352386,0.658234,-0.633759,-19744,-10984,-3100,-3382,-29340
642672,-13.6999,-20.7628,11.2547,-98.8934,-14.6173,-131.704,-185.73,-55.9082,-436.523,0.188538,-0.368683,0.656189,-0.630737,-18721,9241,30693,-3382,-29340
642678,-16.6619,-21.4854,12.4462,-99.8657,-16.5399,-131.166,-169.128,-40.2222,-414.001,0.175537,-0.383728,0.653839,-0.62793,-19746,26649,486,-3382,-29340
642684,-19.8632,-21.8634,13.207,-100.728,-18.3472,-130.71,-152.527,-21.2402,-391.357,0.163055,-0.397339,0.651306,-0.625488,-18467,-24551,-31258,-3382,-29340
642690,-23.2463,-20.4135,13.3793,-101.492,-20.061,-130.364,-138.733,1.52588,-372.375,0.15097,-0.409424,0.64859,-0.623535,-18980,-13799,3815,-3382,-29340
642696,-30.4384,-14.767,12.628,-102.217,-21.7365,-130.128,-147.522,45.7764,-363.464,0.126831,-0.429596,0.643158,-0.620941,-23846,-2023,6632,-3382,-29340
642702,-33.7928,-14.6904,12.3074,-103.716,-25.1202,-129.919,-160.889,64.4531,-366.211,0.113892,-0.438385,0.640778,-0.619812,-26663,-487,-27928,-3382,-29340
642708,-37.1615,-16.4801,12.2021,-104.496,-26.8176,-129.919,-170.105,79.4067,-363.098,0.100128,-0.446594,0.638611,-0.61853,-29480,-2791,1001,-3382,-29340
642714,-40.7743,-19.2985,12.7429,-105.249,-28.4326,-129.996,-172.607,92.2241,-346.802,0.085907,-0.454132,0.636719,-0.617157,-28457,-6375,27881,-3382,-29340
642720,-44.8082,-21.2939,13.3267,-105.908,-29.9103,-130.182,-165.71,105.652,-314.819,0.0717773,-0.460663,0.635101,-0.615753,-27434,-12775,-12567,-3407,-29337
642726,-54.0962,-18.6621,15.1211,-106.447,-31.1627,-130.474,-147.278,106.689,-211.243,0.0461121,-0.469147,0.63324,-0.613739,-21036,31769,-28438,-3407,-29337
642732,-54.7518,-15.0924,16.2791,-107.309,-32.7887,-131.248,-141.785,97.9004,-150.33,0.0358276,-0.470978,0.633484,-0.612762,-15917,17945,-4374,-3407,-29337
642738,-53.4646,-11.2786,16.7193,-107.644,-33.1622,-131.732,-138.55,90.7593,-92.5293,0.0275269,-0.471252,0.634766,-0.611664,-8494,2585,19179,-3407,-29337
642744,-50.3733,-8.95303,16.303,-107.93,-33.2941,-132.27,-135.376,84.4727,-43.6401,0.0210266,-0.470032,0.637085,-0.610443,466,-13544,-25365,-3407,-29337
642750,-58.465,-51.048,33.3143,-108.309,-32.915,-132.902,-165.039,66.2842,59.021,0.0161133,-0.467529,0.64032,-0.609131,13521,-28904,-5909,-3407,-29337
642756,-59.8527,-35.7451,1.90928,-107.809,-32.0636,-133.391,102.112,2.2583,190.491,0.0190125,-0.456665,0.648834,-0.608276,-15409,6424,28140,-3407,-29337
642762,-82.4052,-64.657,53.3976,-105.584,-28.6908,-134.39,202.454,-46.5698,416.199,0.0274048,-0.449554,0.650299,-0.611664,9679,-6889,-21524,-3407,-29337
642768,-85.2571,-6.92412,-34.7929,-103.502,-26.2244,-134.231,415.833,-157.349,424.377,0.045105,-0.437134,0.653198,-0.616486,-24370,-18153,-6676,-3407,-29337
642774,-73.9785,-7.88594,19.1215,-102.426,-23.0603,-133.165,288.33,-334.961,529.297,0.070282,-0.426819,0.649994,-0.624725,13774,-26601,5869,-3407,-29337
642780,-16.0111,11.6136,29.6488,-101.201,-19.9677,-132.946,244.507,-171.631,553.223,0.100922,-0.418396,0.651062,-0.625122,-8499,-32489,16877,-3407,-29337
642786,-25.0838,-6.05801,5.64648,-99.9481,-17.5726,-133.709,286.621,202.393,333.191,0.142242,-0.387756,0.657227,-0.630341,-28211,-32745,29933,-3407,-29337
642792,-34.7163,-5.82354,14.5564,-96.5918,-15.1776,-136.17,211.853,184.937,125.916,0.151703,-0.369354,0.656311,-0.640106,-25395,-27113,-32019,-3407,-29337
642798,-32.4099,-6.32119,-29.5579,-95.8997,-14.7821,-136.78,91.3086,104.614,50.0488,0.154602,-0.357697,0.653748,-0.64856,-15667,-18409,-31507,-3407,-29337
642804,-15.5326,-44.4397,-6.29248,-96.0645,-14.2712,-136.203,-16.8457,-124.817,49.3164,0.155731,-0.351288,0.652893,-0.652649,-1075,-6889,31981,-3407,-29337
642810,16.9586,-32.6874,-1.11016,-95.1196,-13.4637,-135.566,208.008,-139.343,109.253,0.161743,-0.352203,0.653534,-0.650055,-32050,16920,21485,-3407,-29337
642816,-6.94326,21.7629,6.83799,-92.5543,-11.9202,-136.417,157.349,105.957,101.013,0.181976,-0.341858,0.642792,-0.660828,-14642,27928,13805,-3407,-29337
642822,-8.63242,2.73232,10.7427,-92.7246,-11.2115,-136.291,-42.9688,-35.2173,101.624,0.185455,-0.333435,0.640778,-0.666138,3023,-27624,4845,-3407,-29337
642828,0.775195,-15.5087,4.65596,-92.829,-10.6073,-136.219,-33.2031,-22.7661,83.8623,0.189972,-0.330688,0.643372,-0.663727,21455,-19176,-5140,-3407,-29337
642834,-4.60811,-12.9917,-1.53125,-92.5323,-10.0305,-136.406,39.7339,29.1748,79.5898,0.193756,-0.328003,0.645477,-0.661896,-24625,-11496,-15892,-3407,-29337
642840,-8.94824,-2.71318,0.60293,-92.0819,-9.46472,-136.412,76.5381,-5.79834,77.3315,0.196991,-0.323364,0.645874,-0.662842,15568,2329,31724,-3407,-29337
642846,-2.32559,-7.8668,4.1583,-91.9336,-8.48694,-136.318,-16.3574,-5.67627,58.1665,0.205627,-0.316956,0.644989,-0.664154,-30512,8473,26604,-3407,-29337
642852,-7.15381,-13.3984,-0.354102,-91.8677,-8.09692,-136.445,-3.23486,20.2026,43.9453,0.208435,-0.314453,0.646362,-0.663177,-10544,14105,22252,-3407,-29337
642858,-9.21621,-14.4847,-1.0001,-91.7358,-7.7124,-136.384,16.4795,-14.5874,41.3208,0.210236,-0.311493,0.647369,-0.662994,9169,18969,19436,-3407,-29337
642864,-2.86631,-12.0873,1.47861,-91.5546,-7.30591,-136.241,28.2593,-30.7617,46.4478,0.213196,-0.309479,0.64743,-0.662903,28881,24089,17388,-3407,-29337
642870,-2.01455,-14.4368,3.42617,-91.4337,-6.93237,-136.318,11.1084,13.1836,41.626,0.216949,-0.307739,0.647095,-0.662872,2770,-31207,10476,-3407,-29337
642876,-8.39316,-16.1068,-6.34512,-91.0382,-6.22925,-136.439,34.0576,1.09863,39.3677,0.220886,-0.302124,0.647736,-0.663513,20946,-26599,7404,-3407,-29337
642882,-7.929,-20.4805,-2.82324,-90.78,-5.84473,-136.329,45.8984,-20.1416,45.5933,0.223541,-0.299683,0.64743,-0.664032,-26670,-21991,6124,-3407,-29337
642888,-5.53643,-18.4324,2.87109,-90.3955,-5.37781,-136.132,72.998,-37.5977,61.7676,0.227112,-0.297638,0.646637,-0.66449,-9262,-18407,4844,-3407,-29337
642894,-6.13457,-13.1975,2.12939,-89.9835,-4.93286,-136.011,78.4302,-22.2168,59.1431,0.231964,-0.29541,0.645111,-0.665314,8147,-15079,5100,-3407,-29337
642900,-7.56533,-17.4658,4.48369,-89.6155,-4.47693,-135.818,69.397,-34.3628,62.3779,0.236359,-0.292755,0.643524,-0.666504,-24365,-9703,6892,-3407,-29337
642906,4.47891,-30.9121,15.681,-88.7531,-3.31787,-135.406,90.3931,-20.5078,108.765,0.24646,-0.288452,0.640381,-0.667725,-9005,-7143,7916,-3407,-29337
642912,4.61289,-20.0881,8.64678,-88.7531,-2.38953,-135.648,-9.76562,56.2744,160.767,0.252258,-0.284363,0.638947,-0.668671,7124,-5607,8428,-3407,-29337
642918,-0.44502,-24.299,7.31172,-88.9343,-1.30737,-135.906,-44.9829,60.1807,194.214,0.256134,-0.27771,0.641846,-0.667206,22996,-3815,7916,-3407,-29337
642924,-1.55518,-28.553,1.81836,-89.0277,-0.164795,-136.104,-27.1606,48.645,207.825,0.260406,-0.270447,0.646149,-0.664398,-25644,-2279,7404,-3407,-29337
642930,-0.588574,-28.0554,-0.13877,-89.0442,1.13708,-136.208,-8.72803,31.6772,242.31,0.265533,-0.26297,0.649872,-0.661713,12245,1050,6124,-3407,-29337
642936,-2.59834,-26.0265,4.79473,-89.0662,4.14734,-136.566,-11.2305,42.9077,299.438,0.279266,-0.245331,0.656738,-0.656067,31701,2586,6892,-3407,-29337
642942,1.05752,-26.8878,5.01006,-89.3243,5.85571,-136.675,-52.9175,43.7622,328.369,0.28714,-0.235352,0.660645,-0.652374,-11819,4634,6892,-3407,-29337
642948,2.0624,-32.1323,4.80908,-89.621,7.72888,-136.807,-59.6924,47.1191,362.61,0.295563,-0.225311,0.665833,-0.646881,13014,6938,7660,-3407,-29337
642954,3.26826,-36.9031,4.1583,-89.8627,9.68994,-136.978,-45.5933,52.8564,383.85,0.304657,-0.214325,0.671387,-0.640594,-24106,9498,8684,-3399,-29338
642960,5.89531,-38.0946,0.966602,-89.9121,11.8048,-137.06,-9.58252,33.3252,417.419,0.325256,-0.189484,0.680664,-0.628387,-22825,14874,10476,-3399,-29338
642966,3.83291,-31.5772,-0.291895,-89.5056,16.3751,-137.302,60.1807,48.0347,464.111,0.337128,-0.17511,0.683685,-0.623016,15576,16410,10732,-3399,-29338
642972,1.90449,-29.2947,0.224902,-89.1815,18.7646,-137.373,68.7256,35.5225,479.065,0.349243,-0.159454,0.685883,-0.618134,-12072,17434,10732,-3399,-29338
642978,3.94775,-28.2037,-0.961816,-88.7695,21.2201,-137.34,79.7729,18.0664,494.568,0.361938,-0.143555,0.687469,-0.612915,28633,17690,9452,-3399,-29338
642984,4.47891,-27.5434,1.7083,-88.2806,23.7579,-137.351,99.3652,31.7383,513.977,0.375427,-0.127472,0.688263,-0.607422,7130,16410,7404,-3399,-29338
642990,1.16758,-25.9786,1.91406,-87.7313,26.3287,-137.384,113.525,39.3677,520.813,0.4021,-0.0921936,0.688263,-0.596649,-28453,10010,-2325,-3399,-29338
642996,7.96729,-17.1165,0.378027,-86.5283,31.5527,-137.236,115.234,33.9355,537.903,0.415741,-0.0744019,0.687378,-0.59079,23004,4378,-8725,-3399,-29338
643002,-3.26826,-13.4032,0.947461,-86.2701,34.0906,-137.45,77.9419,82.8247,518.433,0.428986,-0.0560913,0.68631,-0.584534,7645,-2279,-15381,-3399,-29338
643008,-7.6084,-20.0833,-1.89492,-85.9351,36.535,-137.208,41.5039,7.38525,505.249,0.43988,-0.0378113,0.686737,-0.577362,-5667,-10727,-24341,-3399,-29338
643014,6.05801,-22.8443,1.81357,-85.2704,38.8971,-136.714,76.0498,-28.3203,493.408,0.452393,-0.022522,0.686279,-0.56897,-16418,-22503,30443,-3399,-29338
643020,-1.77529,-16.8868,4.83779,-84.6881,41.1932,-136.571,90.6372,25.0854,465.942,0.476074,0.00830078,0.681946,-0.555084,29664,11545,3563,-3399,-29338
643026,1.21064,-17.0304,3.84248,-83.4027,45.5493,-135.961,88.6841,1.77002,451.66,0.486389,0.0236511,0.67981,-0.548279,21217,-8680,-10262,-3399,-29338
643032,4.56982,-13.877,1.6126,-82.6556,47.5269,-135.604,101.379,10.7422,422.241,0.496796,0.0379639,0.676971,-0.541595,13026,-30952,-25366,-3399,-29338
643038,2.92373,-11.4844,1.19629,-81.8646,49.3176,-135.335,120.85,23.8037,383.972,0.506012,0.0518494,0.673889,-0.535767,1763,12312,25834,-3399,-29338
643044,3.14863,-12.2404,0.425879,-80.9747,50.9875,-135.005,132.874,19.043,362.244,0.513702,0.0653076,0.670502,-0.531158,-8733,-12777,10474,-3399,-29338
643050,1.42119,-9.48418,-1.39727,-80.0519,52.6465,-134.78,152.405,36.9263,359.009,0.5271,0.0918579,0.662659,-0.523895,-32283,-3818,-21271,-3399,-29338
643056,-4.9957,5.42637,1.71787,-78.0579,55.5688,-134.522,194.214,58.96,300.049,0.532532,0.105316,0.658234,-0.521484,19686,30486,27369,-3399,-29338
643062,-8.08213,3.49795,-0.253613,-77.2614,56.5302,-134.473,156.25,44.4946,216.98,0.536346,0.118622,0.653778,-0.520325,4583,-2283,9961,-3399,-29338
643068,-0.92832,-3.63672,-1.85186,-76.6022,57.1564,-134.495,141.418,38.7573,150.208,0.538788,0.128357,0.650146,-0.52002,-13849,31765,-5912,-3416,-29336
643074,-2.11982,-3.94297,-2.86631,-76.1902,57.5574,-134.758,131.836,54.1992,100.098,0.539917,0.135681,0.647064,-0.520844,31208,-1004,-21528,-3416,-29336
643080,-1.9667,-10.8719,-2.06719,-75.8331,57.7716,-134.995,98.938,38.5742,44.0674,0.538574,0.146149,0.642944,-0.524506,-17431,-493,12776,-3416,-29336
643086,-3.37832,-14.3507,-2.33994,-75.4541,57.9639,-135.555,83.9844,40.5884,36.5601,0.537415,0.149475,0.641449,-0.52655,18922,-31213,-2585,-3416,-29336
643092,-5.02441,-16.6619,-2.23467,-75.3497,58.0518,-135.786,65.3687,33.2031,40.0391,0.536102,0.152313,0.640411,-0.52832,-12054,4883,-18201,-3416,-29336
643098,-5.91924,-18.0257,-2.14375,-75.2673,58.1726,-135.917,45.105,24.0479,48.8892,0.535187,0.154663,0.639648,-0.529541,19435,-22766,-32281,-3416,-29336
643104,-6.27813,-18.2649,-2.22988,-75.1849,58.3429,-135.923,24.0479,13.3057,61.5234,0.534851,0.156586,0.639069,-0.530029,-17429,17938,19943,-3416,-29336
643110,-5.42158,-20.7676,-1.9332,-75.097,58.5736,-135.797,-19.7754,-9.39941,93.9941,0.536377,0.159363,0.638367,-0.528473,31724,-27119,-6426,-3416,-29336
643116,-5.1584,-21.9878,-2.64619,-74.8059,59.2548,-135.066,-34.3018,-23.0103,114.136,0.538391,0.160309,0.638214,-0.526276,-12820,17937,-20506,-3416,-29336
643122,-6.01973,-22.5812,-3.50273,-74.4708,59.6997,-134.412,-40.1611,-39.2456,132.019,0.541351,0.161163,0.63797,-0.523315,7149,-2032,31462,-3416,-29336
643128,-6.06758,-23.1458,-2.89502,-73.9325,60.1941,-133.495,-44.3115,-60.9131,148.865,0.545135,0.161987,0.637329,-0.519867,25837,-20976,18406,-3416,-29336
643134,-5.89053,-22.5381,-2.69404,-73.1854,60.7159,-132.336,-46.5088,-80.5054,161.987,0.549927,0.16272,0.636169,-0.516052,-22803,27152,6630,-3416,-29336
643140,-5.18232,-21.1121,-0.708203,-72.2296,61.2598,-130.919,-59.5093,-117.188,181.213,0.561829,0.163757,0.632263,-0.507568,7662,-5361,-13083,-3416,-29336
643146,-4.93828,-21.1552,-0.00957031,-69.8236,62.298,-127.408,-67.2607,-133.362,182.983,0.568817,0.163757,0.629791,-0.502869,21998,-21745,-23067,-3416,-29336
643152,-4.0626,-21.3801,0.91875,-68.4009,62.7374,-125.37,-72.2656,-147.522,180.237,0.576263,0.163269,0.627014,-0.497986,-30482,27151,31717,-3416,-29336
643158,-3.12471,-21.4662,1.75137,-66.8793,63.0945,-123.206,-76.2939,-158.63,172.18,0.583984,0.162262,0.623962,-0.493134,-17938,10255,19941,-3416,-29336
643164,-1.6748,-21.7629,3.05771,-65.3137,63.3362,-120.992,-76.7822,-166.809,156.555,0.591797,0.160706,0.620728,-0.488403,-6674,-6642,6629,-3416,-29336
643170,2.38301,-21.0116,4.8043,-62.276,63.3966,-116.812,-61.0352,-170.288,106.873,0.606537,0.155762,0.613892,-0.480469,13039,25614,-17948,-3407,-29337
643176,5.07227,-20.4422,5.2876,-60.9247,63.2043,-115.049,-40.8936,-163.696,74.585,0.612915,0.152588,0.610352,-0.477875,21743,9230,-30236,-3407,-29337
643182,7.19688,-19.4469,4.88564,-59.7766,62.8693,-113.67,-13.3057,-148.254,38.5742,0.618256,0.1492,0.606781,-0.476654,29167,-7155,21476,-3407,-29337
643188,8.55107,-18.6956,4.91914,-58.8208,62.4133,-112.698,20.874,-130.249,2.01416,0.622192,0.145905,0.603241,-0.477051,-30737,-22259,6628,-3407,-29337
643194,9.77607,-17.8056,4.78037,-58.0737,61.8475,-112.137,52.6123,-110.901,-32.7759,0.624634,0.142975,0.599701,-0.479187,-23057,16653,-25629,-3407,-29337
643200,11.2116,-15.3651,3.23955,-57.1729,60.4962,-112.154,106.262,-68.4204,-90.8203,0.625092,0.138153,0.592926,-0.488342,-20497,5645,22755,-3407,-29337
643206,11.9007,-13.0013,2.13418,-57.0026,59.7546,-112.643,121.887,-47.3633,-112.671,0.623291,0.136353,0.589813,-0.494873,-18961,-4340,4835,-3407,-29337
643212,12.1208,-9.71865,0.756055,-57.041,58.9911,-113.395,124.39,-26.9775,-131.165,0.620331,0.134857,0.587036,-0.502258,-18449,-13812,-13342,-3407,-29337
643218,11.8193,-5.92881,-0.866113,-57.3212,58.2001,-114.39,117.065,-7.50732,-149.841,0.616333,0.133362,0.584869,-0.510071,-18961,-21492,-32030,-3407,-29337
643224,10.6948,-2.33994,-2.52178,-57.832,57.3761,-115.582,103.333,10.437,-167.114,0.61142,0.131622,0.583435,-0.518005,-22801,31756,-1055,-3407,-29337
643230,8.02949,2.28252,-6.41689,-59.5569,55.5194,-118.466,60.4858,35.0952,-212.952,0.59903,0.126495,0.583191,-0.533813,-25361,27916,-17183,-3407,-29337
643236,6.94326,3.38789,-7.71846,-60.705,54.4427,-120.031,32.5317,38.208,-236.328,0.591644,0.122559,0.584412,-0.541565,-28945,25868,-31263,-3407,-29337
643242,5.87139,3.90947,-8.69941,-62.0178,53.2507,-121.613,0.305176,38.5742,-259.216,0.583679,0.11731,0.586487,-0.549072,-32273,25356,20193,-3407,-29337
643248,4.5124,3.07207,-9.61338,-63.4735,51.9269,-123.184,-32.7148,37.1094,-282.776,0.575226,0.110657,0.589386,-0.556213,28399,26636,6881,-3407,-29337
643254,2.81367,2.0624,-10.8719,-64.9841,50.4602,-124.673,-61.4014,27.6489,-306.946,0.566284,0.102509,0.593079,-0.562958,16879,-28148,-17440,-3407,-29337
643260,0.6125,-0.334961,-11.1925,-67.9504,47.0435,-127.205,-105.225,-4.69971,-355.53,0.547546,0.0815125,0.601654,-0.575714,10479,-20468,-27680,-3407,-29337
643266,0.545508,-2.29688,-10.4221,-69.3677,45.0989,-128.216,-124.207,-24.8413,-378.357,0.537811,0.068634,0.60611,-0.581879,3311,-9460,28640,-3407,-29337
643272,0.205762,-4.34971,-9.56553,-70.73,43.0225,-129.067,-139.282,-41.748,-398.926,0.527893,0.0541992,0.610474,-0.58786,-5650,4621,23264,-3407,-29337
643278,0.440234,-6.24941,-8.44102,-72.0264,40.8307,-129.76,-151.672,-57.0679,-416.199,0.517792,0.0384216,0.614716,-0.593658,-15378,21517,19936,-3407,-29337
643284,0.76084,-8.02471,-7.43135,-73.2733,38.5455,-130.314,-161.621,-69.7021,-432.068,0.507507,0.0215454,0.618713,-0.599243,-27410,-23027,18144,-3407,-29337
643290,1.32549,-10.0967,-4.75166,-75.6464,33.7665,-131.089,-179.504,-86.6089,-455.322,0.486115,-0.0148621,0.625885,-0.609619,6126,28686,19424,-3391,-29339
643296,1.59346,-11.1351,-3.76113,-76.8109,31.3055,-131.353,-188.416,-88.4399,-463.745,0.475006,-0.0340576,0.629089,-0.614258,-12563,-8434,20960,-3391,-29339
643302,1.85664,-12.3505,-2.33516,-77.97,28.8171,-131.561,-195.007,-88.4399,-470.825,0.463501,-0.0536804,0.632172,-0.6185,31469,24079,24032,-3399,-29338
643308,2.30166,-13.5372,-1.10059,-79.129,26.3123,-131.732,-201.05,-84.1675,-474.609,0.451569,-0.0735168,0.63501,-0.622345,6381,-5873,29152,-3399,-29338
643314,2.74189,-14.7287,-0.16748,-80.2716,23.8129,-131.863,-203.796,-80.3833,-475.83,0.439209,-0.0934143,0.637756,-0.625732,11244,6417,-19488,-3399,-29338
643320,4.75166,-16.7624,1.37813,-82.5238,18.8745,-132.105,-202.942,-58.0444,-471.313,0.413361,-0.132599,0.642487,-0.631378,-23829,-18671,-8480,-3399,-29338
643326,4.96221,-17.3271,1.73701,-83.6115,16.4575,-132.259,-197.632,-42.7856,-466.248,0.39978,-0.151367,0.644592,-0.633759,6379,19730,3553,-3399,-29338
643332,4.7708,-16.571,1.95234,-84.6661,14.0735,-132.429,-192.139,-27.9541,-462.036,0.385773,-0.169373,0.646484,-0.635956,32490,-6126,15841,-3399,-29338
643338,4.35449,-15.2646,1.72744,-85.7098,11.7059,-132.616,-191.956,-14.7705,-460.51,0.371368,-0.186646,0.648102,-0.638031,-11031,-31469,29921,-3399,-29338
643344,4.11045,-14.499,1.59346,-86.759,9.33289,-132.808,-195.007,-4.76074,-463.074,0.356506,-0.203339,0.649628,-0.639862,7913,8468,-19487,-3399,-29338
643350,3.48838,-14.9632,2.15811,-87.8137,6.93787,-133.017,-199.707,24.1089,-476.868,0.325104,-0.235901,0.652222,-0.642792,-27417,21781,15586,-3399,-29338
643356,1.79922,-15.3125,2.20117,-89.9121,2.03247,-133.495,-202.026,33.8135,-486.389,0.308289,-0.251678,0.653259,-0.644012,-15642,-5867,-28446,-3399,-29338
643362,0.75127,-14.8196,2.79932,-90.9503,-0.483398,-133.709,-203.857,39.5508,-496.582,0.290802,-0.267334,0.654022,-0.645081,-2075,29462,-6686,-3399,-29338
643368,-0.339746,-15.1833,3.75156,-91.994,-3.04321,-133.901,-207.458,45.7764,-505.615,0.272797,-0.282928,0.654388,-0.645905,8165,-1770,17123,-3399,-29338
643374,-1.69395,-17.485,4.321,-93.0212,-5.63049,-134.077,-207.581,53.4668,-512.451,0.254272,-0.298462,0.654388,-0.646454,22243,-5609,6372,-3399,-29338
643380,-6.771,-21.7485,5.32109,-94.9054,-10.7666,-134.319,-186.768,57.373,-509.216,0.216278,-0.328766,0.652985,-0.647003,25570,21784,-30236,-3399,-29338
643386,-10.4843,-21.9017,6.2877,-95.7458,-13.255,-134.385,-174.011,57.312,-500.244,0.197571,-0.34317,0.651306,-0.647217,26081,-18920,-2332,-3399,-29338
643392,-14.6139,-21.9495,6.9959,-96.5259,-15.6555,-134.418,-163.208,55.2368,-485.046,0.179291,-0.356934,0.649048,-0.647339,27872,3353,25317,-3399,-29338
643398,-19.3942,-22.1266,7.51748,-97.262,-17.9462,-134.418,-153.198,52.4292,-466.98,0.161713,-0.369934,0.646423,-0.647339,26847,23065,-12315,-3399,-29338
643404,-24.3182,-22.1361,8.54629,-97.9596,-20.105,-134.374,-143.494,46.6309,-445.068,0.144897,-0.382172,0.643463,-0.647125,16093,-13287,-19482,-3399,-29338
643410,-32.9458,-22.8204,10.7522,-99.2725,-24.0051,-134.253,-133.423,44.0674,-396.973,0.114258,-0.404175,0.637268,-0.646057,8412,-4839,9959,-3391,-29339
643416,-37.573,-22.9735,11.537,-99.8877,-25.752,-134.203,-128.906,45.4712,-373.474,0.10022,-0.413757,0.634308,-0.645203,-294,26,-27161,-3391,-29339
643422,-41.9036,-21.27,12.116,-100.492,-27.3779,-134.149,-128.296,43.5791,-352.905,0.0869446,-0.422394,0.631561,-0.644257,-5415,3354,-793,-3391,-29339
643428,-44.234,-18.8583,13.0108,-101.151,-28.8885,-134.077,-137.207,38.8794,-332.886,0.0744019,-0.430328,0.628998,-0.643066,-10792,3098,24552,-3391,-29339
643434,-44.4397,-18.5903,13.8147,-101.849,-30.2783,-134.028,-147.217,41.1377,-311.34,0.062439,-0.437622,0.626984,-0.641357,-21034,-7911,9449,-3391,-29339
643440,-48.665,-19.7627,13.4128,-103.03,-32.6678,-134.193,-136.719,62.8052,-254.395,0.0397949,-0.449493,0.624542,-0.637329,-24875,-17383,-31767,-3391,-29339
643446,-52.5027,-19.2268,13.0491,-103.425,-33.6182,-134.412,-117.92,70.1294,-219.055,0.029541,-0.453522,0.62384,-0.635742,-27436,-29415,-7703,-3391,-29339
643452,-55.948,-16.9777,11.939,-103.672,-34.3652,-134.681,-94.3604,69.5801,-178.894,0.0204773,-0.456268,0.62326,-0.634705,-27949,22553,15082,-3391,-29339
643458,-57.8621,-13.2597,10.8097,-103.788,-34.8816,-134.978,-73.1201,61.9507,-133.85,0.0130005,-0.457794,0.622803,-0.634216,-24366,8729,-29718,-3391,-29339
643464,-57.441,-9.10137,9.24971,-103.854,-35.1508,-135.269,-62.561,49.0723,-87.8906,0.00747681,-0.458252,0.622681,-0.634125,-8240,-22248,4075,-3391,-29339
643470,-61.9917,-33.6349,16.2695,-104.392,-34.7937,-135.917,-157.593,23.4985,43.8843,0.00167847,-0.456268,0.624359,-0.633972,5328,26904,17131,-3391,-29339
643476,-60.4126,-33.5583,10.3168,-104.068,-33.9038,-136.17,19.7754,-13.1836,135.132,0.000488281,-0.452789,0.630066,-0.630768,22735,11032,29163,-3391,-29339
643482,-51.3256,-13.3267,14.6617,-103.436,-32.6898,-136.34,91.7358,-40.9546,194.946,0.00628662,-0.447845,0.63266,-0.631683,-20786,-3305,-24341,-3391,-29339
643488,-73.5814,-79.0029,17.4754,-104.387,-30.5914,-136.456,-218.628,-90.332,366.272,0.0159607,-0.441925,0.634369,-0.633972,5582,-15849,-13333,-3391,-29339
643494,-79.3475,-17.528,-19.1646,-102.453,-27.9053,-136.571,362.244,-110.046,479.919,0.0257263,-0.4328,0.647736,-0.626373,9933,31767,8684,-3391,-29339
643500,-17.8104,9.75215,21.2509,-100.915,-21.1432,-135.033,192.017,-237.366,585.999,0.0808411,-0.410217,0.651276,-0.633179,-9780,28439,18924,-3391,-29339
643506,-0.062207,-13.9631,41.4251,-99.7284,-18.6493,-135.835,166.199,54.1992,475.83,0.108551,-0.397827,0.655731,-0.632355,-21556,29463,29676,-3391,-29339
643512,-28.0506,-6.52217,-3.04814,-97.8717,-16.9574,-137.181,272.4,197.571,331.604,0.124329,-0.380371,0.65976,-0.635956,-23348,-30697,-26644,-3391,-29339
643518,-36.3241,-9.85264,12.9438,-96.5094,-16.3147,-138.175,200.012,168.152,109.131,0.133636,-0.362366,0.658905,-0.645416,-17460,-21737,-18708,-3391,-29339
643524,-35.1183,-7.88115,-32.4146,-95.8667,-15.9851,-138.801,81.1157,108.948,35.0342,0.136322,-0.351868,0.656189,-0.653412,6093,1048,-9748,-3416,-29336
643530,22.2605,-35.8121,-1.65088,-95.1086,-14.6448,-137.329,231.262,-164.307,112,0.143188,-0.347595,0.656067,-0.654327,24269,13848,-9492,-3416,-29336
643536,22.5572,-2.42129,30.96,-93.3673,-13.7164,-137.708,318.359,58.6548,153.076,0.155853,-0.346405,0.650421,-0.657684,-21811,26392,-10772,-3416,-29336
643542,-8.4793,23.6004,6.06279,-92.3511,-13.0243,-138.472,156.433,138.123,105.957,0.164612,-0.336945,0.644165,-0.666534,-1843,-27112,-13332,-3416,-29336
643548,-11.1877,4.78994,6.65137,-92.5323,-12.2662,-138.345,-41.748,-35.2173,111.267,0.167328,-0.327545,0.642395,-0.672272,18894,-15592,-17684,-3416,-29336
643554,-0.669922,-15.59,2.41172,-92.6917,-11.64,-138.241,-39.856,-28.3813,86.853,0.17218,-0.324463,0.645172,-0.669861,-4658,5145,-27924,-3416,-29336
643560,-7.61318,2.42129,2.4165,-91.7798,-10.5029,-138.461,88.8062,11.9629,71.4111,0.180115,-0.317383,0.647217,-0.669189,18127,14617,31980,-3416,-29336
643566,-6.12021,2.39736,4.82822,-91.7413,-10.0305,-138.444,-2.74658,-8.78906,57.0068,0.184265,-0.31311,0.645905,-0.671326,-24113,23577,26348,-3416,-29336
643572,-4.1918,-10.8192,2.84238,-91.8402,-9.59106,-138.477,-32.8979,1.2207,50.9033,0.187347,-0.310547,0.646912,-0.670715,-1329,32281,20716,-3416,-29336
643578,-7.16338,-16.5806,-3.66543,-91.7963,-9.19006,-138.565,-3.66211,14.0381,44.3115,0.189514,-0.308136,0.648743,-0.669434,21200,-25319,16364,-3416,-29336
643584,-8.8334,-17.1548,0.105273,-91.593,-8.80554,-138.543,31.189,-7.62939,41.0156,0.191528,-0.305328,0.64975,-0.669159,-2352,-11495,9452,-3416,-29336
643590,-1.39248,-13.1975,5.79482,-91.2579,-8.01453,-138.439,9.8877,5.98145,41.9922,0.198456,-0.301178,0.648834,-0.669952,17105,-5863,8172,-3416,-29336
643596,-4.98135,-15.8676,-0.980957,-91.1371,-7.64648,-138.521,12.3901,15.1978,40.1001,0.200745,-0.298645,0.649323,-0.669891,-29231,-231,6892,-3416,-29336
643602,-7.81416,-18.5329,-4.04824,-90.9503,-7.27295,-138.554,29.0527,5.79834,42.4805,0.202759,-0.295929,0.64978,-0.670044,-10031,4890,6380,-3416,-29336
643608,-8.13955,-17.8199,-3.59365,-90.6647,-6.84998,-138.466,52.7954,-16.6626,51.5747,0.205292,-0.293335,0.649719,-0.670471,8402,10266,5100,-3416,-29336
643614,-8.72334,-17.6955,2.0959,-90.3571,-6.36658,-138.329,57.9224,-26.123,65.3687,0.209015,-0.290955,0.648895,-0.671173,-20782,18970,5868,-3416,-29336
643620,-6.31641,-18.4803,6.45039,-89.6265,-5.39978,-137.906,68.9697,-35.2783,61.8286,0.21875,-0.286224,0.646454,-0.672455,-3630,23066,6124,-3416,-29336
643626,-1.11973,-33.1803,13.6377,-89.2694,-4.86694,-137.543,71.7773,-69.5801,79.834,0.223419,-0.284027,0.64502,-0.673218,13779,26138,6636,-3416,-29336
643632,5.32109,-24.8493,16.4274,-88.6597,-4.1803,-137.483,116.15,-7.14111,111.755,0.229553,-0.282318,0.643372,-0.673462,31443,29466,6892,-3416,-29336
643638,3.49795,-11.6136,7.27822,-88.9178,-3.2135,-137.829,-64.0869,75.9277,167.175,0.235382,-0.277496,0.641327,-0.675415,-15917,32538,6636,-3416,-29336
643644,-1.49775,-26.8447,8.50801,-89.2859,-2.18628,-138.214,-85.144,82.5195,181.763,0.241119,-0.263245,0.651489,-0.669342,22996,-27366,4588,-3399,-29338
643650,-2.68926,-30.7398,1.1915,-89.5111,0.197754,-138.702,-16.7236,54.6265,233.093,0.245758,-0.255676,0.65567,-0.666504,-22828,-25318,3052,-3399,-29338
643656,-2.20117,-24.4139,0.971387,-89.5605,1.63147,-138.84,-15.9912,35.4614,268.86,0.251526,-0.247101,0.659271,-0.664001,-2092,-23014,2284,-3399,-29338
643662,-0.794336,-24.0215,7.24473,-89.7253,3.18604,-139.01,-33.3252,53.3447,294.495,0.25882,-0.238068,0.662933,-0.660858,20181,-20198,3052,-3399,-29338
643668,0.440234,-23.8396,6.0915,-90.0824,4.87793,-139.208,-71.3501,59.082,323.914,0.266418,-0.228394,0.667389,-0.656769,-21035,-16614,4332,-3399,-29338
643674,2.02412,-34.678,3.17734,-90.5823,6.72363,-139.438,-98.8159,62.5,356.445,0.282471,-0.207153,0.679779,-0.644257,-30250,-6630,9196,-3399,-29338
643680,5.74697,-37.3529,1.53125,-91.2744,10.7062,-139.807,-49.9878,37.5977,407.471,0.29129,-0.195618,0.685913,-0.63739,-810,-1510,12012,-3399,-29338
643686,6.62744,-37.9367,1.42119,-91.3074,12.8705,-139.993,-1.64795,45.9595,428.772,0.301819,-0.183258,0.690887,-0.630768,32215,3099,15340,-3399,-29338
643692,5.34023,-34.2091,-0.325391,-91.1646,15.1611,-140.213,37.6587,51.5747,457.397,0.312866,-0.169434,0.69455,-0.625214,2776,7451,18412,-3399,-29338
643698,1.72744,-29.7876,-0.521582,-90.9119,17.5067,-140.466,63.4155,57.9834,470.093,0.324646,-0.154022,0.697174,-0.62027,-23336,10523,23020,-3399,-29338
643704,5.09619,-27.7778,0.263184,-90.5823,19.9292,-140.554,70.6787,28.7476,487.488,0.349579,-0.121582,0.699982,-0.610687,-39,12827,23788,-3399,-29338
643710,2.77539,-27.8544,0.378027,-89.621,24.9609,-140.762,116.943,49.6216,514.404,0.363159,-0.104797,0.700043,-0.605774,-16678,11035,21740,-3399,-29338
643716,2.48828,-27.3376,-1.75137,-88.9838,27.5043,-140.784,130.798,27.3438,517.761,0.376007,-0.0865784,0.699615,-0.601288,30939,8475,17900,-3399,-29338
643722,8.36445,-21.9543,0.478516,-88.2422,30.0641,-140.768,148.804,26.062,522.827,0.389435,-0.068634,0.69812,-0.596771,16604,3867,13036,-3399,-29338
643728,-0.224902,-17.9348,1.85186,-87.7588,32.6019,-141.059,129.028,83.6792,518.738,0.402802,-0.050293,0.695801,-0.592407,4829,-2278,6124,-3399,-29338
643734,4.56982,-20.8776,0.521582,-86.4789,37.5568,-140.62,120.117,-20.0195,506.042,0.426544,-0.0137939,0.693115,-0.580811,-11554,-23526,-13077,-3399,-29338
643740,6.66572,-17.2361,3.3209,-85.7867,39.8749,-140.543,132.202,33.5693,481.384,0.439972,0.00228882,0.689636,-0.575043,-16673,26394,-26389,-3399,-29338
643746,-1.35898,-18.4324,3.67021,-85.1715,42.1106,-140.499,122.742,43.5181,465.942,0.450928,0.019165,0.686584,-0.569885,-23840,9754,26347,-3399,-29338
643752,-1.17236,-19.1646,1.77529,-84.4409,44.2584,-140.279,119.568,20.3857,451.538,0.460968,0.0355835,0.683716,-0.564514,-30495,-9959,12011,-3399,-29338
643758,3.22998,-14.8148,-1.0001,-83.6224,46.2799,-140.01,130.371,16.9678,427.795,0.4711,0.0509033,0.680237,-0.559143,22499,5657,-18966,-3416,-29336
643764,4.97178,-9.2832,-2.52178,-82.7985,48.1091,-139.785,142.517,22.3999,363.159,0.488586,0.0795288,0.67215,-0.550507,15588,-23272,27882,-3416,-29336
643770,4.68467,-7.30693,-1.62695,-81.0626,51.4545,-139.356,149.902,38.147,359.009,0.49585,0.0926208,0.667847,-0.547211,7397,11544,7658,-3416,-29336
643776,0.401953,-5.66563,-5.30674,-80.2771,53.031,-139.279,152.039,51.3916,339.539,0.502319,0.106079,0.663574,-0.544037,-2587,-20969,-13847,-3416,-29336
643782,-8.97217,8.95781,-0.545508,-79.4037,54.4098,-139.175,164.368,45.4102,302.246,0.507782,0.119293,0.659515,-0.541168,-16154,12823,31209,-3416,-29336
643788,-11.7523,6.33076,-1.20586,-78.6896,55.3491,-138.933,109.68,16.7847,216.248,0.512329,0.131531,0.65509,-0.539398,-30489,-19946,11241,-3416,-29336
643794,-5.05312,-5.78047,-2.5792,-77.6624,56.3654,-138.554,72.0215,9.64355,106.995,0.518524,0.144745,0.649078,-0.537384,-24,-22763,-29720,-3416,-29336
643800,-5.17754,-7.56055,-2.31123,-77.2394,56.5576,-138.323,54.0771,-9.58252,70.0684,0.519928,0.148529,0.647095,-0.537384,-21271,8213,17128,-3416,-29336
643806,-3.53623,-11.5179,-1.47861,-76.9043,56.64,-138.087,34.8511,-16.2354,48.2788,0.521088,0.150421,0.645355,-0.537842,19178,-25580,-1817,-3416,-29336
643812,-4.08174,-15.7097,-0.846973,-76.6461,56.673,-137.856,19.7754,-17.9443,39.3066,0.522003,0.151154,0.644043,-0.538269,-9238,8468,-19225,-3416,-29336
643818,-4.82822,-18.8679,-0.837402,-76.377,56.7004,-137.532,6.7749,-29.1748,40.7715,0.522858,0.151245,0.643158,-0.538483,-10261,14867,12263,-3416,-29336
643824,-4.50762,-22.2271,0.655566,-75.7837,56.8762,-136.631,-13.7329,-42.7856,61.8896,0.525909,0.150208,0.64151,-0.537781,17132,-11502,-5146,-3416,-29336
643830,-4.13438,-23.2224,1.20586,-75.4541,57.063,-136.055,-24.4751,-48.8892,78.6133,0.528168,0.149658,0.640686,-0.536713,-23316,30226,-20762,-3416,-29336
643836,-3.33047,-24.2847,1.29678,-75.097,57.3157,-135.385,-34.1187,-54.6265,95.6421,0.531006,0.14917,0.639862,-0.535004,-20,8466,29926,-3416,-29336
643842,-2.90459,-24.8445,0.947461,-74.6686,57.6398,-134.632,-37.4146,-60.3027,110.962,0.534424,0.148804,0.639038,-0.532684,21229,-11247,15846,-3416,-29336
643848,-2.44043,-24.5622,0.593359,-74.1357,58.0243,-133.742,-37.7197,-69.1528,127.808,0.538361,0.148682,0.638062,-0.529938,-8211,18193,-11035,-3416,-29336
643854,-2.98594,-23.7631,1.18672,-72.724,58.9032,-131.638,-31.9214,-85.2051,149.353,0.547821,0.149231,0.635101,-0.52359,6894,529,-23579,-3416,-29336
643860,-3.30654,-23.2798,1.44512,-71.7902,59.3536,-130.369,-26.9165,-97.168,155.029,0.553131,0.149719,0.633118,-0.520233,20974,-16368,29925,-3416,-29336
643866,-3.1917,-22.5764,1.71787,-70.719,59.7821,-128.963,-23.8037,-108.765,156.738,0.558838,0.150238,0.630676,-0.516968,-31506,32272,17637,-3416,-29336
643872,-2.78496,-22.2893,2.07676,-69.527,60.1666,-127.447,-20.1416,-118.042,155.151,0.564819,0.150604,0.627838,-0.513794,-19218,15632,4837,-3416,-29336
643878,-2.46914,-22.1074,2.40693,-68.2361,60.5017,-125.843,-15.8081,-126.648,150.208,0.570953,0.150818,0.624695,-0.510803,2543,-16881,-21788,-3407,-29337
643884,-0.521582,-21.1217,3.52666,-65.3906,60.8972,-122.47,-2.68555,-142.151,125.977,0.583221,0.150452,0.617432,-0.505859,11503,32015,29412,-3407,-29337
643890,0.794336,-20.2843,4.34014,-63.9624,60.9357,-120.833,3.479,-144.409,106.873,0.58905,0.14975,0.613403,-0.504181,19951,15119,13796,-3407,-29337
643896,2.59355,-18.9014,4.96699,-62.5946,60.8478,-119.312,9.52148,-144.714,83.8013,0.594452,0.148651,0.609283,-0.503174,26351,-1266,-2845,-3407,-29337
643902,4.57461,-17.1835,5.24453,-61.3696,60.6281,-117.993,18.6768,-139.221,55.1147,0.599243,0.147095,0.605164,-0.50293,32495,-17138,-19741,-3407,-29337
643908,5.87139,-14.8771,5.03398,-60.3094,60.2655,-116.933,29.9683,-131.287,22.2778,0.603149,0.145111,0.601166,-0.503632,-23825,17422,12259,-3407,-29337
643914,8.81904,-12.963,3.50752,-58.8483,59.1339,-115.785,56.3354,-106.201,-52.3071,0.607635,0.140015,0.593689,-0.508514,-20241,2830,-4382,-3407,-29337
643920,9.78564,-13.719,2.05283,-58.4143,58.3759,-115.73,80.2612,-89.6606,-89.6606,0.607941,0.136932,0.590363,-0.512848,-18449,-11251,-21022,-3407,-29337
643926,10.1637,-13.4846,0.794336,-58.1177,57.5464,-115.944,98.938,-74.7681,-116.76,0.606812,0.133881,0.587158,-0.518646,-17425,-24307,28130,-3407,-29337
643932,9.99141,-11.8385,-0.550293,-57.9144,56.6565,-116.351,112.061,-63.6597,-137.756,0.604523,0.130951,0.584045,-0.525543,-18193,30477,10466,-3407,-29337
643938,9.7665,-9.00566,-1.871,-57.843,55.7117,-116.949,117.493,-51.9409,-157.837,0.601288,0.128052,0.581055,-0.533203,-22545,12301,-24095,-3407,-29337
643944,7.65625,-2.57441,-5.05791,-58.1616,53.6682,-118.647,107.361,-28.8086,-198.608,0.592255,0.121826,0.576019,-0.549988,-25361,5389,23521,-3407,-29337
643950,6.80928,0.215332,-6.47432,-58.5406,52.5311,-119.669,93.3228,-23.8037,-219.788,0.586517,0.118011,0.57428,-0.558716,-29201,-500,5601,-3407,-29337
643956,6.33076,2.56006,-7.35,-59.1119,51.3171,-120.789,70.0684,-17.1509,-241.882,0.580109,0.113434,0.573059,-0.567535,31471,-4596,-12832,-3407,-29337
643962,5.59385,3.76592,-8.29746,-59.8755,50.0153,-121.981,40.4053,-11.8408,-264.221,0.573029,0.107849,0.572632,-0.576172,25327,-6644,-31776,-3407,-29337
643968,4.72295,4.25879,-9.08701,-60.8093,48.62,-123.201,7.62939,-11.0474,-284.302,0.557068,0.0929565,0.574554,-0.592285,7919,-2548,-3361,-3407,-29337
643974,3.11514,2.94766,-10.5273,-63.089,45.5438,-125.59,-57.312,-13.2446,-321.777,0.548462,0.0835266,0.576782,-0.599518,-1298,2317,-20001,-3407,-29337
643980,1.77529,1.56953,-11.0298,-64.3579,43.8464,-126.689,-85.3882,-22.7051,-339.05,0.539307,0.0728455,0.579803,-0.606262,-11538,9997,29919,-3407,-29337
643986,0.684277,0.062207,-10.6422,-65.6653,42.0337,-127.694,-108.643,-33.02,-357.666,0.529907,0.060791,0.583282,-0.612488,-23570,20493,16095,-3407,-29337
643992,0.0478516,-1.89492,-10.0249,-66.9781,40.1111,-128.6,-127.502,-43.5791,-375.488,0.520203,0.0474243,0.587097,-0.618317,28910,-31731,4575,-3399,-29338
643998,0.15791,-4.29707,-9.35977,-68.2635,38.0841,-129.402,-137.878,-53.2837,-391.479,0.510193,0.0329285,0.591064,-0.62381,-1811,3854,-13090,-3399,-29338
644004,1.3207,-6.9959,-7.36436,-70.697,33.783,-130.737,-147.217,-67.0166,-420.471,0.489136,0.00140381,0.598602,-0.634277,-18195,23566,-19490,-3399,-29338
644010,1.86621,-7.15859,-6.26855,-71.8561,31.5088,-131.309,-151.123,-69.397,-435.425,0.478027,-0.0152588,0.601959,-0.639343,28653,-18930,-24610,-3399,-29338
644016,2.45957,-7.56533,-5.5125,-73.0042,29.1742,-131.841,-155.518,-68.1763,-449.341,0.4664,-0.0324402,0.605133,-0.644287,7149,6671,-27682,-3399,-29338
644022,2.94287,-8.07734,-4.91914,-74.1412,26.7737,-132.347,-159.79,-63.5376,-463.318,0.454163,-0.0500183,0.608154,-0.649048,-17428,-29937,-27938,-3399,-29338
644028,3.48838,-8.69463,-4.00039,-75.2728,24.3237,-132.83,-165.1,-59.2651,-474.915,0.441193,-0.0678711,0.611053,-0.653625,-10261,-31216,-23074,-3399,-29338
644034,4.67988,-10.4029,-2.48828,-77.5909,19.314,-133.764,-182.007,-40.8325,-490.784,0.4133,-0.104126,0.616577,-0.661865,24555,1297,-19490,-3399,-29338
644040,5.10098,-11.8385,-2.40215,-78.7775,16.8091,-134.253,-188.721,-24.9023,-492.188,0.398315,-0.122223,0.619385,-0.665314,-9494,-29423,-14626,-3399,-29338
644046,4.88086,-13.3075,-2.52656,-79.964,14.3317,-134.736,-193.237,-11.4136,-487.549,0.382599,-0.139923,0.622284,-0.668335,19178,7186,-8226,-3399,-29338
644052,4.56982,-14.2837,-2.52178,-81.134,11.9092,-135.209,-195.679,-0.366211,-477.539,0.366486,-0.157074,0.625214,-0.670837,-21527,-20206,-290,-3399,-29338
644058,3.63672,-14.7957,-2.55527,-82.2986,9.55261,-135.681,-198.608,12.7563,-465.271,0.350189,-0.173553,0.628052,-0.672791,19432,-6125,21471,-3399,-29338
644064,1.20107,-15.102,-2.28252,-84.5782,5.0647,-136.582,-202.332,32.8369,-438.599,0.317352,-0.204102,0.63382,-0.67511,-29977,-31468,-28961,-3399,-29338
644070,-0.550293,-14.1641,-2.07197,-85.6989,2.90039,-136.989,-204.651,36.499,-429.443,0.300964,-0.218231,0.636627,-0.675568,-12570,6677,-13089,-3399,-29338
644076,-2.02891,-12.8816,-1.52646,-86.8304,0.758057,-137.351,-211.182,37.1704,-424.683,0.284637,-0.231934,0.639313,-0.675537,1510,-21739,5856,-3399,-29338
644082,-3.22998,-12.5993,-1.30156,-87.995,-1.3678,-137.664,-222.351,37.1704,-423.767,0.268372,-0.245392,0.641968,-0.674927,14053,14358,27360,-3399,-29338
644088,-4.97178,-13.3554,-1.14844,-89.1815,-3.51562,-137.906,-228.638,34.2407,-427.734,0.251984,-0.25882,0.644592,-0.673706,-31517,16151,11745,-3399,-29338
644094,-8.88603,-15.0924,1.22979,-91.5656,-7.90466,-138.098,-231.873,14.3433,-445.251,0.218994,-0.286224,0.649048,-0.669861,-24094,-18153,-26143,-3399,-29338
644100,-10.5943,-16.8581,2.96201,-92.7411,-10.1459,-138.038,-227.783,4.57764,-454.285,0.202576,-0.300537,0.650513,-0.667358,-14623,10776,738,-3399,-29338
644106,-12.006,-18.5712,5.14883,-93.8727,-12.3926,-137.889,-217.102,-2.80762,-458.313,0.186279,-0.315125,0.651306,-0.664612,-7968,-27624,29154,-3382,-29340
644112,-13.341,-18.7961,8.20654,-94.9438,-14.6118,-137.692,-203.491,-4.27246,-457.581,0.170227,-0.329681,0.651337,-0.661774,-3873,-2280,-5406,-3382,-29340
644118,-14.8101,-17.7721,11.2786,-95.9711,-16.7981,-137.483,-195.557,1.95312,-453.613,0.15451,-0.343933,0.650665,-0.659058,-3107,-27111,-3101,-3382,-29340
644124,-19.3512,-17.7194,14.5277,-97.9211,-21.0498,-137.17,-186.646,30.1514,-442.322,0.123199,-0.370422,0.648163,-0.653717,-5412,-11495,31972,-3382,-29340
644130,-23.0166,-18.9731,14.5708,-98.7836,-23.1262,-137.109,-176.636,48.0347,-437.073,0.107391,-0.382385,0.646545,-0.651245,-9765,26,1509,-3382,-29340
644136,-28.9741,-20.4853,13.4798,-99.5471,-25.1697,-137.115,-162.537,64.3311,-430.542,0.0914307,-0.393341,0.644562,-0.649109,-11046,8986,-31003,-3382,-29340
644142,-34.5775,-22.2366,12.0442,-100.245,-27.1472,-137.142,-151.855,70.6787,-420.288,0.075531,-0.403351,0.64212,-0.64743,-14119,14106,2022,-3382,-29340
644148,-40.3771,-24.5335,10.5752,-100.865,-29.0314,-137.175,-139.893,72.1436,-402.954,0.0599976,-0.412598,0.639374,-0.645935,-22313,13338,-538,-3382,-29340
644154,-50.56,-26.1222,8.18262,-101.893,-32.2504,-137.219,-108.459,59.082,-332.886,0.0316467,-0.428558,0.633545,-0.643311,-26666,7450,26855,-3382,-29340
644160,-53.8904,-23.5956,7.66582,-102.299,-33.4808,-137.225,-93.8721,47.7905,-282.776,0.0198669,-0.434998,0.630768,-0.642181,-30507,-1255,-13337,-3382,-29340
644166,-55.2781,-18.9684,7.56055,-102.673,-34.4202,-137.203,-85.2661,32.8979,-227.844,0.0101318,-0.440186,0.62851,-0.641083,-30252,-10983,9704,-3382,-29340
644172,-54.8475,-13.9009,7.7041,-103.035,-35.0684,-137.192,-83.5571,21.6675,-172.485,0.00256348,-0.444183,0.627014,-0.639862,-28717,-24295,32232,-3382,-29340
644178,-53.8665,-9.24492,8.02949,-103.403,-35.4639,-137.225,-89.9658,17.395,-123.169,-0.00732422,-0.448334,0.627167,-0.63678,-17967,7705,7657,-3382,-29340
644184,-49.3876,-3.00029,10.446,-104.266,-35.6342,-137.422,-121.704,11.7798,-42.4805,-0.010498,-0.448608,0.628998,-0.634735,-7984,-10472,26089,-3382,-29340
