Timestamp,AccX,AccY,AccZ,AngleX,AngleY,AngleZ,AngularVelX,AngularVelY,AngularVelZ,QW,QX,QY,QZ,MagX,MagY,MagZ,Height,AirPressure
1710963,-7.80938,-9.32627,-1.99541,-89.8297,2.38403,-133.572,5.24902,8.11768,10.3149,0.291473,-0.265961,0.65448,-0.644836,15054,1049,-10261,-2851,-29404
1710969,-5.22061,-9.8335,0.0478516,-89.7418,2.53235,-133.489,8.60596,-11.8408,4.57764,0.292542,-0.264648,0.654541,-0.644836,-30770,10265,-12565,-2851,-29404
1710975,-1.59824,-10.178,1.72266,-89.6704,2.66418,-133.412,5.67627,-10.1929,2.31934,0.294037,-0.264069,0.654205,-0.644745,-12338,18969,-12821,-2851,-29404
1710981,-1.39248,-11.4844,3.2252,-89.6045,2.79053,-133.401,4.82178,3.2959,1.34277,0.29538,-0.26355,0.653931,-0.644623,4559,26649,-12309,-2851,-29404
1710987,-5.59385,-9.66123,1.80879,-89.4562,3.05969,-133.369,6.34766,-3.11279,3.96729,0.29715,-0.261658,0.653717,-0.644775,20687,-31719,-10005,-2851,-29404
1710993,-4.57461,-10.3455,2.21074,-89.4232,3.19153,-133.33,-1.40381,-2.0752,3.2959,0.298309,-0.260956,0.653534,-0.644745,-14385,-20711,-2069,-2851,-29404
1710999,-3.675,-10.8001,0.172266,-89.3793,3.31238,-133.292,1.0376,-2.0752,2.56348,0.299316,-0.260345,0.653564,-0.64447,-561,-16103,1772,-2851,-29404
1711005,-3.32568,-12.1112,0.0478516,-89.3188,3.43872,-133.231,5.00488,-6.10352,4.57764,0.300323,-0.259766,0.653534,-0.644287,12752,-11495,5356,-2851,-29404
1711011,-2.04326,-11.0585,0.880469,-89.209,3.58704,-133.154,14.6484,-8.42285,8.36182,0.301544,-0.259216,0.65332,-0.644135,25040,-7143,9196,-2851,-29404
1711017,-3.68457,-10.0584,0.756055,-89.0497,3.94409,-133.094,7.69043,1.09863,18.0054,0.304352,-0.257477,0.65271,-0.644165,-28976,-3047,12524,-2851,-29404
1711023,-3.78984,-9.8,1.24414,-88.9783,4.13086,-133.022,8.60596,-6.7749,18.4326,0.305695,-0.256378,0.652679,-0.643982,-6960,3866,20716,-2851,-29404
1711029,-1.92842,-9.35977,1.71309,-88.9069,4.31213,-132.929,7.62939,-11.2915,17.2729,0.307312,-0.255493,0.652527,-0.643738,4049,6170,25068,-2868,-29402
1711035,-1.1915,-9.15879,2.17246,-88.8464,4.48242,-132.858,4.94385,-5.79834,16.5405,0.30896,-0.254791,0.652313,-0.643402,15313,8730,29932,-2868,-29402
1711041,-2.33994,-9.88135,2.31123,-88.819,4.65271,-132.803,0,-3.96729,16.4185,0.310425,-0.254028,0.652222,-0.643097,25553,11290,-31252,-2868,-29402
1711047,-3.60801,-9.37412,2.04805,-88.7585,4.98779,-132.715,-0.793457,-0.915527,16.1743,0.313019,-0.252472,0.652435,-0.642273,-29999,14106,-27668,-2868,-29402
1711053,-2.45,-8.92432,1.93799,-88.7366,5.1416,-132.638,-1.2207,-7.26318,15.1978,0.314209,-0.251709,0.652557,-0.641846,-10287,18458,-21012,-2868,-29402
1711059,-2.0002,-9.2832,1.88057,-88.7256,5.29541,-132.589,-4.15039,-1.64795,14.7705,0.315552,-0.25116,0.652588,-0.641357,-303,20250,-17428,-2868,-29402
1711065,-2.76582,-9.91006,1.48818,-88.7256,5.44922,-132.567,-5.24902,3.78418,16.2354,0.31665,-0.250519,0.652771,-0.640869,9426,21274,-13588,-2868,-29402
1711071,-3.60322,-10.1062,0.861328,-88.7091,5.61401,-132.528,-2.68555,0.732422,17.6392,0.317657,-0.249725,0.653076,-0.640381,18642,22298,-9748,-2868,-29402
1711077,-2.21074,-9.97227,0.540723,-88.6267,5.91614,-132.44,5.18799,0.244141,14.8315,0.319977,-0.24823,0.653351,-0.639557,-29742,24346,-2580,-2868,-29402
1711083,-1.82314,-10.3407,-0.46416,-88.5663,6.05347,-132.396,6.95801,-0.244141,14.2212,0.321075,-0.247498,0.65329,-0.639343,-21806,25370,749,-2868,-29402
1711089,-1.3877,-11.3025,-0.200977,-88.4839,6.19629,-132.352,12.8174,0.488281,16.2964,0.322205,-0.246765,0.653168,-0.63916,-12590,26650,4845,-2868,-29402
1711095,-1.80879,-10.9532,-0.698633,-88.3521,6.3446,-132.347,22.8271,7.56836,16.6626,0.323425,-0.245911,0.652924,-0.63913,-3886,27930,8941,-2868,-29402
1711101,-3.18213,-10.8719,-1.00967,-88.1873,6.48193,-132.33,30.5786,6.10352,15.8081,0.324524,-0.244751,0.652527,-0.639435,4563,28954,13805,-2868,-29402
1711107,-2.97637,-10.4125,-0.62207,-87.7808,6.74011,-132.242,37.8418,0.793457,13.5498,0.327118,-0.242432,0.650909,-0.640625,20691,31514,23533,-2868,-29402
1711113,-3.20605,-10.6853,-0.291895,-87.5226,6.86096,-132.182,49.0112,-2.99072,13.855,0.328461,-0.241364,0.649963,-0.641327,28371,32538,27373,-2868,-29402
1711119,-3.96211,-11.6566,-1.40205,-87.2809,6.99829,-132.105,46.3867,-5.06592,17.2119,0.329987,-0.240265,0.648651,-0.642242,-29229,-31718,29421,-2868,-29402
1711125,-4.47891,-13.0491,-0.0191406,-86.9843,7.15759,-131.957,55.2979,-18.7988,22.583,0.331665,-0.239197,0.647461,-0.643036,-21293,-29670,31469,-2868,-29402
1711131,-3.1917,-11.3552,0.421094,-86.6217,7.32239,-131.77,68.5425,-27.1606,25.3906,0.333923,-0.23822,0.645844,-0.643829,-14125,-27878,32493,-2868,-29402
1711137,-2.23467,-8.98174,1.73701,-85.9241,7.66296,-131.396,61.4014,-26.7944,27.6489,0.339294,-0.236176,0.641724,-0.645905,980,-24294,31213,-2868,-29402
1711143,-2.55049,-10.178,1.78008,-85.6219,7.83875,-131.193,55.481,-29.48,28.5645,0.34198,-0.235229,0.639862,-0.646667,8148,-22502,30189,-2868,-29402
1711149,-2.20596,-10.9484,1.36855,-85.3143,8.02551,-130.974,56.4575,-31.8604,32.0435,0.344666,-0.234406,0.638123,-0.647247,16084,-21478,28397,-2876,-29401
1711155,-2.36865,-10.58,1.04795,-84.9792,8.22876,-130.77,62.9272,-28.0762,34.8511,0.347504,-0.233582,0.636383,-0.647766,24276,-20198,26605,-2876,-29401
1711161,-3.19648,-10.1254,0.579004,-84.6167,8.43201,-130.567,67.3828,-27.2217,36.1328,0.350372,-0.232452,0.634521,-0.648438,32468,-19430,25581,-2876,-29401
1711167,-2.1916,-9.14922,0.507227,-83.8751,8.84949,-130.078,68.4204,-38.3911,38.3301,0.356445,-0.230103,0.630432,-0.649963,-16172,-18662,23277,-2876,-29401
1711173,-1.82793,-8.63242,1.1915,-83.5071,9.06921,-129.814,66.8335,-37.6587,41.8091,0.359711,-0.229126,0.628296,-0.650574,-7980,-18150,20717,-2876,-29401
1711179,-2.10547,-9.7043,2.45479,-83.205,9.31641,-129.595,55.4199,-29.8462,46.5698,0.363007,-0.228058,0.626221,-0.651123,725,-17894,17133,-2876,-29401
1711185,-2.05762,-10.8192,4.10566,-83.0127,9.61853,-129.37,33.2642,-27.9541,58.8379,0.366119,-0.226837,0.624634,-0.651337,9685,-17638,12269,-2876,-29401
1711191,-1.36855,-11.8959,3.60801,-82.8644,9.9646,-129.139,23.6206,-28.1982,67.3218,0.369293,-0.225586,0.62381,-0.650757,19157,-17382,8941,-2876,-29401
1711197,-1.05273,-11.5992,3.79941,-82.4249,10.7007,-128.716,39.2456,-20.2026,75.2563,0.376038,-0.222595,0.622528,-0.649139,-26923,-16870,3565,-2876,-29401
1711203,-2.47871,-10.4795,2.58877,-82.2272,11.0907,-128.546,34.5459,-14.7095,77.0264,0.379456,-0.220581,0.621735,-0.64859,-16939,-16358,749,-2876,-29401
1711209,-3.26826,-10.6278,2.43086,-82.0514,11.5027,-128.359,29.1138,-16.7236,82.1533,0.382721,-0.218475,0.621185,-0.647919,-6187,-16358,-1556,-2876,-29401
1711215,-2.87588,-11.4126,3.16299,-81.8646,11.9421,-128.145,29.2969,-20.0806,88.7451,0.386139,-0.21637,0.620789,-0.646973,5078,-16102,-3092,-2876,-29401
1711221,-2.62227,-11.9916,3.01465,-81.6888,12.3981,-127.941,27.8931,-17.7002,92.2241,0.389801,-0.214203,0.620392,-0.645905,17622,-15846,-5140,-2876,-29401
1711227,-1.9667,-11.8911,3.71807,-81.3428,13.3539,-127.54,25.0854,-14.5264,98.6328,0.397186,-0.209473,0.619781,-0.643524,-21290,-16614,-6932,-2876,-29401
1711233,-2.47871,-12.0873,4.43105,-81.178,13.8702,-127.348,24.9023,-11.9019,105.53,0.400879,-0.20694,0.619629,-0.642181,-8746,-17126,-8724,-2876,-29401
1711239,-2.54092,-12.6759,4.17266,-81.0406,14.4305,-127.172,20.0195,-7.69043,113.098,0.404694,-0.204163,0.619568,-0.640747,4567,-18150,-11028,-2876,-29401
1711245,-2.7084,-13.6999,3.79463,-80.9033,15.0128,-126.996,18.9209,-3.78418,118.286,0.408508,-0.201172,0.619751,-0.639099,18647,-19174,-14356,-2876,-29401
1711251,-2.52656,-13.5611,4.58896,-80.744,15.6335,-126.804,23.9258,-3.90625,127.014,0.412476,-0.198059,0.620026,-0.637268,-32041,-20454,-17940,-2876,-29401
1711257,-1.83271,-13.3362,4.6416,-80.4639,16.9354,-126.524,20.0806,9.0332,135.559,0.420654,-0.190918,0.620575,-0.633545,1240,-24038,-26900,-2876,-29401
1711275,-5.01006,-18.3941,1.95713,-80.2222,19.2645,-126.211,13.7329,17.6392,170.227,0.432648,-0.178131,0.623291,-0.626465,-13864,-29670,28652,-2884,-29400
1711281,-3.92861,-15.925,2.39736,-80.0903,20.1434,-126.074,19.5312,16.7236,179.26,0.442017,-0.167847,0.625305,-0.620758,3289,-30950,25836,-2884,-29400
1711287,-2.79932,-14.0253,3.39268,-79.7827,22.0605,-125.782,20.5688,19.6533,200.989,0.447144,-0.16217,0.62616,-0.617706,-23847,32538,20204,-2884,-29400
1711293,-2.9668,-15.011,4.09131,-79.6838,23.0768,-125.656,12.4512,25.2686,208.618,0.452362,-0.156158,0.627197,-0.61438,-2599,30746,17132,-2884,-29400
1711299,-2.47393,-16.4849,4.95742,-79.6124,24.1479,-125.552,7.93457,31.25,217.651,0.45752,-0.149963,0.628571,-0.610687,17882,29466,13804,-2884,-29400
1711305,-2.4835,-17.9874,6.04365,-79.5245,25.2905,-125.431,9.58252,31.8604,234.619,0.462677,-0.143463,0.630188,-0.606689,-25894,27930,9708,-2884,-29400
1711311,-1.28721,-19.8536,4.58896,-79.4641,26.4935,-125.338,5.43213,38.4521,245.972,0.473785,-0.129089,0.633636,-0.597717,-3366,25882,4844,-2884,-29400
1711317,-1.804,-21.9926,2.8376,-79.3927,29.1248,-125.162,-2.99072,48.7061,276.611,0.479645,-0.121216,0.635529,-0.592651,-20517,20250,-3093,-2884,-29400
1711323,-3.22041,-23.8779,2.84717,-79.3268,30.5914,-125.046,3.84521,45.8374,301.147,0.485474,-0.112915,0.637817,-0.587067,5596,16666,-6677,-2884,-29400
1711329,-3.13906,-26.2992,0.358887,-79.2444,32.1515,-124.882,2.13623,41.1377,323.608,0.491943,-0.103882,0.639893,-0.581055,31196,12570,-10005,-2884,-29400
1711335,-4.70859,-27.9357,-0.478516,-79.0741,33.8434,-124.678,14.9536,40.1611,350.952,0.498962,-0.0943909,0.641937,-0.574402,-6948,8474,-13077,-2884,-29400
1711341,-3.40225,-33.587,-4.55547,-78.3929,37.4634,-123.964,40.7715,17.2729,394.653,0.514832,-0.0730896,0.644806,-0.560089,21981,2586,-15637,-2884,-29400
1711347,-5.27324,-35.8935,-3.7085,-77.9041,39.4574,-123.53,50.0488,22.4609,420.41,0.523895,-0.0614014,0.645264,-0.552521,21982,-12263,-24085,-2884,-29400
1711353,-5.66084,-36.8122,-4.49326,-77.2614,41.5997,-122.932,57.312,10.1318,456.055,0.533234,-0.048645,0.645508,-0.544495,-7458,-21991,-29973,-2884,-29400
1711359,-1.56953,-35.3097,-1.74658,-76.4319,43.8959,-122.135,63.8428,-3.78418,494.324,0.543549,-0.0350342,0.645203,-0.535645,31199,-32487,27627,-2884,-29400
1711365,0.641211,-33.965,1.22021,-75.6519,46.3568,-121.333,48.8281,14.2212,527.222,0.554871,-0.0205383,0.644226,-0.525879,3552,22553,19435,-2884,-29400
1711371,-0.617285,-40.1618,-1.21064,-74.0314,51.6907,-119.317,14.8926,8.72803,590.759,0.577423,0.0105591,0.643951,-0.501709,-22304,10009,11499,-2884,-29400
1711377,-6.01973,-38.4631,1.8375,-73.0811,54.4812,-118.246,25.2686,38.5132,599.67,0.589478,0.0267029,0.643433,-0.487549,-2079,-21736,-4886,-2884,-29400
1711383,-11.9438,-43.0903,1.78008,-71.7407,57.1893,-116.647,10.5591,-4.76074,598.755,0.600464,0.0439758,0.643066,-0.473175,-21534,23320,-13590,-2884,-29400
1711389,-0.799121,-41.9993,5.17275,-69.3237,59.7986,-114.055,47.1191,-79.4678,612.732,0.612244,0.059906,0.641479,-0.458221,26339,-233,-24598,-2884,-29400
1711395,0.75127,-35.4676,7.80938,-66.9727,62.4188,-111.676,60.4248,-15.8081,604.309,0.625885,0.0756226,0.636749,-0.443878,7140,-23273,29418,-2884,-29400
1711401,-3.81855,-42.1955,-2.92852,-60.4083,67.1429,-104.832,48.7671,-82.3975,579.895,0.647858,0.108429,0.629517,-0.414856,-9756,15383,16618,-2884,-29400
1711407,6.20156,-40.4154,-7.10596,-55.7721,69.0985,-100.283,89.5996,-82.2144,548.157,0.659607,0.123047,0.623627,-0.400909,25574,17686,-11799,-2884,-29400
1711413,7.01504,-34.5584,-8.01514,-50.7898,70.7684,-95.625,126.099,-58.8989,498.108,0.670135,0.137909,0.616943,-0.388824,10983,-19435,-27671,-2884,-29400
1711419,10.2594,-25.079,-12.7237,-45.022,71.944,-90.2197,136.292,-102.661,446.594,0.678589,0.152771,0.610352,-0.378876,-4121,6421,20969,-2884,-29400
1711425,15.1642,-19.4899,-8.94346,-39.0839,72.7075,-84.8364,167.236,-111.206,387.451,0.68692,0.165771,0.602478,-0.370911,-21272,29972,3049,-2884,-29400
1711431,14.4703,22.9783,3.24912,-28.3447,73.6853,-76.322,305.054,-8.91113,257.507,0.699951,0.190674,0.584778,-0.362854,23785,-10733,-14872,-2884,-29400
1711437,-1.13887,28.9311,-6.67051,-26.6913,73.537,-75.3223,146.362,-59.9365,82.3975,0.700745,0.205139,0.578156,-0.363953,-24598,-29934,8424,-2884,-29400
1711443,15.3173,6.9624,-5.88096,-26.6803,72.9053,-75.498,42.1143,-118.103,-18.9819,0.701385,0.209503,0.574036,-0.366821,12779,-6895,-16409,-2884,-29400
1711449,17.3127,0.497656,-8.93867,-28.3722,72.3285,-77.4097,32.3486,-60.6689,-107.178,0.702728,0.207184,0.570709,-0.370697,-18965,18449,23271,-2884,-29400
1711455,10.4508,-1.22021,-5.23496,-30.9595,71.6089,-80.1343,7.69043,-53.7109,-170.105,0.701202,0.203308,0.57016,-0.376526,11500,-18416,-2842,-2884,-29400
1711461,14.2119,-11.2834,-3.76592,-37.0129,69.7797,-85.9955,-55.7251,-42.6025,-225.403,0.696167,0.18869,0.571838,-0.390686,-3348,-13041,16102,-2884,-29400
1711467,12.8146,-13.1927,-3.91426,-40.177,68.8513,-88.9838,-66.9556,-27.71,-232.483,0.692657,0.179474,0.574249,-0.397644,16365,30735,-6171,-2884,-29400
1711473,12.6328,-13.0539,-4.44063,-43.1268,67.8516,-91.7303,-73.3643,-30.7007,-236.389,0.688629,0.169983,0.577301,-0.404327,32493,14095,-25627,-2884,-29400
1711479,13.7143,-12.2596,-3.91426,-45.9723,66.8353,-94.3726,-74.9512,-18.7988,-240.173,0.68454,0.160156,0.580322,-0.41095,-20499,2575,21733,-2884,-29400
1711485,13.341,-11.1063,-3.42139,-48.7299,65.8081,-96.9653,-70.1294,-3.84521,-244.873,0.679932,0.150391,0.583679,-0.41745,-11283,-4338,4581,-2884,-29400
1711491,11.7667,-9.78086,-3.26826,-53.7616,63.5889,-101.755,-61.0352,5.7373,-257.263,0.669128,0.1315,0.590973,-0.430817,-1043,-7410,-24604,-2868,-29402
1711497,10.7857,-9.75693,-3.47881,-56.0852,62.4188,-104.019,-54.1382,14.3433,-263.306,0.663116,0.122101,0.594666,-0.437775,494,-4338,28132,-2868,-29402
1711503,8.91953,-9.22578,-3.49795,-58.2385,61.1829,-106.139,-50.354,14.5264,-270.02,0.656586,0.112915,0.598389,-0.444946,494,1551,16868,-2868,-29402
1711509,8.49365,-8.12998,-3.38311,-60.2106,59.881,-108.083,-48.1567,11.5967,-275.818,0.64978,0.103668,0.601959,-0.452301,-1811,10511,8164,-2868,-29402
1711515,7.53184,-6.36426,-3.26348,-62.0947,58.5132,-109.946,-49.4995,14.9536,-285.889,0.642792,0.0942688,0.605347,-0.459778,-5907,22031,1252,-2868,-29402
1711521,6.04844,-2.69404,-3.43096,-65.6488,55.459,-113.351,-67.627,9.76562,-320.129,0.627563,0.0743103,0.612213,-0.475128,-18451,-15345,-7197,-2868,-29402
1711527,5.87139,-2.01934,-3.83291,-67.3462,53.7561,-114.884,-81.4819,5.67627,-339.966,0.619354,0.0631104,0.615692,-0.48291,-27667,784,-9245,-2868,-29402
1711533,5.92881,-2.51221,-3.84727,-69.0051,51.9269,-116.301,-96.4966,1.83105,-359.924,0.610718,0.0509338,0.619293,-0.490692,26861,18448,-11037,-2868,-29402
1711539,5.89531,-3.7707,-3.55537,-70.6256,49.9988,-117.609,-112.061,-0.305176,-377.319,0.601593,0.0377502,0.622955,-0.498444,13293,-26608,-11805,-2868,-29402
1711545,5.6417,-5.36895,-3.096,-72.1912,47.9828,-118.784,-125.916,-4.21143,-390.137,0.59198,0.0236206,0.62674,-0.506042,-1812,-3568,-11293,-2868,-29402
1711551,5.31152,-9.20664,-2.08154,-75.108,43.7695,-120.751,-143.311,-9.94873,-406.433,0.571716,-0.00680542,0.634186,-0.520386,25068,-16367,-6685,-2868,-29402
1711557,4.96699,-10.9724,-1.58867,-76.4319,41.6217,-121.564,-145.081,-11.3525,-408.813,0.561096,-0.0226746,0.637695,-0.52713,3564,11282,-3357,-2868,-29402
1711563,4.65596,-12.494,-0.980957,-77.6569,39.4629,-122.272,-143.494,-13.6108,-408.02,0.550262,-0.0386353,0.64093,-0.533661,-21013,-24814,2788,-2868,-29402
1711569,4.02432,-13.6712,-0.483301,-78.783,37.3151,-122.888,-138.672,-14.0991,-405.212,0.539337,-0.0545349,0.643799,-0.539948,17387,5907,11236,-2868,-29402
1711575,3.35918,-14.5469,0.0957031,-79.8102,35.1837,-123.431,-132.324,-13.916,-400.757,0.517212,-0.0855408,0.648346,-0.552002,-12822,-28397,21220,-2868,-29402
1711581,2.16768,-14.7431,1.11016,-81.5955,30.976,-124.316,-118.713,-14.8315,-394.47,0.506104,-0.100555,0.649963,-0.557831,-15127,-29932,-21276,-2868,-29402
1711587,2.29688,-14.4751,1.47383,-82.3865,28.8885,-124.673,-114.807,-15.3809,-393.127,0.494995,-0.115295,0.651154,-0.563538,15593,533,-10268,-2868,-29402
1711593,2.33516,-14.7813,1.73223,-83.1335,26.8011,-124.991,-112.61,-13.855,-393.005,0.483795,-0.129852,0.652008,-0.569092,-21528,30741,2533,-2868,-29402
1711599,2.28252,-15.1307,1.99541,-83.8477,24.7137,-125.288,-110.596,-10.437,-393.799,0.472473,-0.144226,0.652527,-0.574493,4584,-4587,16101,-2868,-29402
1711605,1.55039,-15.6092,2.23945,-84.5288,22.6263,-125.563,-108.459,-8.11768,-394.897,0.449219,-0.172485,0.652863,-0.5849,27879,25110,31205,-2851,-29404
1711611,-0.0430664,-17.0543,3.02422,-85.7922,18.457,-126.046,-103.577,-2.13623,-395.996,0.437286,-0.186371,0.652557,-0.589966,1766,17175,-1051,-2851,-29404
1711617,-0.756055,-18.1549,3.30176,-86.391,16.4026,-126.26,-102.6,1.09863,-393.25,0.425262,-0.200012,0.652039,-0.594849,18149,-21481,16358,-2851,-29404
1711623,-1.95713,-18.9253,3.43574,-86.9678,14.3756,-126.458,-102.417,4.57764,-388.672,0.413177,-0.213379,0.651306,-0.599518,-29212,3352,32742,-2851,-29404
1711629,-3.05293,-19.466,3.75156,-87.5336,12.3926,-126.617,-103.699,3.41797,-381.531,0.401093,-0.22644,0.650452,-0.603882,-13341,26392,-15130,-2851,-29404
1711635,-3.30654,-20.3082,4.03389,-88.1049,10.459,-126.744,-107.056,4.5166,-373.413,0.37738,-0.25174,0.648315,-0.611389,1507,-17640,4071,-2851,-29404
1711641,-4.42148,-22.385,4.18701,-89.2529,6.75659,-126.947,-113.098,7.99561,-355.286,0.365753,-0.263824,0.647247,-0.614471,25569,21785,-19737,-2851,-29404
1711647,-5.26846,-22.9927,4.55068,-89.8352,4.96582,-127.013,-116.15,8.42285,-350.342,0.354309,-0.275604,0.646149,-0.617157,-29472,-27367,232,-2851,-29404
1711653,-6.10586,-23.0932,5.1249,-90.4285,3.16956,-127.057,-120.178,7.62939,-353.821,0.342926,-0.28717,0.64502,-0.619476,-17185,-12775,18920,-2851,-29404
1711659,-6.62266,-23.1075,5.41201,-91.0327,1.30737,-127.068,-123.962,5.61523,-368.103,0.331421,-0.298767,0.643768,-0.621552,-6178,26,-28184,-2851,-29404
1711665,-8.0582,-24.6675,4.38799,-91.6425,-0.653687,-127.057,-124.817,4.08936,-391.846,0.306946,-0.323212,0.640167,-0.62561,3294,10522,-9240,-2851,-29404
1711671,-9.38369,-25.3565,3.93818,-92.7631,-4.97681,-126.931,-110.901,0.854492,-448.792,0.29364,-0.336273,0.63739,-0.62796,15836,25882,27881,-2851,-29404
1711677,-10.8336,-25.39,4.0626,-93.2684,-7.30042,-126.804,-103.333,-2.92969,-470.703,0.279724,-0.349884,0.633667,-0.630615,19163,30234,-20247,-2851,-29404
1711683,-12.5754,-25.5384,4.34971,-93.7793,-9.66797,-126.661,-103.699,-2.50244,-482.544,0.26535,-0.363861,0.62912,-0.633453,24282,-31974,-3863,-2851,-29404
1711689,-15.4896,-26.0169,4.31143,-94.3176,-12.03,-126.508,-108.154,0.305176,-484.497,0.25061,-0.37796,0.624176,-0.636108,26585,-32230,11754,-2851,-29404
1711695,-22.2175,-27.5577,4.9957,-94.8889,-14.3536,-126.332,-112.61,0,-478.882,0.220703,-0.405273,0.614014,-0.640259,26584,29978,26602,-2851,-29404
1711701,-25.4475,-27.5529,5.33545,-96.1029,-18.7482,-125.903,-116.882,-3.2959,-451.233,0.206116,-0.418274,0.608948,-0.641571,21462,11034,-10518,-2851,-29404
1711707,-28.51,-27.1366,5.74697,-96.7181,-20.7861,-125.651,-113.708,-5.5542,-433.167,0.191956,-0.430634,0.604034,-0.642456,17621,-3559,3307,-2851,-29404
1711713,-31.0604,-27.4046,5.68477,-97.3279,-22.7087,-125.376,-109.436,-8.72803,-412.048,0.178467,-0.442322,0.599152,-0.642944,13268,-21223,16619,-2851,-29404
1711719,-34.4627,-28.0697,11.3743,-97.8607,-24.4501,-125.107,-94.9097,-7.14111,-378.967,0.16571,-0.453278,0.594391,-0.643158,12755,26137,28651,-2851,-29404
1711725,-34.5823,-17.8295,11.8146,-98.3276,-26.0266,-124.827,-78.7964,-11.0474,-349.365,0.143951,-0.471832,0.585144,-0.643524,11986,4889,-24853,-2868,-29402
1711731,-35.9509,-20.0785,9.53682,-99.2834,-28.6194,-124.404,-84.8389,0.305176,-274.536,0.13443,-0.479584,0.581421,-0.643219,15056,19480,-4373,-2868,-29402
1711737,-40.1475,-22.5907,4.49805,-99.5691,-29.5862,-124.277,-55.9082,3.90625,-229.919,0.125946,-0.485931,0.578461,-0.642853,19663,-8425,4588,-2868,-29402
1711743,-46.3299,-18.3846,3.55059,-99.5526,-30.3058,-124.167,2.74658,-1.2207,-182.068,0.119293,-0.490753,0.575653,-0.643005,26830,28439,12780,-2868,-29402
1711749,-49.6699,-10.001,5.53164,-99.4098,-30.8057,-124.085,27.4658,-5.37109,-140.686,0.115387,-0.494141,0.572205,-0.644196,-27443,791,19692,-2868,-29402
1711755,-52.9334,6.97676,10.1589,-99.2725,-31.0913,-124.03,-11.8408,-9.0332,-63.6597,0.112396,-0.497681,0.566772,-0.64679,-13364,-26602,26604,-2868,-29402
1711761,-51.9668,10.3024,11.36,-99.5032,-31.1407,-124.03,-59.9365,-7.14111,-34.2407,0.111847,-0.498199,0.566315,-0.646881,24523,-14059,-27668,-2868,-29402
1711767,-51.1916,7.95772,11.5466,-99.8767,-30.9705,-124.124,-97.8394,-0.549316,-10.7422,0.111053,-0.498108,0.567902,-0.645691,-16950,26901,-23316,-2868,-29402
1711773,-51.0911,-27.5481,22.2701,-100.613,-30.4266,-124.173,-167.175,-21.2402,62.5,0.110016,-0.497345,0.571075,-0.643646,10442,3861,-18708,-2868,-29402
1711779,-49.4546,-34.8503,18.5951,-100.717,-29.5697,-124.261,-45.0439,-27.6489,126.038,0.110016,-0.495667,0.577637,-0.639099,-23607,-17388,-15124,-2868,-29402
1711785,-48.2152,-96.5357,85.9605,-100.344,-28.3887,-124.398,-165.588,-141.724,464.905,0.122955,-0.486176,0.585297,-0.637054,10953,29204,-10772,-2868,-29402
1711791,-22.2079,4.09609,10.6565,-98.0585,-23.6755,-124.969,539.368,57.5562,399.353,0.137207,-0.477539,0.599243,-0.627625,28104,1044,749,-2868,-29402
1711797,24.0933,40.6834,-22.1026,-97.1136,-21.1981,-124.387,215.942,-181.213,436.157,0.159058,-0.460663,0.593262,-0.640656,12488,-5357,6637,-2868,-29402
1711803,24.0502,3.97168,12.3983,-97.4213,-18.5449,-125.107,-129.517,58.96,505.554,0.181458,-0.451385,0.59494,-0.63974,2504,-5613,9965,-2868,-29402
1711809,-8.86689,-24.9498,13.1975,-97.2015,-16.3586,-126.48,-57.0679,197.754,430.908,0.192657,-0.436127,0.6091,-0.633698,-825,20,12013,-2868,-29402
1711815,1.21543,-14.9297,14.5995,-96.8774,-14.0021,-126.755,144.226,-20.5078,429.993,0.21347,-0.40506,0.627686,-0.629486,-313,7700,12013,-2868,-29402
1711821,-6.4791,-7.3165,13.2788,-95.5536,-9.62952,-127.573,53.7109,80.4443,390.625,0.229462,-0.391235,0.631134,-0.62915,18376,-30444,12013,-2868,-29402
1711827,-14.3411,-15.8532,2.63662,-95.2734,-7.81677,-128.183,20.5078,84.2896,341.492,0.23996,-0.376526,0.637085,-0.628204,-29752,-12012,10989,-2868,-29402
1711833,-12.5993,-26.1222,2.28252,-94.7406,-6.20728,-128.826,74.707,97.9614,301.941,0.248352,-0.363373,0.643005,-0.626678,-8760,7957,9453,-2868,-29402
1711839,-12.6376,-16.8916,-1.37334,-93.7244,-4.76257,-129.534,174.866,119.629,269.653,0.256073,-0.350342,0.646759,-0.627106,15561,28949,6893,-2876,-29401
1711845,-8.77119,-6.83799,6.06758,-92.8729,-3.40027,-130.034,89.9658,63.2324,222.778,0.271393,-0.324432,0.647858,-0.633453,-23095,-15851,3309,-2876,-29401
1711851,-11.6854,-9.16357,13.6568,-91.8787,-1.07666,-130.979,73.4253,108.704,193.42,0.278015,-0.314362,0.649231,-0.634247,31946,24342,-6676,-2868,-29402
1711857,-21.648,-0.45459,0.339746,-91.4722,-0.587769,-131.605,66.2842,122.803,73.4253,0.282257,-0.304047,0.651093,-0.635498,-4150,-21226,-13588,-2868,-29402
1711863,-21.5236,-2.9668,-3.10557,-91.615,-0.203247,-131.622,-40.9546,2.2583,48.8281,0.282654,-0.296783,0.651703,-0.638092,25547,-1514,-21780,-2868,-29402
1711869,-4.33057,-14.1258,-1.33984,-91.7688,0.214233,-131.336,-42.7856,-59.021,53.9551,0.284393,-0.294861,0.653534,-0.636353,-11317,16663,-30484,-2868,-29402
1711875,-1.31113,-9.21143,2.03369,-91.5656,0.615234,-131.391,28.6865,11.1084,53.4058,0.290497,-0.291534,0.654694,-0.633942,16844,-31721,26860,-2868,-29402
1711881,-8.0917,-0.851758,-0.0382813,-90.8624,1.29639,-131.891,44.8608,30.5786,37.9028,0.291687,-0.286407,0.654114,-0.636322,1997,-1769,14060,-2868,-29402
1711887,-3.4501,-3.50752,2.56006,-90.8295,1.604,-131.776,-5.18799,-21.3013,34.4238,0.293365,-0.283051,0.653717,-0.637451,25549,11288,9708,-2868,-29402
1711893,0.14834,-7.19209,2.7084,-90.8075,1.85669,-131.808,-6.28662,7.38525,25.3906,0.295776,-0.281921,0.654022,-0.636536,-17715,23832,5612,-2868,-29402
1711899,-5.69912,-7.92422,-0.550293,-90.7471,2.0874,-131.979,2.92969,36.3159,20.2026,0.297119,-0.280243,0.654572,-0.636078,3534,-30952,3052,-2868,-29402
1711905,-4.4167,-9.53682,-0.339746,-90.6866,2.27966,-132.017,1.95312,-15.3198,7.26318,0.298645,-0.276337,0.655426,-0.6362,23502,-20712,492,-2868,-29402
1711911,-1.19629,-10.0201,0.818262,-90.5493,2.57629,-131.896,5.79834,-2.86865,1.46484,0.300201,-0.275787,0.655243,-0.635895,-5682,-3304,-3093,-2868,-29402
1711917,-2.14854,-11.4939,2.62227,-90.4724,2.71912,-131.924,7.08008,8.72803,4.45557,0.3013,-0.275024,0.65509,-0.635895,11471,4633,-3861,-2868,-29402
1711923,-4.11045,-10.6374,1.97627,-90.368,2.85645,-131.946,12.6343,7.93457,4.45557,0.302124,-0.273834,0.655029,-0.636017,27343,11801,-4373,-2868,-29402
1711929,-4.41191,-9.04873,0.985742,-90.2582,2.99927,-131.929,13.0615,1.09863,4.5166,0.30304,-0.272644,0.654846,-0.636322,-22577,17945,-3349,-2868,-29402
1711935,-2.45957,-11.6519,1.28721,-90.2032,3.12012,-131.913,2.99072,0.183105,1.28174,0.305054,-0.270905,0.65448,-0.636475,-7729,23321,-789,-2868,-29402
1711941,-2.72754,-12.0921,-0.177051,-90.0989,3.36182,-131.88,5.7373,2.44141,4.27246,0.305908,-0.270294,0.65448,-0.636292,18128,-32743,6636,-2868,-29402
1711947,-3.44053,-11.8576,0.832617,-90.0055,3.51013,-131.852,11.3525,0,8.78906,0.306854,-0.26944,0.654388,-0.636292,30160,-28391,9196,-2868,-29402
1711953,-3.03857,-10.1302,2.09111,-89.8901,3.68591,-131.814,16.1133,-3.66211,14.2822,0.308044,-0.268463,0.654175,-0.636383,-23344,-25063,12012,-2868,-29402
1711959,-2.41172,-9.26406,1.09102,-89.8242,3.87268,-131.786,6.04248,-0.305176,17.0288,0.309509,-0.267395,0.653839,-0.636444,-11568,-21735,13292,-2868,-29402
1711965,-1.94277,-9.21143,0.267969,-89.7583,4.05945,-131.754,8.17871,-3.90625,18.1274,0.312225,-0.265259,0.653839,-0.636047,-304,-18663,15596,-2868,-29402
1711971,-1.89014,-9.72344,2.51221,-89.6155,4.43298,-131.666,6.34766,-2.0752,19.4092,0.31369,-0.264252,0.653748,-0.635834,21713,-13543,23020,-2868,-29402
1711977,-2.57441,-9.04395,1.76572,-89.5605,4.61975,-131.638,5.31006,0.183105,19.5923,0.315094,-0.263214,0.653717,-0.63559,31953,-11495,26604,-2868,-29402
1711983,-2.74189,-9.58945,2.5792,-89.5166,4.80652,-131.605,1.95312,-0.305176,19.6533,0.316406,-0.262146,0.653748,-0.635345,-23087,-9191,30444,-2868,-29402
1711989,-2.42129,-9.14922,1.83271,-89.4727,4.97681,-131.561,2.2583,-2.68555,17.5171,0.317688,-0.261139,0.65387,-0.634979,-13103,-7143,-31764,-2868,-29402
1711995,-2.39258,-10.135,1.4499,-89.4452,5.1416,-131.534,-1.64795,1.40381,17.8833,0.320068,-0.25943,0.654114,-0.634247,-3119,-5095,-30228,-2868,-29402
1712001,-3.10078,-9.79521,0.976172,-89.3903,5.47668,-131.49,1.2207,2.38037,18.7988,0.321167,-0.258545,0.654327,-0.63385,15570,-743,-24596,-2868,-29402
1712007,-3.40225,-9.35977,1.15322,-89.3463,5.64697,-131.468,2.92969,2.2583,18.9209,0.322296,-0.257568,0.654449,-0.633514,24018,1306,-21268,-2868,-29402
1712013,-3.03379,-9.4124,1.02881,-89.3024,5.80627,-131.435,2.38037,0.183105,17.5171,0.323425,-0.256592,0.654572,-0.63324,-32046,3354,-16404,-2868,-29402
1712019,-2.38301,-9.8,0.526367,-89.2474,5.95459,-131.402,5.31006,-0.427246,14.8315,0.324585,-0.255737,0.654633,-0.632935,-23342,4890,-11028,-2868,-29402
1712025,-2.0624,-10.5369,-0.263184,-89.1925,6.09741,-131.369,9.58252,5.37109,14.7705,0.326813,-0.25412,0.65451,-0.632568,-14126,6170,-5908,-2868,-29402
1712031,-3.06729,-10.7953,-0.516797,-89.0222,6.38855,-131.342,15.9912,3.479,16.7236,0.327759,-0.253174,0.654419,-0.632538,3283,8474,3309,-2868,-29402
1712037,-3.13906,-10.6996,-1.01924,-88.8849,6.52588,-131.303,22.8271,0.244141,15.3809,0.328888,-0.252136,0.654144,-0.632629,11475,9242,7149,-2868,-29402
1712043,-2.24902,-10.4795,-0.129199,-88.7146,6.65222,-131.248,29.8462,-3.66211,14.2212,0.330139,-0.25116,0.653625,-0.632904,19411,9242,11501,-2868,-29402
1712049,-2.33516,-10.0058,-0.387598,-88.5443,6.77856,-131.204,31.3721,-1.46484,13.4888,0.331512,-0.250214,0.652863,-0.633362,26835,8986,16365,-2868,-29402
1712055,-3.16299,-10.8479,0.0526367,-88.3575,6.90491,-131.149,39.5508,-5.31006,15.564,0.334198,-0.248291,0.651215,-0.634399,-31789,9242,19949,-2868,-29402
1712061,-3.33525,-11.4987,-0.258398,-87.9016,7.17407,-130.995,44.2505,-9.52148,18.0664,0.335724,-0.247284,0.650177,-0.63504,-17709,10778,28909,-2868,-29402
1712067,-3.1582,-12.2117,0,-87.6434,7.33337,-130.853,47.1191,-19.8364,23.0103,0.337494,-0.246246,0.648987,-0.635742,-10285,11546,31469,-2868,-29402
1712073,-1.90928,-11.1494,0.411523,-87.3413,7.50366,-130.677,56.1523,-25.3906,25.2075,0.339691,-0.245361,0.647614,-0.636322,-3117,11802,-31763,-2884,-29400
1712079,-1.84707,-10.1302,1.3542,-87.0282,7.67395,-130.523,58.2275,-21.5454,26.6113,0.342163,-0.244446,0.645905,-0.637054,4564,12058,-29971,-2884,-29400
1712085,-2.90937,-10.8001,0.966602,-86.4459,8.04749,-130.177,53.9551,-27.5269,31.9824,0.347046,-0.24231,0.642761,-0.638428,11732,12058,-30227,-2884,-29400
1712091,-3.00029,-10.757,0.827832,-86.1218,8.24524,-129.99,60.4248,-27.3438,33.4473,0.349731,-0.241302,0.641144,-0.638977,27604,11546,-29715,-2884,-29400
1712097,-3.2252,-9.86699,0.607715,-85.7758,8.44849,-129.798,63.5376,-28.1982,34.1797,0.352509,-0.240173,0.639374,-0.639648,-29484,11034,-29971,-2884,-29400
1712103,-2.68926,-9.29277,1.17236,-85.4242,8.64624,-129.578,64.3311,-32.8369,35.7056,0.355316,-0.239014,0.637512,-0.640381,-21548,10522,-30483,-2884,-29400
1712109,-1.66045,-9.87656,1.41641,-85.0836,8.85498,-129.364,62.8052,-31.7993,37.0483,0.358307,-0.237946,0.635559,-0.641052,-13100,10266,-31507,-2884,-29400
1712115,-2.22988,-11.0298,0.215332,-84.408,9.31641,-128.963,64.4531,-27.832,44.1895,0.364227,-0.235565,0.631958,-0.642151,-4652,10266,31725,-2884,-29400
1712121,-2.39258,-12.2787,1.804,-84.0729,9.59656,-128.765,61.8896,-25.1465,53.894,0.367279,-0.234131,0.630127,-0.642731,13269,10522,25581,-2884,-29400
1712127,-1.98105,-12.5993,3.53145,-83.8202,9.94812,-128.562,45.7764,-25.6958,67.8101,0.370453,-0.232422,0.62854,-0.643097,22741,10266,23021,-2884,-29400
1712133,-1.95713,-12.7907,3.85684,-83.562,10.3326,-128.37,45.2881,-22.0337,76.0498,0.373871,-0.230621,0.627502,-0.642761,-32555,10266,20461,-2884,-29400
1712139,-2.21074,-12.1017,3.79941,-83.2819,10.7391,-128.172,50.1099,-21.3623,79.5288,0.377411,-0.228485,0.626587,-0.642365,-23083,10266,18157,-2884,-29400
1712145,-2.45,-9.7043,4.61768,-82.8149,11.6016,-127.798,34.3018,-17.1509,87.0972,0.384705,-0.223755,0.624725,-0.64151,-12587,10266,16109,-2884,-29400
1712151,-3.06729,-10.5369,3.84248,-82.6501,12.0575,-127.645,26.062,-11.5356,91.2476,0.388275,-0.221375,0.624268,-0.640656,10198,10522,9709,-2884,-29400
1712157,-3.23955,-12.2979,3.675,-82.5183,12.5574,-127.474,19.2871,-12.8784,98.999,0.391693,-0.218872,0.624115,-0.639557,22742,10010,6125,-2884,-29400
1712163,-2.59355,-13.8339,2.78018,-82.392,13.0792,-127.299,18.0054,-12.4512,105.286,0.395294,-0.216309,0.624207,-0.638123,-29482,9242,2029,-2884,-29400
1712169,-2.0002,-13.7334,3.04336,-82.2382,13.634,-127.128,23.4375,-11.0474,111.511,0.399017,-0.213593,0.62439,-0.636536,-16682,8986,-1812,-2884,-29400
1712175,-2.13896,-12.2596,5.12012,-81.9141,14.848,-126.815,23.1323,-0.976562,125.122,0.40686,-0.207184,0.624603,-0.633453,-2602,8730,-5396,-2884,-29400
1712181,-2.31602,-12.4223,5.13926,-81.7932,15.5182,-126.667,16.7847,2.56348,135.132,0.410919,-0.203674,0.624908,-0.631683,26839,7962,-11028,-2884,-29400
1712187,-2.20117,-11.3935,4.89522,-81.6724,16.2268,-126.508,16.1133,2.38037,143.25,0.4151,-0.199921,0.625488,-0.629578,-22569,6938,-13332,-2884,-29400
1712193,-1.54082,-12.5036,4.20137,-81.6064,16.9464,-126.398,7.20215,12.5732,144.287,0.419464,-0.195953,0.626129,-0.627289,-5929,5658,-16404,-2893,-29399
1712199,-2.39736,-13.1018,4.45498,-81.535,17.699,-126.315,9.39941,18.5547,151.611,0.423462,-0.191833,0.627197,-0.624817,11224,4890,-20500,-2893,-29399
1712205,-4.45498,-15.6762,3.5458,-81.4691,19.3085,-126.222,5.85938,23.7427,168.823,0.431152,-0.182617,0.629852,-0.619629,-20264,3866,-27924,-2893,-29399
1712211,-4.22051,-16.5901,1.95713,-81.4691,20.1819,-126.167,-2.2583,27.5269,174.988,0.435425,-0.177582,0.631226,-0.616669,-2600,3098,-30228,-2893,-29399
1712217,-4.09131,-15.6762,1.46426,-81.4032,21.1157,-126.052,6.10352,18.1885,190.063,0.439636,-0.172424,0.632935,-0.613403,15833,1562,-32532,-2893,-29399
1712223,-3.39268,-16.0207,1.95713,-81.3757,22.077,-125.986,1.83105,28.1982,195.068,0.444519,-0.166962,0.634308,-0.609955,-30247,26,30956,-2893,-29399
1712229,-3.56973,-16.193,3.25391,-81.2988,23.1097,-125.881,8.54492,23.7427,210.632,0.449158,-0.161163,0.636017,-0.606354,-8999,-1511,29164,-2893,-29399
1712235,-1.64609,-16.7337,4.69902,-81.2164,25.2905,-125.739,3.2959,31.9824,228.21,0.45932,-0.148438,0.639252,-0.598541,-32294,-5095,26604,-2893,-29399
1712241,-1.03838,-17.7529,6.56045,-81.1835,26.4771,-125.684,3.2959,38.3301,241.943,0.464569,-0.141663,0.640991,-0.594208,-10022,-6375,25580,-2893,-29399
1712247,-0.942676,-17.4371,5.92402,-81.178,27.7295,-125.667,-0.732422,46.9971,255.249,0.46994,-0.134308,0.642914,-0.58963,13019,-8167,25068,-2893,-29399
1712253,-1.69873,-19.3272,4.34492,-81.2549,29.0533,-125.673,-13.0615,53.6499,270.203,0.475311,-0.126495,0.645081,-0.584686,-28453,-10471,23788,-2893,-29399
1712259,-2.58877,-22.3467,2.4835,-81.3098,30.4761,-125.623,-14.7705,46.936,291.565,0.486725,-0.109802,0.650238,-0.572815,-2597,-13287,22252,-2893,-29399
1712265,-4.11523,-27.3137,0.732129,-81.3043,33.6127,-125.491,1.40381,48.0347,335.876,0.493103,-0.100708,0.652679,-0.566223,-14372,-20711,18668,-2893,-29399
1712271,-3.46445,-28.6535,-2.79453,-81.189,35.354,-125.338,8.60596,37.9028,362,0.5,-0.0905762,0.654846,-0.559326,13789,-25575,18156,-2893,-29399
1712277,-4.85693,-31.0126,-4.72773,-81.0187,37.2272,-125.151,15.1978,38.0249,389.648,0.50766,-0.0798035,0.656616,-0.551941,-21795,-30951,17388,-2893,-29399
1712283,-6.37383,-34.2043,-3.82812,-80.6946,39.1827,-124.816,27.1606,17.8833,410.583,0.515839,-0.0680847,0.658173,-0.544006,10206,28441,14572,-2893,-29399
1712289,-3.0625,-37.9606,1.95234,-80.2386,41.2701,-124.338,36.499,32.7148,475.769,0.534882,-0.0431824,0.659088,-0.526825,-20770,21273,12012,-2893,-29399
1712295,-4.78994,-39.5302,2.0959,-79.3048,45.9613,-123.453,37.6587,22.3999,512.085,0.544586,-0.0287476,0.659668,-0.517029,-14625,4121,1772,-2893,-29399
1712301,1.14365,-39.6929,0.736914,-78.5907,48.5211,-122.701,36.438,3.96729,544.8,0.555145,-0.0134888,0.65976,-0.506195,23008,-6888,-5397,-2893,-29399
1712307,6.18721,-38.5205,-0.224902,-77.9095,51.2183,-122.009,35.4614,28.5645,572.754,0.56662,0.00219727,0.659149,-0.494354,-1312,-19944,-13589,-2893,-29399
1712313,-1.58389,-33.6396,-0.378027,-77.3492,54.0417,-121.487,34.8511,64.5142,592.407,0.577576,0.019165,0.658813,-0.481567,-23327,29976,-23061,-2893,-29399
1712319,-5.48379,-43.8416,4.42148,-76.7725,56.8213,-120.723,20.4468,-55.7251,604.065,0.597687,0.0540771,0.659119,-0.453094,23010,11800,32747,-2893,-29399
1712325,1.0958,-38.5444,7.29258,-73.2898,62.2046,-117.092,60.8521,-15.2588,592.712,0.610535,0.0697632,0.655701,-0.438568,-9245,-32233,14059,-2893,-29399
1712331,-9.91963,-40.6499,4.21572,-71.5265,64.7919,-115.362,47.4243,12.6953,573.853,0.62146,0.0869141,0.652191,-0.42514,-26396,8727,5867,-2893,-29399
1712337,-7.65625,-45.6887,-2.74189,-68.6591,67.1979,-112.555,65.4297,-48.9502,563.904,0.63089,0.103577,0.649445,-0.41156,23269,-19178,-2838,-2893,-29399
1712343,3.67979,-42.3869,-6.40254,-64.9127,69.3896,-109.078,107.971,-62.0728,541.382,0.641388,0.119293,0.644348,-0.398834,8166,15894,-13078,-2893,-29399
1712367,10.9484,20.581,-5.34502,-37.5128,75.4871,-84.9133,273.987,-64.5142,327.393,0.68158,0.189148,0.607605,-0.361084,-10263,28435,-30487,-2893,-29399
1712373,-3.51709,38.1664,-7.46484,-34.4971,75.3442,-82.5348,149.597,-100.83,124.756,0.685242,0.203644,0.599243,-0.360199,31978,-10990,13033,-2893,-29399
1712379,14.6856,-0.607715,-10.0584,-33.2391,74.6027,-80.9912,-59.8145,-118.408,-59.082,0.692169,0.204071,0.589325,-0.363129,6123,14610,-9752,-2893,-29399
1712385,8.81426,-5.28281,-6.89062,-35.7166,72.9327,-82.8094,-73.3643,-122.498,-121.948,0.693817,0.197662,0.588043,-0.36554,10476,4369,5352,-2893,-29399
1712391,12.0586,-9.14443,-4.03867,-37.5732,71.7792,-84.1827,-102.661,-149.658,-158.691,0.694641,0.189148,0.587433,-0.369476,-25620,-28144,-19993,-2893,-29399
1712397,15.7384,-15.1307,-2.10068,-39.8145,70.6586,-85.9131,-114.929,-119.812,-180.481,0.695679,0.178406,0.5867,-0.373993,237,9488,21479,-2893,-29399
1712403,14.2071,-18.0496,-2.37344,-42.149,69.6149,-87.8082,-103.76,-89.2334,-187.805,0.695557,0.167206,0.587219,-0.378571,21485,-12529,-2074,-2893,-29399
1712409,13.987,-17.3893,-1.65566,-44.2859,68.5657,-89.61,-67.0166,-66.04,-196.899,0.692596,0.146698,0.58963,-0.388611,-26387,-29425,-24602,-2893,-29399
1712415,13.92,-14.1832,-1.23457,-48.4058,66.5222,-93.4222,-41.1987,-40.9546,-207.092,0.690125,0.13739,0.590912,-0.394409,-3347,17167,2022,-2893,-29399
1712421,13.7956,-11.2643,-0.722559,-50.4218,65.4785,-95.4657,-23.6206,-28.2593,-220.154,0.686584,0.129059,0.592529,-0.40094,4078,13583,-14875,-2876,-29401
1712427,14.5325,-9.0583,-0.712988,-52.4707,64.4019,-97.63,-12.085,-10.1318,-235.84,0.682281,0.121124,0.594208,-0.408203,9710,11535,-29723,-2876,-29401
1712433,14.0109,-8.10606,-0.669922,-54.6021,63.2867,-99.9591,-2.62451,13.0615,-254.456,0.677032,0.113403,0.596252,-0.416077,12782,12559,21989,-2876,-29401
1712439,11.403,-6.75664,-1.16279,-56.7499,62.1002,-102.376,8.97217,39.4287,-294.189,0.663422,0.0984192,0.601685,-0.433655,13294,16655,8677,-2876,-29401
1712445,10.4843,-6.2877,-1.53604,-60.9796,59.4415,-107.26,9.09424,52.9785,-314.392,0.655304,0.0906982,0.604736,-0.443298,8430,-32241,-13852,-2876,-29401
1712451,9.19229,-6.13457,-2.25381,-63.0396,57.9694,-109.66,5.5542,61.2793,-332.275,0.646301,0.0826721,0.608124,-0.453339,2286,-19953,-23836,-2876,-29401
1712457,8.17305,-5.95273,-3.03857,-65.0061,56.3928,-111.962,0.12207,65.2466,-347.351,0.636566,0.0742493,0.611755,-0.463623,-4371,-6897,-32540,-2876,-29401
1712463,7.1251,-6.03408,-3.78027,-66.8793,54.7229,-114.148,-7.32422,68.7866,-360.84,0.626251,0.0653076,0.615448,-0.473999,-13331,8464,25060,-2876,-29401
1712469,4.62246,-6.00059,-4.81865,-70.274,51.1523,-118.043,-25.6958,65.4297,-378.479,0.604156,0.0459595,0.623047,-0.494568,-23827,26384,18404,-2876,-29401
1712475,3.53145,-6.08672,-4.94785,-71.7902,49.2682,-119.713,-37.7197,58.5938,-384.583,0.592682,0.0354919,0.626801,-0.504486,17133,2321,9188,-2876,-29401
1712481,3.01465,-6.36426,-4.7708,-73.2129,47.3346,-121.201,-52.8564,52.6733,-387.451,0.581085,0.024353,0.630402,-0.514008,1773,26129,7140,-2876,-29401
1712487,2.37822,-6.84277,-4.57461,-74.5532,45.368,-122.52,-67.8101,44.7388,-389.16,0.569427,0.0126648,0.634003,-0.52298,-16148,-14063,7652,-2876,-29401
1712493,2.26338,-7.90508,-4.11523,-75.8167,43.374,-123.668,-81.543,36.6211,-389.587,0.5578,0.000366211,0.637512,-0.531372,30700,11026,8164,-2876,-29401
1712499,1.70352,-10.6135,-3.33525,-78.1128,39.3585,-125.535,-99.4263,22.7661,-385.62,0.534637,-0.0255432,0.644165,-0.546295,9452,-27630,9700,-2876,-29401
1712505,1.37334,-11.5274,-2.83281,-79.14,37.348,-126.282,-102.539,16.1743,-383.728,0.523224,-0.0389099,0.647156,-0.552979,24555,31251,17636,-2876,-29401
1712511,0.717773,-11.9677,-2.29688,-80.0848,35.3265,-126.914,-104.248,9.27734,-383.85,0.511871,-0.0524292,0.649872,-0.559296,-4118,-3309,24548,-2876,-29401
1712517,0.650781,-12.3936,-1.63652,-80.9583,33.2886,-127.452,-104.675,2.38037,-385.254,0.50058,-0.0660706,0.652191,-0.565308,30186,27924,-31004,-2876,-29401
1712523,0.516797,-12.7189,-1.13408,-81.7712,31.2286,-127.908,-103.577,-2.31934,-389.648,0.489319,-0.0799255,0.654144,-0.571106,-1303,-7660,-21532,-2876,-29401
1712529,1.05273,-13.5133,0.0191406,-83.2214,27.0209,-128.6,-101.624,-12.6953,-400.818,0.466553,-0.108154,0.65683,-0.582306,-5656,-14827,1509,-2876,-29401
1712535,1.38291,-14.6904,0.669922,-83.8916,24.9005,-128.881,-100.708,-12.5732,-402.954,0.455017,-0.122559,0.657562,-0.587738,21224,13846,14309,-2876,-29401
1712541,1.03838,-15.9776,1.21064,-84.5123,22.7747,-129.128,-96.9238,-11.2915,-403.503,0.443329,-0.136932,0.65799,-0.593018,-19737,-23274,28389,-2851,-29404
1712547,0.267969,-16.906,1.45469,-85.1001,20.6708,-129.353,-93.811,-8.72803,-400.94,0.431519,-0.151123,0.658081,-0.598145,2279,4887,-22043,-2851,-29404
1712553,-0.698633,-17.7194,1.82314,-85.6549,18.5999,-129.551,-90.5151,-7.20215,-396.545,0.419647,-0.165039,0.657867,-0.603119,22502,32279,-6427,-2851,-29404
1712559,-2.2873,-18.71,2.67969,-86.6821,14.5953,-129.869,-87.9517,-3.2959,-379.761,0.396118,-0.191864,0.656647,-0.612335,-2844,18200,23014,-2851,-29404
1712565,-3.12949,-19.0976,3.00986,-87.1765,12.6837,-129.996,-88.623,-2.74658,-369.446,0.384552,-0.204681,0.655792,-0.616455,13028,-23016,-28442,-2851,-29404
1712571,-3.2874,-19.7866,3.39268,-87.6709,10.827,-130.1,-90.9424,-1.15967,-358.643,0.37323,-0.217072,0.654846,-0.620178,26339,-232,-14618,-2851,-29404
1712577,-3.63193,-20.7054,3.63193,-88.1653,9.03625,-130.199,-92.8345,2.0752,-348.633,0.362122,-0.229095,0.65387,-0.623474,-27678,20761,-26,-2851,-29404
1712583,-4.08652,-21.1121,4.08174,-88.6597,7.27844,-130.281,-94.0552,4.69971,-342.59,0.351196,-0.240662,0.652863,-0.626404,-17951,-26343,14823,-2851,-29404
1712589,-4.12002,-22.4998,5.04355,-89.6594,3.81226,-130.419,-99.5483,10.498,-341.797,0.329529,-0.263031,0.650726,-0.631409,5856,4634,-21529,-2851,-29404
1712595,-5.14404,-23.0405,4.82822,-90.1703,2.03796,-130.507,-101.379,16.9067,-351.196,0.318451,-0.273987,0.649567,-0.633606,16095,17690,-5145,-2851,-29404
1712601,-6.57002,-23.1314,4.63682,-90.6702,0.181274,-130.589,-101.501,17.6392,-369.812,0.306915,-0.284912,0.648285,-0.635803,24542,29466,11752,-2851,-29404
1712607,-7.62754,-23.4377,3.82334,-91.181,-1.77429,-130.649,-104.126,18.0664,-393.25,0.29483,-0.296204,0.646576,-0.638092,32221,-25830,29416,-2851,-29404
1712613,-9.39805,-24.7105,2.76582,-91.6754,-3.86719,-130.704,-102.356,20.6299,-420.837,0.281982,-0.308014,0.644501,-0.640411,-26404,-17638,-19480,-2851,-29404
1712619,-12.8816,-24.7345,2.94287,-92.5818,-8.3606,-130.688,-92.4683,12.085,-465.515,0.25412,-0.333221,0.638306,-0.645599,-14886,-8166,11497,-2851,-29404
1712625,-15.2886,-24.7297,3.36396,-93.0432,-10.7007,-130.671,-95.3979,18.4326,-477.722,0.239532,-0.346527,0.634186,-0.648254,-10279,-7398,27881,-2851,-29404
1712631,-19.3847,-25.792,3.07686,-93.5156,-13.0463,-130.638,-97.29,19.4702,-482.239,0.224335,-0.359772,0.629791,-0.650757,-8744,-10982,-21783,-2851,-29404
1712637,-22.5142,-27.6008,2.45479,-93.988,-15.3589,-130.545,-94.7876,10.6201,-479.065,0.208923,-0.372894,0.625122,-0.652985,-9769,-18150,-6679,-2851,-29404
1712643,-25.5575,-29.0507,2.45,-94.4165,-17.5946,-130.424,-83.1909,7.32422,-467.224,0.179504,-0.398376,0.614807,-0.656494,-12074,-28646,7914,-2851,-29404
1712649,-34.568,-31.539,5.19668,-95.2844,-21.6705,-130.056,-88.3789,-6.89697,-415.039,0.165955,-0.410126,0.609161,-0.658081,-16428,8474,31210,-2851,-29404
1712655,-36.817,-25.5336,6.39297,-95.5536,-23.4393,-129.853,-44.4336,-6.53076,-383.728,0.153381,-0.421173,0.604431,-0.658508,-17453,-9703,-25110,-2860,-29403
1712661,-36.1566,-14.8148,8.27832,-95.9161,-25.0433,-129.606,-58.4106,-15.5029,-353.76,0.142548,-0.430908,0.598907,-0.659698,-18478,-31463,-17686,-2860,-29403
1712667,-34.9556,-9.18272,10.9197,-96.3995,-26.5045,-129.359,-83.5571,-15.686,-328.674,0.132568,-0.440002,0.594177,-0.660065,-18479,9241,-11798,-2860,-29403
1712673,-34.8503,-10.8671,11.1494,-97.0093,-27.8284,-129.166,-112.427,-6.89697,-301.27,0.113281,-0.455902,0.588287,-0.658142,-17200,-17896,-6166,-2860,-29403
1712679,-43.5784,-22.4376,1.3542,-98.0695,-29.9048,-128.842,-80.0171,-6.46973,-229.675,0.104523,-0.46225,0.586853,-0.656433,-8242,-8937,4843,-2860,-29403
1712685,-49.6938,-19.8393,0.574219,-98.2178,-30.6519,-128.628,-15.9912,-19.8975,-194.397,0.0976562,-0.467499,0.585022,-0.655396,974,27927,11243,-2860,-29403
1712691,-53.3401,-11.3025,2.53135,-98.2013,-31.2122,-128.364,21.5454,-32.4097,-158.752,0.0935059,-0.471924,0.582001,-0.655518,13005,-2026,18667,-2860,-29403
1712697,-54.6991,-2.29209,5.00049,-98.2013,-31.5527,-128.09,20.752,-41.5649,-118.408,0.0915222,-0.475555,0.578613,-0.656158,28364,-32234,25323,-2860,-29403
1712703,-56.4218,-2.29688,5.14883,-98.476,-31.6351,-127.787,-32.3486,-52.4902,-70.4956,0.0909729,-0.480469,0.57605,-0.654938,-18741,4374,31211,-2860,-29403
1712709,-54.3642,-12.5658,13.5755,-99.212,-30.8496,-127.321,-65.7959,-59.6924,57.0679,0.0924072,-0.481079,0.577911,-0.652618,27594,17173,-25877,-2860,-29403
1712715,-51.1294,-18.9684,17.6094,-99.4482,-29.9432,-127.139,-40.0391,-65.6128,126.648,0.0955811,-0.480194,0.581451,-0.649658,-9527,-5868,-21781,-2860,-29403
1712721,-34.1756,-53.7229,5.76611,-99.7614,-28.6853,-126.859,-46.7529,-94.6045,194.58,0.10141,-0.47757,0.585632,-0.646942,23753,-26604,-16917,-2860,-29403
1712727,-39.4249,-62.298,92.5306,-99.0033,-25.9552,-127.106,113.77,-52.8564,503.052,0.109772,-0.474121,0.591217,-0.643066,-3128,22036,-11541,-2860,-29403
1712733,22.4137,35.5298,-10.2977,-96.6522,-23.4503,-127.617,412.781,17.0288,467.346,0.151093,-0.444,0.596619,-0.651154,-24632,10516,-5909,-2860,-29403
1712739,21.5763,-1.91406,29.1464,-96.7126,-17.8638,-127.321,-121.704,44.3115,542.786,0.174164,-0.436035,0.601593,-0.646149,14536,3860,3308,-2860,-29403
1712745,-15.992,-32.5151,3.57451,-96.5039,-15.6226,-128.568,-46.3257,182.251,435.547,0.187195,-0.419983,0.615784,-0.639709,7880,6420,7404,-2860,-29403
1712751,-13.6425,-32.4386,5.24932,-95.9326,-13.266,-128.732,91.2476,-21.4844,435.852,0.194824,-0.402222,0.626648,-0.638306,8136,14100,9452,-2860,-29403
1712757,1.20107,-14.5086,11.7619,-95.1855,-10.9863,-128.925,125.793,-7.32422,422.607,0.210327,-0.388885,0.631683,-0.636719,14792,26132,11244,-2860,-29403
1712763,-16.0063,-21.3609,-0.741699,-94.6692,-9.01978,-129.578,65.5518,94.8486,370.728,0.235413,-0.360413,0.640503,-0.635864,27336,-23532,11756,-2860,-29403
1712769,-12.9199,-20.892,4.52197,-93.3618,-5.69092,-130.748,144.531,97.0459,284.912,0.244202,-0.346985,0.64502,-0.635468,457,16149,12268,-2860,-29403
1712775,-11.4174,-7.67539,-0.813477,-92.45,-4.30115,-131.314,160.583,101.135,252.808,0.252625,-0.33374,0.646362,-0.637909,25033,-27627,12012,-2868,-29402
1712781,-11.6997,-7.59404,3.48838,-91.8347,-3.03772,-131.825,105.347,94.0552,226.44,0.260193,-0.321045,0.646698,-0.641022,-15927,-7147,11244,-2868,-29402
1712787,-9.89092,-10.4843,5.91924,-91.3678,-1.86768,-132.171,79.0405,66.1621,207.092,0.266388,-0.309906,0.64801,-0.642609,10954,13846,8940,-2860,-29403
1712793,-14.7383,-5.92402,14.3746,-90.791,-1.05469,-132.885,100.098,141.724,135.864,0.274567,-0.290466,0.650024,-0.64624,-26422,-31210,3052,-2860,-29403
1712799,-14.4177,-8.04385,0.0813477,-90.9723,-0.307617,-132.979,-73.8525,-55.9082,44.6777,0.274872,-0.285919,0.651093,-0.647034,30155,8215,-11541,-2860,-29403
1712805,3.47402,-17.4132,1.26328,-91.0986,0.0274658,-132.753,-34.8511,-43.5181,38.8794,0.277832,-0.286194,0.653107,-0.643616,-7989,26391,-18197,-2860,-29403
1712811,4.78037,-16.5375,2.45957,-90.8679,0.379028,-133.028,36.1328,57.4341,43.335,0.280762,-0.285858,0.654083,-0.64151,17612,-22249,-23061,-2860,-29403
1712817,-6.59395,-5.56992,0.258398,-90.5438,0.719604,-133.374,55.1147,71.6553,41.1377,0.281799,-0.281738,0.654327,-0.642609,-23860,-6121,-25621,-2860,-29403
1712823,-8.04385,-1.82314,0.0669922,-90.4449,1.02722,-133.369,10.9863,2.50244,34.668,0.284607,-0.275085,0.654358,-0.644226,-1588,8472,-26901,-2860,-29403
1712829,-2.01934,-8.43145,0.0717773,-90.5328,1.53259,-133.38,-16.4185,25.2686,19.7754,0.28656,-0.274231,0.655029,-0.643036,-26163,-30952,-27669,-2860,-29403
1712835,-8.84297,-9.81914,-2.36865,-90.5219,1.73035,-133.5,-5.18799,27.5269,13.916,0.28717,-0.2724,0.656067,-0.642487,-6451,-19688,-27157,-2860,-29403
1712841,-7.58926,-9.66602,-1.51211,-90.4559,1.9281,-133.456,5.24902,-4.3335,12.2681,0.287689,-0.270538,0.656738,-0.642365,13006,-9192,-25621,-2860,-29403
1712847,-2.5792,-8.46494,-0.535937,-90.3735,2.0874,-133.391,8.05664,-8.30078,5.49316,0.289154,-0.269531,0.656708,-0.642151,31182,281,-24085,-2860,-29403
1712853,-1.33506,-9.93877,0.0287109,-90.3351,2.22473,-133.374,0.976562,2.0752,2.2583,0.291565,-0.267975,0.656555,-0.641876,-17714,9497,-23061,-2860,-29403
1712859,-3.95732,-11.7045,0.76084,-90.1538,2.52686,-133.385,16.9678,6.10352,7.01904,0.292542,-0.266937,0.656525,-0.641876,13007,26649,-21269,-2860,-29403
1712865,-3.97168,-9.38848,1.07187,-90.0275,2.67517,-133.347,18.1274,-1.89209,6.16455,0.293671,-0.265747,0.65625,-0.642151,27599,-30951,-18709,-2860,-29403
1712871,-2.17246,-8.85254,-0.488086,-89.9615,2.80151,-133.275,6.71387,-8.05664,1.46484,0.294983,-0.264771,0.655823,-0.642365,-23857,-24295,-16661,-2860,-29403
1712877,-1.42598,-12.25,1.86143,-89.9121,2.92786,-133.237,4.21143,-2.0752,2.80762,0.296234,-0.264313,0.655579,-0.642242,-10289,-18151,-14101,-2860,-29403
1712883,-2.53613,-12.8577,-0.301465,-89.8242,3.08167,-133.209,12.4512,1.64795,8.97217,0.298492,-0.262695,0.655304,-0.642151,2000,-12775,-11285,-2860,-29403
1712889,-1.24414,-8.65156,1.88535,-89.5166,3.47168,-133.094,23.3154,-3.2959,20.6299,0.300262,-0.261597,0.654663,-0.642426,25808,-4583,-5397,-2860,-29403
1712895,-1.71787,-9.06309,1.9667,-89.4342,3.67493,-133.055,10.8032,-0.793457,20.2026,0.302032,-0.260315,0.654205,-0.642578,-27440,-2279,-1301,-2860,-29403
1712901,-1.74658,-10.001,1.39248,-89.3738,3.87268,-132.995,6.71387,-5.00488,20.6299,0.303558,-0.259186,0.654114,-0.642426,-15664,282,2796,-2860,-29403
1712907,-1.47861,-10.2594,1.55518,-89.3134,4.07593,-132.957,7.08008,0.244141,21.9727,0.305145,-0.258209,0.654083,-0.642059,-3888,2842,6124,-2860,-29403
1712913,-2.23945,-9.46982,1.54561,-89.231,4.27917,-132.935,11.6577,2.99072,22.8271,0.308044,-0.255798,0.654083,-0.641663,6865,5146,9196,-2860,-29403
1712919,-1.22979,-8.82383,2.27295,-89.1211,4.6637,-132.803,1.77002,-6.22559,19.7754,0.309631,-0.254822,0.653992,-0.641388,28113,8730,16620,-2860,-29403
1712925,-1.01445,-10.1924,1.90449,-89.1211,4.83948,-132.775,-4.27246,2.92969,18.5547,0.311127,-0.254059,0.654053,-0.6409,-27183,10266,20716,-2860,-29403
1712931,-2.08633,-10.7283,1.45947,-89.0936,5.01526,-132.764,0,5.24902,19.8364,0.312225,-0.253174,0.654388,-0.640381,-16943,11546,24556,-2860,-29403
1712937,-3.34482,-9.68516,1.01445,-89.0552,5.20203,-132.753,3.60107,6.10352,21.0571,0.313354,-0.252167,0.654602,-0.639984,-7471,12826,28140,-2860,-29403
1712943,-3.58408,-9.20186,1.16758,-89.0167,5.37781,-132.72,3.11279,1.64795,20.874,0.315765,-0.250092,0.654907,-0.639343,978,14362,30700,-2860,-29403
1712949,-2.76582,-9.32627,0.60293,-88.9563,5.71289,-132.682,0.610352,6.22559,17.395,0.316956,-0.249146,0.654999,-0.639008,18898,17434,-26644,-2860,-29403
1712955,-2.82803,-10.1972,0.330176,-88.9178,5.8667,-132.649,3.54004,1.64795,16.5405,0.317932,-0.248199,0.655212,-0.638672,27858,19226,-22804,-2860,-29403
1712961,-1.85664,-10.178,0.0430664,-88.8519,6.00952,-132.599,8.91113,-0.305176,15.9302,0.319031,-0.247406,0.655243,-0.638367,-28718,21274,-18196,-2860,-29403
1712967,-1.91406,-9.77129,-0.239258,-88.7695,6.15784,-132.583,13.1226,5.18799,16.0522,0.320221,-0.246613,0.655121,-0.638214,-20014,22810,-14100,-2860,-29403
1712973,-2.92852,-10.1876,-1.24893,-88.6761,6.30066,-132.561,15.5029,3.66211,16.3574,0.322418,-0.24469,0.654694,-0.638306,-11566,24602,-11540,-2860,-29403
1712979,-3.029,-11.0681,0.210547,-88.4125,6.56433,-132.484,29.6631,1.0376,13.7329,0.323578,-0.243805,0.654327,-0.638428,4051,27930,-4372,-2860,-29403
1712985,-2.94766,-9.82393,-0.330176,-88.2037,6.68518,-132.44,39.4287,0.183105,13.0005,0.324829,-0.242828,0.653625,-0.638885,11731,29722,-1556,-2860,-29403
1712991,-3.56494,-9.57988,0.220117,-88.006,6.81702,-132.385,36.377,-1.52588,15.0757,0.326202,-0.241791,0.652618,-0.639618,18899,31770,749,-2860,-29403
1712997,-3.56973,-9.68994,0.248828,-87.7972,6.94336,-132.319,39.4287,-3.05176,14.2212,0.327606,-0.240753,0.651733,-0.640198,25811,-32230,2541,-2860,-29403
1713003,-4.18701,-10.6135,0.531152,-87.5885,7.08069,-132.248,40.3442,-4.57764,16.9067,0.330627,-0.23877,0.649658,-0.641479,-32045,-31206,3565,-2860,-29403
1713009,-2.63662,-10.2594,1.36377,-87.0996,7.38281,-131.946,44.8608,-24.7803,22.0947,0.332642,-0.237946,0.648376,-0.642029,-18733,-29158,5869,-2876,-29401
1713015,-1.16758,-9.6708,2.21074,-86.8469,7.54761,-131.776,46.0815,-23.4985,24.353,0.334961,-0.237305,0.646973,-0.642487,-11309,-28646,8173,-2876,-29401
1713021,-1.81357,-10.7666,1.84229,-86.6382,7.72888,-131.649,38.208,-14.4653,28.1372,0.337311,-0.236542,0.645569,-0.642975,-3885,-27878,9709,-2876,-29401
1713027,-3.34004,-12.4893,0.191406,-86.4185,7.93213,-131.506,40.5273,-17.5171,33.2642,0.339417,-0.235535,0.644531,-0.64325,4052,-26854,11501,-2876,-29401
1713033,-2.26338,-12.2213,0.0239258,-86.1273,8.15186,-131.314,53.0396,-27.2217,37.2314,0.344574,-0.233398,0.641937,-0.64389,12244,-25574,12013,-2876,-29401
1713039,-2.24424,-10.9245,0.478516,-85.4022,8.60779,-130.924,70.5566,-26.7944,41.687,0.347534,-0.232086,0.640076,-0.644623,28628,-24038,11757,-2876,-29401
1713045,-2.66055,-10.1062,0.540723,-85.0177,8.84949,-130.721,72.7539,-26.7944,44.1284,0.350616,-0.230652,0.638092,-0.645447,-28460,-23526,12525,-2876,-29401
1713051,-2.8041,-10.245,0.803906,-84.6222,9.10217,-130.518,74.8291,-27.71,46.3867,0.35376,-0.229095,0.636047,-0.646271,-19500,-22758,13293,-2876,-29401
1713057,-2.26338,-10.623,1.12451,-84.2157,9.36035,-130.292,76.4771,-30.6396,49.1333,0.357025,-0.227509,0.633972,-0.647095,-10540,-23014,14829,-2876,-29401
1713063,-1.67002,-10.8479,3.58887,-83.7872,9.63501,-130.084,80.2612,-26.7944,51.7578,0.3638,-0.22406,0.629639,-0.648773,-1068,-22502,14061,-2876,-29401
1713069,-0.937891,-12.8529,6.07236,-83.1445,10.2942,-129.699,45.9595,-22.3999,72.2656,0.367035,-0.222076,0.627747,-0.649445,18389,-21734,9197,-2876,-29401
1713075,-1.38291,-14.3124,5.56035,-82.9797,10.7281,-129.534,28.0151,-13.2446,85.144,0.370514,-0.220093,0.62674,-0.649109,28629,-21478,5869,-2876,-29401
1713081,-2.84717,-14.8723,3.66064,-82.7985,11.2061,-129.38,30.8838,-9.33838,94.7266,0.373901,-0.217804,0.626495,-0.648193,-26411,-21222,2541,-2876,-29401
1713087,-3.95732,-13.231,2.0624,-82.5897,11.7059,-129.216,36.9263,-11.2305,99.3652,0.377472,-0.215118,0.626282,-0.647217,-15403,-20966,-788,-2876,-29401
1713093,-1.38291,-11.0059,4.90957,-82.37,12.2223,-129.023,36.9263,-15.0146,102.905,0.385254,-0.209412,0.625488,-0.645264,-3627,-21222,-3604,-2876,-29401
1713099,-1.54082,-12.2644,5.36416,-82.0734,13.3319,-128.732,19.5923,0.854492,114.624,0.38913,-0.206421,0.625397,-0.643982,20950,-19686,-13076,-2876,-29401
1713105,-2.36387,-13.3219,5.86182,-81.969,13.9526,-128.622,15.564,5.00488,122.986,0.392792,-0.203125,0.625793,-0.642426,-31274,-19174,-18708,-2876,-29401
1713111,-2.08633,-13.7286,5.96709,-81.8646,14.6118,-128.507,14.4653,5.7373,132.324,0.396545,-0.199554,0.626373,-0.640686,-17194,-18662,-24340,-2876,-29401
1713117,-0.732129,-13.6521,5.20625,-81.7932,15.293,-128.408,10.376,13.4888,136.536,0.400513,-0.195709,0.627075,-0.638733,-2602,-18150,-30228,-2876,-29401
1713123,-3.27783,-15.2981,2.91895,-81.7493,16.0345,-128.375,-3.96729,31.189,154.663,0.408142,-0.187195,0.629272,-0.634247,13783,-17638,30700,-2876,-29401
1713129,-3.39746,-17.5472,2.8998,-81.7493,17.6495,-128.282,-0.671387,23.9868,167.664,0.411896,-0.182495,0.630951,-0.6315,-16681,-17126,24044,-2884,-29400
1713135,-2.80889,-15.9681,2.64141,-81.6833,18.5504,-128.205,9.94873,24.6582,181.03,0.416199,-0.177612,0.632507,-0.62851,984,-17126,22508,-2884,-29400
1713141,-3.48359,-14.8962,3.06729,-81.6394,19.4788,-128.183,8.30078,36.377,186.218,0.420868,-0.17215,0.63385,-0.62558,19160,-17382,21484,-2884,-29400
1713147,-3.47881,-13.6808,3.49795,-81.6119,20.4565,-128.145,4.02832,33.4473,196.167,0.425323,-0.16629,0.635437,-0.622528,-26664,-17894,19436,-2884,-29400
1713153,-1.57432,-15.6857,4.33535,-81.7053,22.5275,-128.073,-11.7188,38.0249,216.187,0.434692,-0.154327,0.639252,-0.615204,-5416,-18150,18156,-2884,-29400
1713159,-1.89014,-18.3654,4.50283,-81.8207,23.6371,-128.112,-18.7378,51.6968,222.656,0.439606,-0.14798,0.641449,-0.610962,-25127,-19686,12524,-2884,-29400
1713165,-3.10557,-19.5952,5.25889,-81.8756,24.8346,-128.112,-10.7422,46.936,243.347,0.444183,-0.141205,0.644073,-0.606476,-2087,-20198,9708,-2884,-29400
1713171,-2.30166,-21.3035,4.09609,-81.9855,26.109,-128.134,-19.7754,52.7344,257.629,0.449432,-0.13385,0.646484,-0.601715,22234,-21222,7404,-2884,-29400
1713177,-2.17246,-21.4614,3.74199,-82.0514,27.4658,-128.112,-13.7939,47.7905,277.161,0.454773,-0.126129,0.6492,-0.596375,-17446,-23270,6124,-2884,-29400
1713183,-1.91885,-25.8111,0.856543,-82.2052,30.4376,-128.084,-7.87354,50.8423,315.918,0.466766,-0.109283,0.65451,-0.584534,-26661,-27878,4844,-2884,-29400
1713189,-3.63672,-29.8354,-0.105273,-82.2272,32.0856,-128.04,-6.04248,49.2554,339.355,0.473389,-0.0997925,0.656921,-0.578156,3292,-30950,4332,-2884,-29400
1713195,-2.66055,-30.1704,-4.72295,-82.1118,33.8763,-127.886,8.91113,34.3628,371.094,0.480499,-0.0895996,0.659271,-0.571259,-30756,31002,4076,-2884,-29400
1713201,-5.67998,-32.8262,-4.8665,-81.9305,35.766,-127.722,21.4233,35.8887,393.188,0.488708,-0.0785828,0.660919,-0.563965,-292,27418,4076,-2884,-29400
1713207,-6.54131,-35.5346,-4.95742,-81.6119,37.749,-127.403,29.9683,15.3809,415.588,0.506805,-0.0544128,0.662811,-0.548401,31965,22810,3052,-2884,-29400
1713213,0.626855,-38.1616,2.16289,-80.7385,42.215,-126.491,32.3486,26.7334,488.647,0.517761,-0.0415955,0.662567,-0.53952,-27170,9242,-3093,-2884,-29400
1713219,-1.85664,-40.5638,1.51211,-80.2881,44.7308,-126.013,29.7852,21.9116,529.297,0.528198,-0.0269775,0.663055,-0.529633,12511,-231,-8981,-2884,-29400
1713225,2.53135,-41.3964,1.93799,-79.6893,47.4005,-125.321,25.1465,5.79834,566.162,0.539429,-0.0113831,0.663269,-0.518524,-11041,-12007,-16917,-2884,-29400
1713231,6.7375,-40.5925,1.60303,-79.0686,50.213,-124.618,24.0479,19.7144,596.313,0.551605,0.00469971,0.662842,-0.506165,30176,-24039,-25621,-2884,-29400
1713237,2.26816,-36.9366,-0.0382813,-78.5028,53.1409,-124.052,28.5645,50.415,615.601,0.574799,0.0404358,0.662231,-0.478851,8417,26393,29931,-2884,-29400
1713243,-6.92412,-47.7989,3.73721,-76.8768,58.9691,-121.954,-13.4888,-33.0811,632.812,0.585205,0.0584412,0.662598,-0.463684,-25630,-12520,10475,-2884,-29400
1713249,3.91426,-42.6357,5.91445,-74.9762,61.842,-120.048,53.6499,-38.3301,635.437,0.598328,0.074585,0.660217,-0.447723,26851,28952,1515,-2884,-29400
1713255,-2.64141,-37.7836,6.79492,-73.2678,64.6765,-118.383,48.5229,14.9536,620.85,0.610962,0.0923462,0.655945,-0.43338,15588,2072,-7702,-2884,-29400
1713261,-7.54141,-43.3248,2.63184,-70.7849,67.3627,-115.845,37.7197,-26.6724,610.107,0.621368,0.110474,0.652832,-0.418823,5861,-28137,-17686,-2884,-29400
1713267,5.31631,-45.3537,-3.04336,-67.0221,69.8291,-112.148,68.1763,-71.8384,595.215,0.643738,0.143311,0.641968,-0.39093,-6171,6679,-26902,-2884,-29400
1713273,10.3646,-29.6919,-9.65645,-58.1177,74.0204,-103.87,109.192,-34.3018,508.179,0.65271,0.15979,0.635834,-0.379486,-27929,-491,13290,-2884,-29400
1713279,15.8676,-18.7387,-14.6139,-51.839,75.4871,-97.8662,102.234,-92.4683,464.844,0.660522,0.17511,0.629761,-0.369263,26088,23573,-3351,-2884,-29400
1713285,23.72,-13.4654,-16.7624,-45.0439,76.5527,-91.615,150.696,-89.0503,405.09,0.668915,0.188019,0.622253,-0.360413,13033,-19436,-22807,-2884,-29400
1713291,14.944,17.5328,-5.71348,-37.9797,77.4316,-85.589,242.432,-53.894,366.699,0.675568,0.200684,0.614441,-0.354523,-2071,788,22249,-2884,-29400
1713297,-1.9667,42.8367,-7.50313,-35.0739,77.5031,-83.4027,159.79,-52.063,131.714,0.680634,0.221588,0.601929,-0.353851,-21014,22547,2025,-2884,-29400
1713303,18.174,0.569434,-8.57022,-35.766,75.976,-83.54,-66.5283,-105.591,-93.8721,0.684326,0.217041,0.59848,-0.355347,-2325,1298,24808,-2884,-29400
1713309,9.86699,-5.63691,-6.83799,-38.6224,74.9817,-86.0284,-85.4492,-95.1538,-171.143,0.685272,0.209717,0.598083,-0.358643,-30740,27153,3816,-2884,-29400
1713315,11.8193,-11.4126,-4.9,-41.2921,73.7018,-88.1598,-119.263,-135.742,-204.285,0.684784,0.199982,0.598969,-0.363617,1517,-7152,-16409,-2884,-29400
1713321,16.1547,-17.2074,-3.81377,-44.0936,72.4164,-90.3955,-129.639,-115.234,-221.252,0.684967,0.187714,0.599396,-0.368988,29165,30224,28903,-2884,-29400
1713327,14.6761,-19.9062,-3.5458,-46.8347,71.1969,-92.6422,-117.004,-86.3037,-223.328,0.682556,0.163147,0.6026,-0.379791,-13075,8720,8167,-2884,-29400
1713333,14.2358,-17.3893,-2.33994,-51.2842,68.7195,-96.3721,-82.1533,-80.6274,-224.182,0.680573,0.151825,0.604126,-0.38559,22510,-21745,-30234,-2884,-29400
1713339,14.8005,-14.4655,-1.99541,-53.3112,67.478,-98.2013,-61.8896,-62.3169,-232.178,0.678162,0.141052,0.605469,-0.391785,-31506,-29425,17382,-2884,-29400
1713345,14.5947,-11.6758,-1.4499,-55.2393,66.2091,-100.058,-40.4663,-49.3164,-243.713,0.674896,0.130951,0.606964,-0.39859,-23058,-32753,486,-2884,-29400
1713351,14.4895,-9.3502,-1.06709,-57.1179,64.8853,-101.953,-26.7944,-36.8652,-259.521,0.670807,0.121399,0.608459,-0.406128,-17682,-32497,-14619,-2884,-29400
1713357,12.7142,-7.88594,-0.861328,-59.0186,63.5065,-103.953,-17.0288,-18.7988,-278.564,0.660004,0.102753,0.61203,-0.423218,-15378,-28913,-28699,-2884,-29400
1713363,11.6519,-7.17295,-1.29199,-62.7264,60.5127,-108.04,-2.44141,5.7373,-317.81,0.653168,0.0934753,0.614227,-0.432678,-16658,-15601,11237,-2868,-29402
1713369,10.7905,-6.45518,-1.61738,-64.5007,58.8812,-110.045,-3.479,14.8926,-335.999,0.645508,0.0840149,0.616547,-0.442719,-21522,-4849,229,-2868,-29402
1713375,9.80957,-5.91445,-1.77051,-66.2311,57.1619,-112.011,-6.89697,23.9868,-353.516,0.637085,0.0741882,0.619049,-0.453094,-28434,8976,-10524,-2868,-29402
1713381,8.51758,-5.29717,-2.35908,-67.901,55.3546,-113.895,-15.3198,29.9072,-368.713,0.627869,0.0639648,0.621765,-0.463654,28142,25360,-18716,-2868,-29402
1713387,6.28291,-5.49336,-3.49795,-69.5325,53.465,-115.697,-27.2827,35.5835,-383.057,0.607574,0.0418396,0.627808,-0.484589,16622,-21232,-26908,-2868,-29402
1713393,5.23018,-5.91924,-3.83291,-72.5592,49.4769,-118.872,-54.1992,34.2407,-403.564,0.59671,0.0298767,0.631012,-0.49472,-10515,19985,26084,-2868,-29402
1713399,5.08184,-6.57959,-3.91426,-73.96,47.395,-120.256,-66.1011,33.3252,-409.729,0.58548,0.0172119,0.634277,-0.504486,-28947,-21231,22756,-2868,-29402
1713405,4.23965,-7.4457,-3.66064,-75.3058,45.2692,-121.509,-80.2612,31.311,-415.1,0.573914,0.00405884,0.637543,-0.513855,15597,5906,21220,-2868,-29402
1713411,3.8042,-8.65635,-3.61758,-76.5802,43.1049,-122.618,-91.0645,27.832,-418.884,0.562103,-0.00958252,0.640808,-0.522675,-8724,-31214,21732,-2868,-29402
1713417,2.98594,-11.9342,-2.97158,-77.7722,40.9241,-123.602,-99.0601,23.8037,-419.8,0.537994,-0.0380554,0.646942,-0.538971,29932,-1262,23524,-2868,-29402
1713423,2.14854,-12.8099,-2.44043,-79.9091,36.546,-125.239,-102.905,17.5171,-417.908,0.525787,-0.0524902,0.649628,-0.546509,-27157,-5101,29156,-2868,-29402
1713429,1.22979,-13.0778,-2.25859,-80.8484,34.3433,-125.892,-103.088,11.5356,-418.701,0.513519,-0.0669861,0.652008,-0.553711,7915,25876,-29980,-2868,-29402
1713435,0.851758,-13.3123,-1.67959,-81.6998,32.1295,-126.442,-102.295,3.66211,-419.434,0.501251,-0.081543,0.653961,-0.560638,-25878,-7148,-21788,-2868,-29402
1713441,0.890039,-13.6808,-1.26807,-82.4908,29.9103,-126.903,-102.356,-0.854492,-420.349,0.489075,-0.096283,0.655426,-0.567322,3306,25621,-11292,-2868,-29402
1713447,0.6125,-14.8531,-0.239258,-83.2434,27.691,-127.304,-102.356,-6.40869,-421.631,0.464539,-0.125854,0.657288,-0.579865,29673,-6635,997,-2868,-29402
1713453,0.406738,-15.1259,0.291895,-84.6112,23.2471,-127.919,-102.905,-10.0098,-421.082,0.452179,-0.140686,0.657684,-0.585724,11752,-8682,24805,-2868,-29402
1713459,0.301465,-15.6188,1.20107,-85.2649,21.0498,-128.156,-106.567,-9.82666,-418.823,0.43985,-0.155487,0.657745,-0.591278,-32281,21783,-26907,-2868,-29402
1713465,-0.0478516,-16.6523,1.84707,-85.9241,18.869,-128.364,-110.657,-7.62939,-415.649,0.427429,-0.170197,0.657623,-0.596436,-13850,-14313,-12315,-2843,-29405
1713471,-0.77998,-17.8678,2.26816,-86.5668,16.7157,-128.546,-112.854,-5.79834,-411.804,0.414948,-0.184753,0.65741,-0.601166,1510,13848,3302,-2843,-29405
1713477,-2.33994,-20.2029,3.51709,-87.1985,14.5953,-128.699,-111.389,-2.74658,-402.649,0.389893,-0.213135,0.656433,-0.609558,14821,-24808,20966,-2843,-29405
1713483,-2.80889,-21.0308,4.09131,-88.3795,10.4425,-128.919,-108.459,-1.70898,-398.987,0.377441,-0.226898,0.655579,-0.613312,-30493,24601,-6426,-2843,-29405
1713489,-3.11992,-21.8442,4.57461,-88.9288,8.40454,-128.985,-105.957,-1.34277,-395.081,0.365082,-0.240356,0.654449,-0.616882,-19230,-19431,12007,-2843,-29405
1713495,-3.5123,-23.2941,4.75166,-89.4672,6.41602,-129.029,-105.408,-0.488281,-388.489,0.352814,-0.253571,0.653015,-0.620209,-10015,-487,31975,-2843,-29405
1713501,-4.02432,-24.7728,5.16797,-89.9945,4.47693,-129.062,-104.309,2.19727,-379.883,0.340698,-0.266449,0.651428,-0.62326,-2592,17178,-13337,-2843,-29405
1713507,-6.41211,-26.8734,6.37861,-90.5109,2.58179,-129.084,-107.361,6.40869,-370.911,0.316956,-0.290863,0.647919,-0.62851,2528,32282,7144,-2843,-29405
1713513,-7.87158,-27.1271,6.05801,-91.5601,-1.18652,-129.095,-106.384,6.10352,-378.479,0.305054,-0.302643,0.646088,-0.630707,6366,-8166,-18200,-2843,-29405
1713519,-9.08223,-26.8782,5.45986,-92.0599,-3.16406,-129.062,-104.065,4.02832,-395.874,0.292938,-0.314484,0.643951,-0.632874,9949,1819,-24,-2843,-29405
1713525,-10.3551,-26.4954,4.75645,-92.5433,-5.25146,-129.007,-98.999,3.54004,-420.898,0.280426,-0.32666,0.641266,-0.635071,11996,8987,19177,-2843,-29405
1713531,-12.25,-26.3854,4.12959,-92.9828,-7.4707,-128.914,-90.0879,0.427246,-449.646,0.267303,-0.339294,0.637909,-0.637482,12507,13083,-27671,-2843,-29405
1713537,-17.1356,-26.6103,3.92383,-93.3948,-9.77783,-128.793,-81.9702,-0.854492,-481.323,0.239319,-0.366028,0.628632,-0.643005,11738,13595,-9495,-2843,-29405
1713543,-20.7054,-27.1893,3.85684,-94.2297,-14.4635,-128.48,-81.9092,-3.479,-483.093,0.224792,-0.379608,0.623138,-0.645721,3800,4379,23018,-2843,-29405
1713549,-23.9688,-27.73,4.12959,-94.6582,-16.7542,-128.282,-80.8105,-6.53076,-475.708,0.210266,-0.393036,0.617401,-0.648102,-2090,-5350,-29206,-2843,-29405
1713555,-26.9165,-28.2324,4.04824,-95.0867,-18.9514,-128.068,-78.7964,-6.95801,-460.693,0.196014,-0.406097,0.611481,-0.650085,-4907,-16614,-17430,-2843,-29405
1713561,-32.8166,-35.0991,5.52207,-95.614,-20.9619,-127.837,-96.4966,-9.15527,-426.941,0.182281,-0.418518,0.605591,-0.651733,-9516,-31462,-8470,-2843,-29405
1713567,-32.8453,-16.9251,6.31162,-96.1139,-24.4995,-127.381,-41.687,-13.4888,-369.812,0.158173,-0.439972,0.594421,-0.654205,-14637,14874,-22,-2843,-29405
1713573,-31.5438,-13.164,9.18272,-96.5094,-26.0651,-127.194,-71.2891,-3.479,-344.177,0.147949,-0.44928,0.588715,-0.655426,-22831,31513,15083,-2843,-29405
1713579,-33.142,-14.8627,11.159,-96.9708,-27.4658,-127.117,-93.9941,13.7329,-312.805,0.137695,-0.457672,0.58432,-0.655762,-24624,3865,21739,-2868,-29402
1713585,-35.7643,-17.7529,8.76641,-97.4542,-28.6688,-127.095,-103.699,20.6299,-272.583,0.127441,-0.464752,0.581207,-0.655609,-22577,-23528,26859,-2868,-29402
1713591,-39.6259,-19.8823,5.22539,-97.8003,-29.6631,-127.134,-81.665,26.2451,-232.666,0.118042,-0.470551,0.579193,-0.655029,-17970,13080,30187,-2868,-29402
1713597,-49.78,-10.0201,6.12979,-97.8497,-31.0913,-127.288,-8.66699,24.9023,-161.682,0.104187,-0.478058,0.574982,-0.65564,-11315,-17385,-32277,-2868,-29402
1713603,-53.1057,-4.52676,7.18252,-97.7728,-31.5198,-127.375,-4.45557,19.2871,-124.634,0.0999146,-0.480194,0.572571,-0.656891,11724,-13546,-27669,-2868,-29402
1713609,-55.3355,-0.655566,7.03418,-97.7454,-31.7505,-127.441,-11.5356,9.0332,-88.4399,0.0970154,-0.481476,0.570801,-0.657928,27851,22294,-25877,-2868,-29402
1713615,-56.015,1.78965,7.28779,-97.8003,-31.8054,-127.48,-26.062,0,-54.5044,0.0952759,-0.482086,0.569946,-0.658447,-17974,-6123,-24597,-2868,-29402
1713621,-56.9529,2.82803,7.6084,-97.9321,-31.6846,-127.524,-41.3818,-4.88281,-22.583,0.0944824,-0.482147,0.570251,-0.658264,5834,-32491,-22805,-2868,-29402
1713627,-58.3358,-36.8696,21.3657,-98.7616,-30.575,-127.321,-71.4722,-54.8706,103.516,0.0950012,-0.480896,0.575348,-0.654633,-32567,7957,-21525,-2868,-29402
1713633,-52.4884,-33.4291,12.8625,-98.6517,-29.4104,-127.117,30.9448,-78.3691,177.429,0.0992126,-0.478668,0.580017,-0.65155,-30776,30228,-17685,-2868,-29402
1713639,-42.3056,-26.6055,18.5712,-98.042,-27.9547,-126.953,125.366,-79.0405,238.281,0.108246,-0.474762,0.58316,-0.650146,8136,13588,-14869,-2868,-29402
1713645,-39.7168,-63.4225,111.93,-97.9871,-24.7467,-126.672,18.9819,-149.658,586.853,0.120972,-0.468842,0.584747,-0.650787,-14393,1300,-9749,-2868,-29402
1713651,2.69404,31.1562,-10.9149,-95.5316,-22.6263,-126.392,497.375,-109.741,372.681,0.143066,-0.45639,0.595612,-0.645264,32199,-7917,-5141,-2868,-29402
1713657,11.6901,-15.413,37.4582,-95.7568,-17.3969,-126.865,-110.229,131.47,485.901,0.186798,-0.435577,0.596863,-0.647339,10695,-10989,5356,-2868,-29402
1713663,-13.8243,-30.5054,-11.9772,-95.625,-15.0128,-127.573,-29.2969,83.4961,450.684,0.196167,-0.41861,0.610382,-0.643097,9415,-3309,9452,-2868,-29402
1713669,-4.95264,-28.0075,6.92891,-95.1361,-12.5684,-127.716,76.6602,-21.1792,453.125,0.207214,-0.403168,0.6203,-0.640015,14791,9492,13036,-2868,-29402
1713675,-2.30645,-9.9627,12.0873,-94.4275,-10.2887,-128.073,112.732,29.7852,426.941,0.2229,-0.389557,0.626038,-0.637604,25543,26132,16108,-2868,-29402
1713681,-9.24492,-10.3646,12.049,-94.032,-8.30017,-128.754,42.2974,103.638,373.596,0.236969,-0.374756,0.630493,-0.637024,-24121,-19948,18668,-2868,-29402
1713687,-13.1735,-25.5479,1.40684,-92.8729,-4.95483,-130.331,133.24,154.663,284.424,0.25415,-0.345825,0.64212,-0.635101,14280,21781,21484,-2868,-29402
1713693,-13.5994,-12.3409,-4.35449,-91.8347,-3.5321,-130.99,186.523,121.277,259.888,0.260712,-0.331085,0.64444,-0.637939,-26936,-20971,21740,-2868,-29402
1713699,-10.3934,-6.59395,5.39766,-91.0492,-2.20276,-131.44,141.479,84.3506,238.77,0.268219,-0.317291,0.644409,-0.641876,-312,2326,19692,-2851,-29404
1713705,-11.1207,-6.77578,10.5848,-90.5328,-0.950317,-131.874,89.9048,85.144,223.022,0.275482,-0.305634,0.644775,-0.644104,28361,25366,15596,-2851,-29404
1713711,-19.3703,0.77041,8.88125,-90.0769,-0.214233,-132.638,78.3691,152.832,119.141,0.281525,-0.294952,0.64624,-0.644989,-6967,-17386,8684,-2851,-29404
1713717,-8.55107,-10.8958,-3.30654,-90.5328,0.576782,-132.407,-73.3032,-81.604,49.7437,0.283417,-0.28244,0.649689,-0.646271,22218,3863,1516,-2851,-29404
1713723,5.53643,-19.0354,1.71787,-90.5273,0.922852,-132.347,-9.15527,-11.5356,40.4663,0.287201,-0.283325,0.651428,-0.642487,13771,-20457,-12821,-2851,-29404
1713729,0.880469,-14.6234,-0.425879,-90.2252,1.2854,-132.709,52.5513,75.0122,45.3491,0.28952,-0.281738,0.652069,-0.641449,-25397,-2025,-17685,-2851,-29404
1713735,-7.66104,-5.94316,0.827832,-89.8737,1.63147,-132.935,63.3545,47.2412,42.8467,0.290253,-0.276855,0.652161,-0.643188,-309,14616,-21013,-2851,-29404
1713741,-4.34014,-1.45469,0.588574,-89.7418,1.95007,-132.852,17.0898,-14.0991,36.377,0.291809,-0.272675,0.65152,-0.644897,23756,29720,-23573,-2851,-29404
1713747,-4.5459,-8.06777,0.535937,-89.7528,2.45544,-133.006,-8.05664,34.4238,20.9961,0.295868,-0.269531,0.652008,-0.64386,-19764,-21224,-25877,-2851,-29404
1713753,-8.32139,-8.30703,-1.72744,-89.7034,2.66418,-133.083,2.50244,18.9209,15.9912,0.296295,-0.267303,0.652954,-0.643646,21965,5145,-29973,-2851,-29404
1713759,-6.04844,-7.68018,-1.31592,-89.6484,2.83447,-133.066,3.2959,-0.0610352,7.87354,0.29715,-0.265503,0.653381,-0.643585,-24627,18201,-30741,-2851,-29404
1713765,-3.029,-9.35977,0.0143555,-89.6155,2.9718,-133.033,-0.244141,-2.80762,1.28174,0.298309,-0.264496,0.653412,-0.643402,-6707,29977,-29717,-2851,-29404
1713771,-1.81836,-11.3982,0.0478516,-89.577,3.08716,-133.022,0.793457,1.52588,-1.52588,0.299347,-0.263794,0.653442,-0.643188,10446,-25063,-27925,-2851,-29404
1713777,-3.2874,-10.7331,0.679492,-89.3683,3.33984,-133.006,16.2354,3.479,2.01416,0.301117,-0.262207,0.653198,-0.64325,26574,-15591,-25877,-2851,-29404
1713783,-3.40703,-9.05352,1.3877,-89.2694,3.46069,-132.979,13.3667,-0.610352,0.305176,0.302124,-0.2612,0.652863,-0.643555,-9266,1050,-19477,-2851,-29404
1713789,-3.76592,-10.4843,1.89492,-89.2145,3.57056,-132.935,4.15039,-4.21143,-0.549316,0.303131,-0.260406,0.652527,-0.643738,4303,8730,-16149,-2851,-29404
1713795,-3.16299,-11.1255,1.27764,-89.165,3.68042,-132.896,3.90625,-3.66211,0,0.304138,-0.259857,0.652405,-0.643616,17871,15642,-11285,-2851,-29404
1713801,-2.74189,-11.6949,1.00967,-89.0936,3.80676,-132.852,8.30078,-2.99072,3.72314,0.305084,-0.259338,0.652283,-0.643494,30927,22298,-6165,-2851,-29404
1713807,-2.10068,-10.9197,1.6126,-88.9233,4.11438,-132.715,11.1084,-8.54492,13.3667,0.307556,-0.257965,0.651733,-0.643402,-21809,28442,-2069,-2851,-29404
1713813,-2.67012,-9.73301,1.28721,-88.8354,4.29565,-132.676,12.146,-1.2207,16.2964,0.309052,-0.257172,0.651489,-0.64325,1232,-26598,7660,-2860,-29403
1713819,-3.96689,-9.70908,1.6126,-88.7585,4.48242,-132.621,9.94873,-4.94385,17.395,0.310455,-0.256104,0.651337,-0.643188,13008,-21990,13036,-2860,-29403
1713825,-3.096,-8.38838,1.83271,-88.6816,4.6582,-132.55,9.76562,-8.05664,16.2964,0.311951,-0.255157,0.651184,-0.642975,25040,-18150,18668,-2860,-29403
1713831,-2.24902,-9.13965,2.21553,-88.6377,4.823,-132.479,2.44141,-8.54492,15.1367,0.313477,-0.254333,0.651001,-0.642761,-28976,-14054,24044,-2860,-29403
1713837,-1.14365,-9.02481,2.02412,-88.5828,5.13611,-132.369,-5.12695,-1.52588,14.5264,0.316284,-0.252991,0.650879,-0.642029,-17456,-10470,29420,-2860,-29403
1713843,-2.3208,-10.4364,2.43086,-88.5883,5.3009,-132.352,-6.10352,4.08936,15.564,0.317383,-0.252289,0.651123,-0.64151,3537,-3302,-25364,-2860,-29403
1713849,-3.40225,-10.1637,0.890039,-88.5773,5.47119,-132.33,-3.41797,2.13623,17.8223,0.318298,-0.251434,0.65152,-0.640991,13777,-486,-20500,-2860,-29403
1713855,-3.29219,-9.28799,1.23936,-88.5443,5.63599,-132.297,1.77002,0.12207,17.2729,0.319366,-0.250549,0.651794,-0.640503,24273,1563,-15636,-2860,-29403
1713861,-2.43564,-8.9626,1.3877,-88.5333,5.79529,-132.264,-2.99072,-0.183105,16.6626,0.320557,-0.249695,0.651917,-0.640167,-31279,3099,-11796,-2860,-29403
1713867,-2.90459,-11.0633,0.44502,-88.5114,6.1084,-132.226,1.0376,3.23486,16.7236,0.32254,-0.248138,0.652466,-0.63916,-21039,4379,-7444,-2860,-29403
1713873,-2.67012,-10.312,0.77041,-88.4344,6.2677,-132.204,11.9629,2.68555,18.5547,0.323547,-0.247253,0.652649,-0.638855,210,7451,2029,-2860,-29403
1713879,-2.66533,-8.90518,0.100488,-88.3575,6.427,-132.193,11.9629,5.49316,17.8223,0.324738,-0.246216,0.652496,-0.638794,10962,8987,7661,-2860,-29403
1713885,-2.53135,-9.73301,0.459375,-88.2806,6.56982,-132.177,11.5356,3.84521,15.686,0.325806,-0.245117,0.652405,-0.638763,21458,10779,13549,-2860,-29403
1713891,-1.80879,-10.312,-0.29668,-88.1927,6.70715,-132.138,13.916,-0.305176,14.7095,0.326843,-0.244171,0.652252,-0.638733,31954,12315,18157,-2860,-29403
1713897,-2.76582,-10.7092,0.0957031,-87.9346,6.97632,-132.083,27.0386,2.38037,15.686,0.329071,-0.242401,0.651611,-0.638947,-15150,15643,25837,-2860,-29403
1713903,-3.24434,-10.1828,-0.196191,-87.7588,7.11365,-132.05,32.2266,1.0376,16.3574,0.330292,-0.241333,0.651001,-0.639313,-6190,16667,29421,-2860,-29403
1713909,-3.58887,-9.82393,-0.698633,-87.5665,7.23999,-132.012,36.1938,0.549316,14.7095,0.331573,-0.240204,0.650269,-0.639832,2259,18203,32237,-2860,-29403
1713915,-3.23477,-10.0632,0.124414,-87.3523,7.36084,-131.935,40.5273,-7.14111,13.7329,0.332886,-0.239105,0.649414,-0.640442,10195,19483,-30483,-2860,-29403
1713921,-2.56963,-9.75215,0.535937,-87.1216,7.48169,-131.863,43.0908,-6.10352,13.3667,0.334412,-0.23819,0.648315,-0.641113,18131,20507,-28179,-2860,-29403
1713927,-3.25391,-11.2212,0.832617,-86.6766,7.77832,-131.666,43.396,-15.1978,22.583,0.337524,-0.236206,0.646118,-0.642426,-31277,22555,-24595,-2860,-29403
1713933,-2.22988,-10.4795,0.947461,-86.413,7.93762,-131.528,48.2788,-18.2495,24.231,0.339508,-0.235291,0.644897,-0.642944,-22829,23579,-23827,-2876,-29401
1713939,-2.30645,-10.4938,1.81357,-86.1548,8.10242,-131.396,48.0347,-16.2964,24.9634,0.341675,-0.234314,0.643494,-0.643524,-14637,24347,-22547,-2876,-29401
1713945,-2.2873,-11.2116,1.48818,-85.9076,8.27271,-131.248,45.3491,-20.0195,26.7944,0.343781,-0.233276,0.642151,-0.644135,-6701,25371,-21523,-2876,-29401
1713951,-2.27295,-11.0346,1.46426,-85.6329,8.46497,-131.089,50.8423,-21.6675,31.8604,0.346008,-0.232361,0.640839,-0.644592,980,26139,-21523,-2876,-29401
1713957,-3.28262,-11.9103,0.110059,-85.0232,8.88245,-130.743,59.5703,-28.0151,38.269,0.350922,-0.230011,0.637939,-0.64566,16084,27419,-22291,-2876,-29401
1713963,-2.41172,-11.0298,-0.14834,-84.6552,9.09668,-130.534,68.6646,-31.0669,39.2456,0.35379,-0.228821,0.6362,-0.64621,23508,28187,-23059,-2876,-29401
1713969,-2.29688,-9.93877,0.119629,-84.2651,9.31641,-130.331,73.4253,-28.7476,39.978,0.356842,-0.227539,0.634186,-0.646973,31956,29211,-23315,-2876,-29401
1713975,-2.01934,-9.71387,0.942676,-83.8696,9.54712,-130.106,72.937,-31.4331,43.2739,0.359863,-0.226135,0.63208,-0.647858,-25644,30235,-24339,-2876,-29401
1713981,-1.97627,-9.79043,1.31592,-83.4961,9.79431,-129.891,70.0073,-29.8462,47.3022,0.363037,-0.224731,0.629944,-0.648651,-17452,31771,-26131,-2876,-29401
1713987,-0.851758,-11.537,4.78516,-82.9248,10.437,-129.485,41.3818,-24.4751,69.9463,0.369476,-0.221466,0.626343,-0.649628,725,-30949,-31763,-2876,-29401
1713993,-0.832617,-11.269,4.48369,-82.7161,10.8215,-129.304,36.3159,-18.6157,75.8667,0.372864,-0.219635,0.625427,-0.6492,11221,-29157,30189,-2876,-29401
1713999,-2.10068,-10.5848,4.83779,-82.4963,11.217,-129.161,39.2456,-10.437,76.8433,0.37619,-0.21759,0.624786,-0.64859,22485,-27621,26861,-2876,-29401
1714005,-2.57441,-9.79043,4.34971,-82.2986,11.6235,-128.996,32.7148,-14.7705,80.9326,0.379333,-0.21524,0.624176,-0.648132,-31787,-26341,23533,-2876,-29401
1714011,-1.9332,-10.245,4.31143,-82.1613,12.0575,-128.837,21.0571,-11.5356,85.8765,0.38266,-0.213013,0.623688,-0.6474,-20011,-25061,20461,-2876,-29401
1714017,-3.14863,-13.0922,3.7085,-81.958,13.0023,-128.611,15.9302,-1.77002,96.4966,0.388885,-0.20816,0.623901,-0.64505,5334,-20965,16877,-2876,-29401
1714023,-2.10547,-12.9726,3.34004,-81.8317,13.5077,-128.485,19.2871,-2.31934,100.769,0.39209,-0.205444,0.624176,-0.643707,18646,-18917,15341,-2876,-29401
1714029,-1.18193,-12.0442,4.60811,-81.6998,14.0295,-128.392,20.9961,3.78418,104.187,0.395416,-0.202545,0.62439,-0.642365,32214,-17637,13549,-2876,-29401
1714035,-2.22031,-11.8289,5.12012,-81.59,14.5953,-128.32,17.334,10.0708,112.305,0.398682,-0.199402,0.624664,-0.641083,-18474,-16869,11501,-2876,-29401
1714041,-2.36865,-13.1592,4.29229,-81.5405,15.1831,-128.232,6.5918,14.3433,117.004,0.401947,-0.195892,0.625183,-0.639618,-3882,-16613,9453,-2876,-29401
1714047,-2.73711,-16.0207,3.37354,-81.4691,16.4905,-128.095,1.64795,23.1323,134.216,0.408783,-0.188873,0.627014,-0.63559,28887,-17381,3309,-2876,-29401
1714053,-3.21084,-16.2121,2.74668,-81.4252,17.2156,-128.024,5.5542,21.1182,144.958,0.412262,-0.184875,0.628235,-0.63327,-18729,-17381,-532,-2884,-29400
1714059,-2.89502,-17.4323,2.48828,-81.3757,17.9846,-127.936,5.92041,20.752,155.273,0.416107,-0.180603,0.629425,-0.630829,-297,-16869,-4372,-2884,-29400
1714065,-3.22041,-16.0016,1.81357,-81.2933,18.8086,-127.848,12.6343,21.4844,165.71,0.420197,-0.176056,0.630615,-0.628204,19160,-16357,-7700,-2884,-29400
1714071,-3.95732,-13.5659,2.70361,-81.1945,19.6765,-127.76,15.8081,23.0103,175.476,0.429138,-0.165741,0.632782,-0.622742,-27432,-15589,-10516,-2884,-29400
1714077,-3.37832,-14.3124,3.93818,-81.1121,21.5167,-127.59,1.40381,24.9634,192.81,0.433655,-0.16037,0.634186,-0.619598,12761,-16357,-14868,-2884,-29400
1714083,-2.39258,-14.3794,3.96689,-81.1121,22.5055,-127.513,-4.76074,29.2358,201.233,0.438477,-0.154755,0.635712,-0.616058,-31527,-16357,-16404,-2884,-29400
1714089,-2.37344,-17.5567,4.11523,-81.145,23.5437,-127.452,-9.58252,34.668,210.632,0.443268,-0.148956,0.637512,-0.612183,-9255,-17381,-18964,-2884,-29400
1714095,-1.81357,-18.198,4.30186,-81.156,24.6478,-127.392,-5.24902,35.9497,224.426,0.44812,-0.142853,0.639557,-0.608002,15066,-18405,-21780,-2884,-29400
1714101,-3.78027,-22.0213,3.51709,-81.2219,25.8289,-127.365,-13.855,44.3726,239.929,0.458405,-0.12915,0.64389,-0.598724,-25126,-19429,-25364,-2884,-29400
1714107,-3.03379,-24.1938,2.64141,-81.2329,28.4491,-127.205,-10.376,38.8794,275.94,0.464294,-0.121429,0.645905,-0.593597,26843,-23013,-32020,-2884,-29400
1714113,-2.08633,-23.9401,2.38779,-81.134,29.8993,-127.04,6.04248,29.1138,300.354,0.470398,-0.113434,0.648132,-0.587921,-10277,-26341,29932,-2884,-29400
1714119,-1.72744,-26.3279,0.794336,-81.0956,31.4374,-126.936,-0.366211,40.6494,316.956,0.477356,-0.104706,0.64978,-0.582092,19164,-29925,25580,-2884,-29400
1714125,-2.01455,-27.8879,-1.1293,-80.9637,33.1018,-126.777,12.085,37.0483,345.886,0.484283,-0.0953369,0.651794,-0.575714,-15396,31259,19692,-2884,-29400
1714131,-6.54609,-33.6492,-3.79463,-80.4913,36.7822,-126.266,30.4565,20.9351,394.958,0.500122,-0.0739136,0.654938,-0.561554,17373,26395,14316,-2884,-29400
1714137,-2.33516,-34.3,-3.63672,-79.9915,38.7817,-125.722,38.208,-8.48389,424.805,0.509125,-0.0621948,0.655701,-0.553955,17118,15131,2540,-2884,-29400
1714143,-0.497656,-36.2667,-0.449805,-79.4751,40.9351,-125.266,49.7437,15.8691,455.444,0.519501,-0.0501709,0.655518,-0.545715,-12322,7707,-3861,-2884,-29400
1714149,-4.23486,-37.8745,-0.545508,-78.9203,43.2477,-124.788,53.9551,24.8413,486.511,0.529663,-0.0364685,0.655487,-0.536987,26335,-1510,-10773,-2884,-29400
1714155,-1.62217,-37.9319,0.823047,-78.1512,45.6976,-124.025,51.6968,-2.74658,524.109,0.54007,-0.0216064,0.655365,-0.527466,1760,-13030,-18965,-2884,-29400
1714161,4.61289,-37.1902,1.16758,-76.712,51.0754,-122.404,22.583,28.3813,588.257,0.56369,0.00958252,0.653748,-0.504639,-20512,-26854,-27669,-2884,-29400
1714167,-1.10059,-34.4579,1.1293,-75.9924,53.9703,-121.575,18.0054,43.6401,615.356,0.575226,0.0265198,0.653503,-0.49115,1506,6426,17899,-2884,-29400
1714173,-10.5896,-37.5061,1.23936,-75.2563,56.8103,-120.531,-18.7988,30.3345,608.398,0.586517,0.0443726,0.65332,-0.476532,-16414,-14311,6123,-2884,-29400
1714179,-1.86143,-43.7746,5.92881,-73.526,59.5679,-118.449,-2.50244,-58.8379,621.643,0.597687,0.0607605,0.653168,-0.460815,-32029,27417,-5910,-2884,-29400
1714185,2.92852,-40.4633,8.3166,-71.6858,62.3364,-116.499,32.7148,-11.2915,618.164,0.611176,0.0761108,0.649902,-0.445221,19940,25,-18454,-2884,-29400
1714191,-6.29727,-46.4304,-1.27764,-66.6101,67.5659,-111.209,42.5415,-49.6216,597.595,0.633057,0.109833,0.644073,-0.415009,8165,-31464,-30998,-2884,-29400
1714197,5.18232,-43.6358,-5.28281,-62.4243,69.8236,-107.144,84.3506,-71.6553,572.571,0.644318,0.125671,0.639069,-0.400665,-15898,31511,6634,-2884,-29400
1714203,7.67539,-35.8456,-6.85234,-57.7716,71.8396,-102.821,118.103,-46.2646,529.785,0.65506,0.14151,0.632538,-0.388153,-28441,-5610,-8471,-2884,-29400
1714209,13.2692,-25.9595,-11.2643,-52.0477,73.4271,-97.4268,120.422,-83.4961,486.145,0.663757,0.157471,0.62616,-0.377441,24296,20246,-24855,-2884,-29400
1714215,18.1022,-14.8244,-14.0827,-45.7361,74.6082,-91.5491,135.925,-92.9565,434.326,0.672363,0.1716,0.618713,-0.368195,10473,-22763,24041,-2884,-29400
1714221,11.3743,28.6104,1.11973,-33.5632,76.0803,-81.2823,265.015,-29.2969,299.438,0.685791,0.197662,0.602722,-0.356689,-5143,-3052,4585,-2884,-29400
1714227,-3.65586,39.4967,-8.09648,-31.6406,75.9265,-79.7882,99.1821,-72.7539,91.1255,0.687988,0.2117,0.595734,-0.35611,22251,-29933,25832,-2884,-29400
1714233,13.7717,11.0154,-4.14395,-31.723,75.1849,-79.6014,-47.4854,-140.442,-22.4609,0.689484,0.214691,0.591919,-0.357819,-1301,-9966,3048,-2884,-29400
1714239,16.193,-1.04316,-9.20186,-33.8489,74.4379,-81.4471,-64.5142,-83.9844,-113.77,0.692261,0.209259,0.589417,-0.359802,-28692,11794,-20505,-2884,-29400
1714245,9.37412,-5.78525,-6.99111,-36.8097,73.4985,-84.0619,-85.8765,-83.0078,-178.65,0.6922,0.201874,0.589783,-0.363556,5613,-27887,21991,-2884,-29400
1714251,15.1785,-17.1739,-3.87598,-42.6984,71.098,-88.9178,-124.695,-93.6279,-227.417,0.690613,0.180115,0.592072,-0.374084,-30483,3601,-538,-2884,-29400
1714257,13.5898,-19.8393,-3.58887,-45.5878,69.9445,-91.3788,-109.802,-67.9932,-230.896,0.689087,0.167847,0.593933,-0.379639,15086,19728,21222,-2884,-29400
1714263,12.652,-19.4421,-3.26826,-48.1201,68.7689,-93.5541,-94.3604,-65.918,-228.882,0.686554,0.156342,0.596252,-0.385406,32494,2576,998,-2884,-29400
1714269,13.2357,-17.8678,-2.16768,-50.3833,67.5824,-95.5536,-77.5757,-60.5469,-229.309,0.683777,0.145386,0.598297,-0.391418,-20498,-9713,-18715,-2884,-29400
1714275,13.609,-15.4991,-1.82314,-52.5037,66.4014,-97.5311,-56.9458,-46.0205,-234.68,0.680634,0.13501,0.600128,-0.397766,-11794,-16881,29413,-2884,-29400
1714281,13.6281,-10.5082,-1.27764,-56.3544,63.9789,-101.409,-20.752,-21.6675,-249.39,0.672241,0.116333,0.603821,-0.412109,-3858,-18417,741,-2884,-29400
1714287,13.0587,-8.60371,-1.1915,-58.1946,62.7264,-103.398,-9.0332,-6.5918,-260.925,0.667023,0.107758,0.605682,-0.420105,-3346,-13553,-10268,-2868,-29402
1714293,11.8098,-7.32607,-1.18672,-60.0018,61.4136,-105.392,-3.41797,4.88281,-274.353,0.661041,0.0995178,0.607727,-0.428619,-4114,-7665,-20508,-2868,-29402
1714299,11.2547,-6.16807,-1.3877,-61.7706,60.0458,-107.375,-2.74658,14.6484,-287.842,0.654297,0.0912476,0.609955,-0.4375,-7186,1040,-29724,-2868,-29402
1714305,10.3168,-4.82344,-1.51211,-63.5394,58.6011,-109.369,-6.5918,26.4282,-303.711,0.646942,0.0828247,0.612396,-0.446655,-12306,12304,27364,-2868,-29402
1714311,8.66113,-3.45488,-2.21074,-67.0386,55.459,-113.17,-31.4941,37.8418,-334.229,0.630127,0.0646973,0.618225,-0.46524,-29970,-23024,13284,-2868,-29402
1714317,7.36914,-3.97646,-2.8998,-68.7634,53.7616,-114.977,-44.3726,43.5791,-348.877,0.620819,0.054657,0.621613,-0.474426,24046,-4336,9444,-2868,-29402
1714323,6.23506,-4.63203,-3.48359,-70.4169,51.9818,-116.664,-55.481,44.0063,-361.206,0.610901,0.0439758,0.625275,-0.48349,10990,16657,6116,-2868,-29402
1714329,5.37373,-5.70391,-3.68457,-71.9879,50.1251,-118.218,-65.5518,42.2974,-371.704,0.600555,0.0326843,0.629059,-0.492371,-2067,-28143,3812,-2868,-29402
1714335,4.58418,-6.61309,-3.7707,-73.4711,48.208,-119.636,-74.8901,40.1001,-379.578,0.589874,0.0207825,0.632782,-0.501068,-17939,-5871,3812,-2868,-29402
1714341,3.29219,-8.575,-3.36396,-76.1737,44.2365,-122.047,-91.6138,32.3486,-388.916,0.567688,-0.00439453,0.640076,-0.517578,8173,-20206,7652,-2868,-29402
1714347,3.10557,-9.65166,-2.86631,-77.4042,42.193,-123.063,-97.9614,28.8086,-392.761,0.556366,-0.0175781,0.643463,-0.52533,-15380,8467,10468,-2868,-29402
1714353,2.69883,-10.58,-2.60313,-78.5522,40.1331,-123.97,-102.356,26.001,-394.409,0.544891,-0.0310669,0.646698,-0.532745,24300,-27373,14308,-2868,-29402
1714359,1.804,-11.2882,-2.42607,-79.6124,38.0457,-124.766,-103.577,20.752,-398.254,0.533264,-0.0447693,0.649689,-0.539825,-1301,1556,18404,-2868,-29402
1714365,1.19629,-11.8576,-2.10547,-80.5737,35.9198,-125.436,-102.6,11.9629,-403.564,0.521515,-0.0586548,0.652344,-0.546722,-29461,31252,24804,-2868,-29402
1714371,0.875684,-13.3027,-1.45947,-82.2437,31.5747,-126.524,-97.0459,2.38037,-414.185,0.497894,-0.0871887,0.656158,-0.560211,-29206,28181,-22556,-2868,-29402
1714377,0.593359,-13.6903,-0.952246,-82.9633,29.361,-126.936,-94.2383,-4.45557,-419.678,0.485901,-0.101654,0.657379,-0.566833,-791,-4843,-11804,-2868,-29402
1714383,0.650781,-13.7621,-0.507227,-83.6389,27.1198,-127.288,-93.75,-8.30078,-423.95,0.473846,-0.116333,0.658081,-0.573364,24553,27670,-28,-2868,-29402
1714389,0.832617,-14.2885,0.224902,-84.2761,24.884,-127.579,-94.7876,-11.7188,-424.988,0.4617,-0.131134,0.658386,-0.579712,-17944,-5866,13029,-2868,-29402
1714395,0.976172,-15.2886,0.693848,-84.9023,22.6593,-127.831,-97.7173,-11.2915,-422.668,0.437164,-0.160767,0.658112,-0.591431,5608,24599,25829,-2868,-29402
1714401,-0.0957031,-17.7816,1.47383,-86.1218,18.3527,-128.254,-101.501,-5.98145,-405.823,0.424896,-0.175232,0.657745,-0.596649,-22042,18200,-10779,-2851,-29404
1714407,-1.21064,-18.7674,1.82793,-86.7096,16.2927,-128.425,-102.051,-3.78418,-393.372,0.412689,-0.18927,0.657288,-0.60144,-7707,-19432,4582,-2851,-29404
1714413,-2.09111,-19.3225,2.38779,-87.2864,14.3152,-128.584,-103.271,-0.12207,-379.395,0.400696,-0.202789,0.656708,-0.605743,4581,7449,20966,-2851,-29404
1714419,-3.07207,-19.8919,3.00508,-87.8632,12.4091,-128.721,-105.042,1.95312,-367.065,0.388916,-0.215759,0.656128,-0.609558,15332,32537,-26394,-2851,-29404
1714425,-3.5458,-20.2604,3.42139,-88.4344,10.5634,-128.831,-107.117,3.78418,-356.934,0.366028,-0.240356,0.654816,-0.615906,27875,-9703,-9498,-2851,-29404
1714431,-3.7707,-22.0835,4.23008,-89.566,6.9928,-129.023,-108.521,10.7422,-344.788,0.354828,-0.252045,0.654114,-0.61853,-18463,31770,27623,-2851,-29404
1714437,-4.07695,-22.8252,4.9957,-90.1208,5.22949,-129.128,-108.521,16.6626,-345.52,0.343628,-0.263458,0.65329,-0.620972,-11040,-16358,-17945,-2851,-29404
1714443,-4.6416,-23.0979,5.55078,-90.6757,3.42224,-129.243,-110.107,23.4375,-355.469,0.332214,-0.274567,0.652374,-0.623322,-5153,-1254,1768,-2851,-29404
1714449,-5.59863,-23.3755,5.61777,-91.2469,1.5271,-129.37,-114.563,27.771,-374.695,0.320282,-0.285675,0.651337,-0.625671,-546,11803,21224,-2851,-29404
1714455,-6.39297,-23.9114,5.27803,-91.8073,-0.488892,-129.485,-115.295,31.1279,-402.405,0.294067,-0.309113,0.648224,-0.630615,3294,22555,-24088,-2851,-29404
1714461,-9.154,-26.0743,3.92861,-92.8345,-5.01526,-129.683,-102.6,35.2173,-469.849,0.27948,-0.321716,0.64566,-0.633514,11740,-26853,13289,-2851,-29404
1714467,-11.2547,-27.3807,3.80898,-93.2684,-7.4707,-129.738,-92.7124,33.6304,-495.178,0.264069,-0.334961,0.642181,-0.636841,12251,-23781,32233,-2851,-29404
1714473,-13.6329,-28.4047,3.87119,-93.6694,-9.98657,-129.765,-84.8389,32.6538,-510.62,0.248047,-0.348572,0.637756,-0.640381,10458,-24037,-15127,-2851,-29404
1714479,-17.0399,-29.3378,3.98604,-94.032,-12.5189,-129.781,-78.6133,32.2266,-515.564,0.23172,-0.362305,0.632599,-0.643982,6873,-28389,2538,-2851,-29404
1714485,-24.835,-31.5294,3.18691,-94.3726,-14.9963,-129.76,-72.2046,28.1982,-509.216,0.19931,-0.389038,0.62085,-0.650665,1240,28699,18154,-2851,-29404
1714491,-29.065,-31.2758,2.87109,-94.9109,-19.6271,-129.639,-48.7061,20.0195,-469.91,0.184021,-0.40152,0.614502,-0.653595,-6699,4123,-20758,-2851,-29404
1714497,-32.7305,-29.2086,2.8376,-95.1141,-21.72,-129.54,-38.208,12.9395,-441.65,0.169739,-0.413147,0.607941,-0.656342,-13612,-14054,-8982,-2851,-29404
1714503,-35.5394,-25.9068,3.61279,-95.3119,-23.6371,-129.402,-34.6069,4.5166,-410.034,0.156677,-0.42392,0.601379,-0.658783,-21805,29722,-22,-2851,-29404
1714509,-37.152,-21.7485,5.17275,-95.5481,-25.3674,-129.243,-40.6494,-1.15967,-375.671,0.144836,-0.433838,0.595062,-0.660736,-30254,4890,8171,-2851,-29404
1714515,-37.6783,-14.6474,9.04873,-95.8612,-26.8945,-129.095,-55.7251,-1.89209,-338.196,0.124115,-0.450928,0.58493,-0.662567,28113,-22247,14059,-2851,-29404
1714521,-37.6353,-15.9298,6.40732,-96.7291,-29.306,-128.897,-92.4072,4.02832,-254.272,0.114899,-0.457825,0.581757,-0.662292,26063,-14568,22251,-2868,-29402
1714527,-40.4824,-18.6812,1.05273,-97.0917,-30.1685,-128.837,-74.8901,4.39453,-210.083,0.106628,-0.46347,0.579865,-0.661407,29646,18456,25323,-2868,-29402
1714533,-46.3155,-16.0446,0.0143555,-97.2015,-30.8276,-128.793,-25.2075,2.56348,-170.959,0.100006,-0.467834,0.578339,-0.660706,-29235,-14313,27883,-2868,-29402
1714539,-50.603,-8.25918,2.65576,-97.1796,-31.3,-128.743,2.68555,-2.92969,-135.803,0.0956421,-0.470978,0.576172,-0.661011,-19252,19223,29419,-2868,-29402
1714545,-54.747,7.80459,7.73281,-97.1906,-31.5802,-128.694,-5.79834,-7.8125,-100.464,0.0914612,-0.47464,0.572693,-0.662018,-6197,-11498,31723,-2868,-29402
1714551,-53.5124,10.4364,8.69463,-97.8992,-31.6956,-128.507,-95.459,-25.9399,-48.5229,0.0902405,-0.475769,0.573151,-0.66098,29898,-3307,32747,-2868,-29402
1714557,-53.0195,6.9624,9.04395,-98.5474,-31.5967,-128.425,-131.592,-25.6958,-30.1514,0.0888672,-0.476654,0.5755,-0.658478,-10807,-30443,32747,-2868,-29402
1714563,-53.0243,-16.327,-3.55537,-99.5087,-31.3275,-128.249,-185.12,-45.4712,-0.305176,0.0873108,-0.477142,0.579285,-0.654999,18121,9237,32747,-2868,-29402
1714569,-53.967,-49.9379,28.1463,-100.267,-30.5804,-128.013,-138.794,-73.5474,92.1021,0.0859985,-0.477661,0.585114,-0.649597,-15416,-13804,-31509,-2868,-29402
1714575,-33.8263,-102.56,-4.91436,-100.102,-29.4269,-127.793,42.2363,-85.7544,174.133,0.0983582,-0.472656,0.594086,-0.643311,20424,30740,-27925,-2868,-29402
1714581,-22.6051,-28.5243,66.9826,-98.0969,-25.0269,-127.205,491.028,-67.8711,487.488,0.111237,-0.469849,0.601044,-0.63678,-28473,-493,-16405,-2868,-29402
1714587,18.8487,44.1096,-24.9642,-96.449,-22.7032,-126.123,405.273,-260.071,394.592,0.137817,-0.455017,0.59729,-0.645844,19911,-9709,-10517,-2868,-29402
1714593,41.4155,20.7915,1.804,-96.9379,-19.9731,-125.843,-88.8672,-121.887,496.155,0.164978,-0.44812,0.592438,-0.648773,9415,-13549,-4117,-2868,-29402
1714599,10.044,-24.1603,33.7593,-97.1082,-17.6605,-127.205,-137.939,194.519,453.918,0.18161,-0.437958,0.604065,-0.640472,4551,-11757,2284,-2868,-29402
1714605,0.813477,-19.0354,11.537,-96.795,-15.1392,-127.557,165.955,-21.5454,464.355,0.202393,-0.405975,0.626312,-0.633911,5831,-4845,8940,-2868,-29402
1714611,-3.97646,-6.10107,13.4463,-95.1746,-10.426,-128.37,97.6562,77.6367,424.072,0.219788,-0.391205,0.629822,-0.633911,24263,21268,20972,-2868,-29402
1714617,-14.6713,-14.3172,6.32119,-94.7406,-8.54187,-129.183,46.5088,124.878,358.582,0.232056,-0.375336,0.635162,-0.63382,-26937,-28652,26860,-2868,-29402
1714623,-18.064,-22.6338,2.84717,-94.1638,-6.92139,-129.974,81.4819,130.737,305.481,0.240234,-0.360352,0.641052,-0.633514,-8505,-8428,30444,-2868,-29402
1714629,-17.4897,-16.9729,-0.842188,-93.2245,-5.48218,-130.594,163.086,103.577,266.602,0.247253,-0.346313,0.64505,-0.634613,14024,13333,32492,-2868,-29402
1714635,-3.98125,-9.92441,5.71826,-92.4445,-4.13086,-130.957,103.943,47.7905,229.309,0.263214,-0.322144,0.646118,-0.639801,-26168,-29419,32492,-2868,-29402
1714641,-3.13428,-10.1397,9.51768,-91.3403,-1.69189,-131.765,88.562,96.9849,208.984,0.27063,-0.312225,0.647034,-0.640717,29641,17430,24300,-2868,-29402
1714647,-15.9872,-3.34482,9.66602,-90.7635,-0.950317,-132.671,100.22,177.307,125.305,0.275787,-0.301666,0.64856,-0.641998,-8503,-26602,18924,-2868,-29402
1714653,-27.1223,1.07666,-5.50771,-90.6702,-0.571289,-133.033,7.26318,70.9229,49.0723,0.276459,-0.291016,0.649567,-0.64563,19658,-4842,12780,-2868,-29402
1714659,-13.14,-9.8335,-3.42139,-90.9338,-0.170288,-132.775,-62.0728,-53.3447,51.8188,0.276794,-0.286621,0.650879,-0.646118,-17718,16407,6892,-2868,-29402
1714665,3.2252,-12.6137,2.36387,-90.8569,0.22522,-132.583,6.10352,-39.4287,53.3447,0.283447,-0.285126,0.652802,-0.641937,9419,-28905,2284,-2868,-29402
1714671,-8.20176,-2.06719,0.598145,-90.0604,0.961304,-133.187,73.6694,65.6128,42.4805,0.285095,-0.280365,0.652252,-0.64389,-3893,7960,-3093,-2868,-29402
1714677,-8.01992,-0.913965,-0.521582,-89.9561,1.26892,-133.138,12.146,-9.21631,35.7666,0.286163,-0.275574,0.651581,-0.646149,20428,24600,-5909,-2868,-29402
1714683,-0.100488,-7.00068,4.80908,-89.9286,1.51611,-133.061,-3.84521,-15.2588,24.8413,0.288422,-0.273834,0.651611,-0.645844,-22580,-25320,-8981,-2868,-29402
1714689,-2.44043,-7.35,0.488086,-89.8846,1.73035,-133.215,1.28174,32.1045,17.5781,0.290314,-0.272766,0.651886,-0.645172,-1076,-10984,-12053,-2868,-29402
1714695,-7.23994,-9.18272,-1.41641,-89.8407,1.9281,-133.352,2.80762,28.1982,14.2822,0.291199,-0.268524,0.653046,-0.645386,19149,1817,-13589,-2868,-29402
1714701,-2.49307,-9.20186,1.67002,-89.6814,2.22473,-133.264,9.8877,-7.75146,2.01416,0.292542,-0.267639,0.652893,-0.645264,-9523,26137,-13077,-2868,-29402
1714707,-1.62695,-10.1493,1.77051,-89.632,2.34009,-133.275,2.74658,3.78418,-0.732422,0.293762,-0.266937,0.652618,-0.645325,7630,-28903,-11285,-2868,-29402
1714713,-2.84238,-11.4174,1.68916,-89.5605,2.46643,-133.281,6.89697,2.68555,1.09863,0.294434,-0.266083,0.652649,-0.645325,24014,-19687,-9237,-2868,-29402
1714719,-3.34482,-10.7283,1.26328,-89.4781,2.58728,-133.286,9.94873,2.2583,1.89209,0.295227,-0.265167,0.652557,-0.645416,-25394,-10727,-5909,-2868,-29402
1714725,-5.01484,-10.3216,1.18193,-89.4012,2.70264,-133.303,9.0332,5.06592,0.793457,0.296814,-0.263275,0.652252,-0.645752,-9266,-2535,-3349,-2868,-29402
1714731,-2.92852,-10.9006,0.641211,-89.3024,2.91138,-133.22,2.31934,-8.11768,-0.976562,0.297699,-0.262695,0.65213,-0.645752,21967,12826,2028,-2868,-29402
1714737,-1.81836,-11.4174,0.741699,-89.231,3.02673,-133.182,8.78906,-5.98145,2.92969,0.298645,-0.262268,0.652008,-0.645599,-28977,19482,4332,-2868,-29402
1714743,-2.21074,-10.5943,1.71787,-89.1321,3.16406,-133.154,13.855,-3.17383,6.83594,0.299713,-0.261627,0.651764,-0.645599,-15153,25626,8428,-2868,-29402
1714749,-3.0625,-9.67559,0.947461,-89.0497,3.31787,-133.121,10.6201,-3.17383,11.4746,0.300842,-0.260773,0.651459,-0.645752,-2353,31002,12780,-2868,-29402
1714755,-2.64141,-9.3167,1.34941,-88.9783,3.47717,-133.083,8.78906,-5.5542,12.7563,0.303345,-0.258942,0.651154,-0.645599,9424,-29926,18156,-2860,-29403
1714761,-1.96191,-9.62773,1.44033,-88.8629,3.78479,-132.968,3.54004,-9.76562,11.9629,0.304657,-0.258148,0.651031,-0.645447,-32304,-21478,30188,-2860,-29403
1714767,-1.37813,-10.0201,2.04326,-88.8135,3.93311,-132.913,3.66211,-7.38525,12.9395,0.305939,-0.257538,0.65097,-0.645142,-20016,-17382,-31508,-2860,-29403
1714773,-1.60781,-9.72344,1.82793,-88.775,4.09241,-132.885,3.05176,-2.50244,14.4043,0.30719,-0.256805,0.650909,-0.644867,-7984,-13798,-26132,-2860,-29403
1714779,-2.30166,-9.83828,2.30645,-88.7366,4.2572,-132.863,1.52588,-0.366211,15.8081,0.308319,-0.255951,0.65097,-0.644623,3025,-10214,-21268,-2860,-29403
1714785,-3.05293,-9.74736,1.44033,-88.7091,4.4165,-132.852,0.915527,0.915527,15.7471,0.310394,-0.254089,0.651276,-0.644043,14033,-6886,-16404,-2860,-29403
1714791,-2.5457,-10.0105,1.39727,-88.6597,4.72961,-132.808,0.305176,-1.15967,16.8457,0.311432,-0.253265,0.651489,-0.643677,-31535,-1766,-6164,-2860,-29403
1714797,-2.44043,-10.044,1.42119,-88.6322,4.88892,-132.803,0.976562,3.23486,16.7847,0.3125,-0.25238,0.651642,-0.643341,-21295,-486,-1300,-2860,-29403
1714803,-2.87588,-10.2163,0.808691,-88.5992,5.05371,-132.803,1.64795,3.66211,18.5547,0.313446,-0.251404,0.651825,-0.643097,-12079,539,2541,-2860,-29403
1714809,-3.08643,-10.4364,0.535937,-88.5333,5.21851,-132.792,8.54492,1.95312,18.9819,0.314423,-0.250366,0.652008,-0.642822,-3119,1819,5869,-2860,-29403
1714815,-1.95713,-9.24014,-0.119629,-88.4344,5.3833,-132.775,15.4419,1.15967,18.9209,0.316711,-0.248138,0.651764,-0.642792,5586,2843,8685,-2860,-29403
1714821,-2.42129,-10.4843,-0.0143555,-88.2477,5.67993,-132.77,15.564,2.80762,16.6016,0.317719,-0.246979,0.651581,-0.642944,22994,6171,14573,-2860,-29403
1714827,-2.35908,-10.7714,-0.717773,-88.1213,5.82275,-132.759,21.7896,1.89209,16.3574,0.318756,-0.245911,0.651367,-0.643066,32210,7195,18669,-2860,-29403
1714833,-2.5792,-10.8432,0.00957031,-87.9565,5.96558,-132.742,30.5176,0.793457,17.395,0.319885,-0.244781,0.65094,-0.643341,-24366,8475,23533,-2860,-29403
1714839,-2.7084,-9.69951,0.00478516,-87.7478,6.10291,-132.709,38.0249,-1.28174,16.2354,0.321136,-0.243591,0.650299,-0.64386,-15150,9755,27629,-2860,-29403
1714845,-2.99551,-10.1685,-0.258398,-87.5555,6.24023,-132.676,35.7666,-5.92041,15.5029,0.323792,-0.241211,0.648529,-0.645203,-6190,11035,30957,-2860,-29403
1714851,-2.77539,-11.6423,0.77041,-87.1326,6.50391,-132.561,42.9688,-7.75146,16.9678,0.325195,-0.240204,0.647614,-0.645782,9939,15131,-28435,-2860,-29403
1714857,-3.38311,-11.9868,-0.29668,-86.9019,6.65771,-132.473,43.8843,-11.5356,21.6064,0.326752,-0.239136,0.646484,-0.646515,17875,16667,-27411,-2860,-29403
1714863,-3.39268,-11.6423,0.401953,-86.6162,6.82251,-132.347,52.8564,-19.8975,24.7192,0.328552,-0.238037,0.645325,-0.647156,25043,18203,-27667,-2860,-29403
1714869,-1.9332,-10.9867,1.62217,-86.3086,7.00378,-132.182,57.4951,-26.4282,28.3203,0.33075,-0.236969,0.643829,-0.647919,-32557,19483,-28947,-2876,-29401
1714875,-2.05283,-10.7618,1.40205,-86.0175,7.17957,-132.039,55.3589,-28.0151,32.1045,0.335632,-0.234802,0.640594,-0.649414,-24621,21019,-29715,-2876,-29401
1714881,-2.24424,-11.0824,0.942676,-85.4187,7.56958,-131.688,54.8096,-27.2217,33.4473,0.338226,-0.233734,0.638977,-0.650055,-7981,23579,-28691,-2876,-29401
1714887,-3.096,-11.3791,0.77041,-85.0891,7.77283,-131.512,60.9131,-28.4424,35.5225,0.340851,-0.232666,0.63739,-0.650635,212,24603,-28179,-2876,-29401
1714893,-3.18691,-9.72822,0.114844,-84.7375,7.97607,-131.298,65.6738,-33.8135,37.1704,0.343597,-0.231476,0.63562,-0.651337,7892,25627,-28179,-2876,-29401
1714899,-2.74189,-9.00566,0.894824,-84.364,8.18481,-131.078,69.7632,-35.3394,38.269,0.346558,-0.230316,0.633636,-0.6521,15316,26651,-29971,-2876,-29401
1714905,-1.58867,-9.65166,0.799121,-84.0015,8.39355,-130.858,64.8193,-33.6304,40.4053,0.352661,-0.227997,0.629547,-0.653625,22484,27931,31981,-2876,-29401
1714911,-1.72266,-10.7666,0.961816,-83.3148,8.84949,-130.441,63.2324,-30.7617,46.2646,0.355682,-0.226776,0.627625,-0.654266,-28460,31515,24045,-2876,-29401
1714917,-0.870898,-12.9391,3.25869,-83.0127,9.14612,-130.248,55.7861,-27.1606,57.6172,0.358734,-0.225372,0.625824,-0.654785,-20780,-32741,20461,-2876,-29401
1714923,-0.952246,-13.9057,3.76592,-82.7765,9.51416,-130.051,41.8701,-24.6582,72.876,0.361938,-0.223663,0.62442,-0.654968,-12076,-31461,17389,-2876,-29401
1714929,-1.15322,-13.0539,3.66543,-82.5073,9.92065,-129.875,48.645,-20.5688,80.0781,0.365326,-0.22171,0.623535,-0.654541,-1836,-29925,15085,-2876,-29401
1714935,-1.95234,-9.98184,4.47891,-82.2217,10.3326,-129.71,42.4194,-18.5547,88.3789,0.372406,-0.216797,0.621613,-0.654053,9429,-28901,13293,-2876,-29401
1714941,-2.17246,-11.1733,4.0291,-81.8042,11.2335,-129.391,29.7241,-10.3149,91.6138,0.376038,-0.214264,0.620911,-0.653473,-31019,-25317,7917,-2876,-29401
1714947,-3.40703,-13.2118,3.05771,-81.6614,11.7279,-129.26,23.8647,-6.89697,98.5718,0.379425,-0.211609,0.620697,-0.652588,-18219,-23269,5613,-2876,-29401
1714953,-3.61758,-14.2406,2.71797,-81.4856,12.2552,-129.1,28.3203,-11.2915,106.812,0.382812,-0.208801,0.620789,-0.651428,-4907,-21989,3053,-2876,-29401
1714959,-2.64619,-13.5181,3.76592,-81.2714,12.8156,-128.93,36.0718,-11.8408,113.403,0.386597,-0.205811,0.620697,-0.650238,8662,-20965,-532,-2876,-29401
1714977,-1.75137,-13.3123,6.08193,-80.6781,15.304,-128.48,11.7188,15.8691,135.01,0.402039,-0.191345,0.621002,-0.644958,3799,-16101,-14100,-2876,-29401
1714983,-2.45957,-15.2838,5.0627,-80.6232,16.0291,-128.397,7.01904,22.0337,144.836,0.405914,-0.187378,0.621887,-0.642853,20951,-15589,-17940,-2876,-29401
1714989,-3.26826,-15.7767,4.24443,-80.5682,16.8036,-128.309,7.8125,22.522,155.334,0.409821,-0.183075,0.623047,-0.640503,-26409,-15333,-20244,-2893,-29399
1714995,-3.58408,-16.705,1.89014,-80.4529,18.4955,-128.145,10.9863,25.0854,174.805,0.418213,-0.173553,0.625641,-0.635162,-7465,-15589,-23060,-2893,-29399
1715001,-3.37354,-14.5517,2.39736,-80.365,19.4128,-128.057,12.9395,27.771,185.059,0.422791,-0.168304,0.626892,-0.632324,31960,-15845,-29716,-2893,-29399
1715007,-3.68936,-14.7766,3.27783,-80.2936,20.3796,-127.98,11.2915,31.0669,194.763,0.427551,-0.162659,0.628174,-0.629303,-12840,-16613,32236,-2893,-29399
1715013,-2.95244,-13.8147,3.81377,-80.2222,21.3904,-127.864,7.32422,26.8555,205.688,0.432404,-0.156708,0.629578,-0.626068,9433,-17637,26860,-2893,-29399
1715019,-2.1916,-15.1211,4.91914,-80.2222,22.4286,-127.804,-2.99072,37.5977,209.29,0.437622,-0.150635,0.631042,-0.622467,32729,-18661,22252,-2893,-29399
1715025,-1.69873,-19.844,5.11055,-80.2716,24.7083,-127.694,-10.1929,44.4946,237.305,0.447662,-0.137695,0.63501,-0.614227,-8487,-19941,17388,-2893,-29399
1715031,-1.33027,-20.246,4.08174,-80.3046,25.9387,-127.656,-8.60596,48.5229,250.183,0.452942,-0.130676,0.637299,-0.609528,-21542,-23013,9196,-2893,-29399
1715037,-2.12461,-23.5382,4.56504,-80.3375,27.2736,-127.617,-8.72803,50.7812,271.484,0.458374,-0.123138,0.639618,-0.604584,4315,-25061,6124,-2893,-29399
1715043,-2.55527,-23.8253,1.67959,-80.365,28.6853,-127.557,-8.30078,49.9878,288.391,0.464203,-0.11499,0.641998,-0.599182,31451,-27877,3308,-2893,-29399
1715049,-2.52178,-27.8257,1.66045,-80.321,30.2069,-127.436,-1.58691,42.7246,313.293,0.477325,-0.0971375,0.646454,-0.587097,-5413,-30949,236,-2893,-29399
1715055,-6.42647,-32.6826,-5.03877,-80.0739,33.6127,-127.106,16.7236,35.0952,365.723,0.48468,-0.0868835,0.648468,-0.580414,-7972,26139,-8469,-2893,-29399
1715061,-5.57949,-35.2235,-4.85693,-79.7168,35.4858,-126.705,31.311,10.9253,394.104,0.49292,-0.0760193,0.649933,-0.573334,25821,20507,-14101,-2893,-29399
1715067,-3.59365,-37.3434,-4.36406,-79.2993,37.5018,-126.249,34.4849,9.70459,425.781,0.502411,-0.0646362,0.650482,-0.565826,-6179,14363,-20245,-2893,-29399
1715073,-4.321,-39.3101,-2.31123,-78.7775,39.6826,-125.739,46.5698,12.7563,460.327,0.512512,-0.0523071,0.650818,-0.557587,29406,6683,-26133,-2893,-29399
1715079,-1.08623,-40.425,0.29668,-78.0743,42.0117,-125.041,55.542,-2.74658,496.948,0.534851,-0.0242615,0.650085,-0.539062,1759,-2534,31979,-2893,-29399
1715085,2.33516,-43.2004,2.18203,-76.5692,47.1918,-123.481,43.396,25.5127,569.519,0.547089,-0.00878906,0.6492,-0.528259,20960,-27366,14571,-2893,-29399
1715091,0.30625,-44.5211,-2.10068,-75.6189,49.9933,-122.52,52.4292,16.4795,599.365,0.55899,0.00796509,0.648834,-0.516113,1505,21530,4075,-2893,-29399
1715097,-1.97148,-38.9129,-0.0143555,-74.4379,52.8717,-121.448,74.585,24.4141,619.08,0.571381,0.0255737,0.647675,-0.503265,-15903,1562,-6934,-2893,-29399
1715103,-10.6757,-42.8224,1.73701,-73.2953,55.7007,-120.262,43.1519,28.6865,610.291,0.583557,0.0444031,0.645782,-0.490234,30946,-18663,-17942,-2893,-29399
1715109,4.90957,-41.7696,4.16787,-71.1475,58.4418,-117.982,53.2227,-65.0635,628.296,0.60907,0.0787659,0.639709,-0.462067,14819,23577,-30230,-2893,-29399
1715115,-3.90469,-40.4968,3.62715,-65.8301,63.7866,-112.972,95.0317,-9.15527,612.305,0.621796,0.0969238,0.634216,-0.449036,-12316,-32744,6890,-2893,-29399
1715121,-2.79932,-44.6216,-2.13896,-62.0068,66.1816,-109.265,98.877,-69.7021,604.492,0.632843,0.115051,0.629517,-0.435699,-23579,24,-9751,-2893,-29399
1715127,8.46973,-44.0952,-7.50313,-57.1124,68.313,-104.661,136.719,-91.6138,584.9,0.644958,0.131836,0.622742,-0.42276,31462,28951,-27159,-2893,-29399
1715133,12.6854,-39.1378,-8.52236,-51.6962,70.1971,-99.7723,175.415,-63.7817,548.584,0.656586,0.148621,0.614441,-0.411285,18151,-7914,20201,-2893,-29399
1715139,15.3747,-27.8353,-12.9965,-45.5658,71.6858,-94.2078,181.519,-79.5898,504.883,0.674805,0.181824,0.597412,-0.393127,4072,17174,-536,-2893,-29399
1715145,25.3087,-2.41172,-18.0879,-32.3877,73.2898,-82.9303,286.316,-94.9707,380.859,0.68219,0.196472,0.587952,-0.387573,-26903,-6636,17640,-2893,-29399
1715151,12.116,40.8509,-3.56973,-27.2021,73.7347,-79.1675,323.669,-37.0483,276.855,0.687561,0.211823,0.577667,-0.385437,19946,10516,-8985,-2893,-29399
1715157,-1.40684,47.9855,-13.2884,-25.6641,73.3557,-78.1787,126.404,-102.539,63.8428,0.689148,0.226562,0.569305,-0.386688,-1814,26899,28903,-2893,-29399
1715163,15.9489,16.7241,-3.72764,-26.4606,72.4713,-78.7939,-32.1045,-155.029,-62.439,0.690552,0.228943,0.564331,-0.390045,-27157,-21998,743,-2893,-29399
1715169,10.8671,-1.24414,-6.57959,-29.2291,71.6254,-81.2714,-74.2188,-91.1865,-165.344,0.691589,0.21344,0.562897,-0.398956,9196,-1519,-26906,-2893,-29399
1715175,17.2648,-10.5991,-5.05312,-36.2988,69.1534,-87.1106,-163.269,-127.563,-265.076,0.690155,0.200592,0.565186,-0.404816,1773,-12272,-13851,-2893,-29399
1715181,20.8441,-16.8772,-4.46934,-39.8914,67.8955,-90.0714,-158.752,-81.4209,-277.1,0.688782,0.185699,0.567535,-0.41095,23533,25872,27621,-2893,-29399
1715187,17.1309,-19.6718,-3.84727,-43.3246,66.698,-92.9828,-142.151,-48.3398,-278.625,0.685791,0.171448,0.571167,-0.417084,-25363,5392,5349,-2893,-29399
1715193,15.5374,-19.6813,-3.07686,-46.3678,65.495,-95.5701,-126.831,-41.8091,-270.63,0.68161,0.158234,0.575378,-0.423279,-13075,-8177,-16412,-2893,-29399
1715199,14.7431,-16.8007,-1.46904,-49.1418,64.3304,-98.0035,-106.262,-23.1323,-262.939,0.672089,0.134491,0.583252,-0.435791,-3091,-17393,29412,-2893,-29399
1715205,13.9631,-13.6377,-1.21064,-54.1077,62.1167,-102.651,-66.4673,13.1226,-254.089,0.666229,0.124481,0.58728,-0.442291,7918,-20977,-4637,-2893,-29399
1715211,13.7956,-10.6374,-1.31592,-56.4093,61.0126,-104.914,-55.1758,30.5786,-256.775,0.659882,0.115234,0.591278,-0.448944,9198,-17393,-17949,-2893,-29399
1715217,12.2787,-8.84775,-1.47861,-58.6835,59.892,-107.188,-52.002,47.9126,-262.451,0.652863,0.106598,0.595428,-0.45578,8174,-10737,-28957,-2868,-29402
1715223,10.8288,-7.86201,-2.0624,-60.8972,58.7164,-109.435,-49.0112,59.4482,-271.484,0.645142,0.0982056,0.599976,-0.462708,4334,-1521,28899,-2868,-29402
1715229,8.1252,-6.97676,-2.81367,-63.0341,57.4695,-111.627,-45.3491,71.5332,-296.57,0.627869,0.0814819,0.609436,-0.477112,-1299,10000,22499,-2868,-29402
1715235,6.76621,-6.72314,-2.85195,-67.0166,54.7009,-115.785,-46.2036,72.4487,-309.692,0.618378,0.0728455,0.614227,-0.48468,-15891,-27632,14307,-2868,-29402
1715241,5.45508,-6.25898,-3.29219,-68.8568,53.1573,-117.691,-51.0864,71.4111,-325.928,0.608459,0.0638428,0.618958,-0.492462,-25363,-10224,13027,-2868,-29402
1715247,4.63682,-5.83311,-3.25869,-70.5707,51.5039,-119.443,-56.7017,64.6362,-340.698,0.598053,0.0542603,0.623627,-0.500366,28653,9233,14051,-2868,-29402
1715253,3.68936,-5.66084,-3.56016,-72.1747,49.7406,-121.042,-65.918,58.0444,-356.934,0.587402,0.0439758,0.628113,-0.508331,15341,29969,17635,-2868,-29402
1715259,2.85195,-6.80449,-3.94297,-73.6798,47.8729,-122.492,-81.4819,42.8467,-385.01,0.565125,0.0210571,0.636627,-0.524231,-1044,-12271,21987,-2868,-29402
1715265,2.26816,-7.17773,-4.08174,-76.355,43.8574,-124.898,-88.7451,31.4331,-397.949,0.553589,0.00848389,0.640533,-0.532043,28140,-29934,31715,-2868,-29402
1715271,1.99063,-7.43613,-3.61758,-77.5415,41.7371,-125.843,-99.4873,18.9209,-407.227,0.541931,-0.00488281,0.644104,-0.539734,6124,-3566,-28445,-2868,-29402
1715277,2.33037,-8.10127,-2.77539,-78.6896,39.5673,-126.661,-112.793,11.9629,-414.001,0.530212,-0.019043,0.6474,-0.547058,-18453,24083,-22045,-2868,-29402
1715283,1.89492,-9.08223,-2.44043,-79.8047,37.359,-127.37,-124.634,7.50732,-419.312,0.518341,-0.033844,0.650543,-0.553925,20203,-12013,-15389,-2868,-29402
1715289,1.2585,-12.4223,-1.52168,-80.8813,35.1343,-127.958,-143.616,-7.93457,-421.631,0.494232,-0.0648499,0.656464,-0.566101,-9494,18196,-6173,-2868,-29402
1715295,0.736914,-14.3603,-0.92832,-82.8754,30.6628,-128.804,-144.226,-13.855,-420.837,0.482178,-0.0808716,0.659058,-0.571411,-8471,13333,15332,-2868,-29402
1715301,0.368457,-16.1021,-0.334961,-83.7598,28.4546,-129.078,-140.503,-20.6299,-416.382,0.470154,-0.0969543,0.661224,-0.576385,21737,-22251,28644,-2868,-29402
1715307,-0.129199,-17.0352,0.411523,-84.5563,26.2573,-129.282,-132.935,-24.9023,-413.513,0.458344,-0.112915,0.662872,-0.581055,-17176,7702,-22812,-2868,-29402
1715313,-0.397168,-17.3701,1.11494,-85.2649,24.082,-129.413,-123.413,-29.3579,-410.461,0.446655,-0.128693,0.663971,-0.585632,6632,-27882,-6940,-2868,-29402
1715319,-0.330176,-16.3078,2.63662,-85.9076,21.9122,-129.479,-112.549,-39.4897,-409.363,0.423737,-0.159607,0.664368,-0.594543,26599,2327,9957,-2868,-29402
1715325,0.358887,-16.5614,3.42617,-87.0831,17.6111,-129.485,-111.694,-35.5225,-408.63,0.412445,-0.174988,0.663818,-0.598755,-3355,-6121,-23579,-2868,-29402
1715331,-0.14834,-17.7481,4.69424,-87.6379,15.4852,-129.474,-106.506,-31.311,-405.762,0.40097,-0.190094,0.663025,-0.602783,12005,19736,-7963,-2868,-29402
1715337,-0.45459,-18.4803,4.35449,-88.1598,13.3978,-129.457,-101.929,-26.4282,-400.269,0.389465,-0.204834,0.661926,-0.60672,24804,-21992,9702,-2851,-29404
1715343,-1.4834,-18.7817,5.12969,-88.6707,11.3544,-129.452,-100.22,-19.7754,-393.982,0.37793,-0.219116,0.660553,-0.610504,-29469,793,27622,-2851,-29404
1715349,-2.53613,-19.7053,5.479,-89.7528,7.42676,-129.43,-110.718,-8.8501,-375.793,0.354828,-0.246246,0.657562,-0.617188,-20766,21273,-18714,-2851,-29404
1715355,-3.22998,-21.4088,5.16318,-90.3296,5.55908,-129.435,-116.699,-1.15967,-364.258,0.343323,-0.259186,0.656219,-0.619843,-4896,-8679,21223,-2851,-29404
1715361,-4.03867,-23.0118,5.35938,-90.9229,3.75183,-129.452,-119.69,5.61523,-353.76,0.331818,-0.271545,0.65506,-0.62204,3040,6170,-24857,-2851,-29404
1715367,-5.01484,-23.7727,5.81875,-91.5216,1.98853,-129.479,-121.155,10.1929,-347.778,0.320374,-0.283325,0.654022,-0.623901,9439,19226,-5913,-2851,-29404
1715373,-5.97188,-23.8301,6.08193,-92.1204,0.20874,-129.501,-123.413,14.2822,-351.929,0.308899,-0.294708,0.652954,-0.625519,14558,29978,11752,-2851,-29404
1715379,-8.50801,-23.9258,4.98135,-93.3014,-3.6145,-129.551,-121.338,22.1558,-395.874,0.28476,-0.317383,0.65036,-0.628571,18397,-26598,30184,-2851,-29404
1715385,-10.0967,-23.8636,4.2875,-93.8397,-5.74585,-129.534,-112.549,19.8975,-429.26,0.271576,-0.329315,0.648285,-0.630402,22491,-16870,745,-2851,-29404
1715391,-11.5609,-24.323,3.88076,-94.3396,-8.02002,-129.468,-104.065,16.6626,-460.449,0.257629,-0.341949,0.645264,-0.632629,26842,-14566,18409,-2851,-29404
1715397,-13.4367,-25.4427,3.67021,-94.823,-10.3876,-129.364,-99.0601,14.3433,-481.873,0.243011,-0.355225,0.641266,-0.635132,29145,-15078,-29463,-2851,-29404
1715403,-16.236,-26.9213,3.52666,-95.3009,-12.7881,-129.227,-96.7407,12.3291,-491.577,0.227905,-0.368896,0.636566,-0.637695,29912,-19174,-12567,-2851,-29404
1715409,-23.2271,-29.2277,4.24443,-96.2567,-17.4463,-128.831,-90.6982,2.74658,-476.746,0.19751,-0.396118,0.625824,-0.64212,28887,-26342,4074,-2851,-29404
1715415,-26.6916,-29.0842,4.6751,-96.7346,-19.6106,-128.584,-86.853,-1.95312,-455.017,0.182953,-0.409119,0.620148,-0.643768,23253,13338,-30230,-2851,-29404
1715421,-29.8546,-28.2707,5.45029,-97.207,-21.6266,-128.315,-83.1909,-5.43213,-429.199,0.16922,-0.421387,0.614502,-0.64502,22740,-2279,-17174,-2851,-29404
1715427,-32.4673,-26.4045,6.68486,-97.6849,-23.4778,-128.024,-80.6885,-10.498,-400.452,0.156403,-0.4328,0.60907,-0.645874,22483,-21735,-5142,-2851,-29404
1715433,-33.9028,-23.6578,8.58457,-98.1683,-25.1642,-127.722,-80.8105,-12.7563,-369.141,0.144592,-0.443359,0.603912,-0.646301,22226,20505,3819,-2851,-29404
1715439,-33.922,-18.9636,11.1925,-99.1791,-27.9767,-127.222,-91.0034,-4.57764,-297.791,0.123779,-0.461487,0.595276,-0.645935,26832,-32744,16619,-2851,-29404
1715445,-35.4197,-20.6288,6.35947,-99.6185,-29.0588,-127.073,-84.1064,2.92969,-251.648,0.114624,-0.46875,0.592194,-0.645264,31183,3864,22251,-2851,-29404
1715451,-40.1522,-21.3322,1.225,-99.8438,-29.9487,-126.964,-44.0674,4.94385,-214.478,0.10675,-0.474426,0.589813,-0.644592,-27954,-25321,27115,-2876,-29401
1715457,-45.7748,-16.0925,0.287109,-99.7998,-30.6464,-126.859,8.60596,0,-178.711,0.100739,-0.478851,0.587128,-0.644775,-17459,12311,30955,-2876,-29401
1715463,-49.8374,-7.63711,2.56484,-99.646,-31.1517,-126.771,29.7852,-4.21143,-142.944,0.0970154,-0.482178,0.583679,-0.645996,-4404,-16874,-31509,-2876,-29401
1715469,-52.8425,9.04395,6.65137,-99.6735,-31.5527,-126.639,-27.0386,-13.6108,-65.7349,0.09375,-0.486084,0.5784,-0.648285,30155,-8683,-27413,-2876,-29401
1715475,-51.6701,13.6042,8.51758,-100.042,-31.4813,-126.645,-85.2661,-10.437,-31.7383,0.0929565,-0.486877,0.578369,-0.647827,-13110,29973,-24853,-2876,-29401
1715481,-50.4164,11.7571,9.95312,-100.651,-31.2616,-126.711,-141.418,-5.49316,-2.01416,0.0918579,-0.486847,0.58075,-0.645874,11978,4629,-20757,-2876,-29401
1715487,-48.8134,5.79961,11.1542,-101.371,-30.8881,-126.859,-172.913,0.366211,29.48,0.0903015,-0.486115,0.585358,-0.642487,-24631,-18668,-16405,-2876,-29401
1715493,-47.0285,-1.00967,12.0586,-102.085,-30.3497,-127.073,-180.908,4.45557,63.6597,0.0888672,-0.484436,0.591461,-0.638336,8137,25620,-10773,-2876,-29401
1715499,-40.4633,-68.3847,25.2273,-102.975,-27.8229,-127.315,36.6211,-49.8047,243.713,0.089447,-0.477966,0.609833,-0.625732,20936,-8941,1772,-2876,-29401
1715505,-48.8469,-119.04,89.3532,-103.096,-25.1367,-127.024,-16.2964,-180.237,471.375,0.0995483,-0.471161,0.614197,-0.625092,200,-20205,9452,-2876,-29401
1715511,-4.4167,15.0541,-12.7955,-99.0033,-23.0768,-127.282,780.762,-39.4287,372.681,0.118134,-0.462006,0.623749,-0.619202,-15673,-27117,16364,-2876,-29401
1715517,45.2915,48.5071,-40.8126,-98.1573,-20.8521,-126.42,219.299,-231.384,375.793,0.146149,-0.447174,0.609894,-0.637634,-26169,-29165,21740,-2876,-29401
1715523,30.6346,-0.583789,35.9796,-98.2068,-18.3032,-127.419,-94.8486,107.3,494.812,0.168243,-0.440735,0.609894,-0.636658,31943,-29165,26348,-2876,-29401
1715529,-7.42178,-31.405,5.50293,-97.2455,-13.656,-128.886,111.328,-29.3579,470.581,0.18576,-0.406647,0.633179,-0.631744,-30265,-14317,30188,-2876,-29401
1715535,3.61758,-6.66094,14.1354,-96.3062,-11.2885,-129.078,164.062,-21.2402,443.298,0.202576,-0.392303,0.638245,-0.630554,-21049,-493,30444,-2876,-29401
1715541,-9.78564,-5.95752,19.5139,-95.8118,-9.19006,-129.897,53.2837,113.586,403.809,0.219208,-0.377899,0.641083,-0.63089,-7481,16660,30188,-2876,-29401
1715547,-18.887,-18.6525,-0.478516,-95.4108,-7.37732,-130.71,40.1611,123.596,346.802,0.229034,-0.361816,0.647308,-0.630463,10440,-29420,28396,-2876,-29401
1715553,-13.4559,-27.3185,-0.961816,-94.6033,-5.69641,-131.506,129.15,128.357,320.007,0.244781,-0.332153,0.655426,-0.632507,29896,-10476,26348,-2876,-29401
1715559,-12.2356,-5.58428,5.2541,-92.3621,-2.86194,-132.605,180.115,66.4062,250.61,0.253143,-0.317657,0.654358,-0.637756,12745,31509,16108,-2868,-29402
1715565,-7.91465,-6.84277,8.26875,-91.7523,-1.59302,-132.863,107.422,43.0908,228.21,0.261627,-0.305725,0.653503,-0.641022,-24887,-12779,8428,-2868,-29402
1715571,-12.6663,-5.56035,17.5998,-91.1096,-0.653687,-133.632,112.122,149.048,165.71,0.269135,-0.295868,0.653992,-0.642029,4298,8726,-1557,-2868,-29402
1715577,-24.0646,3.24434,-4.13916,-90.813,-0.269165,-134.182,46.7529,109.253,51.2085,0.271851,-0.284729,0.654663,-0.645233,-30774,29206,-13333,-2868,-29402
1715583,-18.6956,-6.84277,-5.1249,-90.9943,0.137329,-134.094,-47.3633,-18.7378,54.0771,0.274109,-0.277313,0.657043,-0.645081,-822,-16618,-23829,-2868,-29402
1715589,6.90977,-14.6091,2.56963,-90.5273,0.928345,-133.89,66.8335,26.7944,52.4902,0.278473,-0.276764,0.656769,-0.643738,-11061,19735,23275,-2868,-29402
1715595,-3.79941,-5.43594,4.39756,-90.0769,1.30737,-134.236,81.604,70.1904,50.1709,0.280884,-0.272858,0.655823,-0.645294,15308,-30185,15339,-2868,-29402
1715601,-8.78076,0.421094,1.8375,-89.8517,1.62048,-134.302,34.668,13.6108,37.2314,0.282135,-0.267639,0.654968,-0.647827,-25140,-15849,8939,-2868,-29402
1715607,-2.65576,-3.37832,4.12002,-89.8517,1.89514,-134.209,-11.7188,-17.1509,29.9072,0.284088,-0.264923,0.654572,-0.648468,-564,-2793,2795,-2868,-29402
1715613,-1.23936,-7.07725,1.79443,-89.8627,2.11487,-134.291,-12.0239,18.5547,18.2495,0.286163,-0.263885,0.655029,-0.647522,22989,8984,-2582,-2868,-29402
1715619,-7.25908,-7.90029,-1.77051,-89.8077,2.47742,-134.451,-3.35693,8.36182,9.15527,0.287292,-0.260284,0.656342,-0.647156,-1587,29208,-10774,-2868,-29402
1715625,-5.42637,-9.63252,-0.45459,-89.7803,2.61475,-134.418,-3.90625,-4.94385,3.54004,0.288147,-0.259033,0.656647,-0.646973,16590,-26856,-13078,-2868,-29402
1715631,-3.2252,-9.85264,0.77041,-89.7144,2.7356,-134.379,3.78418,-5.67627,0.305176,0.289185,-0.258362,0.656738,-0.646698,-32306,-17896,-14870,-2868,-29402
1715637,-2.20117,-10.4891,2.20117,-89.6594,2.85645,-134.357,1.95312,-1.95312,0.244141,0.290253,-0.257721,0.656555,-0.646637,-16434,-9960,-15894,-2868,-29402
1715643,-2.56963,-10.6278,2.42607,-89.6045,2.96631,-134.352,2.86865,2.13623,-0.854492,0.291168,-0.25705,0.656464,-0.646606,-1074,-2792,-16406,-2868,-29402
1715649,-4.08652,-10.8575,1.27764,-89.5221,3.19153,-134.335,-2.99072,1.46484,-0.732422,0.292786,-0.255493,0.656281,-0.646637,27343,8729,-14358,-2868,-29402
1715655,-4.51719,-11.4365,0.287109,-89.4836,3.2959,-134.308,-0.366211,-1.46484,-0.244141,0.293488,-0.254852,0.656372,-0.646515,-25393,13849,-13334,-2868,-29402
1715661,-4.03867,-11.6327,0.794336,-89.4232,3.42224,-134.264,4.63867,-5.18799,3.66211,0.294281,-0.254303,0.656342,-0.646393,-13361,17945,-11798,-2868,-29402
1715667,-3.12949,-10.3455,0.191406,-89.3353,3.55408,-134.214,9.46045,-6.95801,5.61523,0.295349,-0.253662,0.656189,-0.646301,-1329,22553,-9750,-2868,-29402
