Timestamp,AccX,AccY,AccZ,AngleX,AngleY,AngleZ,AngularVelX,AngularVelY,AngularVelZ,QW,QX,QY,QZ,MagX,MagY,MagZ,Height,AirPressure
469758,4.1918,-2.71318,7.67061,-86.2427,-5.09766,-141.641,32.3486,-38.4521,58.2275,0.206421,-0.256836,0.634888,-0.69873,-25136,1561,-21270,-3465,-29330
469764,0.689063,-5.76611,5.51729,-86.1768,-4.64172,-141.768,0.793457,28.6255,55.1758,0.210754,-0.254974,0.634277,-0.698669,-11568,5401,-23062,-3465,-29330
469770,-9.79521,-12.4988,-2.68926,-86.1603,-4.24622,-141.899,15.686,-32.7759,42.3584,0.214264,-0.248352,0.636322,-0.698151,16337,12057,-25366,-3465,-29330
469776,-1.08623,-13.3602,0.904395,-85.9351,-3.52112,-141.476,18.0054,-41.0767,40.4053,0.217743,-0.246979,0.636108,-0.697754,30673,14873,-26134,-3465,-29330
469782,-0.210547,-13.408,2.98115,-85.7812,-3.18604,-141.438,24.1699,-1.46484,34.4849,0.221436,-0.245941,0.635712,-0.697327,-20783,17945,-25110,-3465,-29330
469788,-3.8377,-13.0826,-0.60293,-85.6604,-2.84546,-141.405,16.9067,-0.305176,36.6821,0.223877,-0.243866,0.635406,-0.69751,-6703,20505,-24598,-3465,-29330
469794,-4.24922,-15.8819,0.952246,-85.4791,-2.50488,-141.323,30.2734,-8.42285,38.4521,0.226288,-0.241791,0.635406,-0.697479,6866,23065,-23830,-3465,-29330
469800,-5.88574,-10.5561,1.69873,-85.2155,-2.16431,-141.279,42.4805,-0.0610352,34.4849,0.231812,-0.237488,0.633942,-0.698456,31954,27417,-22038,-3465,-29330
469806,-5.56035,-13.609,2.5457,-84.8309,-1.49414,-141.103,24.7803,-17.2729,43.8843,0.234344,-0.235321,0.633118,-0.699097,-21294,29465,-20758,-3465,-29330
469812,-4.00039,-15.2024,1.74658,-84.6167,-1.14258,-140.971,39.0015,-15.9302,43.7012,0.237457,-0.233612,0.632751,-0.698944,-7982,30489,-18198,-3465,-29330
469818,-4.49805,-14.5947,-1.43555,-84.3805,-0.791016,-140.856,44.2505,-11.4746,45.0439,0.240631,-0.231781,0.631958,-0.699219,4563,31769,-15382,-3465,-29330
469824,-4.38799,-17.4515,-0.129199,-84.1113,-0.439453,-140.696,51.9409,-19.8364,45.5933,0.243774,-0.229767,0.631042,-0.699585,16595,-32487,-13334,-3465,-29330
469830,-2.52178,-24.165,2.16768,-83.7927,-0.0714111,-140.471,86.5479,-42.6636,66.9556,0.251251,-0.226257,0.628265,-0.700623,-26157,-29159,-8470,-3465,-29330
469836,2.58398,-25.1412,14.6952,-82.9578,0.906372,-139.933,75.3784,-28.6255,94.9707,0.256226,-0.224274,0.625916,-0.701538,-14637,-27367,-6934,-3465,-29330
469842,6.17285,-20.0689,13.9966,-82.9028,1.68091,-139.927,8.48389,24.4141,134.583,0.261505,-0.221283,0.624298,-0.701996,-2861,-25575,-6166,-3465,-29330
469848,-0.282324,-20.2269,7.39307,-82.9797,2.60376,-140.109,-18.4937,65.1245,160.461,0.265869,-0.2164,0.62561,-0.700714,9940,-23783,-5654,-3465,-29330
469854,-5.89053,-22.4185,1.93799,-83.1061,3.60901,-140.164,-26.9165,43.457,180.969,0.269592,-0.2099,0.628387,-0.698761,24532,-22247,-7190,-3465,-29330
469860,0.521582,-21.5428,2.79932,-83.172,4.70215,-140.032,-8.30078,30.3955,221.252,0.280945,-0.197754,0.633728,-0.692993,-10028,-19175,-8982,-3465,-29330
469866,-2.03369,-19.1119,3.76113,-83.2379,7.16309,-140.059,-8.78906,50.2319,240.112,0.287384,-0.190674,0.636169,-0.690094,6613,-16615,-9494,-3465,-29330
469872,-2.44521,-17.1452,3.08164,-83.3203,8.50342,-140.021,-19.5923,32.959,255.371,0.293793,-0.182465,0.638947,-0.687042,24789,-13799,-8470,-3474,-29329
469878,0.267969,-17.3797,3.13906,-83.4357,9.87122,-139.911,-26.062,28.8086,263.489,0.300964,-0.17453,0.641876,-0.683258,-20523,-10727,-7190,-3474,-29329
469884,1.21543,-20.825,5.57949,-83.6169,11.3104,-139.845,-37.9028,37.6587,277.954,0.308624,-0.16684,0.644867,-0.678925,26582,-6119,-3350,-3474,-29329
469890,3.76592,-28.3568,7.68496,-83.9301,14.447,-139.746,-30.5176,44.9829,318.604,0.324249,-0.149994,0.651703,-0.668976,-14378,-5351,-1558,-3474,-29329
469896,3.15342,-28.9167,4.97656,-83.985,16.1719,-139.768,-10.437,58.7158,340.149,0.332733,-0.140442,0.654999,-0.663635,12503,-4071,-1302,-3474,-29329
469902,2.06719,-26.6581,3.89512,-83.9301,17.9901,-139.774,11.8408,58.7769,360.291,0.341431,-0.129608,0.657928,-0.658508,-24105,-2535,-1558,-3474,-29329
469908,1.57432,-22.8443,3.38789,-83.8202,19.8798,-139.796,25.0244,62.8052,375.732,0.350708,-0.117889,0.660156,-0.653595,7384,-999,-1814,-3474,-29329
469914,0.143555,-20.9016,1.14844,-83.6774,21.8134,-139.785,28.3813,59.3872,385.803,0.369965,-0.0927734,0.663513,-0.643524,11993,1562,-2326,-3474,-29329
469920,0.885254,-21.1695,2.24902,-83.183,25.8069,-139.669,56.6406,59.6313,407.41,0.380341,-0.0799561,0.66449,-0.638184,-14631,794,-2070,-3474,-29329
469926,-1.54561,-21.471,2.30645,-82.7985,27.8284,-139.598,73.9746,54.6875,409.119,0.390442,-0.0662537,0.664948,-0.633148,23770,-231,-2326,-3474,-29329
469932,0.866113,-22.184,2.26816,-82.2656,29.8334,-139.417,92.2241,38.8794,411.011,0.400635,-0.0523376,0.664673,-0.628357,-1062,-2535,-3862,-3474,-29329
469938,4.11523,-18.2362,2.32559,-81.6449,31.8604,-139.268,111.877,48.645,415.283,0.411194,-0.0385437,0.663422,-0.623871,-23845,-6119,-6934,-3474,-29329
469944,-1.25371,-12.7907,3.05771,-81.145,33.8983,-139.285,106.567,81.9702,414.124,0.430481,-0.00878906,0.660309,-0.615204,989,-16871,-19222,-3474,-29329
469950,-2.2873,-21.3896,1.6126,-80.3815,37.8149,-138.889,56.5186,20.3247,405.212,0.43927,0.00509644,0.660004,-0.609314,-16675,-25319,-27670,-3474,-29329
469956,4.1248,-19.868,2.66055,-79.7827,39.7046,-138.647,93.75,43.7622,394.47,0.449524,0.0174561,0.658539,-0.60321,29406,31513,29418,-3474,-29329
469962,-1.48818,-17.2266,4.18223,-79.2334,41.5503,-138.532,100.708,66.1011,381.897,0.458557,0.0307922,0.656372,-0.598206,10719,21273,18922,-3474,-29329
469968,-1.12451,-17.5998,4.22529,-78.6017,43.3356,-138.214,89.7217,38.3301,378.052,0.466492,0.0444641,0.654297,-0.593475,-6689,8729,8170,-3474,-29329
469974,2.45479,-18.7291,3.34004,-77.926,45.0989,-137.878,94.6045,40.5273,373.962,0.483063,0.0695801,0.649078,-0.583435,25313,-21736,-17431,-3474,-29329
469980,6.12979,-14.0253,1.73701,-76.4099,48.5376,-137.186,110.474,43.7012,363.159,0.490753,0.0823669,0.646118,-0.578613,8674,25112,-31255,-3474,-29329
469986,6.74229,-10.0775,1.14844,-75.6573,50.1471,-136.912,115.662,56.9458,345.276,0.498108,0.0949097,0.642792,-0.574097,-8734,4632,20201,-3474,-29329
469992,2.95244,-10.2307,0.421094,-75.0037,51.7072,-136.758,112.366,73.4863,332.825,0.504425,0.107361,0.639587,-0.569946,-28701,-16105,7401,-3490,-29327
469998,-0.866113,-14.1497,-1.47383,-74.3335,53.2837,-136.56,109.802,73.0591,336.731,0.509857,0.119751,0.63678,-0.565796,16100,27671,-4888,-3490,-29327
470004,-0.105273,-12.0873,-5.92402,-73.3392,54.8053,-136.082,129.639,42.6025,336.06,0.521179,0.144135,0.62973,-0.557617,-25115,-20458,-27928,-3490,-29327
470010,-9.91006,5.17275,-2.30645,-71.3013,57.0081,-134.967,95.459,3.11279,217.651,0.526184,0.15509,0.625214,-0.555054,18918,18966,25832,-3490,-29327
470016,-4.16787,-2.53135,-1.1293,-70.4224,57.5793,-134.225,59.9365,-28.6255,161.682,0.530365,0.162079,0.621613,-0.553101,-3354,-8171,13032,-3490,-29327
470022,-3.21563,-5.88096,-3.05771,-69.7797,57.9144,-133.594,30.1514,-31.3721,114.197,0.534271,0.165955,0.61853,-0.551636,-27929,30997,-25,-3490,-29327
470028,-4.43584,-8.7999,-4.1248,-69.1919,58.0463,-132.819,-3.41797,-59.6313,81.2988,0.537262,0.167816,0.616455,-0.550476,10728,3861,-14105,-3490,-29327
470034,-2.27295,-12.9678,-4.20615,-68.5931,58.0353,-131.885,-30.2124,-86.731,61.7065,0.544037,0.16507,0.613281,-0.548218,15337,17172,19687,-3490,-29327
470040,-1.30635,-18.5521,-4.1583,-67.3627,57.832,-129.721,-57.4341,-118.53,53.5278,0.547821,0.161896,0.611847,-0.546967,-18967,-7405,3559,-3490,-29327
470046,-0.746484,-19.8153,-4.10088,-66.6211,57.7002,-128.397,-67.2607,-138.306,60.6689,0.552155,0.158051,0.610352,-0.545441,9962,-30445,-12570,-3490,-29327
470052,-0.679492,-21.3179,-4.13916,-65.7861,57.5629,-126.914,-73.8525,-155.029,68.3594,0.557159,0.153687,0.608551,-0.54361,-29974,13843,-27674,-3490,-29327
470058,-0.133984,-21.8682,-3.53145,-64.8303,57.4255,-125.294,-72.7539,-170.288,77.6367,0.562744,0.148987,0.606445,-0.541504,-6934,-5614,24038,-3490,-29327
470064,0.177051,-21.9543,-2.34951,-63.7811,57.2717,-123.574,-71.0449,-182.068,83.6182,0.575378,0.139343,0.600952,-0.536926,30443,24850,-5403,-3490,-29327
470070,2.26816,-22.5524,0.354102,-61.4905,56.8488,-119.883,-71.5332,-204.041,85.2661,0.582245,0.134216,0.597595,-0.534546,-20245,9234,-20251,-3490,-29327
470076,3.72764,-22.6529,1.43076,-60.3369,56.5631,-118.054,-66.7725,-207.642,79.6509,0.589172,0.128876,0.594025,-0.532227,-7957,-5359,28133,-3490,-29327
470082,5.94795,-22.251,2.67969,-59.2328,56.2115,-116.34,-55.9082,-204.407,67.627,0.595947,0.123444,0.590271,-0.530182,2284,-17903,11493,-3490,-29327
470088,7.72803,-20.8489,3.84727,-58.2275,55.7996,-114.84,-39.4897,-191.895,49.9268,0.602203,0.118073,0.586334,-0.528687,10220,-30191,-4636,-3490,-29327
470094,9.73779,-17.528,4.96699,-57.3761,55.3107,-113.626,-22.7051,-174.561,25.3296,0.611755,0.108032,0.578705,-0.528259,21996,13841,30436,-3490,-29327
470100,11.1207,-17.1021,5.43115,-56.1621,54.1296,-112.132,16.5405,-131.775,-29.48,0.614716,0.103333,0.575134,-0.529694,26348,4625,15076,-3490,-29327
470106,11.8863,-16.9586,5.44551,-55.8325,53.4869,-111.896,34.6069,-102.173,-54.2603,0.616241,0.0990601,0.571869,-0.532227,29164,-4080,-797,-3474,-29329
470112,12.0155,-15.9441,4.92871,-55.6732,52.8497,-111.962,48.5229,-73.3643,-72.2656,0.616364,0.0953369,0.569061,-0.535797,31212,-11504,-17437,-3474,-29329
470118,11.8002,-14.0157,4.1248,-55.6842,52.2235,-112.28,55.0537,-46.814,-87.2803,0.615234,0.0922241,0.566742,-0.540039,32236,-17904,30435,-3474,-29329
470124,12.2165,-8.98652,1.97148,-55.8545,51.6138,-112.813,55.9082,-22.7051,-99.2432,0.609894,0.0870972,0.564026,-0.549713,31212,-29424,-3358,-3474,-29329
470130,12.0777,-6.89062,0.846973,-56.7828,50.4657,-114.51,39.6118,31.4941,-119.751,0.605896,0.0848694,0.563782,-0.554749,28652,31760,-20254,-3474,-29329
470136,11.7811,-6.06758,-0.631641,-57.6123,49.9493,-115.724,27.6489,65.3076,-130.493,0.600891,0.0827942,0.564606,-0.559631,24812,28944,28130,-3474,-29329
470142,8.55107,-3.73721,-1.95713,-58.5681,49.3945,-116.971,5.5542,68.9087,-139.099,0.594788,0.0809326,0.56665,-0.564331,20204,27152,11746,-3474,-29329
470148,9.03438,-3.20127,-3.096,-59.6777,48.7848,-118.279,-17.7612,74.0967,-151.917,0.588379,0.0783997,0.569336,-0.568695,15340,26640,-2847,-3474,-29329
470154,3.63672,-2.75146,-5.62734,-60.9741,48.1146,-119.729,-35.0342,90.271,-170.166,0.573883,0.071228,0.576996,-0.57666,6124,28432,-26655,-3474,-29329
470160,4.01953,-3.78506,-6.34033,-63.7317,46.3074,-122.509,-68.9697,67.0776,-220.032,0.565918,0.0658569,0.581573,-0.580566,2028,31760,30689,-3474,-29329
470166,2.67969,-4.41191,-6.50303,-65.1379,45.2032,-123.871,-78.064,64.3921,-241.821,0.557495,0.0593262,0.586182,-0.584778,-1813,-28656,24801,-3474,-29329
470172,0.971387,-3.89033,-6.79971,-66.4838,43.9288,-125.085,-89.4165,41.8091,-264.587,0.548553,0.0519714,0.590912,-0.589142,-6421,-21488,19681,-3474,-29329
470178,0.92832,-4.94307,-6.66572,-67.7692,42.5006,-126.161,-99.9756,21.4844,-287.537,0.539551,0.0431824,0.595337,-0.593689,-11541,-12016,16353,-3474,-29329
470184,-0.598145,-6.52695,-5.40723,-69.0106,40.9296,-127.128,-120.85,-17.0288,-322.998,0.521027,0.021698,0.603485,-0.603119,-25365,13329,14049,-3474,-29329
470190,-0.210547,-7.55576,-4.75166,-71.2793,37.4524,-128.546,-131.287,-37.2314,-337.769,0.51178,0.00915527,0.607117,-0.607697,30955,28177,15073,-3474,-29329
470196,0.0957031,-8.41709,-4.33535,-72.3395,35.5902,-129.073,-137.512,-48.584,-348.083,0.502594,-0.00445557,0.610382,-0.612122,19179,-20207,18145,-3474,-29329
470202,0.440234,-9.86699,-3.94297,-73.3063,33.6731,-129.446,-139.038,-66.8945,-355.469,0.493286,-0.0187988,0.613403,-0.616394,4843,-239,21985,-3474,-29329
470208,-0.0239258,-9.8957,-3.11992,-74.2346,31.701,-129.727,-144.104,-77.2095,-363.281,0.484192,-0.0338135,0.615875,-0.620514,-11798,20754,26593,-3474,-29329
470214,0.502441,-10.2833,-2.0959,-75.13,29.6851,-129.924,-147.705,-86.1206,-370.911,0.465729,-0.0653992,0.619873,-0.628082,14570,531,-26143,-3474,-29329
470220,2.17246,-10.8623,-1.23936,-76.8713,25.5103,-130.056,-159.485,-104.675,-387.268,0.456421,-0.0820618,0.621338,-0.63147,-8215,24339,-17439,-3457,-29331
470226,2.97637,-12.0921,-0.387598,-77.7338,23.3734,-130.073,-160.095,-103.149,-394.775,0.446899,-0.0991516,0.62262,-0.634583,31209,-15853,-7967,-3457,-29331
470232,3.44053,-12.3648,0.0143555,-78.5907,21.2146,-130.051,-162.231,-103.943,-400.085,0.436981,-0.116333,0.623627,-0.637543,2281,10772,4066,-3457,-29331
470238,5.13447,-13.2118,0.803906,-79.4586,19.0558,-130.051,-164.673,-93.9941,-403.381,0.426788,-0.133636,0.62442,-0.640289,-29720,-27372,17634,-3457,-29331
470244,5.43115,-14.6569,1.59824,-80.3375,16.897,-130.073,-164.673,-82.4585,-405.762,0.404877,-0.16745,0.625824,-0.645203,28391,29973,-18974,-3457,-29331
470250,5.34023,-15.4465,1.6748,-82.1008,12.6837,-130.21,-164.673,-51.5747,-398.01,0.393372,-0.183716,0.626404,-0.647308,-9242,-8171,-4382,-3457,-29331
470256,3.1917,-16.0829,1.13887,-82.9797,10.6622,-130.342,-163.452,-36.3159,-388.916,0.381287,-0.199158,0.627136,-0.649261,15590,19222,11747,-3457,-29331
470262,2.08633,-16.2073,0.789551,-83.8696,8.70667,-130.463,-166.443,-29.7241,-376.831,0.369019,-0.213776,0.627869,-0.65097,-27419,-19178,28387,-3457,-29331
470268,0.674707,-15.9441,0.937891,-84.776,6.81152,-130.605,-171.631,-16.9678,-367.371,0.356781,-0.227844,0.628693,-0.652252,-7708,7191,-19229,-3457,-29331
470274,-1.67002,-16.8294,1.74658,-85.7043,4.94934,-130.737,-178.772,-11.5967,-361.511,0.331909,-0.254364,0.630859,-0.653473,25315,-9705,22244,-3457,-29331
470280,-3.55537,-17.2218,3.07207,-87.572,1.30737,-131.028,-181.824,8.78906,-356.873,0.319305,-0.267029,0.631989,-0.653595,-23326,12824,-22044,-3457,-29331
470286,-5.63213,-17.8534,4.4502,-88.4729,-0.510864,-131.204,-178.101,20.1416,-360.962,0.306366,-0.279236,0.633087,-0.653625,-7967,-31208,485,-3457,-29331
470292,-7.03896,-17.5615,5.91445,-89.3298,-2.36206,-131.396,-172.18,31.25,-368.713,0.29306,-0.291046,0.633972,-0.653748,6113,-12264,23269,-3457,-29331
470298,-8.39795,-17.3318,7.13467,-90.1318,-4.2572,-131.644,-164.795,46.4478,-378.784,0.279358,-0.302582,0.63446,-0.654022,18912,5145,-18971,-3457,-29331
470304,-14.456,-15.8389,7.929,-90.8734,-6.19629,-131.957,-156.25,65.4297,-389.465,0.25,-0.324219,0.634369,-0.65564,-24866,32537,29926,-3457,-29331
470310,-17.7769,-15.5039,8.08213,-92.1478,-10.1898,-132.737,-138.916,92.7734,-408.508,0.234406,-0.33432,0.633667,-0.656982,-15907,-21991,-10266,-3457,-29331
470316,-21.4997,-15.7527,8.50322,-92.7026,-12.2058,-133.187,-134.766,103.943,-412.231,0.218353,-0.343994,0.632538,-0.65863,-4900,-12519,13543,-3457,-29331
470322,-25.2704,-17.0017,8.78555,-93.219,-14.1888,-133.676,-132.263,112.976,-406.86,0.201965,-0.353149,0.631104,-0.66037,4572,-5095,-29209,-3457,-29331
470328,-29.9694,-18.4324,8.44102,-93.6639,-16.0895,-134.187,-124.451,119.202,-394.531,0.185577,-0.361633,0.629608,-0.662018,11995,282,-7193,-3457,-29331
470334,-38.7358,-17.9778,7.57012,-94.0485,-17.8857,-134.703,-115.906,118.713,-375,0.154297,-0.376099,0.62619,-0.665222,24537,3354,-28184,-3457,-29331
470340,-43.2052,-17.1548,6.91934,-94.6912,-21.0278,-135.687,-103.516,108.704,-320.19,0.139984,-0.38208,0.624512,-0.666534,29144,26,-6424,-3465,-29330
470346,-47.4018,-16.7768,6.48867,-94.9768,-22.3132,-136.115,-98.5718,95.52,-282.654,0.126892,-0.387207,0.623047,-0.667572,-28713,-4327,13801,-3465,-29330
470352,-50.0336,-15.9585,6.32598,-95.246,-23.3569,-136.467,-91.5527,78.064,-239.136,0.115417,-0.39151,0.621948,-0.668182,-21034,-10983,32745,-3465,-29330
470358,-51.7275,-13.8578,6.53174,-95.5042,-24.1479,-136.763,-85.2661,62.2559,-191.101,0.105804,-0.394928,0.621246,-0.668396,-13611,-19431,-16151,-3465,-29330
470364,-50.9476,-7.59404,7.29258,-95.7623,-24.6863,-137.005,-83.0078,47.1802,-143.433,0.0924988,-0.398926,0.621643,-0.667664,4564,24601,12778,-3465,-29330
470370,-54.2302,-33.0032,20.1886,-96.4929,-24.8895,-137.291,-110.291,10.0098,-19.8975,0.0885315,-0.399658,0.622894,-0.666565,16595,12313,25322,-3465,-29330
470376,-51.9381,-20.1886,7.4792,-96.394,-24.472,-137.269,9.94873,-21.2402,39.978,0.0869751,-0.398895,0.62619,-0.664124,32210,-744,-28694,-3465,-29330
470382,-47.8516,-15.9394,22.7008,-96.1578,-23.7195,-137.252,34.729,-28.5034,106.995,0.0901184,-0.396942,0.626953,-0.664185,-13359,-13288,-17942,-3465,-29330
470388,-46.7079,0.0287109,12.451,-95.6799,-22.8021,-137.406,70.1294,-0.244141,141.907,0.0958252,-0.393219,0.628052,-0.664551,10449,-25064,-6934,-3465,-29330
470394,-66.0878,-8.40752,18.2745,-95.7788,-20.929,-137.335,-30.0903,-61.0352,330.2,0.114319,-0.378815,0.635193,-0.663208,8144,19736,10731,-3465,-29330
470400,-70.3705,19.1071,25.1221,-93.0817,-15.9796,-138.06,146.545,67.688,493.286,0.133484,-0.364594,0.632965,-0.669678,-17713,12824,18411,-3465,-29330
470406,-59.0297,-5.44072,30.5628,-92.8015,-13.277,-138.598,10.376,65.0024,505.859,0.149475,-0.346497,0.636963,-0.672119,28879,9240,24043,-3465,-29330
470412,-37.061,-17.7625,-0.526367,-91.7688,-10.8929,-138.653,188.782,-15.8691,436.34,0.163788,-0.328827,0.644684,-0.670288,13775,7704,28395,-3465,-29330
470418,-44.6264,22.5046,25.1316,-89.5221,-10.1294,-139.85,387.573,224.121,116.028,0.180817,-0.314117,0.645325,-0.672363,6351,9240,31211,-3465,-29330
470424,-7.23994,-35.123,-14.7622,-89.0991,-10.1294,-140.197,-263.855,-199.829,-60.0586,0.18335,-0.297028,0.63562,-0.688507,12751,19992,28907,-3465,-29330
470430,29.778,-55.192,9.39805,-90.78,-10.0964,-137.983,-21.6675,-252.197,-16.4795,0.184814,-0.305206,0.641266,-0.67923,22735,26392,26091,-3465,-29330
470436,34.2091,-30.5437,15.3556,-89.3408,-9.34937,-138.153,268.738,27.5879,111.755,0.192261,-0.31189,0.639832,-0.675476,-31793,32280,23019,-3465,-29330
470442,2.99551,9.70908,-5.2541,-87.7917,-8.70667,-139.526,253.601,269.226,83.9844,0.199554,-0.304352,0.633759,-0.682465,-21553,-27880,20715,-3465,-29330
470448,-25.4475,6.89541,13.0778,-87.3138,-7.99255,-139.543,82.2144,1.40381,105.591,0.199066,-0.290436,0.62973,-0.692322,-11313,-23016,19435,-3465,-29330
470454,1.14365,-15.6283,5.01963,-87.4951,-7.42126,-139.087,-33.8745,28.0151,75.0732,0.209991,-0.284943,0.630157,-0.69101,9936,-15592,15595,-3465,-29330
470460,-9.41719,-6.2542,-2.91416,-87.149,-6.39954,-139.406,69.5801,32.6538,54.0161,0.212128,-0.281036,0.632477,-0.68985,22224,-12264,11499,-3465,-29330
470466,-4.66553,0.741699,0.674707,-87.0007,-5.98755,-139.191,20.9351,-44.3115,48.2788,0.214783,-0.276642,0.631439,-0.691742,-30256,-8936,5867,-3465,-29330
470472,5.74219,-5.69912,6.98633,-87.0557,-5.57556,-138.961,-18.6157,-46.5088,49.0723,0.218811,-0.275146,0.631073,-0.691406,-16176,-5608,1003,-3465,-29330
470478,-0.75127,-11.3025,0.856543,-87.0557,-5.16907,-139.213,-17.5171,49.4995,43.5791,0.222412,-0.274109,0.631866,-0.689941,-2864,-3048,-2838,-3465,-29330
470484,-8.98652,-13.1161,-2.94287,-86.9513,-4.79553,-139.351,27.2827,-51.3916,42.4194,0.224792,-0.267212,0.634064,-0.68985,22737,1817,-7446,-3465,-29330
470490,0.13877,-12.1543,4.86172,-86.5942,-4.06494,-138.961,29.2358,-23.6816,39.6729,0.228851,-0.266174,0.633362,-0.689575,-29743,4377,-8214,-3465,-29330
470496,-2.72275,-11.0776,3.12471,-86.4185,-3.72986,-139.048,24.6582,19.6533,33.4473,0.232086,-0.264404,0.632812,-0.689667,-16175,7193,-8726,-3465,-29330
470502,-5.56992,-13.0061,-0.818262,-86.3086,-3.40576,-139.059,12.5122,3.84521,33.1421,0.233887,-0.261566,0.632751,-0.690216,-2095,10265,-8982,-3465,-29330
470508,-3.85205,-16.8916,0.267969,-86.1328,-3.07068,-139.032,27.2827,-2.01416,35.8276,0.235931,-0.259369,0.632904,-0.690186,11474,12569,-8214,-3465,-29330
470514,-9.98184,-17.5902,0.0430664,-85.8527,-2.7301,-139.103,46.1426,-10.6201,50.4761,0.240448,-0.254181,0.631866,-0.691528,-27694,17433,-4374,-3465,-29330
470520,-5.37373,-15.1067,1.14844,-85.2594,-1.9281,-138.801,63.0493,-37.1094,55.4199,0.243774,-0.25174,0.631042,-0.691986,-15406,19481,-1302,-3465,-29330
470526,-2.5792,-13.3506,1.67002,-84.8804,-1.53259,-138.625,72.0825,-26.7944,53.5278,0.248108,-0.249817,0.629486,-0.692566,-3374,21785,1003,-3465,-29330
470532,-3.675,-17.1548,2.30645,-84.5343,-1.14807,-138.499,65.0024,-16.9678,50.6592,0.252197,-0.247589,0.627747,-0.693481,9171,23833,2539,-3465,-29330
470538,-4.80908,-23.3659,1.99541,-84.1498,-0.725098,-138.246,73.6084,-40.1001,63.4766,0.255798,-0.245239,0.626282,-0.694336,-32045,27929,3307,-3465,-29330
470544,7.42656,-18.8248,12.1256,-83.6499,0.631714,-137.999,10.8643,23.4375,136.414,0.266022,-0.240234,0.62262,-0.695496,-20013,29977,3819,-3465,-29330
470550,1.71787,-18.5521,7.31172,-83.8147,1.56555,-138.241,-36.9873,71.7163,160.522,0.270447,-0.235107,0.624023,-0.694305,-8237,32025,3563,-3465,-29330
470556,-4.44541,-24.9881,1.84229,-84.007,2.5708,-138.395,-42.4805,54.9316,178.284,0.273712,-0.228455,0.627625,-0.691986,4308,-31719,2795,-3465,-29330
470562,-3.5458,-28.8258,1.82314,-84.0948,3.6969,-138.323,-23.0713,14.5264,207.397,0.277863,-0.221954,0.631287,-0.689117,18388,-29671,1771,-3465,-29330
470568,0.210547,-26.6629,1.59346,-84.0839,4.92737,-138.279,-2.68555,21.1792,231.445,0.284149,-0.215698,0.634125,-0.685944,-15148,-23783,-790,-3465,-29330
470574,-3.31133,-18.1214,-1.20586,-84.1333,7.76184,-138.296,-13.4888,33.1421,278.503,0.298248,-0.199707,0.639404,-0.679871,2517,-20967,-790,-3474,-29329
470580,-2.61748,-18.887,0.0765625,-84.2047,9.26147,-138.208,-18.4937,19.7754,289.062,0.306,-0.190918,0.642578,-0.675964,22229,-18151,-278,-3474,-29329
470586,0.330176,-22.873,3.18213,-84.2651,10.7831,-138.049,-17.1509,15.686,295.654,0.314301,-0.182343,0.64566,-0.671539,-21547,-15079,-534,-3474,-29329
470592,3.50752,-27.6008,6.36426,-84.3036,12.4091,-137.862,-14.4653,12.4512,318.298,0.32312,-0.173981,0.64856,-0.666779,2774,-12775,235,-3474,-29329
470598,5.33066,-30.7973,6.74229,-84.2926,14.1559,-137.758,-1.2207,31.7383,344.666,0.332611,-0.165039,0.651367,-0.661621,-5674,-7143,1003,-3474,-29329
470604,2.3208,-25.8398,3.14863,-83.9465,17.9681,-137.626,44.0063,43.335,386.536,0.352234,-0.142975,0.656342,-0.651581,24023,-4839,1771,-3474,-29329
470610,1.08145,-22.0979,2.91895,-83.6664,19.9347,-137.565,53.5889,47.9126,392.334,0.362732,-0.130432,0.657867,-0.646912,-9257,-2279,3819,-3474,-29329
470616,2.0624,-19.3368,2.32559,-83.3588,21.9562,-137.411,51.7578,34.6069,406.982,0.373169,-0.117462,0.659027,-0.642273,25816,-487,3307,-3474,-29329
470622,2.82803,-18.5664,2.87109,-83.0457,24.0326,-137.329,58.0444,49.9878,417.908,0.384216,-0.104492,0.659882,-0.637115,-2088,1050,1515,-3474,-29329
470628,-0.966602,-20.2029,3.86162,-82.7161,26.1145,-137.274,64.3311,58.6548,420.227,0.405365,-0.0765076,0.661194,-0.626526,15578,-231,-4630,-3474,-29329
470634,7.25908,-18.5712,2.99072,-81.6284,30.2783,-136.895,105.652,47.7295,425.11,0.416534,-0.0626221,0.660583,-0.621338,-8230,-2279,-8214,-3474,-29329
470640,0.60293,-10.6135,2.58877,-81.1395,32.3602,-136.923,104.187,84.0454,421.387,0.427124,-0.0479126,0.659393,-0.61673,-30245,-6119,-13078,-3474,-29329
470646,-9.79043,-11.6423,2.07197,-80.9033,34.3323,-136.923,51.9409,77.7588,401.062,0.436371,-0.0323792,0.658691,-0.612,15324,-11239,-19478,-3474,-29329
470652,-1.36855,-19.7771,1.11973,-80.4474,36.2384,-136.505,46.7529,10.1929,399.414,0.445007,-0.0186157,0.659058,-0.605927,-3108,-17639,-27926,-3474,-29329
470658,6.6083,-18.3654,3.11992,-79.8376,38.0951,-136.236,94.7876,36.7432,388.611,0.464508,0.00622559,0.656128,-0.594635,29918,30745,17386,-3474,-29329
470664,-2.77061,-16.3796,3.61758,-78.6127,41.6547,-135.829,95.52,32.959,368.591,0.472168,0.0199585,0.654388,-0.590179,15071,18969,5866,-3474,-29329
470670,2.77539,-17.8199,3.7707,-77.8217,43.3575,-135.428,109.802,26.3672,363.464,0.480591,0.0323181,0.652039,-0.585419,-1825,6681,-5143,-3474,-29329
470676,4.05303,-14.5517,3.52188,-77.0197,45.0055,-135.137,124.512,45.5933,351.135,0.488861,0.0446167,0.649048,-0.581055,-18720,-7912,-16919,-3474,-29329
470682,6.14414,-9.26885,2.10068,-76.1462,46.571,-134.824,135.986,43.9453,335.266,0.496094,0.0573425,0.645996,-0.57724,29921,-24296,-29719,-3490,-29327
470688,1.9332,-5.97666,0.205762,-75.3387,47.9938,-134.648,141.174,60.5469,305.542,0.508057,0.0818176,0.639221,-0.571381,-4126,2328,7913,-3490,-29327
470694,-1.88535,-10.3551,-0.062207,-73.8281,50.6635,-134.456,141.296,71.0449,285.522,0.51239,0.0935974,0.636108,-0.569153,-21533,-18921,-6424,-3490,-29327
470700,0.234473,-6.01494,-4.82822,-72.8174,51.9269,-134.121,157.41,44.2505,279.663,0.516632,0.105286,0.632965,-0.566803,23268,26135,-20504,-3490,-29327
470706,-7.28779,7.78545,-2.56484,-71.8835,52.9486,-133.879,155.884,45.2881,229.675,0.521301,0.116486,0.628754,-0.565033,2021,4375,29928,-3490,-29327
470712,-11.4174,7.21602,-2.39736,-71.1749,53.5693,-133.528,94.3604,10.7422,155.457,0.524597,0.126282,0.624786,-0.56424,-21019,-18922,15336,-3490,-29327
470718,-3.71807,-5.73262,-3.24912,-70.4993,53.8934,-133.028,62.1338,-25.0244,104.37,0.529968,0.134369,0.619324,-0.563416,-4378,-4075,-14105,-3490,-29327
470724,-3.62715,-8.43623,-3.43574,-69.5435,54.0033,-132.05,11.1694,-52.3682,42.3584,0.531921,0.135223,0.617401,-0.563477,-31769,-29675,-28441,-3490,-29327
470730,-1.81357,-12.7333,-2.71318,-69.1315,53.9099,-131.407,-11.9019,-70.4956,33.1421,0.533966,0.134277,0.615814,-0.563477,4328,11029,22247,-3490,-29327
470736,-1.38291,-15.8437,-2.96201,-68.7195,53.8,-130.704,-23.0713,-79.7119,34.1797,0.536377,0.132141,0.614471,-0.563171,-28440,-12012,8679,-3490,-29327
470742,-1.03838,-18.1549,-1.88057,-68.302,53.7122,-129.908,-35.7056,-89.6606,44.3115,0.539062,0.129547,0.61322,-0.562592,1001,-32492,-5658,-3490,-29327
470748,-0.650781,-21.3801,-1.32549,-67.8461,53.6847,-129.012,-44.5557,-96.6797,59.9365,0.546082,0.123871,0.610718,-0.559784,-13335,-5613,28902,-3490,-29327
470754,0.229688,-21.8251,-1.07187,-66.7749,53.8055,-126.953,-50.7202,-110.046,94.7266,0.550385,0.121246,0.609406,-0.557587,7658,-22253,14054,-3490,-29327
470760,1.1293,-21.4327,-1.02881,-66.1157,53.9484,-125.766,-51.0254,-116.333,109.802,0.555298,0.118896,0.607788,-0.554993,27114,27411,-539,-3490,-29327
470766,2.16289,-20.5905,-0.645996,-65.3906,54.1296,-124.519,-49.0112,-118.835,121.704,0.560669,0.116791,0.605957,-0.552002,-21270,13331,-13339,-3490,-29327
470772,2.73711,-19.6526,-0.430664,-64.6216,54.3219,-123.239,-45.4712,-120.728,127.563,0.566315,0.11499,0.603943,-0.548828,-5654,531,-26139,-3490,-29327
470778,3.20127,-16.9012,0.6125,-63.7921,54.4922,-121.932,-38.9404,-124.695,127.319,0.577789,0.111847,0.599335,-0.542511,19947,-22254,11237,-3490,-29327
470784,3.45488,-16.2456,1.24893,-62.1716,54.6735,-119.405,-35.9497,-125.183,107.971,0.583313,0.110168,0.596863,-0.539703,31211,32018,-1820,-3490,-29327
470790,3.72764,-16.4274,2.03369,-61.441,54.6405,-118.246,-36.377,-125.671,90.3931,0.58847,0.108185,0.594391,-0.537201,-24597,21010,-14876,-3490,-29327
470796,4.66553,-17.2218,2.53613,-60.7709,54.5197,-117.175,-33.6304,-124.878,71.5942,0.59317,0.105713,0.59201,-0.535126,-15125,10002,-27420,-3482,-29328
470802,5.88096,-18.0448,3.36396,-60.1941,54.3219,-116.252,-28.6255,-118.713,51.6968,0.597351,0.102875,0.589661,-0.53363,-6165,-495,26852,-3482,-29328
470808,8.28311,-18.7482,4.55547,-59.7162,54.0363,-115.494,-7.56836,-99.7314,6.83594,0.603516,0.0964966,0.585297,-0.532684,8172,-22255,2276,-3482,-29328
470814,9.19229,-18.0209,4.1583,-59.0295,53.2507,-114.593,11.1084,-84.6558,-16.9067,0.605316,0.0932617,0.583252,-0.533478,13548,-31983,-10781,-3482,-29328
470820,9.68994,-17.0543,3.49316,-58.8098,52.7563,-114.489,31.6772,-68.7256,-41.0767,0.606049,0.0902405,0.581268,-0.535309,18156,24849,-24605,-3482,-29328
470826,9.12051,-15.4082,2.36387,-58.6725,52.196,-114.598,51.0254,-53.9551,-66.04,0.605713,0.0875244,0.579346,-0.538269,21740,17681,28131,-3482,-29328
470832,8.83818,-13.7765,1.55996,-58.6121,51.5753,-114.884,62.9883,-42.1143,-88.1348,0.604279,0.085022,0.577423,-0.542297,25068,11537,15587,-3482,-29328
470838,8.82383,-10.9149,-0.200977,-58.634,50.8942,-115.318,68.8477,-23.3154,-121.094,0.598907,0.0799866,0.573975,-0.552612,26860,1809,-9502,-3482,-29328
470844,9.17314,-8.93389,-0.866113,-58.9911,49.4495,-116.559,62.6831,-7.44629,-132.751,0.595215,0.0772705,0.572601,-0.55835,25580,-2800,-23070,-3482,-29328
470850,8.12998,-6.51738,-1.62217,-59.3811,48.6969,-117.361,50.6592,4.21143,-144.714,0.59082,0.0744934,0.571808,-0.564178,23788,-6384,28898,-3482,-29328
470856,7.26387,-4.49326,-2.56484,-59.9194,47.9059,-118.24,30.8838,11.7188,-157.043,0.585815,0.0713806,0.571655,-0.569946,21740,-8944,16098,-3482,-29328
470862,6.7375,-3.55537,-3.60801,-60.6226,47.0709,-119.213,9.21631,21.7285,-171.265,0.580322,0.0676575,0.572174,-0.575439,19436,-9968,3810,-3482,-29328
470868,4.31143,-3.6415,-5.69912,-61.463,46.1755,-120.24,-29.1138,25.1465,-203.369,0.567657,0.058075,0.5755,-0.585724,13804,-8176,-17951,-3482,-29328
470874,3.05771,-4.24443,-6.2207,-63.3801,44.1101,-122.311,-43.396,20.6909,-222.29,0.560638,0.052002,0.577942,-0.590637,9196,-4848,-27935,-3482,-29328
470880,1.62217,-4.4167,-6.54609,-64.3964,42.9126,-123.3,-56.3965,11.9019,-242.31,0.553223,0.0449829,0.580627,-0.595551,3052,273,27617,-3482,-29328
470886,0.971387,-4.8043,-6.81406,-65.4181,41.5887,-124.25,-66.1621,2.50244,-264.038,0.545471,0.0369263,0.583405,-0.600525,-4629,8209,18913,-3482,-29328
470892,0.0861328,-5.06748,-7.22559,-66.4233,40.1221,-125.129,-74.4629,-10.1318,-287.109,0.537323,0.0278625,0.586182,-0.605621,-13845,17937,12257,-3482,-29328
470898,-1.17236,-5.57471,-7.54619,-67.3846,38.5181,-125.903,-86.9751,-44.3115,-331.665,0.520111,0.00628662,0.591187,-0.616302,30955,-24303,4577,-3482,-29328
470904,-1.12451,-5.76611,-6.9624,-69.1919,34.9255,-127.156,-97.5342,-60.3638,-349.609,0.511108,-0.00616455,0.59317,-0.621887,18155,-9711,3041,-3482,-29328
470910,-0.765625,-6.39297,-6.704,-70.0873,32.9919,-127.65,-109.192,-70.9229,-363.464,0.501953,-0.0197449,0.594971,-0.62735,3819,6674,1761,-3457,-29331
470916,-0.736914,-7.48398,-6.26855,-70.9882,30.9979,-128.062,-120.85,-79.895,-372.253,0.492554,-0.0342102,0.596649,-0.632568,-12822,25106,225,-3457,-29331
470922,-0.665137,-8.35967,-5.65605,-71.8945,28.9764,-128.386,-132.935,-88.501,-376.77,0.483002,-0.0493469,0.598267,-0.63736,10986,1811,1505,-3457,-29331
470928,-1.28242,-10.5465,-4.04346,-73.7787,24.9225,-128.848,-158.02,-95.1538,-376.648,0.463684,-0.0810547,0.601471,-0.645386,-12055,23571,3553,-3457,-29331
470934,-1.92363,-11.7284,-3.36875,-74.7565,22.9175,-128.969,-169.983,-99.3652,-372.925,0.453949,-0.0973206,0.60318,-0.648468,26857,-18413,7905,-3457,-29331
470940,-2.13418,-12.4271,-2.5792,-75.7452,20.9344,-129.04,-177.612,-99.6094,-369.629,0.444275,-0.11377,0.604919,-0.650848,-2328,6420,14305,-3457,-29331
470946,-2.65576,-12.585,-1.65088,-76.7615,18.9679,-129.062,-186.401,-100.83,-367.859,0.43457,-0.130188,0.606689,-0.65271,31976,31764,22497,-3457,-29331
470952,-1.88535,-13.5372,-0.631641,-77.7942,17.0123,-129.045,-193.787,-100.525,-366.882,0.424805,-0.146698,0.608429,-0.654022,-1817,-7660,-32031,-3457,-29331
470958,-0.368457,-15.1307,1.67002,-78.8379,15.0677,-129.001,-200.439,-91.7969,-365.051,0.404816,-0.179535,0.611786,-0.655365,-8218,-20971,-6175,-3457,-29331
470964,1.01924,-15.5613,2.64141,-80.9363,11.2445,-128.914,-200.134,-78.2471,-364.014,0.394501,-0.195618,0.613373,-0.655548,18662,4886,8418,-3457,-29331
470970,1.72266,-15.4943,3.56016,-81.98,9.36035,-128.919,-198.914,-62.3169,-364.99,0.38382,-0.211212,0.614899,-0.65564,-23579,30998,23522,-3457,-29331
470976,2.45479,-15.1546,4.40234,-83.0237,7.4707,-128.985,-198.364,-44.5557,-368.591,0.372589,-0.226227,0.616394,-0.655701,-2588,-8938,-24350,-3457,-29331
470982,2.82803,-15.145,4.9335,-84.0674,5.57007,-129.111,-199.585,-23.3154,-373.596,0.360718,-0.240753,0.617889,-0.655762,16356,16151,-6174,-3457,-29331
470988,0.90918,-15.8149,5.62734,-85.1166,3.65845,-129.331,-201.05,1.95312,-378.174,0.334503,-0.267944,0.621033,-0.656128,-16158,-1513,-31005,-3457,-29331
470994,-1.03838,-17.0687,5.7709,-87.1985,-0.214233,-129.957,-203.674,42.7246,-390.137,0.320129,-0.280701,0.622711,-0.656403,994,20248,-10525,-3457,-29331
471000,-3.73721,-18.7243,5.99102,-88.1982,-2.17529,-130.353,-200.317,61.4014,-394.043,0.305054,-0.292877,0.624298,-0.656708,15585,-24552,12260,-3457,-29331
471006,-7.20645,-20.7245,6.26855,-89.1321,-4.13086,-130.781,-192.383,75.9277,-393.555,0.289398,-0.304474,0.625732,-0.657196,28640,-5864,-28700,-3457,-29331
471012,-10.8336,-22.0835,6.71357,-89.9725,-6.05347,-131.237,-178.345,86.5479,-389.038,0.273438,-0.315338,0.626862,-0.657806,-25377,11289,-2076,-3457,-29331
471018,-19.0019,-19.5761,9.59424,-90.6812,-7.91016,-131.726,-138.367,102.478,-362.305,0.241943,-0.334412,0.627716,-0.659943,-5667,-25831,-12059,-3457,-29331
471024,-22.0739,-17.863,11.1973,-91.7798,-11.3434,-132.748,-126.526,109.741,-343.506,0.226929,-0.342407,0.627441,-0.661407,5597,-14823,14566,-3457,-29331
471030,-25.1891,-17.0447,12.4893,-92.2137,-12.8925,-133.308,-116.76,117.126,-321.472,0.212494,-0.349365,0.627014,-0.662964,15580,-6119,-25626,-3465,-29330
471036,-28.1846,-17.0064,12.9869,-92.5598,-14.3097,-133.896,-105.591,122.253,-297.485,0.1987,-0.355225,0.626556,-0.664551,25051,282,-1306,-3465,-29330
471042,-31.1896,-16.8007,12.5897,-92.807,-15.6006,-134.5,-90.9424,124.878,-275.269,0.185669,-0.359985,0.626099,-0.666199,-31526,4378,22759,-3465,-29330
471048,-37.8554,-13.2501,10.2067,-92.9718,-16.7926,-135.11,-66.8945,117.371,-245.972,0.16214,-0.366821,0.624664,-0.669952,-14120,7450,1768,-3465,-29330
471054,-40.937,-12.1208,8.37881,-93.1476,-18.9789,-136.23,-59.8755,105.896,-238.464,0.151489,-0.369507,0.623657,-0.671906,-2345,6426,22504,-3465,-29330
471060,-43.5784,-11.7093,6.6418,-93.1915,-19.9841,-136.697,-51.2085,91.1865,-229.37,0.141541,-0.372162,0.622437,-0.673737,9431,3610,-23832,-3465,-29330
471066,-45.5451,-11.4939,5.3833,-93.208,-20.907,-137.082,-41.9922,74.4019,-216.248,0.132446,-0.374786,0.621002,-0.675446,21718,-1255,-6936,-3465,-29330
471072,-46.5165,-10.7283,4.31143,-93.2025,-21.7145,-137.39,-32.8369,56.7017,-195.251,0.12439,-0.377411,0.619415,-0.677002,-30251,-7399,7657,-3465,-29330
471078,-45.459,-5.95273,3.46445,-93.1696,-22.3737,-137.637,-21.4844,34.5459,-137.573,0.112122,-0.381805,0.616241,-0.679535,1748,-23783,28393,-3465,-29330
471084,-43.2722,-2.81367,3.19648,-93.1366,-23.1812,-138.038,-25.5737,27.71,-102.966,0.10791,-0.383118,0.615143,-0.680481,20179,32025,-28695,-3465,-29330
471090,-40.0948,-0.0526367,3.09121,-93.1805,-23.3185,-138.235,-36.5601,26.4893,-68.7256,0.104858,-0.383636,0.614746,-0.68103,-23086,21529,-20247,-3465,-29330
471096,-36.7404,1.95234,3.16777,-93.2849,-23.28,-138.466,-51.8799,29.6021,-34.79,0.102692,-0.383301,0.615234,-0.681122,210,11033,-12823,-3465,-29330
471102,-33.6301,3.44531,3.5123,-93.4607,-23.0823,-138.73,-68.7256,33.6304,-2.86865,0.101196,-0.381989,0.61676,-0.680695,26577,-232,-4887,-3465,-29330
471108,-28.0027,5.30195,4.47412,-93.7079,-22.7527,-139.032,-101.074,42.3584,46.936,0.099762,-0.376648,0.622803,-0.678375,21712,-20712,9450,-3465,-29330
471114,-25.3996,5.43115,4.7708,-94.3781,-21.7639,-139.724,-114.99,43.5181,66.1621,0.0995483,-0.372803,0.627167,-0.676514,-7985,-30184,16618,-3465,-29330
471120,-26.9548,-12.4079,-7.23994,-95.0043,-21.1157,-140.087,-165.588,44.0674,88.2568,0.0996704,-0.368469,0.632172,-0.674194,31183,26392,23786,-3465,-29330
471126,-33.0176,-56.3117,35.6063,-95.4987,-19.9237,-140.279,-127.319,2.0752,196.167,0.0996399,-0.363708,0.639008,-0.670319,8143,18456,31210,-3465,-29330
471132,-26.1317,-30.9073,10.8192,-94.9603,-18.3527,-140.488,78.5522,0.305176,274.109,0.104492,-0.357056,0.646118,-0.666321,-11570,11288,-24854,-3465,-29330
471138,-70.672,-13.4176,-25.0407,-95.2734,-15.8478,-140.746,489.868,77.2705,519.775,0.128174,-0.333313,0.658081,-0.662811,27086,3352,-4374,-3465,-29330
471144,-30.5484,2.45,18.7339,-90.9119,-10.4535,-139.96,385.132,-300.11,479.126,0.149139,-0.311829,0.651825,-0.674927,21454,3096,3819,-3490,-29327
471150,-10.0775,39.6833,39.4967,-88.5883,-9.29443,-141.075,410.767,209.717,192.322,0.17807,-0.302979,0.644958,-0.678528,23246,5912,9195,-3490,-29327
471156,-64.9106,41.6356,-13.4271,-87.5555,-9.51965,-143.069,123.474,376.953,-97.6562,0.184265,-0.28656,0.636932,-0.691467,28622,9496,12267,-3490,-29327
471162,-45.2197,-32.7209,-8.91475,-88.5992,-9.70093,-142.278,-196.594,-169.983,-71.8994,0.17337,-0.275177,0.634979,-0.700623,-12338,20248,5867,-3490,-29327
471168,47.3587,-26.1748,22.7821,-87.8577,-8.96484,-140.356,185.486,8.30078,64.6973,0.187317,-0.292419,0.636108,-0.688965,2767,25624,-534,-3490,-29327
471174,6.61309,2.51699,-4.48848,-86.759,-8.32214,-141.68,166.321,258.179,79.6509,0.192413,-0.287445,0.631531,-0.693817,17359,29976,-7446,-3490,-29327
471180,-19.2268,0.512012,10.1589,-86.1218,-7.67944,-142.015,106.201,64.0259,88.0737,0.190765,-0.274628,0.629761,-0.70105,31183,-31208,-14870,-3490,-29327
471186,-8.6707,-7.08203,9.86699,-86.1768,-7.11365,-141.757,-17.9443,-53.4668,80.8716,0.193939,-0.267975,0.628204,-0.704163,-21041,-26856,-22038,-3490,-29327
471192,-4.55547,-16.9395,6.81885,-86.2701,-6.5863,-141.746,-31.3721,-3.90625,71.0449,0.198669,-0.266144,0.629303,-0.702515,7120,-19688,30186,-3490,-29327
471198,-1.01445,-2.46914,1.01445,-85.7208,-5.61951,-141.63,38.4521,-30.4565,57.9834,0.205017,-0.259491,0.630554,-0.702087,21968,-16616,23530,-3490,-29327
471204,6.56523,-2.98115,9.57988,-85.5945,-5.11963,-141.493,15.4419,-28.3203,69.2749,0.209015,-0.257172,0.629852,-0.702393,-28720,-13544,19434,-3490,-29327
471210,-3.096,-4.42148,3.98125,-85.589,-4.70215,-141.801,-16.3574,59.6924,45.4712,0.213013,-0.25473,0.629944,-0.701996,-13872,-10472,15594,-3490,-29327
471216,-15.9154,-11.092,-2.0959,-85.6274,-4.32861,-141.96,-22.8882,28.7476,38.8184,0.213501,-0.250519,0.631561,-0.701904,721,-7144,13034,-3490,-29327
471222,-8.4793,-13.4654,-6.31641,-85.578,-3.97156,-141.718,3.17383,-48.7061,41.8091,0.214569,-0.247528,0.633026,-0.701324,27857,-488,10218,-3490,-29327
471228,-3.1582,-9.51768,2.54092,-85.2155,-3.33435,-141.674,22.0947,8.54492,29.541,0.221039,-0.244751,0.632355,-0.700897,-24111,2585,9706,-3490,-29327
471234,-4.21094,-13.097,0.626855,-85.1935,-3.02673,-141.63,-4.39453,-8.72803,31.189,0.222839,-0.24234,0.632141,-0.701355,-10799,5657,9450,-3490,-29327
471240,-3.60801,-18.2841,1.16758,-85.1056,-2.69714,-141.641,9.33838,3.66211,35.9497,0.224884,-0.240692,0.632629,-0.700836,3026,8473,9194,-3490,-29327
471246,-7.2543,-12.6089,-0.91875,-84.8419,-2.38403,-141.685,45.166,10.0098,31.9214,0.226837,-0.238464,0.632843,-0.700775,16082,11801,9706,-3490,-29327
471252,-7.19209,-12.2596,1.08145,-84.6167,-2.07642,-141.647,37.7808,-6.28662,33.6304,0.228882,-0.235809,0.632019,-0.701752,-24622,16921,11498,-3490,-29327
471258,-4.60332,-13.8387,-0.645996,-84.2377,-1.40625,-141.471,39.1846,-12.4512,41.3208,0.234039,-0.231873,0.630859,-0.702393,-12078,19225,12778,-3490,-29327
471264,-6.44082,-15.2742,1.40684,-83.985,-1.08215,-141.339,46.4478,-22.0947,40.5273,0.236877,-0.229828,0.630066,-0.70282,723,20761,15082,-3465,-29330
471270,-5.20147,-18.7865,1.07666,-83.7433,-0.758057,-141.141,44.8608,-35.2173,43.7012,0.23996,-0.228058,0.628937,-0.703369,13267,21785,17642,-3465,-29330
471276,-2.09111,-30.0843,6.29727,-83.4521,-0.384521,-140.894,54.0771,-42.2363,55.603,0.2435,-0.226654,0.627777,-0.703644,26579,22041,21482,-3465,-29330
471282,4.36406,-27.1223,14.3028,-83.0017,0.115356,-140.707,85.6934,-26.4893,83.9844,0.24762,-0.225098,0.626312,-0.70401,-15149,24345,27114,-3465,-29330
471288,2.2251,-21.3657,9.74258,-83.3038,1.75232,-141.048,-55.1758,64.5752,150.818,0.255737,-0.216827,0.626495,-0.703552,-2861,25625,29162,-3465,-29330
471294,-1.16279,-26.8734,2.11982,-83.5291,2.71362,-141.262,-49.3164,65.0635,170.532,0.258636,-0.210754,0.63031,-0.700928,8916,26649,30442,-3465,-29330
471300,-3.57451,-30.0269,-0.0957031,-83.6829,3.81775,-141.345,-33.8135,41.8091,202.332,0.262146,-0.204132,0.634064,-0.698181,22228,27929,31978,-3465,-29330
471306,-2.39258,-27.5529,-2.44521,-83.7378,5.04822,-141.372,-14.3433,33.5083,232.117,0.267334,-0.197205,0.637329,-0.695221,-28204,28953,-31766,-3465,-29330
471312,-3.13428,-23.6626,-2.47393,-83.7762,6.42151,-141.422,-9.64355,41.1377,260.559,0.273773,-0.189514,0.640076,-0.692322,5589,32281,-26902,-3465,-29330
471318,1.35898,-23.519,2.86631,-83.9191,9.39331,-141.284,-27.0996,12.6953,298.157,0.288574,-0.172028,0.645752,-0.685577,25557,-30951,-23830,-3465,-29330
471324,5.55557,-28.2133,6.60352,-84.0179,10.9918,-141.141,-23.7427,22.8882,313.538,0.297241,-0.163391,0.648865,-0.68103,-18475,-28135,-21014,-3465,-29330
471330,5.83311,-30.2087,5.34502,-84.0454,12.7057,-141.048,-7.32422,36.1938,337.708,0.306458,-0.154449,0.651886,-0.676117,5846,-25319,-17942,-3465,-29330
471336,4.60811,-29.4813,3.91426,-83.952,14.5404,-140.977,16.7236,43.457,362.671,0.315979,-0.144257,0.654633,-0.671326,32726,-21991,-15638,-3465,-29330
471342,1.6748,-21.8825,3.31611,-83.7543,16.452,-140.911,37.9639,46.5088,380.249,0.336517,-0.120575,0.658234,-0.662445,28119,-16359,-13078,-3465,-29330
471348,0.684277,-21.7198,2.45957,-83.2874,20.3796,-140.746,42.9077,41.3818,399.17,0.346893,-0.107819,0.659454,-0.658051,-5929,-14055,-12310,-3465,-29330
471354,3.07207,-22.05,2.98594,-82.9962,22.4341,-140.609,51.5137,42.4194,414.551,0.357758,-0.0951233,0.660431,-0.653198,28632,-12519,-13078,-3465,-29330
471360,0.153125,-22.8061,4.33057,-82.6721,24.5435,-140.57,64.6973,62.9883,424.805,0.368927,-0.0818176,0.661011,-0.648193,985,-12007,-15126,-3465,-29330
471366,0.224902,-23.7009,3.96211,-82.2437,26.6473,-140.389,73.8525,41.0156,428.345,0.379639,-0.0674438,0.661377,-0.64328,-24103,-13031,-17686,-3465,-29330
471372,4.98613,-13.164,3.75635,-81.7108,28.7512,-140.169,89.2334,37.9028,431.885,0.402252,-0.0392456,0.659729,-0.633453,-2086,-18151,-27670,-3465,-29330
471378,-8.04385,-14.5277,4.44063,-81.1285,32.9755,-140.213,42.0532,90.9424,419.983,0.412323,-0.0238037,0.659088,-0.628418,-24613,-21735,32490,-3482,-29328
471384,-3.18691,-23.5908,3.07207,-80.7935,34.9805,-139.796,24.292,11.3525,419.922,0.421387,-0.0093689,0.659698,-0.622131,20444,-26599,26346,-3482,-29328
471390,8.81904,-21.3896,5.87139,-80.2002,36.969,-139.411,78.3691,20.9961,417.053,0.432556,0.00250244,0.659119,-0.615112,2013,32025,19178,-3482,-29328
471396,3.40225,-14.6809,6.65137,-79.7333,38.9081,-139.351,90.21,75.6226,399.719,0.443146,0.015564,0.657074,-0.609528,-14883,23065,10986,-3482,-29328
471402,2.24902,-18.7578,4.73252,-79.2828,40.7703,-139.142,66.5283,44.3115,387.085,0.460175,0.0426331,0.654022,-0.598816,20703,281,-8983,-3482,-29328
471408,4.98613,-17.0304,1.98105,-78.2172,44.4177,-138.625,86.2427,55.8472,382.08,0.468811,0.0551147,0.652191,-0.593048,6880,-13544,-19223,-3482,-29328
471414,6.9624,-9.13486,0.0143555,-77.5525,46.1371,-138.367,101.807,52.6123,366.272,0.476807,0.0680847,0.649933,-0.587769,-9248,-27624,-28695,-3482,-29328
471420,3.38311,-4.94307,0.904395,-76.9922,47.7576,-138.285,105.408,75.8057,341.736,0.484222,0.08078,0.647125,-0.583191,-25119,20760,27625,-3482,-29328
471426,-3.04814,-6.9959,-1.27285,-76.5637,49.3231,-138.274,89.9658,84.8389,329.956,0.490234,0.0934143,0.644653,-0.57901,24290,2328,18665,-3482,-29328
471432,-6.32598,3.48359,-4.91914,-75.7452,50.7843,-137.796,90.8813,22.2168,269.836,0.502289,0.116119,0.639252,-0.570496,-10013,25111,-3352,-3482,-29328
471438,-7.88594,2.46436,-3.89033,-74.306,52.7893,-136.697,37.5366,-24.353,204.224,0.50766,0.125,0.636078,-0.567383,-28700,2583,-15384,-3482,-29328
471444,-1.48818,-4.13916,-2.27295,-73.6743,53.3386,-135.884,3.78418,-52.9785,157.959,0.512939,0.12973,0.633545,-0.564453,15333,-19178,-27928,-3482,-29328
471450,-2.3208,-7.46006,-4.13438,-73.2568,53.6847,-135.115,-31.9214,-57.5562,118.347,0.517975,0.131714,0.631439,-0.561737,-7195,23574,24552,-3482,-29328
471456,-2.8041,-12.1447,-5.33545,-72.7679,53.833,-134.11,-56.3354,-96.8018,89.7827,0.522308,0.131683,0.630341,-0.558929,-31514,1302,11496,-3482,-29328
471462,0.966602,-16.6858,-4.04346,-72.1692,53.844,-132.935,-65.7959,-137.573,58.8989,0.532166,0.125793,0.627563,-0.554077,-21017,23061,-12825,-3482,-29328
471468,0.971387,-17.0878,-3.675,-70.8453,53.6407,-130.358,-68.8477,-155.273,54.7485,0.537231,0.12149,0.625854,-0.552094,12264,2837,-25113,-3482,-29328
471474,1.43555,-17.1596,-2.20596,-70.0873,53.4705,-128.925,-69.8853,-168.762,53.4668,0.542633,0.116547,0.62381,-0.550201,-23320,-16108,28391,-3482,-29328
471480,1.37334,-18.2123,-1.65566,-69.2963,53.2892,-127.436,-72.876,-178.04,55.8472,0.548248,0.111267,0.62149,-0.54834,4073,32020,16359,-3482,-29328
471486,1.96191,-20.0833,-1.05752,-68.4558,53.0914,-125.887,-72.2656,-187.134,59.9365,0.554138,0.105774,0.618958,-0.546356,27881,16148,4327,-3482,-29328
471492,4.74688,-22.0835,0.540723,-67.5549,52.8882,-124.31,-47.4854,-197.021,68.3594,0.566498,0.0947876,0.613007,-0.542389,3050,-12525,-21274,-3482,-29328
471498,6.45039,-21.4662,1.871,-65.5005,52.4707,-121.141,-31.4331,-193.665,70.1294,0.572815,0.0898132,0.609314,-0.540771,19434,-25325,29414,-3482,-29328
471504,7.36436,-20.1599,3.08164,-64.4623,52.2565,-119.68,-17.0288,-184.143,68.7866,0.578918,0.0853882,0.605286,-0.53949,-31766,28179,13798,-3482,-29328
471510,8.0582,-19.021,4.09131,-63.479,52.0148,-118.345,-7.01904,-172.424,62.3169,0.584625,0.0814819,0.601166,-0.538605,-19222,17683,-1307,-3482,-29328
471516,8.7377,-18.4994,4.69424,-62.5836,51.7456,-117.18,2.68555,-157.532,50.7202,0.589752,0.0779419,0.597076,-0.538086,-8726,7955,-17435,-3482,-29328
471522,10.1876,-17.1835,5.46465,-61.8036,51.427,-116.224,23.1323,-122.131,12.5732,0.597565,0.0716858,0.589508,-0.538666,7915,-9198,16357,-3482,-29328
471528,11.1063,-16.3126,5.35459,-60.6171,50.603,-115.016,36.9873,-103.027,-12.2681,0.599945,0.0688171,0.586151,-0.540039,13547,-16366,-284,-3482,-29328
471534,12.3361,-15.4561,4.82822,-60.2051,50.0867,-114.785,53.1006,-83.374,-38.5742,0.601166,0.0661011,0.583038,-0.542419,18667,-24046,-17436,-3482,-29328
471540,12.9008,-14.4751,3.78027,-59.9249,49.5209,-114.835,69.519,-58.6548,-63.7207,0.601166,0.0636292,0.580109,-0.545807,22507,-30446,31204,-3482,-29328
471546,12.7381,-13.3745,2.71318,-59.7546,48.9166,-115.126,82.4585,-35.9497,-84.2285,0.599854,0.0615234,0.577515,-0.550232,25579,29202,14052,-3482,-29328
471552,11.336,-11.2595,0.277539,-59.6997,48.3014,-115.609,89.4775,6.28662,-109.802,0.593964,0.0583191,0.573395,-0.561157,27627,18962,-19485,-3482,-29328
471558,9.95791,-10.1158,-1.35898,-59.9634,47.1039,-117.054,84.1675,22.7051,-116.455,0.589691,0.0571289,0.572113,-0.567078,26859,16146,30947,-3482,-29328
471564,8.70898,-7.82852,-3.07207,-60.2655,46.5106,-117.927,73.5474,35.3394,-122.375,0.584808,0.0560303,0.571381,-0.572937,24811,13842,16099,-3482,-29328
471570,7.28779,-5.26846,-4.42148,-60.7104,45.9064,-118.872,53.7109,43.6401,-129.7,0.579468,0.0548096,0.571228,-0.578613,22251,12562,483,-3482,-29328
471576,5.90488,-3.675,-5.80918,-61.3147,45.2582,-119.866,29.2969,48.7671,-140.32,0.5737,0.0531006,0.571808,-0.583923,17899,10770,-27422,-3482,-29328
471582,2.34473,-2.76104,-7.68018,-62.9132,43.7366,-121.893,-21.6675,41.687,-171.448,0.561096,0.0472412,0.575134,-0.593323,14571,11026,24802,-3482,-29328
471588,0.976172,-3.09121,-7.93379,-63.8525,42.8027,-122.855,-45.0439,30.1514,-191.711,0.554352,0.042572,0.577667,-0.597565,10987,12562,13282,-3482,-29328
471594,0.124414,-3.83291,-8.3166,-64.8248,41.7261,-123.75,-63.3545,13.4277,-214.539,0.547363,0.0365295,0.580505,-0.601624,6123,15890,2530,-3482,-29328
471600,0.0430664,-4.90479,-8.24961,-65.7916,40.5011,-124.557,-75.9277,-4.82178,-237.122,0.540161,0.0290527,0.583435,-0.605682,-22,21266,-5919,-3482,-29328
471606,0.177051,-5.76611,-7.98643,-66.7365,39.1388,-125.277,-84.1064,-20.874,-258.789,0.532837,0.0202332,0.586243,-0.609833,-13590,-29678,-18719,-3482,-29328
471612,0.277539,-6.83799,-6.80449,-68.4833,36.0571,-126.442,-91.0645,-53.4668,-296.326,0.517517,-0.000732422,0.591064,-0.618652,-23318,-19182,-22815,-3465,-29330
471618,0.866113,-7.82852,-5.70391,-69.3018,34.3707,-126.909,-95.8862,-63.4155,-310.486,0.509613,-0.0126648,0.592926,-0.62326,31722,-7150,-25631,-3465,-29330
471624,0.722559,-8.77119,-5.29238,-70.1093,32.6404,-127.326,-99.4873,-68.1152,-319.153,0.501495,-0.0252991,0.594543,-0.627899,18410,7443,-28447,-3465,-29330
471630,0.468945,-8.70898,-4.95264,-70.8893,30.8771,-127.689,-102.783,-72.937,-325.378,0.493164,-0.0383301,0.596039,-0.632416,3306,23315,-29983,-3465,-29330
471636,0.583789,-8.01514,-4.29229,-71.6803,29.0808,-128.013,-109.985,-75.6836,-331.238,0.48468,-0.0516968,0.597351,-0.63678,-31511,-6125,-31263,-3465,-29330
471642,1.57432,-8.10127,-3.18691,-73.3832,25.4443,-128.611,-134.46,-69.0918,-341.064,0.467072,-0.0793762,0.600037,-0.644531,14057,13588,-30239,-3465,-29330
471648,1.71787,-9.221,-2.58398,-74.3225,23.6096,-128.919,-145.996,-60.6689,-344.788,0.457672,-0.0935669,0.601776,-0.647736,-8728,-30956,-27679,-3465,-29330
471654,2.01455,-10.5896,-1.93799,-75.2948,21.7804,-129.238,-154.541,-52.063,-346.313,0.447784,-0.107788,0.60379,-0.650543,30952,-8684,-24351,-3465,-29330
471660,2.43564,-11.9677,-1.26328,-76.2946,19.9622,-129.573,-160.95,-41.0156,-347.534,0.4375,-0.121887,0.606018,-0.652954,2536,14101,-17951,-3465,-29330
471666,2.91895,-13.231,-0.818262,-77.2943,18.1549,-129.935,-162.109,-27.771,-348.328,0.426788,-0.135773,0.608429,-0.65506,-28697,-28139,-10015,-3465,-29330
471672,2.36387,-14.8292,-0.875684,-78.2776,16.3641,-130.331,-155.334,1.46484,-345.886,0.403931,-0.162201,0.613373,-0.658936,-27418,17942,9698,-3465,-29330
471678,0.952246,-15.0397,-1.55996,-80.1782,12.854,-131.204,-154.846,13.2446,-342.285,0.391937,-0.1745,0.615753,-0.660828,2534,-23786,22242,-3465,-29330
471684,-0.880469,-15.4704,-2.3543,-81.1066,11.1566,-131.638,-155.701,19.104,-335.022,0.379639,-0.186279,0.618164,-0.662506,30437,535,-30750,-3465,-29330
471690,-3.14863,-15.4034,-2.90459,-82.0294,9.50317,-132.028,-159.058,20.2026,-326.111,0.367401,-0.197632,0.620544,-0.66391,-8476,23831,-15390,-3465,-29330
471696,-5.85225,-15.4034,-2.9333,-82.9633,7.90466,-132.347,-166.382,14.5264,-315.735,0.355316,-0.208679,0.622925,-0.664856,-26141,3352,20707,-3465,-29330
471702,-9.94355,-14.3938,-0.0861328,-83.9136,6.3501,-132.578,-180.908,-3.23486,-302.917,0.332458,-0.230682,0.627747,-0.664886,-1566,24344,-25885,-3465,-29330
471708,-11.1111,-14.2693,1.86143,-85.8582,3.26843,-132.797,-186.035,-14.6484,-306.946,0.321533,-0.241821,0.630096,-0.664062,21986,-20968,-4381,-3465,-29330
471714,-10.6422,-13.9679,3.95732,-86.825,1.68091,-132.792,-187.317,-21.6064,-317.749,0.310822,-0.253387,0.632202,-0.662842,-21535,-1256,18916,-3465,-29330
471720,-10.202,-13.9727,5.89531,-87.7808,0.0164795,-132.77,-185.364,-19.8364,-334.045,0.300018,-0.26535,0.633942,-0.661499,-288,17689,-22556,-3465,-29330
471726,-9.47461,-14.1593,7.48877,-88.6871,-1.71936,-132.742,-177.856,-14.4043,-352.234,0.288757,-0.277588,0.635254,-0.660217,19424,-30951,4325,-3465,-29330
471732,-9.4459,-14.6904,9.87656,-90.3021,-5.39429,-132.814,-155.334,14.8315,-381.47,0.264465,-0.302094,0.636078,-0.658844,-7970,-1767,-8731,-3465,-29330
471738,-10.9724,-14.5421,10.4747,-90.9888,-7.27844,-132.957,-143.372,33.7524,-387.329,0.251312,-0.313812,0.635681,-0.658905,10718,10010,16870,-3465,-29330
471744,-13.1879,-14.2933,10.3886,-91.6095,-9.14612,-133.176,-133.24,53.2837,-385.925,0.23764,-0.324829,0.634827,-0.659454,27357,21018,-23322,-3465,-29330
471750,-16.3557,-14.1258,10.0058,-92.1478,-10.9644,-133.456,-123.596,68.8477,-377.625,0.223602,-0.334961,0.633728,-0.66037,-24100,30490,2023,-3465,-29330
471756,-19.6431,-13.609,9.44111,-92.6257,-12.7057,-133.802,-115.845,82.0923,-364.319,0.209564,-0.344116,0.632416,-0.661499,-1574,-22246,-13849,-3465,-29330
471762,-27.261,-13.0443,8.43145,-93.4607,-15.8643,-134.632,-111.45,99.7314,-322.998,0.182068,-0.359283,0.629852,-0.664001,7130,-19686,11752,-3465,-29330
471768,-30.5628,-12.8769,8.1874,-93.8452,-17.2375,-135.082,-111.084,102.173,-297.058,0.169037,-0.365356,0.628906,-0.66507,18137,-18662,-29720,-3465,-29330
471774,-33.1516,-12.6567,8.19697,-94.2133,-18.4735,-135.544,-111.877,102.783,-270.325,0.156738,-0.370453,0.628265,-0.665833,28632,-20966,-6936,-3465,-29330
471780,-35.5106,-12.2404,8.16348,-94.5703,-19.5612,-136.016,-112.244,103.149,-243.591,0.145233,-0.374664,0.628052,-0.666321,-26153,-25574,15593,-3465,-29330
471786,-37.3625,-12.0777,7.96729,-94.9109,-20.5115,-136.489,-111.938,100.525,-216.98,0.134521,-0.37796,0.628204,-0.666565,-2347,24602,-8727,-3465,-29330
471792,-40.1427,-11.2451,7.80459,-95.5206,-22.0111,-137.422,-104.187,93.689,-167.114,0.115814,-0.382294,0.629517,-0.666351,10709,15130,9194,-3465,-29330
471798,-41.4395,-10.245,7.76631,-95.7788,-22.5769,-137.884,-98.6938,90.0879,-144.287,0.107819,-0.383392,0.630524,-0.666107,27092,5914,25322,-3465,-29330
471804,-42.1859,-8.86211,7.32607,-96.026,-23.0219,-138.323,-96.2524,83.1909,-122.559,0.100708,-0.38385,0.631744,-0.665802,-21037,-4583,-25622,-3465,-29330
471810,-41.9228,-7.84766,7.26387,-96.2512,-23.3624,-138.746,-91.3696,77.0264,-101.501,0.0944824,-0.38385,0.633209,-0.665344,-1582,-16103,-11030,-3465,-29330
471816,-41.5064,-6.79014,6.87627,-96.46,-23.5822,-139.153,-87.9517,71.3501,-79.3457,0.0891113,-0.383331,0.634827,-0.664825,-21295,25113,15083,-3465,-29330
471822,-44.6646,-30.1513,7.63711,-97.2894,-23.4668,-139.845,-162.292,43.5181,2.80762,0.0811768,-0.380768,0.638885,-0.663422,5841,12569,27883,-3465,-29330
471828,-44.8417,-32.9649,9.36455,-97.0422,-22.934,-140.065,19.165,18.6157,66.7725,0.0786438,-0.378448,0.644135,-0.659973,-30256,793,-26901,-3465,-29330
471834,-37.0515,-14.1306,9.45068,-96.5369,-22.1869,-140.109,84.1064,-16.6016,105.103,0.0816345,-0.374481,0.645111,-0.660919,2768,-10216,-17173,-3465,-29330
471840,-33.8358,-6.11543,10.068,-95.8777,-21.3354,-140.175,112.976,-14.2822,127.502,0.0877686,-0.370178,0.644684,-0.662964,-26417,-20200,-7957,-3465,-29330
471846,-57.2879,-71.7869,12.8864,-96.6797,-19.7699,-140.125,-168.457,-50.1709,267.273,0.0949402,-0.365051,0.643738,-0.665741,-8242,28952,8940,-3465,-29330
471852,-59.2402,10.0201,28.6152,-93.3673,-15.1172,-139.812,304.932,-72.3877,484.192,0.121765,-0.347229,0.648163,-0.666626,-24882,23832,15596,-3499,-29326
471858,-10.7092,-2.12461,18.107,-92.8125,-12.7606,-139.186,129.211,-152.344,423.34,0.143707,-0.332489,0.646332,-0.671509,29646,21784,19948,-3499,-29326
471864,1.63652,-7.52705,17.4371,-91.5106,-10.6567,-139.686,227.112,76.9043,384.521,0.163452,-0.322754,0.647858,-0.670288,21966,21272,22764,-3499,-29326
471870,-46.8802,15.7384,20.7341,-89.5221,-10.1074,-141.411,321.716,330.2,74.2798,0.17688,-0.30661,0.647247,-0.675018,20942,23320,24300,-3499,-29326
471876,-48.1435,19.2124,-28.5291,-89.4287,-9.8822,-141.493,3.78418,9.09424,2.74658,0.17514,-0.290771,0.641327,-0.688019,-28210,-31976,19180,-3499,-29326
471882,26.127,-43.2387,6.18721,-89.7693,-9.20654,-139.796,106.323,-133.789,56.3354,0.181519,-0.294891,0.644287,-0.681793,-14386,-25832,13036,-3499,-29326
471888,18.777,-7.01025,15.5087,-88.3301,-8.53638,-140.603,251.404,156.738,95.1538,0.189453,-0.295135,0.640991,-0.682648,463,-19688,6636,-3499,-29326
471894,-17.2218,13.6712,-4.57461,-87.627,-7.9541,-141.24,110.596,124.207,75.3784,0.19223,-0.284454,0.636108,-0.690918,15055,-14056,-533,-3499,-29326
471900,-5.94795,-4.76123,11.0106,-87.7368,-7.33337,-140.691,-18.0054,-109.375,91.5527,0.193512,-0.276367,0.634918,-0.694946,28879,-8680,-6933,-3499,-29326
471906,8.45537,-18.7722,3.38789,-87.9126,-6.77856,-140.592,-44.9219,-20.752,76.0498,0.200195,-0.276001,0.635773,-0.692413,-7729,281,-16405,-3499,-29326
471912,-10.6996,0.875684,0.430664,-87.0557,-5.71289,-140.867,83.9844,-5.85938,71.106,0.205811,-0.268127,0.637665,-0.692108,7888,4377,-21525,-3499,-29326
471918,-1.56475,0.976172,6.47432,-86.9952,-5.24597,-140.685,4.21143,-35.0342,60.1807,0.210144,-0.264374,0.636017,-0.693756,24016,8473,-25365,-3499,-29326
471924,1.58389,-7.82373,4.34492,-87.0392,-4.80652,-140.707,-19.3481,4.27246,53.6499,0.21402,-0.262543,0.636353,-0.692963,-24880,12825,-28949,-3499,-29326
471930,-7.7376,-12.9582,-2.03369,-87.0117,-4.4165,-140.878,-7.62939,34.0576,43.335,0.216309,-0.259949,0.637695,-0.692017,-9008,16921,-31765,-3499,-29326
471936,-10.6565,-14.8675,-1.37334,-86.8634,-4.03748,-140.795,21.8506,-14.5264,44.1284,0.217621,-0.256653,0.638824,-0.691772,22225,23577,30187,-3499,-29326
471942,-2.87588,-12.1543,4.321,-86.5283,-3.31787,-140.587,21.5454,-5.7373,37.4146,0.224213,-0.25296,0.638,-0.691803,-28719,26649,29163,-3499,-29326
471948,-3.52188,-12.2835,1.78965,-86.402,-2.99377,-140.543,17.0898,-5.85938,33.9966,0.226715,-0.250854,0.637817,-0.691925,-13871,29209,28651,-3499,-29326
471954,-1.52646,-13.877,2.33994,-86.2811,-2.66968,-140.499,17.395,-6.16455,35.5225,0.229065,-0.248932,0.637726,-0.691925,722,31769,28395,-3499,-29326
471960,-3.72285,-12.1256,2.11504,-86.1108,-2.35107,-140.521,27.0386,8.30078,33.8745,0.231476,-0.247009,0.637634,-0.691895,14802,-31719,28651,-3499,-29326
471966,-5.91445,-13.0156,1.09102,-85.979,-2.03796,-140.537,19.7144,7.38525,33.5083,0.235443,-0.242401,0.637299,-0.692505,-23854,-26599,29419,-3465,-29330
471972,-5.79004,-15.5613,-1.69395,-85.7373,-1.30188,-140.345,26.7944,-16.4795,48.4619,0.238129,-0.240479,0.637451,-0.692078,-10542,-24039,29931,-3465,-29330
471978,-4.82344,-16.9969,-0.698633,-85.4901,-0.944824,-140.158,45.9595,-30.3955,47.9736,0.241241,-0.238556,0.637115,-0.692017,3027,-20967,30955,-3465,-29330
471984,-4.08174,-19.9541,0.665137,-85.2374,-0.587769,-139.966,47.3022,-31.311,49.6216,0.244873,-0.236908,0.636017,-0.692291,16083,-18151,31467,-3465,-29330
471990,-1.23936,-30.1704,8.75205,-84.9078,-0.159302,-139.686,61.5234,-46.6919,66.7725,0.248566,-0.235291,0.634888,-0.692566,28627,-15591,31979,-3465,-29330
471996,3.46445,-24.2799,11.2882,-84.5288,0.406494,-139.587,71.7163,-6.83594,94.2993,0.257843,-0.229797,0.63205,-0.693604,-13101,-12007,-31765,-3465,-29330
472002,0.693848,-21.6624,6.13457,-84.809,2.03796,-139.9,-44.6777,53.2837,149.17,0.261108,-0.224457,0.634491,-0.691895,-301,-10215,-32021,-3465,-29330
472008,-0.344531,-27.2515,1.90449,-84.9463,2.98828,-140.032,-30.8228,45.8984,169.8,0.264343,-0.21875,0.637878,-0.689362,13524,-8679,-32533,-3465,-29330
472014,-1.61738,-29.4431,2.43086,-84.9847,4.06494,-140.109,-11.3525,38.5742,198.914,0.268524,-0.212585,0.64093,-0.68689,28884,-6887,32747,-3465,-29330
472020,-1.79443,-25.1891,0.976172,-84.9792,5.27893,-140.142,-1.0376,32.7759,228.271,0.273865,-0.205688,0.643494,-0.684448,-20012,-3815,-31253,-3465,-29330
472026,-1.4499,-21.6528,2.73711,-84.9902,6.60278,-140.197,-4.5166,39.0625,252.197,0.28714,-0.189575,0.64859,-0.678864,15573,2842,-28693,-3465,-29330
472032,0.674707,-21.5093,3.39746,-85.3308,9.54163,-140.202,-50.1709,36.0718,294.312,0.294373,-0.180847,0.651794,-0.675049,-29227,6426,-27669,-3465,-29330
472038,1.35898,-26.639,5.1584,-85.589,11.1511,-140.202,-51.8799,44.3115,312.073,0.302399,-0.172302,0.655853,-0.6698,-6187,9242,-27669,-3465,-29330
472044,1.77529,-30.3427,3.23955,-85.7593,12.854,-140.164,-34.3628,37.1704,335.083,0.310608,-0.163086,0.660034,-0.664185,18902,11802,-28181,-3465,-29330
472050,3.69414,-30.6537,2.81846,-85.7648,14.6558,-140.092,-4.82178,31.1279,357.056,0.319672,-0.153168,0.663666,-0.65863,-18474,14362,-28181,-3465,-29330
472056,1.62695,-24.7105,1.47383,-85.6329,16.5399,-140.043,46.5698,46.6309,390.686,0.339874,-0.130615,0.668152,-0.648773,-23081,19738,-28437,-3465,-29330
472062,-2.1916,-22.452,0.488086,-85.155,20.517,-139.999,49.8657,45.2271,405.334,0.350311,-0.117737,0.669403,-0.644348,10200,22554,-26901,-3465,-29330
472068,-0.133984,-20.9877,-0.961816,-84.8254,22.5879,-139.812,54.8096,19.7144,419.373,0.361053,-0.104431,0.670441,-0.639618,-19496,24602,-26133,-3465,-29330
472074,3.78984,-21.2652,1.08623,-84.4189,24.6918,-139.631,69.8853,23.9258,427.734,0.372772,-0.0914001,0.670807,-0.634521,18905,25882,-26133,-3465,-29330
472080,0.421094,-23.0262,2.78018,-83.9465,26.8066,-139.548,90.0269,45.5322,429.932,0.38446,-0.0777588,0.670624,-0.629517,-5671,25882,-27413,-3465,-29330
472086,6.17285,-20.9733,1.97148,-83.3258,28.9325,-139.312,127.075,24.1699,441.04,0.407166,-0.0487366,0.668396,-0.620483,14555,22554,30699,-3482,-29328
472092,1.81357,-13.0061,3.34004,-81.947,33.2391,-139.01,127.747,68.3594,442.932,0.418762,-0.0338135,0.665985,-0.616302,-5669,18714,24811,-3482,-29328
472098,-8.32139,-12.5706,1.81357,-81.5845,35.332,-138.961,71.6553,67.8711,429.199,0.428925,-0.0176697,0.664124,-0.611969,-23844,13082,16363,-3482,-29328
472104,-1.20586,-19.332,2.25381,-81.0626,37.348,-138.494,55.3589,2.13623,423.889,0.438538,-0.00299072,0.663544,-0.606049,25309,5402,7147,-3482,-29328
472110,4.08652,-18.8009,4.85215,-80.4639,39.2981,-138.203,88.623,33.1421,408.752,0.449677,0.00942993,0.661896,-0.599548,10206,-4071,-3606,-3482,-29328
472116,-1.16758,-22.1218,4.49326,-79.3268,43.0664,-137.648,82.0312,25.5127,396.057,0.467896,0.0363464,0.658112,-0.588654,-17185,-30439,-27414,-3482,-29328
472122,3.59365,-21.3179,2.34473,-78.6292,44.9121,-137.269,93.0176,31.4331,393.005,0.477081,0.0490112,0.655701,-0.583038,32224,20505,26346,-3482,-29328
472128,4.10088,-15.9537,0.440234,-77.8876,46.6919,-136.939,106.934,40.9546,379.272,0.48584,0.0619202,0.652954,-0.577637,16865,4633,12522,-3482,-29328
472134,5.80918,-7.79023,-1.74658,-77.0636,48.3179,-136.56,115.662,33.7524,351.685,0.493744,0.0748901,0.649933,-0.572784,2274,-14056,-1815,-3482,-29328
472140,6.69443,-3.75635,-2.32559,-76.2891,49.79,-136.252,115.54,41.3818,320.984,0.500946,0.0870667,0.646484,-0.568665,-27677,9496,31977,-3482,-29328
472146,6.82842,-3.42139,-6.19199,-74.6027,52.5201,-135.544,129.639,15.5029,297.729,0.512207,0.109833,0.640411,-0.561554,21476,-14313,15849,-3482,-29328
472152,0.430664,11.5179,-2.92852,-73.7677,53.5583,-135.324,138.794,40.7715,235.413,0.518036,0.120239,0.6362,-0.558868,1765,28439,-24,-3482,-29328
472158,-8.03906,11.1829,-1.55039,-73.3722,54.1351,-135.165,61.5845,23.9258,144.226,0.521484,0.129669,0.632568,-0.557648,-18971,4119,-15384,-3482,-29328
472164,-3.24912,-3.1582,0.0382813,-73.092,54.3933,-134.797,3.90625,-17.1509,90.271,0.523621,0.13446,0.63092,-0.556396,24806,-21226,-31512,-3482,-29328
472170,-1.23457,-10.245,-1.97627,-72.9877,54.4812,-134.506,-18.4937,-19.3481,54.5044,0.525848,0.135437,0.630035,-0.555023,-24345,-7403,-25,-3482,-29328
472176,0.229688,-17.461,-2.04805,-72.7405,54.3713,-133.583,-48.7671,-57.5562,31.5552,0.529083,0.132965,0.629883,-0.552734,12776,-31467,-17689,-3482,-29328
472182,0.531152,-19.7962,-1.87578,-72.5592,54.2944,-133.006,-50.5371,-63.9648,35.4004,0.531219,0.130219,0.629761,-0.551483,-18968,12053,31463,-3482,-29328
472188,0.334961,-20.5666,-1.14844,-72.29,54.245,-132.325,-49.0723,-75.0732,43.5791,0.533569,0.127411,0.629517,-0.55014,11753,-8684,17127,-3482,-29328
472194,0.488086,-20.3704,-0.607715,-71.9055,54.223,-131.528,-45.7764,-87.3413,54.1992,0.536407,0.124573,0.628937,-0.548706,-26391,-27372,4071,-3482,-29328
472200,0.617285,-20.5427,-0.382812,-71.4221,54.2285,-130.622,-43.5791,-98.0835,64.6362,0.539734,0.121857,0.62796,-0.54718,21226,5908,-18202,-3482,-29328
472206,0.550293,-20.2651,-1.07187,-70.1477,54.2725,-128.507,-35.1562,-120.85,77.7588,0.547791,0.116669,0.624908,-0.543793,-24086,-7917,-28954,-3482,-29328
472212,0.880469,-19.2985,-1.22979,-69.3018,54.2615,-127.271,-24.1699,-137.024,78.7964,0.552399,0.114075,0.622742,-0.542114,-5910,-20717,26086,-3482,-29328
472218,1.33984,-17.8726,-0.6125,-68.3734,54.1956,-125.975,-17.6392,-147.217,74.0967,0.557373,0.11142,0.619934,-0.540802,9963,32531,15334,-3482,-29328
472224,2.15811,-17.4515,0.0765625,-67.3901,54.0692,-124.634,-14.2212,-157.654,67.3218,0.562439,0.108521,0.61676,-0.539795,23531,21523,2278,-3482,-29328
472230,3.68457,-17.7434,1.01445,-66.3904,53.877,-123.283,-12.2681,-164.185,59.8145,0.567535,0.105316,0.613251,-0.539093,-20245,787,-25371,-3482,-29328
472236,7.43613,-18.1357,3.27783,-64.5282,53.3716,-120.74,-13.3057,-159.912,45.6543,0.577423,0.0980835,0.605865,-0.53833,-11285,-8686,25317,-3482,-29328
472242,8.71377,-17.5663,3.98125,-63.7372,53.053,-119.652,-9.76562,-150.085,33.5693,0.581879,0.0942688,0.602325,-0.538147,-3093,-18158,12261,-3482,-29328
472248,9.71387,-15.8437,4.2875,-63.0725,52.663,-118.757,-4.88281,-137.024,14.1602,0.585724,0.0904541,0.598999,-0.538361,4588,-27630,-1308,-3482,-29328
472254,10.9006,-14.3842,4.07217,-62.5616,52.196,-118.087,1.95312,-122.009,-10.2539,0.588715,0.0865479,0.595947,-0.539124,11244,30226,-14364,-3482,-29328
472260,11.9964,-13.4559,3.58887,-62.1936,51.6302,-117.68,13.7939,-103.638,-40.2222,0.590637,0.0825195,0.593231,-0.540649,20460,16146,23780,-3482,-29328
472266,12.3648,-12.7859,2.26816,-61.8585,50.2515,-117.664,45.3491,-62.5,-96.6797,0.590607,0.0745544,0.588623,-0.546844,23020,10258,7652,-3482,-29328
472272,12.0442,-12.1734,1.63652,-61.8585,49.4769,-117.982,54.3213,-46.1426,-117.92,0.588654,0.0708313,0.58667,-0.551514,23788,5138,-8989,-3482,-29328
472278,11.9581,-10.9771,0.890039,-61.9684,48.6639,-118.477,57.373,-28.5645,-134.705,0.585663,0.0671692,0.584991,-0.556915,23020,1298,-25629,-3482,-29328
472284,11.6375,-9.06787,-0.062207,-62.2375,47.8345,-119.163,54.0771,-6.40869,-149.658,0.581757,0.0635986,0.58374,-0.562714,21996,-1519,24547,-3482,-29328
472290,10.7235,-6.87148,-1.20586,-62.666,46.9885,-120.004,43.5181,12.3901,-162.476,0.576874,0.0600891,0.58313,-0.568726,16108,-3055,-2334,-3482,-29328
472296,8.54629,-4.12002,-3.26826,-63.9954,45.2197,-121.992,7.08008,38.6353,-186.584,0.564758,0.0524902,0.584167,-0.580444,11756,-2031,-15134,-3482,-29328
472302,7.07246,-3.59365,-4.15352,-64.8798,44.2639,-123.102,-13.855,47.9126,-200.317,0.557739,0.0479736,0.585876,-0.585876,6636,786,-28190,-3482,-29328
472308,5.49336,-3.78506,-5.02441,-65.8795,43.2312,-124.244,-33.8135,52.1851,-216.736,0.550079,0.0428467,0.588348,-0.591034,748,4626,24802,-3482,-29328
472314,3.69414,-4.41191,-5.78047,-66.9342,42.0996,-125.376,-49.8047,49.2554,-235.657,0.54184,0.0369263,0.59137,-0.595978,-5397,9234,13282,-3482,-29328
472320,2.57441,-4.76602,-6.27813,-67.9999,40.8417,-126.458,-61.2793,40.7104,-256.287,0.533173,0.0300903,0.594757,-0.60083,-19989,23570,-4639,-3465,-29330
472326,0.45459,-5.95273,-6.60352,-70.0433,37.9083,-128.408,-72.876,15.2588,-303.284,0.514648,0.0132751,0.60144,-0.61084,-28949,-31726,-10783,-3465,-29330
472332,-0.349316,-6.50781,-6.46953,-70.9772,36.2329,-129.232,-75.7446,0.0610352,-325.256,0.504852,0.00326538,0.604431,-0.61618,25579,-18926,-15647,-3465,-29330
472338,-0.933105,-7.15859,-6.26855,-71.8506,34.4421,-129.946,-80.9937,-16.6626,-343.384,0.494781,-0.00772095,0.607025,-0.621735,12523,-3822,-18463,-3465,-29330
472344,-1.05273,-7.97207,-5.97666,-72.6691,32.5635,-130.54,-85.9375,-33.02,-357.422,0.484589,-0.0197754,0.609222,-0.627319,-2582,13587,-18975,-3465,-29330
472350,-1.29678,-8.28789,-5.47422,-73.4436,30.6189,-131.023,-91.6748,-47.9126,-367.249,0.474335,-0.0327454,0.611053,-0.632812,29418,-14829,-17183,-3465,-29330
472356,-1.27764,-8.93867,-4.15352,-74.9542,26.6199,-131.688,-111.328,-69.0918,-374.939,0.453918,-0.060791,0.6138,-0.642944,9194,6420,-13855,-3465,-29330
472362,-1.64131,-9.46982,-3.29219,-75.7288,24.6149,-131.907,-122.07,-74.707,-374.817,0.443817,-0.0755615,0.61499,-0.647278,-13079,28948,-9247,-3465,-29330
472368,-1.91885,-10.3551,-2.32559,-76.5198,22.6099,-132.056,-132.996,-80.7495,-373.291,0.433716,-0.0906372,0.61618,-0.651062,27625,-12012,-4127,-3465,-29330
472374,-1.47383,-11.0633,-1.25371,-77.3273,20.6213,-132.155,-141.663,-82.5806,-371.704,0.423706,-0.105988,0.617371,-0.654205,-280,12821,1762,-3465,-29330
472380,-0.674707,-12.0012,-0.287109,-78.1567,18.6493,-132.242,-147.583,-78.6743,-370.361,0.413666,-0.121429,0.61853,-0.65683,5608,-2539,15074,-3465,-29330
472386,1.20107,-13.8004,0.957031,-79.8047,14.7601,-132.418,-147.766,-61.7676,-367.981,0.393005,-0.151825,0.620819,-0.661011,-29209,23574,23010,-3465,-29330
472392,1.73701,-14.4512,1.41162,-80.6067,12.865,-132.556,-143.127,-46.6309,-363.953,0.382263,-0.166443,0.621857,-0.662842,-1306,-15850,32226,-3465,-29330
472398,1.63652,-14.7287,1.54561,-81.3922,11.0248,-132.748,-139.709,-27.71,-356.445,0.371185,-0.180328,0.622803,-0.664581,24294,10775,-21022,-3465,-29330
472404,0.775195,-15.0158,1.29678,-82.1722,9.25049,-132.99,-139.404,-10.0098,-346.313,0.359802,-0.193359,0.62381,-0.66626,-18203,-28393,-7710,-3465,-29330
472410,-0.191406,-15.0924,1.59824,-82.9578,7.54761,-133.275,-140.747,6.53076,-333.679,0.348175,-0.205505,0.624939,-0.667725,25316,22552,23523,-3465,-29330
472416,-3.10078,-13.8291,3.05771,-84.5508,4.32312,-134.033,-146.545,45.8374,-318.848,0.324463,-0.227112,0.627899,-0.669891,-19741,-18664,-24605,-3465,-29330
472422,-4.95742,-12.6424,3.65107,-85.3418,2.71912,-134.511,-148.438,65.1245,-323.059,0.312042,-0.236725,0.62973,-0.670746,-286,4889,-5149,-3465,-29330
472428,-7.15381,-11.9868,3.73242,-86.1218,1.05469,-135.027,-148.743,78.5522,-336.731,0.298981,-0.24585,0.631653,-0.6716,18402,27161,15076,-3465,-29330
472434,-8.66592,-11.6997,3.50752,-86.8634,-0.697632,-135.566,-146.057,88.1958,-356.812,0.285187,-0.254883,0.633392,-0.672607,-29471,-17383,-27676,-3457,-29331
472440,-10.58,-11.8337,3.46445,-87.561,-2.55432,-136.11,-140.808,94.1162,-378.601,0.27063,-0.264038,0.634766,-0.673798,5600,18714,19173,-3457,-29331
472446,-15.6331,-13.3171,3.78506,-88.7805,-6.49841,-137.131,-124.939,91.1865,-410.278,0.239655,-0.283081,0.635773,-0.676849,22495,-31462,-22043,-3457,-29331
472452,-18.3941,-14.3315,4.17266,-89.2859,-8.50342,-137.576,-114.319,85.7544,-414.368,0.223785,-0.292908,0.635284,-0.678558,-27938,-17894,2790,-3457,-29331
472458,-21.5188,-15.035,4.78037,-89.7253,-10.4645,-137.972,-102.661,77.7588,-409.424,0.208099,-0.302673,0.634186,-0.680267,-14627,-6374,26598,-3457,-29331
472464,-24.5813,-15.1881,5.44072,-90.1099,-12.3651,-138.307,-92.4072,68.1152,-398.56,0.192993,-0.312225,0.632568,-0.681915,-3364,3355,-15898,-3457,-29331
472470,-27.2275,-15.1642,5.94316,-90.4669,-14.1614,-138.593,-87.7075,59.7534,-382.202,0.17865,-0.321472,0.630524,-0.683411,13275,16411,28903,-3457,-29331
472476,-32.2902,-15.59,6.16328,-91.1591,-17.4078,-139.01,-83.4961,42.4805,-340.942,0.152557,-0.338593,0.626221,-0.685425,22746,19995,-15385,-3457,-29331
472482,-35.0273,-16.0303,5.92881,-91.4886,-18.847,-139.169,-80.5664,37.5977,-318.298,0.14093,-0.346375,0.624176,-0.685883,31193,20507,5352,-3457,-29331
472488,-37.7405,-16.7241,5.80918,-91.7908,-20.1379,-139.279,-73.5474,29.3579,-291.87,0.130219,-0.353546,0.622284,-0.686066,-26920,17435,26856,-3457,-29331
472494,-39.7407,-16.5566,5.84746,-92.049,-21.2695,-139.362,-63.5376,22.7661,-261.902,0.120636,-0.360016,0.620483,-0.686096,-20009,12827,-19736,-3457,-29331
472500,-41.449,-15.5326,6.42168,-92.2742,-22.1979,-139.422,-55.0537,16.9678,-224.182,0.112366,-0.365723,0.618774,-0.686035,-4395,-2022,16617,-3457,-29331
472506,-42.5783,-14.0971,6.41211,-92.6202,-23.4229,-139.554,-43.335,16.9678,-139.954,0.100067,-0.374023,0.616364,-0.685638,6357,-9702,31721,-3457,-29331
472512,-43.0377,-11.9916,6.17764,-92.7246,-23.6865,-139.664,-36.377,20.0806,-94.2383,0.0960083,-0.376282,0.615906,-0.685364,19156,-19174,-18967,-3457,-29331
472518,-42.7075,-7.91465,6.25898,-92.8015,-23.736,-139.812,-34.668,24.8413,-51.6968,0.0933838,-0.377136,0.616028,-0.68515,-32045,-30182,-5911,-3457,-29331
472524,-45.9088,-19.1215,4.81387,-93.197,-23.5162,-139.96,-99.1211,22.8882,0.854492,0.0919495,-0.376648,0.616821,-0.684906,-15662,23322,6890,-3457,-29331
472530,-47.6075,-26.304,17.8678,-93.186,-22.934,-140.103,-16.3574,15.9302,74.0356,0.091095,-0.375031,0.620392,-0.682678,27601,-1767,30954,-3457,-29331
472536,-39.7599,2.97637,14.901,-92.8674,-21.2036,-140.526,7.32422,33.4473,146.667,0.0982971,-0.366272,0.624847,-0.682373,-10288,-14055,-23318,-3457,-29331
472542,-39.7742,3.4501,12.7237,-92.7686,-20.1764,-140.889,-17.2729,51.6968,163.757,0.10321,-0.359833,0.627533,-0.682617,21200,-24807,-12822,-3457,-29331
472548,-60.3504,-96.1194,29.5866,-94.3945,-18.4021,-141.141,-353.333,20.6299,315.247,0.107758,-0.352417,0.631226,-0.682373,-8241,32025,-3094,-3457,-29331
472554,-67.4085,-2.4835,2.50264,-92.4939,-15.9631,-142.289,302.246,186.89,457.825,0.112427,-0.343384,0.646851,-0.671509,32719,25369,5099,-3490,-29327
472560,-80.7687,-0.497656,36.3624,-91.9226,-13.645,-143.141,58.7769,141.724,428.162,0.137115,-0.303986,0.651031,-0.681793,1999,19993,20715,-3490,-29327
472566,-32.1515,11.3169,28.8497,-89.4177,-10.5084,-143.492,261.169,179.81,179.077,0.15564,-0.294891,0.649078,-0.683685,-2866,20761,27627,-3490,-29327
472572,-47.6554,22.6769,-5.00527,-88.5718,-10.437,-143.855,143.799,64.0259,-29.6021,0.160461,-0.281219,0.644897,-0.6922,-3890,23065,-31765,-3490,-29327
472578,-9.2832,-11.6327,-9.49375,-89.566,-10.426,-143.13,-182.983,-148.499,-39.0625,0.160736,-0.277588,0.640839,-0.697357,1487,26649,-28949,-3490,-29327
472584,19.0449,-42.2194,1.36377,-90.1263,-10.2063,-142.141,-85.8154,-198.059,3.05176,0.16275,-0.28299,0.645081,-0.690765,10191,31001,-29461,-3490,-29327
472590,25.9068,-40.7695,9.57988,-89.3793,-9.53613,-142.037,143.799,-20.6909,95.2148,0.175079,-0.283813,0.643494,-0.688904,31695,-25831,32747,-3490,-29327
472596,-22.4424,3.61758,1.29199,-87.4017,-8.20679,-143.416,90.8813,45.8984,95.7642,0.175446,-0.271393,0.639099,-0.697876,-22833,-22247,32491,-3490,-29327
472602,-1.82793,-2.5457,13.0778,-87.2974,-7.60803,-142.899,25.5127,-98.8159,85.3271,0.179352,-0.265381,0.638031,-0.700134,-10545,-18919,32491,-3490,-29327
472608,2.99551,-10.3312,6.32598,-87.3743,-7.0697,-142.998,-26.123,20.9351,69.6411,0.186188,-0.264587,0.637665,-0.699005,1232,-15591,31467,-3490,-29327
472614,-8.21133,-9.74736,2.59834,-87.0941,-6.5918,-143.152,42.9688,33.3252,57.4341,0.188599,-0.261047,0.639587,-0.697937,13776,-12519,29163,-3490,-29327
472620,-4.67988,-3.17256,-1.29678,-86.9238,-6.14685,-142.998,29.7241,-28.3813,53.1616,0.194946,-0.254852,0.639008,-0.699005,-24368,-4583,23275,-3490,-29327
472626,1.2585,-11.5322,2.20596,-86.8304,-5.22949,-142.938,6.95801,25.7568,56.0913,0.198639,-0.253082,0.639648,-0.698029,-10288,-487,20971,-3490,-29327
472632,-11.7906,-11.4652,0.133984,-86.6766,-4.83398,-143.124,19.3481,40.0391,41.8701,0.200836,-0.249603,0.640411,-0.697937,4561,3866,19691,-3490,-29327
472638,-10.8049,-11.9055,-2.12939,-86.5613,-4.46045,-142.971,19.2871,-26.1841,41.626,0.202301,-0.245972,0.640778,-0.698456,18641,7962,18923,-3490,-29327
472644,-1.13887,-11.4892,0.961816,-86.4404,-4.10339,-142.8,21.3623,-29.2358,39.978,0.205627,-0.244415,0.640594,-0.698212,32209,12058,17387,-3490,-29327
472650,-1.47383,-13.1065,2.72275,-86.3196,-3.73535,-142.806,17.6392,6.65283,40.1611,0.211304,-0.24057,0.640381,-0.698059,-4399,19482,16363,-3490,-29327
472656,-2.01934,-14.8627,1.99541,-86.0229,-3.02673,-142.712,25.4517,-4.21143,40.7715,0.213867,-0.238373,0.640198,-0.698212,9426,23322,16107,-3490,-29327
472662,-3.3209,-13.2262,1.36855,-85.8197,-2.68616,-142.756,35.5835,15.686,36.0718,0.216553,-0.236267,0.639954,-0.698303,22994,27162,16363,-3490,-29327
472668,-6.70879,-14.8914,-0.200977,-85.6494,-2.33459,-142.729,30.7007,2.01416,41.0767,0.218597,-0.233612,0.639526,-0.698944,-29998,31002,17643,-3457,-29331
472674,-5.05312,-16.8485,0.942676,-85.5066,-1.94458,-142.564,26.001,-23.5596,52.1851,0.22113,-0.231323,0.639191,-0.699219,-17710,-31718,18667,-3457,-29331
472680,-5.9623,-17.8056,0.842188,-85.2814,-1.54907,-142.405,43.8843,-22.0947,53.772,0.228302,-0.227661,0.63797,-0.699219,6867,-26342,22507,-3457,-29331
472686,-5.09619,-25.0886,2.91895,-84.7266,-0.714111,-141.938,52.7954,-45.3491,65.0024,0.232208,-0.225616,0.636749,-0.699707,19411,-24294,25323,-3457,-29331
472692,1.42598,-30.8882,14.6569,-84.2596,-0.181274,-141.625,91.4917,-47.3633,89.6606,0.236908,-0.22406,0.635468,-0.699799,31699,-22758,27371,-3457,-29331
472698,4.21572,-14.0827,7.54619,-84.1333,0.604248,-141.658,22.8882,26.8555,134.399,0.242706,-0.221558,0.633148,-0.700714,-20781,-21478,29163,-3457,-29331
472704,0.789551,-19.021,11.0154,-84.3805,1.51611,-141.806,-53.772,53.1006,158.142,0.247101,-0.216278,0.634094,-0.699982,-8237,-19686,29675,-3457,-29331
472710,-3.10557,-25.5336,1.31592,-84.5453,2.4884,-141.91,-35.6445,45.2271,172.852,0.255157,-0.204224,0.64093,-0.694458,19156,-15590,31211,-3457,-29331
472716,-2.14375,-23.5717,1.02881,-84.7211,4.74609,-141.916,-13.4277,23.5596,220.154,0.260712,-0.197693,0.643829,-0.69162,-31276,-11750,31723,-3457,-29331
472722,-1.66523,-20.8729,2.55049,-84.7705,6.03699,-141.91,-12.2681,30.2124,243.286,0.267242,-0.190674,0.646332,-0.688721,-14636,-7654,-31765,-3457,-29331
472728,-1.77529,-19.2985,3.39746,-84.8529,7.38831,-141.938,-18.3105,36.7432,256.287,0.2742,-0.182831,0.649017,-0.685608,4565,-2790,-30741,-3457,-29331
472734,-0.00957031,-19.667,2.52178,-85.0671,8.8385,-141.91,-45.7764,27.8931,278.87,0.281281,-0.17453,0.651947,-0.682129,26581,1819,-29717,-3457,-29331
472740,0.521582,-29.3234,3.78506,-85.3528,10.3931,-141.866,-57.9224,36.8042,300.049,0.29718,-0.157562,0.65979,-0.671875,8150,9499,-27925,-3457,-29331
472746,2.89502,-31.8596,2.93809,-85.6989,13.7659,-141.746,-24.7192,28.8086,343.201,0.305786,-0.148254,0.663605,-0.666351,-29738,14107,-28181,-3457,-29331
472752,3.63672,-31.1227,2.40693,-85.6439,15.6061,-141.663,8.30078,31.5552,364.807,0.31546,-0.138184,0.666687,-0.660919,215,18203,-27669,-3457,-29331
472758,3.09121,-27.4907,2.14375,-85.4681,17.5287,-141.614,34.1797,39.0625,382.874,0.325714,-0.127014,0.668793,-0.656036,-31785,22043,-26389,-3457,-29331
472764,1.46426,-23.2319,1.94756,-85.2374,19.5282,-141.575,45.8984,44.2505,399.353,0.336273,-0.114746,0.670166,-0.65155,-24616,28187,-25109,-3457,-29331
472770,1.07666,-22.1983,0.0382813,-84.7101,23.6426,-141.35,49.4995,23.5596,423.279,0.35788,-0.088501,0.672089,-0.64209,14297,29467,-25109,-3482,-29328
472776,2.77539,-23.3611,3.33047,-84.3146,25.7794,-141.202,70.7397,32.5317,433.289,0.369598,-0.0753479,0.672363,-0.63681,-9511,29467,-27669,-3482,-29328
472782,1.36855,-23.476,3.82334,-83.8257,27.9218,-141.075,90.0269,40.6494,435.608,0.381226,-0.0613098,0.672028,-0.631805,-30758,27931,-32277,-3482,-29328
472788,2.56963,-23.4425,3.38789,-83.2214,30.0696,-140.883,106.506,32.5928,440.613,0.392517,-0.0466919,0.671051,-0.627167,15579,25115,26859,-3474,-29329
472794,6.07236,-19.0162,4.16309,-82.5348,32.2449,-140.696,122.864,39.7949,446.96,0.404022,-0.0318909,0.66925,-0.622681,-17188,13083,8683,-3474,-29329
472800,-7.76152,-14.7335,1.40684,-81.7657,36.5295,-140.663,50.9644,59.5703,432.068,0.424866,-0.000183105,0.665558,-0.613525,30941,5915,-1302,-3474,-29329
472806,0.899609,-19.466,2.97637,-81.2164,38.551,-140.295,69.9463,18.9819,423.279,0.434784,0.013916,0.665009,-0.606995,15326,-4070,-13846,-3474,-29329
472812,1.95234,-16.748,4.40713,-80.7056,40.4846,-140.164,91.7358,57.4951,402.222,0.445435,0.0270386,0.662964,-0.601013,1503,-16358,-27414,-3474,-29329
472818,-3.50752,-17.3271,4.63203,-80.2112,42.3688,-139.988,80.9937,52.7954,393.25,0.454193,0.0409546,0.66095,-0.595856,-11297,-30182,24298,-3474,-29329
472824,0.440234,-20.9207,3.86162,-79.6069,44.2255,-139.62,76.355,28.6865,393.066,0.462738,0.0542297,0.658966,-0.590424,30433,1306,-5143,-3474,-29329
472830,6.40254,-14.1449,1.81836,-78.1567,47.8125,-138.966,112.976,39.3677,375.305,0.480164,0.0797424,0.653473,-0.57959,16098,-17127,-19223,-3474,-29329
472836,7.7376,-6.78535,-0.186621,-77.3767,49.4275,-138.702,122.864,49.0112,347.412,0.487946,0.0926514,0.649994,-0.575073,1763,27929,32489,-3474,-29329
472842,4.29707,-5.10576,-0.468945,-76.7175,50.9326,-138.587,120.544,66.5283,321.289,0.494568,0.105164,0.646423,-0.571289,-12829,4633,18153,-3474,-29329
472848,-0.267969,-8.79512,-1.68438,-76.1133,52.4377,-138.466,107.91,69.2139,322.571,0.499878,0.117279,0.64328,-0.567841,-27676,-20712,3561,-3474,-29329
472854,2.45479,-6.83799,-5.45508,-75.2179,53.8879,-137.994,110.535,28.6255,322.876,0.505096,0.129181,0.640411,-0.563873,5606,-10473,-25624,-3474,-29329
472860,-8.68027,5.94316,-1.16758,-73.7952,55.9589,-137.098,45.166,3.66211,203.003,0.516205,0.149811,0.632904,-0.557159,-14106,27927,25320,-3474,-29329
472866,-3.8042,-4.30664,-0.47373,-73.2623,56.4752,-136.439,4.76074,-31.189,147.156,0.520386,0.155304,0.630676,-0.55426,30695,23,10472,-3474,-29329
472872,-2.44521,-9.01045,-2.81846,-72.8558,56.7609,-135.802,-17.9443,-41.1987,103.149,0.524445,0.157532,0.628967,-0.551758,7400,-29162,-5145,-3474,-29329
472878,-2.0624,-12.0442,-4.10088,-72.3889,56.8433,-134.984,-36.2549,-73.1201,70.6177,0.527802,0.157806,0.62793,-0.549683,-18200,7190,-21017,-3474,-29329
472884,0.339746,-15.1546,-3.99082,-71.8561,56.7828,-134.033,-44.7998,-96.4355,50.1709,0.531311,0.156006,0.626801,-0.548035,-12311,18197,10983,-3482,-29328
472890,0.641211,-18.064,-3.17256,-70.6036,56.4862,-131.907,-44.9829,-124.146,37.6587,0.538666,0.149292,0.624054,-0.545898,18666,-6892,-5402,-3482,-29328
472896,0.947461,-18.5473,-2.16289,-69.8511,56.3049,-130.682,-45.5933,-137.451,41.8701,0.542664,0.145233,0.622253,-0.545105,-18966,-29420,-19994,-3482,-29328
472902,1.29199,-18.7339,-1.42119,-69.0546,56.1237,-129.402,-46.6919,-144.775,46.9971,0.547058,0.140961,0.620117,-0.54425,6123,15380,30950,-3482,-29328
472908,2.11982,-18.8631,-0.913965,-68.2196,55.9589,-128.046,-50.7202,-153.076,55.3589,0.551697,0.136658,0.617798,-0.543274,28395,-3565,16358,-3482,-29328
472914,3.49316,-18.8057,-0.535937,-67.3846,55.816,-126.667,-54.4434,-155.518,63.3545,0.556732,0.132294,0.615326,-0.542023,-1045,28691,-14363,-3482,-29328
472920,4.60811,-18.8009,1.06709,-65.7587,55.5579,-123.909,-58.7158,-154.602,72.2656,0.567291,0.123779,0.610352,-0.538696,12780,13843,-31003,-3482,-29328
472926,4.71816,-18.4898,1.871,-65.0226,55.415,-122.618,-59.3262,-148.804,68.4814,0.572601,0.119629,0.60791,-0.536774,24812,275,19429,-3482,-29328
472932,5.01006,-19.2938,2.6127,-64.3469,55.2393,-121.41,-58.5327,-143.86,60.6079,0.577606,0.11554,0.605621,-0.534912,-30484,-12782,5093,-3482,-29328
472938,5.87139,-20.2221,3.19648,-63.7427,55.0085,-120.317,-52.6733,-137.146,47.9126,0.582245,0.111359,0.603455,-0.533203,-21780,-24558,-9756,-3482,-29328
472944,6.77578,-20.4039,3.87119,-63.2208,54.7119,-119.388,-41.9312,-127.93,29.6021,0.586304,0.107147,0.601379,-0.531982,-7700,18962,26340,-3482,-29328
472950,8.82861,-19.1646,4.10566,-62.4078,53.855,-118.125,-6.5918,-104.492,-20.0195,0.591949,0.0987854,0.597351,-0.53186,-2324,9490,11492,-3482,-29328
472956,10.0632,-18.2171,3.8999,-62.1222,53.2947,-117.845,16.9678,-88.623,-47.3633,0.593262,0.0947571,0.595337,-0.533417,2029,786,-3357,-3482,-29328
472962,10.714,-17.3701,3.2874,-61.9354,52.6575,-117.823,38.8794,-69.1528,-73.5474,0.593353,0.0910034,0.593262,-0.536255,5357,-6895,-17693,-3482,-29328
472968,10.446,-16.3509,2.69404,-61.8146,51.9763,-118.015,58.1665,-51.6968,-93.75,0.592224,0.0875854,0.591278,-0.540253,6893,-13295,-31517,-3482,-29328
472974,10.1206,-15.3651,1.96191,-61.7871,51.2622,-118.394,69.519,-34.1187,-109.802,0.586945,0.0817871,0.587708,-0.550751,7917,-22511,5603,-3482,-29328
472980,9.98184,-12.5036,0.0765625,-61.9739,49.7955,-119.537,75.1343,-6.7749,-129.395,0.58316,0.0791931,0.586273,-0.55661,6637,-25583,-7966,-3482,-29328
472986,9.78086,-9.63252,-1.0958,-62.2321,49.054,-120.295,69.0918,8.30078,-138.306,0.578766,0.0767212,0.585205,-0.562653,4333,-27631,-21790,-3482,-29328
472992,9.02959,-6.72793,-2.33037,-62.644,48.2959,-121.179,55.8472,23.8037,-150.452,0.57373,0.0742188,0.584656,-0.568665,1517,-28911,31202,-3482,-29328
472998,7.75195,-4.95742,-3.34482,-63.2208,47.4884,-122.162,37.1704,34.2407,-164.307,0.567993,0.0714722,0.584839,-0.574554,-2324,-29423,17890,-3482,-29328
473004,6.40732,-4.11523,-4.23486,-63.9404,46.6205,-123.201,14.5264,39.4287,-179.626,0.55481,0.0640259,0.587402,-0.585632,-11284,-26863,-8735,-3465,-29330
473010,3.75156,-4.7373,-5.83311,-65.7367,44.6429,-125.376,-25.1465,42.1753,-214.722,0.547424,0.059021,0.589691,-0.590759,-16916,-23535,-20767,-3465,-29330
473016,2.64619,-5.05312,-6.34512,-66.72,43.4949,-126.436,-41.1987,35.4614,-234.009,0.539612,0.0531006,0.592407,-0.595764,-23316,-18159,-31007,-3465,-29330
473022,1.95234,-5.31152,-6.46475,-67.7307,42.2205,-127.452,-55.481,27.5879,-255.676,0.531403,0.0461426,0.595398,-0.600739,-30996,-10991,26081,-3474,-29329
473028,0.937891,-5.76133,-6.71836,-68.736,40.8197,-128.408,-64.6973,16.9067,-277.71,0.522827,0.0380554,0.598511,-0.605713,26860,-3311,18657,-3474,-29329
473034,0.301465,-6.36904,-6.88105,-69.7083,39.2871,-129.282,-72.3267,4.45557,-299.744,0.504578,0.0187683,0.604523,-0.616028,6636,19986,8161,-3474,-29329
473040,-0.861328,-7.34521,-6.68486,-71.5155,35.8704,-130.759,-80.9937,-21.7285,-339.172,0.494995,0.00762939,0.607147,-0.621429,-5653,-30702,5345,-3474,-29329
473046,-1.43076,-7.55576,-6.54609,-72.356,33.9917,-131.353,-87.8296,-36.0107,-357.117,0.485168,-0.00439453,0.609497,-0.626892,-19477,-12782,2529,-3474,-29329
473052,-1.69873,-7.73281,-6.37861,-73.1635,32.0197,-131.841,-96.0693,-50.354,-373.108,0.475159,-0.0174561,0.611572,-0.632294,29675,6675,481,-3474,-29329
473058,-1.52646,-8.01514,-6.07715,-73.9655,29.9762,-132.237,-105.957,-62.5,-385.071,0.464966,-0.0314636,0.613373,-0.637573,13035,26131,-288,-3474,-29329
473064,-1.17236,-9.34062,-4.64639,-74.7784,27.8888,-132.556,-117.31,-70.4956,-393.86,0.444122,-0.0617676,0.616547,-0.647064,-27926,4884,2529,-3474,-29329
473070,-1.13408,-10.6278,-3.91904,-76.4813,23.6481,-132.979,-144.348,-82.4585,-398.315,0.433533,-0.0777283,0.618103,-0.651031,12522,28692,6625,-3474,-29329
473076,-0.947461,-11.848,-3.2252,-77.3712,21.5387,-133.105,-154.968,-83.8013,-396.973,0.422943,-0.0940247,0.61972,-0.654297,-15127,-11756,12769,-3474,-29329
473082,-0.598145,-12.585,-2.14854,-78.2831,19.4568,-133.176,-163.208,-85.144,-393.188,0.412262,-0.110474,0.621368,-0.656982,19433,14869,19937,-3474,-29329
473088,0.45459,-13.4367,-1.03838,-79.2114,17.3914,-133.209,-170.349,-83.7402,-390.564,0.401581,-0.126892,0.622986,-0.659088,-15128,-23531,29665,-3474,-29329
473094,1.64131,-14.3842,-0.430664,-80.1453,15.3589,-133.253,-171.936,-74.1577,-386.719,0.379791,-0.15918,0.62619,-0.661957,-22809,29718,-13599,-3474,-29329
473100,2.37344,-15.9585,0.234473,-81.9745,11.3928,-133.374,-166.565,-52.4292,-378.662,0.36853,-0.174622,0.627686,-0.663025,1511,-8170,1506,-3474,-29329
473106,1.75615,-16.0398,0.531152,-82.8589,9.46472,-133.462,-163.757,-41.1377,-373.474,0.357025,-0.189423,0.628998,-0.664001,23270,19479,18146,-3474,-29329
473112,1.39248,-16.236,0.90918,-83.7433,7.60254,-133.561,-164.856,-30.0903,-363.464,0.345306,-0.203613,0.630219,-0.664825,-23067,-18921,-29982,-3474,-29329
473118,0.923535,-16.5901,1.60781,-84.6387,5.81177,-133.704,-168.091,-14.3433,-350.342,0.333557,-0.217163,0.6315,-0.665344,-5660,7192,-10270,-3474,-29329
473124,-0.641211,-17.1213,2.15332,-85.5505,4.0979,-133.885,-171.875,2.68555,-337.28,0.321655,-0.229828,0.632996,-0.665527,28387,-10472,28643,-3449,-29332
473130,-5.2876,-13.8722,4.87607,-87.3633,0.785522,-134.374,-177.002,34.9731,-330.139,0.297455,-0.252625,0.636566,-0.6651,-22814,11545,-17437,-3449,-29332
473136,-7.55576,-12.8051,5.91445,-88.3026,-0.922852,-134.687,-184.509,49.3164,-344.055,0.284729,-0.263153,0.63855,-0.664703,-9503,32025,3300,-3449,-29332
473142,-9.30713,-13.1257,6.05322,-89.2255,-2.7356,-135.022,-185.547,59.6924,-364.868,0.271149,-0.273651,0.640533,-0.664246,2017,-14311,25316,-3449,-29332
473148,-11.3791,-13.6712,6.31641,-90.1044,-4.6582,-135.368,-179.688,67.3828,-388.672,0.256653,-0.284241,0.642212,-0.66391,13024,3354,-15644,-3449,-29332
473154,-13.6712,-14.3124,6.80928,-90.9119,-6.67419,-135.72,-170.41,73.5474,-408.813,0.225433,-0.305939,0.643646,-0.664215,-31010,32282,-24859,-3449,-29332
473160,-20.3991,-15.7479,8.40752,-92.2906,-10.8105,-136.412,-145.203,81.665,-425.659,0.209198,-0.316711,0.643311,-0.664825,-20771,-21734,4582,-3449,-29332
473166,-24.3134,-16.303,9.72344,-92.8619,-12.8265,-136.752,-133.484,84.6558,-416.931,0.192932,-0.327148,0.642334,-0.665619,-12324,-13030,-32026,-3449,-29332
473172,-28.5387,-16.3222,11.2499,-93.3673,-14.7327,-137.126,-126.099,91.3696,-396.484,0.177063,-0.336884,0.64093,-0.666504,-6181,-6118,-4890,-3449,-29332
473178,-33.2855,-16.4179,11.7284,-93.8562,-16.4685,-137.516,-126.465,95.1538,-366.699,0.161774,-0.345551,0.639496,-0.667328,-1318,-2534,20455,-3449,-29332
473184,-37.6448,-16.7624,11.092,-94.3286,-18.0176,-137.906,-126.16,92.8955,-331.055,0.133942,-0.359436,0.637665,-0.667908,8409,-2022,2536,-3449,-29332
473190,-45.2819,-16.4657,7.67061,-95.202,-20.5115,-138.615,-118.53,78.3691,-257.141,0.121918,-0.364685,0.63736,-0.667664,14552,-5350,24552,-3449,-29332
473196,-48.086,-15.3221,6.67051,-95.5975,-21.4673,-138.9,-109.924,65.6738,-221.191,0.111389,-0.369049,0.63736,-0.667114,20695,-12262,-19480,-3449,-29332
473202,-49.8709,-13.14,6.58437,-95.9766,-22.2473,-139.12,-102.966,51.4526,-190.125,0.102448,-0.37262,0.637604,-0.666351,26582,-20966,1001,-3449,-29332
473208,-49.6077,-10.7427,6.57959,-96.3666,-22.879,-139.263,-100.83,33.8745,-162.415,0.0949402,-0.37558,0.638031,-0.665375,-31531,-31206,20457,-3449,-29332
473214,-47.4592,-9.53203,6.76143,-96.7566,-23.3679,-139.362,-96.6187,22.2168,-137.207,0.0838623,-0.380341,0.639771,-0.662506,-12077,10266,-9751,-3449,-29332
473220,-43.7363,-8.1874,6.92891,-97.3499,-23.9557,-139.526,-71.228,13.0615,-86.853,0.0799561,-0.381836,0.640808,-0.661102,3027,-1511,6634,-3449,-29332
473226,-41.3246,-7.21602,7.08203,-97.5311,-24.0381,-139.62,-57.4951,11.7798,-58.4717,0.0771484,-0.38266,0.641846,-0.659943,20178,-13543,21994,-3449,-29332
473232,-38.6736,-5.6082,6.91455,-97.6465,-23.9667,-139.746,-46.5698,12.3901,-28.4424,0.07547,-0.382629,0.642975,-0.659058,-24879,-25831,-28694,-3449,-29332
473238,-42.9037,-35.4676,19.0449,-97.8497,-23.5162,-139.861,-63.3545,0.183105,47.4243,0.0748291,-0.381683,0.644257,-0.658417,-2096,27161,-14358,-3449,-29332
473244,-40.2384,-21.1265,6.08193,-97.4432,-22.7582,-139.894,64.8804,-21.9116,106.567,0.0823975,-0.374878,0.64743,-0.658325,-11569,3353,12779,-3490,-29327
473250,-32.0605,-2.83281,15.8341,-96.1029,-20.7422,-140.175,100.22,-0.793457,178.955,0.0899963,-0.369293,0.646545,-0.661346,21711,-6888,24299,-3490,-29327
473256,-55.4265,-70.3801,10.3312,-96.9269,-18.9734,-140.334,-189.941,-17.4561,312.012,0.0980225,-0.362305,0.64682,-0.663788,-5426,-15848,-32021,-3490,-29327
473262,-65.4705,-33.788,3.17256,-95.0372,-16.7981,-140.499,355.835,-18.3716,395.02,0.105774,-0.353302,0.65741,-0.657043,-27442,-23528,-24341,-3490,-29327
473268,-60.4844,14.054,23.8444,-93.4277,-14.1779,-140.652,301.27,-16.4185,483.276,0.124298,-0.339355,0.65332,-0.665161,21454,-28648,-17685,-3490,-29327
473274,-9.35977,-1.05273,25.4331,-92.6477,-11.8323,-139.922,175.232,-173.279,420.166,0.165283,-0.313385,0.651459,-0.670807,6862,-31464,-12309,-3490,-29327
473280,-59.9819,19.2172,-0.177051,-89.5825,-10.0854,-142.701,244.934,265.076,-30.3955,0.171509,-0.293915,0.650665,-0.678772,9678,-28136,-13333,-3490,-29327
473286,-36.6495,-2.01934,-39.2191,-90.0934,-9.99207,-142.037,-91.2476,-139.465,-22.8882,0.167297,-0.283508,0.644989,-0.689575,15310,-24040,-15381,-3490,-29327
473292,15.2407,-41.071,5.28281,-90.6152,-9.7998,-140.768,-71.228,-255.92,-3.84521,0.170593,-0.287476,0.646637,-0.685577,25550,-18152,-20245,-3490,-29327
473298,32.4051,-42.6214,13.1975,-89.9396,-9.26697,-140.433,135.193,-71.0449,68.2983,0.177979,-0.294342,0.647003,-0.68042,-26674,-12008,-24853,-3490,-29327
473304,-24.1794,6.41689,-6.25898,-88.5004,-8.63525,-141.658,238.159,238.831,86.5479,0.184875,-0.279419,0.639526,-0.691864,1487,-1256,-32021,-3490,-29327
473310,-3.49316,-3.68936,17.4419,-87.7698,-7.40479,-141.411,32.1655,-133.789,90.0879,0.187408,-0.272491,0.638397,-0.694946,15311,3097,30699,-3490,-29327
473316,8.74727,-10.8575,7.82852,-87.9071,-6.88843,-141.465,-39.978,9.21631,66.5283,0.195343,-0.272491,0.637512,-0.693573,27855,7705,26347,-3490,-29327
473322,-6.90498,-13.0874,1.19629,-87.7203,-6.38306,-141.762,19.9585,58.5327,63.1714,0.197693,-0.26944,0.639709,-0.692078,-24881,12313,21483,-3490,-29327
473328,-8.94824,-5.00527,-4.6751,-87.4677,-5.88318,-141.658,42.7856,-20.9961,65.979,0.19928,-0.264496,0.640472,-0.69281,-11057,16921,15083,-3490,-29327
473334,4.56025,-5.95273,6.13457,-87.3578,-5.42175,-141.416,15.8691,-47.2412,59.3872,0.207764,-0.260162,0.639801,-0.692596,18896,26393,4587,-3490,-29327
473340,-10.6422,-7.46963,0.636426,-87.1545,-4.55933,-141.735,-2.19727,56.0913,39.1846,0.210663,-0.256866,0.640167,-0.692596,-31536,30489,747,-3490,-29327
473346,-13.0587,-12.3266,-1.87578,-87.0721,-4.19128,-141.592,10.1929,-28.1372,40.4663,0.211304,-0.25296,0.641296,-0.69281,-16176,-31207,-1814,-3490,-29327
473352,-2.31123,-11.1542,0.430664,-86.9513,-3.82874,-141.372,18.9819,-42.1753,41.687,0.214447,-0.251465,0.641296,-0.692383,-1328,-27623,-3862,-3490,-29327
473358,-1.85664,-11.537,4.34971,-86.7975,-3.50464,-141.372,21.7896,1.40381,33.2642,0.218109,-0.250305,0.6409,-0.692017,13777,-24551,-4374,-3457,-29331
473364,-2.79932,-14.5612,2.0002,-86.7041,-3.19702,-141.361,10.498,0.305176,30.0903,0.222351,-0.246124,0.640869,-0.69223,-22319,-18407,-3094,-3457,-29331
473370,-4.89522,-14.2167,0.334961,-86.4899,-2.57629,-141.389,24.5361,14.5874,31.25,0.224396,-0.244354,0.641174,-0.691895,-7983,-15591,-790,-3457,-29331
473376,-7.84287,-12.5706,-1.78008,-86.2976,-2.26318,-141.4,32.4707,5.7373,32.2876,0.226166,-0.241882,0.641022,-0.692352,5586,-12263,1003,-3457,-29331
473382,-6.3834,-15.724,1.40684,-86.1548,-1.9281,-141.301,23.6206,-15.1978,39.6729,0.228271,-0.239594,0.640533,-0.692871,18130,-9191,2795,-3457,-29331
473388,-2.67969,-14.2598,1.36377,-85.9406,-1.57654,-141.207,38.0249,-14.0991,43.396,0.231079,-0.237823,0.640228,-0.692841,30674,-6631,5611,-3457,-29331
473394,-4.66074,-14.767,3.78984,-85.7043,-1.24695,-141.103,41.626,-24.292,47.3022,0.237061,-0.233917,0.638611,-0.693665,-10030,-2535,13035,-3457,-29331
473400,-4.00518,-23.3707,2.28252,-85.2704,-0.499878,-140.795,36.9873,-22.522,54.9927,0.240448,-0.232147,0.637695,-0.693909,2771,-487,16363,-3457,-29331
473406,-0.512012,-33.6301,11.7858,-84.9298,-0.0384521,-140.554,64.5752,-39.1235,73.1812,0.243958,-0.230225,0.636993,-0.69397,15315,2330,18155,-3457,-29331
473412,4.75166,-18.9636,6.76143,-84.6002,0.598755,-140.499,61.9507,3.2959,107.666,0.248688,-0.228058,0.635437,-0.694458,27603,4634,19947,-3457,-29331
473418,3.28262,-14.8101,7.84287,-84.7211,1.38977,-140.68,-28.9307,53.4668,134.277,0.253235,-0.223724,0.634705,-0.694885,-25901,6938,19691,-3457,-29331
473424,-3.10557,-28.6727,3.62715,-84.8969,2.26318,-140.889,-34.4238,59.4482,175.232,0.259491,-0.212067,0.640747,-0.690674,724,10778,20971,-3457,-29331
473430,-3.53145,-28.6439,3.10078,-85.1001,4.35608,-141.152,-12.5732,36.9263,206.604,0.263397,-0.205353,0.644012,-0.688171,15572,12570,21483,-3457,-29331
473436,-1.06709,-22.452,0.741699,-85.1221,5.58655,-141.207,-7.62939,35.6445,230.469,0.269043,-0.198242,0.646576,-0.685669,31956,15386,21739,-3457,-29331
473442,-0.717773,-18.241,0.574219,-85.199,6.91589,-141.284,-17.395,43.0298,252.502,0.275391,-0.190491,0.649139,-0.682922,-15660,18458,21483,-3457,-29331
473448,-1.47383,-18.3128,2.21074,-85.3528,8.30566,-141.372,-31.6162,45.8374,265.625,0.282043,-0.182007,0.652161,-0.679626,2005,22042,22763,-3457,-29331
473454,2.46914,-27.0122,7.06289,-85.5945,9.78333,-141.4,-58.2886,39.6729,302.429,0.296295,-0.164642,0.659546,-0.670807,-21547,29466,25323,-3457,-29331
473460,3.61758,-31.0987,4.63682,-86.0999,13.0078,-141.372,-42.9077,40.5884,327.332,0.304352,-0.155853,0.663696,-0.665192,3798,-31718,26603,-3457,-29331
473466,3.76592,-31.4624,2.11982,-86.1493,14.7821,-141.356,-10.376,40.0391,350.22,0.31308,-0.146149,0.667419,-0.659576,32726,-27110,27627,-3457,-29331
473472,2.40693,-29.0794,0.899609,-86.0339,16.6388,-141.378,25.2686,49.1943,368.469,0.322571,-0.135376,0.670197,-0.65448,-1066,-23526,28651,-3457,-29331
473478,-0.961816,-24.8254,0.0430664,-85.8197,18.5779,-141.422,45.8374,54.3823,386.536,0.332367,-0.123352,0.672028,-0.650085,-809,-17894,30443,-3474,-29329
473484,1.68438,-22.6673,-1.55039,-85.2759,22.5934,-141.191,51.9409,15.1367,412.354,0.353149,-0.0974426,0.674164,-0.641235,-29736,-16102,30443,-3474,-29329
473490,4.10566,-24.2655,1.17715,-84.8474,24.6588,-141.048,78.064,27.9541,418.762,0.364807,-0.0847168,0.674377,-0.636261,9689,-14822,29163,-3474,-29329
473496,0.77041,-25.5767,1.69395,-84.3256,26.7297,-140.977,101.99,43.9453,421.021,0.376221,-0.071106,0.673859,-0.631836,-14119,-13798,25579,-3474,-29329
473502,1.51689,-26.1939,1.54082,-83.6499,28.8281,-140.762,119.385,23.6816,430.176,0.387085,-0.0565796,0.67276,-0.627899,30682,-14310,20459,-3474,-29329
473508,5.08662,-21.2796,1.78008,-82.8864,30.9595,-140.559,137.207,32.1045,438.904,0.398651,-0.0420837,0.670624,-0.624054,-7461,-19942,5099,-3474,-29329
473514,-10.5991,-14.9728,0.105273,-81.936,35.1233,-140.477,64.209,48.9502,419.678,0.419586,-0.0106506,0.666199,-0.616394,-25892,-25830,-5398,-3474,-29329
473520,0.564648,-19.4469,0.808691,-81.3208,37.0789,-139.955,67.9321,-10.437,412.842,0.429535,0.00308228,0.665283,-0.610535,23005,32026,-15638,-3474,-29329
473526,4.3832,-16.059,2.6749,-80.7111,38.963,-139.713,97.7173,36.3159,394.592,0.440857,0.0151062,0.662994,-0.604767,6622,22298,-27926,-3474,-29329
473532,-1.94277,-15.2312,3.88555,-80.1892,40.8032,-139.499,83.8013,43.8843,384.949,0.450134,0.0283813,0.660645,-0.600037,-7970,10266,23274,-3474,-29329
473538,0.0287109,-18.3032,2.13896,-79.6179,42.5995,-139.092,67.3828,18.4326,381.958,0.458801,0.0412292,0.65863,-0.59491,28384,-16615,-5143,-3474,-29329
473544,5.22061,-13.7717,-1.26328,-78.3051,46.0822,-138.329,90.5762,27.4658,368.103,0.476624,0.0650024,0.65387,-0.583893,13281,-32231,-21783,-3474,-29329
473550,5.48379,-9.54639,-0.162695,-77.58,47.6862,-137.939,95.459,27.71,347.778,0.484741,0.0769958,0.65097,-0.578979,-2335,15385,27881,-3474,-29329
473556,-0.301465,-11.9246,1.58389,-77.0361,49.3121,-137.719,83.8013,55.481,348.328,0.492188,0.0884399,0.647888,-0.574493,-18206,-4840,12009,-3474,-29329
473562,1.1293,-16.9347,-1.47383,-76.333,50.9271,-137.263,78.186,28.9917,352.539,0.498749,0.100311,0.645569,-0.569489,30947,-26856,-3864,-3474,-29329
473568,4.4502,-10.4699,0.30625,-75.4486,52.4872,-136.78,107.91,28.6255,344.91,0.512787,0.123077,0.639008,-0.559875,-4380,-9449,29416,-3474,-29329
473574,-6.76143,-3.51709,1.90928,-74.4983,54.7614,-136.368,42.6025,25.8179,222.595,0.516968,0.133575,0.636658,-0.556274,-24859,31255,13544,-3474,-29329
473580,-0.617285,-9.51289,-0.0287109,-74.1962,55.4755,-136.104,24.0479,19.104,173.279,0.521057,0.140167,0.634979,-0.552734,18918,5399,-2329,-3474,-29329
473586,-1.6126,-11.4222,-1.62695,-74.0039,55.9918,-135.939,17.7612,19.165,132.751,0.5242,0.144806,0.633881,-0.549805,-3354,-21994,-17945,-3474,-29329
473592,-1.44512,-13.1927,-2.09111,-73.7347,56.3599,-135.61,6.7749,-6.40869,108.887,0.526367,0.148163,0.633209,-0.547638,-26905,15894,-32281,-3482,-29328
473598,-0.851758,-16.1451,-2.01934,-73.4436,56.6345,-135.192,-4.27246,-21.3013,95.0928,0.531128,0.150909,0.631531,-0.54422,-14872,28181,6631,-3482,-29328
473604,-2.14375,-19.7818,-2.51221,-72.5647,57.1289,-133.907,-14.8926,-58.1055,100.281,0.533936,0.151276,0.630524,-0.542511,19433,3861,-5146,-3482,-29328
473610,-2.18203,-19.222,-2.95244,-71.911,57.3926,-132.962,-20.813,-77.2095,111.023,0.537506,0.151215,0.62912,-0.54068,-14871,-19436,-17178,-3482,-29328
473616,-2.08633,-18.6047,-2.90937,-71.1145,57.6672,-131.803,-28.6255,-97.168,122.375,0.541809,0.150879,0.627319,-0.538544,13290,23572,-29466,-3482,-29328
473622,-1.50732,-17.6046,-3.17256,-70.1642,57.9474,-130.413,-38.6963,-119.507,132.446,0.546967,0.150177,0.625183,-0.536011,-26390,2580,24550,-3482,-29328
473628,-0.588574,-17.1356,-3.49316,-69.082,58.2056,-128.82,-46.5088,-139.282,137.634,0.55957,0.147339,0.619843,-0.529968,18667,27923,-283,-3482,-29328
473634,1.15801,-16.5184,-2.20596,-66.5771,58.5516,-125.167,-55.0537,-172.852,133.789,0.56665,0.145142,0.616669,-0.526764,-27413,9235,-12571,-3482,-29328
473640,2.21553,-16.0973,-1.05752,-65.2423,58.5901,-123.212,-59.1431,-185.364,123.108,0.573975,0.142395,0.61319,-0.523621,-9749,-8430,-24603,-3482,-29328
473646,3.86641,-15.4417,0.77041,-63.9349,58.5077,-121.262,-64.3311,-194.214,105.774,0.581299,0.138977,0.609528,-0.520691,6380,-25838,28645,-3482,-29328
473652,6.13457,-14.2598,2.43564,-62.7374,58.2935,-119.41,-68.8477,-196.96,81.9092,0.58844,0.134735,0.605865,-0.518066,20716,23058,15077,-3482,-29328
473658,8.76162,-13.5803,3.79463,-61.7267,57.9309,-117.773,-69.8853,-192.017,51.6357,0.600739,0.123962,0.59906,-0.514557,-19988,-8431,-16412,-3482,-29328
473664,13.3937,-14.298,5.33545,-60.3864,56.8268,-115.45,-49.3774,-159.546,-17.1509,0.605194,0.117828,0.59613,-0.514191,-10772,-21999,32228,-3482,-29328
473670,14.5947,-15.7192,5.56035,-60.0403,56.1237,-114.851,-26.001,-134.155,-50.4761,0.608215,0.111542,0.593567,-0.514954,-2836,31505,16356,-3482,-29328
473676,15.0493,-17.0734,5.546,-59.8425,55.3711,-114.609,3.2959,-107.117,-78.0029,0.60965,0.105591,0.591309,-0.51712,3309,19985,228,-3482,-29328
473682,14.6474,-17.016,5.07705,-59.7656,54.5856,-114.686,31.6772,-79.5288,-99.7925,0.609558,0.100281,0.589203,-0.52066,7405,10257,-15389,-3482,-29328
473688,14.5947,-12.8386,3.18691,-59.7711,53.7891,-115.021,57.7393,-55.7861,-117.676,0.605408,0.0921021,0.585449,-0.531128,9965,-4592,17891,-3482,-29328
473694,14.7335,-9.61338,1.96191,-60.0732,52.1906,-116.351,83.9233,-6.53076,-143.555,0.601746,0.0890503,0.583832,-0.537598,7917,-9200,2531,-3482,-29328
473700,14.1641,-6.24463,0.516797,-60.4688,51.405,-117.35,81.665,19.165,-154.663,0.596985,0.0865173,0.582733,-0.544464,5101,-12528,-12062,-3482,-29328
473706,12.7716,-3.29219,-1.16758,-61.073,50.625,-118.537,67.749,42.7246,-166.443,0.591248,0.084198,0.582367,-0.551422,2285,-14576,-25118,-3474,-29329
473712,11.0298,-1.12451,-2.87109,-61.897,49.812,-119.855,43.7622,59.7534,-179.626,0.584595,0.0817871,0.582977,-0.558197,-1044,-15600,28386,-3474,-29329
473718,7.01025,0.248828,-6.74707,-62.9132,48.9496,-121.273,17.334,71.4722,-195.19,0.569092,0.0751038,0.587219,-0.570587,-10260,-14064,5858,-3474,-29329
473724,4.75645,0.0717773,-7.93857,-65.3632,46.9501,-124.189,-33.8135,74.3408,-232.483,0.560455,0.0704041,0.590607,-0.576172,-16660,-10992,-5663,-3474,-29329
473730,2.82324,-0.440234,-8.57979,-66.676,45.7471,-125.563,-56.7627,61.5234,-254.395,0.551361,0.0644836,0.594574,-0.581543,-23572,-6896,-15647,-3474,-29329
473736,2.03848,-1.58389,-8.74727,-67.9944,44.3903,-126.832,-74.8901,47.0581,-277.283,0.541992,0.0571289,0.598816,-0.586761,-30228,-2288,-24095,-3474,-29329
473742,0.736914,-3.33525,-8.64678,-69.2743,42.8796,-127.974,-88.3179,29.8462,-301.331,0.53241,0.0484009,0.603149,-0.591888,28140,4369,-31007,-3474,-29329
473748,-0.090918,-6.55566,-7.94336,-70.4663,41.2317,-128.958,-96.0083,8.54492,-321.838,0.512665,0.0268555,0.611176,-0.602325,9452,25617,26593,-3474,-29329
473754,-0.215332,-7.75195,-7.31172,-72.5427,37.5403,-130.446,-101.135,-33.2642,-359.192,0.502686,0.0143433,0.614532,-0.607727,-2069,-25071,25825,-3474,-29329
473760,-0.267969,-7.95772,-6.39775,-73.4381,35.5463,-130.974,-103.149,-50.1709,-372.437,0.492706,0.000762939,0.617279,-0.613251,-15893,-7151,26849,-3474,-29329
473766,-0.401953,-7.80938,-5.76611,-74.2786,33.4863,-131.38,-107.971,-64.3921,-382.568,0.482727,-0.0135803,0.619537,-0.618744,-32277,13586,29153,-3474,-29329
473772,-0.129199,-8.04385,-4.84258,-75.0916,31.355,-131.66,-118.469,-80.5054,-393.127,0.472748,-0.028717,0.621399,-0.624054,16619,-31982,32737,-3474,-29329
473778,0.311035,-8.67549,-3.82812,-75.91,29.1907,-131.858,-129.517,-89.9658,-399.536,0.452698,-0.0613403,0.624451,-0.633423,-25366,14355,-23839,-3474,-29329
473784,1.68438,-10.9532,-1.86621,-77.58,24.7906,-132.045,-148.56,-99.8535,-407.593,0.442535,-0.0784302,0.625793,-0.63739,14058,-25325,-17695,-3474,-29329
473790,2.62227,-12.0873,-0.727344,-78.4424,22.5824,-132.083,-155.212,-97.9614,-409.729,0.43222,-0.0957642,0.627045,-0.640869,-15383,1812,-10783,-3474,-29329
473796,3.44053,-13.6138,0.13877,-79.3213,20.3796,-132.116,-160.156,-91.4307,-410.645,0.4216,-0.113159,0.628235,-0.643951,16873,30740,-3615,-3474,-29329
473802,4.05781,-14.8914,0.890039,-80.2002,18.1989,-132.16,-161.56,-81.4819,-409.546,0.410645,-0.130402,0.629364,-0.646637,-16152,-6892,3810,-3474,-29329
473808,4.59854,-15.7767,1.4834,-81.0791,16.051,-132.237,-159.851,-67.688,-406.494,0.387604,-0.163513,0.631439,-0.651306,-26905,-14315,24802,-3474,-29329
473814,2.86631,-18.5521,1.27285,-82.7875,11.9147,-132.517,-151.001,-33.2031,-390.442,0.375458,-0.178955,0.632446,-0.653381,-3354,14870,-27166,-3474,-29329
473820,0.784766,-18.7339,0.803906,-83.5895,9.9646,-132.704,-144.653,-19.8975,-375.549,0.363159,-0.193451,0.633331,-0.655334,17638,-21482,-11294,-3474,-29329
473826,-1.14844,-17.7816,0.45459,-84.375,8.10791,-132.885,-144.043,-11.3525,-359.192,0.350922,-0.20697,0.634155,-0.657074,-28699,7703,4835,-3457,-29331
473832,-1.82314,-16.2839,0.411523,-85.188,6.33911,-133.061,-150.879,-4.27246,-343.811,0.338898,-0.219666,0.634979,-0.658447,-11036,-29673,22755,-3457,-29331
473838,-2.82324,-15.6092,0.129199,-86.0449,4.62524,-133.248,-161.926,5.7373,-334.595,0.315063,-0.243347,0.637482,-0.659546,25059,20760,-6685,-3457,-29331
473844,-5.35938,-16.504,1.91885,-87.8412,1.29639,-133.605,-174.5,18.1885,-327.332,0.30307,-0.254669,0.63913,-0.659332,-24606,-22760,13796,-3457,-29331
473850,-7.19209,-16.0446,3.96211,-88.7476,-0.384521,-133.792,-178.101,25.9399,-334.351,0.290863,-0.265686,0.640747,-0.658875,-10527,-2280,-31004,-3457,-29331
473856,-8.7042,-15.9441,5.21104,-89.6484,-2.15332,-133.984,-178.955,33.2642,-352.905,0.278259,-0.276611,0.642303,-0.658325,3297,17177,-10012,-3457,-29331
473862,-10.5082,-16.2647,5.86182,-90.4999,-4.02649,-134.182,-172.302,41.0156,-376.16,0.264954,-0.28775,0.643524,-0.657867,16096,-30183,12261,-3457,-29331
473868,-13.1065,-16.4657,6.49346,-91.2799,-6.00403,-134.39,-160.522,48.645,-399.536,0.236023,-0.310455,0.643951,-0.658112,-21282,1306,-6683,-3457,-29331
473874,-19.3416,-18.2314,8.52236,-92.6312,-10.1239,-134.802,-139.221,56.3354,-423.096,0.220764,-0.321869,0.643066,-0.658813,-9763,14106,20710,-3457,-29331
473880,-22.5812,-19.0928,9.51289,-93.2025,-12.1509,-134.995,-126.587,58.5327,-417.236,0.205383,-0.333069,0.641571,-0.659637,221,24346,-16922,-3457,-29331
473886,-26.4858,-18.7961,10.623,-93.6914,-14.09,-135.203,-113.892,62.5,-402.527,0.190369,-0.343689,0.639648,-0.660583,8412,32538,10983,-3457,-29331
473892,-30.4671,-17.7625,11.2116,-94.1364,-15.9082,-135.406,-107.056,63.2324,-382.202,0.175873,-0.353424,0.63739,-0.661621,15067,-27110,-26905,-3457,-29331
473898,-33.8406,-17.1644,10.8097,-94.5593,-17.5946,-135.599,-104.492,60.9131,-358.215,0.1492,-0.370361,0.632996,-0.663147,26329,-21990,22760,-3457,-29331
473904,-40.8413,-16.9299,8.32139,-95.3503,-20.5334,-135.901,-95.459,46.2646,-305.969,0.137299,-0.377686,0.631042,-0.663483,31192,-23270,-19480,-3457,-29331
473910,-44.3775,-16.2265,7.40742,-95.7019,-21.7584,-135.983,-87.1582,35.3394,-276.55,0.126556,-0.384308,0.629211,-0.663513,-30505,-27110,1001,-3457,-29331
473916,-47.6123,-14.8627,7.05332,-96.0425,-22.8021,-136.005,-79.4678,21.3013,-244.141,0.117157,-0.390228,0.627563,-0.663361,-26410,32026,20457,-3457,-29331
473922,-48.8756,-13.0252,7.3835,-96.3831,-23.6481,-135.95,-74.8291,2.50244,-208.191,0.109253,-0.395508,0.626129,-0.662933,-21035,23066,-26391,-3457,-29331
473928,-46.5117,-9.37412,8.19219,-96.7291,-24.2853,-135.846,-72.5098,-9.70459,-168.579,0.0983887,-0.404114,0.624573,-0.660919,-2861,794,5610,-3457,-29331
473934,-44.5689,-7.41699,8.76641,-97.3718,-24.8895,-135.676,-67.3828,-14.9536,-82.3975,0.0950928,-0.40686,0.624725,-0.659546,9683,-12007,22506,-3457,-29331
473940,-45.0092,-15.7527,1.01445,-97.7673,-24.8401,-135.659,-90.0879,-10.7422,-34.1187,0.0932312,-0.408417,0.62558,-0.658081,24530,-25575,-26390,-3482,-29328
473946,-45.7317,-33.9076,22.0404,-97.9102,-24.3622,-135.665,-41.9312,-19.165,51.5137,0.0922241,-0.4086,0.62796,-0.655823,-23855,26649,-11030,-3482,-29328
473952,-41.3007,-19.978,18.8344,-97.652,-23.4778,-135.648,39.1846,-33.6914,132.08,0.0947571,-0.406464,0.630432,-0.654419,-3632,13593,3563,-3482,-29328
473958,-36.0274,4.31143,15.8676,-97.1027,-22.4011,-135.857,79.1016,3.17383,175.11,0.109009,-0.395416,0.633057,-0.656433,-14385,-9960,27883,-3482,-29328
473964,-60.7093,-89.0326,57.1539,-97.5861,-18.9624,-136.313,-225.952,-34.2407,399.658,0.116882,-0.387238,0.635223,-0.657837,19919,-19944,-27157,-3482,-29328
473970,-61.2691,-4.75166,5.70869,-95.1581,-16.4191,-137.307,408.875,125.427,486.328,0.126678,-0.376801,0.648376,-0.6492,-5682,-27624,-17173,-3482,-29328
473976,-59.7044,15.1211,20.4565,-94.0155,-13.8098,-138.126,169.617,108.276,493.53,0.144775,-0.355652,0.645447,-0.660187,-24370,-32488,-8725,-3482,-29328
473982,-19.7196,-11.4413,14.7191,-93.0762,-11.3544,-138.137,171.021,-34.729,450.806,0.159729,-0.335999,0.648895,-0.663635,29390,31512,-1813,-3482,-29328
473988,-69.8298,35.1326,-19.9206,-90.8844,-10.3821,-140.076,349.243,365.784,168.945,0.177917,-0.30191,0.645264,-0.678741,28622,-27112,6124,-3482,-29328
473994,-19.1454,-18.9396,-12.9869,-91.2854,-10.4315,-139.323,-205.994,-274.414,-68.9697,0.176819,-0.296875,0.642273,-0.684082,-30514,-21480,6380,-3482,-29328
474000,34.4148,-46.5979,16.8438,-91.9116,-10.1294,-137.543,-73.9746,-356.689,9.82666,0.181,-0.307037,0.645538,-0.675354,-19506,-14824,4332,-3482,-29328
474006,39.0708,-32.2328,14.8579,-91.0931,-9.63501,-138.104,130.493,102.661,64.6973,0.191528,-0.316437,0.645172,-0.668457,-5938,-7912,1260,-3482,-29328
474012,-4.05303,-7.36914,-11.0394,-89.9615,-9.01978,-139.499,169.128,271.179,88.623,0.193481,-0.309235,0.643219,-0.673126,7887,-1512,-2325,-3482,-29328
474018,0.885254,5.53643,12.2069,-89.0332,-8.34961,-139.521,172.058,-0.183105,96.5576,0.19809,-0.290619,0.638092,-0.684845,-32049,10521,-8981,-3482,-29328
474024,1.12451,-9.2832,5.71826,-89.3683,-7.28394,-139.34,-79.1016,35.8276,58.5327,0.203735,-0.289429,0.638855,-0.682983,-19249,16153,-12309,-3482,-29328
474030,-9.55596,-14.1641,-3.12949,-89.231,-6.79504,-139.532,9.82666,34.9731,61.5845,0.204559,-0.286163,0.642334,-0.680847,-6705,21529,-15381,-3482,-29328
474036,-10.4508,-5.92881,-8.26396,-89.0112,-6.41602,-139.488,33.4473,-10.437,40.5884,0.206635,-0.282074,0.643219,-0.681091,6352,26649,-17173,-3482,-29328
474042,1.97627,-6.01016,4.254,-88.8684,-5.99854,-139.158,24.353,-67.0166,49.1333,0.209656,-0.279724,0.642761,-0.68158,20432,31513,-18453,-3482,-29328
474048,-13.3506,-13.14,1.97148,-88.775,-5.59204,-139.274,4.27246,20.752,46.2646,0.216339,-0.275787,0.642853,-0.681,-16176,-24807,-20501,-3482,-29328
474054,-11.2355,-12.8577,-5.01484,-88.6487,-4.91638,-139.345,12.5732,-38.5132,36.9263,0.216736,-0.2724,0.644073,-0.681091,-1584,-20711,-21525,-3482,-29328
474060,-0.952246,-13.9248,2.93809,-88.5168,-4.59229,-139.147,19.6533,-38.6353,33.02,0.220123,-0.271271,0.64389,-0.680603,12241,-17127,-22293,-3465,-29330
474066,-1.0958,-12.3792,3.4501,-88.3521,-4.29016,-139.169,23.0103,5.18799,27.4048,0.223511,-0.270233,0.643463,-0.680359,26577,-13543,-22037,-3465,-29330
474072,-3.97168,-13.1735,-0.75127,-88.2587,-3.98254,-139.164,9.76562,0.427246,30.4565,0.225494,-0.268066,0.64325,-0.680756,-24367,-10727,-19989,-3465,-29330
474078,-5.97666,-12.9151,-1.54561,-88.1213,-3.66394,-139.169,19.3481,3.72314,32.4707,0.229645,-0.263977,0.643402,-0.680817,3538,-4327,-13845,-3465,-29330
474084,-6.92412,-13.2692,2.23467,-87.5226,-3.02673,-139.125,51.2085,-4.21143,34.4238,0.232178,-0.261505,0.642273,-0.681976,16082,-1255,-12309,-3465,-29330
474090,-5.36416,-14.3028,3.99082,-87.3303,-2.66968,-138.983,33.6914,-24.4141,44.4336,0.234894,-0.259277,0.641235,-0.682861,28114,1306,-10773,-3465,-29330
474096,-4.09609,-13.6521,0.861328,-87.0831,-2.30713,-138.867,43.9453,-17.9443,44.9219,0.238251,-0.257568,0.640594,-0.682953,-25134,3610,-10517,-3465,-29330
474102,-4.57939,-17.3558,2.07676,-86.8359,-1.93909,-138.719,45.5322,-23.3154,47.4243,0.241547,-0.255615,0.639709,-0.68335,-13102,5402,-10261,-3465,-29330
474108,-0.16748,-34.3574,11.0489,-86.1548,-1.07117,-138.214,81.0547,-53.5278,77.8809,0.248901,-0.251984,0.637665,-0.68396,10195,9498,-9749,-3465,-29330
474114,5.74697,-21.3705,7.56533,-85.8362,-0.346069,-138.142,59.4482,-0.793457,124.634,0.254425,-0.249908,0.63559,-0.684601,22483,11290,-7957,-3465,-29330
474120,2.97158,-17.2983,9.68037,-85.9076,0.55481,-138.296,-20.0806,47.6074,158.63,0.259613,-0.24527,0.635223,-0.684723,-30765,13338,-6421,-3465,-29330
474126,-1.24893,-22.3563,5.44551,-86.0669,1.55457,-138.433,-37.1094,44.9829,178.223,0.26358,-0.239166,0.638031,-0.682739,-18477,15386,-5141,-3465,-29330
474132,-2.8041,-26.7395,0.330176,-86.1987,2.63123,-138.483,-31.1279,29.541,198.303,0.267975,-0.232849,0.641479,-0.679993,8916,20762,-3605,-3465,-29330
474138,-2.56963,-25.39,-0.689063,-86.1823,5.19653,-138.428,7.38525,16.5405,256.348,0.28009,-0.219269,0.64743,-0.67392,24788,24346,-4117,-3465,-29330
474144,-2.53613,-20.6336,-0.6125,-86.1053,6.63025,-138.4,11.5967,20.3247,274.597,0.287842,-0.211182,0.64978,-0.67099,-22572,28442,-4629,-3465,-29330
474150,-1.49775,-19.4421,0.492871,-86.0449,8.09143,-138.345,8.54492,15.625,281.006,0.295929,-0.202454,0.65213,-0.667877,-1836,-31718,-5653,-3465,-29330
474156,0.425879,-21.404,1.72744,-86.0284,9.61304,-138.246,-1.77002,8.54492,296.021,0.30426,-0.193756,0.654449,-0.664429,18645,-27110,-7445,-3465,-29330
474162,2.61748,-25.969,5.01006,-86.001,11.2006,-138.093,0.366211,9.64355,310.791,0.313049,-0.184967,0.656982,-0.660339,1750,-18150,-10261,-3465,-29330
474168,5.77568,-27.6151,3.46445,-85.7098,14.6503,-137.834,35.3394,20.2026,351.44,0.332184,-0.16626,0.661499,-0.651398,30678,-14054,-11797,-3465,-29330
474174,3.66543,-24.9498,3.24912,-85.4242,16.4905,-137.796,56.0303,38.3301,366.15,0.342407,-0.155396,0.663055,-0.647186,-2602,-10982,-12821,-3474,-29329
474180,-0.449805,-22.0979,3.00986,-85.1166,18.3582,-137.812,63.7207,50.8423,372.498,0.352509,-0.143341,0.664215,-0.643341,31959,-7910,-13845,-3474,-29329
474186,0.0239258,-20.2891,1.51211,-84.7925,20.2972,-137.67,57.8003,24.292,390.259,0.362335,-0.130615,0.665222,-0.639557,4056,-5094,-15637,-3474,-29329
474192,2.81367,-19.4469,1.47861,-84.4354,22.2858,-137.538,63.4766,29.9072,401.55,0.384155,-0.105286,0.666351,-0.630249,13785,-1510,-20757,-3474,-29329
474198,-1.2585,-20.2316,2.1916,-83.6389,26.2958,-137.335,74.8901,34.1187,409.79,0.394531,-0.0917358,0.666626,-0.625641,-10279,-1254,-25109,-3474,-29329
474204,2.07676,-21.6002,2.79453,-83.1445,28.3392,-137.126,83.8623,26.001,418.518,0.405243,-0.0782776,0.666473,-0.620758,-32294,-2534,-31253,-3474,-29329
474210,2.72275,-17.4275,1.79443,-82.6282,30.4156,-136.994,94.0552,44.4336,424.683,0.41629,-0.0646362,0.665771,-0.615753,13275,-6374,26603,-3474,-29329
474216,-4.98613,-12.2261,1.78486,-82.2821,32.4316,-136.989,73.2422,68.0542,410.217,0.426788,-0.0501709,0.664917,-0.610809,-4389,-12518,16363,-3474,-29329
474222,-7.11553,-17.552,-0.177051,-81.9635,34.3542,-136.714,38.0249,22.3999,399.353,0.445984,-0.0238342,0.664612,-0.598907,23773,-27622,-6166,-3474,-29329
474228,2.46914,-18.6478,2.86631,-80.8044,38.1171,-135.978,92.7734,30.7617,393.311,0.456665,-0.0121765,0.662964,-0.593018,7134,28186,-18966,-3474,-29329
474234,-3.25391,-19.0162,3.2252,-80.2057,39.9902,-135.632,81.8481,22.3999,395.142,0.465942,0.000915527,0.661163,-0.587921,-7970,16410,-31254,-3474,-29329
474240,0.957031,-21.0164,2.18682,-79.4861,41.8579,-135.104,81.1768,0.183105,398.865,0.475342,0.0136414,0.659271,-0.582336,-23073,2842,19946,-3474,-29329
474246,3.18213,-19.6287,1.55518,-78.717,43.7201,-134.632,95.0317,14.9536,398.499,0.48526,0.0258179,0.656769,-0.576538,27872,-13287,5354,-3474,-29329
474252,2.27773,-15.5948,-0.0717773,-77.9315,45.5438,-134.154,96.7407,18.4326,391.785,0.503387,0.0513306,0.651245,-0.56546,-2335,16153,-24599,-3474,-29329
474258,4.7708,-13.8052,-1.76094,-76.2396,48.8892,-133.028,95.3979,9.94873,356.873,0.511841,0.0632324,0.648315,-0.560028,-18974,-4072,25833,-3474,-29329
474264,2.71797,-16.3078,-1.49775,-75.3387,50.4877,-132.523,109.131,24.0479,352.173,0.519653,0.0746155,0.645142,-0.555023,29667,-26344,10473,-3474,-29329
474270,1.55039,-18.954,-1.64131,-74.295,52.1082,-131.918,121.887,20.1416,359.253,0.526764,0.0864868,0.641876,-0.550385,12516,15640,-6936,-3474,-29329
474276,6.36904,-15.0158,-3.89033,-72.8778,53.6847,-131.012,145.935,-8.36182,362.671,0.533905,0.0986938,0.638062,-0.545868,-6684,-9961,-24088,-3474,-29329
474282,2.99072,0.6125,-2.30166,-71.5594,55.1184,-130.314,158.264,16.4795,328.003,0.547607,0.122864,0.628052,-0.53894,18150,2327,5864,-3474,-29329
474288,-3.3209,-0.263184,-0.952246,-69.6094,56.8817,-128.969,69.7632,-24.5361,188.477,0.552155,0.131622,0.624451,-0.536407,-4378,-25066,-11289,-3474,-29329
474294,-1.30156,-3.80898,-2.01455,-68.9337,57.2882,-128.381,44.6777,-26.001,128.479,0.556305,0.136719,0.621368,-0.534424,-27673,11286,-28185,-3482,-29328
474300,-1.72266,-6.0915,-1.9332,-68.3899,57.431,-127.831,23.7427,-41.2598,79.4678,0.559204,0.139557,0.619171,-0.533234,13544,-18411,19687,-3482,-29328
474306,0.531152,-9.34541,-1.43555,-67.9559,57.3816,-127.282,3.11279,-55.542,43.396,0.561462,0.140198,0.617401,-0.532715,-13080,18197,1255,-3482,-29328
474312,1.08623,-12.762,-1.4499,-67.5989,57.2113,-126.788,-4.63867,-60.4248,19.8975,0.564819,0.137024,0.614838,-0.532959,-9495,28692,32230,-3482,-29328
474318,2.11982,-18.4803,-1.26328,-66.9067,56.7279,-125.706,-15.3809,-76.8433,10.5591,0.566284,0.134308,0.613708,-0.533386,19690,4372,15590,-3482,-29328
474324,2.2251,-20.1312,-0.92832,-66.5002,56.5027,-125.074,-17.1509,-82.5195,18.3716,0.567993,0.131378,0.612457,-0.533752,-19734,-17901,998,-3482,-29328
474330,2.69883,-20.7484,-0.775195,-66.0223,56.3269,-124.354,-17.334,-89.2334,31.6772,0.569977,0.12851,0.611084,-0.533905,3307,27411,-14619,-3482,-29328
474336,2.85195,-20.758,-0.0957031,-65.484,56.2006,-123.552,-18.3716,-93.5059,47.0581,0.572418,0.125824,0.609467,-0.533752,23787,8979,-31515,-3482,-29328
474342,2.85674,-19.5091,0.823047,-64.9072,56.1292,-122.695,-20.2026,-95.3369,60.6079,0.578522,0.121338,0.605865,-0.532318,-7189,-23022,997,-3482,-29328
474348,3.44053,-18.6334,1.56953,-63.6877,56.0248,-120.85,-26.7334,-103.333,70.1294,0.582031,0.119293,0.603943,-0.531158,7148,28946,-13852,-3482,-29328
474354,4.43584,-17.6524,2.65576,-63.1219,55.9314,-119.96,-28.9307,-102.417,62.2559,0.585632,0.117126,0.60199,-0.529907,19692,16914,-26908,-3482,-29328
474360,5.53643,-16.2504,3.40225,-62.644,55.7611,-119.174,-28.1372,-99.2432,45.2271,0.58902,0.114685,0.600159,-0.528778,30188,5650,25828,-3482,-29328
474366,6.65615,-15.1977,3.56016,-62.2705,55.4865,-118.559,-22.1558,-92.7124,18.9209,0.591858,0.111908,0.59848,-0.528107,-26132,-5103,14308,-3482,-29328
474372,9.32148,-14.3555,3.40703,-62.0013,55.0745,-118.141,-9.76562,-86.1816,-13.6108,0.594879,0.105225,0.595428,-0.52951,-11284,-25071,-9245,-3482,-29328
474378,9.73301,-14.432,3.07686,-61.8036,53.8934,-118.054,26.8555,-59.6313,-81.4209,0.594635,0.101532,0.593964,-0.532135,-5908,31249,-22045,-3482,-29328
474384,9.6708,-14.9823,2.26338,-61.8475,53.1519,-118.356,43.396,-45.4712,-109.192,0.59314,0.0977783,0.592621,-0.536011,-1556,23569,31203,-3482,-29328
474390,8.84775,-15.145,1.18672,-61.9739,52.3444,-118.856,59.3872,-30.7007,-133.85,0.590515,0.0940857,0.591339,-0.540985,1261,17169,19427,-3482,-29328
474396,8.18262,-14.0157,-0.229688,-62.1332,51.4819,-119.454,67.3828,-23.4375,-148.56,0.586823,0.0905151,0.590118,-0.546906,2797,11537,8675,-3482,-29328
474402,7.87158,-9.19229,-2.52178,-62.3364,50.5811,-120.13,70.1904,-16.7236,-160.583,0.577637,0.0832825,0.587921,-0.560059,2541,4369,-13342,-3482,-29328
474408,7.36914,-6.41689,-3.56494,-63.0011,48.6804,-121.696,52.8564,-1.2207,-183.167,0.572327,0.0793457,0.587128,-0.566833,237,3345,-25374,-3474,-29329
474414,6.33555,-4.78037,-4.57461,-63.5339,47.6642,-122.58,31.4941,4.08936,-196.35,0.566467,0.0750427,0.586914,-0.573517,-2836,3345,28642,-3474,-29329
474420,5.26367,-3.95254,-5.67998,-64.1931,46.5765,-123.486,8.42285,4.82178,-212.158,0.56012,0.0699768,0.587372,-0.579865,-7700,5393,17122,-3474,-29329
474426,4.58418,-3.39268,-6.56523,-64.9567,45.401,-124.398,-12.8174,2.56348,-229.858,0.553375,0.0639648,0.58847,-0.585907,-13332,9233,5602,-3474,-29329
474432,3.20127,-3.00986,-7.46963,-65.8081,44.1156,-125.299,-55.6641,-7.01904,-272.705,0.538666,0.0487366,0.592041,-0.597351,-28180,22033,-16159,-3474,-29329
474438,2.00977,-3.096,-7.70889,-67.7362,41.1713,-127.035,-73.4863,-14.4043,-297.729,0.530579,0.0393372,0.594452,-0.602844,28652,29969,-25119,-3474,-29329
474444,1.49775,-3.69414,-7.61797,-68.7579,39.4958,-127.815,-91.3086,-26.9165,-321.411,0.521973,0.0286865,0.597137,-0.608307,18412,-25583,31713,-3474,-29329
474450,1.8375,-5.20625,-7.08203,-69.7906,37.6996,-128.529,-104.736,-35.5225,-343.384,0.51297,0.0167236,0.599915,-0.613647,8428,-15343,23777,-3474,-29329
