Timestamp,AccX,AccY,AccZ,AngleX,AngleY,AngleZ,AngularVelX,AngularVelY,AngularVelZ,QW,QX,QY,QZ,MagX,MagY,MagZ,Height,AirPressure
225354,-1.36855,-12.3696,2.11025,-78.9972,1.51611,-144.932,17.1509,-0.305176,30.5176,0.239227,-0.182861,0.609833,-0.733032,27856,4890,-12307,-3557,-29319
225360,-0.401953,-10.9245,2.13418,-78.8873,1.67542,-144.877,22.1558,-4.39453,31.4941,0.240417,-0.181824,0.609528,-0.733124,32208,6938,-13843,-3557,-29319
225366,-0.00478516,-10.5034,2.96201,-78.783,1.85669,-144.844,21.1182,0.366211,34.4238,0.241791,-0.180847,0.60907,-0.733307,-28720,8730,-15379,-3557,-29319
225372,-0.186621,-9.84307,2.37344,-78.6896,2.03796,-144.816,18.8599,2.50244,34.9731,0.243134,-0.179657,0.608673,-0.73349,-23344,10778,-16915,-3557,-29319
225378,-0.406738,-10.7379,2.51699,-78.6401,2.2522,-144.789,-2.31934,2.44141,42.8467,0.245758,-0.177094,0.608459,-0.733429,-12080,13594,-18451,-3557,-29319
225384,-0.708203,-12.3983,2.71797,-78.6237,2.71912,-144.728,5.24902,5.06592,49.0112,0.247101,-0.175873,0.608887,-0.73291,-6960,15386,-19987,-3557,-29319
225390,-1.64609,-10.7905,1.92842,-78.5687,2.98279,-144.69,10.3149,2.92969,52.2461,0.248627,-0.174347,0.609161,-0.732544,-1328,17434,-22291,-3557,-29319
225396,-0.890039,-10.7188,2.24902,-78.5358,3.25195,-144.635,6.53076,0.671387,53.772,0.250336,-0.172729,0.609253,-0.732239,4049,19226,-25107,-3557,-29319
225402,-0.645996,-10.8001,2.51221,-78.5028,3.52661,-144.602,6.10352,5.12695,54.8096,0.252136,-0.171204,0.609467,-0.731812,10705,21018,-28435,-3557,-29319
225408,-1.00967,-10.8623,2.13896,-78.4808,3.82324,-144.569,4.39453,6.53076,59.021,0.255615,-0.167694,0.610107,-0.730896,26321,25882,30957,-3557,-29319
225414,-0.890039,-11.2403,2.77539,-78.4149,4.44946,-144.481,7.8125,4.15039,65.3076,0.257446,-0.165955,0.610443,-0.730347,-31535,28698,28141,-3557,-29319
225420,-1.28242,-10.2785,2.20117,-78.3765,4.77356,-144.454,7.08008,8.48389,65.2466,0.259521,-0.164001,0.610718,-0.729858,-24367,32026,26605,-3557,-29319
225426,-1.54561,-10.647,2.67012,-78.338,5.11963,-144.415,6.5918,7.38525,68.8477,0.261444,-0.161926,0.611053,-0.72934,-16943,-29670,25837,-3557,-29319
225432,-1.67002,-10.4795,2.6749,-78.3105,5.48218,-144.371,4.88281,6.5918,72.5098,0.263489,-0.15979,0.611389,-0.72879,-9263,-25574,25837,-3557,-29319
225438,-1.29199,-11.7093,1.86621,-78.2996,5.85022,-144.333,1.77002,8.30078,74.8901,0.267853,-0.155365,0.612335,-0.727356,7634,-17894,27117,-3557,-29319
225444,-1.44512,-11.7476,2.39736,-78.2172,6.63574,-144.25,7.8125,8.72803,80.7495,0.270111,-0.152985,0.612732,-0.726685,16338,-14054,27629,-3557,-29319
225450,-1.41162,-11.3552,2.29688,-78.1732,7.04773,-144.212,7.62939,10.437,83.4351,0.272461,-0.150513,0.613129,-0.726013,26066,-10726,28141,-3557,-29319
225456,-0.569434,-10.446,2.06719,-78.1512,7.46521,-144.174,4.15039,10.6812,84.1675,0.274872,-0.147888,0.613525,-0.725281,-29486,-6886,28909,-3557,-29319
225462,-1.18193,-11.8289,2.27295,-78.1183,7.91016,-144.141,5.24902,12.146,89.3555,0.277283,-0.145325,0.614044,-0.724457,-7982,1051,28141,-3557,-29319
225468,-1.91885,-11.5562,2.95244,-78.0359,8.85498,-144.042,9.15527,10.8643,98.3276,0.282471,-0.139679,0.615112,-0.722656,3795,4635,27117,-3557,-29319
225474,-1.69873,-11.336,2.44521,-78.0084,9.33289,-143.998,4.08936,12.207,98.0225,0.285278,-0.136658,0.61554,-0.721771,15059,7963,26349,-3557,-29319
225480,-1.43555,-11.3217,2.52178,-77.9645,9.83826,-143.943,7.01904,11.2305,102.966,0.288025,-0.133667,0.616119,-0.720734,27347,11547,25581,-3557,-29319
225486,-1.29199,-11.1542,2.34473,-77.948,10.3546,-143.893,2.2583,13.3057,106.14,0.290955,-0.130554,0.616608,-0.719696,-25901,15387,24557,-3557,-29319
225492,-1.11494,-11.4365,1.96191,-77.9425,10.8765,-143.855,0.427246,16.3574,105.835,0.293915,-0.12738,0.617279,-0.718506,2260,25627,21485,-3557,-29319
225498,-1.90449,-13.9631,1.56475,-77.8821,12.019,-143.718,5.61523,11.4136,119.995,0.299927,-0.120758,0.618774,-0.715881,17108,31003,20205,-3557,-29319
225504,-1.20586,-12.695,1.53604,-77.8217,12.6233,-143.641,9.94873,12.8174,125.793,0.303345,-0.117218,0.619354,-0.714539,32468,-29157,18413,-3557,-29319
225510,-1.98584,-14.2454,1.75137,-77.7502,13.2495,-143.564,11.7798,12.5122,129.822,0.306885,-0.113434,0.619812,-0.713196,-17964,-23781,15853,-3557,-29319
225516,-1.56953,-13.0587,1.54561,-77.6404,13.9087,-143.448,18.1274,7.93457,138,0.310547,-0.109558,0.620239,-0.711853,-2604,-19685,12781,-3557,-29319
225522,-0.961816,-13.3219,1.26328,-77.558,14.5898,-143.377,13.4888,16.9067,140.137,0.314575,-0.105499,0.620422,-0.710541,29397,-12261,5101,-3557,-29319
225528,-2.19639,-13.9535,1.65088,-77.2778,16.04,-143.141,25.5737,6.7749,154.785,0.322571,-0.0965881,0.621094,-0.707642,-19499,-8933,1517,-3557,-29319
225534,-0.736914,-12.4988,2.18682,-77.1021,16.8091,-142.998,29.6631,8.48389,161.987,0.327118,-0.092041,0.621063,-0.706177,-1579,-6117,-1044,-3557,-29319
225540,-1.91885,-15.2072,2.27295,-76.9482,17.6001,-142.778,23.3154,15.9302,165.649,0.331848,-0.0871887,0.620911,-0.704712,15830,-3813,-4116,-3557,-29319
225546,-1.99063,-15.0685,1.37334,-76.745,18.4186,-142.509,30.2124,8.54492,174.683,0.337097,-0.0827026,0.620911,-0.702789,-31530,-997,-7444,-3557,-29319
225552,-2.14854,-16.6523,0.77041,-76.5692,19.2645,-142.262,26.123,14.9536,178.04,0.348328,-0.0732117,0.620483,-0.6987,8663,3612,-17940,-3557,-29319
225558,-2.21553,-15.2886,0.090918,-76.0638,21.0663,-141.663,41.5649,5.61523,198.242,0.354279,-0.0681458,0.620087,-0.696564,29911,5916,-24852,-3557,-29319
225564,-1.89014,-15.9585,-0.0382813,-75.7782,22.0111,-141.356,42.1143,10.0098,202.515,0.360626,-0.0628357,0.619385,-0.694427,-13353,7708,-32276,-3557,-29319
225570,-1.86143,-14.9871,-0.507227,-75.4321,22.9834,-141.004,51.0254,5.06592,210.388,0.366943,-0.057251,0.618744,-0.6922,10200,8732,25324,-3557,-29319
225576,-1.64131,-15.2168,0.0478516,-75.097,23.9886,-140.647,48.0347,6.04248,217.041,0.373596,-0.0514832,0.617706,-0.690002,32472,10012,17644,-3557,-29319
225582,-2.78975,-17.1404,1.65566,-74.74,25.0323,-140.279,50.5371,8.11768,226.318,0.387238,-0.0392761,0.615784,-0.684998,14297,11804,2284,-3557,-29319
225588,-1.2585,-18.1022,3.23955,-73.9709,27.2461,-139.406,47.1802,2.2583,247.62,0.394592,-0.0328979,0.614685,-0.682098,-26151,12828,-7701,-3557,-29319
225594,1.01924,-16.9921,4.08652,-73.5699,28.4326,-138.939,45.6543,3.96729,260.681,0.402161,-0.0263062,0.613617,-0.678925,-39,13084,-18453,-3557,-29319
225600,1.56953,-16.2982,3.58408,-73.2239,29.6741,-138.488,34.9731,13.6108,271.179,0.409973,-0.0193481,0.612579,-0.675415,27354,12828,-30485,-3557,-29319
225606,-0.937891,-18.5329,2.52178,-72.8998,30.9705,-138.071,32.5928,23.6206,280.945,0.417755,-0.0120544,0.611938,-0.671387,-11302,12060,23275,-3557,-29319
225612,-0.468945,-20.2891,4.74209,-72.4548,32.2943,-137.56,45.3491,12.6343,291.138,0.433624,0.00369263,0.610382,-0.662781,-18725,7708,-1558,-3557,-29319
225618,-2.33516,-20.3226,5.11055,-71.4056,35.0629,-136.544,60.3027,31.9824,304.443,0.442047,0.012085,0.608826,-0.658539,11740,3868,-13334,-3557,-29319
225624,-5.3498,-20.0067,2.3543,-70.8783,36.4636,-135.994,52.5513,22.7661,308.96,0.449921,0.0212097,0.607483,-0.654205,-22052,-485,-25110,-3557,-29319
225630,-2.61748,-20.9303,1.33506,-70.2631,37.8699,-135.291,48.7671,2.92969,318.115,0.458069,0.0300293,0.606079,-0.649475,10461,-5349,27882,-3557,-29319
225636,-0.224902,-20.1072,0.756055,-69.6094,39.3311,-134.604,55.542,13.5498,327.515,0.466888,0.0384521,0.604309,-0.644379,-22051,-10981,14826,-3557,-29319
225642,-4.16309,-16.9155,1.11494,-68.9502,40.8362,-133.896,52.2461,20.2026,338.257,0.484192,0.0569458,0.600739,-0.633514,-21282,-24805,-11031,-3557,-29319
225648,-3.81855,-17.1069,0.607715,-67.5934,43.9014,-132.111,18.1885,0.305176,354.858,0.493378,0.0659485,0.59906,-0.627106,12767,32027,-24343,-3557,-29319
225654,-3.75635,-18.4851,0.894824,-66.8628,45.423,-131.072,12.8174,-6.22559,357.971,0.502808,0.0744934,0.597595,-0.619995,-16673,21275,26857,-3557,-29319
225660,-3.40225,-19.021,0.569434,-66.0388,46.9281,-129.93,12.085,-13.0615,360.962,0.51236,0.0828247,0.596008,-0.61261,20448,9243,13033,-3557,-29319
225666,-1.71787,-18.9779,0.478516,-65.0555,48.4332,-128.633,16.7847,-23.8037,368.347,0.522034,0.0909729,0.594147,-0.605042,-7456,-3814,-280,-3557,-29319
225672,0.727344,-16.7576,-0.727344,-63.9734,49.9219,-127.233,11.1694,-25.8179,365.112,0.541931,0.107239,0.589264,-0.589478,482,-31206,-25880,-3557,-29319
225678,0.837402,-18.2649,-1.02402,-61.6388,52.7399,-124.239,12.4512,-32.5317,358.826,0.551514,0.115051,0.586823,-0.581482,-26654,17946,26344,-3557,-29319
225684,1.804,-17.7434,-1.75615,-60.2545,54.0582,-122.569,22.2168,-38.7573,354.858,0.560913,0.122528,0.584106,-0.573639,13027,-231,12776,-3557,-29319
225690,4.47891,-13.7238,-3.65586,-58.6121,55.2832,-120.74,42.9688,-51.8799,348.206,0.57016,0.129913,0.580933,-0.566071,-12061,-19175,-2073,-3557,-29319
225696,4.56982,-8.3166,-2.49307,-56.8817,56.4258,-118.982,67.688,-41.0767,329.102,0.579254,0.137329,0.576904,-0.559174,28388,25113,-17177,-3557,-29319
225702,7.06768,5.86182,-4.3832,-55.1239,57.4969,-117.356,116.821,-78.7354,285.95,0.594116,0.153351,0.568176,-0.548248,-24347,-18152,17127,-3557,-29319
225708,6.97676,27.5051,-2.6127,-51.2842,58.7769,-114.131,129.7,-37.0483,191.101,0.60144,0.160339,0.561859,-0.544769,13286,24856,743,-3557,-29319
225714,-4.14873,26.7012,-1.08623,-50.8228,58.8318,-113.807,49.6826,-18.0664,64.0869,0.605255,0.16629,0.556946,-0.543793,-15898,1304,-16410,-3557,-29319
225720,-0.363672,11.9868,0.162695,-50.7404,58.3813,-113.643,1.52588,-69.397,-25.1465,0.606171,0.167511,0.555359,-0.544006,19943,-22505,30694,-3557,-29319
225726,4.47412,6.40732,0.373242,-51.2732,57.6727,-114.066,-22.1558,-53.833,-102.722,0.606537,0.164124,0.554199,-0.545807,-11545,18711,13542,-3557,-29319
225732,6.7375,-1.9667,0.435449,-52.218,56.7389,-114.851,-45.8374,-49.6826,-164.917,0.601562,0.151031,0.55603,-0.553192,-18712,-25834,-18459,-3557,-29319
225738,9.07266,-6.97197,-0.91875,-54.5856,54.3988,-116.845,-60.3027,-42.6025,-231.445,0.597595,0.141876,0.557831,-0.558105,4841,21526,31717,-3557,-29319
225744,7.99121,-10.4747,-2.08154,-55.7886,53.1793,-118.004,-42.7856,-30.5786,-241.089,0.592407,0.132507,0.56012,-0.563599,23273,6678,17637,-3557,-29319
225750,6.74707,-11.7093,-2.47871,-56.8433,51.9489,-119.119,-23.7427,-28.7476,-242.065,0.586487,0.123627,0.562317,-0.569611,-28439,-4331,4581,-3557,-29319
225756,5.76611,-11.4796,-2.13418,-57.7441,50.7349,-120.174,-4.94385,-26.062,-237.488,0.580231,0.115295,0.564026,-0.575989,-19223,-12267,-7452,-3557,-29319
225762,4.4502,-8.59893,-2.31123,-58.5077,49.5428,-121.146,16.0522,-28.1982,-220.215,0.567505,0.100403,0.566071,-0.589325,-12311,-18667,-27164,-3540,-29321
225768,4.41191,-6.33076,-2.35908,-59.7107,47.2632,-122.838,19.3481,-27.71,-212.036,0.561371,0.0935974,0.566528,-0.595856,-12823,-18923,29668,-3540,-29321
225774,4.00996,-3.76113,-2.57441,-60.238,46.1646,-123.58,16.2354,-29.1748,-204.651,0.555328,0.0870972,0.566803,-0.602203,-15895,-16875,21988,-3540,-29321
225780,3.76113,-1.59824,-2.60313,-60.7654,45.0659,-124.283,7.87354,-30.7617,-201.721,0.549469,0.0806274,0.567078,-0.608185,-22295,-13035,16356,-3540,-29321
225786,3.71807,0.114844,-2.56006,-61.3202,43.9673,-124.958,-3.78418,-31.311,-202.271,0.543671,0.0740051,0.567474,-0.613831,23785,-1003,2276,-3540,-29321
225792,4.03389,0.91875,-1.72266,-62.6276,41.6876,-126.277,-35.3394,-31.8604,-212.402,0.53186,0.0596619,0.569183,-0.624084,10729,6678,-3357,-3540,-29321
225798,4.48369,0.320605,-1.33027,-63.3911,40.4956,-126.942,-51.2695,-30.0903,-220.703,0.525696,0.0517273,0.570648,-0.628662,-2328,14358,-9757,-3540,-29321
225804,4.9957,-0.91875,-1.02881,-64.2261,39.2596,-127.623,-65.0635,-26.123,-230.347,0.519196,0.0432739,0.57254,-0.632935,-17688,22806,-16157,-3540,-29321
225810,5.46943,-2.23467,-0.885254,-65.105,37.9907,-128.326,-73.3032,-21.7285,-238.22,0.512299,0.0343628,0.57486,-0.637024,31208,-32746,-21021,-3540,-29321
225816,5.57949,-3.62715,-0.617285,-65.9894,36.6943,-129.029,-77.0874,-17.7002,-245.422,0.504944,0.0252075,0.577454,-0.64093,-7449,-11754,-27677,-3540,-29321
225822,5.52686,-5.6082,-0.0813477,-67.7527,34.0137,-130.463,-78.7354,-7.8125,-256.47,0.489075,0.00653076,0.582947,-0.648712,-28697,535,-29469,-3540,-29321
225828,4.96699,-6.33076,-0.0287109,-68.6041,32.6514,-131.182,-77.5757,-2.38037,-261.597,0.480621,-0.00274658,0.585724,-0.652557,13799,13335,-28957,-3540,-29321
225834,4.36406,-6.79492,-0.301465,-69.4226,31.2616,-131.891,-74.585,0.244141,-265.32,0.471802,-0.0120239,0.58844,-0.656403,-8730,26391,-28701,-3540,-29321
225840,3.84727,-6.82363,-0.267969,-70.1971,29.8553,-132.578,-71.7773,1.77002,-269.714,0.462769,-0.0212097,0.591003,-0.660309,-32538,-25065,-26653,-3540,-29321
225846,3.47881,-6.62266,-0.162695,-70.9442,28.4271,-133.242,-71.8994,3.05176,-273.682,0.453491,-0.0303955,0.593414,-0.664215,-18971,5400,-17949,-3540,-29321
225852,2.67969,-6.95762,-0.172266,-72.4109,25.5212,-134.478,-79.7729,2.13623,-278.015,0.434387,-0.0490112,0.597961,-0.671722,19429,21016,-11805,-3540,-29321
225858,2.3208,-7.47441,-0.153125,-73.136,24.0546,-135.044,-85.083,0.793457,-278.564,0.424713,-0.0585022,0.600189,-0.675171,-9244,-28392,-5917,-3540,-29321
225864,1.871,-8.1252,-0.0957031,-73.8556,22.5879,-135.555,-91.5527,-1.34277,-278.503,0.415039,-0.0681152,0.602386,-0.678314,28388,-13032,-29,-3540,-29321
225870,1.31592,-8.99131,-0.177051,-74.5697,21.1157,-136.016,-96.8628,-5.5542,-277.71,0.405334,-0.0778503,0.604614,-0.681152,-1053,2073,7396,-3540,-29321
225876,0.77041,-9.74258,-0.143555,-75.2673,19.6436,-136.417,-100.83,-10.6812,-277.527,0.395782,-0.0877991,0.606781,-0.683624,227,30233,25572,-3540,-29321
225882,-0.77041,-11.2212,0.0382813,-76.5912,16.6882,-137.01,-103.21,-26.123,-275.757,0.377106,-0.108154,0.610687,-0.687775,31202,-21735,-28956,-3532,-29322
225888,-1.13887,-11.7571,0.401953,-77.2064,15.2161,-137.203,-103.333,-33.9966,-274.841,0.368195,-0.118622,0.612244,-0.689514,-4895,-7911,-17180,-3532,-29322
225894,-1.39248,-12.3505,0.708203,-77.7942,13.7384,-137.324,-103.027,-42.1143,-274.78,0.359497,-0.129272,0.613525,-0.69101,26081,4634,-5916,-3532,-29322
225900,-1.53604,-12.8625,1.1293,-78.36,12.2662,-137.379,-101.746,-49.4995,-274.048,0.351105,-0.140106,0.614563,-0.692322,-10272,17690,6885,-3532,-29322
225906,-1.36377,-12.9917,1.78486,-78.8983,10.8051,-137.379,-101.074,-56.3965,-272.095,0.342926,-0.151062,0.615265,-0.693451,-20513,-24294,-29211,-3532,-29322
225912,-0.990527,-13.4271,3.0625,-79.9915,7.93213,-137.263,-106.323,-62.3169,-266.113,0.327362,-0.173187,0.616089,-0.695099,5343,-13030,-11035,-3532,-29322
225918,-0.837402,-14.0875,3.45967,-80.5463,6.54236,-137.17,-109.07,-62.8052,-261.78,0.319824,-0.184204,0.616394,-0.695496,30430,-3302,7910,-3532,-29322
225924,-0.693848,-15.0063,3.79463,-81.1066,5.18555,-137.065,-110.291,-61.2183,-256.592,0.312408,-0.195068,0.616699,-0.695648,-11043,5659,28390,-3532,-29322
225930,-0.823047,-15.7145,4.09131,-81.6559,3.86719,-136.956,-109.741,-58.4106,-250.366,0.305115,-0.205658,0.616974,-0.695587,14813,13083,-18202,-3532,-29322
225936,-1.05273,-16.2217,4.37363,-82.2052,2.59277,-136.846,-109.314,-55.1758,-243.835,0.297913,-0.215912,0.617218,-0.695374,-1829,24859,20199,-3532,-29322
225942,-1.40684,-17.0734,4.5459,-83.2819,0.164795,-136.637,-106.812,-46.936,-231.873,0.283875,-0.235321,0.617676,-0.69455,22491,28699,-24345,-3532,-29322
225948,-1.85186,-17.0447,4.46934,-83.8037,-0.994263,-136.538,-104.858,-43.2129,-228.149,0.276947,-0.244446,0.617859,-0.694031,-19750,32283,-3353,-3532,-29322
225954,-2.17246,-16.8294,4.4167,-84.3256,-2.14783,-136.445,-104.431,-40.5884,-227.051,0.270081,-0.253265,0.617981,-0.693481,3546,-31461,18408,-3532,-29322
225960,-2.39736,-16.6093,4.27314,-84.8529,-3.30139,-136.351,-106.873,-38.5742,-228.516,0.263214,-0.261871,0.618042,-0.692871,28889,-29925,-26392,-3532,-29322
225966,-2.38779,-16.8868,4.11523,-85.3967,-4.46045,-136.258,-109.558,-36.8042,-231.262,0.256195,-0.270447,0.618103,-0.692139,11480,-29413,16361,-3532,-29322
225972,-2.75146,-17.7146,3.94775,-86.5118,-6.80603,-136.077,-114.563,-32.4097,-237.183,0.241669,-0.287445,0.618195,-0.69043,-30505,-31205,-27927,-3532,-29322
225978,-3.06729,-18.3463,4.07695,-87.0886,-7.97607,-135.983,-117.493,-30.0903,-238.831,0.234131,-0.295898,0.618225,-0.689423,-7466,31259,-5399,-3532,-29322
225984,-3.63672,-19.0497,4.26836,-87.6819,-9.14612,-135.89,-119.751,-28.1982,-238.892,0.226471,-0.30426,0.618256,-0.688293,15574,26907,17386,-3532,-29322
225990,-4.11523,-19.5904,4.49805,-88.2751,-10.3107,-135.791,-120.972,-27.5879,-239.075,0.218719,-0.312531,0.618317,-0.687073,-26923,21275,-25366,-3532,-29322
225996,-4.43584,-19.9828,4.76602,-88.8739,-11.4642,-135.687,-120.483,-26.123,-239.38,0.203125,-0.328766,0.618256,-0.684326,23508,7195,18923,-3540,-29321
226002,-5.24932,-20.2412,5.49336,-90,-13.7659,-135.5,-112.671,-17.6392,-240.601,0.195282,-0.336639,0.618042,-0.682983,-17197,-2022,-24341,-3540,-29321
226008,-5.83311,-20.4087,6.07715,-90.5164,-14.9139,-135.423,-106.75,-13.855,-242.188,0.187347,-0.344238,0.617645,-0.681763,6611,-12262,-1557,-3540,-29321
226014,-6.0293,-20.2891,6.49346,-90.9943,-16.0675,-135.368,-99.4873,-7.56836,-243.958,0.179352,-0.351624,0.617004,-0.680725,30162,-23270,20716,-3540,-29321
226020,-6.40732,-20.246,6.81885,-91.4172,-17.2211,-135.357,-92.1021,1.2207,-244.263,0.171265,-0.358765,0.616089,-0.679901,-12335,29210,-22804,-3540,-29321
226026,-6.90977,-20.2125,7.11074,-91.7853,-18.3636,-135.379,-84.0454,10.1929,-243.835,0.154755,-0.371796,0.613617,-0.679108,-28976,1306,16109,-3540,-29321
226032,-8.32139,-19.3225,7.45049,-92.3456,-20.6049,-135.593,-68.4814,32.1045,-239.319,0.146423,-0.377594,0.612061,-0.679169,-4913,-15591,-31507,-3540,-29321
226038,-8.99131,-18.6573,7.33564,-92.5433,-21.698,-135.78,-62.6831,42.4194,-235.657,0.13797,-0.382874,0.610321,-0.679535,19407,31001,-14611,-3540,-29321
226044,-10.0201,-20.4996,5.09619,-92.7191,-22.7637,-136.027,-64.209,53.1616,-230.53,0.129456,-0.387634,0.608521,-0.680115,-22066,10777,1774,-3540,-29321
226050,-10.8384,-20.2986,7.76152,-92.7521,-23.7799,-136.335,-40.0391,62.9883,-222.29,0.120789,-0.391846,0.606873,-0.680786,2254,-10472,15854,-3540,-29321
226056,-10.8862,-16.1212,6.37383,-92.7246,-24.7632,-136.703,-35.5835,73.4253,-214.844,0.10437,-0.398285,0.602417,-0.683685,-10292,13080,-26642,-3540,-29321
226062,-12.7764,-13.0587,5.70391,-92.4829,-26.6254,-137.67,-26.5503,97.229,-202.637,0.0960999,-0.400543,0.600159,-0.685577,17356,-8425,-19218,-3540,-29321
226068,-13.5133,-11.3839,5.72305,-92.3126,-27.4713,-138.235,-26.7334,103.271,-191.101,0.0878296,-0.402222,0.597961,-0.687622,-19509,-30953,-14098,-3540,-29321
226074,-14.8292,-9.81914,7.02939,-92.1478,-28.2184,-138.862,-36.1328,111.023,-173.157,0.0798035,-0.403351,0.595947,-0.689697,10443,11031,-10514,-3540,-29321
226080,-19.1215,-10.1541,5.31152,-92.0325,-28.8831,-139.543,-52.124,119.812,-156.921,0.0719299,-0.403748,0.594543,-0.691528,-25142,-13546,-9490,-3540,-29321
226086,-23.3803,-12.0969,3.08164,-91.9391,-29.4653,-140.18,-54.4434,109.741,-143.494,0.0569153,-0.402924,0.593567,-0.694214,-25911,2838,-8722,-3540,-29321
226092,-27.1175,-15.9489,2.67012,-91.6699,-30.3662,-141.24,-23.6816,83.9233,-112.488,0.0508118,-0.402527,0.593262,-0.695221,7881,-21483,-8978,-3540,-29321
226098,-29.6584,-14.2933,2.46436,-91.4392,-30.6464,-141.663,-5.7373,68.2983,-90.0879,0.0458374,-0.401825,0.592499,-0.696594,-22584,20757,-11794,-3540,-29321
226104,-30.6394,-11.47,3.05293,-91.1865,-30.8112,-141.987,8.54492,49.8047,-68.3594,0.0423279,-0.40097,0.591583,-0.69809,13512,-2284,-15890,-3540,-29321
226110,-30.1608,-11.4365,4.59854,-90.9778,-30.8276,-142.218,9.09424,32.959,-41.9312,0.0402222,-0.400024,0.590637,-0.699585,-14649,-23788,-21778,-3540,-29321
226116,-26.2896,-12.3266,6.5748,-90.7855,-30.6738,-142.372,14.1602,18.6768,-8.30078,0.0400696,-0.397217,0.589996,-0.701721,-58,532,32238,-3557,-29319
226122,-23.8301,-15.2742,7.74238,-90.368,-29.8224,-142.575,27.2217,6.28662,64.5752,0.0421143,-0.394867,0.590302,-0.702637,-22842,-18925,27118,-3557,-29319
226128,-20.8968,-16.8868,8.1874,-90.0385,-29.1302,-142.668,47.1191,7.8125,98.0225,0.0455933,-0.391663,0.591034,-0.703613,21958,28947,21998,-3557,-29319
226134,-17.5807,-19.6383,11.3887,-89.5935,-28.2788,-142.773,68.9697,11.6577,131.042,0.0503845,-0.387512,0.591675,-0.705048,4038,12563,18158,-3557,-29319
226140,-14.4655,-16.2791,12.2069,-88.9178,-27.3175,-142.993,105.957,32.8369,153.687,0.056427,-0.382324,0.592194,-0.707001,-10555,-1518,14062,-3557,-29319
226146,28.5291,0.535937,6.74707,-88.374,-26.3013,-143.058,92.8955,8.30078,166.016,0.0707703,-0.369751,0.592072,-0.712463,-31803,-21486,6126,-3557,-29319
226152,10.4556,-3.5458,-1.47383,-87.7478,-23.7634,-143.734,-10.8643,136.23,222.839,0.0796204,-0.363251,0.593811,-0.71344,26309,-28398,1518,-3557,-29319
226158,-2.68926,-13.2214,4.03867,-87.5391,-22.4506,-144.102,4.08936,71.228,227.966,0.0838623,-0.352112,0.598328,-0.714752,21701,-31982,-3859,-3557,-29319
226164,5.67041,-10.5896,-2.36865,-87.6434,-21.1157,-144.047,-26.6724,-4.76074,236.023,0.0901184,-0.342804,0.602142,-0.715302,19141,-32750,-9235,-3557,-29319
226170,7.57012,-16.1834,5.93359,-87.561,-19.7864,-144.344,-13.4888,61.5234,235.474,0.0981445,-0.335815,0.606628,-0.713776,18885,-29934,-14867,-3557,-29319
226176,-5.16318,-11.5801,4.48848,-87.3798,-18.5229,-144.728,2.38037,79.1016,221.436,0.110229,-0.317444,0.614441,-0.713776,25285,-15342,-25875,-3557,-29319
226182,0.181836,-6.16328,3.50273,-86.9403,-16.0236,-144.921,21.2402,25.3296,221.802,0.117767,-0.309479,0.616577,-0.714203,30917,-5614,-30483,-3557,-29319
226188,-1.98105,-9.07744,3.6415,-86.8359,-14.7876,-145.085,3.96729,40.8325,219.604,0.125092,-0.301727,0.61911,-0.714081,-26427,6419,30701,-3557,-29319
226194,-4.36885,-13.3458,1.63174,-86.7371,-13.6176,-145.19,5.67627,30.7617,208.069,0.131653,-0.29364,0.622131,-0.713623,-15419,19475,27373,-3557,-29319
226200,-5.24932,-13.0874,2.39736,-86.5338,-12.5574,-145.316,27.4048,33.8745,187.744,0.138153,-0.286194,0.624847,-0.713074,-2107,-31469,24045,-3557,-29319
226206,-3.70371,-14.0923,-0.0334961,-86.402,-11.629,-145.41,14.5264,27.5269,161.011,0.149323,-0.272949,0.628265,-0.712982,28870,788,17133,-3557,-29319
226212,-0.583789,-10.5991,0.143555,-85.9625,-10.0031,-145.437,37.4756,7.50732,136.292,0.154541,-0.267548,0.628998,-0.713287,-19514,17684,13805,-3557,-29319
226218,0.421094,-10.7427,2.16768,-85.7648,-9.23401,-145.47,31.4331,16.2964,133.118,0.159698,-0.262665,0.629517,-0.713501,-3130,-31468,10477,-3557,-29319
226224,-1.79922,-10.5896,3.17734,-85.5176,-8.55286,-145.613,39.1235,37.3535,114.563,0.164398,-0.257629,0.630219,-0.713684,13767,-14572,5869,-3557,-29319
226230,-4.27793,-9.9627,2.60313,-85.2869,-7.88818,-145.789,34.4238,44.3115,109.741,0.16803,-0.252411,0.630554,-0.714386,30919,2837,2029,-3557,-29319
226236,-8.43623,-7.1873,-3.81377,-85.0177,-7.61902,-146.212,-13.4277,0.549316,34.3018,0.170746,-0.242767,0.630859,-0.716827,1480,-28395,-4116,-3548,-29320
226242,-0.942676,-14.0492,0.899609,-85.0122,-7.14111,-146.173,5.7373,-2.50244,21.4844,0.172302,-0.241272,0.631714,-0.716187,18632,-11499,-7188,-3548,-29320
226248,1.60781,-11.6279,2.37822,-84.787,-6.89941,-146.255,38.7573,20.3857,27.5269,0.173737,-0.240082,0.631805,-0.716156,-30264,3606,-9748,-3548,-29320
226254,-2.07197,-7.75674,3.26826,-84.5782,-6.67969,-146.426,33.2031,35.9497,22.3999,0.175049,-0.237823,0.631104,-0.717224,-14392,17686,-13588,-3548,-29320
226260,-3.36875,-7.86201,0.0717773,-84.5013,-6.48743,-146.53,8.48389,24.0479,18.7378,0.17572,-0.23526,0.630615,-0.718323,969,30486,-15636,-3548,-29320
226266,0.31582,-9.81914,2.45,-84.4409,-6.30615,-146.536,14.5264,4.88281,17.0898,0.17746,-0.232147,0.630798,-0.71875,29897,-12778,-18708,-3548,-29320
226272,-0.598145,-9.06787,2.43564,-84.2871,-5.95459,-146.591,6.89697,11.8408,17.5171,0.178558,-0.230896,0.630615,-0.719025,-22839,-2794,-19988,-3548,-29320
226278,-1.78008,-10.135,1.13408,-84.2487,-5.7843,-146.613,3.2959,8.17871,16.9678,0.179413,-0.229492,0.630707,-0.719208,-10295,6679,-21780,-3548,-29320
226284,-1.39727,-10.044,0.0430664,-84.1992,-5.63599,-146.607,6.04248,1.15967,14.4043,0.180298,-0.228241,0.63089,-0.719208,1482,15127,-23316,-3548,-29320
226290,-0.875684,-9.61338,0.129199,-84.1498,-5.49866,-146.602,6.71387,2.13623,11.5356,0.181305,-0.227295,0.63089,-0.719238,12746,23831,-24340,-3548,-29320
226296,-1.11973,-9.71387,0.712988,-84.1058,-5.37781,-146.607,10.437,1.40381,10.8032,0.182953,-0.225555,0.630859,-0.719421,-31030,-25577,-23316,-3548,-29320
226302,-1.11016,-8.70898,1.88057,-83.9685,-5.12512,-146.596,11.4136,1.95312,10.3149,0.183838,-0.224701,0.630707,-0.719604,-20534,-17641,-22292,-3548,-29320
226308,-0.636426,-8.1252,1.90928,-83.9301,-5.00977,-146.591,5.12695,1.0376,9.0332,0.184723,-0.223877,0.630493,-0.719818,-10294,-10217,-22036,-3548,-29320
226314,-0.598145,-9.48418,1.81357,-83.9136,-4.91089,-146.585,0.305176,2.0752,6.04248,0.185486,-0.223145,0.630493,-0.719849,-310,-3561,-21268,-3548,-29320
226320,-0.349316,-10.0297,1.07666,-83.9026,-4.8175,-146.574,-0.427246,-0.305176,5.7373,0.186096,-0.222504,0.630585,-0.719788,9675,2584,-21012,-3548,-29320
226326,-0.593359,-9.66123,1.11016,-83.8641,-4.63074,-146.591,2.01416,6.28662,6.10352,0.187286,-0.221405,0.630798,-0.719666,27339,13848,-20244,-3548,-29320
226332,-0.92832,-9.45547,1.49297,-83.8477,-4.53735,-146.596,0.854492,2.74658,6.16455,0.187744,-0.220673,0.630859,-0.719696,-29749,18968,-20756,-3548,-29320
226338,-0.363672,-9.37412,1.26807,-83.8477,-4.45496,-146.591,-2.13623,1.64795,5.67627,0.188263,-0.220093,0.630951,-0.719635,-21813,24344,-20500,-3548,-29320
226344,-0.311035,-9.77607,1.55518,-83.8422,-4.36707,-146.591,-2.19727,2.92969,5.92041,0.188782,-0.219574,0.631134,-0.719513,-14645,28696,-19988,-3548,-29320
226350,-0.339746,-10.1732,1.89014,-83.8422,-4.26819,-146.607,-2.01416,5.37109,7.99561,0.18927,-0.219025,0.631317,-0.719421,-53,-28904,-14868,-3557,-29319
226356,-1.42119,-9.00088,1.67002,-83.8147,-4.07593,-146.646,0.12207,4.76074,7.87354,0.190155,-0.21756,0.631683,-0.719299,6348,-25832,-10516,-3557,-29319
226362,-0.957031,-8.72334,1.804,-83.8202,-3.99353,-146.64,-3.54004,2.13623,6.7749,0.190643,-0.216919,0.631805,-0.719238,12748,-22760,-5908,-3557,-29319
226368,-0.105273,-10.1493,1.77529,-83.8531,-3.91113,-146.651,-8.91113,4.76074,6.65283,0.191101,-0.216431,0.632019,-0.719086,18892,-19944,-2580,-3557,-29319
226374,-0.957031,-9.63731,0.358887,-83.8477,-3.81775,-146.667,-1.52588,5.43213,8.17871,0.191467,-0.215881,0.632416,-0.718811,25036,-16872,-788,-3557,-29319
226380,-1.15801,-11.0346,2.26816,-83.8531,-3.72437,-146.662,-3.96729,1.89209,9.82666,0.191895,-0.21524,0.632599,-0.718719,-28724,-11496,2029,-3557,-29319
226386,-1.52168,-10.4364,0.430664,-83.8367,-3.54858,-146.64,-1.64795,-0.854492,7.93457,0.193024,-0.214142,0.632904,-0.718475,-23348,-8424,4333,-3557,-29319
226392,-0.411523,-10.7044,0.215332,-83.8202,-3.47168,-146.613,2.74658,-2.56348,7.69043,0.193604,-0.213715,0.633026,-0.718323,-17716,-5352,7661,-3557,-29319
226398,-1.02881,-10.5465,0.224902,-83.7872,-3.38928,-146.602,4.94385,0.427246,7.99561,0.194244,-0.213348,0.633026,-0.718292,-12084,-2536,12013,-3557,-29319
226404,-1.30635,-10.5991,0.947461,-83.7433,-3.30139,-146.574,8.30078,-2.0752,9.39941,0.194855,-0.21286,0.632965,-0.718292,-6196,-232,16109,-3557,-29319
226410,-0.875684,-9.51768,0.890039,-83.6774,-3.2135,-146.547,11.7798,-2.74658,9.8877,0.195587,-0.212372,0.632812,-0.718384,5837,3609,22509,-3557,-29319
226416,-0.531152,-10.0584,0.947461,-83.584,-3.0542,-146.492,7.99561,-1.95312,8.72803,0.197113,-0.211487,0.632324,-0.718658,11725,5145,24813,-3557,-29319
226422,-0.406738,-10.1206,0.803906,-83.5291,-2.96631,-146.459,11.1694,-3.54004,9.82666,0.197815,-0.211029,0.632172,-0.718719,17101,6937,27373,-3557,-29319
226428,-0.483301,-10.1397,1.44033,-83.4686,-2.88391,-146.437,11.4746,-1.0376,10.1318,0.198578,-0.210602,0.631927,-0.718872,22221,9241,29933,-3557,-29319
226434,-1.33506,-9.61816,1.51211,-83.4027,-2.79602,-146.42,12.2681,0.549316,10.9863,0.19931,-0.210114,0.631683,-0.719025,27597,11289,31213,-3557,-29319
226440,-1.15801,-9.66123,2.01934,-83.3478,-2.70264,-146.387,10.6201,-2.99072,11.4746,0.200012,-0.209503,0.631409,-0.719238,-27699,14873,-30483,-3557,-29319
226446,-0.712988,-10.068,1.37334,-83.2489,-2.52136,-146.354,7.38525,1.52588,12.207,0.201569,-0.208496,0.630981,-0.719452,-22067,16409,-28179,-3557,-29319
226452,-0.598145,-10.1828,0.880469,-83.194,-2.42798,-146.332,10.7422,-0.793457,12.8174,0.20224,-0.207916,0.63089,-0.719543,-16435,17689,-26643,-3557,-29319
226458,-0.923535,-9.93398,1.68438,-83.1281,-2.3291,-146.327,12.6953,2.13623,13.2446,0.203003,-0.207336,0.630707,-0.719666,-10803,18969,-25107,-3557,-29319
226464,-1.12451,-9.79521,1.4834,-83.0676,-2.23022,-146.31,11.7188,0.732422,13.4888,0.203705,-0.206665,0.630463,-0.719849,-5171,20249,-23571,-3557,-29319
226470,-0.502441,-9.98662,1.31113,-83.0017,-2.13684,-146.294,12.5122,-0.0610352,13.6108,0.204437,-0.206024,0.630249,-0.720032,-563,22041,-22291,-3557,-29319
226476,-0.957031,-9.89092,1.81836,-82.9303,-2.03796,-146.283,15.564,4.69971,13.5498,0.205933,-0.204773,0.62973,-0.720398,8910,25113,-18195,-3557,-29319
226482,-1.45469,-9.66602,1.84707,-82.7765,-1.8512,-146.283,14.5264,2.92969,12.9395,0.206604,-0.203979,0.629425,-0.720703,13774,26649,-16147,-3557,-29319
226488,-1.28242,-9.23535,2.0002,-82.6996,-1.76331,-146.272,14.8926,0.915527,12.085,0.207275,-0.203308,0.62912,-0.720978,18894,28441,-13843,-3557,-29319
226494,-1.0001,-9.3167,1.77051,-82.6392,-1.68091,-146.255,11.0474,0.915527,10.7422,0.207977,-0.202698,0.628784,-0.721222,24270,29721,-12307,-3557,-29319
226500,-0.679492,-10.0728,2.22988,-82.5787,-1.59851,-146.245,11.9629,0.549316,11.4136,0.208618,-0.202148,0.628571,-0.721405,-32050,-32743,-9491,-3557,-29319
226506,-1.18193,-9.82871,2.05283,-82.4414,-1.43921,-146.25,13.1226,4.82178,10.2539,0.209808,-0.200958,0.628052,-0.721832,-27442,-30951,-8211,-3557,-29319
226512,-1.21064,-9.45068,0.856543,-82.3865,-1.3678,-146.25,10.8643,2.74658,9.21631,0.210327,-0.200287,0.627777,-0.722107,-22834,-28903,-5907,-3557,-29319
226518,-0.870898,-9.86699,1.45947,-82.326,-1.30188,-146.239,11.5967,0.793457,8.72803,0.210846,-0.199738,0.627563,-0.72229,-18482,-27367,-3859,-3557,-29319
226524,-0.488086,-10.0536,1.62217,-82.2711,-1.23047,-146.234,10.437,2.01416,8.8501,0.211395,-0.19928,0.627289,-0.722504,-13618,-25831,-1299,-3557,-29319
226530,-0.947461,-10.6183,1.71309,-82.2107,-1.15906,-146.234,11.1084,4.27246,9.70459,0.211914,-0.198761,0.627075,-0.722656,-9010,-24551,238,-3557,-29319
226536,-0.693848,-10.4269,0.957031,-82.1338,-1.08215,-146.228,16.1743,1.2207,10.6812,0.212982,-0.197601,0.626495,-0.723175,-306,-22503,1262,-3557,-29319
226542,-0.669922,-10.2785,1.11494,-81.958,-0.928345,-146.195,18.0664,-0.793457,11.3525,0.213623,-0.197021,0.626099,-0.72348,4047,-21735,1006,-3557,-29319
226548,-0.478516,-10.6374,1.37334,-81.8646,-0.85144,-146.179,18.5547,0.244141,11.5356,0.214325,-0.196503,0.625641,-0.723816,8143,-20711,1006,-3557,-29319
226554,-0.736914,-10.891,1.07666,-81.7603,-0.76355,-146.162,21.6064,0.976562,13.7939,0.215027,-0.195923,0.625183,-0.724152,12751,-19687,1518,-3557,-29319
226560,-1.01924,-11.1016,0.645996,-81.6339,-0.670166,-146.146,25.2686,0.549316,14.8926,0.21579,-0.195251,0.624664,-0.724579,17359,-18919,1774,-3557,-29319
226566,-0.363672,-9.88613,1.30635,-81.3373,-0.477905,-146.074,30.0903,-2.62451,15.8691,0.217651,-0.193817,0.623199,-0.725647,26831,-16871,750,-3557,-29319
226572,-0.617285,-10.1254,1.40684,-81.2,-0.384521,-146.052,28.4424,0.12207,14.9536,0.218628,-0.193115,0.622406,-0.726227,31439,-15847,238,-3557,-29319
226578,-1.55039,-11.4604,1.88057,-81.0516,-0.285645,-146.025,30.2124,-1.28174,16.6016,0.219482,-0.192383,0.621674,-0.726776,-30257,-14567,238,-3557,-29319
226584,-1.81836,-10.6661,1.15801,-80.8649,-0.181274,-145.981,38.208,-4.02832,18.0054,0.220459,-0.19165,0.62088,-0.727386,-25905,-12519,-19,-3565,-29318
226590,-0.708203,-9.64688,1.67959,-80.6671,-0.0933838,-145.92,40.7104,-7.14111,15.9302,0.221619,-0.190857,0.619812,-0.728119,-16945,-7399,-2067,-3565,-29318
226596,-0.545508,-9.9627,2.97637,-80.3156,0.0878906,-145.827,35.0342,-2.86865,16.9067,0.223938,-0.189606,0.617554,-0.729645,-12337,-5095,-4883,-3565,-29318
226602,-1.3207,-10.8192,1.78965,-80.1562,0.186768,-145.794,32.8979,-1.64795,17.0898,0.224976,-0.188873,0.616577,-0.730347,-7985,-2791,-6931,-3565,-29318
226608,-1.26328,-10.0728,1.45469,-79.964,0.285645,-145.75,38.6963,-4.27246,17.334,0.225983,-0.18808,0.615692,-0.730988,-3633,-999,-8979,-3565,-29318
226614,-0.598145,-8.99609,3.35918,-79.7882,0.401001,-145.69,35.5835,-6.34766,21.3013,0.227112,-0.187347,0.614624,-0.73175,976,538,-10003,-3565,-29318
226620,0.736914,-8.92432,3.94775,-79.7168,0.527344,-145.64,14.8315,-3.54004,24.353,0.228394,-0.186584,0.613617,-0.732361,10448,4378,-13587,-3565,-29318
226626,-1.86621,-10.111,0.794336,-79.6124,0.818481,-145.624,11.4746,3.60107,25.3296,0.230408,-0.184814,0.613281,-0.732483,15568,6170,-15891,-3565,-29318
226632,-1.63174,-10.3886,1.86143,-79.5135,0.961304,-145.563,19.2871,-5.06592,27.6489,0.231323,-0.183868,0.61319,-0.732513,20176,7962,-18195,-3565,-29318
226638,-0.535937,-7.99121,1.62217,-79.4312,1.09314,-145.514,16.4795,-4.21143,25.3906,0.232635,-0.183075,0.612762,-0.732635,25040,10010,-20499,-3565,-29318
226644,-0.803906,-8.26396,3.54102,-79.3762,1.24146,-145.475,11.2915,0,26.8555,0.233826,-0.182343,0.612427,-0.732727,29904,11802,-21779,-3565,-29318
226650,-0.526367,-10.2259,2.77061,-79.3982,1.38428,-145.443,-3.96729,0.183105,27.6489,0.234894,-0.181488,0.612274,-0.732727,-24368,16666,-26131,-3565,-29318
226656,-1.17236,-11.8241,1.7083,-79.3707,1.73584,-145.382,4.3335,1.09863,34.2407,0.236938,-0.179779,0.612885,-0.731964,-18480,19226,-28435,-3565,-29318
226662,-0.789551,-9.89092,1.41162,-79.3103,1.92261,-145.322,11.8408,-3.96729,35.8276,0.238159,-0.178772,0.613037,-0.731689,-12336,21786,-30995,-3565,-29318
226668,0.062207,-9.64209,2.23945,-79.2828,2.10388,-145.278,5.61523,0.488281,35.4614,0.239624,-0.177826,0.612915,-0.731567,-6448,24602,32749,-3565,-29318
226674,-1.25371,-9.70908,2.74668,-79.2554,2.30713,-145.245,4.45557,2.0752,39.3677,0.240875,-0.176788,0.613007,-0.731323,-304,26906,30957,-3565,-29318
226680,-1.39248,-11.8289,2.15332,-79.2609,2.51587,-145.206,-1.34277,1.83105,40.4663,0.242218,-0.175629,0.61319,-0.731018,6609,28954,29165,-3565,-29318
226686,-1.16279,-10.178,2.11504,-79.2169,2.74109,-145.151,8.23975,-1.0376,44.2505,0.245178,-0.173248,0.613617,-0.730225,21713,-31974,29165,-3565,-29318
226692,-1.02402,-9.09658,2.13418,-79.129,3.18604,-145.047,8.60596,0.549316,44.1284,0.246765,-0.171997,0.613678,-0.729919,29649,-29926,30189,-3565,-29318
226698,-0.885254,-9.91006,1.99063,-79.129,3.40576,-145.003,-0.366211,1.52588,42.2363,0.248322,-0.170715,0.613739,-0.729645,-28719,-27622,30957,-3565,-29318
226704,-1.11494,-11.8193,2.4165,-79.118,3.64197,-144.954,2.01416,0.610352,47.7905,0.249695,-0.169556,0.614075,-0.729156,-21807,-25062,31213,-3565,-29318
226710,-1.45947,-11.1159,1.97148,-79.0796,3.90015,-144.888,7.01904,-1.09863,51.7578,0.251312,-0.168243,0.61438,-0.728668,-14127,-21990,30445,-3565,-29318
226716,-1.24414,-10.0249,1.95234,-79.0302,4.15833,-144.827,8.17871,1.70898,52.1851,0.254913,-0.165405,0.614594,-0.727905,2258,-16102,29677,-3565,-29318
226722,-1.56953,-10.513,2.4165,-78.9532,4.69116,-144.712,5.85938,-0.12207,55.3589,0.256653,-0.163879,0.614716,-0.727509,10962,-12518,28909,-3565,-29318
226728,-0.937891,-11.0441,1.97148,-78.9368,4.96033,-144.657,2.56348,0.305176,54.0771,0.258514,-0.162384,0.614929,-0.72702,19922,-9702,29677,-3565,-29318
226734,-1.53125,-12.4271,2.35908,-78.8873,5.26794,-144.591,8.8501,0.915527,62.0728,0.260315,-0.160919,0.615234,-0.72644,28114,-7398,29933,-3565,-29318
226740,-1.42598,-11.1686,1.59346,-78.8214,5.58105,-144.509,11.7798,-1.58691,64.5142,0.26239,-0.159149,0.615387,-0.725952,-28206,-5606,31213,-3565,-29318
226746,-1.96191,-11.0154,2.63662,-78.75,5.91064,-144.432,13.1226,-1.09863,66.8945,0.266907,-0.155548,0.615448,-0.725037,-9262,-486,-32275,-3565,-29318
226752,-1.95234,-12.9773,1.9332,-78.6786,6.64124,-144.283,4.15039,0.915527,76.355,0.269226,-0.153473,0.615692,-0.724426,1491,2843,-32019,-3565,-29318
226758,-1.16279,-12.7716,1.88535,-78.6072,7.03125,-144.179,12.3901,-3.23486,80.7495,0.271698,-0.151398,0.616058,-0.723602,12499,6427,-31507,-3565,-29318
226764,-0.722559,-11.9007,2.44043,-78.5138,7.43225,-144.086,16.4795,0.12207,83.5571,0.274445,-0.149261,0.61615,-0.722931,22995,9755,-30995,-3565,-29318
226770,-1.68916,-11.0394,2.68926,-78.4149,7.8717,-143.992,17.7002,1.28174,90.5762,0.277222,-0.146881,0.61618,-0.722351,-31533,12827,-31507,-3565,-29318
226776,-2.2251,-12.9199,2.26816,-78.3051,8.80005,-143.822,11.0474,3.11279,98.0225,0.28299,-0.141663,0.616577,-0.720795,-8237,17691,32749,-3565,-29318
226782,-1.86143,-12.7572,2.31602,-78.2227,9.28894,-143.718,14.0991,2.2583,101.929,0.286072,-0.138885,0.616882,-0.719879,4052,19739,29933,-3565,-29318
226788,-0.684277,-10.958,2.25859,-78.1293,9.78333,-143.646,16.7847,7.75146,101.501,0.289307,-0.135986,0.617065,-0.718964,16340,22299,27373,-3565,-29318
226794,-1.49297,-11.3839,2.38301,-78.0414,10.3052,-143.553,15.8691,5.85938,107.361,0.292358,-0.132935,0.617218,-0.71817,28884,24603,24301,-3565,-29318
226800,-1.55518,-11.5274,2.45957,-77.97,10.838,-143.47,11.4746,8.42285,109.924,0.29892,-0.126556,0.617767,-0.716156,-11052,29979,18413,-3565,-29318
226806,-1.30156,-13.3984,3.5458,-77.8436,11.9641,-143.317,12.0239,10.1318,120.361,0.302063,-0.123169,0.618225,-0.715027,2517,32539,15085,-3565,-29318
226812,-1.02881,-11.8815,3.04814,-77.7667,12.5739,-143.24,12.9395,12.8174,126.099,0.305573,-0.119629,0.618591,-0.713806,17109,-30949,13037,-3565,-29318
226818,-0.904395,-11.6901,3.03857,-77.7173,13.1781,-143.196,7.93457,20.3857,124.329,0.309174,-0.115814,0.618988,-0.712555,32725,-28645,10477,-3565,-29318
226824,-1.78486,-12.9534,3.4166,-77.6624,13.8318,-143.135,8.66699,18.6157,133.789,0.312469,-0.111908,0.619598,-0.711212,-16939,-26853,6637,-3565,-29318
226830,-2.28252,-12.7285,3.80898,-77.6129,14.5239,-143.064,7.56836,18.7988,142.334,0.319977,-0.103455,0.620819,-0.708069,15574,-23269,-788,-3565,-29318
226836,-1.28721,-13.9583,2.85674,-77.514,15.9796,-142.822,8.91113,20.3857,153.32,0.323853,-0.098999,0.621643,-0.706238,31958,-21221,-4116,-3565,-29318
226842,-0.334961,-13.1831,2.60313,-77.4701,16.7487,-142.679,4.5166,28.3203,157.654,0.328613,-0.0948486,0.622131,-0.704163,-17194,-19429,-8468,-3565,-29318
226848,-1.67959,-15.1067,3.04814,-77.4042,17.5562,-142.526,8.30078,27.6489,166.077,0.333221,-0.0903931,0.622864,-0.701935,-298,-17381,-13844,-3565,-29318
226854,-1.04316,-14.2358,1.98105,-77.3218,18.4076,-142.322,9.76562,21.4844,177.429,0.338104,-0.0856934,0.623444,-0.699677,18647,-16101,-19732,-3565,-29318
226860,-1.58867,-16.949,1.84707,-77.2723,19.2865,-142.147,12.146,28.5034,192.444,0.348694,-0.0758362,0.624695,-0.694458,-7465,-12517,-31764,-3565,-29318
226866,-0.846973,-16.8342,0.684277,-77.0856,21.1707,-141.751,8.54492,24.292,200.623,0.354218,-0.0703735,0.625214,-0.691803,13272,-11493,29676,-3565,-29318
226872,-2.1916,-18.5999,0.980957,-76.9482,22.1814,-141.553,19.3481,30.7007,210.571,0.360016,-0.0648804,0.625763,-0.688812,-30760,-10981,26092,-3565,-29318
226878,-2.47393,-17.9396,-0.631641,-76.778,23.2306,-141.306,22.3389,22.4609,220.581,0.365906,-0.0587463,0.626099,-0.685974,-8232,-10725,21740,-3565,-29318
226884,-1.59346,-18.4372,-0.29668,-76.5143,24.3237,-141.004,34.9121,15.564,233.398,0.372284,-0.0525818,0.62619,-0.682953,15065,-10981,16876,-3565,-29318
226890,-2.59834,-18.5186,-0.555078,-76.2341,25.4498,-140.707,47.8516,16.1133,249.512,0.386017,-0.0391846,0.625305,-0.677002,-2855,-11493,3820,-3565,-29318
226896,-2.60791,-18.5855,-0.933105,-75.52,27.8229,-140.004,49.3164,13.2446,259.949,0.39325,-0.0320129,0.624481,-0.673981,21466,-11237,-3861,-3565,-29318
226902,-2.70361,-20.7054,1.07666,-75.0861,29.0863,-139.592,56.8237,11.3525,273.071,0.400757,-0.0246277,0.623535,-0.670715,-18726,-11749,-12821,-3565,-29318
226908,-1.49775,-19.9206,1.13887,-74.6082,30.3937,-139.131,59.9976,7.93457,285.278,0.40863,-0.0168457,0.622314,-0.667358,7899,-13029,-21269,-3565,-29318
226914,-0.263184,-20.7293,2.74189,-74.1028,31.7505,-138.669,63.4155,13.855,294.922,0.41684,-0.00875854,0.62085,-0.663788,-293,-18405,26859,-3565,-29318
226920,-0.411523,-18.5616,2.23945,-73.0865,34.6893,-137.686,52.124,20.4468,326.843,0.433533,0.00891113,0.617767,-0.655945,30684,-22245,17131,-3565,-29318
226926,-0.559863,-18.131,2.73232,-72.5922,36.2549,-137.148,46.9971,24.4141,340.942,0.442291,0.0182495,0.616455,-0.651093,-4900,-26597,7403,-3565,-29318
226932,-3.83291,-17.7051,3.35439,-72.1912,37.8479,-136.648,29.9683,35.0952,343.994,0.451202,0.0279541,0.615265,-0.645721,26589,-32485,-4374,-3565,-29318
226938,-3.59365,-23.519,2.67969,-71.7188,39.4244,-135.956,18.9819,10.2539,350.098,0.459839,0.0376892,0.614655,-0.639679,-5667,26651,-18198,-3565,-29318
226944,2.21074,-24.5144,2.35908,-71.0651,41.0284,-135.198,43.8843,6.7749,359.924,0.469208,0.0466309,0.613739,-0.633148,-1570,10523,20202,-3565,-29318
226950,-3.88076,-22.629,3.51709,-69.5764,44.3573,-133.704,59.8145,10.498,376.953,0.487457,0.0669556,0.610138,-0.620911,-30753,1051,6122,-3565,-29318
226956,-0.832617,-18.9349,3.39268,-68.692,46.0492,-132.704,46.936,1.89209,387.39,0.496979,0.0773926,0.607666,-0.614532,4320,-8934,-6935,-3565,-29318
226962,-1.44033,-16.4227,2.13896,-67.8516,47.7521,-131.688,30.5786,9.33838,390.808,0.506897,0.0875549,0.605164,-0.607513,-25120,-21478,-19735,-3565,-29318
226968,-2.46914,-17.9061,1.58867,-66.9342,49.411,-130.507,17.4561,-5.00488,389.954,0.516602,0.0975952,0.603088,-0.599823,12513,30746,31721,-3565,-29318
226974,-1.00488,-22.0787,2.61748,-65.9125,51.037,-129.21,16.7847,-10.376,390.015,0.52652,0.106903,0.600922,-0.591705,25314,-487,4585,-3565,-29318
226980,1.54082,-24.0885,-0.870898,-64.7809,52.6575,-127.842,38.0859,-16.8457,390.991,0.546082,0.125336,0.595856,-0.575256,1251,-17639,-7960,-3565,-29318
226986,2.24424,-22.428,-1.14844,-61.9299,55.7336,-124.722,49.1943,-16.3574,379.639,0.555664,0.134735,0.592499,-0.567383,-24605,30233,-20760,-3565,-29318
226992,1.97627,-20.825,-1.73701,-60.2435,57.1619,-122.997,61.9507,-21.5454,372.375,0.564667,0.144073,0.588867,-0.559937,16100,10521,31720,-3565,-29318
226998,5.50771,-16.1116,-3.75156,-58.222,58.4637,-121.042,85.144,-39.917,362.427,0.573395,0.153351,0.584717,-0.552917,-8476,-10216,19176,-3565,-29318
227004,10.5896,-6.37383,-4.71816,-56.0413,59.5953,-119.097,114.014,-40.3442,333.069,0.58197,0.162476,0.579498,-0.546753,6630,7960,-9753,-3565,-29318
227010,5.79004,7.91943,-7.10596,-51.8665,61.5619,-115.746,144.836,-38.0249,284.241,0.594635,0.181335,0.569092,-0.538086,-19482,-17641,-26649,-3565,-29318
227016,-1.48818,28.1415,-2.39258,-50.2515,62.1002,-114.664,144.958,-9.8877,185.425,0.600372,0.189941,0.562927,-0.535248,19687,19991,21223,-3565,-29318
227022,-9.99619,24.4234,-3.85205,-49.6307,62.0618,-114.153,47.2412,-40.2222,61.1572,0.602997,0.196747,0.558289,-0.534668,-9241,-6890,4839,-3565,-29318
227028,-0.957031,10.4843,-1.97148,-49.4495,61.5399,-113.851,-3.2959,-89.2334,-24.7803,0.604309,0.197296,0.556183,-0.535217,27368,31510,-11802,-3565,-29318
227034,0.44502,7.68018,-2.47393,-49.9878,60.7599,-114.219,-30.7617,-74.3408,-106.079,0.605194,0.193268,0.554718,-0.53717,29417,-22507,19686,-3565,-29318
227040,6.93369,-2.39258,-0.14834,-51.9049,58.4033,-115.521,-74.1577,-101.99,-208.252,0.60202,0.177856,0.555817,-0.544861,-7447,19477,2534,-3565,-29318
227046,8.37881,-7.82852,-0.593359,-53.1189,57.1014,-116.466,-71.8384,-82.0923,-231.018,0.599243,0.167267,0.557098,-0.549927,16362,-492,-14875,-3565,-29318
227052,7.42656,-11.3073,-1.6126,-54.2615,55.7776,-117.4,-60.6689,-77.4536,-236.633,0.595306,0.156677,0.55896,-0.55545,-29974,-16108,-31515,-3548,-29320
227058,7.43613,-12.6041,-1.28721,-55.2612,54.4702,-118.257,-47.7905,-76.5381,-232.971,0.590881,0.146301,0.560669,-0.561249,-14102,-29420,18917,-3548,-29320
227064,7.37871,-12.3266,-0.492871,-56.1621,53.2123,-119.081,-35.8887,-67.627,-224.304,0.586304,0.136414,0.561951,-0.5672,3819,21524,-7452,-3548,-29320
227070,6.76621,-10.1541,-0.0334961,-57.6727,50.8777,-120.569,-19.3481,-54.3823,-201.111,0.576782,0.118744,0.563995,-0.578796,6123,18708,-19484,-3548,-29320
227076,7.09639,-9.02959,-0.172266,-58.3264,49.801,-121.262,-12.4512,-46.5698,-190.857,0.572021,0.11087,0.564789,-0.58429,4843,18452,-31004,-3548,-29320
227082,6.91934,-7.1873,-0.105273,-58.9362,48.7793,-121.948,-6.71387,-37.3535,-182.129,0.56723,0.103638,0.565491,-0.5896,-278,20756,24548,-3548,-29320
227088,6.66572,-5.56992,0.0574219,-59.5349,47.7905,-122.651,-3.96729,-28.6865,-178.345,0.562317,0.0969849,0.566193,-0.594727,-7446,25364,14308,-3548,-29320
227094,6.30205,-4.34492,0.105273,-60.1447,46.8182,-123.398,-1.70898,-18.7988,-180.115,0.55722,0.0907288,0.566956,-0.599762,-25110,-27628,-2333,-3548,-29320
227100,5.83311,-2.13896,-0.0717773,-61.4465,44.8187,-125.041,-2.31934,-2.86865,-195.496,0.545868,0.0787964,0.568939,-0.609924,29418,-19436,-9757,-3548,-29320
227106,5.64648,-1.03838,-0.200977,-62.1661,43.7476,-125.947,-6.46973,3.78418,-209.961,0.539459,0.0728149,0.570221,-0.615143,17386,-10476,-16925,-3548,-29320
227112,5.62734,-0.177051,-0.349316,-62.9517,42.6105,-126.914,-14.0991,9.64355,-226.807,0.53244,0.0665588,0.571777,-0.620514,4074,-1260,-23837,-3548,-29320
227118,5.79961,0.0143555,-0.708203,-63.8086,41.391,-127.925,-24.4751,14.5264,-244.629,0.52475,0.059845,0.573639,-0.626007,-10775,8725,-28957,-3548,-29320
227124,5.82354,-0.492871,-1.09102,-64.726,40.1001,-128.974,-35.3394,19.4092,-261.658,0.516388,0.0525818,0.575897,-0.631531,24297,29461,28387,-3548,-29320
227130,5.48379,-2.68447,-1.55996,-66.6595,37.3041,-131.116,-52.3682,26.2451,-288.757,0.497681,0.0365295,0.581421,-0.642517,7401,-24811,25827,-3548,-29320
227136,5.20147,-3.87119,-1.78486,-67.6428,35.8319,-132.166,-59.5703,28.0762,-297.607,0.487518,0.0278625,0.584503,-0.647919,-10776,-11499,22755,-3548,-29320
227142,4.50283,-5.06748,-1.84707,-68.6206,34.3158,-133.176,-66.3452,28.1982,-303.162,0.476959,0.0188904,0.587738,-0.653137,-31000,3094,19939,-3548,-29320
227148,4.16309,-6.24941,-1.99063,-69.5654,32.7832,-134.127,-70.8008,26.3062,-305.481,0.466187,0.00961304,0.591064,-0.658142,12264,18966,18403,-3548,-29320
227154,3.72285,-7.10596,-1.94277,-70.4718,31.2286,-135.022,-74.1577,24.5972,-305.908,0.444366,-0.0093689,0.597473,-0.667358,28903,-13290,17123,-3548,-29320
227160,2.20596,-7.89551,-1.94277,-72.1527,28.103,-136.593,-78.064,15.2588,-304.138,0.433502,-0.019043,0.600494,-0.67157,2791,4119,19683,-3548,-29320
227166,1.65566,-8.15391,-1.86143,-72.9272,26.5265,-137.263,-80.3223,8.78906,-303.345,0.42276,-0.0288696,0.603302,-0.675537,-24602,21783,22755,-3532,-29322
227172,1.14844,-8.76641,-1.60303,-73.6633,24.9445,-137.851,-83.0078,1.46484,-302.307,0.41217,-0.0389099,0.605927,-0.67923,11750,-25577,27875,-3532,-29322
227178,0.808691,-9.50811,-1.48818,-74.361,23.3514,-138.356,-84.8389,-6.83594,-301.514,0.401794,-0.0491333,0.608307,-0.682617,-18203,-7145,-30237,-3532,-29322
227184,0.502441,-9.93877,-1.22979,-75.0146,21.7584,-138.785,-85.4492,-15.0757,-300.598,0.381714,-0.0702515,0.612335,-0.68869,-12572,28952,-14621,-3532,-29322
227190,-0.181836,-10.3694,-0.488086,-76.2451,18.5449,-139.417,-90.9424,-32.2876,-300.598,0.372009,-0.0811768,0.613983,-0.691315,20964,-18920,-3613,-3532,-29322
227196,-0.44502,-10.8432,-0.191406,-76.8384,16.9299,-139.625,-94.2383,-40.2832,-300.537,0.362518,-0.0923462,0.615417,-0.693665,-13085,-1512,7140,-3532,-29322
227202,-0.722559,-11.0441,0.248828,-77.4207,15.304,-139.763,-98.2666,-49.3164,-302.49,0.353241,-0.10379,0.616669,-0.695709,15587,15897,18660,-3532,-29322
227208,-0.823047,-11.2451,0.933105,-78.0084,13.6615,-139.839,-103.882,-57.6782,-305.054,0.344177,-0.11557,0.617737,-0.697479,-23326,32281,30692,-3532,-29322
227214,-0.832617,-11.8098,1.6748,-78.6127,12.0026,-139.856,-110.352,-64.27,-308.777,0.326294,-0.140198,0.619476,-0.700012,27617,-2023,-8988,-3532,-29322
227220,-0.411523,-13.6616,2.8041,-79.8376,8.64624,-139.735,-118.652,-74.8291,-315.247,0.317444,-0.152954,0.620178,-0.700775,-13088,12570,5861,-3532,-29322
227226,-0.0717773,-14.7335,3.49316,-80.4529,6.95984,-139.625,-119.507,-75.9277,-317.444,0.308624,-0.165894,0.620697,-0.701324,10208,26650,21989,-3532,-29322
227232,0.220117,-15.4848,4.18701,-81.0626,5.27893,-139.499,-120.056,-75.0732,-317.749,0.299744,-0.178894,0.621002,-0.701691,32735,-25318,-26395,-3532,-29322
227238,0.200977,-16.193,4.71816,-81.6724,3.62,-139.373,-120.178,-71.5942,-316.101,0.290833,-0.191772,0.621185,-0.701904,-11554,-13542,-8987,-3532,-29322
227244,-0.244043,-16.7863,4.98613,-82.2876,1.98853,-139.246,-121.216,-67.9932,-313.293,0.272858,-0.216766,0.621216,-0.701813,30941,4635,28134,-3532,-29322
227250,-0.90918,-18.5377,5.29238,-83.4961,-1.18652,-138.972,-119.873,-61.7065,-306.274,0.263855,-0.228821,0.621124,-0.701508,-14116,11547,-18458,-3532,-29322
227256,-1.11973,-19.3942,5.24932,-84.0839,-2.7301,-138.834,-117.004,-58.0444,-301.392,0.254913,-0.24057,0.62088,-0.701111,5084,17691,999,-3532,-29322
227262,-1.49297,-20.1359,5.23975,-84.6552,-4.23523,-138.691,-113.708,-54.6265,-296.204,0.246033,-0.251923,0.620514,-0.700592,22235,22555,21735,-3532,-29322
227268,-1.85664,-20.9494,5.08662,-85.2045,-5.7019,-138.543,-109.253,-52.6123,-290.283,0.237244,-0.262878,0.620026,-0.700043,-27686,26651,-22041,-3532,-29322
227274,-2.17246,-21.7533,5.15361,-85.7318,-7.12463,-138.389,-104.004,-50.7202,-283.997,0.220245,-0.283722,0.6185,-0.698822,2265,29723,22248,-3532,-29322
227280,-2.46436,-21.538,5.29717,-86.7151,-9.86572,-138.082,-95.1538,-44.5557,-273.315,0.212036,-0.293579,0.617493,-0.698181,19416,29467,-21016,-3532,-29322
227286,-2.84238,-21.1743,5.5125,-87.182,-11.1951,-137.939,-93.1396,-40.7715,-270.447,0.203918,-0.30304,0.616364,-0.69754,-28969,27419,1257,-3540,-29321
227292,-3.22041,-20.8154,5.56514,-87.6544,-12.5134,-137.802,-93.0786,-36.7432,-269.165,0.195831,-0.312225,0.615143,-0.696899,-12842,23323,23529,-3540,-29321
227298,-3.50752,-20.8633,5.70391,-88.1268,-13.8263,-137.686,-94.2383,-31.189,-269.714,0.187683,-0.321136,0.613892,-0.696198,3030,16667,-18711,-3540,-29321
227304,-4.17744,-21.2987,5.98623,-88.5938,-15.1337,-137.593,-95.0317,-24.7192,-271.118,0.170807,-0.338257,0.611328,-0.694672,-31788,-486,25578,-3540,-29321
227310,-4.71338,-21.2652,6.12979,-89.4891,-17.7704,-137.494,-92.5903,-8.60596,-276.428,0.162018,-0.346436,0.609924,-0.69397,-14637,-10470,-18710,-3540,-29321
227316,-5.19189,-21.4614,6.22549,-89.8956,-19.1107,-137.51,-89.4775,0.854492,-280.823,0.152954,-0.354309,0.608429,-0.693359,2515,-21734,1771,-3540,-29321
227322,-5.53643,-21.069,6.31162,-90.2692,-20.4675,-137.56,-85.4492,10.498,-285.889,0.143555,-0.361938,0.60675,-0.692932,19154,30746,21995,-3540,-29321
227328,-5.83311,-21.093,6.45518,-90.6042,-21.8408,-137.67,-82.8857,21.6675,-290.283,0.13382,-0.369263,0.604828,-0.692688,-29999,16154,-24085,-3540,-29321
227334,-6.66094,-21.4471,6.41211,-90.8899,-23.2196,-137.84,-77.7588,33.9966,-292.603,0.113312,-0.382782,0.600494,-0.69278,3536,-18151,9708,-3540,-29321
227340,-7.58926,-21.1313,6.23506,-91.2634,-25.9717,-138.384,-66.1621,59.7534,-292.358,0.102661,-0.388824,0.597992,-0.693237,22479,29209,25324,-3540,-29321
227346,-8.28789,-20.8298,5.97188,-91.3623,-27.323,-138.757,-61.5234,71.106,-289.368,0.0918274,-0.394318,0.595306,-0.693939,-23858,8729,-27412,-3540,-29321
227352,-9.04395,-20.5618,5.479,-91.3953,-28.6414,-139.202,-56.4575,83.0078,-283.875,0.0808716,-0.399261,0.59256,-0.694855,-4659,-13800,-15124,-3540,-29321
227358,-10.0728,-19.8249,5.17754,-91.3458,-29.9213,-139.724,-49.3774,94.2383,-276.978,0.0698853,-0.403595,0.589691,-0.695953,15309,27160,-5140,-3540,-29321
227364,-12.5897,-15.7097,6.57959,-91.2195,-31.1407,-140.306,-44.0674,111.328,-250.671,0.0483093,-0.410309,0.58371,-0.698914,-10037,-26601,9197,-3540,-29321
227370,-16.0733,-15.3843,5.49336,-90.8899,-33.3215,-141.663,-51.8799,119.141,-234.131,0.0379028,-0.412598,0.580963,-0.7005,10955,9751,12781,-3540,-29321
227376,-19.7771,-16.8581,3.5458,-90.7141,-34.2719,-142.361,-50.5981,114.99,-217.896,0.0276794,-0.414124,0.578735,-0.701904,-30774,-18410,15853,-3540,-29321
227382,-22.3036,-17.7673,1.98105,-90.4944,-35.1233,-143.009,-38.4521,104.187,-200.256,0.018158,-0.415283,0.576752,-0.703186,-5431,16918,17389,-3540,-29321
227388,-25.0838,-16.9873,1.21543,-90.2197,-35.8594,-143.597,-20.0195,92.041,-179.321,0.00967407,-0.416199,0.574677,-0.704468,20681,-14059,16621,-3540,-29321
227394,-29.5436,-11.9198,1.21064,-89.9286,-36.4691,-144.108,-3.96729,59.6313,-133.484,-0.00332642,-0.417419,0.570251,-0.707428,12232,-11244,10733,-3540,-29321
227400,-30.5245,-9.13008,2.11504,-89.5166,-37.2931,-144.8,-9.8877,40.3442,-106.75,-0.00787354,-0.417847,0.56842,-0.708618,-22585,23828,5357,-3565,-29318
227406,-30.6681,-7.40742,3.2252,-89.5056,-37.4799,-144.965,-23.8647,20.752,-77.8198,-0.0111694,-0.418121,0.567261,-0.709351,10439,-4333,237,-3565,-29318
227412,-29.778,-7.80459,4.25879,-89.6375,-37.5128,-145.02,-39.4897,2.62451,-47.7295,-0.0133362,-0.418213,0.567108,-0.709351,-20538,-31981,-6164,-3565,-29318
227418,-27.9884,-9.38369,4.86172,-89.8682,-37.392,-144.987,-47.9736,-11.7188,-18.8599,-0.0143433,-0.418091,0.568024,-0.708679,16326,5907,-12820,-3565,-29318
227424,-23.7248,-12.3696,5.50293,-90.1318,-37.1448,-144.877,-39.6118,-32.2876,29.9683,-0.01297,-0.416901,0.571899,-0.706268,29637,19218,-28692,-3565,-29318
227430,-21.2461,-13.14,5.43594,-90.6042,-36.3153,-144.525,-25.6348,-38.3301,47.5464,-0.0106506,-0.415863,0.57428,-0.705017,7109,-4591,30444,-3565,-29318
227436,-19.2794,-13.2645,5.09619,-90.7251,-35.788,-144.311,-7.56836,-41.3818,61.9507,-0.00738525,-0.41452,0.576508,-0.70401,-13372,-25327,25836,-3565,-29318
227442,-17.4419,-12.6567,4.72773,-90.7635,-35.2002,-144.102,10.0708,-42.2363,72.5708,-0.00326538,-0.412964,0.57843,-0.7034,-31036,21777,21996,-3565,-29318
227448,-16.2217,-11.8433,4.1248,-90.7306,-34.574,-143.893,23.1934,-42.0532,81.604,0.00149536,-0.411133,0.579987,-0.703217,19140,5649,19948,-3565,-29318
227454,-11.7476,-32.2472,7.24473,-91.0162,-33.7555,-143.492,100.098,-59.5093,143.311,0.0133057,-0.407013,0.584503,-0.701721,-4157,-18672,18924,-3565,-29318
227460,-10.5465,-21.0212,8.93389,-89.9396,-31.8219,-143.064,145.935,-26.3672,160.583,0.0222473,-0.4039,0.584442,-0.703339,-13629,-27376,19948,-3565,-29318
227466,-6.63701,3.97168,-1.94277,-89.0442,-30.8881,-142.954,183.655,-21.8506,147.4,0.0316772,-0.399261,0.583221,-0.706635,-20797,32272,21996,-3565,-29318
227472,-1.0001,6.13936,0.775195,-88.5608,-30.0146,-142.817,103.76,-26.4282,134.338,0.0411987,-0.394684,0.580536,-0.710907,-26685,27920,24044,-3565,-29318
227478,20.7149,-40.5016,19.3942,-89.1815,-28.9545,-142.048,-55.9692,-134.766,177.673,0.0490723,-0.390686,0.580048,-0.713013,-30525,25872,27116,-3565,-29318
227484,16.949,-13.609,-2.50264,-89.1101,-26.4056,-141.998,-18.4326,54.9927,238.281,0.0676575,-0.384979,0.58783,-0.708221,-32061,29200,32492,-3565,-29318
227490,6.8332,-9.59902,2.70361,-88.8519,-25.0159,-142.031,40.7104,8.36182,249.146,0.0743103,-0.376282,0.592804,-0.708069,-30013,-30960,-28948,-3565,-29318
227496,10.5082,-4.98613,3.55059,-88.9673,-23.5327,-141.96,-25.0854,-9.8877,269.104,0.0834045,-0.36853,0.595886,-0.708557,-26685,-22768,-25364,-3565,-29318
227502,5.61299,-10.8767,0.172266,-89.0607,-22.0221,-142.163,-42.6025,40.7104,274.841,0.0924988,-0.361084,0.601105,-0.706848,-20541,-12016,-22292,-3565,-29318
227508,-0.272754,-15.3556,0.368457,-89.0167,-20.495,-142.339,-11.0474,37.0483,280.64,0.100098,-0.35199,0.607025,-0.705322,-6461,13329,-17684,-3548,-29320
227514,-2.88066,-9.27363,4.08174,-88.5114,-17.5671,-142.762,41.0156,53.1006,261.841,0.116943,-0.333374,0.615784,-0.704193,4292,29201,-15380,-3548,-29320
227520,-6.97676,-7.43135,3.43096,-88.3301,-16.2158,-142.938,18.8599,40.1001,247.742,0.124908,-0.323822,0.618652,-0.704773,17092,-18415,-11540,-3557,-29319
227526,-5.8666,-11.939,2.64619,-88.2422,-14.9524,-143.015,6.83594,22.7661,230.408,0.132477,-0.315125,0.621826,-0.704529,32708,1298,-7444,-3557,-29319
227532,-4.66074,-15.9059,0.617285,-88.1213,-13.8153,-143.097,12.8174,23.3154,206.116,0.139771,-0.307495,0.624969,-0.703705,-15420,23058,-4372,-3557,-29319
227538,-4.41191,-15.2599,1.30635,-87.8851,-12.7936,-143.174,38.0859,21.9116,184.082,0.146362,-0.300476,0.627533,-0.703125,20165,275,237,-3557,-29319
227544,-1.80879,-14.0014,0.110059,-87.4127,-11.0577,-143.355,44.3726,31.0669,145.63,0.158112,-0.288055,0.630249,-0.703339,-25659,22803,1005,-3557,-29319
227550,-0.76084,-11.9103,0.378027,-87.1161,-10.2722,-143.438,50.7812,23.9258,138.672,0.162933,-0.282288,0.630981,-0.703949,-5435,-19949,2029,-3557,-29319
227556,0.598145,-10.5656,1.52646,-86.814,-9.51416,-143.569,51.6968,35.3394,133.423,0.167786,-0.276886,0.631317,-0.70462,15046,3092,2285,-3557,-29319
227562,-1.44512,-11.8002,2.31602,-86.5283,-8.78906,-143.795,45.7153,54.1382,125.854,0.17215,-0.271271,0.631653,-0.705475,-29498,25876,2029,-3557,-29319
227568,-2.64619,-10.7283,1.22021,-86.2207,-8.13538,-144.031,50.1099,56.9458,111.877,0.175629,-0.26535,0.632141,-0.70639,12231,2325,2541,-3557,-29319
227574,-13.3937,-4.6751,-3.11035,-85.7208,-7.3114,-144.608,31.5552,45.2271,29.541,0.180359,-0.253784,0.63269,-0.708984,-32313,22037,2797,-3557,-29319
227580,-4.76123,-8.66592,0.555078,-85.7648,-7.08069,-144.514,-10.5591,-13.7939,30.5786,0.180969,-0.250854,0.632477,-0.710052,-11321,-24555,2541,-3557,-29319
227586,0.894824,-12.8912,0.985742,-85.6714,-6.86096,-144.514,15.0146,4.82178,27.4658,0.18277,-0.250061,0.633087,-0.70932,9160,-5867,1517,-3557,-29319
227592,1.23936,-11.2834,2.29688,-85.4626,-6.61926,-144.646,36.1328,30.6396,31.4941,0.184235,-0.248596,0.633026,-0.709534,28872,12054,-1300,-3557,-29319
227598,-1.3877,-7.56533,0.559863,-85.2594,-6.39404,-144.789,34.4238,33.4473,26.9165,0.185303,-0.246094,0.632538,-0.710541,457,-21482,-7700,-3557,-29319
227604,0.46416,-10.5369,1.10059,-85.0616,-6.00403,-144.849,18.9209,5.79834,24.6582,0.187073,-0.241974,0.63208,-0.711884,16841,-6378,-12052,-3557,-29319
227610,0.669922,-9.19229,1.85186,-84.9243,-5.81177,-144.904,23.5596,15.3198,23.0103,0.188416,-0.240601,0.631866,-0.712219,32713,7703,-16404,-3557,-29319
227616,-1.17715,-8.24482,1.96191,-84.809,-5.63599,-144.981,18.9209,20.5078,20.6909,0.189453,-0.238953,0.631561,-0.712769,-17975,20759,-19220,-3557,-29319
227622,-2.32559,-8.47451,0.961816,-84.743,-5.48767,-145.02,10.1929,12.085,15.0757,0.190216,-0.237244,0.631409,-0.713287,-3639,32279,-21780,-3557,-29319
227628,-1.07666,-8.84775,0.91875,-84.6881,-5.3833,-144.998,9.0332,-1.15967,8.91113,0.190948,-0.236053,0.631378,-0.713501,24010,-13545,-23316,-3557,-29319
227634,-0.47373,-9.64688,2.02412,-84.6002,-5.16907,-144.981,7.08008,6.28662,9.64355,0.192657,-0.234894,0.631165,-0.713593,-28982,-4841,-24084,-3557,-29319
227640,-1.86621,-9.18272,0.885254,-84.5563,-5.07568,-144.987,6.40869,5.00488,6.28662,0.193329,-0.23407,0.631134,-0.713715,-16438,3864,-23316,-3557,-29319
227646,-1.42598,-9.29277,1.65566,-84.5178,-4.99329,-144.959,6.34766,-1.89209,4.3335,0.193878,-0.233398,0.631073,-0.713837,-4918,11800,-22036,-3557,-29319
227652,-0.31582,-9.21621,0.990527,-84.4904,-4.93835,-144.937,2.99072,-1.34277,0.610352,0.19458,-0.233002,0.630951,-0.713898,6347,19224,-20756,-3557,-29319
227658,-0.100488,-10.0584,1.56475,-84.4794,-4.87793,-144.921,0.915527,-0.12207,1.15967,0.195099,-0.232727,0.63089,-0.713898,26827,32280,-17684,-3557,-29319
227664,-0.880469,-10.0823,1.43076,-84.4135,-4.74609,-144.893,6.53076,0.427246,2.86865,0.196045,-0.232056,0.630859,-0.713867,-28981,-27624,-16660,-3557,-29319
227670,-0.564648,-9.92441,1.66523,-84.3915,-4.68018,-144.866,3.60107,-2.2583,3.72314,0.196594,-0.231689,0.630707,-0.713959,-19765,-21992,-15892,-3557,-29319
227676,0.0143555,-10.3886,1.84229,-84.375,-4.60876,-144.838,1.83105,-1.58691,5.37109,0.197205,-0.231384,0.630646,-0.713959,-10805,-17384,-14612,-3557,-29319
227682,-0.880469,-10.1015,1.46904,-84.3365,-4.52637,-144.838,5.24902,2.92969,6.16455,0.197815,-0.231049,0.630646,-0.713898,-2101,-13032,-13588,-3557,-29319
227688,-1.75615,-9.27842,1.94756,-84.3036,-4.44397,-144.811,5.31006,-1.52588,7.08008,0.198364,-0.23053,0.630585,-0.713959,13516,-5608,-11284,-3557,-29319
227694,-0.401953,-9.49375,1.95713,-84.2926,-4.30115,-144.756,-2.44141,-0.0610352,4.76074,0.199738,-0.229828,0.630524,-0.713867,20684,-2280,-10516,-3557,-29319
227700,-0.933105,-8.82383,0.818262,-84.2871,-4.22424,-144.734,-0.915527,-0.183105,6.34766,0.200256,-0.229492,0.630646,-0.713745,27596,1049,-9236,-3557,-29319
227706,-0.650781,-10.7475,2.24424,-84.3036,-4.15833,-144.701,-4.76074,-3.11279,5.18799,0.200806,-0.229156,0.630737,-0.713593,-31540,4633,-8468,-3557,-29319
227712,-0.861328,-9.37412,0.947461,-84.3036,-4.09241,-144.69,-1.77002,0.610352,5.18799,0.201355,-0.228943,0.63089,-0.713348,-25396,7705,-7444,-3557,-29319
227718,-1.28242,-10.8671,1.72744,-84.3201,-4.02649,-144.668,-5.31006,-0.915527,4.63867,0.202301,-0.228394,0.631226,-0.713013,-13876,13337,-5140,-3557,-29319
227724,-0.344531,-10.4269,1.56475,-84.3256,-3.90564,-144.602,-3.54004,-0.549316,4.39453,0.202911,-0.228271,0.631256,-0.71283,-7988,15897,-2836,-3557,-29319
227730,-1.04316,-10.1302,0.966602,-84.3201,-3.84521,-144.564,0.12207,-3.35693,5.24902,0.203369,-0.228027,0.631409,-0.712646,-2612,18201,237,-3557,-29319
227736,-0.832617,-9.88135,1.44033,-84.3146,-3.7793,-144.525,-0.732422,-4.08936,5.98145,0.203949,-0.227814,0.631409,-0.712524,2765,20505,2541,-3557,-29319
227742,-1.06709,-9.56074,0.890039,-84.3146,-3.71887,-144.498,-1.40381,-2.44141,4.82178,0.204559,-0.227631,0.63147,-0.712372,8141,22297,6125,-3557,-29319
227748,-0.90918,-9.93877,0.669922,-84.3256,-3.66394,-144.448,-2.2583,-6.34766,5.24902,0.205719,-0.227356,0.631592,-0.712006,18637,24857,11501,-3557,-29319
227754,-0.349316,-10.379,1.01445,-84.3036,-3.5376,-144.377,2.74658,-0.793457,6.22559,0.206329,-0.227264,0.631622,-0.711823,24781,25625,13805,-3557,-29319
227760,-1.34941,-10.1445,1.32549,-84.2761,-3.46619,-144.36,4.3335,0.732422,7.44629,0.206879,-0.22699,0.631622,-0.711792,30669,26649,15853,-3557,-29319
227766,-1.54082,-9.75215,0.803906,-84.2542,-3.40576,-144.327,4.15039,-2.19727,6.5918,0.207428,-0.226593,0.631561,-0.711792,-28467,27673,17133,-3557,-29319
227772,-0.789551,-9.9292,1.11494,-84.2267,-3.34534,-144.289,4.57764,-4.57764,5.5542,0.208038,-0.226318,0.63147,-0.711761,-22835,29209,20205,-3557,-29319
227778,-0.497656,-10.2594,0.980957,-84.1992,-3.27942,-144.261,4.08936,-1.40381,7.20215,0.209259,-0.22583,0.631287,-0.711731,-12851,30233,25837,-3557,-29319
227784,-1.10059,-10.2115,1.19629,-84.1113,-3.12561,-144.223,9.76562,-0.305176,9.8877,0.209839,-0.225403,0.631195,-0.711792,-8755,31513,28909,-3557,-29319
227790,-0.650781,-9.68037,1.2585,-84.0564,-3.04871,-144.19,10.6201,-2.74658,9.58252,0.210541,-0.224945,0.630981,-0.711914,-4147,32537,30957,-3557,-29319
227796,-0.105273,-9.51289,1.80879,-83.996,-2.9718,-144.163,10.8643,-1.46484,10.0708,0.211304,-0.224548,0.630737,-0.712036,-51,-31463,32749,-3557,-29319
227802,-0.354102,-9.47461,2.14375,-83.941,-2.8894,-144.146,10.2539,1.40381,10.5591,0.212036,-0.224121,0.630493,-0.712158,4558,-29927,-30739,-3557,-29319
227808,-1.16758,-9.48418,1.78486,-83.8861,-2.8125,-144.135,9.70459,2.01416,10.1318,0.212677,-0.223602,0.63028,-0.712311,13518,-27367,-25875,-3557,-29319
227814,-0.660352,-9.08701,1.90928,-83.7927,-2.66418,-144.08,6.95801,-1.70898,8.42285,0.213989,-0.222656,0.629852,-0.712616,18126,-26855,-22547,-3557,-29319
227820,-0.200977,-9.63731,1.6126,-83.7598,-2.60376,-144.064,4.76074,0.12207,7.62939,0.21463,-0.222321,0.6297,-0.712646,22222,-25831,-19219,-3557,-29319
227826,-0.31582,-9.83828,1.64609,-83.7323,-2.53235,-144.047,5.18799,1.0376,8.48389,0.215149,-0.221954,0.629608,-0.712677,26574,-24295,-16403,-3557,-29319
227832,-0.545508,-9.62773,1.43555,-83.6993,-2.46094,-144.036,4.5166,1.34277,8.8501,0.215698,-0.221558,0.629547,-0.712708,31182,-23015,-13843,-3557,-29319
227838,-0.77998,-9.74258,1.4499,-83.6719,-2.39502,-144.025,4.3335,1.89209,8.78906,0.216217,-0.221161,0.629486,-0.712708,-25906,-20967,-10003,-3557,-29319
227844,-0.239258,-10.1158,0.502441,-83.6334,-2.26318,-143.987,2.38037,-0.0610352,7.8125,0.217255,-0.220367,0.629395,-0.712708,-21810,-20199,-7443,-3557,-29319
227850,-0.540723,-10.7762,0.693848,-83.6005,-2.19727,-143.976,5.98145,2.2583,8.36182,0.217773,-0.220062,0.629395,-0.712677,-17970,-18919,-4883,-3557,-29319
227856,-0.832617,-10.245,0.827832,-83.54,-2.13135,-143.965,11.1084,1.83105,9.27734,0.218231,-0.219635,0.629303,-0.712708,-13618,-17639,-2835,-3557,-29319
227862,-0.890039,-9.58467,1.40684,-83.4796,-2.05444,-143.954,11.3525,2.19727,9.82666,0.218811,-0.219177,0.629089,-0.712891,-9778,-16359,-1043,-3565,-29318
227868,-0.775195,-9.53203,1.58867,-83.4357,-1.98303,-143.937,8.97217,0.488281,10.0708,0.219391,-0.218658,0.628845,-0.713104,-562,-14567,750,-3557,-29319
227874,-0.401953,-10.3886,1.43555,-83.3368,-1.83472,-143.904,10.9863,2.74658,10.7422,0.220612,-0.217834,0.62851,-0.713257,4303,-13799,2542,-3557,-29319
227880,-0.961816,-9.85264,1.31592,-83.2654,-1.75781,-143.899,14.0381,3.17383,11.0474,0.221191,-0.217316,0.628296,-0.71344,8911,-12775,5102,-3557,-29319
227886,-0.693848,-9.42197,1.45947,-83.1885,-1.6864,-143.882,14.5264,0.427246,10.2539,0.221802,-0.216705,0.627991,-0.713684,13263,-11495,8430,-3557,-29319
227892,-0.76084,-9.29277,1.80879,-83.1226,-1.62048,-143.866,12.6953,0.915527,9.33838,0.222443,-0.216248,0.627655,-0.713928,17359,-10471,11758,-3557,-29319
227898,-0.741699,-9.63252,1.81357,-83.0566,-1.54907,-143.849,12.207,0.915527,10.2539,0.223053,-0.21579,0.62735,-0.714142,24783,-7655,17646,-3557,-29319
227904,-1.44033,-9.81914,1.57432,-82.9468,-1.41174,-143.844,9.46045,4.3335,9.27734,0.224213,-0.214783,0.626831,-0.714539,28111,-5863,17902,-3557,-29319
227910,-2.1916,-9.80479,1.31113,-82.8864,-1.34583,-143.828,11.4746,1.2207,9.27734,0.22467,-0.214264,0.626678,-0.714691,30927,-3815,19182,-3557,-29319
227916,-0.91875,-9.8335,1.39727,-82.8314,-1.2854,-143.806,10.8032,-0.427246,7.8125,0.22525,-0.213806,0.626404,-0.714874,-30769,-1767,19182,-3557,-29319
227922,-0.387598,-9.64209,1.52646,-82.7765,-1.22498,-143.773,10.8643,-2.56348,8.11768,0.22583,-0.21344,0.626129,-0.715057,-26929,282,19182,-3557,-29319
227928,0.186621,-10.3551,1.27764,-82.7325,-1.17004,-143.767,8.60596,2.0752,7.56836,0.22644,-0.213135,0.625854,-0.715179,-18481,4378,21742,-3557,-29319
227934,-0.880469,-10.0632,1.51689,-82.5897,-1.02722,-143.751,15.1367,3.23486,10.8032,0.227478,-0.212219,0.625397,-0.715546,-14129,6426,21742,-3557,-29319
227940,-0.808691,-9.65645,1.18193,-82.5128,-0.955811,-143.74,14.7095,1.83105,10.1929,0.228058,-0.211639,0.625031,-0.71582,-10801,8730,22766,-3557,-29319
227946,-0.526367,-10.068,1.11016,-82.4524,-0.889893,-143.729,12.3901,1.95312,9.94873,0.228638,-0.211151,0.624695,-0.716095,-7729,10522,22766,-3557,-29319
227952,-1.26328,-10.3024,1.49775,-82.381,-0.818481,-143.712,13.6108,1.15967,10.2539,0.229218,-0.210663,0.62442,-0.716278,-4401,12058,23790,-3557,-29319
227958,-1.27285,-10.2594,1.33027,-82.3096,-0.741577,-143.69,14.7095,0.0610352,11.4136,0.229797,-0.210175,0.624115,-0.716522,2256,14874,28910,-3557,-29319
227964,-0.90918,-9.70908,1.92842,-82.1283,-0.593262,-143.608,18.0664,-4.08936,12.085,0.231323,-0.209259,0.623291,-0.71701,6096,16410,32238,-3557,-29319
227970,-0.421094,-9.74736,1.55996,-82.0459,-0.521851,-143.569,16.3574,-3.2959,11.5967,0.232147,-0.208832,0.622803,-0.717285,10192,17690,-29458,-3557,-29319
227976,-0.746484,-10.2785,1.92363,-81.969,-0.450439,-143.536,15.1367,-2.0752,11.7188,0.232941,-0.208435,0.622375,-0.717529,13776,19738,-27154,-3565,-29318
227982,-1.18193,-10.3694,1.36377,-81.8811,-0.362549,-143.498,17.7002,-2.13623,14.4043,0.233673,-0.208008,0.621979,-0.717743,18128,21530,-25362,-3565,-29318
227988,-1.29199,-10.6135,0.92832,-81.7822,-0.274658,-143.459,20.4468,-3.23486,14.3433,0.234528,-0.207458,0.621552,-0.717987,26064,26138,-23058,-3565,-29318
227994,-0.6125,-9.92441,1.44033,-81.557,-0.109863,-143.355,22.2778,-5.31006,14.5874,0.23642,-0.206482,0.620392,-0.718658,30160,28442,-21522,-3565,-29318
228000,-0.976172,-11.2212,1.69395,-81.4526,-0.0219727,-143.306,21.1182,-4.94385,15.4419,0.237396,-0.205994,0.619781,-0.718994,-31024,31002,-19218,-3565,-29318
228006,-1.37813,-11.5131,0.722559,-81.3208,0.0714111,-143.262,27.0386,-3.05176,17.9443,0.238373,-0.205505,0.619232,-0.719299,-26416,-31974,-17938,-3565,-29318
228012,-1.63652,-11.6088,0.382812,-81.156,0.181274,-143.201,33.9966,-6.53076,19.4092,0.239441,-0.204834,0.61853,-0.719727,-22064,-29158,-17426,-3565,-29318
228018,-0.890039,-10.9006,1.32549,-80.9637,0.280151,-143.119,39.1846,-10.9863,19.043,0.240692,-0.204132,0.617584,-0.720306,-11824,-24038,-18450,-3565,-29318
228024,-0.607715,-11.1542,1.89492,-80.5682,0.505371,-142.976,39.856,-5.92041,21.3013,0.24353,-0.20285,0.615295,-0.72171,-6192,-21478,-21010,-3565,-29318
228030,-0.995313,-11.9916,1.23936,-80.3485,0.626221,-142.91,45.0439,-7.38525,23.0103,0.244873,-0.202057,0.614197,-0.722412,-304,-19174,-22290,-3565,-29318
228036,-0.703418,-11.6375,0.732129,-80.0903,0.741577,-142.828,52.9785,-9.46045,23.2544,0.246338,-0.201202,0.612946,-0.723206,5841,-17382,-23826,-3565,-29318
228042,-0.650781,-11.2116,1.69395,-79.8047,0.86792,-142.74,58.8989,-10.1929,25.1465,0.247925,-0.200317,0.61142,-0.724213,11985,-15590,-26386,-3565,-29318
228048,0.0526367,-11.2595,2.62227,-79.5245,1.01074,-142.646,57.1289,-10.7422,27.9541,0.249634,-0.199341,0.609711,-0.725311,24785,-11750,-30994,-3565,-29318
228054,1.05273,-11.1733,5.02441,-79.2059,1.4447,-142.487,25.2686,-1.2207,49.3774,0.253357,-0.197205,0.607086,-0.726807,31185,-10214,31726,-3565,-29318
228060,-0.258398,-10.824,2.30166,-79.129,1.71936,-142.438,16.6626,3.17383,54.7485,0.25528,-0.195709,0.606689,-0.726868,-27183,-8934,29166,-3565,-29318
228066,0.46416,-11.7811,3.84727,-79.0686,2.02148,-142.35,11.7798,-3.96729,60.9131,0.257202,-0.194,0.606689,-0.726654,-19503,-7910,25070,-3565,-29318
228072,0.76084,-11.4604,4.14395,-79.0137,2.35657,-142.262,10.437,-1.40381,69.2749,0.25943,-0.192444,0.606781,-0.726196,-11567,-6630,20462,-3565,-29318
228078,-0.215332,-12.5658,2.38301,-78.9917,2.71912,-142.234,4.3335,11.2305,71.4111,0.261841,-0.190613,0.606995,-0.725647,6098,-4070,12270,-3565,-29318
228084,0.555078,-12.4893,3.55059,-78.8928,3.52661,-142.075,8.23975,0,84.5337,0.266479,-0.186066,0.607941,-0.724335,15058,-2790,8686,-3565,-29318
228090,1.16279,-11.1877,3.30176,-78.8379,3.96057,-142.026,10.0708,9.76562,87.0972,0.269257,-0.183838,0.608307,-0.723541,24274,-1254,5870,-3565,-29318
228096,0.263184,-11.2116,3.2252,-78.8269,4.40002,-142.009,2.01416,16.8457,88.7451,0.271912,-0.181213,0.608765,-0.72287,-31790,27,3566,-3565,-29318
228102,-0.808691,-13.7908,3.72764,-78.8214,4.88892,-141.976,0.12207,15.8691,97.9614,0.274323,-0.178406,0.609558,-0.721985,-21550,1819,-275,-3565,-29318
228108,-0.162695,-12.0012,2.38779,-78.8049,5.41077,-141.938,2.92969,15.0146,105.164,0.279968,-0.172241,0.611267,-0.719849,979,5403,-6931,-3565,-29318
228114,-0.617285,-12.6902,2.69883,-78.7665,6.51489,-141.872,1.89209,19.9585,114.685,0.28302,-0.168915,0.612091,-0.71875,12755,7451,-9491,-3565,-29318
228120,-1.15801,-12.9582,2.20117,-78.7665,7.10815,-141.833,-1.52588,19.4702,120.483,0.286102,-0.165344,0.613068,-0.717529,24787,9499,-12051,-3565,-29318
228126,-1.05752,-13.3697,2.63184,-78.761,7.74536,-141.773,-0.549316,15.2588,129.272,0.289337,-0.161682,0.614166,-0.716125,-27949,11291,-14099,-3565,-29318
228132,-1.10059,-14.5517,1.41641,-78.7665,8.40454,-141.718,-2.86865,18.1274,134.399,0.292969,-0.157928,0.615204,-0.7146,-13869,13595,-16659,-3565,-29318
228138,-0.45459,-13.231,2.01934,-78.7335,9.09119,-141.658,5.43213,18.7988,140.503,0.300537,-0.14975,0.61734,-0.711365,15828,18459,-21779,-3565,-29318
228144,-0.244043,-14.3603,2.2873,-78.6951,10.5359,-141.493,-0.0610352,16.7236,153.442,0.304565,-0.145538,0.618286,-0.709686,31444,21275,-24595,-3565,-29318
228150,-1.90449,-15.1354,2.22031,-78.6731,11.3269,-141.422,1.58691,20.3857,163.025,0.308838,-0.141113,0.619415,-0.707764,-19500,24603,-28691,-3565,-29318
228156,-1.9667,-17.6189,2.60791,-78.6566,12.1564,-141.317,0.244141,16.2354,171.204,0.313263,-0.136292,0.620575,-0.705719,-3628,27675,-32531,-3565,-29318
228162,-0.492871,-16.571,2.72754,-78.5577,13.0518,-141.169,13.916,10.0708,186.523,0.318024,-0.131409,0.621765,-0.703491,13013,30235,29165,-3565,-29318
228168,-1.4834,-15.2694,2.08633,-78.3765,14.9084,-140.96,18.9209,15.2588,196.594,0.32843,-0.120331,0.623505,-0.699127,-14123,-30181,21485,-3565,-29318
228174,0.60293,-16.1355,1.89492,-78.2886,15.8862,-140.724,9.33838,15.1367,204.59,0.334015,-0.114532,0.624115,-0.696899,5846,-27365,16365,-3565,-29318
228180,0.966602,-17.4084,3.08164,-78.1732,16.9135,-140.537,16.7847,27.3438,213.196,0.340271,-0.109161,0.624847,-0.694061,25302,-24805,10989,-3565,-29318
228186,-0.827832,-18.5281,1.97627,-78.0359,17.9791,-140.328,19.043,24.231,222.351,0.346436,-0.103058,0.625549,-0.691315,-19754,-21989,4845,-3565,-29318
228192,0.636426,-17.6524,0.957031,-77.8601,19.0833,-140.07,23.8647,18.0664,233.093,0.352905,-0.0967712,0.626129,-0.688446,25047,-17637,-10260,-3565,-29318
228198,-1.27764,-17.7816,-0.15791,-77.4646,21.4453,-139.587,26.2451,24.9634,252.014,0.36676,-0.0832825,0.626709,-0.682404,-15913,-16101,-17684,-3565,-29318
228204,-0.430664,-18.3941,-0.105273,-77.2229,22.6813,-139.285,32.1045,17.9443,263.245,0.373932,-0.0760803,0.627045,-0.679047,9688,-14821,-25364,-3565,-29318
228210,-0.722559,-19.6383,0.665137,-76.9263,23.9777,-138.972,41.1377,19.8975,274.78,0.381531,-0.0687256,0.627075,-0.675568,-31528,-13797,-32020,-3565,-29318
228216,-0.813477,-18.8296,-0.904395,-76.5857,25.307,-138.636,47.4854,19.2871,283.63,0.389374,-0.0608215,0.626831,-0.672058,-5672,-12773,24812,-3565,-29318
228222,-0.650781,-19.3655,0.440234,-76.1682,26.6858,-138.263,57.312,15.9302,294.861,0.39743,-0.0526123,0.626373,-0.668457,-15143,-12005,4844,-3565,-29318
228228,-0.401953,-21.8873,2.11504,-75.3113,29.6136,-137.428,56.4575,17.5171,322.937,0.414368,-0.0351868,0.624695,-0.660828,15322,-13029,-6165,-3565,-29318
228234,0.229688,-21.5906,1.89014,-74.8499,31.1847,-136.945,52.6733,16.4795,340.088,0.423309,-0.0258484,0.623779,-0.656464,-18726,-14565,-16917,-3565,-29318
228240,1.73223,-20.179,3.25869,-74.339,32.8326,-136.428,55.7861,18.4937,355.896,0.432617,-0.0161743,0.622833,-0.651581,14299,-17125,-27413,-3565,-29318
228246,1.36377,-19.2411,3.35439,-73.8446,34.519,-135.939,53.4058,29.48,364.136,0.4422,-0.00595093,0.621735,-0.646362,-19237,-19941,26603,-3565,-29318
228252,-0.703418,-17.1261,3.27305,-73.3337,36.2604,-135.434,53.1616,33.5083,375,0.451538,0.00469971,0.620758,-0.640808,-15908,-29157,747,-3565,-29318
228258,-0.91875,-23.7487,2.42607,-72.3615,39.6826,-134.149,27.8931,-2.68555,381.592,0.469971,0.0263367,0.619446,-0.628174,20957,29979,-14102,-3565,-29318
228264,4.59375,-21.3657,2.41172,-71.6858,41.424,-133.445,53.0396,19.3481,385.193,0.480255,0.0360413,0.618103,-0.621185,-6435,22299,-28182,-3565,-29318
228270,-2.75146,-19.3464,1.65566,-71.1035,43.2147,-132.863,48.0347,45.7764,389.465,0.489838,0.0469055,0.616394,-0.614624,-32290,13595,21994,-3565,-29318
228276,-5.25889,-19.4517,1.59824,-70.3619,44.978,-131.924,27.3438,1.28174,400.024,0.498688,0.0584717,0.615234,-0.607666,6367,4635,7146,-3565,-29318
228282,0.0765625,-19.0976,2.47871,-69.538,46.7413,-130.831,18.0664,-10.3149,406.738,0.508881,0.0686951,0.613495,-0.599854,23520,-17638,-24087,-3565,-29318
228288,-0.923535,-19.2698,1.36377,-67.8186,50.2405,-128.562,9.0332,-6.04248,407.104,0.529358,0.088562,0.609863,-0.583008,1505,-31718,25065,-3565,-29318
228294,0.842188,-21.4088,0.0669922,-66.7914,51.9434,-127.211,4.57764,-15.8081,408.02,0.539398,0.0982361,0.607941,-0.574188,-20255,17690,8681,-3565,-29318
228300,2.23467,-22.5716,-1.59824,-65.6488,53.6023,-125.771,10.1929,-17.2729,402.405,0.549561,0.107544,0.605774,-0.565125,23266,-231,-7448,-3565,-29318
228306,1.77051,-23.074,-1.41162,-64.3744,55.1953,-124.272,21.0571,-16.6016,393.677,0.559357,0.11676,0.603333,-0.556213,1507,-19687,-22552,-3565,-29318
228312,3.07207,-22.8396,-2.59355,-62.8638,56.7389,-122.547,26.4282,-29.541,394.409,0.568665,0.125977,0.600555,-0.547699,19428,6169,14312,-3565,-29318
228318,8.76641,-10.4556,-5.09619,-59.0076,59.5459,-118.608,80.2002,-35.8887,368.042,0.587677,0.143921,0.592957,-0.53125,-2844,-16104,488,-3565,-29318
228324,1.65088,-4.42627,-2.99551,-57.1124,60.8148,-116.993,109.253,0.12207,337.402,0.595886,0.153381,0.588165,-0.524719,-24859,24856,-12313,-3557,-29319
228330,5.45029,8.35488,-5.69434,-54.5636,61.7542,-114.763,130.432,-70.8618,314.27,0.602081,0.163605,0.583801,-0.519409,18406,-1769,-26137,-3557,-29319
228336,0.540723,28.6774,-1.18193,-52.8607,62.3364,-113.483,125.122,-27.9541,203.186,0.609283,0.172119,0.577179,-0.515656,-4634,-30185,24807,-3557,-29319
228342,-7.79502,24.5861,-3.87119,-52.1851,62.298,-112.901,43.2129,-48.1567,65.6128,0.612793,0.17865,0.572632,-0.514343,7912,-20202,-6170,-3557,-29319
228348,3.74678,7.53662,0.267969,-52.3718,60.8972,-112.994,-11.4136,-74.9512,-116.821,0.61499,0.175323,0.568481,-0.517426,-21272,17174,-23578,-3557,-29319
228354,3.4501,3.33525,1.08145,-53.2782,59.7986,-113.73,-42.2363,-78.125,-181.091,0.613434,0.16922,0.568237,-0.521576,12777,-9451,24550,-3557,-29319
228360,7.29258,-3.67021,0.674707,-54.3988,58.5132,-114.626,-60.1196,-81.2988,-221.985,0.610657,0.160645,0.569,-0.526672,-22807,32021,6630,-3557,-29319
228366,8.36924,-9.27842,-0.894824,-55.6018,57.1783,-115.664,-55.3589,-67.8101,-242.371,0.607025,0.150482,0.570343,-0.53241,2794,12053,-9755,-3557,-29319
228372,7.72324,-12.6615,-1.83271,-56.6949,55.827,-116.697,-37.5977,-62.2559,-247.681,0.602386,0.140289,0.571991,-0.538635,-25878,-16364,24549,-3557,-29319
228378,6.90977,-12.5802,-1.10537,-58.3868,53.2178,-118.531,-0.671387,-53.5889,-231.445,0.59201,0.121399,0.574188,-0.552246,-14102,-26092,9445,-3557,-29319
228384,6.16807,-10.9532,-0.77041,-59.0295,52.0038,-119.35,10.7422,-49.6216,-219.604,0.586639,0.11322,0.574646,-0.559174,-7190,-31724,-5916,-3557,-29319
228390,6.21113,-9.12529,-0.827832,-59.5789,50.8502,-120.097,17.7002,-46.6309,-206.665,0.581299,0.105743,0.574829,-0.56601,-4374,31252,-20252,-3557,-29319
228396,6.50303,-7.34521,-1.17236,-60.0732,49.7571,-120.811,20.6299,-39.856,-194.824,0.57608,0.0988159,0.574768,-0.572601,-4630,30996,30948,-3557,-29319
228402,6.23984,-5.44072,-1.23936,-60.5402,48.7244,-121.498,20.9351,-34.5459,-184.265,0.565796,0.0864258,0.574707,-0.584808,-14870,-27116,5092,-3557,-29319
228408,5.76133,-1.71787,-1.14365,-61.5289,46.7578,-122.866,9.27734,-21.6675,-175.171,0.560669,0.080658,0.57486,-0.590393,-22038,-22508,-6173,-3557,-29319
228414,5.61777,-0.875684,-1.05273,-62.1112,45.7965,-123.585,-1.95312,-14.4043,-176.147,0.555359,0.0749512,0.575378,-0.595642,-31254,-16876,-16413,-3557,-29319
228420,5.55078,-0.703418,-1.08623,-62.7704,44.8242,-124.343,-13.1226,-7.50732,-180.542,0.549835,0.0691223,0.576324,-0.600525,23018,-10476,-24349,-3557,-29319
228426,5.26367,-0.722559,-1.14844,-63.501,43.83,-125.134,-23.5596,-0.732422,-188.171,0.543976,0.0630798,0.577698,-0.605194,10474,-3052,-32029,-3557,-29319
228432,5.00049,-0.808691,-1.30635,-64.2865,42.7917,-125.964,-31.5552,4.21143,-198.792,0.530975,0.0501404,0.581604,-0.614136,-17687,15125,19427,-3557,-29319
228438,5.24932,-1.52168,-1.46426,-65.9894,40.5121,-127.722,-44.7388,11.6577,-228.271,0.523712,0.0430908,0.583984,-0.618652,32489,25365,12771,-3557,-29319
228444,5.28281,-2.05762,-1.46426,-66.8903,39.2706,-128.639,-49.5605,15.686,-243.774,0.515869,0.035614,0.586548,-0.62326,17129,-30187,7907,-3540,-29321
228450,5.31631,-2.61748,-1.51211,-67.8076,37.9523,-129.573,-54.5044,18.7378,-258.545,0.507446,0.0277405,0.589294,-0.62796,489,-19435,3555,-3540,-29321
228456,4.95264,-3.35439,-1.50732,-68.7305,36.5625,-130.507,-58.5938,20.3857,-273.01,0.498413,0.0194702,0.592194,-0.632782,-17432,-7403,-30,-3540,-29321
228462,4.23486,-4.74688,-1.74658,-69.6478,35.1068,-131.424,-62.3779,20.6909,-285.522,0.478912,0.0017395,0.598083,-0.642517,8424,20246,-3870,-3540,-29321
228468,3.99082,-5.45029,-1.7083,-71.4276,32.0306,-133.16,-70.7397,18.1885,-303.772,0.468536,-0.00765991,0.601013,-0.647369,-13849,-30186,-3614,-3540,-29321
228474,3.72764,-6.34033,-1.63652,-72.29,30.4321,-133.951,-76.2939,15.3809,-308.655,0.457947,-0.0174255,0.603882,-0.652069,29671,-15594,-2334,-3540,-29321
228480,3.16777,-7.26865,-1.76572,-73.1195,28.8171,-134.687,-80.4443,12.207,-310.486,0.447205,-0.0274963,0.606689,-0.656555,5863,535,-542,-3540,-29321
228486,2.45479,-8.01035,-1.82314,-73.916,27.1967,-135.352,-83.5571,7.32422,-310.12,0.436432,-0.0377502,0.609406,-0.660767,-19738,17175,3811,-3540,-29321
228492,0.875684,-8.97217,-1.75615,-74.6851,25.5762,-135.939,-87.0972,1.58691,-307.922,0.415253,-0.0587463,0.614319,-0.668274,-11035,-13801,17635,-3540,-29321
228498,-0.0287109,-9.5751,-1.62695,-76.1353,22.3407,-136.851,-97.6562,-15.686,-302.185,0.404999,-0.069519,0.616547,-0.671478,23781,4120,26851,-3540,-29321
228504,-0.679492,-10.1876,-1.42119,-76.8329,20.7257,-137.17,-102.722,-26.7334,-300.354,0.39505,-0.0805359,0.618622,-0.674286,-6172,20760,-29213,-3540,-29321
228510,-1.08145,-10.6039,-1.09102,-77.5031,19.1162,-137.395,-106.628,-37.7808,-298.95,0.385437,-0.0919189,0.620483,-0.676666,27108,-27880,-19741,-3540,-29321
228516,-1.24893,-10.8288,-0.607715,-78.1622,17.4902,-137.538,-110.84,-48.7061,-299.927,0.37616,-0.103577,0.622131,-0.67868,-6941,-11240,-9757,-3540,-29321
228522,-1.27764,-11.8098,0.215332,-78.8159,15.8588,-137.598,-115.356,-58.4106,-300.476,0.358368,-0.12796,0.624725,-0.681763,-14622,21785,12516,-3540,-29321
228528,-1.28721,-12.2117,1.10537,-80.1013,12.5793,-137.51,-123.169,-75.5005,-303.467,0.349792,-0.140625,0.625702,-0.682831,11490,-27879,26596,-3540,-29321
228534,-1.07187,-13.1687,2.01455,-80.7605,10.9424,-137.384,-128.174,-79.895,-302.612,0.34137,-0.153564,0.626526,-0.683563,-26655,-13287,-24860,-3540,-29321
228540,-1.04795,-14.6569,2.48828,-81.4307,9.33838,-137.219,-132.202,-82.5195,-299.133,0.333069,-0.166595,0.627228,-0.68396,-1312,1306,-9244,-3540,-29321
228546,-1.10537,-15.9633,2.91895,-82.1008,7.77283,-137.016,-133.789,-83.5571,-292.542,0.324921,-0.179626,0.627838,-0.68399,22752,15130,7397,-3540,-29321
228552,-1.05273,-17.3462,4.254,-82.7655,6.25671,-136.791,-133.057,-78.4912,-273.621,0.309387,-0.204926,0.628784,-0.683228,1759,-24806,-19483,-3540,-29321
228558,-1.15801,-17.7146,4.98135,-84.0784,3.42773,-136.329,-131.592,-73.7305,-263.123,0.301941,-0.216888,0.629211,-0.682495,22750,-14310,1766,-3532,-29322
228564,-1.21064,-17.6189,5.59863,-84.7266,2.10388,-136.104,-130.249,-67.688,-254.7,0.294678,-0.228302,0.629578,-0.68158,-20259,-4838,22502,-3532,-29322
228570,-1.1293,-17.6859,6.14893,-85.3748,0.818481,-135.901,-130.493,-60.5469,-248.047,0.287537,-0.239197,0.629944,-0.680542,989,3355,-21018,-3532,-29322
228576,-0.727344,-18.2075,6.37861,-86.0175,-0.422974,-135.725,-129.456,-51.9409,-243.286,0.280396,-0.249603,0.630371,-0.679413,20956,9243,999,-3532,-29322
228582,-0.559863,-19.2842,6.97197,-86.6437,-1.64246,-135.582,-122.681,-30.9448,-239.075,0.265808,-0.268951,0.631165,-0.677124,-5670,17691,-18713,-3532,-29322
228588,-1.30635,-19.3033,7.01982,-87.8247,-4.04846,-135.417,-119.324,-21.2402,-240.112,0.258209,-0.277893,0.63147,-0.676208,13530,19995,5608,-3532,-29322
228594,-2.08633,-19.3751,6.79014,-88.385,-5.26245,-135.379,-116.699,-14.5874,-243.896,0.250366,-0.286438,0.631653,-0.675385,-32039,21275,30184,-3532,-29322
228600,-2.58398,-19.7531,6.76621,-88.9288,-6.49292,-135.357,-113.159,-8.05664,-249.268,0.242249,-0.2948,0.631714,-0.674713,-10024,21787,-11800,-3532,-29322
228606,-3.31611,-20.8154,6.57002,-89.4342,-7.73987,-135.363,-107.666,-1.70898,-253.174,0.233856,-0.302979,0.631561,-0.674194,11480,21275,11497,-3532,-29322
228612,-5.40723,-22.7678,6.15371,-89.8846,-8.98682,-135.39,-86.9141,8.23975,-253.113,0.216553,-0.318573,0.630463,-0.673798,-11050,14875,-9495,-3532,-29322
228618,-6.32119,-22.3897,6.0293,-90.6207,-11.4313,-135.472,-77.4536,11.2305,-250.916,0.207977,-0.325836,0.629425,-0.673981,9942,9499,12778,-3532,-29322
228624,-7.04854,-21.27,5.93359,-90.9229,-12.6288,-135.527,-70.6787,13.855,-249.084,0.199524,-0.332794,0.628082,-0.674408,30677,2843,-30486,-3532,-29322
228630,-7.45527,-19.5952,5.9001,-91.203,-13.8318,-135.593,-67.3828,16.7847,-250.916,0.191162,-0.339478,0.626556,-0.674927,-11564,-4326,-9494,-3532,-29322
228636,-7.71367,-17.6812,5.93359,-91.4777,-15.0568,-135.676,-67.1997,20.5078,-256.226,0.182739,-0.346008,0.624847,-0.675537,10708,-12774,11499,-3532,-29322
228642,-8.13477,-15.2838,6.08672,-91.7523,-16.3257,-135.78,-75.4395,32.5928,-280.884,0.164886,-0.358978,0.621124,-0.676788,-12846,31770,-16917,-3532,-29322
228648,-8.21133,-15.4226,5.97666,-92.3511,-19.0668,-136.077,-80.8105,39.4287,-296.936,0.15509,-0.365631,0.61911,-0.677399,7378,19226,-1301,-3532,-29322
228654,-7.9625,-16.6141,5.85225,-92.6477,-20.5389,-136.269,-82.4585,46.3867,-310.791,0.144531,-0.372437,0.616974,-0.677979,27089,5402,13036,-3532,-29322
228660,-8.00557,-18.241,5.64648,-92.9059,-22.066,-136.505,-78.5522,56.5186,-321.411,0.133331,-0.379303,0.614594,-0.678589,-18736,-10727,26348,-3532,-29322
228666,-8.65635,-19.5665,5.79482,-93.0872,-23.6041,-136.791,-68.9087,65.7959,-325.623,0.121674,-0.386017,0.611908,-0.679443,25039,19993,-14612,-3532,-29322
228672,-11.2834,-20.1312,6.63701,-93.2355,-26.5814,-137.51,-52.3071,82.3975,-310.059,0.0979614,-0.398285,0.605438,-0.681976,-20018,-1000,-4372,-3548,-29320
228678,-13.5707,-21.3227,5.57949,-93.2135,-27.9547,-137.939,-45.2271,86.792,-294.8,0.0864258,-0.403442,0.60202,-0.683533,206,-24808,3565,-3548,-29320
228684,-15.7336,-21.9495,4.15352,-93.0927,-29.2291,-138.384,-28.4424,87.5244,-275.513,0.0753479,-0.407928,0.598602,-0.685181,19661,14872,9709,-3548,-29320
228690,-18.0257,-21.6528,2.90937,-92.8619,-30.3882,-138.851,-9.39941,87.2803,-256.042,0.0651245,-0.411713,0.594971,-0.687134,-25908,-12265,13805,-3548,-29320
228696,-20.6384,-19.8249,1.43555,-92.5378,-31.4374,-139.312,9.0332,84.2285,-234.802,0.0558777,-0.414825,0.591125,-0.689392,19403,-1002,17645,-3548,-29320
228702,-25.8111,-14.5134,-0.861328,-91.7798,-33.1458,-140.158,25.0244,67.1387,-188.232,0.0406799,-0.419464,0.583008,-0.694519,-22326,-29674,17133,-3548,-29320
228708,-28.2468,-11.4892,-1.36377,-91.4502,-33.7939,-140.493,21.8506,53.6499,-162.354,0.034729,-0.421112,0.579315,-0.69696,2762,6678,14829,-3548,-29320
228714,-30.2805,-8.58457,-1.39248,-91.236,-34.2828,-140.746,8.36182,37.9639,-134.338,0.0298767,-0.422485,0.576172,-0.698944,29385,-23019,10733,-3548,-29320
228720,-31.5342,-6.22549,-0.794336,-91.181,-34.6124,-140.889,-12.3901,19.3481,-104.736,0.026062,-0.423553,0.574005,-0.700256,-7992,12821,6637,-3548,-29320
228726,-31.5677,-4.82344,0.488086,-91.3293,-34.7827,-140.933,-39.7949,0.793457,-74.1577,0.0232849,-0.424408,0.572998,-0.700623,-11065,22804,-7700,-3548,-29320
228732,-29.1512,-6.97676,2.91416,-92.1204,-34.6399,-140.74,-83.0688,-29.1138,-14.3433,0.0205383,-0.425446,0.575226,-0.698273,23495,-3565,-14868,-3548,-29320
228738,-28.6966,-20.313,5.34502,-92.84,-34.2719,-140.477,-121.155,-53.2837,28.0762,0.0205688,-0.425476,0.578064,-0.695892,-5434,-28141,-21780,-3548,-29320
228744,-24.4043,-26.2609,8.00557,-93.1641,-33.728,-140.251,-45.7764,-49.3774,63.2935,0.0217896,-0.425171,0.582794,-0.692078,-31546,14099,-27668,-3548,-29320
228750,-22.294,-25.012,10.4508,-93.2574,-33.0194,-140.07,-7.14111,-44.0063,97.29,0.0253906,-0.423828,0.585907,-0.690186,10694,-7406,-30740,-3548,-29320
228756,-20.0163,-19.8728,9.18272,-93.0157,-32.2119,-139.944,53.5278,-36.8042,118.286,0.0305786,-0.421356,0.588409,-0.689331,-27707,21778,32748,-3548,-29320
228762,-18.0688,-15.4561,9.97227,-91.8512,-30.4431,-139.949,123.047,-8.42285,139.648,0.0446777,-0.413849,0.589478,-0.6922,22981,6930,-31764,-3548,-29320
228768,-16.1116,-12.2931,9.89092,-91.0712,-29.4928,-140.032,138.245,2.80762,149.536,0.0525513,-0.408966,0.588745,-0.69516,10693,-5103,-30740,-3548,-29320
228774,2.95723,-41.6021,36.1231,-91.4227,-28.0591,-139.389,-19.3481,-127.014,246.765,0.0606995,-0.403412,0.587677,-0.698639,965,-14063,-29460,-3548,-29320
228780,26.2466,5.43594,-18.5042,-90.6097,-26.8945,-139.356,157.043,-16.5405,196.777,0.0722656,-0.399719,0.59259,-0.695496,-6460,-20463,-27924,-3548,-29320
228786,14.3172,-0.186621,11.0394,-90.1428,-25.5157,-139.982,27.2827,103.333,241.699,0.082489,-0.393463,0.591522,-0.698853,-13116,-23279,-25364,-3548,-29320
228792,10.1015,-16.2313,3.22998,-90.0659,-22.5549,-140.427,-30.7007,23.0103,267.944,0.096283,-0.373535,0.600555,-0.700317,-13628,-21999,-25364,-3557,-29319
228798,5.76133,-14.4272,-1.0623,-89.8132,-21.0443,-140.9,6.65283,83.5571,272.461,0.10434,-0.364899,0.60611,-0.698914,-11836,-17903,-25876,-3557,-29319
228804,-2.95723,-14.4942,3.43096,-89.4781,-19.5667,-141.394,23.4985,89.5996,265.869,0.111481,-0.354095,0.610779,-0.69931,-6716,-10479,-28948,-3557,-29319
228810,-2.15811,-9.37412,4.61768,-89.1101,-18.1274,-141.713,43.6401,59.7534,260.193,0.118439,-0.343201,0.614716,-0.700134,453,-239,-32276,-3557,-29319
228816,-1.59346,-5.22061,5.60342,-88.8409,-16.7102,-142.042,24.292,64.6362,255.981,0.126312,-0.333252,0.617676,-0.700989,22981,28178,26604,-3557,-29319
228822,-9.02481,-16.0973,3.36396,-88.6377,-14.0845,-142.57,-0.793457,46.3257,226.379,0.140198,-0.313995,0.625122,-0.700623,-30011,-21742,22764,-3557,-29319
228828,-8.42188,-15.614,-1.51689,-88.4125,-12.9803,-142.718,29.7241,32.1655,195.374,0.146637,-0.305542,0.628571,-0.699951,-14907,-4846,18668,-3557,-29319
228834,-5.28281,-16.9634,0.679492,-88.1543,-12.0245,-142.822,39.5508,24.0479,166.26,0.152924,-0.298187,0.630524,-0.700012,1734,13075,15852,-3557,-29319
228840,-2.58398,-11.6854,0.205762,-87.8247,-11.1292,-142.822,58.2886,4.45557,156.25,0.15863,-0.29184,0.631683,-0.700378,19654,32275,12524,-3557,-29319
228846,0.368457,-9.80479,2.13896,-87.561,-10.2612,-142.855,44.3115,11.5967,151.428,0.164764,-0.286224,0.631989,-0.700989,-6202,6164,6380,-3557,-29319
228852,-2.10068,-12.1256,2.38779,-87.0392,-8.68469,-143.152,44.4946,43.335,126.587,0.17511,-0.274902,0.633575,-0.701599,15047,25620,2540,-3557,-29319
228858,-9.81436,-6.37383,5.20147,-86.6437,-8.32214,-143.712,55.542,113.22,45.5933,0.178986,-0.269073,0.634094,-0.702423,-30265,-21484,-789,-3557,-29319
228864,-11.6184,-4.9335,-6.771,-86.6272,-8.00354,-143.811,-5.00488,21.7285,41.1377,0.178589,-0.263245,0.63382,-0.704956,-10041,-3308,-4117,-3557,-29319
228870,-3.43096,-14.4942,0.679492,-86.6272,-7.78931,-143.784,-4.76074,-3.84521,21.7285,0.179901,-0.260803,0.634674,-0.704773,9928,13845,-7445,-3557,-29319
228876,3.2874,-13.7286,2.75625,-86.38,-7.51465,-143.789,43.396,4.27246,34.3018,0.18338,-0.25766,0.634277,-0.705383,-16952,-18155,-13333,-3557,-29319
228882,-2.87588,-6.24463,0.196191,-85.979,-6.98181,-144.135,12.6343,37.0483,30.5786,0.18454,-0.254578,0.633514,-0.706879,457,-2539,-15381,-3557,-29319
228888,-2.63184,-10.8575,-0.349316,-85.9296,-6.73462,-144.179,4.21143,11.2915,30.4565,0.185211,-0.251892,0.63382,-0.707397,16585,12310,-17173,-3557,-29319
228894,-0.105273,-10.178,0.693848,-85.7922,-6.48743,-144.19,22.7051,5.18799,30.7007,0.186523,-0.250092,0.634155,-0.707367,32201,25878,-18965,-3557,-29319
228900,-0.540723,-8.13477,1.46426,-85.6549,-6.26221,-144.278,20.6299,20.752,25.9399,0.188171,-0.248352,0.633881,-0.707794,-18487,-26346,-20501,-3557,-29319
228906,-2.78018,-8.56065,1.19629,-85.5725,-6.05896,-144.338,11.0474,14.9536,22.8271,0.190186,-0.244598,0.63382,-0.708618,9418,-3050,-25109,-3557,-29319
228912,-0.468945,-9.86221,0.416309,-85.4572,-5.73486,-144.311,8.36182,-2.2583,14.5264,0.191315,-0.24353,0.63385,-0.708649,22218,7191,-27413,-3557,-29319
228918,0.0574219,-10.2689,0.746484,-85.3857,-5.59204,-144.311,10.1318,3.11279,12.8784,0.192444,-0.242645,0.633789,-0.70871,-32054,15895,-29205,-3557,-29319
228924,-0.76084,-9.51768,0.870898,-85.2924,-5.45471,-144.327,14.7705,5.31006,12.0239,0.19342,-0.241638,0.633698,-0.708893,-21302,24087,-30229,-3557,-29319
228930,-1.39248,-8.75684,1.84707,-85.21,-5.32288,-144.327,13.855,3.17383,10.9253,0.194305,-0.24057,0.633453,-0.709229,-11318,31767,-30229,-3557,-29319
228936,-1.50254,-8.01514,2.45957,-85.1385,-5.20752,-144.322,9.94873,0.12207,7.69043,0.196075,-0.238892,0.633026,-0.709686,8139,-19945,-29461,-3557,-29319
228942,-1.11973,-10.135,0.890039,-85.1056,-5.00977,-144.294,-1.89209,-0.244141,5.61523,0.196777,-0.238281,0.633057,-0.709686,17355,-13801,-28949,-3557,-29319
228948,-0.272754,-11.2308,0.827832,-85.0781,-4.9054,-144.261,2.99072,-4.39453,7.01904,0.197418,-0.237732,0.633209,-0.709534,26315,-8169,-29717,-3557,-29319
228954,0.129199,-10.7905,0.598145,-85.0342,-4.80103,-144.24,5.98145,-2.0752,8.91113,0.198273,-0.237244,0.633179,-0.709473,-30517,-2793,-29205,-3557,-29319
228960,-0.31582,-10.891,0.875684,-84.9847,-4.69116,-144.223,6.95801,-0.488281,9.0332,0.199097,-0.236664,0.633118,-0.709503,-21813,1816,-28181,-3557,-29319
228966,-0.277539,-10.5608,2.01455,-84.9298,-4.5813,-144.196,8.54492,-2.74658,10.7422,0.200836,-0.235382,0.632874,-0.709656,-5173,10520,-23573,-3557,-29319
228972,-0.62207,-9.94834,2.10068,-84.8474,-4.3396,-144.152,3.41797,-0.427246,13.855,0.201782,-0.234741,0.632751,-0.709717,3276,14104,-21525,-3557,-29319
228978,-1.32549,-10.4651,1.66523,-84.8145,-4.21326,-144.141,4.21143,0.549316,14.1602,0.202667,-0.234039,0.632782,-0.709656,10956,17944,-20501,-3557,-29319
228984,-1.01445,-9.16357,1.37334,-84.7485,-4.08691,-144.113,11.1084,-1.70898,14.5874,0.203522,-0.233276,0.632843,-0.709625,18892,21784,-19477,-3557,-29319
228990,-1.28242,-9.16357,2.48828,-84.7101,-3.97156,-144.097,5.06592,-0.671387,13.3667,0.204529,-0.232544,0.632629,-0.709747,26572,25624,-18197,-3557,-29319
228996,-1.17236,-9.62295,1.41162,-84.6771,-3.86169,-144.075,3.23486,-1.34277,10.9253,0.206177,-0.231293,0.632629,-0.709686,-24628,32024,-14869,-3557,-29319
229002,-0.698633,-9.91484,1.56953,-84.6552,-3.66943,-144.014,1.40381,-4.45557,9.8877,0.206848,-0.230804,0.632751,-0.709534,-17716,-30184,-12821,-3557,-29319
229008,-0.617285,-9.72822,0.77998,-84.6442,-3.58704,-143.998,-0.244141,-1.40381,8.11768,0.207672,-0.230408,0.632782,-0.709412,-11060,-27368,-11541,-3557,-29319
229014,-1.23936,-10.891,1.60781,-84.6222,-3.49915,-143.981,2.0752,-0.366211,8.23975,0.208313,-0.22995,0.632874,-0.70929,-4660,-24552,-10005,-3557,-29319
229020,-1.13408,-9.95312,1.05752,-84.5947,-3.41125,-143.948,4.15039,-3.90625,8.05664,0.208923,-0.229492,0.632904,-0.709229,1485,-21992,-7957,-3557,-29319
229026,-1.02881,-9.81436,1.05752,-84.5618,-3.33984,-143.932,4.3335,0,6.46973,0.210266,-0.228638,0.632751,-0.709229,14285,-16360,-2069,-3557,-29319
229032,-0.913965,-9.77607,0.459375,-84.5123,-3.19702,-143.899,3.78418,-1.83105,5.49316,0.210785,-0.228241,0.632721,-0.709229,20685,-13800,1516,-3557,-29319
229038,-1.0623,-9.98662,1.5791,-84.4629,-3.12561,-143.882,7.32422,-0.610352,6.34766,0.211365,-0.227905,0.63266,-0.709229,26829,-11496,5100,-3557,-29319
229044,-1.20586,-9.10615,1.13408,-84.4244,-3.05969,-143.86,5.98145,-1.83105,5.79834,0.211975,-0.227478,0.632507,-0.70932,32205,-9960,7660,-3557,-29319
229050,-0.60293,-9.44111,1.42119,-84.397,-2.99377,-143.833,4.27246,-2.2583,4.88281,0.212555,-0.227112,0.632385,-0.709381,-27955,-8168,9964,-3557,-29319
229056,-0.521582,-10.3168,1.10537,-84.3695,-2.93335,-143.828,3.90625,0.854492,4.45557,0.213562,-0.22644,0.632233,-0.709442,-17459,-4584,14316,-3557,-29319
229062,-0.794336,-10.5896,1.0001,-84.2761,-2.80151,-143.806,8.66699,0.854492,6.10352,0.214081,-0.226013,0.63208,-0.709534,-12339,-2280,17132,-3557,-29319
229068,-0.799121,-10.1828,0.421094,-84.2212,-2.7356,-143.795,10.1318,0.671387,6.16455,0.2146,-0.225555,0.631897,-0.709686,-7987,-744,20716,-3557,-29319
229074,-0.363672,-10.7379,1.08623,-84.1553,-2.66968,-143.778,11.9019,-0.244141,6.95801,0.215149,-0.225098,0.631683,-0.709869,-3635,537,23788,-3557,-29319
229080,-0.0957031,-10.2402,1.3877,-84.0729,-2.59827,-143.773,15.9912,1.34277,7.8125,0.215759,-0.22467,0.631409,-0.710083,718,1305,28140,-3557,-29319
229086,-0.449805,-9.44111,1.88057,-83.985,-2.52686,-143.778,15.9302,3.66211,7.56836,0.216919,-0.22348,0.630646,-0.710754,8910,3097,-30484,-3557,-29319
229092,-0.923535,-9.221,1.9667,-83.8477,-2.38403,-143.778,11.4746,1.83105,6.89697,0.217438,-0.222839,0.63031,-0.71109,13006,3865,-28948,-3557,-29319
229098,-0.894824,-8.97217,2.30166,-83.7872,-2.31812,-143.773,10.9253,2.19727,7.62939,0.217957,-0.222351,0.630066,-0.711304,17102,4889,-27668,-3557,-29319
229104,-0.535937,-9.8,2.32559,-83.7433,-2.2467,-143.773,7.08008,2.19727,7.75146,0.218475,-0.221832,0.629822,-0.711517,21198,6169,-27156,-3557,-29319
229110,-0.923535,-9.61338,1.76572,-83.6884,-2.18079,-143.773,9.46045,3.05176,7.08008,0.218964,-0.221344,0.6297,-0.711639,24782,7193,-26388,-3557,-29319
229116,-0.818262,-9.85264,1.72266,-83.6389,-2.11487,-143.773,8.30078,3.17383,7.20215,0.219879,-0.220337,0.629333,-0.711975,32718,9241,-22292,-3557,-29319
229122,-0.143555,-10.312,1.15801,-83.5455,-1.99951,-143.756,7.14111,1.2207,6.40869,0.220367,-0.21994,0.62912,-0.712128,-28722,10521,-19988,-3557,-29319
229128,-0.832617,-10.5896,0.899609,-83.4906,-1.93909,-143.756,9.8877,2.92969,7.01904,0.220825,-0.219543,0.628967,-0.71225,-24370,12057,-17428,-3557,-29319
229134,-1.40684,-10.7905,0.91875,-83.4247,-1.86768,-143.74,12.6953,-0.0610352,8.36182,0.221283,-0.219055,0.628754,-0.712463,-19506,12569,-14612,-3557,-29319
229140,-1.37334,-10.0393,1.00967,-83.3313,-1.80176,-143.723,17.334,0.12207,8.97217,0.221893,-0.218597,0.628448,-0.712677,-14642,13081,-11028,-3557,-29319
229146,-1.1293,-9.43633,1.75137,-83.2434,-1.73035,-143.69,17.334,-2.80762,9.09424,0.223297,-0.217621,0.627533,-0.713348,-5938,13593,-8212,-3565,-29318
229152,-0.0957031,-9.59902,1.71309,-83.1061,-1.59851,-143.646,11.4746,1.0376,8.8501,0.223999,-0.217285,0.627136,-0.713562,-1586,14105,-6676,-3565,-29318
229158,-1.03359,-10.1015,1.14365,-83.0402,-1.5271,-143.635,12.4512,0.610352,9.8877,0.224579,-0.216797,0.626892,-0.713776,1999,15129,-7188,-3557,-29319
229164,-0.904395,-10.1062,1.04316,-82.9633,-1.45569,-143.602,14.8315,-3.60107,9.70459,0.225189,-0.216278,0.626617,-0.713989,6095,16153,-7700,-3557,-29319
229170,-0.77041,-9.67559,1.75137,-82.8809,-1.38428,-143.575,16.7847,-2.13623,10.498,0.225922,-0.215912,0.626221,-0.714203,10447,17177,-7188,-3557,-29319
229176,-0.363672,-9.97705,2.01934,-82.793,-1.31287,-143.536,16.0522,-3.35693,10.6201,0.227417,-0.214996,0.625336,-0.714752,18895,18201,-7188,-3557,-29319
229182,-0.765625,-10.2833,1.62217,-82.6282,-1.17004,-143.492,16.9678,-1.2207,10.1929,0.228119,-0.214539,0.624939,-0.715027,23247,19225,-5652,-3557,-29319
229188,-0.885254,-9.66602,0.904395,-82.5293,-1.09863,-143.465,18.9819,-1.15967,10.8032,0.22879,-0.21405,0.624481,-0.715332,27087,20249,-4884,-3557,-29319
229194,-0.966602,-10.0728,1.92363,-82.4304,-1.02173,-143.427,19.4092,-3.84521,12.2681,0.229523,-0.213531,0.623993,-0.715698,31183,21785,-3604,-3557,-29319
229200,-0.732129,-10.5561,1.65566,-82.337,-0.933838,-143.388,18.1274,-4.39453,13.916,0.230377,-0.213074,0.623474,-0.716034,-30769,23065,-1812,-3557,-29319
229206,-0.172266,-11.025,1.1915,-82.2327,-0.845947,-143.361,20.752,-1.0376,14.5264,0.232117,-0.211945,0.622498,-0.716644,-21809,25369,-276,-3557,-29319
229212,-0.913965,-10.1828,1.23457,-81.969,-0.648193,-143.3,28.1372,-2.13623,16.6016,0.233063,-0.211243,0.621857,-0.717102,-17457,26393,1005,-3557,-29319
229218,-0.990527,-9.93398,1.88535,-81.8207,-0.55481,-143.262,29.2358,-3.2959,16.2354,0.23407,-0.21051,0.621124,-0.717621,-13361,28441,1517,-3557,-29319
229224,-0.507227,-10.3503,1.59824,-81.6943,-0.461426,-143.223,25.3906,-3.78418,15.3198,0.235107,-0.209808,0.620331,-0.71817,-9265,30489,1261,-3557,-29319
229230,-0.684277,-10.4986,1.44033,-81.5515,-0.368042,-143.179,28.3813,-3.78418,15.9302,0.236084,-0.209229,0.619659,-0.718597,-5681,32537,493,-3557,-29319
229236,-1.91885,-10.7475,1.11973,-81.3977,-0.263672,-143.152,31.9824,-1.34277,18.2495,0.238129,-0.207733,0.618073,-0.719727,2256,-28903,-788,-3557,-29319
229242,-1.36855,-9.33105,1.72744,-81.0132,-0.065918,-143.042,39.978,-7.44629,16.8457,0.239349,-0.20697,0.617035,-0.720459,6608,-27623,-1300,-3557,-29319
229248,-0.875684,-8.43623,2.0624,-80.8319,0.0164795,-142.987,36.1938,-6.89697,15.2588,0.24057,-0.206268,0.615875,-0.721222,10704,-26087,-1044,-3557,-29319
229254,-0.856543,-9.25928,2.8376,-80.6781,0.10437,-142.932,31.4331,-5.85938,16.1133,0.24173,-0.205658,0.614838,-0.721893,14800,-24551,-532,-3557,-29319
229260,-1.42598,-10.0249,2.57441,-80.5298,0.203247,-142.877,29.6021,-5.85938,17.395,0.242828,-0.205048,0.613953,-0.722473,19152,-23527,-276,-3557,-29319
229266,-1.24414,-10.3646,2.37822,-80.3595,0.302124,-142.817,33.6914,-7.99561,17.5781,0.245178,-0.203766,0.612152,-0.723541,28368,-20455,-2324,-3565,-29318
229272,0.650781,-9.94355,4.67031,-80.1068,0.53833,-142.69,17.395,-4.39453,25.7568,0.24646,-0.203125,0.611206,-0.724091,-32048,-18919,-4116,-3565,-29318
229278,-0.373242,-10.068,3.26826,-80.0464,0.692139,-142.674,10.376,3.11279,27.71,0.247681,-0.202332,0.61084,-0.724213,-27440,-17127,-5652,-3565,-29318
229284,-1.8375,-11.3695,2.57441,-79.9915,0.86792,-142.652,11.2305,3.41797,32.5317,0.248688,-0.201355,0.610748,-0.724182,-22576,-14823,-5908,-3565,-29318
229290,-1.31592,-11.226,1.14844,-79.92,1.0437,-142.597,12.8174,-3.35693,33.3252,0.249878,-0.200226,0.610718,-0.724152,-17968,-13031,-6932,-3565,-29318
229296,-0.0813477,-10.824,2.38301,-79.8486,1.24146,-142.548,13.5498,-1.52588,38.147,0.252747,-0.19812,0.610443,-0.723969,-7472,-9447,-8980,-3565,-29318
229302,0.0765625,-11.671,2.11504,-79.8322,1.71387,-142.454,0.976562,1.52588,48.5229,0.254242,-0.19693,0.610779,-0.72348,-2352,-7399,-10260,-3565,-29318
229308,-0.92832,-12.6376,2.51699,-79.8047,1.99402,-142.421,4.5166,4.5166,54.6875,0.255829,-0.195557,0.611145,-0.722961,3537,-5095,-11284,-3565,-29318
229314,-0.990527,-11.8002,1.88057,-79.7717,2.27966,-142.366,6.5918,1.28174,56.7627,0.257599,-0.193909,0.611511,-0.722504,9425,-2535,-11540,-3565,-29318
229320,-0.411523,-11.4987,2.8998,-79.7168,2.58728,-142.306,9.76562,0.671387,61.2793,0.259491,-0.192291,0.611755,-0.722015,16081,-231,-11284,-3565,-29318
229326,0.301465,-10.4986,2.74189,-79.6948,2.90588,-142.251,2.92969,2.44141,63.3545,0.263611,-0.188782,0.612396,-0.720917,30161,4122,-13588,-3565,-29318
229332,-0.665137,-11.8768,2.34473,-79.6783,3.62,-142.174,-0.732422,7.87354,73.6084,0.265686,-0.186707,0.612946,-0.720215,-27183,5914,-15124,-3565,-29318
229338,-0.794336,-12.8434,2.70361,-79.6564,4.0155,-142.13,3.05176,7.26318,79.4067,0.267853,-0.18454,0.613617,-0.719421,-18735,8474,-16660,-3565,-29318
229344,-0.526367,-11.604,2.13896,-79.6234,4.42749,-142.081,5.37109,7.56836,82.8857,0.270233,-0.18222,0.614197,-0.718628,-10799,11802,-18452,-3565,-29318
229350,-0.784766,-10.9006,2.81367,-79.585,4.86145,-142.048,6.46973,10.6812,87.3413,0.272736,-0.179749,0.614716,-0.717834,-1839,15130,-19220,-3565,-29318
229356,-0.995313,-13.3841,2.70361,-79.5959,5.31189,-142.02,-2.99072,13.3057,89.3555,0.27774,-0.174347,0.61618,-0.716003,17618,22554,-19988,-3565,-29318
229362,-0.712988,-13.1065,2.75146,-79.574,6.30615,-141.938,1.70898,12.4512,102.783,0.280487,-0.171448,0.617004,-0.714935,28114,26394,-18964,-3565,-29318
229368,-0.693848,-12.1878,2.41172,-79.541,6.8335,-141.91,5.37109,15.3809,107.239,0.283417,-0.168365,0.617798,-0.713806,-26158,30746,-18964,-3565,-29318
229374,-0.6125,-10.8527,2.00498,-79.5245,7.37732,-141.883,1.89209,16.6626,109.802,0.286377,-0.165009,0.618561,-0.712738,-15406,-30438,-19732,-3565,-29318
229380,-1.35898,-12.3936,2.44521,-79.53,7.9541,-141.85,-2.38037,17.5781,115.662,0.289368,-0.161621,0.619446,-0.711548,-2606,-27622,-19732,-3565,-29318
229386,-1.82793,-12.2739,2.79932,-79.53,8.54736,-141.812,3.11279,14.6484,127.136,0.295776,-0.15448,0.62149,-0.70871,25555,-22246,-21268,-3565,-29318
229392,-1.33506,-12.5084,2.70361,-79.4861,9.8053,-141.713,1.46484,17.395,128.662,0.299316,-0.150665,0.622375,-0.707275,-24621,-19430,-21268,-3565,-29318
229398,-1.32549,-12.1064,2.80889,-79.4696,10.4535,-141.669,1.2207,17.0288,132.874,0.302795,-0.146759,0.623322,-0.70578,-8749,-15590,-21780,-3565,-29318
229404,-0.703418,-12.7094,2.42607,-79.4916,11.1127,-141.63,-5.7373,20.2026,134.583,0.306396,-0.142792,0.624298,-0.704193,6612,-11750,-22548,-3565,-29318
229410,-1.49297,-15.279,2.97158,-79.4971,11.8268,-141.586,-3.2959,20.2637,145.142,0.309937,-0.138733,0.625488,-0.702393,-25900,-4838,-26900,-3565,-29318
229416,-1.37334,-15.5948,1.72744,-79.4476,13.3649,-141.443,0.305176,17.2729,161.438,0.318024,-0.129761,0.627655,-0.698547,-8492,-1510,-29716,-3565,-29318
229422,-1.00967,-15.1594,1.72266,-79.4037,14.1998,-141.378,5.79834,21.7285,170.898,0.322388,-0.125031,0.628693,-0.696442,9173,2331,31980,-3565,-29318
229428,-1.19629,-15.1546,2.54092,-79.3542,15.0568,-141.317,6.89697,22.7661,176.514,0.326935,-0.119843,0.629669,-0.694366,27605,5915,28140,-3565,-29318
229434,-0.708203,-16.6523,2.55527,-79.2993,15.9467,-141.229,7.20215,19.4702,185.181,0.331604,-0.114441,0.630646,-0.6922,-18731,10011,23276,-3565,-29318
229440,-0.961816,-16.705,3.15342,-79.1895,16.9025,-141.031,13.7939,18.1274,198.059,0.336578,-0.108948,0.631531,-0.68985,19670,16923,13292,-3565,-29318
229446,-0.870898,-17.1931,1.82314,-78.9587,18.9294,-140.641,19.043,19.104,216.919,0.348389,-0.0977173,0.632812,-0.684479,-25130,19483,7916,-3565,-29318
229452,-0.449805,-17.9874,1.14365,-78.8379,20.0116,-140.449,15.5029,25.5737,225.098,0.354797,-0.0916443,0.63324,-0.681641,-2602,22043,3052,-3565,-29318
229458,-1.75137,-18.3989,0,-78.6841,21.1377,-140.235,20.9961,23.4375,235.962,0.361176,-0.0852356,0.63385,-0.678528,20695,24347,-1301,-3565,-29318
229464,-1.43076,-20.2843,-0.090918,-78.4808,22.3132,-139.966,25.9399,16.3574,247.314,0.367889,-0.0784912,0.634247,-0.675354,-20521,26651,-5141,-3565,-29318
229470,-0.339746,-18.9684,-1.0958,-78.1952,23.5272,-139.664,39.7949,12.8174,257.568,0.382599,-0.0643005,0.634064,-0.668823,28888,30491,-13589,-3565,-29318
229476,-0.92832,-18.1884,0.440234,-77.547,26.1145,-139.059,47.3022,17.7002,280.884,0.390198,-0.056488,0.633636,-0.665527,-10536,31771,-18453,-3565,-29318
229482,-0.669922,-19.8105,2.69883,-77.1954,27.4878,-138.702,45.7153,15.1978,293.762,0.398132,-0.0483093,0.633118,-0.661987,16601,-32229,-26133,-3565,-29318
229488,0.449805,-19.2172,2.95723,-76.8384,28.9215,-138.34,44.1895,18.6157,306.335,0.406372,-0.0398865,0.632507,-0.658081,-20263,-31717,30699,-3565,-29318
229494,0.937891,-21.1791,5.14883,-76.4868,30.4156,-137.977,40.8325,24.0479,318.054,0.414795,-0.0310669,0.631927,-0.653839,9434,-32741,21483,-3565,-29318
229500,2.07197,-21.1169,4.30186,-76.0913,31.9757,-137.587,46.5088,26.2451,333.984,0.432068,-0.0120239,0.630798,-0.644318,6875,28955,1259,-3565,-29318
229506,0.459375,-17.5711,2.24902,-75.2673,35.2771,-136.862,49.9268,40.4663,356.079,0.440704,-0.0015564,0.630096,-0.639252,-25637,25883,-9238,-3565,-29318
229512,-2.49307,-16.0351,3.81855,-74.9213,36.9635,-136.533,36.9263,51.0864,358.154,0.449463,0.00924683,0.629333,-0.63382,8668,21787,-20246,-3565,-29318
229518,-4.13438,-19.4469,2.08154,-74.6356,38.6444,-136.077,10.376,34.3628,360.657,0.457855,0.0201416,0.629028,-0.627838,-21028,16923,-32022,-3565,-29318
229524,0.287109,-23.476,2.52178,-74.1797,40.3418,-135.483,23.0103,17.8223,371.582,0.466644,0.0300903,0.628967,-0.620972,15581,10523,21738,-3565,-29318
229530,0.354102,-24.5861,4.53633,-73.6523,42.0886,-134.945,43.8232,33.7524,378.845,0.484985,0.0512085,0.626831,-0.607574,24798,-5350,-791,-3565,-29318
229536,-1.50732,-19.5952,4.05781,-72.4384,45.6757,-133.665,32.8979,29.2969,394.836,0.49411,0.062561,0.625244,-0.600739,-2594,-14822,-11543,-3565,-29318
229542,-1.63174,-18.0735,1.61738,-71.7847,47.4445,-132.88,26.7944,20.0806,393.86,0.503326,0.0736084,0.62381,-0.593262,-28705,-25574,-22039,-3565,-29318
229548,-0.507227,-19.0688,2.92852,-71.0211,49.1968,-131.973,25.0244,10.1929,395.508,0.512604,0.084259,0.622223,-0.585541,13024,27930,31465,-3565,-29318
229554,1.40684,-21.0547,3.11992,-70.2136,50.9491,-131.006,22.0947,11.4136,398.376,0.522034,0.0946045,0.6203,-0.577637,-9504,14874,19433,-3565,-29318
229560,2.64141,-21.5619,0.842188,-69.3402,52.7124,-129.974,20.9351,13.916,402.832,0.540436,0.115387,0.616272,-0.561005,14562,-16871,-4632,-3565,-29318
229566,3.32568,-20.4853,-0.6125,-67.3627,56.0962,-127.678,18.1885,13.4277,387.39,0.549438,0.125519,0.613953,-0.552521,-8222,32025,-16664,-3565,-29318
229572,1.38291,-21.6815,-0.234473,-66.2421,57.7277,-126.409,20.9961,10.1318,386.963,0.5578,0.135376,0.611816,-0.544159,-30493,13081,-28184,-3565,-29318
229578,6.94805,-15.6762,-4.94307,-64.6216,59.2603,-124.7,41.0767,-27.832,386.902,0.566071,0.145172,0.609375,-0.535767,13540,-7144,24808,-3565,-29318
229584,11.1351,-5.28281,-5.08662,-62.9462,60.6445,-123.129,72.8149,-13.1226,353.699,0.574982,0.15451,0.605438,-0.528076,-7964,-28648,11752,-3565,-29318
229590,6.40732,1.0623,-4.9335,-61.452,61.9244,-121.915,94.3604,21.1182,318.604,0.587616,0.17395,0.597717,-0.516785,15334,-10729,-16153,-3565,-29318
229596,-5.546,30.4527,-1.63174,-58.6615,63.2922,-119.8,78.3081,2.19727,132.507,0.592957,0.182404,0.592468,-0.513794,-8474,30999,-30489,-3565,-29318
229602,-5.35459,14.3507,-1.90928,-58.3594,63.0615,-119.427,2.80762,-50.2319,16.3574,0.594513,0.186615,0.590149,-0.513153,32743,5399,20711,-3557,-29319
229608,0.77998,4.70381,-2.88066,-58.4088,62.4188,-119.438,1.09863,-64.7583,-71.5332,0.595459,0.184692,0.589081,-0.513977,6888,-20970,5095,-3557,-29319
229614,0.320605,2.95723,-0.62207,-58.8977,61.4685,-119.855,-15.5029,-65.1855,-145.325,0.594727,0.180176,0.58844,-0.517151,-20760,18454,-9498,-3565,-29318
229620,3.17256,-0.985742,0.373242,-59.5349,60.249,-120.322,-37.6587,-85.5103,-194.519,0.589691,0.164215,0.589233,-0.527252,-22295,-26347,29670,-3565,-29318
229626,7.03418,-11.4461,-1.49297,-61.1444,57.5519,-121.624,-35.8887,-71.3501,-234.802,0.58609,0.154205,0.590271,-0.533112,2794,21525,16358,-3565,-29318
229632,6.10586,-13.3314,-2.54092,-61.7981,56.1786,-122.25,-17.8223,-74.2798,-234.558,0.581726,0.14444,0.591309,-0.539398,23786,6933,4326,-3565,-29318
229638,5.62734,-13.3745,-2.0959,-62.287,54.8383,-122.8,0.488281,-75.5615,-227.661,0.57724,0.13504,0.591797,-0.546082,-25878,-4332,-8219,-3565,-29318
229644,5.0292,-11.5992,-1.55039,-62.6495,53.5309,-123.289,15.564,-75.1343,-219.482,0.572754,0.126282,0.591705,-0.552979,-15126,-12524,-21019,-3565,-29318
229650,5.37373,-7.67061,-1.09102,-62.9077,52.2729,-123.695,22.0947,-77.0264,-208.374,0.563965,0.110321,0.590302,-0.566742,-6678,-18412,19941,-3565,-29318
229656,5.52686,-6.18721,-1.30156,-63.2922,49.8944,-124.409,25.9399,-72.1436,-189.88,0.559784,0.102905,0.589294,-0.573303,-7702,-18156,7653,-3565,-29318
229662,5.32109,-4.55547,-1.33984,-63.4625,48.7628,-124.733,25.0244,-71.167,-183.105,0.555664,0.0958252,0.588257,-0.579559,-9750,-16620,-3868,-3565,-29318
229668,5.35459,-2.97158,-1.00488,-63.6493,47.6532,-125.063,20.3857,-67.749,-180.115,0.551605,0.0888977,0.587219,-0.585571,-14358,-13292,-15900,-3565,-29318
229674,5.43115,-1.78965,-0.645996,-63.8965,46.5546,-125.425,13.6719,-61.4014,-179.932,0.547485,0.0820312,0.586304,-0.591309,-21526,-8172,-28444,-3565,-29318
229680,5.80439,-0.665137,-0.468945,-64.2096,45.4559,-125.832,5.31006,-54.6265,-183.716,0.538513,0.0682068,0.585449,-0.602081,24810,5909,12772,-3565,-29318
229686,5.71348,-0.124414,-0.267969,-65.105,43.1927,-126.837,-14.8315,-37.9028,-202.148,0.533447,0.0610657,0.585571,-0.607208,11754,14613,996,-3565,-29318
229692,6.07236,0.0574219,-0.119629,-65.6927,41.9897,-127.441,-26.6724,-30.3345,-215.21,0.527771,0.0535889,0.586212,-0.612244,-2839,23829,-9501,-3565,-29318
229698,6.45039,-0.263184,-0.0430664,-66.3849,40.7428,-128.123,-37.9639,-20.2637,-229.858,0.521484,0.0456848,0.587311,-0.617188,-18199,-32491,-18973,-3565,-29318
229704,6.44082,-1.03838,-0.200977,-67.1539,39.4299,-128.87,-47.1191,-11.3525,-245.85,0.514496,0.0374451,0.588928,-0.62207,30953,-22507,-26653,-3565,-29318
229710,6.33555,-3.36396,-0.378027,-67.9724,38.0566,-129.666,-58.3496,4.5166,-273.438,0.49826,0.0199585,0.593262,-0.631897,-5912,-235,25827,-3565,-29318
229716,5.99102,-4.74688,-0.545508,-69.6808,35.1562,-131.353,-60.4248,10.498,-284.302,0.489136,0.0108337,0.595764,-0.636841,-26392,12566,19683,-3540,-29321
229722,5.546,-6.1585,-0.756055,-70.5157,33.6511,-132.209,-59.5093,15.8081,-291.992,0.479462,0.00158691,0.598358,-0.641846,16360,25622,14051,-3540,-29321
229728,5.01963,-7.02939,-0.827832,-71.3068,32.124,-133.044,-56.5186,18.7378,-296.387,0.46936,-0.00769043,0.600922,-0.646881,-7705,-26346,9955,-3540,-29321
229734,4.48369,-7.42178,-0.813477,-72.0593,30.5804,-133.852,-55.481,20.752,-298.523,0.458954,-0.0169373,0.603302,-0.651917,-31513,-12010,6883,-3540,-29321
229740,2.79453,-7.77109,-1.28242,-72.7844,29.0314,-134.626,-59.082,18.9209,-298.645,0.437714,-0.0353394,0.607727,-0.661591,-18202,18711,7139,-3540,-29321
229746,2.05762,-8.06777,-1.48818,-74.1357,25.9167,-136.005,-61.3403,14.8926,-299.133,0.427094,-0.0446472,0.609772,-0.666077,19174,-30441,9955,-3540,-29321
229752,1.28242,-8.39316,-1.68438,-74.7675,24.3457,-136.599,-64.6973,8.8501,-298.828,0.416534,-0.0540771,0.611664,-0.670319,-10523,-14313,13795,-3540,-29321
229758,0.416309,-8.69941,-1.84229,-75.3717,22.7582,-137.12,-67.749,1.28174,-300.781,0.406097,-0.0637207,0.613373,-0.674286,26341,1048,18147,-3540,-29321
229764,-0.512012,-8.84775,-1.97627,-75.9485,21.1487,-137.56,-71.2891,-9.09424,-303.467,0.395813,-0.0736694,0.614899,-0.678009,-4636,16920,23523,-3540,-29321
229770,-1.54082,-9.46025,-1.83271,-76.4978,19.5062,-137.906,-80.1392,-35.5835,-312.012,0.375824,-0.0949097,0.617218,-0.684631,-6429,-16104,-28957,-3540,-29321
229776,-1.86621,-10.0393,-1.62695,-77.569,16.1389,-138.318,-85.5103,-49.7437,-315.552,0.366119,-0.106323,0.617981,-0.687469,22499,-232,-19485,-3540,-29321
229782,-2.05762,-10.9771,-1.38291,-78.0908,14.4196,-138.384,-90.3931,-63.4155,-318.665,0.35672,-0.118317,0.61853,-0.689972,-15646,15129,-9757,-3540,-29321
229788,-2.23945,-11.7763,-0.818262,-78.6072,12.6947,-138.362,-94.6045,-76.8433,-319.214,0.347565,-0.130829,0.618805,-0.692108,10210,29465,484,-3540,-29321
229794,-2.05283,-12.7094,0.0143555,-79.14,10.9863,-138.252,-100.159,-88.1348,-316.406,0.338776,-0.143738,0.618866,-0.693878,-3872,-9191,21988,-3540,-29321
229800,-1.95234,-14.9105,1.73223,-80.2332,7.65198,-137.84,-109.375,-102.6,-304.138,0.322235,-0.170288,0.61853,-0.696045,19936,3098,-31260,-3540,-29321
229806,-1.78965,-15.8628,2.59834,-80.7935,6.06445,-137.565,-111.511,-105.53,-295.105,0.314514,-0.183563,0.618225,-0.696442,-23073,14874,-17692,-3540,-29321
229812,-1.66523,-16.5375,3.51709,-81.3593,4.53735,-137.258,-112.61,-106.262,-283.936,0.307159,-0.196625,0.617889,-0.696503,-2082,25626,-1820,-3540,-29321
229824,-0.674707,-17.0064,5.44072,-82.4854,1.68091,-136.631,-111.877,-97.5342,-264.099,0.293396,-0.221588,0.617004,-0.695709,-8740,-13030,-16155,-3540,-29321
229830,-0.282324,-17.4993,6.31641,-83.606,-0.966797,-136.104,-109.741,-78.0029,-251.038,0.28009,-0.244385,0.616211,-0.694244,9692,-6630,2790,-3540,-29321
229836,-0.325391,-17.4754,6.44082,-84.1608,-2.2467,-135.901,-109.924,-66.3452,-248.901,0.273346,-0.254944,0.615875,-0.693451,27867,-1766,22758,-3540,-29321
229842,-0.521582,-17.6572,6.38818,-84.7211,-3.51562,-135.736,-111.633,-56.2744,-249.268,0.266357,-0.264984,0.61554,-0.692688,-19750,1563,-22298,-3540,-29321
229848,-0.636426,-18.0831,6.0915,-85.2814,-4.78455,-135.61,-112.671,-46.3867,-251.953,0.259064,-0.274689,0.615295,-0.691895,-1831,3611,-794,-3540,-29321
229854,-1.06709,-18.6525,5.65127,-85.8417,-6.06995,-135.516,-112.976,-37.4756,-256.531,0.251404,-0.284119,0.615051,-0.691132,-29480,4123,-22553,-3540,-29321
229860,-2.34951,-19.8153,4.85215,-86.9183,-8.69568,-135.406,-108.276,-23.7427,-267.944,0.234985,-0.302246,0.614319,-0.68988,-9769,2843,-2329,-3540,-29321
229866,-3.21084,-20.1216,4.58896,-87.4347,-10.0415,-135.374,-106.384,-19.5312,-273.865,0.226288,-0.311096,0.613678,-0.689423,9431,27,18152,-3540,-29321
229872,-4.09131,-20.3321,4.30664,-87.9401,-11.4093,-135.346,-104.614,-16.9678,-280.518,0.217346,-0.319855,0.612854,-0.688995,27606,-4838,-26648,-3540,-29321
229878,-4.78994,-20.4565,4.1918,-88.4344,-12.7991,-135.313,-102.783,-15.5029,-286.072,0.20816,-0.328613,0.611847,-0.688629,-20011,-11238,-5400,-3540,-29321
229884,-5.40723,-20.7915,4.31143,-88.9178,-14.2053,-135.275,-100.403,-14.4043,-290.283,0.198792,-0.337341,0.610596,-0.688293,16596,-27878,-30231,-3540,-29321
229890,-6.42168,-20.9925,4.57461,-89.8572,-17.0288,-135.192,-97.0459,-11.3525,-294.678,0.179749,-0.354614,0.607544,-0.687561,-30253,27930,-11799,-3540,-29321
229896,-6.75664,-20.9638,4.90479,-90.3186,-18.4351,-135.148,-95.1538,-9.82666,-295.654,0.170135,-0.363098,0.605774,-0.687134,-11566,16410,6122,-3540,-29321
229902,-7.21602,-20.892,5.20625,-90.769,-19.8413,-135.099,-94.1772,-7.56836,-295.715,0.160492,-0.371429,0.603851,-0.686676,6610,2586,21994,-3540,-29321
229908,-7.40264,-20.9638,5.41201,-91.2085,-21.2366,-135.055,-92.3462,-5.37109,-295.837,0.150818,-0.379578,0.601837,-0.686188,24273,-12775,-27670,-3540,-29321
229914,-7.55576,-21.2652,5.72305,-91.626,-22.6154,-135.027,-88.6841,-0.976562,-294.25,0.141113,-0.387543,0.599701,-0.685699,-8241,15641,3051,-3540,-29321
229920,-8.24961,-21.5858,6.24941,-92.3456,-25.318,-135.038,-77.3926,11.2915,-286.987,0.121765,-0.402496,0.594971,-0.684875,10703,-3816,17899,-3540,-29321
229926,-8.63242,-21.715,6.34512,-92.6312,-26.6144,-135.099,-70.9839,19.6533,-280.457,0.112213,-0.409332,0.592377,-0.684692,29902,-25320,30955,-3540,-29321
229932,-9.60859,-23.342,8.06299,-92.8345,-27.8503,-135.22,-59.8145,29.48,-268.372,0.102753,-0.415649,0.589691,-0.684723,-16691,17176,-23061,-3540,-29321
229938,-10.3312,-18.5951,6.29248,-92.9333,-29.0369,-135.406,-46.0205,40.8325,-258.972,0.0936279,-0.421173,0.586884,-0.685059,3533,-7657,-12821,-3540,-29321
229944,-11.3217,-17.0399,8.45059,-92.9993,-30.1465,-135.637,-45.5933,48.0957,-244.751,0.0847778,-0.425995,0.583832,-0.685822,-19509,4119,2540,-3540,-29321
229950,-17.7099,-16.6141,7.50791,-93.0322,-32.0636,-136.351,-53.5278,72.2046,-205.261,0.0679016,-0.43338,0.578522,-0.687561,4811,-22506,8428,-3565,-29318
229956,-22.3132,-19.1502,4.90479,-93.0103,-32.8546,-136.73,-45.4102,66.7725,-184.387,0.0597839,-0.435638,0.576691,-0.688416,30666,15638,12780,-3565,-29318
229962,-25.2178,-20.1168,3.13906,-92.8949,-33.5193,-137.054,-22.583,56.0303,-161.499,0.0526428,-0.437469,0.575012,-0.68927,-8247,-12523,15596,-3565,-29318
229968,-28.7109,-18.375,2.13418,-92.6642,-34.0356,-137.346,5.67627,46.6919,-133.728,0.046936,-0.438904,0.573059,-0.690399,20169,24341,16876,-3565,-29318
229974,-31.984,-14.4703,2.29209,-92.373,-34.4092,-137.571,24.1089,34.8511,-107.666,0.0428772,-0.439789,0.570801,-0.691986,16072,-32492,17900,-3565,-29318
229980,-36.3193,-4.22051,4.5124,-91.983,-34.7333,-137.752,14.2212,-0.732422,-57.1899,0.0389404,-0.440582,0.566589,-0.69516,-15673,5140,16364,-3565,-29318
229986,-36.0035,-1.45947,5.75654,-92.0435,-34.6838,-137.675,-11.7188,-20.5078,-31.9824,0.0386658,-0.440796,0.565582,-0.695862,21191,-20973,13804,-3565,-29318
229992,-34.0799,-2.45957,6.0293,-92.3016,-34.5026,-137.505,-41.8701,-36.9873,-6.53076,0.0392151,-0.440979,0.565826,-0.695496,-5434,19731,9964,-3565,-29318
229998,-30.9552,-6.19199,6.04844,-92.6752,-34.1785,-137.274,-58.4717,-48.8281,19.3481,0.0403748,-0.44104,0.567444,-0.694061,-29754,-4078,5612,-3565,-29318
230004,-27.5864,-9.5751,6.27813,-93.0817,-33.717,-137.005,-60.6689,-57.8613,46.0815,0.0452881,-0.440155,0.573242,-0.689575,-8251,19730,-2837,-3565,-29318
230010,-19.3081,-35.458,14.4272,-93.8232,-32.2064,-136.258,4.82178,-78.6133,125.61,0.0493164,-0.439331,0.577942,-0.685852,-26939,1810,-4373,-3565,-29318
230016,-15.2024,-28.998,11.8241,-93.5156,-31.2067,-136.071,71.106,-51.6357,157.043,0.056427,-0.437195,0.580536,-0.684479,21957,-13807,-4373,-3565,-29318
230022,-13.9918,-18.753,11.9772,-92.7521,-30.13,-136.005,148.621,-29.6021,173.828,0.065033,-0.433289,0.581757,-0.685181,6853,-26863,-1557,-3565,-29318
230028,-13.1209,-10.3264,11.805,-91.8787,-29.0204,-136.027,161.804,-12.207,181.641,0.0750427,-0.42807,0.580963,-0.688141,-5180,27921,2028,-3565,-29318
230034,-7.39307,5.49336,4.64639,-90.9174,-28.0096,-136.126,172.546,4.15039,163.452,0.0942383,-0.415802,0.578033,-0.695679,-21308,14353,7660,-3565,-29318
