Timestamp,AccX,AccY,AccZ,AngleX,AngleY,AngleZ,AngularVelX,AngularVelY,AngularVelZ,QW,QX,QY,QZ,MagX,MagY,MagZ,Height,AirPressure
1021407,-2.27295,-9.52246,1.01924,-83.7323,9.51965,-132.583,-0.488281,5.61523,4.57764,0.34906,-0.211212,0.633636,-0.657227,-23600,8987,4845,-3200,-29362
1021413,-1.9667,-9.45068,0.827832,-83.7268,9.55811,-132.61,0.244141,3.96729,4.45557,0.34906,-0.210785,0.633789,-0.657196,-19504,9499,7405,-3200,-29362
1021419,-1.69873,-10.0393,1.0958,-83.7378,9.60205,-132.643,-1.52588,4.76074,4.82178,0.349121,-0.210388,0.633911,-0.657166,-15664,10267,9453,-3200,-29362
1021425,-1.60303,-10.6422,0.598145,-83.7268,9.71191,-132.704,3.05176,5.24902,8.23975,0.349213,-0.209534,0.634308,-0.657043,-12080,11291,12269,-3200,-29362
1021431,-1.43076,-9.83828,0.76084,-83.6993,9.77234,-132.737,6.46973,5.92041,9.0332,0.349365,-0.208954,0.634399,-0.657043,-5168,13339,17133,-3200,-29362
1021437,-1.9667,-9.42676,1.37334,-83.6774,9.83276,-132.781,5.12695,9.0332,9.70459,0.349548,-0.208313,0.634399,-0.657135,-2352,14875,19693,-3200,-29362
1021443,-2.12939,-9.46504,1.1293,-83.6609,9.89868,-132.825,4.39453,7.62939,10.1318,0.34964,-0.207581,0.634521,-0.657227,977,16923,20205,-3200,-29362
1021449,-2.07197,-9.71387,1.33027,-83.6389,9.97009,-132.858,4.82178,6.40869,10.6201,0.349762,-0.206909,0.634644,-0.657257,3793,18715,19693,-3200,-29362
1021455,-2.55527,-9.72344,0.698633,-83.6169,10.1019,-132.924,2.31934,5.98145,10.1929,0.350098,-0.205597,0.634857,-0.657257,7889,20251,18413,-3200,-29362
1021461,-2.56963,-9.36934,1.23457,-83.6005,10.1569,-132.957,4.27246,5.67627,8.72803,0.35025,-0.204987,0.63501,-0.657227,15569,22043,15597,-3200,-29362
1021503,-2.79932,-9.24014,1.36855,-83.4961,10.5798,-133.077,1.70898,0.366211,6.5918,0.351837,-0.201141,0.635529,-0.657043,-25135,28955,19949,-3200,-29362
1021509,-2.69883,-9.78086,1.05752,-83.4741,10.6238,-133.083,3.60107,-0.732422,5.98145,0.352051,-0.200806,0.63559,-0.657013,-20783,29211,21997,-3200,-29362
1021515,-2.51221,-9.39326,0.957031,-83.4412,10.7227,-133.088,2.50244,0.549316,7.87354,0.35257,-0.200073,0.635559,-0.656982,-13359,29467,25581,-3200,-29362
1021521,-2.38779,-9.29756,0.799121,-83.4192,10.7776,-133.094,3.2959,0.366211,8.36182,0.352814,-0.199677,0.63559,-0.656952,-9775,29467,27117,-3200,-29362
1021527,-2.81846,-10.3599,1.39248,-83.4082,10.838,-133.099,1.70898,-0.0610352,9.64355,0.353088,-0.19928,0.63559,-0.656891,-6191,29467,28653,-3200,-29362
1021533,-2.36387,-10.5656,0.349316,-83.3862,10.8984,-133.094,4.15039,-0.915527,10.1929,0.353394,-0.198853,0.635681,-0.656799,-2863,29723,30701,-3200,-29362
1021539,-2.26338,-10.3312,0.698633,-83.3478,10.9644,-133.094,7.50732,-0.12207,11.1084,0.35376,-0.198425,0.635651,-0.656738,978,29979,32237,-3200,-29362
1021545,-2.95723,-9.62295,0.842188,-83.2709,11.1127,-133.099,7.87354,0.610352,11.6577,0.354614,-0.197296,0.635498,-0.656769,9426,31515,-29203,-3200,-29362
1021551,-2.82803,-9.60859,1.29199,-83.2214,11.1786,-133.099,9.70459,-0.427246,11.3525,0.355011,-0.196716,0.635437,-0.656799,13778,32283,-27667,-3200,-29362
1021557,-3.06729,-9.15879,1.20586,-83.172,11.2445,-133.094,8.60596,-0.854492,11.2915,0.355438,-0.196167,0.635284,-0.656891,17874,-32485,-25107,-3200,-29362
1021563,-2.4835,-9.0918,1.22979,-83.1335,11.3049,-133.094,7.56836,-0.732422,9.82666,0.355865,-0.195618,0.635162,-0.656921,21714,-31973,-22547,-3200,-29362
1021569,-2.90459,-9.46504,1.49775,-83.0951,11.3654,-133.094,7.75146,-0.732422,9.46045,0.356232,-0.19516,0.63504,-0.656952,25298,-31973,-21011,-3200,-29362
1021575,-2.66055,-9.16357,1.5791,-83.0072,11.4752,-133.077,7.08008,-1.46484,8.91113,0.357056,-0.194183,0.634766,-0.657074,31954,-31205,-18451,-3200,-29362
1021581,-2.21553,-9.58467,1.0001,-82.9742,11.5302,-133.072,6.10352,-2.13623,8.11768,0.357422,-0.193756,0.634644,-0.657135,-30766,-30693,-19219,-3200,-29362
1021587,-2.43086,-9.55596,1.05273,-82.9303,11.5741,-133.066,8.72803,-1.2207,7.75146,0.357788,-0.19339,0.634552,-0.657135,-28462,-30181,-19731,-3200,-29362
1021593,-2.52656,-9.72822,1.3207,-82.8809,11.629,-133.061,9.21631,-1.83105,8.36182,0.358124,-0.192963,0.634369,-0.657227,-26414,-30181,-19987,-3200,-29362
1021599,-2.28252,-9.60381,1.27285,-82.8314,11.673,-133.055,9.52148,-1.52588,7.87354,0.358856,-0.192139,0.634003,-0.65744,-22830,-30181,-22035,-3200,-29362
1021629,-2.56963,-9.02002,1.6126,-82.5128,11.9421,-132.995,10.1318,-3.96729,7.62939,0.361053,-0.189789,0.632629,-0.658234,-2862,-24293,-24339,-3200,-29362
1021635,-2.44521,-9.69473,1.225,-82.4194,12.0355,-132.973,9.94873,-1.83105,8.11768,0.36145,-0.189453,0.632477,-0.658295,2515,-23269,-23059,-3200,-29362
1021641,-2.45,-9.97227,1.07187,-82.37,12.085,-132.957,9.64355,-2.68555,8.36182,0.361816,-0.189026,0.632263,-0.658417,5587,-23013,-23059,-3200,-29362
1021647,-2.92373,-9.55596,1.30635,-82.3096,12.1399,-132.946,10.9863,-2.68555,9.64355,0.362213,-0.188629,0.632019,-0.658508,9427,-23013,-22547,-3200,-29362
1021653,-2.55049,-9.58467,0.732129,-82.2546,12.1948,-132.935,10.8032,-2.31934,9.94873,0.36264,-0.188202,0.631775,-0.65863,13011,-23269,-21779,-3200,-29362
1021659,-2.94287,-9.77129,0.904395,-82.1997,12.2552,-132.918,10.6812,-3.23486,10.2539,0.363556,-0.187286,0.631317,-0.658844,16595,-23781,-22547,-3200,-29362
1021665,-3.29697,-10.068,0.875684,-82.0514,12.3871,-132.874,15.9912,-3.60107,12.8174,0.364105,-0.186798,0.631042,-0.658936,24275,-24805,-23315,-3200,-29362
1021671,-3.39268,-9.53203,1.33506,-81.9525,12.4585,-132.841,18.7988,-6.71387,13.4277,0.364685,-0.186218,0.630676,-0.659119,27859,-25061,-23571,-3200,-29362
1021677,-3.1582,-8.98174,1.41162,-81.8591,12.5244,-132.808,17.5171,-6.10352,12.9395,0.365417,-0.185638,0.630188,-0.659363,30931,-24549,-23315,-3200,-29362
1021683,-2.8376,-9.20664,1.63174,-81.7712,12.5903,-132.77,15.9912,-7.08008,11.5356,0.366089,-0.185089,0.62973,-0.659576,-31021,-24037,-23571,-3200,-29362
1021815,-2.97637,-9.40762,1.34463,-80.343,13.8373,-132.347,6.28662,-0.183105,11.5967,0.377106,-0.174927,0.623047,-0.662506,-13100,-23781,29421,-3200,-29362
1021821,-2.85195,-9.52725,1.64609,-80.3101,13.8977,-132.336,5.85938,-1.83105,11.4746,0.377472,-0.174438,0.622986,-0.662476,-10540,-23781,29421,-3200,-29362
1021827,-2.68447,-9.52246,1.69395,-80.2771,13.9636,-132.33,5.79834,-0.366211,11.7798,0.377899,-0.174011,0.622894,-0.662415,-8236,-23781,28141,-3200,-29362
1021833,-2.78018,-9.25928,1.58867,-80.2441,14.0295,-132.325,6.16455,-0.305176,11.5967,0.378296,-0.173523,0.622833,-0.662384,-5420,-23781,27117,-3200,-29362
1021839,-3.18691,-9.26406,1.72744,-80.2222,14.09,-132.325,6.16455,-1.58691,11.5967,0.379028,-0.172577,0.622742,-0.662292,-2348,-24293,26605,-3200,-29362
1021845,-3.20605,-8.78076,1.81357,-80.1508,14.2163,-132.303,6.65283,-0.732422,11.1694,0.379456,-0.172119,0.62265,-0.662262,3541,-24549,26349,-3200,-29362
1021851,-3.49795,-8.50801,1.86621,-80.1178,14.2712,-132.297,5.61523,-0.183105,10.2539,0.379822,-0.171661,0.622559,-0.662231,6101,-23781,26861,-3200,-29362
1021857,-3.56494,-8.575,1.85664,-80.0903,14.3262,-132.292,4.94385,-0.976562,9.70459,0.380188,-0.171204,0.622498,-0.662201,8917,-23269,26605,-3200,-29362
1021863,-3.5793,-8.10606,2.17246,-80.0574,14.3811,-132.27,5.61523,-3.54004,9.21631,0.380524,-0.170807,0.622437,-0.66217,12501,-22245,26093,-3200,-29362
1021869,-3.29697,-9.5751,1.34941,-80.0464,14.4305,-132.27,3.96729,0.549316,7.62939,0.381195,-0.170135,0.622345,-0.662048,16085,-21477,25837,-3200,-29362
1021875,-3.28262,-9.39326,1.37813,-79.9915,14.5239,-132.253,5.5542,-3.479,9.27734,0.381409,-0.169739,0.622314,-0.662048,22229,-20197,24045,-3200,-29362
1021881,-2.79453,-10.379,1.47383,-79.9585,14.5844,-132.242,5.7373,-1.83105,10.2539,0.381836,-0.169403,0.622192,-0.662018,24789,-19941,22509,-3200,-29362
1021887,-3.60322,-10.1015,1.29678,-79.9091,14.6503,-132.231,8.91113,-1.58691,12.3901,0.382233,-0.169006,0.622101,-0.661957,26837,-20197,20717,-3200,-29362
1021893,-3.11035,-10.2546,1.34941,-79.8651,14.7217,-132.198,7.38525,-5.18799,13.9771,0.38269,-0.168488,0.621948,-0.661987,29909,-20965,20205,-3200,-29362
1021899,-3.34004,-9.9292,1.60303,-79.8102,14.8041,-132.171,9.82666,-2.19727,16.2964,0.383881,-0.16748,0.621613,-0.661865,-31787,-21477,18413,-3200,-29362
1021905,-3.31611,-9.8335,1.60781,-79.6948,14.9744,-132.116,9.94873,-5.06592,17.4561,0.38446,-0.16687,0.621429,-0.661835,-24875,-21733,18669,-3200,-29362
1021935,-3.4501,-8.99609,2.0624,-79.3762,15.5182,-131.918,7.14111,-3.23486,18.2495,0.388672,-0.163422,0.6203,-0.661316,-8747,-17637,18413,-3208,-29361
1021941,-3.1582,-8.56543,2.21074,-79.3268,15.6061,-131.88,7.56836,-5.31006,17.5781,0.389313,-0.162842,0.620178,-0.661194,-6187,-16869,15853,-3208,-29361
1021947,-2.83281,-8.13477,2.39736,-79.2828,15.6885,-131.858,6.65283,-3.11279,16.2354,0.390015,-0.162323,0.620026,-0.661041,-3627,-15589,12269,-3208,-29361
1021953,-3.1917,-8.13477,2.27773,-79.2609,15.7654,-131.847,3.66211,-0.549316,14.8926,0.390625,-0.161804,0.619904,-0.66095,-299,-15077,9197,-3208,-29361
1021959,-3.03857,-8.53193,2.02412,-79.2224,15.9137,-131.814,2.74658,-1.83105,13.3667,0.391541,-0.160797,0.619934,-0.660614,2774,-14565,7149,-3208,-29361
1021965,-3.22998,-8.61807,1.94277,-79.2004,15.9796,-131.808,2.68555,0.671387,12.5732,0.391998,-0.16037,0.619934,-0.660431,9942,-14053,7149,-3208,-29361
1021971,-3.30176,-8.6085,1.78486,-79.184,16.04,-131.797,2.56348,-1.2207,11.5356,0.392334,-0.159882,0.619965,-0.660309,12758,-14053,7661,-3208,-29361
1021977,-2.82803,-8.7377,1.74658,-79.1675,16.1005,-131.786,2.0752,-1.77002,11.3525,0.392731,-0.159485,0.619965,-0.660187,15830,-14053,9197,-3208,-29361
1021983,-3.00029,-9.11094,1.82793,-79.1565,16.1664,-131.786,1.64795,1.2207,11.0474,0.393127,-0.159119,0.619965,-0.660034,18902,-14053,10221,-3208,-29361
1021989,-3.37832,-9.99619,1.50732,-79.151,16.2213,-131.786,3.17383,-0.976562,12.207,0.393677,-0.158295,0.620117,-0.65976,22230,-13797,11245,-3208,-29361
1021995,-3.31133,-9.47939,1.34463,-79.0961,16.3531,-131.759,5.67627,-1.95312,12.8784,0.394073,-0.157867,0.620117,-0.659637,29654,-12005,13037,-3208,-29361
1022001,-3.28262,-9.41719,1.49775,-79.0576,16.4191,-131.743,6.16455,-1.83105,12.8174,0.394531,-0.15741,0.620026,-0.659546,-31786,-11237,14061,-3208,-29361
1022007,-3.26826,-9.48418,1.84707,-79.0192,16.496,-131.715,5.7373,-3.72314,15.1978,0.394989,-0.156952,0.619934,-0.659485,-27946,-10469,14829,-3208,-29361
1022013,-2.97158,-10.1397,1.86621,-78.9862,16.5784,-131.693,5.12695,-2.0752,15.7471,0.395569,-0.156494,0.619812,-0.659363,-24106,-10469,14829,-3208,-29361
1022019,-3.34961,-9.90527,1.60303,-78.9478,16.6608,-131.677,8.17871,-3.60107,17.7002,0.396637,-0.155365,0.619659,-0.659119,-20010,-10981,14573,-3208,-29361
1022025,-3.05771,-9.60859,1.71309,-78.8434,16.8475,-131.611,8.42285,-4.15039,19.4092,0.397308,-0.154816,0.619507,-0.658997,-12842,-10725,16621,-3208,-29361
1022031,-3.37832,-9.84307,1.97627,-78.7939,16.9464,-131.583,8.05664,-2.13623,19.9585,0.39801,-0.154205,0.619354,-0.658844,-9514,-9701,17645,-3208,-29361
1022037,-3.59844,-9.98184,2.04326,-78.7445,17.0508,-131.545,7.99561,-3.66211,21.9116,0.398682,-0.153534,0.619232,-0.658722,-6442,-8677,18669,-3208,-29361
1022043,-3.44053,-9.74258,2.22988,-78.6896,17.1661,-131.506,9.09424,-4.69971,23.4985,0.399445,-0.152863,0.61911,-0.658508,-3370,-7909,18669,-3208,-29361
1022049,-3.89033,-9.17793,2.16289,-78.6346,17.287,-131.473,8.05664,-3.11279,24.353,0.401062,-0.151367,0.618835,-0.658142,-554,-7141,18925,-3208,-29361
1022055,-3.42617,-8.63721,2.47393,-78.5248,17.5287,-131.38,7.69043,-6.95801,25.7568,0.401886,-0.150604,0.618744,-0.657928,5591,-5605,18157,-3208,-29361
1022061,-3.01465,-9.21143,2.6749,-78.4918,17.6495,-131.353,4.63867,-1.58691,25.0854,0.402832,-0.149933,0.618591,-0.657623,9431,-4837,17901,-3208,-29361
1022067,-3.56016,-9.16357,2.45957,-78.4534,17.7759,-131.331,5.31006,-0.0610352,25.2075,0.403625,-0.14917,0.618591,-0.657318,13527,-3301,16109,-3208,-29361
1022073,-3.34961,-9.15879,2.46914,-78.4204,17.9022,-131.303,4.39453,-2.01416,25.3906,0.404358,-0.148346,0.618622,-0.657013,17367,-1765,14573,-3208,-29361
1022079,-3.59844,-8.96738,2.25859,-78.3765,18.1659,-131.276,2.38037,2.68555,25.9399,0.405884,-0.146759,0.618683,-0.656372,21975,-1253,13293,-3208,-29361
1022085,-3.69893,-8.95781,2.1916,-78.349,18.3032,-131.248,2.74658,-0.12207,27.2827,0.406555,-0.145905,0.618835,-0.656006,30423,-485,8685,-3208,-29361
1022091,-3.22998,-9.39326,2.26816,-78.338,18.4406,-131.232,1.34277,1.28174,27.4048,0.407349,-0.14505,0.618927,-0.655609,-29737,-997,7149,-3208,-29361
1022097,-3.34961,-9.52725,2.29688,-78.3215,18.5834,-131.232,2.13623,4.94385,27.8931,0.408081,-0.144196,0.61911,-0.655182,-24873,-997,6125,-3208,-29361
1022103,-3.5123,-9.68516,2.18682,-78.3105,18.7262,-131.221,1.28174,2.99072,29.1138,0.408722,-0.143219,0.619293,-0.654816,-19753,-1253,5357,-3208,-29361
1022109,-3.27305,-9.74736,2.13896,-78.2886,19.0448,-131.215,0.793457,7.01904,31.7383,0.410248,-0.141327,0.619659,-0.653931,-14377,-997,5869,-3208,-29361
1022115,-3.70371,-10.0919,2.05283,-78.2831,19.2151,-131.215,0.305176,5.67627,33.9355,0.41095,-0.140228,0.619965,-0.653442,-3881,540,8429,-3208,-29361
1022121,-3.37832,-10.1206,1.97148,-78.2666,19.3909,-131.204,0.793457,3.96729,35.8276,0.411713,-0.139099,0.62027,-0.652924,1752,2332,9453,-3208,-29361
1022127,-3.57451,-9.94355,2.02891,-78.2556,19.5831,-131.199,1.89209,6.46973,37.7808,0.412598,-0.13797,0.620514,-0.652344,7640,4124,9197,-3208,-29361
1022133,-4.08174,-9.8,1.89971,-78.2446,19.7754,-131.111,1.2207,5.67627,39.1846,0.413483,-0.136719,0.620819,-0.651794,13784,5148,8173,-3208,-29361
1022139,-3.78506,-9.61338,2.07197,-78.2227,20.1874,-130.913,-0.671387,6.65283,40.7715,0.416412,-0.135101,0.621155,-0.649933,19416,6684,7149,-3208,-29361
1022145,-4.48369,-9.95791,2.22031,-78.2172,20.4071,-130.831,0.244141,7.62939,43.5791,0.417847,-0.134247,0.621429,-0.648926,29656,8732,6893,-3208,-29361
1022151,-4.31143,-9.92441,1.95234,-78.2007,20.6268,-130.715,0.0610352,2.56348,45.2881,0.419281,-0.13327,0.621704,-0.647919,-30504,9244,7405,-3208,-29361
1022157,-1.69873,-4.83301,0.923535,-78.1732,20.8521,-130.6,2.68555,2.92969,46.3867,0.420929,-0.132385,0.621918,-0.64682,-24872,9756,8429,-3208,-29361
1022163,-3.68457,-9.14443,2.31123,-78.1622,21.0938,-130.507,1.15967,7.01904,48.1567,0.422607,-0.131439,0.62204,-0.645813,-18984,10268,9965,-3208,-29361
1022169,-3.67021,-9.77129,2.18682,-78.1403,21.5717,-130.298,0.671387,3.17383,49.9268,0.425781,-0.129333,0.62265,-0.643585,-12840,10780,11245,-3208,-29361
1022175,-3.78984,-9.58467,2.3543,-78.1293,21.8243,-130.204,0.488281,7.56836,50.4761,0.42749,-0.128326,0.622864,-0.642426,-40,12316,15341,-3208,-29361
1022181,-4.48369,-9.57031,2.12461,-78.1238,22.077,-130.117,0.0610352,8.36182,51.6968,0.429138,-0.127167,0.623169,-0.641266,7385,13084,16365,-3208,-29361
1022187,-4.00039,-9.36934,1.8375,-78.1128,22.3352,-130.007,-0.366211,5.24902,52.4902,0.430756,-0.125946,0.623505,-0.640106,14297,14108,17133,-3208,-29361
1022193,-3.75635,-9.74258,1.76572,-78.0963,22.6044,-129.908,0.610352,6.22559,54.3823,0.432465,-0.124847,0.623779,-0.638855,21977,14364,17133,-3208,-29361
1022199,-5.68477,-9.42197,1.44033,-78.0908,23.1757,-129.732,-2.44141,10.3149,56.9458,0.436005,-0.122192,0.624451,-0.636322,29657,14620,16109,-3208,-29361
1022205,-4.12002,-10.068,1.91885,-78.0634,23.4558,-129.589,-0.366211,-0.671387,59.1431,0.437653,-0.12085,0.624939,-0.634979,-20263,14620,13037,-3208,-29361
1022211,-3.35439,-10.0393,2.16768,-78.0579,23.7524,-129.501,-0.366211,10.3149,59.8145,0.439697,-0.11969,0.625122,-0.633575,-11815,14876,10989,-3208,-29361
1022217,-4.89043,-10.513,1.89492,-78.0469,24.0601,-129.402,0.427246,8.78906,63.2324,0.441437,-0.118225,0.625549,-0.632233,-2855,16156,9197,-3208,-29361
1022223,-4.62246,-11.36,1.97627,-78.0194,24.3732,-129.271,-0.12207,2.68555,64.4531,0.443329,-0.116699,0.625946,-0.630829,6362,17180,7405,-3208,-29361
1022229,-4.82822,-11.2068,1.40205,-77.926,25.0378,-129.04,6.65283,6.7749,70.8008,0.447449,-0.113678,0.626434,-0.62796,16346,18716,5869,-3208,-29361
1022235,-4.63203,-10.8384,0.971387,-77.8601,25.3949,-128.897,7.26318,2.13623,74.9512,0.449554,-0.111877,0.626648,-0.626556,-30246,20252,4589,-3208,-29361
1022241,-4.33057,-10.6183,1.30156,-77.7942,25.7574,-128.771,8.17871,6.53076,75.6226,0.451904,-0.110107,0.62677,-0.625061,-20518,20764,6637,-3208,-29361
1022247,-5.42158,-12.0107,1.17236,-77.7063,26.142,-128.622,10.9863,2.19727,81.4819,0.454163,-0.108154,0.626953,-0.623566,-10278,20508,8685,-3208,-29361
1022253,-4.70381,-11.5131,1.27764,-77.58,26.543,-128.436,15.1367,-2.62451,85.6934,0.456665,-0.10614,0.627014,-0.62204,-294,20764,10733,-3208,-29361
1022259,-4.11045,-10.3646,2.07676,-77.3218,27.3834,-128.106,17.4561,4.02832,90.8813,0.462189,-0.101776,0.626709,-0.618988,10459,20252,11757,-3208,-29361
1022265,-3.88076,-9.92441,1.69873,-77.1899,27.8339,-127.93,17.1509,1.52588,95.3369,0.464874,-0.0993042,0.626648,-0.617432,-32037,19228,6125,-3208,-29361
1022271,-4.23486,-10.6087,1.4834,-77.0856,28.2788,-127.771,13.0005,4.02832,94.8486,0.467743,-0.0968323,0.626556,-0.615753,-20517,18716,1005,-3208,-29361
1022277,-3.91426,-10.8527,2.20117,-76.9482,28.7457,-127.595,16.7236,2.56348,100.098,0.47049,-0.0943604,0.626617,-0.613983,-8741,18716,-5652,-3208,-29361
1022283,-3.86162,-10.3216,1.86143,-76.8329,29.2236,-127.425,14.2212,4.5166,102.234,0.473389,-0.0917358,0.626556,-0.612213,3036,18972,-11028,-3208,-29361
1022289,-4.24922,-10.5369,3.05771,-76.5912,30.2124,-127.106,14.2212,8.8501,106.812,0.479156,-0.0862122,0.626648,-0.608429,15580,18972,-15124,-3208,-29361
1022295,-4.35449,-10.69,3.63193,-76.4703,30.7397,-126.947,14.3433,9.52148,112.061,0.482025,-0.083313,0.62677,-0.606445,-24356,19484,-21012,-3208,-29361
1022301,-4.3832,-10.647,3.14385,-76.3824,31.2781,-126.81,10.6812,14.4043,113.464,0.484985,-0.0802307,0.626892,-0.60434,-11300,19484,-23572,-3208,-29361
1022307,-5.0292,-11.4939,3.12949,-76.2781,31.8384,-126.661,11.4136,13.9771,118.347,0.487823,-0.0770569,0.627228,-0.602112,2525,19484,-25876,-3208,-29361
1022313,-5.38809,-11.6614,1.64609,-76.1902,32.3987,-126.519,9.39941,14.4653,119.202,0.490784,-0.073761,0.627533,-0.599823,17373,18716,-28948,-3208,-29361
1022319,-5.2876,-12.1495,1.43076,-76.0693,32.9755,-126.354,16.0522,13.6108,129.456,0.496826,-0.0670471,0.628082,-0.595032,32477,17180,-31764,-3208,-29361
1022325,-6.67529,-12.1352,0.971387,-75.8002,34.2114,-126.035,16.6626,16.7236,132.629,0.500031,-0.063385,0.628265,-0.59256,-3619,13340,27116,-3208,-29361
1022331,-6.72314,-12.3505,1.01924,-75.6024,34.8541,-125.804,21.4233,6.10352,138.794,0.503174,-0.0595093,0.628479,-0.590057,10974,11036,23532,-3208,-29361
1022337,-5.61299,-12.1064,0.291895,-75.3882,35.5078,-125.563,22.0337,4.57764,142.334,0.506775,-0.0556641,0.628357,-0.587463,25822,8476,18156,-3208,-29361
1022343,-6.19678,-12.6998,0.382812,-75.1575,36.1945,-125.327,26.8555,7.56836,148.01,0.510437,-0.0517273,0.628204,-0.584808,-23842,5660,13292,-3208,-29361
1022349,-5.95752,-13.0491,0.129199,-74.8883,36.9086,-125.046,31.189,0.244141,162.781,0.518188,-0.0430908,0.627625,-0.579315,-7458,3356,7916,-3208,-29361
1022355,-6.8667,-14.1401,0.31582,-74.2511,38.4192,-124.409,35.6445,0.732422,169.556,0.5224,-0.0385132,0.627106,-0.576385,28127,-3301,-1301,-3208,-29361
1022361,-7.15859,-13.5994,0.186621,-73.8666,39.2212,-124.03,38.5742,-4.76074,177.856,0.526733,-0.0336609,0.626526,-0.573395,-20001,-6885,-5397,-3208,-29361
1022367,-6.53652,-13.4367,1.225,-73.4546,40.0507,-123.607,37.2925,-7.8125,185.791,0.531372,-0.028656,0.625702,-0.570251,-1569,-10725,-10773,-3208,-29361
1022373,-6.39297,-13.1735,1.7418,-73.0316,40.9186,-123.162,36.1328,-6.89697,194.519,0.536224,-0.0235596,0.624847,-0.566864,17376,-14821,-17685,-3208,-29361
1022379,-4.34971,-11.5179,3.57451,-72.5812,41.825,-122.673,23.2544,-4.39453,211.975,0.546478,-0.0127258,0.623138,-0.559265,-28192,-19173,-24853,-3208,-29361
1022385,-4.48848,-12.6472,4.11045,-71.7902,43.7476,-121.69,20.2026,0.366211,218.811,0.551727,-0.00720215,0.622589,-0.55481,15329,-30693,24811,-3200,-29362
1022391,-5.26846,-13.4463,3.76592,-71.3672,44.7583,-121.185,22.2168,2.44141,226.013,0.556946,-0.00143433,0.622162,-0.550079,-26911,27675,17131,-3200,-29362
1022397,-5.30195,-12.2356,3.62236,-70.8893,45.791,-120.657,27.9541,3.66211,231.14,0.562225,0.00457764,0.621704,-0.545197,-4639,20507,8683,-3200,-29362
1022403,-7.01025,-9.87178,3.99082,-70.4553,46.8402,-120.146,22.1558,10.9253,233.521,0.567505,0.0108948,0.621063,-0.540344,18146,12571,-534,-3200,-29362
1022409,-5.95273,-14.1832,2.6127,-70.0708,47.8839,-119.603,10.437,-0.671387,238.281,0.577728,0.0232849,0.620575,-0.529602,-23582,4123,-9750,-3200,-29362
1022415,-4.90957,-14.255,2.64619,-69.0491,49.9878,-118.339,19.2261,5.98145,242.371,0.583099,0.0292664,0.620087,-0.523956,26083,-13286,-30486,-3200,-29362
1022421,-6.20156,-13.5563,2.44043,-68.4833,51.0809,-117.697,20.9961,9.0332,247.925,0.588287,0.0357056,0.619476,-0.518433,-12829,-22502,24298,-3200,-29362
1022427,-6.5126,-13.341,1.9667,-67.868,52.1851,-116.966,16.5405,3.72314,254.517,0.593445,0.0423889,0.618866,-0.512787,14308,-32742,14314,-3200,-29362
1022433,-6.5748,-12.9821,1.88535,-67.2198,53.3057,-116.18,12.5122,3.78418,259.521,0.598785,0.0489807,0.618134,-0.506805,-24860,22298,5098,-3200,-29362
1022439,-7.6084,-13.2836,1.49775,-66.5552,54.4373,-115.345,2.01416,1.46484,268.433,0.609589,0.0621643,0.61676,-0.493988,2021,11034,-4375,-3200,-29362
1022445,-7.35,-13.5133,1.24893,-65.0281,56.7169,-113.428,2.50244,-3.05176,272.4,0.615082,0.0686951,0.616089,-0.487122,-7963,-15591,-22295,-3200,-29362
1022451,-7.17295,-13.0635,1.30156,-64.1217,57.854,-112.33,4.69971,-5.37109,275.146,0.620636,0.0752258,0.615204,-0.480164,20454,-30183,-30999,-3200,-29362
1022457,-7.17295,-12.5228,1.1293,-63.1274,58.9801,-111.149,4.94385,-7.38525,276.855,0.626221,0.0818176,0.614136,-0.473145,-16410,19737,26345,-3200,-29362
1022463,-6.78535,-11.8911,0.827832,-62.0123,60.0897,-109.852,6.89697,-11.4746,277.893,0.631805,0.0884094,0.612915,-0.466064,12007,3353,18153,-3200,-29362
1022469,-5.81875,-9.60859,0.205762,-60.7983,61.1774,-108.457,7.44629,-13.3057,277.527,0.642914,0.101471,0.609955,-0.451904,-25625,-13032,11497,-3200,-29362
1022475,-6.04365,-9.46025,-0.277539,-58.1506,63.2098,-105.43,2.01416,-17.5781,264.893,0.648315,0.107758,0.608368,-0.444824,30952,15640,-4632,-3200,-29362
1022481,-6.21113,-9.97227,0.210547,-56.684,64.1272,-103.777,5.31006,-23.8037,256.287,0.653503,0.113678,0.60675,-0.437897,-5912,-4073,-13592,-3200,-29362
1022487,-5.52207,-10.0536,-0.626855,-55.0964,64.9841,-102.036,9.09424,-27.8931,249.634,0.6586,0.119324,0.604889,-0.431274,23017,-24297,-22552,-3200,-29362
1022493,-3.62715,-7.81416,-1.47861,-53.3276,65.7642,-100.157,18.5547,-36.3159,242.615,0.663544,0.124817,0.602844,-0.424988,-13847,20503,-32536,-3200,-29362
1022499,-4.2875,-3.58887,-1.71309,-51.4929,66.4783,-98.2562,26.6724,-36.0107,231.812,0.672974,0.135559,0.597778,-0.413818,12778,791,23528,-3200,-29362
1022505,1.99063,1.22021,-4.50762,-47.4829,67.5,-94.2462,44.8608,-72.5098,195.068,0.677185,0.140656,0.595123,-0.409119,-534,24854,3560,-3200,-29362
1022511,5.43115,14.1688,-3.68457,-45.5878,67.7417,-92.5049,64.3921,-66.5894,152.466,0.681732,0.144897,0.591309,-0.405518,24299,3606,-7961,-3200,-29362
1022517,0.880469,24.9594,-3.54102,-44.6759,67.6813,-91.6534,31.189,-59.2041,61.0962,0.685211,0.148743,0.587616,-0.403656,-17173,-17387,-20761,-3200,-29362
1022523,1.65088,17.485,-1.51211,-44.7034,67.2198,-91.5106,-24.7192,-78.6133,-34.4849,0.687103,0.149445,0.585327,-0.403503,5612,27413,32743,-3200,-29362
1022529,0.253613,2.18203,-1.11973,-46.7468,65.5884,-93.0597,-65.0024,-79.5898,-167.053,0.687836,0.139618,0.583862,-0.407898,26348,8213,20455,-3200,-29362
1022535,2.02412,-1.82793,-1.11973,-48.1805,64.4568,-94.1638,-81.543,-91.5527,-208.069,0.686768,0.131378,0.584045,-0.41217,-5652,-24556,-2330,-3200,-29362
1022541,3.78506,-5.89531,-1.73223,-49.7571,63.2318,-95.3888,-88.501,-87.9517,-234.314,0.685242,0.121399,0.584381,-0.417236,5613,28948,-12314,-3200,-29362
1022547,4.34971,-8.96738,-2.38301,-51.2512,61.9244,-96.5863,-80.5664,-90.332,-248.291,0.683044,0.110565,0.585022,-0.422882,13293,20756,-22042,-3200,-29362
1022553,4.10566,-10.135,-2.22988,-52.5916,60.5731,-97.6904,-67.688,-93.4448,-252.747,0.677643,0.0886841,0.585571,-0.435822,17133,16404,-30746,-3200,-29362
1022559,3.29219,-9.79043,-1.67002,-54.7339,57.832,-99.613,-35.2173,-96.0693,-250.916,0.674591,0.0782776,0.585236,-0.442902,13549,19476,20198,-3200,-29362
1022565,3.029,-9.56553,-1.78486,-55.5414,56.4642,-100.393,-22.8882,-99.6704,-245.178,0.671448,0.0683289,0.584503,-0.450287,8685,24340,13798,-3200,-29362
1022571,1.96191,-8.78076,-2.25381,-56.2006,55.1129,-101.074,-11.0474,-101.562,-238.342,0.668335,0.0587463,0.583313,-0.457733,1005,31252,6118,-3200,-29362
1022577,0.995313,-6.76143,-2.37822,-56.7059,53.7726,-101.629,-2.68555,-108.459,-231.567,0.665253,0.0496521,0.581757,-0.46521,-9748,-25580,-1307,-3200,-29362
1022583,2.55527,-2.75146,-1.0001,-57.1344,52.4377,-102.096,-7.14111,-111.511,-225.83,0.659576,0.0320435,0.577515,-0.479889,-22548,-15084,-9755,-3200,-29362
1022589,3.43096,-1.60303,-0.650781,-58.0408,49.79,-102.997,-15.686,-107.422,-225.83,0.656677,0.0231628,0.575409,-0.486877,10220,8981,-23835,-3200,-29362
1022595,3.83291,-1.0958,-0.698633,-58.5791,48.4717,-103.464,-27.2217,-102.112,-228.088,0.653564,0.0141296,0.573517,-0.493561,-7189,21525,-30235,-3200,-29362
1022601,3.5123,-1.43555,-0.650781,-59.1998,47.1533,-103.969,-38.208,-93.811,-232.178,0.650177,0.00479126,0.57196,-0.499969,-26901,-30187,28901,-3200,-29362
1022607,2.5792,-2.21553,-0.875684,-59.87,45.824,-104.496,-47.1191,-89.3555,-237.976,0.646393,-0.00476074,0.570831,-0.506134,17131,-15339,22757,-3200,-29362
1022613,1.19629,-4.47412,-0.626855,-61.2982,43.0664,-105.579,-58.1055,-84.8999,-254.272,0.637756,-0.0248108,0.569305,-0.518097,-6166,22,16357,-3200,-29362
1022619,1.0623,-5.37373,-0.555078,-62.0068,41.6327,-106.111,-58.5938,-83.8623,-262.695,0.632935,-0.0352783,0.568604,-0.524109,8426,-31978,5349,-3183,-29364
1022625,0.818262,-6.08193,-0.358887,-62.6825,40.1605,-106.628,-55.542,-83.5571,-269.836,0.627808,-0.045929,0.567871,-0.530243,-18967,-15082,1765,-3183,-29364
1022631,1.17236,-6.27813,0.143555,-63.3252,38.6829,-107.133,-53.7109,-81.4819,-272.522,0.622406,-0.0566406,0.566925,-0.53653,19945,1303,-1308,-3183,-29364
1022637,1.20107,-6.41211,0.526367,-63.9624,37.2162,-107.622,-55.9082,-77.5146,-271.484,0.616791,-0.0673218,0.565887,-0.542847,-8472,17431,-3612,-3183,-29364
1022643,0.674707,-6.58437,1.38291,-65.2917,34.4147,-108.567,-72.0215,-60.9741,-256.348,0.605103,-0.0883484,0.564148,-0.554657,-3609,-15337,-4636,-3183,-29364
1022649,0.162695,-6.7375,1.5791,-66.0168,33.1018,-109.034,-82.5195,-51.3916,-247.498,0.599091,-0.0985413,0.563782,-0.559845,29671,1304,-3612,-3183,-29364
1022655,-0.244043,-6.77578,1.71309,-66.7804,31.8384,-109.506,-93.3228,-42.2974,-240.356,0.592926,-0.108521,0.563873,-0.564453,-4378,18456,-1052,-3183,-29364
1022661,-0.607715,-6.84756,1.88057,-67.5989,30.6134,-109.984,-104.675,-32.0435,-235.535,0.586609,-0.118378,0.564362,-0.568542,25574,-29672,2021,-3183,-29364
1022667,-0.885254,-7.43613,2.0002,-68.4503,29.4104,-110.462,-114.319,-24.6582,-234.314,0.580078,-0.128082,0.565308,-0.572174,-7963,-13288,5093,-3183,-29364
1022673,-1.62217,-9.08223,2.47393,-70.2246,27.0099,-111.467,-124.451,-8.78906,-238.037,0.566193,-0.14743,0.568115,-0.578644,-10524,18969,17125,-3183,-29364
1022679,-2.20117,-10.1732,2.6127,-71.109,25.8014,-111.973,-126.038,-3.479,-241.211,0.558807,-0.157013,0.569763,-0.581665,20708,-30439,26597,-3183,-29364
1022685,-2.61748,-11.3743,2.79453,-71.9769,24.5874,-112.473,-125.183,1.46484,-243.469,0.551178,-0.166504,0.571442,-0.584656,-14365,-14055,-28187,-3183,-29364
1022691,-2.9333,-12.384,2.82324,-72.8119,23.3844,-112.956,-121.887,5.61523,-242.615,0.543365,-0.175842,0.573059,-0.587646,17123,1306,-17179,-3183,-29364
1022697,-3.19648,-13.03,2.97158,-73.6084,22.2034,-113.434,-118.347,10.5591,-238.708,0.535461,-0.184937,0.574585,-0.590607,-17182,16666,-4891,-3183,-29364
1022703,-3.74199,-13.4846,3.13906,-75.1245,19.9841,-114.351,-114.075,20.752,-222.534,0.519745,-0.201965,0.577545,-0.596161,-20767,-20454,23270,-3183,-29364
1022709,-4.37842,-13.5133,3.1582,-75.8551,18.9624,-114.791,-113.525,25.6958,-210.693,0.512024,-0.209839,0.579071,-0.598633,9953,-7142,-25370,-3183,-29364
1022715,-4.8043,-13.5707,3.12471,-76.5637,18.0066,-115.214,-112.854,30.5786,-198.242,0.504486,-0.217194,0.580719,-0.6008,-25376,5147,-7450,-3183,-29364
1022721,-4.97656,-13.743,3.03379,-77.2559,17.1057,-115.62,-111.755,33.7524,-187.988,0.497162,-0.22406,0.582489,-0.602661,6368,16411,10215,-3183,-29364
1022727,-5.01006,-13.987,2.91895,-77.926,16.2488,-116.021,-109.009,36.9873,-178.711,0.490051,-0.230499,0.58432,-0.604279,-27681,27931,27367,-3183,-29364
1022733,-5.09141,-14.1736,2.90459,-79.173,14.6667,-116.779,-101.196,41.687,-163.574,0.47641,-0.242157,0.588013,-0.607025,-32034,-17381,-2585,-3183,-29364
1022739,-5.04834,-14.2263,2.84717,-79.7552,13.9362,-117.153,-97.229,45.4712,-156.677,0.469879,-0.247437,0.589813,-0.608276,-1571,-7397,16616,-3192,-29363
1022745,-5.24453,-14.1497,2.73232,-80.3156,13.2275,-117.526,-93.811,48.2178,-151.367,0.46347,-0.252319,0.591614,-0.609436,29149,1052,-28440,-3192,-29363
1022751,-5.34023,-13.8913,2.6749,-80.8539,12.5519,-117.9,-91.3086,50.5981,-146.362,0.457153,-0.256866,0.593384,-0.610565,-3108,8988,-8472,-3192,-29363
1022757,-5.51729,-13.5085,2.66533,-81.3867,11.8872,-118.279,-90.4541,52.9175,-143.066,0.450958,-0.261139,0.595154,-0.611664,31452,16412,12009,-3192,-29363
1022763,-5.57471,-12.8386,2.7084,-82.4524,10.5963,-119.037,-94.3604,57.251,-140.015,0.438599,-0.269135,0.598785,-0.613617,-29477,27932,-12055,-3192,-29363
1022769,-5.53643,-12.8194,2.76582,-83.0017,9.95361,-119.427,-97.7783,60.4858,-140.686,0.432312,-0.27298,0.600739,-0.614471,5339,32284,9194,-3192,-29363
1022775,-5.71348,-12.5563,2.78018,-83.562,9.29993,-119.828,-101.013,63.1714,-143.066,0.425903,-0.276764,0.602814,-0.615234,-25638,-29156,29418,-3192,-29363
1022781,-5.89053,-12.2979,2.89023,-84.1443,8.62427,-120.229,-105.774,65.0024,-148.499,0.419312,-0.280579,0.60495,-0.615967,9434,-25828,-16406,-3192,-29363
1022787,-5.84746,-12.4318,2.98115,-84.743,7.90466,-120.635,-111.084,66.1011,-155.701,0.405304,-0.288635,0.609344,-0.617279,-19495,-23268,1771,-3192,-29363
1022793,-6.07715,-13.4654,3.12471,-85.9515,6.33911,-121.47,-114.258,70.3735,-174.622,0.397797,-0.292908,0.611511,-0.617981,-11304,-22244,-27925,-3192,-29363
1022799,-6.21592,-14.0779,3.21563,-86.5338,5.47119,-121.882,-112.366,70.0684,-185.974,0.389984,-0.297394,0.613525,-0.618805,24536,-22500,-10773,-3192,-29363
1022805,-6.17285,-14.8531,3.25869,-87.0831,4.54834,-122.289,-107.91,70.6177,-197.449,0.381866,-0.302094,0.615295,-0.619843,-5929,-24036,6892,-3192,-29363
1022811,-6.37383,-15.8149,3.33047,-87.5885,3.57056,-122.695,-100.22,70.6177,-207.703,0.373444,-0.306946,0.61676,-0.621124,27095,-25828,23020,-3192,-29363
1022817,-6.59873,-16.5519,3.35439,-88.0334,2.55981,-123.085,-90.332,69.7632,-214.722,0.356201,-0.316833,0.618408,-0.624634,-3882,-27620,-26900,-3192,-29363
1022823,-7.23994,-17.0112,3.55537,-88.7531,0.505371,-123.843,-71.5332,67.627,-218.628,0.347565,-0.321686,0.618622,-0.626801,-4395,29212,3309,-3192,-29363
1022829,-7.42656,-16.9155,3.59365,-89.0442,-0.499878,-124.2,-64.27,66.7725,-214.722,0.339111,-0.326355,0.61853,-0.62912,27861,22044,18925,-3192,-29363
1022835,-7.71846,-16.6236,3.62715,-89.3024,-1.46667,-124.557,-59.021,67.0166,-207.947,0.330872,-0.330811,0.618225,-0.6315,-6188,14108,-31507,-3192,-29363
1022841,-7.996,-16.2025,3.61279,-89.5386,-2.39502,-124.909,-56.1523,66.5283,-198.792,0.322845,-0.33493,0.617798,-0.63385,24532,4636,-16915,-3192,-29363
1022847,-8.28311,-15.7958,3.45488,-89.7583,-3.26294,-125.255,-54.5654,66.6504,-188.721,0.307739,-0.342194,0.617065,-0.638214,-11053,-5349,-4371,-3192,-29363
1022853,-8.75684,-15.5709,3.25391,-90.1648,-4.83398,-125.953,-50.9644,67.627,-166.443,0.300629,-0.345276,0.616852,-0.640137,-13870,-25829,16366,-3200,-29362
1022859,-9.20186,-15.1929,3.33525,-90.3406,-5.53162,-126.304,-48.8281,68.0542,-155.457,0.293854,-0.347961,0.616699,-0.641968,16594,28955,23022,-3200,-29362
1022865,-9.6708,-14.4751,3.38789,-90.5054,-6.17432,-126.656,-47.4243,68.7866,-145.447,0.287445,-0.35025,0.616638,-0.643677,-17967,17435,29678,-3200,-29362
1022871,-10.135,-13.6186,3.45488,-90.6647,-6.77307,-127.013,-47.0581,69.2749,-136.841,0.281281,-0.352203,0.616699,-0.645294,13265,5915,-30738,-3200,-29362
1022877,-10.7379,-11.6136,3.49316,-90.8185,-7.33887,-127.37,-47.3633,69.2749,-130.066,0.269684,-0.355286,0.617096,-0.648163,-20016,-6886,-25618,-3200,-29362
1022883,-10.9532,-10.8432,3.65107,-91.1371,-8.37708,-128.084,-50.0488,69.2139,-120.361,0.264099,-0.356537,0.617462,-0.649414,-16177,-32486,-16658,-3200,-29362
1022889,-11.3408,-10.2402,3.92383,-91.2964,-8.86047,-128.441,-51.2695,69.519,-117.126,0.258667,-0.357666,0.61792,-0.650543,20175,19738,-13586,-3200,-29362
1022895,-11.7141,-9.68516,4.23486,-91.4557,-9.33289,-128.804,-52.2461,69.397,-114.624,0.253296,-0.358673,0.618469,-0.651611,-8242,6426,-10514,-3200,-29362
1022901,-12.0586,-8.94824,4.6751,-91.615,-9.79431,-129.155,-51.9409,67.8101,-112.61,0.247986,-0.359558,0.619049,-0.652588,29134,-6375,-9234,-3200,-29362
1022907,-12.1974,-7.64668,6.14893,-91.7633,-10.2283,-129.496,-51.2695,65.6128,-108.887,0.237854,-0.361145,0.620209,-0.654388,1998,-19175,-8210,-3200,-29362
1022913,-14.2885,-8.52715,5.21104,-92.0709,-10.9918,-130.193,-54.5654,67.0776,-95.3369,0.233063,-0.361694,0.620941,-0.655121,15565,22041,-9234,-3200,-29362
1022919,-16.7385,-10.3072,4.14395,-92.1863,-11.3104,-130.512,-45.7764,59.9365,-88.623,0.228394,-0.361969,0.621826,-0.655762,-9012,10265,-10514,-3200,-29362
1022925,-17.6237,-11.0441,3.86162,-92.2137,-11.5906,-130.776,-27.5269,47.3633,-80.9326,0.224304,-0.362122,0.622498,-0.656464,-32052,-744,-12050,-3200,-29362
1022931,-18.1214,-10.0153,4.05781,-92.1643,-11.8048,-130.984,-8.78906,36.9263,-69.458,0.221069,-0.362244,0.62265,-0.657349,11468,-12520,-13842,-3200,-29362
1022937,-18.3606,-6.5748,4.1248,-92.0599,-11.9531,-131.149,3.05176,27.6489,-57.9224,0.217224,-0.361786,0.621796,-0.659668,-9525,-23784,-15378,-3200,-29362
1022943,-17.9252,-5.30674,4.23008,-91.7908,-12.0355,-131.38,11.7798,13.0615,-30.7617,0.216431,-0.361237,0.621216,-0.660797,17867,19992,-21010,-3200,-29362
1022949,-17.3701,-4.67031,4.31143,-91.6699,-11.9531,-131.462,9.39941,8.17871,-14.3433,0.216248,-0.360443,0.620728,-0.661713,971,9496,-23314,-3200,-29362
1022955,-16.7002,-4.56025,4.29707,-91.5765,-11.7719,-131.534,3.72314,5.06592,4.21143,0.216675,-0.359344,0.620544,-0.662354,-15158,-745,-26130,-3200,-29362
1022961,-15.8676,-5.00527,4.23965,-91.5216,-11.4917,-131.594,-3.2959,3.41797,23.7427,0.217621,-0.357849,0.620789,-0.662628,-29750,-9961,-29202,-3200,-29362
1022967,-14.3555,-5.7709,3.81377,-91.4941,-11.1127,-131.66,-12.085,1.34277,58.5938,0.221039,-0.353516,0.622711,-0.662018,22474,-18153,-31250,-3208,-29361
1022973,-13.5851,-5.87139,3.63672,-91.4777,-10.1404,-131.776,-13.855,0.549316,70.1294,0.22345,-0.350739,0.624207,-0.661285,-55,-32489,30190,-3208,-29361
1022979,-12.6424,-6.01016,3.68457,-91.4777,-9.58557,-131.83,-14.1602,0.183105,77.5146,0.226196,-0.347687,0.625916,-0.66037,-9271,27671,27886,-3208,-29361
1022985,-11.9198,-6.92891,3.37354,-91.4722,-9.00879,-131.885,-13.916,1.0376,82.0312,0.229156,-0.344452,0.627686,-0.659332,-16695,23831,25582,-3208,-29361
1022991,-9.47939,-18.8296,10.2642,-91.4172,-8.41003,-131.88,-1.95312,-12.3291,87.7075,0.232208,-0.341064,0.629547,-0.658264,-22327,21271,23278,-3208,-29361
1022997,-7.10596,-9.58467,6.55566,-91.0657,-7.83875,-131.946,72.0825,17.6392,78.5522,0.239929,-0.333618,0.630798,-0.658112,-26167,20503,21742,-3208,-29361
1023003,-5.93359,-7.71367,4.54111,-90.1813,-6.77856,-132.22,72.876,19.5312,73.4253,0.243591,-0.32901,0.630188,-0.659668,-30007,20503,19694,-3208,-29361
1023009,-5.21582,-7.4457,2.71797,-89.7089,-6.28967,-132.407,76.5381,30.8228,69.1528,0.24707,-0.324493,0.629456,-0.661316,-30007,21015,18414,-3208,-29361
1023015,-4.92871,-7.55098,2.61748,-89.2584,-5.80627,-132.61,73.8525,34.6069,66.7725,0.250153,-0.319702,0.628693,-0.663208,-28727,21783,16878,-3208,-29361
1023021,-4.71816,-9.45068,2.51221,-88.8574,-5.33386,-132.841,64.209,40.3442,66.1011,0.25296,-0.314941,0.62796,-0.6651,-26679,23063,14318,-3208,-29361
1023027,-0.698633,-11.5609,2.05762,-88.4454,-4.85046,-133.083,61.5845,44.8608,72.998,0.257904,-0.305176,0.627136,-0.668518,-23351,25367,12526,-3208,-29361
1023033,9.62295,39.1474,11.0011,-88.1873,-3.6969,-133.182,-38.208,-32.7759,102.417,0.260376,-0.30014,0.626923,-0.670074,-13623,30743,6638,-3208,-29361
1023039,12.1399,-2.95244,-9.63252,-87.3523,-3.02673,-133.66,148.01,93.5059,103.943,0.264526,-0.297546,0.628998,-0.667633,-7479,-31465,2798,-3208,-29361
1023045,5.70869,-5.18232,-3.675,-87.171,-2.43347,-133.94,21.4844,56.1523,90.4541,0.267639,-0.289185,0.627136,-0.671814,-1335,-27881,-1811,-3208,-29361
1023051,25.347,-12.6663,-5.02441,-87.0886,-1.96106,-133.813,8.11768,-24.9023,75.2563,0.269745,-0.283813,0.628326,-0.67215,6346,-23529,-6931,-3208,-29361
1023057,1.89971,-12.5323,-3.17734,-86.8799,-1.55457,-134.149,55.9692,116.943,66.2231,0.27417,-0.276855,0.629364,-0.672272,14794,-18921,-11283,-3208,-29361
1023063,-4.78037,-11.4844,2.22988,-86.3251,-0.626221,-134.857,37.1704,31.25,83.6182,0.274017,-0.270416,0.629883,-0.6745,31946,-7913,-18451,-3208,-29361
1023069,2.24424,-9.01523,2.78018,-86.1383,-0.098877,-134.901,29.8462,13.9771,92.7124,0.276459,-0.266235,0.630096,-0.674957,-24886,-1769,-21523,-3208,-29361
1023075,0.46416,-8.14434,2.67012,-85.957,0.450439,-135.049,28.9307,35.5225,98.2056,0.279541,-0.262451,0.630402,-0.674866,-16182,4120,-25363,-3208,-29361
1023081,-3.96211,-7.41221,2.60791,-85.8032,1.06018,-135.121,23.8647,21.7285,109.131,0.282135,-0.257904,0.631042,-0.674957,-7734,10264,-29203,-3208,-29361
1023087,-2.70361,-7.02461,3.34004,-85.5176,2.26868,-135.093,20.0806,6.10352,107.422,0.289215,-0.249603,0.632324,-0.673889,1483,16152,31469,-3200,-29362
1023093,-4.254,-7.23994,2.94287,-85.4407,2.8125,-135.088,8.48389,6.22559,98.0225,0.292755,-0.245789,0.632874,-0.673218,22731,29720,19437,-3200,-29362
1023099,-4.61768,-8.02471,2.42607,-85.4077,3.30139,-135.044,-1.70898,-2.50244,88.1348,0.295898,-0.242371,0.633667,-0.672363,-31029,-28392,13549,-3200,-29362
1023105,-3.94775,-9.77607,1.58867,-85.4132,3.73535,-134.962,-9.0332,-10.0098,78.2471,0.298859,-0.239624,0.634521,-0.671234,-18229,-20712,8429,-3200,-29362
1023111,-2.17246,-10.6805,1.225,-85.4297,4.15283,-134.841,-12.0239,-18.5547,75.0122,0.301666,-0.237457,0.635376,-0.669922,-6197,-12776,3821,-3200,-29362
1023117,-2.20117,-12.0538,0.598145,-85.4462,4.95483,-134.654,-6.28662,-10.376,72.1436,0.307343,-0.233856,0.636963,-0.667084,5580,-5352,-20,-3200,-29362
1023123,-1.32549,-11.2978,-0.105273,-85.4022,5.35583,-134.55,1.58691,-15.3809,73.3032,0.309937,-0.231903,0.637665,-0.665894,28876,9753,-7444,-3200,-29362
1023129,-0.870898,-11.0489,-0.0813477,-85.3363,5.75684,-134.462,6.65283,-10.376,74.5239,0.312805,-0.230011,0.638062,-0.664825,-24372,16921,-9492,-3200,-29362
1023135,-1.82314,-11.0346,0.0526367,-85.2594,6.15784,-134.418,10.437,-2.44141,74.646,0.315552,-0.227875,0.638428,-0.66394,-11828,23833,-11540,-3200,-29362
1023141,-2.47393,-10.3599,-0.0239258,-85.155,6.53137,-134.396,16.6626,2.2583,68.1152,0.318115,-0.225494,0.638763,-0.663177,461,30233,-12564,-3200,-29362
1023147,-2.91416,-10.2642,-0.0765625,-84.9573,7.21252,-134.423,18.4326,11.4136,60.3638,0.322418,-0.220673,0.63916,-0.662354,13005,-28391,-13076,-3200,-29362
1023153,-4.61768,-10.9867,1.3207,-84.8145,7.52014,-134.473,26.4893,15.8081,54.7485,0.324249,-0.218231,0.639313,-0.662109,-27699,-15335,-16148,-3200,-29362
1023159,-7.48877,-6.97676,-0.449805,-84.6497,7.69043,-134.561,33.5693,20.5078,25.6958,0.325836,-0.215668,0.639282,-0.662231,-15155,-8935,-18196,-3200,-29362
1023165,-3.95732,-8.4793,-0.30625,-84.5782,7.82776,-134.533,11.9629,-2.99072,21.6064,0.326538,-0.213684,0.638824,-0.662933,-2611,-2791,-18452,-3200,-29362
1023171,-2.07197,-10.6135,0.334961,-84.4739,7.94312,-134.561,20.1416,8.05664,15.7471,0.327576,-0.212799,0.638641,-0.662903,9166,2842,-19220,-3200,-29362
1023177,-1.86143,-9.73301,1.03359,-84.1388,8.17383,-134.561,33.9966,0,17.2119,0.328979,-0.210419,0.637726,-0.663849,29646,14362,-19476,-3200,-29362
1023183,-0.832617,-8.93867,1.04316,-83.9905,8.28369,-134.583,29.9683,6.10352,16.4185,0.329956,-0.20929,0.636902,-0.66449,-26674,19482,-19476,-3200,-29362
1023189,-1.72744,-9.63252,1.48818,-83.8696,8.39905,-134.615,23.8037,10.437,17.0288,0.330719,-0.208069,0.636292,-0.6651,-17970,24346,-19220,-3200,-29362
1023195,-2.55049,-9.44111,0.899609,-83.7488,8.5144,-134.632,24.4751,5.7373,17.6392,0.331329,-0.206787,0.635925,-0.665558,-9522,28698,-19988,-3200,-29362
1023201,-2.54092,-8.77598,1.65088,-83.6115,8.62976,-134.632,25.8789,2.50244,17.7002,0.332062,-0.205658,0.635468,-0.665955,-1074,32026,-20244,-3208,-29361
1023207,-2.79932,-7.84287,1.9332,-83.4247,8.82751,-134.643,14.4043,4.27246,13.5498,0.333618,-0.203583,0.634491,-0.666748,14543,-27622,-19732,-3208,-29361
1023213,-2.91416,-8.50322,1.47861,-83.3752,8.90442,-134.643,8.91113,2.86865,10.5591,0.334198,-0.202728,0.634247,-0.666931,22223,-25830,-19220,-3216,-29360
1023219,-2.47393,-9.34062,1.50732,-83.3258,8.97034,-134.637,8.05664,0.183105,8.11768,0.334656,-0.202087,0.634155,-0.667023,29135,-23014,-18708,-3216,-29360
1023225,-1.9332,-9.35498,1.51211,-83.2874,9.03076,-134.637,7.08008,1.58691,7.50732,0.335144,-0.201599,0.634003,-0.667084,-29233,-20966,-18708,-3216,-29360
1023231,-1.98105,-9.24014,1.50254,-83.2599,9.09119,-134.643,5.24902,3.41797,6.5918,0.33551,-0.201111,0.633881,-0.667114,-22577,-19174,-19732,-3216,-29360
1023237,-1.99063,-9.45547,1.29199,-83.2214,9.19556,-134.654,2.38037,2.62451,6.16455,0.33609,-0.200195,0.63385,-0.667114,-11057,-14310,-23572,-3216,-29360
1023243,-2.17246,-9.17314,1.42598,-83.2104,9.25049,-134.659,2.31934,2.68555,6.22559,0.336365,-0.199799,0.633881,-0.667084,-6193,-11750,-25620,-3216,-29360
1023249,-2.17725,-9.06787,1.28242,-83.194,9.29443,-134.665,2.0752,2.99072,5.24902,0.336639,-0.199432,0.633911,-0.667053,-1073,-9446,-27412,-3216,-29360
1023255,-2.30645,-9.10615,1.36377,-83.183,9.33838,-134.67,1.34277,2.86865,4.57764,0.336853,-0.199036,0.633942,-0.667023,4304,-7398,-28180,-3216,-29360
1023261,-2.25859,-9.07266,1.29678,-83.183,9.38232,-134.676,0,2.80762,4.3335,0.337067,-0.19873,0.634003,-0.666962,10192,-5862,-27668,-3216,-29360
1023267,-1.90928,-9.65166,1.10059,-83.1995,9.45374,-134.687,-2.92969,2.68555,3.66211,0.337402,-0.198151,0.634186,-0.666779,21712,-3302,-25108,-3216,-29360
1023273,-2.14375,-10.2307,0.880469,-83.2104,9.48669,-134.692,-2.86865,2.13623,3.11279,0.337524,-0.197937,0.634338,-0.666626,26832,-2022,-25108,-3216,-29360
1023279,-1.81836,-10.3024,0.693848,-83.205,9.53064,-134.692,0.671387,1.15967,4.88281,0.337646,-0.197754,0.634491,-0.666473,31440,-998,-25364,-3216,-29360
1023285,-1.85186,-10.0201,0.674707,-83.194,9.56909,-134.703,2.62451,3.78418,4.82178,0.337891,-0.197479,0.634521,-0.666412,-30000,-742,-25620,-3216,-29360
1023291,-2.21553,-9.96748,0.579004,-83.1775,9.61304,-134.72,3.479,4.82178,5.49316,0.338226,-0.196716,0.634583,-0.666412,-25648,283,-26644,-3216,-29360
1023297,-2.45957,-9.27842,1.05273,-83.1171,9.70093,-134.72,6.28662,0.915527,5.18799,0.33847,-0.19632,0.634521,-0.666443,-17968,2843,-26132,-3216,-29360
1023303,-2.48828,-8.93867,1.43076,-83.0896,9.74487,-134.725,4.63867,2.44141,5.18799,0.338745,-0.195984,0.634399,-0.666504,-14640,4123,-24852,-3216,-29360
1023309,-2.82324,-8.95303,1.38291,-83.0786,9.78333,-134.731,2.80762,3.05176,4.57764,0.338989,-0.195648,0.634369,-0.666534,-11312,5915,-23316,-3216,-29360
1023315,-2.43086,-9.12529,1.1915,-83.0676,9.82178,-134.725,1.89209,0.549316,4.57764,0.339172,-0.195312,0.634399,-0.666534,-8240,7451,-20244,-3216,-29360
1023321,-2.16289,-9.19707,1.00488,-83.0621,9.84924,-134.725,0.671387,1.09863,3.05176,0.339569,-0.194885,0.63443,-0.666412,-4912,8987,-16660,-3208,-29361
1023327,-2.0002,-9.60859,0.971387,-83.0621,9.90417,-134.725,1.15967,1.40381,2.2583,0.339722,-0.194733,0.634491,-0.666321,721,12827,-13332,-3208,-29361
1023333,-1.95713,-9.66602,1.17715,-83.0566,9.93164,-134.731,1.2207,2.86865,3.11279,0.339844,-0.19455,0.634521,-0.66629,3537,14619,-12308,-3208,-29361
1023339,-2.22988,-9.63252,1.14365,-83.0511,9.9646,-134.742,0.854492,2.80762,2.99072,0.339966,-0.194305,0.634552,-0.66626,5841,16411,-12308,-3208,-29361
1023345,-2.05283,-9.56074,1.31592,-83.0511,9.99207,-134.747,0.854492,2.86865,3.72314,0.340088,-0.194092,0.634613,-0.666199,8145,17947,-12820,-3208,-29361
1023351,-1.89971,-9.79521,1.225,-83.0457,10.0305,-134.758,0.915527,4.08936,4.63867,0.340332,-0.193542,0.634766,-0.666107,11217,18971,-13332,-3208,-29361
1023357,-2.22031,-9.9292,1.30635,-83.0402,10.1074,-134.786,2.31934,4.69971,5.37109,0.340424,-0.193237,0.634827,-0.666046,16849,19995,-13844,-3208,-29361
1023363,-2.00977,-9.81914,1.26807,-83.0237,10.1514,-134.802,3.11279,5.06592,6.7749,0.340576,-0.192902,0.634888,-0.666016,19409,20763,-12820,-3208,-29361
1023369,-2.07197,-9.79043,1.07666,-83.0127,10.1953,-134.819,2.80762,4.27246,5.7373,0.340729,-0.192474,0.634949,-0.666016,22481,21275,-11796,-3208,-29361
1023375,-1.64609,-9.86221,0.91875,-83.0017,10.2338,-134.83,2.99072,3.90625,6.10352,0.340881,-0.192108,0.634979,-0.666016,25297,22043,-11028,-3208,-29361
1023381,-1.85664,-9.77607,1.5791,-82.9852,10.2832,-134.846,4.3335,5.98145,6.83594,0.341187,-0.191315,0.63504,-0.666016,28113,22299,-8980,-3208,-29361
1023387,-2.66533,-9.58945,1.13887,-82.9688,10.3821,-134.879,2.38037,3.84521,8.17871,0.341339,-0.190857,0.635132,-0.665985,-31023,23323,-6164,-3208,-29361
1023393,-2.4165,-9.35498,1.18193,-82.9523,10.4315,-134.885,2.74658,3.60107,6.7749,0.341583,-0.19046,0.635193,-0.665924,-26927,23067,-2324,-3208,-29361
1023399,-2.78975,-9.23535,1.45947,-82.9523,10.4755,-134.896,1.28174,3.60107,7.01904,0.341766,-0.190094,0.635223,-0.665894,-23343,23323,-20,-3208,-29361
1023405,-2.74189,-9.49375,1.37334,-82.9413,10.5194,-134.896,1.46484,2.2583,6.89697,0.341949,-0.189728,0.635315,-0.665833,-19759,23835,1773,-3208,-29361
1023411,-3.01465,-9.04873,1.04316,-82.9358,10.5579,-134.901,1.95312,2.62451,5.98145,0.342377,-0.189117,0.635406,-0.66568,-16431,24091,4589,-3208,-29361
1023417,-2.77061,-9.37412,0.995313,-82.9413,10.6348,-134.896,-1.09863,-0.0610352,4.69971,0.34256,-0.188873,0.635498,-0.665588,-7983,24347,7149,-3208,-29361
1023423,-2.56963,-9.61338,1.04795,-82.9358,10.6622,-134.879,-0.183105,-1.2207,4.5166,0.342773,-0.188721,0.635559,-0.665466,-3631,24859,7149,-3208,-29361
1023429,-2.99551,-9.23535,0.75127,-82.9358,10.6952,-134.885,0.366211,1.95312,3.78418,0.343018,-0.188599,0.63559,-0.665314,-303,25371,7917,-3208,-29361
1023435,-2.88066,-10.3934,1.38291,-82.9468,10.7227,-134.879,-1.2207,0.366211,3.35693,0.34317,-0.188385,0.635681,-0.665253,2770,25883,9965,-3208,-29361
1023441,-2.23945,-9.67559,1.11973,-82.9248,10.7501,-134.863,4.02832,-1.95312,3.54004,0.343597,-0.188141,0.635651,-0.665131,5330,26395,12525,-3208,-29361
1023447,-2.33994,-10.1637,1.3207,-82.8973,10.8105,-134.83,3.23486,-0.610352,5.24902,0.343872,-0.188049,0.63562,-0.665039,10450,27419,16621,-3208,-29361
1023453,-2.51699,-10.2307,0.717773,-82.8809,10.8545,-134.83,3.479,1.28174,6.83594,0.344147,-0.187836,0.635559,-0.665009,13522,28187,17901,-3208,-29361
1023459,-2.76104,-9.91963,0.966602,-82.8424,10.9039,-134.802,6.71387,-2.68555,8.36182,0.344391,-0.187531,0.635559,-0.664948,16850,29211,19181,-3208,-29361
1023465,-2.12939,-9.95312,0.756055,-82.8149,10.9589,-134.775,4.82178,-3.54004,8.60596,0.344849,-0.187256,0.635406,-0.664948,19922,30491,20461,-3208,-29361
1023471,-2.25381,-9.65645,1.20107,-82.7765,11.0083,-134.758,7.56836,-1.46484,9.21631,0.345734,-0.186646,0.635162,-0.664886,23250,31259,22765,-3208,-29361
1023477,-2.75146,-9.5751,1.32549,-82.7106,11.1292,-134.736,6.83594,-0.12207,10.8032,0.346161,-0.186249,0.635071,-0.664886,31442,30747,27373,-3208,-29361
1023483,-2.89502,-9.53682,1.44512,-82.6721,11.1896,-134.72,6.83594,-1.0376,10.1929,0.346619,-0.185822,0.634979,-0.664856,-30510,29467,29421,-3208,-29361
1023489,-2.87588,-9.26406,1.31113,-82.6392,11.25,-134.698,7.26318,-1.83105,10.5591,0.347076,-0.185425,0.634857,-0.664825,-27438,28443,30445,-3208,-29361
1023495,-2.46436,-9.35977,1.13887,-82.6117,11.3049,-134.676,5.00488,-1.83105,8.8501,0.347534,-0.185059,0.634735,-0.664795,-25134,27419,31213,-3208,-29361
1023501,-2.86631,-9.31191,1.22979,-82.5842,11.3544,-134.665,5.61523,-0.732422,9.09424,0.348358,-0.184418,0.634552,-0.664703,-23342,26651,31725,-3208,-29361
1023507,-2.33994,-9.07266,1.18193,-82.5128,11.4642,-134.626,6.34766,-1.46484,8.42285,0.348816,-0.184082,0.63443,-0.664673,-20014,26907,-32531,-3208,-29361
1023513,-2.3208,-9.10615,1.12451,-82.4908,11.5082,-134.61,5.18799,-1.09863,7.50732,0.349243,-0.183777,0.634308,-0.664673,-18222,27163,-31763,-3208,-29361
1023519,-2.2873,-9.36934,1.09102,-82.4579,11.5521,-134.594,5.98145,-1.2207,7.01904,0.349609,-0.183472,0.634247,-0.664642,-15406,27675,-31251,-3208,-29361
1023525,-2.27773,-9.38369,0.870898,-82.4249,11.5906,-134.577,6.34766,-1.15967,6.71387,0.349945,-0.183197,0.634125,-0.664642,-12590,27931,-30483,-3208,-29361
1023531,-2.47871,-9.1875,1.36377,-82.392,11.6345,-134.572,7.32422,-1.52588,6.46973,0.350616,-0.182648,0.63385,-0.664703,-10030,28443,-30227,-3208,-29361
1023537,-2.27295,-9.41719,1.67959,-82.3206,11.7114,-134.533,7.32422,-1.83105,6.65283,0.350952,-0.182373,0.633698,-0.664734,-4910,28699,-30483,-3208,-29361
1023543,-2.39736,-9.26406,1.41641,-82.2821,11.7554,-134.522,7.56836,-0.305176,6.95801,0.351318,-0.182098,0.633545,-0.664764,-2350,29211,-31763,-3208,-29361
1023549,-2.68926,-9.39326,1.19629,-82.2491,11.7938,-134.517,6.5918,0,6.40869,0.351654,-0.181793,0.633392,-0.664825,467,29211,32237,-3208,-29361
1023555,-2.5457,-9.50811,0.995313,-82.2107,11.8323,-134.495,7.01904,-2.0752,5.92041,0.351959,-0.181488,0.63327,-0.664856,3283,29979,30189,-3208,-29361
1023561,-2.43564,-9.89092,0.60293,-82.1832,11.8652,-134.484,7.14111,-0.366211,5.31006,0.3526,-0.18103,0.632965,-0.664917,6099,30491,28653,-3208,-29361
1023567,-2.39736,-9.80479,0.550293,-82.1118,11.9366,-134.462,8.60596,-0.366211,6.5918,0.352875,-0.180786,0.632843,-0.664978,10195,31003,27373,-3208,-29361
1023573,-2.11025,-9.65166,1.08145,-82.0624,11.9806,-134.445,9.82666,-1.64795,7.20215,0.35321,-0.180481,0.63266,-0.66507,12499,31771,26093,-3208,-29361
1023579,-2.16289,-9.73301,1.3207,-82.0184,12.0245,-134.434,9.52148,0.488281,7.8125,0.353607,-0.180145,0.632416,-0.665161,15315,31771,25581,-3208,-29361
1023585,-2.59834,-9.40283,0.947461,-81.969,12.0685,-134.423,10.498,-0.0610352,7.99561,0.353943,-0.179779,0.632263,-0.665253,18131,32027,25581,-3208,-29361
1023591,-2.88066,-8.90518,1.84229,-81.9141,12.1124,-134.407,9.94873,-1.58691,7.75146,0.354706,-0.179047,0.631775,-0.665466,21459,32283,25581,-3208,-29361
1023597,-2.91416,-9.00088,1.96191,-81.8207,12.2003,-134.379,9.46045,0.183105,7.01904,0.355103,-0.178711,0.631561,-0.665558,27347,32283,26093,-3208,-29361
1023603,-2.95244,-9.04395,1.4499,-81.7767,12.2388,-134.368,8.30078,-1.0376,6.83594,0.355438,-0.178345,0.631378,-0.66568,30931,32283,25325,-3208,-29361
1023609,-2.79453,-9.26885,1.44033,-81.7493,12.2717,-134.346,6.04248,-2.19727,5.18799,0.355774,-0.17804,0.631195,-0.665741,-31533,32283,25069,-3208,-29361
1023615,-2.76104,-8.91953,1.42598,-81.7108,12.3047,-134.335,7.20215,-0.915527,4.76074,0.35611,-0.177856,0.631042,-0.665771,-28717,32027,24301,-3208,-29361
1023621,-3.029,-8.82383,1.53125,-81.6833,12.3376,-134.324,5.92041,-0.0610352,4.69971,0.356689,-0.177368,0.630768,-0.665833,-26413,31515,24813,-3208,-29361
1023627,-2.82803,-9.35977,1.75615,-81.6284,12.4036,-134.302,5.06592,-0.976562,4.69971,0.356934,-0.177124,0.630646,-0.665894,-23341,30491,27373,-3208,-29361
1023633,-2.81367,-8.75205,1.26328,-81.5955,12.4255,-134.286,5.98145,-1.40381,3.41797,0.357178,-0.176941,0.630524,-0.665894,-21805,30235,28909,-3208,-29361
1023639,-2.87109,-8.64199,1.97627,-81.579,12.453,-134.275,4.02832,-1.28174,2.92969,0.357452,-0.176758,0.630371,-0.665955,-19757,29979,30445,-3208,-29361
1023645,-2.5792,-9.4124,1.50254,-81.568,12.4695,-134.264,1.46484,-0.610352,2.2583,0.357666,-0.176605,0.63028,-0.665955,-17709,29723,32237,-3208,-29361
1023651,-2.42607,-9.5416,1.49297,-81.535,12.5134,-134.242,3.17383,-2.13623,2.92969,0.357971,-0.176361,0.630219,-0.665924,-15405,29211,-32275,-3208,-29361
1023657,-2.36865,-9.56553,1.225,-81.524,12.5299,-134.236,2.50244,-0.427246,2.01416,0.358215,-0.17627,0.630127,-0.665924,-10285,27931,-29203,-3208,-29361
1023663,-2.33516,-9.5751,0.818262,-81.5076,12.5519,-134.225,3.54004,-0.671387,3.05176,0.358368,-0.176178,0.630066,-0.665894,-8237,26907,-29459,-3208,-29361
1023669,-2.39736,-9.69473,1.47861,-81.4801,12.5848,-134.214,4.88281,-0.915527,4.88281,0.358551,-0.176025,0.630005,-0.665894,-6445,26907,-27667,-3216,-29360
1023675,-2.7084,-9.71865,1.84229,-81.4471,12.6233,-134.203,6.22559,-0.732422,6.28662,0.358826,-0.175812,0.629913,-0.665924,-3885,27419,-26387,-3216,-29360
1023681,-2.5792,-9.97227,1.05273,-81.3867,12.7002,-134.171,6.10352,-0.671387,6.40869,0.359467,-0.175293,0.629639,-0.665955,-1581,27931,-25875,-3216,-29360
1023687,-3.11992,-9.65166,1.37334,-81.3428,12.7496,-134.154,8.66699,-1.40381,9.15527,0.359772,-0.175018,0.629517,-0.665985,3540,28955,-25875,-3216,-29360
1023693,-3.07207,-10.2594,1.64609,-81.3043,12.7991,-134.132,7.26318,-2.0752,8.97217,0.360229,-0.174652,0.629333,-0.666016,6612,29211,-27155,-3216,-29360
1023699,-2.6127,-9.75215,0.808691,-81.2494,12.8485,-134.105,10.376,-3.479,9.09424,0.360657,-0.174347,0.629181,-0.666016,9684,29467,-28179,-3216,-29360
1023705,-2.76104,-9.84785,1.33506,-81.1945,12.8979,-134.077,10.8032,-3.23486,8.78906,0.361145,-0.174011,0.628906,-0.666077,12500,29979,-29715,-3216,-29360
1023711,-2.89023,-9.40283,1.52168,-81.0791,12.9913,-134.011,10.6812,-4.76074,8.72803,0.362122,-0.17337,0.628357,-0.666229,15828,30491,-30227,-3216,-29360
1023717,-2.83281,-9.31191,1.66045,-81.0187,13.0463,-133.978,10.9253,-4.02832,9.70459,0.36264,-0.173096,0.628052,-0.666321,21460,31003,-32275,-3216,-29360
1023723,-2.55527,-9.59424,1.22021,-80.9692,13.0902,-133.945,9.39941,-4.5166,8.42285,0.363159,-0.17276,0.627777,-0.666382,24020,31259,32749,-3216,-29360
1023729,-2.63662,-9.51289,1.45469,-80.9088,13.1342,-133.907,11.5967,-4.45557,8.8501,0.363647,-0.172485,0.627502,-0.666412,26068,31515,31725,-3216,-29360
1023735,-2.47393,-9.08223,1.93799,-80.8429,13.1836,-133.868,12.146,-6.22559,8.8501,0.364197,-0.17218,0.627197,-0.666504,29140,32027,31213,-3216,-29360
1023741,-2.81367,-8.90039,1.88057,-80.722,13.2715,-133.808,11.1694,-3.90625,8.30078,0.365234,-0.1716,0.626526,-0.666687,-30508,32283,31981,-3216,-29360
1023747,-2.81367,-8.84775,1.66045,-80.6726,13.3154,-133.775,8.91113,-4.02832,7.8125,0.365723,-0.171295,0.626221,-0.666809,-27692,32539,31981,-3216,-29360
1023753,-2.6749,-9.50811,1.56953,-80.6287,13.3539,-133.748,7.50732,-3.2959,7.08008,0.36618,-0.171021,0.625977,-0.66684,-25900,-32485,32237,-3216,-29360
1023759,-2.83281,-10.2115,1.56953,-80.5847,13.3978,-133.726,8.78906,-2.92969,7.99561,0.366577,-0.170807,0.625793,-0.66687,-24364,-31973,31213,-3216,-29360
1023765,-2.90459,-9.87178,1.03838,-80.5243,13.4418,-133.693,10.9253,-4.39453,8.72803,0.367004,-0.170502,0.625549,-0.666931,-23596,-30949,29677,-3216,-29360
1023771,-2.96201,-10.3503,1.16758,-80.3979,13.5461,-133.616,12.2681,-5.00488,10.1929,0.368073,-0.169891,0.624939,-0.667084,-18476,-29925,28397,-3216,-29360
1023777,-3.26348,-10.4221,0.866113,-80.3156,13.6066,-133.572,15.5029,-5.85938,11.9019,0.368652,-0.169556,0.624603,-0.667175,-15404,-29925,28397,-3216,-29360
1023783,-3.12949,-10.8623,0.76084,-80.2222,13.667,-133.511,16.4185,-8.78906,12.9395,0.369324,-0.169159,0.624176,-0.667297,-12076,-29925,28909,-3216,-29360
1023789,-3.10557,-11.0537,1.28242,-80.1068,13.7384,-133.451,22.2778,-8.48389,13.7939,0.370087,-0.168793,0.623688,-0.667419,-8748,-29925,28909,-3216,-29360
1023795,-3.24912,-10.3407,1.30635,-79.9695,13.8098,-133.38,25.0854,-10.9253,15.1978,0.370941,-0.168304,0.623047,-0.667664,-6188,-29413,28653,-3216,-29360
1023801,-2.89502,-10.2881,1.61738,-79.6838,13.9636,-133.226,25.2075,-10.8643,17.0288,0.372986,-0.167267,0.62146,-0.668274,-1068,-27621,29165,-3216,-29360
1023807,-2.8041,-10.3407,0.933105,-79.5355,14.0405,-133.143,26.9165,-11.9019,16.7847,0.373993,-0.166718,0.620697,-0.668549,981,-26597,28909,-3216,-29360
1023813,-3.11035,-10.2115,1.81357,-79.3597,14.1284,-133.05,32.7759,-13.7329,18.7988,0.375031,-0.166168,0.619904,-0.668823,3541,-25829,27629,-3216,-29360
1023819,-2.85195,-10.4029,2.01455,-79.184,14.2108,-132.962,32.5317,-13.9771,18.7988,0.376221,-0.165558,0.618896,-0.66925,5589,-25061,26093,-3216,-29360
1023825,-2.82803,-9.79521,2.24902,-78.9807,14.2987,-132.869,37.4756,-13.6108,19.4702,0.377411,-0.164917,0.61792,-0.669647,7893,-24549,23789,-3216,-29360
1023831,-2.62227,-10.4077,2.85674,-78.5577,14.458,-132.682,40.4663,-13.6719,18.9819,0.379883,-0.163513,0.615601,-0.670715,10965,-24037,21485,-3216,-29360
1023837,-2.27773,-9.7665,3.75156,-78.349,14.5624,-132.589,39.4287,-12.7563,22.522,0.381104,-0.162781,0.61438,-0.671326,17109,-23013,16877,-3216,-29360
1023843,-1.55518,-7.90986,3.40703,-78.2501,14.6997,-132.539,18.4326,-3.2959,29.2358,0.382416,-0.161896,0.61319,-0.671875,20181,-22757,13805,-3216,-29360
1023849,-2.2251,-9.59902,3.53145,-78.1952,14.8535,-132.517,10.6812,2.44141,30.0903,0.383514,-0.16095,0.612823,-0.671814,23509,-22501,10477,-3216,-29360
1023855,-3.02422,-9.65166,1.68916,-78.1238,15.0018,-132.495,14.0381,3.05176,30.0293,0.38443,-0.159912,0.612793,-0.67157,26837,-21989,6893,-3216,-29360
1023861,-2.51699,-10.1685,2.5457,-77.9535,15.3259,-132.407,16.7847,-2.01416,33.9355,0.386414,-0.157745,0.612488,-0.671234,30421,-21989,3565,-3216,-29360
1023867,-2.46914,-9.18272,2.77539,-77.9041,15.5127,-132.391,9.94873,5.67627,37.8418,0.387604,-0.156647,0.612213,-0.671051,-25387,-20965,-3092,-3216,-29360
1023873,-3.00029,-9.85264,2.75625,-77.8986,15.7214,-132.38,1.40381,7.99561,40.4663,0.388611,-0.155334,0.612274,-0.670715,-19755,-20453,-5908,-3216,-29360
1023879,-3.32568,-10.0967,2.0624,-77.8711,15.9357,-132.369,5.18799,7.38525,42.6025,0.389618,-0.154053,0.61264,-0.670074,-13867,-20197,-8724,-3216,-29360
1023885,-3.52188,-10.7188,1.4499,-77.8546,16.1444,-132.358,3.41797,7.8125,41.9312,0.390717,-0.152649,0.612915,-0.669525,-8491,-19941,-11028,-3216,-29360
1023891,-3.26348,-10.8671,2.13418,-77.7612,16.6168,-132.297,8.97217,3.05176,49.0112,0.393005,-0.14975,0.613403,-0.668396,-3371,-19173,-13332,-3216,-29360
1023897,-3.01943,-10.5034,1.90928,-77.7063,16.8695,-132.264,10.0098,5.85938,51.2695,0.394409,-0.148224,0.613525,-0.667786,8662,-17893,-16916,-3216,-29360
1023903,-3.4501,-10.7092,1.80879,-77.6624,17.1332,-132.237,8.30078,6.65283,53.7109,0.395813,-0.146576,0.613678,-0.667175,15574,-17893,-18196,-3216,-29360
1023909,-3.28262,-11.0011,1.72266,-77.6019,17.4133,-132.182,9.46045,2.80762,57.1289,0.397247,-0.144867,0.613922,-0.666504,22230,-17381,-18452,-3216,-29360
1023915,-2.97637,-10.8527,1.69873,-77.5525,17.6935,-132.138,8.8501,4.82178,57.6172,0.398865,-0.143158,0.614044,-0.665741,28886,-16613,-20500,-3216,-29360
1023921,-3.69414,-10.6278,1.95713,-77.3987,18.3142,-132.034,13.7329,2.19727,65.2466,0.402191,-0.139374,0.61441,-0.664246,-30506,-15845,-22804,-3216,-29360
1023927,-3.14863,-10.2498,2.35908,-77.3108,18.6383,-131.962,14.3433,1.95312,67.1997,0.404083,-0.13739,0.614471,-0.663452,-17706,-12517,-27668,-3216,-29360
1023933,-3.37832,-10.068,2.30166,-77.2394,18.9734,-131.902,12.6953,5.12695,69.0918,0.406036,-0.135376,0.614502,-0.662659,-10794,-10213,-30740,-3216,-29360
1023939,-4.00996,-10.1397,2.52656,-77.157,19.325,-131.819,12.085,1.09863,73.7915,0.407928,-0.13324,0.614624,-0.661774,-3626,-7909,31724,-3216,-29360
1023945,-3.42617,-10.8719,2.05283,-77.0911,19.682,-131.743,8.8501,2.92969,74.2798,0.410065,-0.131104,0.614746,-0.660797,4055,-5605,28652,-3216,-29360
1023951,-3.74199,-10.4651,1.85186,-76.9263,20.4291,-131.589,13.2446,2.68555,80.9326,0.414246,-0.126678,0.615112,-0.658691,11991,-3813,26092,-3216,-29360
1023957,-4.34971,-10.1397,1.43076,-76.8384,20.8191,-131.495,11.8408,1.89209,81.9092,0.416534,-0.124298,0.615234,-0.657593,29911,-229,20972,-3216,-29360
1023963,-3.39746,-10.1493,2.33516,-76.734,21.2091,-131.375,14.4653,-3.11279,84.2896,0.418854,-0.121948,0.615387,-0.656403,-26153,1564,18924,-3216,-29360
1023969,-3.45967,-10.4747,2.65576,-76.6571,21.6101,-131.232,10.437,6.83594,83.5571,0.421387,-0.119629,0.615387,-0.655243,-15401,3356,16876,-3216,-29360
1023975,-4.19658,-10.5752,2.07676,-76.5692,22.0276,-131.067,11.8408,3.479,87.3413,0.424011,-0.117523,0.61554,-0.653748,-4649,5404,15852,-3216,-29360
1023981,-4.54111,-10.714,1.60781,-76.3715,22.8625,-130.726,14.2822,3.60107,89.2334,0.429688,-0.11322,0.615723,-0.650665,17880,9756,13292,-3216,-29360
1023987,-3.96211,-10.312,1.71309,-76.2561,23.291,-130.534,15.4419,0.183105,90.9424,0.432526,-0.110962,0.615723,-0.649139,29656,11292,11500,-3216,-29360
1023993,-3.76113,-10.9532,1.46426,-76.1298,23.725,-130.336,15.9912,-1.15967,93.6279,0.435486,-0.108734,0.615662,-0.647583,-23848,12828,8940,-3216,-29360
1023999,-4.24443,-11.0154,1.3877,-75.9924,24.1699,-130.144,18.6157,0.366211,96.1914,0.438568,-0.106476,0.61557,-0.645996,-11048,13852,5100,-3216,-29360
1024005,-4.42148,-11.4174,1.54082,-75.8441,24.6259,-129.93,19.7754,-2.31934,98.6938,0.44165,-0.104065,0.615417,-0.644409,2521,14364,1516,-3216,-29360
1024011,-3.78506,-10.9771,1.41162,-75.4871,25.5817,-129.485,23.3154,1.0376,104.797,0.448303,-0.0990906,0.614777,-0.641205,29913,15132,-6677,-3216,-29360
1024017,-4.47412,-11.0202,1.31113,-75.2893,26.076,-129.254,26.4282,-2.19727,108.459,0.451569,-0.096344,0.614532,-0.639557,-22311,15900,-11029,-3216,-29360
1024023,-3.8042,-11.1398,1.55996,-75.0916,26.5869,-129.001,24.7192,-5.85938,111.816,0.455017,-0.0935364,0.614166,-0.637878,-8999,17180,-16405,-3216,-29360
1024029,-3.44053,-11.3121,1.84229,-74.8883,27.1088,-128.754,26.9775,-3.05176,114.868,0.458618,-0.0907593,0.61377,-0.636078,4314,17948,-22549,-3216,-29360
1024035,-3.41182,-11.0633,2.42607,-74.6851,27.6416,-128.524,27.4048,0.915527,117.188,0.462219,-0.0877686,0.613373,-0.634277,17882,18460,-30229,-3216,-29360
1024041,-3.96211,-10.8192,1.91885,-74.2511,28.7622,-128.013,27.2827,-3.84521,125.61,0.46936,-0.0814209,0.612701,-0.630524,-17958,19484,18667,-3216,-29360
1024047,-3.2874,-10.4986,2.77061,-74.0259,29.3445,-127.755,27.3438,0.305176,128.723,0.473206,-0.078186,0.612274,-0.628448,-3110,20252,10987,-3216,-29360
1024053,-4.31621,-10.4364,2.77061,-73.8336,29.9487,-127.535,24.292,7.62939,130.676,0.47699,-0.0747681,0.611938,-0.626373,11739,20252,4843,-3216,-29360
1024059,-4.97656,-11.1207,2.32559,-73.6139,30.5585,-127.26,25.3296,0.732422,134.949,0.480591,-0.071167,0.611786,-0.624146,27099,19740,-1046,-3216,-29360
1024065,-4.81865,-11.4939,2.67969,-73.3887,31.1847,-126.996,24.7192,2.86865,137.634,0.484467,-0.0675964,0.611511,-0.621826,-21797,18460,-7190,-3216,-29360
1024071,-5.42158,-11.5035,1.81836,-72.9108,32.5031,-126.436,25.8179,2.0752,146.729,0.492249,-0.059967,0.610962,-0.617004,-4645,16668,-13334,-3216,-29360
1024077,-5.07705,-11.7715,1.65088,-72.6581,33.1787,-126.14,26.3672,2.74658,150.33,0.496338,-0.0560608,0.610657,-0.61438,31196,13084,-27158,-3216,-29360
1024083,-5.9001,-12.8769,1.92842,-72.3999,33.8818,-125.832,25.3296,2.99072,155.029,0.500458,-0.0520325,0.610352,-0.611725,-16676,11036,32234,-3216,-29360
1024089,-5.50771,-13.8147,2.54092,-72.1033,34.6069,-125.475,28.0762,-1.34277,162.72,0.504669,-0.0478821,0.610077,-0.608887,1501,9500,25322,-3216,-29360
1024095,-4.46455,-13.1735,2.82803,-71.7902,35.3705,-125.107,28.9917,-0.366211,170.349,0.509155,-0.0435791,0.609619,-0.605927,20445,7452,19434,-3216,-29360
1024101,-3.8377,-12.5323,4.08174,-71.1914,36.9965,-124.371,22.2168,6.83594,184.204,0.518433,-0.0342712,0.608765,-0.599457,-25635,5404,12266,-3216,-29360
1024107,-4.56025,-13.2357,3.98604,-70.8838,37.8589,-123.992,23.6816,9.52148,191.589,0.523132,-0.0293579,0.608582,-0.595825,14558,-1253,-1559,-3216,-29360
1024113,-5.37373,-12.9438,3.32568,-70.5542,38.7598,-123.602,25.4517,10.9863,198.73,0.527893,-0.0241394,0.608368,-0.592041,-31266,-5093,-8983,-3216,-29360
1024119,-5.61299,-12.3505,2.76582,-70.1971,39.6771,-123.179,26.5503,9.33838,204.895,0.532745,-0.0186768,0.608154,-0.588104,-10786,-8933,-16663,-3216,-29360
1024125,-5.61777,-11.4652,2.45479,-69.8181,40.6219,-122.728,25.8789,8.8501,210.938,0.537781,-0.0130615,0.607819,-0.584015,10719,-13029,-24855,-3216,-29360
1024131,-6.51738,-12.4558,2.92852,-69.4446,41.5887,-122.267,20.4468,10.7422,219.482,0.548004,-0.00149536,0.607208,-0.575226,-31265,-17637,31977,-3216,-29360
1024137,-6.37383,-14.2502,3.48838,-68.6316,43.5553,-121.251,22.1558,7.08008,223.511,0.553162,0.0043335,0.606934,-0.570557,18144,-29925,16105,-3216,-29360
1024143,-5.71348,-14.7335,3.72285,-68.1207,44.5496,-120.69,31.7383,6.22559,227.173,0.558441,0.0102539,0.606506,-0.565765,-23072,29467,8425,-3216,-29360
1024149,-6.44561,-13.3123,3.53145,-67.5989,45.5658,-120.13,33.3862,11.6577,230.408,0.563782,0.016449,0.605743,-0.561127,1761,22299,745,-3216,-29360
1024155,-6.89062,-13.0061,2.77539,-67.088,46.593,-119.52,23.3765,8.97217,235.046,0.56897,0.0229187,0.605042,-0.556396,27105,14875,-6936,-3216,-29360
1024161,-5.45986,-11.9677,1.53604,-66.5222,47.6367,-118.839,19.6533,10.6201,247.009,0.579803,0.0354614,0.603729,-0.545837,-12831,6939,-15896,-3216,-29360
1024167,-6.54131,-11.5944,1.92363,-65.3851,49.79,-117.427,13.1836,8.72803,251.892,0.585205,0.0419312,0.60318,-0.540222,-26142,-12262,30952,-3216,-29360
1024173,-7.12031,-11.8193,2.12939,-64.8083,50.8777,-116.653,4.39453,8.11768,255.31,0.590698,0.0483398,0.602661,-0.534271,1507,-24294,21224,-3216,-29360
1024179,-7.35479,-12.2835,1.89014,-64.2096,51.9763,-115.812,-3.66211,5.7373,259.46,0.596222,0.0545654,0.602264,-0.527954,27875,29466,12776,-3216,-29360
1024185,-7.30215,-12.6232,1.84229,-63.5669,53.075,-114.906,-6.16455,3.2959,262.39,0.601807,0.0606384,0.601929,-0.521271,-10013,16666,5352,-3216,-29360
1024191,-6.89541,-11.427,1.78008,-62.8528,54.1626,-113.939,-4.15039,0.793457,262.573,0.613098,0.0726318,0.600952,-0.507538,18404,4122,-2841,-3216,-29360
1024197,-6.94805,-10.3359,1.55996,-61.2653,56.2939,-111.852,-5.24902,-2.68555,262.024,0.618622,0.0786438,0.600311,-0.500671,11237,-24039,-19225,-3216,-29360
1024203,-6.20635,-8.75205,1.03838,-60.4028,57.3157,-110.709,-10.498,-5.98145,259.155,0.624115,0.0845032,0.599548,-0.493744,-24603,26905,-29209,-3216,-29360
1024209,-5.69434,-6.85234,0.44502,-59.4965,58.288,-109.512,-14.7095,-10.376,251.404,0.629578,0.0900574,0.598755,-0.486725,5862,10521,27623,-3216,-29360
1024215,-5.77568,-5.31631,0,-58.5901,59.1943,-108.292,-18.3105,-12.5732,240.051,0.634918,0.0952148,0.597931,-0.479797,-30746,-4840,18663,-3216,-29360
1024221,-4.07217,-4.69424,-0.92832,-57.6398,60.0183,-107.029,-17.4561,-29.0527,214.478,0.644928,0.104065,0.596161,-0.466614,-2074,-20456,11239,-3216,-29360
1024227,-1.73701,-2.56484,-3.29219,-55.4919,61.3806,-104.337,-7.93457,-39.1235,200.317,0.64975,0.107788,0.59491,-0.460632,-8985,11288,-4634,-3216,-29360
1024233,0.00957031,0.100488,-3.50752,-54.2944,61.897,-102.964,5.37109,-47.2412,181.763,0.654419,0.111206,0.593231,-0.455322,18664,-6121,-12314,-3216,-29360
1024239,0.799121,8.79512,-3.69893,-53.0255,62.2595,-101.624,25.2075,-59.6313,154.419,0.658813,0.114349,0.591156,-0.450897,-20248,-24297,-21018,-3216,-29360
1024245,0.344531,17.485,-3.66543,-52.1356,62.3419,-100.585,2.0752,-68.9697,91.9189,0.662811,0.117126,0.58844,-0.447845,4329,23575,-28954,-3208,-29361
1024251,1.05273,6.68008,-2.84717,-51.9324,61.6278,-99.646,-68.4814,-87.1582,-40.2832,0.668121,0.114594,0.585083,-0.445007,-18199,-9706,22758,-3208,-29361
1024257,0.497656,1.91406,-1.0623,-52.3389,60.9357,-99.5801,-85.3882,-95.0317,-87.8296,0.669464,0.109253,0.584412,-0.44519,-23,-25066,17126,-3208,-29361
1024263,1.38291,-0.756055,-0.736914,-52.9541,60.0568,-99.657,-102.844,-105.469,-125.793,0.670135,0.102112,0.584076,-0.44635,15594,27670,12262,-3208,-29361
1024269,3.76592,-3.7085,-0.727344,-53.7286,59.0625,-99.8657,-112,-107.788,-153.687,0.670349,0.0932922,0.583893,-0.448181,28906,16918,7654,-3208,-29361
1024275,5.52686,-7.11074,-2.07197,-54.5856,57.9913,-100.184,-101.257,-105.408,-184.753,0.669128,0.0731506,0.584015,-0.453583,-26902,8726,3814,-3208,-29361
1024281,5.54121,-7.70889,-1.73701,-56.2115,55.6952,-100.937,-84.4727,-104.492,-194.397,0.667816,0.0627747,0.583923,-0.457153,-15382,534,-2331,-3208,-29361
1024287,4.91436,-7.55098,-0.904395,-56.9257,54.4922,-101.343,-68.9087,-103.088,-200.806,0.666107,0.0526428,0.583496,-0.461426,-14102,278,-4379,-3208,-29361
1024293,4.44063,-7.34043,-0.181836,-57.5629,53.2727,-101.728,-58.6548,-103.76,-203.003,0.664093,0.0427856,0.582794,-0.466248,-16150,2070,-6427,-3208,-29361
1024299,4.4167,-7.28779,0.210547,-58.1561,52.0532,-102.112,-50.7202,-100.769,-203.857,0.661865,0.0331421,0.581818,-0.471405,-22294,6678,-8731,-3208,-29361
1024305,3.54102,-5.19189,-0.636426,-58.7054,50.8392,-102.497,-35.4004,-94.3604,-204.102,0.656799,0.014679,0.579437,-0.482208,-30486,12310,-11803,-3208,-29361
1024311,3.6415,-3.84727,-0.478516,-59.7052,48.4167,-103.271,-32.4097,-91.6138,-205.872,0.653992,0.00582886,0.578094,-0.487823,13034,27158,-18971,-3208,-29361
1024317,4.05781,-3.14385,-0.0334961,-60.2161,47.2028,-103.683,-34.2407,-86.4258,-207.275,0.65094,-0.00289917,0.576691,-0.49353,-23,-30186,-21531,-3208,-29361
1024323,4.18223,-2.91895,0.229688,-60.7654,46.0052,-104.117,-38.9404,-79.5288,-208.252,0.647644,-0.0116272,0.575409,-0.499176,-14103,-21482,-23835,-3208,-29361
1024329,3.88076,-2.73711,0.282324,-61.3641,44.8132,-104.584,-46.0205,-71.4722,-209.351,0.644073,-0.0203552,0.574402,-0.5047,-29975,-11498,-25371,-3208,-29361
1024335,2.97158,-3.17256,0.0669922,-62.7209,42.4567,-105.584,-63.9648,-57.312,-210.876,0.635895,-0.0380554,0.573334,-0.515137,-1304,10519,-27931,-3208,-29361
1024341,2.84238,-3.72285,0,-63.4625,41.2866,-106.1,-71.5332,-50.8423,-211.914,0.631378,-0.0470581,0.573303,-0.519958,-22552,23063,-28443,-3208,-29361
1024347,2.71797,-4.31143,0.153125,-64.2371,40.1276,-106.633,-77.5757,-44.3115,-212.28,0.626556,-0.0561523,0.573578,-0.524567,22248,-30185,-28443,-3208,-29361
1024353,2.6127,-4.95264,0.325391,-65.0281,38.9795,-107.177,-82.3975,-37.8418,-212.524,0.62149,-0.0652771,0.574066,-0.528992,-281,-17129,-28699,-3208,-29361
1024359,2.46914,-5.70391,0.550293,-65.8356,37.8424,-107.726,-85.8154,-30.6396,-211.853,0.61615,-0.0743408,0.574768,-0.533264,-23321,-3305,-27931,-3200,-29362
1024365,1.87578,-7.01025,0.980957,-67.467,35.5957,-108.847,-89.6606,-17.5781,-210.999,0.604706,-0.0921326,0.576782,-0.541351,-7450,24856,-26395,-3200,-29362
1024371,1.44033,-7.46963,1.09102,-68.28,34.4861,-109.413,-90.8813,-11.2915,-210.693,0.598694,-0.10083,0.577942,-0.545227,31974,-26856,-23067,-3200,-29362
1024377,0.832617,-7.95772,1.21064,-69.0875,33.3875,-109.979,-91.7969,-5.61523,-210.449,0.592438,-0.109375,0.579224,-0.549011,6886,-13288,-18971,-3200,-29362
1024383,-0.0334961,-8.45059,1.17236,-69.884,32.2888,-110.533,-92.8345,-2.0752,-211.792,0.586029,-0.117767,0.580597,-0.552704,-19227,281,-13083,-3200,-29362
1024389,-0.827832,-8.78076,1.07666,-70.6586,31.1737,-111.066,-93.0176,-0.488281,-214.05,0.579468,-0.126129,0.58197,-0.556335,19173,13849,-6171,-3200,-29362
1024395,-2.02891,-9.4459,1.36855,-72.1582,28.905,-112.066,-95.459,-0.12207,-220.947,0.56601,-0.142822,0.584503,-0.563446,29156,-25063,13030,-3200,-29362
1024401,-2.73232,-9.94355,1.42598,-72.8943,27.746,-112.533,-97.7173,0.610352,-225.22,0.559143,-0.151276,0.585663,-0.566895,740,-12007,25574,-3200,-29362
1024407,-3.39268,-10.4747,1.4499,-73.6084,26.5704,-112.961,-98.6938,-1.64795,-228.577,0.552124,-0.159851,0.586731,-0.570312,-26653,794,-27162,-3200,-29362
1024413,-3.67979,-11.025,1.70352,-74.295,25.3784,-113.357,-99.2432,-4.02832,-231.75,0.545044,-0.168518,0.587677,-0.573608,10211,13594,-14618,-3200,-29362
1024419,-3.81377,-11.6327,1.95713,-74.9707,24.1754,-113.719,-99.9146,-5.37109,-234.314,0.530853,-0.186127,0.589111,-0.579987,-19486,26138,-1306,-3200,-29362
1024425,-3.94775,-13.0443,2.26816,-76.2286,21.7859,-114.362,-96.2524,-6.5918,-232.91,0.523743,-0.194885,0.5896,-0.583038,-16415,-15334,28135,-3200,-29362
1024431,-3.7707,-13.4176,2.47393,-76.8109,20.6158,-114.648,-92.9565,-6.04248,-230.164,0.516724,-0.203522,0.589966,-0.586029,16609,-3814,-21785,-3200,-29362
1024437,-3.88076,-13.6712,2.59834,-77.3712,19.4678,-114.917,-90.5151,-3.72314,-225.708,0.509766,-0.211914,0.590179,-0.588898,-14880,6427,-6425,-3200,-29362
1024443,-3.9334,-13.9631,2.59355,-77.9041,18.3527,-115.175,-87.3413,-1.89209,-220.764,0.502869,-0.220062,0.590332,-0.591675,18912,16923,8936,-3200,-29362
1024449,-4.00996,-14.1593,2.54092,-78.4094,17.276,-115.422,-84.5947,0.12207,-214.478,0.489441,-0.235413,0.590454,-0.596863,-13601,26907,25064,-3200,-29362
1024455,-3.89512,-14.3938,2.52656,-79.3817,15.2325,-115.906,-80.9326,8.17871,-201.477,0.48288,-0.242584,0.590515,-0.599274,-14882,-20453,-5656,-3200,-29362
1024461,-3.82334,-14.6569,2.41172,-79.8486,14.2712,-116.147,-79.4678,12.0239,-194.58,0.47641,-0.24939,0.590668,-0.601532,16606,-12773,13033,-3200,-29362
1024467,-3.77549,-14.6617,2.44521,-80.3046,13.3429,-116.406,-78.125,17.5781,-188.904,0.470001,-0.255859,0.590851,-0.603668,-15651,-5349,29929,-3200,-29362
1024473,-3.68457,-14.7431,2.44521,-80.7605,12.4475,-116.669,-77.9419,23.0103,-182.8,0.463654,-0.261963,0.591095,-0.605713,17629,1052,-18711,-3200,-29362
1024479,-3.7085,-14.8244,2.39736,-81.2109,11.5906,-116.96,-77.5757,29.2358,-177.307,0.450897,-0.273102,0.592041,-0.609467,-14884,5916,-791,-3208,-29361
1024485,-3.71807,-14.944,2.45479,-82.1063,9.95911,-117.592,-78.5522,41.8701,-168.457,0.444458,-0.278168,0.592712,-0.611267,-16165,14620,-30742,-3208,-29361
1024491,-3.78506,-14.9919,2.47871,-82.5623,9.17358,-117.949,-79.4067,49.3774,-166.687,0.437927,-0.282928,0.593536,-0.612976,15835,17436,-13078,-3208,-29361
1024497,-4.06738,-14.7813,2.36387,-83.0182,8.38806,-118.334,-79.9561,56.2744,-166.748,0.431244,-0.287415,0.594543,-0.614685,-18214,19740,3819,-3208,-29361
1024503,-3.99561,-14.4272,2.26816,-83.4741,7.59705,-118.746,-81.0547,62.2559,-169.434,0.424347,-0.291687,0.595612,-0.616425,14810,21788,18923,-3208,-29361
1024509,-3.92383,-14.3842,2.39736,-83.9355,6.77856,-119.191,-82.7026,69.397,-174.561,0.409729,-0.299896,0.597992,-0.620087,-16679,23068,-30485,-3208,-29361
1024515,-4.23965,-14.9249,2.46914,-84.8584,5.04822,-120.157,-84.5337,81.7871,-189.88,0.401825,-0.303955,0.599213,-0.62207,-14888,23580,-789,-3208,-29361
1024521,-4.45977,-15.5278,2.58877,-85.3088,4.11987,-120.679,-84.2285,87.7075,-198.608,0.393555,-0.308014,0.600403,-0.624237,18648,23068,14316,-3208,-29361
1024527,-4.65596,-16.2695,2.53613,-85.7373,3.14758,-121.223,-81.1768,92.8345,-207.825,0.384857,-0.312073,0.601501,-0.626556,-14121,21276,28140,-3208,-29361
1024533,-4.82822,-16.9634,2.49785,-86.1273,2.13684,-121.783,-75.9888,96.8018,-216.187,0.375793,-0.316132,0.602417,-0.62912,19927,18972,-22804,-3208,-29361
1024539,-4.82822,-18.1166,2.44043,-86.4734,1.09314,-122.355,-68.2983,100.891,-222.9,0.356903,-0.324097,0.603455,-0.635071,-12586,15388,-9236,-3208,-29361
1024545,-5.0627,-18.2937,2.47871,-86.9897,-1.01624,-123.563,-50.6592,110.168,-226.013,0.347229,-0.327759,0.603546,-0.638458,-14123,5404,16365,-3208,-29361
1024551,-5.39287,-18.2506,2.50264,-87.1765,-2.04895,-124.195,-44.0674,114.319,-222.412,0.337555,-0.331085,0.603394,-0.642059,16597,-997,26605,-3208,-29361
1024557,-5.68955,-18.0257,2.51221,-87.3248,-3.0542,-124.843,-39.0015,118.713,-216.492,0.327942,-0.334045,0.603119,-0.645752,-18988,-9189,-29203,-3208,-29361
1024563,-6.125,-17.6668,2.44043,-87.4457,-4.0155,-125.508,-35.7056,122.742,-208.374,0.31842,-0.336609,0.602783,-0.649475,9940,-18149,-20755,-3208,-29361
1024569,-6.72314,-16.7385,2.36865,-87.5391,-4.92188,-126.189,-33.2031,126.282,-199.28,0.299927,-0.340393,0.602264,-0.656769,-24877,-27365,-13843,-3208,-29361
1024575,-7.00547,-16.37,2.30645,-87.6654,-6.59729,-127.584,-28.9307,132.019,-181.091,0.290955,-0.341675,0.602081,-0.660278,-31534,16923,-4371,-3208,-29361
1024581,-7.32607,-16.1978,2.2873,-87.6874,-7.35535,-128.298,-25.2075,133.667,-171.204,0.282227,-0.34256,0.60199,-0.663696,-2095,5659,-2067,-3208,-29361
1024587,-7.58926,-15.8341,2.20596,-87.6764,-8.05847,-129.018,-20.752,134.888,-160.645,0.273773,-0.343018,0.601898,-0.667084,27345,-6630,-1811,-3208,-29361
1024593,-7.91465,-15.2503,2.39736,-87.627,-8.70117,-129.738,-15.3198,135.315,-149.109,0.265656,-0.343079,0.601807,-0.67038,-7984,-19430,-3091,-3216,-29360
1024599,-8.52236,-12.8338,3.33525,-87.55,-9.27246,-130.452,-10.6201,133.667,-135.986,0.250763,-0.341919,0.601654,-0.676849,24016,-31718,-4627,-3216,-29360
1024605,-9.95312,-12.1639,2.6749,-87.3798,-10.1788,-131.852,-11.5356,131.165,-106.262,0.24408,-0.340759,0.601685,-0.67984,24527,6938,-9747,-3216,-29360
1024611,-12.0969,-12.116,1.37813,-87.3083,-10.5249,-132.517,-13.2446,124.695,-93.9331,0.237793,-0.339203,0.60199,-0.682556,-6962,-6631,-13843,-3216,-29360
1024617,-13.408,-11.8911,0.540723,-87.2369,-10.827,-133.11,-11.6577,111.877,-85.022,0.232056,-0.337494,0.602478,-0.684937,28622,-19687,-21523,-3216,-29360
1024623,-13.9631,-11.0872,0.00478516,-87.1655,-11.0962,-133.638,-8.97217,97.9004,-80.0171,0.22699,-0.335846,0.602905,-0.687073,206,-32231,-31251,-3216,-29360
1024629,-14.5469,-7.88594,-0.507227,-87.0941,-11.3489,-134.094,-6.10352,83.7402,-76.5991,0.218475,-0.333313,0.603333,-0.690674,-26163,21529,25069,-3216,-29360
1024635,-14.6952,-6.14414,-0.440234,-87.0062,-11.8378,-134.769,-9.21631,53.0396,-76.0498,0.214966,-0.332581,0.603333,-0.692139,-8244,-1256,3821,-3216,-29360
1024641,-14.6665,-4.87129,-0.0574219,-87.0282,-12.0795,-134.995,-16.7236,37.4756,-76.1108,0.211823,-0.332306,0.603302,-0.693268,-30772,-12264,-5652,-3216,-29360
1024647,-14.7191,-4.26836,0.555078,-87.1271,-12.3102,-135.137,-27.71,22.9492,-73.9136,0.209015,-0.33255,0.603363,-0.693939,13772,-23016,-15124,-3216,-29360
1024653,-14.5469,-4.84258,1.14844,-87.2974,-12.5134,-135.209,-40.1001,8.78906,-68.9697,0.206543,-0.333221,0.603668,-0.694092,-6197,31256,-23572,-3216,-29360
1024659,-13.7525,-7.16816,2.26816,-87.5226,-12.6672,-135.214,-53.1616,-15.8081,-47.3633,0.20285,-0.335541,0.605225,-0.692719,-25653,19992,-32020,-3216,-29360
1024665,-13.1783,-8.07256,2.8041,-88.0664,-12.7771,-135.038,-54.2603,-26.3062,-32.6538,0.201874,-0.336823,0.606354,-0.691376,4811,-1769,19180,-3216,-29360
1024671,-12.4462,-8.77119,3.37832,-88.3466,-12.7167,-134.879,-52.5513,-35.2783,-17.0898,0.20166,-0.338013,0.607666,-0.689728,-11318,-11497,13036,-3216,-29360
1024677,-11.6662,-9.17793,3.69414,-88.6047,-12.5793,-134.676,-47.7905,-42.6636,-2.19727,0.202179,-0.33905,0.609039,-0.687836,-25910,-20713,8684,-3216,-29360
1024683,-10.7618,-9.20664,3.87598,-88.8409,-12.3706,-134.44,-41.8091,-48.4009,11.5356,0.20343,-0.339844,0.610413,-0.685883,26314,-29161,5612,-3216,-29360
1024689,-9.37891,-8.62764,3.71328,-89.0442,-12.1069,-134.187,-27.5879,-55.603,33.5693,0.207825,-0.340637,0.613007,-0.681854,14282,28439,5100,-3216,-29360
1024695,-8.85732,-8.14912,3.48359,-89.3463,-11.4313,-133.638,-22.3389,-57.9834,41.687,0.210785,-0.340637,0.614136,-0.679901,-5687,14615,6124,-3216,-29360
1024701,-8.42666,-7.76631,3.17256,-89.4672,-11.0413,-133.347,-18.6157,-59.7534,48.4619,0.214111,-0.340454,0.615173,-0.677979,-14135,9239,6636,-3216,-29360
1024707,-8.00078,-7.4792,2.81846,-89.5715,-10.6183,-133.05,-16.1743,-60.9131,54.5044,0.217773,-0.340118,0.616211,-0.676086,-21303,5399,8684,-3216,-29360
1024713,-7.65146,-7.28779,2.55527,-89.6649,-10.1733,-132.759,-14.8926,-61.0962,59.2041,0.221649,-0.3396,0.617188,-0.674164,-27191,2583,12012,-3216,-29360
1024719,-7.1873,-6.39297,2.00498,-89.7528,-9.71191,-132.462,-16.7236,-61.8896,63.4766,0.229858,-0.338257,0.619232,-0.670227,-32311,791,16876,-3216,-29360
1024725,-6.79014,-6.21592,1.71787,-89.9615,-8.78357,-131.869,-19.2261,-61.9507,62.9272,0.234009,-0.337524,0.6203,-0.668152,26825,-1002,26604,-3225,-29359
1024731,-6.40254,-6.20635,1.46426,-90.0769,-8.33313,-131.572,-20.874,-61.0962,60.6689,0.238098,-0.336853,0.621399,-0.665985,25801,-1514,30700,-3225,-29359
1024737,-6.10586,-6.125,1.33984,-90.1923,-7.89917,-131.281,-22.2778,-60.6689,57.9224,0.242096,-0.336243,0.622528,-0.663818,25289,-2026,-31252,-3225,-29359
1024743,-5.81396,-6.23984,1.30156,-90.3186,-7.48169,-130.995,-24.1699,-59.8755,54.3213,0.245972,-0.335693,0.623627,-0.661621,25801,-1770,-27924,-3225,-29359
1024749,-5.30195,-6.90977,1.6126,-90.5713,-6.69617,-130.452,-26.3672,-55.8472,47.8516,0.253204,-0.3349,0.625824,-0.657227,26825,-1002,-21780,-3225,-29359
1024755,-5.12969,-7.12988,1.79922,-90.6976,-6.33362,-130.199,-26.9165,-53.894,44.3726,0.256561,-0.334564,0.626892,-0.65509,31433,2071,-9492,-3225,-29359
1024761,-4.84736,-7.53662,1.97148,-90.824,-5.97656,-129.957,-27.1606,-50.9644,42.2974,0.259766,-0.334259,0.62793,-0.652985,-31543,4375,-2580,-3225,-29359
1024767,-4.56025,-8.14434,2.12939,-90.9393,-5.63599,-129.732,-25.9399,-48.0957,40.6494,0.262787,-0.333954,0.628967,-0.650909,-27703,6423,4077,-3225,-29359
1024773,-4.30664,-8.80469,2.2251,-91.0327,-5.29541,-129.534,-22.0947,-42.9077,40.7715,0.265717,-0.333618,0.629944,-0.648956,-23863,8471,10477,-3225,-29359
1024779,-4.1918,-9.20186,2.66533,-91.1261,-4.59778,-129.199,-11.6577,-33.6914,44.2505,0.271332,-0.332336,0.631683,-0.645599,-19255,10775,17645,-3225,-29359
1024785,-4.0626,-9.20186,2.8041,-91.1371,-4.23523,-129.078,-7.87354,-27.6489,47.2412,0.274109,-0.33136,0.632416,-0.644196,-8247,15895,32493,-3225,-29359
1024791,-4.00039,-9.16836,2.88545,-91.1206,-3.8562,-128.985,-3.84521,-21.4233,50.7812,0.276886,-0.330109,0.633148,-0.642944,-2871,18967,-25619,-3225,-29359
1024797,-3.88555,-8.97695,2.94766,-91.0822,-3.46619,-128.925,-0.0610352,-14.5874,53.772,0.279602,-0.328552,0.63385,-0.641876,2762,21527,-18707,-3225,-29359
1024803,-2.72275,-22.7486,7.37393,-91.0931,-3.0542,-128.82,-9.39941,-24.0479,60.6079,0.282257,-0.32666,0.634583,-0.64093,7626,24599,-12307,-3225,-29359
1024809,-0.980957,-11.2021,6.5126,-90.1703,-2.28516,-128.903,89.0503,19.2261,55.603,0.288757,-0.321899,0.634155,-0.6409,13258,27415,-6419,-3225,-29359
1024815,-0.320605,-8.87168,4.10566,-89.6649,-1.93359,-129.001,92.3462,18.6768,51.0254,0.291656,-0.318024,0.63269,-0.642944,25034,-30953,2542,-3225,-29359
1024821,0.564648,-6.63701,2.67969,-89.1266,-1.63696,-129.183,97.4731,36.5601,42.0532,0.294464,-0.31427,0.631073,-0.645111,31178,-27369,5102,-3225,-29359
1024827,-0.478516,-5.56514,2.26338,-88.6322,-1.37329,-129.413,89.1113,45.8374,34.3628,0.296539,-0.310211,0.629395,-0.647766,-27702,-23273,5614,-3216,-29360
1024833,1.63652,-5.27324,2.24424,-88.2202,-1.13159,-129.65,72.937,47.3022,30.3955,0.298035,-0.306213,0.62793,-0.650391,-20790,-19689,4078,-3216,-29360
1024839,14.3842,39.1474,19.0258,-88.418,-0.532837,-129.661,-107.605,-60.0586,61.7676,0.299286,-0.298798,0.62674,-0.654388,-5686,-13289,750,-3216,-29360
1024845,20.3848,-3.40225,-11.0441,-87.4072,-0.159302,-130.067,190.186,83.374,60.9741,0.301849,-0.299561,0.629639,-0.650055,1739,-10217,-1299,-3216,-29360
1024851,9.45547,-4.72295,-10.0488,-87.2974,0.153809,-130.463,13.5498,82.7026,51.6357,0.304199,-0.292542,0.625916,-0.655731,8651,-6889,-2579,-3216,-29360
1024857,10.3742,-14.2502,5.4168,-87.2589,0.587769,-130.551,-1.95312,22.0947,80.7495,0.303955,-0.288208,0.627136,-0.656586,15819,-3561,-4371,-3216,-29360
1024863,3.31611,-17.461,1.60303,-87.0941,1.08765,-130.957,25.6348,87.4634,91.4307,0.305939,-0.285156,0.628296,-0.655914,23243,280,-8211,-3216,-29360
1024869,1.49775,-8.45537,3.75635,-86.4844,2.29065,-131.138,51.8799,11.8408,127.136,0.309509,-0.274628,0.629639,-0.65744,-25141,9496,-17683,-3216,-29360
1024875,0.47373,-6.9624,4.11523,-86.2701,2.99377,-131.259,36.3159,34.729,136.78,0.31366,-0.269958,0.629639,-0.65741,-14901,14360,-23059,-3216,-29360
1024881,-3.9334,-6.88105,3.34961,-86.0779,3.71887,-131.347,31.7993,28.5034,140.503,0.317261,-0.264618,0.630432,-0.657074,-3893,19480,-28179,-3216,-29360
1024887,-5.13447,-7.89551,4.72773,-85.9296,4.40552,-131.38,22.3999,18.2495,134.644,0.321075,-0.259369,0.631317,-0.656464,7116,25112,31213,-3216,-29360
1024893,-5.7374,-7.1251,3.15342,-85.8142,5.02625,-131.402,15.7471,15.8081,119.812,0.32489,-0.254669,0.632233,-0.655548,19148,30744,25325,-3216,-29360
1024899,-6.07236,-11.6901,0.732129,-85.6989,6.05347,-131.347,4.88281,-1.28174,92.1631,0.331329,-0.247192,0.634125,-0.653381,-21044,-21480,11757,-3216,-29360
1024905,-4.45977,-10.4508,-0.229688,-85.5835,6.48743,-131.243,15.564,-11.9629,83.313,0.33429,-0.244446,0.634796,-0.652252,-7732,-15080,7661,-3216,-29360
1024911,-2.51699,-9.81436,0.851758,-85.4901,6.89392,-131.122,10.1318,-15.5029,77.9419,0.337402,-0.242065,0.634888,-0.651428,5069,-8168,4077,-3216,-29360
1024917,-1.73701,-10.2259,1.64131,-85.4077,7.28943,-131.012,7.69043,-13.6108,76.355,0.340393,-0.240051,0.635071,-0.650452,17613,-1256,1005,-3216,-29360
1024923,-2.03848,-9.73779,1.35898,-85.3308,7.64099,-130.946,8.66699,-5.49316,67.4438,0.343231,-0.238068,0.635284,-0.649445,29901,4889,-1044,-3216,-29360
1024929,-3.35918,-10.2737,1.45947,-85.2319,8.26172,-130.952,8.05664,16.5405,53.894,0.347626,-0.234222,0.635956,-0.647888,-11059,17689,-4628,-3216,-29360
1024935,-8.65156,-7.49356,0.416309,-85.1495,8.42102,-131.089,16.1133,31.4331,24.8413,0.348999,-0.232025,0.636383,-0.647491,1742,24089,-6164,-3216,-29360
1024941,-6.42168,-8.20654,-1.81357,-85.1276,8.5199,-131.034,-0.488281,-7.38525,15.5029,0.349213,-0.230072,0.636566,-0.647888,13774,30233,-6420,-3225,-29359
1024947,-2.57441,-10.5896,1.05752,-85.0616,8.58582,-131.034,10.2539,3.2959,8.23975,0.350098,-0.229706,0.636566,-0.647552,25550,-29671,-6420,-3225,-29359
1024953,-3.71328,-9.28799,1.01445,-84.9573,8.65173,-131.045,18.5547,5.31006,7.26318,0.350586,-0.229095,0.636322,-0.647736,-28978,-25063,-6676,-3225,-29359
1024959,-1.24893,-9.82393,0.794336,-84.8254,8.77258,-131.061,7.93457,10.0098,6.04248,0.351624,-0.227814,0.635529,-0.648407,-8242,-16615,-7188,-3225,-29359
1024965,-2.32559,-10.6518,0.535937,-84.7815,8.83301,-131.089,8.30078,9.09424,7.44629,0.351807,-0.227142,0.635468,-0.64859,1487,-13543,-7956,-3225,-29359
1024971,-1.83271,-10.5273,0.655566,-84.7101,8.90442,-131.083,11.7798,1.77002,10.1929,0.352081,-0.22644,0.635406,-0.648773,11471,-10471,-9492,-3225,-29359
1024977,-1.48818,-9.77607,1.39727,-84.6332,8.98132,-131.083,13.4888,3.78418,11.5356,0.352631,-0.22583,0.635162,-0.648926,20431,-8423,-9492,-3225,-29359
1024983,-2.07197,-9.14922,1.18672,-84.5728,9.06372,-131.089,10.376,5.43213,11.5356,0.353638,-0.224426,0.634735,-0.649261,28111,-6375,-9748,-3225,-29359
1024989,-2.16289,-9.80957,0.521582,-84.4739,9.20105,-131.1,9.15527,4.63867,10.0708,0.354095,-0.223846,0.634674,-0.649323,-23601,-2535,-9236,-3225,-29359
1024995,-2.70361,-9.6708,0.540723,-84.4135,9.27246,-131.1,11.5967,4.3335,10.2539,0.354523,-0.223236,0.634521,-0.649414,-17201,-487,-9492,-3225,-29359
1025001,-2.6127,-9.23057,0.579004,-84.342,9.34937,-131.089,12.7563,1.52588,11.3525,0.35498,-0.222595,0.634338,-0.649567,-11057,2074,-12052,-3225,-29359
1025007,-2.3208,-9.28799,0.856543,-84.2761,9.42078,-131.072,11.9629,0.732422,11.1694,0.35556,-0.221985,0.634094,-0.649719,-4657,4634,-13844,-3225,-29359
1025013,-2.17246,-9.4459,0.92832,-84.2157,9.49768,-131.067,11.2305,1.89209,11.5967,0.356689,-0.220825,0.633636,-0.649902,976,6426,-16404,-3225,-29359
1025019,-2.14375,-9.86221,1.04795,-84.0894,9.63501,-131.045,11.7798,1.70898,10.9863,0.357239,-0.220276,0.633423,-0.650024,10704,9754,-19220,-3225,-29359
1025025,-2.37822,-9.8957,0.885254,-84.0234,9.70642,-131.034,12.4512,1.89209,10.9253,0.357788,-0.219696,0.633179,-0.650146,15312,11290,-20756,-3225,-29359
1025031,-2.55527,-9.52246,0.937891,-83.9465,9.77234,-131.017,14.0381,0.732422,10.498,0.358337,-0.219116,0.632965,-0.650269,19920,13082,-21524,-3225,-29359
1025037,-2.32559,-9.22578,1.11016,-83.8806,9.83826,-131.001,12.7563,0.671387,10.376,0.358887,-0.218567,0.63266,-0.650421,24272,14362,-22036,-3225,-29359
1025043,-2.67012,-9.13965,1.15322,-83.8257,9.90417,-130.995,10.9863,2.19727,9.52148,0.359924,-0.217529,0.632202,-0.650665,28624,15386,-22036,-3225,-29359
1025049,-2.66533,-9.06309,1.09102,-83.7048,10.0195,-130.946,11.8408,-2.01416,8.60596,0.360413,-0.217072,0.631989,-0.650726,-29488,17690,-21780,-3225,-29359
1025055,-2.18682,-9.02002,1.28721,-83.6444,10.0745,-130.93,11.1084,-0.549316,8.23975,0.360992,-0.216675,0.631683,-0.650848,-25904,18970,-22036,-3225,-29359
1025061,-2.25859,-8.91953,1.41641,-83.5895,10.1239,-130.919,11.3525,1.64795,7.01904,0.361481,-0.216278,0.631439,-0.65094,-21808,19994,-22548,-3225,-29359
1025067,-2.16768,-8.77598,1.22979,-83.5345,10.1678,-130.902,9.39941,-0.244141,6.53076,0.361908,-0.215851,0.631195,-0.651093,-16688,21530,-23316,-3225,-29359
1025073,-1.90449,-9.1875,1.34463,-83.4961,10.2118,-130.88,7.75146,-0.305176,5.7373,0.362732,-0.21521,0.630798,-0.651215,-12080,23066,-23060,-3225,-29359
1025079,-1.91406,-9.31191,1.33027,-83.4357,10.2887,-130.853,4.82178,0.305176,5.37109,0.363068,-0.214966,0.630676,-0.651215,-4656,25370,-23316,-3225,-29359
1025085,-1.78486,-9.58945,1.31592,-83.4137,10.3326,-130.842,3.90625,0.854492,5.67627,0.363403,-0.214722,0.630585,-0.651215,-1840,26138,-23060,-3225,-29359
1025091,-2.11504,-9.59902,1.32549,-83.3972,10.3711,-130.836,3.84521,2.62451,5.24902,0.363708,-0.214478,0.630524,-0.651184,977,26906,-24596,-3225,-29359
1025097,-2.17246,-9.43633,1.15322,-83.3752,10.4095,-130.825,3.54004,1.34277,5.5542,0.363953,-0.214172,0.630493,-0.651154,3537,27930,-26132,-3225,-29359
1025103,-2.13418,-9.46504,1.29199,-83.3588,10.448,-130.82,3.11279,1.64795,5.7373,0.364532,-0.213684,0.630432,-0.651062,7121,29210,-25876,-3225,-29359
1025109,-2.29209,-9.38369,1.03838,-83.3368,10.5304,-130.82,2.2583,2.92969,6.40869,0.364746,-0.213379,0.630463,-0.651031,14801,31514,-23316,-3225,-29359
1025115,-1.94756,-9.28799,1.1293,-83.3203,10.5688,-130.809,2.19727,1.2207,5.85938,0.36499,-0.213074,0.630493,-0.65097,18897,32282,-21524,-3225,-29359
1025121,-1.93799,-9.30713,1.21064,-83.3148,10.6073,-130.809,1.15967,3.05176,5.18799,0.365265,-0.21286,0.630493,-0.650879,22993,32282,-20500,-3225,-29359
1025127,-2.15811,-9.63252,0.937891,-83.3148,10.6403,-130.809,0.305176,3.05176,4.45557,0.365448,-0.212616,0.630524,-0.650818,26065,32282,-19988,-3225,-29359
1025133,-1.91406,-9.82393,1.07666,-83.3038,10.6787,-130.803,2.44141,2.31934,5.67627,0.365845,-0.212189,0.630615,-0.650665,29137,32538,-20500,-3225,-29359
1025139,-2.11504,-9.60381,1.18672,-83.2819,10.7666,-130.82,2.62451,5.67627,7.32422,0.366058,-0.211853,0.630615,-0.650604,-30511,-32486,-21524,-3225,-29359
1025145,-2.34951,-9.50811,0.923535,-83.2709,10.816,-130.825,2.50244,4.02832,7.8125,0.366272,-0.211456,0.630707,-0.650574,-27695,-32486,-21012,-3225,-29359
1025151,-2.3543,-9.53203,1.18672,-83.2599,10.871,-130.825,2.31934,3.60107,8.91113,0.366516,-0.211121,0.630737,-0.650482,-24879,-32486,-19988,-3225,-29359
1025157,-2.48828,-9.40283,0.799121,-83.2544,10.9149,-130.831,1.95312,4.5166,7.75146,0.366791,-0.210754,0.630798,-0.650391,-22063,-32486,-18196,-3225,-29359
1025163,-2.33516,-9.5416,1.31592,-83.2434,10.9644,-130.831,2.0752,3.35693,7.44629,0.367249,-0.210114,0.630951,-0.650208,-19503,-32230,-16660,-3225,-29359
1025169,-2.42129,-9.65166,1.1915,-83.2214,11.0577,-130.831,2.68555,3.11279,7.87354,0.367493,-0.209747,0.630981,-0.650146,-13871,-30950,-13844,-3225,-29359
1025175,-2.31602,-9.62773,1.10059,-83.205,11.1072,-130.825,3.90625,1.58691,7.93457,0.367767,-0.209412,0.631042,-0.650055,-10543,-30438,-11796,-3225,-29359
1025181,-2.23467,-9.23535,1.40205,-83.1885,11.1566,-130.825,3.66211,3.78418,7.8125,0.368073,-0.209137,0.631012,-0.649994,-6447,-30182,-8980,-3225,-29359
1025187,-2.67012,-9.47939,1.4834,-83.183,11.1951,-130.831,1.09863,4.21143,6.65283,0.368347,-0.208771,0.631012,-0.649963,-3119,-30182,-5652,-3225,-29359
1025193,-2.3208,-9.07744,1.27285,-83.1775,11.2335,-130.825,1.95312,2.92969,4.88281,0.368744,-0.208252,0.631165,-0.64975,-303,-29926,-2836,-3225,-29359
1025199,-2.46436,-9.18272,1.1293,-83.172,11.2994,-130.82,-0.488281,1.64795,4.69971,0.368927,-0.208008,0.631165,-0.649719,3282,-29926,1005,-3225,-29359
1025205,-2.23945,-9.63731,1.34463,-83.1775,11.3324,-130.809,-0.549316,1.15967,4.69971,0.36911,-0.207855,0.631256,-0.649567,5330,-30182,2029,-3225,-29359
1025211,-2.2251,-9.48418,1.34463,-83.172,11.3599,-130.803,0.183105,2.19727,4.63867,0.369324,-0.207733,0.631317,-0.649445,7378,-29926,2797,-3225,-29359
1025217,-2.50742,-9.44111,1.44033,-83.1775,11.3873,-130.803,-0.0610352,2.68555,3.90625,0.369507,-0.20755,0.631378,-0.649323,10194,-29670,2797,-3225,-29359
1025223,-2.67969,-10.1206,0.856543,-83.1775,11.4258,-130.792,0.427246,0.854492,5.61523,0.369873,-0.207245,0.6315,-0.649078,13010,-29926,3565,-3225,-29359
1025229,-2.65576,-9.99141,1.10537,-83.1665,11.5027,-130.776,1.40381,1.89209,7.38525,0.370117,-0.207092,0.631561,-0.648956,18386,-29670,5869,-3225,-29359
1025235,-2.34951,-10.4556,1.22021,-83.161,11.5521,-130.759,1.52588,0.671387,8.48389,0.370392,-0.206818,0.631592,-0.648834,20946,-29670,6893,-3225,-29359
1025241,-2.44043,-10.2881,0.894824,-83.1335,11.6071,-130.737,4.82178,-1.28174,9.52148,0.370728,-0.206573,0.631622,-0.648682,23506,-28902,7149,-3225,-29359
1025247,-2.90937,-9.8957,1.16758,-83.1006,11.6675,-130.721,6.46973,0.671387,10.6812,0.371185,-0.206299,0.631561,-0.64859,26066,-28390,7405,-3225,-29359
1025253,-2.68926,-9.65166,0.650781,-83.0731,11.7334,-130.699,5.43213,0.244141,11.1694,0.372131,-0.205505,0.631409,-0.648438,28370,-27878,7917,-3225,-29359
1025259,-2.82324,-10.0823,1.04316,-83.0072,11.8597,-130.66,7.56836,-1.28174,11.4746,0.372589,-0.205139,0.631378,-0.648346,-30766,-28134,8685,-3225,-29359
1025265,-2.83281,-9.50811,0.976172,-82.9688,11.9202,-130.627,7.01904,-2.50244,10.6812,0.373108,-0.204742,0.631226,-0.648285,-27182,-28902,10477,-3225,-29359
1025271,-2.27295,-9.62295,1.26328,-82.9303,11.9806,-130.594,6.71387,-2.38037,10.6812,0.373657,-0.204437,0.631104,-0.648224,-23854,-29670,10989,-3225,-29359
1025277,-2.64141,-9.37891,0.947461,-82.8973,12.041,-130.573,6.40869,-0.732422,10.8032,0.374176,-0.204132,0.630951,-0.648132,-21038,-30438,12013,-3225,-29359
1025283,-2.66533,-9.72822,0.416309,-82.8699,12.1014,-130.556,6.40869,-2.99072,9.70459,0.375122,-0.2034,0.630798,-0.64798,-18478,-31206,12269,-3225,-29359
1025289,-2.44043,-9.42676,1.26807,-82.7875,12.2003,-130.49,8.97217,-2.92969,9.09424,0.375641,-0.203156,0.630676,-0.647919,-11822,-30694,10989,-3225,-29359
1025295,-2.49307,-9.30713,1.21064,-82.76,12.2607,-130.474,6.28662,0.488281,9.70459,0.376129,-0.20285,0.630463,-0.647919,-7982,-29158,10477,-3225,-29359
1025301,-2.52656,-9.68994,1.29199,-82.7271,12.3102,-130.457,6.5918,-0.427246,9.09424,0.376556,-0.202515,0.630371,-0.647858,-4398,-27622,10989,-3225,-29359
1025307,-2.29209,-9.40283,0.775195,-82.6886,12.3596,-130.435,7.26318,-0.549316,8.36182,0.376984,-0.202179,0.630249,-0.647797,-814,-26086,11501,-3225,-29359
1025313,-2.96201,-9.36934,1.46904,-82.6117,12.4475,-130.391,8.05664,-1.58691,7.8125,0.377777,-0.201599,0.630005,-0.647797,2259,-25062,12013,-3225,-29359
1025319,-2.3208,-9.47939,1.33984,-82.5677,12.4915,-130.369,8.91113,-1.40381,7.8125,0.378204,-0.201324,0.629822,-0.647797,7891,-23270,12781,-3225,-29359
1025325,-2.25859,-9.40762,1.38291,-82.5183,12.5354,-130.347,10.0098,-0.732422,7.26318,0.378632,-0.201019,0.629639,-0.647827,10451,-23270,12781,-3225,-29359
1025331,-2.50742,-9.55596,1.47861,-82.4744,12.5739,-130.331,9.58252,-0.427246,7.26318,0.379028,-0.200714,0.629395,-0.647919,13267,-23014,12525,-3225,-29359
1025337,-2.64141,-9.24492,1.22021,-82.4194,12.6178,-130.314,10.498,0.12207,7.75146,0.379425,-0.200409,0.629181,-0.64798,16083,-23014,13805,-3225,-29359
1025343,-2.60791,-9.3502,1.52168,-82.3151,12.7167,-130.276,10.3149,0.12207,9.27734,0.380249,-0.199677,0.628754,-0.648163,18643,-23270,14829,-3225,-29359
1025349,-2.63184,-9.68994,1.3207,-82.2711,12.7716,-130.265,9.70459,1.34277,9.33838,0.380676,-0.19928,0.62854,-0.648224,25043,-22502,16877,-3225,-29359
1025355,-2.39258,-9.57031,1.06709,-82.2107,12.821,-130.248,11.4746,-0.488281,9.21631,0.381104,-0.198853,0.628357,-0.648285,28627,-22246,16621,-3225,-29359
1025361,-2.47393,-9.63731,0.856543,-82.1613,12.8705,-130.232,10.6812,0.610352,8.36182,0.381561,-0.198456,0.628113,-0.648376,32467,-21734,15341,-3225,-29359
1025367,-3.08643,-9.79521,1.30635,-82.1118,12.9254,-130.215,10.2539,0,9.76562,0.381958,-0.198059,0.627899,-0.648468,-29485,-21990,14317,-3225,-29359
1025373,-3.08164,-9.79043,0.957031,-81.991,13.0408,-130.144,12.146,-3.96729,11.0474,0.382965,-0.197296,0.627441,-0.648529,-26413,-21734,13805,-3225,-29359
1025379,-2.77539,-10.1445,1.02402,-81.925,13.0957,-130.1,12.2681,-4.76074,10.7422,0.383575,-0.19693,0.627136,-0.64859,-20013,-21478,12781,-3225,-29359
1025385,-2.48828,-9.58945,0.727344,-81.8536,13.1506,-130.062,14.1602,-4.15039,10.1929,0.384216,-0.196594,0.626831,-0.648621,-17197,-21222,12781,-3225,-29359
1025391,-2.64619,-9.46025,0.799121,-81.7822,13.2056,-130.023,13.916,-3.72314,9.8877,0.384827,-0.196228,0.626465,-0.648712,-14381,-20710,12781,-3225,-29359
1025397,-2.86631,-9.64688,1.42119,-81.7053,13.2605,-129.979,14.7705,-4.82178,10.9253,0.385406,-0.195862,0.626099,-0.648804,-11565,-20710,12525,-3225,-29359
1025403,-2.56484,-9.20664,1.45469,-81.546,13.3704,-129.886,15.3198,-5.18799,11.2915,0.386719,-0.19519,0.625305,-0.649017,-9005,-20198,11245,-3225,-29359
1025409,-2.41172,-9.14443,1.07666,-81.4856,13.4198,-129.842,11.7798,-4.88281,10.0098,0.38739,-0.194794,0.624908,-0.649109,-3629,-20454,9709,-3225,-29359
1025415,-2.75625,-9.88613,1.48818,-81.4142,13.4802,-129.803,13.3667,-3.72314,11.1084,0.388,-0.194519,0.624603,-0.649139,-1325,-20966,8429,-3225,-29359
1025421,-3.13906,-9.25449,1.47861,-81.3318,13.5406,-129.749,16.1743,-6.46973,12.0239,0.388611,-0.194122,0.624268,-0.6492,980,-20966,7149,-3225,-29359
1025427,-2.97637,-9.47461,1.72266,-81.2494,13.6011,-129.699,15.1978,-6.04248,12.0239,0.389343,-0.193756,0.62381,-0.649323,2772,-20710,5357,-3225,-29359
1025433,-2.71318,-9.02002,1.16758,-81.0846,13.7164,-129.595,15.3809,-6.28662,11.3525,0.390778,-0.192993,0.622986,-0.649475,7892,-19174,493,-3225,-29359
1025439,-2.82324,-9.2832,1.55996,-81.0077,13.7714,-129.551,14.8315,-4.57764,10.5591,0.391479,-0.192657,0.622559,-0.649567,10196,-18662,-1044,-3225,-29359
1025445,-3.08164,-9.47939,1.98105,-80.9308,13.8318,-129.501,14.6484,-6.16455,11.3525,0.39209,-0.192261,0.622192,-0.649658,12756,-18150,-2580,-3225,-29359
1025451,-2.65098,-9.7665,1.97148,-80.8484,13.8867,-129.452,15.4419,-6.46973,11.4746,0.392792,-0.191925,0.621765,-0.649719,15572,-17382,-4116,-3225,-29359
1025457,-2.8376,-9.26885,1.54082,-80.7605,13.9471,-129.397,16.1133,-5.85938,11.6577,0.393494,-0.191559,0.621338,-0.649811,18644,-16614,-5652,-3225,-29359
1025463,-2.91895,-8.90518,2.01455,-80.5902,14.057,-129.298,15.564,-6.71387,11.1084,0.394897,-0.190796,0.620453,-0.650055,25300,-14566,-6676,-3225,-29359
1025469,-2.63184,-9.41719,1.89492,-80.5188,14.1119,-129.254,13.2446,-4.76074,10.9863,0.395599,-0.19046,0.619995,-0.650146,28628,-14310,-5908,-3225,-29359
1025475,-2.96201,-9.4459,1.54082,-80.4364,14.1614,-129.21,16.1743,-4.76074,10.0098,0.39624,-0.190094,0.619659,-0.650208,32212,-14310,-5396,-3225,-29359
1025481,-2.83281,-9.14922,1.95713,-80.343,14.2163,-129.161,16.6016,-5.67627,10.6812,0.396851,-0.189728,0.619202,-0.65036,-29228,-14054,-4372,-3225,-29359
1025487,-2.4835,-9.07744,1.74658,-80.2661,14.2603,-129.111,13.9771,-5.92041,9.58252,0.397522,-0.189331,0.618744,-0.650513,-25644,-13798,-3860,-3225,-29359
1025493,-2.89502,-9.15879,1.9667,-80.1178,14.3591,-129.034,13.6719,-3.90625,9.39941,0.398712,-0.18866,0.61795,-0.650757,-18220,-11750,-4884,-3225,-29359
1025499,-2.51699,-9.49375,1.63174,-80.0519,14.4031,-128.996,11.9019,-4.5166,9.46045,0.399261,-0.188324,0.617554,-0.650848,-15404,-11238,-4628,-3225,-29359
1025505,-2.73232,-9.52725,2.07197,-79.9915,14.4635,-128.969,11.7798,-1.46484,10.5591,0.399841,-0.188019,0.617249,-0.650909,-12844,-10726,-3860,-3225,-29359
1025511,-2.98594,-9.23535,2.44521,-79.953,14.5294,-128.936,7.50732,-2.44141,13.3667,0.40036,-0.187622,0.616974,-0.65097,-9772,-9958,-3860,-3225,-29359
1025517,-2.66533,-9.66123,1.98584,-79.9146,14.6008,-128.908,6.53076,-0.610352,13.6719,0.401459,-0.186798,0.61673,-0.650726,-6700,-9190,-5140,-3225,-29359
1025523,-3.14863,-9.43633,1.52168,-79.8431,14.7382,-128.859,6.04248,-1.34277,12.8784,0.401978,-0.18634,0.616638,-0.650635,-300,-8166,-6164,-3225,-29359
1025529,-3.13428,-9.50811,1.64609,-79.7992,14.8096,-128.831,8.36182,-0.12207,13.7329,0.402496,-0.185944,0.616547,-0.650513,2517,-7654,-4884,-3233,-29358
1025535,-3.07686,-9.14922,1.33984,-79.7607,14.8755,-128.804,6.7749,-1.83105,12.9395,0.403046,-0.185455,0.616425,-0.650421,5333,-6886,-4884,-3233,-29358
1025541,-2.91416,-9.69473,1.69873,-79.7168,14.9469,-128.776,8.42285,-0.732422,13.3057,0.403595,-0.185089,0.616302,-0.650299,8405,-6374,-3604,-3233,-29358
1025547,-2.70361,-9.50332,1.29678,-79.6838,15.0128,-128.743,6.89697,-1.95312,13.3667,0.404694,-0.184265,0.616058,-0.650116,10965,-5862,-4372,-3233,-29358
1025553,-2.79932,-9.66602,1.37334,-79.5959,15.1666,-128.683,7.44629,-0.854492,15.1367,0.405273,-0.183777,0.615936,-0.649994,15573,-6630,-6164,-3233,-29358
1025559,-3.04336,-9.85264,1.88535,-79.5465,15.2545,-128.65,10.1318,-1.46484,17.0288,0.405853,-0.183289,0.615814,-0.649841,17877,-7398,-7700,-3233,-29358
1025565,-2.82324,-8.97695,1.79443,-79.4861,15.3369,-128.611,10.2539,-2.86865,17.0898,0.406525,-0.182739,0.615662,-0.64975,20949,-8678,-7956,-3233,-29358
1025571,-2.69404,-8.73291,2.05283,-79.4366,15.4193,-128.584,9.39941,-0.488281,16.7236,0.407257,-0.18222,0.615448,-0.649658,24789,-9446,-7444,-3233,-29358
1025577,-3.40225,-8.2209,2.47871,-79.3927,15.5072,-128.551,7.75146,-0.793457,17.4561,0.408508,-0.181122,0.615234,-0.649384,28885,-10214,-8212,-3233,-29358
1025583,-2.75625,-9.09658,2.22988,-79.3762,15.6885,-128.507,2.92969,0.854492,17.0288,0.409058,-0.180664,0.615356,-0.649017,-28203,-10470,-9748,-3233,-29358
1025589,-2.76582,-8.88603,1.86143,-79.3707,15.7654,-128.496,0.610352,2.80762,15.625,0.409607,-0.180176,0.615417,-0.648773,-24363,-9958,-11540,-3233,-29358
1025595,-2.89502,-9.2832,1.95234,-79.3652,15.8533,-128.485,1.0376,2.2583,15.9302,0.410065,-0.179718,0.61557,-0.648468,-20779,-9446,-13844,-3233,-29358
1025601,-2.49785,-9.1875,1.82793,-79.3652,15.9302,-128.469,-0.732422,2.19727,15.8691,0.410522,-0.17923,0.615692,-0.648193,-17195,-9190,-16148,-3233,-29358
1025607,-3.1917,-9.93398,2.03369,-79.3707,16.0236,-128.474,-0.0610352,6.04248,17.0898,0.411346,-0.178192,0.616089,-0.647552,-13867,-8934,-18196,-3233,-29358
1025613,-3.11992,-9.41719,1.85186,-79.3488,16.2103,-128.441,3.2959,1.89209,18.5547,0.411865,-0.177673,0.616272,-0.647247,-7467,-9190,-22292,-3233,-29358
1025619,-3.57451,-8.77119,1.82793,-79.3378,16.3147,-128.436,2.56348,4.3335,19.165,0.412415,-0.177094,0.616333,-0.646973,-4395,-9190,-22804,-3233,-29358
1025625,-3.65586,-9.48418,1.60781,-79.3323,16.4081,-128.419,0,1.64795,19.104,0.412933,-0.176453,0.616486,-0.646667,-811,-8934,-23060,-3233,-29358
1025631,-3.5123,-9.60381,1.65088,-79.3213,16.5179,-128.397,2.13623,1.64795,20.4468,0.413483,-0.175934,0.616638,-0.646301,3286,-8678,-22292,-3233,-29358
1025637,-3.34961,-9.85264,1.31113,-79.3103,16.6168,-128.375,1.46484,1.34277,20.0195,0.414093,-0.175323,0.61676,-0.645966,6870,-8422,-22292,-3233,-29358
1025643,-3.00508,-9.90527,1.75615,-79.2554,16.8475,-128.32,5.12695,-0.427246,23.3765,0.415375,-0.174103,0.616974,-0.645294,13782,-7910,-20244,-3233,-29358
1025649,-2.79932,-9.60381,1.76094,-79.2334,16.9629,-128.293,4.08936,1.70898,23.5596,0.416138,-0.173431,0.617004,-0.644958,17110,-7398,-20500,-3233,-29358
1025655,-3.47402,-10.1924,1.91885,-79.2114,17.0947,-128.282,3.84521,3.72314,25.6958,0.41684,-0.172699,0.617065,-0.644592,20694,-6886,-20244,-3233,-29358
1025661,-3.49316,-10.0249,1.78008,-79.1785,17.2266,-128.243,5.00488,0.244141,27.0386,0.417542,-0.171906,0.617218,-0.644226,24534,-6118,-19732,-3233,-29358
1025667,-3.16777,-9.73301,1.82793,-79.1455,17.3694,-128.21,5.85938,0.854492,28.1372,0.418396,-0.171112,0.617279,-0.643829,28118,-5094,-19476,-3233,-29358
1025673,-3.54102,-9.69951,1.90449,-79.0961,17.666,-128.15,3.66211,-0.12207,30.7007,0.420074,-0.169373,0.617493,-0.643005,-28970,-3558,-18708,-3233,-29358
1025679,-3.22998,-9.07266,2.46436,-79.0576,17.8253,-128.101,4.39453,-1.83105,32.8369,0.421021,-0.168518,0.617615,-0.642487,-24618,-2790,-18196,-3233,-29358
1025685,-2.93809,-10.3216,2.27295,-79.0576,17.9901,-128.079,-0.0610352,4.57764,32.7759,0.422058,-0.167664,0.617676,-0.641968,-20266,-1510,-17940,-3233,-29358
1025691,-3.58887,-10.2929,1.6126,-79.0356,18.1549,-128.051,3.54004,2.62451,33.8135,0.422913,-0.166718,0.617981,-0.641357,-16170,-742,-17684,-3233,-29358
1025697,-3.21563,-10.1158,1.94277,-79.0027,18.3307,-128.002,3.78418,-0.732422,35.8887,0.423859,-0.16571,0.618164,-0.640808,-12074,283,-18196,-3233,-29358
1025703,-3.8377,-10.1015,1.89014,-78.9532,18.7042,-127.941,3.2959,3.41797,39.1235,0.425964,-0.163666,0.6185,-0.639618,-3626,3355,-18196,-3233,-29358
1025709,-3.61758,-10.1732,1.97148,-78.9203,18.9075,-127.892,4.3335,0.427246,41.2598,0.427032,-0.162506,0.618744,-0.638977,1495,4379,-17940,-3233,-29358
1025715,-3.54102,-10.044,1.95234,-78.8873,19.1162,-127.853,4.5166,2.38037,42.9077,0.428223,-0.161377,0.618896,-0.638306,6615,5147,-17940,-3233,-29358
1025721,-4.17744,-10.2115,1.77529,-78.8654,19.3359,-127.82,3.96729,4.39453,45.105,0.429413,-0.160156,0.61911,-0.637604,11991,5403,-18964,-3233,-29358
1025727,-3.76592,-9.84785,1.43076,-78.8379,19.5612,-127.766,2.68555,0.12207,45.7764,0.430603,-0.158813,0.619385,-0.636871,17879,5659,-20756,-3233,-29358
1025733,-3.5793,-10.3072,1.97148,-78.739,20.0446,-127.656,7.26318,2.01416,51.4526,0.43338,-0.156219,0.619751,-0.635254,29911,5147,-22036,-3233,-29358
1025739,-3.78027,-10.3359,2.00498,-78.6896,20.3027,-127.595,7.20215,1.2207,53.772,0.434814,-0.154724,0.619934,-0.63446,-29225,5147,-22804,-3233,-29358
1025745,-3.47881,-10.202,1.98105,-78.6401,20.5719,-127.524,6.22559,-0.305176,55.9692,0.43634,-0.153198,0.620087,-0.633636,-21801,5659,-23316,-3233,-29358
1025751,-3.57451,-10.3934,2.04805,-78.5962,20.8575,-127.474,5.7373,3.23486,58.8989,0.437958,-0.151672,0.62027,-0.632721,-14377,6427,-23572,-3233,-29358
1025757,-3.84248,-10.5034,1.62217,-78.5687,21.1432,-127.425,2.99072,4.82178,59.7534,0.441101,-0.148285,0.620941,-0.630676,-6697,6683,-24852,-3233,-29358
1025763,-3.82334,-10.9197,1.65088,-78.4479,21.7859,-127.167,9.0332,1.09863,69.2749,0.443207,-0.146759,0.621124,-0.629395,8152,7707,-28436,-3233,-29358
1025769,-4.45498,-10.5848,2.02891,-78.3875,22.132,-127.068,9.0332,7.38525,71.2891,0.445435,-0.145081,0.621246,-0.628082,16088,8731,-30484,-3233,-29358
1025775,-4.61289,-10.0871,2.15332,-78.3051,22.489,-126.903,9.52148,-3.84521,75.9277,0.44754,-0.143188,0.62149,-0.62677,24024,9499,-31764,-3233,-29358
1025781,-3.14863,-10.3168,2.0624,-78.2556,22.8571,-126.771,4.3335,2.80762,76.0498,0.450073,-0.141449,0.621552,-0.625305,32472,10779,-31764,-3233,-29358
1025787,-4.13916,-10.8479,1.84707,-78.2172,23.2361,-126.678,5.43213,9.39941,78.7964,0.454559,-0.137543,0.622284,-0.622192,-24616,11803,-31252,-3233,-29358
1025793,-3.96689,-10.7762,2.04326,-78.0908,24.0216,-126.381,8.05664,-0.366211,84.2285,0.457001,-0.13559,0.62262,-0.620483,-6952,13083,-29716,-3233,-29358
1025799,-4.04824,-11.4126,2.26338,-78.0249,24.4336,-126.255,8.30078,5.61523,86.0596,0.459564,-0.133575,0.622803,-0.618835,2009,14619,-29460,-3233,-29358
1025805,-4.22051,-10.9676,2.0959,-77.9425,24.8621,-126.107,9.33838,2.2583,90.9424,0.462036,-0.131348,0.623108,-0.617157,11993,15899,-27668,-3233,-29358
1025811,-3.99082,-11.0489,2.33037,-77.8656,25.307,-125.953,7.50732,2.50244,93.6279,0.464722,-0.129059,0.623322,-0.615417,23001,17179,-26644,-3233,-29358
1025817,-4.26836,-10.69,2.22988,-77.7667,25.7739,-125.788,10.7422,2.01416,98.938,0.470306,-0.124237,0.62381,-0.611664,-31015,17947,-26388,-3233,-29358
1025823,-4.57461,-11.3887,1.89971,-77.5964,26.7352,-125.486,11.3525,1.40381,103.699,0.473022,-0.121582,0.624237,-0.60965,-7207,19227,-28948,-3233,-29358
1025829,-3.40703,-11.1303,2.21074,-77.4866,27.2406,-125.31,10.9863,1.34277,107.361,0.476013,-0.118958,0.62442,-0.607666,5338,19995,-30996,-3233,-29358
1025835,-4.26357,-10.8145,2.63184,-77.3712,27.7679,-125.151,14.0381,6.10352,111.572,0.479065,-0.116211,0.624634,-0.60556,17882,20251,30956,-3233,-29358
1025841,-4.33535,-11.5562,1.64609,-77.2888,28.3008,-125.008,8.72803,8.8501,113.159,0.482086,-0.11319,0.624847,-0.603516,30682,21019,27628,-3233,-29358
1025847,-3.76113,-11.6949,2.04805,-77.168,28.8501,-124.832,12.7563,5.12695,117.92,0.48822,-0.107025,0.625519,-0.598999,-21286,21275,24044,-3233,-29358
1025853,-4.29707,-11.738,1.98105,-76.9592,30.0201,-124.53,12.146,10.2539,125.916,0.491302,-0.103668,0.625916,-0.596649,6107,20763,16364,-3233,-29358
1025859,-3.49316,-11.427,1.61738,-76.8494,30.6189,-124.371,11.9019,10.8032,127.869,0.494507,-0.10022,0.626282,-0.594208,19931,20507,12780,-3233,-29358
1025865,-4.05303,-11.9342,1.79922,-76.7285,31.2451,-124.211,13.7329,11.8408,133.545,0.497681,-0.0967102,0.626678,-0.591705,-30757,20251,9452,-3233,-29358
1025871,-4.82822,-11.269,1.41162,-76.6077,31.8933,-124.058,14.2212,14.7705,137.817,0.500977,-0.0929565,0.627045,-0.589142,-15141,20507,6892,-3233,-29358
1025877,-5.23975,-11.8385,2.08633,-76.4813,32.5635,-123.887,12.5122,12.207,142.273,0.50769,-0.085083,0.627869,-0.583649,1244,20507,3308,-3233,-29358
1025883,-5.52686,-13.1353,1.36377,-76.1957,33.9532,-123.503,12.3291,13.3057,150.452,0.511353,-0.0810547,0.628143,-0.58075,-31524,20507,-277,-3233,-29358
1025889,-5.08184,-13.5898,1.59346,-76.0089,34.6729,-123.272,18.4326,6.7749,155.823,0.514893,-0.0768738,0.628601,-0.577698,-14884,19739,-1301,-3233,-29358
1025895,-4.87607,-13.6377,1.43555,-75.8112,35.4199,-123.041,19.2261,9.09424,161.56,0.518738,-0.0725708,0.628723,-0.574646,2525,18715,-1813,-3233,-29358
1025901,-5.6082,-13.8147,1.42598,-75.6024,36.1945,-122.816,21.9727,11.2915,167.236,0.522644,-0.0680542,0.628876,-0.571503,20957,16667,-2581,-3233,-29358
1025907,-6.17764,-14.3076,1.42598,-75.3607,37.0074,-122.547,23.7427,6.95801,176.453,0.530823,-0.0582886,0.628998,-0.56488,-24867,14619,-5397,-3233,-29358
1025913,-5.17754,-13.1927,2.91416,-74.7894,38.7323,-121.937,25.0244,7.44629,191.467,0.535278,-0.0531006,0.628845,-0.56134,16606,9243,-13333,-3233,-29358
1025919,-5.26846,-13.4559,3.34961,-74.4983,39.6387,-121.613,24.5361,7.99561,198.73,0.539764,-0.047699,0.628784,-0.557556,-27170,6171,-19221,-3233,-29358
1025925,-5.45986,-14.3076,3.11035,-74.2017,40.589,-121.289,24.7192,11.6577,205.994,0.544403,-0.0420837,0.628723,-0.553589,-6434,3611,-25109,-3233,-29358
1025931,-5.87617,-14.4272,2.60313,-73.8666,41.5723,-120.943,28.6865,11.9019,214.783,0.549042,-0.0362244,0.628723,-0.549408,14815,27,-30741,-3233,-29358
1025937,-5.7709,-14.3842,2.43564,-73.4821,42.5885,-120.564,32.7759,10.9253,222.473,0.553802,-0.0299988,0.628601,-0.545105,-28449,-4070,27883,-3233,-29358
1025943,-5.82832,-12.5419,1.55996,-72.6086,44.7034,-119.745,35.8887,13.9771,235.291,0.563782,-0.0166931,0.627808,-0.536285,18912,-12774,12779,-3233,-29358
1025949,-5.56514,-11.8624,1.55518,-72.1417,45.8075,-119.284,34.8511,11.5967,242.92,0.568817,-0.00973511,0.627441,-0.531586,-21536,-17638,4587,-3233,-29358
1025955,-6.36904,-9.52725,1.58389,-71.7352,46.9391,-118.834,23.2544,17.8833,249.207,0.573975,-0.00265503,0.626984,-0.526611,2273,-23014,-2582,-3233,-29358
1025961,-8.39316,-9.80479,1.67959,-71.4221,48.0872,-118.356,-0.183105,18.1274,252.38,0.579071,0.00439453,0.626892,-0.521149,27105,-28646,-10006,-3233,-29358
1025967,-7.45049,-13.3171,1.66045,-71.076,49.2352,-117.768,-11.2915,6.04248,256.348,0.584137,0.0109863,0.627258,-0.514893,-12319,30490,-17174,-3233,-29358
1025973,-6.66094,-15.5948,2.3543,-70.1752,51.5643,-116.537,5.67627,10.498,263.306,0.59491,0.0236206,0.627533,-0.501617,-23838,14362,30698,-3233,-29358
1025979,-7.04375,-15.3221,2.17246,-69.6039,52.7509,-115.818,8.48389,3.84521,270.02,0.600128,0.0304565,0.627411,-0.495117,4323,5146,21994,-3233,-29358
1025985,-6.60352,-14.3507,1.88535,-68.9667,53.9429,-115.032,7.87354,1.70898,274.475,0.605591,0.037384,0.626953,-0.488495,-31261,-5607,13290,-3233,-29358
1025991,-7.02939,-13.3027,1.39727,-68.3185,55.1514,-114.203,2.01416,2.99072,278.687,0.611115,0.0443726,0.626404,-0.48172,-2333,-16103,5354,-3233,-29358
1025997,-7.00547,-13.1209,1.08623,-67.5989,56.3654,-113.269,-3.479,-2.19727,282.837,0.616608,0.0513306,0.625916,-0.47464,27108,-27879,-2327,-3233,-29358
1026003,-6.67529,-12.9534,0.564648,-65.9674,58.7878,-111.165,-8.60596,-5.67627,288.879,0.627838,0.0648193,0.624695,-0.459595,23013,10521,-15127,-3233,-29358
1026009,-6.34033,-12.8051,0.263184,-64.9896,59.9908,-109.94,-8.23975,-10.8643,292.114,0.633484,0.0715332,0.623962,-0.451813,-11547,-4328,-21527,-3233,-29358
1026015,-5.42158,-12.1399,0.0813477,-63.8635,61.1829,-108.578,-6.53076,-15.9912,295.471,0.63916,0.0782166,0.623016,-0.443939,19686,-19688,-26903,-3233,-29358
1026021,-4.26357,-10.9341,-0.488086,-62.6111,62.3529,-107.089,-4.88281,-19.043,294.678,0.644958,0.0849304,0.621765,-0.436005,-15642,30744,32745,-3233,-29358
1026027,-4.39756,-9.79043,-0.244043,-61.2927,63.479,-105.54,-5.7373,-17.8223,289.185,0.650665,0.0915833,0.620361,-0.428101,14055,15384,27113,-3233,-29358
1026033,-5.07227,-9.99141,-0.980957,-58.3429,65.5664,-102.09,-11.5356,-27.4048,277.527,0.661407,0.104218,0.617523,-0.412567,9192,-18665,14569,-3233,-29358
1026039,-3.55537,-8.56065,-2.09111,-56.5906,66.5112,-100.129,-3.2959,-33.9355,271.301,0.666718,0.110016,0.615875,-0.404907,-25624,27927,6377,-3233,-29358
1026045,-3.56494,-5.56992,-2.58877,-54.6954,67.3737,-98.0804,8.60596,-36.5601,260.315,0.671936,0.115753,0.613861,-0.397675,5353,7703,-1816,-3233,-29358
1026051,-4.7708,-3.58887,-1.97627,-52.7014,68.1482,-95.9985,19.2871,-37.5977,244.934,0.67688,0.12149,0.611603,-0.391052,-29207,-13802,-9752,-3233,-29358
1026057,0.358887,0.435449,-3.88076,-50.4492,68.736,-93.7024,28.3813,-63.3545,224.304,0.681427,0.127075,0.609131,-0.385162,-279,30998,-17688,-3233,-29358
1026063,3.24912,22.2079,-2.52178,-46.5875,69.2853,-89.9341,38.4521,-62.6221,123.047,0.690613,0.13623,0.602142,-0.376587,-7446,-11243,29928,-3233,-29358
1026069,0.885254,21.2605,-1.47861,-46.0876,69.0436,-89.22,-27.0386,-76.5381,26.001,0.693451,0.138763,0.599304,-0.374908,20459,-31979,19176,-3233,-29358
1026075,2.28252,9.75215,-1.24414,-46.4832,68.4888,-89.3134,-56.0913,-78.9795,-59.8755,0.695496,0.136627,0.597748,-0.374451,-19477,13333,7656,-3233,-29358
1026081,0.846973,3.5458,-0.837402,-47.5104,67.6868,-90.011,-69.5801,-78.7964,-128.052,0.69635,0.131348,0.597076,-0.375854,3308,-4844,-4121,-3233,-29358
1026087,4.74688,-2.66055,-0.851758,-48.8397,66.6376,-90.9723,-83.374,-93.0176,-182.678,0.695312,0.114441,0.596985,-0.383331,22508,-20716,-15641,-3233,-29358
1026093,6.17285,-6.14414,-1.63652,-52.1356,64.0887,-93.5211,-92.041,-87.0972,-251.892,0.693756,0.103546,0.597321,-0.388702,-14100,21012,30183,-3233,-29358
1026099,6.4791,-8.66113,-2.32559,-53.7396,62.6825,-94.845,-79.5898,-86.3037,-267.639,0.691406,0.092041,0.597839,-0.394897,-5396,14868,20711,-3216,-29360
1026105,6.23984,-10.2354,-1.80879,-55.1953,61.2323,-96.1139,-61.5845,-83.9233,-275.696,0.688538,0.0804749,0.598175,-0.401886,-1044,12052,12007,-3216,-29360
1026111,5.0292,-10.9771,-1.44033,-56.4587,59.7711,-97.3004,-41.2598,-81.3599,-276.611,0.685211,0.0692444,0.598206,-0.409546,-1044,13588,3303,-3216,-29360
1026117,4.40234,-10.8958,-0.13877,-58.3978,56.8872,-99.2834,-13.3667,-80.4443,-262.817,0.677856,0.0485229,0.597107,-0.426025,-4628,17940,-3354,-3216,-29360
1026123,3.88555,-9.61338,-0.062207,-59.1504,55.5029,-100.135,-4.3335,-77.4536,-252.625,0.674042,0.039032,0.596069,-0.434387,-19476,32532,-15642,-3216,-29360
1026129,3.35918,-7.65146,-0.684277,-59.8096,54.1516,-100.915,1.83105,-74.7681,-245.178,0.670227,0.0301514,0.594849,-0.442596,-30484,-23788,-20506,-3216,-29360
1026135,2.95244,-5.29717,-1.24414,-60.3973,52.8223,-101.656,8.36182,-71.4722,-242.126,0.666351,0.0216675,0.593506,-0.450684,21484,-13292,-24858,-3216,-29360
1026141,3.17256,-2.78018,-1.23936,-60.9576,51.4874,-102.382,8.48389,-69.397,-242.859,0.658142,0.00537109,0.590607,-0.466766,6380,-1516,-28954,-3216,-29360
1026147,4.69902,-0.971387,-0.430664,-62.2101,48.8177,-103.848,-11.5356,-57.0679,-247.314,0.653687,-0.00296021,0.589355,-0.474579,-29461,26901,27110,-3216,-29360
1026153,4.40713,-0.952246,-0.555078,-62.9626,47.4994,-104.628,-26.4893,-46.7529,-248.901,0.648865,-0.0115356,0.588531,-0.482056,14571,-23019,22246,-3216,-29360
1026159,3.40703,-1.32549,-0.851758,-63.8031,46.181,-105.425,-43.335,-39.0625,-250.671,0.643585,-0.0203857,0.588226,-0.489136,-6678,-7659,17126,-3216,-29360
1026165,2.55527,-2.10068,-1.18672,-64.6985,44.8627,-106.21,-59.4482,-34.0576,-251.282,0.637939,-0.0295715,0.58844,-0.495758,-29206,7958,13030,-3216,-29360
1026171,2.1916,-3.1582,-1.1915,-65.6543,43.5443,-106.979,-74.1577,-29.1138,-252.197,0.625854,-0.0489807,0.590057,-0.507568,11754,23574,9958,-3216,-29360
1026177,1.79922,-5.10576,-0.861328,-67.6318,40.8966,-108.452,-93.8721,-22.2778,-254.395,0.619415,-0.0590515,0.591309,-0.512878,24553,-9450,8166,-3216,-29360
1026183,1.53604,-6.01016,-0.47373,-68.6371,39.5563,-109.166,-100.037,-17.334,-257.874,0.612793,-0.0693054,0.592743,-0.517914,-3608,7959,8934,-3216,-29360
1026189,1.26328,-6.96719,-0.191406,-69.6204,38.194,-109.847,-101.99,-15.1367,-261.292,0.605835,-0.0796814,0.594299,-0.522797,-30744,25111,10470,-3216,-29360
1026195,1.15801,-7.79502,0.215332,-70.5872,36.8262,-110.517,-102.6,-10.6812,-264.221,0.598663,-0.0900879,0.595825,-0.527588,6632,-22505,13030,-3216,-29360
1026201,-0.311035,-8.89561,0.62207,-71.5155,35.4419,-111.165,-101.44,-7.75146,-267.212,0.583588,-0.110809,0.598785,-0.537109,-23065,-3817,17126,-3216,-29360
1026207,-1.01924,-9.24971,0.846973,-73.2678,32.6129,-112.352,-101.013,-6.95801,-275.33,0.575806,-0.121155,0.600067,-0.54184,-20506,-31976,29414,-3216,-29360
1026213,-1.44033,-9.72822,0.957031,-74.0973,31.1682,-112.89,-101.501,-6.22559,-278.687,0.567871,-0.131561,0.601166,-0.546539,12262,-13544,-28442,-3216,-29360
1026219,-2.13896,-10.2642,1.09102,-74.8883,29.7125,-113.39,-102.234,-7.38525,-281.067,0.559784,-0.142029,0.602142,-0.551178,-21787,4121,-19226,-3208,-29361
1026225,-2.52656,-10.8575,1.45947,-75.6573,28.2623,-113.84,-103.882,-8.60596,-280.762,0.551636,-0.152527,0.602936,-0.555695,10725,21529,-10010,-3208,-29361
1026231,-3.61279,-12.3361,1.92363,-76.4044,26.8176,-114.247,-106.201,-9.21631,-278.564,0.535339,-0.173462,0.604156,-0.564087,-23324,-26599,743,-3208,-29361
1026237,-4.12959,-12.9486,2.09111,-77.8326,24.0161,-114.944,-107.544,-9.33838,-268.372,0.527283,-0.183777,0.604675,-0.567841,-29981,6682,26343,-3208,-29361
1026243,-4.25879,-13.3937,2.33516,-78.4918,22.6703,-115.225,-106.323,-10.9863,-260.742,0.519379,-0.193848,0.605072,-0.57135,-1566,22298,-23577,-3208,-29361
1026249,-4.20615,-13.676,2.47871,-79.129,21.3629,-115.477,-104.919,-9.8877,-254.883,0.511719,-0.203674,0.605347,-0.574554,28386,-28390,-8217,-3208,-29361
1026255,-4.23965,-13.8626,2.41172,-79.7333,20.0885,-115.708,-102.051,-8.60596,-248.169,0.50415,-0.213257,0.60553,-0.577545,-7967,-14566,7912,-3208,-29361
1026261,-4.53154,-13.475,2.55527,-80.3101,18.847,-115.906,-98.877,-8.8501,-242.737,0.489532,-0.231415,0.605621,-0.583008,20193,-2022,25320,-3208,-29361
1026267,-4.51719,-13.6329,2.59834,-81.4142,16.4575,-116.246,-98.3887,-7.50732,-232.3,0.482422,-0.240173,0.60553,-0.58551,7392,21019,-6424,-3208,-29361
1026273,-4.43584,-14.2215,2.68447,-81.958,15.3149,-116.395,-99.0601,-5.7373,-226.379,0.475433,-0.248688,0.605408,-0.587769,31967,31259,10217,-3208,-29361
1026279,-4.47891,-14.8627,2.78018,-82.4908,14.2108,-116.537,-99.1211,-2.92969,-218.689,0.468506,-0.256958,0.605347,-0.589813,-6946,-25061,26601,-3208,-29361
1026285,-4.55068,-15.4561,2.82324,-83.0127,13.1671,-116.68,-97.4121,0,-208.496,0.461731,-0.264923,0.605347,-0.591644,19166,-16357,-22551,-3208,-29361
