TimeSinceCollection,Timestamp,AngularVelX,AngularVelY,AngularVelZ,AngleRoll,AnglePitch,AngleYaw,AccX,AccY,AccZ,Q1,Q2,Q3,Q4,MagX,MagY,MagZ,Height,Airpressure
0,452593,6.5918,-12.085,-9.0332,-77.58,-18.468,-107.737,2.62705,-10.3694,1.01445,0.372711,-0.465454,0.425873,-0.68042,-126.625,52.8667,-54.4083,-10322,-28501
6,452599,8.48389,-6.16455,-12.3901,-77.5525,-18.5339,-107.787,2.79932,-10.623,0.215332,0.372375,-0.465607,0.425629,-0.680634,-126.633,52.825,-54.4167,-10322,-28501
12,452605,12.4512,-8.8501,-16.5405,-77.5085,-18.6163,-107.831,2.56484,-11.0106,0.933105,0.371857,-0.465637,0.425385,-0.68103,-126.625,52.7833,-54.425,-10322,-28501
18,452611,16.0522,-5.92041,-21.7285,-77.4426,-18.7207,-107.897,3.59365,-10.9532,0.966602,0.371368,-0.465759,0.424927,-0.681519,-126.625,52.725,-54.4333,-10322,-28501
24,452617,23.0713,5.7373,-33.4473,-77.3383,-18.847,-108.012,4.8043,-9.19707,1.6748,0.369843,-0.465668,0.423553,-0.683258,-126.633,52.675,-54.45,-10322,-28501
30,452623,14.4653,16.2354,-36.3159,-77.113,-19.1547,-108.342,5.93359,-6.45039,1.5791,0.368774,-0.465515,0.422668,-0.684509,-126.725,52.5667,-54.5,-10322,-28501
36,452629,-3.96729,35.4004,-36.0718,-77.0691,-19.292,-108.638,6.37383,-4.9957,1.03359,0.367218,-0.46524,0.422119,-0.685852,-126.775,52.4917,-54.5917,-10322,-28501
42,452635,-21.7285,49.3164,-34.729,-77.0911,-19.4073,-109.001,6.06758,-5.26367,0.995313,0.36496,-0.464691,0.422424,-0.687256,-126.833,52.4167,-54.6583,-10322,-28501
48,452641,-35.7056,66.1621,-33.5693,-77.157,-19.5062,-109.451,6.31641,-5.94316,0.468945,0.362091,-0.463989,0.423492,-0.688568,-126.883,52.35,-54.7083,-10322,-28501
54,452647,-59.7534,99.5483,-40.4663,-77.3822,-19.693,-110.638,4.83779,-8.34053,0.00957031,0.354401,-0.46167,0.427673,-0.691528,-126.942,52.2833,-54.7583,-10322,-28501
60,452653,-65.0024,112.793,-45.0439,-77.5085,-19.7974,-111.341,5.13447,-8.7999,-0.200977,0.349609,-0.460175,0.430511,-0.693207,-127.033,52.0583,-54.8583,-10322,-28501
66,452659,-69.7632,121.033,-46.2646,-77.6404,-19.9017,-112.094,5.23018,-8.7999,-0.172266,0.344299,-0.458466,0.433624,-0.695068,-127.067,51.9583,-54.9333,-10322,-28501
72,452665,-73.3032,134.705,-46.2646,-77.7722,-19.9951,-112.912,5.04834,-9.00566,-0.133984,0.338684,-0.456543,0.436951,-0.697021,-127.117,51.8417,-55.0333,-10322,-28501
78,452671,-76.9043,143.25,-44.6777,-77.9041,-20.072,-113.774,4.18701,-8.79033,-0.0334961,0.332703,-0.454254,0.440582,-0.699097,-127.15,51.7083,-55.2083,-10322,-28501
84,452677,-83.9844,151.794,-40.8936,-78.1952,-20.1929,-115.56,2.95723,-8.66592,0.468945,0.32019,-0.448975,0.448486,-0.703308,-127.167,51.5833,-55.4,-10322,-28501
90,452683,-87.5244,155.151,-39.6729,-78.3545,-20.2368,-116.477,2.47393,-9.12051,0.349316,0.313782,-0.446106,0.452698,-0.705322,-127.258,51.3917,-55.8333,-10322,-28501
96,452689,-88.0127,152.71,-38.5742,-78.5248,-20.2753,-117.383,1.94756,-9.72822,1.20586,0.307281,-0.443146,0.457092,-0.707245,-127.283,51.2667,-56.1,-10322,-28501
102,452695,-87.9517,153.076,-38.5132,-78.6896,-20.3192,-118.29,2.20596,-10.2498,0.947461,0.300812,-0.440155,0.461426,-0.709045,-127.317,51.1667,-56.3667,-10322,-28501
108,452701,-86.6089,155.029,-38.3911,-78.8434,-20.3577,-119.207,1.78008,-10.4221,1.18672,0.294342,-0.437134,0.465729,-0.710785,-127.317,51.0583,-56.6167,-10322,-28501
114,452707,-80.8716,151.733,-39.856,-79.1071,-20.4565,-121.025,1.67959,-10.4316,1.30635,0.281372,-0.430786,0.474152,-0.714355,-127.3,50.9583,-56.8583,-10314,-28502
120,452713,-79.1626,154.114,-40.1001,-79.2224,-20.5005,-121.937,1.67002,-10.1445,1.03838,0.274994,-0.427612,0.478119,-0.716095,-127.233,50.725,-57.4833,-10314,-28502
126,452719,-78.0029,149.536,-38.8184,-79.3378,-20.5444,-122.827,1.22979,-9.73779,1.2585,0.268616,-0.424316,0.482025,-0.717865,-127.175,50.6333,-57.775,-10314,-28502
132,452725,-77.6978,146.851,-36.5601,-79.4531,-20.5829,-123.701,1.1293,-9.65645,1.1293,0.26239,-0.421082,0.48584,-0.719513,-127.125,50.5417,-58.1167,-10314,-28502
138,452731,-77.5146,141.052,-33.8135,-79.5795,-20.6104,-124.536,0.669922,-9.63252,1.17715,0.256287,-0.417816,0.489624,-0.721039,-127.058,50.425,-58.5083,-10314,-28502
144,452737,-75.3174,127.563,-26.3672,-79.8541,-20.6323,-126.101,0.727344,-10.0728,1.01445,0.24472,-0.41156,0.497009,-0.723572,-127,50.3167,-58.875,-10314,-28502
150,452743,-72.876,118.896,-22.583,-80.0024,-20.6213,-126.81,1.01445,-10.135,0.799121,0.23941,-0.408569,0.50061,-0.724579,-126.925,50.1083,-59.7083,-10314,-28502
156,452749,-69.9463,113.525,-19.3481,-80.1453,-20.6049,-127.491,1.10059,-10.1732,0.818262,0.234436,-0.405701,0.504089,-0.725403,-126.867,49.9917,-60.15,-10314,-28502
162,452755,-67.1997,104.919,-17.2119,-80.2881,-20.5829,-128.123,0.971387,-10.111,1.03359,0.229736,-0.402893,0.507477,-0.726105,-126.833,49.9167,-60.5583,-10314,-28502
168,452761,-63.9038,96.0693,-15.5029,-80.4309,-20.5554,-128.705,1.54561,-9.86699,1.09102,0.225372,-0.400238,0.510681,-0.726685,-126.792,49.875,-60.925,-10314,-28502
174,452767,-58.7769,85.2051,-13.6108,-80.7111,-20.5115,-129.787,2.12939,-9.36455,1.50254,0.217377,-0.395416,0.516632,-0.72757,-126.633,49.8167,-61.6333,-10314,-28502
180,452773,-56.3965,79.5288,-12.8784,-80.8484,-20.495,-130.281,2.77539,-8.93389,1.60781,0.213715,-0.393188,0.519409,-0.727905,-126.567,49.8167,-62.0083,-10314,-28502
186,452779,-54.3823,77.0874,-12.5122,-80.9747,-20.473,-130.759,3.07686,-8.57022,1.78486,0.210205,-0.391083,0.522034,-0.72818,-126.483,49.8417,-62.3583,-10314,-28502
192,452785,-53.4058,73.9136,-11.9019,-81.1066,-20.462,-131.226,3.2252,-8.33574,2.00977,0.206818,-0.389038,0.524536,-0.728424,-126.392,49.8667,-62.7,-10314,-28502
198,452791,-51.9409,70.3125,-11.4746,-81.2329,-20.4456,-131.666,3.55059,-8.02949,2.15332,0.203522,-0.387054,0.526978,-0.728638,-126.275,49.8583,-63.0417,-10314,-28502
204,452797,-50.7202,68.8477,-11.8408,-81.4801,-20.4291,-132.539,3.8999,-7.75674,2.34473,0.197205,-0.383301,0.531647,-0.728973,-126.067,49.8667,-63.6417,-10314,-28502
210,452803,-50.2319,68.9697,-13.1226,-81.601,-20.4346,-132.979,4.1583,-7.54619,2.43564,0.194031,-0.38147,0.533905,-0.729156,-125.95,49.8583,-63.875,-10314,-28502
216,452809,-50.293,68.4204,-13.9771,-81.7163,-20.4456,-133.412,4.31143,-7.23516,2.51221,0.190857,-0.379669,0.536072,-0.72934,-125.842,49.85,-64.1333,-10305,-28503
222,452815,-50.5981,67.9321,-15.1367,-81.8372,-20.4675,-133.841,4.71816,-6.91455,2.68447,0.187653,-0.377869,0.538239,-0.729523,-125.733,49.85,-64.375,-10305,-28503
228,452821,-51.3306,68.6646,-15.686,-81.9525,-20.495,-134.275,5.14404,-6.57959,2.6749,0.184387,-0.37616,0.540344,-0.729675,-125.65,49.85,-64.575,-10305,-28503
234,452827,-52.002,67.627,-17.0288,-82.1997,-20.5664,-135.143,5.39287,-6.23506,2.56963,0.177734,-0.372742,0.544525,-0.72998,-125.517,49.8667,-64.9667,-10305,-28503
240,452833,-51.8188,65.1855,-18.2495,-82.3206,-20.6158,-135.56,5.19668,-5.88574,2.49307,0.174377,-0.371094,0.546539,-0.730103,-125.442,49.8917,-65.1167,-10305,-28503
246,452839,-51.1475,61.7065,-19.165,-82.4469,-20.6763,-135.961,5.01006,-5.67041,2.55527,0.171021,-0.369568,0.548492,-0.730194,-125.358,49.925,-65.2333,-10305,-28503
252,452845,-50.4761,57.1289,-19.4702,-82.5732,-20.7477,-136.335,4.82822,-5.47422,2.5457,0.167725,-0.368195,0.550354,-0.730255,-125.275,49.95,-65.3583,-10305,-28503
258,452851,-49.8047,50.5981,-18.6157,-82.7051,-20.8191,-136.675,4.76123,-5.38809,2.75625,0.164551,-0.366943,0.552155,-0.730255,-125.183,49.95,-65.5083,-10305,-28503
264,452857,-46.6919,36.1328,-13.7329,-82.9907,-20.9454,-137.236,4.58896,-5.6417,3.17256,0.158752,-0.365021,0.555481,-0.72998,-125.017,50.0083,-65.8,-10305,-28503
270,452863,-44.2505,27.832,-10.2539,-83.1335,-21.0004,-137.45,4.50762,-6.18721,3.4166,0.156311,-0.364288,0.557007,-0.729706,-124.95,50.05,-65.95,-10305,-28503
276,452869,-40.8325,19.9585,-7.38525,-83.2764,-21.0388,-137.615,4.5459,-6.93369,3.38789,0.154205,-0.363739,0.558441,-0.72934,-124.875,50.075,-66.125,-10305,-28503
282,452875,-59.8145,23.6206,-12.207,-83.5071,-21.1047,-137.807,3.27783,-13.1735,-0.641211,0.152466,-0.363373,0.559723,-0.728912,-124.808,50.1083,-66.2833,-10305,-28503
288,452881,-47.6685,-12.146,10.437,-83.7433,-21.0992,-137.785,5.08184,39.1474,-0.669922,0.150146,-0.363068,0.561615,-0.728088,-124.775,50.1417,-66.4417,-10305,-28503
294,452887,110.596,51.4526,28.5034,-82.337,-20.8081,-138.175,-6.54131,6.85713,-0.813477,0.152222,-0.361267,0.559082,-0.730499,-124.692,50.1917,-66.7167,-10305,-28503
300,452893,5.00488,-27.0996,27.71,-82.3425,-20.7202,-138.065,-0.507227,-5.71826,3.69893,0.153168,-0.358093,0.556274,-0.734009,-124.642,50.2083,-66.85,-10305,-28503
306,452899,37.9028,15.3198,17.5171,-82.1063,-20.6543,-138.186,8.22568,-17.0878,6.74707,0.154358,-0.358124,0.556244,-0.733734,-124.592,50.2333,-66.9583,-10305,-28503
312,452905,52.8564,46.0205,9.64355,-81.7273,-20.5994,-138.477,0.411523,-5.92881,1.90928,0.154724,-0.356812,0.555328,-0.735016,-124.533,50.2333,-67.025,-10305,-28503
318,452911,19.5923,13.0615,7.01904,-81.579,-20.5774,-138.593,1.3877,-6.55566,3.94775,0.154144,-0.353699,0.553467,-0.738037,-124.442,50.225,-67.15,-10305,-28503
324,452917,20.813,18.8599,7.69043,-81.2659,-20.5115,-138.906,2.12461,-8.99609,2.3208,0.153717,-0.352539,0.553101,-0.738953,-124.275,50.2083,-67.35,-10305,-28503
330,452923,16.7236,4.39453,5.43213,-81.145,-20.5005,-138.977,3.05293,-8.49844,4.0626,0.153473,-0.35141,0.552582,-0.739929,-124.2,50.2,-67.4583,-10305,-28503
336,452929,9.82666,4.3335,4.76074,-81.0626,-20.495,-139.054,4.10566,-7.91943,2.36387,0.153412,-0.35083,0.552063,-0.740601,-124.133,50.175,-67.575,-10314,-28502
342,452935,4.27246,5.00488,5.12695,-81.0022,-20.484,-139.131,4.07695,-8.64199,1.85186,0.153259,-0.350342,0.551788,-0.741089,-124.067,50.15,-67.675,-10314,-28502
348,452941,2.44141,6.16455,4.57764,-80.9583,-20.473,-139.213,3.48359,-8.99609,1.86143,0.152649,-0.349304,0.551666,-0.741791,-124.008,50.1583,-67.7833,-10314,-28502
354,452947,0.976563,2.13623,2.50244,-80.8868,-20.4675,-139.345,3.03379,-9.1875,2.1916,0.152344,-0.348846,0.551666,-0.742065,-123.875,50.175,-68.0417,-10314,-28502
360,452953,0.366211,0,1.83105,-80.8594,-20.473,-139.4,3.06729,-9.02959,2.16768,0.152039,-0.348511,0.551636,-0.74231,-123.817,50.1917,-68.1833,-10314,-28502
366,452959,-0.549316,-2.19727,0.976563,-80.8429,-20.484,-139.444,3.25869,-8.91953,2.11025,0.151733,-0.348267,0.551636,-0.742493,-123.775,50.2167,-68.3,-10314,-28502
372,452965,-2.13623,-3.17383,0.671387,-80.8429,-20.495,-139.477,3.48359,-8.91475,1.84707,0.151459,-0.348083,0.551605,-0.742615,-123.725,50.2417,-68.3917,-10314,-28502
378,452971,-3.35693,-3.66211,0.732422,-80.8429,-20.506,-139.51,3.56973,-9.02481,1.65566,0.150879,-0.34787,0.551758,-0.742737,-123.683,50.2667,-68.5,-10314,-28502
384,452977,-4.08936,-4.27246,0.366211,-80.8594,-20.5334,-139.576,3.70371,-9.18272,1.33984,0.150574,-0.347809,0.551849,-0.742767,-123.625,50.3083,-68.6167,-10314,-28502
390,452983,-3.96729,-4.08936,0.244141,-80.8704,-20.5444,-139.609,3.77549,-9.21621,1.20107,0.150269,-0.347748,0.551971,-0.742767,-123.608,50.325,-68.6583,-10314,-28502
396,452989,-3.78418,-2.56348,0.366211,-80.8813,-20.5554,-139.647,3.78506,-9.27842,1.0001,0.149963,-0.347687,0.552094,-0.742767,-123.592,50.3083,-68.675,-10314,-28502
402,452995,-3.35693,-0.793457,-0.0610352,-80.8868,-20.5664,-139.697,3.52188,-9.38848,1.03359,0.149597,-0.347565,0.552246,-0.742798,-123.558,50.3,-68.675,-10314,-28502
408,453001,-2.2583,-0.0610352,-0.854492,-80.8813,-20.5774,-139.752,3.24434,-9.37891,1.36855,0.148804,-0.347198,0.55249,-0.74292,-123.525,50.3083,-68.6833,-10314,-28502
414,453007,-0.183105,-0.366211,-2.01416,-80.8649,-20.6104,-139.856,3.48838,-9.14443,1.33506,0.148407,-0.347015,0.552551,-0.743042,-123.475,50.2833,-68.725,-10314,-28502
420,453013,-0.549316,-0.732422,-2.13623,-80.8594,-20.6268,-139.905,3.69414,-9.13008,1.14365,0.14798,-0.346863,0.552582,-0.743164,-123.467,50.2583,-68.7333,-10314,-28502
426,453019,0.0610352,-0.671387,-1.77002,-80.8484,-20.6433,-139.96,3.76113,-9.13008,1.15322,0.147583,-0.34671,0.552643,-0.743286,-123.475,50.2583,-68.7,-10314,-28502
432,453025,0.854492,0.183105,-0.610352,-80.8374,-20.6543,-140.015,3.93818,-9.10137,1.18672,0.147186,-0.346558,0.552673,-0.743408,-123.467,50.2417,-68.6667,-10314,-28502
438,453031,0.793457,1.52588,-0.305176,-80.8209,-20.6598,-140.076,3.79463,-9.02002,1.18193,0.146423,-0.346039,0.552795,-0.743713,-123.425,50.225,-68.6333,-10314,-28502
444,453037,1.83105,1.58691,0.305176,-80.788,-20.6708,-140.197,3.69414,-9.12529,1.40205,0.146057,-0.345764,0.552856,-0.743866,-123.375,50.2333,-68.625,-10314,-28502
450,453043,2.01416,1.89209,0.427246,-80.766,-20.6708,-140.257,3.62715,-9.06787,1.42119,0.145691,-0.34549,0.552917,-0.744049,-123.383,50.2083,-68.65,-10305,-28503
456,453049,1.64795,1.70898,1.09863,-80.7495,-20.6708,-140.317,3.61279,-9.02481,1.4834,0.145325,-0.345154,0.552979,-0.744202,-123.408,50.175,-68.6917,-10305,-28503
462,453055,1.83105,1.70898,0.976563,-80.733,-20.6708,-140.378,3.52188,-9.03438,1.6126,0.144989,-0.344849,0.55304,-0.744354,-123.417,50.1417,-68.75,-10305,-28503
468,453061,1.52588,1.46484,1.46484,-80.7166,-20.6653,-140.438,3.42617,-8.94824,1.7083,0.144348,-0.344208,0.553192,-0.74469,-123.425,50.15,-68.8,-10305,-28503
474,453067,0.427246,0.244141,0.793457,-80.7001,-20.6708,-140.543,3.48359,-9.01523,1.7083,0.144043,-0.343933,0.553284,-0.744781,-123.433,50.1667,-68.8583,-10305,-28503
480,453073,0.244141,-0.183105,0.976563,-80.6946,-20.6708,-140.592,3.50273,-8.94346,1.71787,0.143707,-0.343689,0.553406,-0.744904,-123.442,50.1667,-68.85,-10305,-28503
486,453079,-0.610352,-1.09863,0.610352,-80.6946,-20.6708,-140.636,3.52188,-8.89561,1.7083,0.143402,-0.343445,0.553497,-0.744995,-123.458,50.175,-68.825,-10305,-28503
492,453085,-1.46484,-1.40381,0.610352,-80.7001,-20.6763,-140.68,3.59844,-8.97695,1.58389,0.143097,-0.343231,0.553619,-0.745056,-123.458,50.175,-68.8083,-10305,-28503
498,453091,-1.58691,-1.64795,0.427246,-80.7056,-20.6763,-140.724,3.46445,-9.06787,1.60781,0.142456,-0.342865,0.553955,-0.745087,-123.425,50.1583,-68.825,-10305,-28503
504,453097,-2.01416,-2.19727,0.427246,-80.722,-20.6818,-140.801,3.45488,-9.04873,1.62217,0.142151,-0.342712,0.554108,-0.745117,-123.358,50.1583,-68.8583,-10305,-28503
510,453103,-2.01416,-2.68555,0.183105,-80.733,-20.6873,-140.839,3.43096,-9.04873,1.56953,0.141846,-0.34256,0.55426,-0.745117,-123.325,50.1583,-68.875,-10305,-28503
516,453109,-2.31934,-2.80762,0,-80.744,-20.6927,-140.872,3.46924,-9.12529,1.49775,0.141571,-0.342407,0.554443,-0.745117,-123.308,50.15,-68.8833,-10305,-28503
522,453115,-1.83105,-3.23486,-0.244141,-80.755,-20.7037,-140.911,3.43574,-9.10137,1.51211,0.141266,-0.342285,0.554596,-0.745117,-123.3,50.1417,-68.8667,-10305,-28503
528,453121,-1.83105,-2.99072,-0.732422,-80.766,-20.7092,-140.944,3.49795,-9.14443,1.4834,0.140656,-0.342072,0.554901,-0.745117,-123.292,50.1417,-68.825,-10305,-28503
534,453127,-1.83105,-3.35693,-0.549316,-80.788,-20.7257,-141.01,3.48838,-9.11572,1.43076,0.140381,-0.341949,0.555054,-0.745117,-123.267,50.1083,-68.7667,-10305,-28503
540,453133,-1.2207,-3.90625,-0.732422,-80.799,-20.7312,-141.042,3.50273,-9.10615,1.48818,0.140076,-0.341858,0.555176,-0.745087,-123.267,50.1167,-68.7583,-10305,-28503
546,453139,-0.976563,-3.35693,-0.549316,-80.8044,-20.7422,-141.07,3.54102,-9.13965,1.51211,0.139801,-0.341766,0.555298,-0.745087,-123.258,50.1417,-68.7583,-10305,-28503
552,453145,-0.793457,-3.2959,-0.488281,-80.8099,-20.7477,-141.103,3.49795,-9.09658,1.49297,0.139526,-0.341675,0.55542,-0.745087,-123.267,50.175,-68.7417,-10305,-28503
558,453151,-0.671387,-3.35693,-0.366211,-80.8154,-20.7532,-141.136,3.5793,-9.06309,1.40205,0.138977,-0.341461,0.555664,-0.745117,-123.267,50.175,-68.725,-10305,-28503
564,453157,-0.854492,-3.90625,-0.183105,-80.8374,-20.7697,-141.196,3.69893,-9.07266,1.43555,0.138733,-0.34137,0.555786,-0.745117,-123.242,50.1917,-68.65,-10305,-28503
570,453163,-0.549316,-2.92969,-0.12207,-80.8429,-20.7751,-141.229,3.66543,-9.01523,1.40684,0.138489,-0.341278,0.555908,-0.745117,-123.242,50.1917,-68.6417,-10305,-28503
576,453169,-0.610352,-2.50244,0.366211,-80.8484,-20.7751,-141.262,3.75156,-9.01523,1.42119,0.138214,-0.341156,0.55603,-0.745117,-123.233,50.1667,-68.6833,-10305,-28503
582,453175,-0.915527,-2.74658,0.427246,-80.8539,-20.7806,-141.295,3.7085,-9.02002,1.40205,0.137939,-0.341003,0.556183,-0.745148,-123.233,50.15,-68.7083,-10305,-28503
588,453181,-1.0376,-1.40381,1.40381,-80.8649,-20.7806,-141.334,3.70371,-9.05352,1.3542,0.137421,-0.340698,0.556488,-0.745148,-123.242,50.1417,-68.725,-10305,-28503
594,453187,-1.2207,-0.915527,1.2207,-80.8759,-20.7751,-141.416,3.54102,-9.01523,1.4834,0.137177,-0.340485,0.556641,-0.745178,-123.233,50.0917,-68.725,-10305,-28503
600,453193,-1.15967,-1.15967,1.46484,-80.8813,-20.7697,-141.46,3.42139,-9.14922,1.55518,0.136902,-0.340271,0.556824,-0.745178,-123.233,50.0833,-68.725,-10305,-28503
606,453199,-1.58691,-1.46484,1.09863,-80.8923,-20.7697,-141.498,3.38311,-9.01523,1.60781,0.136627,-0.340057,0.557007,-0.745209,-123.242,50.1083,-68.6917,-10305,-28503
612,453205,-1.95313,-2.19727,0.549316,-80.9033,-20.7697,-141.531,3.42617,-9.06787,1.63174,0.136353,-0.339874,0.55719,-0.745209,-123.25,50.1333,-68.6417,-10305,-28503
618,453211,-2.13623,-1.83105,0.305176,-80.9143,-20.7697,-141.57,3.51709,-9.06787,1.44512,0.135803,-0.339539,0.557556,-0.745178,-123.267,50.15,-68.625,-10305,-28503
624,453217,-2.01416,-2.0752,-0.0610352,-80.9418,-20.7751,-141.647,3.52666,-9.17314,1.43555,0.135498,-0.339386,0.557739,-0.745178,-123.283,50.1917,-68.5667,-10305,-28503
630,453223,-1.58691,-2.0752,0,-80.9473,-20.7806,-141.68,3.50752,-9.14922,1.4499,0.135223,-0.339233,0.557922,-0.745148,-123.283,50.2,-68.5583,-10305,-28503
636,453229,-1.46484,-1.46484,-0.12207,-80.9583,-20.7806,-141.724,3.53623,-9.11094,1.43076,0.134918,-0.339111,0.558075,-0.745148,-123.275,50.175,-68.5083,-10305,-28503
642,453235,-1.64795,-1.70898,-0.0610352,-80.9692,-20.7861,-141.762,3.4501,-9.10615,1.45469,0.134613,-0.338928,0.558228,-0.745148,-123.3,50.1667,-68.4833,-10305,-28503
648,453241,-1.52588,-2.2583,-0.244141,-80.9747,-20.7861,-141.795,3.46924,-9.10615,1.46904,0.134033,-0.338623,0.558563,-0.745148,-123.325,50.1583,-68.4417,-10305,-28503
654,453247,-1.34277,-1.95313,-0.732422,-80.9967,-20.7971,-141.866,3.56494,-9.10137,1.47383,0.133759,-0.338501,0.558716,-0.745148,-123.358,50.1083,-68.3917,-10305,-28503
660,453253,-1.28174,-1.89209,-0.610352,-81.0022,-20.8026,-141.905,3.50752,-9.08223,1.4499,0.133453,-0.338379,0.558868,-0.745148,-123.35,50.075,-68.3833,-10305,-28503
666,453259,-1.0376,-2.13623,-0.610352,-81.0132,-20.8081,-141.943,3.53623,-9.07266,1.46904,0.133148,-0.338226,0.559021,-0.745148,-123.367,50.0583,-68.375,-10305,-28503
672,453265,-1.28174,-2.19727,-0.427246,-81.0187,-20.8136,-141.976,3.58887,-9.04395,1.46904,0.132874,-0.338104,0.559143,-0.745178,-123.375,50.0417,-68.375,-10305,-28503
678,453271,-1.52588,-2.19727,-0.671387,-81.0297,-20.8191,-142.015,3.62715,-9.06787,1.40684,0.132294,-0.33783,0.559448,-0.745178,-123.383,50.025,-68.3583,-10305,-28503
684,453277,-1.58691,-2.0752,-0.610352,-81.0516,-20.8301,-142.081,3.65586,-9.0583,1.41162,0.132019,-0.337708,0.559601,-0.745178,-123.425,50.025,-68.3,-10305,-28503
690,453283,-1.46484,-1.83105,-0.0610352,-81.0626,-20.8356,-142.119,3.63193,-9.06309,1.43076,0.131714,-0.337585,0.559753,-0.745148,-123.433,50.0333,-68.2583,-10305,-28503
696,453289,-2.01416,-1.89209,0,-81.0736,-20.8411,-142.158,3.60322,-9.07266,1.42119,0.131439,-0.337433,0.559906,-0.745148,-123.425,50.025,-68.2417,-10305,-28503
702,453295,-2.01416,-1.46484,-0.12207,-81.0846,-20.8411,-142.191,3.61758,-9.08223,1.39727,0.131134,-0.33728,0.560089,-0.745148,-123.408,50.025,-68.2583,-10305,-28503
708,453301,-1.52588,-1.40381,0.183105,-81.0956,-20.8466,-142.229,3.56973,-9.12529,1.41641,0.130554,-0.336975,0.560425,-0.745117,-123.4,50.0417,-68.2667,-10305,-28503
714,453307,-1.46484,-1.40381,0.183105,-81.1121,-20.8466,-142.306,3.5458,-9.07266,1.41162,0.13028,-0.336823,0.560577,-0.745117,-123.383,50.0667,-68.2583,-10305,-28503
720,453313,-1.28174,-1.46484,-0.183105,-81.1176,-20.8521,-142.344,3.5793,-9.09658,1.44033,0.130005,-0.336639,0.56076,-0.745117,-123.367,50.075,-68.2583,-10305,-28503
726,453319,-1.46484,-1.34277,0,-81.1285,-20.8521,-142.383,3.59365,-9.13486,1.43076,0.1297,-0.336487,0.560913,-0.745117,-123.358,50.0833,-68.225,-10305,-28503
732,453325,-1.34277,-1.09863,0.12207,-81.134,-20.8521,-142.421,3.59844,-9.09658,1.44033,0.129425,-0.336334,0.561066,-0.745117,-123.35,50.0917,-68.2083,-10305,-28503
738,453331,-1.2207,-1.09863,0,-81.1505,-20.8575,-142.498,3.59365,-9.08701,1.46426,0.128876,-0.335999,0.561371,-0.745148,-123.342,50.1,-68.25,-10305,-28503
744,453337,-1.46484,-1.15967,-0.183105,-81.1615,-20.863,-142.537,3.58408,-9.10137,1.4499,0.128571,-0.335815,0.561523,-0.745148,-123.358,50.1583,-68.3167,-10305,-28503
750,453343,-1.64795,-1.15967,0.0610352,-81.167,-20.863,-142.575,3.56973,-9.09658,1.46904,0.128296,-0.335663,0.561707,-0.745148,-123.392,50.1917,-68.3167,-10305,-28503
756,453349,-1.77002,-0.854492,0.244141,-81.178,-20.863,-142.614,3.60322,-9.06787,1.46426,0.127991,-0.33551,0.561859,-0.745148,-123.4,50.1917,-68.2917,-10305,-28503
762,453355,-2.01416,-1.0376,0.0610352,-81.189,-20.8685,-142.652,3.62236,-9.08223,1.42119,0.127716,-0.335327,0.562042,-0.745148,-123.408,50.1917,-68.225,-10305,-28503
768,453361,-1.89209,-1.34277,0.427246,-81.2109,-20.8685,-142.723,3.65586,-9.07266,1.34463,0.127136,-0.334991,0.562408,-0.745117,-123.433,50.2167,-68.175,-10305,-28503
774,453367,-2.13623,-0.976563,0.671387,-81.2219,-20.8685,-142.762,3.64629,-9.0918,1.33027,0.126862,-0.334808,0.562561,-0.745117,-123.458,50.2417,-68.1583,-10305,-28503
780,453373,-2.01416,-0.793457,0.671387,-81.2329,-20.863,-142.8,3.58887,-9.08701,1.3877,0.126587,-0.334656,0.562775,-0.745087,-123.467,50.25,-68.15,-10305,-28503
786,453379,-2.01416,-0.671387,0.793457,-81.2439,-20.863,-142.839,3.56016,-9.08701,1.43076,0.126312,-0.334442,0.562958,-0.745087,-123.492,50.2667,-68.1167,-10305,-28503
792,453385,-2.2583,-0.976563,0.976563,-81.2604,-20.863,-142.877,3.5793,-9.08223,1.42119,0.126038,-0.334259,0.563141,-0.745087,-123.5,50.2583,-68.1167,-10305,-28503
798,453391,-2.74658,-1.15967,1.34277,-81.2878,-20.8521,-142.949,3.66543,-9.0583,1.34941,0.125519,-0.333923,0.563538,-0.745026,-123.5,50.2333,-68.1083,-10305,-28503
804,453397,-3.05176,-0.915527,1.15967,-81.3043,-20.8521,-142.987,3.60801,-9.08223,1.40684,0.125275,-0.33374,0.563751,-0.744965,-123.5,50.1917,-68.1417,-10305,-28503
810,453403,-3.05176,-1.0376,1.70898,-81.3208,-20.8466,-143.02,3.53145,-9.08701,1.42598,0.125,-0.333557,0.563995,-0.744934,-123.517,50.1917,-68.1667,-10305,-28503
816,453409,-3.17383,-1.52588,1.52588,-81.3428,-20.8411,-143.053,3.52188,-9.05352,1.44033,0.124756,-0.333344,0.564209,-0.744873,-123.517,50.1667,-68.1917,-10305,-28503
822,453415,-3.35693,-2.01416,1.34277,-81.3593,-20.8356,-143.086,3.5123,-9.06787,1.4834,0.124512,-0.333191,0.564453,-0.744812,-123.517,50.1583,-68.2,-10305,-28503
828,453421,-3.72314,-2.74658,0.976563,-81.4032,-20.8301,-143.141,3.46924,-9.07266,1.47383,0.124023,-0.332886,0.564911,-0.74469,-123.525,50.1667,-68.175,-10305,-28503
834,453427,-3.72314,-3.11279,0.793457,-81.4307,-20.8301,-143.168,3.47402,-9.04395,1.47383,0.12381,-0.332764,0.565155,-0.744598,-123.525,50.1833,-68.1333,-10305,-28503
840,453433,-3.84521,-3.11279,0.366211,-81.4526,-20.8356,-143.19,3.47881,-9.11094,1.42119,0.123566,-0.332672,0.565369,-0.744507,-123.533,50.1917,-68.125,-10305,-28503
846,453439,-3.96729,-3.23486,0.854492,-81.4801,-20.8301,-143.218,3.49316,-9.07266,1.39727,0.123322,-0.332581,0.565613,-0.744415,-123.542,50.2167,-68.1,-10305,-28503
852,453445,-3.84521,-3.2959,0.427246,-81.5021,-20.8356,-143.24,3.55059,-9.10615,1.37334,0.123108,-0.332489,0.565826,-0.744324,-123.55,50.2417,-68.0583,-10305,-28503
858,453451,-3.84521,-1.83105,0.366211,-81.546,-20.8356,-143.295,3.73242,-9.06309,1.03838,0.12262,-0.332306,0.566254,-0.744141,-123.558,50.2333,-68.0417,-10305,-28503
864,453457,-2.99072,-0.366211,0.427246,-81.5625,-20.8356,-143.333,3.71807,-9.19707,1.03359,0.122345,-0.332184,0.566498,-0.74408,-123.567,50.2667,-68.0083,-10305,-28503
870,453463,-2.0752,0.671387,0.854492,-81.568,-20.8356,-143.377,3.62715,-9.15879,1.15801,0.12207,-0.332001,0.566711,-0.744049,-123.567,50.3,-68.0083,-10305,-28503
876,453469,-1.46484,1.64795,0.732422,-81.5735,-20.8301,-143.427,3.55059,-9.04873,1.13887,0.121765,-0.331787,0.566895,-0.744049,-123.567,50.3083,-68.0167,-10305,-28503
882,453475,-1.70898,2.44141,0.976563,-81.579,-20.8246,-143.481,3.52666,-9.12051,1.24414,0.12146,-0.331512,0.567078,-0.74408,-123.558,50.3417,-68.0083,-10305,-28503
888,453481,-1.09863,2.01416,0.732422,-81.579,-20.8191,-143.586,3.50273,-9.04395,1.32549,0.120819,-0.330963,0.567444,-0.744141,-123.55,50.3833,-67.9417,-10305,-28503
894,453487,-0.915527,1.77002,0.793457,-81.5845,-20.8136,-143.635,3.5793,-9.07744,1.31113,0.120483,-0.330688,0.567627,-0.744202,-123.533,50.3917,-67.925,-10305,-28503
900,453493,-0.976563,1.95313,0.854492,-81.5845,-20.8081,-143.685,3.65586,-9.07744,1.16758,0.120178,-0.330414,0.56778,-0.744232,-123.525,50.4083,-67.9083,-10305,-28503
906,453499,-0.976563,2.92969,0.793457,-81.5845,-20.8026,-143.74,3.63193,-9.10137,1.17715,0.119873,-0.330139,0.567932,-0.744263,-123.533,50.45,-67.8917,-10305,-28503
912,453505,-0.732422,2.68555,1.2207,-81.5845,-20.7971,-143.795,3.50752,-9.11094,1.26807,0.119568,-0.329865,0.568115,-0.744324,-123.533,50.475,-67.9,-10305,-28503
918,453511,-0.549316,1.83105,0.732422,-81.5845,-20.7916,-143.893,3.45967,-9.07744,1.37813,0.118927,-0.329285,0.568451,-0.744446,-123.525,50.45,-67.8917,-10305,-28503
924,453517,-0.610352,1.52588,0.793457,-81.5845,-20.7861,-143.937,3.46924,-9.04873,1.34941,0.118652,-0.32901,0.568604,-0.744476,-123.525,50.45,-67.8583,-10305,-28503
930,453523,-0.366211,1.46484,0.793457,-81.5845,-20.7861,-143.987,3.44053,-9.04395,1.47861,0.118347,-0.328766,0.568756,-0.744537,-123.533,50.45,-67.8333,-10305,-28503
936,453529,-0.305176,0.671387,0.183105,-81.5845,-20.7806,-144.031,3.39746,-9.03916,1.47383,0.118073,-0.328491,0.568878,-0.744568,-123.542,50.4333,-67.8167,-10305,-28503
942,453535,-0.183105,0.366211,0.183105,-81.5845,-20.7806,-144.069,3.40225,-9.05352,1.46904,0.117798,-0.328278,0.569,-0.744629,-123.542,50.4167,-67.8,-10305,-28503
948,453541,-0.12207,-0.12207,0.0610352,-81.5845,-20.7861,-144.146,3.4501,-9.08223,1.3877,0.117279,-0.327911,0.569244,-0.74469,-123.592,50.4167,-67.8,-10305,-28503
954,453547,-0.0610352,0,-0.366211,-81.5845,-20.7861,-144.185,3.5123,-9.06787,1.23936,0.117004,-0.327698,0.569366,-0.74472,-123.592,50.4167,-67.8,-10305,-28503
960,453553,0,0.793457,-0.549316,-81.5845,-20.7916,-144.229,3.53623,-9.13008,1.21543,0.11673,-0.327515,0.569458,-0.744781,-123.592,50.4083,-67.8083,-10305,-28503
966,453559,0.183105,1.52588,-0.915527,-81.579,-20.7916,-144.278,3.35918,-9.17793,1.31592,0.116455,-0.327332,0.56958,-0.744843,-123.592,50.425,-67.7917,-10305,-28503
972,453565,1.09863,1.34277,-1.15967,-81.5735,-20.7971,-144.327,3.32568,-9.24492,1.3207,0.116119,-0.327118,0.569672,-0.744904,-123.583,50.45,-67.7917,-10305,-28503
978,453571,2.19727,1.40381,-1.95313,-81.546,-20.8136,-144.421,3.54102,-9.17314,1.23936,0.115509,-0.326691,0.569763,-0.745117,-123.558,50.4333,-67.8083,-10305,-28503
984,453577,2.62451,1.58691,-1.77002,-81.5295,-20.8246,-144.465,3.5793,-9.13008,1.29678,0.115173,-0.326508,0.569794,-0.745239,-123.525,50.4583,-67.8667,-10305,-28503
990,453583,2.99072,1.64795,-1.58691,-81.5131,-20.8301,-144.514,3.59844,-9.0918,1.35898,0.114868,-0.326294,0.569794,-0.745361,-123.5,50.4833,-67.875,-10305,-28503
996,453589,2.68555,1.2207,-1.70898,-81.4966,-20.8411,-144.564,3.63193,-9.03916,1.36855,0.114563,-0.32608,0.569794,-0.745514,-123.483,50.4833,-67.875,-10305,-28503
1002,453595,2.38037,1.64795,-1.40381,-81.4801,-20.8466,-144.608,3.60801,-9.06309,1.40684,0.113953,-0.325653,0.569824,-0.745758,-123.45,50.4833,-67.8833,-10305,-28503
1008,453601,2.13623,1.0376,-1.15967,-81.4581,-20.8575,-144.695,3.58408,-9.02002,1.4499,0.113678,-0.32547,0.569855,-0.74585,-123.45,50.4667,-67.85,-10305,-28503
1014,453607,1.89209,0.732422,-0.915527,-81.4471,-20.863,-144.739,3.57451,-9.03438,1.43076,0.113403,-0.325256,0.569885,-0.745972,-123.458,50.4667,-67.85,-10305,-28503
1020,453613,1.70898,0.610352,-0.671387,-81.4362,-20.863,-144.783,3.60322,-9.01523,1.45469,0.113129,-0.325073,0.569916,-0.746063,-123.467,50.45,-67.8917,-10305,-28503
1026,453619,1.2207,0.671387,-0.549316,-81.4307,-20.8685,-144.822,3.63672,-8.98174,1.44512,0.112854,-0.32486,0.569946,-0.746155,-123.483,50.45,-67.8917,-10305,-28503
1032,453625,0.976563,0.549316,-0.183105,-81.4197,-20.8685,-144.866,3.5793,-8.99131,1.46426,0.112335,-0.324463,0.570099,-0.746307,-123.508,50.4583,-67.9167,-10305,-28503
1038,453631,0.610352,0,0.305176,-81.4142,-20.8685,-144.943,3.59365,-9.00088,1.45469,0.112091,-0.32428,0.57016,-0.746368,-123.517,50.3833,-67.9167,-10305,-28503
1044,453637,0.244141,-0.0610352,0.610352,-81.4142,-20.863,-144.976,3.6415,-8.98174,1.39248,0.111877,-0.324066,0.570251,-0.746429,-123.533,50.375,-67.925,-10305,-28503
1050,453643,-0.427246,-0.427246,0.488281,-81.4142,-20.863,-145.009,3.63672,-9.03438,1.31113,0.111664,-0.323883,0.570374,-0.74646,-123.542,50.3583,-67.9083,-10305,-28503
1056,453649,-0.793457,-0.366211,0.610352,-81.4197,-20.863,-145.047,3.52188,-9.08223,1.37334,0.11142,-0.3237,0.570465,-0.74649,-123.55,50.3583,-67.9333,-10305,-28503
1062,453655,-0.488281,-0.915527,0.854492,-81.4252,-20.8575,-145.074,3.46924,-9.13008,1.44033,0.110992,-0.323364,0.57074,-0.74649,-123.542,50.3583,-67.95,-10305,-28503
1068,453661,-0.488281,-1.2207,0.366211,-81.4307,-20.8575,-145.135,3.59844,-9.03438,1.33027,0.110779,-0.323212,0.570831,-0.746521,-123.583,50.3917,-67.95,-10305,-28503
1074,453667,-0.488281,-1.40381,0.793457,-81.4362,-20.8575,-145.162,3.61758,-9.04395,1.33984,0.110565,-0.32309,0.570953,-0.746521,-123.592,50.4,-67.9583,-10305,-28503
1080,453673,-0.427246,-1.0376,1.15967,-81.4417,-20.8521,-145.195,3.65586,-9.02481,1.31592,0.110382,-0.322937,0.571075,-0.746521,-123.617,50.4083,-67.9583,-10305,-28503
1086,453679,-0.732422,-0.488281,1.15967,-81.4471,-20.8521,-145.228,3.5793,-9.05352,1.34941,0.110199,-0.322754,0.571198,-0.746521,-123.633,50.4333,-67.9667,-10305,-28503
1092,453685,-0.488281,-1.28174,1.0376,-81.4526,-20.8466,-145.256,3.48359,-9.08223,1.35898,0.109833,-0.322418,0.571442,-0.746521,-123.633,50.4667,-67.95,-10305,-28503
1098,453691,0.0610352,-1.15967,0.915527,-81.4581,-20.8411,-145.311,3.53623,-9.14922,1.30156,0.10965,-0.322266,0.571564,-0.746521,-123.608,50.4833,-67.9333,-10305,-28503
1104,453697,0.305176,-1.15967,1.40381,-81.4581,-20.8356,-145.338,3.59365,-9.154,1.28242,0.109467,-0.322113,0.571686,-0.746552,-123.608,50.4917,-67.9167,-10305,-28503
1110,453703,0.671387,-1.0376,1.58691,-81.4581,-20.8301,-145.371,3.63193,-9.12051,1.30635,0.109314,-0.32193,0.571777,-0.746552,-123.608,50.4667,-67.925,-10305,-28503
1116,453709,0.305176,-0.854492,1.2207,-81.4581,-20.8246,-145.399,3.63672,-9.08223,1.32549,0.109161,-0.321747,0.571869,-0.746582,-123.6,50.4417,-67.9583,-10305,-28503
1122,453715,0.12207,-1.0376,1.83105,-81.4636,-20.8191,-145.426,3.56973,-9.10615,1.33506,0.108826,-0.321411,0.572083,-0.746613,-123.583,50.4167,-67.9917,-10305,-28503
1128,453721,-0.12207,-1.70898,1.28174,-81.4691,-20.8081,-145.481,3.44053,-9.04395,1.50254,0.108673,-0.321228,0.572205,-0.746643,-123.55,50.425,-68.0083,-10305,-28503
1134,453727,-0.244141,-2.38037,1.40381,-81.4746,-20.8026,-145.503,3.45488,-9.02959,1.49297,0.108521,-0.321075,0.572327,-0.746643,-123.533,50.3917,-68,-10305,-28503
1140,453733,-0.610352,-2.38037,1.58691,-81.4801,-20.7971,-145.525,3.49316,-8.95303,1.51689,0.108398,-0.320953,0.572418,-0.746613,-123.533,50.3667,-67.9833,-10305,-28503
1146,453739,-1.28174,-2.68555,1.34277,-81.4966,-20.7971,-145.541,3.59844,-8.95303,1.47861,0.108276,-0.320831,0.57254,-0.746613,-123.542,50.3667,-67.9583,-10305,-28503
1152,453745,-1.89209,-2.62451,1.58691,-81.5076,-20.7916,-145.563,3.55537,-9.02481,1.43076,0.107971,-0.320618,0.572845,-0.746521,-123.567,50.375,-67.9417,-10305,-28503
1158,453751,-2.74658,-3.11279,2.01416,-81.546,-20.7806,-145.602,3.53623,-9.01523,1.48818,0.107819,-0.320496,0.573029,-0.746429,-123.583,50.4083,-68.0083,-10305,-28503
1164,453757,-2.92969,-3.23486,1.89209,-81.568,-20.7751,-145.618,3.65107,-8.99609,1.42598,0.107697,-0.320404,0.573212,-0.746368,-123.583,50.45,-68.0167,-10305,-28503
1170,453763,-3.479,-2.68555,2.31934,-81.59,-20.7642,-145.635,3.66064,-8.95303,1.3877,0.107574,-0.320282,0.573425,-0.746277,-123.583,50.4583,-68.0167,-10305,-28503
1176,453769,-4.02832,-2.92969,2.44141,-81.6119,-20.7587,-145.651,3.59365,-9.07266,1.33027,0.107452,-0.32019,0.573639,-0.746185,-123.567,50.4333,-68.0167,-10305,-28503
1182,453775,-3.78418,-2.74658,2.74658,-81.6339,-20.7477,-145.668,3.50752,-9.14443,1.27764,0.107178,-0.319946,0.574097,-0.745941,-123.55,50.4167,-68.0333,-10305,-28503
1188,453781,-3.41797,-2.56348,2.68555,-81.6833,-20.7312,-145.706,3.51709,-9.13008,1.28242,0.107025,-0.319824,0.574341,-0.74585,-123.567,50.4417,-68.0167,-10305,-28503
1194,453787,-3.479,-2.62451,2.56348,-81.7053,-20.7202,-145.723,3.58408,-9.03916,1.30635,0.106903,-0.319702,0.574554,-0.745758,-123.55,50.45,-67.9917,-10305,-28503
1200,453793,-4.02832,-1.83105,2.86865,-81.7273,-20.7092,-145.745,3.56016,-9.00566,1.39248,0.106781,-0.31958,0.574768,-0.745636,-123.533,50.4417,-67.9667,-10305,-28503
1206,453799,-4.27246,-1.89209,2.56348,-81.7493,-20.6982,-145.767,3.53145,-9.03438,1.3542,0.106659,-0.319427,0.575012,-0.745544,-123.517,50.475,-67.925,-10305,-28503
1212,453805,-4.21143,-2.13623,2.62451,-81.7767,-20.6873,-145.789,3.33525,-9.13008,1.38291,0.106354,-0.319122,0.5755,-0.745331,-123.483,50.5,-67.8833,-10305,-28503
1218,453811,-3.78418,-2.62451,2.01416,-81.8207,-20.6763,-145.827,3.27783,-9.12051,1.53604,0.106201,-0.319,0.575745,-0.745239,-123.458,50.5417,-67.825,-10305,-28503
1224,453817,-3.54004,-2.62451,0.976563,-81.8427,-20.6708,-145.844,3.29219,-9.06309,1.53604,0.106049,-0.318909,0.575958,-0.745117,-123.467,50.5583,-67.8333,-10305,-28503
1230,453823,-3.35693,-3.78418,1.28174,-81.8646,-20.6708,-145.86,3.38311,-9.02481,1.51689,0.105865,-0.318817,0.576172,-0.745026,-123.475,50.5667,-67.8583,-10305,-28503
1236,453829,-4.02832,-4.02832,0.976563,-81.8921,-20.6708,-145.871,3.4501,-9.03438,1.51689,0.105743,-0.318756,0.576355,-0.744934,-123.467,50.5333,-67.9,-10305,-28503
1242,453835,-4.08936,-4.45557,0.366211,-81.9196,-20.6708,-145.876,3.51709,-9.10615,1.33506,0.105469,-0.318695,0.576752,-0.74469,-123.45,50.5417,-67.9333,-10305,-28503
1248,453841,-3.54004,-4.57764,0.915527,-81.969,-20.6708,-145.893,3.56494,-9.13965,1.24893,0.105347,-0.318695,0.576935,-0.744537,-123.425,50.6,-67.95,-10305,-28503
1254,453847,-3.479,-5.18799,1.34277,-81.9965,-20.6708,-145.898,3.61279,-9.10137,1.23936,0.105255,-0.318695,0.577118,-0.744446,-123.433,50.6167,-67.9417,-10305,-28503
1260,453853,-3.60107,-5.24902,1.64795,-82.0239,-20.6653,-145.898,3.71328,-9.01523,1.21064,0.105164,-0.318665,0.577301,-0.744293,-123.417,50.65,-67.9167,-10305,-28503
1266,453859,-4.27246,-4.5166,2.31934,-82.0514,-20.6598,-145.904,3.68936,-9.07744,1.19629,0.105072,-0.318665,0.577484,-0.744171,-123.425,50.6833,-67.8417,-10305,-28503
1272,453865,-3.96729,-4.45557,2.80762,-82.0789,-20.6488,-145.909,3.55537,-9.24014,1.10537,0.104919,-0.318573,0.577942,-0.743896,-123.433,50.7,-67.7833,-10305,-28503
1278,453871,-3.60107,-4.5166,2.80762,-82.1338,-20.6323,-145.926,3.56016,-9.19229,1.15322,0.104858,-0.318512,0.578186,-0.743744,-123.383,50.675,-67.6583,-10305,-28503
1284,453877,-3.479,-4.39453,2.99072,-82.1613,-20.6213,-145.931,3.61758,-9.10137,1.10537,0.104797,-0.318451,0.5784,-0.743622,-123.375,50.6917,-67.6417,-10305,-28503
1290,453883,-3.66211,-3.84521,3.35693,-82.1832,-20.6104,-145.942,3.53623,-9.02481,1.17715,0.104736,-0.318359,0.578613,-0.7435,-123.358,50.7167,-67.6167,-10305,-28503
1296,453889,-3.84521,-3.78418,3.54004,-82.2107,-20.5939,-145.948,3.41182,-9.08701,1.26328,0.104706,-0.318268,0.578827,-0.743378,-123.358,50.75,-67.625,-10305,-28503
1302,453895,-4.57764,-4.69971,2.19727,-82.2382,-20.5829,-145.959,3.2252,-9.03438,1.4499,0.104553,-0.318085,0.579285,-0.743103,-123.358,50.7833,-67.6333,-10305,-28503
1308,453901,-4.76074,-5.06592,1.70898,-82.3041,-20.5719,-145.964,3.20127,-9.10137,1.4499,0.104492,-0.318054,0.579529,-0.74295,-123.425,50.8917,-67.5833,-10305,-28503
1314,453907,-5.31006,-5.5542,1.40381,-82.337,-20.5719,-145.964,3.23477,-9.07744,1.37334,0.104401,-0.318054,0.579742,-0.742798,-123.442,50.9333,-67.525,-10305,-28503
1320,453913,-6.04248,-5.67627,0,-82.3755,-20.5774,-145.97,3.37354,-9.0918,1.40684,0.104309,-0.318054,0.579987,-0.742615,-123.442,50.9583,-67.5,-10305,-28503
1326,453919,-6.16455,-5.37109,0.244141,-82.4139,-20.5774,-145.97,3.44053,-9.15879,1.2585,0.104156,-0.318115,0.580231,-0.742401,-123.45,51,-67.4667,-10305,-28503
1332,453925,-6.10352,-5.12695,0.366211,-82.4524,-20.5829,-145.975,3.69893,-9.17314,1.02402,0.103882,-0.318207,0.580719,-0.742035,-123.442,51.0167,-67.45,-10305,-28503
1338,453931,-6.04248,-4.02832,0.976563,-82.5293,-20.5829,-145.986,3.7085,-9.25928,0.957031,0.103729,-0.318237,0.580994,-0.741821,-123.392,51.025,-67.4167,-10305,-28503
1344,453937,-5.61523,-3.54004,0.610352,-82.5623,-20.5829,-145.997,3.69893,-9.31191,0.942676,0.103577,-0.318207,0.581238,-0.741669,-123.392,51.0417,-67.35,-10305,-28503
1350,453943,-4.94385,-3.17383,0.976563,-82.5897,-20.5829,-146.014,3.65586,-9.32148,0.995313,0.103394,-0.318176,0.581482,-0.741486,-123.383,51.05,-67.3,-10305,-28503
1356,453949,-4.3335,-3.17383,1.77002,-82.6172,-20.5774,-146.025,3.68457,-9.29277,1.04795,0.103241,-0.318115,0.581726,-0.741364,-123.392,51.0333,-67.2583,-10305,-28503
1362,453955,-2.99072,-1.64795,1.15967,-82.6392,-20.5719,-146.041,3.66543,-9.33584,0.947461,0.102966,-0.317932,0.582153,-0.74115,-123.408,51.0333,-67.2083,-10305,-28503
1368,453961,-2.19727,-0.915527,2.0752,-82.6721,-20.5609,-146.091,3.71807,-9.26885,0.842188,0.102783,-0.317841,0.582336,-0.741058,-123.483,51.0833,-67.1333,-10305,-28503
1374,453967,-1.28174,0,2.62451,-82.6776,-20.5499,-146.118,3.675,-9.23535,0.923535,0.102661,-0.317688,0.58252,-0.741028,-123.508,51.1,-67.1417,-10305,-28503
1380,453973,-0.610352,0.12207,2.74658,-82.6831,-20.5389,-146.146,3.65107,-9.25449,0.995313,0.102509,-0.317474,0.582672,-0.740997,-123.525,51.1083,-67.1167,-10305,-28503
1386,453979,-0.183105,0.427246,3.23486,-82.6831,-20.5225,-146.179,3.63672,-9.1875,1.08623,0.102386,-0.317261,0.582825,-0.740997,-123.517,51.125,-67.0917,-10305,-28503
1392,453985,0.732422,0.610352,3.479,-82.6831,-20.506,-146.206,3.46924,-9.25928,1.17715,0.102142,-0.316772,0.583069,-0.741028,-123.517,51.1417,-67.05,-10305,-28503
1398,453991,0.976563,0.854492,2.80762,-82.6721,-20.4785,-146.272,3.37354,-9.27842,1.22021,0.102051,-0.316498,0.583191,-0.741089,-123.458,51.1083,-66.8917,-10305,-28503
1404,453997,1.34277,0.0610352,2.62451,-82.6666,-20.4675,-146.299,3.36396,-9.23057,1.29678,0.101929,-0.316254,0.583282,-0.741119,-123.442,51.1333,-66.8417,-10305,-28503
1410,454003,1.46484,-0.0610352,2.68555,-82.6611,-20.4565,-146.327,3.44053,-9.17314,1.3877,0.101837,-0.31604,0.583344,-0.74118,-123.433,51.1667,-66.8,-10305,-28503
1416,454009,1.28174,0.0610352,2.31934,-82.6556,-20.4456,-146.354,3.39268,-9.11094,1.39727,0.101746,-0.315826,0.583405,-0.741241,-123.425,51.2,-66.8,-10305,-28503
1422,454015,1.09863,-0.427246,0.854492,-82.6447,-20.4346,-146.409,3.31611,-9.21621,1.41162,0.101501,-0.31543,0.583557,-0.741333,-123.408,51.2417,-66.8583,-10305,-28503
1428,454021,0.915527,-0.671387,0.366211,-82.6392,-20.4346,-146.437,3.35918,-9.20186,1.31592,0.101349,-0.315277,0.583588,-0.741364,-123.408,51.3667,-66.9083,-10305,-28503
1434,454027,0.976563,-0.671387,-0.244141,-82.6337,-20.4401,-146.464,3.46924,-9.221,1.22021,0.101196,-0.315155,0.583649,-0.741425,-123.392,51.4,-66.95,-10305,-28503
1440,454033,1.09863,-0.305176,-0.427246,-82.6282,-20.4401,-146.492,3.52666,-9.24492,1.1915,0.101044,-0.315033,0.583679,-0.741455,-123.367,51.4,-66.9667,-10305,-28503
1446,454039,1.64795,-0.12207,-0.427246,-82.6227,-20.4456,-146.519,3.56973,-9.29277,1.10537,0.100861,-0.31488,0.58371,-0.741516,-123.375,51.4417,-66.975,-10305,-28503
1452,454045,2.50244,0.549316,-0.305176,-82.5952,-20.451,-146.58,3.55537,-9.25928,0.990527,0.100494,-0.314606,0.58371,-0.741669,-123.392,51.4417,-66.9583,-10305,-28503
1458,454051,3.11279,0.976563,-0.610352,-82.5787,-20.451,-146.618,3.55059,-9.25449,0.990527,0.100311,-0.314453,0.58371,-0.74176,-123.4,51.4417,-66.9583,-10305,-28503
1464,454057,3.84521,1.58691,-0.366211,-82.5568,-20.451,-146.656,3.59844,-9.2832,1.0001,0.100128,-0.31427,0.583679,-0.741882,-123.408,51.4417,-66.9417,-10305,-28503
1470,454063,4.94385,1.64795,-0.12207,-82.5293,-20.4565,-146.689,3.65107,-9.22578,1.02881,0.0999146,-0.314056,0.583649,-0.742035,-123.425,51.4667,-66.9583,-10305,-28503
1476,454069,5.49316,2.50244,0.12207,-82.5018,-20.451,-146.733,3.68457,-9.14922,0.985742,0.099762,-0.313873,0.583588,-0.742218,-123.425,51.4833,-66.9833,-10305,-28503
1482,454075,6.34766,3.66211,0.732422,-82.4304,-20.4456,-146.827,3.51709,-9.1875,1.07187,0.0993958,-0.313324,0.583405,-0.742615,-123.433,51.4917,-67.0083,-10305,-28503
1488,454081,6.53076,3.78418,1.2207,-82.392,-20.4346,-146.871,3.55059,-9.13486,1.12451,0.0992126,-0.313049,0.583313,-0.742828,-123.442,51.5,-67.0083,-10305,-28503
1494,454087,7.14111,4.15039,1.46484,-82.348,-20.4291,-146.92,3.5123,-9.11094,1.07666,0.0990601,-0.312714,0.583221,-0.743073,-123.45,51.5,-66.9917,-10305,-28503
1500,454093,7.32422,4.21143,1.89209,-82.3096,-20.4181,-146.97,3.5793,-9.14443,1.08145,0.0989075,-0.312378,0.583099,-0.743317,-123.45,51.4833,-67.0167,-10305,-28503
1506,454099,7.69043,4.5166,2.68555,-82.2656,-20.4016,-147.019,3.61279,-9.08223,1.0623,0.0987549,-0.312042,0.583008,-0.743561,-123.442,51.5,-67.0167,-10314,-28502
1512,454105,7.50732,4.88281,3.54004,-82.1777,-20.3687,-147.123,3.56494,-9.08701,1.11973,0.0985107,-0.311249,0.582794,-0.74408,-123.442,51.5167,-67.025,-10314,-28502
1518,454111,7.87354,4.94385,4.3335,-82.1283,-20.3467,-147.173,3.58887,-9.09658,1.10059,0.0984192,-0.310852,0.582703,-0.744354,-123.383,51.475,-67.075,-10314,-28502
1524,454117,7.99561,4.94385,4.82178,-82.0844,-20.3192,-147.222,3.58887,-9.0583,1.08623,0.0983276,-0.310394,0.582611,-0.744598,-123.358,51.45,-67.0667,-10314,-28502
1530,454123,8.17871,5.00488,5.61523,-82.0404,-20.2917,-147.277,3.59844,-9.04873,1.16758,0.0982971,-0.309967,0.58252,-0.744873,-123.358,51.425,-67.05,-10314,-28502
1536,454129,8.60596,5.18799,7.01904,-81.991,-20.2533,-147.327,3.71807,-9.04395,1.17236,0.0982361,-0.309509,0.582428,-0.745117,-123.35,51.3917,-67.05,-10314,-28502
1542,454135,8.23975,7.01904,8.36182,-81.8976,-20.1709,-147.437,3.69893,-9.12529,1.13408,0.0982361,-0.308441,0.582306,-0.745667,-123.333,51.35,-67.0667,-10314,-28502
1548,454141,8.30078,6.40869,9.21631,-81.8481,-20.127,-147.491,3.62715,-9.02002,1.24893,0.0982361,-0.307861,0.582275,-0.745941,-123.283,51.3417,-67.125,-10314,-28502
1554,454147,7.93457,6.53076,10.437,-81.8042,-20.072,-147.546,3.74199,-9.0918,1.31592,0.0982971,-0.307251,0.582245,-0.746185,-123.242,51.3167,-67.1667,-10314,-28502
1560,454153,8.36182,6.65283,10.9253,-81.7548,-20.0171,-147.601,3.72764,-9.09658,1.21543,0.0983582,-0.306641,0.582245,-0.74646,-123.192,51.2833,-67.225,-10314,-28502
1566,454159,8.11768,6.95801,12.146,-81.7108,-19.9567,-147.651,3.67021,-9.08223,1.3207,0.0984497,-0.305969,0.582214,-0.746704,-123.142,51.275,-67.25,-10314,-28502
1572,454165,7.38525,6.53076,12.8784,-81.6284,-19.8303,-147.761,3.56973,-9.10615,1.37334,0.0986938,-0.304626,0.582275,-0.747192,-123.033,51.25,-67.2917,-10314,-28502
1578,454171,6.89697,6.28662,13.4277,-81.59,-19.7589,-147.81,3.47881,-9.25928,1.40205,0.0988464,-0.303925,0.582336,-0.747437,-122.967,51.25,-67.3583,-10314,-28502
1584,454177,7.01904,5.5542,13.7329,-81.5515,-19.693,-147.854,3.67979,-9.19229,1.33506,0.098999,-0.303253,0.582397,-0.74762,-122.925,51.2667,-67.425,-10314,-28502
1590,454183,6.7749,5.7373,14.7705,-81.5131,-19.6216,-147.898,3.66064,-9.21621,1.29678,0.0992126,-0.302582,0.582428,-0.747833,-122.883,51.3083,-67.5,-10314,-28502
1596,454189,6.89697,5.79834,15.564,-81.4746,-19.5447,-147.942,3.59844,-9.21621,1.33984,0.0994263,-0.30188,0.58252,-0.748016,-122.842,51.35,-67.6083,-10314,-28502
1602,454195,6.65283,5.06592,17.2119,-81.4032,-19.3854,-148.024,3.6415,-9.21621,1.4834,0.0999146,-0.300446,0.582703,-0.748383,-122.783,51.4667,-67.7167,-10314,-28502
1608,454201,5.98145,4.82178,17.7612,-81.3757,-19.2975,-148.063,3.46924,-9.09658,1.62217,0.10022,-0.299713,0.582794,-0.748566,-122.767,51.5083,-67.775,-10314,-28502
1614,454207,5.12695,4.57764,18.1274,-81.3483,-19.2096,-148.096,3.44053,-9.20186,1.73223,0.100555,-0.298981,0.582916,-0.748718,-122.733,51.5333,-67.8417,-10314,-28502
1620,454213,4.88281,2.74658,18.9209,-81.3263,-19.1217,-148.123,3.48359,-9.27363,1.7418,0.100891,-0.298248,0.583099,-0.74884,-122.7,51.5667,-67.9333,-10322,-28501
1626,454219,4.15039,2.99072,18.9209,-81.3098,-19.0338,-148.151,3.63193,-9.16836,1.67959,0.101288,-0.297577,0.583252,-0.748932,-122.667,51.6167,-68,-10322,-28501
1632,454225,2.31934,2.68555,21.3013,-81.2933,-18.9349,-148.178,3.67979,-9.31191,1.6126,0.102051,-0.296143,0.583679,-0.749054,-122.633,51.6833,-68.0583,-10322,-28501
1638,454231,2.31934,2.31934,22.3389,-81.2769,-18.7317,-148.222,3.49316,-9.45068,1.40205,0.102509,-0.29541,0.583954,-0.749084,-122.525,51.7833,-68.175,-10322,-28501
1644,454237,3.41797,0,23.5596,-81.2659,-18.6218,-148.228,3.76592,-9.5751,1.30635,0.102997,-0.294678,0.584229,-0.749084,-122.475,51.8333,-68.2,-10322,-28501
1650,454243,3.54004,0.427246,25.6348,-81.2549,-18.501,-148.239,4.11045,-9.53682,1.21543,0.103577,-0.293976,0.584473,-0.749084,-122.417,51.8917,-68.2167,-10322,-28501
1656,454249,4.08936,1.64795,27.0996,-81.2439,-18.3746,-148.25,3.94775,-9.8957,1.0623,0.104248,-0.293213,0.584747,-0.749084,-122.358,51.9083,-68.2167,-10322,-28501
1662,454255,6.10352,0.671387,32.7148,-81.2219,-18.2373,-148.25,4.4502,-9.72822,1.66523,0.105743,-0.291504,0.585266,-0.749146,-122.283,51.9583,-68.2167,-10322,-28501
1668,454261,5.06592,1.95313,35.4614,-81.1835,-17.9187,-148.26,4.254,-9.91006,1.58867,0.106628,-0.290558,0.585541,-0.749176,-122.167,52.1167,-68.2,-10322,-28501
1674,454267,6.04248,0.915527,39.1846,-81.167,-17.7374,-148.26,4.72295,-10.2067,2.12461,0.107574,-0.28949,0.585876,-0.749176,-122.083,52.175,-68.2083,-10322,-28501
1680,454273,4.88281,3.96729,42.7246,-81.145,-17.5397,-148.271,4.34014,-9.86221,1.97627,0.108673,-0.288391,0.586212,-0.749176,-122.008,52.25,-68.2167,-10322,-28501
1686,454279,3.17383,3.66211,46.3257,-81.1395,-17.3199,-148.277,4.53154,-10.202,2.51699,0.109772,-0.287079,0.58667,-0.749146,-121.933,52.325,-68.2167,-10322,-28501
1692,454285,-0.12207,5.06592,55.7861,-81.145,-16.8201,-148.293,5.41201,-11.0681,2.55527,0.112274,-0.284241,0.58783,-0.748962,-121.858,52.4,-68.2,-10322,-28501
1698,454291,0.793457,5.92041,61.5845,-81.145,-16.5289,-148.299,5.27324,-10.8671,2.51221,0.113708,-0.282623,0.588562,-0.748779,-121.65,52.55,-68.1917,-10322,-28501
1704,454297,-1.28174,7.14111,66.1011,-81.156,-16.2158,-148.304,4.91436,-10.4651,2.58877,0.115326,-0.280823,0.589325,-0.748596,-121.558,52.675,-68.175,-10322,-28501
1710,454303,-3.78418,7.08008,70.8618,-81.178,-15.8807,-148.31,4.66074,-10.7618,2.59834,0.117035,-0.2789,0.59021,-0.748383,-121.458,52.8167,-68.1667,-10322,-28501
1716,454309,-5.49316,7.20215,75.4395,-81.2054,-15.5237,-148.31,5.08662,-10.8958,2.75625,0.118835,-0.276855,0.591217,-0.748047,-121.358,52.95,-68.1583,-10322,-28501
1722,454315,-9.94873,8.36182,84.3506,-81.2933,-14.7491,-148.315,4.45498,-10.6278,2.45,0.122772,-0.2724,0.593536,-0.747192,-121.233,53.1,-68.1917,-10322,-28501
1728,454321,-13.4888,7.87354,87.8296,-81.3647,-14.3372,-148.315,4.68467,-10.9915,2.53613,0.124908,-0.27002,0.594879,-0.746643,-120.942,53.4833,-68.2583,-10322,-28501
1734,454327,-14.4653,8.54492,92.7734,-81.4417,-13.8977,-148.31,5.11055,-11.5035,2.61748,0.127106,-0.267578,0.596375,-0.745972,-120.767,53.6917,-68.3583,-10322,-28501
1740,454333,-13.0005,10.8643,97.3511,-81.5021,-13.4363,-148.315,4.59854,-11.1351,2.4835,0.129456,-0.265015,0.5979,-0.74527,-120.592,53.9,-68.4333,-10322,-28501
1746,454339,-15.3809,9.82666,100.891,-81.579,-12.9584,-148.31,4.37363,-10.7283,2.51221,0.131866,-0.262238,0.599457,-0.744568,-120.408,54.1167,-68.45,-10322,-28501
1752,454345,-21.9727,11.4136,110.596,-81.7822,-11.9421,-148.293,4.97178,-11.1686,2.63662,0.137085,-0.256531,0.602875,-0.742828,-120.2,54.3667,-68.475,-10322,-28501
1758,454351,-23.1934,10.9253,114.685,-81.8976,-11.3983,-148.288,4.57939,-11.7954,2.07197,0.139832,-0.253448,0.604828,-0.741821,-119.725,54.8667,-68.4833,-10322,-28501
1764,454357,-22.3999,7.26318,120.667,-82.0129,-10.8325,-148.26,4.90479,-11.982,1.83271,0.14267,-0.250305,0.606812,-0.740723,-119.483,55.1833,-68.4833,-10322,-28501
1770,454363,-21.3623,6.7749,127.136,-82.1228,-10.2338,-148.228,5.23018,-11.6997,1.59346,0.145782,-0.247101,0.608826,-0.739532,-119.225,55.5333,-68.4583,-10322,-28501
1776,454369,-21.4233,5.12695,134.46,-82.2327,-9.60754,-148.184,5.03877,-11.427,1.21543,0.152771,-0.240265,0.612885,-0.73703,-118.925,55.8667,-68.45,-10322,-28501
1782,454375,-22.4609,0.0610352,148.193,-82.4799,-8.25073,-148.046,4.63203,-11.8385,0.952246,0.156647,-0.236664,0.615021,-0.735596,-118.3,56.575,-68.4167,-10322,-28501
1788,454381,-21.3013,-3.11279,154.297,-82.5952,-7.53662,-147.953,4.40234,-11.9677,1.12451,0.160797,-0.232971,0.617188,-0.73407,-117.942,56.9583,-68.4083,-10322,-28501
1794,454387,-21.1182,-6.71387,159.851,-82.7161,-6.79504,-147.832,4.74209,-11.6471,1.21543,0.165222,-0.229218,0.619324,-0.732452,-117.55,57.3417,-68.4167,-10322,-28501
1800,454393,-23.0713,-7.75146,166.382,-82.8424,-6.026,-147.711,4.79951,-11.6854,1.4499,0.169891,-0.225433,0.621429,-0.730774,-117.15,57.7417,-68.425,-10322,-28501
1806,454399,-25.5737,-8.91113,172.974,-82.9797,-5.224,-147.579,4.89043,-11.9581,1.65566,0.17984,-0.217499,0.625946,-0.726929,-116.725,58.1667,-68.4167,-10322,-28501
1812,454405,-28.4424,-11.7798,188.416,-83.2764,-3.51563,-147.283,5.47422,-12.5658,1.36377,0.185211,-0.213348,0.628326,-0.724762,-115.875,58.9833,-68.3417,-10322,-28501
1818,454411,-30.7617,-11.7188,196.96,-83.4357,-2.60376,-147.129,5.62256,-13.2836,0.957031,0.190765,-0.209045,0.630737,-0.722473,-115.4,59.425,-68.2917,-10322,-28501
1824,454417,-29.1138,-15.1367,207.581,-83.5895,-1.64795,-146.959,5.68955,-13.4319,0.502441,0.196564,-0.204498,0.633301,-0.719971,-114.875,59.9333,-68.275,-10322,-28501
1830,454423,-30.4565,-15.2588,217.712,-83.7433,-0.637207,-146.783,5.78047,-13.81,0.258398,0.202759,-0.199738,0.635803,-0.717377,-114.325,60.45,-68.225,-10322,-28501
1836,454429,-31.4941,-17.334,227.6,-83.8971,0.411987,-146.591,6.59873,-14.4416,1.21543,0.216034,-0.189545,0.641022,-0.711609,-113.725,60.9583,-68.175,-10322,-28501
1842,454435,-35.2783,-18.6768,249.39,-84.2267,2.66968,-146.184,6.72793,-14.6521,0.923535,0.223206,-0.184113,0.643677,-0.708405,-112.492,61.9583,-68.0917,-10322,-28501
1848,454441,-36.9873,-18.7988,261.597,-84.397,3.87817,-145.981,6.32598,-14.8771,1.10537,0.230591,-0.178375,0.646423,-0.704987,-111.808,62.4917,-68.0667,-10322,-28501
1854,454447,-37.5366,-19.2261,271.667,-84.5673,5.1416,-145.772,6.23984,-14.5517,2.47871,0.238312,-0.172333,0.649261,-0.701324,-111.075,63.0333,-68.05,-10322,-28501
1860,454453,-40.2832,-21.9727,282.471,-84.7375,6.44897,-145.547,7.14902,-13.1975,2.75146,0.246307,-0.166046,0.6521,-0.697449,-110.283,63.5917,-68,-10322,-28501
1866,454459,-52.2461,-18.8599,293.396,-84.9683,7.80579,-145.338,6.17764,-15.5996,1.18672,0.263031,-0.152771,0.658173,-0.688599,-109.458,64.2,-67.9333,-10322,-28501
1872,454465,-52.7954,-21.3013,312.866,-85.4187,10.6732,-144.904,5.06748,-16.4418,0.789551,0.271759,-0.145691,0.661407,-0.683624,-107.7,65.4,-67.6167,-10322,-28501
1878,454471,-53.772,-26.001,320.74,-85.6329,12.1564,-144.662,4.27793,-16.1547,1.05273,0.280701,-0.138428,0.66452,-0.678497,-106.8,66,-67.475,-10322,-28501
1884,454477,-56.1523,-33.7524,326.843,-85.8472,13.667,-144.377,3.92383,-15.0876,1.28242,0.289948,-0.131104,0.667511,-0.673096,-105.817,66.625,-67.2917,-10322,-28501
1890,454483,-68.2373,-37.3535,331.36,-86.1053,15.1996,-144.08,3.65107,-15.3604,2.07676,0.29953,-0.12381,0.67041,-0.667358,-104.775,67.2417,-67.0917,-10322,-28501
1896,454489,-73.4863,-48.7061,334.229,-86.369,16.7377,-143.729,4.69902,-17.0064,1.85186,0.319183,-0.109833,0.676453,-0.65451,-103.658,67.8417,-66.9083,-10322,-28501
1902,454495,-83.252,-53.4058,340.393,-86.9348,19.8578,-142.998,5.01006,-18.6334,0.842188,0.329224,-0.103058,0.679413,-0.647522,-101.317,69,-66.4667,-10322,-28501
1908,454501,-78.6133,-53.4058,342.957,-87.1875,21.4343,-142.635,5.73262,-19.4756,1.21543,0.339294,-0.096283,0.682312,-0.640259,-100.1,69.5833,-66.2333,-10322,-28501
1914,454507,-74.4019,-49.2554,343.811,-87.4237,23.0164,-142.295,6.01973,-19.1646,0.732129,0.349396,-0.089386,0.684937,-0.632965,-98.825,70.1,-66.0083,-10322,-28501
1920,454513,-71.4111,-46.814,342.529,-87.6379,24.5874,-141.971,6.62744,-19.0928,0.282324,0.359314,-0.0823059,0.687378,-0.625702,-97.5083,70.625,-65.7917,-10322,-28501
1926,454519,-70.7397,-39.3677,339.355,-87.8632,26.1365,-141.691,7.56533,-19.7292,0.105273,0.378357,-0.0678711,0.691833,-0.611145,-96.1333,71.15,-65.5083,-10322,-28501
1932,454525,-46.2646,-32.3486,329.529,-88.1268,29.1687,-141.136,8.14434,-17.3701,-0.0287109,0.387543,-0.0606079,0.693604,-0.604095,-93.3083,72.0833,-64.9417,-10322,-28501
1938,454531,-34.8511,-28.9307,320.435,-88.1708,30.6134,-140.883,7.47441,-13.6808,-0.401953,0.396484,-0.0532532,0.694885,-0.597504,-91.8917,72.5083,-64.6167,-10322,-28501
1944,454537,-28.8696,-29.1138,308.35,-88.1763,31.9977,-140.636,6.81406,-10.1493,0.124414,0.404968,-0.0458984,0.69577,-0.591309,-90.4083,72.925,-64.2917,-10322,-28501
1950,454543,-15.686,-40.6494,293.335,-88.0829,33.2996,-140.323,7.36436,-5.70391,-0.320605,0.413086,-0.0388184,0.696411,-0.585449,-88.9,73.3167,-63.9667,-10322,-28501
1956,454549,-4.08936,-44.6777,272.278,-87.9126,34.4806,-139.993,9.34541,5.23496,-3.029,0.428467,-0.0262451,0.695892,-0.575623,-87.3833,73.65,-63.6917,-10322,-28501
1962,454555,15.5029,-42.2363,244.263,-87.4347,36.5955,-139.329,10.2402,9.65166,-0.650781,0.435547,-0.020813,0.695099,-0.571472,-84.4083,74.2167,-63.2583,-10322,-28501
1968,454561,-35.4004,41.1377,171.021,-87.7533,37.2766,-139.57,-7.84766,0.090918,0.650781,0.441895,-0.0151978,0.694092,-0.567993,-82.9667,74.4333,-63.0667,-10322,-28501
1974,454567,-31.4941,-55.1147,89.0503,-87.6874,37.5403,-139.208,-14.1066,-11.671,0.995313,0.443878,-0.0107117,0.695862,-0.564362,-81.55,74.6083,-62.9,-10322,-28501
1980,454573,-17.1509,-90.4541,18.1885,-87.4237,37.4414,-138.642,1.31113,-11.1638,0.368457,0.446869,-0.0110168,0.695587,-0.562347,-80.1833,74.75,-62.7583,-10322,-28501
1986,454579,-5.49316,-37.2314,-38.8794,-87.3248,37.0624,-138.439,6.25898,-6.87627,-0.866113,0.448486,-0.0172119,0.693573,-0.563385,-78.8667,74.8917,-62.6,-10322,-28501
1992,454585,20.6299,-8.78906,-130.676,-87.1216,35.6177,-138.362,7.67539,-6.91934,-2.2251,0.446136,-0.0213013,0.69278,-0.566101,-76.6083,75.0917,-62.3417,-10322,-28501
1998,454591,38.8184,8.36182,-158.203,-87.0117,34.6564,-138.505,8.81904,-8.69941,-2.41172,0.4422,-0.026001,0.692017,-0.569916,-75.6917,75.1667,-62.275,-10322,-28501
2004,454597,60.6689,20.9961,-171.692,-86.8414,33.6346,-138.741,9.5416,-7.996,-1.43555,0.437012,-0.0307312,0.691071,-0.574799,-74.95,75.25,-62.1833,-10322,-28501
2010,454603,68.6646,29.2358,-175.049,-86.6656,32.5964,-139.032,8.72334,-5.37852,-0.607715,0.43103,-0.0351257,0.689789,-0.580566,-74.375,75.3333,-62.1417,-10322,-28501
2016,454609,65.979,28.3203,-177.612,-86.4954,31.5582,-139.345,4.58896,-0.693848,-0.406738,0.418182,-0.0432434,0.687042,-0.592529,-73.9583,75.4083,-62.175,-10322,-28501
2022,454615,60.4858,18.5547,-181.641,-86.1548,29.4434,-139.894,2.90459,1.24414,-0.234473,0.411652,-0.0474548,0.685638,-0.598389,-73.475,75.5167,-62.3083,-10322,-28501
2028,454621,50.1099,6.83594,-187.683,-86.0065,28.3392,-140.087,2.00977,2.35908,0.105273,0.405212,-0.0520935,0.684174,-0.604065,-73.3667,75.575,-62.425,-10322,-28501
2034,454627,35.6445,-9.64355,-193.42,-85.8911,27.2021,-140.191,2.08154,2.61748,0.425879,0.398926,-0.0574036,0.682678,-0.609436,-73.3917,75.6083,-62.55,-10322,-28501
2040,454633,21.7285,-22.0337,-197.51,-85.8142,26.0431,-140.229,2.78496,1.82314,0.248828,0.392853,-0.0635681,0.681213,-0.61438,-73.5083,75.65,-62.7167,-10322,-28501
2046,454639,7.99561,-35.2783,-209.9,-85.7703,24.8566,-140.24,3.55059,-0.92832,-0.267969,0.381012,-0.0776978,0.678589,-0.623047,-73.7417,75.7167,-62.8667,-10322,-28501
2052,454645,7.87354,-39.4897,-217.712,-85.7098,22.3682,-140.191,4.46455,-2.08633,-0.60293,0.375,-0.0853882,0.677246,-0.627136,-74.4417,75.8083,-63.1833,-10322,-28501
2058,454651,10.5591,-37.2314,-225.83,-85.6769,21.0663,-140.18,5.45029,-3.0625,-0.808691,0.368835,-0.0934448,0.675781,-0.631226,-74.8667,75.8167,-63.3167,-10322,-28501
2064,454657,16.1743,-32.2876,-234.131,-85.6329,19.726,-140.202,5.61777,-3.8999,-0.784766,0.362335,-0.101563,0.674164,-0.635437,-75.375,75.8167,-63.4167,-10322,-28501
2070,454663,22.7051,-29.3579,-242.126,-85.5615,18.3527,-140.246,5.7709,-4.40234,-0.325391,0.355408,-0.10968,0.672363,-0.639893,-75.9583,75.8,-63.5,-10322,-28501
2076,454669,29.7852,-18.6768,-257.202,-85.4736,16.9464,-140.328,5.2876,-3.95732,0.47373,0.340546,-0.125946,0.668121,-0.649353,-76.65,75.75,-63.5917,-10322,-28501
2082,454675,29.2358,-17.5781,-264.038,-85.3033,14.0295,-140.554,5.05791,-3.59365,0.875684,0.33252,-0.134064,0.665771,-0.654297,-78.2667,75.6167,-63.8583,-10322,-28501
2088,454681,26.6113,-16.0522,-269.897,-85.2319,12.5299,-140.68,5.06748,-3.26826,1.10059,0.324219,-0.142365,0.6633,-0.65918,-79.1833,75.5417,-64.0167,-10314,-28502
2094,454687,21.4233,-13.9771,-274.841,-85.1825,11.0083,-140.817,5.07705,-3.1917,1.4499,0.315674,-0.150787,0.660797,-0.663971,-80.0833,75.45,-64.175,-10314,-28502
2100,454693,15.2588,-12.2681,-279.053,-85.166,9.46472,-140.96,5.0627,-3.4166,1.56953,0.306854,-0.159332,0.658295,-0.668549,-81.075,75.35,-64.3583,-10314,-28502
2106,454699,5.43213,-8.72803,-284.302,-85.166,7.91016,-141.108,5.58428,-4.70381,1.65566,0.288544,-0.176788,0.653442,-0.677063,-82.125,75.2417,-64.5,-10314,-28502
2112,454705,2.62451,-7.08008,-286.194,-85.2209,4.78455,-141.438,5.58906,-5.73262,1.69873,0.279083,-0.185547,0.651031,-0.680969,-84.375,74.925,-64.675,-10314,-28502
2118,454711,1.89209,-4.21143,-288.757,-85.2484,3.2135,-141.619,5.38809,-6.90977,1.73223,0.26947,-0.194305,0.648621,-0.684692,-85.575,74.6667,-64.7417,-10314,-28502
2124,454717,2.92969,-3.17383,-291.26,-85.2704,1.63696,-141.801,4.90957,-7.9625,1.78008,0.259674,-0.203003,0.646088,-0.688354,-86.7417,74.4167,-64.7833,-10314,-28502
2130,454723,5.18799,-4.3335,-294.373,-85.2704,0.0439453,-141.982,4.27314,-8.98652,1.871,0.249786,-0.211639,0.643402,-0.691895,-87.9583,74.125,-64.8167,-10314,-28502
2136,454729,12.085,-14.0381,-302.246,-85.21,-3.16406,-142.278,3.00986,-10.5178,2.24424,0.22995,-0.229034,0.637299,-0.698853,-89.2083,73.7833,-64.8917,-10314,-28502
2142,454735,15.0146,-20.874,-305.786,-85.1495,-4.79004,-142.383,2.78018,-11.0968,2.34473,0.220123,-0.237946,0.633759,-0.70224,-91.8,73.0083,-64.975,-10314,-28502
2148,454741,17.8223,-26.9165,-309.021,-85.0726,-6.42151,-142.46,2.73232,-11.6423,2.7084,0.210388,-0.24704,0.629913,-0.705536,-93.1417,72.5833,-65.0333,-10314,-28502
2154,454747,20.4468,-33.6914,-311.951,-84.9847,-8.06396,-142.509,3.00029,-11.7763,2.65098,0.200806,-0.256256,0.625793,-0.70871,-94.45,72.15,-65.0583,-10314,-28502
2160,454753,21.5454,-37.5366,-314.209,-84.8914,-9.71741,-142.537,3.47881,-12.1064,2.85674,0.191345,-0.265656,0.621399,-0.711761,-95.7917,71.6667,-65.1333,-10314,-28502
2166,454759,23.5596,-41.5039,-317.749,-84.6881,-13.0188,-142.581,4.23965,-13.1687,2.98115,0.172546,-0.284576,0.611969,-0.717377,-97.1583,71.15,-65.1833,-10314,-28502
2172,454765,24.231,-41.5039,-320.251,-84.5837,-14.6777,-142.603,4.30664,-13.7573,3.00986,0.163177,-0.294037,0.606995,-0.719971,-99.9333,69.9417,-65.2167,-10314,-28502
2178,454771,24.4751,-40.6494,-322.51,-84.4684,-16.3367,-142.635,4.39277,-14.2741,2.9668,0.153748,-0.303436,0.601868,-0.722473,-101.333,69.25,-65.1917,-10314,-28502
2184,454777,24.4751,-38.9404,-324.463,-84.353,-18.0011,-142.685,4.4502,-14.8292,2.87109,0.144226,-0.312744,0.596588,-0.724823,-102.792,68.5167,-65.1417,-10314,-28502
2190,454783,25.0244,-38.269,-324.951,-84.2322,-19.6545,-142.74,4.62246,-15.2886,2.75146,0.134613,-0.32196,0.591187,-0.727051,-104.183,67.7917,-65.1,-10314,-28502
2196,454789,22.9492,-36.8042,-320.801,-83.9905,-22.923,-142.866,5.18711,-16.0638,2.54092,0.115356,-0.339996,0.580139,-0.731049,-105.567,67,-65.0667,-10314,-28502
2202,454795,21.1182,-36.3159,-317.444,-83.8806,-24.5215,-142.943,5.38809,-16.4705,2.45,0.105804,-0.348755,0.574585,-0.732758,-108.333,65.25,-64.9917,-10314,-28502
2208,454801,19.2871,-36.9263,-312.561,-83.7817,-26.0925,-143.015,5.57949,-16.7911,2.38301,0.096344,-0.3573,0.569031,-0.734253,-109.683,64.3,-64.975,-10314,-28502
2214,454807,16.6016,-37.7808,-307.678,-83.6938,-27.6306,-143.08,5.78047,-17.0208,2.24424,0.0870361,-0.365662,0.563568,-0.735535,-111.05,63.275,-64.9833,-10314,-28502
2220,454813,13.855,-39.0015,-303.04,-83.6224,-29.1412,-143.146,5.87617,-17.3893,2.37822,0.0778503,-0.37384,0.558167,-0.736572,-112.333,62.2833,-65.0167,-10314,-28502
2226,454819,6.71387,-40.0391,-299.255,-83.5455,-32.1185,-143.256,5.73262,-18.5999,2.75625,0.059906,-0.38974,0.547668,-0.737885,-114.908,60.125,-64.95,-10314,-28502
2232,454825,3.84521,-40.5884,-300.72,-83.5291,-33.6017,-143.311,5.26846,-19.3416,2.99551,0.0509338,-0.397522,0.542511,-0.73819,-116.175,58.9583,-64.8833,-10314,-28502
2238,454831,1.95313,-41.4429,-304.81,-83.5181,-35.1013,-143.366,4.9957,-20.1359,3.19648,0.0419312,-0.405273,0.537354,-0.738312,-117.408,57.7667,-64.7917,-10314,-28502
2244,454837,1.34277,-40.1611,-308.411,-83.5071,-36.6119,-143.432,4.97178,-20.8441,3.42617,0.0328064,-0.413055,0.532135,-0.738251,-118.625,56.5583,-64.7167,-10314,-28502
2250,454843,2.01416,-37.5977,-311.951,-83.4796,-38.1281,-143.52,4.78516,-21.4997,3.59365,0.0235291,-0.420776,0.526794,-0.738068,-119.758,55.4,-64.6417,-10314,-28502
2256,454849,5.61523,-28.9307,-313.904,-83.3313,-41.1603,-143.784,4.08174,-22.2845,4.34971,0.00469971,-0.435822,0.515686,-0.737549,-121.942,52.9167,-64.425,-10314,-28502
2262,454855,7.62939,-23.9868,-312.439,-83.1995,-42.6544,-143.976,3.74678,-22.3945,4.72773,-0.00479126,-0.442993,0.509918,-0.737305,-123.017,51.625,-64.2417,-10314,-28502
2268,454861,8.8501,-16.1133,-310.181,-83.0182,-44.1321,-144.229,3.7085,-22.3084,5.03398,-0.0142822,-0.44986,0.504028,-0.737061,-124.075,50.2917,-64.0417,-10314,-28502
2274,454867,9.0332,-5.49316,-305.786,-82.771,-45.5713,-144.569,3.73721,-22.3467,5.10576,-0.0238342,-0.456299,0.498108,-0.736877,-125.1,48.9083,-63.875,-10314,-28502
2280,454873,9.33838,6.71387,-299.927,-82.4414,-46.9666,-145.009,3.53623,-22.5046,4.89522,-0.0334167,-0.462219,0.492188,-0.736786,-126.042,47.575,-63.725,-10314,-28502
2286,454879,10.8032,36.377,-283.997,-81.4801,-49.5923,-146.266,2.37822,-22.5764,3.31133,-0.0527039,-0.472137,0.480499,-0.737091,-127.808,44.85,-63.45,-10314,-28502
2292,454885,13.0615,51.3306,-273.376,-80.8099,-50.7953,-147.107,0.976172,-22.1361,2.21074,-0.0623779,-0.475952,0.474762,-0.73761,-128.6,43.4333,-63.3333,-10314,-28502
2298,454891,16.4795,65.5518,-259.644,-80.0079,-51.9104,-148.085,-1.55039,-20.959,2.0624,-0.0718994,-0.479004,0.469086,-0.738403,-129.35,42.0083,-63.2583,-10314,-28502
2304,454897,19.3481,71.228,-239.075,-79.1345,-52.9047,-149.123,-5.79482,-18.4611,2.97637,-0.0811768,-0.481232,0.463531,-0.739502,-130.058,40.5833,-63.2,-10314,-28502
2310,454903,8.91113,68.8477,-214.539,-78.3105,-53.7616,-150.156,-8.97695,-17.8151,0.272754,-0.0977783,-0.483765,0.453918,-0.741791,-130.717,39.1667,-63.15,-10322,-28501
2316,454909,8.30078,59.5703,-157.166,-76.7889,-55.014,-152.084,-17.3175,-21.4949,-2.83281,-0.104889,-0.484131,0.450317,-0.742767,-131.833,36.4333,-63.225,-10322,-28501
2322,454915,11.8408,47.5464,-127.014,-76.1517,-55.415,-152.847,-21.6433,-20.9159,-3.88076,-0.110718,-0.484131,0.447266,-0.743774,-132.3,35.1167,-63.3083,-10322,-28501
2328,454921,10.0098,37.4146,-98.2666,-75.6409,-55.6732,-153.479,-26.1413,-19.8871,-3.89033,-0.115173,-0.483917,0.444824,-0.74469,-132.725,33.825,-63.4333,-10322,-28501
2334,454927,4.63867,24.353,-73.7915,-75.2838,-55.816,-153.946,-29.3569,-18.2937,-2.72275,-0.118469,-0.483368,0.443146,-0.745544,-133.058,32.5833,-63.575,-10322,-28501
2340,454933,-7.32422,6.28662,-48.8281,-75.1575,-55.849,-154.204,-29.3521,-16.0494,-1.11973,-0.122101,-0.482025,0.442413,-0.746277,-133.35,31.4167,-63.7167,-10322,-28501
2346,454939,-40.3442,-0.305176,8.66699,-75.4486,-55.5029,-154.369,-20.3273,-15.2981,1.27764,-0.12265,-0.481018,0.443817,-0.746002,-133.9,29.375,-63.9833,-10322,-28501
2352,454945,-47.2412,7.50732,37.9639,-75.6683,-55.0964,-154.44,-16.0973,-16.3317,1.50732,-0.122559,-0.479187,0.446289,-0.745697,-134.117,28.4833,-64.1167,-10322,-28501
2358,454951,-46.936,19.5313,63.2935,-75.8496,-54.5526,-154.561,-12.2787,-16.9873,1.32549,-0.121796,-0.476501,0.449585,-0.745575,-134.325,27.675,-64.25,-10322,-28501
2364,454957,-40.8936,34.3018,81.9702,-75.9375,-53.9044,-154.764,-9.97705,-17.3271,0.980957,-0.120422,-0.4729,0.453278,-0.74585,-134.533,26.9917,-64.3583,-10322,-28501
2370,454963,-32.5317,45.8374,94.4214,-75.9265,-53.1793,-155.028,-9.08701,-17.4802,0.693848,-0.116425,-0.46344,0.460785,-0.747833,-134.7,26.4083,-64.475,-10322,-28501
2376,454969,-17.2729,53.5889,106.079,-75.7452,-51.6193,-155.627,-8.45059,-15.9824,0.0574219,-0.113983,-0.458069,0.464294,-0.749329,-134.942,25.4917,-64.6917,-10322,-28501
2382,454975,-14.5264,49.4385,109.619,-75.6683,-50.8228,-155.874,-8.16826,-14.9153,-0.368457,-0.111267,-0.452606,0.467621,-0.750977,-135.033,25.1917,-64.7833,-10322,-28501
2388,454981,-13.916,40.2222,114.38,-75.6519,-50.0098,-156.033,-7.99121,-14.0205,-0.239258,-0.108307,-0.447174,0.470947,-0.752594,-135.092,24.9667,-64.875,-10322,-28501
2394,454987,-17.1509,27.2217,119.08,-75.7397,-49.1968,-156.088,-7.45049,-13.1927,-0.521582,-0.105011,-0.441956,0.474365,-0.753998,-135.117,24.8333,-65,-10322,-28501
2400,454993,-52.063,-135.864,174.316,-76.9592,-48.3289,-154.863,42.9659,-27.0457,21.4662,-0.0932312,-0.436279,0.484375,-0.752472,-135.133,24.775,-65.125,-10322,-28501
2406,454999,125.305,166.321,162.415,-76.1133,-46.0986,-155.127,5.49814,3.5458,-20.1359,-0.084137,-0.432892,0.488464,-0.752869,-135.15,24.8667,-65.3083,-10322,-28501
2412,455005,23.1323,38.9404,173.584,-76.0089,-45.0659,-155.182,20.0977,9.58467,3.89512,-0.0796509,-0.423157,0.487549,-0.75946,-135.133,25,-65.4083,-10322,-28501
2418,455011,-48.8281,112.61,193.115,-75.9265,-43.8684,-155.704,22.7247,6.10107,18.6382,-0.0740662,-0.417084,0.49054,-0.761444,-135.1,25.1917,-65.4917,-10322,-28501
2424,455017,-78.125,122.375,212.952,-75.9814,-42.572,-156.253,5.94795,6.40254,2.45,-0.0708008,-0.407959,0.49588,-0.763245,-135.042,25.475,-65.575,-10322,-28501
2430,455023,-127.319,83.6792,219.421,-76.4648,-41.2976,-156.533,3.07207,-1.47383,8.2209,-0.0642395,-0.388947,0.510681,-0.764008,-134.95,25.8417,-65.7167,-10305,-28503
2436,455029,-147.766,81.9092,229.126,-77.6019,-38.6884,-157.072,-1.06709,-2.80889,4.87607,-0.0606689,-0.379822,0.519287,-0.763092,-134.658,26.7583,-66.0583,-10305,-28503
2442,455035,-173.767,78.6133,222.473,-78.316,-37.4249,-157.352,-4.72773,-8.37402,4.5124,-0.0572815,-0.370514,0.528107,-0.761871,-134.483,27.3417,-66.2167,-10305,-28503
2448,455041,-174.683,61.9507,206.299,-79.0741,-36.2494,-157.566,-7.09639,-14.5899,3.57451,-0.0544434,-0.361328,0.537567,-0.759857,-134.275,28.0333,-66.4083,-10305,-28503
2454,455047,-161.499,22.4609,198.975,-79.8926,-35.1563,-157.566,-2.59834,-20.0594,2.59834,-0.0516968,-0.352997,0.546722,-0.757416,-134.025,28.7917,-66.6,-10305,-28503
2460,455053,-135.01,-5.31006,196.777,-80.6671,-34.0906,-157.418,3.7707,-28.7971,-6.2542,-0.0433655,-0.340271,0.563049,-0.751801,-133.742,29.6167,-66.7667,-10305,-28503
2466,455059,14.1602,19.104,184.509,-80.9692,-32.0636,-157.28,5.51729,-19.8584,-1.64609,-0.0376587,-0.33493,0.567841,-0.750916,-133.158,31.3583,-66.9917,-10305,-28503
2472,455065,17.1509,27.6489,181.152,-80.8704,-31.0638,-157.352,1.42119,-13.4128,3.65107,-0.0318298,-0.328827,0.570374,-0.751953,-132.817,32.225,-67.0917,-10305,-28503
2478,455071,10.9253,0.915527,171.265,-80.8704,-30.1355,-157.275,-1.76094,-12.7955,5.46465,-0.0263062,-0.32254,0.572693,-0.753113,-132.442,33.0917,-67.15,-10305,-28503
2484,455077,3.60107,-25.7568,156.372,-80.9747,-29.306,-157.066,-0.732129,-12.6185,3.81377,-0.0205383,-0.317352,0.575012,-0.753723,-132.058,33.95,-67.1833,-10305,-28503
2490,455083,-5.31006,-30.4565,138.062,-81.1285,-28.5699,-156.846,2.55527,-16.1116,-2.34951,-0.00946045,-0.310089,0.579742,-0.753357,-131.675,34.8333,-67.1917,-10305,-28503
2496,455089,18.1274,-7.93457,111.267,-81.145,-27.29,-156.621,3.28262,-15.8484,-3.01943,-0.00479126,-0.306885,0.581421,-0.753418,-130.933,36.4917,-67.2083,-10305,-28503
2502,455095,20.3857,16.1133,91.7358,-81.0297,-26.7572,-156.703,2.36387,-16.882,-2.27773,-0.000732422,-0.303528,0.582611,-0.753876,-130.6,37.2667,-67.2167,-10305,-28503
2508,455101,29.6631,29.8462,72.4487,-80.8319,-26.3068,-156.879,1.98584,-15.0924,-2.15811,0.00204468,-0.299866,0.583466,-0.754669,-130.3,38.0167,-67.2417,-10305,-28503
2514,455107,31.6772,39.6729,58.0444,-80.6012,-25.9222,-157.115,3.13906,-11.7284,-0.832617,0.0039978,-0.296234,0.583801,-0.755859,-129.975,38.7083,-67.2917,-10305,-28503
2520,455113,14.2212,61.8286,47.3633,-80.4034,-25.5707,-157.478,-0.827832,-11.8768,2.35908,0.00527954,-0.288666,0.584351,-0.758331,-129.65,39.3417,-67.3583,-10305,-28503
2526,455119,20.5078,28.8696,31.311,-80.0684,-25.0378,-158.115,0.186621,-9.03916,4.12959,0.00448608,-0.284637,0.584961,-0.759369,-129.033,40.5333,-67.3833,-10305,-28503
2532,455125,6.89697,21.8506,28.8086,-79.9915,-24.8126,-158.275,2.34473,-6.0293,4.30186,0.00494385,-0.282135,0.585022,-0.760284,-128.725,41.0667,-67.4,-10305,-28503
2538,455131,-11.8408,20.2026,25.6348,-80.0134,-24.6094,-158.428,1.34941,-7.79502,3.39746,0.00534058,-0.279938,0.585449,-0.760773,-128.442,41.55,-67.4417,-10305,-28503
2544,455137,-15.4419,8.78906,18.8599,-80.0739,-24.4501,-158.527,0.899609,-10.2929,2.25859,0.00540161,-0.277863,0.586456,-0.760742,-128.183,42.0167,-67.525,-10305,-28503
2550,455143,-11.4746,3.66211,12.8174,-80.1288,-24.3182,-158.588,3.096,-9.37412,1.37813,0.0057373,-0.275269,0.588287,-0.760284,-127.925,42.4583,-67.6333,-10297,-28504
2556,455149,-11.3525,2.80762,10.5591,-80.2277,-24.082,-158.736,2.4165,-9.6708,1.46426,0.00579834,-0.274109,0.589081,-0.760071,-127.483,43.225,-67.9,-10297,-28504
2562,455155,-10.6201,-2.92969,7.8125,-80.2826,-23.9941,-158.785,2.54092,-9.6708,1.63652,0.00582886,-0.273041,0.589844,-0.759857,-127.275,43.5583,-67.9833,-10297,-28504
2568,455161,-10.498,-3.96729,5.67627,-80.343,-23.9172,-158.829,3.029,-9.50811,1.16758,0.00588989,-0.272247,0.590576,-0.759583,-127.108,43.8833,-68.0333,-10297,-28504
2574,455167,-9.8877,-3.23486,4.02832,-80.3979,-23.8458,-158.873,3.25391,-9.49375,1.02881,0.00588989,-0.271545,0.591248,-0.759308,-126.942,44.1667,-68.0833,-10297,-28504
2580,455173,-8.8501,-3.05176,1.89209,-80.4419,-23.7854,-158.923,2.79453,-9.29756,1.7083,0.00576782,-0.270233,0.592438,-0.75885,-126.775,44.4167,-68.1583,-10297,-28504
2586,455179,-8.11768,-5.85938,0.183105,-80.5408,-23.6865,-159.011,2.99551,-9.40762,1.74658,0.00564575,-0.269623,0.592987,-0.758636,-126.5,44.875,-68.2417,-10297,-28504
2592,455185,-7.56836,-6.46973,-0.976563,-80.5847,-23.6536,-159.044,3.32568,-9.38848,1.44512,0.00552368,-0.269165,0.593506,-0.758392,-126.375,45.0667,-68.275,-10297,-28504
2598,455191,-7.26318,-7.32422,-1.09863,-80.6342,-23.6206,-159.077,3.64629,-9.33584,1.30156,0.00537109,-0.268799,0.593964,-0.758148,-126.242,45.2417,-68.3083,-10297,-28504
2604,455197,-7.01904,-6.40869,-1.09863,-80.6781,-23.5876,-159.109,3.81377,-9.25928,1.20586,0.00524902,-0.268433,0.594421,-0.757935,-126.133,45.4167,-68.3417,-10297,-28504
2610,455203,-6.71387,-5.37109,-1.0376,-80.722,-23.5602,-159.148,3.30176,-9.33584,1.48818,0.00491333,-0.26767,0.595337,-0.757477,-126.042,45.575,-68.3167,-10297,-28504
2616,455209,-6.5918,-5.7373,-1.52588,-80.8044,-23.5052,-159.225,3.52666,-9.3502,1.27764,0.00473022,-0.267303,0.595764,-0.757294,-125.883,45.8,-68.2917,-10297,-28504
2622,455215,-5.7373,-5.12695,-2.0752,-80.8429,-23.4833,-159.263,3.86162,-9.33105,1.02402,0.0045166,-0.266937,0.596191,-0.75708,-125.825,45.9167,-68.2417,-10297,-28504
2628,455221,-4.69971,-3.72314,-0.976563,-80.8704,-23.4558,-159.313,3.8999,-9.20186,0.957031,0.00430298,-0.266602,0.596558,-0.756897,-125.775,46.025,-68.2083,-10297,-28504
2634,455227,-4.21143,-2.44141,-0.610352,-80.8923,-23.4283,-159.368,3.77549,-9.29756,1.09102,0.00405884,-0.266205,0.596924,-0.756744,-125.725,46.1083,-68.1833,-10297,-28504
2640,455233,-3.90625,-2.19727,0.366211,-80.9143,-23.3954,-159.417,3.61758,-9.221,1.22021,0.00360107,-0.265289,0.597595,-0.756561,-125.683,46.175,-68.1583,-10297,-28504
2646,455239,-3.60107,-2.19727,0.305176,-80.9583,-23.335,-159.527,3.62715,-9.1875,1.3542,0.00335693,-0.264801,0.597961,-0.756439,-125.633,46.3583,-68.0917,-10297,-28504
2652,455245,-3.479,-2.62451,0.610352,-80.9802,-23.3075,-159.576,3.5793,-9.08701,1.37334,0.00311279,-0.264374,0.598267,-0.756348,-125.583,46.45,-68.1,-10297,-28504
2658,455251,-3.96729,-2.74658,0.671387,-81.0022,-23.28,-159.626,3.68936,-9.11094,1.34463,0.00289917,-0.263916,0.598602,-0.756256,-125.542,46.5333,-68.1167,-10297,-28504
2664,455257,-3.479,-2.62451,0.610352,-81.0242,-23.2526,-159.675,3.5793,-9.03916,1.26807,0.00268555,-0.263489,0.598938,-0.756134,-125.525,46.6333,-68.1167,-10297,-28504
2670,455263,-3.05176,-3.05176,1.09863,-81.0516,-23.2251,-159.725,3.61758,-9.221,1.33027,0.0022583,-0.262634,0.599609,-0.75589,-125.517,46.7083,-68.1417,-10297,-28504
2676,455269,-2.68555,-3.23486,1.46484,-81.0901,-23.1702,-159.813,3.85684,-8.97217,1.19629,0.00204468,-0.262238,0.599915,-0.755798,-125.475,46.7667,-68.1833,-10297,-28504
2682,455275,-2.62451,-2.50244,2.56348,-81.1121,-23.1372,-159.862,3.88555,-9.10615,1.16279,0.00186157,-0.26181,0.600189,-0.755707,-125.475,46.8083,-68.2083,-10297,-28504
2688,455281,-1.89209,-1.77002,3.35693,-81.123,-23.1042,-159.911,3.77549,-9.19707,1.07666,0.00170898,-0.261383,0.600494,-0.755615,-125.467,46.8583,-68.2167,-10297,-28504
2694,455287,-1.34277,-1.64795,3.41797,-81.134,-23.0658,-159.966,3.63193,-9.23535,0.980957,0.00152588,-0.260895,0.6008,-0.755554,-125.45,46.9,-68.1917,-10297,-28504
2700,455293,0.976563,-1.46484,5.00488,-81.1395,-22.9889,-160.065,3.94297,-9.06787,0.832617,0.00125122,-0.259888,0.601257,-0.755524,-125.442,46.925,-68.2167,-10297,-28504
2706,455299,2.01416,0,6.40869,-81.1285,-22.9395,-160.12,4.23486,-9.27842,0.76084,0.00115967,-0.259369,0.601471,-0.755524,-125.383,46.9917,-68.15,-10297,-28504
2712,455305,2.68555,1.09863,7.8125,-81.1176,-22.8845,-160.181,4.13916,-9.06787,0.698633,0.00106812,-0.258759,0.601685,-0.755585,-125.342,47.025,-68.1417,-10297,-28504
2718,455311,2.86865,1.95313,9.0332,-81.1066,-22.8241,-160.247,3.93818,-9.10137,0.923535,0.00100708,-0.258118,0.601868,-0.755676,-125.308,47.0667,-68.125,-10297,-28504
2724,455317,3.23486,2.62451,9.82666,-81.0901,-22.7582,-160.313,3.62236,-9.19707,1.15801,0.000976563,-0.257385,0.602051,-0.755737,-125.283,47.1167,-68.1,-10297,-28504
2730,455323,3.17383,1.64795,9.76563,-81.0626,-22.6318,-160.439,3.53623,-9.07266,1.23936,0.000915527,-0.25592,0.602448,-0.755951,-125.275,47.1667,-68.0917,-10297,-28504
2736,455329,2.74658,1.46484,9.21631,-81.0516,-22.5714,-160.499,3.25869,-8.99131,1.3877,0.000915527,-0.255219,0.602631,-0.756042,-125.275,47.2,-68.0667,-10297,-28504
2742,455335,2.38037,0.610352,8.66699,-81.0461,-22.5165,-160.554,3.029,-9.0918,1.57432,0.000854492,-0.254517,0.602814,-0.756104,-125.275,47.2167,-68.0417,-10297,-28504
2748,455341,2.13623,-0.976563,7.50732,-81.0406,-22.467,-160.604,2.94287,-9.07266,1.5791,0.000823975,-0.253876,0.603027,-0.756165,-125.275,47.25,-68.025,-10297,-28504
2754,455347,1.77002,-2.31934,6.5918,-81.0406,-22.4231,-160.648,3.10078,-9.01523,1.44512,0.000793457,-0.253296,0.60321,-0.756226,-125.275,47.275,-68.0417,-10297,-28504
2760,455353,1.64795,-3.23486,5.37109,-81.0461,-22.3517,-160.724,3.25391,-9.10137,1.32549,0.000671387,-0.25235,0.603577,-0.756226,-125.242,47.2917,-68.0417,-10297,-28504
2766,455359,1.28174,-2.92969,4.88281,-81.0461,-22.3187,-160.768,3.27305,-9.10615,1.40684,0.000640869,-0.251923,0.60376,-0.756226,-125.225,47.3667,-67.9917,-10297,-28504
2772,455365,1.40381,-3.54004,4.57764,-81.0516,-22.2858,-160.801,3.37832,-9.12529,1.38291,0.000549316,-0.251526,0.603943,-0.756226,-125.2,47.4083,-67.975,-10297,-28504
2778,455371,1.28174,-4.02832,4.57764,-81.0571,-22.2583,-160.84,3.59365,-9.08223,1.27285,0.000488281,-0.251129,0.604095,-0.756226,-125.175,47.45,-67.9667,-10297,-28504
2784,455377,0.854492,-3.72314,5.00488,-81.0626,-22.2253,-160.873,3.88555,-9.0918,1.03359,0.000427246,-0.250763,0.604279,-0.756226,-125.142,47.5083,-67.9833,-10297,-28504
2790,455383,0.854492,-2.19727,7.87354,-81.0736,-22.1375,-160.95,4.00996,-9.07744,0.961816,0.000305176,-0.249939,0.604675,-0.756165,-125.125,47.55,-67.95,-10297,-28504
2796,455389,0.793457,-1.15967,9.39941,-81.0791,-22.088,-160.994,3.90469,-9.07744,0.92832,0.000305176,-0.24942,0.604889,-0.756165,-125.108,47.6083,-67.9917,-10297,-28504
2802,455395,1.34277,-0.244141,9.8877,-81.0791,-22.0276,-161.043,3.63193,-9.19707,0.885254,0.000305176,-0.248871,0.605133,-0.756165,-125.125,47.65,-67.9833,-10297,-28504
2808,455401,2.2583,-1.2207,10.6812,-81.0791,-21.9727,-161.087,3.56494,-9.07744,1.1293,0.000305176,-0.24826,0.605377,-0.756165,-125.125,47.6917,-67.9833,-10297,-28504
2814,455407,1.64795,-0.244141,10.9253,-81.0791,-21.9122,-161.131,3.5123,-9.02959,1.23936,0.000366211,-0.247681,0.60556,-0.756195,-125.117,47.725,-68,-10297,-28504
2820,455413,1.58691,-0.915527,11.1694,-81.0791,-21.7859,-161.219,3.36396,-9.11572,1.30635,0.000457764,-0.246429,0.606018,-0.756256,-125.083,47.7417,-68.0333,-10297,-28504
2826,455419,1.83105,-0.976563,11.2305,-81.0791,-21.7255,-161.263,3.27783,-9.19229,1.3542,0.000518799,-0.245819,0.606232,-0.756256,-125.067,47.8,-68.0917,-10297,-28504
2832,455425,1.70898,-1.89209,10.9253,-81.0791,-21.6705,-161.301,3.34004,-9.14922,1.26328,0.000579834,-0.245209,0.606476,-0.756287,-125.042,47.8167,-68.125,-10297,-28504
2838,455431,1.83105,-2.2583,10.9863,-81.0791,-21.6101,-161.334,3.49795,-9.05352,1.34941,0.000671387,-0.244659,0.606689,-0.756287,-125.017,47.825,-68.1833,-10297,-28504
2844,455437,0.793457,-1.34277,10.8032,-81.0846,-21.5552,-161.378,3.35918,-9.15879,1.20107,0.000762939,-0.24411,0.606903,-0.756287,-124.983,47.8667,-68.2167,-10297,-28504
2850,455443,1.52588,-2.38037,11.1084,-81.0956,-21.4343,-161.444,3.44531,-9.11094,1.225,0.00088501,-0.242981,0.607361,-0.756287,-124.942,47.9,-68.25,-10297,-28504
2856,455449,1.34277,-2.0752,11.7798,-81.0956,-21.3739,-161.483,3.64629,-9.14443,1.225,0.000976563,-0.242432,0.607574,-0.756287,-124.875,47.925,-68.25,-10297,-28504
2862,455455,1.46484,-2.44141,13.1226,-81.1011,-21.308,-161.516,3.76592,-9.221,0.851758,0.00109863,-0.241852,0.607819,-0.756287,-124.842,47.9583,-68.2,-10297,-28504
2868,455461,1.28174,-1.58691,14.1602,-81.1066,-21.2366,-161.548,3.82334,-9.18272,0.818262,0.00125122,-0.241272,0.608063,-0.756287,-124.817,47.9917,-68.1083,-10297,-28504
2874,455467,1.34277,-1.46484,15.8081,-81.1121,-21.1542,-161.581,4.01475,-9.21143,0.92832,0.00143433,-0.240631,0.608307,-0.756287,-124.783,48.0167,-68.025,-10297,-28504
2880,455473,0.793457,0.0610352,19.3481,-81.1176,-21.0663,-161.62,3.74678,-9.11094,1.04316,0.00189209,-0.239166,0.608887,-0.756287,-124.742,48.0417,-67.95,-10297,-28504
2886,455479,0.610352,-0.12207,20.6299,-81.134,-20.863,-161.697,3.48838,-9.12529,1.13887,0.00216675,-0.238342,0.609192,-0.756287,-124.7,48.125,-67.775,-10297,-28504
2892,455485,0.915527,-0.854492,21.0571,-81.1395,-20.7587,-161.73,3.2874,-9.24971,1.33027,0.00250244,-0.237488,0.609558,-0.756256,-124.675,48.1583,-67.725,-10297,-28504
2898,455491,1.09863,-1.83105,21.3623,-81.1505,-20.6543,-161.763,3.41182,-9.1875,1.26807,0.00283813,-0.236664,0.609894,-0.756256,-124.642,48.2,-67.7083,-10305,-28503
2904,455497,0.549316,-1.58691,21.9116,-81.1615,-20.5499,-161.79,3.49316,-9.154,1.1293,0.00323486,-0.23587,0.610199,-0.756226,-124.608,48.2833,-67.7167,-10305,-28503
2910,455503,0.915527,-2.80762,25.0244,-81.178,-20.4346,-161.812,4.0291,-9.46025,1.14365,0.00411987,-0.234192,0.610931,-0.756165,-124.583,48.3667,-67.7083,-10305,-28503
2916,455509,1.46484,-1.28174,26.6724,-81.1945,-20.1819,-161.856,3.7707,-9.4459,0.842188,0.00466919,-0.233337,0.611298,-0.756134,-124.558,48.475,-67.8083,-10305,-28503
2922,455515,1.95313,-1.58691,27.5269,-81.2,-20.05,-161.878,3.64629,-9.74736,0.937891,0.00521851,-0.232391,0.611664,-0.756134,-124.542,48.5333,-67.875,-10305,-28503
2928,455521,3.72314,-4.15039,28.9917,-81.2054,-19.9127,-161.889,3.55059,-9.59902,1.14365,0.00579834,-0.231415,0.61203,-0.756134,-124.525,48.6167,-67.9333,-10305,-28503
2934,455527,4.45557,-3.479,29.7241,-81.2054,-19.7699,-161.9,3.73242,-9.54639,0.990527,0.00653076,-0.230499,0.612335,-0.756134,-124.475,48.6667,-67.9667,-10305,-28503
2940,455533,6.16455,-4.27246,35.7666,-81.2,-19.6161,-161.906,4.23008,-9.68516,0.899609,0.00811768,-0.228546,0.612915,-0.756256,-124.425,48.725,-68.0083,-10305,-28503
2946,455539,7.44629,-1.95313,37.9028,-81.178,-19.2645,-161.917,3.8999,-9.54639,0.741699,0.00909424,-0.227478,0.61322,-0.756317,-124.35,48.8833,-68.0333,-10305,-28503
2952,455545,8.17871,-3.90625,40.1001,-81.1615,-19.0778,-161.917,3.90947,-9.91484,0.866113,0.0100708,-0.226257,0.613495,-0.756439,-124.292,48.975,-68.0417,-10305,-28503
2958,455551,10.498,-4.02832,42.9077,-81.134,-18.8745,-161.917,3.9334,-9.87178,0.861328,0.0112,-0.225067,0.61377,-0.756592,-124.217,49.0417,-68.0417,-10305,-28503
2964,455557,11.4746,-7.75146,46.5088,-81.1121,-18.6548,-161.889,4.48848,-10.4604,0.689063,0.0124207,-0.223816,0.613983,-0.756775,-124.15,49.1333,-68.0333,-10305,-28503
2970,455563,16.3574,-12.2681,54.6265,-81.0736,-18.4186,-161.856,3.46924,-9.8957,0.837402,0.0155334,-0.221252,0.614319,-0.757172,-124.058,49.225,-68.0417,-10305,-28503
2976,455569,17.0898,-16.0522,56.6406,-80.9967,-17.9077,-161.724,3.88555,-10.0728,1.54561,0.0174255,-0.21994,0.614441,-0.757416,-123.867,49.3917,-68.0667,-10305,-28503
2982,455575,12.2681,-14.4653,63.3545,-80.9802,-17.6166,-161.647,7.11553,-10.4891,4.02432,0.0194702,-0.218719,0.614563,-0.757629,-123.775,49.5083,-68.0833,-10305,-28503
2988,455581,9.70459,0.244141,72.6318,-80.9583,-17.2705,-161.642,6.0915,-9.81914,2.84717,0.021637,-0.217285,0.614868,-0.757721,-123.675,49.65,-68.0917,-10305,-28503
2994,455587,0.732422,4.08936,78.3081,-80.9692,-16.9025,-161.647,5.20147,-10.3072,3.61758,0.0236816,-0.215149,0.615356,-0.757874,-123.575,49.7833,-68.0833,-10305,-28503
3000,455593,-5.79834,4.82178,86.1206,-81.0406,-16.0895,-161.664,3.61758,-10.6135,3.25391,0.0278625,-0.210144,0.617065,-0.757751,-123.45,49.925,-68.075,-10305,-28503
3006,455599,-10.5591,0.488281,88.8062,-81.1121,-15.672,-161.647,4.22529,-10.9963,3.79463,0.0300903,-0.20752,0.618134,-0.757538,-123.208,50.2667,-68.0333,-10305,-28503
3012,455605,-13.5498,2.86865,92.8955,-81.189,-15.2325,-161.636,5.85225,-11.7619,4.69424,0.0324707,-0.204956,0.619324,-0.757141,-123.058,50.4417,-67.9833,-10314,-28502
3018,455611,-17.7612,8.42285,98.999,-81.2878,-14.7601,-161.653,5.53164,-11.5322,4.1918,0.0348816,-0.20224,0.620636,-0.756683,-122.892,50.65,-67.975,-10314,-28502
3024,455617,-21.3013,9.09424,103.882,-81.3977,-14.2657,-161.669,5.18232,-11.8768,3.49316,0.0372925,-0.199188,0.622131,-0.756165,-122.717,50.9,-67.9583,-10314,-28502
3030,455623,-27.2827,7.32422,116.455,-81.6669,-13.2001,-161.675,5.69434,-12.5706,2.76582,0.0425415,-0.192719,0.625519,-0.754761,-122.333,51.4667,-67.9583,-10314,-28502
3036,455629,-29.1138,6.95801,123.169,-81.8207,-12.6178,-161.664,5.79004,-12.7955,2.92373,0.0454407,-0.18927,0.62738,-0.753906,-122.117,51.7583,-68,-10314,-28502
3042,455635,-30.3955,8.05664,130.371,-81.98,-11.9971,-161.658,6.10107,-12.7237,3.05293,0.048584,-0.185669,0.629364,-0.75296,-121.875,52.1,-68.0083,-10314,-28502
3048,455641,-31.0669,8.66699,138.062,-82.1393,-11.3434,-161.653,5.9623,-12.4893,3.20127,0.0519104,-0.181824,0.631409,-0.751984,-121.608,52.475,-67.9917,-10314,-28502
3054,455647,-35.7056,7.8125,144.897,-82.3206,-10.6622,-161.642,5.79482,-12.5323,3.32568,0.0591736,-0.173584,0.635742,-0.749725,-121.317,52.875,-68,-10314,-28502
3060,455653,-41.8091,2.13623,161.865,-82.738,-9.17908,-161.565,5.74219,-12.9343,1.79443,0.0631714,-0.16922,0.638153,-0.748352,-120.608,53.7417,-68.025,-10314,-28502
3066,455659,-42.6636,-1.28174,170.959,-82.9633,-8.37708,-161.499,6.22549,-13.1161,1.75615,0.0675354,-0.164795,0.640656,-0.746826,-120.267,54.1917,-68.0417,-10314,-28502
3072,455665,-43.0908,-2.68555,181.58,-83.1885,-7.53113,-161.417,6.61787,-12.5467,1.49775,0.0722961,-0.160217,0.643188,-0.745178,-119.875,54.6417,-68.0417,-10314,-28502
3078,455671,-47.3022,-5.12695,191.406,-83.4357,-6.63574,-161.323,6.3499,-12.5275,0.846973,0.0774231,-0.155396,0.645782,-0.743439,-119.467,55.1,-68.0167,-10314,-28502
3084,455677,-48.7671,-8.8501,201.782,-83.6938,-5.69092,-161.208,6.3499,-12.9869,0.890039,0.0887146,-0.145233,0.651306,-0.73941,-119.025,55.6,-67.925,-10314,-28502
3090,455683,-52.8564,-17.2729,223.938,-84.2212,-3.65295,-160.911,6.39775,-14.0014,-0.239258,0.0950623,-0.139893,0.654083,-0.737183,-118,56.6417,-67.7,-10314,-28502
3096,455689,-52.3682,-26.062,235.901,-84.4958,-2.55432,-160.708,6.9624,-15.48,-0.0287109,0.101807,-0.13443,0.657013,-0.734711,-117.475,57.15,-67.6167,-10314,-28502
3102,455695,-46.3257,-33.9355,250.61,-84.7375,-1.39526,-160.466,8.14912,-15.2407,0.535937,0.109161,-0.128876,0.659882,-0.732056,-116.908,57.7167,-67.4833,-10314,-28502
3108,455701,-45.105,-34.4238,266.541,-84.9683,-0.153809,-160.219,8.13955,-14.2215,0.492871,0.117188,-0.123169,0.662537,-0.729401,-116.317,58.3417,-67.3333,-10314,-28502
3114,455707,-52.2461,-35.0342,281.067,-85.2264,1.14258,-159.966,7.89072,-14.6952,2.10547,0.134644,-0.110474,0.667969,-0.72345,-115.658,58.975,-67.1833,-10314,-28502
3120,455713,-57.0068,-36.9873,311.584,-85.7593,3.97156,-159.428,10.4412,-14.3172,2.49785,0.144104,-0.103699,0.670807,-0.720001,-114.175,60.3583,-66.8667,-10314,-28502
3126,455719,-60.9131,-27.3438,328.735,-86.0449,5.50415,-159.214,10.5273,-14.8292,1.59346,0.153931,-0.096405,0.673645,-0.716309,-113.408,61.0417,-66.6917,-10322,-28501
3132,455725,-62.561,-22.644,346.68,-86.3306,7.12463,-159.022,9.64688,-15.9489,1.225,0.16394,-0.0883789,0.676605,-0.712311,-112.592,61.7417,-66.525,-10322,-28501
3138,455731,-64.3311,-21.3623,362.244,-86.6217,8.81653,-158.84,8.43145,-16.8581,0.693848,0.174286,-0.0797119,0.679596,-0.708038,-111.733,62.45,-66.3417,-10322,-28501
3144,455737,-68.7256,-28.2593,376.16,-86.9238,10.5798,-158.626,7.996,-18.241,0.492871,0.19632,-0.0612488,0.685455,-0.698395,-110.775,63.2,-66.1,-10322,-28501
3150,455743,-70.8618,-36.6821,400.879,-87.5061,14.2712,-158.148,6.69922,-18.8774,0.961816,0.208038,-0.0516663,0.688171,-0.693085,-108.567,64.725,-65.6,-10322,-28501
3156,455749,-81.604,-43.396,410.156,-87.8357,16.1884,-157.874,5.1584,-18.6717,0.866113,0.220154,-0.0419006,0.690735,-0.687408,-107.308,65.4833,-65.3167,-10322,-28501
3162,455755,-98.6938,-54.5654,413.208,-88.2202,18.1165,-157.549,4.33057,-20.8585,0.856543,0.232666,-0.0321655,0.69339,-0.681122,-106.083,66.2167,-65.05,-10322,-28501
3168,455761,-99.3042,-73.6694,419.495,-88.5718,20.0775,-157.132,6.44561,-21.9495,0.344531,0.245483,-0.0228577,0.696198,-0.674072,-104.758,66.9583,-64.7417,-10322,-28501
3174,455767,-105.164,-70.9229,422.729,-88.9453,22.0496,-156.742,7.12031,-23.7392,0.842188,0.272369,-0.00491333,0.701019,-0.658997,-103.358,67.6917,-64.4,-10322,-28501
3180,455773,-96.3135,-79.3457,423.828,-89.577,25.9991,-155.912,7.11074,-22.9305,0.957031,0.285828,0.00405884,0.703033,-0.651093,-100.308,69.125,-63.5917,-10322,-28501
3186,455779,-101.624,-84.8999,417.969,-89.8627,27.9437,-155.457,8.4123,-23.0549,0.885254,0.299286,0.0129089,0.70462,-0.643188,-98.675,69.8083,-63.1417,-10322,-28501
3192,455785,-102.234,-88.7451,414.124,-90.0824,29.8663,-154.869,11.8337,-23.787,-0.569434,0.312622,0.0213623,0.706024,-0.63501,-97.0917,70.4333,-62.7083,-10322,-28501
3198,455791,-98.6328,-73.6084,407.043,-90.3131,31.7505,-154.374,13.7143,-23.8684,-1.04316,0.326477,0.0289917,0.70694,-0.626678,-95.4333,71.0083,-62.275,-10322,-28501
3204,455797,-81.4819,-66.4063,397.461,-90.4724,33.5742,-153.924,14.0827,-18.0879,-0.904395,0.351868,0.0447998,0.708099,-0.610474,-93.7083,71.575,-61.8333,-10322,-28501
3210,455803,-34.9731,-83.7402,357.849,-90.3461,36.925,-152.875,16.5231,-12.5228,-1.34941,0.36377,0.0523071,0.707672,-0.603333,-90.0833,72.5583,-61.0167,-10322,-28501
3216,455809,-6.22559,-85.7544,328.918,-90.022,38.3807,-152.303,18.3606,-4.48848,-2.63184,0.375122,0.0592651,0.706299,-0.597321,-88.225,72.9667,-60.6333,-10322,-28501
3222,455815,23.7427,-93.2007,303.162,-89.5111,39.6936,-151.683,19.7292,3.97168,-7.01982,0.385498,0.0657654,0.704132,-0.59259,-86.4417,73.325,-60.3083,-10322,-28501
3228,455821,40.1001,-21.6064,282.837,-89.22,40.8966,-151.54,15.5996,9.27842,-5.05312,0.395142,0.0718079,0.701111,-0.589111,-84.65,73.6083,-59.975,-10322,-28501
3234,455827,0,88.9893,149.353,-89.6045,41.4404,-152.122,-12.1352,-12.561,-0.60293,0.401825,0.0848999,0.700134,-0.583984,-82.8667,73.8333,-59.6833,-10322,-28501
3240,455833,46.3867,-42.7246,-42.6636,-88.8904,41.1053,-151.617,9.06309,-8.41709,0.392383,0.403137,0.0850525,0.6987,-0.584747,-79.3917,74.1417,-59.1417,-10322,-28501
3246,455839,46.9971,25.5127,-109.009,-88.786,40.3583,-151.815,9.32627,-4.69424,0.76084,0.402161,0.0822449,0.697083,-0.587769,-77.7917,74.2667,-58.925,-10314,-28502
3252,455845,41.626,15.4419,-163.452,-88.6761,39.342,-151.963,8.80947,-3.10557,-0.143555,0.397339,0.0791931,0.696869,-0.591675,-76.375,74.3667,-58.7333,-10314,-28502
3258,455851,41.687,30.4565,-200.378,-88.6322,38.1445,-152.221,13.0778,-3.72285,-1.67002,0.391388,0.0741882,0.696808,-0.596375,-75.1333,74.4583,-58.625,-10314,-28502
3264,455857,50.7202,54.7485,-218.323,-88.6432,36.8536,-152.65,13.0587,-3.79463,-0.961816,0.375031,0.0630493,0.69751,-0.607239,-74.0667,74.5667,-58.575,-10314,-28502
3270,455863,60.9131,65.5518,-223.938,-88.6212,34.2224,-153.622,11.5849,-2.39736,-0.76084,0.365692,0.0577698,0.697784,-0.613129,-72.4833,74.7583,-58.55,-10314,-28502
3276,455869,58.3496,65.979,-219.482,-88.6157,32.9315,-154.127,9.6708,-1.12451,-0.593359,0.35611,0.0526733,0.698029,-0.618896,-71.9583,74.8333,-58.5583,-10314,-28502
3282,455875,51.8188,60.2417,-214.966,-88.6212,31.6626,-154.594,7.97207,-0.0861328,-0.210547,0.346588,0.0477295,0.698273,-0.624451,-71.6,74.9167,-58.5583,-10314,-28502
3288,455881,44.1895,52.7954,-213.806,-88.6322,30.3992,-155.017,6.01494,0.598145,-0.30625,0.33725,0.0426636,0.698517,-0.629608,-71.3417,75,-58.5833,-10314,-28502
3294,455887,38.3911,39.978,-217.773,-88.6322,29.1193,-155.369,2.82324,1.36855,-0.579004,0.319275,0.0314941,0.698944,-0.639069,-71.2083,75.1,-58.6333,-10314,-28502
3300,455893,25.5737,8.11768,-237.244,-88.5828,26.4166,-155.803,2.5457,0.698633,-0.60293,0.310577,0.0249023,0.699036,-0.643555,-71.2917,75.3,-58.825,-10314,-28502
3306,455899,22.0337,-5.06592,-249.39,-88.5388,24.9774,-155.901,3.096,-0.47373,-0.631641,0.302063,0.0174255,0.699005,-0.647888,-71.4833,75.4167,-58.9,-10314,-28502
3312,455905,21.7896,-13.7329,-262.024,-88.4784,23.4778,-155.956,3.76592,-1.67002,-0.746484,0.293549,0.00918579,0.698822,-0.652161,-71.8,75.5,-58.9667,-10314,-28502
3318,455911,23.6206,-19.5313,-274.17,-88.396,21.9177,-155.984,4.23008,-2.94766,-0.75127,0.284912,0.000305176,0.698425,-0.656464,-72.1667,75.5917,-59.0417,-10314,-28502
3324,455917,36.0718,-25.0244,-303.101,-88.2861,20.2972,-155.989,4.5459,-4.85693,-1.02881,0.266907,-0.0188904,0.696838,-0.665375,-72.6583,75.675,-59.1,-10314,-28502
3330,455923,44.9829,-26.3672,-316.589,-87.9401,16.842,-156,4.98135,-5.06748,-0.813477,0.257355,-0.0291138,0.695496,-0.670135,-73.95,75.7833,-59.2833,-10314,-28502
3336,455929,52.2461,-26.4893,-327.209,-87.7148,15.0348,-156.006,5.37373,-4.83779,-0.569434,0.247467,-0.0396729,0.693695,-0.675171,-74.7417,75.7917,-59.375,-10314,-28502
3342,455935,56.6406,-26.3672,-336.365,-87.4731,13.1836,-156.022,5.25889,-4.54111,-0.330176,0.237213,-0.0504761,0.691498,-0.680359,-75.6083,75.775,-59.475,-10314,-28502
3348,455941,58.2275,-28.1372,-342.468,-87.2205,11.3104,-156.039,5.15361,-4.15352,0.100488,0.226715,-0.0614624,0.688995,-0.685547,-76.4833,75.75,-59.5833,-10314,-28502
3354,455947,50.5371,-30.8838,-348.389,-86.9788,9.42078,-156.05,4.76123,-3.50752,0.77998,0.205261,-0.0840149,0.683319,-0.695526,-77.4583,75.7,-59.7333,-10314,-28502
3360,455953,43.5181,-35.7056,-348.511,-86.5833,5.625,-156.055,4.49805,-3.73242,0.937891,0.194427,-0.095459,0.680359,-0.700043,-79.6583,75.5,-60.05,-10305,-28503
3366,455959,36.0718,-39.978,-348.45,-86.4404,3.72986,-156.028,4.50283,-4.31621,1.12451,0.183685,-0.107117,0.677399,-0.704132,-80.8833,75.3667,-60.1917,-10305,-28503
3372,455965,28.6255,-41.9922,-348.145,-86.3306,1.84021,-155.995,4.61289,-5.32588,1.15322,0.173004,-0.118896,0.674438,-0.707794,-82.175,75.1833,-60.3583,-10305,-28503
3378,455971,22.7661,-43.396,-346.863,-86.2537,-0.0274658,-155.956,4.45498,-6.67529,1.26807,0.162384,-0.130737,0.671509,-0.710999,-83.4417,74.9917,-60.55,-10305,-28503
3384,455977,17.5781,-47.9736,-347.656,-86.1328,-3.76282,-155.836,4.0626,-9.71865,1.46904,0.141327,-0.154419,0.665497,-0.71637,-84.7667,74.7667,-60.75,-10305,-28503
3390,455983,18.7378,-50.293,-349.487,-86.0779,-5.63049,-155.764,3.81377,-11.1351,1.81357,0.130859,-0.16629,0.662323,-0.718628,-87.575,74.1833,-61.0667,-10305,-28503
3396,455989,20.4468,-52.4902,-351.868,-86.012,-7.49817,-155.676,3.62715,-12.2213,2.30645,0.120453,-0.178162,0.658936,-0.720734,-89.0417,73.8,-61.1667,-10305,-28503
3402,455995,21.9727,-53.772,-355.774,-85.9406,-9.37683,-155.588,3.69414,-12.7429,2.56484,0.110077,-0.190094,0.655243,-0.722687,-90.5583,73.3917,-61.2083,-10305,-28503
3408,456001,22.2168,-53.1616,-358.337,-85.8691,-11.2555,-155.506,3.96689,-13.1305,3.14863,0.0996704,-0.202057,0.651337,-0.724487,-92.1083,72.9333,-61.1917,-10305,-28503
3414,456007,21.5454,-48.4619,-362.854,-85.7208,-15.0293,-155.38,5.3833,-13.5181,3.64629,0.0786438,-0.225769,0.642883,-0.727631,-93.5917,72.4667,-61.1917,-10305,-28503
3420,456013,20.2026,-42.0532,-362.183,-85.6439,-16.9025,-155.358,5.95273,-13.7813,3.83291,0.0679626,-0.237427,0.638397,-0.728912,-96.6667,71.35,-61.1917,-10305,-28503
3426,456019,18.6157,-35.9497,-359.924,-85.567,-18.7592,-155.369,6.0915,-14.2406,4.02432,0.0571594,-0.248779,0.63385,-0.730072,-98.2167,70.7333,-61.2,-10305,-28503
3432,456025,16.6626,-30.0293,-357.239,-85.4791,-20.5829,-155.418,5.8666,-14.9153,3.94775,0.0462646,-0.259766,0.629181,-0.731018,-99.7833,70.0583,-61.2417,-10305,-28503
3438,456031,15.0757,-25.2075,-354.248,-85.3967,-22.3901,-155.49,5.62734,-15.5278,3.99082,0.0353088,-0.270355,0.624512,-0.731812,-101.358,69.3333,-61.2667,-10305,-28503
3444,456037,11.3525,-19.4092,-347.717,-85.2155,-25.9167,-155.698,5.00049,-16.7576,4.00518,0.0133667,-0.290527,0.61499,-0.732849,-102.858,68.6167,-61.2917,-10305,-28503
3450,456043,8.97217,-19.104,-344.666,-85.1276,-27.6471,-155.819,4.90479,-17.4754,4.05303,0.00250244,-0.300201,0.610199,-0.733093,-105.933,67,-61.2417,-10305,-28503
3456,456049,7.38525,-20.1416,-342.773,-85.0507,-29.3555,-155.934,4.87607,-18.4181,4.03389,-0.00823975,-0.309631,0.605377,-0.733124,-107.467,66.0833,-61.225,-10305,-28503
3462,456055,6.53076,-21.1792,-341.431,-84.9738,-31.0529,-156.044,4.99092,-19.3512,3.97168,-0.0188904,-0.318939,0.600525,-0.73291,-109.017,65.1167,-61.2083,-10305,-28503
3468,456061,6.53076,-22.2778,-342.773,-84.8969,-32.7502,-156.16,4.8665,-20.6384,4.04824,-0.0294495,-0.328125,0.595642,-0.732513,-110.55,64.1,-61.1917,-10305,-28503
3474,456067,12.5122,-25.1465,-352.905,-84.6936,-36.189,-156.385,4.6751,-22.873,3.99082,-0.0504761,-0.346436,0.585327,-0.731232,-111.992,63.1,-61.1917,-10305,-28503
3480,456073,17.0288,-24.6582,-360.291,-84.5453,-37.9468,-156.511,4.71338,-23.7057,3.8377,-0.0610352,-0.355682,0.579773,-0.730408,-114.808,60.9333,-61.1917,-10314,-28502
3486,456079,22.0947,-21.9727,-367.31,-84.353,-39.7321,-156.676,4.85693,-24.2799,3.72764,-0.0717468,-0.36499,0.573822,-0.729553,-116.183,59.7833,-61.1917,-10314,-28502
3492,456085,25.7568,-16.9067,-373.169,-84.1058,-41.5338,-156.885,4.86172,-24.4234,3.59365,-0.0825806,-0.374268,0.567505,-0.728638,-117.55,58.5417,-61.1667,-10314,-28502
3498,456091,26.7334,-9.27734,-376.709,-83.8037,-43.3466,-157.17,4.72295,-24.4521,3.48359,-0.0936279,-0.383392,0.560852,-0.727722,-118.883,57.2167,-61.1333,-10314,-28502
3504,456097,21.9727,10.498,-373.901,-83.0182,-46.9061,-158.016,4.10566,-24.634,2.73711,-0.116333,-0.400635,0.546967,-0.725708,-121.442,54.4667,-61.025,-10314,-28502
3510,456103,17.1509,23.2544,-367.371,-82.5183,-48.62,-158.61,3.49795,-24.878,2.3208,-0.12796,-0.408478,0.539978,-0.724609,-122.65,53.025,-61.025,-10314,-28502
3516,456109,11.2915,36.8042,-357.178,-81.936,-50.2679,-159.346,2.69883,-25.347,1.98584,-0.139679,-0.415588,0.533112,-0.72348,-123.825,51.525,-61.025,-10314,-28502
3522,456115,5.18799,51.8188,-344.604,-81.2549,-51.828,-160.236,1.31592,-25.6293,1.78008,-0.151428,-0.421875,0.526428,-0.722382,-124.983,49.9917,-61.0417,-10314,-28502
3528,456121,3.84521,66.4063,-328.735,-80.4364,-53.2837,-161.285,-1.12451,-25.1651,3.61758,-0.163177,-0.427246,0.52002,-0.721313,-126.083,48.425,-61.0667,-10314,-28502
3534,456127,-11.4136,82.8247,-279.663,-78.6017,-55.7721,-163.691,-7.26865,-24.835,-0.287109,-0.18576,-0.435242,0.507874,-0.719727,-128.1,45.25,-61.2,-10314,-28502
3540,456133,-9.70459,91.4307,-249.207,-77.58,-56.7554,-165.031,-11.9294,-29.5627,-3.17256,-0.196259,-0.437683,0.502838,-0.719025,-129.017,43.6833,-61.325,-10314,-28502
3546,456139,6.40869,87.8906,-216.98,-76.5033,-57.5629,-166.333,-16.5566,-31.9074,-6.2207,-0.205902,-0.439087,0.498199,-0.718658,-129.892,42.1167,-61.4917,-10314,-28502
3552,456145,25.2075,82.8247,-181.885,-75.3882,-58.1781,-167.558,-21.4519,-30.8308,-8.36445,-0.214081,-0.439941,0.493774,-0.718811,-130.675,40.5333,-61.6917,-10314,-28502
3558,456151,35.8276,75.9277,-148.743,-74.3225,-58.6176,-168.668,-27.864,-27.1318,-9.27842,-0.220612,-0.440308,0.489471,-0.719543,-131.392,38.9833,-61.925,-10314,-28502
3564,456157,15.9302,39.1846,-89.7827,-72.8503,-59.079,-170.233,-38.8985,-18.9157,-6.63701,-0.229462,-0.439758,0.482574,-0.721771,-132.642,36.1,-62.4417,-10314,-28502
3570,456163,-16.3574,6.89697,-61.0352,-72.7679,-59.1504,-170.486,-39.2287,-16.6715,-4.89522,-0.232117,-0.439209,0.480927,-0.722351,-133.167,34.7417,-62.7167,-10314,-28502
3576,456169,-50.293,-14.2212,-26.4282,-73.1195,-59.0735,-170.442,-34.2378,-17.1309,-3.61279,-0.233734,-0.438721,0.481201,-0.721954,-133.642,33.475,-63.025,-10314,-28502
3582,456175,-70.2515,-10.8643,11.5967,-73.6304,-58.8043,-170.321,-27.8783,-19.2268,-3.00029,-0.234406,-0.437744,0.483429,-0.720825,-134.05,32.275,-63.275,-10314,-28502
3588,456181,-78.0029,1.46484,49.0112,-74.1577,-58.3374,-170.211,-22.6099,-20.6719,-2.17246,-0.234283,-0.435638,0.487,-0.719727,-134.433,31.2,-63.5,-10314,-28502
3594,456187,-74.3408,37.2925,103.271,-74.9652,-56.9147,-170.288,-14.8292,-21.1121,-1.98584,-0.231842,-0.427704,0.496185,-0.719055,-135.083,29.3833,-63.9083,-10322,-28501
3600,456193,-111.023,-76.1719,169.495,-76.4154,-55.9698,-169.266,27.0074,-38.2908,10.5082,-0.229858,-0.422028,0.501038,-0.719635,-135.367,28.6917,-64.0917,-10322,-28501
3606,456199,-137.634,38.5132,305.42,-77.3438,-54.245,-169.036,36.1519,-39.1809,17.6524,-0.224091,-0.418152,0.509308,-0.717926,-135.633,28.15,-64.25,-10322,-28501
3612,456205,92.8955,274.963,249.695,-75.509,-52.5092,-170.81,-13.0443,-17.7673,-38.6258,-0.217163,-0.40741,0.519562,-0.718872,-135.842,27.75,-64.4167,-10322,-28501
3618,456211,75.1343,70.1904,240.356,-75.1355,-51.0699,-170.887,15.1067,19.1119,-6.50303,-0.213196,-0.392609,0.519318,-0.728424,-135.975,27.5083,-64.625,-10322,-28501
3624,456217,-133.606,193.787,280.579,-75.2948,-47.5269,-172.738,5.22539,-6.13457,6.26377,-0.202728,-0.368988,0.529938,-0.736084,-136.083,27.5583,-65.075,-10322,-28501
3630,456223,-109.375,122.803,284.363,-75.6189,-45.8295,-173.123,4.43584,-1.55039,2.61748,-0.199799,-0.35379,0.537689,-0.738708,-136.067,27.7167,-65.3417,-10322,-28501
3636,456229,-160.095,154.663,284.973,-76.0364,-44.1046,-173.732,6.97676,-0.91875,7.996,-0.194641,-0.340912,0.545166,-0.740631,-135.975,28.0083,-65.6667,-10322,-28501
3642,456235,-183.594,186.34,289.734,-76.4429,-42.3248,-174.545,0.229688,-2.94766,6.55088,-0.19101,-0.326538,0.553833,-0.741669,-135.8,28.45,-66.0167,-10322,-28501
3648,456241,-196.655,167.725,291.199,-77.0087,-40.567,-175.237,-5.37852,-7.72324,7.08682,-0.185181,-0.295288,0.572174,-0.74231,-135.583,29.0417,-66.4,-10322,-28501
3654,456247,-180.42,94.7266,277.954,-78.4369,-37.2766,-176.056,-11.2595,-22.3132,5.76611,-0.181549,-0.280823,0.581421,-0.741638,-134.95,30.5917,-67.2333,-10322,-28501
3660,456253,-130.432,38.0249,268.494,-79.14,-35.7825,-176.017,-8.47451,-28.5339,0.535937,-0.176697,-0.268066,0.59024,-0.74057,-134.592,31.4417,-67.6083,-10322,-28501
3666,456259,-61.2793,19.3481,252.625,-79.541,-34.3872,-175.897,-4.33057,-28.577,-0.210547,-0.170105,-0.257721,0.597595,-0.739868,-134.208,32.4,-67.9083,-10322,-28501
3672,456265,-16.9678,6.71387,247.253,-79.7443,-33.0359,-175.726,-2.96201,-25.7585,2.10547,-0.16272,-0.248901,0.60257,-0.740509,-133.742,33.4083,-68.2,-10322,-28501
3678,456271,8.54492,-5.61523,230.652,-79.8431,-31.778,-175.501,-5.18232,-25.8303,5.87139,-0.146637,-0.233978,0.60849,-0.743896,-133.233,34.475,-68.4833,-10322,-28501
3684,456277,32.8369,-89.6606,183.899,-80.0684,-29.751,-174.375,0.440234,-14.6569,0.808691,-0.137665,-0.229645,0.609711,-0.745941,-132.233,36.7,-68.9833,-10322,-28501
3690,456283,17.8833,-66.5283,166.687,-80.2386,-28.8721,-173.886,3.90947,-15.5996,-3.66543,-0.128632,-0.226807,0.611267,-0.747162,-131.742,37.75,-69.225,-10322,-28501
3696,456289,5.85938,-28.5645,138.916,-80.354,-28.0975,-173.644,5.22061,-19.3607,-8.27354,-0.120941,-0.223602,0.612976,-0.748016,-131.258,38.7583,-69.4417,-10322,-28501
3702,456295,-6.71387,36.8652,94.7876,-80.343,-27.4933,-173.815,3.92861,-22.4854,-10.5082,-0.115326,-0.219849,0.614594,-0.748688,-130.792,39.7667,-69.6083,-10322,-28501
3708,456301,22.2168,90.5762,71.5942,-80.0464,-26.9604,-174.293,3.23955,-19.6766,-6.50781,-0.112701,-0.209412,0.615723,-0.75116,-130.367,40.75,-69.7417,-10305,-28503
3714,456307,29.9072,93.9331,63.0493,-79.2499,-25.9662,-175.397,-2.03369,-2.68926,8.49365,-0.113068,-0.203369,0.614563,-0.753693,-129.475,42.5417,-69.9583,-10305,-28503
3720,456313,-18.9209,39.5508,58.0444,-79.2828,-25.5432,-175.605,-6.07236,-3.16777,8.93389,-0.113068,-0.197815,0.613983,-0.755646,-129.033,43.3667,-70.1167,-10305,-28503
3726,456319,-38.6963,-5.92041,41.687,-79.5135,-25.2466,-175.583,-5.48379,-10.7905,6.76143,-0.112152,-0.193939,0.615204,-0.755798,-128.6,44.125,-70.3,-10305,-28503
3732,456325,-28.6255,-25.0854,25.0244,-79.7223,-25.0433,-175.474,-1.65088,-11.5514,3.78506,-0.110748,-0.191895,0.617126,-0.754974,-128.167,44.8083,-70.5,-10305,-28503
3738,456331,-29.7241,-24.5361,16.7236,-79.9365,-24.8895,-175.375,2.45,-9.13486,0.837402,-0.108124,-0.190308,0.620087,-0.753326,-127.725,45.4417,-70.65,-10305,-28503
3744,456337,-32.7148,-6.71387,12.6953,-80.3375,-24.5819,-175.353,2.1916,-11.0106,1.28242,-0.107452,-0.189209,0.621704,-0.75235,-127.017,46.625,-70.8417,-10305,-28503
3750,456343,-25.0854,-11.9629,7.93457,-80.4968,-24.4611,-175.331,1.44033,-10.7857,0.91875,-0.106964,-0.18808,0.623138,-0.751526,-126.717,47.1167,-70.8833,-10305,-28503
3756,456349,-21.1182,-19.5923,5.7373,-80.6451,-24.3622,-175.276,2.55527,-9.77129,0.239258,-0.106415,-0.187256,0.624298,-0.750824,-126.442,47.5583,-70.9,-10305,-28503
3762,456355,-19.7754,-14.7705,4.21143,-80.7825,-24.2688,-175.243,3.64629,-10.1015,0.0143555,-0.105713,-0.186798,0.625336,-0.750183,-126.192,47.975,-70.9,-10305,-28503
3768,456361,-15.9912,-10.7422,4.88281,-80.8868,-24.1754,-175.232,3.12471,-10.0823,1.23936,-0.104767,-0.185577,0.627106,-0.749115,-125.975,48.3583,-70.85,-10305,-28503
3774,456367,-10.9863,-10.376,3.54004,-81.0571,-23.9941,-175.226,3.16777,-9.57988,1.33027,-0.104431,-0.184906,0.627838,-0.748749,-125.542,49,-70.825,-10305,-28503
3780,456373,-10.6201,-9.39941,3.2959,-81.134,-23.9117,-175.226,3.43574,-9.99619,0.976172,-0.104034,-0.184326,0.628479,-0.748413,-125.375,49.2917,-70.8417,-10305,-28503
3786,456379,-8.05664,-9.76563,3.72314,-81.1945,-23.8293,-175.221,3.93818,-9.56553,0.976172,-0.103668,-0.183716,0.629089,-0.748077,-125.225,49.5583,-70.8583,-10305,-28503
3792,456385,-7.99561,-7.26318,5.18799,-81.2549,-23.7415,-175.226,4.02432,-9.24492,0.846973,-0.103271,-0.183167,0.629608,-0.747833,-125.083,49.8083,-70.8667,-10305,-28503
3798,456391,-8.17871,-5.00488,6.22559,-81.3098,-23.6481,-175.248,3.61279,-9.80957,0.875684,-0.102631,-0.181732,0.630676,-0.747375,-124.942,50.025,-70.8583,-10305,-28503
3804,456397,-4.57764,-4.94385,7.99561,-81.3922,-23.4613,-175.287,3.95254,-9.221,0.856543,-0.102295,-0.181,0.631104,-0.747223,-124.758,50.4667,-70.8167,-10305,-28503
3810,456403,-4.63867,-1.83105,8.72803,-81.4252,-23.3624,-175.32,3.66543,-9.43633,1.17236,-0.101929,-0.180267,0.631531,-0.747131,-124.683,50.6583,-70.7667,-10305,-28503
3816,456409,-4.39453,-1.83105,8.72803,-81.4526,-23.2635,-175.353,3.23477,-9.47461,1.44512,-0.101624,-0.179382,0.631927,-0.747009,-124.608,50.8333,-70.75,-10305,-28503
3822,456415,-3.66211,-2.99072,7.99561,-81.4801,-23.1702,-175.38,3.07207,-9.41719,1.6126,-0.101349,-0.178558,0.632324,-0.746948,-124.542,50.9917,-70.725,-10305,-28503
3828,456421,-3.54004,-4.08936,7.38525,-81.5131,-23.0823,-175.402,3.096,-9.38848,1.28242,-0.100769,-0.177063,0.633026,-0.746765,-124.492,51.15,-70.65,-10297,-28504
3834,456427,-2.68555,-5.92041,5.67627,-81.5735,-22.934,-175.435,3.21563,-9.57988,1.0001,-0.100525,-0.176453,0.633362,-0.746674,-124.317,51.4,-70.5667,-10297,-28504
3840,456433,-2.01416,-5.79834,5.31006,-81.5955,-22.868,-175.452,3.26826,-9.41719,0.875684,-0.10025,-0.175873,0.633667,-0.746582,-124.258,51.5417,-70.4917,-10297,-28504
3846,456439,-1.52588,-5.12695,4.94385,-81.6174,-22.7966,-175.468,3.09121,-9.41719,0.77041,-0.0999756,-0.175323,0.633942,-0.74649,-124.208,51.675,-70.4333,-10297,-28504
3852,456445,-0.549316,-5.67627,4.3335,-81.6339,-22.7362,-175.485,3.14863,-9.221,1.02402,-0.099762,-0.174774,0.634216,-0.746429,-124.175,51.775,-70.3833,-10297,-28504
3858,456451,-0.854492,-5.49316,3.78418,-81.6559,-22.6813,-175.501,2.97158,-9.33105,0.966602,-0.0993652,-0.173798,0.634674,-0.746338,-124.158,51.85,-70.3583,-10297,-28504
3864,456457,0,-6.04248,2.31934,-81.6833,-22.5879,-175.54,3.14863,-9.15879,0.933105,-0.0992432,-0.173401,0.634857,-0.746277,-124.133,52.0167,-70.3583,-10297,-28504
3870,456463,-0.12207,-5.18799,2.13623,-81.6998,-22.5385,-175.556,3.29219,-9.221,0.799121,-0.0990906,-0.172974,0.63504,-0.746246,-124.125,52.075,-70.3667,-10297,-28504
3876,456469,0.549316,-4.94385,2.01416,-81.7108,-22.4945,-175.578,3.24912,-9.29277,0.645996,-0.098999,-0.172577,0.635223,-0.746185,-124.1,52.125,-70.3833,-10297,-28504
3882,456475,1.40381,-4.94385,2.68555,-81.7163,-22.4506,-175.6,3.49795,-9.28799,0.703418,-0.0989075,-0.17215,0.635376,-0.746155,-124.067,52.175,-70.375,-10297,-28504
3888,456481,2.80762,-2.86865,3.479,-81.7163,-22.4066,-175.627,3.64629,-9.30713,0.526367,-0.0987244,-0.171326,0.63562,-0.746185,-124.033,52.2417,-70.3417,-10297,-28504
3894,456487,4.27246,-1.70898,4.57764,-81.6998,-22.3077,-175.693,3.76592,-9.30713,0.478516,-0.0986328,-0.170837,0.635712,-0.746216,-123.967,52.3417,-70.35,-10297,-28504
3900,456493,5.12695,-0.610352,5.31006,-81.6833,-22.2473,-175.732,3.73242,-9.30713,0.535937,-0.0985413,-0.170319,0.635773,-0.746307,-123.942,52.3917,-70.3583,-10297,-28504
3906,456499,6.04248,0,6.5918,-81.6614,-22.1869,-175.776,3.67979,-9.21143,0.555078,-0.0984802,-0.169739,0.635803,-0.746429,-123.917,52.4417,-70.3667,-10297,-28504
3912,456505,6.83594,1.40381,7.26318,-81.6339,-22.1265,-175.825,3.5793,-9.26406,0.550293,-0.0983887,-0.169128,0.635803,-0.746582,-123.883,52.475,-70.375,-10297,-28504
3918,456511,7.26318,2.0752,9.27734,-81.601,-22.0551,-175.869,3.48838,-9.13486,0.890039,-0.098175,-0.167786,0.635712,-0.746948,-123.825,52.475,-70.3583,-10297,-28504
3924,456517,7.62939,2.38037,9.39941,-81.5405,-21.9122,-175.974,3.22998,-9.13965,1.02881,-0.098053,-0.167084,0.635681,-0.747162,-123.733,52.5333,-70.2833,-10297,-28504
3930,456523,7.44629,2.50244,9.58252,-81.5076,-21.8408,-176.028,3.07207,-9.04873,1.1293,-0.0979614,-0.166351,0.635651,-0.747375,-123.7,52.5417,-70.2833,-10297,-28504
3936,456529,7.08008,1.64795,9.70459,-81.4801,-21.7694,-176.078,2.99072,-9.04873,1.18672,-0.0978394,-0.165619,0.63562,-0.747589,-123.675,52.5583,-70.325,-10297,-28504
3942,456535,7.20215,1.58691,9.09424,-81.4471,-21.7035,-176.122,2.90459,-9.08701,1.16758,-0.0977173,-0.164917,0.63559,-0.747772,-123.658,52.6,-70.3583,-10297,-28504
3948,456541,6.7749,1.58691,8.54492,-81.4197,-21.6376,-176.171,2.93809,-9.08701,1.22021,-0.0975037,-0.163574,0.635498,-0.748169,-123.642,52.6333,-70.3833,-10314,-28502
3954,456547,6.46973,0.488281,8.30078,-81.3647,-21.5112,-176.265,2.87109,-9.10615,1.26328,-0.0974121,-0.162903,0.635468,-0.748352,-123.583,52.6833,-70.4,-10314,-28502
3960,456553,6.34766,0.183105,8.36182,-81.3428,-21.4508,-176.303,2.97637,-9.09658,1.20107,-0.0973206,-0.162292,0.635437,-0.748505,-123.558,52.6917,-70.3917,-10314,-28502
3966,456559,6.04248,0.366211,7.87354,-81.3208,-21.3904,-176.347,2.8998,-9.17793,1.14365,-0.0971985,-0.161713,0.635437,-0.748688,-123.55,52.7167,-70.3667,-10314,-28502
3972,456565,6.40869,-0.488281,7.8125,-81.2988,-21.3354,-176.38,2.95723,-9.2832,1.10059,-0.0971069,-0.161102,0.635406,-0.74884,-123.55,52.725,-70.375,-10314,-28502
3978,456571,7.14111,-1.64795,8.54492,-81.2714,-21.2805,-176.413,3.37354,-9.12051,0.995313,-0.0968628,-0.160034,0.635345,-0.749146,-123.533,52.7167,-70.3833,-10314,-28502
3984,456577,6.5918,-0.732422,9.82666,-81.2274,-21.1542,-176.479,3.56494,-9.0918,0.990527,-0.0967102,-0.159515,0.635315,-0.749329,-123.483,52.7417,-70.4083,-10314,-28502
3990,456583,5.79834,-0.793457,11.5967,-81.2109,-21.0828,-176.512,3.6415,-9.0583,0.966602,-0.0965271,-0.158936,0.635284,-0.749481,-123.45,52.7333,-70.425,-10314,-28502
3996,456589,4.88281,-0.671387,12.7563,-81.1945,-21.0059,-176.539,3.67021,-9.18272,0.880469,-0.0963135,-0.158295,0.635315,-0.749634,-123.408,52.725,-70.4667,-10314,-28502
4002,456595,4.82178,-0.610352,14.2822,-81.1835,-20.9235,-176.572,3.73242,-9.27842,0.846973,-0.0960693,-0.157654,0.635376,-0.749756,-123.4,52.7333,-70.4917,-10314,-28502
4008,456601,4.3335,-0.915527,16.8457,-81.178,-20.8301,-176.6,3.8042,-9.1875,0.90918,-0.0954285,-0.156189,0.635529,-0.75,-123.392,52.7667,-70.5083,-10314,-28502
4014,456607,2.2583,-0.854492,19.8975,-81.178,-20.6213,-176.644,3.54102,-9.24492,1.10059,-0.0950012,-0.155426,0.635681,-0.750092,-123.367,52.8333,-70.5583,-10314,-28502
4020,456613,1.95313,-1.58691,20.3857,-81.1835,-20.5115,-176.666,3.24912,-9.28799,1.20586,-0.094574,-0.154602,0.635864,-0.750153,-123.342,52.9,-70.5917,-10314,-28502
4026,456619,1.52588,-1.83105,21.1792,-81.1945,-20.4016,-176.682,3.01943,-9.24014,1.30635,-0.0940857,-0.153778,0.636047,-0.750214,-123.292,52.9583,-70.6,-10314,-28502
4032,456625,1.0376,-2.92969,21.3013,-81.2054,-20.2917,-176.693,2.97637,-9.27363,1.37334,-0.0935974,-0.152924,0.636261,-0.750275,-123.217,53,-70.625,-10314,-28502
4038,456631,1.15967,-3.23486,21.8506,-81.2219,-20.1764,-176.704,3.26826,-9.27363,1.27285,-0.0924988,-0.151337,0.636749,-0.750336,-123.133,53.05,-70.6583,-10314,-28502
4044,456637,0.12207,-3.96729,22.9492,-81.2549,-19.9402,-176.715,3.32568,-9.46982,1.05752,-0.0919189,-0.150513,0.636993,-0.750366,-123,53.2,-70.6833,-10314,-28502
4050,456643,1.52588,-4.63867,24.0479,-81.2714,-19.8193,-176.715,3.41182,-9.59902,0.957031,-0.0913086,-0.149719,0.637268,-0.750366,-122.958,53.275,-70.6917,-10314,-28502
4056,456649,2.86865,-5.49316,25.9399,-81.2769,-19.693,-176.71,3.48359,-9.49375,0.885254,-0.0906372,-0.148926,0.637482,-0.750397,-122.9,53.3167,-70.6917,-10314,-28502
4062,456655,2.92969,-5.18799,27.771,-81.2878,-19.5502,-176.704,3.62236,-9.5416,1.17236,-0.0898743,-0.148102,0.637695,-0.750488,-122.858,53.375,-70.6667,-10314,-28502
4068,456661,3.54004,-3.54004,28.4424,-81.2878,-19.4128,-176.71,3.34482,-9.68037,0.880469,-0.0882874,-0.146301,0.638092,-0.750702,-122.817,53.4333,-70.6417,-10314,-28502
4074,456667,6.22559,-5.61523,30.4565,-81.2823,-19.1162,-176.693,3.7085,-9.90527,0.593359,-0.0874329,-0.145355,0.638245,-0.750854,-122.717,53.525,-70.6083,-10322,-28501
4080,456673,7.62939,-6.65283,34.1187,-81.2714,-18.9514,-176.671,4.22529,-10.0919,0.593359,-0.0865173,-0.14447,0.638367,-0.751038,-122.667,53.625,-70.6167,-10322,-28501
4086,456679,9.8877,-9.52148,38.6353,-81.2549,-18.7646,-176.633,4.39756,-10.3072,0.411523,-0.0854492,-0.143494,0.638458,-0.751251,-122.617,53.75,-70.6083,-10322,-28501
4092,456685,12.8784,-12.085,43.2739,-81.2329,-18.5614,-176.578,3.9334,-10.1493,0.114844,-0.084137,-0.142517,0.638519,-0.751526,-122.567,53.8417,-70.6417,-10322,-28501
4098,456691,15.4419,-19.6533,49.4385,-81.2109,-18.3527,-176.506,4.94307,-10.2977,1.54082,-0.0809021,-0.140564,0.638519,-0.752258,-122.492,53.9333,-70.6833,-10322,-28501
4104,456697,14.2212,-18.9819,56.9458,-81.1725,-17.8638,-176.303,5.75654,-10.7283,2.02891,-0.078949,-0.139679,0.638489,-0.752655,-122.358,54.15,-70.7833,-10322,-28501
4110,456703,10.498,-13.4888,67.5659,-81.167,-17.5507,-176.221,8.83818,-11.3887,3.9334,-0.0767822,-0.13855,0.63855,-0.753021,-122.283,54.2417,-70.825,-10322,-28501
4116,456709,8.17871,7.38525,78.9795,-81.1395,-17.1661,-176.237,7.03418,-10.3934,2.76104,-0.0744629,-0.136963,0.638733,-0.753387,-122.175,54.3417,-70.8667,-10322,-28501
4122,456715,0.183105,6.10352,86.0596,-81.156,-16.7487,-176.243,4.31143,-10.6374,2.07676,-0.0723877,-0.134399,0.639008,-0.753845,-122.075,54.475,-70.8833,-10322,-28501
4128,456721,-5.18799,-4.39453,96.9238,-81.189,-16.3147,-176.21,5.42158,-11.7619,3.72285,-0.0674438,-0.128998,0.640198,-0.754242,-121.967,54.65,-70.8667,-10322,-28501
4134,456727,-8.17871,0.0610352,102.783,-81.3098,-15.3699,-176.111,5.58906,-11.0729,4.94785,-0.0645447,-0.126282,0.640961,-0.754272,-121.7,55,-70.8417,-10322,-28501
4140,456733,-15.7471,4.08936,105.896,-81.4032,-14.87,-176.094,4.254,-10.4125,4.68945,-0.061615,-0.123291,0.641815,-0.754303,-121.542,55.2167,-70.8083,-10322,-28501
4146,456739,-23.1934,1.64795,109.619,-81.535,-14.3481,-176.056,4.39756,-11.3265,5.24453,-0.0587158,-0.120056,0.642914,-0.75412,-121.358,55.475,-70.7833,-10322,-28501
4152,456745,-27.9541,4.76074,113.281,-81.6833,-13.8098,-176.034,4.76123,-11.537,5.46943,-0.0556641,-0.116791,0.644226,-0.753754,-121.158,55.725,-70.7667,-10322,-28501
4158,456751,-38.3911,7.20215,121.399,-82.0404,-12.6727,-176.023,4.15352,-11.8576,3.56016,-0.0495605,-0.109619,0.647247,-0.752655,-120.925,55.9917,-70.7917,-10322,-28501
4164,456757,-41.1377,4.82178,126.343,-82.2491,-12.074,-175.995,5.08662,-12.5275,3.65586,-0.0463867,-0.105865,0.649017,-0.751862,-120.425,56.6,-70.8,-10322,-28501
4170,456763,-42.7246,6.83594,133.118,-82.4634,-11.4423,-175.979,6.03408,-12.4462,3.10078,-0.0429688,-0.10202,0.650848,-0.751007,-120.15,56.9,-70.75,-10322,-28501
4176,456769,-46.1426,9.64355,142.151,-82.6886,-10.7666,-175.968,5.81875,-12.5658,2.54092,-0.0394287,-0.0979309,0.652771,-0.750092,-119.842,57.2167,-70.7,-10322,-28501
4182,456775,-48.584,7.69043,149.597,-82.9303,-10.058,-175.952,5.67041,-12.9534,1.82314,-0.035675,-0.0935059,0.654785,-0.749084,-119.508,57.5667,-70.625,-10322,-28501
4188,456781,-49.6826,-3.23486,166.321,-83.4357,-8.53088,-175.825,6.33555,-13.3984,1.4499,-0.0272217,-0.0843201,0.658966,-0.746857,-118.725,58.35,-70.425,-10322,-28501
4194,456787,-52.124,-1.58691,177.856,-83.6993,-7.69592,-175.748,7.12988,-13.8865,1.53604,-0.0223694,-0.0796509,0.661133,-0.745636,-118.317,58.7333,-70.35,-10322,-28501
4200,456793,-53.4058,-4.45557,190.247,-83.974,-6.80054,-175.66,6.88105,-13.7382,0.401953,-0.0172119,-0.0746155,0.66333,-0.744324,-117.883,59.1583,-70.2667,-10322,-28501
4206,456799,-56.6406,-11.0474,202.271,-84.2651,-5.85571,-175.534,6.65137,-14.2311,-0.497656,-0.0115662,-0.0693359,0.665619,-0.74292,-117.425,59.6333,-70.15,-10322,-28501
4212,456805,-56.1523,-21.3623,215.027,-84.5618,-4.85046,-175.358,6.81406,-14.7239,-1.04316,-0.00540161,-0.0639343,0.667969,-0.741333,-116.942,60.1417,-70.0583,-10322,-28501
4218,456811,-55.2979,-39.4897,245.544,-85.144,-2.64221,-174.864,7.84287,-15.7479,-1.07666,0.00900269,-0.052948,0.672607,-0.737976,-115.817,61.2167,-69.8667,-10322,-28501
4224,456817,-54.3213,-48.7671,262.756,-85.4297,-1.41724,-174.551,7.99121,-16.2552,-0.239258,0.017334,-0.0472412,0.674896,-0.736115,-115.25,61.775,-69.725,-10322,-28501
4230,456823,-54.6875,-56.8237,279.968,-85.7098,-0.115356,-174.194,8.55586,-15.8963,1.78486,0.0264893,-0.0413208,0.677094,-0.734192,-114.633,62.3083,-69.5583,-10322,-28501
4236,456829,-63.0493,-59.8145,295.471,-86.0175,1.25244,-173.82,10.0536,-15.3891,2.89023,0.0364075,-0.0351868,0.679199,-0.732117,-113.975,62.8583,-69.3917,-10322,-28501
4242,456835,-70.9229,-60.6079,314.697,-86.358,2.71362,-173.441,12.4462,-15.1498,3.34961,0.0468445,-0.0287476,0.681488,-0.729675,-113.267,63.4583,-69.1917,-10322,-28501
4248,456841,-78.064,-41.5039,362.061,-87.0721,5.99304,-172.837,12.8673,-16.4562,1.73223,0.0693054,-0.0139465,0.686432,-0.723694,-111.625,64.7583,-68.725,-10322,-28501
4254,456847,-81.0547,-36.6211,383.545,-87.4402,7.78931,-172.59,11.403,-17.4897,1.76572,0.0811462,-0.00512695,0.688873,-0.720245,-110.667,65.4417,-68.4583,-10322,-28501
4260,456853,-86.1206,-38.147,402.588,-87.8192,9.68445,-172.337,9.69473,-18.064,1.16279,0.0934448,0.00445557,0.691223,-0.716461,-109.725,66.1,-68.1583,-10322,-28501
4266,456859,-94.0552,-46.814,416.687,-88.2312,11.64,-172.057,9.11094,-19.2507,1.25371,0.106354,0.0145264,0.693573,-0.71228,-108.683,66.8,-67.8333,-10322,-28501
4272,456865,-96.4355,-50.7813,430.359,-88.6377,13.6615,-171.76,8.75205,-19.6287,1.67002,0.119873,0.0246582,0.695862,-0.707581,-107.533,67.5167,-67.4833,-10322,-28501
4278,456871,-117.126,-61.3403,448.914,-89.5166,17.8473,-171.118,6.57002,-19.6574,2.29209,0.148407,0.0455627,0.69986,-0.697113,-104.983,68.9667,-66.6167,-10322,-28501
4284,456877,-126.221,-75.1343,452.209,-90.0055,19.9731,-170.733,5.66563,-21.6289,2.37822,0.163208,0.0559692,0.701996,-0.690887,-103.542,69.7333,-66.1583,-10322,-28501
4290,456883,-129.761,-85.3882,455.627,-90.4834,22.1155,-170.305,6.44082,-23.0788,2.13896,0.178467,0.0659485,0.70401,-0.684143,-102.117,70.425,-65.7083,-10322,-28501
4296,456889,-125.305,-86.792,453.674,-90.9229,24.2413,-169.882,7.21602,-24.1507,2.63184,0.194061,0.0756836,0.70578,-0.677032,-100.592,71.0917,-65.2417,-10322,-28501
4302,456895,-125.244,-89.5996,450.012,-91.3403,26.3562,-169.453,8.10606,-25.2561,1.10059,0.209534,0.0852661,0.707123,-0.66983,-98.9417,71.75,-64.7333,-10322,-28501
4308,456901,-112.976,-68.4814,435.364,-92.049,30.4871,-168.475,11.8241,-28.3233,-1.58389,0.240692,0.103088,0.708862,-0.654877,-95.375,72.975,-63.6583,-10322,-28501
4314,456907,-98.3276,-62.1948,420.166,-92.3236,32.4481,-168.085,11.4509,-25.8638,-1.74658,0.255493,0.111938,0.709106,-0.647491,-93.5083,73.5333,-63.1417,-10322,-28501
4320,456913,-85.144,-64.4531,401.001,-92.5214,34.3048,-167.69,11.7141,-22.9018,-0.92832,0.269409,0.120605,0.708893,-0.640472,-91.7083,74.0583,-62.6667,-10322,-28501
4326,456919,-57.6782,-78.9795,375.183,-92.5159,36.0352,-167.195,13.8147,-17.6812,0.100488,0.282684,0.128693,0.708221,-0.633911,-89.875,74.55,-62.1833,-10322,-28501
4332,456925,-26.062,-83.9233,337.097,-92.3181,37.5623,-166.657,14.4033,-7.74717,-2.23945,0.295349,0.135895,0.706573,-0.628448,-88.0083,74.9583,-61.6417,-10322,-28501
