TimeSinceCollection,Timestamp,AngularVelX,AngularVelY,AngularVelZ,AngleRoll,AnglePitch,AngleYaw,AccX,AccY,AccZ,Q1,Q2,Q3,Q4,MagX,MagY,MagZ,Height,Airpressure
0,63198,0,-0.610352,-1.09863,-79.6014,-21.0718,95.3284,3.45967,-9.02481,1.66523,-0.595154,0.319977,0.559784,-0.479492,-124.317,50.5333,-68.275,-10182,-28518
6,63204,-0.488281,-0.732422,-0.976563,-79.6069,-21.0773,95.3284,3.52666,-9.01045,1.71309,-0.595184,0.319946,0.559814,-0.479462,-124.3,50.5167,-68.3167,-10157,-28521
12,63210,-0.427246,-0.732422,-0.793457,-79.6069,-21.0828,95.3339,3.52666,-9.06787,1.65566,-0.595154,0.319916,0.559875,-0.479431,-124.3,50.5167,-68.3417,-10157,-28521
18,63216,-0.671387,-0.915527,-1.0376,-79.6179,-21.0938,95.3448,3.52666,-9.02959,1.64131,-0.595154,0.319885,0.559937,-0.479401,-124.317,50.5417,-68.325,-10157,-28521
24,63222,-0.549316,-1.0376,-0.732422,-79.6234,-21.0938,95.3448,3.49316,-9.04395,1.61738,-0.595123,0.319855,0.559998,-0.47937,-124.308,50.525,-68.3,-10157,-28521
30,63228,-0.610352,-1.34277,-1.09863,-79.6289,-21.0992,95.3503,3.5793,-9.06309,1.65566,-0.595123,0.319824,0.560028,-0.47937,-124.325,50.5167,-68.225,-10157,-28521
36,63234,-0.854492,-0.915527,-0.854492,-79.6344,-21.1047,95.3558,3.55537,-9.08223,1.59824,-0.595093,0.319794,0.560089,-0.47934,-124.358,50.5167,-68.2083,-10157,-28521
42,63240,-0.793457,-1.34277,-1.09863,-79.6399,-21.1102,95.3613,3.56016,-9.0918,1.55518,-0.595062,0.319763,0.560211,-0.479279,-124.367,50.5,-68.2083,-10157,-28521
48,63246,-0.305176,-1.15967,-0.854492,-79.6454,-21.1212,95.3723,3.48838,-9.04395,1.6126,-0.595032,0.319733,0.560272,-0.479248,-124.375,50.4833,-68.2417,-10157,-28521
54,63252,-0.12207,-1.28174,-0.915527,-79.6509,-21.1267,95.3778,3.55537,-9.07266,1.66045,-0.595032,0.319702,0.560303,-0.479248,-124.383,50.4833,-68.2417,-10157,-28521
60,63258,-0.305176,-0.915527,-1.2207,-79.6509,-21.1322,95.3833,3.4501,-9.0918,1.63174,-0.595001,0.319672,0.560364,-0.479248,-124.392,50.4667,-68.2,-10157,-28521
66,63264,-0.183105,-1.28174,-1.2207,-79.6564,-21.1377,95.3888,3.46924,-9.04873,1.61738,-0.595001,0.319611,0.560394,-0.479218,-124.375,50.4583,-68.1667,-10157,-28521
72,63270,0,-0.854492,-1.28174,-79.6619,-21.1432,95.3888,3.53145,-9.12529,1.56953,-0.594971,0.31955,0.560486,-0.479187,-124.367,50.45,-68.125,-10157,-28521
78,63276,0,-0.854492,-1.0376,-79.6619,-21.1542,95.3998,3.55537,-9.01523,1.62217,-0.594971,0.319519,0.560516,-0.479156,-124.383,50.475,-68.075,-10157,-28521
84,63282,0,-0.671387,-1.40381,-79.6619,-21.1597,95.3998,3.51709,-9.03438,1.62217,-0.594971,0.319458,0.560577,-0.479156,-124.375,50.45,-68.0333,-10157,-28521
90,63288,0.244141,-0.976563,-1.40381,-79.6674,-21.1707,95.4053,3.53623,-9.0918,1.5791,-0.594971,0.319427,0.560608,-0.479126,-124.383,50.4417,-68,-10157,-28521
96,63294,-0.183105,-0.915527,-1.40381,-79.6674,-21.1761,95.4053,3.62236,-9.04873,1.5791,-0.595001,0.319366,0.560638,-0.479126,-124.4,50.45,-67.9583,-10157,-28521
102,63300,0,-0.427246,-1.28174,-79.6674,-21.1816,95.4053,3.56016,-9.10137,1.55518,-0.595001,0.319305,0.56073,-0.479065,-124.392,50.45,-67.925,-10157,-28521
108,63306,0.0610352,-0.427246,-0.793457,-79.6729,-21.1926,95.4108,3.62715,-9.01523,1.59346,-0.595001,0.319275,0.56073,-0.479034,-124.383,50.4417,-67.9917,-10157,-28521
114,63312,0,-0.305176,-1.0376,-79.6729,-21.1926,95.4108,3.56494,-9.06309,1.60781,-0.595032,0.319244,0.56076,-0.479004,-124.383,50.4583,-68.05,-10157,-28521
120,63318,-0.12207,-0.671387,-0.732422,-79.6729,-21.1981,95.4108,3.5793,-9.03438,1.60303,-0.595032,0.319244,0.560791,-0.478973,-124.383,50.475,-68.1083,-10157,-28521
126,63324,0,-0.366211,-0.427246,-79.6729,-21.1981,95.4163,3.65586,-9.01523,1.61738,-0.595032,0.319214,0.560822,-0.478973,-124.367,50.4583,-68.1583,-10165,-28520
132,63330,-0.244141,-0.183105,0.305176,-79.6783,-21.1981,95.4163,3.75635,-9.01523,1.56953,-0.595001,0.319214,0.560852,-0.478973,-124.383,50.4667,-68.1667,-10165,-28520
138,63336,-0.488281,-0.610352,0.671387,-79.6838,-21.1981,95.4218,3.64629,-9.05352,1.58389,-0.594971,0.319214,0.560852,-0.478973,-124.408,50.4667,-68.15,-10165,-28520
144,63342,-0.427246,-0.183105,0.610352,-79.6893,-21.1926,95.4218,3.54102,-9.08701,1.55039,-0.59494,0.319244,0.560883,-0.478973,-124.433,50.4417,-68.1667,-10165,-28520
150,63348,-0.0610352,-0.366211,0.427246,-79.6893,-21.1926,95.4272,3.39746,-9.08223,1.62695,-0.59491,0.319275,0.560883,-0.478973,-124.433,50.4167,-68.1333,-10165,-28520
156,63354,0,-0.488281,0.183105,-79.6893,-21.1926,95.4272,3.44531,-9.00566,1.73701,-0.59491,0.319275,0.560883,-0.479004,-124.467,50.3917,-68.0833,-10165,-28520
162,63360,-0.793457,-0.976563,0.0610352,-79.6948,-21.1926,95.4327,3.50273,-9.02959,1.64609,-0.594849,0.319275,0.560944,-0.479004,-124.483,50.375,-68.05,-10165,-28520
168,63366,-0.915527,-0.915527,0,-79.7113,-21.1926,95.4437,3.56016,-9.06787,1.56953,-0.594818,0.319275,0.560974,-0.479004,-124.492,50.3333,-68.0917,-10165,-28520
174,63372,-0.732422,-0.610352,-0.12207,-79.7113,-21.1926,95.4437,3.5123,-9.09658,1.56475,-0.594788,0.319275,0.561005,-0.479004,-124.483,50.3167,-68.1167,-10165,-28520
180,63378,-0.488281,-0.732422,0,-79.7168,-21.1926,95.4492,3.54102,-9.06309,1.55996,-0.594757,0.319305,0.561066,-0.478973,-124.475,50.3083,-68.1167,-10165,-28520
186,63384,-0.488281,-0.854492,-0.0610352,-79.7223,-21.1926,95.4547,3.52666,-9.02959,1.61738,-0.594727,0.319305,0.561096,-0.478973,-124.467,50.2833,-68.125,-10165,-28520
192,63390,-0.488281,-0.610352,-0.183105,-79.7333,-21.1926,95.4602,3.57451,-9.05352,1.49297,-0.594666,0.319305,0.561157,-0.478973,-124.442,50.2917,-68.1083,-10165,-28520
198,63396,-0.183105,-0.488281,0.12207,-79.7333,-21.1926,95.4602,3.56016,-9.11094,1.56953,-0.594666,0.319305,0.561188,-0.478943,-124.442,50.3167,-68.1333,-10165,-28520
204,63402,0.12207,-0.305176,0,-79.7333,-21.1926,95.4657,3.5123,-9.05352,1.56475,-0.594635,0.319305,0.561188,-0.478943,-124.425,50.3167,-68.1667,-10165,-28520
210,63408,0.12207,-0.305176,-0.305176,-79.7333,-21.1981,95.4657,3.49795,-9.03438,1.60303,-0.594635,0.319305,0.561188,-0.478973,-124.425,50.3,-68.1667,-10165,-28520
216,63414,-0.0610352,-0.305176,-0.244141,-79.7388,-21.1981,95.4657,3.52666,-9.04395,1.61738,-0.594635,0.319275,0.561218,-0.478973,-124.442,50.2917,-68.1667,-10165,-28520
222,63420,0.366211,-0.183105,0.12207,-79.7388,-21.1981,95.4712,3.56016,-9.07744,1.60303,-0.594604,0.319275,0.561249,-0.478943,-124.45,50.275,-68.1333,-10165,-28520
228,63426,0.183105,-0.12207,-0.244141,-79.7388,-21.1981,95.4712,3.50752,-9.04395,1.56475,-0.594604,0.319275,0.561218,-0.478973,-124.483,50.2333,-68.1083,-10165,-28520
234,63432,0.183105,-0.12207,-0.366211,-79.7388,-21.1981,95.4712,3.58887,-9.07266,1.59824,-0.594604,0.319244,0.561249,-0.478973,-124.5,50.2333,-68.1167,-10165,-28520
240,63438,0.12207,-0.0610352,-0.244141,-79.7388,-21.2036,95.4712,3.58408,-9.02959,1.55518,-0.594604,0.319244,0.561249,-0.478943,-124.5,50.225,-68.1333,-10173,-28519
246,63444,0,0,-0.0610352,-79.7388,-21.2036,95.4712,3.61279,-9.03916,1.5791,-0.594635,0.319244,0.561249,-0.478943,-124.5,50.2,-68.1667,-10173,-28519
252,63450,-0.0610352,0.305176,0,-79.7388,-21.2036,95.4712,3.5458,-9.06309,1.59824,-0.594604,0.319244,0.561249,-0.478943,-124.492,50.1833,-68.1833,-10165,-28520
258,63456,0,-0.0610352,0.0610352,-79.7388,-21.1981,95.4712,3.52666,-9.06309,1.67002,-0.594604,0.319244,0.561249,-0.478943,-124.525,50.1917,-68.1667,-10165,-28520
264,63462,-0.183105,-0.366211,-0.244141,-79.7388,-21.2036,95.4712,3.53623,-9.01523,1.66045,-0.594604,0.319244,0.561249,-0.478943,-124.533,50.1833,-68.1583,-10165,-28520
270,63468,-0.366211,-0.488281,-0.0610352,-79.7443,-21.2036,95.4767,3.5123,-9.01045,1.67002,-0.594604,0.319244,0.561279,-0.478943,-124.533,50.1667,-68.15,-10165,-28520
276,63474,-0.244141,-0.732422,-0.366211,-79.7498,-21.2036,95.4767,3.53623,-9.0583,1.62695,-0.594574,0.319244,0.56131,-0.478912,-124.55,50.1583,-68.1167,-10165,-28520
282,63480,-0.366211,-0.610352,-0.366211,-79.7552,-21.2091,95.4822,3.50273,-9.07744,1.58867,-0.594543,0.319244,0.56134,-0.478912,-124.558,50.15,-68.1,-10165,-28520
288,63486,-0.488281,-0.610352,-0.305176,-79.7607,-21.2091,95.4877,3.55059,-9.00088,1.53604,-0.594543,0.319244,0.561371,-0.478912,-124.567,50.1417,-68.075,-10165,-28520
294,63492,-0.305176,-0.549316,-0.244141,-79.7607,-21.2091,95.4877,3.56973,-9.03916,1.56475,-0.594513,0.319244,0.561401,-0.478882,-124.575,50.1833,-68.05,-10165,-28520
300,63498,-0.244141,-0.793457,-0.183105,-79.7662,-21.2091,95.4932,3.62236,-9.04395,1.53125,-0.594482,0.319244,0.561432,-0.478882,-124.583,50.2,-68.025,-10165,-28520
306,63504,-0.305176,-0.549316,0.244141,-79.7662,-21.2091,95.4987,3.66543,-9.06309,1.51689,-0.594482,0.319214,0.561462,-0.478882,-124.6,50.1917,-67.9917,-10165,-28520
312,63510,0,-0.366211,0.12207,-79.7717,-21.2091,95.4987,3.53623,-9.09658,1.56953,-0.594421,0.319244,0.561523,-0.478882,-124.583,50.1917,-67.9167,-10165,-28520
318,63516,-0.12207,-0.244141,0.0610352,-79.7772,-21.2091,95.4987,3.50752,-9.07744,1.56475,-0.594421,0.319244,0.561523,-0.478882,-124.575,50.2083,-67.875,-10165,-28520
324,63522,0.183105,-0.610352,-0.12207,-79.7772,-21.2091,95.5042,3.5123,-9.0583,1.66523,-0.594421,0.319244,0.561523,-0.478882,-124.567,50.2083,-67.85,-10165,-28520
330,63528,0,-0.366211,-0.0610352,-79.7772,-21.2091,95.5042,3.50273,-9.02002,1.6126,-0.594391,0.319244,0.561554,-0.478882,-124.575,50.2167,-67.8333,-10165,-28520
336,63534,0,-0.427246,-0.0610352,-79.7827,-21.2091,95.5096,3.50273,-9.03916,1.59824,-0.594391,0.319214,0.561554,-0.478882,-124.567,50.2417,-67.8417,-10165,-28520
342,63540,0.12207,-0.244141,-0.0610352,-79.7827,-21.2146,95.5096,3.52188,-9.06309,1.55039,-0.59436,0.319214,0.561584,-0.478882,-124.583,50.25,-67.925,-10165,-28520
348,63546,0,-0.183105,-0.305176,-79.7827,-21.2146,95.5096,3.56973,-8.99609,1.59346,-0.59436,0.319214,0.561584,-0.478882,-124.575,50.25,-67.9667,-10165,-28520
354,63552,0.12207,0,-0.0610352,-79.7827,-21.2146,95.5096,3.52188,-9.05352,1.59346,-0.59436,0.319214,0.561615,-0.478882,-124.6,50.275,-67.95,-10165,-28520
360,63558,0.305176,-0.244141,0,-79.7827,-21.2146,95.5151,3.5123,-9.04395,1.58867,-0.59436,0.319214,0.561615,-0.478882,-124.617,50.3083,-67.9333,-10190,-28517
366,63564,0.12207,-0.366211,0.0610352,-79.7827,-21.2146,95.5151,3.55537,-9.06309,1.62217,-0.59436,0.319214,0.561615,-0.478882,-124.6,50.3,-67.9083,-10190,-28517
372,63570,0,-0.12207,-0.244141,-79.7827,-21.2146,95.5151,3.54102,-9.01523,1.62217,-0.59433,0.319183,0.561615,-0.478882,-124.592,50.2917,-67.85,-10190,-28517
378,63576,0.12207,-0.305176,-0.12207,-79.7827,-21.2146,95.5151,3.56494,-9.03916,1.65088,-0.59433,0.319183,0.561615,-0.478882,-124.608,50.2917,-67.85,-10190,-28517
384,63582,-0.305176,-0.0610352,0,-79.7882,-21.2146,95.5151,3.54102,-9.01523,1.59346,-0.59433,0.319183,0.561646,-0.478882,-124.625,50.2833,-67.8333,-10190,-28517
390,63588,-0.183105,-0.12207,-0.244141,-79.7882,-21.2146,95.5151,3.50273,-9.07266,1.65088,-0.59433,0.319183,0.561646,-0.478882,-124.633,50.3,-67.8083,-10190,-28517
396,63594,-0.366211,-0.366211,-0.244141,-79.7937,-21.2146,95.5206,3.50273,-9.04873,1.64609,-0.59433,0.319214,0.561646,-0.478882,-124.625,50.325,-67.775,-10190,-28517
402,63600,-0.183105,-0.488281,-0.244141,-79.7937,-21.2201,95.5206,3.5458,-9.0583,1.6126,-0.594299,0.319183,0.561707,-0.478851,-124.558,50.3583,-67.7417,-10190,-28517
408,63606,-0.244141,-0.366211,-0.427246,-79.7992,-21.2201,95.5261,3.5793,-9.0918,1.53604,-0.594299,0.319183,0.561707,-0.478851,-124.55,50.3583,-67.7417,-10190,-28517
414,63612,-0.12207,-0.366211,-0.610352,-79.7992,-21.2256,95.5261,3.5458,-9.0583,1.55518,-0.594299,0.319183,0.561737,-0.478821,-124.567,50.3667,-67.725,-10190,-28517
420,63618,-0.0610352,-0.244141,-0.12207,-79.7992,-21.2256,95.5261,3.59844,-9.08223,1.58389,-0.594269,0.319153,0.561768,-0.478821,-124.583,50.3583,-67.7417,-10190,-28517
426,63624,-0.12207,-0.244141,-0.183105,-79.8047,-21.2256,95.5261,3.55059,-9.07744,1.60303,-0.594269,0.319153,0.561768,-0.478821,-124.575,50.3417,-67.75,-10190,-28517
432,63630,-0.183105,-0.366211,0.0610352,-79.8047,-21.2311,95.5316,3.58887,-9.04395,1.56953,-0.594269,0.319153,0.561798,-0.47879,-124.55,50.3417,-67.8,-10190,-28517
438,63636,-0.305176,-0.610352,-0.183105,-79.8102,-21.2311,95.5371,3.55537,-9.06787,1.55996,-0.594238,0.319153,0.561829,-0.47879,-124.55,50.3667,-67.8583,-10190,-28517
444,63642,-0.12207,-0.427246,-0.305176,-79.8102,-21.2311,95.5371,3.56494,-9.07744,1.54561,-0.594238,0.319153,0.561829,-0.47879,-124.558,50.3917,-67.9083,-10190,-28517
450,63648,0.0610352,-0.305176,-0.0610352,-79.8157,-21.2311,95.5371,3.49795,-9.04873,1.55996,-0.594238,0.319153,0.561859,-0.47879,-124.542,50.4167,-67.9333,-10190,-28517
456,63654,0,-0.244141,-0.244141,-79.8157,-21.2311,95.5371,3.53145,-9.04873,1.56953,-0.594208,0.319122,0.56189,-0.47879,-124.55,50.45,-67.9167,-10190,-28517
462,63660,0.12207,-0.12207,-0.183105,-79.8157,-21.2311,95.5426,3.55537,-9.02481,1.60781,-0.594208,0.319122,0.56189,-0.47879,-124.567,50.4417,-67.8917,-10190,-28517
468,63666,0,-0.12207,-0.0610352,-79.8157,-21.2311,95.5426,3.62715,-9.02002,1.58867,-0.594208,0.319122,0.56189,-0.47879,-124.567,50.4083,-67.8833,-10190,-28517
474,63672,-0.12207,0,0.12207,-79.8157,-21.2311,95.5426,3.58408,-9.06787,1.55518,-0.594208,0.319122,0.56189,-0.47879,-124.583,50.4,-67.8917,-10223,-28513
480,63678,-0.0610352,0,0.12207,-79.8212,-21.2311,95.5426,3.56973,-9.08701,1.56475,-0.594208,0.319153,0.56189,-0.47879,-124.575,50.375,-67.9083,-10223,-28513
486,63684,0,0,0.183105,-79.8212,-21.2311,95.5426,3.54102,-9.07744,1.55039,-0.594177,0.319153,0.56189,-0.47879,-124.575,50.3583,-67.9167,-10223,-28513
492,63690,0,0,0.12207,-79.8212,-21.2311,95.5426,3.50273,-9.02959,1.61738,-0.594177,0.319153,0.56189,-0.47879,-124.6,50.375,-67.9583,-10223,-28513
498,63696,0,0.0610352,-0.244141,-79.8212,-21.2311,95.5426,3.48838,-9.04873,1.5791,-0.594177,0.319183,0.56189,-0.47879,-124.633,50.3833,-67.9833,-10223,-28513
504,63702,0.244141,0.0610352,-0.0610352,-79.8212,-21.2311,95.5426,3.52666,-9.06787,1.6126,-0.594177,0.319183,0.56192,-0.47876,-124.65,50.3583,-68.0083,-10223,-28513
510,63708,0.12207,0.0610352,-0.427246,-79.8212,-21.2311,95.5426,3.52188,-9.08701,1.56475,-0.594177,0.319183,0.56189,-0.47879,-124.65,50.35,-68.025,-10223,-28513
516,63714,0.366211,0,-0.0610352,-79.8212,-21.2311,95.5426,3.55059,-9.07744,1.55518,-0.594177,0.319153,0.56189,-0.47876,-124.667,50.35,-68.0333,-10223,-28513
522,63720,0.427246,0,-0.12207,-79.8157,-21.2311,95.5426,3.53623,-9.06787,1.56953,-0.594208,0.319153,0.56189,-0.47876,-124.675,50.3583,-68.05,-10223,-28513
528,63726,0.305176,-0.12207,0,-79.8157,-21.2311,95.5426,3.55537,-9.04395,1.59824,-0.594208,0.319153,0.56189,-0.47876,-124.675,50.3833,-68.0583,-10223,-28513
534,63732,0.488281,0.244141,-0.0610352,-79.8157,-21.2311,95.5371,3.58887,-9.04873,1.58389,-0.594208,0.319153,0.56189,-0.47876,-124.683,50.425,-68.0583,-10223,-28513
540,63738,0.244141,0,-0.366211,-79.8157,-21.2311,95.5371,3.52666,-9.06309,1.56953,-0.594208,0.319153,0.56189,-0.47879,-124.675,50.4333,-68.0167,-10223,-28513
546,63744,0.549316,0,-0.488281,-79.8157,-21.2366,95.5371,3.52188,-9.04395,1.66523,-0.594238,0.319122,0.56189,-0.47876,-124.667,50.4167,-67.975,-10223,-28513
552,63750,0.244141,-0.0610352,-0.366211,-79.8102,-21.2366,95.5371,3.54102,-9.0583,1.60781,-0.594238,0.319122,0.56189,-0.47876,-124.658,50.3917,-67.925,-10223,-28513
558,63756,0.305176,-0.183105,-0.366211,-79.8102,-21.2421,95.5371,3.55059,-9.05352,1.6126,-0.594238,0.319092,0.56189,-0.47876,-124.65,50.375,-67.8583,-10223,-28513
564,63762,0.183105,-0.12207,-0.0610352,-79.8102,-21.2421,95.5371,3.52188,-9.02959,1.55996,-0.594238,0.319092,0.56189,-0.47876,-124.633,50.35,-67.85,-10223,-28513
570,63768,0,-0.183105,0,-79.8157,-21.2366,95.5426,3.55537,-9.07744,1.5791,-0.594238,0.319092,0.56189,-0.47876,-124.6,50.35,-67.8583,-10223,-28513
576,63774,0.12207,0.0610352,-0.427246,-79.8157,-21.2421,95.5371,3.53145,-9.05352,1.59346,-0.594238,0.319092,0.56189,-0.47876,-124.575,50.35,-67.8333,-10223,-28513
582,63780,0.0610352,-0.244141,-0.427246,-79.8157,-21.2421,95.5371,3.54102,-9.0583,1.59824,-0.594238,0.319092,0.56189,-0.47876,-124.517,50.3583,-67.825,-10223,-28513
588,63786,0.0610352,0.0610352,-0.427246,-79.8157,-21.2421,95.5371,3.56494,-9.00088,1.57432,-0.594238,0.319061,0.56192,-0.478729,-124.483,50.3417,-67.825,-10231,-28512
594,63792,0.0610352,-0.0610352,-0.366211,-79.8157,-21.2476,95.5371,3.56016,-9.08223,1.54561,-0.594269,0.319061,0.56192,-0.478729,-124.467,50.35,-67.8167,-10231,-28512
600,63798,0.12207,-0.0610352,-0.549316,-79.8157,-21.2476,95.5371,3.54102,-9.04395,1.58389,-0.594269,0.319061,0.56192,-0.478729,-124.442,50.3583,-67.8833,-10231,-28512
606,63804,0.12207,0,-0.12207,-79.8157,-21.2476,95.5371,3.47402,-9.04395,1.61738,-0.594269,0.319031,0.561951,-0.478699,-124.417,50.325,-67.95,-10231,-28512
612,63810,0.366211,0,-0.427246,-79.8157,-21.2531,95.5371,3.51709,-9.08701,1.58867,-0.594269,0.319031,0.561951,-0.478699,-124.408,50.3,-68.1083,-10231,-28512
618,63816,0.366211,0,-0.732422,-79.8102,-21.2531,95.5371,3.5123,-9.03916,1.55996,-0.594269,0.319031,0.561951,-0.478699,-124.417,50.2833,-68.1167,-10231,-28512
624,63822,0.488281,0.183105,-1.09863,-79.8102,-21.2585,95.5371,3.51709,-9.04873,1.58867,-0.594299,0.319,0.561951,-0.478699,-124.408,50.2417,-68.1167,-10231,-28512
630,63828,0.366211,0.427246,-1.0376,-79.8047,-21.264,95.5316,3.52188,-9.07744,1.60303,-0.59433,0.31897,0.561951,-0.478668,-124.392,50.2,-68.075,-10231,-28512
636,63834,0.427246,0.427246,-0.976563,-79.8047,-21.264,95.5316,3.52666,-9.06309,1.57432,-0.594391,0.318939,0.561951,-0.478638,-124.4,50.2,-68.0083,-10231,-28512
642,63840,0.366211,0.427246,-1.0376,-79.7992,-21.275,95.5261,3.56016,-9.04395,1.57432,-0.594421,0.318909,0.561951,-0.478607,-124.375,50.1917,-67.95,-10231,-28512
648,63846,0.610352,0.305176,-1.34277,-79.7992,-21.2805,95.5206,3.58408,-9.02959,1.61738,-0.594452,0.318878,0.561951,-0.478577,-124.375,50.1917,-67.975,-10231,-28512
654,63852,0.366211,0.427246,-0.793457,-79.7937,-21.286,95.5151,3.60322,-9.00566,1.5791,-0.594513,0.318848,0.561951,-0.478546,-124.375,50.2083,-67.9833,-10231,-28512
660,63858,0.244141,0.244141,-0.549316,-79.7937,-21.286,95.5151,3.5458,-9.02002,1.6126,-0.594543,0.318848,0.56192,-0.478516,-124.383,50.225,-67.9667,-10231,-28512
666,63864,0.12207,-0.0610352,-0.976563,-79.7937,-21.2915,95.5151,3.61758,-9.01045,1.57432,-0.594574,0.318817,0.561951,-0.478485,-124.392,50.2167,-67.95,-10231,-28512
672,63870,-0.183105,0,-0.305176,-79.7937,-21.297,95.5151,3.62715,-9.05352,1.5791,-0.594574,0.318787,0.561951,-0.478485,-124.417,50.2417,-67.8917,-10231,-28512
678,63876,0.0610352,0.183105,-0.671387,-79.7937,-21.297,95.5096,3.64629,-9.02002,1.50732,-0.594574,0.318787,0.561951,-0.478455,-124.433,50.2583,-67.8917,-10231,-28512
684,63882,0,0.366211,0,-79.7937,-21.297,95.5096,3.69893,-9.01523,1.54561,-0.594604,0.318787,0.561951,-0.478455,-124.45,50.2583,-67.9083,-10231,-28512
690,63888,0,0.305176,0.183105,-79.7937,-21.297,95.5096,3.65107,-9.04395,1.55518,-0.594604,0.318817,0.561951,-0.478424,-124.45,50.275,-67.9417,-10231,-28512
696,63894,0,0.366211,0,-79.7937,-21.2915,95.5042,3.53623,-9.06787,1.59824,-0.594604,0.318848,0.56192,-0.478424,-124.442,50.2833,-67.9833,-10231,-28512
702,63900,0.427246,0.305176,0.12207,-79.7937,-21.2915,95.5042,3.55537,-9.07266,1.57432,-0.594604,0.318848,0.56192,-0.478424,-124.442,50.25,-68.0333,-10231,-28512
708,63906,0.12207,0.488281,0.12207,-79.7937,-21.2915,95.4987,3.5458,-9.06787,1.56953,-0.594635,0.318878,0.56189,-0.478424,-124.45,50.2083,-68.0333,-10206,-28515
714,63912,0.366211,1.2207,-0.0610352,-79.7882,-21.2915,95.4932,3.58887,-9.08701,1.52646,-0.594635,0.318878,0.56189,-0.478424,-124.458,50.1833,-68.0333,-10206,-28515
720,63918,0.549316,2.80762,-0.12207,-79.7827,-21.286,95.4767,3.59844,-9.08701,1.44033,-0.594666,0.318909,0.561859,-0.478394,-124.458,50.175,-68,-10206,-28515
726,63924,1.40381,4.21143,-0.183105,-79.7717,-21.286,95.4602,3.63193,-9.01045,1.4499,-0.594849,0.319,0.561676,-0.478333,-124.45,50.175,-68.0083,-10206,-28515
732,63930,1.52588,6.16455,-0.0610352,-79.7388,-21.2805,95.4053,3.90469,-9.03438,1.26328,-0.594971,0.319061,0.561554,-0.478302,-124.425,50.2083,-68.0167,-10206,-28515
738,63936,2.74658,10.5591,0.183105,-79.7058,-21.2695,95.3503,3.98604,-9.13965,1.23457,-0.595123,0.319153,0.561371,-0.478241,-124.433,50.225,-67.975,-10206,-28515
744,63942,3.96729,12.8784,0.183105,-79.6674,-21.2585,95.2844,3.48838,-9.11094,1.4499,-0.595428,0.319305,0.561035,-0.478149,-124.433,50.225,-67.95,-10206,-28515
750,63948,4.08936,10.9253,0.610352,-79.6289,-21.2421,95.224,3.31611,-9.01045,1.77051,-0.595764,0.319489,0.560638,-0.478058,-124.433,50.2167,-67.9333,-10206,-28515
756,63954,2.38037,7.69043,-0.183105,-79.5959,-21.2366,95.1746,3.42617,-8.99131,1.78008,-0.596344,0.319763,0.559967,-0.477966,-124.467,50.225,-67.9083,-10206,-28515
762,63960,2.0752,6.46973,0.0610352,-79.5465,-21.2256,95.1031,3.48359,-9.06309,1.7418,-0.596558,0.319855,0.559723,-0.477905,-124.508,50.225,-67.975,-10206,-28515
768,63966,1.77002,5.85938,-0.0610352,-79.53,-21.2201,95.0702,3.51709,-9.02002,1.71787,-0.596741,0.319946,0.559509,-0.477844,-124.517,50.225,-68,-10206,-28515
774,63972,1.58691,4.94385,-0.244141,-79.5135,-21.2146,95.0427,3.50273,-9.02959,1.72744,-0.596924,0.320038,0.559326,-0.477814,-124.5,50.225,-68.0167,-10206,-28515
780,63978,1.58691,4.27246,-0.366211,-79.4971,-21.2146,95.0208,3.4166,-9.00088,1.76094,-0.597076,0.320099,0.559174,-0.477753,-124.492,50.2333,-68.0333,-10206,-28515
786,63984,1.15967,3.35693,-0.671387,-79.4861,-21.2091,94.9988,3.51709,-9.04395,1.66045,-0.59729,0.32019,0.558929,-0.477692,-124.45,50.2333,-68.075,-10206,-28515
792,63990,1.09863,3.11279,-0.976563,-79.4641,-21.2146,94.9658,3.50752,-9.04395,1.62695,-0.597412,0.320221,0.558838,-0.477631,-124.358,50.2333,-68.1083,-10206,-28515
798,63996,1.28174,2.86865,-0.732422,-79.4531,-21.2146,94.9493,3.59365,-9.10137,1.58867,-0.597504,0.320251,0.558746,-0.4776,-124.317,50.2333,-68.15,-10206,-28515
804,64002,1.28174,2.80762,-0.671387,-79.4421,-21.2146,94.9329,3.63672,-9.00088,1.54561,-0.597626,0.320251,0.558655,-0.47757,-124.3,50.2417,-68.2083,-10206,-28515
810,64008,1.09863,3.2959,-0.366211,-79.4366,-21.2146,94.9164,3.62236,-9.04395,1.56953,-0.597717,0.320282,0.558594,-0.477539,-124.292,50.225,-68.2167,-10206,-28515
816,64014,1.34277,3.41797,-0.427246,-79.4147,-21.2091,94.8779,3.49795,-9.12529,1.61738,-0.5979,0.320374,0.55838,-0.477448,-124.325,50.2167,-68.2417,-10206,-28515
822,64020,1.52588,2.92969,-0.671387,-79.3982,-21.2091,94.8615,3.50752,-9.10615,1.68438,-0.598022,0.320404,0.558258,-0.477417,-124.317,50.1833,-68.325,-10182,-28518
828,64026,1.58691,2.68555,-0.12207,-79.3872,-21.2091,94.8505,3.54102,-9.05352,1.67959,-0.598114,0.320404,0.558167,-0.477386,-124.292,50.1667,-68.4167,-10182,-28518
834,64032,1.58691,2.19727,-0.549316,-79.3762,-21.2091,94.834,3.58408,-9.02959,1.73223,-0.598206,0.320435,0.558075,-0.477386,-124.275,50.1667,-68.475,-10182,-28518
840,64038,1.15967,1.95313,-0.366211,-79.3707,-21.2091,94.823,3.58887,-8.98652,1.72744,-0.598297,0.320435,0.558014,-0.477386,-124.267,50.175,-68.4917,-10182,-28518
846,64044,1.34277,2.13623,-0.12207,-79.3542,-21.2036,94.8065,3.53623,-9.08223,1.59824,-0.598419,0.320435,0.557892,-0.477356,-124.242,50.1583,-68.5167,-10182,-28518
852,64050,1.77002,2.92969,-0.366211,-79.3378,-21.2036,94.79,3.43096,-9.12051,1.68438,-0.59848,0.320465,0.5578,-0.477356,-124.242,50.175,-68.4667,-10182,-28518
858,64056,2.0752,2.13623,-0.793457,-79.3268,-21.2036,94.7791,3.39746,-9.11094,1.6748,-0.598572,0.320465,0.557709,-0.477325,-124.25,50.2,-68.4833,-10182,-28518
864,64062,2.0752,2.01416,-1.0376,-79.3103,-21.2091,94.7681,3.5123,-9.10615,1.68438,-0.598663,0.320465,0.557617,-0.477325,-124.267,50.2167,-68.5083,-10182,-28518
870,64068,2.56348,2.31934,-0.793457,-79.2938,-21.2091,94.7516,3.59365,-9.06787,1.62695,-0.598755,0.320435,0.557526,-0.477325,-124.275,50.2333,-68.5417,-10182,-28518
876,64074,2.50244,2.31934,-0.366211,-79.2664,-21.2091,94.7296,3.66064,-9.08223,1.66045,-0.598969,0.320374,0.557343,-0.477356,-124.283,50.2667,-68.5833,-10182,-28518
882,64080,2.62451,2.0752,-0.305176,-79.2499,-21.2091,94.7186,3.67021,-9.07744,1.65088,-0.59906,0.320374,0.55722,-0.477356,-124.258,50.2583,-68.5917,-10182,-28518
888,64086,2.56348,2.31934,0,-79.2334,-21.2036,94.7076,3.68936,-9.06309,1.72266,-0.599152,0.320343,0.557129,-0.477386,-124.225,50.25,-68.5833,-10182,-28518
894,64092,2.38037,2.13623,0.244141,-79.2169,-21.2036,94.6967,3.58408,-9.03916,1.69395,-0.599213,0.320343,0.557037,-0.477417,-124.208,50.25,-68.5667,-10182,-28518
900,64098,2.31934,1.64795,0.488281,-79.2059,-21.1981,94.6857,3.68936,-8.97695,1.69873,-0.599304,0.320343,0.556915,-0.477417,-124.183,50.25,-68.5583,-10182,-28518
906,64104,2.0752,1.83105,1.09863,-79.184,-21.1871,94.6692,3.56973,-9.08223,1.72744,-0.599396,0.320343,0.556763,-0.477509,-124.15,50.2333,-68.575,-10182,-28518
912,64110,1.83105,1.52588,0.976563,-79.173,-21.1816,94.6637,3.46445,-9.02959,1.78008,-0.599457,0.320343,0.556641,-0.477539,-124.133,50.2,-68.6333,-10182,-28518
918,64116,1.83105,1.15967,1.15967,-79.162,-21.1707,94.6582,3.53623,-9.02481,1.79922,-0.599487,0.320374,0.556549,-0.4776,-124.133,50.1917,-68.65,-10182,-28518
924,64122,1.77002,1.15967,1.46484,-79.1565,-21.1652,94.6527,3.59844,-9.03916,1.63652,-0.599518,0.320374,0.556488,-0.477631,-124.117,50.1667,-68.675,-10182,-28518
930,64128,1.89209,1.15967,1.34277,-79.1455,-21.1542,94.6472,3.6415,-9.0918,1.66523,-0.599548,0.320404,0.556396,-0.477692,-124.1,50.1583,-68.6917,-10182,-28518
936,64134,1.95313,1.0376,1.83105,-79.1235,-21.1377,94.6417,3.675,-9.02959,1.67002,-0.599579,0.320435,0.556213,-0.477844,-124.125,50.1917,-68.7,-10182,-28518
942,64140,1.77002,1.0376,2.13623,-79.118,-21.1267,94.6362,3.63672,-9.02002,1.62217,-0.599579,0.320465,0.556152,-0.477905,-124.125,50.1917,-68.7,-10182,-28518
948,64146,1.64795,1.2207,2.13623,-79.1071,-21.1157,94.6307,3.63672,-9.03916,1.65566,-0.599579,0.320496,0.556061,-0.477997,-124.133,50.1833,-68.6667,-10182,-28518
954,64152,1.89209,1.46484,2.68555,-79.0961,-21.0992,94.6307,3.56973,-9.06787,1.63174,-0.599579,0.320526,0.555969,-0.478058,-124.142,50.1667,-68.6167,-10182,-28518
960,64158,1.58691,1.77002,2.01416,-79.0906,-21.0883,94.6198,3.5458,-9.06309,1.5791,-0.599579,0.320587,0.555847,-0.478149,-124.133,50.1583,-68.575,-10182,-28518
966,64164,2.01416,1.64795,2.86865,-79.0686,-21.0608,94.6143,3.61758,-9.01523,1.68438,-0.599609,0.320679,0.555664,-0.478271,-124.125,50.075,-68.525,-10182,-28518
972,64170,2.31934,1.46484,2.80762,-79.0576,-21.0498,94.6088,3.48359,-9.12051,1.68916,-0.599609,0.320709,0.555542,-0.478363,-124.158,50.0667,-68.5417,-10182,-28518
978,64176,2.50244,0.854492,2.68555,-79.0466,-21.0333,94.6033,3.59844,-9.01045,1.63652,-0.59964,0.32077,0.55542,-0.478455,-124.208,50.075,-68.55,-10182,-28518
984,64182,2.50244,1.52588,3.17383,-79.0356,-21.0168,94.5978,3.60801,-9.09658,1.59346,-0.599609,0.320801,0.555328,-0.478577,-124.233,50.075,-68.6167,-10182,-28518
990,64188,2.80762,1.40381,3.54004,-79.0192,-21.0004,94.5978,3.55059,-9.11572,1.62217,-0.599609,0.320831,0.555206,-0.478699,-124.25,50.0917,-68.65,-10182,-28518
996,64194,2.80762,1.52588,4.08936,-78.9917,-20.9619,94.5923,3.69414,-9.02481,1.66523,-0.599609,0.320923,0.554932,-0.478943,-124.233,50.1167,-68.6833,-10182,-28518
1002,64200,2.92969,0.793457,4.57764,-78.9807,-20.9399,94.5923,3.84727,-9.02481,1.75615,-0.599609,0.320984,0.55481,-0.479095,-124.208,50.1,-68.7083,-10182,-28518
1008,64206,2.19727,0.427246,5.67627,-78.9752,-20.9125,94.5923,4.321,-8.80469,1.58867,-0.599579,0.321045,0.554657,-0.479248,-124.183,50.0833,-68.75,-10182,-28518
1014,64212,1.28174,2.0752,7.75146,-78.9697,-20.8795,94.5923,4.6416,-8.94824,1.31592,-0.599487,0.321136,0.554535,-0.479431,-124.15,50.075,-68.775,-10182,-28518
1020,64218,1.34277,3.72314,9.52148,-78.9587,-20.8301,94.5813,4.11045,-9.30713,1.33506,-0.599396,0.32132,0.554382,-0.479614,-124.1,50.0833,-68.8417,-10182,-28518
1026,64224,2.68555,3.35693,10.6201,-78.9368,-20.7312,94.5648,3.40225,-9.31191,1.72266,-0.599243,0.321838,0.553894,-0.480042,-124.017,50.1083,-68.95,-10182,-28518
1032,64230,3.11279,2.19727,9.8877,-78.9203,-20.6818,94.5648,3.0625,-9.27842,2.05283,-0.599121,0.322083,0.553619,-0.480286,-124,50.1333,-68.9667,-10182,-28518
1038,64236,3.17383,0.610352,9.0332,-78.9093,-20.6378,94.5703,2.79453,-8.99609,2.13418,-0.59903,0.322296,0.553375,-0.48056,-123.992,50.1417,-68.9917,-10182,-28518
1044,64242,2.38037,-0.305176,7.69043,-78.9038,-20.6049,94.5813,2.86152,-8.86689,2.37344,-0.598907,0.322449,0.553192,-0.480865,-123.983,50.15,-68.9833,-10182,-28518
1050,64248,1.15967,-1.09863,6.34766,-78.9038,-20.5774,94.5923,2.87588,-8.89082,2.15332,-0.598755,0.32254,0.55304,-0.48111,-123.95,50.1417,-69.0333,-10182,-28518
1056,64254,1.15967,-2.19727,4.76074,-78.9038,-20.528,94.6252,3.17734,-9.11572,1.78008,-0.59848,0.322723,0.552917,-0.481506,-123.9,50.1833,-69.0583,-10165,-28520
1062,64260,1.64795,-2.2583,4.63867,-78.9038,-20.5115,94.6417,3.23477,-9.04873,1.74658,-0.598328,0.322754,0.552917,-0.481689,-123.867,50.175,-69.0667,-10165,-28520
1068,64266,1.83105,-2.44141,4.45557,-78.9038,-20.4895,94.6582,3.24912,-9.06309,1.78486,-0.598206,0.322784,0.552856,-0.481873,-123.867,50.1667,-69.0583,-10165,-28520
1074,64272,2.13623,-2.38037,4.21143,-78.8983,-20.473,94.6747,3.28262,-9.10137,1.82314,-0.598083,0.322784,0.552826,-0.482056,-123.892,50.1917,-69.0583,-10165,-28520
1080,64278,2.19727,-2.86865,3.84521,-78.8928,-20.4565,94.6967,3.31133,-8.92432,1.82793,-0.597839,0.322754,0.552765,-0.482422,-123.917,50.2167,-69.0583,-10165,-28520
1086,64284,2.2583,-3.35693,3.78418,-78.8928,-20.4291,94.7351,3.5123,-9.21621,1.67002,-0.597687,0.322754,0.552765,-0.482605,-123.95,50.275,-69.0917,-10165,-28520
1092,64290,2.31934,-3.54004,4.27246,-78.8873,-20.4126,94.7626,3.75156,-9.07266,1.62217,-0.597565,0.322693,0.552765,-0.482788,-123.942,50.3,-69.0833,-10165,-28520
1098,64296,2.0752,-3.78418,4.94385,-78.8873,-20.3906,94.7845,3.75635,-9.13486,1.58867,-0.597412,0.322662,0.552765,-0.483002,-123.933,50.325,-69.0667,-10165,-28520
1104,64302,2.38037,-3.11279,5.85938,-78.8818,-20.3632,94.8065,3.69414,-9.19229,1.64609,-0.59726,0.322662,0.552765,-0.483246,-123.917,50.3417,-69.0917,-10165,-28520
1110,64308,2.86865,-3.479,5.98145,-78.8818,-20.3412,94.834,3.43574,-9.16836,1.7418,-0.596924,0.322662,0.552673,-0.483734,-123.883,50.35,-69.1417,-10165,-28520
1116,64314,3.05176,-3.17383,5.98145,-78.8654,-20.2917,94.8779,3.55537,-9.14922,1.71309,-0.596771,0.322662,0.552612,-0.484009,-123.817,50.4417,-69.2833,-10165,-28520
1122,64320,3.479,-2.13623,5.61523,-78.8544,-20.2698,94.8944,3.48359,-9.15879,1.62695,-0.596619,0.322662,0.552551,-0.484283,-123.767,50.4667,-69.2833,-10165,-28520
1128,64326,3.78418,-2.2583,6.22559,-78.8434,-20.2423,94.9109,3.42617,-9.16836,1.68916,-0.596497,0.322662,0.55246,-0.484528,-123.708,50.475,-69.2667,-10165,-28520
1134,64332,4.27246,-1.77002,6.5918,-78.8324,-20.2094,94.9274,3.35918,-9.16836,1.71309,-0.596375,0.322662,0.552368,-0.484802,-123.667,50.5167,-69.25,-10165,-28520
1140,64338,4.45557,-2.2583,6.95801,-78.8159,-20.1819,94.9493,3.32568,-9.20664,1.72744,-0.5961,0.322662,0.552124,-0.485382,-123.633,50.55,-69.1917,-10165,-28520
1146,64344,5.5542,-2.19727,7.01904,-78.7775,-20.1215,94.9878,3.35439,-9.18272,1.61738,-0.595978,0.322662,0.552002,-0.485687,-123.567,50.5833,-69.225,-10165,-28520
1152,64350,6.04248,-2.50244,7.32422,-78.761,-20.0885,95.0043,3.31133,-9.15879,1.66045,-0.595856,0.322632,0.551849,-0.486023,-123.55,50.6083,-69.1917,-10165,-28520
1158,64356,6.28662,-2.19727,7.38525,-78.7335,-20.0555,95.0262,3.38789,-9.16836,1.71787,-0.595703,0.322601,0.551697,-0.486389,-123.542,50.6333,-69.1833,-10165,-28520
1164,64362,6.65283,-2.38037,7.50732,-78.7115,-20.0226,95.0427,3.39746,-9.21143,1.6748,-0.595581,0.322571,0.551514,-0.486755,-123.525,50.6333,-69.2167,-10165,-28520
1170,64368,6.71387,-2.38037,7.56836,-78.6841,-19.9896,95.0647,3.45967,-9.23057,1.62217,-0.595337,0.32251,0.551178,-0.487488,-123.517,50.625,-69.2417,-10173,-28519
1176,64374,7.8125,-2.38037,8.66699,-78.6346,-19.9127,95.1086,3.50273,-9.3167,1.62217,-0.595215,0.322449,0.550995,-0.487885,-123.517,50.6833,-69.3917,-10173,-28519
1182,64380,7.99561,-3.23486,8.91113,-78.6017,-19.8743,95.1361,3.44531,-9.221,1.74658,-0.595093,0.322418,0.550781,-0.488312,-123.517,50.7083,-69.45,-10173,-28519
1188,64386,7.87354,-3.78418,9.39941,-78.5797,-19.8358,95.1636,3.53145,-9.24014,1.8375,-0.59491,0.322357,0.550598,-0.48877,-123.508,50.725,-69.5,-10173,-28519
1194,64392,7.87354,-4.57764,10.2539,-78.5522,-19.7919,95.1965,3.675,-9.30234,1.804,-0.594727,0.322296,0.550415,-0.489227,-123.5,50.7583,-69.525,-10173,-28519
1200,64398,7.8125,-4.5166,10.6812,-78.5303,-19.7479,95.235,3.73242,-9.46025,1.67959,-0.594299,0.322205,0.550049,-0.490234,-123.508,50.7833,-69.5083,-10173,-28519
1206,64404,8.97217,-6.10352,12.6343,-78.4753,-19.6436,95.3174,3.84727,-9.46982,1.76572,-0.594025,0.322174,0.549866,-0.490784,-123.45,50.8,-69.5667,-10173,-28519
1212,64410,8.91113,-7.26318,14.2212,-78.4534,-19.5831,95.3723,3.99561,-9.40283,1.76572,-0.59375,0.322113,0.549683,-0.491394,-123.425,50.8333,-69.5917,-10173,-28519
1218,64416,9.15527,-7.20215,16.2354,-78.4259,-19.5172,95.4272,4.1248,-9.19229,1.84707,-0.593384,0.322052,0.5495,-0.492035,-123.408,50.8667,-69.6,-10173,-28519
1224,64422,7.14111,-7.32422,18.0054,-78.4149,-19.4403,95.4822,4.07217,-9.11094,1.81836,-0.593018,0.322052,0.549286,-0.492737,-123.4,50.875,-69.5917,-10173,-28519
1230,64428,5.5542,-7.8125,19.9585,-78.4094,-19.3524,95.5426,3.99561,-9.28799,1.70352,-0.59201,0.322266,0.54892,-0.494171,-123.4,50.8833,-69.575,-10173,-28519
1236,64434,2.2583,-8.78906,25.1465,-78.4259,-19.1547,95.6799,5.12012,-9.63252,2.33037,-0.591431,0.322479,0.548767,-0.494934,-123.4,50.925,-69.4667,-10173,-28519
1242,64440,2.0752,-2.50244,28.9307,-78.4314,-19.0228,95.7239,4.97178,-9.93398,2.31123,-0.590729,0.322815,0.548645,-0.495697,-123.383,50.95,-69.4333,-10173,-28519
1248,64446,3.2959,-0.244141,31.6162,-78.4259,-18.88,95.7623,3.82334,-9.7043,2.21553,-0.590088,0.323364,0.548279,-0.49649,-123.342,50.9667,-69.3917,-10173,-28519
1254,64452,1.83105,-1.89209,32.4097,-78.4369,-18.7317,95.8063,3.23955,-9.40283,2.29688,-0.589478,0.323975,0.547821,-0.497345,-123.3,51,-69.3167,-10173,-28519
1260,64458,0.549316,-2.86865,32.3486,-78.4479,-18.5834,95.8557,3.68936,-9.61338,2.63184,-0.588043,0.325287,0.547028,-0.499023,-123.267,51.05,-69.275,-10173,-28519
1266,64464,-0.549316,-0.793457,34.6069,-78.4808,-18.2703,95.9436,3.75635,-9.57988,2.50742,-0.58725,0.325989,0.546692,-0.499878,-123.142,51.175,-69.2917,-10173,-28519
1272,64470,-1.64795,0.488281,35.5225,-78.4973,-18.1055,95.9766,3.675,-9.53682,2.56006,-0.586517,0.326752,0.546265,-0.500702,-123.092,51.2667,-69.3083,-10173,-28519
1278,64476,-2.68555,1.34277,36.5601,-78.5193,-17.9352,96.0095,3.64629,-9.62295,2.39258,-0.585754,0.327606,0.545807,-0.501526,-123.042,51.3833,-69.325,-10173,-28519
1284,64482,-3.11279,2.13623,37.8418,-78.5413,-17.7594,96.037,3.78027,-9.77129,2.30166,-0.584991,0.328491,0.545349,-0.50235,-122.975,51.475,-69.3167,-10173,-28519
1290,64488,-3.17383,3.96729,39.6729,-78.5632,-17.5726,96.059,4.11045,-9.99619,2.14375,-0.583435,0.330505,0.544281,-0.504028,-122.917,51.575,-69.3333,-10206,-28515
1296,64494,-3.90625,5.00488,44.6167,-78.6072,-17.1606,96.0974,4.06738,-9.91963,2.06719,-0.582611,0.331604,0.54364,-0.504883,-122.758,51.8083,-69.3667,-10206,-28515
1302,64500,-4.76074,5.24902,46.5698,-78.6346,-16.9409,96.1194,4.14395,-10.2402,2.04326,-0.581726,0.332794,0.542999,-0.505829,-122.667,51.9083,-69.375,-10206,-28515
1308,64506,-4.5166,4.82178,49.5605,-78.6621,-16.7102,96.1469,4.21094,-10.4604,2.11025,-0.580811,0.334045,0.542328,-0.506775,-122.575,51.9917,-69.35,-10206,-28515
1314,64512,-5.00488,4.69971,52.3682,-78.6951,-16.463,96.1743,4.45498,-10.446,2.04326,-0.579803,0.335358,0.541626,-0.507782,-122.475,52.1,-69.3417,-10206,-28515
1320,64518,-5.67627,5.49316,55.2979,-78.728,-16.1993,96.2018,4.50762,-10.6087,1.92842,-0.577637,0.338226,0.540131,-0.509979,-122.4,52.2417,-69.3,-10206,-28515
1326,64524,-6.53076,4.3335,61.9507,-78.8104,-15.6335,96.2732,4.4502,-10.7331,2.11504,-0.576447,0.339752,0.539307,-0.511169,-122.183,52.5333,-69.3833,-10206,-28515
1332,64530,-6.95801,4.08936,66.04,-78.8544,-15.3259,96.3171,4.53154,-10.7379,1.96191,-0.575134,0.34137,0.538483,-0.512451,-122.042,52.725,-69.4167,-10206,-28515
1338,64536,-7.8125,2.99072,69.9463,-78.9038,-15.0018,96.3721,4.49326,-10.7953,1.8375,-0.5737,0.343079,0.537628,-0.513794,-121.917,52.925,-69.4583,-10206,-28515
1344,64542,-8.42285,1.70898,73.4863,-78.9642,-14.6613,96.438,4.67031,-11.0202,1.71309,-0.572174,0.344879,0.536743,-0.515228,-121.758,53.1,-69.5083,-10206,-28515
1350,64548,-7.87354,3.23486,82.2754,-79.0192,-14.2987,96.5039,5.05791,-11.3025,1.50254,-0.568756,0.348663,0.534912,-0.518372,-121.608,53.275,-69.5417,-10206,-28515
1356,64554,-7.93457,5.00488,87.8906,-79.129,-13.5077,96.6302,5.16318,-11.2595,1.44033,-0.566925,0.350708,0.533844,-0.520081,-121.292,53.7167,-69.55,-10206,-28515
1362,64560,-7.75146,6.95801,93.4448,-79.184,-13.0682,96.6852,5.22061,-11.3121,1.28242,-0.565002,0.352936,0.532654,-0.521881,-121.1,53.95,-69.5667,-10206,-28515
1368,64566,-7.44629,10.0708,98.3887,-79.2279,-12.6068,96.7291,5.29717,-11.4987,1.13408,-0.563019,0.355286,0.531342,-0.523773,-120.917,54.1667,-69.5917,-10206,-28515
1374,64572,-6.95801,12.6953,103.638,-79.2719,-12.1124,96.7621,5.1249,-11.9629,1.12451,-0.560974,0.357849,0.529846,-0.525726,-120.708,54.4083,-69.6083,-10206,-28515
1380,64578,-4.82178,10.9863,110.901,-79.3103,-11.6071,96.795,4.11523,-11.6758,1.37813,-0.556763,0.363281,0.526428,-0.529907,-120.508,54.6667,-69.6,-10206,-28515
1386,64584,-5.92041,7.01904,113.22,-79.3927,-10.5524,96.9159,3.71328,-11.3504,1.47861,-0.554474,0.366028,0.524658,-0.532135,-120.025,55.175,-69.5167,-10206,-28515
1392,64590,-8.48389,3.23486,115.295,-79.4531,-10.0195,97.0093,3.58887,-11.1638,1.53604,-0.552032,0.368774,0.52298,-0.534485,-119.767,55.4833,-69.45,-10206,-28515
1398,64596,-11.7798,0.183105,117.065,-79.5355,-9.4812,97.1136,3.5458,-11.47,1.63652,-0.549377,0.37149,0.521393,-0.536835,-119.458,55.8,-69.375,-10206,-28515
1404,64602,-12.5732,-3.05176,117.371,-79.6179,-8.94287,97.24,3.7085,-11.6901,1.35898,-0.54657,0.374268,0.519928,-0.539215,-119.167,56.0917,-69.3167,-10206,-28515
1410,64608,-13.1226,-4.57764,119.446,-79.7058,-8.39905,97.3663,3.96211,-11.7045,1.17715,-0.54068,0.3797,0.517151,-0.544006,-118.842,56.4,-69.3,-10215,-28514
1416,64614,-12.3291,-6.22559,118.774,-79.8816,-7.31689,97.63,3.99082,-11.5514,1.0001,-0.537659,0.382385,0.515747,-0.546417,-118.117,57.0833,-69.3,-10215,-28514
1422,64620,-9.94873,-7.69043,116.577,-79.953,-6.79504,97.7728,4.44063,-11.0298,1.05273,-0.534637,0.38501,0.514404,-0.548828,-117.708,57.425,-69.3417,-10215,-28514
1428,64626,-4.94385,-9.0332,110.657,-79.9969,-6.30066,97.9102,5.36895,-9.53203,1.42119,-0.531647,0.387482,0.513031,-0.55127,-117.292,57.75,-69.3833,-10215,-28514
1434,64632,-0.610352,-12.2681,98.3276,-80.0189,-5.87769,98.0585,6.40254,-7.34043,1.37334,-0.52887,0.389648,0.511688,-0.55365,-116.9,58.075,-69.4417,-10215,-28514
1440,64638,-2.0752,-16.0522,67.9321,-80.0409,-5.53711,98.2068,9.13965,-6.69443,1.03838,-0.5242,0.392548,0.509735,-0.557831,-116.508,58.425,-69.475,-10215,-28514
1446,64644,0,-14.4653,55.1147,-80.0848,-5.07568,98.465,11.0394,-5.88574,0.813477,-0.5224,0.393433,0.509247,-0.559357,-115.75,59.05,-69.5083,-10215,-28514
1452,64650,2.68555,-12.146,44.7388,-80.0848,-4.93835,98.5583,12.5132,-3.83291,0.645996,-0.520966,0.393982,0.508911,-0.560577,-115.392,59.35,-69.4917,-10215,-28514
1458,64656,1.77002,-4.82178,34.729,-80.0793,-4.85046,98.6133,12.7189,-1.52646,0.77041,-0.519928,0.394257,0.508667,-0.561584,-115.067,59.6583,-69.4417,-10215,-28514
1464,64662,-6.5918,7.38525,24.0479,-80.1178,-4.8175,98.5968,10.3264,-0.162695,1.41641,-0.519318,0.39447,0.508484,-0.562164,-114.758,59.925,-69.3833,-10215,-28514
1470,64668,-22.3389,-11.8408,-20.9351,-80.3265,-5.10315,98.6133,8.39316,-1.76572,1.02881,-0.519226,0.39505,0.509155,-0.561218,-114.467,60.1667,-69.3167,-10215,-28514
1476,64674,-25.4517,-15.1978,-39.856,-80.4584,-5.41077,98.6572,9.99141,-1.28721,0.62207,-0.519501,0.394287,0.510712,-0.560089,-113.917,60.6583,-69.1667,-10215,-28514
1482,64680,-26.3062,-19.165,-54.3213,-80.5902,-5.79529,98.7067,10.9819,-2.27773,0.818262,-0.520081,0.393066,0.512787,-0.558502,-113.675,60.8417,-69.1167,-10215,-28514
1488,64686,-21.9116,-20.5688,-64.7583,-80.7056,-6.24023,98.7561,11.4652,-2.91416,1.02402,-0.520966,0.391449,0.515198,-0.55661,-113.475,61.0083,-69.1,-10215,-28514
1494,64692,-16.5405,-23.1323,-73.1201,-80.788,-6.73462,98.8165,11.537,-2.75625,1.23936,-0.522156,0.389374,0.517761,-0.554596,-113.3,61.1583,-69.075,-10215,-28514
1500,64698,-9.8877,-27.5269,-86.792,-80.8539,-7.26196,98.8715,10.1397,-2.60313,1.804,-0.525177,0.384216,0.52298,-0.550385,-113.192,61.2833,-69.0417,-10215,-28514
1506,64704,-7.56836,-32.6538,-94.9097,-80.9473,-8.44299,99.0308,9.50811,-2.64141,2.06719,-0.526947,0.381134,0.525757,-0.548187,-113.133,61.4083,-68.9833,-10215,-28514
1512,64710,-6.10352,-37.7197,-104.553,-80.9857,-9.10767,99.1406,9.39805,-2.8376,2.23467,-0.528839,0.377655,0.528717,-0.545959,-113.2,61.4417,-68.9583,-10215,-28514
1518,64716,-4.45557,-41.3818,-113.831,-81.0132,-9.82178,99.267,9.51289,-3.22998,2.37344,-0.530823,0.373749,0.531891,-0.54361,-113.317,61.4333,-68.9167,-10231,-28512
1524,64722,-2.50244,-44.2505,-123.047,-81.0297,-10.5853,99.3933,9.76172,-3.55537,2.53613,-0.53299,0.369507,0.535217,-0.541107,-113.458,61.3667,-68.85,-10231,-28512
1530,64728,1.52588,-44.9219,-139.648,-81.0406,-12.2388,99.646,9.82871,-4.14395,2.82324,-0.537811,0.359985,0.542267,-0.535706,-113.617,61.2833,-68.7667,-10231,-28512
1536,64734,2.80762,-43.0908,-147.827,-81.0242,-13.1232,99.7504,9.64209,-4.42627,3.03857,-0.540527,0.354828,0.545868,-0.532776,-114.067,61.05,-68.5583,-10231,-28512
1542,64740,3.54004,-41.8701,-154.724,-81.0077,-14.035,99.8492,9.37412,-4.67988,3.24434,-0.543457,0.349426,0.549469,-0.529663,-114.358,60.8833,-68.4417,-10231,-28512
1548,64746,3.479,-39.917,-161.865,-80.9857,-14.9854,99.9316,9.13486,-4.99092,3.34961,-0.546539,0.343872,0.55307,-0.526337,-114.692,60.6667,-68.3667,-10231,-28512
1554,64752,3.17383,-37.7197,-168.335,-80.9583,-15.9576,99.9976,8.87168,-5.50293,3.45967,-0.549774,0.338165,0.556702,-0.522797,-115.017,60.4333,-68.2583,-10231,-28512
1560,64758,2.99072,-32.7759,-180.176,-80.8923,-17.9736,100.069,8.34053,-6.82363,3.51709,-0.556732,0.326447,0.563934,-0.515106,-115.358,60.1833,-68.1667,-10231,-28512
1566,64764,3.2959,-29.9683,-184.692,-80.8484,-19.0118,100.08,8.15391,-7.51748,3.53623,-0.560425,0.320435,0.567474,-0.510956,-116.167,59.5333,-67.9917,-10231,-28512
1572,64770,4.21143,-27.4658,-189.331,-80.7935,-20.0665,100.069,7.90986,-8.2209,3.57451,-0.56424,0.314362,0.570953,-0.506653,-116.642,59.1667,-67.875,-10231,-28512
1578,64776,5.43213,-24.6582,-192.261,-80.7275,-21.1212,100.036,7.72803,-8.76162,3.58887,-0.568176,0.308197,0.57431,-0.502197,-117.15,58.775,-67.7333,-10231,-28512
1584,64782,6.40869,-21.5454,-193.97,-80.6451,-22.1869,99.9866,7.62275,-9.23535,3.5458,-0.572205,0.302032,0.577576,-0.49762,-117.675,58.3167,-67.6167,-10231,-28512
1590,64788,7.69043,-14.3433,-196.228,-80.4474,-24.2963,99.8053,7.01982,-10.3934,3.35918,-0.580444,0.289734,0.583649,-0.48822,-118.708,57.35,-67.3583,-10231,-28512
1596,64794,8.72803,-11.5356,-198.242,-80.332,-25.351,99.6844,6.52695,-10.9054,3.30654,-0.584656,0.283661,0.586426,-0.483398,-119.275,56.8083,-67.2167,-10231,-28512
1602,64800,9.64355,-9.52148,-200.5,-80.2002,-26.4056,99.5416,6.2877,-11.3073,3.14863,-0.588928,0.277618,0.589081,-0.478516,-119.842,56.2167,-67.0833,-10231,-28512
1608,64806,9.94873,-7.08008,-202.576,-80.0519,-27.4658,99.3823,6.10586,-11.5992,3.08164,-0.593231,0.271545,0.591614,-0.473511,-120.417,55.5917,-66.9833,-10231,-28512
1614,64812,10.0708,-3.84521,-203.857,-79.8981,-28.5205,99.1956,5.91445,-12.0155,3.01943,-0.597595,0.265503,0.594025,-0.468414,-121.008,54.9583,-66.875,-10231,-28512
1620,64818,9.46045,3.96729,-205.078,-79.541,-30.6134,98.7341,5.95752,-12.5467,2.78018,-0.606415,0.253571,0.598419,-0.457947,-122.2,53.6583,-66.8083,-10231,-28512
1626,64824,8.48389,9.15527,-204.041,-79.3378,-31.6351,98.4485,5.89053,-12.7477,2.62227,-0.610901,0.247803,0.600372,-0.452576,-122.767,52.9667,-66.7917,-10231,-28512
1632,64830,7.44629,14.8926,-202.026,-79.1235,-32.6349,98.1244,5.78525,-12.8673,2.42607,-0.615387,0.242188,0.602142,-0.447144,-123.358,52.25,-66.8,-10256,-28509
1638,64836,5.00488,21.4844,-198.792,-78.8873,-33.6072,97.7618,5.33066,-12.9056,2.26816,-0.619934,0.236816,0.603668,-0.44165,-123.95,51.5,-66.8,-10256,-28509
1644,64842,2.13623,27.832,-195.313,-78.6456,-34.552,97.3499,4.90957,-12.8912,2.07197,-0.624512,0.23175,0.60498,-0.436066,-124.542,50.7,-66.7833,-10256,-28509
1650,64848,-5.85938,41.0156,-188.782,-78.1238,-36.3428,96.3885,3.85684,-12.9869,1.78486,-0.633636,0.222626,0.606995,-0.424713,-125.65,49.0667,-66.775,-10256,-28509
1656,64854,-9.52148,46.814,-185.608,-77.8436,-37.1942,95.8447,3.63672,-13.0683,1.62695,-0.638214,0.218567,0.607697,-0.418915,-126.192,48.2667,-66.7833,-10256,-28509
1662,64860,-13.3057,55.1758,-183.044,-77.547,-38.0127,95.2405,3.40225,-13.1257,1.57432,-0.642822,0.214874,0.608215,-0.412994,-126.717,47.4417,-66.8167,-10256,-28509
1668,64866,-17.1509,62.8662,-178.467,-77.2339,-38.7982,94.5813,3.096,-13.1544,1.55518,-0.647461,0.211517,0.608521,-0.406982,-127.208,46.5917,-66.9,-10256,-28509
1674,64872,-18.7988,71.3501,-173.584,-76.8823,-39.5343,93.8672,2.36387,-13.2262,1.78486,-0.652161,0.208557,0.608582,-0.400909,-127.7,45.7667,-67.0167,-10256,-28509
1680,64878,-19.5313,80.3833,-155.334,-76.1078,-40.8472,92.3346,0.0334961,-13.1448,2.97637,-0.661621,0.203674,0.607758,-0.388947,-128.608,44.125,-67.2833,-10256,-28509
1686,64884,-20.813,83.1299,-139.343,-75.7123,-41.3745,91.5601,-1.14844,-14.2454,2.29688,-0.666168,0.201813,0.606995,-0.383331,-129.008,43.3167,-67.4333,-10256,-28509
1692,64890,-16.7847,83.6182,-123.718,-75.3058,-41.814,90.7965,-1.94277,-15.4226,1.61738,-0.670471,0.20047,0.605957,-0.378113,-129.392,42.5083,-67.5833,-10256,-28509
1698,64896,-9.70459,83.7402,-108.582,-74.8718,-42.171,90.0494,-2.78975,-16.0159,0.75127,-0.6745,0.199493,0.604675,-0.373474,-129.758,41.6917,-67.7167,-10256,-28509
1704,64902,-3.84521,84.1675,-94.5435,-74.4214,-42.4457,89.3134,-3.86162,-15.5613,-0.0669922,-0.681915,0.198303,0.601288,-0.366058,-130.083,40.8833,-67.8917,-10256,-28509
1710,64908,0.305176,78.5522,-76.1719,-73.537,-42.8357,87.9401,-6.97676,-14.0444,-1.38291,-0.685303,0.198029,0.599335,-0.363068,-130.642,39.3417,-68.3083,-10256,-28509
1716,64914,-1.70898,71.228,-70.6787,-73.1635,-42.9785,87.3303,-7.87637,-13.2405,-2.01455,-0.688416,0.197937,0.597412,-0.360382,-130.883,38.65,-68.5417,-10256,-28509
1722,64920,-5.79834,63.9038,-62.9272,-72.8503,-43.0884,86.781,-8.37881,-12.7572,-2.56963,-0.691193,0.197998,0.595673,-0.35791,-131.108,37.9833,-68.8,-10256,-28509
1728,64926,-10.2539,56.1523,-53.1006,-72.6141,-43.1488,86.3086,-8.82861,-12.6424,-2.92373,-0.693604,0.198334,0.594116,-0.355652,-131.292,37.3417,-69.1167,-10256,-28509
1734,64932,-14.2212,48.2178,-40.2832,-72.4603,-43.1543,85.9131,-9.24971,-12.6424,-3.03857,-0.697052,0.200043,0.591614,-0.352051,-131.467,36.75,-69.425,-10256,-28509
1740,64938,-22.583,33.8745,-10.6201,-72.3779,-42.9675,85.3693,-9.70908,-12.8051,-2.64619,-0.698059,0.201508,0.590637,-0.350891,-131.742,35.6583,-70.075,-10256,-28509
1746,64944,-25.2075,28.0762,3.479,-72.4384,-42.7753,85.2045,-10.0584,-13.2405,-2.09111,-0.698608,0.203461,0.589752,-0.350159,-131.825,35.1667,-70.3667,-10256,-28509
1752,64950,-37.4756,-0.427246,32.6538,-72.7185,-42.4841,85.2869,-1.58389,-16.5854,3.70371,-0.698761,0.20578,0.588959,-0.349854,-131.892,34.7333,-70.65,-10231,-28512
1758,64956,-104.065,67.8101,102.478,-73.1305,-41.7645,85.0616,-5.31152,-18.9588,0.483301,-0.697601,0.208771,0.588959,-0.350403,-131.942,34.3583,-70.9333,-10231,-28512
1764,64962,-52.124,60.1807,114.685,-73.3392,-40.9845,84.9078,-17.6955,-15.9824,-6.91455,-0.695435,0.223145,0.584747,-0.352875,-131.975,34.0333,-71.2083,-10231,-28512
1770,64968,-47.1191,-10.6201,144.958,-74.3225,-39.3915,85.5286,5.45029,-8.63242,3.21563,-0.692352,0.229156,0.584076,-0.356171,-132.033,33.625,-71.7083,-10231,-28512
1776,64974,-45.8374,15.5029,143.127,-74.6906,-38.5455,85.6824,4.62725,-9.98184,-0.449805,-0.689026,0.235138,0.583313,-0.359985,-132.058,33.525,-71.9,-10231,-28512
1782,64980,-46.0205,3.90625,128.906,-75.0806,-37.7985,85.8746,5.65127,-12.9726,1.40684,-0.68634,0.241394,0.581787,-0.363434,-132.058,33.5167,-72.0667,-10231,-28512
1788,64986,-36.0107,-12.207,118.225,-75.4596,-37.1228,86.1383,9.61816,-11.3839,2.94287,-0.683594,0.24704,0.580688,-0.366516,-132,33.5917,-72.2,-10231,-28512
1794,64992,-28.3203,-30.6396,121.948,-75.8606,-36.4691,86.5063,14.5182,-3.83291,-0.382813,-0.677368,0.256073,0.579803,-0.37323,-131.933,33.7583,-72.3333,-10231,-28512
1800,64998,-61.0962,55.481,136.536,-76.4264,-34.9365,86.4349,10.9484,-4.13438,0.162695,-0.675049,0.261627,0.578339,-0.375824,-131.725,34.2333,-72.5833,-10231,-28512
1806,65004,-64.7583,55.7861,147.095,-76.712,-34.0796,86.3031,6.62266,-5.22539,2.14375,-0.673279,0.268463,0.575928,-0.377869,-131.6,34.5333,-72.7333,-10231,-28512
1812,65010,-70.4956,48.4009,149.536,-77.0471,-33.2227,86.2152,4.03867,-5.95273,2.99551,-0.671295,0.275635,0.573425,-0.380096,-131.475,34.85,-72.8333,-10231,-28512
1818,65016,-82.1533,46.2036,146.179,-77.4371,-32.3932,86.1273,2.54092,-7.94814,2.95244,-0.668976,0.282867,0.571136,-0.382263,-131.333,35.2417,-72.925,-10231,-28512
1824,65022,-89.3555,46.0205,138.184,-77.8601,-31.6022,86.0229,0.387598,-16.4753,1.21543,-0.664001,0.297577,0.567322,-0.385437,-131.142,35.6667,-73.0083,-10231,-28512
1830,65028,-57.9224,34.5459,118.652,-78.5468,-30.1849,85.8856,0.966602,-17.9013,0.162695,-0.661499,0.304352,0.565765,-0.38681,-130.658,36.625,-73.075,-10231,-28512
1836,65034,-31.9214,31.7993,113.098,-78.7006,-29.5367,85.8197,1.50732,-16.3509,1.29678,-0.659393,0.310059,0.563934,-0.388489,-130.408,37.1583,-73.1083,-10231,-28512
1842,65040,-14.8315,27.5879,109.558,-78.7775,-28.9105,85.7703,1.17236,-13.7095,3.05771,-0.657654,0.314819,0.561798,-0.390656,-130.133,37.675,-73.15,-10231,-28512
1848,65046,-5.12695,12.4512,105.835,-78.8379,-28.3173,85.8032,0.746484,-11.1207,4.23965,-0.656128,0.318909,0.55954,-0.393219,-129.85,38.2167,-73.2167,-10231,-28512
1854,65052,-5.37109,0.0610352,103.943,-78.9258,-27.746,85.9021,0.717773,-8.52715,5.74219,-0.652405,0.32547,0.555908,-0.399109,-129.575,38.7833,-73.2917,-10231,-28512
1860,65058,-21.6675,-22.0947,93.5059,-79.2773,-26.7133,86.2317,0.842188,-9.84785,4.2875,-0.650208,0.328583,0.554688,-0.401855,-129.042,39.8833,-73.4,-10231,-28512
1866,65064,-18.9209,-31.0669,86.6699,-79.4916,-26.2628,86.4734,2.09111,-12.4893,2.27295,-0.647614,0.331482,0.554077,-0.40448,-128.775,40.4,-73.4333,-10190,-28517
1872,65070,-9.39941,-34.5459,82.2144,-79.6619,-25.8344,86.7261,3.90469,-12.0155,-0.90918,-0.644958,0.333954,0.553772,-0.407074,-128.517,40.8833,-73.4583,-10190,-28517
1878,65076,-3.90625,-28.0762,78.6133,-79.7882,-25.4224,86.9403,4.97656,-12.9343,-1.76572,-0.642456,0.335968,0.553467,-0.409821,-128.283,41.375,-73.45,-10190,-28517
1884,65082,9.0332,-18.8599,72.6929,-79.8267,-25.0378,87.0996,5.40723,-10.9676,-1.69873,-0.638489,0.339386,0.552032,-0.41507,-128.042,41.8667,-73.4417,-10190,-28517
1890,65088,9.76563,7.99561,60.791,-79.7772,-24.3347,87.1875,4.8665,-9.6708,-0.421094,-0.637238,0.34079,0.550873,-0.417389,-127.55,42.825,-73.3833,-10190,-28517
1896,65094,0.488281,15.8081,55.9692,-79.7772,-24.0106,87.1381,3.38789,-9.9292,0.483301,-0.636383,0.342499,0.549408,-0.41925,-127.317,43.3083,-73.3417,-10190,-28517
1902,65100,-0.0610352,13.0615,51.0864,-79.7827,-23.7085,87.0996,2.22988,-10.8001,0.712988,-0.635651,0.344452,0.547974,-0.420593,-127.092,43.75,-73.275,-10190,-28517
1908,65106,4.39453,8.42285,46.814,-79.7772,-23.4338,87.0831,2.40215,-10.2546,1.45469,-0.634949,0.346283,0.546692,-0.421814,-126.867,44.1333,-73.2583,-10190,-28517
1914,65112,-14.2822,11.5967,29.2358,-79.7882,-23.1866,87.0721,1.05752,-10.8527,1.67002,-0.633575,0.349243,0.544556,-0.424194,-126.65,44.4917,-73.2417,-10190,-28517
1920,65118,-9.15527,0.671387,23.0103,-79.9255,-22.8516,87.0227,1.90449,-10.6183,1.1293,-0.633026,0.350891,0.543915,-0.4245,-126.283,45.1667,-73.2417,-10190,-28517
1926,65124,-10.1929,0.854492,18.1274,-79.9915,-22.7252,87.0172,3.04814,-9.66602,1.04316,-0.632416,0.35202,0.543549,-0.424927,-126.1,45.4833,-73.2667,-10190,-28517
1932,65130,-12.0239,3.2959,17.2119,-80.0629,-22.6044,87.0007,3.46924,-9.19229,1.14365,-0.631866,0.353088,0.543304,-0.425201,-125.95,45.8,-73.3,-10190,-28517
1938,65136,-13.7939,3.41797,15.3809,-80.1398,-22.4945,86.9788,2.93809,-9.52246,1.37813,-0.631378,0.354187,0.54303,-0.425354,-125.8,46.0917,-73.3417,-10190,-28517
1944,65142,-11.0474,-2.13623,9.09424,-80.2167,-22.4066,86.9678,2.30645,-9.68994,2.0624,-0.630432,0.356232,0.542694,-0.425446,-125.642,46.375,-73.35,-10190,-28517
1950,65148,-10.6201,-5.18799,6.04248,-80.365,-22.2748,86.9897,2.43564,-9.54639,2.12939,-0.630005,0.357025,0.542694,-0.425476,-125.342,46.8083,-73.325,-10190,-28517
1956,65154,-10.8643,-5.79834,3.35693,-80.4364,-22.2363,87.0062,2.81846,-9.65166,2.12939,-0.629547,0.357635,0.542786,-0.425476,-125.2,47.0083,-73.2917,-10190,-28517
1962,65160,-10.1929,-7.20215,1.58691,-80.5078,-22.2034,87.0282,3.12949,-9.54639,1.86621,-0.62915,0.358185,0.542938,-0.425415,-125.075,47.1833,-73.3083,-10190,-28517
1968,65166,-10.5591,-8.48389,0.183105,-80.5847,-22.1814,87.0557,3.3209,-9.23057,1.69395,-0.628754,0.358612,0.543152,-0.425354,-124.95,47.3417,-73.3167,-10190,-28517
1974,65172,-11.5356,-9.27734,-0.854492,-80.6616,-22.1649,87.0831,3.43574,-9.23057,1.52646,-0.62793,0.359375,0.543762,-0.42514,-124.858,47.4917,-73.3417,-10190,-28517
1980,65178,-11.0474,-9.27734,-1.52588,-80.8209,-22.1429,87.149,3.43096,-9.38369,1.60303,-0.627533,0.359741,0.544098,-0.424988,-124.708,47.7917,-73.3583,-10190,-28517
1986,65184,-10.6812,-10.1318,-2.01416,-80.8923,-22.1375,87.182,3.55537,-9.29756,1.55996,-0.627136,0.360077,0.544434,-0.424835,-124.633,47.9083,-73.375,-10206,-28515
1992,65190,-10.6812,-11.6577,-1.46484,-80.9747,-22.132,87.226,3.7085,-9.13965,1.42119,-0.62677,0.360352,0.54483,-0.424713,-124.575,48.0333,-73.35,-10206,-28515
1998,65196,-10.6812,-10.9253,-2.01416,-81.0516,-22.132,87.2644,3.93818,-9.22578,1.37334,-0.626343,0.360596,0.545227,-0.424591,-124.533,48.1583,-73.3167,-10198,-28516
2004,65202,-10.9253,-10.376,-1.52588,-81.1285,-22.1265,87.3029,3.74199,-9.28799,1.30156,-0.625549,0.361115,0.546021,-0.424316,-124.492,48.2667,-73.275,-10198,-28516
2010,65208,-10.0708,-10.2539,-1.40381,-81.2769,-22.121,87.3743,3.56973,-9.35977,1.27764,-0.625153,0.361389,0.546387,-0.424164,-124.433,48.4833,-73.2083,-10198,-28516
2016,65214,-9.58252,-11.4746,-1.95313,-81.3483,-22.121,87.4182,3.67979,-9.20664,1.32549,-0.624786,0.361633,0.546753,-0.424042,-124.425,48.5917,-73.1583,-10198,-28516
2022,65220,-9.0332,-10.5591,-1.28174,-81.4142,-22.1155,87.4567,3.98604,-9.23057,1.15801,-0.62439,0.361816,0.54718,-0.42392,-124.417,48.6583,-73.075,-10198,-28516
2028,65226,-8.48389,-10.5591,-0.976563,-81.4801,-22.1155,87.4951,3.89512,-9.12529,1.00967,-0.624054,0.362,0.547516,-0.423828,-124.417,48.7,-72.9667,-10198,-28516
2034,65232,-6.65283,-9.58252,-0.305176,-81.601,-22.1045,87.5665,3.77549,-9.29277,1.05752,-0.623322,0.362366,0.548218,-0.423676,-124.417,48.75,-72.8917,-10198,-28516
2040,65238,-5.67627,-9.46045,-0.244141,-81.6504,-22.099,87.5995,3.75156,-9.32627,1.00967,-0.623016,0.362549,0.548492,-0.423615,-124.433,48.8417,-72.725,-10198,-28516
2046,65244,-4.3335,-9.33838,-0.244141,-81.6888,-22.0935,87.6324,3.84248,-9.28799,0.90918,-0.622711,0.362671,0.548767,-0.423584,-124.433,48.8917,-72.7167,-10198,-28516
2052,65250,-3.05176,-8.54492,0.183105,-81.7273,-22.088,87.6599,3.94297,-9.20664,0.866113,-0.622437,0.362762,0.549011,-0.423584,-124.433,48.9583,-72.675,-10198,-28516
2058,65256,-2.0752,-8.11768,1.15967,-81.7548,-22.077,87.6874,4.03867,-9.11572,0.741699,-0.622223,0.362854,0.549194,-0.423615,-124.45,49.0083,-72.6167,-10198,-28516
2064,65262,-0.366211,-5.43213,2.92969,-81.7932,-22.0386,87.7258,3.99561,-9.10137,0.880469,-0.621796,0.363068,0.549438,-0.423737,-124.45,49.0417,-72.5417,-10198,-28516
2070,65268,0,-5.18799,3.41797,-81.8097,-22.0166,87.7368,4.01953,-9.03916,0.899609,-0.621613,0.36319,0.549469,-0.423828,-124.417,49.0583,-72.35,-10198,-28516
2076,65274,0.488281,-4.3335,4.45557,-81.8207,-21.9891,87.7478,4.21094,-8.95781,0.90918,-0.62146,0.363312,0.549469,-0.42395,-124.417,49.075,-72.2667,-10198,-28516
2082,65280,0.0610352,-2.80762,5.61523,-81.8317,-21.9562,87.7478,4.00518,-8.93389,0.823047,-0.621307,0.363464,0.549438,-0.424072,-124.417,49.0917,-72.2,-10198,-28516
2088,65286,0,-2.2583,5.92041,-81.8427,-21.9232,87.7478,3.65107,-9.15879,1.01445,-0.621155,0.363678,0.549377,-0.424194,-124.425,49.1083,-72.1417,-10198,-28516
2094,65292,1.0376,-1.70898,5.79834,-81.8481,-21.8573,87.7478,3.67979,-8.93389,1.33027,-0.620911,0.364136,0.549164,-0.424469,-124.433,49.1417,-72.1083,-10198,-28516
2100,65298,0.0610352,-1.77002,6.04248,-81.8591,-21.8243,87.7423,3.73721,-8.82861,1.34463,-0.620819,0.364349,0.549042,-0.424591,-124.458,49.2583,-72.0167,-10206,-28515
2106,65304,-0.610352,-1.40381,6.40869,-81.8701,-21.7859,87.7368,3.66064,-8.89082,1.36377,-0.620697,0.364594,0.54892,-0.424713,-124.425,49.2917,-71.9917,-10206,-28515
2112,65310,-1.52588,-1.34277,6.83594,-81.8866,-21.7474,87.7368,3.68936,-8.90518,1.38291,-0.620575,0.364868,0.548798,-0.424805,-124.4,49.325,-71.9583,-10206,-28515
2118,65316,-1.77002,-0.549316,6.95801,-81.8976,-21.709,87.7258,3.62715,-8.98652,1.30635,-0.620422,0.365143,0.548706,-0.424896,-124.4,49.3667,-71.9167,-10206,-28515
2124,65322,-2.01416,-1.15967,7.01904,-81.9305,-21.6321,87.7203,3.63193,-9.08223,1.18672,-0.620148,0.365784,0.548462,-0.425079,-124.4,49.3917,-71.8833,-10206,-28515
2130,65328,-1.52588,-1.34277,7.32422,-81.947,-21.5936,87.7148,3.70371,-9.07744,1.15322,-0.619995,0.366089,0.54837,-0.42514,-124.383,49.45,-71.85,-10206,-28515
2136,65334,-1.2207,-1.52588,7.69043,-81.958,-21.5552,87.7148,3.8042,-9.02959,1.09102,-0.619843,0.366394,0.548279,-0.425232,-124.392,49.4917,-71.8083,-10206,-28515
2142,65340,-1.64795,-1.83105,8.23975,-81.9745,-21.5167,87.7148,3.74678,-8.99131,1.16758,-0.61969,0.366669,0.548157,-0.425354,-124.392,49.5333,-71.7917,-10206,-28515
2148,65346,-1.52588,-2.50244,8.23975,-81.991,-21.4728,87.7148,3.675,-9.04873,1.225,-0.619507,0.367004,0.548065,-0.425507,-124.383,49.5667,-71.775,-10206,-28515
2154,65352,-1.40381,-3.23486,8.42285,-82.0294,-21.3904,87.7313,3.65107,-9.02002,1.1293,-0.61911,0.367584,0.547882,-0.425781,-124.375,49.6333,-71.7083,-10206,-28515
2160,65358,-1.40381,-3.41797,9.21631,-82.0459,-21.3464,87.7423,3.6415,-9.00088,1.11016,-0.618896,0.367859,0.547821,-0.425964,-124.375,49.6833,-71.6667,-10206,-28515
2166,65364,-1.40381,-4.08936,9.33838,-82.0679,-21.3025,87.7533,3.71328,-9.02959,1.13408,-0.618683,0.368134,0.547729,-0.426147,-124.358,49.725,-71.6083,-10206,-28515
2172,65370,-1.83105,-4.3335,9.52148,-82.0898,-21.2531,87.7698,3.82813,-9.00088,1.11973,-0.618439,0.368408,0.547668,-0.426331,-124.358,49.7667,-71.5417,-10206,-28515
2178,65376,-2.19727,-3.60107,10.5591,-82.1118,-21.2036,87.7808,3.7707,-9.01045,1.15801,-0.618164,0.368683,0.547638,-0.426514,-124.35,49.825,-71.45,-10206,-28515
2184,65382,-3.35693,-3.90625,9.76563,-82.1667,-21.1102,87.7972,3.32568,-9.14443,1.22979,-0.617645,0.369385,0.547485,-0.42688,-124.325,49.8917,-71.325,-10206,-28515
2190,65388,-2.99072,-4.02832,9.64355,-82.1942,-21.0663,87.8137,3.27305,-9.17793,1.29678,-0.617371,0.36972,0.547455,-0.427032,-124.3,49.9333,-71.2917,-10206,-28515
2196,65394,-3.17383,-4.21143,8.36182,-82.2217,-21.0278,87.8247,3.31133,-9.12529,1.26328,-0.617096,0.370026,0.547394,-0.427185,-124.292,49.9833,-71.275,-10206,-28515
2202,65400,-3.17383,-5.18799,8.05664,-82.2491,-20.9894,87.8412,3.3209,-9.17314,1.24414,-0.616821,0.370331,0.547394,-0.427338,-124.283,50.025,-71.2667,-10206,-28515
2208,65406,-2.92969,-5.79834,7.75146,-82.2766,-20.9564,87.8632,3.43096,-9.154,1.20107,-0.616547,0.370605,0.547424,-0.42746,-124.267,50.0583,-71.2917,-10206,-28515
2214,65412,-2.56348,-6.65283,7.44629,-82.337,-20.8905,87.9126,3.69414,-9.0918,1.13408,-0.615997,0.371033,0.547516,-0.427734,-124.267,50.125,-71.325,-10231,-28512
2220,65418,-3.11279,-6.16455,7.93457,-82.3645,-20.8575,87.9346,3.89033,-9.00088,0.92832,-0.615723,0.371246,0.547577,-0.427887,-124.275,50.1583,-71.3333,-10231,-28512
2226,65424,-3.66211,-5.37109,8.8501,-82.3975,-20.8191,87.9565,3.67979,-9.08701,1.01445,-0.615417,0.37149,0.547638,-0.42804,-124.25,50.1667,-71.3417,-10231,-28512
2232,65430,-3.05176,-5.85938,8.66699,-82.4304,-20.7806,87.9785,3.35918,-9.32148,1.20107,-0.615143,0.371765,0.547668,-0.428192,-124.225,50.1917,-71.2917,-10231,-28512
2238,65436,-2.62451,-6.10352,8.48389,-82.4579,-20.7422,88.0005,3.29697,-9.31191,1.28721,-0.614838,0.372009,0.547699,-0.428345,-124.208,50.2417,-71.2083,-10231,-28512
2244,65442,-1.34277,-7.26318,6.89697,-82.5018,-20.6763,88.0554,3.34482,-9.28799,1.15801,-0.614288,0.372437,0.54776,-0.428711,-124.158,50.3,-71.025,-10231,-28512
2250,65448,-0.305176,-6.95801,6.65283,-82.5183,-20.6488,88.0774,3.56016,-9.24492,1.02881,-0.614014,0.372559,0.547821,-0.428894,-124.142,50.3333,-70.95,-10231,-28512
2256,65454,-0.0610352,-6.22559,6.5918,-82.5293,-20.6213,88.0994,3.50273,-9.24492,0.980957,-0.61377,0.372681,0.547852,-0.429108,-124.133,50.4083,-70.9,-10231,-28512
2262,65460,0,-6.10352,7.14111,-82.5458,-20.5939,88.1268,3.56494,-9.13486,0.90918,-0.613556,0.372803,0.547882,-0.429291,-124.117,50.4917,-70.9,-10231,-28512
2268,65466,0.427246,-6.65283,7.62939,-82.5568,-20.5609,88.1488,3.59365,-9.01045,1.10059,-0.613068,0.373047,0.547882,-0.429718,-124.092,50.5583,-70.9083,-10231,-28512
2274,65472,0,-6.7749,8.72803,-82.5897,-20.4895,88.1982,3.78984,-8.97695,1.11494,-0.612854,0.373199,0.547882,-0.429932,-124.058,50.6833,-70.9167,-10231,-28512
2280,65478,-2.44141,-5.85938,9.94873,-82.6172,-20.4456,88.2202,3.96689,-8.82861,1.07187,-0.612579,0.373352,0.547882,-0.430176,-124.042,50.725,-70.9083,-10231,-28512
2286,65484,-3.66211,-5.43213,10.9253,-82.6501,-20.3961,88.2422,3.77549,-8.99609,1.25371,-0.612274,0.373596,0.547882,-0.430389,-124.025,50.75,-70.8917,-10231,-28512
2292,65490,-3.84521,-5.98145,11.9019,-82.6831,-20.3412,88.2697,3.68936,-9.15879,1.13887,-0.611938,0.373932,0.547882,-0.430603,-124.008,50.7833,-70.9167,-10231,-28512
2298,65496,-4.3335,-6.71387,12.146,-82.7216,-20.2917,88.2971,3.71328,-9.11094,1.08145,-0.611176,0.374603,0.547913,-0.431061,-123.992,50.825,-70.9333,-10231,-28512
2304,65502,-4.08936,-7.56836,12.8784,-82.7985,-20.1819,88.363,3.60322,-9.34541,1.04795,-0.610748,0.374939,0.547974,-0.431305,-123.958,50.925,-70.9917,-10231,-28512
2310,65508,-3.60107,-7.69043,13.2446,-82.8314,-20.1215,88.4015,3.59844,-9.34062,1.13408,-0.610321,0.375275,0.548004,-0.43158,-123.917,50.95,-70.9917,-10231,-28512
2316,65514,-2.92969,-8.54492,13.6108,-82.8699,-20.0665,88.4399,3.66543,-9.24014,1.14844,-0.609894,0.37558,0.548035,-0.431885,-123.908,51,-70.95,-10231,-28512
2322,65520,-3.23486,-7.14111,14.0991,-82.9028,-20.0006,88.4729,3.66543,-9.2832,0.904395,-0.609436,0.375885,0.548065,-0.43222,-123.892,51.0417,-70.9167,-10231,-28512
2328,65526,-2.13623,-7.99561,14.5874,-82.9303,-19.9402,88.5114,3.56016,-9.4124,0.942676,-0.608582,0.376526,0.548035,-0.432892,-123.883,51.0583,-70.85,-10231,-28512
2334,65532,-0.244141,-7.14111,16.2354,-82.9688,-19.7974,88.5773,3.50752,-9.33584,0.861328,-0.608154,0.376831,0.547943,-0.433319,-123.858,51.1833,-70.7333,-10239,-28511
2340,65538,1.28174,-7.75146,16.7847,-82.9797,-19.7205,88.6157,3.44531,-9.35498,0.794336,-0.607727,0.377136,0.547852,-0.433777,-123.85,51.25,-70.6917,-10239,-28511
2346,65544,2.01416,-7.26318,17.2119,-82.9907,-19.649,88.6542,3.52666,-9.43633,0.827832,-0.6073,0.377411,0.547729,-0.434265,-123.825,51.3083,-70.6833,-10239,-28511
2352,65550,3.35693,-7.14111,18.3716,-82.9907,-19.5667,88.6871,3.78027,-9.42676,0.665137,-0.606903,0.377686,0.547577,-0.434784,-123.8,51.3667,-70.675,-10239,-28511
2358,65556,4.15039,-7.26318,20.5078,-82.9907,-19.4733,88.7256,4.48848,-9.50811,0.674707,-0.606079,0.378265,0.54715,-0.436005,-123.792,51.4417,-70.6083,-10239,-28511
2364,65562,3.78418,-3.72314,27.3438,-82.9797,-19.2371,88.7805,4.44541,-9.23535,0.440234,-0.605621,0.378632,0.546783,-0.436737,-123.725,51.575,-70.5333,-10239,-28511
2370,65568,3.90625,-2.50244,30.1514,-82.9742,-19.0942,88.797,4.39756,-9.32627,0.880469,-0.605133,0.379181,0.546356,-0.4375,-123.7,51.6667,-70.475,-10239,-28511
2376,65574,4.27246,-1.64795,32.4097,-82.9688,-18.9459,88.8135,3.92383,-9.38848,0.885254,-0.604645,0.379791,0.545868,-0.438293,-123.692,51.75,-70.4417,-10239,-28511
2382,65580,3.72314,-2.99072,34.1187,-82.9633,-18.7866,88.8409,3.55537,-9.39326,1.04795,-0.604126,0.380432,0.545288,-0.439148,-123.658,51.825,-70.4,-10239,-28511
2388,65586,4.21143,-4.5166,35.4614,-82.9633,-18.6273,88.8739,3.95732,-9.55117,1.40205,-0.602875,0.381805,0.544189,-0.44101,-123.608,51.875,-70.3583,-10239,-28511
2394,65592,3.41797,-1.95313,38.269,-82.9523,-18.2758,88.9233,3.81855,-9.0918,1.33027,-0.602234,0.382507,0.543579,-0.442047,-123.483,51.9917,-70.3,-10239,-28511
2400,65598,1.95313,-1.46484,40.2832,-82.9578,-18.089,88.9453,4.16309,-9.72822,1.2585,-0.601593,0.383301,0.542938,-0.443024,-123.4,52.0417,-70.3,-10239,-28511
2406,65604,1.58691,-1.52588,42.2974,-82.9633,-17.8912,88.9673,3.86641,-9.52246,1.57432,-0.600891,0.384216,0.542267,-0.444,-123.317,52.0917,-70.35,-10239,-28511
2412,65610,-0.549316,-1.09863,45.105,-82.9742,-17.6825,88.9838,4.47412,-9.93877,2.05762,-0.600128,0.385132,0.541595,-0.445038,-123.217,52.1667,-70.4083,-10239,-28511
2418,65616,-1.52588,2.62451,49.2554,-82.9907,-17.4518,88.9893,3.81855,-9.81914,1.60303,-0.598511,0.387451,0.540039,-0.447144,-123.125,52.275,-70.4333,-10239,-28511
2424,65622,-4.45557,1.89209,56.3965,-83.0292,-16.9354,88.9948,3.75635,-10.3838,1.804,-0.597687,0.388824,0.539032,-0.448242,-122.9,52.5083,-70.4083,-10239,-28511
2430,65628,-5.5542,1.40381,61.3403,-83.0621,-16.6498,89.0112,6.44082,-11.0059,3.00029,-0.596649,0.390289,0.538147,-0.449432,-122.783,52.6583,-70.375,-10239,-28511
2436,65634,-8.23975,8.8501,69.7021,-83.1006,-16.3202,89.0002,5.94316,-10.6948,1.24414,-0.59549,0.391846,0.53717,-0.450714,-122.667,52.8333,-70.3167,-10239,-28511
2442,65640,-10.376,8.66699,76.1108,-83.1555,-15.9576,88.9893,5.07705,-11.6471,1.39248,-0.594299,0.393829,0.53595,-0.452026,-122.558,52.9917,-70.2667,-10239,-28511
2448,65646,-7.8125,5.06592,81.604,-83.1995,-15.5731,89.0002,5.48379,-11.7332,1.59346,-0.591461,0.398132,0.533295,-0.455109,-122.433,53.125,-70.2667,-10248,-28510
2454,65652,-11.8408,5.92041,93.811,-83.3203,-14.7162,89.0222,5.71348,-12.3983,1.89971,-0.589813,0.400482,0.531891,-0.456848,-122.175,53.4917,-70.2667,-10248,-28510
2460,65658,-11.5967,6.71387,99.1821,-83.3807,-14.2438,89.0332,5.30674,-12.0012,1.82314,-0.588013,0.402985,0.530396,-0.45871,-122.017,53.7083,-70.275,-10248,-28510
2466,65664,-13.0005,5.24902,104.858,-83.4521,-13.7494,89.0607,5.04355,-12.049,2.00977,-0.586121,0.405609,0.528748,-0.460663,-121.842,53.9333,-70.2833,-10248,-28510
2472,65670,-13.1226,3.54004,109.68,-83.5236,-13.233,89.0936,5.32588,-11.7906,2.00498,-0.584076,0.408386,0.5271,-0.462769,-121.658,54.1583,-70.2833,-10248,-28510
2478,65676,-16.2964,3.479,116.455,-83.6169,-12.6837,89.1266,5.04355,-12.2787,2.03848,-0.579437,0.414215,0.52359,-0.467346,-121.467,54.425,-70.2417,-10248,-28510
2484,65682,-15.625,0.976563,127.136,-83.7872,-11.5137,89.22,4.9957,-11.7236,2.55049,-0.576935,0.417358,0.521667,-0.469818,-121.008,55.0083,-70.1917,-10248,-28510
2490,65688,-18.4937,1.40381,132.813,-83.8861,-10.8875,89.2749,5.31631,-11.4461,2.93809,-0.574249,0.420502,0.519745,-0.472412,-120.717,55.3333,-70.1833,-10248,-28510
2496,65694,-23.2544,1.83105,138.855,-84.007,-10.2338,89.3298,4.97178,-11.6184,2.18682,-0.571381,0.423828,0.517731,-0.475098,-120.375,55.6833,-70.1583,-10248,-28510
2502,65700,-26.7944,-2.62451,144.653,-84.1498,-9.55811,89.4067,5.40723,-12.3744,1.70352,-0.568329,0.427399,0.515686,-0.477783,-120.05,56.0083,-70.1417,-10248,-28510
2508,65706,-25.8179,-3.2959,152.283,-84.2871,-8.84399,89.4946,5.99102,-12.4079,1.44033,-0.561432,0.434845,0.511566,-0.483612,-119.692,56.3417,-70.1667,-10248,-28510
2514,65712,-27.4048,-4.88281,169.067,-84.5728,-7.30591,89.6704,5.26846,-11.9198,0.971387,-0.557709,0.438782,0.509277,-0.486755,-118.942,57.0917,-70.1583,-10248,-28510
2520,65718,-28.7476,-8.23975,175.842,-84.7266,-6.48743,89.7858,4.62725,-11.7332,0.904395,-0.553741,0.442871,0.506866,-0.490112,-118.533,57.4917,-70.1083,-10248,-28510
2526,65724,-32.1045,-13.1836,182.617,-84.8969,-5.63599,89.9286,4.56504,-11.8911,0.885254,-0.549469,0.447021,0.504425,-0.493622,-118.083,57.9167,-70.05,-10248,-28510
2532,65730,-32.4707,-17.5781,189.392,-85.0671,-4.75708,90.0879,5.00527,-11.8863,1.59346,-0.544891,0.451294,0.502014,-0.497284,-117.617,58.3917,-69.9667,-10248,-28510
2538,65736,-36.5601,-18.4937,197.266,-85.2539,-3.83972,90.2527,5.24932,-11.6231,1.28242,-0.534851,0.460022,0.49707,-0.505096,-117.167,58.8917,-69.8917,-10248,-28510
2544,65742,-42.1753,-24.6582,214.111,-85.6714,-1.89514,90.6262,5.23018,-12.9247,1.05752,-0.529388,0.464691,0.494507,-0.509094,-116.133,59.9167,-69.6833,-10248,-28510
2550,65748,-44.5557,-28.6865,223.328,-85.8966,-0.856934,90.8459,5.71348,-13.0635,0.583789,-0.523529,0.469421,0.491852,-0.513336,-115.567,60.4667,-69.5917,-10248,-28510
2556,65754,-49.5605,-32.5317,234.192,-86.1383,0.22522,91.0822,6.26855,-13.7478,0.813477,-0.517334,0.474243,0.489136,-0.517761,-114.975,61.0583,-69.4417,-10248,-28510
2562,65760,-52.6733,-34.4849,246.094,-86.391,1.3678,91.3239,6.66572,-14.1784,0.698633,-0.510651,0.479279,0.486389,-0.522339,-114.35,61.65,-69.3,-10248,-28510
2568,65766,-54.1382,-35.8887,258.667,-86.6437,2.56531,91.5765,6.6418,-14.6904,1.34941,-0.496094,0.48996,0.480255,-0.532013,-113.725,62.2083,-69.175,-10272,-28507
2574,65772,-58.4106,-35.0952,280.029,-87.16,5.13062,92.0654,7.01982,-13.3027,2.66533,-0.488281,0.495605,0.476807,-0.537109,-112.317,63.3833,-68.9,-10272,-28507
2580,65778,-65.7959,-34.4238,292.175,-87.4512,6.48743,92.3016,7.46484,-13.475,2.60313,-0.480164,0.501434,0.473145,-0.542236,-111.525,63.9917,-68.7333,-10272,-28507
2586,65784,-69.7632,-32.1045,305.115,-87.7588,7.91016,92.5269,6.9624,-14.3985,1.85186,-0.471527,0.507568,0.46933,-0.547394,-110.683,64.6167,-68.575,-10272,-28507
2592,65790,-72.6318,-32.1655,315.735,-88.0774,9.38232,92.7411,6.33076,-15.3221,1.34941,-0.462524,0.513977,0.46524,-0.552582,-109.8,65.2833,-68.3917,-10272,-28507
2598,65796,-74.3408,-33.5083,326.904,-88.396,10.9094,92.9608,6.09629,-15.9154,1.20107,-0.443329,0.527252,0.456299,-0.563141,-108.925,65.9333,-68.1917,-10272,-28507
2604,65802,-80.0781,-40.2222,343.567,-89.0442,14.079,93.4442,6.03887,-16.8581,1.33506,-0.433075,0.533936,0.451599,-0.568604,-106.958,67.2917,-67.8083,-10272,-28507
2610,65808,-82.3364,-45.2881,353.149,-89.3738,15.7269,93.7079,5.69912,-16.4514,1.20107,-0.422455,0.540649,0.446747,-0.574036,-105.875,67.9833,-67.6083,-10272,-28507
2616,65814,-90.8203,-44.7388,360.474,-89.7418,17.4078,93.9551,4.64639,-16.4514,1.16279,-0.411377,0.547333,0.441742,-0.57959,-104.725,68.6667,-67.3417,-10272,-28507
2622,65820,-99.1821,-57.373,367.981,-90.1208,19.1272,94.2627,3.97646,-17.0112,0.459375,-0.399841,0.554199,0.436646,-0.584991,-103.492,69.3333,-67.0333,-10272,-28507
2628,65826,-107.544,-64.5752,372.559,-90.5273,20.863,94.5978,4.68467,-18.3606,0.904395,-0.374847,0.567413,0.426971,-0.595917,-102.292,69.9583,-66.7333,-10272,-28507
2634,65832,-118.896,-72.3877,367.981,-91.3678,24.3457,95.2954,3.21084,-22.0787,1.14365,-0.361725,0.573883,0.422089,-0.601257,-99.6333,71.2167,-66.0083,-10272,-28507
2640,65838,-104.553,-88.9282,366.15,-91.6809,26.0486,95.7458,7.01982,-22.7486,1.15322,-0.34848,0.580017,0.417664,-0.606293,-98.2,71.825,-65.5833,-10272,-28507
2646,65844,-101.807,-75.6836,365.051,-91.8732,27.8448,96.46,9.93398,-22.3993,-0.349316,-0.335297,0.585266,0.413025,-0.611816,-96.7083,72.4,-65.1083,-10272,-28507
2652,65850,-97.4121,-60.1196,365.112,-92.0709,29.6411,97.0862,9.49375,-22.5524,0.421094,-0.320618,0.589386,0.408691,-0.618591,-95.175,72.925,-64.6083,-10272,-28507
2658,65856,-80.5664,-57.9224,344.421,-92.2137,31.3879,97.7124,6.50781,-18.1692,-0.6125,-0.292297,0.597656,0.399048,-0.630859,-93.5583,73.4167,-64.0917,-10272,-28507
2664,65862,-70.0684,-67.2607,324.158,-92.2906,34.6454,99.0417,7.11074,-15.2934,0.229688,-0.278839,0.601166,0.394226,-0.636658,-90.4083,74.275,-63.125,-10272,-28507
2670,65868,-47.0581,-81.665,296.753,-92.0874,36.0791,99.8438,8.82861,-8.62764,-0.354102,-0.265991,0.60379,0.389679,-0.642426,-88.7917,74.6417,-62.65,-10272,-28507
2676,65874,-38.147,-84.0454,266.052,-91.8018,37.3535,100.684,9.11094,-2.99072,-0.76084,-0.254272,0.605133,0.385345,-0.648499,-87.1583,74.9917,-62.1833,-10272,-28507
2682,65880,-9.15527,-112.915,233.826,-91.2305,38.4467,101.733,13.0491,3.85684,-5.0292,-0.243622,0.605713,0.381531,-0.654266,-85.5333,75.2917,-61.7417,-10272,-28507
2688,65886,-29.7852,18.4937,100.83,-90.6207,39.7925,102.761,-10.1397,-5.61777,-0.30625,-0.227539,0.603668,0.373596,-0.666443,-83.925,75.55,-61.3417,-10289,-28505
2694,65892,5.61523,-109.863,10.8643,-89.9341,39.7595,103.854,-9.56074,-18.1166,2.3543,-0.223633,0.604187,0.372894,-0.667664,-80.8917,75.975,-60.6333,-10289,-28505
2700,65898,30.8838,-109.497,-53.7109,-89.1376,39.3915,104.925,10.7092,-13.3314,0.0526367,-0.221039,0.599213,0.374817,-0.671936,-79.5,76.1667,-60.325,-10289,-28505
2706,65904,37.9028,-35.2173,-96.9849,-88.6212,38.7927,105.496,11.738,-8.82383,-0.248828,-0.221069,0.592896,0.377625,-0.675934,-78.2333,76.3,-60.0917,-10289,-28505
2712,65910,54.7485,-33.8135,-135.803,-88.0444,37.9962,106.035,8.9291,-6.23984,-1.48818,-0.223816,0.587982,0.380615,-0.677643,-77.1167,76.425,-59.8833,-10289,-28505
2718,65916,82.5195,-3.78418,-186.279,-86.9183,35.9747,106.738,10.8527,-5.12012,-1.6748,-0.234222,0.576263,0.387726,-0.680176,-76.175,76.5417,-59.7,-10289,-28505
2724,65922,93.5669,2.62451,-193.665,-86.3416,34.8761,106.957,10.3359,-4.19658,-0.172266,-0.241425,0.570221,0.391235,-0.680725,-74.7,76.75,-59.5167,-10289,-28505
2730,65928,95.0928,4.63867,-195.19,-85.7703,33.7665,107.144,8.79033,-2.11504,0.516797,-0.249268,0.564056,0.39447,-0.681152,-74.2083,76.8167,-59.5,-10289,-28505
2736,65934,87.0972,1.46484,-195.129,-85.2429,32.6514,107.331,6.84756,-0.0382813,0.756055,-0.257233,0.557861,0.397614,-0.681458,-73.8583,76.8833,-59.55,-10289,-28505
2742,65940,75.3784,-6.53076,-197.815,-84.754,31.5198,107.545,5.24453,1.50732,0.401953,-0.264984,0.551636,0.40094,-0.681641,-73.6583,76.9333,-59.6417,-10289,-28505
2748,65946,53.5278,-27.4658,-209.473,-83.8916,29.1412,108.078,4.53154,2.80889,0.15791,-0.279602,0.538422,0.408966,-0.68158,-73.6167,76.9583,-59.7917,-10289,-28505
2754,65952,41.5649,-35.5225,-214.661,-83.5291,27.8998,108.386,5.33545,2.11025,-0.0574219,-0.28653,0.531311,0.413757,-0.681366,-73.8333,77.025,-60.125,-10289,-28505
2760,65958,33.1421,-38.6353,-219.727,-83.2104,26.6254,108.693,5.78525,0.579004,-0.105273,-0.293243,0.523987,0.419037,-0.680969,-74.075,77.0583,-60.3167,-10289,-28505
2766,65964,29.4189,-40.8325,-225.159,-82.9193,25.318,108.984,6.10586,-0.861328,-0.220117,-0.299835,0.51651,0.424683,-0.680328,-74.4333,77.0583,-60.4917,-10289,-28505
2772,65970,28.3203,-40.8936,-230.286,-82.6501,23.9832,109.259,6.79014,-1.64131,-0.588574,-0.306488,0.508881,0.430481,-0.679474,-74.9,77.05,-60.6583,-10289,-28505
2778,65976,30.2124,-29.4189,-242.126,-82.1613,21.2421,109.666,6.97676,-2.95723,-0.598145,-0.320313,0.493347,0.4422,-0.677032,-76.1,77,-60.9667,-10289,-28505
2784,65982,32.3486,-24.4751,-249.756,-81.925,19.8193,109.803,6.76143,-3.21084,-0.349316,-0.327667,0.485535,0.447937,-0.675385,-76.75,76.9417,-61.1417,-10289,-28505
2790,65988,32.959,-17.9443,-257.263,-81.7053,18.3636,109.891,6.48389,-3.36396,-0.153125,-0.335358,0.477631,0.453613,-0.673431,-77.4583,76.8583,-61.2917,-10289,-28505
2796,65994,31.5552,-13.7329,-265.259,-81.5021,16.8805,109.94,5.93838,-3.46445,0.0430664,-0.343353,0.469666,0.459259,-0.671173,-78.2417,76.775,-61.4333,-10289,-28505
2802,66000,28.2593,-10.8643,-272.583,-81.3208,15.3589,109.968,5.74219,-3.37354,0.186621,-0.351593,0.461639,0.464905,-0.668579,-79.1083,76.675,-61.5917,-10297,-28504
2808,66006,18.5547,-7.44629,-285.583,-81.0406,12.2388,109.962,5.22061,-3.65107,0.239258,-0.368439,0.445343,0.476532,-0.662354,-80.0583,76.5167,-61.7833,-10297,-28504
2814,66012,13.2446,-6.53076,-290.527,-80.9363,10.6458,109.946,5.39766,-4.13438,0.162695,-0.376953,0.437042,0.482544,-0.658752,-82.0333,76.2,-62.0833,-10297,-28504
2820,66018,8.91113,-5.79834,-294.189,-80.8539,9.03625,109.913,5.59385,-4.90957,0.196191,-0.385406,0.42868,0.488647,-0.654816,-83.075,76.025,-62.2,-10297,-28504
2826,66024,5.79834,-4.57764,-296.448,-80.7825,7.42676,109.874,5.6417,-5.79961,0.177051,-0.39386,0.420288,0.494812,-0.650604,-84.175,75.825,-62.3083,-10297,-28504
2832,66030,5.06592,-4.3335,-299.683,-80.7166,5.80078,109.825,5.21104,-7.08682,0.253613,-0.402222,0.411835,0.500946,-0.646179,-85.3083,75.5833,-62.4,-10297,-28504
2838,66036,9.8877,-12.3291,-304.993,-80.5408,2.52686,109.781,3.93818,-9.46504,0.291895,-0.418854,0.394501,0.513031,-0.636871,-87.675,75,-62.4417,-10297,-28504
2844,66042,13.4888,-18.8599,-307.251,-80.4254,0.873413,109.797,3.27783,-10.4316,0.44502,-0.427002,0.385406,0.518982,-0.632202,-88.8333,74.6667,-62.4417,-10297,-28504
2850,66048,17.9443,-27.1606,-309.143,-80.2881,-0.780029,109.847,2.71797,-11.293,0.689063,-0.435028,0.375977,0.524811,-0.627563,-90.0417,74.25,-62.45,-10297,-28504
2856,66054,21.8506,-36.8652,-310.608,-80.1343,-2.44446,109.946,2.21074,-11.8146,0.91875,-0.442841,0.36618,0.530609,-0.623016,-91.2833,73.825,-62.4583,-10297,-28504
2862,66060,24.6582,-47.0581,-311.157,-79.9695,-4.10889,110.089,2.12461,-12.1639,1.40684,-0.450378,0.355957,0.536346,-0.618622,-92.6,73.35,-62.4583,-10297,-28504
2868,66066,26.9775,-64.209,-311.768,-79.6454,-7.44873,110.495,2.63662,-12.8003,2.21553,-0.464447,0.334442,0.547791,-0.610107,-95.3,72.2583,-62.45,-10297,-28504
2874,66072,27.1606,-69.1528,-312.439,-79.4916,-9.11316,110.737,3.26826,-13.164,2.50264,-0.471008,0.323273,0.553497,-0.605927,-96.6833,71.6833,-62.3833,-10297,-28504
2880,66078,26.9165,-70.8618,-312.866,-79.3488,-10.7776,110.984,4.18223,-13.3649,2.5792,-0.477325,0.31192,0.559174,-0.601746,-98.0167,71.1167,-62.3083,-10297,-28504
2886,66084,27.0996,-68.2983,-314.026,-79.2059,-12.4365,111.215,4.92393,-13.6712,2.91416,-0.483459,0.300476,0.564728,-0.597443,-99.375,70.475,-62.2583,-10297,-28504
2892,66090,25.6958,-63.4155,-314.88,-79.0631,-14.09,111.418,5.56992,-13.6951,3.18691,-0.489594,0.289032,0.570068,-0.593018,-100.733,69.8083,-62.2167,-10297,-28504
2898,66096,21.4844,-49.0112,-318.42,-78.7885,-17.3804,111.703,6.10107,-13.9104,3.56973,-0.501862,0.266541,0.580078,-0.583496,-102.1,69.1083,-62.1833,-10297,-28504
2904,66102,18.4326,-41.0156,-320.313,-78.6511,-19.0173,111.775,6.29727,-14.255,3.61279,-0.508148,0.255493,0.584747,-0.578339,-104.817,67.5417,-62.05,-10297,-28504
2910,66108,15.9302,-33.3252,-321.411,-78.5138,-20.6488,111.802,6.42168,-14.6569,3.55537,-0.514496,0.244659,0.589142,-0.572906,-106.1,66.7333,-61.9667,-10297,-28504
2916,66114,13.3057,-26.123,-321.167,-78.3655,-22.2693,111.791,6.62744,-15.1115,3.39746,-0.520935,0.234039,0.593323,-0.5672,-107.383,65.8917,-61.9083,-10297,-28504
2922,66120,11.1084,-19.043,-319.702,-78.2172,-23.8678,111.731,6.87627,-15.7527,3.27783,-0.527435,0.223602,0.597229,-0.561279,-108.667,65,-61.8417,-10281,-28506
2928,66126,10.8643,-9.46045,-314.819,-77.8656,-26.9934,111.528,6.47432,-17.3031,2.97158,-0.540375,0.203461,0.604218,-0.548981,-111.183,63.0333,-61.7,-10281,-28506
2934,66132,12.2681,-8.11768,-311.462,-77.6678,-28.526,111.396,6.00537,-17.93,2.78975,-0.546783,0.193634,0.6073,-0.542755,-112.417,62.0083,-61.5833,-10281,-28506
2940,66138,13.4888,-8.23975,-308.838,-77.4536,-30.0366,111.264,5.39766,-18.4707,2.7084,-0.55304,0.183899,0.610168,-0.53656,-113.583,61.0167,-61.475,-10281,-28506
2946,66144,15.625,-10.498,-306.641,-77.2284,-31.5308,111.138,4.76602,-18.9971,2.69404,-0.559113,0.174194,0.612854,-0.530396,-114.733,59.9917,-61.4,-10281,-28506
2952,66150,17.9443,-14.5874,-305.359,-77.0032,-33.0194,111.022,4.23965,-19.3895,2.64619,-0.565002,0.164459,0.615417,-0.524292,-115.842,58.9333,-61.3417,-10281,-28506
2958,66156,20.9961,-22.522,-302.124,-76.5363,-35.9637,110.852,3.78984,-19.5952,2.78496,-0.576019,0.144684,0.62027,-0.512299,-118.025,56.725,-61.2583,-10281,-28506
2964,66162,21.3623,-23.2544,-300.415,-76.3,-37.4139,110.77,3.67979,-19.8967,2.87109,-0.581146,0.134705,0.622589,-0.506348,-119.067,55.5667,-61.225,-10281,-28506
2970,66168,21.2402,-21.9116,-298.279,-76.0529,-38.8531,110.676,3.63193,-20.1599,2.85195,-0.586121,0.124756,0.624786,-0.500397,-120.1,54.375,-61.175,-10281,-28506
2976,66174,20.2026,-17.2729,-294.495,-75.7892,-40.2594,110.544,3.60801,-20.1934,2.77061,-0.590973,0.114899,0.626862,-0.494446,-121.083,53.2417,-61.1417,-10281,-28506
2982,66180,16.9067,-9.58252,-288.818,-75.5035,-41.6217,110.363,3.22041,-20.2556,2.6749,-0.600555,0.0961304,0.630219,-0.482513,-122.042,52.1,-61.0833,-10281,-28506
2988,66186,8.72803,8.42285,-276.367,-74.8553,-44.209,109.808,1.69873,-20.8106,2.56963,-0.605316,0.0874329,0.6315,-0.476501,-123.858,49.6667,-61,-10281,-28506
2994,66192,3.23486,18.5547,-269.897,-74.4873,-45.423,109.424,1.05273,-20.9973,2.30645,-0.610107,0.0792236,0.632507,-0.470459,-124.717,48.4667,-60.95,-10281,-28506
3000,66198,-3.05176,30.4565,-263.611,-74.0808,-46.5875,108.951,0.301465,-21.4806,1.93799,-0.614899,0.0715942,0.63324,-0.464386,-125.533,47.2333,-60.9167,-10281,-28506
3006,66204,-8.17871,42.6636,-256.348,-73.6304,-47.6862,108.386,-0.717773,-22.0069,1.62695,-0.619812,0.0645752,0.633698,-0.458221,-126.308,46.05,-60.9083,-10281,-28506
3012,66210,-11.9629,54.6265,-250,-73.114,-48.7354,107.721,-2.1916,-22.1122,1.37813,-0.629944,0.0523071,0.633606,-0.445923,-127.025,44.8583,-60.9,-10281,-28506
3018,66216,-13.1226,71.8994,-229.553,-71.9,-50.614,106.155,-6.82842,-19.5282,4.01953,-0.635193,0.0469971,0.632965,-0.439941,-128.433,42.4833,-60.9333,-10281,-28506
3024,66222,-25.6958,76.6602,-209.412,-71.3232,-51.3995,105.342,-8.78076,-20.313,1.55039,-0.640228,0.0421448,0.632172,-0.434265,-129.075,41.3,-60.9667,-10281,-28506
3030,66228,-26.001,84.3506,-185.608,-70.741,-52.0477,104.513,-11.4413,-23.9066,-0.392383,-0.644928,0.0383911,0.631348,-0.428802,-129.692,40.1083,-61.0333,-10281,-28506
3036,66234,-13.4277,86.3037,-160.461,-70.1202,-52.5586,103.722,-14.1497,-25.7633,-2.8041,-0.649323,0.0354614,0.63031,-0.42395,-130.258,38.9833,-61.1167,-10272,-28507
3042,66240,0.549316,87.4023,-134.155,-69.4885,-52.9321,102.991,-43.0568,-47.4305,-10.7714,-0.656677,0.0309753,0.627228,-0.41748,-130.783,37.875,-61.2417,-10272,-28507
3048,66246,12.8174,78.9795,-90.7593,-68.3569,-53.3496,101.805,-25.9403,-21.1217,-5.27803,-0.659576,0.0294189,0.625427,-0.415741,-131.658,35.6917,-61.65,-10272,-28507
3054,66252,6.7749,62.439,-74.8901,-68.0109,-53.465,101.453,-29.0172,-18.3606,-4.44063,-0.661865,0.0282898,0.623779,-0.414642,-132.025,34.6833,-61.925,-10272,-28507
3060,66258,-9.46045,36.5601,-54.8096,-67.9724,-53.5254,101.365,-29.5962,-16.0925,-3.52666,-0.663391,0.0275269,0.622711,-0.413849,-132.358,33.7167,-62.1833,-10272,-28507
3066,66264,-25.1465,19.2261,-33.02,-68.1866,-53.5144,101.486,-27.285,-15.8628,-2.27295,-0.663788,0.0273743,0.622711,-0.413208,-132.658,32.8083,-62.4917,-10272,-28507
3072,66270,-38.147,13.6108,-7.87354,-68.5657,-53.3936,101.733,-21.4519,-17.3988,-0.387598,-0.66214,0.0296326,0.624603,-0.412842,-132.942,31.975,-62.775,-10272,-28507
3078,66276,-46.0815,19.104,43.7622,-69.5599,-52.7673,102.415,-18.7004,-18.3367,0.124414,-0.660492,0.0322266,0.625885,-0.413391,-133.467,30.5917,-63.2583,-10272,-28507
3084,66282,-41.4429,29.0527,67.3218,-70.0269,-52.262,102.744,-16.3461,-18.82,0.291895,-0.658508,0.035614,0.626923,-0.414642,-133.658,30.0083,-63.5083,-10272,-28507
3090,66288,-37.1094,24.8413,91.6748,-70.5322,-51.6467,103.167,-5.56035,-22.251,-0.325391,-0.656372,0.0397339,0.627563,-0.416656,-133.825,29.5,-63.7417,-10272,-28507
3096,66294,-134.399,-74.646,281.433,-72.4274,-50.2954,104.766,40.8365,-38.3339,26.0935,-0.653687,0.044281,0.628204,-0.419495,-133.992,29.1083,-63.9333,-10272,-28507
3102,66300,29.6021,269.043,248.047,-71.4551,-48.5651,103.705,-1.65088,11.8624,-14.7813,-0.645874,0.0661926,0.624786,-0.433563,-134.142,28.8,-64.1,-10272,-28507
3108,66306,-45.4712,-2.01416,280.151,-71.7902,-45.7361,104.875,19.978,9.8957,14.2023,-0.642822,0.0706482,0.619415,-0.445007,-134.242,28.525,-64.4583,-10272,-28507
3114,66312,-97.6563,142.7,278.442,-72.2076,-44.0717,104.804,15.0493,-5.83789,13.5372,-0.63559,0.0797424,0.620117,-0.452759,-134.217,28.6333,-64.6583,-10272,-28507
3120,66318,-66.3452,79.6509,283.386,-72.746,-42.4841,105.134,4.82822,-4.32578,1.11973,-0.63205,0.0930176,0.617676,-0.458466,-134.15,28.8667,-64.9,-10272,-28507
3126,66324,-100.525,68.4204,287.292,-73.4766,-40.9021,105.513,9.52246,-3.83291,4.01953,-0.62674,0.104279,0.616211,-0.465302,-134.042,29.225,-65.1583,-10272,-28507
3132,66330,-133.362,135.132,285.461,-74.0643,-39.2377,105.43,-1.40205,-8.61807,6.54609,-0.616364,0.130371,0.613708,-0.475739,-133.908,29.625,-65.4083,-10272,-28507
3138,66336,-146.79,111.206,276.062,-75.3937,-35.9857,105.309,-6.06279,-13.0013,8.35488,-0.611847,0.144806,0.611816,-0.479828,-133.483,30.825,-65.9167,-10272,-28507
3144,66342,-141.113,71.3501,261.597,-76.1792,-34.5245,105.496,-8.28311,-16.4609,6.67051,-0.606659,0.158447,0.610596,-0.483643,-133.167,31.5917,-66.1667,-10272,-28507
3150,66348,-124.634,29.9683,249.39,-76.9977,-33.1677,105.886,-6.43604,-21.715,3.82813,-0.600616,0.170654,0.610291,-0.487396,-132.8,32.45,-66.4167,-10272,-28507
3156,66354,-85.5713,12.4512,233.032,-77.6404,-31.9153,106.331,-3.40225,-24.3325,-0.301465,-0.59375,0.181183,0.610718,-0.491486,-132.392,33.3917,-66.65,-10215,-28514
3162,66360,-18.9819,4.76074,199.89,-78.0798,-30.7288,106.776,-2.02891,-20.7819,1.89971,-0.580597,0.196991,0.61026,-0.501587,-131.942,34.4,-66.8417,-10215,-28514
3168,66366,-11.6577,-16.4185,180.359,-78.6456,-28.6908,107.693,-1.59824,-17.7338,2.20596,-0.574799,0.202789,0.609283,-0.507111,-131.058,36.375,-67.2,-10215,-28514
3174,66372,-8.48389,-34.9731,162.72,-78.9423,-27.8394,108.265,-0.961816,-18.1597,0.732129,-0.568878,0.207397,0.608795,-0.512451,-130.583,37.4,-67.3333,-10215,-28514
3180,66378,10.0708,-46.1426,147.156,-79.1565,-27.0703,108.88,1.45469,-15.9298,-1.84229,-0.562866,0.210999,0.608795,-0.517578,-130.108,38.4083,-67.4083,-10215,-28514
3186,66384,13.3667,-30.8228,135.193,-79.2993,-26.3562,109.385,3.46924,-13.0108,-1.4834,-0.557068,0.21344,0.608826,-0.522827,-129.625,39.3667,-67.4917,-10215,-28514
3192,66390,-24.353,16.8457,82.5806,-79.4861,-25.7025,109.682,-1.97627,-18.3559,-3.45488,-0.547913,0.219086,0.608063,-0.530975,-129.15,40.3,-67.575,-10215,-28514
3198,66396,-8.17871,10.376,58.4106,-79.7827,-24.8346,110.056,-0.827832,-16.2121,-1.6748,-0.544891,0.222015,0.607941,-0.53299,-128.3,42.0417,-67.6833,-10215,-28514
3204,66402,-4.02832,19.104,46.0815,-79.8486,-24.516,110.193,0.411523,-10.9724,1.33984,-0.54245,0.223755,0.607819,-0.534912,-127.892,42.8333,-67.7417,-10215,-28514
3210,66408,-14.1602,12.4512,40.5884,-79.975,-24.2358,110.352,0.177051,-7.77588,3.43096,-0.540527,0.225281,0.607483,-0.53656,-127.492,43.575,-67.7917,-10215,-28514
3216,66414,-26.7334,-5.85938,36.5601,-80.2002,-23.9886,110.605,0,-8.65156,3.21563,-0.538483,0.226715,0.607635,-0.537872,-127.125,44.275,-67.7917,-10215,-28514
3222,66420,-25.0854,-18.7378,21.7285,-80.4529,-23.7909,110.907,1.61738,-10.4795,1.43555,-0.533264,0.228699,0.609741,-0.539825,-126.767,44.9417,-67.8083,-10215,-28514
3228,66426,-23.9868,-15.625,15.7471,-80.8978,-23.4943,111.495,2.2873,-10.2689,0.92832,-0.530762,0.229126,0.610992,-0.54071,-126.117,46.0583,-67.7667,-10215,-28514
3234,66432,-21.2402,-16.5405,13.6719,-81.1011,-23.3734,111.78,2.62705,-9.86699,0.952246,-0.528473,0.229401,0.612213,-0.541443,-125.808,46.5667,-67.725,-10215,-28514
3240,66438,-20.5078,-15.686,11.5967,-81.2933,-23.2635,112.055,2.68926,-9.89092,0.976172,-0.526276,0.229553,0.613403,-0.542175,-125.533,47.05,-67.675,-10215,-28514
3246,66444,-18.0664,-14.9536,9.76563,-81.4691,-23.1592,112.324,2.77539,-9.87178,1.19629,-0.524139,0.229614,0.614563,-0.542908,-125.275,47.4917,-67.65,-10215,-28514
3252,66450,-14.6484,-14.0991,8.30078,-81.6284,-23.0658,112.582,3.43574,-9.4124,0.258398,-0.520233,0.229492,0.616699,-0.544281,-125.025,47.9167,-67.6417,-10215,-28514
3258,66456,-13.6108,-12.6343,8.17871,-81.9196,-22.89,113.093,3.6415,-10.0153,0.00957031,-0.518311,0.229309,0.617706,-0.545044,-124.608,48.675,-67.575,-10215,-28514
3264,66462,-9.76563,-9.94873,8.36182,-82.0404,-22.7966,113.329,3.67021,-9.90527,0.287109,-0.516479,0.229126,0.618652,-0.545776,-124.45,49,-67.5083,-10215,-28514
3270,66468,-8.30078,-10.2539,8.72803,-82.1448,-22.7087,113.571,3.32568,-9.51289,0.660352,-0.514771,0.228912,0.619446,-0.5466,-124.3,49.275,-67.4333,-10231,-28512
3276,66474,-7.01904,-10.7422,8.72803,-82.2437,-22.6208,113.807,3.43574,-9.74258,1.08145,-0.513062,0.228638,0.620209,-0.547455,-124.183,49.5417,-67.3333,-10231,-28512
3282,66480,-4.39453,-10.498,9.64355,-82.4194,-22.4451,114.285,3.85684,-9.38848,1.03359,-0.509674,0.227966,0.621643,-0.549286,-124.075,49.7833,-67.225,-10231,-28512
3288,66486,-4.08936,-9.15527,10.1929,-82.4963,-22.3572,114.516,4.01475,-9.38848,0.832617,-0.508026,0.22757,0.622284,-0.550262,-123.892,50.175,-67.125,-10231,-28512
3294,66492,-3.78418,-7.69043,11.0474,-82.5677,-22.2638,114.736,3.86641,-9.4124,0.674707,-0.506409,0.227203,0.622864,-0.551239,-123.825,50.3667,-67.1083,-10231,-28512
3300,66498,-2.50244,-5.24902,11.1084,-82.6282,-22.1704,114.944,3.66064,-9.37412,0.665137,-0.504822,0.226868,0.623413,-0.552185,-123.758,50.5667,-67.0917,-10231,-28512
3306,66504,-0.976563,-2.99072,10.7422,-82.6721,-22.077,115.137,3.32568,-9.50332,0.765625,-0.503326,0.226563,0.623871,-0.553162,-123.7,50.7417,-67.0833,-10231,-28512
3312,66510,2.62451,-1.52588,9.76563,-82.7271,-21.9067,115.516,3.71328,-9.46025,0.45459,-0.50058,0.225891,0.624573,-0.555176,-123.625,50.925,-67.075,-10231,-28512
3318,66516,4.27246,1.34277,9.58252,-82.7325,-21.8243,115.681,3.76592,-9.6708,0.468945,-0.499298,0.225464,0.624817,-0.556183,-123.55,51.2917,-66.9667,-10231,-28512
3324,66522,5.5542,1.58691,10.3149,-82.7325,-21.7419,115.845,3.33525,-9.27842,0.698633,-0.498138,0.225098,0.624969,-0.55722,-123.508,51.45,-66.9417,-10231,-28512
3330,66528,6.28662,1.89209,9.39941,-82.7271,-21.6595,116.01,3.10078,-9.48897,1.04316,-0.496979,0.224701,0.625092,-0.558289,-123.467,51.575,-66.975,-10231,-28512
3336,66534,7.62939,0.671387,8.05664,-82.7106,-21.5881,116.175,2.9668,-9.38369,1.23457,-0.49588,0.224243,0.625183,-0.559357,-123.442,51.7083,-66.9667,-10231,-28512
3342,66540,7.75146,-0.671387,5.5542,-82.6831,-21.4728,116.516,2.9668,-9.0918,1.40684,-0.493713,0.223114,0.625366,-0.561493,-123.4,51.8167,-66.9917,-10231,-28512
3348,66546,6.10352,-2.2583,5.06592,-82.6831,-21.4233,116.697,2.90459,-8.97217,1.39727,-0.492676,0.222443,0.625488,-0.5625,-123.317,51.9583,-67.0083,-10231,-28512
3354,66552,4.94385,-3.66211,3.96729,-82.6886,-21.3794,116.878,2.87588,-9.02959,1.52646,-0.491577,0.221771,0.625702,-0.563507,-123.292,52.0417,-67,-10231,-28512
3360,66558,4.3335,-3.66211,2.38037,-82.6941,-21.3409,117.065,2.84238,-9.23535,1.4499,-0.490479,0.221039,0.625977,-0.564453,-123.292,52.1417,-66.975,-10231,-28512
3366,66564,4.45557,-5.18799,1.46484,-82.6996,-21.3135,117.252,3.01465,-9.17314,1.36377,-0.48941,0.220276,0.626282,-0.565338,-123.258,52.225,-66.9583,-10231,-28512
3372,66570,3.60107,-5.31006,0.915527,-82.7216,-21.264,117.636,3.6415,-9.16836,0.717773,-0.487274,0.218597,0.626953,-0.567078,-123.225,52.3,-66.95,-10231,-28512
3378,66576,3.479,-5.31006,1.95313,-82.7325,-21.2366,117.823,3.675,-9.11572,0.650781,-0.486206,0.217743,0.627319,-0.567932,-123.142,52.4417,-66.9167,-10231,-28512
3384,66582,3.35693,-4.08936,2.50244,-82.738,-21.2036,118.004,3.76113,-9.25449,0.583789,-0.485138,0.216949,0.627655,-0.568787,-123.1,52.475,-66.9083,-10239,-28511
3390,66588,4.27246,-2.50244,3.84521,-82.7435,-21.1707,118.18,3.72764,-9.221,0.545508,-0.4841,0.216156,0.62796,-0.569641,-123.067,52.4833,-66.9,-10239,-28511
3396,66594,4.02832,-1.89209,5.12695,-82.7435,-21.1267,118.35,3.67021,-9.0918,0.526367,-0.483063,0.215424,0.628204,-0.570496,-123.042,52.4917,-66.875,-10239,-28511
3402,66600,4.39453,-0.671387,7.87354,-82.738,-21.0278,118.685,3.8377,-9.20664,0.569434,-0.481018,0.214111,0.628632,-0.572266,-123,52.5,-66.8,-10239,-28511
3408,66606,4.82178,0.732422,8.17871,-82.7271,-20.9729,118.839,3.66064,-9.221,0.669922,-0.47995,0.213531,0.628784,-0.573212,-122.975,52.5,-66.7667,-10239,-28511
3414,66612,4.08936,1.28174,9.76563,-82.7216,-20.907,118.993,3.69893,-9.01523,0.813477,-0.478943,0.212952,0.628906,-0.574127,-122.942,52.5167,-66.75,-10239,-28511
3420,66618,3.54004,1.2207,10.1929,-82.7161,-20.8466,119.152,3.42139,-9.1875,0.966602,-0.477905,0.212463,0.629028,-0.575043,-122.933,52.5417,-66.7667,-10239,-28511
3426,66624,3.54004,1.2207,10.437,-82.7106,-20.7806,119.306,3.22998,-9.3167,0.756055,-0.476868,0.211975,0.62912,-0.575958,-122.9,52.5333,-66.7833,-10239,-28511
3432,66630,4.02832,0.0610352,10.6812,-82.6996,-20.6543,119.625,3.29697,-9.16357,0.995313,-0.474762,0.210968,0.629364,-0.57782,-122.867,52.5417,-66.8,-10239,-28511
3438,66636,3.60107,-0.793457,11.1694,-82.6996,-20.5884,119.789,3.17734,-9.154,1.07666,-0.473694,0.210449,0.629486,-0.578766,-122.85,52.5667,-66.7917,-10239,-28511
3444,66642,3.41797,-1.34277,11.2305,-82.6996,-20.5225,119.954,3.15342,-9.20664,1.16758,-0.472565,0.20993,0.629608,-0.579712,-122.817,52.5833,-66.7917,-10239,-28511
3450,66648,2.74658,-2.01416,10.6201,-82.6996,-20.462,120.125,3.07686,-9.15879,1.08623,-0.471466,0.209412,0.629761,-0.580658,-122.775,52.6083,-66.825,-10239,-28511
3456,66654,2.44141,-3.41797,10.9253,-82.7106,-20.4016,120.3,3.01465,-9.24492,1.1915,-0.470337,0.208862,0.629944,-0.581543,-122.733,52.6417,-66.825,-10239,-28511
3462,66660,1.77002,-5.24902,9.76563,-82.7325,-20.2917,120.663,2.86152,-9.12051,1.25371,-0.467987,0.207703,0.630402,-0.583374,-122.7,52.7333,-66.8333,-10239,-28511
3468,66666,1.28174,-6.16455,9.15527,-82.749,-20.2423,120.85,2.65098,-9.16357,1.21064,-0.466797,0.207062,0.630676,-0.584259,-122.692,52.775,-66.8583,-10239,-28511
3474,66672,1.34277,-8.48389,7.99561,-82.7655,-20.1984,121.053,2.59834,-9.154,1.28242,-0.465576,0.206421,0.630981,-0.585114,-122.683,52.8417,-66.8583,-10239,-28511
3480,66678,1.15967,-9.46045,7.26318,-82.7875,-20.1599,121.256,2.89023,-9.21143,1.30156,-0.464355,0.205658,0.631348,-0.585999,-122.683,52.8917,-66.8583,-10239,-28511
3486,66684,0.915527,-9.46045,7.8125,-82.8094,-20.1215,121.459,3.07207,-9.09658,1.00488,-0.463104,0.204865,0.631714,-0.586853,-122.658,52.925,-66.825,-10239,-28511
3492,66690,0.0610352,-10.5591,9.15527,-82.8644,-20.0336,121.871,3.5458,-9.09658,0.775195,-0.460541,0.203308,0.632507,-0.588531,-122.608,53.0167,-66.7667,-10239,-28511
3498,66696,-0.244141,-9.52148,11.1084,-82.8918,-19.9731,122.075,3.79463,-9.0918,0.703418,-0.459229,0.202545,0.632935,-0.589386,-122.575,53.0833,-66.7333,-10239,-28511
3504,66702,-0.915527,-9.82666,12.9395,-82.9248,-19.9127,122.278,3.8999,-9.00566,0.904395,-0.457886,0.201874,0.633301,-0.59024,-122.525,53.125,-66.7417,-10256,-28509
3510,66708,-1.89209,-8.97217,14.8926,-82.9578,-19.8413,122.481,3.83291,-9.10615,0.789551,-0.456482,0.201263,0.633698,-0.591125,-122.483,53.15,-66.7417,-10256,-28509
3516,66714,-3.11279,-9.70459,17.2729,-83.0017,-19.7589,122.69,4.00518,-9.12051,0.985742,-0.455048,0.200714,0.634064,-0.59201,-122.45,53.2,-66.725,-10256,-28509
3522,66720,-4.76074,-8.97217,20.813,-83.0951,-19.5612,123.096,3.52188,-9.3167,1.08623,-0.451996,0.19989,0.634827,-0.593811,-122.392,53.3,-66.6583,-10256,-28509
3528,66726,-5.18799,-9.58252,22.1558,-83.1445,-19.4568,123.305,3.47402,-9.4459,1.13408,-0.450409,0.199554,0.635223,-0.594727,-122.358,53.3583,-66.6167,-10256,-28509
3534,66732,-4.27246,-9.58252,22.8882,-83.194,-19.3469,123.514,3.18691,-9.5751,0.90918,-0.448761,0.199249,0.63562,-0.595642,-122.333,53.4417,-66.5417,-10256,-28509
3540,66738,-3.479,-10.498,23.4985,-83.2379,-19.2371,123.723,3.25391,-9.59902,0.91875,-0.447113,0.198944,0.635986,-0.596588,-122.317,53.5167,-66.475,-10256,-28509
3546,66744,-2.2583,-9.70459,23.8037,-83.2764,-19.1217,123.931,3.13906,-9.40762,0.875684,-0.443756,0.198303,0.636627,-0.598602,-122.308,53.5917,-66.425,-10256,-28509
3552,66750,0.854492,-7.87354,24.5361,-83.3203,-18.891,124.332,3.29219,-9.64209,0.665137,-0.442139,0.197998,0.636902,-0.599609,-122.242,53.6917,-66.3417,-10256,-28509
3558,66756,1.89209,-6.46973,25.0854,-83.3313,-18.7701,124.519,3.51709,-9.65645,0.665137,-0.440552,0.197693,0.637085,-0.600708,-122.192,53.7333,-66.3,-10256,-28509
3564,66762,2.80762,-5.24902,25.7568,-83.3313,-18.6493,124.7,3.44531,-9.60859,0.521582,-0.438995,0.197418,0.637177,-0.601807,-122.108,53.7583,-66.2833,-10256,-28509
3570,66768,5.00488,-5.12695,27.4658,-83.3258,-18.5175,124.887,3.62236,-9.74736,0.378027,-0.437469,0.197174,0.637268,-0.602936,-122.017,53.8083,-66.2833,-10256,-28509
3576,66774,6.28662,-4.08936,29.7241,-83.3093,-18.3746,125.063,3.79941,-9.59424,0.387598,-0.434326,0.196747,0.637177,-0.605438,-121.95,53.8583,-66.2583,-10256,-28509
3582,66780,8.17871,-2.50244,34.668,-83.2654,-18.0615,125.409,4.14395,-10.001,0.229688,-0.43277,0.196625,0.637054,-0.60672,-121.858,54,-66.2583,-10256,-28509
3588,66786,9.58252,-3.60107,38.8184,-83.2324,-17.8748,125.59,4.83301,-10.3168,0.382813,-0.431122,0.196594,0.636841,-0.608124,-121.825,54.0667,-66.25,-10256,-28509
3594,66792,10.6812,-1.83105,43.396,-83.194,-17.6715,125.76,4.58418,-9.8,0.334961,-0.429382,0.196594,0.636597,-0.609619,-121.783,54.15,-66.2167,-10256,-28509
3600,66798,8.97217,-1.89209,47.7905,-83.1665,-17.4408,125.936,4.23965,-9.71387,0.808691,-0.427551,0.196747,0.63623,-0.611206,-121.692,54.2417,-66.1333,-10256,-28509
3606,66804,7.8125,-2.01416,52.3071,-83.139,-17.1936,126.118,4.18223,-9.88613,1.10537,-0.423553,0.19751,0.635529,-0.614471,-121.6,54.3417,-66.075,-10256,-28509
3612,66810,5.85938,-8.72803,60.1196,-83.1171,-16.6553,126.524,4.60811,-11.025,1.66045,-0.421356,0.197998,0.635223,-0.61615,-121.417,54.55,-65.9833,-10256,-28509
3618,66816,6.83594,-10.498,66.3452,-83.1116,-16.3422,126.755,5.54121,-10.9102,2.56006,-0.418884,0.198517,0.634949,-0.61795,-121.333,54.7083,-66.0083,-10256,-28509
3624,66822,1.46484,-4.27246,73.2422,-83.1171,-15.9961,126.953,5.67041,-10.1828,2.68926,-0.416199,0.199097,0.634644,-0.619873,-121.242,54.8417,-66.05,-10256,-28509
3630,66828,-3.05176,-0.244141,79.4067,-83.139,-15.6226,127.134,5.35938,-10.5178,3.08643,-0.413452,0.200134,0.634277,-0.621735,-121.125,55,-66.0917,-10256,-28509
3636,66834,-7.50732,1.52588,84.1675,-83.183,-15.2216,127.315,4.34971,-10.8145,2.94766,-0.407715,0.203186,0.633575,-0.625275,-121,55.15,-66.1333,-10256,-28509
3642,66840,-13.9771,-0.366211,91.7358,-83.3093,-14.3591,127.7,4.34492,-10.5513,3.19648,-0.40451,0.204865,0.633331,-0.627045,-120.75,55.4583,-66.1083,-10256,-28509
3648,66846,-19.165,0.305176,95.459,-83.4082,-13.9032,127.886,4.26357,-10.8432,3.72285,-0.401245,0.206757,0.633087,-0.628754,-120.575,55.6167,-66.1,-10256,-28509
3654,66852,-23.3765,1.89209,99.3042,-83.5181,-13.4308,128.068,4.36885,-11.3073,3.84248,-0.397858,0.208862,0.632935,-0.630371,-120.4,55.8167,-66.075,-10256,-28509
3660,66858,-27.4658,1.40381,102.112,-83.6499,-12.9419,128.249,3.98125,-11.1638,3.25869,-0.394348,0.211151,0.632843,-0.631897,-120.192,56.0583,-66.0667,-10256,-28509
3666,66864,-31.8604,0.671387,106.873,-83.7982,-12.431,128.436,4.41191,-11.8528,3.30176,-0.386902,0.216187,0.632843,-0.634796,-119.958,56.3083,-66.05,-10256,-28509
3672,66870,-33.5083,-0.183105,116.333,-84.1058,-11.3324,128.809,4.71816,-11.4222,2.91416,-0.382965,0.218964,0.632813,-0.636261,-119.508,56.8333,-66.0167,-10256,-28509
3678,66876,-39.1235,1.28174,121.643,-84.2871,-10.7501,128.996,4.3832,-11.6184,2.51221,-0.378845,0.221802,0.632813,-0.637756,-119.233,57.1333,-65.975,-10256,-28509
3684,66882,-42.0532,-0.488281,127.136,-84.4849,-10.1404,129.188,5.3833,-12.2404,2.20596,-0.374542,0.224915,0.632843,-0.63916,-118.958,57.4417,-65.9417,-10256,-28509
3690,66888,-41.626,0.366211,134.766,-84.6716,-9.49768,129.38,5.79961,-13.1257,2.38779,-0.370026,0.228119,0.632935,-0.640564,-118.658,57.7667,-65.875,-10256,-28509
3696,66894,-41.2598,1.52588,142.395,-84.8584,-8.81653,129.567,5.40244,-12.561,2.27773,-0.365295,0.231567,0.632904,-0.642059,-118.333,58.125,-65.7833,-10256,-28509
3702,66900,-49.9268,-3.2959,158.386,-85.2924,-7.34985,129.979,6.18242,-12.6472,2.02891,-0.355225,0.239014,0.63266,-0.645233,-117.692,58.8583,-65.6,-10256,-28509
3708,66906,-54.2603,-3.35693,168.64,-85.5396,-6.54785,130.193,6.31162,-13.0922,1.17236,-0.34964,0.243042,0.632629,-0.64679,-117.292,59.2333,-65.5,-10256,-28509
3714,66912,-56.9458,-9.64355,179.382,-85.8032,-5.69641,130.441,6.26377,-13.4271,0.119629,-0.34375,0.247406,0.632568,-0.648346,-116.883,59.65,-65.4,-10256,-28509
3720,66918,-59.021,-16.7236,190.735,-86.0779,-4.79553,130.721,6.33555,-14.054,-0.267969,-0.337311,0.251892,0.632568,-0.650024,-116.45,60.125,-65.3083,-10256,-28509
3726,66924,-58.7158,-24.1699,203.43,-86.3525,-3.83423,131.039,6.6418,-14.2263,0.0478516,-0.330353,0.25647,0.632568,-0.651794,-115.958,60.6,-65.2167,-10256,-28509
3732,66930,-65.2466,-41.2598,231.14,-86.9348,-1.72485,131.797,7.19209,-14.5852,-0.105273,-0.314636,0.26593,0.632385,-0.655914,-114.942,61.5667,-64.9583,-10264,-28508
3738,66936,-69.1528,-50.415,246.887,-87.2479,-0.560303,132.242,7.78066,-15.5853,0.47373,-0.305756,0.270874,0.632355,-0.658142,-114.358,62.1,-64.775,-10264,-28508
3744,66942,-70.2515,-58.3496,264.648,-87.561,0.681152,132.72,8.9291,-15.6666,1.64609,-0.296082,0.276001,0.632294,-0.660492,-113.717,62.6417,-64.575,-10264,-28508
3750,66948,-77.2705,-59.7534,283.02,-87.8961,2.01599,133.209,9.55117,-15.8867,2.94287,-0.285675,0.281342,0.63208,-0.663025,-113.042,63.1917,-64.3417,-10264,-28508
3756,66954,-83.9233,-59.6313,301.392,-88.2477,3.43872,133.687,10.9245,-15.4273,4.69902,-0.274567,0.28714,0.631805,-0.665497,-112.333,63.7833,-64.0833,-10264,-28508
3762,66960,-106.567,-46.4478,342.346,-89.0826,6.5863,134.544,12.4893,-15.0732,3.56494,-0.25058,0.300415,0.630768,-0.670074,-110.85,64.975,-63.525,-10264,-28508
3768,66966,-112.366,-36.1938,364.38,-89.5551,8.31665,134.89,11.427,-17.217,3.82334,-0.237701,0.308258,0.630066,-0.671844,-110.008,65.6,-63.2083,-10264,-28508
3774,66972,-114.014,-28.9917,381.409,-90.033,10.1294,135.181,9.02481,-18.2649,2.73711,-0.224335,0.316986,0.628998,-0.67337,-109.083,66.3,-62.875,-10264,-28508
3780,66978,-113.159,-39.0015,396.606,-90.4889,12.019,135.511,8.13955,-18.3846,2.66533,-0.210632,0.326263,0.627533,-0.674744,-108.058,67.0417,-62.5083,-10264,-28508
3786,66984,-117.615,-44.4946,409.912,-90.9558,13.9746,135.862,8.24961,-18.2123,2.72754,-0.181061,0.34494,0.623779,-0.677521,-106.933,67.7667,-62.1583,-10264,-28508
3792,66990,-133.301,-52.1851,428.284,-91.9885,18.0176,136.56,7.53184,-21.0308,1.97627,-0.165436,0.354462,0.621796,-0.678436,-104.5,69.225,-61.375,-10264,-28508
3798,66996,-132.568,-61.8286,435.364,-92.4884,20.094,136.95,7.09639,-22.4807,1.26328,-0.149231,0.363922,0.61969,-0.679077,-103.15,69.95,-60.8667,-10264,-28508
3804,67002,-122.375,-65.3687,440.979,-92.9224,22.1979,137.346,7.30215,-23.1458,2.89023,-0.132568,0.373169,0.61734,-0.679688,-101.708,70.6583,-60.375,-10264,-28508
3810,67008,-121.399,-69.0308,444.214,-93.3398,24.3182,137.752,7.75195,-23.5573,2.53135,-0.115753,0.382202,0.61441,-0.680389,-100.183,71.3667,-59.8333,-10264,-28508
3816,67014,-126.038,-74.707,444.58,-93.7573,26.4386,138.181,10.6374,-26.2274,-0.062207,-0.0814819,0.399597,0.607971,-0.681122,-98.5583,72.0667,-59.275,-10264,-28508
3822,67020,-102.722,-35.6445,439.148,-94.4934,30.6903,138.9,12.3266,-27.1414,-2.45,-0.0641785,0.408051,0.604279,-0.681274,-95.1667,73.3083,-58.1583,-10264,-28508
3828,67026,-93.9331,-30.1514,428.223,-94.823,32.7393,139.158,11.5609,-24.1363,-1.9332,-0.04776,0.416748,0.599976,-0.681152,-93.4167,73.8583,-57.5833,-10264,-28508
3834,67032,-84.1675,-31.7993,414.307,-95.0922,34.7113,139.427,11.3935,-19.9158,-1.11016,-0.0320435,0.425171,0.595428,-0.680847,-91.5833,74.3667,-57,-10264,-28508
3840,67038,-87.3413,-42.6636,394.592,-95.3339,36.579,139.757,10.6661,-17.4084,-0.282324,-0.0169067,0.433014,0.590729,-0.680542,-89.6833,74.825,-56.425,-10264,-28508
3846,67044,-35.6445,-78.8574,314.941,-95.3943,38.2928,140.251,13.743,-5.81875,-3.4501,0.0120239,0.445099,0.582001,-0.680359,-87.75,75.225,-55.9333,-10297,-28504
3852,67050,17.334,-96.3135,258.301,-94.6252,40.9406,141.614,15.2646,3.26826,-9.20186,0.024231,0.448669,0.577454,-0.68158,-83.9,75.875,-54.9917,-10297,-28504
3858,67056,77.0874,-62.3169,226.501,-93.8727,41.9293,142.174,9.27842,11.0489,-9.78086,0.0339966,0.450287,0.572388,-0.684357,-82.0083,76.1417,-54.525,-10297,-28504
3864,67062,4.21143,24.9023,93.3228,-93.8287,42.2205,142.229,-10.1541,-6.89541,1.94756,0.0406494,0.452209,0.566223,-0.687866,-80.1333,76.3333,-54.1083,-10297,-28504
3870,67068,45.8984,-122.253,-16.1743,-92.8784,42.0282,143.333,-11.1159,-17.9013,4.56504,0.0426636,0.453278,0.565002,-0.688019,-78.325,76.475,-53.7917,-10297,-28504
3876,67074,56.0303,-69.5801,-146.79,-91.7249,41.4459,144.69,15.0924,-10.6518,0.0239258,0.0444641,0.438354,0.56488,-0.697601,-76.625,76.5917,-53.5333,-10297,-28504
3882,67080,83.5571,-77.1484,-189.27,-90.1044,39.4409,146.151,12.8434,-8.13477,-1.03838,0.0405273,0.430786,0.566498,-0.701263,-73.7333,76.7667,-53.25,-10297,-28504
3888,67086,98.4497,-73.8525,-219.238,-89.209,38.1665,146.816,17.2266,-4.90957,-2.38301,0.0349121,0.421997,0.567993,-0.705688,-72.5583,76.85,-53.175,-10297,-28504
3894,67092,109.558,-33.2642,-232.3,-88.4564,36.8152,147.167,19.1311,-4.49805,-1.97148,0.0278931,0.412537,0.569489,-0.710327,-71.5917,76.925,-53.15,-10297,-28504
3900,67098,123.352,-9.8877,-235.107,-87.7478,35.4419,147.332,17.8008,-4.59854,-0.44502,0.0191345,0.404053,0.570892,-0.714386,-70.8333,77.025,-53.2,-10297,-28504
3906,67104,129.272,18.6768,-227.539,-87.0612,34.0851,147.376,15.0063,-0.942676,0.856543,-0.000854492,0.388855,0.572327,-0.721893,-70.2833,77.1167,-53.3167,-10297,-28504
3912,67110,119.69,32.2266,-225.952,-85.957,31.4319,147.123,12.6137,0.478516,1.37813,-0.0113831,0.38208,0.572754,-0.725098,-69.7167,77.3083,-53.7167,-10297,-28504
3918,67116,109.314,39.5508,-230.164,-85.5396,30.0916,146.876,10.1541,1.53125,1.32549,-0.0221252,0.375763,0.573334,-0.727661,-69.6083,77.4083,-53.9167,-10297,-28504
3924,67122,97.9004,41.9922,-239.624,-85.188,28.7073,146.596,8.48887,2.61748,0.91875,-0.0330505,0.369568,0.574219,-0.729706,-69.6417,77.4917,-54.1583,-10297,-28504
3930,67128,83.6792,45.5322,-252.502,-84.9188,27.2571,146.277,7.87158,3.02422,1.00488,-0.0441895,0.36319,0.575531,-0.731293,-69.8417,77.575,-54.4417,-10297,-28504
3936,67134,59.6313,50.5981,-282.837,-84.5837,24.1479,145.552,6.44561,0.363672,0.220117,-0.0674744,0.349792,0.579834,-0.732635,-70.1333,77.625,-54.7333,-10297,-28504
3942,67140,54.2603,50.7813,-297.546,-84.4684,22.4835,145.168,6.06758,-1.2585,-0.205762,-0.0797119,0.342621,0.582703,-0.732544,-71.0917,77.7917,-55.4833,-10297,-28504
3948,67146,51.2085,49.8657,-309.631,-84.3475,20.7642,144.783,6.44561,-2.74189,-0.521582,-0.0922852,0.335022,0.585815,-0.732086,-71.65,77.85,-55.875,-10297,-28504
3954,67152,50.4761,51.1475,-317.993,-84.2267,19.0063,144.388,6.43604,-4.24443,-0.90918,-0.105164,0.327057,0.58905,-0.731354,-72.3167,77.9,-56.2417,-10297,-28504
3960,67158,54.0771,50.5981,-325.256,-84.0784,17.2211,143.998,5.91445,-5.39766,-1.23457,-0.118225,0.318848,0.592255,-0.730377,-73.0917,77.9583,-56.575,-10297,-28504
3966,67164,65.4907,41.0767,-333.252,-83.6334,13.5956,143.284,4.78037,-5.9958,-1.24414,-0.144867,0.301453,0.598053,-0.728241,-73.9667,77.9667,-56.8917,-10297,-28504
3972,67170,68.4814,34.3018,-333.313,-83.3588,11.7773,142.965,4.254,-5.94316,-0.976172,-0.158112,0.292236,0.600586,-0.727173,-76.0167,77.8667,-57.525,-10297,-28504
3978,67176,68.8477,24.5361,-332.397,-83.0676,9.97009,142.696,3.53145,-6.03887,-0.708203,-0.171173,0.282715,0.602875,-0.726074,-77.1667,77.775,-57.85,-10297,-28504
3984,67182,68.2983,13.3057,-330.872,-82.76,8.17383,142.471,2.91416,-6.13936,-0.421094,-0.183868,0.272888,0.605042,-0.724945,-78.2917,77.6667,-58.15,-10297,-28504
3990,67188,65.4297,1.95313,-330.017,-82.4579,6.37756,142.3,2.45,-6.29727,-0.191406,-0.196106,0.262695,0.607117,-0.723755,-79.5,77.4833,-58.4583,-10297,-28504
3996,67194,58.6548,-20.874,-332.397,-81.8701,2.77405,142.108,2.21074,-7.75195,0.248828,-0.219177,0.241272,0.611359,-0.721008,-80.7667,77.2917,-58.8083,-10297,-28504
4002,67200,57.4341,-28.5645,-335.632,-81.59,0.961304,142.059,2.52178,-8.76162,0.244043,-0.230133,0.22998,0.613586,-0.719421,-83.5167,76.7667,-59.4667,-10297,-28504
4008,67206,57.8613,-34.5459,-339.478,-81.2988,-0.86792,142.037,3.14385,-9.72344,0.325391,-0.240845,0.218353,0.615753,-0.717651,-85.0083,76.4167,-59.775,-10297,-28504
4014,67212,58.96,-36.9873,-343.689,-81.0022,-2.70813,142.009,3.59844,-10.58,0.468945,-0.251404,0.206421,0.617828,-0.71579,-86.4333,76.0667,-60.075,-10297,-28504
4020,67218,61.0352,-37.8418,-348.694,-80.6946,-4.57031,141.976,3.61758,-11.1638,0.684277,-0.261932,0.194275,0.619781,-0.713745,-87.9083,75.6833,-60.375,-10297,-28504
4026,67224,62.0728,-37.5977,-359.253,-80.0574,-8.34412,141.883,4.46934,-11.4844,1.36855,-0.282959,0.169403,0.623077,-0.709137,-89.4333,75.2417,-60.6833,-10297,-28504
4032,67230,59.5093,-34.5459,-362.427,-79.7443,-10.2393,141.795,4.94307,-11.4222,1.79443,-0.293549,0.156769,0.624512,-0.706482,-92.575,74.1917,-61.3,-10297,-28504
4038,67236,55.7251,-30.6396,-365.54,-79.4366,-12.1454,141.68,5.19668,-11.5227,2.0624,-0.304169,0.144165,0.625763,-0.703552,-94.2,73.5917,-61.55,-10297,-28504
4044,67242,50.7813,-27.4048,-367.859,-79.1455,-14.046,141.537,5.66084,-11.6854,2.31602,-0.31485,0.131653,0.626923,-0.700287,-95.7667,72.9833,-61.7833,-10297,-28504
4050,67248,45.105,-22.8271,-369.141,-78.8599,-15.9357,141.356,6.18242,-12.1974,2.50264,-0.3255,0.119263,0.628021,-0.696655,-97.375,72.3083,-62.0333,-10297,-28504
4056,67254,38.0249,-13.1226,-371.155,-78.2996,-19.6985,140.883,6.14414,-14.4847,2.77061,-0.346863,0.0950317,0.629883,-0.688324,-98.9917,71.5833,-62.3,-10297,-28504
4062,67260,36.8042,-10.437,-371.643,-78.0029,-21.5662,140.603,5.86182,-15.6618,2.75625,-0.357544,0.0831909,0.630554,-0.683777,-102.292,69.9583,-62.7417,-10297,-28504
4068,67266,36.499,-8.91113,-370.422,-77.6898,-23.4119,140.301,5.63691,-16.9538,2.85674,-0.368134,0.0714722,0.631042,-0.678986,-103.933,69.0333,-62.95,-10297,-28504
4074,67272,37.7197,-9.0332,-368.958,-77.3602,-25.2411,139.988,5.19189,-18.1166,2.99072,-0.378632,0.0598755,0.631348,-0.674072,-105.583,68.05,-63.0833,-10297,-28504
4080,67278,39.7339,-10.6812,-366.272,-77.0087,-27.0483,139.675,4.98135,-19.0497,2.96201,-0.388885,0.0483093,0.631409,-0.669037,-107.142,67.0917,-63.2167,-10297,-28504
4086,67284,44.9829,-16.6626,-357.239,-76.2396,-30.5804,139.054,4.89522,-20.0977,3.04814,-0.4086,0.0252991,0.63092,-0.658966,-108.692,66.05,-63.3417,-10297,-28504
4092,67290,46.2646,-20.3857,-351.196,-75.8386,-32.2943,138.763,4.99092,-20.5283,3.17256,-0.417877,0.013855,0.630402,-0.653961,-111.742,63.7167,-63.5667,-10297,-28504
4098,67296,46.3257,-23.4985,-346.313,-75.4321,-33.9752,138.472,4.57461,-20.9542,3.04336,-0.426788,0.00250244,0.62973,-0.648987,-113.25,62.4583,-63.6917,-10297,-28504
4104,67302,45.4712,-27.5879,-343.018,-75.0311,-35.6396,138.192,4.23965,-21.6098,2.94766,-0.435303,-0.00872803,0.628967,-0.643982,-114.725,61.1333,-63.8167,-10297,-28504
4110,67308,45.0439,-29.2358,-343.201,-74.6136,-37.2986,137.906,3.75156,-22.4041,2.73232,-0.443481,-0.019928,0.628174,-0.638885,-116.117,59.8583,-63.95,-10297,-28504
4116,67314,42.2974,-30.3955,-352.051,-73.7512,-40.6439,137.258,2.65098,-24.1028,2.36865,-0.459442,-0.0423584,0.626312,-0.628265,-118.817,57.1333,-64.0667,-10297,-28504
4122,67320,41.4429,-28.4424,-360.046,-73.2678,-42.3468,136.862,2.24902,-24.768,2.14375,-0.467407,-0.0536499,0.625244,-0.622589,-120.133,55.6583,-64.0583,-10297,-28504
4128,67326,40.8936,-23.8037,-367.554,-72.7295,-44.0717,136.395,2.20596,-25.2656,1.76572,-0.475494,-0.065033,0.623993,-0.616608,-121.408,54.1333,-64.0667,-10297,-28504
4134,67332,40.4663,-15.0146,-372.009,-72.1088,-45.791,135.818,2.36387,-25.6006,1.41162,-0.483734,-0.0763855,0.622498,-0.610382,-122.667,52.5667,-64.0667,-10297,-28504
4140,67338,39.7949,-3.54004,-371.704,-71.3947,-47.4829,135.121,2.02412,-25.7633,1.30635,-0.492218,-0.0875549,0.620667,-0.603943,-123.833,51.0583,-64.0583,-10297,-28504
4146,67344,38.4521,23.9258,-353.699,-69.6313,-50.636,133.325,-0.851758,-24.7919,2.78975,-0.509521,-0.108521,0.615875,-0.590912,-126.008,47.825,-64.0083,-10297,-28504
4152,67350,35.7056,31.25,-335.632,-68.6316,-52.0477,132.286,-3.60801,-22.629,5.40723,-0.518127,-0.11792,0.612946,-0.584656,-127.017,46.1333,-63.9667,-10297,-28504
4158,67356,16.9067,39.7339,-309.875,-67.6703,-53.3057,131.193,-4.85693,-21.4327,2.76104,-0.526337,-0.126526,0.609863,-0.578705,-127.975,44.4083,-63.9417,-10297,-28504
4164,67362,3.90625,54.6875,-279.114,-66.698,-54.3713,130.023,-6.62744,-25.1699,0.46416,-0.534119,-0.133698,0.607117,-0.572845,-128.867,42.6417,-63.9417,-10297,-28504
4170,67368,10.376,63.7817,-246.216,-65.6818,-55.2502,128.842,-9.71387,-28.4334,-2.45479,-0.548157,-0.143951,0.601563,-0.562836,-129.658,40.85,-63.9583,-10297,-28504
4176,67374,27.832,74.7681,-176.208,-63.6163,-56.4423,126.628,-16.8772,-27.9979,-7.61318,-0.553986,-0.147675,0.598541,-0.559418,-131.05,37.475,-63.9667,-10297,-28504
4182,67380,30.0293,75.1953,-143.616,-62.677,-56.7773,125.662,-22.4424,-25.2991,-8.59414,-0.55896,-0.150452,0.595428,-0.557037,-131.65,35.8333,-64.0083,-10297,-28504
4188,67386,21.7896,66.04,-115.417,-61.9409,-56.9971,124.882,-28.0506,-22.1457,-8.64199,-0.56308,-0.152344,0.592468,-0.555511,-132.183,34.2333,-64.1,-10297,-28504
4194,67392,4.27246,47.9126,-90.3931,-61.507,-57.1289,124.365,-31.8596,-19.844,-8.35967,-0.566254,-0.153442,0.590179,-0.554413,-132.683,32.7167,-64.2,-10297,-28504
4200,67398,-18.8599,25.3296,-65.6128,-61.452,-57.2058,124.146,-33.4195,-18.8344,-7.93857,-0.56955,-0.153503,0.58905,-0.552216,-133.117,31.275,-64.3167,-10297,-28504
4206,67404,-61.3403,-7.87354,-13.1836,-62.3529,-57.1124,124.514,-30.5532,-20.6288,-6.90498,-0.569611,-0.152344,0.590454,-0.550964,-133.808,28.7083,-64.5333,-10297,-28504
4212,67410,-71.228,-10.1929,14.1602,-63.111,-56.9037,124.948,-27.931,-22.0596,-6.46475,-0.568817,-0.150299,0.592804,-0.549835,-134.083,27.5833,-64.6083,-10297,-28504
4218,67416,-74.585,-7.62939,44.4946,-63.9679,-56.5411,125.475,-24.5909,-22.5237,-5.76611,-0.567322,-0.147339,0.595642,-0.549133,-134.342,26.5667,-64.6833,-10297,-28504
4224,67422,-74.646,-0.732422,69.3359,-64.8413,-56.0522,126.035,-22.1888,-22.5764,-5.04355,-0.565155,-0.143433,0.598694,-0.549072,-134.575,25.65,-64.7667,-10297,-28504
4230,67428,-71.2891,6.04248,87.0361,-65.6927,-55.4645,126.584,-20.3369,-22.4376,-4.72295,-0.559662,-0.133423,0.604553,-0.550812,-134.767,24.85,-64.8583,-10297,-28504
4236,67434,-135.01,113.77,342.651,-69.8785,-52.6794,129.842,33.3573,-37.4821,15.3316,-0.547272,-0.12793,0.616119,-0.551758,-135.125,23.5917,-64.975,-10297,-28504
4242,67440,153.198,345.276,253.113,-67.8461,-50.7184,128.188,-15.925,-1.19629,-28.5004,-0.541504,-0.111877,0.619019,-0.557648,-135.25,23.2083,-64.9583,-10297,-28504
4248,67446,68.2373,24.231,300.232,-68.2306,-49.1309,129.084,11.8624,20.0689,-9.18272,-0.542572,-0.0993347,0.608887,-0.570007,-135.342,23,-64.9833,-10297,-28504
4254,67452,-186.951,171.509,312.317,-69.0656,-47.2192,128.914,23.3946,0.794336,26.3519,-0.534149,-0.0914917,0.60849,-0.57962,-135.392,22.9667,-65.0667,-10297,-28504
4260,67458,-120.85,198.853,309.021,-69.4061,-45.2802,128.518,3.7085,-5.87617,10.1254,-0.526886,-0.0568542,0.610748,-0.588257,-135.392,23.1167,-65.2083,-10297,-28504
4266,67464,-188.477,133.362,316.345,-71.1969,-41.6492,128.765,11.6279,-3.86641,11.9485,-0.520599,-0.0422668,0.612854,-0.592896,-135.242,23.65,-65.6667,-10297,-28504
4272,67470,-205.811,201.355,324.524,-71.933,-39.6661,128.304,3.28262,-7.31172,12.0347,-0.515167,-0.0254211,0.61554,-0.595764,-135.075,24.1333,-65.9333,-10297,-28504
4278,67476,-232.117,201.721,323.547,-72.8009,-37.6996,127.82,-7.81416,-12.4653,5.36895,-0.51123,-0.00628662,0.616913,-0.598236,-134.858,24.7917,-66.2167,-10297,-28504
4284,67482,-197.266,129.578,314.88,-73.7347,-35.8759,127.722,-14.1306,-20.2747,8.86211,-0.507141,0.0133972,0.618713,-0.599731,-134.575,25.575,-66.5333,-10297,-28504
4290,67488,-161.926,56.0913,304.565,-74.707,-34.2114,128.002,-10.1685,-28.486,3.73721,-0.493408,0.0440063,0.623688,-0.604584,-134.217,26.4833,-66.8583,-10297,-28504
4296,67494,-76.7822,-12.085,261.963,-76.1792,-31.3165,129.034,-6.98154,-28.7492,1.9667,-0.484863,0.0547791,0.625793,-0.608429,-133.458,28.4833,-67.4833,-10297,-28504
4302,67500,-41.5649,-36.7432,230.042,-76.7065,-30.1245,129.655,-7.14902,-28.7827,1.94756,-0.476318,0.0637512,0.627594,-0.612427,-133.025,29.5333,-67.7417,-10297,-28504
4308,67506,-7.44629,-73.3032,204.224,-77.1295,-29.0973,130.424,-6.68008,-26.9596,1.55996,-0.468018,0.0704041,0.628937,-0.616699,-132.567,30.6167,-67.9667,-10297,-28504
4314,67512,28.3813,-103.821,171.021,-77.4207,-28.2623,131.309,-4.15352,-20.2795,0.239258,-0.459442,0.074646,0.630157,-0.621399,-132.133,31.7167,-68.0833,-10239,-28511
4320,67518,25.6958,-108.826,146.729,-77.7063,-27.5537,132.177,5.08662,-14.7957,-5.43115,-0.443085,0.0773621,0.632141,-0.630829,-131.692,32.825,-68.15,-10239,-28511
4326,67524,-32.3486,-7.50732,81.1157,-78.2831,-26.4496,133.022,3.89512,-19.3177,-8.7042,-0.436859,0.0791626,0.633331,-0.633759,-130.842,34.9167,-68.1583,-10239,-28511
4332,67530,-16.1743,38.3911,53.2837,-78.3545,-26.0541,132.962,2.85674,-22.4998,-7.97686,-0.43335,0.0821533,0.634277,-0.634827,-130.442,35.8833,-68.15,-10239,-28511
4338,67536,44.3726,53.4058,42.7856,-78.0853,-25.7025,132.808,3.37354,-16.2025,-3.82813,-0.431915,0.0853271,0.634064,-0.63562,-130.058,36.8333,-68.1083,-10239,-28511
4344,67542,65.6738,49.4385,46.6309,-77.7228,-25.3345,132.682,3.22998,-6.48867,5.12969,-0.431458,0.0874939,0.631927,-0.637787,-129.683,37.7167,-68.1,-10239,-28511
4350,67548,18.3716,52.002,44.5557,-77.5854,-24.9719,132.545,-2.78975,-4.82822,3.97168,-0.430206,0.0918274,0.627777,-0.64209,-129.325,38.4917,-68.125,-10239,-28511
4356,67554,-46.3867,-15.2588,29.0527,-78.1348,-24.4666,132.781,-0.401953,-11.8289,2.2873,-0.428528,0.0943909,0.628571,-0.642029,-128.717,39.9083,-68.1917,-10239,-28511
4362,67560,-26.1841,-11.2305,21.9116,-78.3435,-24.2853,132.946,3.21563,-12.116,0.258398,-0.426208,0.0959167,0.630249,-0.641724,-128.458,40.5333,-68.2583,-10239,-28511
4368,67566,-19.043,0.793457,22.0947,-78.4973,-24.093,133.05,4.58896,-9.5751,-1.63174,-0.424316,0.0969543,0.631287,-0.641815,-128.217,41.1,-68.3083,-10239,-28511
4374,67572,-21.9727,6.34766,23.0103,-78.6456,-23.9008,133.127,4.49326,-10.068,-2.09111,-0.422791,0.098175,0.631897,-0.642029,-128.025,41.6417,-68.3667,-10239,-28511
4380,67578,-8.54492,15.0146,26.062,-78.7665,-23.692,133.182,3.82334,-10.5273,-0.330176,-0.420044,0.101044,0.632904,-0.642395,-127.833,42.175,-68.425,-10239,-28511
4386,67584,-7.56836,17.6392,25.0854,-78.8873,-23.2745,133.226,2.62705,-9.41719,1.31592,-0.418884,0.102509,0.632965,-0.642853,-127.442,43.075,-68.45,-10239,-28511
4392,67590,-10.1318,11.5356,23.2544,-78.9642,-23.0823,133.264,1.85664,-9.34541,2.22031,-0.417847,0.104004,0.632965,-0.643311,-127.25,43.475,-68.4667,-10239,-28511
4398,67596,-11.1694,4.82178,21.5454,-79.0576,-22.9065,133.341,2.4835,-9.62295,1.84707,-0.416656,0.105316,0.633118,-0.643677,-127.075,43.8583,-68.4583,-10239,-28511
4404,67602,-10.6201,2.92969,20.5688,-79.151,-22.7362,133.423,3.53623,-9.63252,1.34941,-0.415375,0.106384,0.633453,-0.644043,-126.9,44.2167,-68.475,-10239,-28511
