Timestamp,AccX,AccY,AccZ,AngularVelX,AngularVelY,AngularVelZ,MagX,MagY,MagZ,AirPressure
208292,0.373027,9.78479,-0.0669536,1.96,-2.8,0.14,21.6879,-50.7781,-18.458,1023.28
208298,0.420851,9.78479,-0.0908656,1.54,-2.38,17.85,21.7169,-49.7295,-18.6206,1023.26
208304,0.420851,9.84218,-0.071736,1.68,-2.66,0.14,22.3271,-50.0071,-17.7931,1023.26
208310,0.406504,9.84218,-0.071736,1.54,-2.94,0.07,22.4724,-50.1921,-17.2021,1023.29
208316,0.411286,9.81827,-0.0334768,1.54,-2.94,0.07,22.7339,-49.9454,-19.0196,1023.29
208322,0.392157,9.84696,-0.0908656,1.82,-2.38,0,20.6709,-50.5622,-18.5319,1023.27
208328,0.396939,9.8374,-0.0860832,1.68,-2.73,0.35,21.3392,-50.5622,-18.0591,1023.27
208334,0.387374,9.83261,-0.124342,1.54,-2.52,0.07,21.3973,-50.2538,-17.5419,1023.31
208340,0.396939,9.81827,-0.0526064,1.68,-2.45,-0.21,21.7751,-49.7604,-18.4433,1023.31
208346,0.382592,9.83261,-0.0669536,1.61,-2.52,0.35,21.3973,-50.4697,-17.9113,1023.31
208352,0.37781,9.83261,-0.114778,1.26,-2.66,0.42,21.8622,-50.3772,-19.123,1023.29
208358,0.353898,9.85653,-0.0813008,1.12,-2.73,0.35,21.746,-49.637,-18.8275,1023.29
208364,0.468675,9.81827,-0.023912,1.47,-2.38,0.28,22.792,-50.5314,-18.6649,1023.27
208370,0.353898,9.88044,-0.191296,1.12,-2.1,0.56,22.0366,-50.5005,-17.7783,1023.27
208376,0.33955,9.77523,0.0191296,1.33,-2.94,0.21,22.269,-49.7604,-18.9457,1023.28
208382,0.420851,9.8087,-0.0526064,1.75,-2.24,0.7,21.8622,-49.9454,-18.7831,1023.28
208388,0.406504,9.87566,-0.105213,1.75,-2.66,0.56,21.8913,-50.4389,-18.1477,1023.24
208394,0.449546,9.78479,-0.071736,1.47,-2.52,0.7,21.9785,-50.408,-18.857,1023.24
208400,0.349115,9.8374,-0.0669536,2.1,-3.08,0.14,21.4554,-49.5137,-19.1673,1023.28
208406,0.439981,9.82783,-0.133907,1.47,-2.52,0.14,22.4724,-50.6856,-17.7783,1023.28
208412,0.416069,9.76088,-0.0621712,1.82,-2.1,0.21,22.2109,-50.1921,-17.5567,1023.28
208418,0.387374,9.88522,-0.11956,1.54,-2.66,0.21,20.1479,-50.7473,-19.7731,1023.25
208424,0.425634,9.88522,-0.0573888,1.75,-2.73,0.21,21.0777,-49.9763,-17.8522,1023.25
208430,0.406504,9.79914,-0.0095648,1.47,-2.73,0.35,22.1818,-50.7781,-18.0295,1023.26
208436,0.45911,9.81349,-0.0669536,1.54,-2.24,0.07,22.0366,-50.0688,-17.6601,1023.26
208442,0.382592,9.8087,-0.10043,1.12,-2.1,0.07,21.4554,-49.7604,-17.8374,1023.3
208448,0.363462,9.78001,-0.0573888,1.61,-2.38,0.07,21.4845,-50.2847,-18.3251,1023.3
208454,0.430416,9.85653,-0.0813008,1.82,-2.38,0.35,21.4845,-49.9763,-18.7979,1023.27
208460,0.387374,9.84218,-0.109995,1.33,-2.31,0.56,21.6879,-49.5753,-17.2759,1023.27
208466,0.382592,9.80392,-0.047824,1.75,-2.66,-0.14,21.1939,-50.3463,-19.1082,1023.27
208472,0.35868,9.87087,-0.0765184,1.26,-2.87,0.28,21.6879,-50.8089,-17.9261,1023.26
208478,0.425634,9.81827,-0.11956,1.19,-2.66,0.77,21.1358,-49.9146,-19.3299,1023.26
208484,0.353898,9.82305,0,2.03,-2.87,0.07,21.6007,-49.9146,-18.1182,1023.27
208490,0.392157,9.8087,-0.0669536,1.68,-2.66,0.42,21.6588,-50.6239,-18.0886,1023.27
208496,0.37781,9.85653,-0.0908656,1.61,-2.66,0.35,21.7751,-50.408,-19.5072,1023.26
208502,0.45911,9.8374,-0.10043,1.4,-2.59,0.63,21.8332,-49.9763,-18.2512,1023.26
208508,0.406504,9.84218,-0.0573888,1.61,-3.01,0.07,21.746,-50.0688,-17.2612,1023.31
208514,0.439981,9.81827,-0.176949,1.68,-1.96,0.21,20.9324,-50.5314,-17.9556,1023.31
208520,0.37781,9.88044,-0.0573888,1.47,-2.73,0.49,21.8041,-49.7912,-18.7831,1023.31
208526,0.463893,9.8374,-0.143472,1.33,-2.59,0.21,21.4554,-50.6547,-19.4333,1023.26
208532,0.396939,9.77523,-0.0382592,1.96,-2.94,0.07,21.7169,-50.5314,-17.335,1023.26
208538,0.411286,9.88522,-0.124342,1.4,-2.66,0.56,22.0656,-49.8837,-18.133,1023.29
208544,0.439981,9.81349,-0.172166,1.12,-2.66,-0.07,22.0656,-50.223,-19.0787,1023.29
208550,0.416069,9.78001,-0.0765184,1.82,-2.52,-0.49,21.3101,-50.408,-18.6206,1023.26
208556,0.444763,9.81827,-0.133907,1.33,-2.24,0.7,21.4845,-49.5137,-19.2855,1023.26
208562,0.35868,9.82305,-0.10043,1.54,-3.29,-0.07,21.6588,-50.5622,-17.9556,1023.3
208568,0.47824,9.78001,-0.133907,1.33,-2.52,0.49,21.6588,-50.7473,-18.1921,1023.3
208574,0.387374,9.78001,-0.023912,2.03,-2.24,0,22.1818,-50.2538,-17.2021,1023.27
208580,0.363462,9.84218,-0.0813008,1.54,-2.31,0.14,21.7169,-49.8837,-17.9852,1023.27
208586,0.439981,9.82783,-0.148254,1.61,-2.66,0.28,21.5717,-49.637,-17.8374,1023.27
208592,0.37781,9.83261,-0.0908656,0.91,-3.08,0.07,22.0366,-50.5314,-18.0739,1023.27
208598,0.463893,9.77523,-0.023912,1.47,-2.24,0.21,21.6588,-50.3772,-20.0096,1023.27
208604,0.396939,9.80392,-0.0669536,2.1,-2.38,0.07,21.223,-49.6062,-18.0591,1023.27
208610,0.392157,9.84218,-0.109995,1.19,-2.45,0.28,21.252,-50.408,-16.7735,1023.27
208616,0.416069,9.81827,-0.114778,1.54,-2.45,0.35,20.8743,-50.223,-18.9161,1023.27
208622,0.439981,9.76088,-0.0621712,1.82,-2.31,0.35,21.3101,-50.6239,-18,1023.27
208628,0.392157,9.8087,-0.0860832,1.68,-2.59,0.21,21.3973,-50.3463,-17.5271,1023.3
208634,0.420851,9.86131,-0.133907,1.12,-2.38,0.14,21.9494,-50.0379,-17.4089,1023.3
208640,0.353898,9.84696,-0.0430416,1.33,-2.38,0.35,20.7581,-49.7295,-18.9013,1023.3
208646,0.401722,9.81349,-0.0813008,2.1,-2.52,0.07,21.8332,-50.7473,-18.9013,1023.29
208652,0.411286,9.84696,-0.0765184,1.89,-2.66,-0.07,21.6588,-50.7473,-18.4433,1023.29
208658,0.416069,9.87087,-0.153037,1.05,-2.24,-0.14,21.6879,-50.1613,-19.2264,1023.27
208664,0.382592,9.81349,-0.0382592,1.4,-2.45,0.28,21.746,-50.8089,-17.5419,1023.27
208670,0.449546,9.78957,-0.0765184,1.75,-2.45,0.21,21.8913,-50.408,-16.8917,1023.29
208676,0.387374,9.86131,-0.0669536,1.33,-2.45,0,21.7169,-49.9763,-18.9013,1023.29
208682,0.406504,9.8374,-0.105213,1.26,-2.03,0.14,21.0777,-50.1921,-18.3842,1023.29
208688,0.406504,9.8087,-0.095648,1.33,-2.38,0.21,21.9203,-50.7164,-18.1625,1023.29
208694,0.396939,9.82783,-0.0813008,1.89,-2.73,-0.21,21.9785,-49.2978,-18.4285,1023.29
208700,0.392157,9.84218,-0.10043,1.33,-2.45,0.42,21.3392,-49.3595,-18.3694,1023.29
208706,0.420851,9.8374,-0.133907,1.54,-2.17,0.21,21.8622,-49.9146,-18.7831,1023.29
208712,0.320421,9.83261,-0.0669536,1.47,-2.52,0.77,21.8913,-50.5005,-17.5419,1023.3
208718,0.411286,9.76566,-0.047824,2.1,-2.8,0.21,22.269,-49.8221,-18.8718,1023.3
208724,0.382592,9.90435,-0.13869,1.68,-3.29,0.42,21.8041,-49.7604,-18.3103,1023.3
208730,0.396939,9.87566,-0.114778,0.91,-2.8,0.7,21.5717,-50.7164,-18.4433,1023.3
208736,0.435198,9.76566,-0.0765184,1.75,-2.73,0.14,21.1649,-50.1613,-17.4089,1023.28
208742,0.373027,9.82305,-0.0573888,2.1,-2.87,0.28,21.5135,-49.8529,-18.1625,1023.28
208748,0.435198,9.87087,-0.129125,1.61,-2.24,0.42,22.0075,-50.2538,-17.2907,1023.28
208754,0.396939,9.81349,-0.0573888,1.4,-2.59,0.28,20.7581,-49.2361,-17.5271,1023.28
208760,0.454328,9.80392,-0.047824,1.82,-2.87,0.07,21.6588,-49.3595,-18.4433,1023.28
208766,0.411286,9.86131,-0.109995,1.68,-2.66,0.35,21.6298,-50.1305,-17.7931,1023.31
208772,0.416069,9.83261,-0.0908656,1.47,-2.66,0.14,22.1237,-50.2847,-17.7192,1023.31
208778,0.439981,9.8087,-0.071736,1.68,-2.45,-0.14,20.9324,-50.1305,-18.7388,1023.31
208784,0.416069,9.81827,-0.0334768,1.61,-2.66,0.14,21.6879,-49.4212,-17.9852,1023.31
208790,0.401722,9.81349,-0.143472,1.61,-1.82,0,21.8913,-49.452,-16.9361,1023.29
208796,0.35868,9.8374,-0.0621712,1.4,-2.59,-0.07,21.6007,-49.6987,-17.9852,1023.29
208802,0.425634,9.79914,-0.0765184,1.19,-2.52,0,22.0075,-49.6062,-18.591,1023.31
208808,0.387374,9.80392,-0.0526064,1.96,-2.59,0.35,21.746,-49.8221,-16.8031,1023.31
208814,0.353898,9.78479,-0.0621712,1.89,-2.87,0.14,21.2811,-49.7295,-17.867,1023.31
208820,0.35868,9.86131,-0.071736,1.61,-3.22,0,20.8452,-49.5137,-18.9013,1023.28
208826,0.406504,9.82305,-0.148254,1.82,-2.8,0.28,21.4264,-50.3463,-18.0148,1023.28
208832,0.47824,9.8374,-0.267814,1.82,-2.59,0.28,21.3392,-50.1921,-17.5715,1023.3
208838,0.282162,9.80392,-0.071736,0.77,-2.1,0.42,20.6128,-49.7604,-18.2068,1023.3
208844,0.37781,9.61741,0.129125,3.01,-3.08,0.84,21.0196,-49.8221,-18.3398,1023.28
208850,0.382592,9.89479,-0.224773,1.89,-2.87,0.49,21.5717,-50.1613,-18.5024,1023.28
208856,0.396939,9.83261,-0.148254,1.54,-3.71,0.07,21.252,-49.5753,-18.9604,1023.33
208862,0.425634,9.78479,-0.0430416,2.17,-2.31,0.7,21.1649,-49.6987,-17.9852,1023.33
208868,0.33955,9.88522,-0.071736,1.4,-3.22,0.7,21.4554,-50.3772,-18.8866,1023.33
208874,0.449546,9.77523,-0.10043,2.1,-3.01,-0.14,20.4966,-49.8221,-19.1969,1023.29
208880,0.444763,9.83261,-0.10043,1.75,-2.66,0.35,20.9905,-49.0511,-18.6501,1023.29
208886,0.449546,9.92826,-0.124342,1.19,-2.94,0.7,20.9324,-50.8706,-18.2068,1023.28
208892,0.463893,9.84218,-0.133907,1.54,-2.45,0.21,19.9154,-50.5005,-17.6897,1023.28
208898,0.420851,9.85174,-0.071736,1.82,-2.52,-0.14,21.3392,-48.8044,-20.1426,1023.32
208904,0.37781,9.8087,-0.109995,1.47,-2.8,0,20.8162,-48.8969,-19.4924,1023.32
208910,0.430416,9.84218,-0.143472,1.05,-2.8,-0.28,21.3683,-50.8089,-18.6797,1023.3
208916,0.444763,9.88044,-0.167384,1.54,-2.45,-0.07,21.6298,-49.6062,-18.3546,1023.3
208922,0.315638,9.7561,0.0430416,1.75,-3.36,0.28,21.5426,-49.8837,-19.2116,1023.33
208928,0.463893,9.81349,-0.143472,1.75,-2.31,-0.07,21.3392,-50.7164,-17.7192,1023.33
208934,0.325203,9.79914,-0.0382592,1.47,-2.59,0.14,21.0486,-49.1128,-18.3842,1023.33
208940,0.396939,9.79436,-0.133907,1.96,-2.38,0.35,20.8743,-48.7118,-19.6697,1023.28
208946,0.420851,9.87566,-0.162602,1.82,-2.73,0.14,21.223,-49.5137,-17.7783,1023.28
208952,0.387374,9.78479,-0.0382592,1.75,-3.57,-0.35,21.3392,-49.9454,-17.601,1023.31
208958,0.449546,9.78479,-0.114778,2.03,-3.15,0.28,21.3392,-49.3903,-17.2316,1023.31
208964,0.37781,9.87566,-0.162602,1.4,-2.94,0.42,20.9905,-49.4212,-18.1625,1023.33
208970,0.439981,9.78957,-0.047824,1.61,-2.94,17.71,21.8332,-49.8837,-18.6797,1023.33
208976,0.411286,9.80392,-0.10043,1.68,-2.87,0.07,20.9615,-49.4212,-19.6254,1023.31
208982,0.430416,9.88044,-0.143472,1.68,-2.94,-0.21,21.223,-49.4212,-18.8866,1023.31
208988,0.430416,9.84696,-0.124342,1.47,-2.8,-0.14,21.1649,-50.4697,-18.0739,1023.31
208994,0.406504,9.8374,-0.105213,1.54,-2.52,0.07,21.7751,-49.9454,-18.6058,1023.33
209000,0.439981,9.78957,-0.109995,1.19,-2.45,-0.28,21.1067,-49.4212,-20.1426,1023.33
209006,0.401722,9.86131,-0.124342,1.4,-2.66,-0.21,21.4554,-49.9454,-18.3694,1023.32
209012,0.401722,9.82305,-0.124342,0.7,-2.45,-0.14,21.9203,-49.9146,-17.6601,1023.32
209018,0.363462,9.77044,-0.0813008,1.68,-2.59,-0.07,21.6298,-49.5445,-19.7879,1023.33
209024,0.411286,9.85174,-0.148254,1.68,-2.52,-0.21,21.8041,-49.5753,-17.867,1023.33
209030,0.368245,9.82305,-0.109995,1.4,-2.59,0.21,21.7751,-50.1613,-18.3103,1023.31
209036,0.373027,9.76088,-0.0095648,1.75,-2.73,0.07,21.0777,-49.7295,-19.0048,1023.31
209042,0.406504,9.8374,-0.167384,1.75,-2.59,0.21,21.0777,-49.3903,-17.6453,1023.31
209048,0.363462,9.82783,-0.095648,1.12,-2.94,-0.07,21.1649,-51.765,-18.2068,1023.32
209054,0.416069,9.74653,-0.0765184,1.61,-2.52,0.77,21.4845,-49.7912,-17.9704,1023.32
209060,0.373027,9.87087,-0.157819,1.47,-2.45,0.28,21.3973,-49.8529,-19.3742,1023.31
209066,0.420851,9.87566,-0.129125,1.33,-2.87,-0.28,21.9785,-50.3772,-17.3794,1023.31
209072,0.344333,9.78479,-0.0382592,1.96,-2.8,0.42,21.5135,-49.6987,-19.0343,1023.32
209078,0.392157,9.8374,-0.109995,1.33,-2.24,0.42,21.4264,-49.2053,-19.123,1023.32
209084,0.406504,9.8087,-0.129125,1.75,-2.31,0.35,21.4554,-49.2053,-17.601,1023.3
209090,0.373027,9.8087,-0.129125,1.96,-2.59,0.21,21.252,-49.8221,-18,1023.3
209096,0.45911,9.81349,-0.0908656,1.54,-3.15,0.28,21.8622,-49.3903,-19.3003,1023.32
209102,0.449546,9.84696,-0.162602,1.33,-2.38,0.35,21.6298,-49.5445,-19.5072,1023.32
209108,0.392157,9.86609,-0.124342,1.33,-2.87,0.42,21.8332,-50.4389,-19.2116,1023.32
209114,0.396939,9.84218,-0.0908656,1.19,-2.52,-0.21,22.3271,-49.8837,-18.9604,1023.31
209120,0.439981,9.87566,-0.11956,1.75,-2.94,0,21.6007,-49.6679,-18.7979,1023.31
209126,0.425634,9.81349,-0.133907,0.77,-2.66,0.63,21.3101,-49.5753,-18.7388,1023.32
209132,0.401722,9.77044,-0.0908656,1.96,-2.73,-0.14,21.3683,-49.9763,-17.7045,1023.32
209138,0.430416,9.88044,-0.186514,1.75,-2.59,0,21.3101,-48.9277,-19.3446,1023.3
209144,0.435198,9.85653,-0.133907,1.19,-2.03,0.49,21.7169,-50.2847,-18.6206,1023.3
209150,0.387374,9.80392,-0.0860832,1.26,-1.96,0,21.223,-49.5753,-18.2068,1023.28
209156,0.392157,9.82783,-0.0860832,1.4,-2.38,-0.21,21.1649,-48.9277,-18.8718,1023.28
209162,0.344333,9.85653,-0.109995,1.05,-2.8,0.63,21.9203,-49.452,-17.6453,1023.28
209168,0.416069,9.83261,-0.114778,1.26,-2.31,0.14,22.0366,-50.3155,-17.5419,1023.31
209174,0.416069,9.78957,-0.047824,1.54,-2.38,0.14,22.1528,-50.3463,-19.3003,1023.31
209180,0.392157,9.80392,-0.114778,1.47,-2.66,-0.35,21.1939,-50.223,-19.0934,1023.3
209186,0.387374,9.87566,-0.129125,1.12,-2.73,0.28,21.3683,-49.8529,-18.5763,1023.3
209192,0.396939,9.82783,-0.0908656,1.26,-2.52,0.21,21.8622,-50.2847,-18.2807,1023.3
209198,0.473458,9.80392,-0.095648,1.96,-2.8,-0.21,21.1939,-49.2361,-19.7879,1023.3
209204,0.439981,9.86131,-0.143472,1.4,-2.59,0.14,21.5717,-50.1305,-18,1023.31
209210,0.454328,9.86131,-0.13869,1.26,-2.45,0.07,21.8622,-50.4389,-17.9556,1023.31
209216,0.435198,9.77523,-0.047824,1.4,-2.03,-0.28,21.3392,-49.7912,-18.2807,1023.31
209222,0.382592,9.86131,-0.071736,1.33,-2.31,-0.07,22.4434,-50.408,-19.0934,1023.3
209228,0.37781,9.86609,-0.124342,1.54,-2.59,0.14,21.7169,-50.3772,-18.4285,1023.3
209234,0.373027,9.82783,-0.10043,1.12,-2.31,-0.21,21.6298,-50.0688,-18.7979,1023.28
209240,0.430416,9.77523,-0.0382592,1.33,-2.24,0.35,21.8913,-49.6679,-20.246,1023.28
209246,0.420851,9.83261,-0.0813008,1.54,-2.24,-0.28,21.6007,-50.7781,-19.2264,1023.32
209252,0.406504,9.87087,-0.167384,1.33,-2.52,-0.07,21.3973,-50.5931,-18.1921,1023.32
209258,0.416069,9.78957,-0.0669536,1.05,-2.45,0.21,21.5135,-49.6062,-19.9209,1023.31
209264,0.396939,9.81349,-0.105213,1.47,-1.68,-0.07,22.0947,-49.5753,-19.2412,1023.31
209270,0.353898,9.86131,-0.109995,1.54,-2.45,0.07,21.0486,-50.4697,-18.6058,1023.32
209276,0.425634,9.89,-0.196078,0.56,-1.75,0.63,21.1939,-49.7604,-18.724,1023.32
209282,0.263032,9.71784,0.200861,1.33,-3.15,0.63,21.3101,-49.8837,-19.4924,1023.32
209288,0.549976,9.88044,-0.176949,2.31,-2.66,-0.21,21.8041,-50.6547,-18.5763,1023.32
209294,0.349115,9.87566,-0.167384,1.61,-3.08,0.56,21.3392,-50.4697,-20.3347,1023.32
209300,0.487805,9.79914,-0.114778,1.47,-2.59,0.7,21.4554,-50.9015,-20.8223,1023.28
209306,0.444763,9.88522,-0.162602,1.4,-2.38,0.21,21.3101,-49.8837,-18.5763,1023.28
209312,0.35868,9.75131,-0.0047824,1.12,-2.38,0.14,22.3562,-50.1305,-18.2807,1023.3
209318,0.439981,9.71305,-0.0047824,2.38,-2.8,-0.56,21.8622,-50.6856,-19.9652,1023.3
209324,0.387374,9.93783,-0.181731,1.19,-3.01,0.28,21.5717,-50.0071,-19.3299,1023.3
209330,0.492587,9.83261,-0.191296,1.33,-2.59,-0.21,21.3973,-50.6547,-17.5715,1023.3
209336,0.363462,9.81349,-0.0813008,2.03,-3.01,-0.7,21.8041,-50.6856,-19.5958,1023.3
209342,0.329986,9.81349,-0.0286944,1.4,-2.45,0.21,22.0656,-50.8089,-19.9652,1023.31
209348,0.492587,9.81349,-0.143472,1.75,-1.75,0.56,21.6298,-50.8398,-17.3941,1023.31
209354,0.373027,9.88522,-0.157819,1.05,-2.17,-0.28,21.1067,-50.0688,-18.6649,1023.31
209360,0.416069,9.76566,-0.0286944,1.33,-2.31,0.14,21.7169,-50.0379,-18.5319,1023.31
209366,0.329986,9.79436,-0.0191296,1.75,-2.24,0.42,22.0656,-50.8089,-18.0443,1023.32
209372,0.435198,9.88522,-0.133907,1.12,-2.31,-0.07,21.6298,-50.7473,-17.9113,1023.32
209378,0.435198,9.85174,-0.0860832,1.26,-1.89,0.14,21.4554,-49.6987,-18.8422,1023.33
209384,0.368245,9.80392,-0.0095648,1.4,-2.31,-0.49,22.0366,-49.8529,-18.6797,1023.33
209390,0.435198,9.84218,-0.133907,1.82,-2.24,-0.14,21.3101,-50.5314,-18.3103,1023.33
209396,0.37781,9.8374,-0.0908656,1.19,-2.52,0.21,21.1939,-49.7912,-18.6649,1023.29
209402,0.416069,9.78957,-0.095648,1.61,-2.31,-0.21,21.2811,-50.4389,-20.4676,1023.29
209408,0.396939,9.8087,-0.071736,1.4,-1.89,0.14,22.24,-50.0688,-20.113,1023.29
209414,0.363462,9.85174,-0.10043,1.12,-2.1,0.49,21.3683,-49.5753,-18.0295,1023.29
209420,0.416069,9.80392,-0.0573888,1.54,-2.94,-0.07,21.6007,-49.8529,-18.3694,1023.32
209426,0.468675,9.83261,-0.124342,1.47,-2.31,-0.14,21.6298,-50.0996,-18.0739,1023.32
209432,0.392157,9.89,-0.13869,1.33,-2.38,-0.14,21.3683,-50.5005,-18.4285,1023.34
209438,0.449546,9.79914,-0.0860832,0.98,-2.45,-0.07,20.9615,-49.2053,-20.8518,1023.34
209444,0.444763,9.8087,-0.11956,1.54,-1.89,-0.07,21.9785,-49.4828,-20.0096,1023.31
209450,0.373027,9.84696,-0.0908656,1.12,-2.73,0,21.4845,-50.4697,-18.9604,1023.31
209456,0.396939,9.8087,-0.0908656,1.4,-2.31,-0.49,21.6007,-50.0996,-18.6501,1023.31
209462,0.363462,9.85653,-0.11956,1.19,-1.96,-0.42,21.0486,-49.9146,-18.2807,1023.33
209468,0.363462,9.84218,-0.0573888,1.05,-1.96,0.28,22.24,-50.2847,-17.9556,1023.33
209474,0.382592,9.80392,-0.0860832,1.47,-2.31,-0.42,21.8041,-49.3286,-19.2855,1023.32
209480,0.344333,9.8374,-0.0813008,1.47,-2.45,-0.14,20.9324,-48.7118,-17.867,1023.32
209486,0.387374,9.81827,-0.10043,1.19,-2.1,-0.07,21.5717,-50.7164,-18.5172,1023.32
209492,0.353898,9.81827,-0.047824,1.33,-2.1,0.21,21.746,-49.6062,-17.9113,1023.32
209498,0.416069,9.81349,-0.0765184,1.4,-2.38,-0.21,21.2811,-49.5753,-18.9013,1023.3
209504,0.396939,9.82783,-0.10043,1.4,-2.31,-0.35,20.9034,-50.0379,-18.7684,1023.3
209510,0.430416,9.84696,-0.0573888,1.12,-2.45,-0.14,21.4554,-50.3155,-18.1034,1023.3
209516,0.396939,9.83261,-0.0669536,1.33,-1.89,-0.07,21.5135,-49.6062,-19.5072,1023.32
209522,0.425634,9.82305,-0.0908656,1.26,-2.59,-0.07,21.7169,-49.4212,-18.7831,1023.32
209528,0.416069,9.83261,-0.0908656,1.19,-2.31,0.07,21.3101,-50.9631,-18.9752,1023.33
209534,0.406504,9.82783,-0.095648,1.19,-1.89,-0.42,21.746,-50.4389,-18.1477,1023.33
209540,0.411286,9.81827,-0.105213,1.05,-2.17,-0.07,21.7169,-49.8529,-18.6501,1023.36
209546,0.411286,9.84218,-0.071736,1.05,-2.38,0.21,21.5426,-50.0688,-17.8374,1023.36
209552,0.387374,9.83261,-0.0860832,1.05,-1.96,0,21.746,-49.9454,-18.0739,1023.32
209558,0.35868,9.82305,-0.071736,1.47,-2.1,-0.63,20.4675,-50.1305,-18.6649,1023.32
209564,0.473458,9.77044,-0.153037,0.77,-2.17,-0.07,21.3683,-50.2538,-19.2412,1023.32
209570,0.33955,9.69871,-0.0095648,1.33,-2.38,-0.07,22.0075,-50.9015,-18.2512,1023.31
209576,0.387374,9.83261,-0.10043,1.26,-2.31,-0.07,21.5135,-49.1744,-18.9309,1023.31
209582,0.368245,9.82783,-0.10043,0.98,-2.52,-0.07,21.5135,-49.5445,-18.7831,1023.33
209588,0.368245,9.81827,-0.0908656,1.4,-2.17,-0.21,21.6298,-50.223,-18.0591,1023.33
209594,0.35868,9.82783,-0.0621712,1.26,-2.17,0.14,22.24,-50.223,-18.5024,1023.32
209600,0.411286,9.83261,-0.071736,1.33,-2.52,0.07,22.1237,-50.0996,-18.3694,1023.32
209606,0.425634,9.81827,-0.11956,1.54,-2.38,0,22.3562,-50.5314,-17.7783,1023.31
209612,0.411286,9.82783,-0.0430416,1.68,-2.24,0.14,22.0656,-50.408,-17.8227,1023.31
209618,0.444763,9.83261,-0.071736,1.54,-2.31,-0.35,22.0366,-48.9586,-19.3151,1023.32
209624,0.401722,9.85653,-0.153037,1.12,-2.31,-0.49,21.4845,-50.0688,-18.4876,1023.32
209630,0.425634,9.85174,-0.143472,1.4,-1.96,-0.28,21.8622,-49.8221,-17.3794,1023.32
209636,0.411286,9.85174,-0.129125,0.77,-1.68,0.07,21.5717,-49.4828,-17.7192,1023.31
209642,0.411286,9.83261,-0.0908656,1.05,-2.24,-0.63,21.6007,-50.5931,-19.9652,1023.31
209648,0.406504,9.84696,-0.11956,0.98,-1.54,-0.21,21.8332,-50.4697,-18.1477,1023.35
209654,0.35868,9.82783,-0.0621712,0.98,-2.17,-0.42,22.0075,-49.9763,-16.744,1023.35
209660,0.35868,9.84218,-0.0382592,1.26,-1.96,-0.42,21.3101,-49.1744,-18.4137,1023.32
209666,0.344333,9.80392,-0.0382592,1.33,-1.89,-0.21,21.252,-50.223,-18.0591,1023.32
209672,0.387374,9.84218,-0.095648,1.89,-2.38,-0.21,22.3271,-49.5445,-19.0343,1023.31
209678,0.392157,9.86609,-0.133907,1.19,-2.17,-0.49,21.8622,-49.4828,-18.6501,1023.31
209684,0.387374,9.78957,-0.0382592,0.98,-2.1,-0.35,22.0075,-50.0996,-18.6945,1023.31
209690,0.329986,9.76088,0.0191296,1.19,-2.17,0.28,21.9494,-50.0379,-17.4533,1023.32
209696,0.368245,9.80392,-0.0765184,1.68,-2.45,0.49,22.4143,-49.9763,-17.9113,1023.32
209702,0.420851,9.87087,-0.162602,0.84,-2.45,-0.49,21.5717,-48.9894,-18.591,1023.33
209708,0.373027,9.80392,-0.0047824,1.19,-2.66,0,22.4434,-49.7604,-18.7831,1023.33
209714,0.435198,9.81827,-0.071736,1.47,-2.1,-0.07,21.8041,-49.4828,-17.601,1023.29
209720,0.411286,9.89,-0.11956,1.12,-2.59,0.07,20.8743,-49.2978,-18.6501,1023.29
209726,0.411286,9.81349,-0.0430416,1.61,-2.59,0.14,22.2981,-50.2538,-18.3251,1023.32
209732,0.444763,9.81349,-0.0908656,1.26,-2.38,-0.07,22.0656,-50.0688,-17.5567,1023.32
209738,0.396939,9.84218,-0.10043,1.47,-2.8,0.21,21.4554,-49.3903,-19.1082,1023.32
209744,0.382592,9.83261,-0.0765184,1.19,-2.03,0,20.9905,-50.0688,-19.4776,1023.34
209750,0.368245,9.83261,-0.105213,1.54,-2.1,-0.49,21.9494,-49.8837,-17.7045,1023.34
209756,0.363462,9.82305,-0.071736,1.33,-2.24,-0.35,21.6298,-49.2978,-18.591,1023.33
209762,0.363462,9.78957,-0.0526064,1.47,-2.24,0.14,21.6879,-50.8706,-18.4876,1023.33
209768,0.382592,9.80392,-0.0908656,1.4,-2.03,-0.07,22.4434,-49.9146,-17.4237,1023.33
209774,0.382592,9.79914,-0.047824,1.68,-2.66,-0.14,21.4264,-50.0071,-18.5467,1023.33
209780,0.37781,9.81349,-0.095648,1.68,-2.45,0.14,21.9785,-49.5753,-18.8422,1023.36
209786,0.363462,9.84218,-0.105213,1.96,-2.59,-0.35,22.1528,-51.0248,-17.4237,1023.36
209792,0.387374,9.82305,-0.095648,1.4,-2.73,0.21,21.5135,-50.408,-18.4433,1023.36
209798,0.368245,9.79914,-0.0621712,1.4,-2.24,0.21,20.8162,-49.8221,-18.8718,1023.32
209804,0.420851,9.84218,-0.0908656,1.54,-2.52,0,21.4264,-49.7604,-17.8227,1023.32
209810,0.382592,9.81827,-0.0860832,1.26,-2.38,0.21,21.746,-50.7164,-17.9852,1023.32
209816,0.401722,9.79436,-0.105213,1.96,-2.45,0.63,21.8332,-50.0688,-17.6306,1023.32
209822,0.363462,9.82783,-0.0908656,1.33,-2.66,0.07,22.1818,-49.6987,-19.7731,1023.33
209828,0.411286,9.80392,-0.0621712,1.4,-2.52,0.35,21.9785,-50.6547,-18.6501,1023.33
209834,0.406504,9.82783,-0.10043,1.68,-2.45,0,21.6588,-49.7604,-18.3398,1023.35
209840,0.430416,9.85653,-0.109995,1.33,-2.24,0.07,22.4434,-49.5137,-18.9604,1023.35
209846,0.425634,9.81827,-0.109995,1.47,-2.66,-0.28,20.1769,-50.9631,-19.3594,1023.32
209852,0.396939,9.85174,-0.0382592,1.68,-2.45,-0.07,22.2981,-50.0379,-16.6553,1023.32
209858,0.382592,9.83261,-0.023912,1.26,-2.59,0,21.8332,-49.637,-18.4728,1023.32
209864,0.325203,9.81827,-0.0765184,1.61,-2.73,0.14,20.9034,-49.7912,-18.2068,1023.33
209870,0.406504,9.81827,-0.0573888,1.54,-2.59,-0.28,21.9203,-50.7164,-17.9852,1023.33
209876,0.373027,9.8374,-0.0765184,1.47,-2.66,0.21,21.3973,-49.8221,-17.9852,1023.32
209882,0.37781,9.79914,-0.0430416,1.54,-2.45,0.63,21.3973,-49.7912,-17.5862,1023.32
209888,0.396939,9.8087,-0.0908656,1.61,-2.59,0.14,22.5596,-51.3024,-17.1429,1023.29
209894,0.373027,9.8374,-0.071736,1.61,-2.73,0.28,22.0656,-49.637,-17.8965,1023.29
209900,0.401722,9.82783,-0.109995,1.68,-2.73,0.28,20.4675,-49.4212,-18.1034,1023.34
209906,0.387374,9.80392,-0.105213,1.68,-2.31,0.42,21.8332,-49.2669,-18.4728,1023.34
209912,0.406504,9.84696,-0.105213,1.75,-2.38,0.14,21.9494,-50.2538,-17.3794,1023.34
209918,0.373027,9.84696,-0.0813008,1.75,-2.59,0.49,20.9905,-49.9763,-18.6354,1023.33
209924,0.396939,9.82305,-0.0669536,0.98,-2.24,0.42,21.1939,-50.2538,-18.133,1023.33
209930,0.396939,9.83261,-0.109995,1.4,-2.59,0.35,22.0075,-50.5314,-16.4485,1023.32
209936,0.382592,9.82305,-0.0813008,1.54,-2.45,0.21,21.0486,-49.3595,-18.6058,1023.32
209942,0.401722,9.82305,-0.071736,1.54,-2.52,0.56,21.3101,-50.6239,-18,1023.35
209948,0.382592,9.79914,-0.0669536,1.68,-2.87,0.42,22.1818,-50.3155,-18.6354,1023.35
209954,0.401722,9.84218,-0.0908656,1.33,-2.59,0.07,21.9785,-49.6987,-18.0591,1023.32
209960,0.382592,9.84218,-0.0573888,1.75,-2.38,0.56,21.8332,-49.8837,-17.9409,1023.32
209966,0.382592,9.81349,-0.071736,1.4,-2.94,0.14,22.0947,-50.1921,-18.3398,1023.32
209972,0.368245,9.82783,-0.0382592,1.26,-1.75,0.21,21.8913,-50.4389,-17.3203,1023.32
209978,0.353898,9.84218,-0.071736,1.47,-2.31,0.42,21.6588,-49.7604,-17.5419,1023.32
209984,0.363462,9.79436,-0.105213,1.61,-2.87,0.14,21.9203,-50.3155,-18.2364,1023.33
209990,0.401722,9.81349,-0.0813008,1.61,-2.94,0.28,22.0366,-50.4697,-17.6306,1023.33
209996,0.363462,9.84696,-0.0669536,1.89,-2.94,0.63,22.3852,-50.0071,-17.7636,1023.34
210002,0.387374,9.84696,-0.105213,1.82,-3.01,0.14,22.0075,-49.9146,-17.4385,1023.34
210008,0.363462,9.84218,-0.109995,1.82,-2.52,0.42,21.5717,-50.1305,-17.468,1023.32
210014,0.401722,9.82305,-0.095648,1.89,-2.73,0.84,21.3392,-49.6062,-17.601,1023.32
210020,0.396939,9.83261,-0.0765184,1.54,-2.59,0.49,21.223,-49.9454,-17.9852,1023.33
210026,0.406504,9.81349,-0.0908656,1.33,-2.66,0.42,21.6007,-50.5005,-17.6601,1023.33
210032,0.401722,9.80392,-0.0621712,1.47,-2.24,0.63,21.0486,-49.6987,-18.0443,1023.33
210038,0.37781,9.83261,-0.0813008,1.61,-2.59,0.7,21.4264,-49.8221,-17.5271,1023.32
210044,0.37781,9.82305,-0.0669536,1.68,-2.66,0.14,21.3392,-50.5005,-18.5319,1023.32
210050,0.387374,9.82305,-0.0908656,1.54,-2.73,0.77,20.6418,-51.765,-17.2316,1023.33
210056,0.396939,9.8374,-0.0669536,1.54,-2.8,0.07,21.6879,-50.0071,-18.857,1023.33
210062,0.430416,9.8374,-0.10043,1.61,-2.8,0.07,21.1358,-50.0071,-17.5271,1023.32
210068,0.411286,9.8374,-0.109995,2.03,-2.59,0.28,21.5717,-50.7164,-18.4285,1023.32
210074,0.363462,9.85174,-0.0860832,1.4,-2.66,0.28,22.3852,-49.8221,-18.4876,1023.33
210080,0.396939,9.78479,-0.0191296,1.61,-2.66,0.42,21.252,-50.1305,-18.9013,1023.33
210086,0.396939,9.84696,-0.0908656,1.68,-2.59,0.21,22.0366,-50.4389,-18.0148,1023.33
210092,0.387374,9.84696,-0.0430416,1.47,-2.59,0,22.0075,-51.1482,-16.8474,1023.32
210098,0.387374,9.8374,-0.0860832,1.54,-2.17,0.77,21.6007,-48.9277,-18.0295,1023.32
210104,0.401722,9.79914,-0.071736,1.26,-2.31,0.42,22.5015,-50.3772,-18.266,1023.32
210110,0.37781,9.82305,-0.0860832,1.4,-2.31,0.56,22.2981,-51.2715,-16.5371,1023.32
210116,0.382592,9.84218,-0.0860832,2.03,-2.52,0.28,21.4264,-50.3463,-17.6897,1023.33
210122,0.373027,9.84218,-0.0908656,2.17,-2.52,0.63,21.3973,-49.9454,-18.458,1023.33
210128,0.382592,9.79914,-0.0669536,1.33,-2.38,0.56,22.3271,-50.8089,-17.0247,1023.32
210134,0.382592,9.82305,-0.0908656,1.47,-2.52,0.42,21.6298,-49.6987,-17.3203,1023.32
210140,0.416069,9.82305,-0.095648,2.03,-2.94,0.14,21.8332,-49.2361,-17.6749,1023.32
210146,0.382592,9.8374,-0.095648,1.68,-2.52,0.98,21.252,-50.2538,-17.9409,1023.32
210152,0.406504,9.8374,-0.0669536,1.89,-2.45,0.49,22.0366,-50.408,-19.4333,1023.32
210158,0.392157,9.86131,-0.0813008,2.03,-2.45,0.42,22.1528,-49.5445,-19.1082,1023.32
210164,0.396939,9.8087,-0.0382592,1.96,-2.94,0.63,22.4143,-49.6679,-18.5763,1023.32
210170,0.392157,9.84218,-0.10043,1.96,-2.52,0.7,22.6758,-50.5005,-17.9409,1023.33
210176,0.416069,9.84218,-0.0765184,1.75,-2.87,0.35,21.7751,-49.7912,-18.5615,1023.33
210182,0.425634,9.80392,-0.071736,1.96,-2.73,0.42,22.1237,-50.0688,-18.724,1023.33
210188,0.416069,9.82783,-0.095648,1.82,-3.01,0.35,21.1939,-50.6239,-16.9213,1023.33
210194,0.392157,9.84696,-0.109995,1.61,-2.24,0.56,22.0656,-50.5622,-17.8522,1023.32
210200,0.406504,9.81827,-0.0860832,1.54,-2.59,0.77,22.4724,-49.5445,-17.7488,1023.32
210206,0.401722,9.84696,-0.0813008,1.75,-2.8,0.49,22.0656,-49.8529,-18.0295,1023.32
210212,0.363462,9.85174,-0.0860832,1.68,-2.59,0.28,21.4264,-50.223,-18.0739,1023.34
210218,0.401722,9.8087,-0.0430416,1.61,-3.01,0.42,21.6588,-50.1921,-19.2708,1023.34
210224,0.425634,9.84218,-0.0908656,1.75,-2.8,0.42,22.1237,-50.4697,-18.3694,1023.33
210230,0.387374,9.81827,-0.095648,1.54,-3.01,0.77,22.0075,-50.223,-17.1282,1023.33
210236,0.430416,9.78001,-0.0573888,1.82,-2.38,0.56,21.6007,-49.5445,-19.1673,1023.29
210242,0.373027,9.82305,-0.071736,1.82,-3.01,0.14,21.4264,-49.9763,-17.4976,1023.29
210248,0.454328,9.83261,-0.0813008,1.54,-2.73,0.14,22.1237,-50.3772,-16.6258,1023.32
210254,0.420851,9.87087,-0.0860832,1.47,-2.87,-0.07,21.5426,-50.8398,-17.601,1023.32
210260,0.430416,9.83261,-0.047824,1.47,-2.8,0.42,22.0366,-49.6062,-17.0247,1023.32
210266,0.416069,9.79914,-0.0621712,1.47,-2.59,0.14,22.24,-50.8089,-17.5567,1023.32
210272,0.411286,9.82305,-0.0669536,1.89,-2.52,0.14,21.8913,-50.5314,-18.0739,1023.32
210278,0.401722,9.84218,-0.095648,1.89,-3.08,0.21,21.746,-49.8221,-18.9309,1023.31
210284,0.401722,9.82783,-0.10043,1.4,-2.66,0.21,21.7169,-49.9454,-18.0886,1023.31
210290,0.411286,9.80392,-0.071736,1.4,-2.73,0.63,21.1649,-49.5753,-16.4337,1023.33
210296,0.401722,9.79436,-0.0669536,1.54,-2.8,0.7,21.5717,-49.1128,-17.7045,1023.33
210302,0.387374,9.82305,-0.0860832,1.47,-2.66,0.35,21.3392,-49.7295,-18.7536,1023.31
210308,0.430416,9.81827,-0.0669536,1.75,-2.59,0.42,21.5135,-50.0996,-17.1282,1023.31
210314,0.392157,9.8374,-0.0908656,1.4,-2.94,0.42,21.4554,-49.4212,-18.6649,1023.31
210320,0.425634,9.82305,-0.0669536,1.47,-2.73,0.28,22.0075,-49.6679,-18.6649,1023.32
210326,0.439981,9.83261,-0.0908656,1.82,-2.66,0.42,21.252,-49.9763,-17.5567,1023.32
210332,0.392157,9.83261,-0.0860832,1.68,-3.08,-0.07,21.8913,-49.637,-18.2068,1023.34
210338,0.444763,9.84218,-0.0813008,1.61,-2.52,0.07,20.8743,-49.6987,-18.9604,1023.34
210344,0.416069,9.86609,-0.0573888,1.12,-2.1,0.42,21.3101,-50.2847,-17.6897,1023.32
210350,0.430416,9.83261,-0.0813008,1.4,-2.52,0.07,22.0366,-50.6856,-18.6206,1023.32
210356,0.411286,9.79436,-0.0860832,1.26,-2.59,0.14,21.2811,-49.5137,-19.3742,1023.33
210362,0.401722,9.81827,-0.0430416,1.4,-2.87,0.42,21.5717,-50.5622,-18.3842,1023.33
210368,0.449546,9.80392,-0.0621712,1.54,-2.31,0.07,21.5426,-50.5314,-18.591,1023.31
210374,0.420851,9.8087,-0.105213,1.75,-2.24,0.42,20.6418,-49.6679,-19.3446,1023.31
210380,0.430416,9.82305,-0.105213,1.75,-2.52,0.14,22.0075,-50.0071,-19.2708,1023.31
210386,0.411286,9.83261,-0.105213,1.19,-2.66,0.07,22.5305,-50.9631,-18.3103,1023.31
210392,0.406504,9.85174,-0.10043,1.47,-2.31,0.07,21.6007,-50.5005,-17.7931,1023.31
210398,0.425634,9.81827,-0.10043,1.54,-1.96,0,21.6879,-49.3595,-18.3398,1023.3
210404,0.416069,9.85653,-0.10043,1.33,-2.59,-0.07,21.5717,-50.1305,-18.7979,1023.3
210410,0.392157,9.82305,-0.0908656,1.54,-2.24,-0.14,21.252,-50.5005,-17.7192,1023.34
210416,0.416069,9.8374,-0.0860832,1.4,-2.45,-0.14,20.8452,-50.0379,-18.5467,1023.34
210422,0.430416,9.83261,-0.0765184,1.54,-1.89,0.28,21.0486,-49.2361,-18.9752,1023.33
210428,0.411286,9.84218,-0.0813008,1.47,-2.03,-0.21,21.8913,-50.6547,-18.724,1023.33
210434,0.425634,9.82305,-0.11956,1.05,-2.31,0.56,21.8622,-49.7604,-17.7636,1023.33
210440,0.425634,9.8087,-0.0860832,1.4,-2.03,0.35,21.1649,-50.223,-18.9752,1023.3
210446,0.406504,9.79436,-0.0526064,1.33,-2.24,0,21.746,-49.452,-16.5667,1023.3
210452,0.37781,9.79914,-0.023912,1.4,-2.31,-0.07,21.6298,-50.1613,-17.7045,1023.34
210458,0.35868,9.78001,0.0813008,2.17,-3.01,0.07,22.1237,-49.8529,-19.2412,1023.34
210464,0.583453,9.96174,-0.353898,1.19,-2.03,-0.21,21.8622,-49.8529,-18.458,1023.33
210470,0.435198,9.86609,-0.153037,0.28,-1.33,-0.63,21.9494,-50.5005,-17.7636,1023.33
210476,0.392157,9.70827,0.0526064,1.05,-2.1,-0.21,21.9785,-50.0996,-17.6306,1023.32
210482,0.373027,9.86609,-0.0334768,1.05,-2.31,-0.56,21.6879,-50.0996,-18.6058,1023.32
210488,0.344333,9.85174,-0.0669536,0.98,-2.73,-0.63,22.4434,-50.6547,-18.2807,1023.32
210494,0.449546,9.79914,-0.0573888,1.47,-2.17,0,22.24,-50.0688,-17.5715,1023.32
210500,0.368245,9.87087,-0.0526064,1.4,-2.59,0.28,21.223,-49.9146,-18.0591,1023.32
210506,0.396939,9.8087,-0.0573888,0.98,-2.59,-0.21,21.8332,-50.223,-17.2168,1023.31
210512,0.406504,9.81827,-0.071736,1.75,-2.24,-0.14,22.1528,-50.3155,-17.7488,1023.31
210518,0.373027,9.84696,-0.10043,1.54,-2.38,-0.28,21.8622,-50.6547,-19.9505,1023.33
210524,0.392157,9.84218,-0.124342,1.33,-2.1,0.28,22.0366,-49.6987,-18.8422,1023.33
210530,0.344333,9.82305,-0.0191296,1.12,-2.38,0.56,21.4554,-50.2847,-17.6453,1023.33
210536,0.382592,9.76566,-0.0334768,1.96,-2.59,0.07,21.3683,-50.0688,-18.6058,1023.33
210542,0.420851,9.89479,-0.162602,1.47,-2.31,0.07,21.4554,-50.3772,-18.5319,1023.31
210548,0.37781,9.83261,-0.105213,1.4,-2.45,0.21,21.4845,-50.7473,-18.1034,1023.31
210554,0.396939,9.74653,0,1.75,-2.59,-0.07,22.0366,-50.3463,-19.0639,1023.31
210560,0.463893,9.86131,-0.129125,1.68,-2.38,0.14,21.3973,-49.8837,-18.7684,1023.32
210566,0.406504,9.83261,-0.047824,1.19,-2.17,0.28,21.2811,-50.8706,-17.2612,1023.32
210572,0.37781,9.80392,0.0143472,1.82,-2.94,-0.14,21.5717,-50.5005,-16.7292,1023.31
210578,0.435198,9.85174,-0.157819,1.12,-2.59,0.56,21.5717,-49.3286,-18.4285,1023.31
210584,0.406504,9.8374,-0.0573888,1.26,-2.52,0.28,21.4554,-50.3155,-17.8522,1023.33
210590,0.416069,9.78957,-0.0334768,2.03,-3.08,0.28,21.7169,-50.2538,-16.5814,1023.33
210596,0.420851,9.86609,-0.124342,1.33,-2.45,-0.14,20.9905,-50.2538,-18.3398,1023.34
210602,0.439981,9.89957,-0.124342,1.4,-2.45,0,22.0947,-49.5137,-19.5367,1023.34
210608,0.373027,9.81827,0.0095648,1.26,-2.66,0.56,21.252,-50.3772,-18.2807,1023.34
210614,0.406504,9.79436,-0.0669536,1.75,-2.45,0.28,21.3973,-50.0688,-17.8227,1023.33
210620,0.349115,9.80392,-0.0669536,1.61,-2.73,0,21.0196,-49.5753,-19.5367,1023.33
210626,0.411286,9.80392,-0.0526064,1.4,-2.73,0.42,22.0075,-50.994,-18.9309,1023.34
210632,0.392157,9.82783,-0.0669536,1.82,-2.94,0.21,22.5305,-49.9763,-18.1921,1023.34
210638,0.411286,9.86131,-0.0669536,1.96,-3.01,0.56,21.4264,-49.6062,-19.4924,1023.31
210644,0.382592,9.8374,-0.0526064,1.82,-2.66,0.49,22.0947,-50.1305,-18.1182,1023.31
210650,0.35868,9.81349,-0.0526064,1.68,-2.8,0.63,22.5015,-50.0688,-17.5715,1023.31
210656,0.401722,9.81349,-0.0526064,1.82,-2.52,0.63,21.0777,-49.3286,-18.2364,1023.31
210662,0.37781,9.84218,-0.0573888,1.54,-2.59,0.49,21.4554,-49.3903,-17.2612,1023.31
210668,0.396939,9.83261,-0.0526064,1.54,-2.66,0.56,21.223,-50.4389,-16.2859,1023.33
210674,0.387374,9.81827,-0.0573888,1.47,-2.66,0.28,21.5135,-49.2361,-18.5172,1023.33
210680,0.416069,9.85174,-0.095648,1.61,-2.8,-0.14,20.8162,-49.5753,-18.3694,1023.34
210686,0.449546,9.85653,-0.109995,1.61,-2.94,0.14,20.9905,-50.4697,-17.5862,1023.34
210692,0.425634,9.87087,-0.0813008,1.26,-2.73,0.35,21.5717,-50.7164,-17.4976,1023.33
210698,0.416069,9.85174,-0.109995,1.26,-2.73,0.21,21.252,-49.5137,-19.1821,1023.33
210704,0.392157,9.79436,-0.0382592,1.26,-2.31,0.56,21.6298,-49.5753,-18.0148,1023.32
210710,0.406504,9.79436,-0.0334768,1.61,-2.66,0.21,22.0366,-50.9015,-17.867,1023.32
210716,0.454328,9.84696,-0.105213,1.4,-2.38,0.35,21.5717,-50.0071,-17.2316,1023.31
210722,0.353898,9.80392,-0.0286944,1.4,-3.01,0.28,20.9324,-50.6547,-17.4237,1023.31
210728,0.387374,9.83261,-0.071736,1.4,-2.66,0.28,21.6588,-49.9763,-17.867,1023.31
210734,0.435198,9.83261,-0.0669536,1.4,-2.24,0,21.9785,-50.2538,-18.1182,1023.34
210740,0.406504,9.8374,-0.0143472,1.54,-2.17,0.07,21.252,-49.6679,-18.9161,1023.34
210746,0.463893,9.81349,-0.0908656,1.26,-2.38,0.56,22.0947,-50.2847,-18.0148,1023.33
210752,0.363462,9.84696,-0.0430416,1.33,-2.59,0,22.2109,-49.8221,-18.0591,1023.33
210758,0.406504,9.84218,-0.0430416,1.12,-2.66,0.07,20.9034,-49.3903,-18.5024,1023.33
210764,0.368245,9.80392,-0.0430416,1.89,-2.87,0.63,22.0656,-49.6987,-18.1625,1023.33
210770,0.363462,9.86609,-0.0430416,1.4,-2.66,0.42,22.6468,-50.1613,-17.734,1023.33
210776,0.387374,9.82783,-0.0860832,1.33,-2.52,-0.35,21.9785,-49.3903,-18.7684,1023.33
210782,0.406504,9.79914,-0.0621712,2.03,-2.87,0.49,22.2981,-50.223,-17.8374,1023.33
210788,0.387374,9.82783,-0.0143472,1.89,-2.73,-0.21,21.4264,-49.8837,-17.3941,1023.31
210794,0.425634,9.82783,-0.0813008,2.03,-3.01,0.56,21.8041,-50.2538,-17.468,1023.31
210800,0.521282,9.89479,-0.277379,1.12,-2.17,-0.14,22.0656,-49.3903,-18.591,1023.29
210806,0.329986,9.79914,0.0382592,0.84,-2.31,0.07,20.9905,-50.1305,-17.5567,1023.29
210812,0.392157,9.7561,0.047824,2.1,-2.8,0.42,21.3973,-49.8529,-17.9113,1023.33
210818,0.444763,9.89479,-0.129125,1.33,-2.17,-0.14,20.8452,-48.8969,-18.8718,1023.33
210824,0.382592,9.84218,-0.0191296,1.33,-2.59,-0.07,21.1649,-50.1921,-17.9704,1023.3
210830,0.430416,9.83261,-0.0813008,1.4,-1.89,0.14,21.4845,-50.4697,-18.5615,1023.3
210836,0.401722,9.86131,-0.0908656,1.05,-2.1,0.42,21.7751,-49.2053,-17.6453,1023.3
210842,0.411286,9.80392,-0.0526064,1.33,-2.24,0.07,21.3101,-50.3772,-19.1673,1023.35
210848,0.411286,9.81349,-0.0813008,1.61,-2.45,-0.07,21.9785,-50.5622,-17.7488,1023.35
210854,0.425634,9.83261,-0.10043,1.47,-2.38,-0.42,21.5135,-50.1921,-18.4728,1023.34
210860,0.444763,9.8374,-0.0669536,1.12,-2.24,0.14,21.3973,-49.3903,-19.0491,1023.34
210866,0.368245,9.86609,-0.0621712,1.19,-2.73,0.07,21.9785,-49.9763,-16.9952,1023.3
210872,0.425634,9.80392,-0.0908656,1.82,-2.52,-0.14,20.9324,-50.1921,-17.2907,1023.3
210878,0.37781,9.82305,-0.0526064,1.4,-2.8,0,21.3973,-50.223,-18.7388,1023.33
210884,0.435198,9.78957,-0.0908656,1.05,-2.31,0,21.6588,-49.8221,-18.133,1023.33
210890,0.396939,9.80392,-0.0813008,1.4,-2.1,0.49,21.1649,-50.1921,-16.8326,1023.31
210896,0.349115,9.78479,-0.023912,1.82,-2.59,0.14,21.252,-49.7912,-18.724,1023.31
210902,0.435198,9.82783,-0.0860832,1.96,-2.52,-0.21,21.2811,-50.1921,-18.4137,1023.31
210908,0.363462,9.83261,-0.0908656,1.19,-2.31,0.49,20.9615,-50.8398,-17.734,1023.3
210914,0.435198,9.78957,-0.0621712,1.33,-2.38,0.14,21.0196,-50.0379,-17.9556,1023.3
210920,0.396939,9.82783,-0.0669536,1.4,-2.87,0,20.3222,-49.7912,-18.5467,1023.32
210926,0.401722,9.81827,-0.0860832,1.75,-3.08,0.07,20.4966,-49.9146,-18.0591,1023.32
210932,0.425634,9.83261,-0.0860832,1.4,-2.17,0,21.0486,-50.223,-18.4137,1023.3
210938,0.387374,9.79436,-0.023912,1.54,-2.66,0.42,20.9905,-49.637,-19.2708,1023.3
210944,0.396939,9.8087,-0.0526064,1.96,-2.8,0,21.9203,-50.223,-17.8079,1023.31
210950,0.416069,9.80392,-0.071736,1.61,-2.66,0.21,21.3683,-50.3463,-17.3646,1023.31
210956,0.401722,9.81349,-0.0430416,1.89,-2.8,-0.21,20.7871,-50.3155,-18.3398,1023.31
210962,0.387374,9.86131,-0.11956,1.68,-2.8,0.49,21.4554,-50.8398,-18.8718,1023.29
210968,0.411286,9.85653,-0.0526064,1.4,-2.73,0,21.252,-50.223,-18.6797,1023.29
210974,0.420851,9.81827,-0.0430416,1.61,-2.59,-0.28,20.5837,-49.4828,-19.123,1023.29
210980,0.392157,9.82783,-0.0669536,1.61,-2.66,0.21,21.4845,-50.0379,-17.5271,1023.29
210986,0.387374,9.85174,-0.0526064,1.68,-2.31,0.63,21.3683,-50.1921,-17.8079,1023.32
210992,0.430416,9.89,-0.071736,1.54,-2.8,0.91,21.1939,-50.1305,-17.9261,1023.32
210998,0.416069,9.88044,-0.0765184,1.54,-2.24,0.28,20.9905,-49.4828,-20.0096,1023.3
211004,0.387374,9.8087,-0.0382592,1.47,-2.52,-0.21,20.8452,-50.3772,-18.4137,1023.3
211010,0.37781,9.82783,-0.0669536,1.75,-2.73,0.28,20.4966,-49.9763,-17.7192,1023.3
211016,0.396939,9.79914,-0.0621712,1.4,-2.59,0.42,20.9034,-49.5445,-18.0591,1023.31
211022,0.430416,9.8374,-0.0526064,1.68,-2.45,0.07,21.0486,-49.7604,-17.7045,1023.31
211028,0.401722,9.81349,-0.047824,1.68,-2.52,0.21,21.5717,-50.1921,-17.2316,1023.32
211034,0.373027,9.82305,-0.047824,1.82,-2.8,0.77,20.2641,-49.637,-18.7831,1023.32
211040,0.420851,9.84696,-0.0813008,1.61,-2.17,0.14,21.1067,-50.3155,-18.3103,1023.32
211046,0.430416,9.84696,-0.0908656,1.75,-2.31,0.28,21.1649,-49.7912,-17.6601,1023.32
211052,0.416069,9.8374,-0.0669536,1.75,-2.8,0.7,21.5135,-49.8529,-18.4137,1023.33
211058,0.449546,9.81827,-0.095648,1.26,-2.73,0.42,21.746,-48.9277,-18.0443,1023.33
211064,0.45911,9.84218,-0.071736,1.33,-2.52,0.21,21.3392,-49.9146,-18.857,1023.31
211070,0.363462,9.84218,-0.0430416,1.54,-2.31,0.07,21.8332,-49.9763,-18.4137,1023.31
211076,0.439981,9.81827,-0.0621712,1.4,-2.66,0.35,21.8041,-49.452,-19.0639,1023.31
211082,0.411286,9.82305,-0.0765184,1.75,-2.87,0,20.8743,-49.2053,-18.5615,1023.32
211088,0.430416,9.81827,-0.0813008,1.26,-2.38,0,21.1649,-49.9454,-16.9804,1023.32
211094,0.425634,9.81349,-0.0908656,1.75,-2.73,0.21,21.4264,-49.7295,-18.5319,1023.31
211100,0.392157,9.81827,-0.0382592,1.68,-2.66,0.07,21.3973,-49.5445,-18.6354,1023.31
211106,0.416069,9.84696,-0.0430416,1.33,-2.31,-0.21,21.223,-50.0688,-17.335,1023.35
211112,0.411286,9.82783,-0.0669536,1.47,-2.59,0,21.6007,-48.9586,-17.734,1023.35
211118,0.387374,9.81827,-0.0334768,1.47,-2.73,0.56,20.9905,-49.3286,-18.5319,1023.35
211124,0.411286,9.83261,-0.071736,1.54,-2.24,0.21,21.0777,-49.2978,-17.6601,1023.35
211130,0.382592,9.80392,-0.0382592,1.61,-2.38,0.56,21.8913,-49.7912,-16.7588,1023.35
211136,0.416069,9.81349,-0.0334768,1.4,-2.59,0,21.5717,-49.3286,-17.3794,1023.3
211142,0.425634,9.80392,-0.0526064,1.82,-2.8,0.56,20.6418,-49.8221,-18.3694,1023.3
211148,0.416069,9.82783,-0.0669536,1.75,-2.66,0.42,21.8622,-49.637,-17.8965,1023.31
211154,0.392157,9.85653,-0.0860832,1.68,-2.52,0.21,21.0196,-49.8529,-18.2955,1023.31
211160,0.411286,9.83261,-0.071736,1.61,-2.17,0.49,21.2811,-49.2669,-18.5763,1023.34
211166,0.416069,9.79436,-0.0382592,1.89,-2.8,0.35,20.6128,-50.5314,-18.1477,1023.34
211172,0.387374,9.83261,-0.0813008,1.89,-2.59,0.21,20.2932,-49.8529,-17.7783,1023.33
211178,0.430416,9.8087,-0.0382592,1.68,-3.01,0.63,20.2932,-51.2099,-19.1969,1023.33
211184,0.401722,9.84696,-0.071736,1.75,-2.59,0.28,20.6709,-50.6547,-17.2907,1023.33
211190,0.382592,9.81349,-0.023912,1.68,-2.59,0.42,20.5547,-50.7781,-18.9309,1023.28
211196,0.401722,9.83261,-0.071736,1.89,-3.22,0.42,21.1067,-49.5137,-19.0196,1023.28
211202,0.401722,9.82783,-0.0621712,1.82,-2.87,0.21,20.9034,-50.0071,-18.6649,1023.34
211208,0.45911,9.84218,-0.071736,1.75,-2.8,0.07,21.3392,-50.8398,-18.3694,1023.34
211214,0.420851,9.84696,-0.0813008,1.68,-2.73,0.35,20.729,-49.3595,-19.0934,1023.29
211220,0.430416,9.85653,-0.10043,1.54,-2.66,-0.07,21.3392,-49.9763,-18.6945,1023.29
211226,0.420851,9.81827,-0.114778,1.54,-2.03,0.14,21.3683,-50.0996,-18.0443,1023.28
211232,0.401722,9.8374,-0.095648,1.4,-2.38,0.07,21.4264,-50.0688,-17.9852,1023.28
211238,0.401722,9.81349,-0.0621712,1.54,-2.87,0.21,20.9905,-49.5753,-20.1721,1023.33
211244,0.387374,9.80392,-0.0430416,1.89,-2.45,-0.14,21.8913,-50.3155,-17.6749,1023.33
211250,0.416069,9.86609,-0.0860832,1.61,-2.66,0,21.4554,-50.2847,-17.8374,1023.33
211256,0.406504,9.85174,-0.133907,1.54,-2.66,0.21,21.7169,-49.5445,-18.3398,1023.33
211262,0.368245,9.84218,-0.023912,1.68,-2.66,0.35,21.0486,-49.5753,-18.6354,1023.33
211268,0.392157,9.81827,-0.0382592,1.75,-2.17,0.35,20.9905,-49.9146,-17.8227,1023.31
211274,0.401722,9.85653,-0.047824,1.54,-2.66,0.07,21.4845,-50.7473,-18.6206,1023.31
211280,0.373027,9.82305,-0.0573888,1.89,-2.8,-0.42,21.8913,-49.4212,-19.6697,1023.3
211286,0.416069,9.82783,-0.0621712,1.61,-2.45,0.56,21.8622,-50.408,-19.7584,1023.3
211292,0.411286,9.85174,-0.071736,1.61,-2.94,0.28,21.8622,-50.5005,-19.8175,1023.29
211298,0.425634,9.81827,-0.047824,1.82,-2.8,0.35,21.8913,-49.6062,-19.2264,1023.29
211304,0.435198,9.82783,-0.071736,1.4,-2.31,0.56,21.5717,-49.8529,-18.1182,1023.29
211310,0.406504,9.83261,-0.0573888,1.47,-2.24,0.49,21.6879,-50.5931,-17.7488,1023.28
211316,0.416069,9.82783,-0.0573888,1.68,-2.73,0.21,21.6879,-50.223,-19.2412,1023.28
211322,0.45911,9.84696,-0.0430416,1.82,-2.87,-0.14,20.729,-50.2538,-17.4976,1023.33
211328,0.420851,9.85174,-0.071736,1.26,-2.66,0.28,21.0777,-50.4697,-17.6158,1023.33
211334,0.425634,9.81349,-0.047824,1.68,-2.73,0,20.6709,-49.8221,-19.0787,1023.31
211340,0.425634,9.79914,-0.0765184,1.33,-2.73,-0.07,21.4554,-49.4212,-18.3546,1023.31
211346,0.420851,9.86131,-0.071736,1.33,-2.52,0.07,20.3513,-50.3155,-18.5319,1023.3
211352,0.444763,9.77523,0.0095648,1.68,-2.59,0,21.223,-49.6679,-18.0886,1023.3
211358,0.387374,9.90435,-0.133907,1.4,-2.45,0,20.6418,-49.9146,-18.3842,1023.3
211364,0.435198,9.82305,-0.0143472,1.61,-3.01,-0.63,20.8743,-50.408,-18.2216,1023.34
211370,0.416069,9.81827,-0.0813008,1.33,-2.59,0.07,21.1067,-50.1921,-16.9952,1023.34
211376,0.368245,9.78479,-0.0047824,1.54,-2.59,0.14,20.9324,-49.3903,-18.6058,1023.34
211382,0.435198,9.84696,-0.0669536,1.75,-2.8,-0.07,20.0898,-51.1173,-20.0982,1023.34
211388,0.439981,9.86609,-0.10043,1.68,-2.59,-0.35,21.252,-50.5005,-17.2759,1023.31
211394,0.430416,9.84696,-0.0286944,1.19,-2.17,0.07,21.252,-49.2978,-18.458,1023.31
211400,0.329986,9.70827,0.114778,1.89,-3.08,0.14,21.4264,-50.0688,-16.4928,1023.34
211406,0.425634,9.82305,-0.105213,2.17,-2.87,0.28,21.3101,-50.223,-16.4041,1023.34
211412,0.396939,9.89,-0.205643,1.12,-2.52,0,21.0777,-49.6679,-17.468,1023.34
211418,0.329986,9.78001,0.0526064,1.47,-3.08,0.49,21.3683,-49.2669,-17.5271,1023.31
211424,0.463893,9.84218,-0.153037,2.17,-2.59,0.07,21.8913,-50.3463,-17.6453,1023.31
211430,0.406504,9.91392,-0.133907,1.05,-2.8,0.21,21.5426,-50.0071,-17.6897,1023.29
211436,0.420851,9.74175,0,1.68,-2.94,0,21.5426,-49.5445,-17.9409,1023.29
211442,0.444763,9.85653,-0.114778,2.03,-2.52,0,21.6298,-49.8529,-17.3794,1023.31
211448,0.45911,9.87087,-0.105213,1.33,-2.66,0.07,21.252,-50.5314,-17.2759,1023.31
211454,0.463893,9.80392,-0.0621712,1.75,-2.8,0.07,21.8913,-48.9894,-17.4976,1023.38
211460,0.392157,9.84696,-0.0860832,1.33,-2.59,-0.28,20.8162,-49.8837,-18.3546,1023.38
211466,0.396939,9.81827,-0.0813008,1.89,-2.66,-0.07,20.9905,-50.223,-18.5319,1023.34
211472,0.416069,9.8087,-0.0526064,1.33,-2.24,0.14,21.5135,-49.6987,-17.867,1023.34
211478,0.416069,9.82783,-0.0621712,1.61,-2.66,-0.42,21.4264,-49.0202,-19.7436,1023.34
211484,0.416069,9.81827,-0.0573888,1.54,-2.73,-0.28,21.3683,-51.4566,-19.8027,1023.34
211490,0.392157,9.83261,-0.0573888,1.26,-2.38,0.07,21.3101,-50.223,-17.5862,1023.34
211496,0.401722,9.81349,-0.0813008,1.26,-2.52,-0.14,21.0777,-49.4212,-18.3251,1023.32
211502,0.401722,9.78957,-0.047824,1.54,-2.8,0.14,21.8913,-50.5314,-18.5615,1023.32
211508,0.392157,9.82305,-0.047824,1.54,-2.38,0.28,21.746,-50.5622,-18.2364,1023.28
211514,0.416069,9.85174,-0.0669536,1.12,-2.66,-0.14,21.5717,-50.0996,-18.0739,1023.28
211520,0.387374,9.80392,-0.0813008,1.54,-2.8,0,21.6588,-50.0071,-19.0639,1023.32
211526,0.387374,9.83261,-0.0669536,1.4,-2.52,0,21.6879,-50.0071,-17.8227,1023.32
211532,0.430416,9.84696,-0.0908656,1.4,-2.1,0.28,21.3101,-50.1921,-17.2907,1023.32
211538,0.444763,9.82783,-0.0669536,1.19,-2.38,0.07,20.8743,-49.4212,-18.8275,1023.32
211544,0.392157,9.82783,-0.0573888,1.47,-2.59,0.14,20.9324,-50.6547,-17.734,1023.32
211550,0.425634,9.85653,-0.0813008,1.82,-2.17,0.07,21.6588,-49.3286,-18.1034,1023.33
211556,0.449546,9.87087,-0.143472,1.12,-2.38,-0.07,21.6298,-49.2669,-19.0491,1023.33
211562,0.420851,9.83261,-0.0860832,1.47,-2.59,-0.28,20.9615,-49.9454,-18.0886,1023.31
211568,0.439981,9.82783,-0.0765184,1.4,-2.1,-0.07,21.4264,-50.5622,-17.3646,1023.31
211574,0.37781,9.82305,-0.0860832,1.4,-1.96,-0.14,21.4554,-49.6987,-19.2412,1023.31
211580,0.416069,9.84696,-0.071736,1.12,-2.24,-0.21,21.252,-49.7604,-17.5715,1023.31
211586,0.37781,9.8374,-0.0621712,0.98,-2.03,-0.07,20.8743,-50.4697,-18.9013,1023.31
211592,0.349115,9.8374,-0.047824,1.47,-2.38,0.14,20.9324,-50.3155,-18.1625,1023.32
211598,0.37781,9.81827,-0.0526064,1.47,-2.1,-0.14,21.1649,-49.452,-18.7684,1023.32
211604,0.382592,9.82783,-0.0908656,1.26,-2.03,0.35,21.223,-48.7427,-19.1082,1023.3
211610,0.35868,9.82305,-0.0382592,1.4,-2.38,-0.14,21.5426,-49.9454,-17.1282,1023.3
211616,0.392157,9.81827,-0.0382592,1.54,-2.52,-0.21,21.0196,-50.2538,-19.3446,1023.31
211622,0.387374,9.82783,-0.0191296,1.33,-2.73,0,21.252,-49.9454,-18.1921,1023.31
211628,0.401722,9.8087,-0.0526064,1.82,-2.94,-0.07,21.6298,-50.0379,-17.2612,1023.31
211634,0.406504,9.84218,-0.0813008,1.12,-2.52,0.21,21.9203,-49.6062,-18.0591,1023.31
211640,0.401722,9.8374,-0.0430416,1.33,-2.31,0.21,22.0656,-49.9454,-19.1821,1023.32
211646,0.425634,9.8374,-0.0143472,1.4,-2.45,0.49,22.1237,-50.3772,-17.6897,1023.32
211652,0.382592,9.82783,-0.0908656,1.33,-2.59,0.14,21.6007,-49.8837,-18.2216,1023.32
211658,0.406504,9.78479,-0.071736,1.54,-2.8,-0.14,21.4845,-49.452,-18.5467,1023.34
211664,0.569106,9.94261,-0.162602,0.77,-2.17,0.14,21.5426,-50.5622,-18.9013,1023.34
211670,0.325203,9.76088,0.181731,1.4,-2.8,0,21.0486,-50.2847,-18.6797,1023.33
211676,0.516499,9.85653,-0.162602,1.89,-2.59,-0.21,22.24,-49.8221,-18.7536,1023.33
211682,0.420851,9.92348,-0.200861,1.12,-2.45,0,22.5596,-50.0379,-19.847,1023.33
211688,0.420851,9.79436,-0.0765184,1.05,-2.45,-0.35,22.3562,-50.1305,-18.4285,1023.33
211694,0.435198,9.81349,-0.0191296,1.47,-2.66,-0.56,21.6298,-49.3903,-18.6058,1023.35
211700,0.373027,9.85174,-0.0191296,1.26,-2.87,0.14,21.6007,-49.5445,-19.6254,1023.35
211706,0.444763,9.78001,-0.0908656,1.68,-2.38,-0.28,21.6298,-50.408,-18.0443,1023.35
211712,0.363462,9.84696,-0.0669536,1.26,-2.1,-0.63,21.9494,-50.3155,-17.2464,1023.31
211718,0.396939,9.8087,-0.0765184,1.26,-2.17,-0.14,22.24,-49.7295,-19.7584,1023.31
211724,0.349115,9.84218,-0.0382592,1.75,-2.73,0,21.0777,-50.0071,-17.9704,1023.3
211730,0.382592,9.81827,-0.0286944,1.47,-2.52,-0.07,21.7169,-49.8221,-19.0196,1023.3
211736,0.401722,9.8374,-0.0430416,1.19,-2.24,-0.07,21.223,-49.0202,-19.0196,1023.31
211742,0.373027,9.84218,-0.0573888,1.33,-2.24,-0.28,21.8041,-50.0071,-18.2068,1023.31
211748,0.392157,9.82305,-0.0621712,1.4,-2.52,0.14,22.4724,-49.7604,-17.601,1023.32
211754,0.363462,9.83261,-0.0382592,1.68,-2.17,0.21,21.6879,-49.2669,-19.8175,1023.32
211760,0.416069,9.79436,0,1.54,-2.59,-0.42,21.8332,-49.3903,-18.4728,1023.32
211766,0.406504,9.80392,-0.071736,1.89,-2.45,0.42,21.9203,-49.9146,-18.2068,1023.32
211772,0.392157,9.82783,-0.124342,1.05,-2.1,0.49,21.4554,-49.5753,-18.5172,1023.32
211778,0.425634,9.78001,-0.0286944,1.33,-2.73,-0.28,21.2811,-49.1744,-18.3398,1023.3
211784,0.416069,9.88522,-0.0860832,1.61,-2.45,-0.35,21.6007,-49.4828,-17.6158,1023.3
211790,0.396939,9.87566,-0.0813008,1.26,-2.45,0.49,21.3101,-49.452,-16.9656,1023.32
211796,0.430416,9.8374,-0.0143472,1.4,-1.54,-0.84,21.252,-49.1744,-19.0934,1023.32
211802,0.425634,9.84218,-0.109995,1.54,-1.89,-0.42,21.3683,-49.2053,-16.9213,1023.31
211808,0.406504,9.82783,-0.071736,0.98,-2.17,-0.21,21.7751,-49.3595,-18.1773,1023.31
211814,0.353898,9.77523,0.0143472,1.47,-2.03,-0.14,21.8913,-49.6679,-18.9161,1023.32
211820,0.368245,9.82305,-0.0286944,1.12,-1.96,-0.35,20.8743,-49.637,-18.4876,1023.32
211826,0.363462,9.80392,-0.0286944,1.26,-2.45,0.07,21.3392,-49.8837,-17.5715,1023.32
211832,0.37781,9.81349,-0.0526064,1.26,-2.73,0.21,21.4845,-49.8837,-18.6058,1023.31
211838,0.368245,9.82305,-0.0382592,1.61,-2.1,0.42,21.8913,-49.7295,-19.389,1023.31
211844,0.33955,9.83261,-0.0047824,1.54,-2.03,0.49,21.4554,-49.9146,-19.3299,1023.31
211850,0.37781,9.8087,-0.071736,1.82,-2.52,0,21.1067,-50.3463,-19.3594,1023.31
211856,0.37781,9.80392,-0.0382592,1.54,-2.8,0.21,20.9905,-49.2669,-18.724,1023.33
211862,0.430416,9.81349,-0.0765184,1.4,-2.59,0.42,21.5426,-49.3286,-18.8127,1023.33
211868,0.392157,9.84696,-0.0191296,1.47,-2.45,0.35,21.3973,-50.5005,-17.7931,1023.29
211874,0.37781,9.84218,-0.0669536,1.47,-2.38,0.21,22.1528,-50.223,-19.4628,1023.29
211880,0.396939,9.85653,-0.0382592,1.4,-2.66,0.21,21.8041,-49.5137,-17.8079,1023.29
211886,0.411286,9.82305,-0.0573888,1.61,-2.59,0.42,21.746,-50.2538,-18.6206,1023.35
211892,0.430416,9.86609,-0.0526064,1.33,-2.66,-0.28,22.0366,-49.8221,-18.266,1023.35
211898,0.435198,9.87087,-0.124342,1.12,-2.66,-0.56,20.4094,-49.8837,-19.2855,1023.32
211904,0.406504,9.82305,-0.0860832,1.4,-2.45,0.14,22.0656,-49.2978,-17.8079,1023.32
211910,0.387374,9.79914,-0.0095648,1.33,-1.96,-0.07,21.6298,-49.7912,-18.4433,1023.3
211916,0.334768,9.80392,0.0143472,1.54,-2.24,-0.35,22.0366,-49.1744,-18.6354,1023.3
211922,0.387374,9.84218,-0.0765184,1.61,-2.45,-0.14,21.7751,-49.2361,-18,1023.31
211928,0.349115,9.84696,-0.0430416,1.4,-2.38,0.42,21.5135,-49.9454,-18.6058,1023.31
211934,0.396939,9.78479,0.0430416,1.4,-2.52,0.77,21.9203,-48.9277,-17.9113,1023.31
211940,0.420851,9.77044,-0.071736,2.38,-2.8,0.07,21.5426,-49.8529,-18.8866,1023.29
211946,0.37781,9.9187,-0.0813008,1.82,-2.8,0.07,21.6007,-50.1305,-18.133,1023.29
211952,0.435198,9.82783,-0.0908656,1.54,-2.8,0.42,21.6007,-49.7295,-18.133,1023.3
211958,0.373027,9.82783,-0.0430416,1.68,-2.52,0.35,22.0656,-49.4212,-18.6354,1023.3
211964,0.396939,9.81349,-0.071736,1.47,-3.22,0.14,21.9494,-49.637,-17.4237,1023.34
211970,0.396939,9.82783,-0.0430416,1.75,-2.87,0.7,22.3852,-49.8221,-17.2907,1023.34
211976,0.37781,9.84696,-0.0669536,1.68,-2.45,0.7,21.223,-49.6062,-18.6354,1023.3
211982,0.406504,9.83261,-0.0908656,1.4,-2.59,0.35,21.5135,-49.7912,-17.9113,1023.3
211988,0.392157,9.82305,-0.047824,1.54,-2.45,0.63,22.3271,-50.5005,-19.2412,1023.33
211994,0.411286,9.86131,-0.0908656,1.47,-2.59,0.49,21.4264,-49.4828,-18.3398,1023.33
212000,0.430416,9.84218,-0.11956,1.47,-2.17,0.42,22.1818,-49.5137,-19.1673,1023.33
212006,0.430416,9.87566,-0.105213,0.63,-1.54,-0.21,21.5717,-50.408,-18.0443,1023.33
212012,0.306074,9.72262,0.191296,1.75,-2.52,0.56,22.0366,-49.3903,-17.9409,1023.33
212018,0.382592,9.76566,-0.0047824,2.1,-2.87,0.21,21.9203,-49.6987,-18.6945,1023.31
212024,0.401722,9.95696,-0.196078,1.54,-2.8,0.42,21.746,-50.1921,-17.6601,1023.31
212030,0.401722,9.81349,-0.0573888,1.26,-2.59,0.35,21.746,-49.8837,-18.3842,1023.31
212036,0.368245,9.8087,0,1.82,-2.8,0.28,21.8913,-49.7604,-18.8866,1023.31
212042,0.35868,9.82305,-0.0334768,1.4,-3.15,0.42,21.223,-50.4389,-18.3251,1023.34
212048,0.401722,9.78479,-0.0334768,1.75,-2.94,0.42,21.8622,-50.0071,-17.7488,1023.34
212054,0.387374,9.85653,-0.0765184,1.61,-3.15,0.77,20.9324,-50.0071,-18.857,1023.34
212060,0.401722,9.81827,-0.0860832,1.82,-2.59,0.56,21.9785,-49.6679,-18.7979,1023.33
212066,0.373027,9.81349,-0.047824,1.26,-2.87,0.35,21.8041,-49.8221,-18.99,1023.33
212072,0.37781,9.8374,-0.0334768,1.54,-2.52,0.49,21.9203,-50.3155,-18.5319,1023.32
212078,0.396939,9.8374,-0.10043,1.61,-2.87,-0.07,21.9494,-49.8837,-19.4776,1023.32
212084,0.411286,9.85653,-0.071736,1.54,-3.01,-0.14,22.6177,-50.4697,-18.2807,1023.37
212090,0.420851,9.87566,-0.0908656,1.26,-2.45,0.21,21.9203,-50.3155,-18.2807,1023.37
212096,0.444763,9.85174,-0.0573888,1.4,-2.52,0.14,21.3973,-49.7604,-18.2807,1023.35
212102,0.35868,9.84218,-0.0813008,1.4,-2.87,0.21,21.223,-50.3155,-19.3003,1023.35
212108,0.387374,9.84218,-0.0334768,1.68,-2.87,0,22.269,-50.1305,-18.6797,1023.35
212114,0.396939,9.82305,-0.0382592,1.26,-2.24,-0.07,22.2109,-49.6062,-18.4728,1023.33
212120,0.430416,9.8374,-0.0860832,1.4,-2.38,-0.07,21.6879,-49.8529,-19.3594,1023.33
212126,0.37781,9.82305,-0.0621712,1.68,-2.31,-0.14,21.7751,-50.223,-18.4137,1023.33
212132,0.401722,9.80392,-0.047824,1.33,-2.45,0,21.6588,-49.7295,-18.5172,1023.33
212138,0.33955,9.79914,-0.0334768,1.33,-2.45,-0.14,20.9905,-49.1436,-20.3938,1023.31
212144,0.363462,9.85653,-0.071736,1.47,-2.59,0,21.7751,-49.5445,-17.8079,1023.31
212150,0.368245,9.83261,-0.109995,1.82,-2.73,0.49,21.8913,-49.4212,-18.5024,1023.33
212156,0.373027,9.81827,-0.0334768,1.47,-2.8,0.14,21.1067,-49.7604,-19.6993,1023.33
212162,0.37781,9.83261,-0.0669536,1.89,-2.45,-0.28,21.746,-50.8398,-18.2216,1023.34
212168,0.368245,9.84696,-0.0382592,1.47,-2.66,0.35,22.0947,-49.9454,-18.7536,1023.34
212174,0.387374,9.82305,-0.0430416,1.75,-3.01,0.63,21.4264,-49.9146,-18.7536,1023.34
212180,0.382592,9.82783,-0.0621712,1.4,-2.38,0.42,22.0656,-49.5137,-19.1525,1023.33
212186,0.382592,9.81349,-0.0526064,1.47,-2.38,0.49,21.4845,-50.3772,-18.266,1023.33
212192,0.363462,9.84696,-0.0526064,1.82,-2.94,0.14,21.8332,-50.4389,-18.1773,1023.31
212198,0.416069,9.81349,-0.0621712,1.54,-2.8,0.14,21.7751,-48.7427,-19.1673,1023.31
212204,0.35868,9.8374,-0.0526064,1.47,-2.38,0.28,20.6418,-51.5491,-18.8866,1023.33
212210,0.430416,9.84218,-0.0908656,1.54,-2.73,0,21.4554,-49.452,-20.1573,1023.33
212216,0.396939,9.82783,-0.0765184,1.54,-2.87,0.35,21.6588,-50.1305,-19.8766,1023.34
212222,0.411286,9.8374,-0.0908656,1.61,-2.94,0.49,21.252,-48.8044,-19.0639,1023.34
212228,0.401722,9.78957,0,1.12,-2.52,0.28,21.8332,-49.6987,-17.2612,1023.34
212234,0.37781,9.83261,-0.0765184,1.75,-2.45,-0.21,21.6298,-49.4212,-19.2116,1023.31
212240,0.416069,9.8374,-0.0860832,1.54,-2.52,0.35,21.6879,-49.5137,-18.591,1023.31
212246,0.37781,9.81349,-0.0430416,1.4,-2.73,0.07,21.4845,-50.5622,-19.3151,1023.32
212252,0.382592,9.80392,-0.0382592,1.96,-2.45,0.28,21.5135,-50.1613,-19.5072,1023.32
212258,0.387374,9.8374,-0.0765184,1.47,-2.52,0.42,21.5426,-49.9454,-19.1821,1023.32
212264,0.411286,9.81827,-0.0621712,1.54,-2.73,0.56,21.8332,-50.5931,-18.4137,1023.32
212270,0.387374,9.81349,-0.0621712,1.75,-2.59,0.49,21.7751,-50.5005,-17.7192,1023.32
212276,0.406504,9.8087,-0.0573888,1.68,-2.94,0,21.6588,-49.1128,-19.7879,1023.32
212282,0.411286,9.8087,-0.0286944,1.96,-2.87,0.21,21.7751,-50.0071,-19.0491,1023.32
212288,0.392157,9.86131,-0.047824,1.61,-2.24,0.63,21.9203,-50.0688,-17.7931,1023.31
212294,0.401722,9.84696,-0.0526064,1.54,-2.8,0.14,21.3973,-49.6062,-18.591,1023.31
212300,0.396939,9.81827,-0.023912,1.68,-2.45,-0.07,21.1067,-49.4828,-19.389,1023.31
212306,0.406504,9.80392,-0.0621712,2.03,-2.87,0.28,21.3101,-50.5931,-19.9357,1023.31
212312,0.392157,9.81349,-0.0669536,1.19,-2.59,0.84,21.4554,-49.7604,-19.1969,1023.33
212318,0.387374,9.78957,-0.0334768,1.75,-2.8,0.14,21.7169,-49.2978,-19.0934,1023.33
212324,0.416069,9.81349,-0.0669536,1.4,-2.66,0.07,22.2109,-50.3463,-19.0048,1023.31
212330,0.396939,9.8374,-0.0908656,1.68,-2.59,0.42,21.9785,-49.5753,-18.2216,1023.31
212336,0.449546,9.84218,-0.0573888,1.19,-2.52,0,21.1067,-49.7604,-18.9457,1023.3
212342,0.444763,9.84696,-0.0765184,1.4,-2.59,0.14,21.5426,-50.4697,-19.1082,1023.3
212348,0.425634,9.81349,-0.071736,1.4,-2.59,-0.21,21.1649,-50.2538,-18.0443,1023.3
212354,0.387374,9.85653,-0.095648,1.26,-2.45,-0.14,21.223,-49.1744,-19.1082,1023.26
212360,0.406504,9.78479,-0.023912,1.33,-2.31,0.7,20.8452,-49.7295,-18.8866,1023.26
212366,0.329986,9.80392,0.0334768,1.61,-2.87,0,21.9494,-50.6856,-17.3203,1023.31
212372,0.454328,9.86609,-0.153037,1.68,-2.59,0.21,21.8913,-49.6062,-18.7684,1023.31
212378,0.392157,9.88522,-0.11956,1.19,-2.59,0.14,21.5426,-49.5137,-18.266,1023.35
212384,0.349115,9.78957,0.0334768,1.33,-2.59,0.21,21.6588,-49.6987,-18.857,1023.35
212390,0.353898,9.81827,-0.0334768,1.75,-2.94,0.07,22.1528,-50.0996,-19.0196,1023.35
212396,0.368245,9.85653,-0.124342,1.4,-2.8,0.49,21.252,-49.8221,-19.4776,1023.35
212402,0.425634,9.82305,-0.095648,1.4,-2.52,-0.07,21.746,-50.1613,-18.2955,1023.35
212408,0.392157,9.84218,-0.105213,1.33,-2.31,0.84,21.8913,-50.408,-18.4433,1023.3
212414,0.406504,9.79436,-0.0382592,1.47,-2.66,0.07,21.0486,-49.9763,-19.1673,1023.3
212420,0.416069,9.78957,-0.047824,1.89,-2.38,0.14,21.0196,-49.9763,-18.7831,1023.32
212426,0.382592,9.85174,-0.0621712,1.19,-2.66,0.7,21.6588,-50.0996,-18.3842,1023.32
212432,0.396939,9.82783,-0.095648,1.54,-2.45,0.56,21.8041,-49.6987,-18.7092,1023.36
212438,0.382592,9.81349,-0.0621712,1.4,-2.52,0.35,21.9203,-50.0379,-18.5763,1023.36
212444,0.396939,9.83261,-0.095648,1.19,-2.66,0.84,21.5717,-49.9454,-18.3694,1023.3
212450,0.382592,9.81827,-0.0860832,1.47,-3.01,0.56,21.6588,-50.2538,-17.5419,1023.3
212456,0.420851,9.81349,-0.0334768,1.47,-2.59,0.21,21.4845,-50.0379,-19.256,1023.3
212462,0.411286,9.81827,-0.0526064,1.96,-2.38,0.42,21.5717,-49.7912,-18.5763,1023.37
212468,0.396939,9.8374,-0.105213,0.98,-2.17,0.35,21.6007,-50.3463,-17.2759,1023.37
212474,0.401722,9.82783,-0.071736,1.75,-2.87,-0.07,21.5135,-49.3595,-19.847,1023.34
212480,0.368245,9.81349,-0.0573888,1.4,-2.94,0.35,21.3973,-50.3155,-18.9013,1023.34
212486,0.401722,9.80392,-0.0573888,1.75,-2.45,0.49,21.5426,-49.8221,-17.0691,1023.34
212492,0.363462,9.8087,-0.0526064,1.68,-2.87,0.21,21.8913,-49.8837,-19.1082,1023.34
212498,0.396939,9.82305,-0.071736,1.75,-2.59,0.35,21.9494,-49.5445,-19.5811,1023.32
212504,0.387374,9.80392,-0.0430416,1.89,-3.01,0.49,21.746,-50.0688,-18.7536,1023.32
212510,0.401722,9.8087,-0.0573888,1.75,-3.22,0.35,21.252,-51.2099,-18.5024,1023.33
212516,0.368245,9.82305,-0.0430416,1.61,-3.01,0.63,21.0486,-49.8221,-18.4433,1023.33
212522,0.392157,9.84218,-0.0860832,1.68,-2.45,0.91,21.3973,-49.6679,-19.0491,1023.33
212528,0.425634,9.84696,-0.0334768,1.82,-2.87,0.56,22.0947,-50.223,-18.5467,1023.34
212534,0.463893,9.82783,-0.109995,1.54,-2.45,0.42,21.3973,-50.3463,-20.0391,1023.34
212540,0.406504,9.83261,-0.105213,1.54,-2.38,0.14,21.4264,-50.3463,-19.256,1023.32
212546,0.411286,9.83261,-0.0908656,1.75,-3.22,0.21,21.8622,-50.2847,-18.7831,1023.32
212552,0.444763,9.82305,-0.0621712,1.68,-2.73,0.63,21.5426,-49.5445,-18.458,1023.34
212558,0.392157,9.84696,-0.0860832,1.26,-2.38,0.14,21.6007,-49.6987,-18.8275,1023.34
212564,0.45911,9.86131,-0.10043,1.54,-2.38,-0.07,21.1067,-50.7473,-19.1525,1023.34
212570,0.401722,9.81349,-0.0908656,1.33,-2.94,0.14,21.8622,-50.3155,-18.1921,1023.34
212576,0.416069,9.85653,-0.047824,1.12,-2.31,0.49,21.7169,-49.3595,-20.3642,1023.34
212582,0.416069,9.8374,-0.0669536,1.26,-2.45,0.14,21.9203,-50.223,-18.6945,1023.32
212588,0.396939,9.82783,-0.0573888,1.61,-2.52,0.28,22.0366,-50.223,-18.4433,1023.32
212594,0.401722,9.81349,-0.0573888,1.12,-2.38,0.77,21.5135,-49.1128,-18.9604,1023.32
212600,0.406504,9.80392,-0.071736,1.61,-2.73,0,21.8622,-50.2847,-18.4728,1023.32
212606,0.396939,9.8374,-0.0813008,1.54,-2.52,0.07,21.1939,-50.3155,-17.0395,1023.33
212612,0.387374,9.78001,-0.0430416,1.47,-2.94,0.07,21.3973,-49.5137,-18.6501,1023.33
212618,0.406504,9.85174,-0.0573888,1.89,-2.66,0.7,21.223,-49.2669,-18.3989,1023.29
212624,0.382592,9.8374,-0.0765184,1.61,-2.66,0.49,21.5135,-49.452,-18.266,1023.29
212630,0.387374,9.79914,-0.0526064,1.68,-2.31,0.14,21.7169,-50.3463,-18.0148,1023.29
212636,0.430416,9.8087,-0.0813008,1.4,-3.08,0.28,21.9203,-49.4212,-19.2116,1023.31
212642,0.382592,9.82305,-0.0430416,1.75,-3.22,0.63,22.0075,-50.4389,-19.7879,1023.31
212648,0.392157,9.79436,-0.0669536,1.33,-2.59,0.63,21.9785,-50.0379,-18.6501,1023.33
212654,0.37781,9.86131,-0.047824,1.82,-3.01,0.21,21.8041,-49.4828,-19.1378,1023.33
212660,0.406504,9.84696,-0.0860832,1.68,-2.73,0.49,21.4554,-49.7912,-19.2264,1023.34
212666,0.416069,9.81827,-0.047824,1.54,-2.52,0.84,21.223,-49.9146,-18.5763,1023.34
212672,0.439981,9.8374,-0.0573888,1.75,-2.87,0.56,21.1067,-49.637,-19.1082,1023.34
212678,0.454328,9.8374,-0.0765184,1.54,-2.87,0.21,20.9324,-49.1128,-19.0639,1023.34
212684,0.401722,9.82305,-0.0573888,1.61,-2.52,0.14,20.6418,-50.5314,-17.7045,1023.33
212690,0.396939,9.83261,-0.0334768,1.89,-2.45,0.49,21.0196,-50.3772,-18.2512,1023.33
212696,0.425634,9.85174,-0.0860832,1.61,-2.66,0.56,21.3101,-50.0071,-19.4776,1023.33
212702,0.425634,9.8374,-0.0908656,1.54,-2.45,0.21,20.8162,-50.5005,-18.7979,1023.34
212708,0.382592,9.81349,-0.0573888,1.82,-2.59,0.35,21.6007,-50.3155,-18.3398,1023.34
212714,0.382592,9.84218,-0.0430416,1.82,-2.66,0.21,20.9905,-50.4697,-19.2855,1023.36
212720,0.396939,9.79914,-0.0430416,1.82,-2.73,0.28,21.3101,-50.0996,-19.2708,1023.36
212726,0.416069,9.8374,-0.0765184,1.47,-2.66,0.56,21.223,-50.9015,-19.123,1023.34
212732,0.411286,9.84696,-0.0669536,1.54,-2.38,0.21,20.7,-50.3772,-19.0787,1023.34
212738,0.416069,9.81349,-0.0430416,1.82,-2.8,0.49,21.1649,-50.0379,-17.6601,1023.32
212744,0.373027,9.8374,-0.0382592,1.75,-2.94,0.49,21.5717,-50.5005,-18.99,1023.32
212750,0.37781,9.87087,-0.0621712,2.03,-3.15,0.56,22.1237,-50.223,-18.99,1023.32
212756,0.382592,9.87566,-0.0621712,1.61,-2.66,0.7,20.6709,-49.6987,-19.8618,1023.3
212762,0.425634,9.86131,-0.0669536,1.47,-2.38,0.35,21.4264,-49.7604,-18.4285,1023.3
212768,0.416069,9.84218,-0.0430416,1.82,-3.08,0.49,20.8743,-50.5005,-17.8522,1023.35
212774,0.463893,9.8374,-0.071736,1.75,-2.73,0.35,20.9034,-50.408,-19.2855,1023.35
212780,0.401722,9.81827,-0.0526064,1.26,-2.73,0.07,20.5837,-50.1921,-18.9309,1023.32
212786,0.430416,9.84218,-0.095648,1.75,-2.52,0.63,21.5717,-51.3949,-18.7684,1023.32
212792,0.435198,9.8087,-0.0526064,1.4,-2.38,0.21,20.9905,-50.1613,-18.3398,1023.31
212798,0.468675,9.8374,-0.071736,1.4,-1.96,0,20.9324,-50.1305,-17.867,1023.31
212804,0.483022,9.79436,-0.0765184,1.26,-3.08,-0.42,21.3683,-50.4389,-18.7388,1023.31
212810,0.368245,9.86609,-0.105213,1.26,-2.03,0.14,21.252,-49.5445,-17.8818,1023.31
212816,0.37781,9.7561,0.0430416,1.61,-2.73,0.14,21.0196,-50.7473,-20.4233,1023.31
212822,0.463893,9.79436,-0.0143472,1.75,-2.52,-0.07,21.6588,-49.9146,-18.1625,1023.33
212828,0.363462,9.80392,-0.0621712,1.75,-3.01,0.21,21.7169,-50.3772,-17.5124,1023.33
212834,0.492587,9.87566,-0.224773,0.98,-2.03,0.28,21.6007,-50.3772,-18.3694,1023.33
212840,0.344333,9.77044,-0.0095648,1.33,-2.31,-0.14,21.6879,-50.7473,-19.0343,1023.33
212846,0.401722,9.78479,-0.0095648,1.61,-2.45,-0.07,20.8452,-50.5314,-18.0739,1023.31
212852,0.373027,9.81349,-0.0430416,1.54,-2.59,0.07,21.5135,-49.7295,-19.0048,1023.31
212858,0.392157,9.84218,-0.109995,1.54,-2.59,0.49,22.0656,-49.2978,-18.5319,1023.34
212864,0.416069,9.8087,-0.0430416,1.54,-2.24,0.07,21.3101,-50.4697,-18.0148,1023.34
212870,0.392157,9.81827,-0.0621712,1.75,-2.52,0,21.3683,-50.1305,-17.601,1023.34
212876,0.392157,9.79914,-0.0143472,1.54,-2.8,-0.07,21.9785,-49.452,-18.8127,1023.3
212882,0.401722,9.81349,-0.047824,1.54,-2.87,0.35,21.3392,-50.5622,-18.2955,1023.3
212888,0.406504,9.84218,-0.095648,1.54,-3.01,0.28,21.7751,-50.2538,-18.591,1023.31
212894,0.430416,9.83261,-0.0573888,1.61,-2.66,0.35,21.4264,-49.637,-18.266,1023.31
212900,0.401722,9.8374,-0.0669536,1.12,-2.59,0.14,21.9203,-49.0202,-19.847,1023.33
212906,0.411286,9.79436,-0.0573888,1.61,-2.24,-0.07,21.6588,-50.6547,-17.4533,1023.33
212912,0.392157,9.85174,-0.0860832,1.12,-2.52,0.56,22.0366,-49.637,-18.6945,1023.29
212918,0.444763,9.85174,-0.0621712,1.47,-2.52,-0.21,21.3973,-50.7781,-19.9505,1023.29
212924,0.416069,9.84218,-0.0813008,1.54,-2.59,0.28,22.1237,-50.1921,-17.2464,1023.29
212930,0.430416,9.81827,-0.0573888,1.47,-2.52,0.56,21.9785,-50.223,-17.6601,1023.3
212936,0.430416,9.83261,-0.0526064,1.75,-2.73,-0.21,20.9905,-50.0996,-17.7783,1023.3
212942,0.420851,9.82305,-0.0526064,1.61,-2.73,0.42,22.1818,-49.5445,-18.9604,1023.3
212948,0.406504,9.84696,-0.0669536,1.12,-2.52,0.21,21.8913,-51.179,-18.591,1023.3
212954,0.387374,9.8087,-0.0191296,1.61,-2.31,-0.07,21.6007,-50.223,-18.6501,1023.3
212960,0.401722,9.82783,-0.071736,1.4,-2.66,0.21,21.6007,-50.4389,-18.4433,1023.3
212966,0.411286,9.84696,-0.0286944,1.61,-2.38,0.42,21.8622,-50.6239,-18.4728,1023.32
212972,0.420851,9.80392,-0.071736,1.82,-2.38,0.35,21.4264,-50.0996,-17.2021,1023.32
212978,0.373027,9.84218,-0.0573888,1.61,-2.52,0.21,22.0366,-49.8837,-18.133,1023.32
212984,0.37781,9.79914,-0.0191296,1.61,-2.73,0.14,21.6007,-50.4697,-17.8374,1023.3
212990,0.363462,9.77044,-0.0382592,1.68,-2.73,0.63,21.4264,-50.2847,-17.4533,1023.3
212996,0.506934,9.96652,-0.234338,1.75,-2.59,0.14,21.9785,-49.5445,-18.5763,1023.3
213002,0.37781,9.82783,-0.0669536,0.77,-2.17,0.28,22.0075,-51.0865,-18.5024,1023.3
213008,0.349115,9.75131,0.186514,1.82,-2.66,0.49,21.1067,-49.9146,-17.2759,1023.32
213014,0.492587,9.93304,-0.191296,1.54,-2.38,0.21,21.6879,-50.0688,-17.2612,1023.32
213020,0.382592,9.87566,-0.095648,0.91,-2.24,0.35,20.7871,-50.6856,-20.1573,1023.31
213026,0.382592,9.74653,0.0191296,1.47,-2.45,0,21.5426,-49.6987,-18.3251,1023.31
213032,0.435198,9.90435,-0.129125,1.4,-2.8,-0.21,21.1067,-50.0379,-18.9013,1023.31
213038,0.392157,9.81827,-0.047824,1.19,-2.66,0.42,21.8913,-49.2669,-19.256,1023.32
213044,0.454328,9.8087,-0.13869,1.61,-2.38,-0.07,21.8622,-50.0071,-18.3842,1023.32
213050,0.363462,9.89,-0.11956,1.05,-1.75,0.28,21.9203,-50.408,-18.0295,1023.31
213056,0.368245,9.74175,0.0621712,1.19,-2.38,0.14,21.9785,-49.4828,-18.6206,1023.31
213062,0.401722,9.78479,-0.0430416,2.1,-2.59,0,21.9494,-50.0996,-17.6306,1023.34
213068,0.416069,9.90913,-0.129125,1.26,-2.8,0.07,21.746,-50.0379,-18.2955,1023.34
213074,0.411286,9.81349,-0.0286944,1.68,-3.15,-0.28,21.746,-48.5885,-18.2807,1023.35
213080,0.373027,9.8374,-0.0621712,1.68,-2.66,0.21,21.5135,-50.1921,-18.99,1023.35
213086,0.368245,9.82783,-0.0143472,2.17,-3.64,0.21,21.3683,-50.1305,-18.9309,1023.33
213092,0.45911,9.86609,-0.167384,2.24,-2.38,0.28,21.9203,-50.0071,-18.5172,1023.33
213098,0.425634,9.88522,-0.10043,0.77,-2.03,0.28,22.24,-50.0996,-19.0491,1023.33
213104,0.382592,9.77044,0.0095648,1.82,-3.01,0.49,21.8041,-50.408,-18.0295,1023.31
213110,0.37781,9.8087,-0.0286944,1.89,-2.73,0.21,21.9494,-50.1921,-18.2216,1023.31
213116,0.425634,9.82305,-0.0813008,2.03,-2.38,-0.35,21.3973,-49.2053,-19.0048,1023.31
213122,0.406504,9.8374,-0.095648,1.33,-2.73,0.63,20.5256,-51.3949,-19.2855,1023.31
213128,0.406504,9.8087,-0.0860832,1.54,-3.15,0.56,22.3562,-50.0071,-18.266,1023.33
213134,0.430416,9.81349,0,1.26,-2.59,0.07,21.4554,-49.1744,-17.9556,1023.33
213140,0.411286,9.8087,-0.0573888,1.96,-2.66,0.28,22.1528,-49.1744,-19.7879,1023.34
213146,0.392157,9.84218,-0.0765184,1.68,-2.73,0,21.4554,-49.6987,-18.3546,1023.34
213152,0.401722,9.84218,-0.109995,1.82,-2.31,0.42,21.5717,-50.0996,-18.99,1023.34
213158,0.37781,9.79914,0.0095648,1.68,-2.87,0.42,21.746,-49.8221,-19.2116,1023.32
213164,0.430416,9.79436,-0.0047824,1.96,-3.29,-0.07,21.2811,-50.3463,-17.7192,1023.32
213170,0.416069,9.88044,-0.11956,1.89,-3.01,0.14,21.5717,-49.3595,-18.2807,1023.28
213176,0.425634,9.84696,-0.0191296,1.75,-2.52,0.35,21.4845,-48.8044,-18.5763,1023.28
213182,0.420851,9.84218,-0.10043,1.68,-2.1,0.21,21.5426,-49.4212,-19.9357,1023.32
213188,0.382592,9.85653,-0.105213,0.98,-2.73,0.07,21.223,-49.452,-18.4876,1023.32
213194,0.425634,9.75131,-0.0047824,1.54,-2.87,0.35,20.8743,-49.3595,-19.2412,1023.32
213200,0.353898,9.88522,-0.196078,1.96,-2.03,0.42,22.3271,-49.5137,-19.3594,1023.32
213206,0.329986,9.79436,-0.047824,1.33,-2.73,0.49,21.3973,-49.5753,-17.8965,1023.32
213212,0.435198,9.71305,-0.023912,2.17,-2.24,0.35,21.746,-48.6502,-18.5172,1023.29
213218,0.387374,9.90435,-0.0908656,1.54,-2.38,0.49,21.3101,-49.2361,-19.9209,1023.29
213224,0.435198,9.85653,-0.105213,1.19,-2.38,0.49,20.9324,-50.3155,-19.4628,1023.33
213230,0.382592,9.78957,-0.0526064,1.4,-1.96,0.42,21.7169,-49.8529,-18,1023.33
213236,0.401722,9.85653,-0.0765184,0.84,-2.17,0.07,21.252,-49.5753,-17.9704,1023.32
213242,0.449546,9.81349,-0.0813008,1.75,-2.38,0.07,21.5135,-49.7912,-19.5515,1023.32
213248,0.411286,9.86609,-0.0860832,1.61,-2.31,0.49,21.3683,-50.8089,-18.7831,1023.33
213254,0.406504,9.80392,-0.071736,1.33,-2.24,0.35,20.9615,-49.5137,-18.2512,1023.33
213260,0.430416,9.79436,-0.0526064,1.68,-2.52,0.21,21.3392,-49.5753,-18.9161,1023.3
213266,0.454328,9.84696,-0.105213,1.54,-2.73,0.42,21.4554,-51.1482,-17.8079,1023.3
213272,0.439981,9.82305,-0.0765184,1.47,-2.24,0.21,21.8913,-49.7295,-18.5763,1023.3
213278,0.444763,9.87087,-0.10043,1.12,-1.96,0.49,21.2811,-49.2361,-18.6797,1023.31
213284,0.425634,9.82783,-0.10043,1.26,-1.82,0,21.8622,-49.8221,-18.0148,1023.31
213290,0.406504,9.79436,0.0047824,1.12,-2.03,-0.63,21.252,-50.408,-18.9309,1023.3
213296,0.416069,9.79436,-0.0286944,1.54,-2.24,0.14,21.6007,-49.2669,-18.7979,1023.3
213302,0.373027,9.8087,-0.0573888,2.03,-2.52,0,21.5717,-49.637,-18.4137,1023.31
213308,0.483022,9.93304,-0.334768,1.4,-1.68,-0.28,21.1939,-49.9146,-17.867,1023.31
213314,0.368245,9.79436,0,0.77,-2.38,-0.56,21.3973,-49.6987,-19.4185,1023.31
213320,0.33955,9.74653,0.0669536,1.4,-2.24,0,20.9905,-49.637,-18.7536,1023.31
213326,0.411286,9.82305,-0.047824,1.82,-2.87,-0.42,20.9324,-51.4257,-20.4529,1023.31
213332,0.392157,9.85174,-0.0813008,1.47,-2.45,-0.14,20.9034,-50.4697,-19.1969,1023.29
213338,0.382592,9.78479,-0.0669536,1.26,-2.03,0.21,20.8743,-50.0996,-19.5515,1023.29
213344,0.401722,9.78479,-0.0334768,1.61,-2.52,0.42,21.7169,-50.8089,-17.8227,1023.31
213350,0.396939,9.78479,-0.023912,1.47,-2.87,0.14,22.3271,-49.7912,-18.3842,1023.31
213356,0.37781,9.82783,-0.0526064,1.96,-2.59,0.21,21.5135,-49.4828,-18.7536,1023.29
213362,0.401722,9.82783,-0.0573888,1.4,-2.8,0.56,21.6298,-49.7295,-19.1969,1023.29
213368,0.416069,9.79436,-0.0334768,1.82,-2.73,0.28,21.1067,-50.7164,-18.6945,1023.3
213374,0.368245,9.82783,-0.047824,1.82,-3.15,0.77,21.252,-49.4828,-19.3003,1023.3
213380,0.406504,9.84696,-0.109995,1.68,-2.87,0.07,21.5426,-49.6987,-18.5024,1023.3
213386,0.406504,9.82783,-0.0669536,1.82,-2.73,0.21,21.3392,-50.408,-18.0295,1023.32
213392,0.430416,9.8087,-0.0669536,1.89,-2.8,0.49,21.6879,-49.7604,-18.5172,1023.32
213398,0.430416,9.85653,-0.095648,1.75,-2.31,0.28,21.4554,-49.4212,-18.4285,1023.32
213404,0.439981,9.85174,-0.0669536,1.33,-2.45,-0.07,22.2109,-49.637,-17.7636,1023.32
213410,0.430416,9.86609,-0.0860832,1.68,-2.17,17.71,21.6588,-49.6987,-17.0543,1023.35
213416,0.439981,9.8374,-0.105213,1.4,-2.52,-0.21,21.5426,-49.452,-18.3694,1023.35
213422,0.406504,9.84696,-0.0573888,1.12,-2.24,0.35,21.6007,-50.4697,-18.5467,1023.29
213428,0.416069,9.83261,-0.10043,1.47,-2.31,0,21.4554,-50.4389,-17.3794,1023.29
213434,0.401722,9.87087,-0.11956,1.4,-1.54,-0.28,21.5717,-49.2053,-18.9604,1023.3
213440,0.392157,9.84696,-0.023912,1.05,-1.96,0.07,21.8622,-49.6987,-18.1477,1023.3
213446,0.411286,9.8087,-0.095648,1.75,-2.38,-0.14,21.1358,-51.1173,-17.9704,1023.3
213452,0.35868,9.8087,-0.023912,1.54,-2.59,-0.21,21.6588,-50.223,-18.1921,1023.34
213458,0.406504,9.82305,-0.0669536,1.82,-2.38,-0.56,21.6588,-50.3155,-19.2116,1023.34
213464,0.373027,9.82305,-0.0334768,1.4,-2.03,-0.14,20.9324,-50.5931,-18.6501,1023.32
213470,0.444763,9.81349,-0.0860832,1.19,-2.03,0.14,21.8041,-50.5931,-19.5367,1023.32
213476,0.344333,9.8374,-0.0669536,1.47,-2.8,17.57,21.5426,-49.3903,-19.1525,1023.32
213482,0.392157,9.83261,-0.0286944,1.4,-2.73,0,21.6588,-50.4697,-17.9704,1023.32
213488,0.387374,9.81349,-0.0669536,1.82,-2.03,-0.28,21.0486,-50.0996,-16.9065,1023.32
213494,0.411286,9.84218,-0.0813008,1.61,-2.31,-0.28,21.2811,-49.6987,-17.4828,1023.32
213500,0.439981,9.82783,-0.0526064,1.47,-2.31,0.21,21.7169,-50.1305,-16.9361,1023.32
213506,0.396939,9.83261,-0.071736,1.82,-2.8,0.35,20.8452,-50.3772,-17.335,1023.3
213512,0.392157,9.8374,-0.0430416,1.75,-2.38,-0.14,20.9905,-49.5137,-18.2807,1023.3
213518,0.406504,9.79436,-0.095648,1.61,-1.96,0.21,21.0486,-49.9146,-18.8275,1023.29
213524,0.387374,9.8374,-0.0669536,1.47,-2.59,0.56,21.1939,-50.5314,-17.2464,1023.29
213530,0.420851,9.8087,-0.0860832,1.68,-2.38,-0.07,21.1358,-50.1305,-17.9113,1023.29
213536,0.425634,9.81827,-0.0621712,1.47,-1.68,0.35,22.2109,-49.5753,-19.9505,1023.29
213542,0.396939,9.85174,-0.0908656,1.33,-2.38,0.14,21.5135,-50.0379,-19.0787,1023.3
213548,0.416069,9.80392,-0.0286944,1.47,-2.31,0.14,21.0486,-50.8706,-18.3989,1023.3
213554,0.406504,9.82783,-0.0765184,1.47,-2.24,0.21,21.3392,-49.5137,-19.4185,1023.3
213560,0.37781,9.83261,-0.047824,1.4,-2.66,0.21,21.252,-49.8529,-18.6354,1023.31
213566,0.439981,9.78957,-0.0765184,1.4,-1.82,0.56,20.8743,-50.1921,-18.591,1023.31
213572,0.392157,9.85174,-0.0526064,1.47,-2.31,0.21,21.2811,-50.0996,-19.1082,1023.3
213578,0.439981,9.83261,-0.023912,1.47,-2.45,0.28,21.5717,-49.5137,-17.8227,1023.3
213584,0.444763,9.84218,-0.11956,1.75,-2.38,0.14,21.5426,-49.3903,-18.0443,1023.33
213590,0.411286,9.84218,-0.105213,1.19,-2.45,-0.14,21.8041,-50.3772,-17.4828,1023.33
213596,0.411286,9.82305,-0.047824,1.19,-2.24,0.07,21.0196,-50.0996,-19.6402,1023.32
213602,0.425634,9.78479,-0.0095648,1.75,-2.45,-0.07,21.0486,-50.0379,-18.2216,1023.32
213608,0.392157,9.86131,-0.0621712,1.33,-3.08,-0.35,21.6879,-50.4697,-18.266,1023.33
213614,0.430416,9.83261,-0.095648,1.82,-2.45,-0.07,21.9785,-49.7912,-18.5024,1023.33
213620,0.401722,9.82783,-0.105213,1.61,-2.59,-0.21,21.6298,-49.7295,-18.6797,1023.33
213626,0.416069,9.82305,-0.0191296,1.47,-2.66,0.14,21.8622,-49.6987,-18.0739,1023.3
213632,0.411286,9.81827,-0.0573888,1.75,-2.03,0.14,21.6879,-50.0996,-17.6158,1023.3
213638,0.363462,9.84218,-0.071736,1.75,-2.24,0.21,22.4724,-50.2847,-17.6601,1023.32
213644,0.387374,9.84696,-0.0765184,1.4,-2.1,0.21,21.6007,-50.1305,-18.2068,1023.32
213650,0.387374,9.78479,-0.047824,1.4,-2.31,0.35,21.0777,-49.8529,-18.1773,1023.28
213656,0.392157,9.84696,-0.0860832,1.68,-2.66,0,21.5717,-49.6062,-17.7931,1023.28
213662,0.396939,9.86609,-0.0765184,1.26,-2.87,0.14,21.6298,-49.7295,-17.8374,1023.31
213668,0.425634,9.8374,-0.095648,1.4,-2.24,0.28,21.4264,-50.3155,-17.867,1023.31
213674,0.401722,9.87087,-0.0573888,1.26,-2.1,0.07,21.4264,-49.9454,-17.7636,1023.31
213680,0.392157,9.83261,-0.0334768,1.54,-2.59,0.49,21.5717,-49.6062,-17.7636,1023.31
213686,0.444763,9.79914,-0.0669536,1.89,-2.24,0.21,22.0366,-50.994,-17.9261,1023.31
213692,0.401722,9.85653,-0.0526064,1.33,-2.52,0.35,21.5717,-50.1613,-18.6945,1023.31
213698,0.411286,9.82783,-0.0573888,1.82,-2.38,0.21,21.223,-49.7295,-18.0295,1023.31
213704,0.373027,9.86131,-0.0286944,1.75,-2.94,0.21,21.9785,-50.3772,-18.3842,1023.3
213710,0.420851,9.85174,-0.0669536,1.75,-3.01,0.14,21.9785,-49.9146,-18.7684,1023.3
213716,0.401722,9.82305,-0.0430416,1.61,-3.01,0.7,22.0075,-49.6062,-18.6649,1023.29
213722,0.392157,9.80392,-0.047824,1.61,-2.59,0.28,21.4845,-50.408,-17.4533,1023.29
213728,0.286944,9.74175,-0.0382592,2.59,-3.71,0.14,21.0777,-50.6239,-18.2807,1023.29
213734,0.492587,9.86609,-0.23912,1.33,-2.17,0.56,20.7871,-50.0996,-19.0491,1023.29
213740,0.310856,9.8087,-0.0382592,1.54,-2.66,0.21,21.0777,-49.8529,-18.5467,1023.29
213746,0.37781,9.72262,0.0286944,2.03,-2.8,0.35,22.1528,-50.6239,-19.0787,1023.32
213752,0.353898,9.8087,-0.0860832,2.31,-2.73,0.49,21.6879,-48.9894,-18.6501,1023.32
213758,0.368245,9.80392,-0.109995,1.47,-3.15,0.77,20.9615,-49.7295,-18.3989,1023.31
213764,0.468675,9.79436,-0.153037,1.54,-2.73,0.42,21.6879,-50.5622,-19.1673,1023.31
213770,0.392157,9.89,-0.0860832,0.98,-2.31,0.14,21.9494,-49.5137,-19.6106,1023.28
213776,0.444763,9.81827,-0.0860832,1.26,-2.1,0.07,21.5426,-48.9586,-19.4333,1023.28
213782,0.401722,9.8087,-0.0334768,1.54,-2.45,0.35,22.2109,-49.0819,-20.2164,1023.29
213788,0.416069,9.85653,-0.114778,0.77,-2.31,0.49,21.6298,-49.8529,-18.1182,1023.29
213794,0.435198,9.82305,-0.0908656,1.4,-2.8,-0.28,21.5717,-49.7295,-19.3003,1023.29
213800,0.430416,9.85174,-0.0765184,0.91,-2.24,-0.35,22.1528,-50.1305,-18.8718,1023.3
213806,0.392157,9.82783,-0.0573888,1.12,-1.96,0.28,21.5717,-50.0996,-18.6058,1023.3
213812,0.416069,9.78001,-0.0095648,1.19,-2.24,0,21.8041,-49.2669,-19.0343,1023.29
213818,0.392157,9.81349,-0.0286944,0.98,-2.24,0.42,21.1067,-50.2538,-19.0196,1023.29
213824,0.35868,9.8087,0.0047824,1.61,-2.1,0.21,21.6879,-51.0865,-18.6797,1023.28
213830,0.373027,9.8087,-0.0095648,1.05,-2.59,0.14,21.5717,-50.0379,-19.0343,1023.28
213836,0.344333,9.79914,-0.0047824,1.47,-3.15,0.28,20.6128,-49.6062,-20.9996,1023.28
213842,0.334768,9.74175,0.0143472,1.96,-3.29,0.56,22.1818,-50.5005,-19.847,1023.28
213848,0.416069,9.85653,-0.114778,2.1,-2.1,0.63,21.4554,-50.0688,-20.2903,1023.28
213854,0.373027,9.86609,-0.0765184,1.68,-2.45,0.84,21.6007,-49.4212,-19.0787,1023.31
213860,0.439981,9.84696,-0.129125,2.1,-2.73,0.63,21.1939,-49.1744,-19.2264,1023.31
213866,0.373027,9.84218,-0.0430416,1.89,-2.8,0.28,21.4554,-50.3155,-19.2116,1023.26
213872,0.416069,9.79914,-0.0334768,1.82,-2.59,0.7,21.6298,-49.9763,-19.714,1023.26
213878,0.349115,9.8087,-0.0382592,1.96,-3.01,0.63,20.9324,-49.5137,-18.6354,1023.3
213884,0.425634,9.8087,-0.0765184,1.96,-2.87,0.49,21.8913,-50.6547,-18.99,1023.3
213890,0.435198,9.84696,-0.13869,1.89,-2.8,0.28,21.223,-49.6987,-18.4433,1023.27
213896,0.392157,9.79436,-0.0047824,2.1,-3.36,0.56,21.252,-49.7295,-18.8422,1023.27
213902,0.444763,9.78479,-0.0047824,2.31,-3.08,0.28,21.3392,-50.4389,-18.3546,1023.27
213908,0.425634,9.90913,-0.105213,1.4,-2.73,0.7,21.4845,-50.223,-19.0934,1023.31
213914,0.382592,9.83261,-0.071736,1.89,-3.29,0.56,20.5547,-50.5005,-18.3842,1023.31
213920,0.420851,9.8374,-0.0813008,1.82,-3.29,0.28,21.4845,-50.223,-18.6945,1023.3
213926,0.373027,9.87087,-0.0526064,1.54,-3.01,0.7,21.6298,-50.3463,-18.1477,1023.3
213932,0.444763,9.81349,-0.10043,2.17,-3.01,0.14,21.6588,-49.2669,-18.4876,1023.31
213938,0.349115,9.90435,-0.0334768,1.61,-2.87,0.28,21.8913,-49.9454,-19.1378,1023.31
213944,0.396939,9.80392,-0.047824,1.89,-3.08,0.21,22.3271,-50.1613,-17.601,1023.29
213950,0.425634,9.78957,-0.0526064,2.17,-2.66,0.14,21.4845,-50.4697,-17.9852,1023.29
213956,0.420851,9.86609,-0.0669536,2.17,-2.73,0.28,21.8622,-49.6987,-18.857,1023.3
213962,0.373027,9.80392,-0.0813008,1.89,-2.87,1.26,20.9905,-50.3772,-19.2412,1023.3
213968,0.406504,9.86609,-0.0765184,1.61,-2.73,0.7,21.7169,-49.7295,-18.3546,1023.3
213974,0.444763,9.82305,-0.0765184,1.47,-2.59,0.28,21.3392,-49.4212,-18.5172,1023.3
213980,0.444763,9.86131,-0.105213,1.61,-2.38,0.63,22.0075,-50.0996,-18.266,1023.3
213986,0.416069,9.81349,-0.047824,1.4,-3.01,0.35,21.8041,-50.5931,-18.4433,1023.28
213992,0.47824,9.84218,-0.133907,1.82,-2.8,0.07,21.252,-49.8837,-18.7092,1023.28
213998,0.353898,9.89957,-0.0573888,1.4,-2.45,0.42,21.6879,-49.6679,-18.724,1023.29
214004,0.45911,9.75131,0.0095648,1.61,-2.31,0.35,22.1528,-50.1305,-17.3203,1023.29
214010,0.353898,9.81827,-0.0669536,1.89,-2.45,0.14,21.4264,-49.2361,-18.2512,1023.3
214016,0.406504,9.8374,0.0286944,1.61,-3.15,0,21.3973,-48.9894,-18.3694,1023.3
214022,0.425634,9.84218,-0.0908656,2.03,-2.59,0,21.8913,-49.7295,-18.2364,1023.3
214028,0.349115,9.81827,-0.047824,1.75,-2.94,0.63,22.0656,-49.1744,-18.7684,1023.34
214034,0.430416,9.82783,-0.0669536,1.54,-2.45,0.42,22.7049,-49.452,-20.1869,1023.34
214040,0.363462,9.8087,-0.0191296,1.96,-3.01,0,21.5717,-50.5314,-20.0096,1023.29
214046,0.37781,9.81349,-0.11956,1.75,-2.73,0.28,21.5135,-50.4697,-18.458,1023.29
214052,0.416069,9.79914,-0.0813008,1.26,-2.8,0.7,21.5426,-50.1305,-20.0391,1023.29
214058,0.392157,9.85653,-0.10043,1.89,-2.45,0.49,22.1237,-48.9277,-19.5663,1023.29
214064,0.401722,9.82783,-0.0191296,1.68,-3.08,0.49,21.6298,-50.4697,-18.3989,1023.31
214070,0.439981,9.79914,-0.109995,1.96,-2.45,0.63,21.6007,-49.8221,-18.9752,1023.31
214076,0.37781,9.82783,-0.0382592,1.82,-2.87,0.77,21.3973,-48.681,-18.9013,1023.31
214082,0.435198,9.82783,-0.0573888,1.89,-2.66,0.63,21.8332,-50.5622,-18.9457,1023.31
214088,0.47824,9.84696,-0.143472,1.75,-2.66,0.98,22.0656,-49.5753,-19.0787,1023.31
214094,0.444763,9.8087,-0.0430416,1.68,-2.66,0.28,21.7751,-49.0202,-20.3199,1023.29
214100,0.406504,9.83261,-0.095648,1.4,-2.1,0.49,21.4554,-49.8221,-19.6993,1023.29
214106,0.401722,9.78957,-0.0430416,2.03,-2.8,0.42,22.0947,-50.1305,-18.2512,1023.29
214112,0.45911,9.79914,-0.133907,1.54,-2.52,0,21.9494,-49.8529,-19.1821,1023.29
214118,0.444763,9.85174,-0.105213,1.33,-2.8,0.21,21.5717,-49.5137,-20.7484,1023.29
214124,0.420851,9.78479,-0.0573888,1.75,-2.17,0.7,21.2811,-50.6856,-18.7684,1023.29
214130,0.473458,9.86131,-0.109995,1.75,-2.66,0.28,22.0656,-49.7295,-18.9604,1023.31
214136,0.416069,9.80392,-0.0286944,1.82,-2.8,0.07,22.269,-50.223,-19.7584,1023.31
214142,0.444763,9.84696,-0.0813008,1.68,-2.38,0.84,22.3562,-49.8221,-17.7488,1023.31
214148,0.420851,9.85653,-0.0908656,1.75,-2.66,0.49,20.6418,-50.9631,-18.6649,1023.3
214154,0.416069,9.82305,-0.0573888,1.75,-2.59,0.63,21.746,-49.5753,-18.3842,1023.3
214160,0.392157,9.82305,-0.0765184,1.82,-2.59,0.35,21.7169,-49.4828,-18.9457,1023.3
214166,0.435198,9.87566,-0.11956,1.19,-2.59,0.21,21.5717,-50.3463,-17.7192,1023.3
214172,0.430416,9.82305,-0.0813008,1.54,-2.8,0.7,21.7169,-49.2978,-18.8127,1023.29
214178,0.435198,9.82305,-0.109995,1.82,-3.01,0.49,21.3392,-50.0996,-19.389,1023.29
214184,0.45911,9.83261,-0.071736,1.19,-2.59,0.49,21.7751,-50.3155,-18.5172,1023.33
214190,0.468675,9.78479,-0.0813008,1.61,-2.31,0.07,21.1067,-49.5445,-17.5567,1023.33
214196,0.444763,9.86131,-0.109995,1.82,-2.94,0.49,21.3683,-49.1436,-18.2512,1023.33
214202,0.430416,9.87087,-0.162602,0.98,-2.73,0.21,21.7169,-50.1305,-18.0886,1023.34
214208,0.45911,9.80392,-0.0669536,1.89,-2.17,-0.07,21.223,-49.8529,-17.4237,1023.34
214214,0.449546,9.82305,-0.0908656,1.4,-2.52,-0.28,21.223,-50.0071,-18.2512,1023.33
214220,0.444763,9.84218,-0.143472,1.4,-2.03,0,21.2811,-50.0071,-17.9852,1023.33
214226,0.439981,9.76566,-1.22429,1.68,-2.45,0.14,21.3101,-50.2847,-18.2955,1023.29
214232,0.47824,9.87087,-0.11956,1.61,-2.87,0.07,20.3803,-49.7912,-18.4728,1023.29
214238,0.439981,9.86131,-0.105213,1.33,-2.45,-0.14,21.3683,-50.3463,-19.0491,1023.31
214244,0.449546,9.81349,-0.071736,1.82,-2.52,0.35,20.9905,-50.5931,-18.6945,1023.31
214250,0.37781,9.81349,-0.0430416,0.91,-2.03,-0.21,20.5256,-50.7473,-18.6649,1023.31
214256,0.420851,9.79914,-0.10043,1.05,-1.82,0.28,21.2811,-49.637,-18.5024,1023.31
214262,0.392157,9.80392,-0.0191296,1.61,-2.73,-0.21,21.1358,-50.5005,-17.601,1023.31
214268,0.425634,9.82305,-0.0621712,1.4,-2.66,0,21.4845,-50.408,-18.4137,1023.3
214274,0.406504,9.84218,-0.0669536,1.82,-2.8,0.14,20.8743,-49.5445,-19.8618,1023.3
214280,0.468675,9.81827,-0.0430416,1.82,-3.01,0,21.252,-50.3463,-17.8522,1023.31
214286,0.392157,9.83261,-0.0669536,1.54,-2.66,0.07,21.5426,-50.5622,-18.3103,1023.31
214292,0.435198,9.84696,-0.109995,1.89,-2.66,0,20.7871,-49.8837,-17.6749,1023.3
214298,0.439981,9.81349,-0.0621712,1.47,-2.45,0.07,21.8332,-49.5753,-18.0739,1023.3
214304,0.411286,9.83261,-0.0860832,1.33,-2.59,0.28,21.7169,-50.408,-17.5862,1023.32
214310,0.416069,9.79914,-0.0669536,1.89,-2.66,0.28,21.4554,-50.0071,-18.5615,1023.32
214316,0.406504,9.81827,-0.0526064,1.54,-2.66,0.28,20.9034,-49.7912,-18.4285,1023.32
214322,0.439981,9.84696,-0.095648,1.96,-2.59,0.21,20.6418,-50.6547,-18.2216,1023.3
214328,0.430416,9.8087,-0.0765184,1.89,-2.24,0.14,21.0196,-50.3463,-18.2068,1023.3
214334,0.444763,9.83261,-0.0813008,1.75,-2.38,-0.14,21.8041,-49.7604,-17.9261,1023.3
214340,0.425634,9.8087,-0.0382592,1.26,-2.31,0.28,21.252,-50.223,-18.6945,1023.3
214346,0.430416,9.81827,-0.071736,1.47,-2.31,0.28,22.0366,-49.9146,-18.2512,1023.31
214352,0.37781,9.78957,-0.047824,1.96,-2.45,0.14,20.5837,-50.7781,-18.857,1023.31
214358,0.468675,9.82783,-0.105213,1.61,-2.59,0.21,21.7169,-50.0071,-18.7831,1023.28
214364,0.430416,9.86131,-0.0669536,1.61,-2.66,0.21,21.5135,-50.3155,-16.8474,1023.28
214370,0.416069,9.80392,-0.0526064,1.61,-2.38,0,22.0656,-48.7427,-17.9261,1023.28
214376,0.392157,9.79436,-0.0334768,1.33,-1.89,0.49,21.7751,-50.0688,-19.847,1023.29
214382,0.435198,9.81827,-0.10043,2.03,-2.45,0.35,21.0196,-50.6856,-17.9556,1023.29
214388,0.430416,9.82783,-0.0621712,1.75,-2.17,-0.07,21.5135,-50.6547,-17.601,1023.29
214394,0.449546,9.83261,-0.124342,1.61,-2.73,0.56,21.9785,-50.0071,-18.8718,1023.29
214400,0.439981,9.82305,-0.0334768,1.75,-2.45,0.63,21.3101,-50.5005,-18.133,1023.3
214406,0.420851,9.84218,-0.095648,1.89,-2.87,0.35,22.269,-50.1613,-17.6897,1023.3
214412,0.430416,9.83261,-0.095648,1.61,-2.73,0.14,20.5256,-50.0071,-19.7436,1023.3
214418,0.416069,9.81349,-0.0382592,2.1,-3.43,0,20.6418,-50.6239,-20.9848,1023.3
214424,0.45911,9.82305,-0.114778,1.54,-2.59,0.21,21.8332,-49.8529,-18.3546,1023.3
214430,0.430416,9.81827,-0.095648,1.68,-2.87,0.35,21.4554,-49.9454,-19.5219,1023.3
214436,0.45911,9.79914,-0.0908656,1.47,-2.8,0.07,21.6298,-49.8837,-18.3103,1023.3
214442,0.425634,9.78957,-0.047824,2.03,-2.87,0,20.9905,-50.0379,-18.2364,1023.32
214448,0.47824,9.82783,-0.10043,1.4,-2.38,0.21,22.0075,-50.994,-18.458,1023.32
214454,0.401722,9.87087,-0.13869,1.54,-2.73,0.21,20.7,-50.5622,-20.9553,1023.29
214460,0.430416,9.82783,-0.071736,1.12,-2.45,-0.21,21.6879,-50.5005,-19.4333,1023.29
214466,0.420851,9.8087,0,1.47,-2.59,-0.21,21.0777,-51.1173,-19.389,1023.29
214472,0.392157,9.85174,-0.0621712,1.47,-2.8,0.07,21.9203,-49.8529,-19.7584,1023.29
214478,0.406504,9.83261,-0.0286944,1.54,-2.52,0.28,20.5837,-49.8837,-18.724,1023.29
214484,0.37781,9.84696,-0.0669536,1.75,-2.45,0,21.6879,-51.2715,-18.9752,1023.29
214490,0.449546,9.83261,-0.0908656,1.33,-2.73,0.35,21.1649,-50.6547,-18.9604,1023.29
214496,0.363462,9.81349,-0.0286944,1.61,-2.94,0.14,21.1649,-50.6856,-18.2512,1023.3
214502,0.47824,9.8087,-0.105213,1.54,-2.45,0.63,21.4845,-50.6856,-18.724,1023.3
214508,0.430416,9.84696,-0.095648,1.61,-2.87,0.07,20.9034,-50.6547,-18.7684,1023.27
214514,0.406504,9.80392,-0.10043,1.68,-2.59,-0.21,21.9494,-49.5445,-17.9409,1023.27
214520,0.444763,9.79436,-0.0621712,1.26,-2.8,0.49,20.9615,-50.4697,-18.0443,1023.24
214526,0.35868,9.84218,-0.0047824,1.68,-2.24,0.49,21.7169,-49.9763,-17.8079,1023.24
214532,0.444763,9.80392,-0.114778,1.82,-2.94,-0.42,21.746,-50.3463,-17.8374,1023.25
214538,0.430416,9.8087,-0.0573888,1.75,-2.45,0.21,21.2811,-50.0688,-19.4481,1023.25
214544,0.425634,9.82305,-0.0860832,1.75,-2.8,0.14,22.3562,-50.7473,-18.591,1023.25
214550,0.406504,9.84218,-0.095648,1.47,-2.8,0,21.5426,-50.1305,-19.3742,1023.32
214556,0.454328,9.82783,-0.10043,1.61,-2.8,0.63,21.1067,-50.7164,-19.1525,1023.32
214562,0.435198,9.84218,-0.0908656,1.33,-2.66,0.14,21.746,-50.1613,-18.1477,1023.3
214568,0.483022,9.82305,-0.095648,1.33,-2.73,0.21,21.0486,-49.7912,-17.9704,1023.3
214574,0.425634,9.8087,-0.071736,1.4,-2.73,0.56,20.4675,-49.7912,-18.3398,1023.3
214580,0.416069,9.84696,-0.0813008,1.54,-2.59,-0.07,21.6007,-50.3155,-18.4728,1023.3
214586,0.492587,9.8374,-0.0860832,1.61,-2.38,-0.28,21.3392,-51.3949,-19.3003,1023.26
214592,0.420851,9.85653,-0.0860832,1.54,-2.59,0.07,20.8452,-49.4212,-18.7092,1023.26
214598,0.425634,9.81827,-0.095648,1.19,-1.96,0.14,20.9615,-49.9763,-19.1673,1023.26
214604,0.392157,9.82305,-0.0526064,1.61,-2.38,-0.07,21.5426,-50.8398,-16.2711,1023.28
214610,0.435198,9.82783,-0.0573888,1.54,-2.45,0.07,21.252,-50.2847,-18.5615,1023.28
214616,0.406504,9.82783,-0.0430416,1.61,-2.38,0.21,21.6879,-50.0996,-19.5515,1023.31
214622,0.435198,9.82305,-0.071736,1.82,-2.38,-0.14,21.1067,-50.9015,-19.6254,1023.31
214628,0.37781,9.8374,-0.0382592,1.75,-3.01,-0.07,22.0947,-50.2847,-18.9604,1023.31
214634,0.439981,9.7561,-0.0286944,1.75,-3.01,0.35,21.223,-49.6987,-19.7731,1023.31
214640,0.37781,9.81349,-0.0765184,2.03,-2.73,0.28,21.8622,-50.3463,-19.0491,1023.3
214646,0.454328,9.82783,-0.11956,1.19,-2.38,0.56,21.8622,-50.5314,-17.6453,1023.3
214652,0.401722,9.79914,-0.0382592,1.54,-3.01,-0.07,21.5426,-50.6547,-18.724,1023.3
214658,0.416069,9.86131,-0.105213,1.61,-2.38,0.35,20.0607,-50.9631,-20.6006,1023.31
214664,0.420851,9.85653,-0.0765184,2.03,-2.73,0.63,20.8743,-51.1173,-18.2955,1023.31
214670,0.435198,9.84218,-0.095648,1.47,-2.38,-0.07,21.1067,-49.9763,-18.99,1023.3
214676,0.420851,9.87087,-0.10043,1.75,-3.08,-0.28,21.3101,-50.4697,-20.6006,1023.3
214682,0.444763,9.81827,-0.071736,1.4,-2.45,-0.14,20.8162,-50.3463,-18.8127,1023.34
214688,0.420851,9.8374,-0.0860832,1.68,-2.73,0.07,21.5426,-50.5622,-19.0343,1023.34
214694,0.373027,9.8087,-0.0813008,1.33,-2.66,-0.21,21.5717,-50.3772,-19.9061,1023.31
214700,0.473458,9.78957,-0.10043,1.82,-2.66,-0.07,21.6007,-50.1613,-19.2412,1023.31
214706,0.420851,9.82783,-0.0765184,1.47,-2.87,0.21,21.746,-51.2715,-18.2364,1023.3
214712,0.430416,9.8374,-0.0813008,1.68,-2.52,0.21,22.1237,-50.9323,-19.2116,1023.3
214718,0.430416,9.78957,-0.071736,1.47,-2.1,0.14,21.6007,-50.408,-19.2412,1023.3
214724,0.420851,9.84218,-0.0860832,1.68,-2.87,-0.14,21.6007,-51.1173,-18.2955,1023.33
214730,0.435198,9.8087,-0.0860832,1.26,-2.66,-0.21,21.3683,-50.6239,-19.3594,1023.33
214736,0.387374,9.82783,-0.0573888,1.89,-2.31,-0.14,21.1067,-50.3155,-18.591,1023.3
214742,0.430416,9.8374,-0.0765184,0.91,-2.38,0.21,21.3683,-51.0248,-19.6254,1023.3
214748,0.430416,9.79436,-0.0860832,1.68,-2.87,0.14,21.3392,-50.6856,-18.9604,1023.32
214754,0.425634,9.84218,-0.109995,1.89,-2.73,17.85,20.7581,-49.7604,-20.1573,1023.32
214760,0.416069,9.82783,-0.047824,1.54,-2.94,0.14,20.9324,-51.3641,-20.837,1023.35
214766,0.406504,9.8374,-0.0573888,2.1,-3.01,-0.07,21.8332,-50.1613,-19.1378,1023.35
214772,0.406504,9.81349,-0.0813008,1.54,-2.66,0.42,21.2811,-49.8221,-18.9604,1023.35
214778,0.439981,9.81349,-0.0860832,1.82,-2.31,0,21.6588,-49.7912,-20.3199,1023.33
214784,0.416069,9.84696,-0.109995,1.4,-2.73,0.35,21.4264,-50.5622,-18.2807,1023.33
214790,0.449546,9.83261,-0.0813008,1.75,-2.66,0.07,21.4264,-50.5622,-18.5024,1023.3
214796,0.420851,9.81827,-0.0430416,1.61,-2.66,0.28,21.1067,-50.6856,-19.4481,1023.3
214802,0.425634,9.8087,-0.0908656,1.82,-2.24,0.21,20.7581,-50.7781,-19.0048,1023.28
214808,0.387374,9.81349,-0.0621712,1.82,-2.24,0.21,20.6418,-50.6239,-18.7831,1023.28
214814,0.425634,9.85653,-0.0860832,1.82,-2.59,0.07,21.5135,-49.9763,-19.4185,1023.31
214820,0.416069,9.80392,-0.071736,1.61,-2.8,0.28,21.223,-50.1613,-18.724,1023.31
214826,0.406504,9.78001,-0.047824,1.75,-2.66,0.28,21.0196,-50.6856,-17.7488,1023.31
214832,0.396939,9.81827,-0.0813008,1.75,-2.8,0.14,20.8162,-50.7164,-19.1821,1023.27
214838,0.449546,9.87566,-0.109995,1.26,-2.59,0.21,20.7,-50.2847,-18.99,1023.27
214844,0.420851,9.81827,-0.0526064,1.19,-2.52,0.28,21.5426,-49.9146,-18.8718,1023.28
214850,0.401722,9.79914,-0.0191296,2.03,-2.66,0,21.3683,-49.9763,-18.4137,1023.28
214856,0.373027,9.83261,-0.0908656,1.75,-2.31,0.35,21.3101,-50.0071,-17.734,1023.32
214862,0.473458,9.84696,-0.0573888,1.4,-2.52,0.14,22.269,-50.6239,-18.9457,1023.32
214868,0.47824,9.86609,-0.181731,1.68,-2.87,0.42,21.9203,-50.8398,-17.9852,1023.3
214874,0.382592,9.82305,-0.023912,1.61,-2.94,0.28,21.1067,-49.8529,-18.1034,1023.3
214880,0.444763,9.78957,-0.0621712,1.47,-2.52,0.28,21.7751,-50.3772,-18.8275,1023.33
214886,0.37781,9.85174,-0.0382592,1.4,-2.87,0.56,21.0486,-51.0557,-18.1034,1023.33
214892,0.468675,9.77044,0.0095648,1.61,-2.8,0.42,21.5717,-49.8221,-18.3842,1023.33
214898,0.411286,9.82783,-0.0813008,1.47,-2.17,0.42,22.0075,-49.4212,-18.8127,1023.3
214904,0.444763,9.83261,-0.124342,1.26,-2.73,0.14,21.6298,-50.5931,-17.4828,1023.3
214910,0.411286,9.8087,-0.0765184,1.61,-2.73,0,21.7751,-50.5931,-17.8374,1023.3
214916,0.382592,9.82783,-0.047824,2.03,-2.87,0.84,21.1358,-49.7912,-19.2412,1023.3
214922,0.430416,9.78001,-0.0095648,1.89,-2.59,0.28,21.5717,-50.0996,-19.9357,1023.33
214928,0.420851,9.95696,-0.13869,1.33,-2.52,0.42,21.6007,-50.6239,-17.9409,1023.33
214934,0.420851,9.86609,-0.114778,1.4,-2.66,0.21,21.4554,-49.4828,-18.5024,1023.29
214940,0.411286,9.74175,0.0573888,1.89,-2.73,0.42,21.3101,-50.3155,-19.3151,1023.29
214946,0.420851,9.85653,-0.133907,1.82,-2.52,0.42,21.6879,-50.994,-18.4285,1023.29
214952,0.454328,9.82783,-0.0191296,1.12,-3.08,0.35,21.8622,-50.1921,-19.6845,1023.31
214958,0.420851,9.7561,-0.0143472,2.17,-3.08,0.49,21.252,-50.3155,-18.9013,1023.31
214964,0.439981,9.90435,-0.13869,1.4,-2.24,0.35,20.8743,-49.7912,-18.1034,1023.33
214970,0.420851,9.84218,-0.0765184,1.19,-2.8,0,21.8622,-49.6987,-19.1969,1023.33
214976,0.416069,9.81827,0.0143472,1.54,-2.66,0.14,21.3683,-48.7735,-20.0687,1023.29
214982,0.430416,9.86131,-0.071736,1.75,-2.8,0.42,21.4264,-50.1921,-19.389,1023.29
214988,0.454328,9.84218,-0.0765184,1.47,-2.38,0.49,22.1237,-50.0688,-18.4876,1023.33
214994,0.420851,9.82305,-0.0813008,1.61,-2.66,0.28,21.2811,-49.8837,-18.5467,1023.33
215000,0.449546,9.81349,-0.105213,1.54,-2.94,0.35,21.1358,-50.2847,-18.6649,1023.33
215006,0.449546,9.8087,-0.047824,1.68,-2.94,0.77,21.3973,-50.4697,-17.9556,1023.31
215012,0.430416,9.78001,-0.0813008,1.54,-2.73,0.77,21.746,-49.5445,-19.6402,1023.31
215018,0.425634,9.82783,-0.0526064,1.4,-2.87,0.21,21.1649,-49.6679,-19.9505,1023.32
215024,0.435198,9.85653,-0.114778,1.54,-2.87,0,21.4264,-50.6547,-18.7831,1023.32
215030,0.463893,9.80392,-0.0908656,1.82,-2.66,0.14,21.1649,-50.1613,-19.5515,1023.27
215036,0.430416,9.82783,-0.0526064,1.54,-2.73,0.28,20.9324,-49.7604,-19.6106,1023.27
215042,0.454328,9.84218,-0.124342,1.61,-2.94,0.35,20.9324,-50.5005,-19.8914,1023.32
215048,0.439981,9.86609,-0.13869,1.19,-2.59,0.35,21.3683,-50.5931,-19.1082,1023.32
215054,0.45911,9.81349,-0.0286944,1.47,-2.52,-0.21,21.2811,-49.7912,-20.0096,1023.33
215060,0.420851,9.80392,-0.0765184,1.89,-2.66,0.21,20.5547,-50.5622,-19.2412,1023.33
215066,0.401722,9.80392,-0.0430416,1.47,-2.73,0.21,20.9615,-51.1482,-19.2116,1023.33
215072,0.435198,9.81827,-0.0573888,1.75,-2.87,-0.35,21.3101,-49.9146,-19.3742,1023.3
215078,0.463893,9.83261,-0.0669536,1.54,-2.94,0.14,21.6007,-50.0071,-19.7731,1023.3
215084,0.463893,9.78479,-0.095648,2.1,-2.73,0.28,21.4264,-50.408,-18.0591,1023.28
215090,0.420851,9.87087,-0.105213,1.89,-2.66,-0.07,21.1358,-49.4212,-19.2412,1023.28
215096,0.416069,9.85174,-0.0860832,1.68,-2.87,0.14,20.6128,-49.3903,-20.1573,1023.31
215102,0.483022,9.78957,-0.0430416,1.68,-2.31,-0.07,20.9615,-50.5005,-18.5172,1023.31
215108,0.454328,9.83261,-0.11956,1.61,-2.73,0.49,21.5135,-49.9146,-17.9556,1023.26
215114,0.420851,9.82305,-0.109995,1.61,-2.94,0.07,21.6879,-49.5137,-18.3842,1023.26
215120,0.439981,9.8087,-0.0813008,1.19,-2.38,-0.14,21.7751,-49.7295,-19.3742,1023.26
215126,0.435198,9.82783,-0.0669536,1.26,-2.45,0.35,21.5717,-50.3772,-18.2068,1023.3
215132,0.45911,9.80392,-0.109995,1.61,-2.38,0.21,21.223,-50.0071,-18.724,1023.3
215138,0.45911,9.79914,-0.0430416,1.4,-2.38,0.14,21.3683,-50.1921,-19.0639,1023.3
215144,0.449546,9.82783,-0.0813008,1.12,-1.75,0.07,21.3392,-50.7164,-17.5862,1023.3
215150,0.420851,9.78479,-0.047824,1.54,-2.52,0.35,21.4845,-50.0379,-18.6797,1023.29
215156,0.420851,9.78479,-0.0191296,1.61,-2.8,0.49,21.0486,-49.7295,-19.4333,1023.29
215162,0.401722,9.84218,-0.071736,1.4,-2.94,0.14,21.0196,-49.8529,-19.1082,1023.34
215168,0.492587,9.8374,-0.0908656,1.47,-2.45,0.56,22.4724,-50.4389,-18.0739,1023.34
215174,0.387374,9.80392,-0.0334768,1.33,-2.52,0.21,20.9615,-49.637,-19.3446,1023.34
215180,0.449546,9.79436,-0.105213,1.89,-2.59,0.14,22.0366,-50.408,-18.9604,1023.29
215186,0.406504,9.84696,-0.0573888,1.54,-2.87,-0.07,21.223,-51.0865,-18.8275,1023.29
215192,0.454328,9.8374,-0.071736,1.61,-1.96,0,21.1939,-49.2053,-18.5467,1023.29
215198,0.401722,9.86609,-0.0526064,1.61,-2.59,0.07,21.5135,-49.7295,-18.8718,1023.29
215204,0.449546,9.83261,-0.071736,1.96,-2.66,0.14,21.2811,-50.2538,-17.7783,1023.28
215210,0.416069,9.81349,-0.0669536,1.26,-2.52,-0.14,21.1067,-49.6987,-18.266,1023.28
215216,0.449546,9.8087,-0.0669536,1.4,-2.38,0,20.8162,-50.0688,-18.7684,1023.33
215222,0.463893,9.81349,-0.0765184,1.68,-2.24,0.21,21.6007,-50.4697,-17.6158,1023.33
215228,0.430416,9.84218,-0.047824,1.68,-2.73,0.42,21.3973,-50.2538,-18.2955,1023.31
215234,0.416069,9.78479,-0.0765184,1.61,-2.45,0.49,21.3392,-50.0379,-18.7536,1023.31
215240,0.439981,9.82783,-0.0621712,1.54,-2.73,0.35,21.3101,-50.5931,-17.8965,1023.31
215246,0.468675,9.85653,-0.133907,1.47,-2.59,0.14,20.9034,-51.3332,-18.0886,1023.31
215252,0.430416,9.85174,-0.071736,1.47,-2.59,0.14,21.6298,-50.1921,-18.3546,1023.31
215258,0.45911,9.79914,-0.0334768,1.26,-2.52,-0.07,22.1528,-50.4389,-18.591,1023.29
215264,0.401722,9.84696,-0.0334768,1.54,-2.45,-0.14,21.5717,-51.4874,-17.8965,1023.29
215270,0.449546,9.8374,-0.0334768,1.47,-2.52,0.21,21.746,-50.5622,-18.2216,1023.33
215276,0.425634,9.8374,-0.0526064,1.61,-2.8,0,20.7581,-49.8837,-19.3299,1023.33
215282,0.416069,9.84218,-0.047824,1.54,-2.8,0.07,21.0196,-50.1613,-17.9852,1023.35
215288,0.449546,9.78479,-0.047824,1.75,-2.45,0.07,21.2811,-50.1305,-18.7536,1023.35
215294,0.430416,9.82783,-0.0621712,1.75,-2.8,-0.21,21.223,-49.3903,-18.724,1023.35
215300,0.454328,9.81827,-0.0669536,1.54,-2.66,0.28,21.0777,-50.994,-17.7931,1023.31
215306,0.416069,9.83261,-0.0573888,1.4,-2.87,-0.21,21.3392,-50.0688,-18.5763,1023.31
215312,0.420851,9.8087,-0.0526064,1.61,-2.45,0.28,21.3392,-50.0688,-19.2855,1023.3
215318,0.449546,9.83261,-0.071736,1.54,-2.31,0.28,21.223,-49.9763,-18.5172,1023.3
215324,0.420851,9.81827,-0.0621712,1.33,-2.38,-0.07,21.1358,-50.8398,-17.6306,1023.32
215330,0.439981,9.8374,-0.071736,1.75,-2.31,0.07,21.5717,-50.1305,-17.8079,1023.32
215336,0.416069,9.84696,-0.105213,1.54,-2.73,0.7,20.5837,-49.5137,-18.7092,1023.28
215342,0.363462,9.86609,-0.0765184,1.75,-2.24,0.14,21.8041,-50.223,-18.0295,1023.28
215348,0.430416,9.79436,0.0095648,1.68,-2.73,0.21,20.4094,-50.2847,-17.6158,1023.28
215354,0.45911,9.85653,-0.162602,1.75,-2.66,0.28,21.5135,-49.2669,-18.99,1023.29
215360,0.401722,9.84218,-0.0526064,1.54,-2.66,0.49,21.6588,-50.7164,-18.724,1023.29
215366,0.473458,9.80392,0,1.54,-2.66,0.56,20.9324,-50.4389,-17.7783,1023.3
215372,0.454328,9.85653,-0.129125,1.26,-2.52,0.35,21.5135,-49.4212,-18.2807,1023.3
215378,0.35868,9.8374,0.0191296,1.54,-2.8,0.42,20.8162,-50.7781,-19.0934,1023.31
215384,0.530846,9.77044,0,2.1,-2.94,-0.14,22.2981,-51.1482,-18.99,1023.31
215390,0.516499,10.0096,-0.253467,0.63,-1.47,-0.35,21.6298,-49.7604,-18.4433,1023.29
215396,0.353898,9.79914,-0.0095648,0.28,-2.1,-0.07,21.3392,-49.7912,-19.4333,1023.29
215402,0.430416,9.7561,-0.0143472,1.89,-1.96,-0.7,20.8452,-50.4389,-18.9013,1023.3
215408,0.349115,9.83261,-0.0573888,1.68,-2.45,-0.49,21.5426,-50.4389,-19.0196,1023.3
215414,0.430416,9.79436,-0.11956,1.26,-2.03,-0.07,20.7871,-49.1744,-18.1034,1023.3
215420,0.406504,9.81827,-0.0526064,1.26,-2.52,-0.35,21.4264,-50.5622,-18.6945,1023.32
215426,0.396939,9.80392,-0.0669536,1.33,-2.45,-0.28,20.9034,-50.1305,-18.7979,1023.32
215432,0.392157,9.80392,-0.023912,1.61,-2.52,-0.28,21.8913,-49.5445,-18.7979,1023.29
215438,0.396939,9.82783,-0.0430416,1.47,-2.52,0.28,21.5135,-49.8221,-18.1034,1023.29
215444,0.439981,9.80392,-0.095648,1.89,-2.8,0.35,21.4264,-50.3772,-18.8127,1023.31
215450,0.416069,9.81349,-0.0382592,1.4,-3.08,0.07,21.6007,-49.7604,-17.7931,1023.31
215456,0.483022,9.78479,-0.0860832,1.82,-2.45,0.21,21.252,-49.7604,-18.0739,1023.27
215462,0.411286,9.85174,-0.0860832,1.61,-2.38,0.28,21.3683,-50.994,-18.0591,1023.27
215468,0.435198,9.84218,-0.071736,1.33,-2.31,0.07,21.3392,-50.0379,-18.7536,1023.27
215474,0.406504,9.79914,-0.0334768,1.68,-2.38,0,21.3683,-49.6679,-19.3594,1023.35
215480,0.411286,9.8087,-0.0430416,1.75,-2.38,0.84,21.2811,-49.3286,-16.8031,1023.35
215486,0.430416,9.81827,-0.047824,1.54,-2.73,0.21,21.0196,-50.0071,-18.7831,1023.29
215492,0.416069,9.8374,-0.0669536,1.75,-2.66,-0.35,21.3973,-49.5445,-17.7636,1023.29
215498,0.416069,9.79914,-0.095648,1.26,-2.94,0.07,21.3973,-50.2538,-17.5715,1023.3
215504,0.411286,9.81827,-0.047824,1.82,-2.87,-0.35,22.24,-50.2847,-18.3103,1023.3
215510,0.463893,9.85174,-0.0669536,1.75,-2.24,0.49,21.4845,-49.7295,-18.6354,1023.31
215516,0.454328,9.86131,-0.11956,1.12,-2.38,0.28,20.9324,-48.8969,-20.2017,1023.31
215522,0.492587,9.81827,-0.0813008,1.47,-2.24,-0.42,21.6298,-50.5931,-18.2807,1023.31
215528,0.463893,9.85653,-0.0669536,1.05,-2.59,-0.21,21.5717,-50.2538,-18.7536,1023.3
215534,0.430416,9.8087,-0.0765184,1.19,-2.73,0.28,20.6418,-50.0071,-19.8914,1023.3
215540,0.420851,9.82783,-0.0765184,1.33,-1.68,-0.14,21.0486,-50.0071,-18.0886,1023.32
215546,0.411286,9.81827,-0.0526064,1.19,-2.17,-0.49,21.8332,-50.2847,-17.5715,1023.32
215552,0.411286,9.80392,-0.047824,1.96,-2.87,-0.28,21.3101,-49.7295,-17.5715,1023.3
215558,0.411286,9.82305,-0.0526064,1.89,-2.73,0.49,21.6007,-49.5753,-19.4333,1023.3
215564,0.449546,9.86131,-0.13869,1.19,-2.24,0.42,21.5426,-50.8089,-17.9704,1023.29
215570,0.396939,9.82783,-0.0621712,1.12,-2.8,0.28,20.6709,-49.9763,-20.4233,1023.29
215576,0.444763,9.80392,-0.0334768,2.17,-2.31,-0.14,21.252,-49.2669,-19.4924,1023.3
215582,0.401722,9.84218,-0.0382592,1.54,-2.66,0.07,20.9905,-50.3463,-17.5862,1023.3
215588,0.45911,9.79436,-0.0573888,1.68,-2.52,0.56,21.0486,-50.408,-18.5024,1023.3
215594,0.439981,9.83261,-0.071736,1.68,-2.31,0.63,21.5135,-50.0688,-18.591,1023.29
215600,0.396939,9.84696,-0.0765184,1.61,-2.52,-0.21,21.746,-50.5314,-18.8718,1023.29
215606,0.411286,9.81827,-0.0621712,1.89,-2.52,0.28,21.5426,-50.1305,-18.8127,1023.3
215612,0.401722,9.82305,-0.0860832,1.61,-2.8,0.56,21.0777,-49.4828,-19.4481,1023.3
215618,0.425634,9.84218,-0.0765184,1.89,-2.73,-0.07,21.9494,-50.0071,-19.256,1023.3
215624,0.45911,9.81349,-0.10043,1.54,-2.87,-0.07,20.9905,-50.1305,-18.6945,1023.3
215630,0.382592,9.84218,-0.071736,1.82,-2.66,0,21.252,-49.5445,-18.724,1023.32
215636,0.425634,9.82305,-0.0765184,1.12,-2.66,0.21,21.0486,-49.4828,-18.9457,1023.32
215642,0.45911,9.79436,-0.105213,1.68,-2.66,0.42,22.0947,-50.5005,-17.8522,1023.32
215648,0.416069,9.88522,-0.0813008,1.4,-2.31,0.42,21.8913,-50.4697,-18.9457,1023.32
215654,0.439981,9.78001,-0.0621712,1.19,-2.1,-0.14,21.9785,-48.9586,-18.5467,1023.32
215660,0.435198,9.80392,0.0095648,1.54,-2.03,-0.14,21.4264,-49.7295,-17.9261,1023.32
215666,0.468675,9.86609,-0.133907,1.68,-2.59,-0.28,21.7169,-49.8529,-19.0343,1023.32
215672,0.468675,9.8374,-0.124342,1.12,-2.31,-0.21,20.8452,-49.5137,-19.4776,1023.33
215678,0.401722,9.82305,-0.0860832,1.19,-2.45,0,20.9324,-50.0996,-19.2708,1023.33
215684,0.420851,9.83261,-0.0430416,1.47,-2.38,0.42,20.5837,-49.9146,-17.9852,1023.3
215690,0.430416,9.79914,-0.0526064,1.61,-2.66,-0.42,21.0777,-50.3463,-18.7831,1023.3
215696,0.411286,9.82783,-0.0621712,1.26,-2.31,17.64,22.0075,-49.7912,-18.2955,1023.3
215702,0.425634,9.86131,-0.0765184,1.4,-2.52,-0.07,20.5547,-50.4389,-17.7045,1023.31
215708,0.416069,9.8374,-0.071736,1.54,-2.1,0.07,21.6007,-49.9763,-17.9852,1023.31
215714,0.392157,9.82305,-0.0813008,1.75,-2.73,0.21,21.6588,-49.3903,-19.1969,1023.32
215720,0.425634,9.81827,-0.0908656,1.89,-3.15,-0.07,21.0486,-50.6239,-19.5367,1023.32
215726,0.396939,9.79914,-0.0334768,1.4,-2.38,0.21,21.9785,-50.1921,-18.8275,1023.31
215732,0.387374,9.85174,-0.114778,1.89,-2.45,0.49,21.223,-49.2361,-18.99,1023.31
215738,0.416069,9.84696,-0.11956,1.47,-2.24,0,21.3683,-50.0688,-20.0391,1023.31
215744,0.439981,9.84696,-0.0382592,1.4,-2.8,0.35,21.1939,-50.7164,-19.3446,1023.31
215750,0.435198,9.86609,-0.0765184,1.82,-2.8,0.14,21.252,-50.0071,-19.6845,1023.3
215756,0.406504,9.84218,-0.0765184,1.47,-2.73,0.14,20.8452,-49.6679,-18.3398,1023.3
215762,0.401722,9.81349,-0.0621712,1.33,-2.03,0.21,21.3973,-50.3463,-18.6797,1023.3
215768,0.406504,9.8374,-0.0621712,1.54,-2.52,0.21,20.9615,-49.6987,-19.389,1023.32
215774,0.444763,9.8087,-0.0765184,1.47,-2.03,0,20.8162,-49.6062,-19.8175,1023.32
215780,0.411286,9.81349,-0.047824,1.61,-2.59,0.21,20.7581,-50.6856,-18.8127,1023.32
215786,0.382592,9.83261,-0.0526064,1.54,-2.87,0.28,21.252,-50.3463,-19.0491,1023.32
215792,0.439981,9.83261,-0.10043,1.68,-2.73,-0.07,20.5547,-50.0379,-18.7536,1023.32
215798,0.406504,9.8374,-0.0430416,1.33,-2.87,0.21,20.8743,-50.0688,-18.591,1023.32
215804,0.435198,9.86131,-0.109995,1.75,-3.01,0.35,21.3101,-50.5622,-18.5763,1023.33
215810,0.425634,9.8374,-0.0669536,1.82,-3.01,-0.07,21.1939,-49.637,-19.3742,1023.33
215816,0.416069,9.84218,-0.0430416,1.61,-2.8,0.21,21.5717,-49.0819,-19.6697,1023.33
215822,0.449546,9.82305,-0.0669536,1.68,-2.52,0.42,21.0486,-50.5622,-18.133,1023.3
215828,0.444763,9.85174,-0.095648,1.4,-2.24,0,21.0486,-49.7912,-18.7979,1023.3
215834,0.420851,9.79914,-0.0813008,1.33,-2.45,0.42,21.0486,-49.2978,-19.123,1023.3
215840,0.439981,9.86609,-0.0908656,1.89,-2.66,-0.28,21.0777,-50.3772,-17.8227,1023.3
215846,0.439981,9.81827,-0.095648,0.98,-2.31,-0.28,21.4554,-50.3463,-17.8079,1023.3
215852,0.406504,9.78957,-0.0573888,1.68,-2.45,0.21,20.7,-49.6987,-19.1525,1023.3
215858,0.387374,9.79436,-0.0382592,1.4,-2.31,0.28,20.6418,-49.9454,-18.724,1023.29
215864,0.425634,9.81349,-0.0573888,1.54,-2.1,-0.14,20.8452,-50.5622,-17.7045,1023.29
215870,0.396939,9.81349,-0.0765184,1.4,-2.52,0.49,21.2811,-49.6062,-18.3989,1023.29
215876,0.425634,9.84218,-0.114778,1.68,-2.45,0.14,20.5256,-50.1305,-18.6797,1023.34
215882,0.416069,9.84218,-0.071736,1.33,-2.38,0.28,21.252,-50.8706,-17.6158,1023.34
215888,0.401722,9.87087,-0.071736,1.47,-2.45,-0.07,20.9905,-50.1921,-19.0934,1023.3
215894,0.439981,9.8087,-0.071736,1.54,-2.73,0,21.1067,-49.0819,-19.5367,1023.3
215900,0.416069,9.80392,-0.047824,1.33,-2.45,0.07,21.4264,-49.4212,-18.0148,1023.3
215906,0.416069,9.84696,-0.095648,2.03,-2.45,-0.21,21.7169,-49.6987,-17.2464,1023.3
215912,0.406504,9.82783,-0.095648,1.4,-2.66,0.14,21.3683,-49.3286,-19.8914,1023.3
215918,0.420851,9.8087,-0.0813008,1.75,-2.59,0.49,21.8622,-49.4828,-18.724,1023.3
215924,0.420851,9.83261,-0.0765184,1.4,-2.45,0,21.1067,-50.5314,-18.5615,1023.36
215930,0.420851,9.8374,-0.095648,1.19,-2.24,0,21.252,-50.3155,-18.724,1023.36
215936,0.416069,9.85653,-0.095648,1.4,-2.52,0.42,20.9034,-49.5137,-18.0295,1023.36
215942,0.416069,9.84218,-0.071736,1.4,-2.31,0,20.6418,-50.6239,-18.9013,1023.31
215948,0.444763,9.85174,-0.0669536,1.54,-2.45,-0.28,21.6298,-49.9146,-18.7388,1023.31
215954,0.406504,9.82305,-0.0669536,1.4,-2.52,0.7,20.9905,-49.8221,-18.3842,1023.31
215960,0.420851,9.80392,-0.0382592,1.54,-2.87,0.49,21.1067,-50.6239,-18.5319,1023.31
215966,0.444763,9.81349,-0.0526064,1.75,-2.66,17.57,21.1067,-50.1613,-17.3794,1023.3
215972,0.411286,9.86131,-0.0765184,1.54,-2.31,-0.21,21.0486,-50.0071,-19.3299,1023.3
215978,0.454328,9.87087,-0.105213,1.26,-2.52,-0.07,21.4264,-49.6987,-18.6945,1023.34
215984,0.396939,9.81349,-0.0430416,1.54,-2.73,0.28,21.4264,-50.5314,-17.3203,1023.34
215990,0.435198,9.82305,-0.0621712,1.82,-3.08,0.07,20.7871,-50.7164,-19.714,1023.34
215996,0.396939,9.81349,-0.0813008,1.68,-3.01,-0.14,21.0777,-50.1921,-19.4924,1023.31
216002,0.425634,9.81349,-0.0860832,1.47,-2.94,0.21,21.5135,-50.3463,-18.7831,1023.31
216008,0.387374,9.82783,-0.0621712,1.75,-2.59,0.28,21.2811,-50.9015,-19.7288,1023.31
216014,0.435198,9.84218,-0.0813008,1.54,-2.38,0.14,20.5547,-49.6062,-18.9752,1023.31
216020,0.411286,9.88522,-0.095648,1.4,-2.38,0.07,21.0196,-50.0379,-18.4876,1023.31
216026,0.406504,9.81827,-0.0908656,1.54,-2.87,0.14,20.5837,-50.7164,-16.9509,1023.31
216032,0.449546,9.81827,-0.0573888,1.61,-2.52,0.21,21.1067,-50.2847,-18.6058,1023.28
216038,0.392157,9.81349,-0.0669536,1.68,-2.52,0.28,21.5426,-50.6239,-18.7536,1023.28
216044,0.411286,9.83261,-0.0765184,1.33,-2.87,0.07,21.3392,-50.8398,-17.734,1023.28
216050,0.416069,9.84218,-0.11956,1.82,-2.73,0,20.4384,-50.0688,-20.2017,1023.32
216056,0.435198,9.78001,-0.0573888,1.61,-2.52,0.77,21.0777,-49.8221,-19.6993,1023.32
216062,0.406504,9.8087,-0.0526064,1.33,-2.66,0.14,21.4845,-50.7164,-18.6649,1023.3
216068,0.435198,9.78001,-0.0621712,1.33,-2.94,0.28,21.5426,-50.408,-17.4828,1023.3
216074,0.454328,9.8374,-0.0765184,1.47,-2.31,0.21,21.5135,-50.0379,-19.714,1023.29
216080,0.420851,9.82783,-0.0334768,1.47,-2.1,0.21,21.1939,-50.5931,-18.2068,1023.29
216086,0.439981,9.81349,-0.0860832,1.19,-2.31,0,22.1818,-50.8089,-17.2021,1023.3
216092,0.435198,9.84696,-0.0813008,1.61,-2.66,-0.14,20.8162,-50.5622,-19.5367,1023.3
216098,0.454328,9.81827,-0.071736,1.33,-2.24,-0.28,20.9615,-50.2538,-19.0934,1023.31
216104,0.425634,9.81827,-0.0573888,1.12,-2.38,0.14,21.6007,-50.4697,-17.7931,1023.31
216110,0.420851,9.79436,-0.0430416,0.98,-2.52,0.21,21.7169,-50.5622,-18.2512,1023.31
216116,0.420851,9.79914,-0.095648,1.75,-2.38,0.42,21.1649,-50.0379,-19.0787,1023.31
216122,0.401722,9.8087,-0.047824,1.68,-2.66,-0.14,21.5135,-51.4257,-18.5615,1023.31
216128,0.406504,9.82305,-0.0908656,1.61,-2.73,-0.14,21.252,-49.8529,-18.9457,1023.32
216134,0.416069,9.84218,-0.0621712,1.05,-2.45,0.7,21.1358,-49.9454,-18.7979,1023.32
216140,0.420851,9.8087,-0.105213,1.47,-2.66,0.56,21.6879,-50.0071,-18.4728,1023.29
216146,0.396939,9.84218,-0.0669536,1.33,-2.73,0.07,21.4554,-50.3463,-18.724,1023.29
216152,0.425634,9.83261,-0.0669536,1.75,-2.8,0.35,21.3973,-50.223,-19.9948,1023.3
216158,0.430416,9.86131,-0.105213,1.4,-2.59,0.21,21.3101,-50.1613,-18.0886,1023.3
216164,0.430416,9.82783,-0.11956,1.61,-2.45,0.21,21.4845,-50.7164,-19.6993,1023.3
216170,0.382592,9.78957,-0.047824,1.96,-2.73,0.56,20.9034,-50.2847,-19.2708,1023.31
216176,0.439981,9.78957,-0.0430416,1.47,-2.31,0.7,20.9324,-50.1613,-20.113,1023.31
216182,0.392157,9.81349,-0.0669536,1.4,-2.66,0,21.1358,-50.7164,-17.8374,1023.31
216188,0.449546,9.77044,0.0430416,1.4,-3.01,0.07,21.4264,-50.408,-18.6797,1023.31
216194,0.545194,9.88522,-0.229555,1.75,-1.96,0.28,20.5547,-50.408,-20.1278,1023.3
216200,0.406504,9.89479,-0.11956,0.84,-2.1,-0.07,21.8041,-50.7473,-18.7831,1023.3
216206,0.425634,9.78001,-0.0382592,1.61,-2.52,-0.42,21.5135,-50.223,-17.8227,1023.3
216212,0.373027,9.78479,-0.0047824,1.68,-2.45,0.35,21.5426,-49.7604,-18.6206,1023.3
216218,0.401722,9.85174,-0.148254,0.84,-2.38,0.56,20.5837,-49.4828,-18.6058,1023.3
216224,0.454328,9.81827,-0.0669536,1.68,-2.38,-0.7,20.8452,-50.1613,-18.6058,1023.34
216230,0.411286,9.82305,-0.0621712,1.26,-2.59,0.07,20.8452,-49.8529,-18.6649,1023.34
216236,0.406504,9.78479,-0.0765184,1.68,-2.45,0.21,20.6128,-49.2053,-18.2512,1023.35
216242,0.430416,9.78001,-0.071736,1.89,-2.45,0.49,20.9905,-49.4212,-17.3794,1023.35
216248,0.45911,9.91392,-0.224773,1.54,-2.31,0.14,21.1649,-49.8221,-18.3103,1023.33
216254,0.435198,9.84696,-0.10043,1.12,-2.03,-0.14,21.6588,-49.452,-18.4285,1023.33
216260,0.37781,9.77523,-0.0334768,1.89,-2.31,-0.14,21.2811,-50.5005,-19.1525,1023.3
216266,0.401722,9.82305,-0.0095648,1.47,-2.59,0.07,21.6588,-50.5931,-19.8175,1023.3
216272,0.396939,9.84218,-0.0813008,1.54,-3.08,0.56,21.0196,-49.4828,-18.6649,1023.3
216278,0.416069,9.81349,-0.114778,1.54,-2.24,0.35,20.7871,-49.9146,-18.5467,1023.3
216284,0.401722,9.82783,-0.0621712,1.19,-2.73,0.21,21.3101,-50.3155,-18,1023.3
216290,0.416069,9.8087,-0.0765184,1.68,-2.59,0.35,21.9203,-50.4389,-19.6254,1023.3
216296,0.411286,9.85174,-0.109995,1.61,-2.66,0.14,20.2641,-51.3949,-20.2755,1023.3
216302,0.37781,9.8374,-0.109995,1.33,-2.66,17.43,21.2811,-50.6547,-19.7731,1023.32
216308,0.439981,9.81349,-0.047824,1.47,-2.59,0,21.1067,-50.1613,-18.2807,1023.32
216314,0.420851,9.80392,-0.0526064,1.47,-2.59,0.07,20.5837,-49.6987,-17.867,1023.29
216320,0.439981,9.81827,-0.0765184,1.4,-2.59,0.35,21.5135,-50.5622,-18.4876,1023.29
216326,0.454328,9.84218,-0.105213,1.47,-2.24,0.21,21.0196,-49.9454,-19.1673,1023.27
216332,0.416069,9.8374,-0.071736,1.26,-2.59,-0.35,21.4845,-49.7912,-19.1821,1023.27
216338,0.439981,9.83261,-0.0765184,1.82,-2.66,0.14,21.0486,-49.9454,-19.3151,1023.27
216344,0.435198,9.81349,-0.0526064,1.47,-2.03,0.35,21.3683,-50.8398,-18.8866,1023.3
216350,0.416069,9.81349,-0.0669536,1.47,-2.38,-0.21,21.223,-49.0511,-19.5072,1023.3
216356,0.401722,9.82305,-0.0813008,1.68,-2.59,-0.49,20.7871,-49.7912,-18.3842,1023.32
216362,0.416069,9.81827,-0.0621712,1.54,-2.66,0,21.3973,-50.0996,-19.2116,1023.32
216368,0.420851,9.79436,-0.0765184,1.4,-2.24,0.07,21.6588,-50.0996,-18.0148,1023.33
216374,0.392157,9.82783,-0.0765184,1.47,-2.17,0.28,20.9615,-49.6987,-20.0243,1023.33
216380,0.416069,9.78957,-0.071736,1.47,-2.45,-0.07,21.746,-50.6547,-18.3103,1023.3
216386,0.382592,9.79914,-0.0382592,1.75,-2.59,0.14,20.9615,-50.6547,-19.0048,1023.3
216392,0.396939,9.84696,-0.0908656,1.61,-2.8,0.07,20.9324,-50.223,-19.5515,1023.3
216398,0.444763,9.83261,-0.0908656,1.82,-2.66,0.42,21.6298,-50.1305,-17.4385,1023.3
216404,0.406504,9.86131,-0.0669536,1.82,-2.8,-0.07,21.252,-50.8398,-18.9309,1023.3
216410,0.439981,9.8374,-0.0908656,1.68,-2.24,0.07,21.223,-50.408,-18.6649,1023.3
216416,0.416069,9.81827,-0.047824,1.4,-2.17,0.56,21.6007,-50.3772,-18.1921,1023.3
216422,0.37781,9.8087,-0.0669536,1.33,-2.8,0.07,21.6298,-51.0248,-17.3055,1023.34
216428,0.435198,9.79436,-0.0621712,1.54,-2.87,-0.28,21.3973,-49.8837,-18.4137,1023.34
216434,0.463893,9.8087,-0.148254,1.89,-2.73,0.21,20.6418,-50.6856,-18.3398,1023.3
216440,0.430416,9.88522,-0.0765184,0.91,-2.87,-0.21,21.5426,-50.3463,-18.1773,1023.3
216446,0.454328,9.8374,-0.11956,1.19,-2.73,0.07,21.8041,-50.7781,-18.4433,1023.3
216452,0.454328,9.8374,-0.105213,1.47,-2.38,0,21.4554,-49.3595,-17.6306,1023.31
216458,0.411286,9.8087,-0.10043,1.47,-2.52,-0.07,21.2811,-50.7164,-17.9261,1023.31
216464,0.37781,9.78479,-0.0334768,1.47,-2.45,0,21.1067,-50.6547,-17.7636,1023.34
216470,0.444763,9.80392,-0.0430416,1.75,-2.73,0.28,21.3392,-50.8398,-19.389,1023.34
216476,0.473458,9.81827,-0.105213,1.19,-2.38,-0.28,21.6298,-50.3463,-18.6206,1023.29
216482,0.425634,9.81827,-0.0813008,1.19,-2.45,-0.49,21.3392,-50.8706,-18.3989,1023.29
216488,0.416069,9.81827,-0.0382592,1.4,-2.8,-0.07,21.8622,-50.2847,-17.8818,1023.32
216494,0.430416,9.75131,-0.0765184,1.96,-2.94,0.21,21.6298,-49.9146,-19.0934,1023.32
216500,0.483022,9.91392,-0.210426,1.05,-2.17,-0.28,21.746,-50.223,-19.5072,1023.33
216506,0.363462,9.82783,-0.0765184,1.05,-2.8,0.07,21.3973,-50.2538,-18.3546,1023.33
216512,0.387374,9.77044,0.0191296,1.54,-2.31,-0.21,21.6298,-50.1613,-18.4728,1023.33
216518,0.396939,9.83261,-0.0191296,1.82,-2.8,-0.35,21.8913,-50.408,-18.3546,1023.32
216524,0.401722,9.82305,-0.0669536,1.61,-2.59,0.35,22.0656,-51.179,-17.7636,1023.32
216530,0.425634,9.8374,-0.0621712,1.61,-2.8,-0.14,21.7751,-49.9763,-18.6649,1023.28
216536,0.387374,9.81349,-0.0526064,1.68,-2.73,0.21,21.5135,-50.1613,-19.0048,1023.28
216542,0.430416,9.81349,-0.071736,1.68,-2.45,0.21,21.6879,-51.0248,-18.2068,1023.34
216548,0.430416,9.82783,-0.0430416,1.26,-2.8,0.07,21.3973,-50.7473,-18.2216,1023.34
216554,0.439981,9.83261,-0.105213,1.82,-2.31,-0.07,21.3973,-49.7604,-19.2412,1023.31
216560,0.411286,9.82783,-0.095648,1.54,-2.31,-0.07,21.6007,-50.5005,-18.3398,1023.31
216566,0.411286,9.83261,-0.0573888,1.4,-2.52,0.28,21.4264,-50.994,-18.2807,1023.31
216572,0.396939,9.83261,-0.0573888,1.33,-2.45,0.42,21.7169,-50.2538,-19.1821,1023.3
216578,0.37781,9.82305,-0.10043,1.68,-2.59,0.49,21.5426,-49.5445,-18.8422,1023.3
216584,0.463893,9.75131,0.095648,1.68,-3.43,-0.14,21.4845,-50.8398,-18.3546,1023.3
216590,0.57867,9.84696,-0.215208,1.89,-2.17,0,21.0196,-50.408,-19.5219,1023.3
216596,0.401722,9.90913,-0.109995,0.91,-2.31,-0.28,21.9785,-50.0071,-18.9013,1023.3
216602,0.420851,9.75131,-0.0765184,1.4,-2.1,0,21.3101,-50.3463,-17.6306,1023.3
216608,0.373027,9.84218,-0.0573888,1.33,-2.03,-0.14,21.5717,-50.7781,-18.4728,1023.31
216614,0.396939,9.88522,-0.105213,1.54,-2.31,0.49,21.746,-49.452,-19.5367,1023.31
216620,0.463893,9.79914,0,1.61,-2.52,-0.28,21.3101,-50.1305,-17.1429,1023.31
216626,0.425634,9.87566,-0.11956,1.4,-2.31,-0.21,21.5426,-50.6547,-17.3646,1023.27
216632,0.416069,9.79914,-0.0382592,1.05,-2.59,0.21,21.4845,-49.1436,-19.847,1023.27
216638,0.416069,9.76566,-0.023912,2.03,-2.59,0.21,20.8743,-50.0996,-19.1525,1023.3
216644,0.406504,9.86609,-0.0813008,1.61,-2.31,0.28,21.8041,-49.6987,-18.3103,1023.3
216650,0.406504,9.81827,-0.0573888,1.47,-2.45,0.21,21.2811,-50.4697,-18.3989,1023.32
216656,0.349115,9.76088,-0.0191296,1.89,-3.15,0,21.1358,-50.223,-19.2264,1023.32
216662,0.444763,9.84696,-0.071736,1.82,-2.8,0.14,21.9785,-50.5314,-18.133,1023.3
216668,0.47824,9.87566,-0.21999,1.05,-2.24,0,21.3392,-50.7781,-18.0443,1023.3
216674,0.35868,9.78957,-0.0143472,1.12,-2.45,0.21,22.24,-49.452,-18.9604,1023.29
216680,0.368245,9.76088,0.0047824,1.75,-2.45,0.07,21.6879,-51.1173,-19.0343,1023.29
216686,0.416069,9.82305,-0.0669536,1.47,-2.94,0.42,20.9324,-49.8529,-18.0886,1023.29
216692,0.435198,9.84218,-0.0908656,1.54,-2.8,0.21,20.6128,-49.8837,-19.2708,1023.3
216698,0.420851,9.84218,-0.105213,1.54,-2.73,0,21.7751,-50.8706,-19.3594,1023.3
216704,0.483022,9.88044,-0.172166,1.05,-2.24,0.21,21.7169,-49.6987,-18.2955,1023.3
216710,0.406504,9.80392,-0.0143472,1.75,-2.45,-0.28,20.2641,-50.6239,-19.4628,1023.3
216716,0.382592,9.78957,-0.023912,1.68,-2.52,0.35,21.8913,-50.0379,-19.6254,1023.29
216722,0.411286,9.78957,-0.0765184,1.54,-2.45,0.35,20.6709,-50.4389,-18.9309,1023.29
216728,0.425634,9.81827,-0.0430416,1.61,-2.24,-0.35,21.1067,-50.2538,-19.1673,1023.33
216734,0.439981,9.84218,-0.143472,1.4,-2.52,-0.07,21.0777,-50.0996,-20.0835,1023.33
216740,0.439981,9.86131,-0.129125,1.12,-2.59,0.42,21.3683,-49.9763,-18.9457,1023.33
216746,0.401722,9.80392,-0.0526064,1.4,-2.38,-0.07,21.1649,-50.0071,-18.5319,1023.33
216752,0.368245,9.8374,0.0143472,1.4,-2.73,-0.14,21.223,-49.8837,-19.7584,1023.33
216758,0.401722,9.79914,-0.0573888,1.4,-2.31,0.49,21.8622,-50.2847,-18.3251,1023.28
216764,0.387374,9.8087,-0.047824,1.54,-2.45,0.07,21.4264,-50.3772,-18.266,1023.28
216770,0.425634,9.84696,-0.0765184,1.47,-2.45,-0.07,21.9203,-49.4212,-19.2116,1023.3
216776,0.396939,9.82305,-0.0813008,1.26,-2.38,0.07,20.9905,-50.2847,-19.6254,1023.3
216782,0.387374,9.8087,-0.0095648,1.68,-2.66,-0.07,21.1649,-50.4697,-17.3941,1023.32
216788,0.430416,9.85653,-0.114778,1.61,-2.94,0.28,21.9494,-49.8221,-18.9161,1023.32
216794,0.449546,9.8374,-0.133907,1.33,-2.38,0,21.7751,-49.9763,-19.6254,1023.32
216800,0.396939,9.80392,-0.023912,1.4,-2.31,-0.07,21.4264,-50.6547,-18.5319,1023.28
216806,0.411286,9.81827,-0.0430416,1.68,-3.01,0.07,21.4554,-49.8221,-18.1034,1023.28
216812,0.425634,9.81827,-0.0621712,1.47,-2.1,0.14,20.1479,-50.8398,-20.2608,1023.27
216818,0.420851,9.86131,-0.0669536,1.26,-2.17,0.14,22.0075,-49.9454,-19.1969,1023.27
216824,0.406504,9.8374,-0.0573888,1.75,-2.8,0,21.3101,-50.408,-17.9852,1023.3
216830,0.382592,9.79914,-0.0669536,1.82,-2.66,0.07,21.223,-49.8529,-18.8127,1023.3
216836,0.425634,9.85653,-0.109995,1.19,-2.45,-0.21,21.3392,-49.6679,-18.9457,1023.29
216842,0.416069,9.85174,-0.114778,1.54,-2.52,0.21,21.8622,-49.9763,-18.266,1023.29
216848,0.435198,9.8374,-0.095648,1.12,-2.31,-0.35,21.1649,-49.6987,-18.1034,1023.3
216854,0.396939,9.84218,-0.023912,1.54,-2.31,-0.35,21.7169,-49.3595,-19.1673,1023.3
216860,0.382592,9.83261,-0.0526064,1.33,-2.8,0.07,21.0196,-50.5931,-18.4876,1023.3
216866,0.439981,9.96174,-0.162602,0.7,-2.31,0,21.223,-49.8529,-18.2068,1023.3
216872,0.310856,9.6748,0.071736,1.82,-3.29,-0.28,21.0777,-49.6987,-19.6549,1023.3
216878,0.449546,9.73218,-0.0813008,1.89,-2.1,0.42,20.8162,-50.5622,-19.5515,1023.3
216884,0.349115,9.85174,-0.0765184,1.12,-2.38,-0.14,22.2109,-50.4389,-18.6354,1023.3
216890,0.45911,9.81349,-0.0526064,1.75,-2.45,-0.56,21.2811,-49.2361,-18.1625,1023.31
216896,0.363462,9.81827,-0.0286944,1.96,-2.87,0.28,21.0777,-49.452,-19.6549,1023.31
216902,0.401722,9.80392,-0.0191296,1.33,-2.38,0.07,21.1067,-50.4389,-18.3103,1023.32
