Timestamp,AccX,AccY,AccZ,AngularVelX,AngularVelY,AngularVelZ,MagX,MagY,MagZ,AirPressure
18512,0.511717,9.81349,0.0095648,1.82,-2.87,0.21,21.0777,-50.5314,-18.1034,1023.37
18518,0.487805,9.81827,-0.0286944,1.54,-2.66,0,21.8332,-50.9323,-17.468,1023.33
18524,0.530846,9.82783,-0.0191296,1.54,-2.45,0.21,21.8041,-50.4389,-18.4433,1023.33
18530,0.506934,9.84218,0,1.75,-2.8,-0.07,22.0656,-50.3463,-18.0443,1023.41
18536,0.516499,9.79914,-0.023912,1.54,-2.52,0.14,22.5015,-50.5931,-17.734,1023.41
18542,0.506934,9.82305,0.0191296,1.75,-2.59,0.14,21.3973,-50.5622,-18.2216,1023.41
18548,0.468675,9.81349,-0.0191296,1.47,-2.59,0.21,21.5135,-49.9146,-17.4533,1023.33
18554,0.511717,9.82305,-0.0095648,1.89,-2.66,0.21,21.4845,-49.9454,-17.1873,1023.33
18560,0.49737,9.85174,-0.0430416,0.98,-2.66,0.14,21.8041,-50.1613,-17.9261,1023.38
18566,0.530846,9.8087,0.0095648,1.96,-2.8,-0.07,21.5426,-50.408,-17.6897,1023.38
18572,0.506934,9.79436,-0.0095648,1.68,-2.73,-0.14,22.0656,-50.6856,-17.8079,1023.37
18578,0.492587,9.83261,-0.0095648,1.82,-2.87,0,21.9203,-50.223,-17.468,1023.37
18584,0.49737,9.81827,-0.0095648,1.33,-2.66,0.07,21.7751,-49.4212,-17.1873,1023.38
18590,0.492587,9.82305,0,1.61,-2.31,0.14,22.1818,-50.223,-17.9704,1023.38
18596,0.502152,9.81349,0.0095648,1.47,-2.66,0.21,22.269,-51.0557,-18.3694,1023.38
18602,0.49737,9.81349,0.0143472,1.61,-2.45,17.85,22.4724,-49.9763,-18.1625,1023.36
18608,0.483022,9.8087,-0.0191296,1.47,-2.66,-0.28,22.7049,-50.0379,-19.6549,1023.36
18614,0.49737,9.83261,0.0430416,1.4,-2.52,0.35,21.1067,-49.7295,-16.877,1023.37
18620,0.492587,9.81827,-0.0095648,1.54,-2.52,0.21,21.8332,-50.4697,-17.4385,1023.37
18626,0.506934,9.81827,0.0143472,1.4,-2.87,0.28,22.2109,-49.8221,-18.3989,1023.4
18632,0.521282,9.85174,-0.0143472,1.4,-2.45,0.21,21.6879,-50.6547,-18.2216,1023.4
18638,0.492587,9.82783,-0.0095648,1.26,-2.59,-0.07,21.5426,-50.1305,-18.0148,1023.36
18644,0.506934,9.81827,-0.0143472,1.75,-2.94,0.14,21.252,-50.3463,-18.3103,1023.36
18650,0.502152,9.84218,-0.0191296,1.05,-2.59,0,21.9785,-50.4697,-18.5172,1023.36
18656,0.516499,9.8374,-0.0191296,1.54,-2.38,0,22.0075,-50.4697,-16.6849,1023.35
18662,0.521282,9.78957,-0.0430416,1.68,-2.38,-0.07,22.269,-50.0996,-17.6453,1023.35
18668,0.511717,9.80392,-0.0047824,1.19,-1.96,0.35,21.252,-50.6239,-18.6501,1023.37
18674,0.535629,9.81349,0.0095648,1.75,-2.8,0.07,21.5135,-50.3463,-18.0886,1023.37
18680,0.530846,9.8087,-0.0143472,1.26,-2.03,-0.35,21.4554,-49.1436,-18.3103,1023.37
18686,0.468675,9.82783,0.0047824,1.33,-2.03,-0.14,21.6298,-49.5445,-18.2216,1023.37
18692,0.49737,9.81349,0.0143472,1.54,-2.59,0.14,21.1358,-50.6239,-17.1725,1023.35
18698,0.492587,9.83261,0.0095648,1.26,-2.17,0.07,21.7169,-50.1305,-17.5124,1023.35
18704,0.521282,9.84218,0.0047824,1.82,-2.66,0.35,21.4845,-50.5005,-18.9013,1023.38
18710,0.511717,9.8087,-0.0047824,1.47,-2.8,-0.07,21.5717,-50.1613,-17.1134,1023.38
18716,0.506934,9.79914,0.0047824,1.68,-2.31,0.21,22.0656,-50.0996,-17.7045,1023.38
18722,0.468675,9.84218,-0.0095648,1.26,-2.1,0.07,21.8622,-49.9146,-18.5763,1023.38
18728,0.49737,9.81349,0.0143472,1.75,-2.31,0.07,21.8332,-49.9454,-17.3646,1023.38
18734,0.516499,9.8374,-0.0047824,1.54,-2.59,-0.07,22.8211,-51.2099,-18.7092,1023.39
18740,0.506934,9.81827,-0.0095648,1.47,-2.59,0.14,22.0947,-50.0379,-18.9752,1023.39
18746,0.483022,9.83261,-0.0095648,1.47,-2.59,0.14,22.1237,-49.7604,-18.6206,1023.35
18752,0.502152,9.78001,-0.0095648,1.61,-2.59,-0.14,22.1528,-50.8089,-18.8275,1023.35
18758,0.535629,9.84696,0,1.68,-2.45,0.42,22.4143,-50.4697,-18.2807,1023.36
18764,0.492587,9.81827,-0.0047824,1.47,-2.38,0,22.1528,-49.5753,-19.3446,1023.36
18770,0.47824,9.82783,-0.0143472,1.54,-3.22,0.21,21.6007,-50.8398,-19.0787,1023.36
18776,0.492587,9.81827,-0.0191296,1.75,-3.01,0.07,21.9494,-50.8089,-17.3646,1023.38
18782,0.49737,9.82783,0,1.54,-2.59,0.35,21.2811,-49.8837,-19.8175,1023.38
18788,0.521282,9.8374,-0.0191296,1.26,-2.52,0.42,21.6588,-49.7912,-17.9556,1023.37
18794,0.49737,9.84218,-0.0334768,1.47,-2.31,0,21.7751,-50.0071,-18.7092,1023.37
18800,0.516499,9.82783,-0.023912,1.75,-2.73,-0.14,22.0656,-50.4389,-18.8275,1023.37
18806,0.47824,9.84218,-0.0095648,1.54,-2.31,0,22.6177,-49.7295,-18.9604,1023.37
18812,0.526064,9.81827,-0.0095648,1.4,-2.17,0.21,21.8332,-50.5314,-18.3103,1023.34
18818,0.487805,9.83261,-0.023912,1.75,-2.38,0.07,21.9785,-50.2538,-18.6206,1023.34
18824,0.47824,9.84696,0,1.47,-3.08,0.14,22.2109,-49.8529,-18.133,1023.34
18830,0.492587,9.82305,-0.0334768,1.68,-2.66,0.28,22.1528,-50.3463,-18.2512,1023.37
18836,0.521282,9.81349,0,1.47,-2.73,0,21.7169,-50.7164,-18.6058,1023.37
18842,0.49737,9.82305,-0.023912,1.68,-2.52,0.21,22.5305,-48.8352,-18.9013,1023.38
18848,0.492587,9.84218,0.0143472,1.33,-2.24,0.35,22.1237,-51.0557,-19.6697,1023.38
18854,0.492587,9.81349,-0.0095648,1.96,-2.73,0,22.5305,-50.5314,-18.3398,1023.38
18860,0.483022,9.79914,0,1.4,-2.31,0.35,21.2811,-49.7604,-18.5172,1023.38
18866,0.468675,9.81827,0.0191296,1.4,-2.8,0.14,21.5135,-50.0071,-19.5663,1023.38
18872,0.502152,9.82783,-0.0191296,1.75,-2.52,0.14,21.1939,-51.3332,-19.0048,1023.38
18878,0.506934,9.81827,-0.0286944,1.61,-2.73,0.07,21.6007,-50.4697,-18.2807,1023.35
18884,0.487805,9.8087,-0.0095648,1.19,-3.01,0.42,21.5426,-50.4697,-20.113,1023.35
18890,0.521282,9.85174,-0.0143472,1.75,-2.17,0.42,22.5886,-50.9015,-18.5467,1023.35
18896,0.473458,9.82305,0.0047824,1.47,-2.52,-0.14,22.0656,-50.5005,-18.2068,1023.39
18902,0.492587,9.79436,-0.0143472,1.54,-2.52,0.14,22.5886,-49.8221,-19.0048,1023.39
18908,0.502152,9.82783,-0.0191296,1.75,-3.01,0.35,22.0656,-50.7781,-17.1282,1023.36
18914,0.49737,9.83261,0,1.19,-2.03,0.07,21.8332,-50.6239,-17.6601,1023.36
18920,0.483022,9.82305,-0.0095648,1.68,-2.59,0.07,22.4143,-49.9454,-17.468,1023.36
18926,0.49737,9.80392,-0.0286944,1.33,-3.22,0.21,21.6007,-49.9763,-16.8326,1023.36
18932,0.49737,9.82305,-0.0382592,1.75,-2.59,0.14,22.3852,-51.2099,-18.266,1023.35
18938,0.526064,9.82305,0,1.61,-2.59,0.28,21.8622,-50.8089,-18,1023.35
18944,0.49737,9.83261,-0.0095648,1.82,-2.52,-0.21,21.3973,-50.5005,-18.5024,1023.35
18950,0.521282,9.84218,0.0047824,1.33,-2.45,0.35,21.252,-50.8706,-17.9409,1023.39
18956,0.511717,9.8374,0.0095648,1.68,-2.94,0.49,21.3973,-50.2538,-18.6206,1023.39
18962,0.49737,9.8374,-0.0047824,1.75,-3.15,-0.21,21.5717,-49.7604,-18.9752,1023.36
18968,0.511717,9.85174,-0.0095648,1.33,-2.24,0.07,21.9785,-50.0688,-18.133,1023.36
18974,0.506934,9.81827,-0.0047824,1.33,-2.38,0.35,21.252,-50.3463,-17.2759,1023.38
18980,0.535629,9.81827,0,1.61,-2.87,0,21.223,-49.9454,-18.3398,1023.38
18986,0.49737,9.81827,0.0143472,1.47,-2.52,0.14,22.0947,-49.0202,-19.8766,1023.38
18992,0.511717,9.8087,-0.0047824,1.89,-2.59,-0.07,21.3392,-49.6679,-18.458,1023.38
18998,0.502152,9.83261,-0.0286944,1.33,-2.17,0.21,22.24,-49.7912,-18.9161,1023.38
19004,0.506934,9.82783,0.0047824,1.61,-2.73,0.42,21.5426,-49.5137,-18.6354,1023.37
19010,0.502152,9.86131,0.0095648,1.61,-2.52,0.42,22.24,-49.8529,-18.7092,1023.37
19016,0.521282,9.83261,-0.0286944,1.26,-2.59,-0.14,22.1818,-50.7164,-19.2116,1023.36
19022,0.511717,9.79914,-0.0047824,1.61,-2.38,0.07,21.1939,-49.9146,-17.9113,1023.36
19028,0.516499,9.8087,-0.0191296,1.75,-2.45,0.35,21.8913,-50.2538,-18.1921,1023.35
19034,0.530846,9.81827,-0.023912,1.82,-2.59,0.07,21.9203,-50.3463,-17.1577,1023.35
19040,0.492587,9.82783,-0.0047824,1.33,-2.87,-0.07,21.3392,-49.9454,-18.5319,1023.37
19046,0.487805,9.82783,0.0143472,1.89,-3.15,0.49,21.5135,-49.2361,-18.8718,1023.37
19052,0.511717,9.81349,-0.023912,1.47,-2.66,0.35,21.4554,-50.3772,-18.6501,1023.36
19058,0.511717,9.81827,0,1.47,-2.52,-0.28,21.6007,-50.0996,-17.0838,1023.36
19064,0.506934,9.82783,-0.0191296,1.96,-2.8,0,21.6588,-49.8529,-18.4728,1023.36
19070,0.506934,9.82783,-0.0047824,1.26,-2.31,0.14,21.6879,-50.6856,-18.3694,1023.39
19076,0.49737,9.83261,-0.0047824,1.47,-2.45,0.28,22.6177,-50.3155,-18.3842,1023.39
19082,0.540411,9.82783,-0.0286944,1.4,-2.38,-0.14,22.2109,-50.0688,-18.7979,1023.36
19088,0.49737,9.81827,0.0143472,1.54,-3.22,0.28,21.7169,-50.6547,-18.4876,1023.36
19094,0.540411,9.79914,-0.0191296,1.89,-2.52,0.14,22.3271,-51.2099,-18.1182,1023.39
19100,0.492587,9.84218,0.0095648,1.4,-2.17,0.14,22.1237,-50.5314,-17.9261,1023.39
19106,0.530846,9.8374,-0.0047824,1.61,-2.8,0.14,22.2981,-50.1305,-18.591,1023.4
19112,0.521282,9.82783,-0.0095648,1.54,-2.73,-0.14,21.7751,-50.0996,-18.857,1023.4
19118,0.49737,9.82305,-0.0334768,1.4,-2.59,-0.14,22.4724,-50.0071,-17.8818,1023.4
19124,0.506934,9.79914,0.0143472,1.47,-2.24,0.21,21.9785,-49.5137,-18.2364,1023.36
19130,0.506934,9.83261,-0.0047824,1.47,-2.52,0,21.3101,-49.9454,-17.9556,1023.36
19136,0.521282,9.86131,-0.0143472,1.61,-2.66,-0.28,22.1818,-50.4389,-18.0148,1023.37
19142,0.506934,9.84696,-0.023912,1.75,-2.31,0,22.1818,-49.6062,-19.5219,1023.37
19148,0.49737,9.81827,-0.023912,1.26,-2.66,0.21,21.6879,-50.0379,-18.0739,1023.4
19154,0.49737,9.81349,0.0286944,1.61,-2.73,0.14,21.3101,-50.6239,-18.7684,1023.4
19160,0.483022,9.79436,-0.023912,1.68,-2.52,0.21,21.0196,-50.5931,-17.9852,1023.39
19166,0.49737,9.82305,0.0047824,1.47,-2.45,0.14,21.3392,-49.9763,-18.0295,1023.39
19172,0.49737,9.82783,0.0334768,1.75,-2.38,0.14,21.6879,-50.7473,-17.7045,1023.39
19178,0.49737,9.81349,0,1.75,-2.38,0.35,21.6298,-50.7781,-19.0196,1023.35
19184,0.521282,9.82305,0,1.54,-2.66,0.21,20.8162,-49.6679,-18.9309,1023.35
19190,0.511717,9.86131,-0.0095648,1.54,-2.59,-0.21,20.9905,-50.408,-18.2364,1023.38
19196,0.506934,9.80392,-0.0191296,1.61,-2.87,-0.14,21.1067,-50.4389,-17.0838,1023.38
19202,0.535629,9.81827,-0.0047824,1.47,-2.59,0.07,21.2811,-49.4212,-17.5567,1023.39
19208,0.516499,9.81349,0.0047824,1.47,-2.52,0.21,21.8332,-50.0379,-18.6797,1023.39
19214,0.530846,9.85653,-0.0286944,1.61,-2.73,0.14,21.6588,-51.1482,-18.0295,1023.4
19220,0.487805,9.81827,-0.0047824,1.05,-2.66,-0.14,21.4845,-50.1921,-17.8818,1023.4
19226,0.47824,9.84696,-0.0095648,1.54,-2.66,0.28,21.252,-50.0996,-18.458,1023.4
19232,0.47824,9.81349,0.0095648,1.61,-2.87,0.28,21.0196,-51.2099,-17.2759,1023.4
19238,0.49737,9.82783,0.0191296,1.61,-2.31,0.14,21.9785,-49.9146,-17.5567,1023.4
19244,0.511717,9.8087,0.0286944,1.26,-2.45,-0.07,21.5717,-49.4212,-18.3251,1023.38
19250,0.521282,9.83261,-0.0143472,1.82,-2.66,-0.14,21.3101,-50.408,-18.857,1023.38
19256,0.463893,9.79436,0.0095648,1.33,-2.73,0.07,21.6007,-50.7164,-18.4876,1023.35
19262,0.483022,9.82305,-0.0143472,1.68,-2.8,-0.21,21.4554,-49.6679,-17.3203,1023.35
19268,0.506934,9.83261,-0.0334768,1.4,-2.38,0.56,22.2109,-50.1921,-16.8622,1023.36
19274,0.516499,9.84696,-0.0430416,1.26,-2.45,0.28,21.4554,-51.1482,-16.8326,1023.36
19280,0.521282,9.82305,-0.0095648,1.75,-2.66,0.21,21.6879,-50.2847,-18.7684,1023.37
19286,0.502152,9.80392,0.0095648,1.47,-2.59,-0.07,20.7,-50.0071,-17.4385,1023.37
19292,0.492587,9.84696,-0.0143472,1.75,-2.73,0.07,21.252,-50.7164,-17.6453,1023.37
19298,0.511717,9.84696,0.0047824,0.91,-2.66,0.42,21.1067,-50.5931,-18.3989,1023.36
19304,0.511717,9.81349,0.0191296,1.47,-2.59,0.14,20.6128,-49.9146,-18.5615,1023.36
19310,0.47824,9.8087,0.0191296,1.68,-3.01,-0.21,21.1067,-50.5622,-18.4137,1023.4
19316,0.483022,9.79436,-0.0047824,1.75,-2.59,0.35,21.1358,-49.9146,-17.8522,1023.4
19322,0.545194,9.85174,-0.0047824,1.33,-2.31,0.28,21.5717,-49.4828,-17.9852,1023.33
19328,0.492587,9.81349,-0.0286944,1.54,-2.59,0.49,21.6298,-49.8837,-17.8374,1023.33
19334,0.49737,9.85653,0,1.61,-2.66,0.28,21.3101,-50.0996,-18,1023.37
19340,0.506934,9.82305,-0.023912,1.61,-2.52,0.14,21.3392,-49.7604,-18.3103,1023.37
19346,0.483022,9.8087,-0.0047824,1.54,-2.59,0.14,21.5135,-50.9631,-18.6206,1023.37
19352,0.502152,9.81349,0.0286944,1.61,-2.8,0.14,21.5426,-50.6856,-17.4385,1023.36
19358,0.516499,9.79436,-0.0191296,1.47,-2.59,0.14,21.3683,-50.2538,-18.0148,1023.36
19364,0.502152,9.82783,-0.0143472,1.54,-2.8,0.07,22.1528,-50.3463,-18.7979,1023.36
19370,0.49737,9.83261,0.0191296,1.75,-2.73,0.14,21.1358,-50.2847,-17.0543,1023.36
19376,0.516499,9.80392,0.0095648,1.61,-2.66,0.35,22.3562,-49.5753,-17.8079,1023.37
19382,0.502152,9.84218,-0.0095648,1.82,-2.8,0.21,21.4554,-49.6679,-17.9704,1023.37
19388,0.516499,9.81827,-0.0095648,1.54,-2.66,0.35,21.1358,-49.452,-18.3251,1023.38
19394,0.49737,9.78957,0,1.4,-2.66,0.28,22.4143,-51.1173,-17.2612,1023.38
19400,0.521282,9.8087,-0.023912,1.54,-3.08,0,21.223,-49.7912,-17.734,1023.38
19406,0.49737,9.8087,-0.0095648,1.61,-2.87,0.07,21.5135,-50.1613,-18.5172,1023.37
19412,0.530846,9.84696,-0.0143472,1.33,-2.31,0.14,21.5135,-50.5622,-17.7636,1023.37
19418,0.492587,9.79914,-0.0095648,1.47,-2.94,0.35,22.1528,-51.2715,-18.3103,1023.37
19424,0.516499,9.79914,0,1.26,-2.73,0.49,21.0486,-49.4212,-18.0591,1023.37
19430,0.49737,9.82783,-0.0095648,1.68,-2.66,0.14,21.1649,-50.5005,-18.5763,1023.37
19436,0.506934,9.82305,0.0095648,1.61,-2.45,0.42,21.2811,-50.1921,-17.7192,1023.37
19442,0.49737,9.82305,0,1.82,-2.59,0.35,21.7751,-49.8221,-19.6106,1023.39
19448,0.502152,9.81827,-0.0191296,1.75,-2.87,0,22.0366,-50.6547,-17.7931,1023.39
19454,0.487805,9.81827,-0.0382592,1.75,-2.66,0.28,22.4724,-49.9146,-17.5862,1023.39
19460,0.49737,9.81827,0.0047824,1.47,-2.38,0.14,21.3392,-49.9146,-18.4876,1023.39
19466,0.516499,9.84696,0.0095648,1.05,-2.31,0,21.5717,-50.3155,-17.8227,1023.39
19472,0.502152,9.81349,-0.0047824,1.89,-2.94,-0.14,21.7169,-50.3772,-16.6997,1023.38
19478,0.506934,9.81827,-0.0047824,1.68,-2.38,0.28,21.3101,-50.3155,-18.266,1023.38
19484,0.506934,9.82305,-0.023912,1.61,-2.66,0.28,21.9203,-50.0996,-19.2412,1023.34
19490,0.506934,9.82783,0.0191296,1.61,-2.8,0.49,22.7049,-50.1921,-18.458,1023.34
19496,0.49737,9.8087,-0.0430416,1.75,-2.8,0.49,22.7339,-50.4389,-16.3746,1023.34
19502,0.49737,9.83261,-0.0191296,1.75,-2.59,-0.28,22.8792,-49.5137,-18.4137,1023.34
19508,0.530846,9.83261,-0.0143472,1.54,-2.73,0.42,21.9203,-49.9454,-18.133,1023.4
19514,0.506934,9.84218,-0.0143472,1.82,-2.45,0.77,22.0947,-50.0688,-17.6158,1023.4
19520,0.49737,9.84218,0.0047824,1.54,-2.73,0,22.5596,-50.1613,-17.2612,1023.4
19526,0.521282,9.8087,0.0526064,1.47,-2.45,0.49,21.5717,-50.3155,-17.7636,1023.4
19532,0.516499,9.82305,0,1.68,-2.52,0.49,21.8332,-50.4697,-18.6206,1023.4
19538,0.530846,9.83261,-0.0095648,1.4,-2.45,-0.07,21.6007,-50.0379,-18.7388,1023.35
19544,0.483022,9.8087,-0.0143472,1.75,-2.59,0.21,21.4264,-49.9146,-17.8374,1023.35
19550,0.487805,9.79436,0.0095648,1.54,-2.31,0.07,21.746,-50.7473,-16.6405,1023.39
19556,0.49737,9.8374,-0.0095648,1.4,-2.24,0.35,21.8913,-50.6239,-17.2464,1023.39
19562,0.526064,9.81827,-0.0095648,1.33,-2.87,0,22.0075,-49.8837,-18.5467,1023.34
19568,0.516499,9.83261,0.0143472,1.54,-2.59,-0.21,22.2109,-50.5314,-18.4433,1023.34
19574,0.526064,9.83261,-0.023912,1.4,-2.52,-0.21,22.5015,-50.4697,-18.8718,1023.34
19580,0.516499,9.80392,-0.0095648,1.68,-2.59,0.49,21.3973,-50.408,-17.8374,1023.39
19586,0.483022,9.79436,0,1.68,-2.24,0.42,22.269,-49.3903,-17.9852,1023.39
19592,0.487805,9.85174,0.0334768,2.03,-3.08,0.07,22.2109,-50.6856,-18.1182,1023.37
19598,0.521282,9.82783,-0.0286944,1.33,-2.59,0.07,22.5015,-50.223,-19.0343,1023.37
19604,0.502152,9.79436,-0.0143472,1.47,-2.52,0.63,22.1237,-50.2847,-19.4776,1023.39
19610,0.521282,9.8087,0,1.4,-2.24,0.35,22.1818,-49.5753,-18.6354,1023.39
19616,0.492587,9.83261,0.0095648,1.61,-2.66,0.77,21.9203,-50.3772,-18.5172,1023.37
19622,0.502152,9.80392,-0.0095648,1.68,-2.45,0,21.6588,-49.5753,-19.6697,1023.37
19628,0.506934,9.83261,0.0047824,1.47,-2.73,0.07,22.0656,-50.1305,-20.0982,1023.37
19634,0.506934,9.79914,0.0143472,1.75,-2.38,0.35,21.6879,-50.2847,-18.266,1023.37
19640,0.502152,9.83261,0.023912,1.4,-2.73,0.42,21.7169,-49.7604,-18.1034,1023.37
19646,0.521282,9.82783,-0.023912,1.82,-2.94,-0.21,22.0366,-49.8837,-19.1378,1023.37
19652,0.511717,9.83261,-0.0143472,1.68,-2.52,0.14,21.8622,-49.7912,-18.3989,1023.37
19658,0.530846,9.84218,-0.023912,1.61,-2.31,0.49,21.6588,-49.7912,-18.2807,1023.37
19664,0.487805,9.84218,-0.0095648,1.33,-2.8,-0.21,21.8332,-49.5445,-17.5862,1023.37
19670,0.511717,9.82783,0.0047824,1.89,-3.08,-0.14,21.7169,-51.0248,-17.3646,1023.34
19676,0.506934,9.85174,-0.0095648,1.33,-2.45,0.42,21.3683,-50.7781,-18.4285,1023.34
19682,0.47824,9.84696,-0.0047824,1.82,-2.59,0,21.9494,-50.0996,-18.6354,1023.33
19688,0.473458,9.88522,-0.0191296,0.91,-2.17,0.07,21.746,-50.6239,-19.1969,1023.33
19694,0.49737,9.82305,-0.0047824,1.33,-2.45,0.21,22.763,-50.1613,-17.3941,1023.33
19700,0.506934,9.81827,-0.0143472,1.82,-2.52,-0.35,21.1939,-49.3286,-18.3989,1023.37
19706,0.502152,9.8374,-0.0143472,1.26,-2.45,-0.07,21.8332,-49.6679,-18.7979,1023.37
19712,0.506934,9.81349,-0.0095648,1.61,-2.52,0.21,22.0075,-50.9015,-18.7831,1023.4
19718,0.492587,9.78957,-0.0047824,1.54,-2.45,0.21,22.1528,-49.8529,-17.7783,1023.4
19724,0.506934,9.78479,0.0143472,1.68,-2.52,-0.28,21.6879,-49.8221,-18.5319,1023.35
19730,0.487805,9.8374,-0.023912,1.47,-2.38,0.28,22.0366,-50.4389,-17.7192,1023.35
19736,0.487805,9.81827,-0.0047824,1.54,-2.45,0.63,22.1237,-51.0248,-18,1023.39
19742,0.506934,9.8087,-0.0095648,1.68,-2.45,-0.28,21.6298,-49.6987,-19.3446,1023.39
19748,0.506934,9.82305,-0.0286944,1.61,-2.66,0.42,22.2109,-50.6547,-18.2068,1023.39
19754,0.530846,9.82783,0.0143472,1.4,-2.52,0.14,21.6007,-50.4389,-17.6453,1023.37
19760,0.506934,9.8087,0,1.33,-2.24,0.07,21.8913,-49.9454,-18.6649,1023.37
19766,0.506934,9.81827,-0.0334768,1.82,-3.01,0.14,21.223,-49.5445,-18.4137,1023.36
19772,0.506934,9.82783,-0.0143472,1.4,-2.73,-0.35,21.4264,-50.3463,-17.601,1023.36
19778,0.483022,9.80392,-0.0334768,1.26,-2.45,-0.21,21.0196,-50.3772,-17.6158,1023.35
19784,0.49737,9.8374,0.0191296,1.47,-2.8,0.28,21.1067,-50.4697,-19.1673,1023.35
19790,0.502152,9.83261,0.0047824,1.82,-2.66,0.42,22.0656,-50.8398,-17.1429,1023.38
19796,0.487805,9.79914,-0.047824,1.54,-2.87,-0.49,21.8041,-50.2847,-18.5319,1023.38
19802,0.49737,9.81349,-0.0095648,1.19,-3.01,-0.35,21.8332,-50.0688,-17.9113,1023.38
19808,0.492587,9.85653,0.0334768,1.54,-2.8,0.28,21.6588,-50.1305,-18.266,1023.38
19814,0.49737,9.81827,0.0047824,1.61,-2.24,17.71,22.0075,-50.3463,-16.877,1023.38
19820,0.487805,9.82783,-0.0286944,1.4,-2.59,-0.07,22.0947,-50.3155,-18,1023.33
19826,0.506934,9.81827,-0.023912,1.33,-2.59,0.21,21.6298,-49.9763,-17.3498,1023.33
19832,0.49737,9.82305,0.0143472,1.68,-3.01,0.35,21.6588,-51.3024,-17.9409,1023.41
19838,0.502152,9.81827,0,1.75,-2.94,0.14,21.6298,-50.1305,-17.2759,1023.41
19844,0.487805,9.79914,-0.0047824,1.33,-2.52,0.21,21.1649,-49.0511,-17.5419,1023.39
19850,0.530846,9.79914,-0.0047824,1.89,-2.59,0.07,21.9203,-50.408,-17.3646,1023.39
19856,0.511717,9.8087,0.0143472,1.47,-2.17,0.28,21.3973,-50.5622,-17.9409,1023.39
19862,0.49737,9.81349,0.0143472,1.4,-2.03,0.28,21.4264,-49.6679,-19.4776,1023.39
19868,0.516499,9.8374,-0.0143472,1.75,-2.59,0.28,22.0656,-50.9015,-18.591,1023.39
19874,0.502152,9.85174,-0.023912,1.54,-2.66,0,22.0656,-49.6062,-16.9213,1023.36
19880,0.521282,9.81349,-0.0047824,1.61,-2.8,-0.07,21.9785,-49.2361,-18.0148,1023.36
19886,0.487805,9.81349,-0.0095648,1.54,-2.52,0.14,21.4264,-49.8529,-16.5223,1023.35
19892,0.492587,9.82783,-0.0047824,1.54,-2.73,0.28,22.2109,-50.5622,-17.9261,1023.35
19898,0.511717,9.82783,-0.023912,1.26,-2.31,0.21,20.8743,-50.3463,-18.3251,1023.38
19904,0.530846,9.84218,-0.023912,1.68,-2.31,0.21,21.7169,-49.9146,-17.8818,1023.38
19910,0.502152,9.81827,0.0191296,0.98,-2.45,-0.07,21.4845,-50.3463,-18.3842,1023.37
19916,0.492587,9.84218,0.0191296,1.61,-2.45,0,20.8162,-50.5314,-18.2364,1023.37
19922,0.511717,9.78957,0.0095648,1.68,-2.45,0.42,21.8041,-49.4212,-18.4728,1023.37
19928,0.516499,9.79436,0.0095648,1.61,-2.66,-0.14,22.3271,-51.1482,-18.7388,1023.34
19934,0.487805,9.80392,0.0047824,1.68,-2.8,0.07,21.3392,-51.0865,-17.9556,1023.34
19940,0.506934,9.81349,0.0095648,1.82,-2.94,0.42,21.4554,-49.9454,-18.1182,1023.37
19946,0.49737,9.82305,0,1.26,-2.03,0.63,21.1939,-50.0688,-18.3842,1023.37
19952,0.506934,9.84218,-0.0191296,1.61,-2.73,0.56,21.0486,-50.4697,-17.601,1023.36
19958,0.506934,9.79914,0.0191296,1.4,-2.45,0.35,21.4554,-50.2538,-17.4237,1023.36
19964,0.506934,9.8374,0.0047824,1.68,-2.31,-0.35,21.5717,-49.9763,-18.2955,1023.38
19970,0.49737,9.80392,0.023912,1.54,-2.38,0.49,22.4143,-51.0248,-18.5172,1023.38
19976,0.521282,9.8087,-0.023912,1.75,-2.45,0.14,22.0366,-50.6856,-17.3498,1023.37
19982,0.487805,9.77523,-0.0143472,1.4,-2.8,-0.07,22.1528,-49.4212,-18.2512,1023.37
19988,0.545194,9.85174,0.0095648,1.82,-2.66,0.14,21.8041,-50.9631,-17.8818,1023.37
19994,0.506934,9.86131,-0.0143472,1.54,-2.45,0,21.9785,-51.0557,-17.4237,1023.33
20000,0.506934,9.8374,0,1.33,-2.38,0.07,22.0075,-49.8221,-18.7684,1023.33
20006,0.492587,9.81349,0.0143472,1.68,-2.45,0.63,21.7169,-50.8706,-20.3938,1023.38
20012,0.502152,9.80392,-0.0047824,1.54,-2.73,0,21.8332,-50.3155,-17.5419,1023.38
20018,0.483022,9.81349,0,1.26,-2.87,0.63,21.7751,-49.5753,-19.4776,1023.37
20024,0.516499,9.79914,0,1.75,-2.52,0.21,22.1237,-50.0996,-17.8818,1023.37
20030,0.492587,9.85653,-0.023912,1.4,-2.31,0,22.24,-50.0379,-18.9013,1023.34
20036,0.526064,9.82783,0.0047824,1.33,-2.52,0.28,21.5426,-50.0688,-18.2512,1023.34
20042,0.483022,9.80392,0.0143472,1.82,-2.8,0.28,21.1939,-49.637,-18.9161,1023.34
20048,0.473458,9.84696,-0.0095648,1.47,-2.8,0.21,21.4845,-50.408,-17.2907,1023.37
20054,0.492587,9.8087,0,1.89,-2.73,0.14,21.9203,-50.5931,-17.1134,1023.37
20060,0.521282,9.80392,0.0143472,1.54,-2.45,0.28,21.8041,-49.7912,-18.7979,1023.38
20066,0.487805,9.82305,-0.0047824,1.75,-2.31,0.35,21.4845,-50.0071,-19.1821,1023.38
20072,0.483022,9.85174,-0.0430416,1.47,-2.45,0.07,22.2109,-51.0557,-18.2807,1023.35
20078,0.511717,9.82305,0,1.4,-2.66,0,21.8622,-50.223,-18.9309,1023.35
20084,0.526064,9.82783,0.0095648,1.54,-2.45,0.21,21.7169,-49.5753,-18.2364,1023.37
20090,0.49737,9.83261,-0.0095648,1.47,-2.8,0.28,21.0777,-49.9763,-18.5763,1023.37
20096,0.516499,9.82783,0.0095648,1.75,-2.66,0.28,22.5596,-49.5445,-18.0739,1023.37
20102,0.521282,9.8087,0.0095648,1.61,-2.17,0,21.2811,-50.1305,-19.9357,1023.39
20108,0.526064,9.8374,-0.0143472,1.54,-2.38,0.21,22.0075,-50.3155,-17.6749,1023.39
20114,0.511717,9.82783,0.0047824,1.4,-2.38,0.07,21.5135,-50.7781,-18.7831,1023.37
20120,0.506934,9.81827,-0.0191296,1.75,-2.45,-0.07,20.9615,-50.1613,-19.9505,1023.37
20126,0.483022,9.82783,-0.0095648,1.61,-2.38,0.07,21.223,-49.637,-18.6945,1023.4
20132,0.506934,9.81827,0.0334768,1.47,-2.45,0.35,22.2109,-50.7164,-18.9013,1023.4
20138,0.535629,9.82305,0.0143472,1.54,-2.59,0.07,21.0196,-49.5137,-19.5072,1023.4
20144,0.49737,9.83261,0.0047824,1.82,-2.52,0.21,21.6298,-49.8837,-19.8175,1023.4
20150,0.49737,9.8087,-0.0095648,1.61,-2.45,0.28,22.0075,-50.223,-18.9457,1023.36
20156,0.530846,9.83261,0,1.61,-2.31,0.07,21.7169,-50.4697,-18.0886,1023.36
20162,0.483022,9.77523,0,1.4,-2.38,0.35,21.7751,-50.0996,-19.6549,1023.36
20168,0.521282,9.82305,0.0191296,1.54,-2.87,0.42,20.9905,-50.0071,-18.3842,1023.38
20174,0.49737,9.82783,-0.0047824,1.54,-2.73,-0.21,21.6588,-50.6239,-18.7684,1023.38
20180,0.526064,9.82305,-0.0047824,1.75,-2.59,0.35,21.8913,-49.1744,-18.5467,1023.37
20186,0.502152,9.8374,0.0095648,1.33,-2.45,0.56,21.0196,-49.8529,-19.2708,1023.37
20192,0.502152,9.83261,0.0047824,1.68,-2.52,0.21,21.1649,-50.5314,-17.8079,1023.36
20198,0.511717,9.83261,-0.0143472,1.82,-2.94,-0.21,21.0777,-50.1613,-19.6106,1023.36
20204,0.516499,9.83261,0.0191296,1.4,-2.66,0,20.9905,-49.1128,-17.4533,1023.39
20210,0.463893,9.8087,0.0047824,1.47,-2.66,0.28,20.8452,-50.1613,-20.3642,1023.39
20216,0.511717,9.83261,-0.0430416,1.61,-2.17,0.28,21.8332,-49.6679,-18.3251,1023.39
20222,0.521282,9.8374,-0.0334768,1.61,-2.59,-0.14,21.9494,-49.8529,-19.0196,1023.39
20228,0.492587,9.83261,-0.0191296,1.33,-2.66,-0.07,21.3683,-49.3286,-18.5763,1023.39
20234,0.521282,9.84218,-0.0191296,1.33,-2.45,-0.14,21.6588,-50.1305,-18.7536,1023.39
20240,0.49737,9.81827,-0.0095648,1.19,-1.96,-0.07,21.6298,-49.5137,-19.7436,1023.39
20246,0.506934,9.83261,0.0334768,1.47,-2.31,0.07,21.5717,-50.5005,-20.3347,1023.4
20252,0.45911,9.84696,0.0334768,1.61,-3.29,0.14,21.6588,-50.408,-19.1821,1023.4
20258,0.492587,9.84696,0.0143472,1.89,-2.73,0.14,21.6007,-49.6062,-18.4728,1023.36
20264,0.502152,9.82783,-0.0095648,1.89,-2.31,0,21.8913,-50.0996,-19.1082,1023.36
20270,0.49737,9.81827,0.0430416,1.68,-2.66,0.35,21.5135,-50.1305,-18.6501,1023.36
20276,0.516499,9.84218,0.0047824,1.68,-3.22,0,22.0075,-50.2847,-18.6501,1023.37
20282,0.468675,9.82305,-0.0286944,1.61,-2.52,0.42,21.252,-49.637,-18.7536,1023.37
20288,0.487805,9.84696,0.0047824,1.4,-2.59,0.14,22.0366,-49.6062,-19.2264,1023.38
20294,0.487805,9.84696,1.21951,1.4,-2.45,0.21,20.9324,-50.4697,-18.1625,1023.38
20300,0.516499,9.82305,0.0286944,1.47,-2.8,-0.07,22.0947,-49.4212,-18.8422,1023.39
20306,0.47824,9.82783,-0.0047824,1.4,-2.52,0,22.1528,-49.3595,-18.7388,1023.39
20312,0.511717,9.8374,-0.0095648,1.12,-2.52,0.56,22.0656,-50.4697,-18.0148,1023.37
20318,0.502152,9.82783,0.0143472,1.89,-3.08,0.07,21.746,-50.0071,-18.2068,1023.37
20324,0.506934,9.85653,0.0095648,1.47,-2.66,0.21,21.6007,-49.7912,-20.0243,1023.36
20330,0.526064,9.84696,-0.0095648,1.12,-1.89,0.07,21.5426,-50.0379,-17.9113,1023.36
20336,0.473458,9.84696,-0.0047824,1.26,-2.03,0.07,21.5717,-50.0071,-18.3398,1023.36
20342,0.483022,9.82783,-0.023912,1.47,-2.73,-0.21,21.8041,-48.5268,-18.857,1023.38
20348,0.521282,9.81349,-0.0095648,1.26,-2.31,0.21,21.9494,-49.2978,-18.2364,1023.38
20354,0.487805,9.78957,-0.023912,1.05,-2.31,0.14,21.7751,-50.5005,-17.7636,1023.36
20360,0.483022,9.8087,-0.0047824,1.05,-2.17,0.49,22.3562,-49.8837,-18.2807,1023.36
20366,0.49737,9.79436,-0.0095648,1.47,-2.38,0.42,21.4554,-50.0996,-19.0048,1023.38
20372,0.487805,9.82305,-0.0047824,1.19,-2.87,0.14,22.1818,-50.8706,-17.4828,1023.38
20378,0.468675,9.81827,0.0191296,1.47,-2.59,0.77,21.6879,-50.5931,-19.0491,1023.4
20384,0.521282,9.8374,-0.0286944,1.47,-2.45,-0.21,21.1939,-49.5445,-18.7092,1023.4
20390,0.47824,9.81827,0.0143472,1.47,-2.31,0.07,21.4264,-50.9631,-19.389,1023.4
20396,0.483022,9.84696,0,1.26,-2.17,0.35,22.24,-50.2538,-17.9704,1023.36
20402,0.454328,9.83261,0.0095648,1.4,-2.31,0.42,21.7751,-49.3286,-18.458,1023.36
20408,0.506934,9.80392,0.0047824,1.54,-2.45,-0.49,21.8913,-50.1305,-18.3842,1023.39
20414,0.492587,9.82305,0.023912,1.47,-2.45,-0.07,21.9203,-50.5622,-17.8522,1023.39
20420,0.492587,9.8087,0,1.12,-2.45,0.28,21.7169,-49.8837,-18.4137,1023.35
20426,0.526064,9.82783,-0.0143472,1.61,-2.45,0.28,21.7751,-49.7604,-19.4333,1023.35
20432,0.540411,9.85174,-0.0382592,1.19,-2.38,-0.21,21.6588,-50.5314,-17.6158,1023.35
20438,0.506934,9.81349,0.0334768,1.54,-2.87,-0.21,21.7169,-49.8837,-19.0491,1023.35
20444,0.449546,9.82305,-0.0095648,1.33,-2.59,0.21,20.7581,-50.2538,-19.6697,1023.35
20450,0.526064,9.82305,-0.0191296,1.19,-2.24,0.14,21.6007,-49.9454,-18.6354,1023.37
20456,0.49737,9.83261,0.0095648,1.61,-2.45,-0.14,21.9785,-50.2538,-18.8127,1023.37
20462,0.47824,9.82305,-0.0095648,1.47,-2.59,-0.07,21.6007,-50.1613,-19.0639,1023.41
20468,0.487805,9.85174,0.0047824,1.68,-2.59,0.21,20.8743,-50.6856,-19.2116,1023.41
20474,0.483022,9.82305,0,1.47,-2.52,0.14,21.6879,-50.3155,-17.9261,1023.38
20480,0.483022,9.80392,0.0143472,1.68,-2.24,0.07,21.1649,-50.0071,-18.6797,1023.38
20486,0.526064,9.81349,-0.0047824,1.05,-2.1,0.07,20.9324,-49.9146,-19.1673,1023.37
20492,0.49737,9.82783,-0.023912,1.26,-2.24,-0.07,21.5135,-50.3463,-17.867,1023.37
20498,0.492587,9.85174,-0.0143472,1.54,-2.8,0.56,20.9324,-50.6239,-19.2855,1023.37
20504,0.47824,9.81349,-0.0143472,1.47,-2.45,0.42,21.6007,-49.452,-18.8422,1023.37
20510,0.473458,9.81827,0.0191296,1.89,-2.8,-0.35,20.8743,-51.0557,-19.6402,1023.37
20516,0.47824,9.8087,0.0095648,1.19,-2.59,0.42,21.8913,-50.3155,-17.8965,1023.36
20522,0.526064,9.81827,0.0191296,1.54,-2.87,0.42,21.0777,-50.3463,-18.8127,1023.36
20528,0.530846,9.80392,-0.0382592,1.33,-2.38,-0.28,21.3101,-50.7164,-19.0048,1023.37
20534,0.47824,9.78957,0.023912,1.54,-2.24,-0.14,21.4845,-50.6856,-18.2068,1023.37
20540,0.511717,9.83261,0.023912,1.47,-2.52,0.63,21.4845,-50.4389,-19.3594,1023.38
20546,0.47824,9.80392,-0.0047824,1.75,-3.15,0.14,21.4845,-50.408,-18.2512,1023.38
20552,0.49737,9.8087,0.0286944,1.26,-2.73,0,21.8622,-51.5491,-18.5319,1023.35
20558,0.49737,9.81827,-0.0095648,1.47,-2.31,0.14,22.1818,-50.5005,-18.0886,1023.35
20564,0.49737,9.81827,0.0382592,1.61,-2.38,-0.14,21.6879,-50.2538,-17.9113,1023.35
20570,0.483022,9.81827,0.0095648,1.61,-2.1,0.14,21.5717,-51.1173,-18.1921,1023.41
20576,0.487805,9.79914,0.0286944,1.05,-2.52,0.42,21.223,-49.6679,-18.133,1023.41
20582,0.506934,9.84218,0,1.33,-2.87,0.07,21.5135,-49.7295,-19.7584,1023.38
20588,0.511717,9.83261,-0.023912,1.26,-3.01,-0.07,21.5717,-50.6856,-19.5515,1023.38
20594,0.545194,9.82305,-0.0286944,1.68,-2.59,0.42,21.9785,-50.0688,-17.7192,1023.38
20600,0.473458,9.82305,0.0286944,1.61,-2.24,0,22.1818,-50.0379,-20.2017,1023.38
20606,0.487805,9.84696,0,1.4,-2.24,0,22.5596,-50.8089,-19.2412,1023.4
20612,0.463893,9.82783,-0.0095648,1.4,-2.52,-0.14,21.9203,-50.9631,-18.3842,1023.4
20618,0.511717,9.79436,-0.0143472,1.54,-2.73,0.21,22.0075,-50.408,-19.0196,1023.4
20624,0.49737,9.85174,-0.0286944,1.61,-2.87,0.84,21.8913,-50.1613,-18.857,1023.4
20630,0.516499,9.81827,-0.0382592,1.75,-2.87,0.35,21.6298,-50.7164,-18.2216,1023.4
20636,0.559541,9.8374,0,1.82,-2.87,-0.28,22.1528,-50.0071,-18.0148,1023.38
20642,0.540411,9.83261,0.0191296,1.4,-2.38,0,22.5015,-50.0071,-19.2412,1023.38
20648,0.49737,9.82305,0.0191296,1.4,-2.45,-0.14,22.6468,-50.0379,-18.6797,1023.35
20654,0.47824,9.81349,0.0382592,1.82,-2.66,0.07,22.7049,-50.5314,-18.0148,1023.35
20660,0.487805,9.81827,0,1.47,-2.8,0.07,22.4724,-49.3286,-18.7831,1023.36
20666,0.502152,9.84696,0.0143472,1.54,-2.24,-0.07,22.4143,-50.2847,-18.4433,1023.36
20672,0.502152,9.79914,0.0095648,1.19,-2.24,0,21.6588,-50.7473,-18.3989,1023.36
20678,0.473458,9.82305,0.0143472,1.68,-2.31,-0.21,21.8913,-49.9146,-18.2364,1023.36
20684,0.49737,9.83261,0.0095648,1.54,-2.52,0.14,21.2811,-50.5314,-18.9161,1023.36
20690,0.47824,9.82305,0,1.33,-2.31,0,22.24,-51.6108,-18.3842,1023.38
20696,0.463893,9.81349,0,1.82,-2.24,0.07,22.6177,-50.1305,-18.5615,1023.38
20702,0.47824,9.85174,0.023912,1.54,-2.8,0.63,21.2811,-49.7295,-18.5319,1023.36
20708,0.49737,9.81827,-0.023912,1.4,-2.8,0.14,22.0075,-49.9763,-19.0639,1023.36
20714,0.502152,9.79914,0.0143472,1.4,-2.24,0.21,21.8041,-49.2978,-18.1921,1023.35
20720,0.454328,9.83261,-0.0095648,1.82,-2.66,0.14,22.2109,-49.5753,-17.9261,1023.35
20726,0.468675,9.80392,0.047824,1.82,-3.29,0.49,22.269,-50.3155,-18.4285,1023.4
20732,0.588235,9.82305,-0.0573888,1.26,-2.45,-0.07,22.0366,-50.5622,-17.2759,1023.4
20738,0.530846,9.85653,-0.0047824,1.26,-1.75,0.07,22.0366,-49.2978,-18.2364,1023.4
20744,0.526064,9.71305,0.0286944,1.33,-2.24,0.35,21.8041,-49.9454,-18.7684,1023.37
20750,0.49737,9.8087,0.0526064,1.68,-2.17,0.07,23.0536,-50.9015,-17.4533,1023.37
20756,0.47824,9.85653,-0.0095648,1.4,-2.94,0,22.3852,-50.5005,-17.3941,1023.37
20762,0.502152,9.70349,0.0860832,2.1,-3.08,-0.28,21.746,-49.9454,-17.8522,1023.37
20768,0.511717,9.89,-0.0621712,1.47,-2.45,0,22.0947,-50.3155,-16.7735,1023.39
20774,0.492587,9.8087,0.0191296,1.26,-2.94,0.07,22.4724,-49.8221,-17.5715,1023.39
20780,0.487805,9.82783,-0.0095648,1.89,-2.66,-0.14,22.3271,-50.4697,-18,1023.39
20786,0.463893,9.84696,-0.0191296,1.47,-2.59,0.14,22.4434,-50.3463,-18.266,1023.39
20792,0.511717,9.79436,0.0047824,1.75,-2.66,0.35,22.3562,-50.3155,-18.3546,1023.39
20798,0.506934,9.8087,0,1.47,-2.31,0.35,21.252,-50.0996,-18.1034,1023.39
20804,0.49737,9.81827,-0.0095648,1.26,-2.38,0.07,21.1358,-50.2847,-18.0886,1023.39
20810,0.468675,9.83261,0,1.61,-2.38,0.07,21.8913,-50.5622,-17.9852,1023.35
20816,0.506934,9.84218,0.0191296,1.61,-2.31,0.63,21.5717,-50.0688,-17.8818,1023.35
20822,0.492587,9.81827,0.0191296,1.33,-2.45,0,22.1818,-50.1305,-18.3989,1023.39
20828,0.492587,9.81349,0,1.54,-2.03,0.35,21.8332,-50.7164,-19.5663,1023.39
20834,0.487805,9.81827,0.0286944,1.4,-2.17,0.35,21.8622,-50.5314,-19.2855,1023.36
20840,0.49737,9.79436,0.0191296,1.61,-2.45,0.56,21.3683,-49.3286,-19.2116,1023.36
20846,0.516499,9.83261,-0.0095648,1.75,-2.1,-0.21,21.8913,-50.1921,-18.266,1023.36
20852,0.49737,9.85174,0.0047824,1.47,-2.31,-0.14,22.0075,-50.2538,-18.1921,1023.38
20858,0.530846,9.8087,-0.0286944,1.75,-2.8,0.14,22.8211,-49.6062,-19.4185,1023.38
20864,0.49737,9.83261,-0.0286944,1.4,-2.73,0.07,21.6298,-49.7912,-20.113,1023.38
20870,0.468675,9.81349,-0.0047824,1.26,-2.45,-0.21,21.3101,-50.2538,-18.9457,1023.38
20876,0.463893,9.81349,0.0191296,1.82,-2.59,0.49,22.3562,-50.3772,-18.1477,1023.36
20882,0.516499,9.84218,0.0143472,1.54,-2.87,0,22.5305,-49.5137,-20.4972,1023.36
20888,0.511717,9.80392,0.023912,1.75,-2.73,-0.07,21.746,-50.8398,-18.0148,1023.39
20894,0.463893,9.8374,-0.0047824,1.54,-2.66,-0.21,22.3562,-50.3772,-17.6158,1023.39
20900,0.511717,9.82783,0.023912,1.75,-2.38,0.21,22.0075,-50.1921,-19.2708,1023.38
20906,0.492587,9.79914,0.0095648,1.61,-2.31,0.56,22.6468,-50.3772,-18.3398,1023.38
20912,0.463893,9.82783,0.0191296,1.82,-2.45,0.07,22.0947,-50.8089,-17.8522,1023.38
20918,0.49737,9.81349,-0.0191296,1.19,-2.03,-0.07,22.269,-50.3463,-19.714,1023.37
20924,0.49737,9.84218,-0.0047824,1.61,-1.96,0.42,21.8332,-49.5445,-19.0491,1023.37
20930,0.487805,9.80392,-0.0143472,1.33,-2.1,0.14,22.5886,-51.1173,-17.5419,1023.39
20936,0.492587,9.80392,0.0191296,1.4,-2.24,0.14,22.8211,-50.0071,-18.0295,1023.39
20942,0.47824,9.79914,0.0095648,1.4,-2.45,0.21,21.9785,-49.3595,-18.5467,1023.35
20948,0.449546,9.8374,0.0095648,1.61,-2.38,0.42,21.4264,-50.6547,-18.2807,1023.35
20954,0.506934,9.82783,0.0047824,1.54,-2.17,-0.35,21.746,-50.1921,-18.1921,1023.37
20960,0.502152,9.82305,-0.0095648,1.47,-2.31,-0.14,22.4434,-49.5753,-18.2807,1023.37
20966,0.502152,9.79436,-0.0047824,1.54,-2.03,0.07,22.4724,-49.4828,-19.8323,1023.37
20972,0.511717,9.84696,0.0430416,1.54,-2.24,0.28,22.8792,-50.2538,-18.3103,1023.38
20978,0.506934,9.83261,0.0382592,1.4,-2.45,0,22.5886,-49.5445,-18.5763,1023.38
20984,0.47824,9.79436,0.0191296,1.12,-2.52,-0.14,22.2109,-49.9454,-18.7536,1023.39
20990,0.492587,9.83261,0,1.61,-2.59,-0.14,22.5596,-50.6239,-19.6845,1023.39
20996,0.49737,9.8087,0.0047824,1.61,-2.31,0.07,21.9203,-50.0688,-18.2807,1023.38
21002,0.492587,9.81827,0.047824,1.54,-2.73,0,21.5426,-49.2053,-19.9948,1023.38
21008,0.487805,9.81349,0.0191296,1.47,-2.17,0,22.4434,-50.2538,-19.2264,1023.39
21014,0.483022,9.83261,-0.0095648,1.4,-2.94,0.21,22.5015,-49.6062,-18.4433,1023.39
21020,0.463893,9.82305,0.023912,1.89,-3.15,0,22.4143,-49.6062,-18.6501,1023.39
21026,0.49737,9.81827,0.023912,1.61,-2.66,0.14,22.1818,-50.9323,-19.8027,1023.4
21032,0.49737,9.83261,0.0334768,1.47,-2.52,-0.42,22.3562,-51.1173,-17.5271,1023.4
21038,0.483022,9.83261,0.0286944,1.61,-2.66,0.42,22.4434,-50.0996,-18.6206,1023.37
21044,0.468675,9.82305,0.0286944,1.68,-2.66,0.56,22.0366,-50.0071,-20.2164,1023.37
21050,0.473458,9.79914,0.023912,1.82,-2.73,-0.14,21.8041,-50.6239,-18.4728,1023.38
21056,0.506934,9.83261,0,1.61,-2.52,0.42,22.4434,-50.0996,-17.2612,1023.38
21062,0.49737,9.81827,0.0095648,1.68,-2.8,0.7,21.8041,-48.7427,-17.8818,1023.35
21068,0.502152,9.8374,0.0047824,1.54,-2.45,0.07,21.4554,-50.5931,-18.857,1023.35
21074,0.506934,9.81349,0.0047824,1.33,-3.01,0,21.6879,-51.0865,-16.7144,1023.36
21080,0.473458,9.84218,0.0047824,1.82,-2.94,-0.21,21.6007,-49.7912,-18.9309,1023.36
21086,0.506934,9.85653,0,1.61,-2.66,0.14,21.8332,-49.9763,-18.2216,1023.36
21092,0.492587,9.82783,0.0047824,1.47,-2.52,0.28,21.6879,-50.4697,-17.6306,1023.38
21098,0.47824,9.82783,0.023912,1.68,-2.87,0.21,22.0947,-49.8837,-17.6601,1023.38
21104,0.49737,9.81349,0.0191296,1.61,-2.73,0,21.9494,-49.2361,-18.0295,1023.39
21110,0.49737,9.85174,0.0095648,1.96,-3.15,-0.14,21.7751,-50.3155,-17.5271,1023.39
21116,0.487805,9.84218,0.0430416,1.61,-2.8,0.07,21.9785,-50.1921,-19.389,1023.37
21122,0.473458,9.79914,0,1.47,-2.73,0.07,22.0656,-50.3155,-19.6993,1023.37
21128,0.47824,9.80392,0.023912,1.61,-2.45,0.14,21.8332,-50.7781,-18.5763,1023.37
21134,0.492587,9.81349,0.0191296,1.68,-2.8,0.14,21.7169,-49.9763,-17.0691,1023.37
21140,0.468675,9.8087,0.0286944,1.33,-2.66,0.35,22.3562,-49.7295,-18.0591,1023.37
21146,0.473458,9.8374,0.0286944,1.75,-2.66,0.42,21.746,-50.5005,-18.0886,1023.38
21152,0.483022,9.81827,0.0286944,1.47,-2.59,-0.07,21.8622,-50.223,-17.1134,1023.38
21158,0.502152,9.81349,-0.0047824,1.82,-2.73,0.49,22.5015,-49.1436,-17.7636,1023.39
21164,0.487805,9.81827,0.0143472,1.75,-2.66,0.07,21.9785,-49.2361,-19.3594,1023.39
21170,0.545194,9.83261,-0.0286944,1.75,-2.38,0.56,21.8332,-50.1305,-17.867,1023.36
21176,0.492587,9.82305,0.0047824,1.75,-2.45,0.56,21.7169,-49.4828,-17.3055,1023.36
21182,0.516499,9.81349,0.0095648,1.47,-2.59,0.21,21.7751,-49.4828,-17.2759,1023.39
21188,0.502152,9.81827,-0.0191296,1.82,-2.59,0,21.6879,-50.0996,-18.3989,1023.39
21194,0.502152,9.80392,0.023912,1.33,-2.73,0.35,21.9785,-50.223,-18.3103,1023.39
21200,0.506934,9.82783,-0.0047824,1.26,-2.59,-0.28,21.3101,-49.4828,-19.1673,1023.39
21206,0.521282,9.82305,0.0143472,1.26,-2.1,0.63,21.3101,-49.9146,-18.8422,1023.39
21212,0.47824,9.84218,0.023912,1.47,-2.8,0.28,21.6298,-50.4389,-17.6158,1023.37
21218,0.526064,9.84218,0.0334768,1.54,-2.31,-0.49,21.9494,-49.1744,-19.4333,1023.37
21224,0.492587,9.82305,0.0047824,1.05,-2.66,0.07,22.2981,-49.5445,-19.6254,1023.35
21230,0.483022,9.79914,0.0047824,1.54,-2.45,0.07,21.746,-50.5314,-17.9556,1023.35
21236,0.492587,9.78957,0.0143472,1.47,-2.45,0.35,21.5717,-50.1921,-18.4285,1023.41
21242,0.506934,9.80392,-0.0095648,1.75,-2.8,0.14,21.1939,-50.5622,-18.2512,1023.41
21248,0.47824,9.79436,0.0143472,1.33,-2.45,0.14,21.3101,-51.2099,-18.6649,1023.38
21254,0.492587,9.81349,0.0191296,1.82,-2.31,0,21.9785,-50.5622,-18.9752,1023.38
21260,0.454328,9.8087,-0.0047824,1.61,-2.1,0.42,21.5426,-50.3155,-18.9457,1023.38
21266,0.47824,9.8087,0.0047824,1.19,-2.1,0.14,21.6007,-50.7473,-19.3003,1023.41
21272,0.535629,9.83261,-0.0095648,1.33,-2.24,0.07,22.0947,-50.9323,-18.0295,1023.41
21278,0.47824,9.81827,0.0143472,1.61,-2.66,0.49,21.6007,-49.8221,-19.5811,1023.35
21284,0.506934,9.82305,0.0095648,1.54,-2.31,0.49,22.0656,-50.0996,-19.4924,1023.35
21290,0.506934,9.82783,0.0191296,1.26,-2.31,0.14,21.6007,-50.7164,-18.458,1023.37
21296,0.506934,9.8087,0.0191296,1.75,-2.52,0.35,22.2981,-50.4389,-19.0343,1023.37
21302,0.49737,9.82305,0.0143472,1.54,-2.24,0.07,22.1528,-49.452,-19.0343,1023.37
21308,0.540411,9.81827,-0.023912,1.68,-2.24,0.14,22.1528,-50.1613,-17.2759,1023.37
21314,0.521282,9.85653,-0.0286944,1.54,-2.52,0.28,21.9494,-50.1305,-17.8522,1023.37
21320,0.487805,9.83261,-0.0143472,1.4,-2.24,0.14,22.4724,-50.0688,-18.0739,1023.35
21326,0.483022,9.8087,0.0286944,1.26,-2.38,-0.07,22.8502,-50.4389,-17.4237,1023.35
21332,0.468675,9.77523,0.023912,1.54,-2.24,0.14,21.9494,-50.8706,-17.4533,1023.38
21338,0.45911,9.81349,-0.0047824,1.54,-2.31,-0.56,22.7049,-49.3286,-19.123,1023.38
21344,0.473458,9.8087,-0.0095648,1.68,-2.8,0.07,22.5886,-50.5622,-18.724,1023.34
21350,0.511717,9.82305,-0.0191296,1.54,-2.73,0.63,22.4143,-50.6856,-16.7588,1023.34
21356,0.483022,9.82305,0.0047824,1.61,-2.45,0.14,23.1117,-49.9146,-18.1182,1023.35
21362,0.487805,9.82783,0.0191296,1.54,-2.31,0,22.269,-49.8837,-18.0886,1023.35
21368,0.526064,9.81827,0.0191296,1.82,-2.73,0,22.4143,-50.0996,-17.3055,1023.35
21374,0.506934,9.82783,0.0095648,1.61,-2.52,0.21,21.9203,-49.8221,-17.3498,1023.35
21380,0.521282,9.84696,-0.0191296,1.33,-3.01,0.21,20.9615,-49.5753,-17.4533,1023.35
21386,0.511717,9.79914,-0.0047824,1.4,-2.52,0.21,21.4264,-50.1305,-17.601,1023.39
21392,0.49737,9.79436,0.0382592,1.68,-2.94,0.42,21.6879,-50.4697,-17.5271,1023.39
21398,0.526064,9.8087,0.0047824,1.54,-2.8,0.56,21.9785,-49.2361,-18.6354,1023.4
21404,0.511717,9.81349,0.0191296,1.68,-2.45,0.07,21.5135,-49.0202,-19.0934,1023.4
21410,0.49737,9.83261,-0.0047824,1.96,-2.66,0.28,21.252,-49.9763,-18.1034,1023.38
21416,0.473458,9.8374,0.0047824,1.68,-2.87,0.07,22.6177,-49.3595,-18.7092,1023.38
21422,0.49737,9.82783,0.0095648,1.54,-2.73,-0.07,22.1237,-50.8398,-19.389,1023.35
21428,0.49737,9.84218,0.023912,1.54,-3.01,0.28,21.8913,-50.7473,-19.4924,1023.35
21434,0.506934,9.8374,-0.0095648,1.4,-2.52,0.14,21.8622,-49.5445,-17.6749,1023.35
21440,0.463893,9.8374,-0.0191296,1.54,-2.87,0.14,21.6007,-49.7912,-18.724,1023.35
21446,0.473458,9.78479,0.0191296,1.68,-2.66,0.21,21.5717,-50.1921,-19.2855,1023.35
21452,0.487805,9.8374,0.0143472,1.68,-2.24,0,21.4554,-50.994,-18.9309,1023.37
21458,0.487805,9.80392,0.0095648,1.26,-2.45,0.14,21.4845,-50.9631,-19.1378,1023.37
21464,0.492587,9.82305,-0.0095648,1.75,-2.59,0.35,21.8622,-49.5137,-19.1525,1023.37
21470,0.492587,9.81349,0.0286944,1.61,-2.66,0.14,21.6007,-50.223,-18.9604,1023.37
21476,0.483022,9.84218,0.023912,1.33,-2.59,0.14,22.24,-50.408,-18.5024,1023.39
21482,0.49737,9.80392,-0.0143472,1.54,-2.94,0.35,22.0366,-49.5753,-17.5715,1023.39
21488,0.521282,9.8087,0,1.47,-2.31,0.63,22.3271,-50.8398,-17.6749,1023.39
21494,0.502152,9.79914,0.0095648,1.54,-2.87,0.35,22.2109,-50.3155,-17.1577,1023.39
21500,0.49737,9.84696,0.0143472,2.03,-2.52,0.42,21.6007,-49.8529,-18.0886,1023.39
21506,0.492587,9.78957,-0.0143472,1.54,-2.59,0.07,21.7169,-50.5622,-17.6897,1023.38
21512,0.487805,9.82783,-0.0047824,1.47,-2.87,0.49,22.4724,-51.0248,-18.4728,1023.38
21518,0.521282,9.84696,0,1.75,-2.73,0.49,22.1528,-50.8398,-19.5515,1023.41
21524,0.506934,9.82305,0.0047824,1.54,-2.45,0.14,22.3271,-50.0071,-18.9604,1023.41
21530,0.506934,9.86131,0.0286944,1.33,-2.38,0.28,22.1528,-50.8398,-18.4728,1023.4
21536,0.47824,9.80392,0.0047824,2.17,-2.94,0,22.2109,-50.5005,-18.591,1023.4
21542,0.473458,9.82305,0.0191296,1.4,-2.8,0.14,21.6879,-50.1613,-19.4481,1023.4
21548,0.506934,9.83261,0,1.61,-2.59,0.07,22.3852,-50.5314,-18.8422,1023.4
21554,0.49737,9.81827,0.0095648,1.75,-2.59,0.28,22.1528,-50.4389,-18.133,1023.4
21560,0.47824,9.8374,0.023912,1.19,-2.59,0.28,21.746,-49.8529,-19.5072,1023.37
21566,0.49737,9.83261,-0.0191296,1.68,-2.52,0.14,22.1237,-50.1305,-18.7536,1023.37
21572,0.502152,9.85174,0.0382592,1.47,-2.59,-0.07,21.6298,-50.1921,-18.724,1023.38
21578,0.487805,9.82305,0.0286944,1.47,-2.73,0.49,21.9494,-50.0379,-19.1969,1023.38
21584,0.511717,9.81827,0.0095648,2.03,-3.01,0.21,21.4554,-50.0996,-18.5467,1023.36
21590,0.49737,9.8374,0.047824,1.68,-2.24,0.14,22.1818,-51.0557,-18.1773,1023.36
21596,0.492587,9.83261,0.0143472,1.89,-2.59,0.21,22.2109,-50.6547,-18.0591,1023.36
21602,0.506934,9.82783,0.0143472,1.61,-2.94,0.07,22.1237,-49.7295,-18.4433,1023.36
21608,0.511717,9.81349,-0.0095648,1.61,-2.66,0.07,22.763,-50.0071,-16.7735,1023.36
21614,0.506934,9.82305,0,1.89,-2.59,0.35,21.7751,-49.637,-17.6601,1023.36
21620,0.49737,9.82305,-0.0047824,1.33,-2.38,0.35,22.1818,-49.6062,-17.4533,1023.36
21626,0.521282,9.8374,-0.0047824,1.82,-2.31,0,21.8622,-49.8837,-19.3151,1023.37
21632,0.483022,9.82305,0.0095648,1.68,-2.8,0.28,22.269,-50.5005,-18.0295,1023.37
21638,0.506934,9.85174,0.0095648,1.19,-2.73,0.35,21.8622,-49.9763,-19.3446,1023.38
21644,0.47824,9.83261,0.0143472,1.47,-2.45,-0.07,22.4143,-49.8529,-18.3989,1023.38
21650,0.506934,9.82783,0.0095648,1.47,-2.45,0,22.3852,-50.2847,-17.335,1023.37
21656,0.483022,9.81827,-0.0334768,1.47,-2.59,0.35,22.5596,-50.2538,-18.9161,1023.37
21662,0.502152,9.81349,0.023912,1.61,-2.66,-0.14,22.0656,-49.8221,-18.7536,1023.37
21668,0.487805,9.83261,0.0095648,1.54,-2.59,-0.56,22.0075,-50.5931,-18.5319,1023.36
21674,0.511717,9.8374,0.0095648,1.33,-2.24,0.14,21.7751,-50.0996,-17.2464,1023.36
21680,0.526064,9.81827,0.0095648,1.54,-2.66,0.35,22.2109,-49.2361,-18.591,1023.37
21686,0.49737,9.79914,0.0286944,1.82,-2.66,0,21.8622,-50.3155,-18.6501,1023.37
21692,0.511717,9.83261,0.0047824,1.19,-2.38,-0.21,21.8913,-50.0688,-17.3794,1023.35
21698,0.47824,9.80392,0.0143472,1.82,-2.38,0.35,20.9324,-49.3286,-18.1921,1023.35
21704,0.502152,9.83261,0.0191296,1.33,-2.45,0.14,20.8162,-49.5445,-17.5567,1023.39
21710,0.483022,9.81827,-0.0143472,1.26,-2.73,0.14,21.6007,-50.4697,-17.5124,1023.39
21716,0.483022,9.81349,0.0191296,1.47,-3.08,0.35,21.5426,-50.7164,-18.3103,1023.39
21722,0.487805,9.82305,-0.0382592,1.61,-2.66,0.07,21.7169,-49.5137,-19.3594,1023.37
21728,0.492587,9.82783,-0.0143472,1.68,-2.38,-0.07,22.1818,-49.637,-17.8818,1023.37
21734,0.521282,9.85653,0.0286944,1.54,-2.73,0.28,21.9785,-50.5931,-19.4185,1023.36
21740,0.506934,9.81349,0.0047824,1.47,-2.31,0.14,21.1649,-50.0996,-18.6945,1023.36
21746,0.530846,9.84696,0.0095648,1.68,-2.45,0.42,21.3392,-50.2847,-18.6649,1023.38
21752,0.506934,9.8374,-0.023912,1.05,-2.8,0.63,21.746,-50.2847,-18.5615,1023.38
21758,0.483022,9.83261,-0.0286944,1.61,-2.87,-0.28,22.0366,-49.637,-18.7092,1023.37
21764,0.502152,9.8374,0,1.12,-2.38,-0.07,22.3271,-49.3903,-18.5763,1023.37
21770,0.487805,9.85653,0.0143472,1.82,-2.52,0,21.746,-50.6239,-17.9409,1023.38
21776,0.511717,9.82305,0.0191296,1.96,-2.45,0.07,21.223,-50.1921,-19.0934,1023.38
21782,0.502152,9.82305,0.0286944,1.54,-2.31,0.35,22.2109,-49.5445,-18.3842,1023.38
21788,0.49737,9.8374,0.0095648,1.61,-2.52,-0.21,21.4554,-50.223,-16.2268,1023.38
21794,0.47824,9.82305,0.0047824,1.4,-2.38,0.28,22.0366,-50.0379,-16.877,1023.38
21800,0.492587,9.83261,-0.0095648,1.54,-2.73,0.28,21.4845,-49.2978,-18.4137,1023.36
21806,0.506934,9.84696,-0.0095648,1.61,-2.52,0.21,21.4845,-50.1921,-19.1082,1023.36
21812,0.49737,9.83261,0.0047824,1.26,-2.59,0.35,21.6298,-50.3463,-18.133,1023.37
21818,0.502152,9.8374,-0.0095648,1.47,-2.8,0.21,21.9494,-49.5753,-18.9309,1023.37
21824,0.473458,9.84218,0.0047824,1.68,-2.66,0.28,21.9785,-50.3155,-18.4728,1023.38
21830,0.506934,9.80392,0.0047824,1.61,-2.59,-0.28,22.0947,-50.6239,-16.4928,1023.38
21836,0.492587,9.83261,0.0526064,1.68,-2.52,0.21,22.763,-49.2978,-17.5271,1023.38
21842,0.535629,9.83261,-0.0191296,1.61,-2.8,-0.14,20.9905,-49.6679,-17.5124,1023.4
21848,0.502152,9.80392,0.0191296,1.4,-3.01,0.21,21.7169,-49.4212,-17.9409,1023.4
21854,0.47824,9.85174,0.0143472,1.75,-2.87,0.14,21.6007,-49.5137,-18.2512,1023.33
21860,0.511717,9.8374,-0.0047824,1.68,-3.08,-0.07,21.3973,-48.9894,-18.3546,1023.33
21866,0.49737,9.84218,0.0047824,1.47,-2.66,0.07,21.7169,-49.9763,-17.3498,1023.34
21872,0.521282,9.83261,0.0286944,1.12,-2.38,0.07,21.6298,-49.7604,-17.6601,1023.34
21878,0.483022,9.81349,0.0095648,1.47,-2.52,-0.14,21.7751,-49.2978,-17.7783,1023.36
21884,0.49737,9.82305,-0.0047824,1.68,-3.15,-0.14,22.9083,-50.3772,-18.591,1023.36
21890,0.492587,9.81827,0.0047824,1.68,-2.73,0.14,22.3562,-50.2847,-17.8818,1023.36
21896,0.483022,9.84696,0.047824,1.54,-2.17,0.49,21.8332,-49.452,-18.9161,1023.37
21902,0.47824,9.79914,0.0430416,1.47,-2.38,0.28,21.252,-49.2053,-18.4876,1023.37
21908,0.521282,9.82783,-0.0047824,1.4,-2.45,0.21,21.223,-50.3155,-19.2264,1023.37
21914,0.483022,9.82783,-0.0095648,1.75,-2.52,0,21.3683,-50.0071,-18.5024,1023.37
21920,0.487805,9.8087,0.0191296,1.33,-2.52,0.14,21.6007,-49.2669,-17.4828,1023.4
21926,0.502152,9.81827,0.0143472,1.47,-2.45,0.56,21.3683,-49.3595,-18.3398,1023.4
21932,0.47824,9.79914,0,1.82,-2.52,0,21.9785,-50.0688,-18.5763,1023.34
21938,0.49737,9.82305,-0.0286944,1.68,-2.1,0.21,21.6879,-49.3903,-18.4433,1023.34
21944,0.49737,9.83261,0,1.4,-2.59,0.28,20.9615,-50.9323,-19.7879,1023.36
21950,0.468675,9.82305,0.0095648,1.54,-2.66,0.07,21.7169,-49.8837,-17.6897,1023.36
21956,0.506934,9.80392,0.0143472,1.47,-2.31,0.21,22.1818,-49.1436,-18.5615,1023.36
21962,0.502152,9.82305,0,1.26,-2.45,0.35,22.3852,-49.8837,-17.8818,1023.37
21968,0.473458,9.82783,-0.0047824,1.54,-2.1,0.07,21.9203,-49.9146,-17.9113,1023.37
21974,0.502152,9.85653,-0.0286944,1.19,-2.52,0,22.5596,-50.3772,-17.8522,1023.37
21980,0.526064,9.84218,0.0047824,1.75,-2.94,0.07,21.746,-49.5753,-19.6845,1023.37
21986,0.463893,9.82305,0.0191296,1.19,-2.17,0.42,21.9785,-49.8837,-18.4876,1023.35
21992,0.473458,9.79914,0.023912,1.4,-2.59,-0.07,22.1818,-50.3772,-18.1182,1023.35
21998,0.502152,9.84218,-0.0047824,1.68,-2.38,0.21,21.746,-49.2053,-17.6601,1023.4
22004,0.49737,9.82305,0,1.68,-2.94,0.21,22.6758,-49.2978,-19.1673,1023.4
22010,0.506934,9.84218,0.0286944,1.26,-2.59,0.14,22.3852,-50.7164,-17.2464,1023.4
22016,0.516499,9.8087,-0.0047824,1.68,-2.8,0,22.2109,-49.7604,-17.7636,1023.33
22022,0.492587,9.86609,0.0143472,1.54,-2.8,0,22.6468,-49.3903,-17.734,1023.33
22028,0.49737,9.83261,-0.0095648,1.61,-2.52,0.21,21.5717,-49.5753,-17.5715,1023.38
22034,0.502152,9.81349,0.023912,1.33,-2.59,0.14,22.5305,-49.6987,-18.3398,1023.38
22040,0.49737,9.8087,0.0047824,1.75,-2.59,0.21,21.8332,-50.0379,-18.8422,1023.36
22046,0.502152,9.85174,0.0047824,1.54,-2.66,-0.14,22.7339,-49.8837,-17.5567,1023.36
22052,0.511717,9.79436,0.0143472,1.47,-2.66,0,22.3271,-50.3155,-18.724,1023.38
22058,0.468675,9.83261,-0.0095648,1.47,-3.01,0.7,22.0947,-49.9454,-18.0148,1023.38
22064,0.473458,9.80392,-0.0143472,1.26,-2.38,0.21,21.5426,-49.6679,-18.1477,1023.38
22070,0.506934,9.84218,0.023912,1.61,-2.73,0.14,22.4143,-50.0071,-17.2759,1023.38
22076,0.526064,9.8374,0.023912,1.68,-2.24,0.35,22.9373,-49.452,-17.5419,1023.38
22082,0.511717,9.80392,0.0143472,1.19,-2.31,0.35,22.4724,-48.9586,-18.4137,1023.38
22088,0.526064,9.81827,0.0430416,1.75,-2.87,-0.07,22.1818,-50.223,-18.6649,1023.38
22094,0.47824,9.84218,0.0143472,1.4,-2.52,-0.07,22.6177,-50.9015,-17.9704,1023.39
22100,0.49737,9.8087,0.0334768,1.33,-2.45,0.07,21.4845,-49.2053,-19.3299,1023.39
22106,0.492587,9.82305,0.0191296,1.68,-2.1,0.14,21.3101,-50.223,-19.1821,1023.38
22112,0.473458,9.8374,-0.0047824,1.68,-2.66,0.21,21.4264,-50.1921,-17.2907,1023.38
22118,0.468675,9.80392,0.0047824,1.61,-2.59,0.42,22.0947,-49.2053,-18.2807,1023.38
22124,0.511717,9.80392,0.0095648,1.47,-2.73,-0.07,20.8452,-50.0071,-18.2216,1023.37
22130,0.492587,9.81827,-0.0095648,1.47,-2.45,0.42,21.746,-49.7912,-17.7045,1023.37
22136,0.535629,9.81827,-0.0191296,1.61,-2.52,0.35,21.8041,-49.2978,-17.5124,1023.35
22142,0.526064,9.8374,0.0286944,1.68,-2.59,-0.14,21.3973,-49.1436,-19.4776,1023.35
22148,0.49737,9.82305,0.0047824,1.61,-2.31,0.07,21.3392,-49.8837,-20.1721,1023.37
22154,0.511717,9.8374,0.0286944,1.47,-2.8,0.14,21.5135,-50.0996,-18.1477,1023.37
22160,0.487805,9.81349,0.0095648,1.05,-2.45,0.35,21.746,-49.4828,-19.0343,1023.35
22166,0.483022,9.80392,0.0143472,1.54,-2.66,0.07,21.4554,-49.8221,-17.8227,1023.35
22172,0.506934,9.8087,0.0430416,1.33,-2.66,0.35,22.0366,-49.9146,-16.7735,1023.36
22178,0.487805,9.85653,0.0095648,1.61,-2.8,0.07,21.5717,-49.9454,-18.9752,1023.36
22184,0.502152,9.82783,-0.0143472,1.82,-2.73,0.07,22.2109,-49.9146,-18.3546,1023.36
22190,0.506934,9.81827,0.0143472,1.33,-2.17,0.07,22.4434,-50.0688,-17.3941,1023.41
22196,0.502152,9.81349,0.0047824,1.47,-2.31,-0.14,22.0656,-50.1305,-18.0886,1023.41
22202,0.468675,9.84696,0.0095648,1.54,-2.94,0.28,21.3392,-49.4212,-18.5763,1023.39
22208,0.49737,9.82305,0,1.47,-2.94,0.07,21.3101,-50.1921,-18.0443,1023.39
22214,0.483022,9.78001,-0.0095648,1.33,-2.31,0.07,22.4724,-49.7604,-18.5763,1023.35
22220,0.511717,9.79914,0.0047824,1.96,-2.94,0.35,21.7751,-49.3595,-20.0539,1023.35
22226,0.502152,9.83261,0.0286944,1.75,-2.52,0.14,21.3392,-50.223,-19.123,1023.36
22232,0.487805,9.81827,-0.0047824,1.68,-2.24,0.07,21.8913,-49.3903,-18.1625,1023.36
22238,0.502152,9.8087,0.0191296,1.54,-2.8,0.21,21.8041,-49.7604,-19.6402,1023.36
22244,0.526064,9.82783,0.0286944,1.89,-2.17,0.21,21.5426,-50.408,-18.9752,1023.36
22250,0.49737,9.84218,0.0191296,1.89,-3.22,0.28,21.5135,-51.0865,-18.6354,1023.36
22256,0.483022,9.8374,-0.0047824,1.54,-2.8,0.28,22.0656,-49.5445,-18.9309,1023.37
22262,0.535629,9.82783,0.0191296,1.75,-2.45,0.14,20.7581,-49.1436,-18.1477,1023.37
22268,0.49737,9.83261,0.0143472,1.68,-2.45,0.35,21.8622,-49.9454,-18.7536,1023.36
22274,0.535629,9.8374,-0.0047824,1.61,-2.66,0.42,22.24,-50.3772,-18.4728,1023.36
22280,0.483022,9.8374,-0.0047824,1.26,-2.52,0.14,21.3101,-49.2669,-18.591,1023.37
22286,0.487805,9.8374,-0.0191296,1.33,-2.38,0.28,21.8041,-50.6856,-18.5024,1023.37
22292,0.521282,9.82783,0.0095648,1.54,-2.52,0.21,21.7751,-50.8089,-19.0934,1023.37
22298,0.516499,9.8374,0.0191296,1.68,-2.66,0.07,21.3101,-50.1305,-18.1477,1023.37
22304,0.511717,9.81349,0.0095648,1.61,-2.59,17.64,21.0196,-50.7781,-19.2855,1023.37
22310,0.49737,9.84696,-0.0143472,1.61,-2.59,0.07,22.3852,-49.8837,-18.1477,1023.39
22316,0.502152,9.85174,-0.0334768,1.61,-2.45,0.07,21.9494,-50.5005,-18.3546,1023.39
22322,0.487805,9.84696,0.023912,1.4,-2.24,-0.14,21.6007,-50.2538,-17.3203,1023.36
22328,0.463893,9.78479,0.0047824,1.61,-2.31,0.14,21.0196,-50.1921,-18.1182,1023.36
22334,0.502152,9.85653,0.0191296,1.47,-2.59,0.14,22.2981,-50.7164,-17.9852,1023.35
22340,0.506934,9.8374,-0.0286944,1.61,-2.24,0,21.3392,-49.5753,-18.1182,1023.35
22346,0.49737,9.83261,-0.0047824,1.47,-2.31,0.28,21.1067,-49.6987,-18.3842,1023.37
22352,0.502152,9.78001,0.0334768,1.47,-2.52,0.07,21.3973,-49.7604,-16.079,1023.37
22358,0.492587,9.84218,0.023912,1.75,-3.08,0.42,22.1237,-49.3595,-19.0491,1023.37
22364,0.521282,9.83261,-0.0286944,1.68,-2.94,0.07,21.8913,-49.9763,-18.5615,1023.38
22370,0.49737,9.8374,0.0095648,1.33,-2.66,0.07,21.6007,-50.2847,-17.5419,1023.38
22376,0.502152,9.77044,0.0334768,1.75,-2.8,-0.21,21.8913,-49.2361,-18.7979,1023.37
22382,0.49737,9.83261,0.0191296,1.47,-2.52,0.42,22.0075,-48.8969,-19.7288,1023.37
22388,0.511717,9.80392,0.0095648,1.61,-2.45,0.07,21.3392,-49.7912,-16.8917,1023.36
22394,0.483022,9.81827,-0.0047824,1.47,-2.59,-0.14,21.4554,-49.3903,-18.7092,1023.36
22400,0.492587,9.8087,0.023912,1.4,-2.59,0.42,21.6879,-50.1305,-18.3103,1023.38
22406,0.506934,9.8087,0.0191296,1.54,-2.87,-0.14,21.9785,-49.8837,-18.7684,1023.38
22412,0.487805,9.83261,0.0047824,1.26,-2.52,0.07,21.8622,-50.0996,-18.5024,1023.38
22418,0.502152,9.82783,-0.0047824,1.61,-2.45,0,21.6298,-49.9763,-18.3989,1023.36
22424,0.49737,9.84218,0,1.61,-2.87,0.07,21.5717,-49.6987,-18.2364,1023.36
22430,0.487805,9.8087,0.0143472,1.26,-2.59,0.21,21.5717,-50.3772,-18.2364,1023.36
22436,0.511717,9.80392,0.023912,1.96,-2.59,-0.28,21.1649,-50.3155,-18.6206,1023.36
22442,0.483022,9.8374,0.0047824,1.68,-2.17,0.63,21.5135,-49.8221,-19.5515,1023.34
22448,0.473458,9.8374,-0.0095648,1.4,-2.59,0.07,21.3392,-50.0688,-18.0591,1023.34
22454,0.473458,9.82783,0.047824,1.61,-2.66,0.14,22.1528,-50.408,-19.2116,1023.42
22460,0.47824,9.8087,0,1.61,-2.45,0.42,21.4264,-50.0688,-18.3398,1023.42
22466,0.492587,9.81349,-0.0143472,1.54,-2.59,0.42,21.8622,-49.8529,-18.8422,1023.42
22472,0.463893,9.82305,0.0143472,1.54,-2.8,-0.07,21.7751,-49.9146,-17.1134,1023.37
22478,0.492587,9.81349,0.047824,1.54,-2.52,0.35,21.5426,-49.5137,-19.2412,1023.37
22484,0.47824,9.8087,0.023912,1.61,-2.52,0.35,21.746,-49.5753,-18.3842,1023.36
22490,0.47824,9.83261,-0.0095648,1.61,-2.66,-0.21,22.4724,-50.3155,-17.6749,1023.36
22496,0.487805,9.84218,0.0191296,1.54,-2.73,-0.21,22.3562,-50.4389,-18.9604,1023.4
22502,0.502152,9.81827,0,1.61,-2.66,0.56,21.4554,-49.452,-18.4285,1023.4
22508,0.511717,9.81827,0.0047824,1.61,-2.52,-0.07,22.0656,-50.9323,-16.6258,1023.39
22514,0.473458,9.82783,0.0382592,1.4,-2.45,0.07,22.0075,-49.7295,-18.3842,1023.39
22520,0.492587,9.84218,0.0430416,1.61,-2.38,0.07,21.0486,-49.8529,-17.9113,1023.38
22526,0.47824,9.81827,-0.023912,1.47,-2.45,0.07,21.8913,-50.3463,-16.4485,1023.38
22532,0.502152,9.8374,-0.0191296,1.75,-2.73,0,22.0656,-50.1305,-16.7144,1023.38
22538,0.483022,9.81349,0.023912,1.61,-2.73,0,21.6588,-49.9146,-18.4728,1023.41
22544,0.47824,9.80392,0.0621712,1.54,-2.66,0.07,21.3392,-49.6987,-18.4433,1023.41
22550,0.483022,9.8374,0.0286944,1.68,-2.52,-0.21,21.252,-50.9015,-18.0443,1023.36
22556,0.492587,9.80392,-0.0047824,1.54,-2.66,0.07,21.252,-50.0688,-18.591,1023.36
22562,0.47824,9.81827,0.0047824,1.61,-2.87,0.07,21.7751,-49.2053,-18.8127,1023.38
22568,0.492587,9.80392,0.0430416,1.33,-2.45,-0.21,21.1067,-50.2538,-17.4533,1023.38
22574,0.47824,9.79436,-0.0143472,1.82,-2.94,0.28,21.4845,-50.0688,-18.1773,1023.32
22580,0.492587,9.84218,-0.0095648,1.54,-2.52,0.21,21.5717,-50.1305,-18.9013,1023.32
22586,0.506934,9.82783,-0.0047824,1.61,-2.31,0.35,22.2981,-50.223,-18.1773,1023.32
22592,0.487805,9.81827,0.0095648,1.4,-2.31,0.21,22.1237,-50.2847,-17.6601,1023.36
22598,0.468675,9.8374,-0.0191296,1.33,-2.52,0.14,21.9494,-49.8221,-19.1673,1023.36
22604,0.516499,9.82783,0.0191296,1.61,-2.73,0.77,22.0075,-49.8837,-18.6797,1023.36
22610,0.487805,9.82783,0.0191296,1.61,-2.59,0.42,22.3562,-50.0996,-18.0443,1023.36
22616,0.483022,9.81827,0.0286944,1.68,-2.52,-0.14,22.4434,-49.8529,-20.0982,1023.38
22622,0.487805,9.8374,0.0334768,1.61,-2.8,0.28,22.1818,-50.223,-20.3199,1023.38
22628,0.521282,9.85174,0.0095648,1.54,-2.31,0.14,22.0075,-50.5005,-19.0048,1023.38
22634,0.49737,9.82305,-0.0095648,1.47,-2.38,-0.07,21.3973,-49.452,-19.0048,1023.38
22640,0.49737,9.81827,0.0047824,1.12,-2.38,0.28,21.6298,-48.9894,-18.591,1023.38
22646,0.468675,9.82305,0.023912,1.61,-2.94,0,22.4724,-49.7604,-18.5763,1023.39
22652,0.483022,9.80392,0.023912,1.4,-2.66,0.14,21.3683,-50.1305,-19.0934,1023.39
22658,0.463893,9.82783,0.0334768,1.61,-2.73,0,22.5886,-49.7604,-19.5515,1023.35
22664,0.511717,9.84696,0.0047824,1.61,-2.38,0.14,21.252,-50.3155,-18.458,1023.35
22670,0.45911,9.84218,0.0191296,1.75,-2.45,0,22.0947,-51.1173,-18.5615,1023.37
22676,0.483022,9.83261,0.0286944,1.33,-2.24,0.49,22.0366,-49.3903,-19.1969,1023.37
22682,0.502152,9.81827,-0.0047824,1.33,-2.38,0,21.2811,-49.9146,-18.5172,1023.38
22688,0.487805,9.78479,0.0095648,1.33,-2.59,0.42,21.4845,-50.1305,-19.5663,1023.38
22694,0.444763,9.80392,0.0191296,1.4,-2.59,0.42,22.0947,-49.5137,-19.1969,1023.36
22700,0.502152,9.78479,0,1.96,-2.31,0,22.0075,-49.3286,-18.7388,1023.36
22706,0.473458,9.8374,0.0526064,1.47,-2.73,0.21,21.746,-50.0071,-17.7488,1023.36
22712,0.511717,9.80392,0.023912,1.47,-2.31,0.28,22.0947,-49.6062,-18.266,1023.39
22718,0.49737,9.81349,0.0191296,1.68,-2.52,0.28,22.1237,-48.9894,-19.2264,1023.39
22724,0.545194,9.82783,-0.0143472,1.54,-2.52,0.14,22.1528,-49.6987,-19.5663,1023.35
22730,0.47824,9.84696,0.0191296,1.33,-2.45,0.42,22.269,-50.0996,-17.6749,1023.35
22736,0.487805,9.81827,0.0430416,1.54,-2.66,0.07,21.8913,-49.2669,-18.9013,1023.39
22742,0.487805,9.81349,0.0334768,1.54,-2.45,0.28,21.1939,-50.2847,-18.7536,1023.39
22748,0.492587,9.85174,0.0382592,1.68,-2.45,0.42,21.6588,-50.1613,-19.1378,1023.37
22754,0.49737,9.84218,0.0047824,1.4,-2.45,0.21,22.5015,-49.9763,-18.2068,1023.37
22760,0.526064,9.8087,0.0143472,1.68,-2.66,-0.07,22.3562,-49.3595,-19.389,1023.37
22766,0.483022,9.81349,0.0047824,1.61,-2.66,0.63,20.9034,-50.2847,-18.0148,1023.36
22772,0.492587,9.82305,0.0286944,1.47,-2.17,0.28,21.3973,-50.2847,-18.5763,1023.36
22778,0.483022,9.84696,0.023912,1.75,-2.73,0.56,22.7049,-49.2978,-18.2807,1023.37
22784,0.473458,9.83261,0.0143472,1.68,-2.45,0.28,22.0656,-49.637,-19.2412,1023.37
22790,0.521282,9.80392,0.0191296,1.75,-2.8,0.07,22.5305,-50.223,-18.5467,1023.34
22796,0.49737,9.8374,0.0286944,1.68,-2.59,0.07,21.6588,-49.5137,-20.4676,1023.34
22802,0.502152,9.79436,0,1.68,-2.24,0.28,21.9785,-49.3595,-18.6797,1023.36
22808,0.487805,9.81349,0.0334768,1.75,-2.52,-0.21,21.3683,-50.5314,-17.5862,1023.36
22814,0.483022,9.82783,-0.0095648,1.47,-2.38,0.42,22.5596,-50.5622,-19.256,1023.36
22820,0.506934,9.81827,-0.0143472,1.68,-2.52,0.7,21.6879,-49.0819,-18.8718,1023.33
22826,0.487805,9.83261,-0.0047824,1.47,-2.31,0.28,22.1237,-49.6987,-18.0295,1023.33
22832,0.492587,9.82305,0.0095648,1.75,-2.8,-0.21,21.746,-50.408,-19.3299,1023.38
22838,0.483022,9.79914,0.0047824,1.96,-2.66,0.14,21.3683,-49.8837,-20.2164,1023.38
22844,0.483022,9.79914,0.0430416,1.33,-2.59,0,21.5135,-49.9763,-18.9309,1023.37
22850,0.483022,9.81827,-0.0047824,1.75,-3.08,-0.21,22.3852,-50.408,-18.1182,1023.37
22856,0.45911,9.84218,0.0286944,1.4,-2.94,-0.07,22.0075,-49.7604,-18.3989,1023.35
22862,0.492587,9.79914,0.0191296,1.54,-2.73,0.21,22.0947,-49.9763,-19.389,1023.35
22868,0.502152,9.82783,-0.0286944,1.47,-2.45,0.56,21.252,-52.0425,-19.4185,1023.38
22874,0.506934,9.8374,-0.0191296,1.4,-2.17,0.35,21.4845,-50.4697,-18.2512,1023.38
22880,0.492587,9.80392,0.023912,1.12,-2.1,-0.21,21.6879,-49.6987,-17.8965,1023.38
22886,0.49737,9.81827,-0.0191296,1.61,-2.66,0.07,22.269,-50.3155,-17.9113,1023.37
22892,0.521282,9.8087,0.0095648,1.61,-2.66,0.14,22.1528,-49.7295,-17.2021,1023.37
22898,0.487805,9.82783,0.0143472,1.33,-2.24,0.14,21.7751,-49.452,-18.591,1023.39
22904,0.506934,9.82783,0.0191296,1.4,-2.31,0.07,22.0075,-49.5445,-18.1921,1023.39
22910,0.47824,9.82783,-0.0095648,1.26,-2.52,0.21,22.0947,-50.223,-18.6501,1023.38
22916,0.492587,9.80392,0.0095648,1.61,-2.59,0.14,21.8913,-49.637,-19.5072,1023.38
22922,0.511717,9.8087,-0.023912,1.33,-2.52,-0.07,21.6007,-49.7604,-19.1378,1023.36
22928,0.502152,9.79436,0.0047824,1.75,-2.8,0.21,22.269,-50.408,-18.3694,1023.36
22934,0.487805,9.8087,0.0286944,1.33,-2.52,0.56,20.8162,-50.0071,-17.8374,1023.36
22940,0.45911,9.78479,0.0047824,1.54,-2.94,0.42,21.3683,-49.3903,-19.3299,1023.39
22946,0.483022,9.8374,-0.0191296,1.4,-2.1,0.14,21.5426,-49.7604,-19.1673,1023.39
22952,0.511717,9.81827,0.0334768,0.84,-1.96,0.14,21.6879,-49.3903,-18,1023.34
22958,0.516499,9.8087,0.0334768,1.54,-2.8,-0.21,21.3392,-50.0688,-19.3299,1023.34
22964,0.487805,9.79914,0,1.26,-2.52,0,22.1528,-48.6502,-18.6649,1023.39
22970,0.483022,9.8374,0.0334768,1.89,-2.94,0.35,22.4724,-49.2053,-18.2216,1023.39
22976,0.487805,9.84218,0,1.12,-2.31,0.14,22.0366,-49.637,-19.2855,1023.37
22982,0.473458,9.82783,-0.0047824,1.47,-2.45,0.28,21.9203,-49.1436,-18.4728,1023.37
22988,0.502152,9.82305,0.0334768,1.61,-2.94,0.07,22.2109,-49.5445,-18.7831,1023.37
22994,0.492587,9.83261,0.0047824,1.33,-2.8,-0.21,22.5305,-49.9454,-18.7092,1023.38
23000,0.492587,9.83261,-0.0095648,1.54,-2.38,0.28,20.9905,-48.9277,-18.0886,1023.38
23006,0.483022,9.82783,0.0047824,1.54,-2.52,0.21,22.0656,-50.2847,-17.9261,1023.38
23012,0.492587,9.82783,0.0334768,1.54,-2.59,-0.21,21.9203,-49.9454,-18.724,1023.38
23018,0.483022,9.84218,0.0143472,1.68,-2.45,-0.28,22.0366,-49.8529,-20.1573,1023.37
23024,0.506934,9.83261,0.0095648,1.4,-2.38,0.49,22.0366,-50.2847,-17.6306,1023.37
23030,0.516499,9.85174,0.023912,1.54,-2.66,0.35,21.8332,-50.5005,-17.7488,1023.38
23036,0.45911,9.82305,0,1.33,-2.59,-0.21,21.6879,-49.5137,-19.6254,1023.38
23042,0.502152,9.8374,0.0143472,1.54,-2.45,0.35,21.9203,-49.9146,-19.6697,1023.35
23048,0.487805,9.81349,0.0143472,1.68,-2.73,0.14,22.2981,-50.1921,-16.3598,1023.35
23054,0.487805,9.80392,0.023912,1.61,-2.73,0.28,21.6298,-50.0379,-18.3103,1023.35
23060,0.483022,9.82783,0,1.33,-3.08,0.28,21.8913,-49.6679,-18.5172,1023.37
23066,0.487805,9.85653,0.023912,1.68,-2.8,-0.07,21.6298,-50.5005,-19.2264,1023.37
23072,0.521282,9.85174,0.023912,1.47,-2.52,-0.28,22.3562,-49.9454,-17.867,1023.38
23078,0.492587,9.82305,0.0095648,1.47,-2.52,0.28,21.8041,-49.452,-19.0787,1023.38
23084,0.487805,9.8374,-0.0095648,1.26,-2.52,0.35,21.223,-50.0071,-17.7931,1023.38
23090,0.492587,9.84218,-0.0047824,1.33,-2.8,-0.28,21.9203,-50.408,-16.5371,1023.38
23096,0.47824,9.79436,0,1.89,-2.87,0.07,21.7169,-49.0511,-16.7735,1023.4
23102,0.492587,9.8374,-0.0047824,1.61,-2.66,0.21,21.4845,-50.5005,-18.458,1023.4
23108,0.511717,9.80392,-0.0047824,1.12,-2.17,-0.14,21.5426,-50.6856,-17.5715,1023.4
23114,0.502152,9.82305,0.0047824,1.47,-2.59,0.21,22.5015,-50.5931,-17.7783,1023.35
23120,0.492587,9.79914,0.0334768,1.54,-2.17,0.42,21.223,-49.7912,-19.4628,1023.35
23126,0.47824,9.79914,0.0334768,1.54,-2.17,0.35,21.7169,-50.5314,-17.1873,1023.38
23132,0.47824,9.81349,0.0095648,1.82,-2.66,0.07,21.9203,-50.0688,-18.4285,1023.38
23138,0.49737,9.82305,0.0047824,1.26,-2.31,0.35,21.9494,-49.6679,-18.266,1023.37
23144,0.483022,9.84696,0.0047824,1.4,-2.8,0.21,21.3683,-49.8529,-18.9161,1023.37
23150,0.492587,9.79914,0.0286944,1.54,-3.01,0.35,21.4264,-50.0688,-17.3794,1023.37
23156,0.483022,9.81827,0.0286944,1.26,-2.31,-0.14,21.0777,-49.6679,-19.123,1023.37
23162,0.492587,9.84696,0.023912,1.47,-2.52,0.56,21.4264,-49.2978,-18.458,1023.37
23168,0.483022,9.80392,0.0047824,1.47,-2.59,0.35,22.1237,-50.3155,-18.9752,1023.38
23174,0.511717,9.81827,0,1.61,-2.66,0.14,21.6879,-49.5753,-19.5958,1023.38
23180,0.502152,9.82783,-0.0095648,1.54,-2.73,17.85,21.9785,-48.3418,-19.4924,1023.37
23186,0.49737,9.83261,-0.0143472,1.61,-2.73,0.35,21.6588,-49.8837,-18.0443,1023.37
23192,0.502152,9.82783,0.0191296,1.75,-3.01,0.21,22.2109,-50.0379,-17.8374,1023.37
23198,0.506934,9.82783,0.0095648,1.26,-2.73,0.14,21.2811,-49.8529,-18.8422,1023.37
23204,0.492587,9.8087,0.0286944,1.54,-2.52,0.28,21.7169,-49.9454,-18.8275,1023.38
23210,0.502152,9.79436,0.0047824,1.75,-2.38,0.21,21.0196,-50.3772,-18.9457,1023.38
23216,0.483022,9.81349,0.0191296,1.33,-2.73,0,21.0196,-49.9454,-19.8618,1023.36
23222,0.49737,9.86609,-0.0191296,1.75,-2.59,0.21,21.1649,-49.8529,-19.2116,1023.36
23228,0.487805,9.82783,0.0191296,1.4,-2.24,0.42,21.5426,-50.5005,-17.2759,1023.36
23234,0.444763,9.81349,0,1.68,-2.66,0.14,21.2811,-49.7912,-19.5219,1023.37
23240,0.487805,9.82305,0.0191296,1.68,-2.87,0.28,21.5135,-49.0511,-18.7092,1023.37
23246,0.47824,9.81349,0.023912,1.96,-3.08,-0.14,20.7581,-49.9763,-19.6254,1023.38
23252,0.49737,9.79914,0.0095648,1.4,-2.52,0.35,21.3683,-50.0071,-18.3251,1023.38
23258,0.483022,9.82783,0.0047824,1.82,-3.08,0,20.4675,-49.637,-18.5615,1023.4
23264,0.47824,9.81827,0.0047824,1.89,-2.31,-0.14,20.4675,-50.1305,-19.7288,1023.4
23270,0.506934,9.81349,0,1.4,-2.52,0.21,21.6588,-50.5622,-19.0639,1023.38
23276,0.463893,9.81827,-0.0286944,1.47,-2.87,-0.14,20.8452,-51.1173,-19.3742,1023.38
23282,0.502152,9.81349,0.0191296,1.68,-2.94,0.28,20.2641,-50.1305,-19.2855,1023.38
23288,0.521282,9.85174,-0.0143472,1.54,-2.59,0.56,20.5547,-50.223,-19.256,1023.38
23294,0.483022,9.8087,0.0143472,1.47,-2.45,0.56,21.5135,-50.1613,-18,1023.38
23300,0.473458,9.86609,-0.023912,1.61,-2.52,0.28,21.3392,-50.4697,-18.8718,1023.34
23306,0.521282,9.84218,-0.0430416,1.4,-2.45,0.14,21.3392,-50.7473,-18.6945,1023.34
23312,0.483022,9.82783,-0.0095648,1.54,-2.8,0.28,21.3101,-50.994,-18.8275,1023.33
23318,0.473458,9.80392,0.0334768,1.68,-2.52,0,20.9324,-50.0688,-19.8175,1023.33
23324,0.468675,9.84696,0.0143472,1.82,-2.52,0.56,21.4264,-49.8529,-18.99,1023.39
23330,0.535629,9.80392,-0.0095648,1.61,-2.52,0.21,21.1649,-50.1921,-19.1082,1023.39
23336,0.487805,9.82305,-0.0095648,1.54,-2.59,-0.42,21.6298,-50.1305,-19.7879,1023.39
23342,0.463893,9.8087,0.0191296,1.75,-2.73,0.14,20.8743,-49.9763,-19.7288,1023.35
23348,0.449546,9.82305,0.0191296,1.75,-2.73,0.21,21.4845,-50.0071,-17.0838,1023.35
23354,0.49737,9.80392,-0.0286944,1.75,-2.45,-0.07,20.6128,-49.9763,-18.7536,1023.36
23360,0.487805,9.84218,-0.0143472,1.75,-2.66,0.28,21.1649,-50.0071,-19.6402,1023.36
23366,0.483022,9.8087,-0.0143472,1.61,-3.08,0.42,20.9905,-50.8398,-18.9013,1023.36
23372,0.473458,9.79914,-0.0047824,1.61,-2.45,0.42,21.746,-50.0688,-19.6106,1023.36
23378,0.49737,9.82783,0,1.47,-2.38,0.21,22.0075,-50.9631,-20.2312,1023.36
23384,0.511717,9.82783,-0.023912,1.89,-2.1,0.35,22.4143,-50.0379,-18.1921,1023.36
23390,0.492587,9.83261,-0.0191296,1.68,-2.52,-0.21,21.8622,-50.1613,-18.3694,1023.39
23396,0.487805,9.84696,-0.0143472,1.26,-2.38,0.07,20.8452,-49.9763,-19.0048,1023.39
23402,0.487805,9.8374,-0.0286944,1.33,-2.24,0.84,21.3392,-49.8221,-18.8866,1023.39
23408,0.487805,9.81827,0.0191296,1.33,-2.38,0.35,21.0196,-50.5622,-17.7636,1023.39
23414,0.506934,9.82305,-0.0047824,1.47,-2.8,0.21,22.0656,-50.1305,-19.2116,1023.39
23420,0.49737,9.8374,0.0286944,1.47,-2.8,0.35,22.3271,-49.8529,-18.5172,1023.4
23426,0.511717,9.81827,-0.0143472,1.61,-2.52,0.35,21.6879,-51.4257,-19.1525,1023.4
23432,0.511717,9.82783,-0.0191296,1.68,-2.87,0.21,22.269,-50.6547,-18.4876,1023.37
23438,0.492587,9.82305,0.0047824,1.12,-2.66,-0.21,21.2811,-49.5753,-18.7684,1023.37
23444,0.492587,9.83261,0.023912,1.75,-2.8,0.21,21.1939,-50.1613,-18.2955,1023.37
23450,0.49737,9.84696,-0.0143472,1.68,-3.15,-0.14,21.9785,-50.6239,-18.0591,1023.37
23456,0.487805,9.81827,-0.0334768,1.47,-2.87,0.14,21.3101,-49.5753,-17.9852,1023.37
23462,0.487805,9.80392,-0.0382592,1.54,-2.66,0.35,20.9324,-49.1744,-17.9556,1023.37
23468,0.49737,9.79436,0.0143472,1.89,-2.24,0.14,21.5135,-50.7781,-17.1282,1023.37
23474,0.492587,9.82783,-0.0286944,1.47,-2.52,0.42,21.3683,-49.8221,-19.1969,1023.35
23480,0.49737,9.82305,-0.0095648,1.75,-2.59,0.63,21.6007,-50.9323,-18.7831,1023.35
23486,0.506934,9.82305,-0.0191296,1.61,-2.87,0.14,21.7751,-51.179,-17.7636,1023.35
23492,0.468675,9.82783,-0.0191296,1.33,-2.38,-0.07,22.2109,-50.408,-18.3398,1023.35
23498,0.492587,9.8087,-0.023912,1.61,-2.45,0.49,22.4143,-50.1921,-18.8718,1023.37
23504,0.473458,9.81349,-0.0191296,1.61,-2.8,0.28,22.1818,-49.9146,-19.0343,1023.37
23510,0.511717,9.85174,-0.0095648,1.4,-2.87,0.21,22.4434,-50.0996,-19.2116,1023.37
23516,0.492587,9.81827,-0.0286944,1.68,-2.87,-17.57,21.5426,-49.2053,-17.8522,1023.38
23522,0.521282,9.84218,-0.0047824,1.47,-2.59,0,21.223,-49.4212,-19.6845,1023.38
23528,0.49737,9.82783,-0.0047824,1.54,-2.45,0.28,21.4554,-49.9146,-18.4285,1023.38
23534,0.49737,9.82305,-0.0191296,1.19,-2.8,0.14,21.7169,-49.8221,-18.6206,1023.38
23540,0.511717,9.82305,0.0286944,1.47,-2.66,-0.21,21.9494,-49.6679,-19.4481,1023.34
23546,0.49737,9.81827,-0.0286944,1.54,-3.01,0.14,21.7169,-50.9323,-18.2216,1023.34
23552,0.483022,9.78957,0.0191296,1.68,-2.52,0.21,21.6298,-50.223,-18.2364,1023.38
23558,0.49737,9.8087,0.0047824,1.19,-2.45,0,21.746,-49.3286,-20.2755,1023.38
23564,0.473458,9.78957,0.0143472,1.61,-2.52,0,21.3683,-50.0071,-18.9457,1023.38
23570,0.502152,9.78957,0.0334768,1.54,-2.45,0.28,22.1237,-50.5314,-16.9509,1023.38
23576,0.49737,9.8374,-0.0334768,1.54,-2.87,0.07,21.5426,-50.2847,-19.0787,1023.38
23582,0.506934,9.84218,0.0143472,1.12,-2.1,0.49,20.7871,-50.994,-20.3199,1023.34
23588,0.487805,9.80392,-0.0047824,1.61,-2.66,-0.07,22.24,-51.3949,-18.6354,1023.34
23594,0.502152,9.82783,0.0047824,1.61,-2.87,0.28,22.2109,-50.7781,-19.3003,1023.37
23600,0.506934,9.81827,0.0047824,1.75,-2.52,0.14,20.7581,-49.9146,-20.2608,1023.37
23606,0.473458,9.81349,0.0143472,1.12,-2.17,0.07,21.5717,-51.0865,-18.5763,1023.38
23612,0.463893,9.80392,-0.0047824,1.89,-2.38,0.21,21.746,-50.2538,-18.5467,1023.38
23618,0.47824,9.82305,0.0047824,1.4,-2.73,0.63,21.3683,-50.6239,-20.0539,1023.37
23624,0.483022,9.82305,0.0143472,1.75,-2.66,0.07,21.5135,-51.3024,-18.9604,1023.37
23630,0.49737,9.82783,-0.0047824,1.33,-2.8,0.14,21.5135,-50.6239,-17.8818,1023.37
23636,0.492587,9.88044,-0.0430416,1.68,-2.66,0.28,21.7751,-50.2538,-19.6549,1023.39
23642,0.506934,9.8374,-0.023912,1.47,-2.59,0,21.3392,-50.8089,-18.857,1023.39
23648,0.487805,9.79436,0.023912,1.75,-2.24,0.07,20.9905,-50.994,-20.0391,1023.36
23654,0.483022,9.82305,-0.0143472,1.26,-2.66,0.07,21.3973,-50.3463,-20.3347,1023.36
23660,0.511717,9.8374,-0.0286944,1.54,-2.38,0.35,21.3101,-49.8837,-20.8223,1023.38
23666,0.463893,9.83261,-0.023912,1.54,-2.59,-0.07,21.1649,-50.7473,-18.9457,1023.38
23672,0.487805,9.81349,-0.0143472,1.54,-2.45,-0.14,22.0366,-50.408,-18.3989,1023.39
23678,0.502152,9.79436,0.0286944,1.26,-2.45,0.14,21.223,-50.1921,-20.1721,1023.39
23684,0.468675,9.84218,-0.0143472,1.26,-2.52,-0.07,20.9034,-51.2715,-19.847,1023.39
23690,0.473458,9.83261,-0.0095648,1.26,-2.66,-0.21,22.1528,-50.9631,-18.6797,1023.39
23696,0.492587,9.81349,-0.0143472,1.47,-2.52,0.21,21.0486,-49.8221,-18.8422,1023.39
23702,0.506934,9.82305,0.0047824,1.68,-2.8,0.21,21.1358,-49.9763,-18.6501,1023.37
23708,0.449546,9.81827,-0.0095648,1.54,-2.66,0.7,21.0486,-50.9323,-17.4089,1023.37
23714,0.463893,9.82783,0.0095648,1.19,-2.45,0.21,21.8332,-49.4212,-19.1082,1023.35
23720,0.506934,9.83261,0.0047824,1.82,-2.66,-0.14,21.8041,-49.637,-19.6254,1023.35
23726,0.506934,9.82305,0.0334768,1.68,-2.87,-0.21,20.8743,-49.9763,-19.0787,1023.38
23732,0.473458,9.81827,0,1.54,-2.66,0.28,21.4554,-50.3155,-18.6797,1023.38
23738,0.511717,9.82783,-0.0047824,1.61,-2.66,0.35,21.252,-49.5445,-18.9604,1023.38
23744,0.492587,9.83261,-0.023912,1.96,-2.45,-0.07,21.0196,-50.8706,-18.9161,1023.38
23750,0.511717,9.82783,0.0143472,1.4,-2.03,0.28,21.4845,-49.8837,-18.8275,1023.38
23756,0.516499,9.8087,-0.0286944,1.33,-2.24,0.28,21.223,-49.8837,-19.4776,1023.38
23762,0.49737,9.85174,-0.0286944,1.47,-2.31,-0.07,21.6298,-50.408,-20.1573,1023.38
23768,0.473458,9.81349,-0.0430416,2.03,-2.8,0.07,21.1649,-50.1613,-18.9457,1023.39
23774,0.49737,9.81827,0.023912,1.89,-2.38,0,21.4264,-50.1305,-18.6797,1023.39
23780,0.473458,9.79914,0.0095648,1.75,-2.66,0.14,21.0486,-49.0511,-18.0148,1023.35
23786,0.47824,9.81349,-0.0382592,1.26,-2.38,0.14,21.3973,-50.1613,-18.5763,1023.35
23792,0.468675,9.84218,0.0095648,2.1,-3.01,-0.63,21.7169,-49.8221,-18.0148,1023.35
23798,0.492587,9.82305,-0.0143472,1.54,-2.52,0,20.8162,-49.5753,-19.0639,1023.35
23804,0.473458,9.83261,-0.0095648,1.54,-2.73,0.35,21.3392,-49.8529,-18.5172,1023.35
23810,0.492587,9.80392,-0.0191296,1.75,-2.8,0,21.8332,-50.3463,-19.5515,1023.36
23816,0.502152,9.84218,-0.0334768,1.54,-2.66,0.14,21.252,-50.0379,-19.0048,1023.36
23822,0.487805,9.84218,-0.0334768,1.68,-2.45,0.42,21.9494,-49.4828,-19.5072,1023.35
23828,0.473458,9.84696,0.0095648,1.89,-2.66,0.07,20.9324,-50.0071,-18.8422,1023.35
23834,0.49737,9.81827,-0.0191296,1.61,-3.08,0,21.9203,-49.9454,-18.1921,1023.37
23840,0.492587,9.82783,-0.0047824,1.61,-2.24,0.28,21.3973,-50.0688,-19.4776,1023.37
23846,0.492587,9.81349,-0.0047824,1.89,-2.24,0.14,21.7751,-50.1305,-18.7684,1023.4
23852,0.511717,9.82305,0,1.47,-2.94,0,21.252,-50.1921,-18.2955,1023.4
23858,0.47824,9.81349,0,1.61,-2.38,0.07,21.8332,-49.4212,-18.5615,1023.4
23864,0.487805,9.81827,-0.0047824,1.26,-2.59,-0.07,20.8162,-50.1305,-18.9752,1023.39
23870,0.487805,9.82783,0,1.47,-2.8,0.21,21.8041,-50.8398,-18.8866,1023.39
23876,0.492587,9.81349,-0.0334768,1.61,-2.66,-0.14,21.0777,-50.1613,-20.3199,1023.34
23882,0.473458,9.82783,0.0047824,1.54,-2.73,0.35,21.6588,-49.9454,-19.7436,1023.34
23888,0.502152,9.82783,0.0095648,1.54,-2.73,-0.35,22.0075,-51.179,-18.9013,1023.37
23894,0.463893,9.82305,0,1.12,-2.45,-0.07,21.2811,-49.9454,-20.113,1023.37
23900,0.473458,9.83261,0.0143472,1.61,-2.66,-0.07,21.6298,-49.9146,-18.8275,1023.38
23906,0.49737,9.83261,0.0191296,1.26,-2.45,0.28,21.6588,-50.1921,-19.4481,1023.38
23912,0.506934,9.8087,-0.0047824,1.96,-2.8,0,21.5717,-50.994,-19.3742,1023.34
23918,0.47824,9.85653,0.0047824,1.54,-2.73,-0.07,21.223,-49.7604,-20.0835,1023.34
23924,0.506934,9.8374,-0.0382592,1.4,-2.45,-0.35,21.6879,-50.3463,-18.5467,1023.34
23930,0.483022,9.8374,0,1.61,-2.73,0.14,21.6298,-49.6679,-18.591,1023.36
23936,0.47824,8.59397,-0.0191296,1.33,-2.52,0.42,21.4264,-49.452,-19.9652,1023.36
23942,0.492587,9.82305,-0.023912,1.61,-2.8,-0.35,21.9203,-50.5314,-18.9604,1023.4
23948,0.526064,9.84218,0.0143472,1.89,-2.94,-0.07,21.4554,-51.1173,-17.9704,1023.4
23954,0.535629,9.82305,-0.0334768,1.19,-2.52,0,22.0366,-49.7295,-18.8718,1023.34
23960,0.502152,9.78479,0.023912,1.61,-2.31,-0.35,21.5135,-49.7604,-19.4481,1023.34
23966,0.502152,9.83261,0.0286944,1.68,-3.08,-0.42,21.5135,-50.0688,-18.724,1023.4
23972,0.483022,9.83261,-0.0286944,1.61,-2.66,0,21.6007,-50.0688,-18.3251,1023.4
23978,0.47824,9.8374,0.0095648,1.61,-2.52,-0.28,21.6007,-48.9894,-18.9752,1023.4
23984,0.492587,9.79914,0.0143472,1.61,-2.94,-0.42,22.0366,-50.5931,-17.8079,1023.36
23990,0.492587,9.81827,-0.0095648,1.26,-2.73,-0.49,21.6588,-50.0688,-17.2316,1023.36
23996,0.449546,9.85653,-0.023912,1.61,-2.17,-0.28,21.746,-49.9454,-17.4976,1023.37
24002,0.45911,9.84218,0.0143472,1.33,-2.17,0.07,21.223,-50.2847,-18.9457,1023.37
24008,0.463893,9.77044,0.0095648,1.54,-2.8,-0.35,22.1818,-50.8089,-17.8965,1023.41
24014,0.473458,9.76088,-0.0095648,2.38,-2.59,-0.35,22.4724,-50.5622,-18.5763,1023.41
24020,0.473458,9.88044,-0.0191296,1.33,-2.45,-0.14,22.24,-50.0379,-19.2412,1023.4
24026,0.487805,9.82305,-0.0143472,1.68,-2.31,0.14,21.9494,-50.1613,-16.4041,1023.4
24032,0.473458,9.78957,-0.023912,1.19,-2.52,0.07,21.8913,-50.3463,-17.8965,1023.4
24038,0.473458,9.81349,0.0286944,1.4,-2.66,0.28,21.252,-50.5314,-18.6058,1023.41
24044,0.468675,9.8374,0.0095648,1.19,-2.38,-0.21,21.746,-49.8221,-18.6354,1023.41
24050,0.468675,9.80392,0.0286944,1.26,-1.82,0.28,21.6588,-50.7781,-18.8422,1023.36
24056,0.463893,9.78479,0.0430416,1.4,-2.38,-17.5,21.9203,-50.1921,-18.9013,1023.36
24062,0.463893,9.83261,-0.0191296,1.19,-2.87,0.35,21.746,-50.0379,-18.5763,1023.4
24068,0.454328,9.8087,0,1.47,-2.31,0,21.6588,-50.9631,-19.8618,1023.4
24074,0.506934,9.84218,-0.023912,1.89,-2.24,0,22.24,-50.408,-19.8323,1023.39
24080,0.473458,9.84218,-0.0334768,1.54,-2.45,0.07,22.763,-50.5005,-19.6697,1023.39
24086,0.47824,9.8374,-0.0095648,1.68,-2.59,0.21,22.3852,-51.3332,-17.9409,1023.35
24092,0.473458,9.82783,-0.0191296,1.54,-2.52,0,22.3271,-50.4697,-18.6058,1023.35
24098,0.463893,9.83261,-0.023912,1.47,-2.66,0.49,21.7169,-50.5005,-18.9752,1023.35
24104,0.47824,9.8374,-0.0143472,1.82,-2.87,0.63,21.746,-51.2407,-19.1082,1023.35
24110,0.473458,9.80392,-0.023912,1.4,-2.73,-0.21,21.5135,-50.5622,-17.867,1023.35
24116,0.468675,9.84218,-0.0143472,1.19,-2.66,0.07,21.4845,-49.1744,-17.7192,1023.41
24122,0.492587,9.8087,-0.0047824,1.26,-2.59,-17.5,21.3101,-50.0379,-18.6501,1023.41
24128,0.468675,9.79436,0.0047824,1.47,-2.24,0.28,21.6588,-50.0688,-17.5567,1023.36
24134,0.483022,9.85174,0,1.54,-2.87,0.07,22.0075,-50.2538,-18.266,1023.36
24140,0.47824,9.79914,0.0047824,1.82,-2.59,0.35,21.6879,-49.8837,-18.8127,1023.39
24146,0.47824,9.81827,0,1.26,-2.45,0.21,22.5596,-50.2538,-19.8323,1023.39
24152,0.449546,9.82305,-0.0143472,1.61,-2.38,0.35,21.3392,-50.6239,-19.7584,1023.39
24158,0.487805,9.85653,-0.0047824,1.68,-2.66,0.35,21.4554,-49.7912,-18.8422,1023.36
24164,0.483022,9.85174,-0.0143472,1.26,-2.31,0.28,22.0075,-50.0071,-17.4828,1023.36
24170,0.492587,9.86131,-0.0286944,1.89,-2.8,-0.14,21.8622,-49.9763,-18.5467,1023.37
24176,0.502152,9.82305,-0.0143472,0.91,-2.31,0.14,21.4264,-50.6547,-19.0787,1023.37
24182,0.454328,9.79914,0.023912,1.47,-2.59,0.07,21.8332,-50.0071,-18.5763,1023.39
24188,0.487805,9.8087,0.0047824,1.68,-2.66,0,22.269,-49.9146,-18.0591,1023.39
24194,0.483022,9.82783,-0.0191296,1.61,-2.87,0.14,21.6879,-49.3595,-18.2068,1023.39
24200,0.502152,9.82783,0.0095648,1.4,-2.17,0.14,20.8743,-49.5753,-19.8027,1023.39
24206,0.463893,9.79914,-0.0047824,1.68,-2.59,0.07,21.9785,-50.5622,-17.9852,1023.39
24212,0.483022,9.81827,0.0191296,1.05,-2.73,0.28,22.0947,-51.0248,-17.5567,1023.39
24218,0.502152,9.81349,0.023912,1.75,-3.01,0.35,21.6588,-49.8221,-19.5958,1023.39
24224,0.47824,9.8374,-0.0047824,1.96,-2.73,0,22.1528,-51.2715,-18.7684,1023.36
24230,0.473458,9.8087,0.0143472,1.54,-2.59,0.21,21.6879,-50.7164,-18.458,1023.36
24236,0.47824,9.8374,-0.0382592,1.54,-2.52,0.28,22.4724,-50.7473,-18.4285,1023.37
24242,0.468675,9.80392,0,1.47,-2.38,0.63,21.8332,-50.6856,-19.1378,1023.37
24248,0.468675,9.8087,-0.0143472,1.68,-2.8,0.49,21.5135,-50.3463,-17.9556,1023.35
24254,0.45911,9.80392,0.0143472,1.75,-2.94,0.35,21.4264,-50.2538,-18.4876,1023.35
24260,0.492587,9.82305,-0.0047824,1.47,-2.59,0.14,21.9203,-50.2538,-18.3103,1023.36
24266,0.506934,9.82783,0.0143472,1.68,-2.59,0.35,21.5717,-50.5005,-17.5419,1023.36
24272,0.483022,9.81349,0.0143472,1.12,-2.59,0.14,21.8041,-50.8089,-18.7536,1023.36
24278,0.487805,9.81349,0.0430416,1.4,-2.31,0.42,21.746,-49.0819,-18.5615,1023.38
24284,0.49737,9.79914,-0.0334768,1.47,-2.8,0,21.3973,-50.5005,-17.8227,1023.38
24290,0.468675,9.84696,-0.0621712,1.61,-2.59,0.42,21.8041,-49.9454,-18.1773,1023.37
24296,0.502152,9.84696,-0.0143472,1.33,-2.31,0.14,21.2811,-50.2538,-19.1821,1023.37
24302,0.463893,9.82305,0.023912,1.75,-2.66,0.35,22.1818,-50.2847,-19.5515,1023.34
24308,0.483022,9.81349,0.0143472,1.61,-2.87,0.35,21.6879,-49.8221,-18.3398,1023.34
24314,0.487805,9.83261,0.0143472,1.4,-2.59,0.14,21.9785,-49.6987,-18.7536,1023.38
24320,0.473458,9.79914,-0.0047824,1.89,-2.59,0.21,21.4554,-50.0071,-17.8522,1023.38
24326,0.492587,9.83261,-0.0334768,1.82,-2.66,0.14,22.2109,-51.4257,-17.3646,1023.38
24332,0.483022,9.81349,0,1.68,-2.38,0.49,21.252,-50.0379,-16.9361,1023.4
24338,0.516499,9.83261,-0.0143472,1.61,-2.52,0.7,21.6879,-49.7295,-18.591,1023.4
24344,0.49737,9.81827,0,1.82,-2.8,-0.28,21.8332,-50.1305,-18.1034,1023.38
24350,0.473458,9.82783,-0.023912,1.54,-3.22,0,22.24,-50.8398,-17.3055,1023.38
24356,0.521282,9.83261,-0.0095648,1.05,-2.31,0.42,21.8913,-50.5314,-19.2855,1023.39
24362,0.49737,9.81827,0.0095648,1.82,-2.59,0.07,21.0486,-50.6547,-19.5515,1023.39
24368,0.492587,9.81827,-0.0095648,1.33,-2.45,0.21,22.0366,-51.3332,-18.8718,1023.38
24374,0.516499,9.80392,-0.0382592,1.89,-2.73,-0.07,21.1649,-50.3463,-19.0048,1023.38
24380,0.502152,9.85653,-0.0430416,1.26,-2.45,0.35,20.7871,-50.3463,-18.2216,1023.38
24386,0.483022,9.81827,0.0095648,1.33,-3.15,-0.14,21.223,-50.5005,-17.9113,1023.35
24392,0.492587,9.81349,0.0143472,1.75,-2.87,0.14,21.7751,-50.4697,-18.3103,1023.35
24398,0.487805,9.79436,0.0191296,1.47,-2.38,-0.07,21.5135,-50.4389,-19.4628,1023.36
24404,0.487805,9.8374,-0.023912,1.4,-2.52,-0.28,21.9785,-50.3155,-18.1625,1023.36
24410,0.468675,9.79914,0.0143472,1.19,-2.73,0,21.1067,-50.1921,-18.9604,1023.37
24416,0.463893,9.82783,0.0143472,1.75,-2.52,0.14,22.2981,-50.3772,-18.2512,1023.37
24422,0.492587,9.8087,-0.0334768,1.61,-2.31,-0.14,21.252,-50.8089,-17.867,1023.39
24428,0.492587,9.82305,-0.0095648,1.61,-2.31,0,22.1237,-50.9015,-17.4533,1023.39
24434,0.483022,9.8087,0.0382592,1.4,-2.66,0.42,21.5426,-50.0996,-18.2216,1023.38
24440,0.492587,9.82305,0.0191296,1.75,-2.8,-0.28,22.0656,-50.7781,-18.0443,1023.38
24446,0.49737,9.85174,0,1.47,-2.38,0.21,22.1818,-50.2538,-17.8522,1023.38
24452,0.487805,9.82305,-0.0191296,1.54,-2.45,0.63,21.6007,-49.4828,-18.4876,1023.39
24458,0.516499,9.8374,0.0047824,1.47,-2.73,0.21,20.9324,-50.0379,-19.1525,1023.39
24464,0.473458,9.82783,0.0430416,1.75,-2.59,0.35,22.5015,-50.994,-17.0247,1023.39
24470,0.502152,9.81827,0.0047824,1.75,-2.52,0.07,21.3973,-51.3949,-18.0591,1023.39
24476,0.511717,9.82305,0.0047824,1.47,-2.66,-0.14,21.0777,-49.4212,-18.5172,1023.33
24482,0.492587,9.84696,0.0095648,1.47,-2.52,0.35,21.5135,-50.1305,-17.8374,1023.33
24488,0.487805,9.79436,-0.0143472,1.33,-2.59,0.28,20.9615,-50.6856,-18.8127,1023.35
24494,0.487805,9.8374,-0.0191296,1.4,-2.31,-0.21,21.8332,-50.223,-17.9409,1023.35
24500,0.473458,9.8374,-0.0047824,1.47,-2.66,0.14,22.0075,-50.2538,-18.3546,1023.35
24506,0.47824,9.8374,-0.0095648,1.33,-2.52,0.14,21.0486,-50.6547,-18.3989,1023.36
24512,0.483022,9.82783,0.023912,1.54,-2.59,0.21,20.9905,-50.1921,-18.2512,1023.36
24518,0.47824,9.81827,-0.0143472,1.4,-2.52,0.28,20.7581,-49.9763,-18.5763,1023.35
24524,0.463893,9.80392,0.0143472,1.61,-2.73,-0.07,21.6588,-51.0865,-16.8326,1023.35
24530,0.511717,9.8087,0.0382592,1.61,-2.59,0.21,21.1358,-50.7473,-18.1921,1023.35
24536,0.468675,9.82305,0,1.82,-2.73,0.42,20.8452,-49.1128,-19.4185,1023.35
24542,0.49737,9.81349,-0.0047824,1.4,-2.66,0.07,21.6588,-49.8221,-19.7731,1023.36
24548,0.483022,9.81349,-0.0047824,1.61,-2.59,0.28,21.7169,-50.5314,-18.4876,1023.36
24554,0.47824,9.82783,-0.0191296,1.61,-2.38,0.56,21.5426,-50.3463,-18.5467,1023.36
24560,0.506934,9.84218,-0.0095648,1.4,-2.52,-0.21,21.4845,-49.8837,-19.3594,1023.36
24566,0.49737,9.8087,-0.0382592,1.61,-2.38,0.35,20.729,-50.6547,-18.1625,1023.36
24572,0.483022,9.82783,0.0143472,1.75,-2.66,0.56,22.0656,-49.8837,-19.0343,1023.35
24578,0.487805,9.79914,-0.0047824,1.54,-2.38,0.28,20.9615,-50.2847,-17.9704,1023.35
24584,0.492587,9.86131,-0.0095648,1.33,-2.31,0,21.746,-50.3772,-18.458,1023.37
24590,0.502152,9.8087,-0.0143472,1.54,-2.59,0.42,21.746,-50.4697,-17.1429,1023.37
24596,0.47824,9.82305,-0.0047824,1.54,-2.73,0,20.8162,-49.637,-17.9261,1023.39
24602,0.492587,9.81827,-0.0095648,1.68,-2.52,0.35,20.9905,-49.7912,-18.1477,1023.39
24608,0.473458,9.81349,-0.0095648,1.4,-2.38,0.21,21.4264,-50.8398,-18.0443,1023.4
24614,0.47824,9.82305,0.0143472,1.47,-2.45,0.63,20.9324,-49.4212,-18.3251,1023.4
24620,0.49737,9.82783,-0.023912,1.61,-2.24,0.07,20.9324,-49.4828,-16.6553,1023.4
24626,0.511717,9.82305,0.0334768,1.96,-2.66,0.14,20.9324,-50.8706,-16.9804,1023.36
24632,0.502152,9.82783,-0.0095648,1.47,-2.24,0.42,21.6879,-50.2847,-17.0395,1023.36
24638,0.473458,9.82305,0,1.4,-2.66,0.35,21.3683,-49.9763,-17.468,1023.37
24644,0.487805,9.78957,-0.0047824,1.89,-2.73,-0.28,21.223,-50.8089,-17.6158,1023.37
24650,0.454328,9.84218,0,1.68,-2.87,0.28,22.1528,-50.3772,-17.4976,1023.37
24656,0.45911,9.81827,0.0047824,1.54,-2.73,0.28,21.9785,-50.0379,-17.8079,1023.37
24662,0.49737,9.83261,0.023912,1.89,-2.73,0.14,21.9203,-50.3463,-17.0691,1023.36
24668,0.506934,9.83261,0.0047824,1.19,-2.66,-0.42,21.5717,-50.5931,-16.9509,1023.36
24674,0.49737,9.8087,0.0095648,1.82,-3.08,0.21,21.4554,-49.452,-17.2907,1023.36
24680,0.487805,9.82305,0.0191296,1.68,-2.73,0.21,21.8332,-49.7295,-18.5763,1023.36
24686,0.487805,9.82783,0,1.75,-2.52,0.35,21.7751,-51.179,-17.9852,1023.36
24692,0.473458,9.8374,-0.0191296,1.61,-2.45,0.21,21.9203,-50.0071,-16.9656,1023.39
24698,0.506934,9.84218,0.0143472,1.68,-2.38,0.28,21.6298,-49.9146,-16.9656,1023.39
24704,0.502152,9.84218,-0.0191296,1.54,-2.45,0.07,21.252,-50.0071,-17.5862,1023.37
24710,0.473458,9.82783,0.0191296,1.75,-2.66,-0.07,20.7,-51.0865,-17.1282,1023.37
24716,0.511717,9.82305,0,1.54,-3.08,0.49,21.8332,-49.5137,-18.0739,1023.36
24722,0.49737,9.83261,-0.0095648,1.61,-2.73,0.35,20.9905,-50.9323,-17.5715,1023.36
24728,0.511717,9.82305,-0.0334768,1.61,-2.31,17.43,22.1818,-50.9015,-16.6553,1023.36
24734,0.483022,9.82305,-0.0047824,1.4,-2.59,0.35,21.3973,-50.5314,-18.0443,1023.38
24740,0.483022,9.8087,0.0191296,1.75,-2.52,-0.35,21.1067,-50.9323,-16.8917,1023.38
24746,0.473458,9.81349,0,1.33,-2.24,0.14,21.5717,-51.179,-17.6897,1023.36
24752,0.506934,9.83261,-0.0047824,1.33,-2.24,0.42,20.4384,-50.6856,-17.5862,1023.36
24758,0.49737,9.82305,0.0143472,1.54,-2.59,0.14,21.6007,-49.5753,-18.9604,1023.37
24764,0.487805,9.85653,0.0382592,1.61,-2.59,0,21.1939,-50.5622,-18.0443,1023.37
24770,0.511717,9.81349,0.0047824,1.54,-2.38,-0.14,21.1939,-50.223,-17.3646,1023.34
24776,0.47824,9.8374,0.023912,1.54,-2.45,0.7,21.3101,-50.1921,-18,1023.34
24782,0.487805,9.81349,0.0095648,1.54,-2.31,0.14,21.252,-50.0688,-18.6649,1023.35
24788,0.47824,9.81827,0,1.12,-2.17,-0.14,21.0777,-50.8398,-17.9113,1023.35
24794,0.49737,9.82783,0.0095648,1.96,-2.94,0.49,21.223,-50.2847,-18.1182,1023.35
24800,0.492587,9.81827,-0.0095648,1.47,-2.59,0.21,21.1649,-49.7604,-18.0591,1023.37
24806,0.483022,9.81827,-0.0286944,1.33,-2.31,0.42,21.6588,-50.7473,-18.3546,1023.37
24812,0.487805,9.84218,0.0095648,1.82,-3.15,-0.21,21.6588,-49.8529,-18.5172,1023.38
24818,0.506934,9.83261,-0.0143472,1.89,-2.73,-0.56,20.9324,-50.223,-18.1182,1023.38
24824,0.47824,9.84696,0.0191296,1.33,-2.66,0.07,21.3683,-50.5314,-17.468,1023.36
24830,0.49737,9.80392,0.0143472,1.61,-2.73,0.49,21.3683,-50.1305,-18.5467,1023.36
24836,0.45911,9.82305,0.0095648,1.19,-2.73,0,20.9034,-50.0996,-19.714,1023.41
24842,0.45911,9.8374,0.0191296,1.4,-2.8,-0.07,21.6588,-50.5314,-18.4137,1023.41
24848,0.506934,9.85174,0.0191296,1.68,-2.38,0.42,21.6007,-50.3772,-17.5271,1023.41
24854,0.49737,9.81349,0.0191296,1.4,-2.52,0.14,21.1067,-49.9763,-17.8374,1023.38
24860,0.483022,9.83261,0.0286944,1.68,-2.73,-0.21,20.5547,-51.3024,-19.123,1023.38
24866,0.49737,9.82783,-0.0047824,1.75,-2.73,0.49,21.1067,-50.5931,-17.2612,1023.37
24872,0.439981,9.82305,0.0286944,1.96,-3.15,0,20.6709,-51.0248,-17.3646,1023.37
24878,0.463893,9.8087,0.0286944,1.61,-2.45,0,21.6007,-50.3155,-18.5172,1023.39
24884,0.487805,9.81349,-0.0047824,1.61,-2.73,0.63,21.0196,-50.5314,-18.5024,1023.39
24890,0.45911,9.82783,0,1.54,-2.52,0.35,21.1649,-50.9631,-17.1429,1023.38
24896,0.502152,9.81349,-0.0095648,1.47,-2.03,0.42,20.9034,-49.9763,-18.3103,1023.38
24902,0.47824,9.85174,-0.0143472,1.75,-2.59,0.28,21.3683,-49.8837,-18.3251,1023.38
24908,0.492587,9.82783,-0.0143472,1.47,-2.52,0.28,21.4264,-49.5753,-17.3646,1023.4
24914,0.473458,9.8374,-0.0143472,1.47,-2.87,0.21,20.7,-49.9454,-17.867,1023.4
24920,0.483022,9.81827,0.0095648,1.54,-2.52,0.14,21.9494,-50.3463,-19.4037,1023.35
24926,0.506934,9.8087,0.0191296,1.19,-2.66,0.35,21.2811,-50.2847,-16.611,1023.35
24932,0.506934,9.84218,-0.0095648,1.68,-2.59,0.28,21.223,-50.408,-18.4137,1023.35
24938,0.47824,9.82305,-0.0143472,1.47,-2.87,0.21,20.8743,-49.2978,-18.9013,1023.35
24944,0.506934,9.82305,0.0095648,1.75,-2.66,0,21.223,-50.3155,-19.0343,1023.36
24950,0.47824,9.82783,-0.0191296,1.75,-2.73,-0.21,21.1358,-50.6547,-18.1921,1023.36
24956,0.473458,9.84696,-0.0095648,1.68,-2.59,0.14,21.1358,-49.5137,-18.99,1023.36
24962,0.502152,9.83261,-0.0143472,1.61,-2.38,0.07,21.3392,-49.8837,-18.9457,1023.38
24968,0.473458,9.79914,0.0191296,1.4,-2.52,0.56,21.746,-51.1173,-18.2216,1023.38
24974,0.473458,9.84218,-0.0143472,1.61,-2.66,0.07,21.3973,-50.0379,-18.0591,1023.36
24980,0.473458,9.79436,0.0095648,1.68,-2.52,0.07,21.3973,-49.7604,-18.4433,1023.36
24986,0.502152,9.8087,-0.0143472,1.61,-2.38,0.21,21.2811,-51.1173,-18.8718,1023.41
24992,0.502152,9.8374,0.0047824,1.33,-2.52,0.42,21.5135,-51.1482,-18.1773,1023.41
24998,0.487805,9.81349,0,1.75,-2.73,0.28,20.6418,-50.0996,-19.1378,1023.4
25004,0.468675,9.84696,-0.023912,1.61,-2.66,0.21,21.0196,-50.4389,-18.3398,1023.4
25010,0.47824,9.84218,0,1.19,-2.31,0.49,21.1649,-50.4697,-19.0343,1023.38
25016,0.492587,9.8374,0,1.26,-2.38,0.14,19.683,-50.8398,-19.5515,1023.38
25022,0.506934,9.82783,-0.0286944,2.03,-2.73,0.28,20.8452,-49.8221,-19.7879,1023.38
25028,0.506934,9.82783,-0.0669536,1.33,-2.73,-0.07,20.9324,-50.3155,-17.9409,1023.37
25034,0.506934,9.82783,-0.0191296,1.05,-2.1,0,20.5837,-49.2978,-20.4676,1023.37
25040,0.483022,9.80392,0.0143472,1.54,-2.52,0.49,21.3101,-49.4828,-19.5515,1023.37
25046,0.487805,9.82305,-0.023912,1.47,-2.66,0.28,21.4845,-50.5931,-19.0787,1023.37
25052,0.473458,9.82783,0.0047824,1.4,-2.03,-0.14,21.4554,-50.5314,-18.0148,1023.35
25058,0.521282,9.80392,0.0095648,1.33,-2.17,0.07,20.7581,-49.7604,-20.2164,1023.35
25064,0.473458,9.79436,0.0143472,1.33,-2.24,0.28,20.729,-50.1613,-17.6453,1023.37
25070,0.45911,9.82305,-0.0047824,1.54,-2.45,0.28,21.0196,-50.4697,-18.8422,1023.37
25076,0.492587,9.84218,0.0047824,1.96,-2.66,0.28,21.252,-50.1921,-18.4433,1023.37
25082,0.47824,9.82783,0.0095648,1.19,-2.17,0.35,21.6298,-49.8221,-17.9113,1023.38
25088,0.483022,9.84696,-0.0047824,1.54,-2.31,0.35,21.3392,-50.5931,-18.4433,1023.38
25094,0.502152,9.82783,0.0047824,1.68,-2.59,0,21.223,-49.452,-17.7045,1023.37
25100,0.49737,9.8374,0.0095648,1.4,-2.31,0.28,20.3513,-50.6856,-18.8718,1023.37
25106,0.506934,9.83261,-0.0191296,1.19,-2.45,0.35,21.1067,-50.223,-17.0986,1023.37
25112,0.45911,9.85174,0,1.89,-2.45,0.07,21.0777,-49.8221,-18.7536,1023.37
25118,0.473458,9.80392,0.0191296,1.12,-1.96,0.35,19.9735,-50.8398,-20.5563,1023.38
25124,0.468675,9.8087,-0.023912,1.68,-2.38,0.14,21.4554,-50.1921,-17.6897,1023.38
25130,0.511717,9.81827,-0.0095648,1.89,-3.01,0.49,21.6588,-50.0379,-18.3103,1023.38
25136,0.492587,9.81827,-0.0143472,1.33,-2.8,0.35,20.8452,-48.8352,-19.847,1023.35
25142,0.502152,9.85174,0.0095648,1.54,-2.59,0.28,21.1067,-50.1613,-19.2264,1023.35
25148,0.502152,9.81349,0,1.61,-2.45,0.35,21.5426,-50.1921,-17.8965,1023.37
25154,0.487805,9.83261,0.023912,1.4,-2.45,0.21,21.2811,-50.5005,-18.4137,1023.37
25160,0.473458,9.81827,-0.0047824,1.47,-2.45,0.07,21.7751,-49.6062,-18.724,1023.37
25166,0.473458,9.82305,0.0286944,1.47,-2.59,0.21,21.3683,-50.3155,-18.5319,1023.37
25172,0.506934,9.81349,-0.023912,1.75,-2.73,0.21,21.0196,-49.3286,-19.3594,1023.39
25178,0.483022,9.83261,0.0143472,1.61,-2.59,0.14,20.7,-49.9454,-18,1023.39
25184,0.47824,9.80392,-0.0143472,1.33,-2.38,0.14,21.5426,-50.5005,-17.8079,1023.38
25190,0.45911,9.79914,0.0191296,1.12,-2.24,0.42,21.1649,-50.5005,-18.5467,1023.38
25196,0.483022,9.83261,-0.0047824,1.82,-3.01,-0.07,21.1067,-49.8221,-19.123,1023.38
25202,0.49737,9.81827,0.0191296,1.61,-2.59,0.07,20.9034,-50.1305,-18.9309,1023.38
25208,0.506934,9.82783,0.0047824,1.54,-2.52,0.14,21.5426,-50.3155,-18.6797,1023.38
25214,0.439981,9.83261,0.0143472,1.47,-2.38,0.42,20.5547,-49.5445,-18.7831,1023.38
25220,0.45911,9.82305,0.0047824,1.33,-1.89,0.28,20.9034,-51.5799,-18.7684,1023.38
25226,0.49737,9.83261,0.0191296,1.68,-2.59,0.14,21.6007,-49.9146,-19.1082,1023.37
25232,0.492587,9.82305,0.0191296,1.54,-2.52,0.14,21.8041,-50.2847,-19.0491,1023.37
25238,0.473458,9.80392,-0.0286944,1.54,-2.52,0.42,20.5547,-49.5445,-19.7584,1023.38
25244,0.511717,9.84696,0,1.68,-2.45,0.42,21.252,-50.0071,-18.99,1023.38
25250,0.483022,9.82783,-0.0143472,1.68,-2.66,-0.07,21.4264,-50.1305,-19.7879,1023.38
25256,0.463893,9.82783,0.0191296,1.61,-2.66,0.42,21.252,-48.9586,-19.0934,1023.37
25262,0.492587,9.82783,-0.0095648,1.68,-2.73,0.14,21.1939,-50.3772,-17.7045,1023.37
25268,0.49737,9.8087,0.0047824,1.54,-2.66,0.21,21.9494,-50.6239,-18.5763,1023.38
25274,0.506934,9.82305,-0.0095648,1.4,-2.73,0.14,21.746,-49.4828,-18.591,1023.38
25280,0.516499,9.84218,-0.0095648,1.47,-2.59,0,21.4554,-50.0688,-19.123,1023.36
25286,0.506934,9.81827,0.0143472,1.54,-2.45,0,21.8041,-49.7604,-17.3646,1023.36
25292,0.45911,9.82305,0.0334768,1.61,-2.8,0.42,21.6879,-49.637,-18.458,1023.37
25298,0.483022,9.82783,0,1.54,-2.87,0.42,21.4554,-49.2669,-18.3694,1023.37
25304,0.49737,9.82305,-0.0095648,1.4,-2.66,0.56,21.7169,-50.7164,-18.3251,1023.37
25310,0.49737,9.81827,-0.0143472,1.68,-2.87,0.35,21.8041,-50.1921,-18.8127,1023.36
25316,0.492587,9.82783,-0.0047824,1.89,-2.38,0.21,21.4845,-49.8837,-18.7831,1023.36
25322,0.463893,9.8087,0,1.54,-2.31,0.35,21.3392,-50.5314,-17.6453,1023.39
25328,0.516499,9.82783,-0.023912,1.61,-2.73,0.35,20.8162,-51.3332,-17.2612,1023.39
25334,0.487805,9.8374,0.0095648,1.68,-2.94,0.35,21.1649,-50.0996,-18.5319,1023.39
25340,0.511717,9.82305,0.0191296,1.4,-2.45,0.35,21.3101,-50.2847,-18.6058,1023.39
25346,0.49737,9.82305,0,1.89,-2.59,0.07,21.252,-50.9015,-17.5419,1023.37
25352,0.502152,9.81827,-0.0382592,1.4,-2.45,-0.07,21.5135,-49.8837,-17.6306,1023.37
25358,0.521282,9.84696,-0.0669536,1.4,-2.73,0.42,21.252,-49.8529,-19.6993,1023.36
25364,0.49737,9.8374,0.0095648,1.33,-2.66,0.42,21.5135,-50.3155,-17.8227,1023.36
25370,0.492587,9.79436,0.0286944,1.26,-2.8,0.35,20.9324,-51.1173,-18.5319,1023.36
25376,0.506934,9.82305,-0.0095648,1.47,-2.31,0.49,21.5426,-50.2847,-19.7288,1023.35
25382,0.506934,9.84218,0.0095648,1.82,-2.66,0.14,22.4434,-50.9631,-18.5172,1023.35
25388,0.473458,9.79914,-0.0143472,1.68,-2.45,0.21,21.2811,-51.0557,-16.9509,1023.4
25394,0.463893,9.85653,0.0143472,1.4,-2.38,0.14,21.6007,-50.2538,-18.6206,1023.4
25400,0.506934,9.84218,-0.0047824,1.4,-2.8,0,21.8041,-50.2538,-17.4089,1023.37
25406,0.487805,9.84218,-0.0286944,1.4,-2.52,0,21.5717,-51.1173,-17.8227,1023.37
25412,0.526064,9.80392,-0.0095648,1.96,-2.66,0.07,21.5717,-50.5931,-19.1082,1023.38
25418,0.516499,9.82305,0.0191296,1.26,-2.45,0.14,21.0777,-50.3463,-18.99,1023.38
25424,0.47824,9.8087,-0.0047824,1.68,-2.87,0,21.2811,-51.0248,-18.3398,1023.38
25430,0.502152,9.82783,-0.0047824,1.96,-2.38,0.28,21.5135,-50.7781,-18.591,1023.38
25436,0.47824,9.79914,0.0047824,1.68,-2.87,0.28,21.3392,-49.3286,-19.2708,1023.38
25442,0.45911,9.81827,0.0047824,2.17,-3.01,0.14,21.1358,-50.4389,-18.5024,1023.37
25448,0.502152,9.8374,0.0286944,1.19,-2.66,0.28,21.4264,-49.9763,-16.6258,1023.37
25454,0.492587,9.83261,0.0095648,1.47,-2.66,0.28,21.252,-49.5753,-19.5811,1023.35
25460,0.473458,9.83261,0.0143472,1.82,-2.24,0.14,22.0075,-49.3595,-18.8127,1023.35
25466,0.511717,9.81349,-0.0191296,1.61,-2.52,0.35,22.0656,-50.2847,-18.2216,1023.36
25472,0.526064,9.81827,0.0047824,1.19,-2.38,-0.07,21.4554,-50.0379,-18.6501,1023.36
25478,0.521282,9.84696,-0.0191296,1.89,-2.73,0.49,21.6879,-50.0996,-18.0443,1023.36
25484,0.492587,9.81827,0.0143472,1.47,-2.52,0.7,21.6298,-50.5005,-17.8227,1023.39
25490,0.47824,9.81827,0.023912,1.89,-2.8,0,21.3683,-50.1305,-17.2907,1023.39
25496,0.511717,9.82783,-0.0047824,1.82,-2.8,-0.28,21.4264,-49.5753,-18.458,1023.34
25502,0.521282,9.85174,0.0095648,1.19,-2.03,0.42,21.3683,-49.8837,-18.3251,1023.34
25508,0.45911,9.79914,-0.0382592,1.75,-2.59,0.07,22.0947,-50.8398,-17.9556,1023.4
25514,0.492587,9.8087,0.0143472,1.4,-2.52,0,21.1939,-49.3595,-18.2216,1023.4
25520,0.506934,9.81349,0.0191296,1.54,-2.8,-0.21,21.1067,-50.0688,-17.6453,1023.39
25526,0.47824,9.82783,0.023912,1.68,-2.66,0.21,21.5426,-51.3024,-18.6797,1023.39
25532,0.487805,9.81827,-0.0191296,1.4,-2.94,-0.07,21.9494,-50.408,-18.1477,1023.38
25538,0.487805,9.82305,0,1.68,-2.17,-0.35,21.8913,-51.0865,-19.123,1023.38
25544,0.473458,9.79436,0,1.68,-2.8,0.63,21.5135,-50.9015,-16.4928,1023.38
25550,0.487805,9.81827,0.0047824,1.4,-2.52,0.35,21.8913,-50.9631,-17.1577,1023.36
25556,0.49737,9.83261,0.0047824,1.61,-2.8,-0.35,21.5717,-50.3155,-18.5467,1023.36
25562,0.483022,9.82783,0,1.4,-2.38,0.35,21.8622,-50.7781,-17.8374,1023.38
25568,0.463893,9.8087,0,1.61,-2.17,0.42,21.8913,-50.2538,-18.6501,1023.38
25574,0.483022,9.81827,-0.0191296,1.33,-2.38,-0.14,20.7,-50.4389,-18.8275,1023.35
25580,0.511717,9.84696,-0.0047824,1.61,-2.59,-0.07,21.1067,-50.3463,-17.7045,1023.35
25586,0.492587,9.82305,-0.0095648,1.12,-2.24,0.49,22.0656,-51.3332,-17.1725,1023.39
25592,0.463893,9.80392,0.0047824,1.4,-2.73,0,21.8332,-50.2847,-18.8866,1023.39
25598,0.516499,9.82783,-0.0191296,1.75,-2.38,-0.21,21.0196,-50.0996,-18.6649,1023.39
25604,0.502152,9.82783,0.0095648,1.33,-2.31,-17.71,20.7871,-50.7781,-18.1773,1023.39
25610,0.506934,9.83261,-0.0191296,1.89,-2.94,-0.14,20.9905,-50.0688,-17.6158,1023.39
25616,0.483022,9.79914,-0.0095648,1.54,-2.45,0.28,20.8162,-49.8221,-18.5024,1023.35
25622,0.487805,9.81349,0.0191296,1.4,-2.52,0.28,21.1358,-50.8706,-18.4137,1023.35
25628,0.487805,9.82783,0.0143472,1.47,-2.87,-0.14,20.8743,-50.1921,-18.1773,1023.35
25634,0.487805,9.81827,-0.023912,1.12,-1.96,0.14,20.6128,-49.6062,-18.5172,1023.35
25640,0.49737,9.8374,-0.0382592,1.54,-2.03,0.49,20.7871,-50.1305,-18.5615,1023.37
25646,0.473458,9.85174,0.023912,1.61,-2.59,-0.07,21.6298,-50.0688,-17.8374,1023.37
25652,0.521282,9.80392,0.0095648,1.82,-3.01,0.07,21.1358,-50.0688,-18.6945,1023.37
25658,0.483022,9.79914,0.0095648,1.82,-2.73,0.14,21.3973,-50.7473,-18.133,1023.37
25664,0.502152,9.82305,0.0047824,1.47,-2.59,0.14,21.3683,-51.0248,-18.7388,1023.37
25670,0.463893,9.8374,0.023912,1.26,-2.73,0.14,22.3852,-50.408,-17.5271,1023.36
25676,0.511717,9.81827,0.0095648,1.61,-2.94,0.14,21.9203,-49.7604,-18.99,1023.36
25682,0.47824,9.82305,0.0143472,1.68,-2.38,0.21,21.5426,-50.1305,-18.3398,1023.37
25688,0.516499,9.81349,0,1.54,-2.45,0.42,21.1939,-50.9323,-17.4089,1023.37
25694,0.492587,9.83261,-0.0047824,1.96,-2.87,-0.21,21.2811,-49.6987,-18.5172,1023.39
25700,0.483022,9.79914,0.0143472,1.68,-2.1,0.07,22.0075,-49.3903,-18.4728,1023.39
25706,0.521282,9.8087,0.0047824,1.82,-2.66,-0.14,21.8622,-50.223,-17.2907,1023.39
25712,0.487805,9.84218,0.0286944,1.4,-2.66,0.14,21.4845,-50.6239,-17.6749,1023.39
25718,0.47824,9.83261,0.0143472,1.54,-2.66,0.14,21.6007,-50.4389,-16.7883,1023.39
25724,0.483022,9.82783,-0.023912,1.54,-2.52,0,21.5717,-50.408,-18.6058,1023.39
25730,0.516499,9.78001,0.0047824,1.47,-2.52,0.35,21.6879,-49.5753,-17.4237,1023.39
25736,0.502152,9.84696,-0.0143472,1.33,-2.59,0.28,21.6007,-50.1613,-17.6897,1023.38
25742,0.487805,9.83261,-0.0143472,1.61,-2.87,0.28,21.8332,-50.223,-17.1282,1023.38
25748,0.545194,9.81827,0.0095648,1.61,-2.73,-0.07,21.9203,-50.3155,-17.3055,1023.36
25754,0.473458,9.82305,0.0047824,1.75,-2.66,-0.14,21.8041,-49.2669,-18.591,1023.36
25760,0.49737,9.83261,0.0143472,1.68,-2.59,0.42,22.1528,-49.7912,-18.0591,1023.41
25766,0.473458,9.80392,0.0047824,1.47,-2.73,0.49,21.8041,-50.9323,-17.5419,1023.41
25772,0.502152,9.83261,-0.0047824,1.33,-2.59,-0.21,21.3683,-49.5753,-17.4089,1023.41
25778,0.487805,9.81349,0,1.47,-2.59,0,21.5135,-49.452,-18.4137,1023.4
25784,0.506934,9.81827,0.023912,1.61,-2.38,0.49,21.6007,-50.1921,-17.3794,1023.4
25790,0.511717,9.81827,0,1.68,-2.94,0.35,21.7751,-50.223,-17.2316,1023.35
25796,0.49737,9.82783,0.0095648,1.47,-2.24,-0.07,20.9615,-50.2847,-19.2412,1023.35
25802,0.521282,9.84696,-0.023912,1.54,-2.38,0.14,21.1067,-50.3463,-17.9261,1023.36
25808,0.511717,9.87087,0.0047824,1.19,-2.24,-0.28,21.5717,-50.4389,-17.2316,1023.36
25814,0.487805,9.82783,0.0191296,1.68,-2.94,0.35,21.0486,-49.1744,-17.6749,1023.37
25820,0.49737,9.82783,0.0095648,1.54,-2.45,-0.07,20.7871,-49.4212,-16.5519,1023.37
25826,0.47824,9.81349,0.0191296,1.61,-2.45,0.14,21.7751,-50.4389,-17.1873,1023.37
25832,0.502152,9.81349,0.0095648,1.4,-2.73,0.49,22.0947,-49.5753,-17.5567,1023.4
25838,0.45911,9.81349,-0.0143472,1.26,-2.8,-0.28,21.3392,-49.637,-18.9013,1023.4
25844,0.483022,9.79436,0.0191296,1.19,-2.87,-0.07,21.8913,-50.3772,-17.468,1023.36
25850,0.502152,9.81349,0,1.96,-2.59,0.28,21.7751,-50.0688,-16.5223,1023.36
25856,0.49737,9.8087,0.0191296,1.47,-2.24,0.42,21.9785,-49.7912,-17.7192,1023.41
25862,0.463893,9.84696,0.0047824,1.4,-2.52,-0.14,21.9494,-49.2978,-17.601,1023.41
25868,0.535629,9.85174,0.0095648,1.54,-3.01,0.35,21.5717,-50.2538,-17.1725,1023.36
25874,0.506934,9.8087,-0.0334768,1.54,-2.66,0.28,21.6298,-50.1305,-17.9704,1023.36
25880,0.492587,9.82783,0.023912,1.47,-2.8,0.63,21.9494,-49.3903,-18.9161,1023.36
25886,0.492587,9.85653,0.0286944,1.12,-2.52,0.14,21.6588,-50.3772,-17.4828,1023.36
25892,0.511717,9.81349,0.0191296,1.68,-2.66,-0.21,20.9905,-50.3155,-18.2068,1023.36
25898,0.487805,9.8087,0,1.4,-2.8,0.35,21.5717,-50.5314,-18.7092,1023.34
25904,0.487805,9.8374,-0.023912,1.47,-2.45,0.28,21.8041,-50.5314,-17.734,1023.34
25910,0.492587,9.79436,0.0047824,1.96,-2.73,0,22.5015,-49.7912,-16.9509,1023.37
25916,0.492587,9.84218,-0.0143472,1.54,-2.31,0.35,21.8041,-49.5445,-18.5024,1023.37
25922,0.516499,9.81827,0.0095648,1.68,-2.59,-0.07,21.746,-49.6062,-17.2612,1023.35
25928,0.483022,9.83261,-0.0095648,1.4,-2.59,0,22.1528,-49.6679,-18.5467,1023.35
25934,0.47824,9.82305,-0.0047824,1.47,-2.52,0,21.8332,-49.2053,-18.0886,1023.38
25940,0.47824,9.8087,0.0095648,1.82,-2.66,0.07,20.6128,-51.4257,-18.2068,1023.38
25946,0.45911,9.81827,-0.0286944,1.47,-2.17,0.07,21.5426,-50.408,-16.8031,1023.38
25952,0.516499,9.80392,-0.0095648,1.4,-2.17,0.42,21.8041,-49.1128,-16.611,1023.38
25958,0.483022,9.78479,0.0860832,1.61,-2.52,0.21,22.8211,-49.5137,-19.2264,1023.38
25964,0.468675,9.85174,-0.0334768,2.1,-3.15,-0.21,21.2811,-50.0996,-16.9065,1023.39
25970,0.559541,9.87566,-0.0860832,1.19,-2.45,-0.14,21.3973,-49.8529,-17.8522,1023.39
25976,0.492587,9.76088,0.105213,1.33,-1.89,0.21,21.9203,-49.1436,-16.9361,1023.32
25982,0.468675,9.81349,0.0526064,1.89,-2.66,0.21,21.3683,-50.5931,-18.0148,1023.32
25988,0.554758,9.82305,-0.0286944,1.75,-2.45,0,21.1358,-50.7781,-18.0591,1023.37
25994,0.463893,9.87566,0.023912,1.61,-2.38,0,21.8041,-49.5445,-17.9261,1023.37
26000,0.506934,9.8087,0.0047824,1.47,-2.52,0.14,21.7169,-49.9146,-18.6058,1023.37
26006,0.511717,9.80392,0.023912,1.61,-2.24,0.56,20.9905,-50.7781,-17.4976,1023.39
26012,0.439981,9.81827,0.0095648,1.61,-2.52,0.14,21.6879,-49.4212,-18.4285,1023.39
26018,0.502152,9.81349,0.0286944,1.12,-2.24,0.42,21.9494,-49.1128,-18.1182,1023.39
26024,0.492587,9.82783,-0.0143472,1.4,-2.24,0.49,21.6588,-50.6547,-17.5862,1023.39
26030,0.521282,9.83261,0.0191296,1.75,-2.73,0.35,21.6007,-49.8221,-18.4728,1023.36
26036,0.492587,9.80392,0,1.61,-2.8,0.42,21.2811,-49.7604,-17.9261,1023.36
26042,0.483022,9.83261,0.0047824,1.82,-2.45,-0.07,21.1649,-50.6856,-17.3646,1023.35
26048,0.526064,9.82783,-0.0047824,1.4,-2.87,-0.07,21.1939,-50.4697,-17.0986,1023.35
26054,0.468675,9.82783,0.0526064,1.33,-2.8,0.21,22.269,-49.9454,-17.6453,1023.36
26060,0.492587,9.82783,0.0334768,1.47,-2.38,-0.21,21.6007,-49.2978,-17.9261,1023.36
26066,0.492587,9.84696,-0.0143472,1.68,-2.52,0,21.8913,-50.2847,-17.2464,1023.36
26072,0.483022,9.86609,0,1.4,-2.94,0.42,22.0947,-50.3772,-17.9704,1023.37
26078,0.463893,9.81827,0.0286944,1.4,-2.59,0.21,21.7169,-49.8837,-17.5124,1023.37
26084,0.468675,9.81827,0.0191296,1.68,-2.38,0.49,22.0947,-49.4828,-18.2807,1023.38
26090,0.492587,9.83261,-0.0095648,1.68,-2.52,0.21,22.0075,-50.0688,-17.9556,1023.38
26096,0.487805,9.8374,-0.0047824,1.54,-2.45,0.14,21.8041,-48.9586,-18.7831,1023.38
26102,0.506934,9.81827,0.0286944,1.82,-2.52,0.49,22.24,-50.1921,-18.6354,1023.38
26108,0.487805,9.82783,0.0191296,1.4,-2.38,0.07,21.9494,-50.994,-16.2416,1023.36
26114,0.502152,9.84696,0.0047824,1.75,-2.59,0.21,21.8041,-49.9146,-17.3055,1023.36
26120,0.516499,9.85174,-0.023912,1.4,-2.59,0.56,21.9494,-49.3595,-17.6158,1023.36
26126,0.516499,9.84218,0.0143472,1.4,-2.73,0.21,21.9494,-51.0248,-17.0691,1023.37
26132,0.49737,9.83261,-0.0143472,1.68,-2.59,0.21,21.7169,-49.5445,-17.5124,1023.37
26138,0.516499,9.85653,0.0047824,1.54,-2.73,-0.07,21.5135,-50.0688,-17.734,1023.35
26144,0.487805,9.79914,0.0286944,1.47,-2.52,-0.21,21.4845,-50.3155,-17.3646,1023.35
26150,0.49737,9.81827,-0.023912,1.33,-2.38,0.28,22.1818,-49.8221,-16.4041,1023.39
26156,0.487805,9.84218,0,1.12,-2.38,0.28,21.8622,-50.223,-17.5271,1023.39
26162,0.49737,9.81827,-0.0334768,1.4,-2.45,0.21,21.5426,-50.994,-18.0886,1023.38
26168,0.492587,9.82783,-0.0143472,1.68,-2.59,0,22.5015,-50.3463,-17.5124,1023.38
26174,0.483022,9.77523,0.0095648,1.89,-2.52,0.07,21.9203,-50.223,-17.6897,1023.38
26180,0.47824,9.84218,0.0191296,1.47,-2.38,0.21,22.0075,-49.1128,-17.8079,1023.36
26186,0.483022,9.81349,0.0095648,1.82,-2.45,0.14,22.1818,-49.637,-17.5419,1023.36
26192,0.521282,9.8087,0.0143472,1.54,-2.59,0.21,21.6007,-49.7295,-18.4137,1023.38
26198,0.511717,9.81827,-0.0047824,1.54,-2.73,0.07,21.6588,-49.7604,-18.6797,1023.38
26204,0.473458,9.82305,0,1.89,-2.59,0.07,21.7751,-49.8529,-17.3055,1023.38
26210,0.473458,9.79436,0.0095648,1.47,-2.52,0.28,21.6588,-49.8529,-18.5319,1023.38
26216,0.47824,9.81349,0,1.4,-2.52,0.56,21.746,-49.0202,-18.2216,1023.37
26222,0.487805,9.82305,-0.0047824,1.75,-2.52,0.35,22.1528,-49.3903,-16.9656,1023.37
26228,0.473458,9.78957,0,1.89,-2.8,0.07,22.6177,-49.8529,-17.7045,1023.4
26234,0.516499,9.8087,0.0286944,1.47,-2.66,0.42,22.3562,-48.8352,-17.6453,1023.4
26240,0.487805,9.85653,-0.0286944,1.54,-2.73,0,21.6007,-50.5622,-18.7388,1023.4
26246,0.516499,9.81827,-0.0191296,1.82,-2.38,-0.14,22.0075,-51.3332,-19.7879,1023.37
26252,0.487805,9.81827,0.0095648,1.68,-2.73,0.14,21.6007,-49.9454,-18.7831,1023.37
26258,0.49737,9.8374,0.023912,1.33,-2.52,0.28,21.2811,-50.2538,-18.4285,1023.37
26264,0.511717,9.8374,-0.0382592,1.68,-2.38,0.42,21.8041,-50.4697,-18.0295,1023.37
26270,0.511717,9.83261,-0.0143472,1.68,-2.31,-0.21,21.8332,-49.5137,-17.601,1023.4
26276,0.47824,9.81827,0.0095648,1.82,-3.08,0,21.4554,-49.3903,-17.7488,1023.4
26282,0.49737,9.8374,0.047824,1.47,-3.01,0,21.6879,-50.5931,-17.7192,1023.38
26288,0.516499,9.83261,0.0191296,1.61,-2.45,0.21,21.5717,-50.4697,-18.857,1023.38
26294,0.521282,9.83261,-0.0191296,1.68,-2.52,0.21,21.0777,-49.2978,-17.867,1023.38
26300,0.492587,9.8087,0.0095648,1.75,-2.45,0.07,21.746,-49.4828,-18.3546,1023.37
26306,0.47824,9.78957,0.0143472,1.47,-2.66,0.14,21.8041,-49.1744,-16.8474,1023.37
26312,0.483022,9.82305,0.0095648,1.4,-2.94,0.28,21.6588,-49.5445,-18.3398,1023.36
26318,0.492587,9.81349,0,1.54,-2.66,0,21.8913,-50.408,-18.6797,1023.36
26324,0.530846,9.81827,0.0191296,1.47,-2.1,0,22.0366,-49.7912,-18.0148,1023.37
26330,0.49737,9.8374,-0.0095648,1.47,-3.01,0.28,22.24,-49.8837,-18.3398,1023.37
26336,0.502152,9.79914,-0.023912,1.4,-2.8,0.14,21.3101,-49.6679,-17.8522,1023.35
26342,0.492587,9.82783,-0.0191296,1.89,-2.66,0,21.6588,-50.6239,-17.8818,1023.35
26348,0.502152,9.86131,-0.0095648,1.54,-2.87,0.35,21.1939,-50.7781,-19.3151,1023.35
26354,0.502152,9.85174,-0.0191296,1.47,-2.66,-0.42,21.6298,-49.1436,-18.9604,1023.35
26360,0.511717,9.82783,-0.0143472,1.47,-2.45,0.07,21.4264,-50.0071,-18.3989,1023.35
26366,0.487805,9.8087,0.0191296,1.4,-2.59,0.49,22.269,-50.1921,-16.9656,1023.38
26372,0.47824,9.85174,-0.0382592,1.33,-2.52,0.07,22.3852,-50.3772,-18.7979,1023.38
26378,0.511717,9.8087,-0.0095648,1.54,-2.52,-0.14,21.6298,-49.9146,-18.2955,1023.37
26384,0.492587,9.82783,-0.0095648,1.26,-2.31,0.21,22.5596,-50.9015,-17.8818,1023.37
26390,0.449546,9.81349,0.023912,1.4,-2.59,0,21.8041,-49.8529,-17.6306,1023.38
26396,0.47824,9.82305,-0.0143472,1.26,-2.59,0.07,21.8041,-49.3286,-18.9161,1023.38
26402,0.49737,9.82305,0.023912,1.54,-2.73,0.07,21.9494,-50.8706,-18.3103,1023.38
26408,0.487805,9.82305,0.0143472,1.96,-2.73,0.14,21.8332,-49.8529,-16.5519,1023.38
26414,0.487805,9.84696,0,1.33,-3.08,-0.07,21.6588,-49.9763,-17.5271,1023.38
26420,0.492587,9.8087,0.0334768,1.12,-2.45,0.49,22.2109,-50.0379,-19.6106,1023.37
26426,0.506934,9.81827,0,1.47,-2.73,0.28,22.1528,-49.7295,-16.9656,1023.37
26432,0.487805,9.80392,0,1.54,-3.15,0.07,21.7751,-50.0379,-17.2612,1023.4
26438,0.49737,9.8087,-0.023912,1.68,-2.24,0.07,21.5426,-50.1613,-19.9357,1023.4
26444,0.487805,9.82305,-0.023912,1.54,-2.31,0.56,22.4724,-50.408,-17.9852,1023.38
26450,0.502152,9.85174,-0.0286944,1.54,-2.17,-0.21,21.2811,-50.9015,-17.2316,1023.38
26456,0.487805,9.8087,0.0143472,1.68,-2.87,-0.21,22.3852,-49.0819,-19.0343,1023.38
26462,0.45911,9.8087,0,1.75,-2.66,0.28,22.0075,-50.3155,-18.5319,1023.38
26468,0.483022,9.8374,-0.0143472,1.4,-2.66,0,22.3562,-50.1305,-18.3398,1023.38
26474,0.49737,9.81827,-0.023912,1.54,-2.66,0.21,21.7751,-49.637,-17.4976,1023.36
26480,0.511717,9.82305,-0.0191296,1.4,-2.59,0.21,22.0075,-50.0996,-17.9556,1023.36
26486,0.492587,9.81349,-0.0191296,1.26,-2.45,-0.35,21.8332,-50.8706,-18.2807,1023.36
26492,0.516499,9.82783,0.0047824,1.96,-2.52,0.21,21.6007,-50.2538,-17.9704,1023.36
26498,0.502152,9.84218,-0.0095648,1.54,-3.15,0.28,21.4845,-49.7912,-19.1378,1023.37
26504,0.506934,9.84696,-0.0095648,1.68,-2.45,0.07,21.7169,-50.8398,-18.1477,1023.37
26510,0.47824,9.80392,0.0143472,1.75,-2.66,-0.42,21.1358,-50.0688,-18.7684,1023.37
26516,0.506934,9.8374,0.0047824,1.54,-2.59,0.28,21.0777,-49.7295,-18.5319,1023.37
26522,0.47824,9.84696,0.0143472,1.68,-2.73,0.56,21.9494,-49.8837,-18.7684,1023.37
26528,0.463893,9.81349,-0.0143472,1.96,-2.45,-0.28,21.9494,-50.0996,-18.458,1023.39
26534,0.47824,9.81349,-0.0430416,1.19,-2.17,0.28,22.3852,-50.0071,-19.0196,1023.39
26540,0.521282,9.82783,-0.0143472,1.75,-2.8,0.28,21.4554,-50.1921,-18.8275,1023.37
26546,0.487805,9.82783,-0.0191296,1.61,-2.8,0,21.5135,-51.1173,-17.2316,1023.37
26552,0.492587,9.83261,-0.0143472,1.47,-2.87,0.21,20.8452,-49.7604,-19.9209,1023.37
26558,0.473458,9.82305,-0.0143472,1.54,-2.59,0.35,22.0656,-49.2978,-18.2807,1023.37
26564,0.535629,9.81827,-0.047824,1.26,-2.38,0.07,21.6588,-50.0688,-16.7292,1023.38
26570,0.49737,9.84218,-0.0334768,1.33,-2.52,0.21,21.4845,-49.8529,-17.8965,1023.38
26576,0.454328,9.82305,-0.0191296,1.26,-2.66,-0.07,21.9494,-49.2978,-19.6402,1023.38
26582,0.487805,9.81349,-0.0047824,1.33,-2.73,0.56,21.6588,-50.8706,-18.7979,1023.4
26588,0.502152,9.82305,0,1.54,-2.87,-0.14,22.24,-50.2538,-17.5862,1023.4
26594,0.463893,9.83261,-0.023912,1.68,-2.73,-0.49,21.8622,-49.6987,-18.6501,1023.39
26600,0.45911,9.82783,0.023912,1.33,-2.52,-0.07,21.1358,-49.3286,-17.8965,1023.39
26606,0.47824,9.81349,-0.0191296,1.26,-2.66,0.14,21.746,-49.8837,-17.9113,1023.37
26612,0.483022,9.8087,-0.0095648,1.68,-2.66,-0.21,22.1528,-50.2538,-17.0691,1023.37
26618,0.483022,9.81349,0.0047824,1.4,-2.31,0.28,22.3271,-49.8221,-18.2216,1023.39
26624,0.439981,9.79914,0,1.54,-2.73,-0.21,21.4264,-50.0996,-18.266,1023.39
26630,0.473458,9.82305,-0.0095648,1.61,-2.66,-0.21,22.5305,-49.6679,-19.0491,1023.37
26636,0.47824,9.81827,-0.0095648,1.54,-2.66,0.14,21.3973,-48.9586,-18.4876,1023.37
26642,0.483022,9.81349,0.0047824,1.47,-2.66,-0.07,22.4143,-50.0688,-17.468,1023.37
26648,0.473458,9.82305,-0.0143472,1.4,-2.24,-0.07,22.0947,-49.9454,-17.0247,1023.37
26654,0.511717,9.84218,0,1.68,-2.38,0.56,21.9494,-49.3286,-19.4185,1023.37
26660,0.502152,9.81349,-0.0047824,1.61,-2.66,0.28,21.6007,-50.1305,-18.5615,1023.36
26666,0.468675,9.85653,-0.0095648,1.33,-2.94,-0.07,21.3683,-50.223,-18.1182,1023.36
26672,0.487805,9.82305,-0.023912,1.61,-2.52,0.21,21.9494,-49.6987,-17.1873,1023.34
26678,0.492587,9.81349,0.0095648,1.26,-2.31,0.28,21.4264,-49.1128,-19.2708,1023.34
26684,0.511717,9.85174,0,1.47,-2.8,0.28,21.6007,-49.5445,-17.3941,1023.38
26690,0.487805,9.82783,-0.0047824,1.47,-2.31,0,20.8743,-50.1305,-18.5763,1023.38
26696,0.483022,9.8087,0.0430416,1.61,-2.52,-0.14,21.3973,-49.3286,-18.7831,1023.38
26702,0.463893,9.84696,0.0095648,1.96,-2.73,-0.28,21.8913,-50.0071,-17.1725,1023.38
26708,0.468675,9.83261,0.0047824,1.47,-2.59,0.21,21.6298,-50.1613,-18.4876,1023.38
26714,0.511717,9.8374,-0.0143472,1.54,-2.45,0,21.2811,-49.8221,-19.5515,1023.39
26720,0.487805,9.78001,-0.0143472,1.61,-2.94,0,21.4554,-49.4212,-17.8522,1023.39
26726,0.454328,9.79914,0.0095648,1.61,-2.59,0.49,21.3683,-50.1305,-18.2364,1023.37
26732,0.492587,9.82305,-0.0095648,1.54,-2.52,0.14,22.1528,-49.7604,-18.5024,1023.37
26738,0.49737,9.8374,-0.0143472,1.75,-2.66,-0.21,21.3973,-49.2361,-19.0787,1023.34
26744,0.492587,9.80392,-0.0286944,1.12,-2.38,0.49,21.8622,-50.1613,-18.266,1023.34
26750,0.439981,9.8374,-0.0191296,1.47,-2.52,0.28,22.269,-49.3286,-18.1182,1023.34
26756,0.492587,9.79914,0,1.96,-2.52,0,21.5135,-49.7295,-17.8965,1023.4
26762,0.564323,9.83261,-0.023912,1.68,-2.66,0.35,21.8332,-50.0688,-17.9409,1023.4
26768,0.521282,9.88044,-0.10043,1.19,-2.8,0.42,21.1649,-49.9763,-18.591,1023.39
26774,0.49737,9.82783,-0.023912,1.4,-2.52,-0.14,22.5886,-49.7295,-20.1426,1023.39
26780,0.439981,9.79914,0.0334768,1.68,-2.87,-0.07,21.6007,-49.7295,-17.2316,1023.36
26786,0.502152,9.80392,-0.0191296,1.54,-2.31,0.14,21.4554,-50.223,-17.5271,1023.36
26792,0.49737,9.84696,-0.0334768,1.33,-2.66,0.07,22.1528,-49.9146,-18.2512,1023.37
26798,0.435198,9.82783,0.0047824,1.54,-2.1,0.14,21.5426,-50.2538,-18.6501,1023.37
26804,0.487805,9.80392,0.0621712,1.47,-2.66,0.28,21.6879,-50.6856,-18.458,1023.36
26810,0.492587,9.86131,-0.0382592,1.68,-2.94,0,21.9785,-50.0071,-18.1921,1023.36
26816,0.492587,9.84218,-0.0095648,1.47,-2.73,17.64,21.7751,-49.452,-18.6945,1023.36
26822,0.468675,9.79436,0.0334768,1.54,-2.31,0.28,22.0075,-50.1613,-18.1182,1023.39
26828,0.45911,9.82305,0.0047824,1.54,-2.73,0.07,21.8332,-49.9763,-16.877,1023.39
26834,0.530846,9.82305,-0.0191296,1.61,-2.59,0,21.746,-49.5137,-17.8227,1023.37
26840,0.473458,9.82783,0.0334768,1.89,-2.94,0.21,21.6007,-49.8221,-17.601,1023.37
26846,0.454328,9.84218,-0.023912,1.75,-2.52,0.28,22.1528,-49.637,-18.5319,1023.36
26852,0.47824,9.79914,0.0143472,1.4,-2.59,0.28,22.0947,-49.3903,-18.8275,1023.36
26858,0.483022,9.82305,-0.0334768,1.54,-2.8,0.07,21.5426,-49.1436,-18.9013,1023.38
26864,0.483022,9.83261,-0.0095648,1.26,-2.73,0.49,21.6007,-50.3155,-18.0591,1023.38
26870,0.487805,9.87087,-0.0286944,1.89,-2.87,-0.14,21.0777,-49.6987,-20.113,1023.38
26876,0.492587,9.81827,-0.023912,1.33,-2.73,0.07,21.8913,-48.681,-18.9161,1023.37
26882,0.463893,9.8087,0.023912,1.75,-2.52,0.77,21.6007,-49.5445,-17.867,1023.37
26888,0.487805,9.80392,0.0095648,1.68,-3.15,0.14,21.4554,-49.7912,-17.8965,1023.34
26894,0.511717,9.84696,-0.0382592,1.4,-2.52,0.42,21.7751,-48.9586,-19.3594,1023.34
26900,0.47824,9.80392,-0.0095648,1.33,-2.52,0.28,21.252,-49.637,-18.133,1023.34
26906,0.487805,9.81827,-0.023912,1.68,-2.38,0.28,21.7169,-50.223,-17.0543,1023.34
26912,0.483022,9.78479,-0.0143472,1.61,-2.17,0,21.5135,-49.2978,-18.4285,1023.38
26918,0.487805,9.82305,-0.0286944,1.75,-2.52,-0.21,21.2811,-50.0996,-19.4037,1023.38
26924,0.483022,9.83261,-0.0430416,1.4,-2.87,-0.21,21.3101,-50.0688,-17.5862,1023.38
26930,0.473458,9.78957,0.0047824,1.68,-2.8,0.14,22.4724,-49.6062,-17.8374,1023.37
26936,0.502152,9.85174,0,1.47,-2.59,0.21,21.223,-49.2669,-19.2855,1023.37
26942,0.492587,9.81349,0.0095648,1.96,-2.73,0,22.0656,-50.5622,-18.7388,1023.36
26948,0.49737,9.80392,-0.0143472,1.68,-3.43,0.21,22.2981,-49.3903,-17.7636,1023.36
26954,0.439981,9.83261,-0.023912,1.54,-2.66,0.07,21.7751,-49.8837,-19.2116,1023.38
26960,0.45911,9.82783,0.0047824,1.68,-2.8,0.14,21.6588,-50.5931,-18.6058,1023.38
26966,0.487805,9.84218,-0.023912,1.61,-2.31,-0.07,21.4264,-50.8706,-17.8374,1023.4
26972,0.45911,9.84218,-0.0095648,1.4,-2.31,0.21,21.6879,-49.6987,-19.1969,1023.4
26978,0.487805,9.82305,-0.0286944,1.4,-2.52,-0.07,21.252,-49.8529,-18.7388,1023.38
26984,0.511717,9.82783,-0.0286944,1.47,-2.52,0.14,22.0075,-50.0379,-17.7931,1023.38
26990,0.45911,9.81827,-0.0430416,1.89,-2.8,-0.14,22.4434,-49.3286,-17.8965,1023.38
26996,0.473458,9.82305,-0.0286944,1.68,-2.66,-0.21,21.3683,-49.4828,-17.6601,1023.38
27002,0.487805,9.79436,-0.0143472,1.33,-2.45,0.21,21.7169,-49.637,-17.4976,1023.38
27008,0.45911,9.82783,-0.0047824,1.47,-2.59,-0.14,21.3392,-49.637,-17.6453,1023.36
27014,0.483022,9.84696,-0.0191296,1.68,-2.66,0.14,21.3392,-49.1128,-18.1921,1023.36
27020,0.463893,9.81349,0,1.68,-2.31,-0.14,21.8332,-49.9146,-18.4433,1023.4
27026,0.45911,9.80392,0.023912,1.61,-2.66,0.07,21.0196,-50.3463,-17.1429,1023.4
27032,0.468675,9.82783,0,1.61,-2.66,0.14,21.3683,-49.8837,-19.1082,1023.37
27038,0.468675,9.81827,-0.023912,1.89,-2.73,-0.28,20.8452,-49.6062,-18.7536,1023.37
27044,0.492587,9.82783,0,1.96,-2.45,0.14,21.3973,-50.0688,-18.0739,1023.37
27050,0.492587,9.84218,0.023912,1.61,-2.31,0.35,21.7169,-48.8044,-19.1082,1023.37
27056,0.468675,9.79436,-0.0095648,1.96,-2.52,0.14,21.4264,-49.4212,-18.6945,1023.37
27062,0.526064,9.80392,-0.0191296,2.1,-2.87,-0.28,21.8332,-50.2847,-18.1921,1023.37
27068,0.483022,9.82783,-0.0382592,1.4,-2.17,0.42,21.3101,-50.3772,-17.3498,1023.37
27074,0.47824,9.8087,0,1.4,-2.17,0.28,21.252,-49.6062,-18.5172,1023.36
27080,0.49737,9.82305,-0.0573888,1.47,-2.73,-0.07,20.8743,-50.3463,-18.0295,1023.36
27086,0.483022,9.82305,-0.0095648,1.61,-2.59,0.28,21.8332,-50.0688,-18.3694,1023.38
27092,0.483022,9.84218,-0.0095648,1.33,-2.59,0.28,20.9615,-49.7912,-18.6058,1023.38
27098,0.483022,9.8374,-0.0334768,1.4,-2.73,0.07,21.746,-49.8221,-18.3251,1023.38
27104,0.506934,9.82783,0.0143472,1.33,-2.59,-0.14,22.1237,-49.9146,-18.3398,1023.38
27110,0.49737,9.84218,-0.0095648,1.33,-3.01,0.21,21.3973,-50.3772,-18.1921,1023.38
27116,0.49737,9.8087,-0.0095648,1.61,-2.73,-0.07,21.6007,-49.0202,-18.591,1023.37
27122,0.502152,9.81827,-0.0095648,1.05,-2.8,-0.14,21.6298,-50.0071,-17.2612,1023.37
27128,0.473458,9.83261,-0.0286944,1.47,-3.01,0.14,21.5717,-49.8837,-17.5271,1023.42
27134,0.483022,9.82305,0.0095648,1.75,-2.38,0,21.9203,-49.1436,-18.7979,1023.42
27140,0.49737,9.81827,0,1.47,-2.52,0,21.3973,-49.4828,-17.3498,1023.37
27146,0.492587,9.8087,0,1.75,-2.8,-0.14,21.746,-49.7295,-17.9261,1023.37
27152,0.483022,9.82305,-0.0143472,1.47,-2.52,0,21.7169,-49.637,-18.5467,1023.38
27158,0.483022,9.82305,-0.0191296,1.54,-2.45,0.35,21.3973,-49.2361,-16.611,1023.38
27164,0.49737,9.82305,-0.0095648,1.4,-2.52,0.35,21.6879,-49.4212,-18.2364,1023.38
27170,0.47824,9.83261,-0.0191296,1.33,-2.73,0.07,21.9785,-49.5137,-18.3251,1023.37
27176,0.47824,9.84696,0,1.4,-2.59,0.21,21.3101,-49.6679,-17.9409,1023.37
27182,0.483022,9.82783,-0.0143472,1.26,-2.38,-0.07,21.0777,-49.9763,-18.6649,1023.37
27188,0.45911,9.83261,-0.0573888,1.61,-2.73,0.14,22.0947,-49.7912,-18.5467,1023.37
27194,0.526064,9.81827,-0.0286944,1.33,-2.66,0.35,21.252,-49.5137,-18.3103,1023.34
27200,0.487805,9.81349,-0.0143472,1.89,-2.52,0.28,21.1067,-50.2847,-18.2068,1023.34
27206,0.49737,9.8374,-0.0191296,1.47,-2.45,-0.14,20.9034,-51.0865,-18.266,1023.36
27212,0.473458,9.84218,-0.0334768,1.82,-2.45,0.14,20.8452,-49.6062,-17.6601,1023.36
27218,0.492587,9.83261,-0.047824,1.47,-2.66,0.49,21.5135,-49.7295,-19.3151,1023.36
27224,0.49737,9.82305,-0.0191296,1.19,-2.03,0.21,22.3852,-50.2538,-18.0886,1023.39
27230,0.45911,9.81349,0.0191296,1.54,-2.31,-0.14,21.4554,-50.1613,-18.724,1023.39
27236,0.45911,9.79914,0.0143472,1.61,-2.66,0,22.0947,-49.7295,-18.1034,1023.36
27242,0.473458,9.82305,-0.023912,1.33,-2.73,-0.35,22.5305,-50.2538,-17.8374,1023.36
27248,0.502152,9.82305,-0.0095648,1.75,-2.73,0.14,22.2981,-49.637,-18.266,1023.36
27254,0.473458,9.81349,0.0191296,1.61,-2.8,0,20.8452,-48.6193,-19.6106,1023.36
27260,0.487805,9.84696,0.0143472,1.47,-2.59,-0.28,21.4264,-49.0819,-17.6749,1023.38
27266,0.511717,9.82783,-0.0095648,1.26,-2.45,0.7,22.0656,-50.0379,-17.4089,1023.38
27272,0.487805,9.80392,-0.0286944,1.33,-2.45,0.56,21.9785,-48.9277,-17.5271,1023.38
27278,0.487805,9.8374,-0.0334768,1.54,-2.24,-0.14,21.5717,-49.4212,-18.0886,1023.34
27284,0.468675,9.81827,0.0191296,1.75,-2.38,0.28,21.8622,-50.0996,-17.2612,1023.34
27290,0.468675,9.81349,-0.0382592,1.26,-2.52,0.07,21.746,-50.0071,-17.8522,1023.37
27296,0.463893,9.8374,-0.0143472,1.4,-2.38,0.56,22.3271,-49.5753,-18.5024,1023.37
27302,0.492587,9.80392,-0.0047824,1.47,-2.45,0.35,22.1237,-50.0996,-18.2216,1023.37
27308,0.487805,9.81349,-0.0143472,1.82,-2.87,-0.35,21.8913,-50.0071,-17.601,1023.37
27314,0.45911,9.8374,-0.047824,1.68,-2.31,0.21,22.0366,-49.1744,-18.2068,1023.36
27320,0.521282,9.83261,-0.0047824,1.47,-2.45,0.28,21.9785,-49.6062,-18.1034,1023.36
