Timestamp,AccX,AccY,AccZ,AngularVelX,AngularVelY,AngularVelZ,MagX,MagY,MagZ,AirPressure
41456,-0.742464,9.82798,0.242531,0.21,0.07,-0.84,-19.2886,-104.124,19.2647,1020.15
41462,-0.718766,9.84703,0.128486,0.21,-0.07,-0.84,-17.9779,-103.491,19.7104,1020.15
41468,-0.742464,9.82798,0.180756,0.14,0.14,-0.84,-18.4421,-103.702,19.7995,1020.17
41474,-0.628711,9.76131,0.218771,0,0,-0.91,-18.524,-103.551,20.0967,1020.17
41480,-0.714026,9.77559,0.199764,-0.07,0.07,-0.98,-18.7698,-103.883,18.6407,1020.16
41486,-0.728245,9.78036,0.171253,0.07,0.14,-0.98,-18.6879,-103.702,20.0669,1020.16
41492,-0.737725,9.78988,0.176004,0.07,0.28,-1.05,-18.1964,-102.918,18.9081,1020.15
41498,-0.80882,9.82322,0.166501,-0.14,0.28,-1.12,-17.5956,-102.617,19.235,1020.15
41504,-0.856217,9.78988,0.209267,-0.14,0.35,-1.12,-17.7595,-103.34,18.8487,1020.15
41510,-0.728245,9.82322,0.152245,0,0,-1.05,-17.896,-103.461,18.1504,1020.17
41516,-0.766163,9.81846,0.204516,-0.07,0.14,-0.98,-18.3056,-103.129,19.2795,1020.17
41522,-0.80882,9.88513,0.199764,0,0.28,-0.84,-18.251,-103.822,19.1756,1020.15
41528,-0.827779,9.79464,0.166501,0.07,0.07,-0.91,-18.7425,-103.702,18.9973,1020.15
41534,-0.742464,9.85656,0.199764,-0.14,-0.14,-0.77,-18.1144,-103.642,20.0521,1020.17
41540,-0.718766,9.78988,0.195012,-0.14,-0.14,-0.77,-18.879,-103.672,18.2544,1020.17
41546,-0.818299,9.77559,0.228275,0,-0.14,-0.84,-17.9233,-103.25,19.1607,1020.17
41552,-0.737725,9.80893,0.195012,0.14,-0.21,-0.49,-18.6606,-103.37,19.1013,1020.17
41558,-0.770902,9.80893,0.209267,0.07,-0.14,-0.49,-18.7425,-104.033,18.5961,1020.17
41564,-0.742464,9.81846,0.204516,0.14,-0.14,-0.49,-18.3329,-103.25,18.0316,1020.16
41570,-0.714026,9.76607,0.19026,0.28,-0.14,-0.56,-18.1691,-102.888,18.9378,1020.16
41576,-0.704547,9.80417,0.199764,0.07,-0.14,-0.63,-17.7048,-103.521,17.7939,1020.11
41582,-0.714026,9.80893,0.176004,0.14,0,-0.7,-18.3875,-103.702,17.9573,1020.11
41588,-0.780382,9.80893,0.204516,0.21,0.14,-0.7,-17.9779,-103.461,19.4727,1020.16
41594,-0.761423,9.84703,0.156997,0.28,0.07,-0.7,-18.7425,-103.4,18.9527,1020.16
41600,-0.709286,9.81846,0.214019,0.07,0.07,-0.7,-17.9233,-102.948,17.5859,1020.16
41606,-0.799341,9.82322,0.218771,0.07,0.07,-0.7,-18.0325,-103.431,19.131,1020.17
41612,-0.785122,9.83751,0.180756,0,-0.07,-0.77,-18.0325,-103.4,18.299,1020.17
41618,-0.718766,9.85179,0.209267,0,-0.07,-0.77,-17.9506,-103.792,18.3881,1020.15
41624,-0.751944,9.81846,0.252034,0,-0.07,-0.7,-18.606,-103.431,18.4327,1020.15
41630,-0.832518,9.82322,0.171253,0.07,0,-0.77,-18.0598,-103.581,18.819,1020.17
41636,-0.780382,9.76607,0.233027,0,-0.14,-0.7,-17.7321,-103.853,18.9378,1020.17
41642,-0.751944,9.82798,0.218771,0,-0.21,-0.7,-17.9779,-103.491,18.7299,1020.17
41648,-0.789861,9.78512,0.195012,0.07,-0.28,-0.7,-17.9779,-103.973,19.235,1020.13
41654,-0.837258,9.80893,0.233027,0.14,-0.14,-0.56,-18.0598,-104.275,18.8487,1020.13
41660,-0.785122,9.81846,0.161749,0,-0.21,-0.56,-18.524,-103.611,18.7001,1020.16
41666,-0.775642,9.79464,0.137989,-0.14,-0.42,-0.63,-17.9779,-104.214,18.4327,1020.16
41672,-0.766163,9.81369,0.214019,-0.07,-0.35,-0.63,-17.7321,-103.822,19.8887,1020.16
41678,-0.775642,9.79941,0.223523,0,-0.14,-0.49,-17.7868,-104.064,19.8292,1020.16
41684,-0.761423,9.79941,0.19026,0.28,-0.14,-0.49,-18.1691,-103.913,19.3241,1020.17
41690,-0.761423,9.79941,0.204516,0.14,-0.21,-0.49,-18.4694,-103.702,19.2201,1020.17
41696,-0.766163,9.79941,0.180756,0.07,-0.14,-0.56,-18.1691,-103.883,19.3984,1020.17
41702,-0.747204,9.79464,0.185508,0.07,-0.14,-0.7,-17.7048,-103.792,19.8887,1020.17
41708,-0.770902,9.83751,0.228275,0.14,-0.14,-0.63,-18.3056,-103.551,19.3835,1020.17
41714,-0.747204,9.83274,0.209267,0.07,-0.14,-0.77,-18.524,-103.581,19.2498,1020.15
41720,-0.761423,9.75178,0.204516,0.07,-0.14,-0.77,-18.5513,-103.28,19.0418,1020.15
41726,-0.718766,9.77083,0.176004,0.07,-0.07,-0.7,-18.7152,-103.913,18.7001,1020.14
41732,-0.756683,9.79941,0.209267,0,-0.07,-0.77,-18.2237,-102.707,19.2795,1020.14
41738,-0.695067,9.78988,0.142741,-0.14,-0.28,-0.91,-18.2237,-103.129,18.5961,1020.14
41744,-0.766163,9.81369,0.294801,-0.21,0.21,-0.84,-18.4421,-103.37,18.3733,1020.14
41750,-0.794601,9.78988,0.166501,-0.07,-0.14,-0.91,-18.3602,-103.702,18.3733,1020.14
41756,-0.732985,9.85656,0.214019,0,0.14,-0.77,-18.2783,-103.611,17.8533,1020.15
41762,-0.747204,9.84227,0.128486,0,-0.7,-0.63,-17.9779,-103.973,19.0418,1020.15
41768,-0.65715,9.78988,0.199764,-0.28,-0.56,-0.7,-18.2237,-103.189,18.7299,1020.16
41774,-0.747204,9.75178,0.313809,-0.14,-0.21,-0.63,-18.6333,-104.154,19.2647,1020.16
41780,-0.770902,9.77083,0.147493,0.21,-0.07,-0.56,-18.9336,-103.551,18.9824,1020.14
41786,-0.747204,9.80893,0.19026,0.21,-0.14,-0.63,-19.0156,-103.34,19.8292,1020.14
41792,-0.747204,9.79941,0.180756,0.21,-0.14,-0.63,-18.3875,-104.003,18.9378,1020.14
41798,-0.766163,9.79941,0.223523,0.07,-0.14,-0.7,-18.0052,-103.34,19.0864,1020.16
41804,-0.81356,9.76607,0.237779,0.14,-0.28,-0.7,-18.9883,-103.521,19.1756,1020.16
41810,-0.766163,9.86132,0.199764,0.07,-0.07,-0.63,-18.2237,-103.431,18.299,1020.18
41816,-0.766163,9.82322,0.185508,-0.07,0,-0.7,-18.3875,-103.189,18.091,1020.18
41822,-0.761423,9.77559,0.195012,0,0.07,-0.63,-18.524,-103.009,20.2304,1020.16
41828,-0.81356,9.75178,0.11423,0.21,0,-0.63,-18.4421,-103.189,19.339,1020.16
41834,-0.751944,9.82322,0.180756,0,-0.14,-0.63,-17.5683,-103.551,19.339,1020.12
41840,-0.709286,9.78988,0.237779,-0.14,-0.28,-0.63,-17.7595,-103.611,18.7744,1020.12
41846,-0.818299,9.79941,0.204516,0.21,0.07,-0.63,-18.1144,-104.124,18.715,1020.12
41852,-0.732985,9.78036,0.237779,0.21,-0.07,-0.56,-18.3602,-103.099,19.5767,1020.15
41858,-0.732985,9.80417,0.171253,0.35,-0.07,-0.63,-18.1691,-104.275,19.5024,1020.15
41864,-0.789861,9.85179,0.185508,0.21,0,-0.56,-17.7321,-103.491,18.8487,1020.16
41870,-0.818299,9.81846,0.185508,-0.07,-0.14,-0.49,-17.7595,-103.159,18.7447,1020.16
41876,-0.818299,9.85656,0.185508,-0.21,-0.21,-0.42,-18.0598,-103.189,18.8784,1020.14
41882,-0.780382,9.77083,0.233027,0,-0.07,-0.42,-18.1144,-103.732,19.963,1020.14
41888,-0.756683,9.79941,0.218771,0.49,0,-0.35,-18.4967,-103.853,19.1756,1020.14
41894,-0.794601,9.82798,0.109478,0.42,0,-0.21,-18.0052,-104.003,19.2795,1020.18
41900,-0.770902,9.72797,0.237779,-0.21,-0.35,-0.21,-18.3056,-103.581,19.1458,1020.18
41906,-0.714026,9.72797,0.294801,0.14,-0.21,-0.14,-18.0598,-103.37,18.7596,1020.15
41912,-0.794601,9.80417,0.180756,0.56,-0.14,-0.14,-18.9609,-103.129,19.9184,1020.15
41918,-0.732985,9.82798,0.176004,0.56,-0.07,-0.28,-17.7048,-103.702,19.2201,1020.15
41924,-0.785122,9.84227,0.204516,0.21,0,-0.28,-17.8414,-104.184,18.611,1020.15
41930,-0.747204,9.80893,0.171253,0.35,-0.14,-0.35,-19.0156,-104.666,18.7596,1020.17
41936,-0.714026,9.85179,0.195012,0.28,-0.07,-0.35,-18.606,-103.491,19.2944,1020.17
41942,-0.851477,9.80893,0.176004,0.28,-0.07,-0.35,-18.3602,-103.581,19.6361,1020.17
41948,-0.799341,9.86132,0.171253,0.35,-0.21,-0.28,-18.1144,-102.707,19.8292,1020.17
41954,-0.80408,9.82798,0.209267,0.21,-0.07,-0.21,-18.879,-104.124,19.2795,1020.17
41960,-0.780382,9.73273,0.218771,0.28,-0.14,-0.21,-18.1417,-103.521,18.6407,1020.14
41966,-0.81356,9.81369,0.185508,0.07,-0.14,-0.21,-18.3056,-103.913,18.5813,1020.14
41972,-0.780382,9.81846,0.19026,0.21,-0.21,-0.21,-18.5787,-104.184,18.4921,1020.17
41978,-0.789861,9.77559,0.228275,0.42,-0.14,-0.21,-17.896,-103.159,18.6407,1020.17
41984,-0.799341,9.81846,0.214019,0.49,-0.14,-0.07,-18.8517,-104.154,18.0762,1020.17
41990,-0.732985,9.80893,0.199764,0.35,-0.14,-0.07,-18.0871,-103.37,17.9127,1020.17
41996,-0.728245,9.82322,0.176004,0,-0.07,-0.21,-18.9609,-104.486,17.9424,1020.17
42002,-0.761423,9.78036,0.237779,0.28,-0.35,-0.28,-18.1144,-103.762,18.5367,1020.15
42008,-0.751944,9.81846,0.233027,0.35,-0.14,-0.14,-18.3329,-103.642,18.5961,1020.15
42014,-0.742464,9.79941,0.176004,0.49,-0.14,-0.21,-18.8244,-103.642,17.8682,1020.15
42020,-0.770902,9.84227,0.176004,0.49,-0.14,-0.28,-18.4967,-104.486,18.1207,1020.15
42026,-0.728245,9.79464,0.204516,0.21,0,-0.21,-17.9233,-104.064,19.131,1020.14
42032,-0.766163,9.83751,0.223523,0.07,-0.07,-0.28,-18.6606,-104.305,18.1356,1020.14
42038,-0.846738,9.79464,0.176004,0.21,-0.07,-0.21,-18.1417,-103.672,18.923,1020.14
42044,-0.742464,9.85179,0.166501,0.35,-0.07,-0.28,-18.4967,-103.551,18.507,1020.18
42050,-0.775642,9.81369,0.180756,0.28,-0.21,-0.21,-18.6606,-103.551,19.2053,1020.18
42056,-0.751944,9.77559,0.214019,0.14,-0.21,-0.21,-18.4421,-102.888,18.6556,1020.16
42062,-0.747204,9.84703,0.204516,0.14,-0.21,-0.28,-18.0871,-103.461,18.4476,1020.16
42068,-0.775642,9.82322,0.185508,0.21,-0.07,-0.14,-17.896,-103.642,19.1904,1020.17
42074,-0.851477,9.81369,0.209267,0.28,0,-0.07,-18.3602,-104.124,18.8933,1020.17
42080,-0.728245,9.87084,0.199764,0.49,-0.21,-0.07,-18.3056,-104.244,19.3687,1020.18
42086,-0.770902,9.77559,0.233027,0.21,-0.21,-0.14,-18.1964,-104.154,19.6955,1020.18
42092,-0.766163,9.78988,0.214019,0.21,-0.14,-0.14,-18.3875,-103.672,19.3538,1020.18
42098,-0.723505,9.81369,0.252034,0.14,0,-0.21,-18.5513,-104.275,18.2693,1020.16
42104,-0.747204,9.81369,0.223523,0.21,-0.07,-0.21,-17.9233,-104.124,19.443,1020.16
42110,-0.780382,9.82798,0.218771,0.28,-0.21,-0.28,-18.4421,-103.762,18.0613,1020.15
42116,-0.704547,9.86132,0.180756,0.21,-0.28,-0.35,-18.4148,-103.551,18.9081,1020.15
42122,-0.718766,9.78988,0.161749,0.28,-0.14,-0.28,-18.2237,-104.516,18.7447,1020.16
42128,-0.780382,9.83751,0.233027,0.21,-0.14,-0.28,-18.4148,-103.973,18.6407,1020.16
42134,-0.699807,9.78988,0.185508,0.21,-0.14,-0.35,-18.6606,-103.913,18.7001,1020.16
42140,-0.728245,9.74702,0.218771,0.14,0,-0.35,-18.0598,-103.4,19.0716,1020.15
42146,-0.756683,9.80417,0.137989,0.14,-0.07,-0.42,-18.4967,-103.4,19.6212,1020.15
42152,-0.789861,9.80417,0.199764,0.14,-0.14,-0.35,-18.4148,-104.666,20.1412,1020.16
42158,-0.728245,9.80893,0.256786,0,-0.14,-0.42,-17.9233,-103.702,19.6807,1020.16
42164,-0.794601,9.82798,0.233027,0.14,0,-0.49,-18.4148,-103.642,19.1013,1020.16
42170,-0.766163,9.81846,0.128486,0.21,0,-0.35,-18.9883,-102.707,18.7001,1020.16
42176,-0.80408,9.83751,0.223523,0.28,0,-0.28,-18.0598,-103.099,18.6259,1020.15
42182,-0.704547,9.82798,0.242531,0.21,-0.14,-0.21,-17.9779,-103.732,18.7299,1020.15
42188,-0.709286,9.77559,0.176004,0.21,-0.14,-0.21,-18.7698,-103.129,19.5767,1020.15
42194,-0.789861,9.80417,0.180756,0.14,-0.07,-0.35,-18.0325,-103.642,20.0521,1020.13
42200,-0.756683,9.78512,0.214019,0.14,-0.07,-0.21,-17.9233,-103.491,19.339,1020.13
42206,-0.799341,9.81846,0.19026,0.35,-0.07,-0.21,-18.6879,-103.461,18.5516,1020.15
42212,-0.775642,9.85179,0.185508,0.28,-0.14,-0.21,-18.1964,-103.431,17.6305,1020.15
42218,-0.742464,9.79464,0.209267,0.14,-0.14,-0.21,-18.2237,-103.009,18.4921,1020.16
42224,-0.761423,9.74702,0.209267,0.14,-0.14,-0.21,-18.6879,-104.214,18.715,1020.16
42230,-0.766163,9.78988,0.204516,0.21,-0.14,-0.28,-18.4421,-103.551,17.7345,1020.19
42236,-0.718766,9.79941,0.166501,0.14,-0.07,-0.35,-17.7868,-103.732,17.8979,1020.19
42242,-0.780382,9.78988,0.180756,0.07,-0.14,-0.28,-18.3056,-103.551,18.1356,1020.19
42248,-0.818299,9.78988,0.185508,0.07,-0.07,-0.35,-17.9779,-103.431,18.6259,1020.18
42254,-0.747204,9.81369,0.199764,-0.07,0,-0.21,-18.3875,-103.642,18.1207,1020.18
42260,-0.756683,9.81846,0.161749,0.07,-0.14,-0.28,-18.1691,-103.943,18.9824,1020.17
42266,-0.718766,9.80417,0.209267,0,-0.21,-0.28,-18.9336,-104.003,19.4875,1020.17
42272,-0.818299,9.76131,0.185508,0.07,-0.21,-0.28,-18.3056,-103.973,19.027,1020.17
42278,-0.751944,9.74702,0.233027,0.21,-0.21,-0.21,-18.1964,-103.551,19.1458,1020.17
42284,-0.770902,9.77083,0.180756,0.35,-0.14,-0.21,-17.4318,-103.702,18.9973,1020.17
42290,-0.789861,9.84227,0.118982,0.42,-0.28,-0.14,-17.8414,-103.129,19.547,1020.17
42296,-0.723505,9.78512,0.204516,0.21,-0.42,-0.14,-18.251,-103.883,19.9184,1020.17
42302,-0.785122,9.79941,0.218771,0.28,-0.28,-0.14,-18.1417,-103.792,19.3687,1020.18
42308,-0.699807,9.76607,0.199764,0.35,-0.28,-0.14,-18.0871,-104.124,18.7447,1020.18
42314,-0.770902,9.77083,0.185508,0.35,-0.21,-0.14,-17.9233,-103.702,18.8041,1020.13
42320,-0.785122,9.83274,0.161749,0.42,-0.14,-0.07,-17.9233,-103.25,19.5767,1020.13
42326,-0.714026,9.83751,0.176004,0.35,-0.28,-0.14,-17.5956,-104.154,18.9973,1020.16
42332,-0.761423,9.81846,0.176004,0.28,-0.21,-0.14,-17.9779,-103.913,18.6556,1020.16
42338,-0.766163,9.80893,0.214019,0.07,-0.14,-0.14,-17.8141,-103.792,19.859,1020.16
42344,-0.80882,9.81369,0.209267,0.21,-0.21,-0.21,-17.7321,-103.732,20.1709,1020.14
42350,-0.709286,9.78988,0.214019,0.28,-0.07,-0.14,-18.3875,-103.762,18.4327,1020.14
42356,-0.775642,9.80893,0.223523,0.42,-0.14,-0.14,-17.7868,-104.003,19.0716,1020.15
42362,-0.785122,9.81846,0.180756,0.14,-0.07,-0.21,-17.6502,-103.551,18.2693,1020.15
42368,-0.827779,9.83751,0.195012,0.14,-0.14,-0.28,-17.2679,-103.943,19.4133,1020.17
42374,-0.794601,9.78512,0.195012,0.21,-0.21,-0.21,-17.4591,-103.913,19.1013,1020.17
42380,-0.794601,9.77559,0.237779,0.21,-0.14,-0.28,-18.4694,-103.732,19.1013,1020.17
42386,-0.785122,9.78036,0.185508,0.21,-0.21,-0.35,-17.6502,-103.792,17.779,1020.16
42392,-0.780382,9.84227,0.180756,0.14,-0.28,-0.21,-18.3329,-104.184,19.027,1020.16
42398,-0.770902,9.85179,0.199764,0,-0.21,-0.14,-18.1144,-103.31,19.7252,1020.16
42404,-0.770902,9.80893,0.233027,0.49,-0.28,-0.07,-17.3225,-103.702,18.3881,1020.16
42410,-0.770902,9.86132,0.180756,0.49,-0.14,-0.07,-17.7321,-103.521,18.507,1020.17
42416,-0.742464,9.82322,0.161749,0.35,-0.21,0,-17.7868,-103.822,18.1801,1020.17
42422,-0.789861,9.82798,0.199764,0.14,-0.35,0,-17.5683,-103.521,19.7252,1020.15
42428,-0.680848,9.78036,0.237779,0.07,-0.56,0,-17.3499,-103.25,18.8933,1020.15
42434,-0.704547,9.77559,0.218771,0.28,-0.14,-0.07,-17.9779,-103.34,18.6259,1020.15
42440,-0.80408,9.80893,0.228275,0.35,-0.14,-0.14,-17.9506,-103.34,18.1207,1020.18
42446,-0.761423,9.78988,0.218771,0.21,-0.35,-0.21,-18.1691,-104.305,19.6064,1020.18
42452,-0.756683,9.80893,0.185508,0.28,-0.21,-0.21,-17.4591,-104.184,19.1904,1020.15
42458,-0.794601,9.82798,0.228275,0.35,-0.21,-0.21,-17.9506,-104.275,19.027,1020.15
42464,-0.728245,9.81369,0.156997,0.21,-0.21,-0.14,-17.186,-104.124,18.4327,1020.15
42470,-0.666629,9.78036,0.199764,0.49,-0.21,-0.21,-17.4318,-103.34,19.5173,1020.15
42476,-0.766163,9.83274,0.195012,0.28,-0.21,-0.28,-17.7321,-103.853,18.5367,1020.17
42482,-0.742464,9.79464,0.218771,0.21,-0.14,-0.28,-18.3056,-104.395,18.0316,1020.17
42488,-0.766163,9.84703,0.147493,0,-0.21,-0.35,-17.6775,-103.732,18.299,1020.17
42494,-0.714026,9.80893,0.133238,0.07,-0.21,-0.28,-17.5137,-104.094,19.3984,1020.17
42500,-0.794601,9.84703,0.19026,0.07,-0.21,-0.28,-18.1144,-103.973,19.1013,1020.17
42506,-0.789861,9.79941,0.166501,0.07,-0.35,-0.28,-17.6775,-103.883,19.3241,1020.16
42512,-0.732985,9.74702,0.228275,-0.07,-0.35,-0.28,-17.9233,-103.853,18.9081,1020.16
42518,-0.718766,9.76607,0.223523,0,-0.28,-0.35,-17.8687,-103.943,19.0864,1020.15
42524,-0.742464,9.75654,0.19026,-0.14,-0.14,-0.49,-18.251,-103.31,19.5321,1020.15
42530,-0.770902,9.78988,0.180756,0,-0.07,-0.35,-18.4967,-103.521,18.8636,1020.15
42536,-0.756683,9.81846,0.209267,0.14,-0.21,-0.42,-17.541,-103.581,19.0567,1020.13
42542,-0.742464,9.79941,0.223523,0.14,-0.14,-0.35,-17.7595,-103.22,18.8784,1020.13
42548,-0.742464,9.78512,0.185508,0.21,-0.07,-0.35,-18.1417,-104.094,19.9332,1020.16
42554,-0.723505,9.82322,0.218771,0.28,-0.07,-0.35,-18.1417,-103.702,18.2693,1020.16
42560,-0.756683,9.86608,0.204516,0.14,0,-0.49,-18.0325,-103.973,17.9722,1020.18
42566,-0.818299,9.79941,0.218771,0,-0.14,-0.42,-18.4967,-104.214,18.8784,1020.18
42572,-0.751944,9.83274,0.133238,0.07,-0.28,-0.49,-18.3329,-103.31,18.5367,1020.16
42578,-0.728245,9.79464,0.214019,0.07,-0.21,-0.56,-17.9779,-103.883,18.4179,1020.16
42584,-0.747204,9.81369,0.233027,0.07,-0.21,-0.35,-18.4967,-103.642,19.7995,1020.16
42590,-0.718766,9.81846,0.147493,0.14,-0.21,-0.42,-18.0052,-103.702,19.7401,1020.19
42596,-0.756683,9.81369,0.199764,0,-0.07,-0.35,-18.6606,-103.973,19.6807,1020.19
42602,-0.789861,9.86608,0.171253,0.21,-0.14,-0.35,-18.251,-104.033,19.3687,1020.15
42608,-0.785122,9.81369,0.185508,0.14,-0.14,-0.35,-17.9506,-103.822,17.3779,1020.15
42614,-0.728245,9.81369,0.176004,-0.14,-0.21,-0.28,-18.0598,-103.642,18.8636,1020.17
42620,-0.718766,9.77559,0.247282,-0.07,-0.14,-0.35,-18.1144,-103.069,18.7596,1020.17
42626,-0.742464,9.82322,0.223523,0.21,-0.07,-0.35,-18.0325,-103.551,19.2201,1020.17
42632,-0.714026,9.82322,0.152245,0.07,-0.14,-0.35,-17.8687,-103.762,18.4773,1020.16
42638,-0.770902,9.84227,0.199764,0.21,-0.14,-0.35,-18.2237,-104.094,19.3093,1020.16
42644,-0.704547,9.84227,0.19026,0.14,-0.28,-0.28,-17.6502,-104.636,18.1653,1020.18
42650,-0.737725,9.75178,0.199764,0.07,-0.21,-0.35,-17.8687,-104.365,18.5516,1020.18
42656,-0.761423,9.76131,0.228275,0.21,-0.21,-0.35,-18.2783,-104.365,19.8887,1020.15
42662,-0.732985,9.80417,0.185508,0.28,-0.07,-0.21,-17.6229,-104.064,18.4624,1020.15
42668,-0.766163,9.84703,0.242531,0.21,-0.21,-0.28,-18.524,-104.033,18.4921,1020.16
42674,-0.818299,9.84227,0.233027,0.14,-0.28,-0.35,-18.6606,-104.064,18.2247,1020.16
42680,-0.761423,9.80417,0.185508,0.21,-0.21,-0.35,-18.4148,-103.611,17.9722,1020.16
42686,-0.737725,9.77083,0.166501,0.14,-0.28,-0.28,-17.8414,-104.214,18.4476,1020.15
42692,-0.761423,9.82798,0.185508,0.07,-0.14,-0.35,-17.186,-104.214,17.571,1020.15
42698,-0.766163,9.77083,0.185508,0.21,-0.14,-0.42,-18.0598,-104.003,18.3881,1020.16
42704,-0.690327,9.83274,0.195012,0.28,-0.21,-0.49,-18.8517,-103.762,18.2396,1020.16
42710,-0.714026,9.80417,0.180756,0.21,-0.21,-0.49,-17.8414,-103.822,19.1904,1020.18
42716,-0.837258,9.86132,0.223523,0.28,-0.14,-0.42,-18.0052,-103.732,18.9378,1020.18
42722,-0.723505,9.84227,0.156997,0.28,-0.21,-0.35,-18.1691,-103.762,20.1115,1020.15
42728,-0.742464,9.80417,0.242531,0.07,-0.21,-0.35,-17.8414,-103.732,19.3241,1020.15
42734,-0.766163,9.80417,0.223523,0.14,-0.28,-0.35,-18.3329,-103.461,18.6556,1020.15
42740,-0.799341,9.82322,0.209267,0.21,-0.21,-0.35,-18.0052,-103.189,18.5219,1020.15
42746,-0.780382,9.81846,0.214019,0.14,-0.21,-0.35,-18.9883,-103.099,18.3881,1020.15
42752,-0.747204,9.74226,0.237779,0.14,-0.21,-0.35,-18.5787,-103.702,18.1207,1020.13
42758,-0.775642,9.82798,0.209267,0.21,-0.14,-0.35,-17.7595,-103.913,18.5961,1020.13
42764,-0.751944,9.79464,0.176004,0.21,-0.21,-0.42,-17.8687,-104.275,17.9573,1020.13
42770,-0.695067,9.80893,0.233027,0.21,-0.28,-0.42,-17.896,-104.184,19.1607,1020.13
42776,-0.766163,9.85179,0.156997,0.21,-0.21,-0.42,-18.1691,-104.214,18.2842,1020.13
42782,-0.775642,9.77083,0.199764,0.14,-0.21,-0.35,-17.9779,-104.064,19.2795,1020.15
42788,-0.832518,9.82798,0.176004,0.14,-0.07,-0.42,-17.4591,-103.159,18.7596,1020.15
42794,-0.766163,9.76607,0.209267,0.07,-0.14,-0.35,-17.6229,-104.244,19.4281,1020.14
42800,-0.766163,9.81369,0.204516,0.07,-0.28,-0.42,-18.5513,-103.159,18.1059,1020.14
42806,-0.732985,9.84227,0.256786,0.21,0,-0.35,-17.896,-104.094,18.9676,1020.16
42812,-0.818299,9.80893,0.209267,0.21,0,-0.42,-18.3602,-104.003,18.9378,1020.16
42818,-0.723505,9.78036,0.171253,0,-0.07,-0.49,-17.5956,-103.491,19.339,1020.14
42824,-0.737725,9.81369,0.185508,-0.14,0,-0.42,-18.2237,-103.129,18.5516,1020.14
42830,-0.737725,9.84227,0.19026,0.14,-0.07,-0.56,-17.9506,-103.853,19.7252,1020.14
42836,-0.780382,9.85179,0.195012,0.35,0,-0.42,-18.8517,-104.998,19.9778,1020.13
42842,-0.794601,9.81846,0.176004,0.21,0.07,-0.35,-17.5683,-103.702,18.5516,1020.13
42848,-0.714026,9.83274,0.218771,0.14,-0.14,-0.28,-17.896,-103.551,18.2693,1020.14
42854,-0.747204,9.79941,0.199764,0,-0.35,-0.35,-18.2783,-103.129,18.9378,1020.14
42860,-0.837258,9.73749,0.228275,0,-0.21,-0.35,-17.7321,-103.521,18.5961,1020.13
42866,-0.756683,9.82798,0.209267,0.14,-0.28,-0.42,-17.9506,-104.244,19.2795,1020.13
42872,-0.780382,9.77559,0.204516,0.14,-0.21,-0.42,-18.0052,-104.425,18.1504,1020.13
42878,-0.695067,9.82322,0.228275,0.14,-0.07,-0.42,-17.7868,-103.581,18.4476,1020.13
42884,-0.751944,9.78512,0.176004,0,-0.14,-0.35,-18.3329,-103.431,18.1801,1020.13
42890,-0.737725,9.79941,0.209267,0.14,0,-0.42,-18.4148,-103.883,16.9916,1020.16
42896,-0.756683,9.80417,0.199764,0.14,-0.07,-0.35,-17.6775,-103.25,18.195,1020.16
42902,-0.732985,9.78988,0.195012,0.28,-0.14,-0.35,-18.3602,-103.853,18.8041,1020.14
42908,-0.732985,9.78988,0.185508,0.28,0,-0.42,-18.0325,-104.003,18.1801,1020.14
42914,-0.761423,9.78512,0.137989,0,-0.07,-0.49,-18.2783,-103.672,18.3139,1020.16
42920,-0.756683,9.78036,0.228275,0,-0.21,-0.49,-18.4967,-104.154,18.507,1020.16
42926,-0.732985,9.87084,0.209267,0.14,-0.28,-0.42,-18.3602,-104.094,18.4624,1020.16
42932,-0.714026,9.82798,0.176004,0.21,-0.21,-0.42,-18.6333,-103.913,18.7596,1020.14
42938,-0.732985,9.83751,0.233027,0.14,-0.21,-0.42,-18.251,-103.461,18.7447,1020.14
42944,-0.775642,9.76607,0.166501,0,-0.28,-0.49,-18.5513,-104.455,19.2053,1020.15
42950,-0.737725,9.79941,0.199764,0.07,-0.21,-0.49,-18.8517,-103.491,18.9973,1020.15
42956,-0.723505,9.81369,0.176004,0.07,-0.14,-0.49,-18.251,-103.189,18.4476,1020.16
42962,-0.775642,9.79941,0.195012,0.07,-0.07,-0.42,-18.5787,-103.491,18.1653,1020.16
42968,-0.732985,9.76607,0.180756,0,-0.21,-0.49,-18.3875,-103.702,18.3139,1020.13
42974,-0.709286,9.77083,0.204516,0.07,-0.14,-0.56,-18.1964,-103.792,18.2693,1020.13
42980,-0.80882,9.78512,0.223523,0,-0.21,-0.56,-18.606,-103.853,19.0567,1020.13
42986,-0.780382,9.80893,0.233027,0.21,-0.07,-0.42,-18.5787,-104.425,19.3093,1020.14
42992,-0.747204,9.80417,0.218771,0.42,0,-0.42,-17.896,-103.642,20.4384,1020.14
42998,-0.728245,9.84227,0.185508,0.07,-0.07,-0.28,-18.6333,-104.697,19.1756,1020.14
43004,-0.775642,9.81369,0.209267,0,-0.07,-0.28,-18.0325,-104.244,18.0167,1020.14
43010,-0.714026,9.83274,0.237779,0.07,-0.14,-0.35,-18.4148,-103.913,19.7847,1020.16
43016,-0.723505,9.78512,0.214019,0.14,-0.07,-0.35,-18.5513,-103.642,19.6064,1020.16
43022,-0.728245,9.82798,0.180756,0.21,0,-0.35,-18.3602,-103.25,19.7847,1020.16
43028,-0.766163,9.86608,0.176004,0.21,-0.07,-0.42,-19.1248,-104.003,19.1458,1020.16
43034,-0.699807,9.80893,0.185508,0.14,-0.07,-0.49,-18.524,-104.154,19.027,1020.16
43040,-0.742464,9.77083,0.218771,0.14,0,-0.49,-18.9336,-104.817,19.3835,1020.13
43046,-0.732985,9.78988,0.252034,0.21,0,-0.56,-18.7971,-103.762,19.5024,1020.13
43052,-0.761423,9.82322,0.19026,0.14,0.14,-0.56,-17.8141,-103.702,19.0418,1020.15
43058,-0.770902,9.82798,0.195012,0.21,0.07,-0.56,-17.7321,-103.039,18.715,1020.15
43064,-0.723505,9.80893,0.185508,0.14,0.07,-0.49,-18.7425,-103.189,19.5767,1020.14
43070,-0.737725,9.76607,0.195012,0.07,0.07,-0.49,-18.1417,-102.828,18.819,1020.14
43076,-0.718766,9.82798,0.137989,0.14,-0.07,-0.35,-18.2237,-103.551,19.2795,1020.14
43082,-0.718766,9.78988,0.171253,0.07,-0.07,-0.35,-18.7698,-103.37,18.5367,1020.15
43088,-0.751944,9.78036,0.199764,0.07,0,-0.42,-18.1691,-103.34,20.3047,1020.15
43094,-0.742464,9.77083,0.242531,0.14,0,-0.35,-17.7595,-103.039,19.1756,1020.18
43100,-0.728245,9.84703,0.166501,0.21,0,-0.35,-18.0598,-104.064,19.1013,1020.18
43106,-0.789861,9.85656,0.237779,0.21,0,-0.49,-18.4148,-104.003,19.7252,1020.19
43112,-0.775642,9.83751,0.19026,0.14,-0.14,-0.42,-17.7868,-103.37,18.507,1020.19
43118,-0.709286,9.78512,0.209267,0.14,-0.14,-0.42,-18.0871,-103.702,18.4624,1020.19
43124,-0.704547,9.82322,0.242531,0.21,0.07,-0.42,-18.1144,-104.124,18.299,1020.15
43130,-0.742464,9.76607,0.176004,0.42,0,-0.35,-18.0871,-103.762,18.4476,1020.15
43136,-0.742464,9.81369,0.19026,0.42,0,-0.42,-18.524,-103.069,17.1996,1020.18
43142,-0.728245,9.85656,0.180756,0.21,-0.07,-0.42,-18.7971,-104.636,17.883,1020.18
43148,-0.770902,9.81369,0.228275,0.07,-0.07,-0.42,-18.0598,-103.461,17.7345,1020.12
43154,-0.680848,9.79464,0.209267,0.14,0,-0.42,-18.8244,-103.37,17.9722,1020.12
43160,-0.742464,9.77083,0.195012,0.28,-0.07,-0.28,-18.4694,-103.973,18.5516,1020.12
43166,-0.718766,9.83274,0.128486,0.35,-0.14,-0.35,-18.7698,-104.033,19.2647,1020.12
43172,-0.742464,9.82322,0.19026,0.21,-0.14,-0.28,-18.5787,-103.642,18.6556,1020.12
43178,-0.695067,9.75654,0.171253,0.14,-0.21,-0.42,-18.3056,-103.853,19.4875,1020.15
43184,-0.794601,9.79464,0.176004,0.21,-0.21,-0.42,-18.0598,-103.762,18.5813,1020.15
43190,-0.770902,9.80893,0.171253,0.28,-0.14,-0.35,-18.8517,-104.124,17.883,1020.17
43196,-0.751944,9.78988,0.247282,0.07,-0.21,-0.35,-18.0598,-103.069,19.1756,1020.17
43202,-0.690327,9.81369,0.195012,0.14,-0.35,-0.28,-18.7152,-103.611,18.2693,1020.16
43208,-0.742464,9.78512,0.218771,0.07,-0.14,-0.28,-18.7971,-103.822,17.987,1020.16
43214,-0.718766,9.79464,0.19026,0.14,-0.35,-0.21,-18.3056,-103.642,19.7104,1020.17
43220,-0.770902,9.77083,0.209267,0.14,-0.28,-0.28,-18.0871,-104.214,18.4921,1020.17
43226,-0.742464,9.78512,0.247282,0.28,-0.07,-0.28,-18.4694,-103.762,17.6305,1020.17
43232,-0.742464,9.75654,0.171253,0.21,-0.07,-0.28,-17.8414,-103.943,18.1801,1020.15
43238,-0.732985,9.84703,0.180756,0.14,0,-0.49,-18.3056,-104.154,18.7447,1020.15
43244,-0.714026,9.75654,0.185508,0.14,-0.07,-0.49,-18.7971,-104.697,17.9722,1020.16
43250,-0.714026,9.77083,0.152245,0.21,0,-0.42,-18.9609,-104.636,18.1207,1020.16
43256,-0.747204,9.76131,0.204516,0.21,0,-0.42,-18.4148,-104.335,18.2396,1020.15
43262,-0.718766,9.77083,0.199764,0.14,-0.14,-0.56,-18.8244,-103.189,18.611,1020.15
43268,-0.732985,9.78988,0.156997,0.21,-0.07,-0.56,-18.1417,-104.003,19.2498,1020.15
43274,-0.780382,9.83751,0.161749,0.21,0,-0.56,-17.9779,-103.28,18.4773,1020.17
43280,-0.699807,9.84703,0.123734,0.21,-0.07,-0.49,-18.0325,-103.822,19.9778,1020.17
43286,-0.732985,9.82322,0.166501,0.07,-0.07,-0.49,-18.6879,-102.978,19.4875,1020.14
43292,-0.747204,9.83274,0.214019,0,-0.14,-0.42,-17.8687,-103.4,18.3733,1020.14
43298,-0.714026,9.81846,0.209267,0.07,-0.28,-0.49,-18.0325,-103.581,18.8636,1020.16
43304,-0.680848,9.83751,0.204516,0,-0.14,-0.42,-18.0052,-104.365,17.3927,1020.16
43310,-0.770902,9.82322,0.19026,0.07,-0.07,-0.42,-18.6606,-103.461,18.9081,1020.16
43316,-0.723505,9.76607,0.19026,-0.07,-0.21,-0.49,-17.8414,-103.34,18.7596,1020.16
43322,-0.761423,9.81369,0.228275,0.07,-0.35,-0.42,-19.0156,-103.4,18.6704,1020.16
43328,-0.728245,9.82322,0.180756,0.28,-0.14,-0.49,-17.2133,-103.4,18.7744,1020.16
43334,-0.690327,9.83751,0.19026,0.14,-0.21,-0.42,-18.3329,-103.883,17.3927,1020.16
43340,-0.775642,9.78512,0.171253,0.07,-0.14,-0.42,-18.6333,-102.978,18.4476,1020.14
43346,-0.742464,9.78988,0.256786,0.14,0,-0.56,-18.2783,-103.581,18.2842,1020.14
43352,-0.780382,9.80893,0.199764,0.28,-0.07,-0.56,-18.524,-104.455,17.6305,1020.17
43358,-0.714026,9.85179,0.161749,0.28,-0.07,-0.49,-18.9336,-103.159,19.5024,1020.17
43364,-0.785122,9.80893,0.152245,0.14,-0.14,-0.42,-17.7048,-103.732,17.8682,1020.17
43370,-0.766163,9.76607,0.218771,0,-0.14,-0.56,-18.3056,-104.094,18.2544,1020.17
43376,-0.737725,9.79464,0.204516,0.07,0,-0.56,-18.6879,-103.521,17.363,1020.17
43382,-0.742464,9.78988,0.185508,0.21,0,-0.56,-18.1691,-103.853,18.4327,1020.14
43388,-0.714026,9.84227,0.176004,0.21,-0.07,-0.56,-18.3329,-103.37,19.0567,1020.14
43394,-0.714026,9.80893,0.152245,0.07,-0.21,-0.56,-19.0156,-104.214,19.1013,1020.17
43400,-0.742464,9.78036,0.204516,0.14,-0.07,-0.49,-17.8414,-103.762,19.2944,1020.17
43406,-0.714026,9.79941,0.180756,0.07,-0.07,-0.49,-18.1691,-104.033,19.1161,1020.15
43412,-0.756683,9.82322,0.237779,-0.07,-0.14,-0.56,-17.9506,-104.003,18.819,1020.15
43418,-0.799341,9.81369,0.218771,0.07,-0.21,-0.49,-18.3875,-103.461,18.5367,1020.15
43424,-0.761423,9.84703,0.247282,0.35,-0.14,-0.42,-18.3056,-104.606,19.651,1020.15
43430,-0.690327,9.78988,0.218771,0.14,-0.14,-0.49,-17.9233,-104.184,19.5321,1020.15
43436,-0.775642,9.79464,0.185508,0.14,-0.14,-0.49,-18.3056,-103.581,17.8533,1020.15
43442,-0.728245,9.80893,0.195012,0.21,-0.07,-0.42,-18.1144,-104.154,19.2944,1020.15
43448,-0.728245,9.77083,0.218771,0.14,-0.14,-0.42,-18.6879,-103.431,18.8933,1020.15
43454,-0.785122,9.80893,0.195012,0.14,-0.07,-0.42,-18.4694,-103.611,19.8887,1020.15
43460,-0.690327,9.79464,0.176004,0.14,0.07,-0.49,-18.4967,-103.672,18.9973,1020.15
43466,-0.704547,9.73749,0.195012,0.14,-0.07,-0.42,-17.7595,-103.642,18.9824,1020.17
43472,-0.761423,9.80417,0.204516,0.07,0,-0.35,-18.0598,-103.551,18.299,1020.17
43478,-0.685588,9.86132,0.195012,0.07,-0.07,-0.49,-17.8141,-103.37,18.5813,1020.14
43484,-0.785122,9.80417,0.199764,0.14,0,-0.49,-18.1144,-103.702,19.5024,1020.14
43490,-0.747204,9.79464,0.171253,0.21,0,-0.56,-18.6606,-103.762,19.2201,1020.14
43496,-0.737725,9.78036,0.209267,0.28,-0.14,-0.49,-18.8244,-103.159,19.1607,1020.14
43502,-0.723505,9.83751,0.233027,0.14,0.14,-0.49,-18.1417,-103.25,19.6361,1020.2
43508,-0.766163,9.82322,0.118982,0.28,0.21,-0.49,-18.6333,-103.853,18.6704,1020.2
43514,-0.785122,9.78512,0.204516,0.21,0.07,-0.42,-18.3602,-104.275,18.2842,1020.2
43520,-0.789861,9.80893,0.218771,0.14,-0.07,-0.56,-18.6879,-103.22,19.2498,1020.14
43526,-0.732985,9.80893,0.218771,0.21,-0.14,-0.49,-18.0325,-103.039,19.0121,1020.14
43532,-0.742464,9.77559,0.223523,0.28,-0.21,-0.42,-18.606,-104.576,18.2842,1020.14
43538,-0.799341,9.80893,0.218771,0.21,-0.07,-0.49,-18.0871,-103.642,18.6556,1020.14
43544,-0.742464,9.79941,0.180756,0.14,-0.07,-0.42,-17.896,-103.611,19.2944,1020.16
43550,-0.714026,9.81846,0.228275,0.14,-0.07,-0.35,-18.1964,-103.551,18.7299,1020.16
43556,-0.756683,9.78512,0.252034,0.28,-0.14,-0.35,-18.6606,-103.672,19.1013,1020.15
43562,-0.737725,9.83751,0.19026,0.14,0,-0.42,-18.3329,-104.486,20.4978,1020.15
43568,-0.770902,9.84227,0.19026,0.21,0.07,-0.49,-18.0598,-103.732,18.7744,1020.15
43574,-0.761423,9.81369,0.161749,0.35,0,-0.42,-18.0052,-103.25,19.9332,1020.14
43580,-0.761423,9.86132,0.152245,0.14,0,-0.35,-18.2783,-103.4,19.131,1020.14
43586,-0.737725,9.83751,0.185508,0.07,0,-0.35,-18.2783,-104.064,19.5024,1020.13
43592,-0.775642,9.80417,0.209267,0.21,-0.07,-0.42,-18.1144,-104.305,18.4179,1020.13
43598,-0.751944,9.83751,0.195012,0.28,0,-0.42,-18.251,-103.642,18.9824,1020.15
43604,-0.732985,9.84227,0.152245,0.21,0,-0.35,-18.524,-103.642,19.1756,1020.15
43610,-0.690327,9.78512,0.171253,0.28,-0.14,-0.35,-18.6606,-103.732,19.0567,1020.15
43616,-0.685588,9.78512,0.171253,0.35,-0.14,-0.42,-17.8141,-103.25,19.7104,1020.14
43622,-0.756683,9.78036,0.199764,0.28,-0.14,-0.42,-18.6333,-103.672,19.2498,1020.14
43628,-0.737725,9.77083,0.209267,0.21,-0.14,-0.35,-18.9336,-104.003,19.547,1020.15
43634,-0.756683,9.81369,0.209267,0.21,-0.14,-0.42,-17.896,-103.822,19.5618,1020.15
43640,-0.747204,9.80417,0.256786,0.21,-0.07,-0.49,-18.524,-102.918,19.8441,1020.16
43646,-0.709286,9.79464,0.185508,0.28,0,-0.35,-18.8517,-103.491,18.5219,1020.16
43652,-0.728245,9.85179,0.209267,0.28,-0.07,-0.42,-17.8687,-103.792,19.3687,1020.16
43658,-0.728245,9.79464,0.166501,0.14,-0.14,-0.35,-18.6879,-103.461,18.299,1020.16
43664,-0.761423,9.77559,0.180756,0,-0.21,-0.35,-18.5787,-104.064,20.1115,1020.16
43670,-0.714026,9.76131,0.185508,0.07,-0.14,-0.42,-18.3875,-103.732,19.2795,1020.15
43676,-0.799341,9.84703,0.166501,0.07,-0.07,-0.49,-17.9506,-103.822,19.0716,1020.15
43682,-0.81356,9.75654,0.199764,0.21,-0.07,-0.28,-18.5787,-103.943,19.6361,1020.12
43688,-0.766163,9.82322,0.233027,0.07,-0.21,-0.35,-17.8687,-103.913,18.2099,1020.12
43694,-0.709286,9.78512,0.185508,0.21,-0.21,-0.35,-18.6879,-103.34,18.7299,1020.15
43700,-0.737725,9.78512,0.214019,0.28,-0.14,-0.35,-18.4148,-103.189,18.4921,1020.15
43706,-0.799341,9.78512,0.233027,0.14,-0.14,-0.28,-18.8517,-104.365,18.8933,1020.15
43712,-0.732985,9.80417,0.171253,0.14,-0.14,-0.42,-19.1794,-103.672,19.027,1020.14
43718,-0.732985,9.77083,0.209267,0.21,-0.07,-0.35,-18.2237,-103.159,18.9081,1020.14
43724,-0.732985,9.85656,0.195012,0.14,-0.14,-0.42,-19.0156,-103.25,18.7744,1020.16
43730,-0.799341,9.83274,0.199764,0.28,-0.14,-0.49,-18.0325,-103.853,18.9824,1020.16
43736,-0.718766,9.80417,0.166501,0.14,-0.14,-0.49,-18.4694,-103.702,18.2099,1020.15
43742,-0.718766,9.84703,0.171253,0.14,-0.14,-0.49,-18.5513,-103.913,18.5516,1020.15
43748,-0.723505,9.80893,0.195012,0.07,-0.14,-0.42,-18.4694,-104.244,19.0418,1020.15
43754,-0.770902,9.78512,0.233027,-0.07,-0.21,-0.42,-18.3875,-103.943,19.0716,1020.15
43760,-0.785122,9.80417,0.204516,0.07,-0.21,-0.35,-17.8687,-104.094,19.2795,1020.15
43766,-0.756683,9.79464,0.19026,0.21,-0.21,-0.42,-18.3329,-103.551,19.027,1020.13
43772,-0.751944,9.83751,0.185508,0,-0.21,-0.28,-18.1964,-103.702,17.6156,1020.13
43778,-0.718766,9.81846,0.199764,0,-0.28,-0.28,-17.8414,-104.094,19.1904,1020.14
43784,-0.704547,9.78036,0.223523,0.07,-0.28,-0.28,-18.4148,-103.732,19.0567,1020.14
43790,-0.794601,9.82322,0.237779,0.14,-0.28,-0.35,-18.251,-103.491,18.1653,1020.14
43796,-0.676108,9.81369,0.195012,0.28,-0.21,-0.35,-18.4421,-104.395,18.091,1020.14
43802,-0.704547,9.79464,0.233027,0.21,0,-0.42,-18.8244,-103.4,17.4225,1020.16
43808,-0.709286,9.79941,0.214019,0.21,-0.14,-0.35,-19.1794,-103.762,18.8041,1020.16
43814,-0.742464,9.79464,0.185508,0.14,-0.07,-0.35,-18.0052,-103.611,18.715,1020.16
43820,-0.728245,9.77083,0.209267,0.14,-0.07,-0.35,-18.3329,-103.672,18.1801,1020.17
43826,-0.714026,9.77083,0.171253,0.14,-0.14,-0.42,-18.8244,-104.003,19.547,1020.17
43832,-0.751944,9.83274,0.204516,0.21,-0.14,-0.42,-18.7152,-103.28,19.2795,1020.14
43838,-0.728245,9.82322,0.180756,0.14,0,-0.49,-18.4967,-103.159,18.8636,1020.14
43844,-0.732985,9.79941,0.218771,0.21,-0.14,-0.42,-18.606,-103.461,19.0864,1020.17
43850,-0.761423,9.83274,0.209267,0.14,-0.07,-0.49,-18.6879,-104.184,19.0716,1020.17
43856,-0.785122,9.79464,0.19026,0.07,-0.07,-0.56,-18.8517,-103.853,18.6556,1020.17
43862,-0.785122,9.80417,0.171253,0.21,-0.21,-0.49,-18.3875,-104.757,17.8979,1020.14
43868,-0.737725,9.78512,0.204516,0.14,-0.14,-0.42,-18.879,-103.732,18.8784,1020.14
43874,-0.794601,9.79464,0.185508,0.07,-0.07,-0.42,-18.9336,-103.732,19.1013,1020.14
43880,-0.732985,9.75178,0.223523,0,-0.07,-0.42,-18.5787,-103.822,18.5961,1020.14
43886,-0.732985,9.82798,0.242531,0.07,-0.21,-0.35,-18.6333,-104.003,17.8384,1020.18
43892,-0.742464,9.79941,0.195012,0.28,-0.14,-0.42,-18.4421,-103.581,18.5961,1020.18
43898,-0.789861,9.83274,0.218771,0.14,-0.07,-0.42,-18.1417,-103.22,18.8636,1020.15
43904,-0.709286,9.80893,0.199764,0.07,0,-0.42,-18.7152,-103.159,17.5116,1020.15
43910,-0.732985,9.73273,0.195012,0.14,0,-0.42,-18.9336,-103.551,18.195,1020.15
43916,-0.742464,9.76607,0.204516,0.28,-0.07,-0.42,-18.9609,-104.214,19.1756,1020.15
43922,-0.690327,9.78988,0.204516,0.28,-0.07,-0.49,-17.8141,-103.461,18.5961,1020.15
43928,-0.685588,9.79941,0.180756,0.21,-0.07,-0.49,-18.1964,-104.003,18.4773,1020.18
43934,-0.732985,9.78988,0.256786,-0.07,0,-0.56,-18.9063,-103.37,18.3436,1020.18
43940,-0.718766,9.84227,0.204516,0.14,-0.07,-0.49,-18.3602,-103.883,18.3287,1020.16
43946,-0.751944,9.84227,0.195012,0.07,0,-0.56,-18.7971,-104.124,18.7596,1020.16
43952,-0.761423,9.79941,0.180756,0.14,0,-0.49,-18.1691,-104.154,18.8041,1020.16
43958,-0.751944,9.85179,0.195012,0.07,-0.21,-0.42,-18.9336,-104.184,19.3093,1020.15
43964,-0.747204,9.79941,0.171253,0,-0.14,-0.42,-18.4967,-104.003,18.7447,1020.15
43970,-0.690327,9.85656,0.233027,0,-0.14,-0.42,-18.7425,-103.642,18.9824,1020.14
43976,-0.723505,9.79941,0.185508,-0.07,-0.07,-0.42,-17.9506,-104.064,18.5219,1020.14
43982,-0.751944,9.75654,0.185508,0,-0.07,-0.42,-18.2237,-103.611,20.0818,1020.18
43988,-0.770902,9.77083,0.209267,0.07,-0.07,-0.42,-18.3329,-103.611,19.4578,1020.18
43994,-0.761423,9.80417,0.180756,0,-0.14,-0.49,-18.6879,-103.069,18.507,1020.15
44000,-0.756683,9.83751,0.147493,0.14,-0.28,-0.35,-18.6879,-103.672,18.8338,1020.15
44006,-0.737725,9.80893,0.19026,0.14,-0.28,-0.42,-18.0598,-103.4,18.6259,1020.15
44012,-0.728245,9.79464,0.185508,0.14,-0.21,-0.42,-18.6333,-103.732,19.2053,1020.12
44018,-0.766163,9.82322,0.233027,0.14,-0.14,-0.49,-18.251,-103.4,19.0716,1020.12
44024,-0.714026,9.80417,0.204516,0.07,-0.14,-0.56,-18.0325,-103.732,18.3733,1020.14
44030,-0.761423,9.82322,0.195012,0.07,0,-0.56,-18.0052,-103.34,19.1161,1020.14
44036,-0.747204,9.79464,0.214019,0.07,-0.07,-0.56,-18.4694,-104.003,18.0464,1020.16
44042,-0.742464,9.79464,0.214019,0.14,0,-0.63,-18.6606,-103.099,18.819,1020.16
44048,-0.751944,9.84703,0.142741,0.14,0,-0.63,-18.3056,-103.31,18.5219,1020.15
44054,-0.742464,9.83751,0.19026,0,0,-0.56,-18.1964,-103.521,18.0316,1020.15
44060,-0.737725,9.80417,0.171253,0.07,0,-0.63,-18.4148,-104.365,18.7893,1020.15
44066,-0.714026,9.74702,0.199764,0,-0.07,-0.56,-17.7321,-103.883,18.7447,1020.13
44072,-0.770902,9.84227,0.180756,0,-0.14,-0.56,-18.9063,-104.244,19.235,1020.13
44078,-0.718766,9.78988,0.185508,0,-0.07,-0.56,-18.3329,-104.124,19.0418,1020.15
44084,-0.766163,9.79941,0.19026,0.14,-0.14,-0.56,-18.606,-104.214,17.4819,1020.15
44090,-0.751944,9.82322,0.185508,0.21,-0.14,-0.56,-17.8414,-104.757,17.9424,1020.15
44096,-0.723505,9.78512,0.137989,0.07,-0.28,-0.49,-18.4967,-103.581,18.1356,1020.15
44102,-0.737725,9.81369,0.195012,0.07,-0.21,-0.42,-18.524,-103.129,18.4179,1020.15
44108,-0.676108,9.75654,0.218771,0.07,-0.21,-0.49,-18.7152,-103.702,18.9676,1020.14
44114,-0.81356,9.76131,0.171253,0.07,-0.14,-0.49,-19.1248,-103.069,17.5265,1020.14
44120,-0.81356,9.78036,0.19026,0.14,-0.14,-0.49,-18.5513,-103.732,18.3436,1020.13
44126,-0.747204,9.85656,0.19026,0.21,-0.21,-0.49,-19.1521,-103.461,18.923,1020.13
44132,-0.747204,9.84227,0.171253,0,-0.21,-0.42,-18.9336,-103.521,19.027,1020.15
44138,-0.685588,9.79941,0.19026,0.14,-0.14,-0.49,-18.606,-103.551,18.6407,1020.15
44144,-0.80882,9.76607,0.209267,0.14,0,-0.56,-19.1521,-104.275,19.443,1020.15
44150,-0.723505,9.82322,0.209267,0.21,-0.07,-0.63,-18.7425,-103.732,17.7196,1020.15
44156,-0.761423,9.75654,0.199764,0.07,0,-0.56,-18.5513,-103.642,18.1207,1020.15
44162,-0.747204,9.84703,0.161749,-0.07,0,-0.49,-18.2783,-103.34,17.9722,1020.16
44168,-0.718766,9.83274,0.166501,-0.07,0,-0.63,-18.1691,-103.762,19.5321,1020.16
44174,-0.718766,9.82322,0.176004,0,0.07,-0.63,-18.3875,-104.064,18.9527,1020.16
44180,-0.709286,9.79464,0.185508,0.14,-0.07,-0.63,-18.9336,-104.094,19.339,1020.16
44186,-0.770902,9.78036,0.176004,0,0,-0.63,-18.0871,-105.179,18.7744,1020.12
44192,-0.785122,9.78036,0.180756,0.07,-0.07,-0.63,-18.6333,-104.606,19.5618,1020.12
44198,-0.737725,9.78988,0.209267,0,-0.21,-0.49,-17.9233,-103.581,18.8784,1020.12
44204,-0.766163,9.82322,0.161749,0,-0.28,-0.49,-18.3602,-104.335,19.2053,1020.18
44210,-0.780382,9.81369,0.176004,0.07,-0.21,-0.42,-18.3056,-103.611,19.0716,1020.18
44216,-0.742464,9.81369,0.195012,0.14,-0.07,-0.42,-18.3602,-104.064,18.9527,1020.15
44222,-0.732985,9.81846,0.180756,0.07,-0.14,-0.42,-18.3056,-103.491,18.6704,1020.15
44228,-0.690327,9.84703,0.214019,0.14,-0.14,-0.49,-18.2783,-103.883,19.2053,1020.15
44234,-0.742464,9.78036,0.185508,0.21,-0.14,-0.42,-17.7595,-103.822,18.923,1020.15
44240,-0.732985,9.77083,0.256786,0.21,-0.14,-0.49,-18.4967,-104.244,18.6259,1020.14
44246,-0.770902,9.77559,0.204516,0.14,0.07,-0.49,-18.0052,-103.913,19.2795,1020.14
44252,-0.756683,9.79464,0.171253,0.21,0,-0.49,-18.6879,-103.491,18.7744,1020.14
44258,-0.704547,9.83274,0.137989,0.14,-0.14,-0.49,-18.1144,-104.124,19.0716,1020.13
44264,-0.747204,9.80893,0.204516,0,0,-0.63,-18.3875,-103.913,18.9973,1020.13
44270,-0.714026,9.80417,0.152245,0.14,-0.07,-0.56,-17.896,-104.003,18.715,1020.12
44276,-0.780382,9.80893,0.156997,0.21,-0.21,-0.63,-18.3329,-103.702,19.1607,1020.12
44282,-0.718766,9.81369,0.204516,0.07,-0.14,-0.56,-18.9609,-103.581,18.8041,1020.13
44288,-0.761423,9.79464,0.195012,0.07,-0.07,-0.49,-18.3875,-103.431,18.1653,1020.13
44294,-0.770902,9.78988,0.19026,0.07,-0.07,-0.49,-18.5513,-103.34,18.6407,1020.13
44300,-0.789861,9.82798,0.218771,0.14,-0.14,-0.42,-18.6606,-103.31,18.0019,1020.13
44306,-0.775642,9.80417,0.180756,0,-0.14,-0.42,-18.4421,-104.003,18.8636,1020.13
44312,-0.742464,9.80893,0.19026,-0.07,-0.14,-0.42,-18.4967,-103.822,18.4476,1020.14
44318,-0.761423,9.77559,0.252034,0,-0.21,-0.42,-18.3329,-103.943,18.8338,1020.14
44324,-0.714026,9.78512,0.180756,0.07,-0.14,-0.49,-18.7425,-103.611,18.7447,1020.11
44330,-0.751944,9.82798,0.218771,0.14,-0.07,-0.49,-17.9779,-104.064,18.2842,1020.11
44336,-0.699807,9.77083,0.237779,0.14,-0.21,-0.42,-18.7971,-104.305,19.2944,1020.13
44342,-0.728245,9.80893,0.204516,0.14,-0.21,-0.42,-18.4694,-103.943,17.7642,1020.13
44348,-0.737725,9.78988,0.180756,0.07,-0.07,-0.56,-18.251,-103.581,18.8338,1020.13
44354,-0.770902,9.82798,0.161749,0.14,-0.14,-0.42,-18.606,-103.611,19.1161,1020.15
44360,-0.737725,9.79464,0.218771,0.21,-0.07,-0.49,-18.3329,-103.28,17.6156,1020.15
44366,-0.770902,9.79941,0.199764,0.21,-0.07,-0.56,-17.6775,-104.094,18.091,1020.14
44372,-0.723505,9.81369,0.185508,0.21,-0.14,-0.49,-18.0871,-103.521,18.0167,1020.14
44378,-0.818299,9.85179,0.199764,0.21,-0.07,-0.56,-18.3056,-103.702,17.155,1020.15
44384,-0.718766,9.84227,0.128486,0.14,0,-0.42,-18.4421,-104.094,18.2693,1020.15
44390,-0.81356,9.80893,0.176004,0.07,-0.14,-0.49,-17.5137,-103.973,18.1801,1020.14
44396,-0.751944,9.83751,0.218771,0.07,-0.14,-0.49,-18.1964,-104.546,18.1504,1020.14
44402,-0.818299,9.83274,0.204516,0,0,-0.56,-18.6879,-104.094,18.5516,1020.14
44408,-0.761423,9.78036,0.223523,0,0,-0.49,-18.606,-103.28,17.9573,1020.15
44414,-0.799341,9.81846,0.223523,0.21,-0.07,-0.35,-18.524,-103.883,19.1013,1020.15
44420,-0.756683,9.80893,0.195012,0.14,-0.07,-0.28,-18.4967,-103.25,17.4967,1020.15
44426,-0.780382,9.75178,0.161749,0.07,-0.07,-0.42,-18.4694,-103.551,18.6853,1020.15
44432,-0.799341,9.80893,0.195012,0,-0.07,-0.42,-18.0871,-103.642,17.2293,1020.12
44438,-0.718766,9.74226,0.233027,0.14,-0.14,-0.35,-18.4967,-103.039,18.2247,1020.12
44444,-0.80408,9.78988,0.118982,0.35,-0.07,-0.35,-17.7048,-103.642,18.7744,1020.12
44450,-0.742464,9.86608,0.133238,0.14,-0.07,-0.35,-17.7595,-103.642,19.1013,1020.13
44456,-0.775642,9.76131,0.204516,0,-0.14,-0.35,-18.5787,-103.31,18.3733,1020.13
44462,-0.732985,9.78036,0.223523,0.14,-0.14,-0.35,-18.0598,-103.672,17.6602,1020.14
44468,-0.699807,9.80893,0.133238,0.42,-0.14,-0.42,-18.6333,-104.244,18.2544,1020.14
44474,-0.671369,9.84227,0.171253,0.42,0.07,-0.42,-18.3329,-103.732,17.9722,1020.12
44480,-0.742464,9.77559,0.171253,0.28,0.07,-0.49,-18.0871,-104.094,18.3139,1020.12
44486,-0.775642,9.78036,0.176004,0.21,0,-0.49,-17.9506,-103.551,18.403,1020.15
44492,-0.770902,9.81846,0.19026,0.21,0.07,-0.49,-18.1964,-103.732,18.3436,1020.15
44498,-0.780382,9.83751,0.133238,0.07,0.14,-0.42,-18.9883,-104.033,18.2396,1020.15
44504,-0.709286,9.80893,0.161749,0.14,0,-0.42,-17.7868,-104.124,18.3139,1020.14
44510,-0.732985,9.79464,0.19026,0.14,-0.07,-0.35,-18.3602,-103.973,17.3185,1020.14
44516,-0.751944,9.81369,0.185508,0.14,0,-0.42,-18.1964,-103.25,18.4624,1020.16
44522,-0.766163,9.80893,0.185508,0.21,-0.21,-0.42,-18.1964,-104.033,18.715,1020.16
44528,-0.737725,9.81369,0.166501,0.21,-0.21,-0.42,-18.6333,-104.094,18.507,1020.09
44534,-0.785122,9.78512,0.176004,0.21,-0.21,-0.35,-18.2237,-104.094,18.3584,1020.09
44540,-0.704547,9.80893,0.180756,0.21,-0.21,-0.28,-18.3602,-103.491,17.7047,1020.12
44546,-0.728245,9.77559,0.180756,0.21,-0.21,-0.35,-18.4694,-103.37,18.2693,1020.12
44552,-0.704547,9.79464,0.223523,0.14,-0.28,-0.28,-18.2783,-103.28,18.0316,1020.12
44558,-0.718766,9.77559,0.252034,0.14,-0.35,-0.28,-18.879,-103.521,20.0075,1020.18
44564,-0.761423,9.83751,0.19026,0.21,-0.35,-0.28,-18.606,-103.792,18.6407,1020.18
44570,-0.756683,9.83274,0.214019,0.35,-0.28,-0.21,-18.879,-103.4,18.7744,1020.16
44576,-0.695067,9.74226,0.199764,0,-0.28,-0.28,-18.0052,-102.918,18.5516,1020.16
44582,-0.732985,9.76607,0.19026,0.07,-0.14,-0.42,-18.251,-103.611,18.1653,1020.11
44588,-0.728245,9.81369,0.237779,0.14,-0.07,-0.35,-17.9779,-103.34,18.3881,1020.11
44594,-0.723505,9.77559,0.214019,0.07,-0.07,-0.42,-18.4148,-103.431,18.1356,1020.11
44600,-0.747204,9.81369,0.176004,0.07,-0.14,-0.42,-18.524,-103.4,18.4327,1020.15
44606,-0.732985,9.80893,0.176004,0.07,-0.21,-0.49,-18.2783,-104.064,18.4179,1020.15
44612,-0.799341,9.83274,0.252034,0.21,-0.07,-0.42,-17.8141,-103.581,18.4624,1020.18
44618,-0.780382,9.81846,0.161749,0.14,0,-0.42,-18.5513,-103.762,17.8087,1020.18
44624,-0.756683,9.80893,0.204516,0.14,-0.21,-0.35,-18.524,-102.647,19.0418,1020.14
44630,-0.794601,9.78512,0.176004,-0.07,-0.07,-0.49,-18.4421,-103.4,17.9573,1020.14
44636,-0.761423,9.77083,0.180756,0.14,0,-0.56,-18.524,-104.275,18.6407,1020.16
44642,-0.789861,9.81846,0.180756,0.14,0,-0.49,-18.9336,-103.883,18.6704,1020.16
44648,-0.785122,9.84227,0.228275,0.21,0,-0.49,-18.7971,-103.732,19.2944,1020.16
44654,-0.761423,9.78988,0.171253,0.07,-0.14,-0.49,-18.606,-103.491,18.8041,1020.11
44660,-0.728245,9.78512,0.19026,0.14,-0.21,-0.42,-18.4421,-103.853,18.8933,1020.11
44666,-0.704547,9.81846,0.180756,0.14,-0.14,-0.49,-18.0052,-103.702,18.5813,1020.14
44672,-0.794601,9.79464,0.152245,0.21,-0.14,-0.56,-18.1964,-103.611,18.7447,1020.14
44678,-0.761423,9.78036,0.214019,0.14,-0.07,-0.49,-18.606,-104.455,19.7995,1020.18
44684,-0.737725,9.82322,0.166501,0.14,-0.07,-0.42,-18.6333,-103.491,18.7596,1020.18
44690,-0.732985,9.79941,0.185508,0.07,-0.07,-0.49,-18.251,-103.37,18.9527,1020.18
44696,-0.751944,9.79941,0.214019,0,-0.21,-0.49,-18.4967,-103.34,18.7299,1020.17
44702,-0.756683,9.78036,0.223523,0.07,0,-0.49,-18.3875,-103.762,18.1504,1020.17
44708,-0.775642,9.79941,0.218771,0.07,-0.07,-0.56,-18.4148,-103.762,17.7642,1020.17
44714,-0.718766,9.80893,0.180756,0.14,-0.07,-0.56,-18.4148,-103.943,18.611,1020.17
44720,-0.756683,9.81369,0.171253,0,0,-0.56,-18.6879,-102.858,18.0316,1020.13
44726,-0.832518,9.81369,0.19026,0,0.07,-0.56,-19.1794,-103.611,19.0418,1020.13
44732,-0.718766,9.86132,0.19026,0.07,0,-0.63,-18.1691,-103.642,17.8236,1020.11
44738,-0.756683,9.84703,0.199764,0.21,-0.07,-0.49,-18.5787,-103.159,18.507,1020.11
44744,-0.732985,9.78988,0.180756,0.07,-0.14,-0.42,-19.4525,-102.888,18.4921,1020.11
44750,-0.747204,9.81846,0.209267,0,-0.07,-0.63,-18.4148,-103.31,17.987,1020.16
44756,-0.737725,9.76607,0.209267,0.21,-0.07,-0.56,-18.3875,-103.189,19.2053,1020.16
44762,-0.756683,9.80893,0.209267,0.21,-0.07,-0.49,-18.4148,-104.154,19.4281,1020.13
44768,-0.766163,9.81846,0.223523,0.21,0,-0.42,-17.6229,-103.31,19.1756,1020.13
44774,-0.775642,9.78036,0.166501,0,-0.14,-0.42,-17.896,-103.28,18.9378,1020.15
44780,-0.756683,9.81369,0.185508,0.07,-0.21,-0.49,-18.2237,-103.883,18.9378,1020.15
44786,-0.785122,9.75178,0.256786,0.07,-0.14,-0.35,-18.3602,-103.461,18.8636,1020.14
44792,-0.742464,9.82322,0.195012,0.28,-0.14,-0.49,-18.4148,-103.25,19.0418,1020.14
44798,-0.751944,9.81369,0.147493,0.14,-0.28,-0.49,-17.9233,-103.37,19.131,1020.14
44804,-0.695067,9.82798,0.171253,0,-0.14,-0.42,-18.3056,-103.551,19.4281,1020.17
44810,-0.699807,9.75654,0.218771,0.14,-0.07,-0.49,-18.9883,-102.798,18.3733,1020.17
44816,-0.770902,9.79941,0.142741,0.28,-0.07,-0.42,-18.251,-103.28,18.5961,1020.14
44822,-0.761423,9.78036,0.152245,0.07,0,-0.49,-18.8244,-103.551,18.6704,1020.14
44828,-0.756683,9.81369,0.218771,0.21,-0.07,-0.49,-18.2237,-103.25,19.6807,1020.15
44834,-0.742464,9.82322,0.176004,0.07,-0.07,-0.49,-18.1964,-103.431,19.3687,1020.15
44840,-0.756683,9.79464,0.209267,0.14,-0.07,-0.49,-18.6606,-103.31,19.027,1020.15
44846,-0.747204,9.79941,0.176004,0.07,-0.14,-0.49,-18.524,-103.31,18.507,1020.14
44852,-0.775642,9.73749,0.156997,0,0,-0.56,-18.2237,-103.762,19.0418,1020.14
44858,-0.742464,9.78988,0.195012,0.21,0,-0.49,-18.7425,-103.822,18.3287,1020.14
44864,-0.794601,9.78988,0.233027,0.28,-0.14,-0.63,-18.0598,-104.033,18.1504,1020.14
44870,-0.714026,9.82798,0.237779,0.14,-0.07,-0.56,-18.7971,-104.154,18.5516,1020.16
44876,-0.742464,9.80417,0.228275,0,0,-0.56,-18.4694,-103.792,18.6259,1020.16
44882,-0.789861,9.80417,0.142741,0,0,-0.7,-18.524,-103.461,18.5813,1020.16
44888,-0.714026,9.80417,0.128486,0.14,-0.14,-0.7,-18.4694,-104.395,18.9527,1020.16
44894,-0.732985,9.78036,0.176004,0.07,-0.07,-0.63,-18.3329,-103.22,18.715,1020.16
44900,-0.756683,9.77559,0.195012,0.14,0,-0.56,-17.8687,-103.4,19.0716,1020.13
44906,-0.770902,9.79941,0.195012,0.07,-0.14,-0.56,-18.5787,-103.28,18.2396,1020.13
44912,-0.704547,9.83274,0.233027,0.14,-0.21,-0.49,-18.1964,-103.34,19.7252,1020.12
44918,-0.823039,9.78512,0.218771,0.07,-0.21,-0.49,-18.606,-103.34,19.131,1020.12
44924,-0.747204,9.76131,0.204516,0.07,-0.21,-0.56,-18.3875,-103.853,18.2396,1020.15
44930,-0.699807,9.83274,0.247282,0.14,-0.07,-0.49,-18.5787,-103.672,18.0316,1020.15
44936,-0.723505,9.80417,0.185508,0.14,-0.14,-0.56,-18.3329,-103.31,18.1801,1020.15
44942,-0.709286,9.78036,0.142741,0.14,-0.07,-0.49,-18.4694,-102.798,18.0762,1020.15
44948,-0.742464,9.84227,0.223523,0.14,0,-0.49,-18.9883,-103.4,18.1504,1020.15
44954,-0.789861,9.85656,0.156997,0.28,0.07,-0.56,-18.3875,-103.25,18.9676,1020.14
44960,-0.671369,9.79941,0.185508,0.21,0,-0.56,-18.3056,-103.581,18.9824,1020.14
44966,-0.671369,9.76607,0.161749,0.07,0,-0.63,-18.9063,-103.4,19.3241,1020.15
44972,-0.756683,9.81846,0.204516,-0.14,0,-0.63,-18.3329,-103.28,19.2795,1020.15
44978,-0.751944,9.78036,0.147493,0,0,-0.56,-18.3602,-103.4,18.7447,1020.15
44984,-0.794601,9.79941,0.228275,0,0,-0.63,-18.3329,-103.642,18.5813,1020.15
44990,-0.718766,9.81369,0.233027,0,0,-0.63,-19.0975,-103.672,18.8784,1020.15
44996,-0.80408,9.78036,0.176004,0.07,-0.07,-0.63,-18.3875,-104.124,18.0464,1020.15
45002,-0.742464,9.82798,0.142741,0,0,-0.63,-18.5513,-103.792,18.9527,1020.15
45008,-0.751944,9.75654,0.223523,-0.14,0,-0.63,-18.3602,-104.003,17.2442,1020.18
45014,-0.761423,9.78988,0.214019,-0.14,-0.07,-0.63,-19.0975,-104.064,18.1653,1020.18
45020,-0.718766,9.80417,0.218771,-0.07,-0.14,-0.63,-18.3875,-103.883,17.7047,1020.16
45026,-0.789861,9.87561,0.166501,0.07,-0.14,-0.56,-18.1691,-104.395,18.6704,1020.16
45032,-0.775642,9.80417,0.152245,-0.07,-0.21,-0.49,-18.606,-103.491,18.7001,1020.16
45038,-0.728245,9.82798,0.176004,-0.07,-0.21,-0.56,-18.5513,-104.214,17.7196,1020.14
45044,-0.785122,9.81846,0.218771,0,-0.21,-0.63,-18.2237,-103.973,18.5219,1020.14
45050,-0.756683,9.76607,0.199764,0.07,-0.21,-0.49,-18.3875,-104.184,18.0167,1020.16
45056,-0.785122,9.75178,0.209267,0.14,-0.14,-0.56,-18.7698,-103.792,18.4179,1020.16
45062,-0.780382,9.80417,0.185508,0.14,-0.07,-0.56,-19.2067,-103.069,18.4624,1020.12
45068,-0.789861,9.78988,0.176004,0,0,-0.56,-18.6606,-103.069,17.4076,1020.12
45074,-0.799341,9.78036,0.171253,0,-0.07,-0.7,-18.4148,-103.943,17.7642,1020.13
45080,-0.785122,9.82798,0.195012,-0.07,0.07,-0.63,-18.1417,-103.25,18.1653,1020.13
45086,-0.766163,9.76607,0.185508,0,0.07,-0.63,-18.1417,-104.244,18.7744,1020.13
45092,-0.737725,9.84703,0.156997,0.07,-0.07,-0.56,-18.5787,-103.702,17.6156,1020.15
45098,-0.747204,9.78512,0.185508,0.07,-0.07,-0.63,-17.9233,-104.365,19.3984,1020.15
45104,-0.794601,9.83274,0.176004,-0.07,0.07,-0.63,-18.1964,-103.491,18.4179,1020.14
45110,-0.742464,9.83274,0.247282,-0.07,-0.07,-0.7,-19.1794,-103.34,18.6259,1020.14
45116,-0.789861,9.77559,0.256786,-0.21,-0.07,-0.63,-18.5513,-103.31,18.9527,1020.11
45122,-0.818299,9.80893,0.204516,-0.14,0,-0.63,-19.1521,-103.37,19.2795,1020.11
45128,-0.785122,9.78988,0.256786,0.07,0,-0.7,-18.7152,-103.732,17.4967,1020.13
45134,-0.756683,9.82322,0.228275,0.07,-0.07,-0.56,-18.4694,-103.31,19.131,1020.13
45140,-0.80882,9.85656,0.199764,0.07,-0.21,-0.49,-18.7425,-103.28,19.5915,1020.13
45146,-0.789861,9.83274,0.185508,0.21,-0.21,-0.42,-18.3602,-103.069,19.2795,1020.17
45152,-0.799341,9.77083,0.214019,0.07,-0.35,-0.42,-18.4967,-103.913,19.547,1020.17
45158,-0.761423,9.78512,0.152245,0.14,-0.35,-0.35,-18.4148,-103.039,18.8933,1020.13
45164,-0.756683,9.85656,0.161749,0,-0.35,-0.42,-18.4421,-103.159,18.8784,1020.13
45170,-0.756683,9.76131,0.147493,0.14,-0.28,-0.49,-18.6606,-103.34,17.8979,1020.17
45176,-0.756683,9.78036,0.185508,0.07,-0.21,-0.49,-18.7425,-103.551,17.7196,1020.17
45182,-0.704547,9.78512,0.218771,0.21,-0.21,-0.56,-18.4694,-103.069,18.5664,1020.17
45188,-0.718766,9.80893,0.171253,0.28,-0.14,-0.56,-18.7152,-103.672,17.259,1020.16
45194,-0.785122,9.81846,0.214019,0.21,-0.07,-0.56,-18.251,-103.099,17.5265,1020.16
45200,-0.718766,9.80417,0.176004,0.14,0,-0.56,-18.3329,-103.702,17.8384,1020.15
45206,-0.751944,9.78512,0.152245,0.21,0,-0.56,-18.524,-102.466,18.3584,1020.15
45212,-0.704547,9.82798,0.209267,0.14,-0.14,-0.56,-18.4148,-103.039,18.6407,1020.14
45218,-0.756683,9.80893,0.209267,0.28,0.07,-0.7,-18.1417,-103.189,18.4624,1020.14
45224,-0.823039,9.79464,0.180756,0.28,0.07,-0.63,-18.1964,-103.642,18.299,1020.13
45230,-0.756683,9.87084,0.166501,0.21,0,-0.63,-18.3056,-102.918,17.363,1020.13
45236,-0.780382,9.78988,0.218771,0.14,-0.21,-0.56,-18.2783,-103.22,18.299,1020.13
45242,-0.728245,9.77083,0.180756,0.21,0.07,-0.56,-17.9779,-103.28,17.6602,1020.14
45248,-0.827779,9.80417,0.218771,0.28,0,-0.42,-17.7321,-104.033,17.883,1020.14
45254,-0.80882,9.81369,0.185508,0.28,-0.14,-0.49,-18.2237,-103.762,18.3139,1020.14
45260,-0.742464,9.81846,0.185508,0.28,-0.35,-0.42,-18.9063,-104.094,18.3436,1020.14
45266,-0.714026,9.79941,0.214019,0.14,-0.35,-0.49,-18.9609,-103.853,17.5562,1020.14
45272,-0.785122,9.77559,0.242531,0.07,-0.21,-0.42,-18.6606,-104.094,17.8533,1020.14
45278,-0.770902,9.80417,0.171253,0.14,-0.14,-0.42,-18.7971,-102.918,17.5116,1020.14
45284,-0.823039,9.78036,0.180756,0.14,-0.14,-0.42,-18.606,-103.672,17.7939,1020.1
45290,-0.785122,9.76131,0.180756,0.28,-0.14,-0.42,-18.4421,-104.214,18.3287,1020.1
45296,-0.789861,9.80893,0.247282,0.28,-0.14,-0.49,-19.3159,-104.365,18.2396,1020.14
45302,-0.728245,9.85656,0.214019,0.21,0,-0.49,-18.3602,-103.039,19.131,1020.14
45308,-0.728245,9.82322,0.161749,0.21,-0.07,-0.49,-18.879,-103.762,18.507,1020.19
45314,-0.823039,9.83274,0.223523,0.21,0,-0.49,-18.524,-102.828,18.6704,1020.19
45320,-0.742464,9.78036,0.233027,0.28,-0.07,-0.56,-18.7152,-103.702,18.6407,1020.12
45326,-0.799341,9.76607,0.199764,0,-0.07,-0.42,-18.1691,-102.737,17.987,1020.12
45332,-0.728245,9.78988,0.195012,0.07,0,-0.49,-18.4421,-103.853,17.8087,1020.12
45338,-0.728245,9.80417,0.142741,0.14,0,-0.49,-18.9609,-103.099,18.1356,1020.14
45344,-0.80408,9.77559,0.176004,0,0,-0.56,-17.8687,-103.762,17.675,1020.14
45350,-0.747204,9.82798,0.195012,0,0,-0.56,-17.5956,-102.978,18.5961,1020.14
45356,-0.818299,9.81846,0.252034,0.28,-0.07,-0.42,-17.896,-103.822,17.6305,1020.14
45362,-0.737725,9.79941,0.171253,0.28,-0.14,-0.49,-18.4421,-102.948,18.8338,1020.14
45368,-0.728245,9.79464,0.171253,0.07,-0.14,-0.35,-18.4967,-102.707,18.9676,1020.14
45374,-0.718766,9.78988,0.171253,0,-0.21,-0.35,-18.1691,-103.702,18.6704,1020.14
45380,-0.751944,9.78512,0.218771,0,-0.14,-0.35,-18.6333,-103.28,18.611,1020.14
45386,-0.747204,9.80417,0.195012,0.14,-0.07,-0.21,-17.9233,-103.853,18.3584,1020.14
45392,-0.761423,9.78036,0.275794,0.35,-0.07,-0.28,-19.2067,-103.37,17.675,1020.14
45398,-0.723505,9.79941,0.218771,0.28,-0.21,-0.35,-18.6333,-103.28,19.8144,1020.14
45404,-0.770902,9.83274,0.209267,0.21,-0.07,-0.28,-18.1417,-103.189,17.1253,1020.16
45410,-0.680848,9.75654,0.180756,0.21,-0.14,-0.49,-18.0598,-103.581,18.0613,1020.16
45416,-0.742464,9.82322,0.199764,0.21,0,-0.49,-18.2783,-103.672,18.4476,1020.15
45422,-0.718766,9.78512,0.152245,0.07,0.07,-0.49,-18.7152,-103.943,18.5367,1020.15
45428,-0.714026,9.79464,0.204516,0,0.14,-0.42,-18.5513,-103.159,18.4179,1020.15
45434,-0.732985,9.76607,0.223523,0.07,0.07,-0.49,-18.5787,-103.009,17.7642,1020.14
45440,-0.770902,9.79941,0.195012,0.07,0.07,-0.42,-18.606,-103.611,17.6899,1020.14
45446,-0.761423,9.83274,0.152245,0.07,0.07,-0.42,-18.3602,-103.28,17.6899,1020.11
45452,-0.770902,9.80893,0.228275,0.07,0.07,-0.56,-18.6333,-103.672,17.7493,1020.11
45458,-0.747204,9.76607,0.223523,0.07,0,-0.7,-18.4694,-103.159,19.1458,1020.12
45464,-0.756683,9.79464,0.237779,0,0.14,-0.7,-18.5787,-104.154,17.8087,1020.12
45470,-0.80882,9.83751,0.171253,0.21,0.14,-0.56,-18.5787,-103.34,18.3733,1020.15
45476,-0.761423,9.80417,0.185508,0.21,0.07,-0.56,-18.7152,-103.431,18.3139,1020.15
45482,-0.799341,9.78988,0.171253,0.21,0,-0.56,-18.9883,-103.853,19.1607,1020.15
45488,-0.732985,9.79941,0.185508,0.07,-0.07,-0.42,-19.0429,-103.822,17.987,1020.13
45494,-0.761423,9.78512,0.199764,-0.07,0.07,-0.42,-19.0702,-103.642,18.2396,1020.13
45500,-0.856217,9.79941,0.228275,0.21,-0.07,-0.35,-18.9336,-103.25,18.4476,1020.14
45506,-0.799341,9.82322,0.137989,0.14,-0.21,-0.35,-18.1691,-103.491,18.9824,1020.14
45512,-0.775642,9.80417,0.185508,0.14,-0.07,-0.42,-18.7425,-104.244,18.0316,1020.13
45518,-0.732985,9.79464,0.185508,0.14,0.07,-0.42,-17.896,-103.431,18.5664,1020.13
45524,-0.785122,9.81369,0.152245,0.14,0.07,-0.42,-18.3329,-103.611,17.7345,1020.13
45530,-0.751944,9.76131,0.233027,0.14,0.07,-0.49,-17.896,-103.551,18.5813,1020.14
45536,-0.761423,9.78988,0.185508,0.07,-0.07,-0.56,-17.7048,-104.184,18.0167,1020.14
45542,-0.785122,9.81369,0.156997,0.28,0,-0.56,-18.7425,-104.817,19.339,1020.17
45548,-0.780382,9.78988,0.209267,0.14,-0.07,-0.63,-18.3329,-103.642,18.2842,1020.17
45554,-0.818299,9.75178,0.199764,0,0.07,-0.63,-18.0052,-103.159,17.9573,1020.16
45560,-0.785122,9.80417,0.228275,0,0.14,-0.56,-18.2783,-103.22,17.883,1020.16
45566,-0.794601,9.81369,0.133238,0,0.07,-0.7,-18.0598,-102.798,17.5859,1020.16
45572,-0.761423,9.76131,0.180756,0.07,0,-0.63,-17.9779,-103.792,18.4476,1020.16
45578,-0.841998,9.83751,0.171253,0.14,-0.07,-0.63,-18.606,-102.707,18.2247,1020.16
45584,-0.751944,9.77083,0.185508,0,-0.14,-0.63,-18.606,-103.069,18.9824,1020.14
45590,-0.780382,9.83751,0.204516,0,-0.07,-0.56,-18.0325,-102.948,19.1904,1020.14
45596,-0.80408,9.76607,0.195012,0,-0.21,-0.63,-18.7425,-103.159,17.0213,1020.17
45602,-0.718766,9.78988,0.237779,-0.14,-0.14,-0.63,-19.589,-103.34,18.2842,1020.17
45608,-0.718766,9.78512,0.185508,-0.07,-0.14,-0.49,-18.7971,-103.28,18.9081,1020.17
45614,-0.785122,9.80417,0.209267,0.21,-0.21,-0.49,-19.1794,-102.587,19.027,1020.17
45620,-0.723505,9.80417,0.195012,0,-0.35,-0.42,-18.8517,-103.129,18.5961,1020.15
45626,-0.728245,9.77559,0.204516,0,-0.35,-0.35,-18.9883,-103.4,17.3185,1020.15
45632,-0.81356,9.78988,0.214019,-0.07,-0.21,-0.42,-18.5513,-103.702,18.7299,1020.15
45638,-0.770902,9.78512,0.223523,0.07,-0.14,-0.42,-18.251,-103.129,18.9378,1020.14
45644,-0.737725,9.81846,0.152245,0.14,-0.28,-0.35,-18.1691,-103.37,18.2247,1020.14
45650,-0.751944,9.83274,0.199764,0.07,-0.14,-0.42,-18.1964,-103.672,20.0075,1020.14
45656,-0.747204,9.78036,0.233027,0,0,-0.49,-18.4694,-103.189,18.1653,1020.14
45662,-0.737725,9.78988,0.166501,0.14,0,-0.42,-18.6333,-103.069,18.7596,1020.12
45668,-0.766163,9.77559,0.218771,0.14,-0.07,-0.42,-18.3875,-103.521,18.5813,1020.12
45674,-0.761423,9.77559,0.199764,0.14,-0.07,-0.49,-17.7321,-103.069,17.8236,1020.12
45680,-0.699807,9.82798,0.214019,0.07,-0.14,-0.56,-18.5513,-103.521,18.195,1020.16
45686,-0.80882,9.76131,0.209267,0.14,-0.14,-0.63,-18.5513,-102.978,18.923,1020.16
45692,-0.695067,9.82798,0.161749,0,-0.07,-0.63,-18.9336,-103.491,18.091,1020.14
45698,-0.761423,9.82322,0.218771,0,0,-0.7,-18.4148,-103.25,20.0669,1020.14
45704,-0.723505,9.78036,0.195012,0,0,-0.7,-18.0871,-103.853,17.7047,1020.14
45710,-0.699807,9.82322,0.180756,0.21,-0.07,-0.77,-18.5787,-103.34,19.6807,1020.14
45716,-0.841998,9.75654,0.180756,0.07,0.07,-0.7,-18.7971,-103.762,17.883,1020.13
45722,-0.766163,9.81369,0.195012,-0.14,0.14,-0.63,-18.6606,-103.551,18.2396,1020.13
45728,-0.737725,9.81846,0.204516,-0.14,0.07,-0.7,-18.879,-102.767,17.883,1020.13
45734,-0.827779,9.83274,0.209267,-0.07,0,-0.63,-18.0871,-103.581,17.467,1020.12
45740,-0.751944,9.77083,0.218771,0,0,-0.63,-18.1144,-103.461,18.3733,1020.12
45746,-0.775642,9.80417,0.214019,0.07,0.07,-0.56,-18.0598,-102.737,18.8041,1020.17
45752,-0.737725,9.75654,0.237779,0.07,-0.35,-0.63,-18.1964,-103.611,18.1207,1020.17
45758,-0.756683,9.78988,0.214019,-0.14,-0.07,-0.63,-18.6879,-104.395,19.2498,1020.16
45764,-0.747204,9.82798,0.233027,-0.07,0,-0.56,-18.2783,-103.129,19.0567,1020.16
45770,-0.794601,9.77559,0.171253,0.07,-0.07,-0.49,-18.7698,-103.702,17.7939,1020.16
45776,-0.704547,9.79941,0.185508,0.07,-0.14,-0.42,-18.0598,-103.039,17.5265,1020.17
45782,-0.695067,9.78988,0.195012,0,-0.21,-0.49,-18.4967,-104.003,18.9527,1020.17
45788,-0.742464,9.82322,0.176004,0.07,-0.14,-0.49,-18.6879,-103.611,18.2099,1020.13
45794,-0.718766,9.79941,0.137989,0,-0.07,-0.63,-18.8517,-103.551,18.4921,1020.13
45800,-0.80882,9.81369,0.147493,0.07,-0.07,-0.56,-18.9063,-103.822,18.5813,1020.14
45806,-0.751944,9.82322,0.176004,0.14,-0.14,-0.7,-19.3159,-103.702,17.7047,1020.14
45812,-0.699807,9.80417,0.180756,0.07,-0.14,-0.7,-18.3056,-103.491,19.027,1020.15
45818,-0.766163,9.78988,0.237779,-0.07,-0.14,-0.77,-18.251,-102.978,18.403,1020.15
45824,-0.747204,9.81846,0.214019,-0.14,0,-0.84,-18.251,-103.34,18.7001,1020.15
45830,-0.775642,9.82798,0.171253,-0.14,0,-0.84,-18.3056,-103.4,18.091,1020.16
45836,-0.728245,9.79941,0.214019,-0.14,-0.07,-0.91,-18.3602,-103.37,19.2498,1020.16
45842,-0.823039,9.85656,0.133238,-0.14,0.07,-1.26,-19.0975,-103.943,18.4327,1020.14
45848,-0.770902,9.70415,0.261538,-0.14,0.42,-0.91,-18.5787,-103.883,18.7299,1020.14
45854,-0.756683,9.86608,0.118982,0.21,0,-0.91,-18.6333,-103.581,18.507,1020.14
45860,-0.732985,9.76607,0.228275,-0.21,-0.07,-0.7,-18.3602,-102.556,19.6658,1020.14
45866,-0.908354,9.92323,0.123734,0.21,0.07,-0.98,-18.3056,-103.099,18.7001,1020.14
45872,-0.894135,9.88513,0.0667114,0.28,0.14,-0.63,-18.9063,-102.617,19.2944,1020.14
45878,-0.917833,9.85656,0.123734,0,0,-0.42,-18.7698,-103.521,18.3139,1020.14
45884,-0.823039,9.81369,0.275794,-0.63,-0.49,-0.28,-18.1691,-103.732,19.2053,1020.11
45890,-0.704547,9.73749,0.185508,0.28,0,-0.42,-18.4967,-103.189,19.4578,1020.11
45896,-0.865696,9.84703,0.137989,0.63,0.07,-0.35,-18.1691,-103.039,18.9676,1020.12
45902,-0.761423,9.82798,0.109478,0.07,-0.49,-0.35,-18.6606,-103.25,19.1607,1020.12
45908,-0.728245,9.77559,0.247282,-0.14,-0.28,-0.42,-18.524,-103.551,19.3687,1020.12
45914,-0.723505,9.79464,0.408846,0.14,-0.21,-0.49,-18.1964,-103.853,18.1504,1020.12
45920,-0.638191,9.7232,-0.028326,0.7,-0.07,-0.56,-18.251,-103.28,18.4327,1020.12
45926,-0.865696,10.028,0.0334483,1.12,0.91,-0.35,-19.3705,-103.611,19.0864,1020.15
45932,-0.993668,9.95181,0.195012,-0.21,-0.07,-0.42,-18.4967,-103.159,19.339,1020.15
45938,-0.623972,9.67082,0.294801,-0.98,-1.33,-0.56,-18.6333,-103.853,18.507,1020.16
45944,-0.80408,9.82322,0.0999745,1.05,0.56,-0.49,-18.0871,-102.737,19.8738,1020.16
45950,-0.875176,9.97086,0.0999745,0.49,0.14,-0.49,-18.4421,-103.28,19.3687,1020.13
45956,-0.64767,9.73749,0.309057,-1.05,-1.26,-0.7,-18.7152,-103.099,19.027,1020.13
45962,-0.581314,9.56604,0.161749,-0.35,-0.7,-0.63,-18.0871,-102.707,19.131,1020.15
45968,-0.894135,9.89942,0.214019,0.42,-0.49,-0.49,-18.879,-103.34,18.6556,1020.15
45974,-0.609753,9.70892,0.123734,-0.21,-0.84,-0.56,-18.7698,-103.28,19.339,1020.15
45980,-0.818299,9.83751,0.309057,0.21,0.28,-0.49,-18.1144,-103.611,18.1653,1020.14
45986,-0.875176,9.80893,0.290049,0.35,-0.21,-0.42,-18.4967,-103.039,18.1801,1020.14
45992,-0.666629,9.83274,0.233027,0,-0.21,-0.35,-19.0156,-103.431,17.779,1020.12
45998,-0.860957,9.76607,0.252034,0.14,-0.28,-0.28,-18.5787,-103.159,18.4624,1020.12
46004,-0.756683,9.77083,0.161749,0.49,-0.49,-0.35,-18.7698,-103.099,18.3733,1020.16
46010,-0.799341,9.80417,0.185508,0.42,-0.35,-0.42,-18.4148,-103.762,18.923,1020.16
46016,-0.775642,9.78988,0.233027,0.07,-0.28,-0.42,-18.5787,-103.762,18.0762,1020.16
46022,-0.780382,9.78512,0.185508,0.35,-0.21,-0.35,-18.4148,-103.129,19.5618,1020.12
46028,-0.699807,9.85179,0.185508,0.63,-0.21,-0.28,-18.1417,-103.461,19.0418,1020.12
46034,-0.718766,9.83274,0.166501,0.56,-0.14,-0.28,-18.5513,-103.551,19.2795,1020.15
46040,-0.799341,9.79464,0.204516,0.49,-0.21,-0.35,-18.4967,-103.521,18.8784,1020.15
46046,-0.799341,9.82322,0.199764,0.28,-0.42,-0.35,-18.4694,-103.099,18.4773,1020.13
46052,-0.766163,9.82798,0.247282,0.21,-0.35,-0.42,-17.8687,-103.581,18.3733,1020.13
46058,-0.732985,9.78036,0.252034,0.28,-0.28,-0.49,-18.4694,-103.702,19.027,1020.14
46064,-0.704547,9.75654,0.233027,0.56,-0.07,-0.49,-18.9063,-104.124,18.0464,1020.14
46070,-0.761423,9.75178,0.185508,0.56,0.07,-0.42,-18.9063,-104.124,18.0464,1020.14
46076,-0.794601,9.79941,0.242531,0.56,0.35,-0.63,-19.0156,-103.25,18.9081,1020.15
46082,-0.718766,9.74226,0.237779,0.49,0.28,-0.77,-19.3705,-103.129,18.715,1020.15
46088,-0.742464,9.78988,0.171253,0.63,0.21,-0.84,-18.9063,-103.159,18.5219,1020.14
46094,-0.81356,9.74702,0.133238,0.7,0.63,-0.91,-18.3056,-103.461,18.3733,1020.14
46100,-0.80882,9.71368,0.332816,0.07,0.07,-0.98,-18.606,-102.737,18.4476,1020.14
46106,-0.64767,9.66605,0.0762151,0.35,0.07,-1.05,-18.1417,-103.159,18.7744,1020.14
46112,-0.799341,9.88037,0.118982,1.05,1.05,-0.91,-18.0052,-102.948,19.131,1020.16
46118,-0.898874,9.89466,0.280546,0.14,0.49,-0.84,-18.7971,-103.521,19.2795,1020.16
46124,-0.633451,9.75178,0.123734,-0.49,-0.77,-1.05,-18.3056,-103.22,19.8292,1020.16
46130,-1.01737,9.88037,0.366079,0.7,1.26,-0.84,-18.2783,-103.973,18.0316,1020.15
46136,-0.761423,9.76131,0.252034,0.14,-0.21,-0.91,-18.4694,-103.039,18.5813,1020.15
46142,-0.65715,9.78036,0.0714632,0.7,0.21,-0.77,-18.5787,-103.129,19.1904,1020.14
46148,-1.00315,9.88037,0.361327,0.84,1.12,-0.49,-18.7698,-103.099,18.3584,1020.14
46154,-0.628711,9.81846,0.0667114,0.56,0.21,-0.7,-18.5513,-103.762,18.4476,1020.18
46160,-0.827779,9.75178,0.47062,0.49,0.91,-0.49,-18.5787,-103.22,19.443,1020.18
46166,-0.737725,9.69939,0.223523,0.63,0.21,-0.7,-18.8517,-103.611,19.0864,1020.18
46172,-0.728245,9.85179,0.0904707,1.33,0.77,-0.63,-18.6333,-104.124,18.5516,1020.13
46178,-0.870436,9.85656,0.214019,1.05,1.33,-0.49,-18.524,-103.551,18.7893,1020.13
46184,-0.609753,9.65177,0.0857189,0.28,0.14,-0.91,-18.4694,-102.888,19.6955,1020.12
46190,-0.728245,9.77559,0.123734,1.19,1.47,-0.84,-18.0871,-103.611,18.9527,1020.12
46196,-0.870436,9.83751,0.214019,0.98,1.4,-0.91,-19.0156,-103.189,19.0716,1020.14
46202,-0.723505,9.75178,0.118982,0.21,0.42,-1.12,-18.5787,-103.461,18.0316,1020.14
46208,-0.766163,9.76607,0.385087,0.28,1.47,-1.19,-18.3602,-103.883,19.2944,1020.13
46214,-0.728245,9.75654,0.0382002,0.84,1.33,-1.4,-19.0429,-104.425,18.5961,1020.13
46220,-0.789861,9.86608,0.0477039,0.77,1.82,-1.4,-18.3056,-104.033,19.8292,1020.13
46226,-0.841998,9.86608,0.209267,-0.07,1.61,-1.47,-17.7868,-102.948,18.3881,1020.14
46232,-0.728245,9.73749,0.209267,-0.42,1.05,-1.61,-18.3875,-103.22,20.2898,1020.14
46238,-0.879915,9.80417,0.218771,0.28,1.82,-1.54,-17.3225,-102.798,19.3984,1020.11
46244,-0.818299,9.87561,0.180756,-0.21,1.4,-1.54,-17.8414,-103.732,19.2647,1020.11
46250,-0.737725,9.75654,0.156997,-0.56,1.26,-1.61,-18.1417,-103.702,19.3984,1020.14
46256,-0.737725,9.77559,0.271042,-0.56,1.47,-1.54,-17.7595,-103.581,19.3093,1020.14
46262,-0.756683,9.83751,0.209267,0.14,1.75,-1.54,-18.5787,-103.853,18.2842,1020.14
46268,-0.841998,9.83751,0.152245,-0.07,1.75,-1.54,-18.3875,-103.642,19.1013,1020.13
46274,-0.823039,9.82322,0.147493,-0.28,1.68,-1.4,-18.6333,-103.009,18.7893,1020.13
46280,-0.884655,9.78036,0.185508,-0.07,2.1,-1.12,-18.4421,-103.22,18.715,1020.12
46286,-0.951011,9.87084,0.176004,0.21,1.89,-0.91,-18.0598,-103.31,18.8933,1020.12
46292,-0.751944,9.70892,0.185508,-0.7,0.91,-0.84,-18.0052,-103.762,20.0372,1020.15
46298,-0.728245,9.73749,0.280546,-0.28,1.4,-0.77,-18.3056,-103.099,18.2842,1020.15
46304,-0.832518,9.74702,0.252034,-0.14,1.75,-0.84,-17.3499,-104.275,19.8144,1020.14
46310,-0.799341,9.78036,0.147493,-0.07,1.47,-0.91,-18.1417,-103.642,19.6064,1020.14
46316,-0.747204,9.83274,0.156997,-0.28,1.4,-0.84,-18.3602,-103.159,20.1264,1020.14
46322,-0.751944,9.74702,0.171253,-0.63,1.26,-1.05,-17.7321,-103.431,20.0669,1020.15
46328,-0.770902,9.71368,0.209267,-0.84,1.19,-1.12,-18.1964,-104.094,20.0075,1020.15
46334,-0.799341,9.70415,0.242531,-0.77,1.26,-1.26,-17.9506,-103.189,19.755,1020.12
46340,-0.732985,9.74702,0.214019,-0.56,1.26,-1.4,-18.1964,-103.973,18.9378,1020.12
46346,-0.799341,9.77559,0.218771,-0.91,1.26,-1.47,-18.7425,-103.25,19.1756,1020.12
46352,-0.761423,9.69939,0.26629,-0.77,1.4,-1.47,-19.0156,-104.094,18.5367,1020.12
46358,-0.732985,9.75178,0.218771,-0.49,1.4,-1.54,-18.4694,-103.762,19.1756,1020.14
46364,-0.723505,9.78036,0.199764,-0.63,1.47,-1.61,-18.3329,-103.611,18.819,1020.14
46370,-0.770902,9.73273,0.280546,-0.7,1.82,-1.75,-18.9883,-103.37,20.6018,1020.14
46376,-0.851477,9.77559,0.242531,-0.7,1.82,-1.75,-18.4148,-104.455,19.3241,1020.15
46382,-0.818299,9.78988,0.228275,-0.42,1.68,-1.61,-18.251,-102.978,18.2247,1020.15
46388,-0.96997,9.78036,0.218771,-0.28,1.61,-1.26,-18.6879,-102.918,18.3436,1020.12
46394,-0.96997,9.75654,0.152245,0.14,1.33,-0.42,-18.3056,-104.154,18.9676,1020.12
46400,-0.927312,9.81846,0.156997,0.21,1.05,-0.21,-18.7425,-103.099,20.3641,1020.15
46406,-0.832518,9.76131,0.237779,0,0.7,0,-18.6333,-102.587,19.3687,1020.15
46412,-0.775642,9.73273,0.313809,-0.07,0.84,0.21,-18.2783,-102.978,19.2201,1020.15
46418,-0.747204,9.68034,0.290049,0.35,1.4,0.28,-17.6775,-103.159,18.7596,1020.12
46424,-0.789861,9.68511,0.271042,0.98,1.61,0.35,-18.5513,-103.853,18.1207,1020.12
46430,-0.766163,9.70415,0.304305,1.19,1.61,0.21,-17.5683,-103.099,17.467,1020.14
46436,-0.766163,9.69463,0.271042,1.26,1.75,0.21,-18.0325,-103.37,19.2201,1020.14
46442,-0.81356,9.79464,0.26629,1.4,1.61,0,-16.8583,-103.099,18.9081,1020.14
46448,-0.789861,9.80893,0.123734,1.75,1.19,-0.07,-17.8687,-103.159,18.7299,1020.14
46454,-0.898874,9.79941,0.228275,1.82,1.19,-0.07,-17.7595,-103.581,19.235,1020.13
46460,-0.875176,9.79464,0.156997,2.1,1.05,0.07,-17.9779,-103.943,18.8636,1020.13
46466,-0.898874,9.84227,0.080967,1.96,0.91,-0.07,-18.3875,-102.737,18.9378,1020.13
46472,-0.846738,9.84703,0.0999745,1.89,0.7,-0.07,-18.251,-102.828,18.5367,1020.14
46478,-0.823039,9.84703,0.0904707,1.68,0.77,0.14,-18.3056,-103.491,18.8784,1020.14
46484,-0.80882,9.94705,0.0904707,1.82,0.77,0.21,-18.3602,-103.943,18.7299,1020.14
46490,-0.870436,9.81369,0.080967,1.82,0.7,0.21,-18.4694,-103.521,18.5664,1020.14
46496,-0.823039,9.87084,0.0952226,1.61,0.49,0.28,-18.7698,-103.4,19.5173,1020.14
46502,-0.889395,9.83274,0.147493,1.33,0.56,0.35,-18.3875,-103.551,19.8144,1020.14
46508,-0.974709,9.81369,0.133238,1.47,0.63,0.49,-18.4148,-103.551,19.2944,1020.14
46514,-0.898874,9.93752,0.0239446,1.54,0.63,0.91,-18.524,-103.732,19.131,1020.14
46520,-0.955751,9.97086,0.0191927,1.26,0.7,1.33,-18.1691,-104.697,19.5173,1020.14
46526,-0.860957,9.93276,0.080967,0.7,0.49,1.47,-18.5513,-104.425,17.9424,1020.17
46532,-0.747204,9.80893,0.133238,0.28,0.63,1.75,-18.3056,-104.184,18.4624,1020.17
46538,-0.837258,9.84703,0.142741,0.56,0.98,1.68,-18.0598,-104.003,18.2693,1020.11
46544,-0.832518,9.8899,0.128486,0.56,0.63,1.61,-18.2783,-103.611,18.7744,1020.11
46550,-0.761423,9.92323,0.0239446,0.35,0.42,1.68,-18.4148,-103.883,18.1504,1020.15
46556,-0.789861,9.87084,0.0999745,-0.14,0.07,1.33,-18.4694,-103.702,18.9973,1020.15
46562,-0.766163,9.80417,0.171253,-0.21,0.07,1.19,-18.3602,-103.883,18.8338,1020.15
46568,-0.723505,9.7232,0.271042,-0.49,0.07,1.05,-18.3875,-103.973,18.5516,1020.16
46574,-0.751944,9.81846,0.228275,0,0,0.91,-18.1964,-103.642,20.2155,1020.16
46580,-0.761423,9.82322,0.280546,0.42,0.21,0.91,-18.0052,-103.31,19.2498,1020.16
46586,-0.761423,9.89466,0.142741,0.42,0.49,0.77,-18.1417,-103.28,19.3093,1020.16
46592,-0.723505,9.85656,0.0286964,0.63,0.56,0.7,-18.3602,-103.159,18.4476,1020.15
46598,-0.766163,9.91371,0.042952,0.49,0.77,0.77,-17.3225,-103.491,19.7698,1020.15
46604,-0.832518,9.88513,0.0286964,0.14,0.7,0.7,-18.4148,-103.822,20.2304,1020.16
46610,-0.723505,9.71844,0.123734,-0.28,0.63,0.63,-18.9336,-102.556,19.6955,1020.16
46616,-0.728245,9.81369,0.0857189,0.14,0.84,0.7,-18.6879,-103.189,19.443,1020.16
46622,-0.751944,9.82322,0.0477039,0.07,0.84,0.63,-18.5787,-103.521,18.507,1020.15
46628,-0.761423,9.84703,0.0999745,-0.14,0.77,0.7,-18.251,-103.159,19.0121,1020.15
46634,-0.794601,9.80417,0.152245,-0.49,0.7,0.56,-17.8414,-103.792,18.6556,1020.13
46640,-0.718766,9.75654,0.209267,-0.56,0.7,0.49,-17.6229,-103.792,17.571,1020.13
46646,-0.704547,9.78988,0.242531,-0.42,0.98,0.42,-18.0871,-103.792,19.3241,1020.13
46652,-0.728245,9.76607,0.280546,0,1.33,0.49,-17.7868,-103.943,18.8041,1020.13
46658,-0.770902,9.80893,0.271042,0.35,1.61,0.63,-17.6775,-103.973,18.0019,1020.13
46664,-0.751944,9.73273,0.166501,0.28,1.89,0.7,-18.1691,-103.642,19.131,1020.15
46670,-0.766163,9.80893,0.19026,0.14,1.96,0.63,-18.3056,-103.762,18.8784,1020.15
46676,-0.751944,9.84703,0.142741,0.28,1.75,0.7,-18.1964,-103.822,19.4727,1020.16
46682,-0.775642,9.83751,0.156997,0,1.61,0.63,-18.524,-103.672,18.9378,1020.16
46688,-0.699807,9.77083,0.142741,-0.07,1.68,0.42,-18.7698,-103.672,18.3733,1020.14
46694,-0.827779,9.82322,0.0477039,0,1.61,0.42,-18.9883,-103.521,18.3436,1020.14
46700,-0.789861,9.90418,0.0144408,-0.21,1.4,0.35,-18.1691,-103.34,18.9973,1020.13
46706,-0.785122,9.80893,0.0144408,-0.49,1.19,0.21,-18.8517,-103.491,18.611,1020.13
46712,-0.780382,9.90895,0.0667114,-0.91,1.05,0.28,-18.7152,-103.943,19.3835,1020.13
46718,-0.865696,9.92323,0.0857189,-0.56,1.19,0.77,-17.8141,-103.913,18.0019,1020.12
46724,-0.747204,9.90418,-0.0473335,-0.84,0.84,0.77,-18.0871,-103.189,17.675,1020.12
46730,-0.742464,9.94228,-0.0188223,-1.26,1.05,0.84,-18.3056,-103.913,18.9378,1020.13
46736,-0.80408,9.8899,0.223523,-1.61,1.12,0.98,-18.7971,-102.918,19.4133,1020.13
46742,-0.709286,9.80417,0.19026,-0.91,0.98,0.91,-19.1794,-103.822,19.8144,1020.13
46748,-0.780382,9.82322,0.147493,-0.84,1.4,1.05,-19.234,-103.099,19.5321,1020.13
46754,-0.794601,9.86132,0.0952226,-1.05,1.26,0.98,-18.6333,-103.22,18.7299,1020.13
46760,-0.737725,9.83751,0.123734,-1.33,1.12,0.91,-18.2783,-104.033,19.027,1020.15
46766,-0.718766,9.74226,0.19026,-1.47,1.33,0.98,-17.896,-103.129,18.9973,1020.15
46772,-0.756683,9.78036,0.256786,-1.33,1.33,0.77,-18.5513,-103.4,18.3287,1020.14
46778,-0.81356,9.78988,0.256786,-1.05,1.33,0.77,-18.7971,-103.792,18.8636,1020.14
46784,-0.80408,9.84227,0.137989,-0.63,1.26,0.91,-18.3056,-103.853,18.3139,1020.15
46790,-0.818299,9.84703,0.142741,-0.84,1.12,1.05,-18.3056,-103.34,19.755,1020.15
46796,-0.789861,9.86608,0.19026,-1.12,0.91,1.05,-18.7425,-103.943,18.2099,1020.14
46802,-0.794601,9.84227,0.252034,-1.19,0.49,1.19,-18.524,-104.305,18.6556,1020.14
46808,-0.827779,9.79464,0.242531,-0.91,0.42,1.54,-19.2067,-104.003,18.5664,1020.14
46814,-0.889395,9.83274,0.195012,-0.14,0.63,1.89,-19.234,-104.395,18.7744,1020.13
46820,-0.879915,9.84703,0.109478,0.21,0.28,2.24,-18.9336,-104.124,18.1801,1020.13
46826,-0.865696,9.89942,0.161749,-0.35,0,2.8,-18.4148,-103.762,18.923,1020.15
46832,-1.00789,9.88513,0.285297,-0.42,-0.35,3.36,-19.0156,-104.275,18.9973,1020.15
46838,-0.903614,9.81846,0.19026,0.35,-0.7,3.85,-18.5513,-104.003,19.5915,1020.16
46844,-0.96049,10.0518,0.00493708,1.54,-0.7,4.55,-19.234,-103.551,18.2842,1020.16
46850,-0.927312,10.0328,0.133238,0.28,-1.96,5.32,-18.9609,-103.973,18.5813,1020.16
46856,-0.917833,9.83274,0.256786,-0.28,-2.94,5.6,-18.7971,-103.431,19.0567,1020.16
46862,-0.818299,9.88513,0.195012,0.07,-3.64,5.88,-19.3705,-104.003,19.131,1020.16
46868,-0.80882,9.90895,0.147493,0.49,-3.99,6.16,-19.2613,-103.762,18.3733,1020.14
46874,-0.846738,9.90895,0.156997,0.63,-4.69,6.58,-19.6436,-103.22,18.5367,1020.14
46880,-0.946271,9.98991,0.0382002,-0.42,-7.07,7.07,-19.7255,-103.461,18.5664,1020.13
46886,-0.903614,9.91371,0.176004,-1.05,-7.91,7.63,-19.2067,-102.948,18.5367,1020.13
46892,-0.927312,9.97086,0.137989,-0.98,-8.68,8.33,-19.1794,-103.883,18.2247,1020.14
46898,-1.01263,9.95657,0.0334483,-0.7,-9.59,9.1,-19.4252,-103.521,18.7001,1020.14
46904,-1.11216,10.1899,-0.00456666,-0.91,-12.81,10.92,-20.0805,-103.853,18.9378,1020.14
46910,-0.946271,10.128,-0.0188223,-2.45,-15.12,11.76,-19.0429,-103.702,19.5024,1020.16
46916,-0.81356,9.99467,0.180756,-3.99,-16.87,12.53,-19.3159,-103.491,19.5767,1020.16
46922,-0.875176,9.86132,0.171253,-4.55,-18.48,13.09,-20.0259,-102.798,17.8087,1020.13
46928,-0.780382,10.0328,0.256786,-5.11,-19.74,13.72,-19.944,-102.737,18.8784,1020.13
46934,-0.680848,10.1233,0.218771,-6.02,-21.84,14.28,-20.4355,-103.099,18.7744,1020.14
46940,-0.846738,10.2233,-0.398972,-7.49,-24.36,14.21,-20.3536,-102.707,18.6556,1020.14
46946,-0.756683,10.871,-0.489257,-10.22,-27.51,13.58,-20.5447,-103.069,19.1904,1020.16
46952,0.390324,11.7949,-2.15716,-11.27,-25.9,13.86,-21.0089,-103.099,18.0019,1020.16
46958,-0.846738,13.3523,-1.21629,-30.31,-4.48,16.94,-20.5174,-102.677,16.9025,1020.16
46964,-0.0409889,11.5377,-1.50141,-43.19,-1.75,18.34,-20.1078,-103.521,16.6648,1020.15
46970,0.0632844,10.9948,-1.46814,-50.89,3.5,18.41,-20.6267,-102.707,18.3139,1020.15
46976,-0.567095,12.1045,-0.18989,-52.57,11.13,18.97,-21.0363,-103.129,17.5116,1020.12
46982,-2.22599,12.976,-0.360957,-57.05,18.76,22.26,-21.7189,-103.039,17.0065,1020.12
46988,-6.01775,11.1948,8.02134,-16.73,5.95,51.8,-21.992,-102.406,16.0854,1020.15
46994,-2.24021,11.8997,1.09787,3.5,-11.83,59.36,-21.6097,-102.345,17.0065,1020.15
47000,1.0681,11.3044,-2.46603,-4.13,-21.98,61.04,-22.0739,-101.713,17.0213,1020.15
47006,1.47097,11.5187,-1.91957,-7.28,-7.56,62.79,-22.3197,-101.592,15.9814,1020.16
47012,-3.18341,10.8186,3.35976,-3.22,11.97,70,-23.7123,-101.351,15.9219,1020.16
47018,-2.31604,10.8091,2.38087,2.31,0,73.08,-23.9854,-101.441,15.4614,1020.15
47024,-0.642931,11.3568,1.19766,10.99,-4.83,76.51,-24.2857,-101.803,16.2636,1020.15
47030,-0.543397,11.7568,0.798499,14.28,1.4,80.29,-24.9411,-101.26,16.1151,1020.13
47036,-1.11216,11.2758,0.822259,14.91,9.38,86.45,-25.8149,-100.838,15.5357,1020.13
47042,-1.69988,12.5998,1.17865,21.7,8.68,88.97,-26.6068,-100.597,16.6202,1020.15
47048,-1.4629,13.4475,0.484876,23.59,7.35,93.1,-26.443,-100.416,16.7539,1020.15
47054,-1.1406,14.3143,0.00018521,23.66,9.31,99.05,-26.7707,-99.5423,15.7734,1020.15
47060,-1.42024,14.3334,-1.27807,23.24,14.14,104.37,-27.8083,-99.1505,16.7836,1020.13
47066,-1.59087,13.0665,-0.237408,14.77,20.09,117.74,-28.4637,-98.9395,17.0362,1020.13
47072,-1.11216,12.5141,-0.31819,14.63,18.69,123.27,-28.7914,-98.5175,15.5357,1020.15
47078,-0.676108,12.9237,-0.783873,17.01,21.63,128.1,-29.7471,-98.8189,16.1745,1020.15
47084,-0.96523,13.257,-0.864655,19.18,26.95,133.7,-31.1397,-97.2817,17.0065,1020.12
47090,-1.53873,13.7904,-1.83404,18.06,34.02,145.46,-31.522,-96.8597,16.7836,1020.12
47096,-1.20695,14.1667,-1.6202,15.82,34.3,153.3,-32.5597,-96.4378,16.5608,1020.1
47102,-0.998408,14.8239,-1.89581,11.9,35.63,158.83,-33.0785,-95.9555,16.6054,1020.1
47108,-0.936792,15.3859,-2.66086,6.37,37.52,163.24,-34.5531,-95.2321,15.0157,1020.1
47114,-1.32071,15.9003,-2.62285,-1.33,40.39,168.98,-35.9457,-94.2676,15.1048,1020.12
47120,-1.19274,16.0146,-4.9085,-35,23.17,179.62,-36.5191,-93.5743,15.4911,1020.12
47126,-1.7141,16.2432,-2.55157,-48.37,25.13,189.21,-37.0653,-92.3988,13.4557,1020.13
47132,-1.20221,14.9478,-3.68251,-57.61,27.09,196.98,-38.7856,-91.3137,12.8615,1020.13
47138,-1.42024,14.581,-3.13605,-64.19,26.11,204.26,-40.3967,-90.3793,13.0992,1020.14
47144,0.499337,15.4573,-3.45442,-70.84,26.46,220.22,-41.5709,-88.812,13.3369,1020.14
47150,1.99234,16.1717,-3.85358,-69.58,26.32,225.68,-42.3628,-86.7925,12.0889,1020.14
47156,0.305009,16.5575,-5.37418,-67.97,42.91,236.46,-43.4004,-85.9485,11.4798,1020.12
47162,-0.780382,15.2859,-3.9106,-70.77,52.29,247.73,-45.503,-84.2305,10.0387,1020.12
47168,-0.292193,16.3194,-2.80817,-64.82,51.59,255.43,-45.9673,-82.2412,9.44444,1020.12
47174,-2.35396,17.2481,-2.62285,-67.55,63.84,270.62,-47.5237,-80.9149,8.85017,1020.12
47180,-3.24029,16.567,-1.44438,-70.07,65.38,279.44,-49.1075,-78.8352,8.56789,1020.12
47186,-1.32071,18.1387,-2.54682,-64.96,58.66,286.44,-49.3533,-77.0568,6.66624,1020.12
47192,-0.225837,19.2722,-4.94176,-68.32,59.01,292.46,-50.9917,-75.7306,6.45825,1020.11
47198,2.17245,13.8428,-2.64661,-81.62,71.75,310.8,-51.3467,-72.8973,5.86398,1020.11
47204,5.4618,12.1902,0.0382002,-61.39,77.98,318.15,-53.9135,-71.2396,4.60117,1020.11
47210,5.62769,15.2526,-1.60119,-28,88.83,315.98,-53.3401,-68.6173,3.82862,1020.12
47216,0.992265,19.9437,-4.69466,-12.18,109.9,313.95,-54.6781,-67.2006,3.05607,1020.12
47222,-3.40617,20.7486,-5.61652,-25.97,123.34,316.33,-55.0058,-63.7042,1.62983,1020.14
47228,-4.70959,20.5581,-4.10543,-50.4,115.5,328.58,-55.9888,-62.1971,1.7784,1020.14
47234,-3.42513,21.9059,-6.37682,-57.68,106.68,329.56,-57.0811,-59.7255,-0.123254,1020.13
47240,-2.94642,21.3344,-8.07799,-83.51,101.78,325.78,-57.163,-57.5554,0.0401682,1020.13
47246,-3.65738,18.2244,-6.50037,-115.22,101.92,319.55,-57.5999,-55.1742,-1.63863,1020.13
47252,-7.09366,9.37078,-5.62603,-182.84,85.61,295.68,-58.146,-52.4313,-2.94602,1020.1
47258,-8.33546,4.24148,-7.23691,-234.71,61.04,275.59,-58.0641,-49.3268,-3.94141,1020.1
47264,-16.4119,-2.4166,-14.7164,-285.95,63.42,244.65,-58.9652,-47.4881,-4.2534,1020.13
47270,-17.4357,-13.9468,1.42099,-332.85,103.74,202.44,-57.7091,-45.318,-5.47165,1020.13
47276,-8.54875,-25.2579,16.7173,-314.23,17.36,115.71,-57.7637,-43.4793,-4.3574,1020.09
47282,9.07345,-8.42221,11.9131,-20.65,-150.22,-50.61,-59.1564,-43.419,-3.0203,1020.09
47288,4.36219,3.18895,-5.13659,80.5,-85.4,-89.11,-59.0745,-44.5644,-2.58946,1020.09
47294,-3.24502,6.55133,-10.3494,73.29,-40.6,-133.35,-57.7091,-46.614,-1.87634,1020.09
47300,-8.82839,5.95601,-6.15349,23.8,-51.17,-173.04,-57.7364,-47.4278,-2.81231,1020.09
47306,-6.24999,7.53242,-4.16245,13.58,-95.2,-201.11,-57.6818,-49.4473,-2.17347,1020.1
47312,-7.27377,11.714,-4.39054,21,-88.62,-194.6,-56.8899,-51.2859,-1.46035,1020.1
47318,-5.87082,11.8854,-5.13183,2.59,-90.79,-181.3,-56.5623,-52.4012,0.307592,1020.1
47324,-3.17867,9.20408,-6.5764,-18.13,-93.03,-166.88,-55.9342,-54.27,0.66415,1020.1
47330,-1.33493,6.86566,-7.05159,-22.47,-80.57,-153.51,-56.4803,-54.7221,0.441299,1020.12
47336,-0.368028,1.53157,-4.7992,-12.88,-40.88,-137.83,-55.5519,-56.2593,0.292733,1020.12
47342,-0.552876,-0.087703,-3.93436,-1.12,-23.45,-135.52,-55.6338,-57.3444,1.10985,1020.11
47348,-0.742464,-0.616349,-3.49244,16.45,-8.68,-136.85,-54.4323,-58.2788,0.872145,1020.11
47354,-0.401206,-0.454421,-3.26435,38.22,7.35,-141.89,-53.6677,-59.2734,0.634439,1020.11
47360,-2.1075,1.44108,-3.06477,73.64,33.18,-161.56,-52.8485,-61.5642,1.61498,1020.11
47366,-2.84689,2.62697,-3.25009,81.97,40.18,-176.4,-52.1659,-64.5783,1.73383,1020.11
47372,-4.03181,3.30325,-2.8937,85.26,43.4,-191.94,-50.6094,-65.4826,1.74869,1020.06
47378,-4.95606,4.18433,-2.57533,85.82,43.19,-208.6,-48.971,-67.08,3.08578,1020.06
47384,-6.09832,5.21781,-2.2427,85.26,22.19,-235.62,-47.0595,-69.3406,3.81376,1020.09
47390,-7.00835,7.06093,-1.80077,74.13,22.05,-244.93,-46.3769,-70.8477,3.1155,1020.09
47396,-7.03204,6.92281,-1.38736,68.88,13.51,-250.32,-44.6565,-72.9275,4.12575,1020.09
47402,-7.26903,7.19428,-1.14977,66.64,5.46,-253.61,-43.1274,-74.4647,3.07093,1020.11
47408,-6.89459,6.73231,-0.679332,65.03,-4.06,-254.73,-41.6255,-77.1171,4.8983,1020.11
47414,-6.42536,6.42274,-0.489257,73.15,-18.06,-253.05,-39.3863,-78.5941,4.77944,1020.08
47420,-6.32109,6.91805,-0.67458,80.57,-23.73,-251.16,-37.8572,-80.1915,6.53253,1020.08
47426,-5.904,7.43717,-0.707843,87.64,-29.33,-249.13,-36.8195,-81.6383,6.44339,1020.15
47432,-5.44424,7.84199,-0.788625,94.92,-33.88,-247.24,-34.7988,-83.3564,7.72107,1020.15
47438,-4.89918,7.62767,-1.05473,113.96,-36.54,-246.26,-33.5427,-85.2854,9.62272,1020.09
47444,-4.8186,10.128,-1.36835,119.49,-37.59,-247.94,-31.9316,-86.8226,9.87528,1020.09
47450,-3.8991,10.509,-1.60119,120.82,-38.5,-250.6,-29.5559,-87.757,11.8512,1020.09
47456,-3.52941,11.3139,-1.60595,123.27,-36.75,-253.47,-27.8902,-89.3545,11.8512,1020.08
47462,-3.53889,12.9808,-1.8578,124.32,-33.6,-256.48,-26.0607,-91.0424,13.9163,1020.08
47468,-2.31604,14.7715,-1.8673,114.94,-28.91,-261.03,-23.4119,-92.3385,13.6489,1020.1
47474,-1.92265,15.5097,-1.77226,110.39,-24.15,-259.84,-21.6097,-92.6399,16.2042,1020.1
47480,-1.91791,16.267,-1.46814,105.07,-19.53,-257.32,-20.2444,-93.6648,17.4522,1020.12
47486,-1.79468,16.8718,-1.43963,99.47,-16.17,-253.19,-16.9676,-93.9662,17.4373,1020.12
47492,-1.75202,16.9909,-0.693588,91.84,-9.38,-240.24,-15.7661,-95.5335,17.4967,1020.12
47498,-1.86577,16.9195,-0.0853484,91.42,-7.77,-233.94,-14.6738,-95.8048,18.4921,1020.11
47504,-1.97479,16.7194,0.118982,91.21,-8.12,-228.41,-12.4893,-96.3473,18.819,1020.11
47510,-1.92265,16.3432,0.62268,92.54,-8.96,-225.12,-9.86782,-96.7693,21.1069,1020.08
47516,-1.7141,16.3575,0.869777,97.16,-10.22,-223.65,-8.85747,-97.2214,21.0921,1020.08
47522,-1.40128,17.3433,0.670199,107.38,-14.21,-225.47,-6.39987,-97.342,23.2166,1020.11
47528,-1.46764,17.9958,0.841266,110.46,-16.17,-227.5,-5.6899,-97.975,23.2314,1020.11
47534,-1.75202,18.7626,1.04084,113.19,-18.83,-228.83,-2.60424,-99.4218,24.9845,1020.12
47540,-1.94635,19.8008,0.988574,113.82,-23.24,-228.62,-1.6212,-98.4874,25.4748,1020.12
47546,-1.56717,20.8914,1.29745,108.64,-33.25,-222.53,-0.0647202,-99.7533,26.2176,1020.12
47552,-1.01737,20.8105,1.65859,105.56,-38.5,-218.61,1.6556,-100.055,28.4164,1020.09
47558,-0.18792,20.1771,1.96746,103.04,-43.4,-215.81,3.18478,-99.5423,30.6003,1020.09
47564,0.257612,19.9485,2.11477,102.62,-47.88,-214.9,5.15086,-100.326,31.2986,1020.11
47570,0.13438,20.1294,1.88668,101.99,-52.78,-215.88,6.35235,-100.447,32.8734,1020.11
47576,1.07758,19.7532,2.38562,99.12,-68.67,-225.61,8.86457,-100.597,34.0322,1020.13
47582,1.9402,19.096,2.55669,97.65,-77.21,-235.2,11.2129,-99.482,36.2013,1020.13
47588,2.03974,19.0293,2.60896,96.53,-84.91,-246.75,14.3805,-99.693,37.8504,1020.13
47594,2.71752,18.7435,2.77052,93.17,-92.96,-258.51,18.0942,-98.5175,40.272,1020.13
47600,3.3242,17.2624,7.52239,87.78,-100.31,-270.55,20.3061,-96.2871,41.4011,1020.13
47606,4.31005,18.3482,7.22303,97.93,-104.09,-269.22,23.5283,-93.9662,42.3371,1020.13
47612,5.40492,21.5915,5.38405,107.03,-106.54,-264.46,25.9586,-91.5247,43.5108,1020.13
47618,6.1301,24.8063,2.68024,100.03,-110.88,-257.6,27.0508,-88.4201,43.377,1020.14
47624,7.44299,26.3113,0.551402,74.48,-119.21,-250.11,28.1431,-84.1401,44.7141,1020.14
47630,11.832,23.9157,-3.59698,-6.16,-137.2,-236.32,28.8531,-81.7589,44.8033,1020.11
47636,15.1687,18.9483,-2.67037,-37.24,-135.94,-229.39,29.0169,-78.6845,42.4114,1020.11
47642,18.3016,15.024,-1.80552,-51.17,-129.01,-219.94,28.9623,-76.9966,42.4559,1020.11
47648,20.3397,12.2902,-0.859903,-53.48,-118.65,-207.06,27.7062,-75.5799,41.4903,1020.13
47654,26.7762,8.39445,1.3117,-11.13,-79.24,-167.72,27.5696,-73.1686,42.2925,1020.13
47660,28.0085,7.65625,2.41889,16.87,-51.66,-142.31,26.9962,-73.2892,40.6731,1020.11
47666,28.1697,7.98963,3.98225,47.53,-24.43,-114.17,25.9859,-71.3601,41.4457,1020.11
47672,27.1127,10.2709,5.08469,73.92,-7.07,-85.89,24.5932,-71.4204,41.2228,1020.15
47678,27.2407,12.1426,6.23464,89.11,7.63,-56.84,23.5829,-70.697,41.0297,1020.15
47684,22.7712,16.9528,5.83073,89.74,23.66,-5.74,22.5725,-70.1545,41.6685,1020.15
47690,20.3634,19.0721,5.21774,71.96,22.19,14.07,21.1799,-70.064,41.9211,1020.15
47696,18.4628,20.239,4.54772,44.1,19.6,31.08,21.3164,-69.2502,42.3965,1020.15
47702,17.311,20.0675,3.25046,10.99,14.7,44.73,20.388,-69.4009,42.5896,1020.13
47708,18.804,-3.5501,-10.1451,117.39,-15.4,269.99,19.6234,-69.9435,43.0502,1020.13
47714,21.4441,32.936,-18.8457,16.38,-46.06,261.03,17.6846,-69.8832,43.1839,1020.18
47720,6.47136,11.5092,-21.5495,-180.25,36.82,229.46,17.002,-71.119,42.1588,1020.18
47726,-15.8763,7.03235,-9.4893,-236.74,244.93,265.93,14.599,-70.7271,41.104,1020.13
47732,-20.853,-5.97425,15.9427,-291.2,222.11,275.52,13.6705,-72.2041,38.8903,1020.13
47738,-19.9667,1.70779,10.996,-24.64,51.73,306.6,11.2129,-71.5711,38.8606,1020.13
47744,-9.78581,9.82798,2.09576,63.56,2.66,332.85,9.32878,-71.9931,41.8022,1020.17
47750,-5.20726,16.1241,-5.59277,91.35,-50.82,335.65,7.03502,-73.0782,41.0148,1020.17
47756,-1.86577,22.8632,-4.43806,86.1,-87.01,329,5.7243,-72.5658,40.5246,1020.13
47762,10.8698,17.1576,-2.2427,-7.21,-94.99,273.21,4.76856,-72.5356,41.728,1020.13
47768,12.0026,13.157,0.0904707,-43.54,-48.86,248.85,2.99363,-72.3849,39.9749,1020.14
47774,7.64206,12.7474,-0.0758447,-56.98,-15.75,226.38,1.60099,-71.7821,39.648,1020.14
47780,2.61798,14.4334,-1.83879,-64.4,-1.19,203.35,0.4268,-72.0835,39.1429,1020.1
47786,1.49941,22.4679,6.75734,-79.73,-27.65,147.77,0.208346,-72.9576,38.7269,1020.1
47792,4.53282,13.5761,-0.541528,-111.79,0.77,142.45,-0.665467,-72.1136,38.6081,1020.1
47798,8.77485,11.8568,10.4923,-123.06,13.16,125.16,-1.78504,-72.7768,37.4938,1020.11
47804,2.77439,6.53704,4.42893,-98.42,-27.3,64.61,-2.52232,-71.9027,37.8207,1020.11
47810,7.33872,3.49376,2.67074,-47.32,-50.05,35.77,-2.52232,-72.9275,37.0333,1020.12
47816,-3.3967,16.0908,-4.51409,12.46,36.12,40.6,-1.81235,-72.2342,36.3498,1020.12
47822,-6.70974,14.862,-2.20468,-33.32,23.17,47.46,-2.27656,-72.5658,37.3601,1020.1
47828,-4.12661,9.98991,0.808003,-73.22,-31.36,43.19,-2.41309,-72.6261,37.6127,1020.1
47834,2.14875,7.06569,1.87242,-77.07,-72.52,32.41,-3.12307,-72.9275,37.5681,1020.1
47840,4.32901,7.21809,0.328064,-26.25,-18.06,18.06,-3.55998,-73.0782,35.6664,1020.1
47846,-0.794601,9.63272,0.556154,-3.64,18.27,18.27,-3.28691,-73.1385,36.8847,1020.1
47852,-2.53881,10.8567,0.408846,-1.4,11.9,14.7,-4.43379,-73.681,36.0527,1020.15
47858,-1.1406,11.152,-1.21154,-11.55,-11.2,11.13,-3.99688,-73.0179,36.647,1020.15
47864,0.793198,9.3803,-0.170882,-21.84,-19.32,6.86,-2.87731,-72.7165,36.7213,1020.11
47870,0.499337,8.79927,0.594169,-1.54,1.89,3.92,-2.90462,-73.5303,36.3944,1020.11
47876,-0.841998,10.971,-0.950189,5.67,6.02,3.36,-3.77843,-73.0782,36.2459,1020.16
47882,-1.58613,11.0234,-1.1165,-2.52,1.68,1.47,-3.69651,-73.7111,37.375,1020.16
47888,0.319228,9.74226,-0.256416,-9.73,-4.41,2.87,-3.53267,-72.7165,36.543,1020.16
47894,-0.955751,10.4852,-1.91007,5.81,2.94,-0.63,-3.6692,-72.837,37.0184,1020.17
47900,-0.984189,11.1806,-0.441739,5.6,6.86,2.24,-3.39614,-73.4097,36.1121,1020.17
47906,-1.6904,9.24695,-0.0188223,-7.56,0.35,1.4,-3.80574,-73.1385,36.4241,1020.16
47912,0.546734,7.43717,1.23092,-4.97,-1.75,-0.49,-3.12307,-72.7165,36.5578,1020.16
47918,-0.192659,10.2519,0.11423,7.07,6.72,1.68,-3.6692,-73.6509,35.3842,1020.13
47924,-0.614492,9.04216,0.423102,-6.23,1.82,0.42,-3.01384,-72.2644,35.9042,1020.13
47930,-0.197399,9.36125,-1.01196,-1.19,3.43,2.24,-3.04115,-72.3548,35.3396,1020.15
47936,-0.837258,10.2138,0.0334483,-1.75,4.76,1.96,-3.72382,-73.0179,35.5773,1020.15
47942,-1.19274,9.83274,0.0952226,-3.64,4.2,0.49,-3.04115,-72.6261,35.607,1020.15
47948,-0.913093,9.35172,0.432605,-3.92,4.62,1.05,-3.17768,-72.6863,36.023,1020.15
47954,-0.714026,10.2519,-0.565287,-1.61,5.81,0.98,-3.2596,-73.259,35.2505,1020.15
47960,-0.0646874,9.89466,-0.0853484,-2.87,6.93,1.4,-4.0515,-73.2289,36.1716,1020.16
47966,-1.20695,9.76607,-0.332446,-2.52,6.58,2.17,-3.45075,-73.0179,35.7853,1020.16
47972,-0.581314,10.2233,-0.570039,-2.94,3.36,1.54,-3.61459,-73.5604,36.335,1020.13
47978,-1.01737,9.86608,-0.261168,-1.68,6.93,1.75,-3.09576,-73.5303,36.0081,1020.13
47984,-1.26383,10.2757,-0.798129,-1.82,6.44,1.82,-3.12307,-72.5658,35.7556,1020.13
47990,-0.870436,9.74702,-0.204145,-3.92,4.62,2.17,-3.20499,-72.7768,35.2653,1020.17
47996,-0.65715,9.44698,-0.0758447,-5.04,4.48,2.87,-3.69651,-72.8672,35.0573,1020.17
48002,-0.922573,9.86132,0.0239446,-5.11,3.43,2.03,-3.2596,-73.3193,36.1716,1020.16
48008,-0.709286,9.58985,-0.0378297,-4.97,2.59,2.87,-3.94227,-72.6261,35.8299,1020.16
48014,-0.496,9.65177,-0.227905,-2.59,3.57,2.45,-4.13342,-73.048,36.023,1020.14
48020,-0.633451,9.82322,-0.308686,-1.33,4.9,3.08,-4.43379,-73.048,35.9933,1020.14
48026,-0.889395,9.97086,-0.455994,-1.89,4.34,2.38,-4.0515,-72.6562,35.7556,1020.12
48032,-0.477041,9.58985,-0.099604,-3.78,3.22,2.59,-3.99688,-73.259,34.7008,1020.12
48038,-0.794601,9.75654,-0.265919,-3.43,4.27,1.96,-3.39614,-73.2892,35.7259,1020.12
48044,-0.623972,9.89942,-0.246912,-2.8,3.85,1.12,-3.58728,-72.1739,37.0184,1020.13
48050,-0.382247,9.78512,-0.422731,-3.64,3.71,1.47,-3.50536,-73.6509,35.1762,1020.13
48056,-0.619232,9.72797,-0.028326,-3.15,7,1.26,-3.36883,-73.5604,35.4585,1020.13
48062,-0.780382,9.58033,0.185508,-2.03,8.26,1.47,-2.68616,-73.259,36.023,1020.13
48068,-0.780382,9.83751,-0.0520854,-0.77,8.4,1.96,-3.99688,-72.7466,34.5819,1020.11
48074,-0.898874,9.89942,-0.175634,-0.7,9.24,2.8,-3.06846,-73.1987,35.5624,1020.11
48080,-1.15008,9.79941,0.104726,0.07,10.29,3.64,-3.15038,-73.2892,35.1762,1020.14
48086,-1.0932,9.89942,-0.137619,-0.28,7.21,5.18,-4.0515,-72.6261,35.7704,1020.14
48092,-1.03159,9.84703,-0.137619,-0.14,6.79,6.09,-3.83304,-72.6261,35.4436,1020.14
48098,-1.1169,9.80417,-0.0473335,0.77,6.58,7.28,-2.71347,-72.5959,35.3247,1020.16
48104,-1.28279,10.0566,-0.232656,1.82,4.97,8.05,-2.90462,-72.5055,35.711,1020.16
48110,-0.666629,9.86132,-0.308686,-1.82,-0.49,8.96,-3.94227,-73.8619,34.5225,1020.14
48116,-0.932052,9.82798,-0.204145,-1.96,-0.21,8.82,-3.28691,-73.1987,35.7259,1020.14
48122,-0.936792,9.91847,0.0572076,-1.68,-1.05,9.1,-3.91496,-73.1987,35.8744,1020.16
48128,-0.623972,9.59462,-0.00456666,-1.05,-1.82,10.15,-4.0788,-73.3495,35.9339,1020.16
48134,-0.737725,10.0185,-0.484505,-1.26,-3.57,9.66,-5.11646,-73.048,35.3545,1020.16
48140,-0.761423,10.0375,-0.0615891,-3.92,-5.67,9.8,-4.02419,-72.9576,35.4733,1020.17
48146,-0.732985,9.82322,0.0952226,-4.9,-6.37,10.08,-4.0515,-72.5055,35.5476,1020.17
48152,-0.932052,9.78988,0.00018521,-3.5,-6.58,10.92,-3.69651,-73.6509,35.2505,1020.17
48158,-0.955751,9.98515,-0.180386,-2.17,-7.49,11.48,-4.10611,-73.5002,35.399,1020.17
48164,-1.1643,10.1947,-0.099604,-4.9,-11.13,12.74,-4.4611,-72.6562,35.4882,1020.1
48170,-1.23539,10.1328,-0.0710928,-6.23,-13.09,14,-3.88766,-72.3548,34.9682,1020.1
48176,-1.16904,10.128,-0.275423,-6.86,-16.59,14.84,-4.43379,-72.8973,35.503,1020.15
48182,-0.998408,10.1423,-0.322942,-6.58,-18.9,15.54,-5.3076,-72.7165,34.8493,1020.15
48188,-1.03633,10.3995,-0.294431,-11.76,-27.16,16.87,-4.54302,-73.0782,36.439,1020.15
48194,-0.377507,9.76131,-0.736354,-13.16,-31.85,17.01,-4.32456,-72.7768,35.2653,1020.15
48200,-0.0267698,10.0232,-0.836144,-13.44,-32.27,16.8,-4.37918,-72.6261,36.1716,1020.15
48206,-0.377507,10.49,-1.01196,-15.12,-30.45,16.59,-4.65224,-72.5658,35.3545,1020.13
48212,-0.415425,10.8043,-1.25431,-20.79,-30.52,15.96,-4.51571,-73.8619,34.2996,1020.13
48218,0.162818,14.6953,-3.61124,-33.74,-25.69,15.54,-5.44414,-73.2289,34.5671,1020.16
48224,0.44246,13.8666,-5.23638,-50.47,-10.64,20.79,-4.898,-74.2838,34.6413,1020.16
48230,-0.292193,12.8094,-3.92011,-72.1,-0.49,21.98,-4.8707,-73.892,34.5522,1020.16
48236,-0.368028,12.3426,-2.55632,-88.27,3.43,22.05,-4.95262,-73.892,33.9728,1020.13
48242,-3.09809,14.4334,2.14328,-88.34,26.11,29.33,-4.18803,-73.8619,34.2551,1020.13
48248,-10.2076,14.9478,13.1866,-55.93,44.38,53.69,-4.54302,-73.9221,33.8836,1020.15
48254,-8.36864,13.8285,7.40835,-10.29,23.31,78.12,-5.49875,-73.7413,32.7694,1020.15
48260,-3.98442,12.957,0.907792,-3.64,-14.21,88.13,-5.93566,-74.0126,33.1111,1020.12
48266,1.08232,12.2378,-3.11229,-13.79,-33.95,90.02,-6.89139,-75.1881,32.814,1020.12
48272,-1.4392,11.9092,3.01287,-6.37,15.96,98.35,-7.7379,-73.5604,33.1259,1020.15
48278,-4.33042,11.6949,5.36505,3.99,24.64,105.84,-7.19177,-74.8565,33.2597,1020.15
48284,-4.65745,11.4473,5.24625,15.54,11.2,112.49,-7.60137,-73.9523,34.0471,1020.15
48290,-2.9796,12.0521,3.34075,28.7,-4.06,117.95,-8.25673,-74.4647,33.0814,1020.16
48296,-1.06476,13.0761,1.1739,41.37,-2.17,129.22,-8.80286,-73.6509,33.5717,1020.16
48302,-1.64301,14.1286,0.556154,46.06,6.44,134.54,-9.73129,-73.2892,34.2402,1020.13
48308,-2.37292,15.2954,0.385087,48.79,12.32,141.26,-10.2501,-74.525,34.4333,1020.13
48314,-2.48667,15.8241,-1.41112,48.02,12.11,147.77,-11.4243,-74.2838,33.7054,1020.13
48320,-2.39188,15.0049,-0.893166,39.27,13.79,157.92,-13.3904,-74.8565,34.7453,1020.13
48326,-0.936792,13.7142,-2.91746,38.43,21.84,172.69,-13.2265,-73.9221,34.3442,1020.13
48332,-0.81356,14.6668,-3.75379,42.49,32.06,179.06,-14.073,-73.3796,34.6562,1020.15
48338,-1.21643,16.2241,-4.23373,43.12,42.14,186.41,-14.5646,-72.6261,34.9236,1020.15
48344,-2.24495,18.7054,-3.22633,40.88,51.52,195.58,-15.6841,-72.9576,34.7899,1020.12
48350,-11.0181,26.3779,0.788996,25.27,58.17,229.39,-17.4864,-72.8672,36.231,1020.12
48356,-4.81386,23.4918,-8.89056,0.14,31.01,247.24,-17.8687,-72.0232,35.1465,1020.14
48362,-4.72381,26.3017,-7.87366,-17.22,22.61,266.07,-19.3432,-72.3548,35.1167,1020.14
48368,-3.05544,24.6158,-11.2712,-48.72,29.19,280.91,-21.0363,-71.0587,34.6859,1020.12
48374,-2.91799,21.3534,-8.51516,-80.36,40.74,297.5,-22.1285,-70.3353,34.2105,1020.12
48380,-0.898874,20.6247,-3.74429,-69.79,42.7,328.44,-24.0946,-70.2148,33.8094,1020.12
48386,-4.67641,21.2486,-5.60702,-51.1,65.73,348.81,-25.4599,-68.9187,32.8437,1020.11
48392,-8.35442,20.9772,-3.022,-44.45,82.39,371.98,-27.071,-68.2556,33.4974,1020.11
48398,-8.07952,21.4725,-2.64185,-35.49,72.59,390.18,-28.136,-66.4471,32.6208,1020.12
48404,-4.61954,27.3686,-4.0389,-42.91,64.68,412.09,-30.2113,-64.9099,32.1751,1020.12
48410,-4.37781,26.4351,-5.15084,-61.74,68.11,419.16,-31.877,-62.9507,32.2346,1020.16
48416,-1.188,18.9483,-1.31133,-78.75,77.77,431.48,-33.4062,-60.7202,31.1352,1020.16
48422,2.57532,14.6477,3.80168,-55.79,90.44,436.03,-35.0446,-59.2734,30.6895,1020.13
48428,-2.56251,22.2297,-1.54892,-1.26,112.56,428.54,-36.4099,-57.5554,29.5158,1020.13
48434,-9.64836,28.5782,-10.2543,-20.58,111.23,433.51,-38.0756,-55.0536,29.6495,1020.13
48440,-6.83298,25.2825,-9.13291,-43.82,100.38,437.5,-38.5125,-52.3409,29.0552,1020.11
48446,-7.50601,23.9633,-9.21369,-60.41,96.74,427.28,-39.6867,-50.5626,28.3867,1020.11
48452,-9.93274,22.1297,-9.37525,-81.76,100.87,413.7,-40.2055,-47.9403,28.2381,1020.11
48458,-13.8051,10.5805,-14.0368,-159.88,111.02,381.43,-41.3797,-45.7098,28.0004,1020.11
48464,-25.2562,-2.88334,-24.3959,-241.57,152.18,344.61,-41.8439,-43.7807,24.9251,1020.08
48470,-21.3459,-19.6095,-6.88052,-344.05,164.43,285.32,-41.5709,-42.1531,24.9399,1020.08
48476,-5.93717,-29.268,12.2743,-353.78,24.99,164.43,-41.7893,-41.0379,26.0245,1020.08
48482,3.49009,-21.5622,14.099,-221.2,-77.84,-31.29,-41.9259,-41.2187,26.0542,1020.08
48488,-3.21659,3.11275,0.11423,52.36,7.63,-63.07,-41.6801,-40.9173,25.9948,1020.08
48494,-9.32132,3.97001,-8.74325,64.47,35.56,-100.17,-40.8882,-41.3393,26.1582,1020.1
48500,-10.7337,2.75079,-10.9861,48.79,11.13,-132.37,-40.3967,-41.7613,27.1981,1020.1
48506,-8.81891,2.78889,-8.92858,41.09,-6.02,-152.11,-39.8233,-43.2382,26.6633,1020.09
48512,-10.8522,6.15603,-5.33616,47.39,27.23,-156.24,-38.8948,-43.9917,26.9604,1020.09
48518,-10.947,6.9371,-3.46868,44.45,19.67,-152.67,-39.0314,-44.4439,28.0747,1020.08
48524,-9.61518,6.27986,-3.50194,41.86,7.28,-147.28,-38.2395,-43.9616,27.2427,1020.08
48530,-6.56281,4.95587,-4.24323,43.89,0.84,-140.91,-38.4852,-44.9261,26.6485,1020.08
48536,-5.26414,4.63677,-4.7897,41.79,23.1,-142.73,-37.5841,-45.7098,28.7135,1020.08
48542,-7.08892,1.91258,-3.1313,38.71,29.82,-150.78,-37.2291,-44.9864,28.1193,1020.08
48548,-7.28325,0.936251,-1.52992,39.27,25.76,-162.05,-36.2461,-45.3481,28.0895,1020.1
48554,-7.41596,0.450468,-0.303934,44.03,17.29,-174.58,-35.3723,-46.3126,27.317,1020.1
48560,-6.97043,0.774323,0.252034,53.62,10.5,-190.54,-34.7442,-46.1318,29.3078,1020.1
48566,-7.6719,3.18419,-0.52252,68.81,4.9,-220.5,-34.4711,-47.4881,29.1592,1020.1
48572,-7.27851,3.90334,-0.798129,69.3,-3.5,-234.36,-33.8977,-47.6087,28.6838,1020.1
48578,-7.27851,4.62725,-0.855151,67.76,-10.57,-246.26,-32.4505,-48.1512,29.1147,1020.09
48584,-7.19319,4.90824,-0.646069,65.94,-18.62,-257.25,-32.0135,-48.8746,29.5752,1020.09
48590,-6.93251,5.61786,-0.779121,66.22,-26.81,-270.2,-30.8667,-49.6885,30.7043,1020.1
48596,-6.26421,5.50356,-0.641317,67.2,-31.43,-273.84,-29.6925,-50.1406,31.15,1020.1
48602,-6.03671,5.6893,-0.798129,70.56,-33.67,-275.73,-30.0475,-49.8693,31.2986,1020.1
48608,-5.33523,5.54643,-0.460746,75.04,-34.44,-277.34,-29.0644,-50.5927,30.9272,1020.1
48614,-5.15038,5.91314,-0.75061,81.13,-33.67,-278.39,-28.764,-51.3161,31.774,1020.1
48620,-4.8897,7.28,-0.532024,94.57,-30.45,-281.75,-28.2725,-51.2859,31.2689,1020.1
48626,-4.90392,8.18966,-0.384716,99.75,-29.19,-284.62,-27.4533,-52.7327,32.0563,1020.1
48632,-4.41573,8.91357,-0.532024,104.23,-27.02,-287.28,-26.4157,-53.4863,32.5614,1020.1
48638,-4.45839,10.109,-0.541528,106.89,-24.92,-291.06,-25.3234,-53.6068,32.294,1020.1
48644,-3.96072,12.1378,-0.798129,104.51,-20.23,-301.91,-24.6954,-54.3001,33.7499,1020.06
48650,-3.67634,13.1094,-0.555784,100.87,-17.43,-307.3,-24.4496,-55.9277,34.5522,1020.06
48656,-3.45831,13.8333,-0.636565,96.04,-15.4,-311.57,-23.0569,-56.4703,33.9728,1020.08
48662,-3.61946,14.581,-0.760114,90.93,-13.02,-315,-22.347,-57.8568,33.6459,1020.08
48668,-3.35404,14.8811,-0.170882,88.48,-8.4,-316.82,-21.5824,-57.9472,34.0025,1020.07
48674,-3.59576,16.6575,0.290049,84.49,-6.93,-313.18,-19.1794,-59.2433,34.3442,1020.07
48680,-3.54837,17.1766,0.584665,81.9,-6.44,-307.51,-18.1964,-59.605,34.8939,1020.07
48686,-3.69056,17.5672,1.24993,81.13,-6.23,-299.67,-17.2679,-59.9064,34.9533,1020.08
48692,-3.6716,18.3292,1.64908,80.78,-9.66,-290.92,-15.6568,-60.6901,34.5225,1020.08
48698,-3.00804,19.3912,1.92944,81.13,-17.57,-275.03,-13.9911,-60.4489,34.983,1020.11
48704,-2.96064,19.8437,2.29534,80.78,-22.61,-269.43,-13.0081,-61.8053,35.6664,1020.11
48710,-2.55777,20.2199,2.16704,80.99,-29.05,-266.42,-11.6154,-60.5695,36.855,1020.11
48716,-1.99374,20.3723,1.95796,80.64,-35.91,-265.86,-9.73129,-61.534,38.0138,1020.11
48722,-1.45342,20.7057,1.53504,80.71,-41.09,-268.31,-8.47518,-60.3585,38.2218,1020.11
48728,-0.799341,22.2488,0.655943,83.09,-46.48,-275.73,-7.92905,-59.5145,39.2618,1020.08
48734,-0.353809,23.3108,-0.00931853,82.81,-49.77,-278.88,-6.04488,-58.7007,40.1829,1020.08
48740,0.238653,24.1348,-0.517769,81.34,-51.94,-280.35,-4.40648,-57.3142,39.6926,1020.07
48746,0.660486,24.6539,-0.722099,79.24,-53.34,-281.12,-5.03454,-55.8674,41.104,1020.07
48752,2.46631,24.0681,-0.67458,72.66,-59.64,-283.5,-4.70686,-54.7221,41.4308,1020.07
48758,2.93554,23.83,-0.627061,71.47,-63.07,-287,-4.51571,-52.4313,42.9016,1020.07
48764,3.98301,23.1108,-0.631813,70.98,-69.02,-292.39,-4.51571,-52.0696,42.4708,1020.1
48770,4.912,22.5345,-0.627061,71.26,-76.02,-299.53,-5.49875,-51.5271,42.5748,1020.1
48776,6.06848,21.6439,-0.313438,71.54,-84.21,-308.91,-6.26334,-52.582,41.7577,1020.1
48782,8.25348,19.6008,1.13113,73.64,-93.87,-325.22,-7.10985,-52.9739,41.2525,1020.11
48788,8.70849,18.5292,3.42628,77.14,-90.16,-325.22,-6.42718,-54.0288,41.2228,1020.11
48794,9.71805,19.7389,4.18183,86.8,-87.36,-318.43,-6.42718,-54.6919,41.9954,1020.11
48800,11.1494,23.4442,1.4305,95.2,-89.67,-308,-4.40648,-56.5908,43.4811,1020.11
48806,15.5905,26.2493,-1.41112,65.8,-94.01,-277.34,-4.92531,-57.6156,41.832,1020.13
48812,18.1263,25.5159,-1.70098,45.99,-94.92,-259.84,-3.80574,-58.4897,42.1439,1020.13
48818,21.6858,23.649,-3.12654,25.27,-93.31,-241.36,-3.01384,-58.8816,42.2331,1020.13
48824,25.5534,20.5152,-3.81081,5.74,-87.43,-221.41,-2.14003,-59.1529,42.8422,1020.12
48830,29.5252,16.9433,-3.00775,-7.07,-76.86,-164.22,-1.18429,-59.6653,43.8376,1020.12
48836,37.341,9.94705,1.57781,3.57,-39.34,-152.18,-1.07507,-60.1475,43.377,1020.14
48842,39.071,8.19442,3.80168,31.85,-11.2,-123.06,-1.04776,-61.5943,44.4319,1020.14
48848,38.1373,9.4946,4.8756,66.71,14.63,-91.14,-0.993148,-60.8709,44.105,1020.14
48854,35.521,11.7664,4.31488,95.9,33.11,-56.07,-1.15699,-61.112,45.6353,1020.14
48860,29.0797,17.391,1.99122,113.19,55.79,20.16,-2.05811,-61.1422,45.1747,1020.12
48866,7.00694,21.4772,-5.55,105.63,62.51,54.6,-2.0308,-61.112,46.3335,1020.12
48872,17.4769,-1.16405,1.38298,254.31,43.96,298.13,-3.39614,-60.1475,47.1061,1020.12
48878,15.6522,49.9384,-14.5976,117.11,-16.66,296.73,-4.65224,-60.0872,47.7003,1020.14
48884,15.818,29.3736,1.67284,-245.14,13.37,315.21,-5.19838,-59.8762,46.6158,1020.14
48890,-9.78581,6.06555,1.1739,-230.02,62.16,317.31,-6.31795,-60.0872,45.5907,1020.11
48896,-20.9194,-3.41198,10.0551,-252,94.71,315.7,-7.51945,-59.4844,44.2833,1020.11
48902,-8.60562,-14.5469,18.1856,-182.35,37.94,344.05,-9.07593,-59.7557,44.7884,1020.13
48908,-15.7104,1.62682,16.2278,-20.86,-17.08,348.81,-9.94974,-59.5145,45.5313,1020.13
48914,-6.55807,21.301,-4.6614,107.59,-105.7,357.21,-11.4516,-58.1281,45.3084,1020.1
48920,1.30509,18.5435,-2.82243,90.3,-154,338.24,-12.7896,-58.0075,48.3243,1020.1
48926,10.0261,15.786,-5.84461,77.56,-175.98,321.79,-13.1446,-57.2238,47.8638,1020.1
48932,10.3484,18.2054,-6.42434,34.3,-169.75,303.8,-14.6192,-56.3196,47.9678,1020.09
48938,16.9461,18.0815,-4.59962,-56.49,-106.75,254.66,-15.3565,-55.8976,48.1163,1020.09
48944,11.5097,19.0531,-2.62285,-105.14,-30.1,228.97,-16.0664,-55.566,48.0866,1020.12
48950,10.4053,13.4094,-7.16088,-123.62,11.27,179.83,-16.0664,-55.1742,46.9872,1020.12
48956,0.537254,10.7281,-1.04998,-163.24,63.98,166.04,-16.9129,-55.6866,46.7198,1020.11
48962,8.50943,7.60862,12.9395,-153.58,46.55,153.65,-17.0495,-55.3852,45.9621,1020.11
48968,6.24859,2.49361,3.43103,-35.63,-8.12,53.48,-16.6945,-55.8674,46.4821,1020.11
48974,1.61791,12.957,-8.16828,29.89,28.14,52.01,-17.541,-55.988,45.3827,1020.11
48980,-5.97983,22.8727,-5.97291,9.1,49.98,57.54,-17.7321,-54.7522,46.0661,1020.11
48986,-3.49623,13.2666,-3.07427,-76.86,-4.55,55.58,-18.3329,-54.7522,46.3335,1020.1
48992,6.17276,3.47947,3.45479,-85.4,-79.17,22.47,-17.7868,-54.9331,47.0318,1020.1
48998,4.76032,4.58438,1.39248,-36.47,-20.23,26.39,-18.0871,-55.3249,46.4227,1020.12
49004,-0.723505,9.63272,1.54454,-2.52,20.72,26.81,-17.9506,-54.8426,46.8089,1020.12
49010,-2.60991,13.5666,-1.77226,-4.62,6.86,18.97,-18.251,-54.9029,46.9872,1020.1
49016,2.42839,9.78036,0.598921,-27.02,-15.89,17.92,-17.7321,-54.9331,46.4672,1020.1
49022,1.48993,8.11822,0.917296,7.28,6.44,8.61,-17.9779,-54.7522,47.0764,1020.1
49028,-1.45816,13.2618,-2.48029,21.14,17.64,5.46,-17.9779,-55.3852,46.289,1020.13
49034,-1.92265,13.9095,-2.6276,-0.84,8.96,4.83,-17.7048,-55.1139,47.2249,1020.13
49040,0.0585447,7.45622,1.80114,-20.23,-5.74,6.23,-18.0871,-54.9632,46.5564,1020.11
49046,0.878513,10.7805,-0.859903,-8.12,0.14,4.83,-18.0598,-54.6316,46.8832,1020.11
49052,-0.951011,8.47065,2.68974,-0.56,7.14,3.01,-17.6229,-54.8728,46.0513,1020.13
49058,-1.7378,11.9902,-1.79602,9.17,8.47,2.1,-17.896,-56.1689,46.2295,1020.13
49064,-0.932052,10.5852,-0.44649,-4.69,2.73,2.59,-18.2783,-54.9029,45.769,1020.13
49070,-1.52451,8.85165,0.123734,-7.49,3.43,5.32,-17.8141,-55.0838,45.8581,1020.11
49076,-0.889395,10.6424,-0.703091,1.19,5.25,5.04,-17.6229,-55.0235,46.2592,1020.11
49082,-1.18326,10.5567,-0.0710928,-6.51,3.29,4.13,-18.8244,-55.4153,46.3038,1020.11
49088,-0.96049,8.88975,0.865025,-2.17,3.22,4.27,-17.3772,-54.6618,46.1998,1020.11
49094,-1.16904,11.3806,-1.33984,3.5,2.17,7.14,-18.2783,-54.3302,46.0513,1020.13
49100,-0.533917,9.65653,-0.422731,-2.66,-1.47,7.35,-17.8687,-55.0536,46.6009,1020.13
49106,-1.06476,10.3042,-0.303934,-1.33,-3.01,6.93,-17.5956,-55.1139,46.4524,1020.12
49112,-0.671369,9.25171,0.518139,-2.03,-4.69,7.21,-17.9233,-54.9029,45.7838,1020.12
49118,0.0111478,9.69939,-0.479754,0.42,-4.69,6.93,-17.2679,-55.8373,45.9473,1020.12
49124,0.101202,9.28981,0.176004,2.66,0.42,6.79,-18.879,-54.9331,46.289,1020.15
49130,-1.16904,10.1995,0.0667114,3.64,1.54,5.74,-18.1691,-55.355,46.081,1020.15
49136,-0.296933,9.67558,0.0904707,0.7,-2.31,6.37,-17.7321,-55.144,45.2787,1020.17
49142,-0.405946,10.0042,-1.01671,-0.21,-2.17,5.81,-18.251,-54.3604,45.353,1020.17
49148,-1.37284,10.0709,-0.451242,0.49,1.26,5.32,-18.0052,-55.566,45.9027,1020.14
49154,-0.486521,9.87084,-0.498761,-1.26,-1.19,5.88,-18.4148,-54.9632,46.5712,1020.14
49160,-0.628711,9.73749,-0.39422,-1.68,0.35,5.53,-18.0052,-55.355,45.5313,1020.12
49166,-1.32545,10.2852,-0.693588,-1.47,-0.14,5.32,-18.4694,-55.1742,46.1255,1020.12
49172,-0.533917,9.98515,-0.123363,-5.11,-5.74,5.25,-18.0598,-54.6316,46.0215,1020.12
49178,-0.415425,9.44698,-0.194641,-7,-6.23,5.32,-18.9063,-55.144,45.3827,1020.14
49184,-0.150002,9.33267,0.104726,-7.21,-10.36,5.39,-18.4694,-55.2345,45.0707,1020.14
49190,-0.941531,9.87084,-0.246912,-6.86,-8.75,5.46,-18.5787,-56.3497,44.5507,1020.14
49196,-0.50074,10.0994,-0.31819,-7.84,-9.66,5.04,-18.1417,-54.0288,44.8776,1020.14
49202,-0.415425,9.7232,0.242531,-8.54,-9.8,5.74,-18.3875,-55.2948,45.0261,1020.16
49208,-0.50074,9.65177,0.0667114,-9.73,-10.57,5.6,-18.1144,-55.3249,45.3381,1020.16
49214,-0.372768,9.63272,-0.0188223,-8.75,-9.31,5.46,-19.0975,-55.4153,45.3976,1020.16
49220,-0.576575,9.9661,-0.104356,-8.82,-10.08,6.09,-18.879,-55.4455,45.5758,1020.11
49226,0.143859,9.16122,0.34232,-8.96,-10.08,4.69,-18.7425,-55.2948,45.353,1020.11
49232,-0.34433,9.4184,-0.294431,-6.93,-6.3,4.83,-19.3705,-55.5359,45.3976,1020.16
49238,-0.941531,10.109,-0.028326,-8.54,-8.54,4.97,-18.7425,-54.7221,44.8924,1020.16
49244,0.0917226,9.62795,0.280546,-9.8,-8.47,4.97,-18.6333,-54.9933,45.9918,1020.12
49250,-0.221097,9.48984,0.0952226,-6.86,-4.62,5.6,-18.6333,-55.1139,45.9175,1020.12
49256,-0.254275,9.92323,0.256786,-5.18,-4.76,4.97,-18.6333,-55.6866,45.1598,1020.13
49262,-0.50074,9.77559,-0.427483,-6.93,-5.11,5.11,-18.5787,-55.4153,45.8135,1020.13
49268,-0.567095,10.1137,-0.137619,-7.98,-5.32,4.83,-19.0156,-54.6618,45.041,1020.13
49274,-0.562356,9.76131,0.0477039,-9.52,-5.88,4.9,-18.4694,-55.6564,45.8581,1020.16
49280,-0.709286,9.94705,-0.308686,-8.96,-5.95,5.11,-19.7255,-54.9029,45.0856,1020.16
49286,-0.699807,10.1899,-0.327694,-9.73,-5.67,6.72,-18.1144,-55.2646,46.2444,1020.12
49292,-0.567095,10.5852,-0.617558,-10.78,-5.74,7.7,-18.8517,-54.5111,45.2044,1020.12
49298,-0.467562,10.7805,-0.888414,-12.6,-5.11,8.75,-18.1691,-55.4153,45.5758,1020.12
49304,-0.666629,11.1329,-1.13551,-16.03,-4.13,9.73,-18.0325,-55.3249,46.0364,1020.12
49310,-0.410685,10.9901,-1.04998,-21.07,-2.8,11.27,-18.4694,-55.0838,45.1598,1020.12
49316,-0.240056,10.5281,-0.707843,-29.12,1.89,12.6,-18.5513,-55.0838,45.7393,1020.14
49322,-0.301672,10.4376,-0.337197,-31.57,3.85,13.02,-18.7152,-55.4153,46.1552,1020.14
49328,-0.320631,10.509,-0.356205,-34.65,5.67,13.51,-19.234,-55.2345,45.1301,1020.15
49334,-0.505479,10.5948,-0.584295,-36.82,7.21,13.86,-18.3056,-55.5359,44.6399,1020.15
49340,-0.244796,11.5473,-1.21629,-43.54,14.07,14.56,-19.5071,-55.3249,43.8376,1020.13
49346,-0.941531,11.7902,-0.669828,-47.32,19.04,16.66,-18.6333,-54.6316,45.2044,1020.13
49352,-0.467562,13.6857,-2.92697,-47.74,24.01,19.46,-18.4148,-55.2345,44.2387,1020.17
49358,-2.0364,13.8428,0.280546,-52.85,32.55,23.73,-18.9063,-55.5962,43.5999,1020.17
49364,-7.06522,13.2713,9.59896,-48.23,36.26,38.08,-18.3875,-55.2345,44.0159,1020.17
49370,-2.39662,12.8141,0.437357,-7.14,-6.09,62.51,-19.0429,-54.6919,44.2833,1020.15
49376,0.376105,13.4571,-2.74164,-8.82,-11.41,67.06,-19.589,-53.848,44.105,1020.15
49382,0.110681,13.5809,-1.38261,-13.86,4.2,72.38,-19.6163,-54.9331,43.793,1020.14
49388,-1.89421,13.0141,1.50653,-13.93,21,79.38,-19.944,-54.5412,42.9611,1020.14
49394,-3.15971,12.6808,2.55669,-3.15,14.49,93.38,-20.4628,-54.3905,42.7679,1020.13
49400,-2.37766,13.0094,2.18129,4.41,9.73,100.87,-20.2717,-53.6671,42.9165,1020.13
49406,-2.20229,13.0808,1.89618,10.78,11.48,108.29,-20.7632,-52.8533,42.8422,1020.16
49412,-2.50563,12.7855,2.28583,15.61,15.4,116.27,-20.654,-53.1246,42.9165,1020.16
49418,-2.92273,12.6665,3.01287,20.93,16.94,123.48,-21.4732,-53.1547,42.1885,1020.16
49424,-2.74736,13.419,2.78953,34.02,9.31,136.29,-21.5824,-52.8533,43.6742,1020.12
49430,-2.61464,14.9049,2.04824,41.93,7.77,144.2,-21.4185,-51.9491,42.4262,1020.12
49436,-2.43928,16.286,0.579913,48.16,10.08,152.6,-22.2377,-51.8285,43.6593,1020.15
49442,-2.45823,16.5004,-0.489257,46.13,14,162.19,-22.5927,-52.1902,42.8274,1020.15
49448,-1.42972,12.7713,-0.855151,31.71,17.08,179.41,-23.4939,-51.0448,42.3074,1020.16
49454,-0.685588,11.7378,-1.49665,35,19.6,185.92,-24.2584,-50.2009,42.4856,1020.16
49460,-0.704547,12.0616,-2.27121,44.24,27.86,190.68,-24.668,-50.2009,43.1245,1020.16
49466,-0.818299,13.9476,-2.67512,51.31,36.12,196.28,-25.2961,-49.8994,41.5348,1020.16
49472,-1.43446,15.8336,-3.56372,51.87,39.69,203.21,-25.7603,-49.6282,42.6936,1020.16
49478,-4.02234,20.9676,-2.29022,36.82,44.66,223.44,-26.7707,-48.7842,41.8617,1020.12
49484,-9.70049,26.4399,1.06936,29.89,42.98,243.32,-26.5249,-47.8197,43.1988,1020.12
49490,-5.43951,25.1778,-5.37418,13.51,26.95,265.16,-27.5079,-48.4527,41.1783,1020.15
49496,-7.01782,27.921,-5.91589,7.91,28.56,290.85,-27.7537,-46.2825,42.5302,1020.15
49502,-2.71418,24.7253,-7.83565,-29.05,39.06,336.07,-28.136,-46.1619,42.2479,1020.14
49508,-2.61938,21.6154,-2.86994,-40.32,44.66,352.31,-29.6106,-43.5095,40.688,1020.14
49514,-5.7618,20.4009,-1.05948,-26.53,58.73,371.7,-30.2659,-42.8162,40.5543,1020.14
49520,-10.4209,21.0296,-3.24059,-8.05,68.95,395.99,-31.2217,-40.9474,39.8263,1020.14
49526,-7.35434,22.4917,-2.89846,7.7,60.69,421.26,-32.0682,-39.6212,40.2126,1020.14
49532,-5.5817,24.6063,-4.02465,7.63,72.52,458.78,-33.215,-37.7525,38.5338,1020.12
49538,-3.76165,21.582,-3.00775,6.16,77.07,473.9,-33.7066,-35.733,39.0983,1020.12
49544,2.06344,21.1677,-1.31608,21.14,78.4,483.49,-34.6077,-34.4068,37.9247,1020.12
49550,2.48053,26.8113,-2.43277,46.2,96.95,481.95,-34.9354,-32.3572,37.3304,1020.12
49556,-8.97058,22.5393,-1.71524,46.41,147.7,488.53,-35.3723,-30.6994,37.8207,1020.12
49562,-8.80943,18.9293,3.4643,55.79,147.7,496.37,-36.1095,-28.2881,36.5281,1020.14
49568,-5.08403,23.0203,1.75362,93.45,132.65,493.64,-36.9287,-26.6303,35.1613,1020.14
49574,-4.97501,30.6881,-7.41273,112.56,119.07,477.61,-36.9834,-24.7917,33.6311,1020.11
49580,-7.0984,32.6074,-13.0199,1.96,124.53,445.9,-36.8468,-22.1392,34.8048,1020.11
49586,-16.0754,18.2577,-14.6783,-52.78,145.67,435.47,-36.4372,-20.2403,33.2745,1020.11
49592,-18.1893,8.06583,-15.5527,-109.13,166.18,420.84,-37.0926,-17.829,32.1008,1020.11
49598,-25.9245,-2.20229,-23.4265,-177.38,208.46,384.93,-35.8911,-16.2315,32.1454,1020.12
49604,-13.4212,-20.0381,-1.20679,-266.28,181.93,320.53,-36.2461,-15.1163,30.8529,1020.12
49610,8.40041,-20.2144,15.5008,-154.77,-24.22,36.33,-35.618,-14.1517,30.63,1020.12
49616,7.24393,-9.35568,15.6766,4.41,31.99,-34.65,-36.0822,-15.2368,30.7043,1020.12
49622,-3.21185,-1.65935,2.03874,97.02,78.61,-95.27,-36.1915,-16.5631,29.5604,1020.12
49628,-9.0085,4.14147,-7.52678,116.83,64.96,-159.81,-36.683,-16.4726,29.2632,1020.09
49634,-12.5728,6.15127,-6.34831,85.19,39.2,-224.07,-36.1642,-17.1659,29.2632,1020.09
49640,-13.5349,7.97058,-4.62338,74.97,41.58,-229.6,-36.8195,-17.9797,28.4312,1020.11
49646,-13.5776,8.69925,-4.77069,72.59,39.76,-223.3,-36.7103,-18.462,28.1193,1020.11
49652,-14.3833,10.8043,-3.36414,63.42,19.32,-214.13,-37.311,-19.5471,26.7673,1020.13
49658,-11.4494,10.209,-2.71788,40.25,-13.02,-204.33,-37.1472,-19.758,26.6782,1020.13
49664,-5.79972,6.1227,-4.53785,23.87,-9.24,-180.74,-36.8195,-20.2102,25.5788,1020.13
49670,-5.40159,4.73679,-3.66826,24.08,7.35,-173.46,-37.1745,-20.2705,27.0793,1020.1
49676,-7.22637,2.89843,-2.8937,18.13,8.75,-171.99,-36.5465,-20.9034,26.7376,1020.1
49682,-5.92295,0.721935,-1.80552,13.51,0.63,-174.79,-35.8092,-21.5665,27.0347,1020.08
49688,-5.26414,-0.278206,-0.864655,24.15,-3.99,-192.15,-37.1199,-21.3857,27.2873,1020.08
49694,-4.62428,-0.278206,-1.04047,32.41,-5.88,-204.82,-36.8195,-22.0789,25.6233,1020.06
49700,-5.1646,0.25044,-0.722099,40.81,-5.53,-219.87,-37.2018,-22.1392,26.0096,1020.06
49706,-5.17882,0.702885,-0.840896,46.2,-9.17,-236.88,-37.3383,-23.2243,25.4896,1020.06
49712,-5.06507,0.821949,-0.513017,52.36,-12.32,-254.03,-37.4476,-24.1587,24.8508,1020.09
49718,-6.1552,3.06512,-0.612806,66.64,-21,-287.14,-36.9834,-24.7012,24.9251,1020.09
49724,-6.51068,4.77013,-0.969196,67.62,-27.44,-299.46,-37.5841,-25.8165,24.3902,1020.08
49730,-5.97983,4.85109,-0.82664,67.55,-32.9,-310.03,-37.9937,-27.5345,24.2714,1020.08
49736,-6.18364,6.01316,-1.14026,70.28,-34.93,-317.03,-37.1199,-27.5044,23.2463,1020.11
49742,-5.47742,6.75612,-1.33984,69.16,-41.02,-324.1,-37.7206,-29.1923,24.2417,1020.11
49748,-5.212,7.27524,-1.38736,69.16,-42.49,-325.43,-37.2018,-30.609,23.5286,1020.1
49754,-4.48683,7.13713,-1.0975,71.19,-41.3,-326.06,-37.4476,-31.2118,22.964,1020.1
49760,-4.60058,7.44669,-1.04523,74.27,-38.08,-326.97,-37.7206,-33.2313,21.9686,1020.1
49766,-4.10291,7.44669,-0.617558,78.96,-36.4,-328.3,-37.3383,-34.5876,22.0429,1020.08
49772,-3.33508,9.39459,-0.959692,90.23,-31.36,-333.41,-37.2837,-35.4316,21.5229,1020.08
49778,-2.82793,10.1375,-1.41587,94.5,-25.55,-336.49,-37.5568,-36.8784,20.8841,1020.06
49784,-2.90377,11.6854,-1.70574,97.93,-17.99,-339.36,-36.9014,-38.5361,19.9184,1020.06
49790,-2.61938,12.976,-1.95283,98.35,-12.46,-341.74,-36.683,-39.7117,20.8246,1020.1
49796,-1.60983,15.4621,-2.2427,90.44,0.63,-343.28,-36.0003,-41.3694,20.5126,1020.1
49802,-1.47238,16.2479,-1.81978,85.61,9.45,-341.95,-35.5361,-43.419,19.7104,1020.1
49808,-1.64775,16.7004,-0.655573,81.06,15.68,-338.8,-35.6453,-44.685,18.0316,1020.07
49814,-1.78994,17.21,0.299553,78.82,18.83,-333.55,-35.1265,-46.825,17.0808,1020.07
49820,-1.95583,18.0006,1.24042,78.68,20.3,-326.27,-34.5258,-48.9952,17.4522,1020.06
49826,-1.76624,19.0579,2.61847,82.95,17.78,-306.95,-33.9523,-50.6831,16.0705,1020.06
49832,-1.66671,19.5294,3.19344,88.34,14.91,-296.38,-31.9043,-52.582,16.7391,1020.07
49838,-1.4866,20.358,3.4643,94.99,11.41,-286.44,-31.4401,-54.27,17.675,1020.07
49844,-1.44394,20.7295,3.73515,100.73,6.86,-278.39,-30.184,-56.5908,16.5608,1020.09
49850,-1.02685,22.0488,3.54983,109.76,-6.51,-275.52,-28.0541,-57.0128,16.5014,1020.09
49856,-0.140523,22.6346,2.76577,111.93,-13.86,-280.07,-27.2076,-57.7663,16.3974,1020.09
49862,-0.192659,23.8633,1.6776,112.35,-19.11,-288.26,-25.6784,-59.3638,16.5608,1020.08
49868,-0.164221,25.5969,0.9268,108.85,-26.95,-299.39,-24.1492,-58.7007,17.7345,1020.08
49874,0.29079,26.7113,0.118982,98.07,-40.11,-310.94,-22.975,-58.7912,16.0705,1020.1
49880,2.20563,25.7207,-0.0710928,70.14,-64.75,-334.88,-22.1012,-58.9117,16.6796,1020.1
49886,2.42839,24.7301,-0.0330779,60.83,-76.72,-345.87,-22.8658,-58.8213,15.8922,1020.06
49892,2.79809,24.7301,-0.513017,54.32,-91.77,-355.6,-22.1285,-59.7858,14.8374,1020.06
49898,3.83608,23.6156,-0.764866,48.65,-106.61,-361.55,-21.4732,-60.9011,14.2134,1020.11
49904,6.45714,22.5631,-1.04998,45.01,-129.5,-359.38,-21.3639,-61.8053,12.3861,1020.11
49910,8.53786,19.0674,1.52554,48.02,-134.12,-350.07,-20.9816,-64.4879,12.3712,1020.11
49916,11.1731,18.9245,2.87031,61.46,-130.06,-335.37,-21.0909,-66.2964,11.8215,1020.11
49922,12.4718,19.3912,3.39302,86.87,-123.2,-317.8,-20.4082,-69.0392,11.4947,1020.11
49928,14.2919,23.7014,-0.726851,105.56,-121.66,-282.8,-19.8894,-70.7573,11.3312,1020.13
49934,18.4344,27.3828,-5.15084,70.84,-124.81,-264.25,-19.1521,-72.9576,10.8558,1020.13
49940,20.3634,26.4541,-4.74693,45.99,-123.62,-245.49,-18.1417,-74.0126,11.3609,1020.13
49946,23.2451,25.0539,-5.18886,25.06,-124.81,-225.33,-17.5137,-76.5444,11.2718,1020.13
49952,27.3023,21.9916,-5.48822,2.52,-126.07,-203.77,-16.9676,-77.8707,10.529,1020.13
49958,33.8479,13.9143,-2.39,-15.26,-102.97,-148.96,-16.2576,-79.4681,10.529,1020.13
49964,36.905,9.66129,1.09787,-3.01,-84.14,-118.86,-15.6022,-80.9752,11.4649,1020.13
49970,37.4595,8.00391,3.13642,27.16,-64.26,-86.24,-15.3838,-82.0302,12.0295,1020.15
49976,38.1373,7.88961,4.31963,63.84,-44.66,-51.45,-14.6465,-83.266,12.4009,1020.15
49982,34.2175,10.6614,18.504,344.89,98.49,164.71,-15.2745,-84.3511,13.0397,1020.12
49988,24.6434,46.7427,-8.30133,209.93,-23.38,198.66,-16.2576,-85.6471,14.4214,1020.12
49994,22.1361,34.241,-9.91221,31.99,-27.16,239.05,-17.4591,-85.617,13.6043,1020.12
50000,14.799,25.7064,2.33335,-84.56,-15.19,290.64,-19.1248,-85.1649,13.6934,1020.12
50006,12.6472,17.891,9.1808,-134.05,-47.04,323.54,-21.1728,-83.2057,13.7083,1020.12
50012,-18.2177,4.88919,-0.764866,-131.04,17.29,332.99,-22.7293,-82.7536,13.0843,1020.1
50018,-2.51985,-5.61705,12.0367,-181.3,56.28,357.77,-24.9684,-80.9752,12.802,1020.1
50024,-11.6912,0.683834,17.7579,-79.66,-12.95,347.97,-26.9072,-80.9451,10.4993,1020.13
50030,-11.7717,9.68034,4.46219,36.4,-61.95,350.63,-28.3818,-79.8299,11.8364,1020.13
50036,-4.23088,17.9434,10.1217,78.26,-141.26,362.25,-30.5936,-79.0462,12.906,1020.14
50042,10.4006,14.081,-3.53996,84.91,-181.65,328.16,-32.7508,-77.7802,14.1689,1020.14
50048,9.93608,20.4057,-5.22687,69.79,-171.57,300.86,-34.635,-77.1774,16.5459,1020.14
50054,18.6287,20.1056,-6.3103,28.07,-154.28,283.29,-36.2461,-75.3388,17.0213,1020.15
50060,18.1358,21.0915,-8.28232,-36.33,-103.32,259,-38.731,-74.4647,16.6351,1020.15
50066,15.4152,11.0663,-1.80077,-136.92,23.66,211.12,-38.6218,-73.2892,16.0408,1020.13
50072,-0.756683,14.7572,-4.0389,-168.77,55.23,171.43,-39.6867,-72.1136,14.3174,1020.13
50078,4.50438,8.91833,15.5293,-169.05,48.37,147.49,-39.9325,-71.3903,14.2283,1020.11
50084,2.04448,4.48437,7.5509,-127.33,-29.89,74.27,-39.9871,-70.6669,13.0843,1020.11
50090,-1.5103,10.9377,-6.67144,28.42,13.65,47.11,-40.4786,-70.5463,13.0843,1020.15
50096,-6.52964,23.2156,-8.32034,31.85,48.09,53.41,-40.5605,-70.6066,13.0695,1020.15
50102,-3.8754,15.8336,-6.26278,-59.85,-5.6,54.11,-40.5605,-70.275,13.0397,1020.15
