Timestamp,AccX,AccY,AccZ,AngularVelX,AngularVelY,AngularVelZ,MagX,MagY,MagZ,AirPressure
244202,0.45911,9.82305,-0.13869,1.75,-3.01,0.07,19.4215,-48.8352,-20.3642,1023.46
244208,0.483022,9.81827,-0.143472,1.4,-2.52,0.49,19.9154,-46.4914,-20.9109,1023.45
244214,0.492587,9.78479,-0.124342,1.4,-2.45,0.63,20.3513,-50.7164,-21.2803,1023.45
244220,0.49737,9.80392,-0.129125,1.33,-2.73,0.28,19.7701,-49.8221,-20.4972,1023.48
244226,0.506934,9.83261,-0.124342,1.4,-2.66,0.14,19.712,-46.5222,-21.236,1023.48
244232,0.535629,9.85174,-0.167384,1.61,-2.38,0.42,19.8864,-49.5137,-21.7089,1023.44
244238,0.506934,9.81827,-0.133907,1.75,-2.94,0.35,20.235,-51.6416,-20.4529,1023.44
244244,0.449546,9.8374,-0.143472,1.75,-2.52,-0.28,19.6249,-47.7558,-20.837,1023.44
244250,0.45911,9.78001,-0.148254,1.26,-2.8,0.07,19.7701,-47.8483,-20.7484,1023.46
244256,0.487805,9.79914,-0.124342,1.61,-2.73,0.49,19.9735,-51.4257,-20.4972,1023.46
244262,0.473458,9.84696,-0.124342,1.68,-2.52,-0.07,20.7581,-48.6193,-20.7632,1023.47
244268,0.521282,9.82305,-0.162602,1.54,-2.59,0.21,19.3633,-46.7073,-20.7188,1023.47
244274,0.47824,9.78957,-0.162602,1.4,-2.24,-0.35,19.9445,-49.9763,-20.7188,1023.5
244280,0.47824,9.76566,-0.11956,1.68,-2.59,-0.07,20.0026,-50.1613,-19.1525,1023.5
244286,0.492587,9.80392,-0.129125,1.4,-2.1,0.21,19.3633,-46.2447,-21.0291,1023.48
244292,0.487805,9.85174,-0.143472,1.61,-2.38,-0.07,19.8864,-49.2361,-20.7632,1023.48
244298,0.487805,9.79914,-0.153037,1.33,-2.38,-0.07,20.0898,-51.3949,-20.3051,1023.48
244304,0.45911,9.80392,-0.11956,1.47,-2.8,-0.07,20.0026,-47.2624,-20.837,1023.47
244310,0.463893,9.81827,-0.124342,1.54,-3.08,-0.14,19.1309,-47.8792,-21.768,1023.47
244316,0.521282,9.8374,-0.133907,1.4,-2.52,-0.14,20.6709,-51.2407,-19.6402,1023.44
244322,0.49737,9.83261,-0.162602,1.89,-2.52,0.21,20.235,-48.8969,-19.7584,1023.44
244328,0.449546,9.81827,-0.10043,1.68,-2.8,0.21,19.2762,-47.0465,-20.3938,1023.46
244334,0.473458,9.79436,-0.129125,1.68,-3.01,0.49,19.7992,-50.5005,-20.6745,1023.46
244340,0.463893,9.82783,-0.162602,1.61,-2.52,0.21,20.4094,-50.9015,-19.7879,1023.48
244346,0.487805,9.79914,-0.148254,1.4,-3.22,0.07,19.5377,-46.5839,-20.8962,1023.48
244352,0.492587,9.79914,-0.124342,1.89,-3.08,0.14,19.3924,-49.6679,-19.4481,1023.48
244358,0.483022,9.85174,-0.114778,1.54,-2.38,-0.07,20.1769,-51.7033,-20.5563,1023.5
244364,0.487805,9.84696,-0.13869,1.54,-2.52,0,19.9445,-47.2007,-20.3199,1023.5
244370,0.463893,9.84218,-0.143472,1.19,-2.66,-0.35,19.0147,-47.4782,-21.3099,1023.45
244376,0.468675,9.8374,-0.129125,1.4,-2.66,0.07,19.3633,-50.5622,-20.6154,1023.45
244382,0.45911,9.81827,-0.133907,1.68,-2.59,0.28,18.9275,-47.5708,-19.9505,1023.46
244388,0.487805,9.80392,-0.095648,1.82,-2.66,-0.14,19.5086,-47.3857,-20.7927,1023.46
244394,0.49737,9.85174,-0.114778,1.4,-2.31,0.21,19.5958,-51.2715,-20.2755,1023.49
244400,0.506934,9.86609,-0.148254,1.47,-2.59,0.14,20.235,-49.9763,-20.0982,1023.49
244406,0.521282,9.86609,-0.181731,1.47,-2.45,0.07,19.189,-46.4605,-22.492,1023.49
244412,0.454328,9.81349,-0.124342,1.19,-2.59,0,19.189,-50.2538,-20.2608,1023.43
244418,0.47824,9.83261,-0.124342,1.68,-2.8,0.07,19.9154,-51.4566,-19.8027,1023.43
244424,0.483022,9.8374,-0.105213,1.75,-2.66,0.21,19.3924,-47.4782,-20.97,1023.47
244430,0.47824,9.84218,-0.114778,1.96,-2.59,0,19.0437,-48.2184,-22.492,1023.47
244436,0.468675,9.84218,-0.162602,1.54,-2.38,0.35,19.683,-51.5183,-20.4085,1023.47
244442,0.473458,9.81827,-0.148254,1.54,-2.52,0.14,19.4796,-47.9408,-20.3199,1023.47
244448,0.473458,9.80392,-0.133907,1.75,-2.59,0.07,19.189,-46.6147,-21.1769,1023.45
244454,0.463893,9.81349,-0.124342,1.54,-2.87,0,19.2762,-51.0557,-20.6154,1023.45
244460,0.473458,9.83261,-0.148254,1.89,-2.66,0.21,20.1188,-50.0379,-20.2017,1023.43
244466,0.511717,9.83261,-0.13869,1.4,-2.66,0.35,18.9856,-46.6147,-21.2065,1023.43
244472,0.49737,9.84696,-0.13869,1.54,-2.59,0.49,19.1018,-49.5137,-20.5858,1023.43
244478,0.45911,9.82783,-0.162602,1.4,-2.38,0.42,20.2932,-51.1482,-20.9553,1023.46
244484,0.483022,9.84218,-0.133907,1.4,-2.59,0.07,19.712,-47.1082,-19.9948,1023.46
244490,0.473458,9.82305,-0.148254,1.19,-2.24,-0.28,18.9565,-48.496,-21.4281,1023.46
244496,0.502152,9.82783,-0.148254,1.61,-2.52,0.21,19.3052,-51.0865,-20.113,1023.46
244502,0.483022,9.8087,-0.11956,1.61,-2.87,0.07,19.4796,-48.1259,-21.1917,1023.44
244508,0.492587,9.83261,-0.129125,1.68,-2.59,0,19.189,-47.2007,-21.1178,1023.44
244514,0.511717,9.88044,-0.181731,1.33,-2.31,-0.14,19.5086,-50.7473,-19.8766,1023.44
244520,0.483022,9.8087,-0.129125,1.33,-2.45,0,19.2181,-50.1305,-19.4333,1023.44
244526,0.521282,9.84696,-0.148254,1.82,-2.38,0.07,19.0437,-45.9979,-21.2951,1023.44
244532,0.487805,9.84218,-0.157819,1.47,-2.17,0.07,18.8403,-49.5445,-20.6745,1023.42
244538,0.483022,9.82305,-0.129125,1.05,-2.45,0.07,20.0316,-50.6239,-19.8175,1023.42
244544,0.483022,9.81827,-0.095648,1.19,-2.03,-0.21,19.7701,-47.6941,-20.1721,1023.45
244550,0.473458,9.8087,-0.095648,1.19,-2.24,0.07,18.9565,-46.7998,-22.0044,1023.45
244556,0.449546,9.81349,-0.095648,1.61,-2.45,0.07,19.3924,-51.2715,-20.1278,1023.43
244562,0.45911,9.81827,-0.114778,1.47,-2.94,0.35,18.7822,-48.496,-20.3938,1023.43
244568,0.463893,9.84696,-0.109995,1.4,-2.8,0,18.4916,-46.6764,-21.8862,1023.44
244574,0.444763,9.79914,-0.124342,1.61,-2.73,-0.07,19.3052,-50.1305,-20.6745,1023.44
244580,0.492587,9.85174,-0.124342,1.82,-2.73,0.07,19.5958,-49.452,-20.1869,1023.44
244586,0.468675,9.8374,-0.11956,1.4,-2.45,0.21,20.1188,-47.0157,-20.8814,1023.45
244592,0.502152,9.81349,-0.129125,1.12,-2.38,-0.07,20.0026,-49.0511,-20.246,1023.45
244598,0.492587,9.82305,-0.129125,1.61,-2.59,-0.28,19.2762,-50.6547,-20.1573,1023.45
244604,0.463893,9.83261,-0.11956,1.33,-1.96,-0.35,19.3633,-47.725,-20.3347,1023.45
244610,0.468675,9.80392,-0.133907,1.61,-2.66,0.07,19.0728,-48.0025,-20.1721,1023.45
244616,0.45911,9.82305,-0.148254,1.19,-2.31,0.21,19.1599,-51.8575,-19.6993,1023.45
244622,0.502152,9.82305,-0.162602,1.61,-2.87,0.21,19.3343,-47.7866,-20.4085,1023.44
244628,0.473458,9.78479,-0.109995,1.82,-2.45,-0.07,19.3343,-46.0905,-22.5659,1023.44
244634,0.487805,9.84696,-0.109995,1.4,-2.17,0,19.2181,-50.6547,-18.9457,1023.46
244640,0.487805,9.82783,-0.129125,1.26,-2.59,-0.14,19.189,-49.9763,-18.6501,1023.46
244646,0.487805,9.80392,-0.0669536,1.96,-3.22,-0.63,19.5667,-46.9848,-21.2803,1023.46
244652,0.559541,9.84218,-0.153037,1.61,-2.73,-0.28,18.9856,-49.8221,-20.97,1023.46
244658,0.511717,9.87087,-0.167384,1.12,-2.52,0,18.9856,-51.4566,-19.6254,1023.46
244664,0.45911,9.81827,-0.095648,1.68,-2.24,-0.49,19.0437,-47.139,-20.3642,1023.43
244670,0.463893,9.81349,-0.114778,1.82,-2.24,-0.14,18.8984,-48.1567,-21.5611,1023.43
244676,0.463893,9.84696,-0.124342,1.54,-2.59,-0.56,19.5958,-52.0117,-19.7584,1023.43
244682,0.487805,9.79914,-0.148254,1.54,-2.1,-0.35,19.3924,-48.7118,-20.1869,1023.43
244688,0.416069,9.84696,-0.167384,1.54,-2.31,-0.28,18.6079,-46.8306,-21.1474,1023.47
244694,0.420851,9.8374,-0.109995,1.54,-2.66,-0.14,19.1018,-51.1482,-20.2312,1023.47
244700,0.468675,9.78479,-0.124342,1.61,-2.31,0.14,20.0898,-49.8221,-20.0539,1023.47
244706,0.473458,9.81349,-0.133907,1.68,-2.52,0.28,18.9856,-46.9231,-20.246,1023.42
244712,0.449546,9.81349,-0.109995,1.4,-2.73,0.14,18.7532,-50.2847,-21.2508,1023.42
244718,0.492587,9.79914,-0.129125,1.75,-2.45,-0.07,19.7992,-51.2715,-19.5072,1023.45
244724,0.483022,9.8374,-0.181731,1.61,-2.38,-0.07,19.8864,-47.2932,-20.512,1023.45
244730,0.487805,9.81349,-0.133907,1.61,-2.59,0.14,18.7822,-48.4343,-21.7089,1023.46
244736,0.449546,9.76566,-0.114778,1.68,-2.17,-0.07,19.8283,-51.765,-19.0491,1023.46
244742,0.468675,9.81827,-0.13869,0.98,-2.59,0.28,19.3924,-48.4034,-20.246,1023.46
244748,0.473458,9.81827,-0.191296,1.26,-2.38,-0.28,18.8403,-46.4914,-22.0783,1023.46
244754,0.511717,9.85174,-0.148254,1.75,-2.73,0.14,19.5667,-50.4697,-20.9553,1023.46
244760,0.468675,9.81349,-0.10043,1.54,-2.52,0.14,19.9154,-50.2538,-19.7288,1023.43
244766,0.444763,9.8087,-0.11956,1.96,-2.03,0.21,19.4505,-46.368,-21.7236,1023.43
244772,0.483022,9.83261,-0.143472,1.68,-2.59,0.21,19.0437,-49.4212,-19.4924,1023.44
244778,0.487805,9.84696,-0.13869,1.33,-2.66,0.21,19.4505,-50.6856,-20.3494,1023.44
244784,0.454328,9.84696,-0.157819,1.68,-2.8,-0.14,19.189,-47.4782,-21.4724,1023.45
244790,0.449546,9.8087,-0.095648,1.26,-2.59,-0.21,19.683,-48.496,-20.9996,1023.45
244796,0.444763,9.80392,-0.095648,1.89,-3.01,0.21,19.712,-50.9631,-18.8866,1023.44
244802,0.444763,9.8374,-0.133907,1.68,-2.66,0.35,19.683,-47.6016,-20.0687,1023.44
244808,0.487805,9.85653,-0.157819,1.47,-2.87,0.35,18.8113,-46.954,-21.9157,1023.47
244814,0.483022,9.83261,-0.13869,1.33,-1.96,0,19.189,-51.3949,-19.847,1023.47
244820,0.468675,9.79436,-0.167384,1.68,-2.17,0.14,20.0607,-50.1613,-19.9061,1023.47
244826,0.483022,9.79436,-0.157819,1.47,-2.66,0.21,19.7992,-47.139,-21.8714,1023.47
244832,0.468675,9.8087,-0.129125,1.54,-2.59,0.35,19.5377,-49.8221,-20.5858,1023.47
244838,0.47824,9.8374,-0.11956,1.26,-2.73,0.21,19.3343,-51.3024,-20.0243,1023.45
244844,0.439981,9.79436,-0.105213,1.61,-2.8,0.28,19.712,-47.0465,-21.2656,1023.45
244850,0.463893,9.82305,-0.124342,1.68,-2.8,0.49,19.4215,-48.6502,-22.0044,1023.43
244856,0.45911,9.8087,-0.124342,1.68,-2.59,0.21,19.6539,-51.8267,-19.8323,1023.43
244862,0.49737,9.84218,-0.157819,1.61,-2.66,0.14,20.1188,-48.9277,-21.1621,1023.46
244868,0.483022,9.84696,-0.133907,1.47,-2.94,0.49,19.5377,-46.2755,-21.8714,1023.46
244874,0.47824,9.8374,-0.143472,1.54,-2.1,-0.21,19.9735,-50.223,-20.2164,1023.46
244880,0.463893,9.82783,-0.176949,1.26,-2.38,0.56,19.5667,-50.0379,-20.3642,1023.45
244886,0.468675,9.79436,-0.114778,1.47,-2.66,0,18.8403,-46.0288,-20.9996,1023.45
244892,0.449546,9.79914,-0.109995,1.96,-2.8,-0.14,18.6079,-49.0202,-21.3099,1023.45
244898,0.444763,9.8374,-0.129125,2.03,-2.38,-0.28,19.2471,-51.1173,-19.8323,1023.45
244904,0.492587,9.81349,-0.133907,1.47,-1.96,0.14,19.5086,-48.0642,-22.0783,1023.48
244910,0.435198,9.78957,-0.105213,1.47,-3.08,-0.35,18.7241,-48.6502,-20.4529,1023.48
244916,0.444763,9.82783,-0.10043,1.82,-2.87,0.07,20.4675,-51.6725,-19.4185,1023.44
244922,0.473458,9.8374,-0.148254,1.54,-2.52,0.28,19.6249,-48.1876,-19.6993,1023.44
244928,0.468675,9.87087,-0.148254,1.75,-2.87,0.07,19.4505,-47.2932,-21.6497,1023.44
244934,0.468675,9.82305,-0.114778,1.75,-2.52,-0.21,19.5086,-51.2099,-20.4676,1023.45
244940,0.473458,9.81349,-0.114778,1.12,-2.24,0.21,20.3222,-49.6679,-20.6154,1023.45
244946,0.435198,9.77044,-0.0813008,1.4,-2.31,0.14,19.4796,-46.368,-21.7975,1023.45
244952,0.439981,9.8087,-0.153037,1.61,-2.66,0,19.3343,-49.1744,-21.6793,1023.45
244958,0.530846,9.82305,-0.210426,1.12,-2.38,0.07,20.0026,-50.994,-20.6745,1023.44
244964,0.420851,9.77044,-0.047824,1.47,-2.31,0,19.0147,-46.6147,-20.1869,1023.44
244970,0.435198,9.77044,-0.0573888,1.61,-2.59,0,19.2181,-49.7295,-21.1769,1023.42
244976,0.506934,9.85653,-0.143472,1.89,-2.31,0.07,20.206,-51.0557,-19.389,1023.42
244982,0.483022,9.85174,-0.153037,1.82,-2.45,0.28,20.0898,-48.4651,-20.645,1023.41
244988,0.454328,9.84218,-0.143472,1.54,-2.24,-0.07,19.4505,-46.8306,-21.6941,1023.41
244994,0.444763,9.8087,-0.13869,1.47,-2.31,-0.35,19.1599,-50.4697,-19.5663,1023.41
245000,0.463893,9.80392,-0.124342,1.61,-2.66,-0.21,19.7992,-50.408,-19.3594,1023.45
245006,0.468675,9.83261,-0.105213,1.4,-2.52,0.42,19.0147,-46.368,-21.3394,1023.45
245012,0.487805,9.83261,-0.129125,1.54,-2.59,0.14,18.8113,-49.2361,-20.1426,1023.46
245018,0.45911,9.82783,-0.157819,1.54,-2.8,0.49,19.7411,-50.8706,-18.6206,1023.46
245024,0.454328,9.80392,-0.109995,1.54,-2.17,0,19.683,-46.2138,-19.2116,1023.44
245030,0.492587,9.84218,-0.129125,1.68,-2.45,0.28,19.5667,-47.8175,-20.837,1023.44
245036,0.492587,9.84218,-0.143472,1.33,-2.03,0.56,20.1188,-51.1482,-19.4776,1023.43
245042,0.506934,9.85174,-0.129125,1.68,-2.73,-0.28,19.3633,-48.681,-19.4333,1023.43
245048,0.483022,9.83261,-0.109995,1.61,-2.59,0.28,19.6539,-47.6324,-21.0439,1023.43
245054,0.454328,9.82305,-0.071736,1.47,-2.8,0,19.9154,-50.5931,-20.2164,1023.44
245060,0.45911,9.8374,-0.129125,1.61,-2.52,0,20.4966,-50.0996,-19.5367,1023.44
245066,0.47824,9.81827,-0.10043,1.82,-2.59,0.07,19.5377,-46.183,-20.5267,1023.44
245072,0.47824,9.80392,-0.153037,1.75,-2.66,-0.42,19.4796,-49.8529,-21.4429,1023.44
245078,0.468675,9.82783,-0.13869,1.75,-2.38,0.35,19.5086,-50.6239,-19.5663,1023.45
245084,0.454328,9.82305,-0.133907,1.61,-2.73,0.07,19.6539,-46.6456,-19.8766,1023.45
245090,0.473458,9.85174,-0.124342,1.4,-2.38,-0.35,19.1018,-47.4166,-20.1426,1023.48
245096,0.492587,9.82783,-0.11956,1.47,-2.38,0.21,20.3513,-51.0557,-19.123,1023.48
245102,0.454328,9.82783,-0.129125,1.75,-2.87,0.35,19.4215,-48.3418,-19.6402,1023.48
245108,0.468675,9.8087,-0.124342,1.61,-2.52,0.21,19.5086,-46.7689,-21.4724,1023.42
245114,0.439981,9.85653,-0.162602,1.19,-2.38,0.14,19.9154,-51.3024,-19.5958,1023.42
245120,0.449546,9.82783,-0.133907,1.68,-2.24,0.35,20.7,-49.6987,-20.0096,1023.47
245126,0.483022,9.85174,-0.129125,1.33,-2.24,0.14,18.8403,-45.9671,-21.502,1023.47
245132,0.454328,9.83261,-0.133907,1.61,-2.59,-0.14,20.0607,-49.9146,-20.9405,1023.43
245138,0.483022,9.82783,-0.153037,1.54,-2.1,0.21,20.4384,-50.7781,-19.5811,1023.43
245144,0.444763,9.81349,-0.124342,1.61,-2.59,0.21,19.7411,-46.2447,-21.6497,1023.41
245150,0.468675,9.83261,-0.148254,1.47,-2.52,0.21,19.2471,-47.9717,-20.4824,1023.41
245156,0.487805,9.84696,-0.11956,1.61,-2.38,0.35,20.2641,-51.8267,-19.5072,1023.41
245162,0.449546,9.8374,-0.109995,1.75,-2.52,-0.28,19.5958,-47.4166,-19.9357,1023.44
245168,0.463893,9.82305,-0.0908656,2.03,-3.01,0.07,18.695,-47.5708,-20.9109,1023.44
245174,0.449546,9.83261,-0.157819,1.75,-2.59,0,19.8283,-51.0557,-19.6697,1023.42
245180,0.468675,9.8374,-0.129125,1.61,-2.24,-0.14,20.4094,-49.6987,-20.1721,1023.42
245186,0.492587,9.8087,-0.105213,1.89,-2.8,0.21,18.8984,-45.9054,-21.2508,1023.45
245192,0.492587,9.8087,-0.109995,1.61,-2.73,-0.21,19.7411,-49.6987,-20.4233,1023.45
245198,0.454328,9.84218,-0.143472,1.4,-2.8,-0.28,19.9735,-50.5931,-19.6106,1023.41
245204,0.439981,9.8087,-0.148254,1.47,-2.38,0.28,19.8864,-46.5222,-20.1573,1023.41
245210,0.468675,9.81349,-0.109995,1.54,-2.45,-0.14,20.1769,-48.3109,-21.0587,1023.44
245216,0.492587,9.84696,-0.157819,1.61,-2.87,-0.21,19.712,-51.7958,-19.5811,1023.44
245222,0.45911,9.8374,-0.176949,1.89,-2.52,0,19.7411,-47.8175,-19.5811,1023.44
245228,0.444763,9.78957,-0.095648,1.19,-2.59,-0.21,19.2181,-47.1082,-21.8418,1023.43
245234,0.454328,9.78957,-0.124342,1.68,-2.45,0.21,20.3222,-51.2099,-20.2312,1023.43
245240,0.449546,9.8087,-0.129125,1.61,-2.45,0.14,19.6539,-49.6679,-19.6993,1023.42
245246,0.444763,9.81349,-0.114778,1.4,-2.38,0.07,19.2762,-46.7381,-20.7779,1023.42
245252,0.463893,9.79436,-0.124342,1.54,-2.52,0.35,19.3924,-49.7295,-21.635,1023.43
245258,0.473458,9.78957,-0.095648,1.54,-2.45,0.07,20.3222,-51.4874,-20.6006,1023.43
245264,0.492587,9.81349,-0.176949,1.47,-2.38,0,19.1309,-47.324,-21.0144,1023.48
245270,0.487805,9.86131,-0.176949,1.33,-2.38,0.21,20.0898,-48.4343,-21.0587,1023.48
245276,0.449546,9.79914,-0.143472,1.47,-2.1,0.21,19.5958,-51.3024,-20.9257,1023.48
245282,0.45911,9.81349,-0.0908656,1.33,-2.45,0.14,20.9905,-48.3109,-19.98,1023.45
245288,0.483022,9.80392,-0.109995,2.03,-2.31,0.49,19.5086,-47.3549,-20.6302,1023.45
245294,0.483022,9.82305,-0.143472,1.33,-2.17,-0.42,19.3924,-51.3024,-19.7436,1023.44
245300,0.449546,9.81827,-0.105213,1.61,-2.31,0,19.8573,-50.4389,-19.1525,1023.44
245306,0.449546,9.86609,-0.129125,1.54,-2.52,0.21,20.0026,-46.0288,-21.6202,1023.44
245312,0.449546,9.83261,-0.105213,1.61,-2.38,0.28,19.7992,-50.1921,-19.5663,1023.44
245318,0.47824,9.8087,-0.129125,1.47,-2.59,-0.42,20.4675,-51.0865,-18.9309,1023.42
245324,0.483022,9.83261,-0.143472,2.03,-2.59,0,19.5377,-47.0773,-21.1621,1023.42
245330,0.492587,9.84696,-0.143472,1.54,-2.24,0,19.0728,-48.4343,-21.0735,1023.42
245336,0.435198,9.81827,-0.143472,1.89,-2.45,0.07,19.8573,-51.765,-20.1573,1023.46
245342,0.47824,9.82783,-0.0860832,2.03,-2.52,0.14,19.1018,-49.0819,-19.3594,1023.46
245348,0.444763,9.84696,-0.143472,1.61,-2.45,0.14,19.683,-47.2007,-20.4676,1023.44
245354,0.473458,9.83261,-0.129125,1.61,-2.66,-0.49,19.6249,-51.7033,-19.389,1023.44
245360,0.439981,9.8087,-0.105213,1.61,-2.94,0.14,19.6249,-50.1613,-18.8718,1023.45
245366,0.444763,9.82305,-0.13869,1.68,-2.66,0.35,19.3343,-46.954,-20.8223,1023.45
245372,0.439981,9.84218,-0.129125,1.47,-2.03,-0.35,19.1309,-50.223,-20.9109,1023.48
245378,0.487805,9.84696,-0.186514,1.61,-2.1,-0.07,19.7701,-51.4257,-21.0882,1023.48
245384,0.483022,9.82305,-0.148254,1.61,-2.52,0.35,19.6249,-47.4166,-21.2656,1023.45
245390,0.435198,9.81827,-0.13869,1.54,-2.24,0,19.189,-49.3595,-20.5711,1023.45
245396,0.502152,9.82783,-0.124342,1.54,-2.52,-0.28,19.8283,-52.1659,-19.3299,1023.45
245402,0.468675,9.84218,-0.153037,1.61,-2.24,0.21,19.9154,-48.8969,-20.9553,1023.44
245408,0.47824,9.80392,-0.167384,1.54,-2.94,0,19.9445,-47.0773,-22.2851,1023.44
245414,0.487805,9.8374,-0.124342,1.82,-2.59,0.35,20.5256,-51.3332,-19.8618,1023.44
245420,0.468675,9.81827,-0.095648,1.89,-2.31,-0.42,20.6128,-49.8837,-19.9948,1023.44
245426,0.425634,9.79436,-0.114778,1.89,-2.66,-0.91,19.712,-47.1082,-21.6793,1023.44
245432,0.47824,9.79914,-0.129125,2.03,-2.73,-0.21,20.3803,-50.6856,-20.4381,1023.44
245438,0.444763,9.83261,-0.105213,2.24,-2.38,-0.14,19.6249,-51.2715,-19.7436,1023.46
245444,0.430416,9.79914,-0.13869,1.75,-2.45,-0.63,19.2762,-46.5839,-20.4529,1023.46
245450,0.430416,9.81349,-0.129125,1.82,-2.17,-0.35,19.3343,-49.0202,-22.1078,1023.46
245456,0.463893,9.82783,-0.133907,1.68,-2.52,0.07,19.712,-52.0734,-19.4333,1023.44
245462,0.468675,9.82305,-0.129125,1.82,-2.73,0.07,19.1018,-47.6633,-21.1326,1023.44
245468,0.439981,9.81827,-0.148254,1.75,-2.31,-0.7,19.189,-47.725,-21.5906,1023.44
245474,0.454328,9.81349,-0.133907,1.89,-2.17,0.07,19.7701,-51.3641,-21.6793,1023.44
245480,0.487805,9.81349,-0.129125,1.61,-2.17,-17.85,19.5667,-50.5314,-20.5415,1023.41
245486,0.435198,9.83261,-0.143472,2.03,-2.52,0.14,18.4335,-47.1082,-22.6693,1023.41
245492,0.449546,9.81349,-0.167384,1.68,-2.38,0,19.9735,-50.6856,-20.7336,1023.43
245498,0.473458,9.82783,-0.148254,1.68,-2.24,0,19.683,-51.1173,-21.5463,1023.43
245504,0.444763,9.8087,-0.13869,2.03,-2.66,0.07,19.9445,-47.2624,-21.369,1023.43
245510,0.473458,9.82783,-0.11956,1.68,-2.17,-0.07,19.4215,-48.1876,-20.6745,1023.46
245516,0.492587,9.8374,-0.186514,1.68,-2.52,-0.28,19.8864,-52.0117,-19.5663,1023.46
245522,0.473458,9.85653,-0.148254,1.54,-2.17,0.35,19.3633,-48.2801,-20.7188,1023.47
245528,0.444763,9.83261,-0.11956,1.75,-2.45,-0.07,19.7992,-47.0465,-20.9257,1023.47
245534,0.463893,9.84696,-0.148254,1.54,-2.73,-0.14,19.7992,-52.3509,-20.8666,1023.45
245540,0.45911,9.8374,-0.114778,1.26,-2.52,0.35,20.2932,-50.1305,-19.9652,1023.45
245546,0.45911,9.81349,-0.105213,1.89,-2.31,0.28,18.9856,-46.4605,-21.5168,1023.44
245552,0.473458,9.78957,-0.133907,1.26,-2.31,0.35,19.6539,-50.6239,-19.8027,1023.44
245558,0.449546,9.84696,-0.157819,1.47,-2.17,0.14,19.7701,-52.0425,-19.5367,1023.44
245564,0.45911,9.81349,-0.13869,1.61,-2.52,-0.28,19.4505,-47.4474,-21.1917,1023.44
245570,0.430416,9.81827,-0.129125,1.96,-2.66,0.28,19.3052,-48.8044,-22.1078,1023.44
245576,0.487805,9.8087,-0.176949,1.33,-2.59,0.07,19.3924,-53.0911,-19.8027,1023.44
245582,0.468675,9.81827,-0.176949,1.4,-2.1,-0.42,19.4215,-48.3726,-20.0243,1023.44
245588,0.406504,9.79914,-0.129125,1.12,-2.73,0.49,18.8403,-47.7558,-20.6893,1023.44
245594,0.430416,9.78957,-0.129125,1.4,-2.66,0.49,19.4215,-51.7033,-21.3985,1023.44
245600,0.468675,9.84218,-0.172166,1.47,-1.96,-0.21,19.5667,-49.7604,-19.1525,1023.44
245606,0.411286,9.8087,-0.143472,1.26,-2.31,0.42,19.0728,-47.4474,-22.5659,1023.44
245612,0.444763,9.81827,-0.109995,1.68,-2.94,0.56,19.5667,-50.3463,-19.7288,1023.42
245618,0.454328,9.86131,-0.172166,1.75,-2.66,0.14,19.5958,-51.5183,-19.123,1023.42
245624,0.487805,9.85174,-0.191296,1.19,-2.31,0.35,19.3052,-47.3549,-21.5611,1023.42
245630,0.454328,9.81349,-0.124342,1.82,-2.45,-0.21,19.1309,-48.9586,-21.3247,1023.43
245636,0.449546,9.82305,-0.109995,1.33,-2.52,0.28,19.1309,-51.7958,-19.6254,1023.43
245642,0.439981,9.81827,-0.143472,1.75,-2.45,0.21,19.3343,-48.1567,-20.7927,1023.41
245648,0.449546,9.85653,-0.176949,1.75,-2.66,0,19.7411,-48.0334,-21.9305,1023.41
245654,0.454328,9.79914,-0.105213,1.96,-2.66,-0.28,19.3924,-51.8575,-20.6745,1023.41
245660,0.45911,9.80392,-0.129125,1.68,-2.66,0,19.1018,-49.8837,-20.2164,1023.41
245666,0.463893,9.8087,-0.13869,1.61,-2.87,-0.07,18.7822,-47.3857,-21.3542,1023.46
245672,0.454328,9.8087,-0.167384,1.89,-2.8,-0.14,19.1018,-50.1305,-20.2312,1023.46
245678,0.473458,9.81827,-0.129125,1.54,-2.66,-0.07,19.8283,-51.1173,-20.1426,1023.46
245684,0.45911,9.81827,-0.157819,1.54,-2.24,0.21,19.3924,-46.368,-21.8566,1023.45
245690,0.468675,9.8374,-0.172166,1.68,-2.87,-0.07,19.9735,-47.9717,-20.8223,1023.45
245696,0.463893,9.85174,-0.191296,1.19,-2.17,0.28,19.7701,-51.5799,-20.2312,1023.45
245702,0.449546,9.82783,-0.162602,1.4,-2.94,0.35,19.7411,-48.2492,-20.6893,1023.45
245708,0.425634,9.81349,-0.11956,1.75,-2.8,-0.14,19.4215,-47.0465,-21.5906,1023.45
245714,0.45911,9.8087,-0.181731,1.12,-1.82,0.28,19.8573,-50.5622,-20.6006,1023.45
245720,0.430416,9.82783,-0.13869,1.61,-2.45,0.21,20.1479,-50.2847,-20.6893,1023.44
245726,0.411286,9.79436,-0.13869,1.75,-2.66,0.49,19.3052,-46.2755,-22.2113,1023.44
245732,0.468675,9.79914,-0.167384,1.82,-2.66,0.42,19.3052,-49.9146,-21.103,1023.44
245738,0.468675,9.82783,-0.200861,1.89,-2.52,-0.07,19.5086,-50.6856,-20.5711,1023.44
245744,0.49737,9.8087,-0.124342,1.61,-2.52,0.42,19.189,-47.3549,-21.8123,1023.44
245750,0.439981,9.81349,-0.129125,2.1,-2.94,17.71,19.6249,-48.0642,-21.4133,1023.44
245756,0.439981,9.82305,-0.157819,1.68,-2.38,0.14,19.6249,-51.1482,-19.3594,1023.44
245762,0.47824,9.82783,-0.143472,1.4,-2.45,-0.21,19.7411,-47.4474,-21.7827,1023.45
245768,0.468675,9.83261,-0.148254,1.61,-2.8,0.21,19.4796,-47.0157,-22.4625,1023.45
245774,0.487805,9.81827,-0.172166,1.61,-2.94,0.35,19.712,-50.4389,-19.7731,1023.43
245780,0.416069,9.80392,-0.124342,1.82,-2.8,0,19.5958,-49.0819,-19.6106,1023.43
245786,0.435198,9.81349,-0.13869,1.54,-3.08,-0.07,19.5958,-46.4297,-22.1521,1023.43
245792,0.439981,9.84218,-0.124342,2.17,-2.52,0.35,19.3633,-50.408,-19.5663,1023.43
245798,0.444763,9.81349,-0.153037,1.47,-2.45,0.28,20.1769,-50.1921,-20.0391,1023.43
245804,0.483022,9.8087,-0.13869,1.33,-2.8,0.35,20.0026,-47.0465,-20.7632,1023.43
245810,0.45911,9.8087,-0.129125,1.61,-2.66,0.28,19.189,-48.8969,-20.9257,1023.43
245816,0.435198,9.81827,-0.109995,1.26,-2.52,0.77,20.3803,-51.8575,-20.5563,1023.44
245822,0.463893,9.78001,-0.13869,1.54,-2.31,0.7,20.235,-47.3549,-20.8518,1023.44
245828,0.47824,9.82305,-0.13869,1.47,-2.45,-0.07,18.9275,-46.6764,-22.2113,1023.43
245834,0.463893,9.78479,-0.143472,1.26,-2.45,0.28,18.9856,-51.0248,-21.8123,1023.43
245840,0.45911,9.79914,-0.129125,1.54,-2.59,0.21,20.4094,-50.0071,-20.3199,1023.44
245846,0.526064,9.85174,-0.157819,1.68,-2.52,0.14,19.4505,-46.4914,-21.8566,1023.44
245852,0.449546,9.86131,-0.148254,1.05,-1.82,0.21,18.5498,-50.8706,-20.2164,1023.44
245858,0.416069,9.81827,-0.109995,1.33,-2.38,0,19.9735,-51.1482,-20.1869,1023.44
245864,0.463893,9.81349,-0.148254,1.75,-2.73,-0.28,19.3343,-47.5399,-21.8862,1023.44
245870,0.511717,9.84218,-0.191296,1.54,-2.38,-0.07,19.1018,-48.6502,-21.7532,1023.41
245876,0.47824,9.88044,-0.172166,1.54,-2.31,-0.28,19.683,-51.6108,-21.6941,1023.41
245882,0.454328,9.82305,-0.167384,1.4,-2.17,-0.07,18.9275,-46.9848,-21.3838,1023.43
245888,0.416069,9.79436,-0.10043,1.61,-2.87,-0.42,19.2762,-47.4166,-21.9305,1023.43
245894,0.392157,9.80392,-0.105213,1.54,-2.73,-0.42,18.7241,-51.3024,-19.7584,1023.47
245900,0.449546,9.81827,-0.13869,1.89,-2.45,0.42,20.729,-48.9277,-20.7927,1023.47
245906,0.454328,9.84218,-0.153037,1.68,-2.38,-0.07,19.5086,-46.7073,-21.3247,1023.44
245912,0.420851,9.81349,-0.153037,1.96,-2.59,-0.21,19.1599,-49.6987,-20.7041,1023.44
245918,0.430416,9.83261,-0.129125,1.82,-2.73,0.14,19.5086,-50.7473,-19.9652,1023.44
245924,0.454328,9.79914,-0.153037,1.96,-2.52,0.21,18.9856,-47.5399,-21.0587,1023.46
245930,0.439981,9.81827,-0.167384,1.61,-2.52,0.21,19.0728,-48.9586,-22.4181,1023.46
245936,0.449546,9.82305,-0.162602,1.4,-2.52,0.28,20.1479,-51.7033,-20.512,1023.45
245942,0.454328,9.83261,-0.133907,1.47,-2.73,0.35,19.3633,-47.4782,-21.1178,1023.45
245948,0.430416,9.82305,-0.133907,1.75,-2.59,0.28,18.6079,-47.5399,-20.7779,1023.47
245954,0.449546,9.83261,-0.148254,1.26,-2.52,0.28,19.2762,-51.0248,-19.7436,1023.47
245960,0.468675,9.8374,-0.157819,1.54,-2.03,0.42,19.7411,-49.0819,-18.9457,1023.45
245966,0.435198,9.8087,-0.143472,1.68,-2.45,0.28,19.0728,-46.5531,-21.3985,1023.45
245972,0.425634,9.84696,-0.133907,1.4,-2.73,0.35,19.3343,-50.6856,-20.4085,1023.45
245978,0.483022,9.79436,-0.133907,1.54,-2.59,0,20.3513,-51.6416,-19.5072,1023.47
245984,0.454328,9.74653,-0.095648,1.89,-2.73,0.21,19.5086,-46.8615,-20.4676,1023.47
245990,0.511717,9.88522,-0.196078,1.82,-2.59,0,19.0147,-49.637,-21.0587,1023.42
245996,0.521282,9.86131,-0.200861,1.54,-2.31,0.14,19.5958,-52.4743,-19.5515,1023.42
246002,0.387374,9.78001,-0.0765184,1.26,-2.59,0.21,19.8283,-48.095,-20.7188,1023.43
246008,0.45911,9.82783,-0.0908656,1.82,-2.87,-0.63,18.7822,-47.8175,-21.6202,1023.43
246014,0.468675,9.86609,-0.196078,1.68,-2.31,-0.14,19.9735,-50.7781,-19.5958,1023.45
246020,0.435198,9.84696,-0.13869,1.82,-2.73,-17.5,19.6539,-48.7735,-19.4333,1023.45
246026,0.430416,9.8087,-0.095648,1.75,-2.73,0.49,18.8984,-47.5708,-21.4724,1023.45
246032,0.454328,9.81349,-0.124342,2.03,-2.87,0.49,19.683,-50.6547,-20.8962,1023.44
246038,0.439981,9.79914,-0.0908656,1.82,-2.66,0.07,19.4215,-50.7473,-20.6302,1023.44
246044,0.449546,9.81827,-0.167384,1.96,-2.31,0,19.1309,-46.9848,-21.1474,1023.44
246050,0.444763,9.82305,-0.167384,1.4,-2.45,0.21,19.3924,-48.8352,-21.4281,1023.44
246056,0.468675,9.85174,-0.114778,1.4,-2.45,0.35,20.0898,-51.8267,-18.7684,1023.45
246062,0.444763,9.78479,-0.095648,1.89,-2.59,-0.07,19.712,-47.4782,-21.0144,1023.45
246068,0.473458,9.84218,-0.176949,1.54,-2.52,0,19.189,-47.6633,-22.6398,1023.44
246074,0.45911,9.80392,-0.129125,1.61,-2.24,0.56,19.7992,-51.2407,-19.0787,1023.44
246080,0.483022,9.8087,-0.133907,1.61,-2.31,0,19.3343,-49.2978,-20.1869,1023.44
246086,0.483022,9.84218,-0.13869,1.4,-2.52,-17.71,19.2471,-46.7073,-21.5315,1023.45
246092,0.454328,9.82305,-0.129125,1.26,-2.31,0.28,19.3633,-50.6239,-21.1621,1023.45
246098,0.463893,9.78957,-0.095648,1.4,-1.89,0.07,18.8403,-52.3818,-19.0196,1023.42
246104,0.444763,9.84696,-0.129125,1.75,-2.24,0.28,19.2762,-47.6324,-20.8666,1023.42
246110,0.473458,9.84218,-0.162602,1.54,-2.59,0.21,19.2181,-49.0202,-21.4872,1023.43
246116,0.420851,9.82305,-0.148254,1.05,-2.1,0.07,20.4966,-52.2584,-19.9209,1023.43
246122,0.411286,9.83261,-0.114778,1.61,-2.66,-0.21,20.2932,-47.8792,-19.714,1023.46
246128,0.425634,9.82783,-0.10043,1.33,-2.8,0.28,19.712,-47.9408,-21.6054,1023.46
246134,0.45911,9.8087,-0.153037,1.61,-2.24,0.07,19.9445,-51.95,-19.7731,1023.4
246140,0.473458,9.84218,-0.157819,1.82,-2.17,-0.07,19.0728,-49.8221,-20.3347,1023.4
246146,0.463893,9.84696,-0.157819,1.54,-2.45,-0.07,19.3343,-47.3549,-22.1669,1023.4
246152,0.435198,9.79914,-0.129125,1.47,-2.17,0.35,19.712,-51.0557,-21.0291,1023.44
246158,0.406504,9.8374,-0.157819,1.82,-2.52,0.21,19.4505,-50.8398,-20.9109,1023.44
246164,0.454328,9.83261,-0.157819,1.82,-2.59,0.42,19.3052,-47.2007,-21.9453,1023.45
246170,0.444763,9.84218,-0.153037,1.75,-2.38,0.14,19.7701,-49.8837,-22.0339,1023.45
246176,0.406504,9.82305,-0.157819,1.19,-2.66,0.49,20.1769,-52.5976,-20.4972,1023.46
246182,0.483022,9.82783,-0.186514,1.61,-2.1,0.42,19.6249,-47.91,-21.2803,1023.46
246188,0.449546,9.82305,-0.162602,1.19,-2.17,0.49,18.9565,-47.6941,-22.0044,1023.42
246194,0.47824,9.83261,-0.143472,1.68,-2.52,0.14,20.1479,-51.5183,-19.714,1023.42
246200,0.444763,9.8374,-0.162602,1.33,-2.52,0.56,20.0316,-49.5753,-19.8914,1023.42
246206,0.396939,9.82783,-0.148254,1.47,-2.59,0.14,19.5958,-47.6324,-20.5858,1023.42
246212,0.435198,9.80392,-0.133907,1.75,-2.8,-0.07,19.8864,-50.8398,-19.6697,1023.42
246218,0.483022,9.81827,-0.153037,1.68,-2.52,0,20.8743,-49.5753,-19.6845,1023.46
246224,0.449546,9.82305,-0.148254,1.61,-2.38,-0.07,19.4796,-46.7689,-21.0144,1023.46
246230,0.454328,9.81827,-0.143472,1.47,-2.59,0.35,19.3633,-49.2361,-20.6597,1023.44
246236,0.444763,9.8374,-0.157819,1.19,-2.31,0.35,20.1769,-51.4566,-20.2608,1023.44
246242,0.449546,9.81827,-0.153037,1.47,-2.38,0,19.5086,-47.6633,-20.7041,1023.45
246248,0.454328,9.84218,-0.109995,1.4,-2.45,0.21,19.0147,-48.2492,-21.2951,1023.45
246254,0.454328,9.84696,-0.133907,1.54,-2.1,0.35,20.235,-50.9015,-21.0587,1023.45
246260,0.468675,9.84218,-0.176949,1.47,-2.38,0.21,19.4215,-49.2669,-21.3985,1023.45
246266,0.468675,9.83261,-0.148254,1.89,-2.87,0.07,19.1309,-47.3857,-21.9305,1023.45
246272,0.483022,9.83261,-0.13869,1.26,-1.96,0.21,19.8283,-50.3772,-21.1769,1023.43
246278,0.444763,9.84218,-0.157819,1.47,-2.45,0.35,20.2641,-50.4697,-19.5367,1023.43
246284,0.444763,9.81349,-0.143472,1.61,-2.66,-0.14,19.9735,-47.2932,-21.1917,1023.46
246290,0.463893,9.84696,-0.148254,1.47,-2.59,0.07,19.189,-49.3286,-20.97,1023.46
246296,0.439981,9.82305,-0.157819,1.61,-2.8,-0.28,19.7992,-51.8575,-19.5811,1023.46
246302,0.406504,9.83261,-0.157819,1.54,-2.38,0.07,19.7992,-48.866,-22.4329,1023.46
246308,0.463893,9.81827,-0.095648,1.96,-2.8,0,19.7411,-47.7866,-22.7432,1023.43
246314,0.439981,9.82783,-0.167384,1.75,-2.8,0,19.683,-51.2715,-20.7927,1023.43
246320,0.430416,9.81349,-0.153037,1.68,-2.59,0.21,19.5667,-49.5137,-19.714,1023.43
246326,0.430416,9.82783,-0.167384,1.82,-2.52,0.42,18.8694,-46.5531,-21.9305,1023.42
246332,0.430416,9.83261,-0.157819,1.96,-2.66,-0.21,19.4505,-50.5005,-20.645,1023.42
246338,0.45911,9.83261,-0.167384,1.75,-2.73,0.28,20.235,-50.2847,-20.6006,1023.44
246344,0.435198,9.82305,-0.129125,1.68,-2.52,0.21,19.712,-47.6016,-21.1326,1023.44
246350,0.454328,9.82305,-0.167384,1.68,-2.59,0.07,19.3924,-48.5576,-21.4133,1023.44
246356,0.454328,9.82783,-0.129125,1.61,-2.59,-17.71,19.7701,-51.7958,-20.8666,1023.44
246362,0.449546,9.83261,-0.148254,1.47,-2.59,0.35,19.5667,-48.6193,-20.9405,1023.45
246368,0.454328,9.8087,-0.0908656,1.75,-2.59,-0.07,19.8864,-48.1876,-21.2508,1023.45
246374,0.435198,9.82305,-0.129125,1.89,-3.01,0,19.8864,-52.5668,-20.0982,1023.45
246380,0.473458,9.8374,-0.153037,1.54,-2.38,-0.42,20.1479,-50.408,-20.6745,1023.45
246386,0.463893,9.82783,-0.157819,1.4,-2.38,0.21,19.6539,-46.7381,-21.9305,1023.45
246392,0.463893,9.85653,-0.129125,1.47,-2.66,0.42,20.4384,-50.2538,-21.5315,1023.43
246398,0.439981,9.81349,-0.133907,1.89,-2.73,-0.28,19.8283,-51.179,-19.7731,1023.43
246404,0.401722,9.79436,-0.143472,1.61,-2.87,-0.07,18.7822,-48.2492,-22.3442,1023.46
246410,0.449546,9.8374,-0.157819,1.89,-2.59,-0.21,19.7992,-48.8969,-20.7779,1023.46
246416,0.449546,9.84218,-0.153037,1.75,-2.73,0.28,20.1769,-51.1482,-20.5563,1023.44
246422,0.449546,9.83261,-0.176949,1.75,-2.45,0.35,19.712,-47.7558,-20.8518,1023.44
246428,0.425634,9.79914,-0.162602,1.54,-2.66,0,20.1188,-48.1876,-21.7532,1023.44
246434,0.449546,9.8087,-0.148254,1.61,-2.66,-0.07,19.4215,-50.9631,-19.0639,1023.46
246440,0.444763,9.83261,-0.153037,1.47,-2.52,0.35,20.0898,-50.3463,-18.4876,1023.46
246446,0.444763,9.80392,-0.162602,1.54,-2.52,0.21,19.0728,-46.9848,-20.3051,1023.44
246452,0.444763,9.81827,-0.176949,1.82,-3.01,0.14,20.0607,-51.5799,-21.6054,1023.44
246458,0.483022,9.82783,-0.181731,1.26,-2.73,0.35,20.0316,-50.7164,-20.2017,1023.44
246464,0.392157,9.82783,-0.153037,1.54,-2.52,-0.14,19.3633,-46.4297,-21.2803,1023.44
246470,0.425634,9.81827,-0.143472,1.61,-2.8,0.56,19.8864,-48.8044,-21.8123,1023.42
246476,0.463893,9.8374,-0.186514,1.68,-2.24,0.21,20.8162,-52.0734,-20.2755,1023.42
246482,0.444763,9.81827,-0.167384,1.26,-2.66,0.14,19.712,-47.4782,-21.103,1023.44
246488,0.449546,9.81827,-0.186514,1.61,-2.59,0.14,20.0898,-47.5091,-21.2212,1023.44
246494,0.406504,9.84696,-0.172166,1.4,-3.08,-0.28,20.1479,-52.135,-20.7336,1023.44
246500,0.435198,9.81349,-0.167384,1.82,-2.38,0.21,20.0898,-49.8837,-20.5858,1023.46
246506,0.47824,9.81827,-0.176949,1.26,-2.17,-0.21,19.4505,-47.5091,-21.9896,1023.46
246512,0.439981,9.80392,-0.172166,1.75,-2.1,0,19.9735,-50.994,-20.9257,1023.45
246518,0.425634,9.80392,-0.124342,1.33,-2.52,0.42,20.206,-51.95,-20.7779,1023.45
246524,0.463893,9.78957,-0.114778,2.03,-2.8,0.07,20.1769,-46.8306,-21.0144,1023.44
246530,0.449546,9.82305,-0.186514,1.68,-2.73,0,19.5377,-49.2361,-21.5315,1023.44
246536,0.449546,9.79436,-0.157819,1.75,-2.31,0,20.2932,-51.1482,-20.1573,1023.44
246542,0.454328,9.82305,-0.176949,1.4,-2.31,0.35,20.0026,-47.8483,-20.0687,1023.44
246548,0.435198,9.79436,-0.143472,1.05,-2.59,0.28,18.8694,-47.4166,-21.9305,1023.44
246554,0.444763,9.81827,-0.129125,2.03,-2.87,0.21,19.8864,-52.3201,-19.5811,1023.45
246560,0.454328,9.83261,-0.162602,1.05,-2.31,0.07,20.0026,-49.7604,-21.768,1023.45
246566,0.487805,9.8374,-0.191296,1.61,-2.87,0.42,19.6539,-46.6764,-23.881,1023.44
246572,0.468675,9.79914,-0.153037,1.54,-2.03,0.56,19.9735,-50.6856,-21.2803,1023.44
246578,0.411286,9.8087,-0.133907,1.75,-2.87,-0.07,19.7992,-51.1173,-20.7779,1023.46
246584,0.483022,9.84696,-0.167384,1.75,-3.01,0,19.2181,-47.1082,-22.0339,1023.46
246590,0.506934,9.84218,-0.210426,1.26,-2.24,0.56,19.7992,-48.7118,-22.3295,1023.43
246596,0.411286,9.80392,-0.129125,1.33,-2.03,-0.14,19.6249,-51.6416,-20.1426,1023.43
246602,0.425634,9.79436,-0.10043,1.96,-2.66,-0.07,20.1188,-48.2801,-20.8666,1023.43
246608,0.454328,9.8087,-0.181731,2.03,-2.73,0.21,19.4215,-47.8483,-21.0144,1023.44
246614,0.468675,9.82305,-0.162602,1.4,-2.45,0.42,19.8573,-52.2892,-19.4185,1023.44
246620,0.449546,9.80392,-0.11956,1.89,-2.73,-0.07,19.8864,-49.3286,-20.6893,1023.45
246626,0.444763,9.83261,-0.133907,1.68,-2.52,-17.5,19.189,-46.9231,-21.9896,1023.45
246632,0.435198,9.84218,-0.157819,1.54,-2.38,0.21,19.9445,-51.6416,-20.7336,1023.47
246638,0.435198,9.80392,-0.176949,1.68,-2.87,0.42,20.0607,-50.9015,-19.7879,1023.47
246644,0.425634,9.81349,-0.167384,1.4,-2.59,0.21,18.8403,-47.5399,-20.5415,1023.48
246650,0.45911,9.81349,-0.181731,1.61,-2.87,0.21,19.5086,-49.5753,-20.9996,1023.48
246656,0.430416,9.8374,-0.157819,1.47,-2.45,0.21,20.206,-50.9323,-19.1082,1023.47
246662,0.420851,9.81827,-0.153037,1.54,-2.66,0.07,19.1599,-48.2184,-21.5315,1023.47
246668,0.425634,9.85174,-0.176949,1.61,-2.59,0.07,18.666,-47.2315,-22.2113,1023.47
246674,0.444763,9.84218,-0.157819,1.82,-2.87,0.49,19.7701,-52.135,-20.645,1023.43
246680,0.435198,9.83261,-0.186514,1.75,-2.52,-0.07,19.9445,-49.5753,-19.8175,1023.43
246686,0.45911,9.79914,-0.148254,1.47,-2.94,0,19.2762,-46.8306,-21.6497,1023.45
246692,0.463893,9.8087,-0.162602,1.54,-2.94,0.35,19.5377,-51.1173,-21.1474,1023.45
246698,0.454328,9.82783,-0.167384,1.75,-2.8,-0.07,19.1599,-50.7473,-19.98,1023.43
246704,0.444763,9.83261,-0.133907,1.82,-2.94,0.07,18.8984,-46.2447,-22.0044,1023.43
246710,0.483022,9.84696,-0.186514,1.47,-2.73,0.14,20.1479,-49.2053,-21.9601,1023.45
246716,0.45911,9.84218,-0.162602,1.61,-2.66,-0.07,20.8162,-51.95,-20.2755,1023.45
246722,0.425634,9.8087,-0.148254,1.47,-2.87,0,19.6249,-48.1259,-21.8862,1023.45
246728,0.425634,9.84218,-0.181731,1.75,-2.45,0.49,19.3343,-48.0025,-22.4625,1023.45
246734,0.468675,9.80392,-0.157819,1.4,-2.8,0,19.6249,-51.5799,-20.5563,1023.45
246740,0.468675,9.82783,-0.181731,1.33,-2.45,0.21,20.1188,-49.1128,-21.3838,1023.46
246746,0.396939,9.86131,-0.157819,1.68,-2.59,0.35,18.7241,-46.4914,-21.5168,1023.46
246752,0.449546,9.83261,-0.172166,1.19,-2.45,0.21,19.189,-51.2715,-21.103,1023.43
246758,0.435198,9.82305,-0.133907,1.61,-2.59,0.28,19.5086,-51.4257,-20.6745,1023.43
246764,0.45911,9.78957,-0.157819,1.54,-2.45,0.42,18.8694,-46.368,-22.9944,1023.45
246770,0.47824,9.8374,-0.162602,1.61,-2.94,0.35,19.5377,-49.2978,-21.6054,1023.45
246776,0.435198,9.81349,-0.162602,1.61,-2.73,0.56,20.235,-52.4743,-19.1673,1023.45
246782,0.454328,9.8374,-0.186514,1.4,-2.45,0.21,19.4505,-48.3109,-20.3199,1023.44
246788,0.444763,9.79914,-0.105213,1.54,-2.66,0.35,19.189,-47.91,-22.4329,1023.44
246794,0.473458,9.83261,-0.176949,1.89,-2.73,0.63,20.3803,-51.7958,-20.2017,1023.45
246800,0.492587,9.84218,-0.21999,1.19,-2.87,0.14,20.1479,-49.9146,-20.4529,1023.45
246806,0.483022,9.85174,-0.196078,1.54,-2.52,0.21,19.3924,-47.0157,-21.0439,1023.44
246812,0.454328,9.81349,-0.167384,1.19,-2.38,0.49,19.0728,-51.7341,-20.7484,1023.44
246818,0.425634,9.8087,-0.129125,1.54,-2.59,-0.14,20.235,-51.7033,-20.4676,1023.47
246824,0.483022,9.82305,-0.181731,1.4,-3.15,-0.49,19.2471,-47.2315,-22.0487,1023.47
246830,0.449546,9.8087,-0.162602,1.26,-2.73,-0.63,18.9275,-49.637,-22.1817,1023.45
246836,0.425634,9.81349,-0.176949,1.4,-2.87,-0.14,19.8573,-51.6725,-19.4776,1023.45
246842,0.444763,9.8087,-0.143472,1.61,-3.01,0.84,20.206,-48.3418,-21.4724,1023.45
246848,0.468675,9.84218,-0.167384,1.26,-2.66,-0.28,19.5667,-48.6502,-21.9896,1023.45
246854,0.463893,9.80392,-0.157819,1.4,-2.52,-0.07,19.3633,-51.9192,-20.1721,1023.45
246860,0.439981,9.8087,-0.143472,1.68,-2.52,1.12,19.1309,-49.0202,-19.4924,1023.44
246866,0.411286,9.84218,-0.172166,1.61,-3.01,0.56,18.8984,-47.3549,-21.1917,1023.44
246872,0.468675,9.79436,-0.162602,1.54,-2.87,-0.21,20.4384,-50.7781,-20.8666,1023.43
246878,0.454328,9.79436,-0.176949,1.68,-2.94,0.42,19.2471,-50.5314,-21.2656,1023.43
246884,0.463893,9.85174,-0.13869,1.26,-2.73,0.63,19.1018,-46.368,-21.5463,1023.45
246890,0.468675,9.84696,-0.153037,1.61,-2.87,0.49,19.2471,-49.1436,-21.9748,1023.45
246896,0.502152,9.80392,-0.200861,0.98,-2.52,0.14,19.5086,-51.6725,-20.2608,1023.45
246902,0.492587,9.78957,-0.167384,1.47,-2.73,0.21,19.683,-47.7866,-22.2556,1023.46
246908,0.454328,9.81349,-0.143472,1.47,-2.94,-0.14,18.8113,-47.7866,-21.5463,1023.46
246914,0.430416,9.85174,-0.196078,1.54,-2.73,0.14,19.9154,-51.95,-20.113,1023.44
246920,0.449546,9.79436,-0.153037,1.61,-2.87,0.28,19.5958,-49.1128,-20.1869,1023.44
246926,0.473458,9.81827,-0.143472,1.82,-2.59,0.07,18.9856,-47.1698,-22.2408,1023.46
246932,0.468675,9.8374,-0.167384,1.61,-2.59,-0.42,19.6539,-51.3024,-21.0735,1023.46
246938,0.468675,9.85174,-0.153037,1.47,-2.8,-0.07,20.5256,-50.9323,-20.5711,1023.44
246944,0.45911,9.82783,-0.143472,1.61,-3.01,0.14,19.7701,-47.0157,-20.9405,1023.44
246950,0.444763,9.81827,-0.172166,1.12,-2.59,0.42,20.3513,-49.5753,-22.1521,1023.44
246956,0.435198,9.81349,-0.172166,1.75,-2.73,0.21,20.5547,-51.1482,-19.9505,1023.45
246962,0.435198,9.79436,-0.129125,1.47,-2.87,-0.14,19.9735,-47.7866,-21.4724,1023.45
246968,0.449546,9.83261,-0.176949,1.68,-3.36,-0.28,19.1309,-47.8792,-21.3394,1023.45
246974,0.45911,9.81349,-0.143472,1.61,-2.8,-0.07,19.8283,-51.4566,-19.5958,1023.45
246980,0.454328,9.79436,-0.157819,1.68,-2.31,0.77,19.9735,-48.7427,-20.246,1023.43
246986,0.449546,9.79436,-0.129125,1.61,-3.15,0.28,19.9445,-46.4914,-21.6793,1023.43
246992,0.435198,9.81827,-0.157819,1.4,-2.66,0.42,19.5667,-50.7473,-20.379,1023.46
246998,0.49737,9.8087,-0.162602,1.12,-2.94,0.07,19.5958,-50.1921,-21.2656,1023.46
247004,0.435198,9.79914,-0.162602,1.54,-3.01,0.42,19.712,-46.1521,-21.2656,1023.47
247010,0.430416,9.81827,-0.157819,1.4,-2.73,0.14,19.3633,-50.1305,-21.7827,1023.47
247016,0.473458,9.82783,-0.172166,1.26,-2.24,0.21,19.3343,-52.7827,-20.7188,1023.47
247022,0.463893,9.83261,-0.157819,1.47,-2.31,0.28,19.189,-47.3857,-21.7827,1023.41
247028,0.473458,9.81349,-0.181731,1.75,-2.66,0.21,18.7241,-47.9717,-21.7384,1023.41
247034,0.45911,9.81349,-0.143472,1.12,-2.8,0.14,20.2932,-51.4566,-20.5267,1023.41
247040,0.468675,9.8374,-0.196078,1.12,-2.45,0.28,19.712,-49.452,-22.1078,1023.41
247046,0.468675,9.81827,-0.196078,1.26,-2.66,-0.28,19.6249,-46.4914,-22.5363,1023.46
247052,0.444763,9.79914,-0.167384,1.19,-2.45,0.14,20.0316,-51.3024,-20.4529,1023.46
247058,0.416069,9.79436,-0.11956,1.61,-2.8,0.28,19.8864,-50.9631,-20.3199,1023.43
247064,0.430416,9.8087,-0.129125,1.61,-2.52,-0.56,20.1769,-46.4605,-22.0783,1023.43
247070,0.463893,9.78479,-0.157819,0.84,-2.59,0.21,19.0437,-49.5753,-21.6793,1023.43
247076,0.449546,9.8087,-0.114778,1.75,-2.73,0.63,19.9735,-52.135,-20.3199,1023.45
247082,0.420851,9.81827,-0.153037,1.47,-2.66,-0.07,20.2641,-47.8175,-21.4281,1023.45
247088,0.444763,9.84218,-0.13869,1.68,-2.59,0.21,18.8403,-47.8175,-21.8714,1023.44
247094,0.435198,9.81349,-0.167384,1.33,-2.52,0.35,19.3343,-51.6725,-19.8027,1023.44
247100,0.449546,9.81827,-0.157819,1.89,-2.66,0.07,19.7992,-49.1744,-21.0291,1023.4
247106,0.483022,9.79914,-0.186514,1.61,-2.17,0.49,19.1018,-46.368,-21.103,1023.4
247112,0.468675,9.82305,-0.196078,1.05,-2.24,0.14,19.6539,-50.9015,-21.0587,1023.44
247118,0.45911,9.82305,-0.191296,1.54,-2.31,0.21,19.5377,-51.1173,-18.5467,1023.44
247124,0.454328,9.81827,-0.105213,1.26,-2.87,0.28,18.9856,-46.5222,-21.9157,1023.44
247130,0.483022,9.81349,-0.114778,1.96,-2.31,0.56,19.3343,-49.3903,-21.4429,1023.41
247136,0.468675,9.8374,-0.157819,1.61,-2.73,-0.07,19.6539,-51.3332,-21.0882,1023.41
247142,0.454328,9.84218,-0.191296,1.26,-2.94,-0.21,19.1018,-47.0773,-22.7284,1023.43
247148,0.47824,9.81349,-0.13869,1.82,-2.8,0.77,19.6249,-47.324,-22.2851,1023.43
247154,0.45911,9.81349,-0.148254,1.89,-2.52,0.14,19.3633,-51.2099,-19.3151,1023.42
247160,0.45911,9.84696,-0.176949,1.68,-2.87,-0.21,19.3924,-48.2801,-20.5563,1023.42
247166,0.463893,9.8374,-0.167384,1.54,-2.66,-0.14,19.4505,-47.0157,-21.9896,1023.45
247172,0.435198,9.8087,-0.143472,1.61,-2.59,-0.35,19.2762,-51.4566,-20.9405,1023.45
247178,0.463893,9.84218,-0.157819,1.19,-2.59,0.07,20.0316,-50.0379,-19.9357,1023.44
247184,0.425634,9.82783,-0.162602,1.68,-2.94,0.07,19.1018,-46.7689,-22.1078,1023.44
247190,0.45911,9.86131,-0.153037,1.54,-2.8,-0.14,19.8864,-50.0071,-20.8666,1023.44
247196,0.454328,9.8087,-0.124342,1.75,-3.01,-0.28,19.712,-51.4257,-20.1573,1023.44
247202,0.473458,9.8087,-0.124342,1.33,-2.59,0.42,20.2641,-46.7998,-21.4577,1023.44
247208,0.435198,9.8374,-0.162602,1.47,-3.01,0,19.0728,-48.095,-22.9501,1023.45
247214,0.416069,9.80392,-0.13869,1.47,-2.38,0,20.5256,-51.2715,-19.8323,1023.45
247220,0.435198,9.83261,-0.157819,1.47,-2.59,0,20.3513,-48.5576,-21.5759,1023.45
247226,0.416069,9.85174,-0.172166,1.05,-2.73,0.49,19.0437,-46.368,-20.8223,1023.45
247232,0.439981,9.8087,-0.172166,1.47,-2.87,0.7,19.6539,-51.0557,-19.5515,1023.47
247238,0.454328,9.81827,-0.153037,1.33,-2.8,0.49,20.3222,-50.223,-18.2512,1023.47
247244,0.463893,9.81349,-0.167384,1.47,-2.66,0.63,19.0437,-46.9848,-19.6993,1023.47
247250,0.439981,9.83261,-0.148254,1.61,-2.73,-0.14,19.6249,-49.3595,-20.8814,1023.44
247256,0.45911,9.84696,-0.181731,1.47,-2.73,-0.07,20.3513,-52.135,-20.3642,1023.44
247262,0.492587,9.85174,-0.176949,1.61,-2.94,0.35,19.9445,-47.725,-21.0587,1023.41
247268,0.487805,9.82305,-0.181731,1.33,-1.96,-0.07,19.6249,-48.2492,-20.5858,1023.41
247274,0.430416,9.84696,-0.148254,1.4,-2.24,0,19.9154,-52.1659,-20.2312,1023.43
247280,0.463893,9.79436,-0.114778,1.75,-2.87,0.28,19.683,-48.9894,-21.7827,1023.43
247286,0.463893,9.84218,-0.157819,1.61,-2.73,-0.14,19.5667,-46.6147,-21.9896,1023.45
247292,0.435198,9.8374,-0.148254,1.33,-2.59,-0.42,19.5667,-50.9015,-20.2017,1023.45
247298,0.396939,9.78957,-0.133907,1.26,-2.52,0.14,20.0898,-50.3155,-20.1278,1023.45
247304,0.454328,9.82305,-0.176949,1.19,-3.22,0,19.2181,-47.6016,-22.492,1023.43
247310,0.439981,9.84218,-0.143472,1.47,-2.66,0.49,18.9856,-49.8837,-20.6302,1023.43
247316,0.449546,9.82783,-0.181731,1.54,-2.73,-0.07,20.2932,-51.8575,-19.7584,1023.42
247322,0.430416,9.82783,-0.200861,1.47,-2.52,0.35,19.6249,-47.5091,-22.3147,1023.42
247328,0.454328,9.81827,-0.162602,1.33,-2.94,0.14,19.0728,-47.6941,-22.0487,1023.42
247334,0.468675,9.82783,-0.167384,1.47,-2.87,-0.28,19.712,-52.2276,-21.1326,1023.42
247340,0.502152,9.84218,-0.181731,1.47,-1.68,0.42,20.0316,-48.7427,-21.5611,1023.45
247346,0.396939,9.79914,-0.133907,1.61,-3.36,0.56,19.5086,-47.0773,-22.359,1023.45
247352,0.502152,9.86131,-0.200861,0.77,-2.17,-0.07,20.6128,-50.6239,-21.369,1023.45
247358,0.37781,9.78001,-0.10043,1.68,-2.52,0.63,20.1479,-50.5314,-19.6254,1023.42
247364,0.406504,9.78479,-0.153037,1.82,-3.36,0.49,19.2471,-47.4782,-22.9353,1023.42
247370,0.549976,9.89,-0.210426,1.12,-2.52,0.49,20.0026,-49.6987,-21.369,1023.42
247376,0.473458,9.82305,-0.133907,1.33,-2.03,0.49,19.7701,-51.1173,-19.6402,1023.42
247382,0.439981,9.81349,-0.157819,1.89,-2.73,0.07,19.683,-46.7689,-21.1178,1023.43
247388,0.420851,9.85174,-0.176949,1.75,-2.24,-0.14,19.8864,-47.2624,-20.4085,1023.43
247394,0.430416,9.82783,-0.109995,1.61,-2.66,-0.07,20.0316,-51.5491,-20.2903,1023.44
247400,0.444763,9.79436,-0.13869,1.68,-2.66,0.07,20.1769,-48.0642,-21.2656,1023.44
247406,0.473458,9.87566,-0.21999,1.26,-2.24,0.21,20.4094,-47.5091,-22.8171,1023.46
247412,0.411286,9.77523,-0.143472,1.4,-2.52,0.35,20.6418,-50.6239,-21.6497,1023.46
247418,0.449546,9.79914,-0.109995,1.82,-2.73,0.14,20.4675,-50.5931,-21.3838,1023.46
247424,0.439981,9.83261,-0.200861,1.54,-2.66,0.35,20.0316,-47.5708,-22.6693,1023.42
247430,0.444763,9.82783,-0.181731,1.33,-2.94,0.28,20.3222,-49.9146,-22.2999,1023.42
247436,0.396939,9.79914,-0.129125,1.68,-2.52,0.42,20.3513,-51.179,-20.9257,1023.43
247442,0.392157,9.85653,-0.162602,1.54,-2.94,0.56,19.7411,-47.5708,-22.2113,1023.43
247448,0.47824,9.83261,-0.176949,1.26,-2.45,0.49,19.4505,-48.5268,-21.6793,1023.43
247454,0.45911,9.8087,-0.153037,1.33,-2.38,0.35,20.1188,-50.8089,-21.6054,1023.43
247460,0.45911,9.85653,-0.205643,1.68,-2.8,0.07,19.8573,-48.3418,-21.103,1023.42
247466,0.487805,9.84218,-0.191296,1.61,-2.66,0.21,19.8864,-47.2932,-22.4033,1023.42
247472,0.463893,9.85653,-0.196078,1.47,-2.31,0.07,19.6539,-50.8089,-21.3838,1023.42
247478,0.449546,9.80392,-0.176949,1.82,-2.59,0,19.5958,-50.223,-20.6302,1023.44
247484,0.449546,9.84696,-0.148254,1.54,-2.94,-0.21,19.5377,-46.5531,-23.0092,1023.44
247490,0.444763,9.85653,-0.172166,1.61,-2.87,0.28,20.1479,-49.0819,-20.7336,1023.42
247496,0.463893,9.81349,-0.210426,1.47,-2.38,0.35,20.235,-51.4874,-20.6154,1023.42
247502,0.425634,9.82783,-0.186514,1.61,-2.45,-0.14,19.2181,-47.9408,-20.9553,1023.41
247508,0.454328,9.81349,-0.162602,1.61,-2.52,0.42,19.5667,-48.1876,-22.6545,1023.41
247514,0.435198,9.87087,-0.176949,1.47,-2.52,0.07,20.729,-51.1482,-19.7584,1023.42
247520,0.45911,9.78957,-0.181731,1.47,-2.38,0.42,19.9154,-49.7912,-21.103,1023.42
247526,0.420851,9.84218,-0.143472,2.03,-2.52,0,18.8113,-46.7689,-21.1621,1023.42
247532,0.435198,9.84218,-0.210426,1.19,-2.24,-0.07,18.695,-50.5314,-18.99,1023.43
247538,0.425634,9.82783,-0.172166,1.33,-2.38,0.07,20.8162,-50.5005,-21.1917,1023.43
247544,0.454328,9.82305,-0.181731,1.54,-3.15,0.49,19.7701,-46.5222,-21.502,1023.42
247550,0.45911,9.84218,-0.181731,1.89,-2.45,0.14,19.6539,-49.4828,-20.8666,1023.42
247556,0.449546,9.84218,-0.172166,1.68,-2.38,0.14,20.2641,-51.5799,-20.4381,1023.44
247562,0.454328,9.8374,-0.167384,1.47,-2.52,0.42,20.235,-48.0334,-21.4281,1023.44
247568,0.473458,9.85653,-0.176949,1.68,-2.73,-0.14,19.7992,-48.2801,-20.7484,1023.44
247574,0.47824,9.84696,-0.21999,1.47,-2.31,-0.07,20.2641,-51.7033,-20.246,1023.44
247580,0.444763,9.85174,-0.167384,1.61,-2.38,-0.14,19.8864,-48.9586,-20.9848,1023.45
247586,0.439981,9.80392,-0.133907,1.75,-2.94,0.14,19.1309,-46.5531,-21.502,1023.45
247592,0.444763,9.80392,-0.143472,2.03,-3.08,0.35,19.7411,-50.1921,-22.0487,1023.45
247598,0.487805,9.82305,-0.215208,1.68,-2.59,-0.28,19.9735,-50.0996,-20.6893,1023.45
247604,0.463893,9.84696,-0.186514,0.98,-2.1,0.14,20.3222,-45.8129,-21.5906,1023.45
247610,0.439981,9.79436,-0.157819,1.68,-2.38,0.35,19.8573,-49.1128,-20.837,1023.45
247616,0.454328,9.79914,-0.200861,1.82,-2.8,-0.28,20.4966,-50.7781,-20.2608,1023.45
247622,0.430416,9.86131,-0.205643,1.4,-2.17,0.21,19.712,-47.139,-20.4381,1023.42
247628,0.435198,9.81827,-0.153037,1.47,-2.52,0.56,18.8694,-48.1567,-21.4133,1023.42
247634,0.463893,9.82783,-0.172166,1.26,-2.66,0.07,20.4094,-52.3509,-19.2708,1023.43
247640,0.449546,9.82305,-0.167384,1.68,-2.52,0.07,20.2932,-49.2053,-19.714,1023.43
247646,0.439981,9.81827,-0.167384,1.54,-2.59,0,19.5667,-46.4605,-21.7236,1023.43
247652,0.454328,9.84218,-0.191296,1.26,-2.03,0.42,18.8694,-50.8398,-19.8323,1023.42
247658,0.449546,9.85653,-0.181731,1.19,-2.52,0.7,20.4384,-50.0071,-20.1278,1023.42
247664,0.416069,9.78479,-0.205643,1.47,-2.45,0,19.5377,-47.1698,-22.5511,1023.44
247670,0.45911,9.85174,-0.196078,2.03,-2.87,-0.14,19.4505,-49.5445,-22.5363,1023.44
247676,0.430416,9.78479,-0.162602,1.33,-2.66,0.49,20.2932,-51.6416,-19.6254,1023.4
247682,0.439981,9.78957,-0.11956,1.82,-2.94,-0.07,19.5958,-47.91,-21.0587,1023.4
247688,0.463893,9.82305,-0.157819,1.4,-2.52,0.07,19.6539,-48.866,-21.4724,1023.42
247694,0.463893,9.82305,-0.176949,1.75,-2.59,-0.07,20.6418,-50.994,-19.8175,1023.42
247700,0.439981,9.83261,-0.172166,1.47,-2.38,0.49,20.3803,-48.866,-20.5563,1023.42
247706,0.463893,9.8374,-0.215208,1.4,-2.59,0.21,19.2762,-47.2315,-21.8862,1023.44
247712,0.411286,9.80392,-0.148254,1.61,-2.94,0.21,20.3803,-50.5314,-21.236,1023.44
247718,0.468675,9.83261,-0.186514,1.75,-2.66,0.14,19.5377,-51.2407,-20.2017,1023.45
247724,0.45911,9.81349,-0.196078,1.05,-2.94,-0.07,19.2762,-45.9671,-20.0687,1023.45
247730,0.468675,9.81827,-0.200861,1.61,-2.45,0.14,18.9565,-49.8529,-19.7436,1023.46
247736,0.435198,9.80392,-0.109995,1.54,-2.73,0,20.235,-51.0557,-19.4481,1023.46
247742,0.416069,9.81827,-0.172166,1.68,-3.01,0,19.2471,-47.7866,-21.3394,1023.46
247748,0.468675,9.82305,-0.181731,1.82,-2.45,0.84,20.2641,-47.2315,-20.5415,1023.46
247754,0.47824,9.8087,-0.181731,1.54,-2.59,-0.07,19.9735,-51.7341,-19.9948,1023.42
247760,0.45911,9.81827,-0.162602,1.33,-2.73,0.07,19.4215,-49.637,-21.7532,1023.42
247766,0.454328,9.8374,-0.176949,1.61,-2.59,0.14,19.1018,-47.0773,-21.6497,1023.42
247772,0.420851,9.82305,-0.162602,1.47,-2.31,0.7,20.0316,-51.2099,-19.5811,1023.43
247778,0.435198,9.81349,-0.143472,1.54,-2.73,0.21,20.0607,-50.9323,-20.5563,1023.43
247784,0.487805,9.85174,-0.186514,1.75,-2.87,0.07,19.4796,-46.8923,-22.9057,1023.43
247790,0.45911,9.84696,-0.205643,1.4,-2.38,0.28,19.4215,-50.5622,-22.093,1023.43
247796,0.416069,9.83261,-0.153037,1.89,-2.8,-0.14,20.0898,-51.4874,-20.2312,1023.42
247802,0.449546,9.85653,-0.162602,1.89,-2.8,0.21,20.235,-47.4782,-20.8075,1023.42
247808,0.45911,9.85653,-0.181731,1.61,-2.73,0.07,19.0147,-48.0642,-21.1326,1023.4
247814,0.430416,9.84696,-0.162602,1.4,-2.66,0.35,20.0026,-52.0117,-19.256,1023.4
247820,0.425634,9.82305,-0.157819,1.89,-2.59,0,19.5958,-48.9277,-20.1426,1023.4
247826,0.444763,9.88044,-0.172166,1.68,-2.59,0.21,19.0728,-47.8792,-21.2803,1023.43
247832,0.420851,9.86131,-0.181731,1.54,-3.22,0.07,19.9735,-51.2407,-20.8814,1023.43
247838,0.45911,9.80392,-0.176949,2.17,-2.66,-0.07,20.4384,-50.5005,-20.3347,1023.41
247844,0.430416,9.8087,-0.172166,1.96,-2.59,0.49,19.9445,-46.368,-21.8418,1023.41
247850,0.449546,9.84218,-0.205643,1.89,-2.73,0.42,19.6249,-50.1921,-21.5611,1023.43
247856,0.473458,9.84696,-0.196078,1.12,-2.73,-0.14,19.8283,-51.6108,-19.9948,1023.43
247862,0.45911,9.80392,-0.11956,1.33,-3.01,-0.07,19.7411,-47.5091,-19.8175,1023.41
247868,0.416069,9.73218,-0.11956,1.96,-2.73,0.49,19.9154,-48.2492,-22.625,1023.41
247874,0.435198,9.84696,-0.143472,1.75,-3.08,0.42,20.0898,-51.7033,-19.7288,1023.41
247880,0.535629,9.89479,-0.25825,1.61,-2.24,0.07,20.235,-49.3286,-19.1378,1023.42
247886,0.454328,9.80392,-0.148254,1.26,-2.45,0.07,19.2471,-48.0025,-21.5759,1023.42
247892,0.454328,9.81827,-0.109995,1.96,-2.94,0.14,20.0026,-51.2099,-20.113,1023.38
247898,0.463893,9.8374,-0.234338,1.47,-2.17,-0.56,19.5958,-50.4389,-19.7436,1023.38
247904,0.439981,9.80392,-0.176949,1.33,-2.38,0.07,19.1309,-46.8615,-21.4133,1023.43
247910,0.444763,9.82305,-0.162602,2.24,-2.66,0,19.4505,-50.3155,-21.6941,1023.43
247916,0.45911,9.82305,-0.181731,1.61,-2.24,-0.07,20.5256,-52.0734,-20.9996,1023.44
247922,0.435198,9.81827,-0.215208,1.4,-3.08,0.28,19.712,-48.2801,-21.8566,1023.44
247928,0.49737,9.82305,-0.143472,1.82,-2.31,0.07,20.206,-49.0511,-22.093,1023.42
247934,0.454328,9.83261,-0.167384,1.75,-2.1,-0.07,20.9324,-51.5183,-20.0391,1023.42
247940,0.425634,9.82305,-0.172166,1.47,-2.38,-0.07,20.7,-48.9586,-20.2164,1023.42
247946,0.430416,9.81349,-0.200861,1.19,-2.38,0,20.0026,-47.1082,-22.7284,1023.44
247952,0.463893,9.82305,-0.148254,1.75,-2.73,0.56,20.9324,-51.4566,-19.9061,1023.44
247958,0.411286,9.78957,-0.148254,1.33,-2.87,0,20.6709,-50.8706,-20.1721,1023.42
247964,0.463893,9.84218,-0.176949,1.54,-2.52,0.35,19.8573,-47.1698,-21.8566,1023.42
247970,0.483022,9.85174,-0.21999,1.54,-2.59,0.35,19.7992,-50.5931,-21.4281,1023.44
247976,0.454328,9.81349,-0.148254,1.54,-2.66,0.28,19.712,-52.135,-19.3003,1023.44
247982,0.454328,9.79914,-0.13869,1.47,-2.17,0.49,20.2932,-47.6941,-21.3542,1023.43
247988,0.468675,9.8374,-0.181731,1.75,-2.31,0.07,19.7701,-48.4034,-20.8666,1023.43
247994,0.444763,9.81349,-0.181731,1.26,-2.38,0.21,20.5256,-51.6416,-20.2312,1023.43
248000,0.444763,9.78001,-0.148254,1.68,-2.38,-0.07,20.6709,-48.4651,-21.4133,1023.43
248006,0.45911,9.80392,-0.172166,1.75,-2.45,-0.07,19.3052,-47.2007,-21.502,1023.43
248012,0.454328,9.87087,-0.21999,1.75,-2.94,-0.21,20.0316,-51.2099,-20.4676,1023.46
248018,0.45911,9.84696,-0.205643,1.19,-2.52,0.14,19.7992,-49.7912,-19.6254,1023.46
248024,0.401722,9.75131,-0.129125,1.89,-2.59,0.07,19.5377,-45.3503,-22.4477,1023.42
248030,0.420851,9.81349,-0.11956,1.54,-2.45,0.14,19.2762,-49.6062,-20.1721,1023.42
248036,0.45911,9.85174,-0.191296,1.61,-2.59,-0.21,19.9445,-50.408,-20.0539,1023.38
248042,0.444763,9.84696,-0.191296,1.4,-2.45,-17.92,19.4505,-46.7073,-20.7779,1023.38
248048,0.416069,9.79436,-0.114778,1.75,-2.66,0.28,20.3513,-47.9408,-22.0192,1023.38
248054,0.37781,9.82305,-0.181731,1.82,-2.66,0.28,19.7992,-51.3332,-20.2164,1023.42
248060,0.430416,9.88044,-0.205643,1.75,-2.59,-0.35,19.5667,-49.1436,-20.6302,1023.42
248066,0.492587,9.82783,-0.172166,1.33,-2.24,0.49,19.2762,-46.7381,-21.7089,1023.41
248072,0.430416,9.82305,-0.153037,1.75,-1.96,0.63,20.1188,-50.9631,-21.7089,1023.41
248078,0.521282,9.85174,-0.157819,1.54,-2.66,-0.28,20.7871,-50.0688,-21.3099,1023.42
248084,0.47824,9.87087,-0.200861,1.4,-2.66,0.07,19.3343,-46.8923,-20.7779,1023.42
248090,0.468675,9.81349,-0.157819,1.4,-2.38,0.28,19.9735,-50.1613,-20.7779,1023.42
248096,0.435198,9.80392,-0.133907,1.68,-2.59,-0.28,20.0898,-50.8706,-20.4529,1023.42
248102,0.473458,9.84218,-0.196078,1.75,-2.66,-0.14,19.3924,-46.8923,-21.5168,1023.4
248108,0.473458,9.84218,-0.191296,1.54,-2.38,-0.07,18.9565,-48.7735,-20.9553,1023.4
248114,0.439981,9.83261,-0.176949,1.47,-2.45,-0.7,19.9445,-52.0734,-20.97,1023.4
248120,0.411286,9.8087,-0.148254,1.82,-2.52,0.14,20.0026,-48.9586,-20.4824,1023.44
248126,0.435198,9.82783,-0.11956,1.89,-2.38,0.07,19.0728,-47.324,-20.9257,1023.44
248132,0.401722,9.84218,-0.176949,1.68,-2.94,-0.28,20.206,-51.3332,-21.2951,1023.44
248138,0.502152,9.81827,-0.196078,1.75,-2.52,-0.28,19.712,-50.6547,-19.5072,1023.44
248144,0.435198,9.82305,-0.186514,1.47,-2.38,-0.14,19.189,-47.0465,-21.3247,1023.39
248150,0.382592,9.84696,-0.133907,1.54,-2.87,-0.49,19.6249,-50.0379,-20.9405,1023.39
248156,0.430416,9.78957,-0.162602,1.54,-3.01,-0.21,20.2641,-50.9631,-21.2951,1023.4
248162,0.454328,9.82305,-0.181731,1.54,-2.38,0.42,19.5377,-46.9231,-20.97,1023.4
248168,0.416069,9.82783,-0.172166,1.4,-2.24,0.42,19.4505,-48.1876,-20.9848,1023.4
248174,0.425634,9.79914,-0.143472,1.68,-3.15,-0.07,19.8283,-52.5051,-19.6845,1023.41
248180,0.468675,9.82783,-0.186514,1.54,-2.94,0.35,19.4215,-48.3726,-19.98,1023.41
248186,0.444763,9.8374,-0.181731,1.68,-2.52,0.14,19.5377,-46.8923,-21.3542,1023.41
248192,0.435198,9.8087,-0.167384,1.47,-2.52,0.63,19.5086,-51.4566,-19.1673,1023.41
248198,0.444763,9.8087,-0.157819,1.54,-2.66,0.14,19.5667,-50.2538,-20.0982,1023.43
248204,0.463893,9.8374,-0.200861,1.54,-2.52,-0.07,19.5377,-46.4297,-21.5611,1023.43
248210,0.401722,9.82783,-0.176949,1.47,-2.38,0.49,18.666,-50.0688,-21.0587,1023.39
248216,0.430416,9.8087,-0.157819,1.4,-2.87,0.42,20.206,-51.3024,-19.7731,1023.39
248222,0.449546,9.81827,-0.200861,1.68,-2.87,-0.07,19.4215,-47.2007,-21.5168,1023.39
248228,0.416069,9.85653,-0.176949,1.4,-2.59,-0.07,18.8403,-49.1744,-20.9257,1023.41
248234,0.473458,9.85174,-0.186514,1.54,-2.31,0.21,20.0316,-51.9809,-19.6106,1023.41
248240,0.463893,9.84218,-0.176949,1.68,-2.66,0,19.8283,-47.8792,-19.9948,1023.45
248246,0.439981,9.81349,-0.186514,1.4,-2.94,0.28,19.0437,-47.2007,-20.97,1023.45
248252,0.430416,9.8087,-0.13869,1.54,-2.8,0.28,19.8864,-51.0248,-18.9752,1023.43
248258,0.430416,9.84218,-0.200861,1.47,-2.45,0.35,20.3222,-49.9146,-19.7879,1023.43
248264,0.444763,9.83261,-0.181731,1.05,-2.66,-0.07,19.2762,-46.7381,-22.0783,1023.41
248270,0.449546,9.81827,-0.129125,1.54,-2.17,0.28,19.9735,-49.6679,-19.6254,1023.41
248276,0.435198,9.86609,-0.229555,1.47,-2.66,0.49,19.9445,-51.0557,-19.3446,1023.42
248282,0.45911,9.84218,-0.215208,1.33,-2.59,-0.07,19.5377,-47.0157,-21.103,1023.42
248288,0.416069,9.79436,-0.181731,1.19,-2.1,0.21,18.5498,-48.866,-21.4577,1023.42
248294,0.444763,9.82783,-0.148254,1.54,-2.17,0.63,19.5086,-52.135,-20.8962,1023.43
248300,0.47824,9.85653,-0.200861,1.47,-2.87,0.14,19.189,-48.0334,-21.8271,1023.43
248306,0.454328,9.84696,-0.23912,1.47,-2.52,-0.28,18.4626,-47.4782,-21.9305,1023.43
248312,0.45911,9.8374,-0.210426,1.26,-2.38,-17.57,19.7701,-50.6239,-19.9357,1023.43
248318,0.363462,9.83261,-0.148254,1.61,-3.22,-0.42,19.8283,-49.7604,-20.1573,1023.38
248324,0.559541,9.81349,-0.25825,1.19,-1.54,0.21,19.7992,-46.6147,-20.0687,1023.38
248330,0.396939,9.84696,-0.191296,1.47,-1.68,-0.07,19.712,-50.5622,-21.6202,1023.42
248336,0.411286,9.82783,-0.196078,1.96,-3.01,0.28,20.1479,-51.0557,-20.5711,1023.42
248342,0.483022,9.83261,-0.196078,1.12,-2.1,0.14,19.1599,-47.725,-21.3838,1023.42
248348,0.420851,9.79914,-0.162602,1.33,-2.1,0.35,19.3633,-48.2184,-20.4381,1023.42
248354,0.420851,9.81827,-0.181731,1.47,-3.08,0.21,20.3222,-52.2276,-18.9457,1023.42
248360,0.454328,9.85653,-0.224773,1.75,-2.94,-0.07,19.5377,-48.1876,-21.8714,1023.43
248366,0.439981,9.78479,-0.153037,1.05,-2.52,0.42,19.3343,-46.6456,-21.6497,1023.43
248372,0.401722,9.82783,-0.157819,1.61,-2.59,0.35,19.7411,-50.1613,-20.9848,1023.38
248378,0.468675,9.8374,-0.215208,1.4,-2.66,0.28,19.5086,-49.3595,-21.2212,1023.38
248384,0.463893,9.78957,-0.162602,1.89,-2.73,0,18.7241,-46.9231,-22.5659,1023.42
248390,0.435198,9.85174,-0.186514,1.68,-2.38,0.21,19.4505,-50.6547,-21.2656,1023.42
248396,0.487805,9.87087,-0.157819,1.26,-2.24,0.42,20.0026,-51.4566,-19.9652,1023.42
248402,0.425634,9.8087,-0.157819,1.61,-2.87,0.28,18.4626,-47.4782,-20.645,1023.44
248408,0.444763,9.80392,-0.153037,1.96,-2.52,0.21,19.5086,-48.4343,-20.6893,1023.44
248414,0.439981,9.83261,-0.176949,1.75,-2.52,0,20.3222,-52.4434,-19.3446,1023.43
248420,0.454328,9.84696,-0.210426,1.89,-2.8,0.07,19.5958,-49.1128,-19.5958,1023.43
248426,0.468675,9.84696,-0.229555,1.4,-2.31,0.14,19.9735,-47.6324,-22.1078,1023.4
248432,0.406504,9.78001,-0.186514,1.4,-2.1,0,19.8864,-50.9631,-19.98,1023.4
248438,0.396939,9.77523,-0.0526064,1.54,-2.31,0.35,20.0898,-49.2669,-20.2017,1023.4
248444,0.368245,9.71784,-0.105213,2.45,-3.29,0.63,19.0437,-46.4914,-22.3295,1023.4
248450,0.49737,9.93783,-0.296509,1.75,-3.29,0.28,19.7701,-50.8706,-22.0044,1023.42
248456,0.526064,9.82783,-0.277379,1.68,-2.66,0.7,20.2932,-50.994,-20.9109,1023.42
248462,0.35868,9.79436,-0.143472,1.47,-3.01,0.56,19.5377,-47.4474,-20.1869,1023.42
248468,0.449546,9.84218,-0.167384,1.75,-2.66,-0.07,19.0147,-49.0511,-21.7089,1023.41
248474,0.444763,9.80392,-0.205643,1.68,-2.38,0.28,19.7992,-51.5183,-19.9652,1023.41
248480,0.416069,9.81827,-0.157819,1.54,-2.87,0.77,19.6539,-48.5576,-19.714,1023.38
248486,0.492587,9.81349,-0.172166,2.24,-3.15,0.56,19.9154,-47.5399,-22.5511,1023.38
248492,0.444763,9.87087,-0.200861,1.47,-3.08,-0.07,20.0607,-51.6108,-20.5563,1023.42
248498,0.439981,9.81827,-0.162602,1.47,-2.38,0.49,20.0316,-49.5753,-20.7927,1023.42
248504,0.473458,9.81349,-0.196078,1.82,-2.8,0.49,19.5377,-46.3063,-21.4133,1023.39
248510,0.468675,9.87087,-0.224773,1.82,-2.73,0.07,20.3513,-49.7604,-22.3147,1023.39
248516,0.483022,9.81827,-0.196078,1.54,-2.66,0.63,20.1769,-51.1482,-20.246,1023.39
248522,0.468675,9.8087,-0.167384,1.19,-2.1,0.14,19.2471,-47.0773,-21.5906,1023.41
248528,0.473458,9.82305,-0.181731,1.61,-2.38,-0.21,20.5256,-49.1128,-21.6054,1023.41
248534,0.502152,9.80392,-0.181731,1.54,-2.66,0.7,20.3803,-51.4566,-19.8766,1023.39
248540,0.45911,9.87087,-0.186514,1.89,-2.66,0.07,19.5667,-48.1567,-20.2608,1023.39
248546,0.454328,9.8374,-0.191296,1.54,-2.87,0,18.9565,-47.139,-21.1326,1023.42
248552,0.444763,9.80392,-0.181731,1.47,-2.59,0.07,19.3052,-51.765,-21.9305,1023.42
248558,0.435198,9.78957,-0.129125,2.1,-3.22,0.07,20.6418,-49.5137,-19.4628,1023.44
248564,0.468675,9.89479,-0.253467,1.4,-2.8,0.07,19.2471,-46.6147,-21.9157,1023.44
248570,0.444763,9.78479,-0.181731,1.26,-2.03,0.21,20.1188,-49.4828,-20.2017,1023.44
248576,0.444763,9.79436,-0.186514,1.75,-3.01,0.07,20.206,-50.6239,-20.4381,1023.43
248582,0.454328,9.84696,-0.205643,1.61,-3.08,0.07,19.683,-47.4782,-20.2312,1023.43
248588,0.502152,9.8374,-0.196078,1.61,-2.52,0.28,18.9275,-48.1259,-21.7384,1023.41
248594,0.439981,9.84218,-0.167384,1.4,-2.31,0.07,19.3924,-51.6725,-18.9604,1023.41
248600,0.454328,9.8087,-0.172166,1.89,-2.38,0.63,19.5086,-48.0642,-21.0587,1023.39
248606,0.463893,9.84696,-0.215208,1.54,-2.8,0,19.7701,-47.5708,-21.3838,1023.39
248612,0.473458,9.85653,-0.210426,1.05,-2.17,0.14,19.5377,-51.4257,-20.0243,1023.4
248618,0.487805,9.8087,-0.172166,1.68,-2.17,0.14,19.4215,-50.6547,-20.2608,1023.4
248624,0.406504,9.83261,-0.186514,1.75,-2.59,0.14,19.712,-46.5839,-22.1669,1023.4
248630,0.430416,9.85653,-0.205643,1.68,-3.01,0.14,20.206,-50.2847,-21.5463,1023.43
248636,0.45911,9.81827,-0.205643,1.33,-2.31,-0.42,19.4796,-51.6725,-21.3985,1023.43
248642,0.425634,9.82305,-0.172166,1.82,-2.45,0.07,19.8573,-47.2007,-22.758,1023.41
248648,0.435198,9.78957,-0.148254,1.4,-2.66,0.7,20.2932,-48.5576,-22.0487,1023.41
248654,0.483022,9.85653,-0.210426,1.33,-2.1,0.42,19.8283,-51.7033,-19.7436,1023.39
248660,0.468675,9.81827,-0.215208,1.19,-1.82,0.14,18.695,-49.2053,-22.2408,1023.39
248666,0.425634,9.8374,-0.200861,1.26,-2.52,-0.35,19.2181,-47.9717,-21.9748,1023.38
248672,0.454328,9.82305,-0.148254,1.54,-2.73,0.28,20.0026,-50.7781,-20.4529,1023.38
248678,0.439981,9.86131,-0.21999,1.61,-2.31,0.35,20.206,-50.2538,-20.97,1023.4
248684,0.454328,9.83261,-0.162602,0.91,-2.8,-0.28,18.9275,-46.1213,-22.0783,1023.4
248690,0.45911,9.81827,-0.143472,1.47,-2.31,0.42,19.0437,-49.7604,-21.502,1023.4
248696,0.425634,9.83261,-0.143472,1.4,-2.45,0.63,19.5958,-50.3155,-20.4824,1023.4
248702,0.444763,9.84218,-0.191296,1.33,-2.52,0.07,18.7241,-46.183,-20.6302,1023.4
248708,0.49737,9.81349,-0.167384,1.4,-2.17,0.07,19.1018,-48.3726,-22.1965,1023.43
248714,0.401722,9.87566,-0.200861,1.54,-2.66,0.35,20.206,-51.8267,-20.2903,1023.43
248720,0.454328,9.80392,-0.210426,1.19,-2.52,0.14,20.0026,-48.0642,-20.2017,1023.4
248726,0.430416,9.80392,-0.205643,1.61,-2.45,0.21,19.0437,-47.4474,-21.6793,1023.4
248732,0.449546,9.88044,-0.210426,1.68,-2.24,-0.14,19.8573,-50.7164,-20.5858,1023.44
248738,0.463893,9.79914,-0.224773,1.47,-2.52,-0.21,19.1599,-49.8221,-20.1573,1023.44
248744,0.425634,9.8374,-0.234338,1.33,-2.59,-0.07,19.2471,-46.6456,-21.369,1023.44
248750,0.454328,9.80392,-0.196078,1.68,-2.31,0.21,19.5667,-49.8529,-20.0391,1023.4
248756,0.45911,9.78479,-0.224773,1.47,-2.38,-0.28,20.235,-51.3024,-20.7927,1023.4
248762,0.435198,9.82305,-0.181731,1.33,-2.17,0.42,19.7992,-47.5399,-20.9405,1023.43
248768,0.454328,9.84218,-0.263032,1.61,-2.66,-0.07,19.189,-48.2801,-21.3247,1023.43
248774,0.454328,9.79914,-0.176949,1.05,-2.1,-0.28,19.9735,-51.95,-20.1869,1023.41
248780,0.411286,9.78957,-0.172166,1.82,-2.59,0.28,19.2762,-48.0642,-19.9505,1023.41
248786,0.411286,9.84696,-0.215208,1.96,-2.94,0.14,19.0437,-47.6324,-20.9553,1023.4
248792,0.435198,9.84218,-0.21999,1.26,-2.73,0.49,20.0898,-51.6416,-20.3938,1023.4
248798,0.45911,9.82305,-0.186514,1.47,-2.38,0.21,20.6128,-49.7295,-21.1769,1023.4
248804,0.468675,9.79914,-0.167384,1.4,-2.45,0.35,19.683,-46.8306,-21.8271,1023.37
248810,0.430416,9.85174,-0.172166,1.33,-2.94,0.7,19.9154,-50.6239,-21.5463,1023.37
248816,0.454328,9.87087,-0.253467,1.4,-2.73,0.21,20.0898,-51.5183,-20.3051,1023.41
248822,0.439981,9.77044,-0.186514,1.26,-2.38,0.07,19.9735,-47.0773,-21.1621,1023.41
248828,0.439981,9.83261,-0.21999,1.75,-2.52,0.07,19.3343,-47.9408,-21.0587,1023.41
248834,0.439981,9.86609,-0.215208,1.68,-2.66,0.28,19.5377,-51.9809,-20.1573,1023.41
248840,0.454328,9.85174,-0.224773,1.19,-2.31,0.21,19.4796,-48.0025,-21.7384,1023.38
248846,0.492587,9.82783,-0.23912,1.19,-2.59,0,19.2762,-47.6016,-22.5216,1023.38
248852,0.435198,9.81827,-0.153037,1.61,-2.73,-17.71,20.0026,-51.6108,-20.5858,1023.4
248858,0.439981,9.81827,-0.210426,2.1,-2.8,-0.28,19.2181,-49.6679,-20.8666,1023.4
248864,0.487805,9.88044,-0.243902,1.33,-2.38,-0.07,19.3924,-46.9231,-23.1865,1023.4
248870,0.430416,9.8374,-0.186514,1.47,-2.45,0,19.7992,-50.5005,-21.5759,1023.39
248876,0.444763,9.7561,-0.176949,1.47,-2.52,-0.07,19.6539,-51.179,-20.9848,1023.39
248882,0.420851,9.87087,-0.196078,1.33,-2.24,0.42,19.4505,-47.4782,-23.1865,1023.43
248888,0.382592,9.81349,-0.200861,1.75,-3.29,-0.28,19.3633,-49.0202,-23.1422,1023.43
248894,0.463893,9.80392,-0.21999,1.47,-2.52,0.35,20.1188,-51.6725,-20.6597,1023.43
248900,0.425634,9.92348,-0.243902,1.26,-2.8,0.49,19.7411,-48.5576,-22.2999,1023.43
248906,0.483022,9.72262,-0.114778,1.61,-2.66,0.14,18.9856,-47.2315,-22.4329,1023.45
248912,0.449546,9.80392,-0.181731,1.96,-2.66,-0.14,20.4094,-51.7958,-21.7089,1023.45
248918,0.435198,9.8374,-0.224773,1.54,-3.01,0.56,19.5667,-49.5137,-20.512,1023.45
248924,0.511717,9.79914,-0.224773,1.82,-2.8,0.07,18.8403,-46.7998,-21.3838,1023.41
248930,0.430416,9.84218,-0.191296,1.33,-2.59,0.49,19.1599,-50.9631,-20.6597,1023.41
248936,0.411286,9.85174,-0.196078,1.4,-2.52,0.21,20.4966,-51.4257,-20.7041,1023.39
248942,0.487805,9.78001,-0.21999,1.54,-2.17,0,20.0316,-47.0773,-22.2408,1023.39
248948,0.406504,9.86609,-0.181731,1.68,-2.66,0,19.5377,-48.3109,-21.236,1023.4
248954,0.502152,9.82783,-0.234338,1.47,-2.52,0,20.5256,-51.765,-21.5463,1023.4
248960,0.49737,9.79914,-0.186514,1.4,-2.52,-0.21,20.3513,-48.0642,-20.379,1023.39
248966,0.430416,9.80392,-0.215208,1.61,-2.94,0.07,19.3052,-47.7866,-22.7137,1023.39
248972,0.468675,9.81349,-0.200861,1.54,-2.24,-0.35,19.683,-51.4566,-21.0291,1023.39
248978,0.449546,9.84218,-0.167384,1.47,-2.31,0,20.2932,-49.3286,-20.2903,1023.4
248984,0.406504,9.79914,-0.176949,1.75,-2.59,0.21,19.8573,-46.4605,-21.9453,1023.4
248990,0.425634,9.82305,-0.196078,1.68,-2.45,0.14,20.1769,-50.5622,-21.8714,1023.39
248996,0.444763,9.81349,-0.191296,1.75,-3.08,-0.07,20.5547,-50.8398,-20.5415,1023.39
249002,0.473458,9.84218,-0.229555,1.54,-2.45,0,19.2471,-46.4297,-21.6202,1023.36
249008,0.430416,9.78957,-0.196078,1.33,-2.24,0.56,19.7701,-49.4212,-21.7236,1023.36
249014,0.449546,9.86131,-0.215208,1.68,-2.8,0.35,20.0607,-51.9809,-21.0587,1023.38
249020,0.439981,9.82305,-0.196078,1.33,-2.66,0,19.5086,-48.095,-21.635,1023.38
249026,0.492587,9.79436,-0.167384,1.4,-2.52,0.28,18.4626,-48.0642,-22.4181,1023.4
249032,0.45911,9.79914,-0.243902,1.54,-2.45,0.56,19.5667,-51.179,-21.3247,1023.4
249038,0.416069,9.79914,-0.176949,1.82,-2.52,0.07,19.6539,-49.7295,-21.1474,1023.4
249044,0.406504,9.83261,-0.205643,2.03,-2.45,0.21,20.2641,-46.7689,-22.4625,1023.39
249050,0.49737,9.84218,-0.253467,1.4,-2.52,0.49,20.206,-49.9763,-21.3985,1023.39
249056,0.463893,9.77523,-0.186514,1.89,-2.45,0.28,20.206,-50.994,-20.246,1023.4
249062,0.406504,9.82783,-0.205643,1.89,-2.59,0.14,19.4505,-46.0596,-21.5906,1023.4
249068,0.454328,9.86609,-0.215208,1.33,-2.38,-0.21,18.5207,-49.0819,-23.0387,1023.43
249074,0.468675,9.78957,-0.21999,1.12,-1.75,0.49,20.1188,-52.0117,-20.9848,1023.43
249080,0.406504,9.76088,-0.143472,1.19,-2.1,0.56,19.9154,-48.1876,-21.2212,1023.37
249086,0.430416,9.8374,-0.181731,1.54,-2.8,0.28,20.0026,-47.4782,-21.9453,1023.37
249092,0.449546,9.85174,-0.224773,1.19,-2.45,0.21,19.189,-51.4874,-20.379,1023.37
249098,0.454328,9.80392,-0.224773,1.61,-2.45,0.14,19.9154,-49.637,-18.8718,1023.4
249104,0.449546,9.76566,-0.196078,1.96,-2.24,0.21,19.2762,-46.8306,-21.9601,1023.4
249110,0.425634,9.86609,-0.215208,1.4,-2.52,0.14,19.7701,-50.6547,-20.5415,1023.38
249116,0.430416,9.82783,-0.210426,1.26,-2.87,0.21,20.2641,-50.9015,-19.6106,1023.38
249122,0.454328,9.78479,-0.157819,1.82,-2.66,-0.28,19.683,-47.4474,-20.6893,1023.37
249128,0.416069,9.82305,-0.186514,1.82,-2.59,0.07,19.2762,-48.8352,-21.0439,1023.37
249134,0.47824,9.87566,-0.248685,1.12,-2.59,0.35,19.7411,-51.4566,-21.3099,1023.41
249140,0.444763,9.81827,-0.215208,1.33,-2.17,0.07,19.7411,-47.6016,-21.1326,1023.41
249146,0.363462,9.74653,-0.0669536,1.47,-2.52,-0.21,19.1018,-47.2315,-22.359,1023.41
249152,0.401722,9.71305,-0.0430416,2.45,-3.08,0.84,20.4094,-51.2715,-20.2608,1023.4
249158,0.530846,9.98565,-0.382592,1.82,-3.15,0.91,19.4796,-49.0819,-20.8518,1023.4
249164,0.535629,9.89,-0.344333,1.05,-2.24,-0.21,19.712,-46.7689,-21.6941,1023.38
249170,0.420851,9.73218,-0.0860832,1.54,-2.66,0,20.3513,-50.4389,-20.5711,1023.38
249176,0.454328,9.77523,-0.148254,1.89,-2.73,0.49,19.7411,-51.0248,-19.8914,1023.41
249182,0.492587,9.88522,-0.263032,1.82,-2.45,0.28,19.3343,-46.4914,-21.2212,1023.41
249188,0.473458,9.86131,-0.224773,1.75,-2.73,-0.07,19.2181,-48.4343,-21.2508,1023.4
249194,0.439981,9.82783,-0.196078,1.68,-2.87,-0.07,20.0898,-50.9015,-20.4085,1023.4
249200,0.473458,9.80392,-0.172166,1.89,-2.66,0.07,19.7992,-47.2007,-21.2508,1023.39
249206,0.45911,9.87566,-0.181731,1.4,-2.1,0.35,19.3633,-46.9848,-21.8271,1023.39
249212,0.463893,9.8374,-0.205643,1.61,-2.73,0.07,19.4215,-51.4874,-20.7779,1023.39
249218,0.487805,9.78957,-0.176949,1.82,-2.87,0.14,19.6249,-48.681,-19.5811,1023.38
249224,0.430416,9.8374,-0.176949,1.61,-2.52,0.56,18.8113,-46.3372,-21.3838,1023.38
249230,0.444763,9.84218,-0.210426,1.75,-2.52,0.14,19.3924,-50.5931,-19.7584,1023.39
249236,0.430416,9.81349,-0.205643,1.61,-2.52,0.07,19.9445,-50.223,-20.113,1023.39
249242,0.435198,9.78479,-0.162602,1.33,-2.45,0.35,19.5086,-47.139,-22.8171,1023.38
249248,0.468675,9.77044,-0.186514,1.68,-2.8,0.14,18.4626,-48.7118,-21.7384,1023.38
249254,0.435198,9.88044,-0.200861,1.68,-2.31,0.49,18.9565,-51.6725,-21.4133,1023.38
249260,0.430416,9.87087,-0.210426,0.91,-2.8,0.21,19.3052,-47.2624,-21.635,1023.38
249266,0.468675,9.76088,-0.162602,1.68,-2.17,0.14,19.4215,-47.7558,-21.4577,1023.38
249272,0.444763,9.85653,-0.21999,1.68,-2.45,0,19.4505,-52.2584,-22.5511,1023.39
249278,0.487805,9.84218,-0.248685,1.33,-2.38,0.07,19.5377,-48.866,-20.1573,1023.39
249284,0.463893,9.81349,-0.157819,1.54,-2.17,0.35,19.0728,-46.7073,-21.3985,1023.38
249290,0.444763,9.81349,-0.13869,1.19,-2.45,-0.21,19.5958,-50.0071,-21.1326,1023.38
249296,0.449546,9.81827,-0.176949,1.82,-2.94,-0.35,20.235,-51.0248,-19.9357,1023.42
249302,0.449546,9.81827,-0.181731,1.96,-2.8,0.35,19.2181,-46.954,-21.7975,1023.42
249308,0.444763,9.86131,-0.248685,1.33,-2.73,-0.28,19.1599,-49.5445,-21.1178,1023.43
249314,0.463893,9.78479,-0.186514,1.4,-2.59,-0.21,19.8864,-52.0117,-20.1573,1023.43
249320,0.416069,9.82305,-0.181731,1.68,-2.73,0,19.2762,-48.2184,-20.4233,1023.43
249326,0.420851,9.84696,-0.176949,1.47,-2.94,0.28,19.2762,-47.3857,-20.4233,1023.42
249332,0.473458,9.81827,-0.215208,1.47,-2.38,0.35,19.6539,-51.5799,-20.5711,1023.42
249338,0.425634,9.81827,-0.148254,1.33,-2.66,0.21,19.5667,-48.866,-20.0835,1023.41
249344,0.425634,9.79914,-0.205643,1.19,-2.66,-0.07,19.6539,-45.9363,-20.3347,1023.41
249350,0.468675,9.86131,-0.196078,1.33,-2.03,0.07,19.0728,-49.8837,-20.9257,1023.41
249356,0.454328,9.78479,-0.215208,1.26,-2.24,0.07,20.6709,-51.2099,-19.0787,1023.41
249362,0.449546,9.79914,-0.124342,1.54,-2.73,0.35,19.683,-46.4605,-22.1521,1023.35
249368,0.45911,9.83261,-0.200861,1.75,-3.08,-0.14,19.6249,-49.2361,-21.9453,1023.35
249374,0.444763,9.86131,-0.215208,1.61,-2.03,0.14,20.1479,-52.6902,-20.6006,1023.37
249380,0.430416,9.83261,-0.172166,1.19,-2.31,0,18.9565,-48.8352,-20.4676,1023.37
249386,0.468675,9.80392,-0.196078,1.68,-2.66,-0.28,19.0147,-47.2932,-21.4429,1023.37
249392,0.463893,9.86609,-0.205643,1.33,-2.59,-0.28,19.8573,-51.7341,-21.1917,1023.38
249398,0.392157,9.85653,-0.243902,1.47,-2.8,-0.07,19.1018,-49.1128,-21.6497,1023.38
249404,0.502152,9.78479,-0.215208,1.19,-2.59,0.14,19.1309,-46.954,-22.5807,1023.39
249410,0.416069,9.87566,-0.191296,1.96,-2.31,0,19.5086,-50.1921,-22.3147,1023.39
249416,0.439981,9.81349,-0.167384,1.89,-2.45,-0.14,20.1188,-50.5931,-21.635,1023.39
249422,0.468675,9.80392,-0.21999,1.26,-2.31,0.28,19.5377,-46.9848,-22.1965,1023.39
249428,0.425634,9.82305,-0.181731,1.75,-2.59,0.07,19.4796,-49.8529,-20.8223,1023.4
249434,0.463893,9.8087,-0.210426,1.61,-2.17,-0.14,20.1479,-52.6902,-19.5219,1023.4
249440,0.435198,9.85653,-0.196078,1.54,-2.45,0.07,19.189,-48.2184,-21.8271,1023.4
249446,0.425634,9.77523,-0.143472,1.61,-2.59,-0.07,19.2181,-48.1567,-21.6054,1023.41
249452,0.483022,9.79914,-0.176949,1.75,-2.52,0,19.4505,-51.5491,-20.4972,1023.41
249458,0.420851,9.85653,-0.215208,1.68,-2.52,0.07,19.8864,-49.2053,-21.0587,1023.39
249464,0.468675,9.78001,-0.186514,2.03,-2.8,-0.21,18.7822,-47.2624,-22.1521,1023.39
249470,0.468675,9.86131,-0.210426,1.47,-2.59,0.28,19.4505,-50.3463,-20.3642,1023.36
249476,0.425634,9.81349,-0.215208,1.26,-2.66,0.56,20.0316,-51.2099,-20.1426,1023.36
249482,0.439981,9.79436,-0.181731,1.82,-2.59,0.07,19.5086,-47.2007,-21.9748,1023.42
249488,0.454328,9.82305,-0.210426,1.75,-2.45,-0.21,19.2762,-47.5091,-21.7384,1023.42
249494,0.473458,9.84696,-0.205643,1.61,-2.45,0,20.5256,-52.0425,-20.5711,1023.42
249500,0.468675,9.81349,-0.181731,1.47,-2.1,0.7,18.8984,-47.324,-20.8666,1023.41
249506,0.45911,9.84218,-0.205643,1.61,-2.73,-0.07,19.3924,-47.0157,-22.5511,1023.41
249512,0.420851,9.80392,-0.181731,1.33,-2.38,-0.07,20.0316,-50.4389,-20.9405,1023.39
249518,0.425634,9.8087,-0.148254,1.4,-3.15,0,19.2471,-49.3903,-20.1278,1023.39
249524,0.454328,9.81349,-0.200861,1.54,-2.59,0,19.4505,-46.0905,-22.3886,1023.39
249530,0.468675,9.84218,-0.21999,1.4,-2.59,0,19.4215,-49.5445,-20.8223,1023.39
249536,0.406504,9.86131,-0.191296,1.54,-2.87,0.28,19.7701,-50.1305,-21.4724,1023.37
249542,0.387374,9.77523,-0.153037,1.75,-2.73,0.56,19.6539,-46.6147,-22.758,1023.37
249548,0.430416,9.89,-0.210426,1.26,-2.66,0.07,18.7241,-48.095,-21.502,1023.4
249554,0.444763,9.83261,-0.205643,1.68,-2.87,0.21,19.7992,-51.6416,-20.4824,1023.4
249560,0.430416,9.8087,-0.229555,1.75,-2.38,0.56,19.4505,-47.6016,-21.7089,1023.4
249566,0.416069,9.80392,-0.176949,1.12,-2.59,0.21,18.695,-47.0773,-20.8962,1023.38
249572,0.435198,9.78479,-0.191296,1.47,-2.94,0.07,19.8864,-50.5931,-21.3099,1023.38
249578,0.487805,9.81349,-0.267814,1.61,-2.8,0.28,19.4796,-48.9894,-21.2065,1023.41
249584,0.483022,9.87566,-0.248685,1.26,-1.96,0.77,18.9275,-46.954,-21.8418,1023.41
249590,0.420851,9.84696,-0.200861,1.68,-2.94,-0.28,19.9154,-49.5137,-21.2212,1023.43
249596,0.468675,9.78957,-0.200861,1.61,-3.08,0.28,20.1188,-50.408,-20.4233,1023.43
249602,0.516499,9.84696,-0.263032,2.03,-2.8,-0.07,19.3052,-46.8306,-21.8123,1023.39
249608,0.444763,9.8374,-0.215208,1.4,-2.87,-0.28,19.8283,-48.3726,-21.7089,1023.39
249614,0.444763,9.79914,-0.224773,2.03,-2.31,0.21,20.0026,-51.7341,-19.5219,1023.39
249620,0.449546,9.82305,-0.205643,1.89,-2.8,0.21,19.2762,-47.6324,-20.8666,1023.38
249626,0.47824,9.89479,-0.282162,1.54,-2.59,-0.49,19.0437,-47.0157,-20.7336,1023.38
249632,0.45911,9.79436,-0.21999,1.61,-2.52,0.42,19.7992,-51.179,-21.6054,1023.4
249638,0.406504,9.85653,-0.191296,1.26,-3.08,-0.07,20.3513,-49.1128,-19.714,1023.4
249644,0.444763,9.8087,-0.224773,1.4,-2.59,0,19.189,-46.183,-21.9157,1023.36
249650,0.45911,9.79914,-0.210426,1.61,-2.52,0.28,19.683,-50.2538,-21.3247,1023.36
249656,0.435198,9.84218,-0.263032,0.98,-2.8,0.35,19.7701,-50.9323,-19.7436,1023.41
249662,0.416069,9.8087,-0.200861,1.68,-2.8,0.7,19.3633,-46.4297,-20.7484,1023.41
249668,0.435198,9.79914,-0.205643,1.47,-2.24,0.35,19.2762,-47.8483,-21.4872,1023.41
249674,0.449546,9.84218,-0.243902,1.61,-2.45,0.28,19.683,-51.179,-19.0934,1023.41
249680,0.47824,9.86609,-0.267814,1.26,-2.94,0.35,19.2471,-48.2184,-20.7484,1023.41
249686,0.420851,9.78001,-0.186514,1.54,-2.66,0.28,18.3464,-46.954,-21.9009,1023.38
249692,0.430416,9.85653,-0.200861,1.4,-2.45,-0.07,20.3222,-51.6416,-20.0687,1023.38
249698,0.47824,9.83261,-0.23912,1.54,-2.17,0,19.9154,-48.7427,-20.3938,1023.38
249704,0.45911,9.80392,-0.200861,1.19,-2.94,0,19.4505,-46.4605,-22.1521,1023.38
249710,0.439981,9.85174,-0.224773,1.82,-2.52,0.07,19.4215,-50.6547,-20.2903,1023.43
249716,0.487805,9.8087,-0.21999,1.54,-2.45,-0.28,19.712,-50.5005,-19.4333,1023.43
249722,0.420851,9.8374,-0.181731,1.96,-3.08,-0.49,19.5958,-46.6147,-22.1965,1023.43
249728,0.401722,9.84218,-0.210426,1.47,-2.73,-17.64,19.7701,-48.1259,-21.0735,1023.41
249734,0.435198,9.82305,-0.21999,1.33,-2.66,0.35,19.4796,-51.2407,-20.3494,1023.41
249740,0.430416,9.78479,-0.176949,2.17,-2.66,-0.14,19.4796,-47.7558,-22.0339,1023.39
249746,0.435198,9.8087,-0.196078,1.26,-2.52,-0.07,18.7532,-47.6016,-22.4181,1023.39
249752,0.444763,9.78479,-0.23912,1.75,-2.45,0.28,19.7992,-51.2099,-20.2017,1023.42
249758,0.473458,9.8374,-0.205643,1.4,-2.52,0.42,19.0147,-48.9894,-19.98,1023.42
249764,0.430416,9.79914,-0.181731,1.75,-2.45,0.21,19.4796,-46.8923,-22.0044,1023.37
249770,0.473458,9.82305,-0.191296,1.54,-2.38,-0.14,19.2762,-50.408,-21.4281,1023.37
249776,0.473458,9.8374,-0.210426,1.47,-2.38,0.56,20.0898,-50.5931,-20.7632,1023.39
249782,0.473458,9.82783,-0.210426,1.4,-1.96,0.56,18.695,-47.324,-22.9796,1023.39
249788,0.435198,9.8087,-0.186514,1.75,-2.52,0.07,18.8403,-48.7118,-21.5906,1023.39
249794,0.430416,9.84696,-0.181731,1.68,-2.94,0.07,19.6249,-50.8089,-19.0196,1023.37
249800,0.449546,9.84218,-0.210426,1.68,-3.22,-0.49,20.1769,-47.1082,-20.4381,1023.37
249806,0.449546,9.87566,-0.215208,1.54,-2.94,0.28,18.5788,-46.5531,-21.3099,1023.4
249812,0.411286,9.80392,-0.191296,1.82,-2.31,0.56,19.3633,-51.2407,-19.9948,1023.4
249818,0.416069,9.86609,-0.210426,1.61,-3.08,0.14,19.4796,-49.2669,-20.4381,1023.38
249824,0.463893,9.84696,-0.215208,1.4,-2.38,0.35,18.8694,-45.6279,-21.9601,1023.38
249830,0.468675,9.83261,-0.277379,1.47,-2.24,0.35,19.683,-50.0996,-20.5858,1023.4
249836,0.420851,9.81827,-0.191296,1.82,-2.94,0.28,20.0026,-50.5005,-21.103,1023.4
249842,0.420851,9.82783,-0.215208,1.96,-3.29,0.35,19.4215,-46.183,-20.4676,1023.4
249848,0.454328,9.81349,-0.23912,1.82,-2.45,0.21,19.5958,-49.5445,-20.6006,1023.37
249854,0.468675,9.8087,-0.253467,1.82,-2.52,0,20.2932,-51.4566,-19.6106,1023.37
249860,0.416069,9.88522,-0.248685,1.89,-2.87,-0.07,19.5377,-47.2315,-20.6893,1023.39
249866,0.454328,9.81827,-0.229555,1.19,-2.94,0.49,19.2181,-47.725,-21.3542,1023.39
249872,0.439981,9.79914,-0.176949,2.1,-2.73,0.21,19.5086,-51.1482,-19.6845,1023.41
249878,0.454328,9.81349,-0.248685,1.33,-2.45,0.07,19.9154,-50.0379,-20.6893,1023.41
249884,0.45911,9.82305,-0.25825,1.4,-2.1,0.35,17.8524,-47.6016,-21.8418,1023.43
249890,0.411286,9.81349,-0.200861,2.17,-2.94,0.63,19.8283,-50.0996,-19.8766,1023.43
249896,0.439981,9.8374,-0.196078,1.33,-2.87,0.42,19.5958,-50.8398,-19.5811,1023.43
249902,0.463893,9.82305,-0.215208,1.82,-2.59,0.07,18.9856,-46.3989,-21.7236,1023.41
249908,0.444763,9.85653,-0.272597,1.47,-2.52,0.42,19.5667,-49.0819,-21.5463,1023.41
249914,0.483022,9.83261,-0.21999,1.4,-2.59,0.14,19.5667,-51.0248,-20.5267,1023.39
249920,0.411286,9.7561,-0.191296,1.54,-2.52,0.28,19.1599,-47.6633,-21.1326,1023.39
249926,0.454328,9.81827,-0.243902,1.89,-3.08,0.49,18.7241,-47.0773,-20.2312,1023.41
249932,0.473458,9.82783,-0.267814,1.47,-2.66,0.07,19.2471,-51.7958,-20.7632,1023.41
249938,0.487805,9.81349,-0.186514,1.68,-2.45,0.63,19.5086,-48.7735,-20.3051,1023.39
249944,0.435198,9.79914,-0.191296,1.89,-2.66,-0.14,19.189,-46.4297,-22.8171,1023.39
249950,0.406504,9.87566,-0.253467,1.47,-2.31,0.07,19.1599,-50.7164,-20.9553,1023.41
249956,0.454328,9.83261,-0.215208,1.4,-2.73,0.28,19.4215,-50.4389,-20.2755,1023.41
249962,0.468675,9.81349,-0.205643,1.68,-2.45,0,19.0437,-46.7689,-22.3442,1023.41
249968,0.473458,9.8087,-0.224773,1.47,-2.45,0,18.695,-49.3286,-21.4577,1023.37
249974,0.439981,9.82305,-0.23912,1.33,-2.31,0.42,19.3633,-52.2276,-20.6893,1023.37
249980,0.45911,9.82305,-0.210426,1.26,-2.73,0.21,19.5958,-47.3549,-21.2508,1023.42
249986,0.430416,9.80392,-0.200861,1.75,-2.52,0,19.2762,-47.2007,-21.768,1023.42
249992,0.406504,9.83261,-0.234338,1.68,-2.73,0.42,19.5086,-51.7958,-20.2164,1023.4
249998,0.468675,9.84696,-0.267814,1.33,-2.52,0.77,19.5667,-48.9586,-19.98,1023.4
250004,0.449546,9.84696,-0.253467,1.19,-2.8,0.56,19.5667,-46.7998,-21.502,1023.4
250010,0.454328,9.78479,-0.176949,1.96,-2.66,0.63,19.1018,-51.2099,-21.0291,1023.4
250016,0.454328,9.8374,-0.191296,1.68,-2.45,-0.07,19.7992,-51.1482,-19.3151,1023.4
250022,0.45911,9.85653,-0.224773,1.47,-2.8,0.28,19.2471,-46.3989,-20.7632,1023.41
250028,0.463893,9.82783,-0.23912,1.33,-2.38,0.84,18.8984,-49.8221,-20.2608,1023.41
250034,0.473458,9.82783,-0.186514,1.89,-2.52,0.56,19.7992,-51.8267,-19.8914,1023.41
250040,0.45911,9.84218,-0.196078,1.33,-2.59,0.14,19.3924,-47.2315,-21.9453,1023.41
250046,0.502152,9.84218,-0.200861,1.33,-2.45,0.14,19.4796,-47.5091,-23.2013,1023.39
250052,0.439981,9.82305,-0.210426,1.19,-2.59,0.07,19.3343,-51.4257,-20.9848,1023.39
250058,0.468675,9.82305,-0.23912,1.4,-2.66,0.21,19.7992,-48.6502,-20.8814,1023.4
250064,0.483022,9.84218,-0.234338,1.4,-2.24,0,18.9856,-46.6456,-23.0387,1023.4
250070,0.401722,9.8374,-0.215208,1.26,-2.73,0.56,19.6249,-51.3332,-21.3838,1023.4
250076,0.444763,9.79436,-0.172166,1.61,-2.73,0.28,19.3924,-50.8398,-19.98,1023.41
250082,0.502152,9.81349,-0.21999,1.05,-2.31,0.21,19.3924,-46.8615,-20.7041,1023.41
250088,0.416069,9.79436,-0.215208,1.75,-2.31,0.35,18.9565,-49.9146,-20.8962,1023.39
250094,0.439981,9.85653,-0.191296,1.68,-2.45,0.42,19.8283,-51.6416,-20.0539,1023.39
250100,0.416069,9.86131,-0.224773,1.47,-2.73,-0.14,18.8403,-47.2007,-21.1769,1023.39
250106,0.420851,9.76088,-0.153037,1.54,-3.22,0.14,18.1139,-46.8615,-20.7779,1023.39
250112,0.454328,9.85653,-0.210426,1.82,-3.01,0.56,20.0316,-51.2715,-19.4037,1023.42
250118,0.468675,9.82783,-0.21999,1.54,-2.59,0.28,19.2471,-49.3595,-21.0882,1023.42
250124,0.401722,9.79914,-0.153037,1.33,-2.52,0.21,18.8403,-46.954,-21.6054,1023.39
250130,0.468675,9.79436,-0.21999,1.96,-2.45,0.56,19.4796,-51.2099,-21.1178,1023.39
250136,0.449546,9.81827,-0.186514,1.54,-2.31,0.21,20.0898,-50.6547,-19.8175,1023.39
250142,0.439981,9.83261,-0.196078,1.68,-2.52,0.49,19.4796,-47.3549,-21.7236,1023.41
250148,0.502152,9.81827,-0.253467,1.68,-2.52,0.07,19.1309,-49.5137,-20.7779,1023.41
250154,0.435198,9.8374,-0.186514,1.26,-2.38,0.07,19.9735,-50.6856,-19.5958,1023.4
250160,0.454328,9.78001,-0.148254,1.61,-2.31,0.28,19.4215,-48.3726,-21.2803,1023.4
250166,0.439981,9.80392,-0.196078,1.82,-2.45,0,18.6369,-47.725,-21.635,1023.38
250172,0.49737,9.86131,-0.306074,1.33,-2.59,0,19.5667,-51.2099,-21.4429,1023.38
250178,0.435198,9.80392,-0.181731,1.4,-2.87,0,19.6249,-49.4212,-21.6497,1023.4
250184,0.430416,9.82305,-0.176949,2.03,-2.87,0.07,18.4045,-47.324,-21.3838,1023.4
250190,0.425634,9.82783,-0.186514,1.47,-2.52,0.21,18.6369,-50.3772,-21.8418,1023.4
250196,0.439981,9.84218,-0.21999,1.54,-2.59,0.07,19.3924,-50.8398,-20.3199,1023.4
250202,0.435198,9.79914,-0.167384,1.68,-2.24,0.42,18.9565,-45.9054,-20.8075,1023.4
250208,0.45911,9.81827,-0.148254,2.17,-2.73,0,18.6369,-49.6679,-22.0044,1023.41
250214,0.483022,9.85653,-0.248685,1.54,-2.59,0.14,19.0147,-51.7341,-19.0491,1023.41
250220,0.45911,9.84218,-0.196078,0.98,-2.17,-0.07,19.712,-47.5399,-20.6006,1023.41
250226,0.439981,9.78957,-0.133907,1.68,-2.17,0.35,19.7992,-47.7866,-21.8271,1023.41
250232,0.416069,9.87087,-0.181731,1.61,-2.73,0.21,19.8283,-51.2407,-20.4529,1023.42
250238,0.45911,9.80392,-0.176949,0.98,-2.66,0.14,19.8573,-48.3726,-21.1621,1023.42
250244,0.468675,9.82783,-0.205643,1.4,-2.45,0.35,19.1018,-47.2315,-22.1226,1023.42
250250,0.420851,9.82783,-0.172166,1.4,-2.45,0.21,19.7411,-50.4389,-20.837,1023.39
250256,0.449546,9.78479,-0.210426,1.61,-2.73,0.07,20.3222,-50.0996,-20.8075,1023.39
250262,0.45911,9.81827,-0.191296,1.26,-2.52,-0.35,19.0147,-46.4914,-21.1769,1023.41
250268,0.449546,9.81827,-0.210426,1.61,-2.94,0.14,20.1769,-49.3595,-20.5267,1023.41
250274,0.454328,9.80392,-0.181731,1.47,-2.45,0,20.206,-50.9631,-20.3642,1023.43
250280,0.454328,9.78957,-0.176949,1.96,-2.87,0,19.6249,-48.1876,-21.236,1023.43
250286,0.449546,9.84696,-0.200861,1.12,-2.59,0.42,19.8283,-48.1259,-22.4772,1023.44
250292,0.463893,9.85653,-0.200861,1.61,-2.66,-0.42,19.712,-51.0557,-20.6597,1023.44
250298,0.45911,9.82783,-0.205643,1.54,-2.38,0.28,19.4215,-48.5268,-20.5267,1023.41
250304,0.411286,9.82783,-0.176949,1.54,-2.38,-0.07,18.9856,-45.8746,-21.7827,1023.41
250310,0.425634,9.81349,-0.162602,1.75,-2.66,-0.07,19.712,-49.9454,-21.4133,1023.41
250316,0.526064,9.79914,-0.21999,1.82,-2.66,0.35,20.0607,-50.5005,-20.3494,1023.39
250322,0.444763,9.84218,-0.215208,1.54,-2.1,0.14,18.9565,-46.3372,-21.7089,1023.39
250328,0.420851,9.79436,-0.186514,1.26,-2.24,-0.21,19.683,-49.3903,-20.7336,1023.41
250334,0.430416,9.82305,-0.21999,1.4,-2.8,17.85,19.4796,-50.7473,-19.8175,1023.41
250340,0.454328,9.82783,-0.205643,1.4,-2.59,-0.14,20.0607,-47.7866,-21.4724,1023.38
250346,0.411286,9.8087,-0.224773,1.54,-2.52,0.14,18.3464,-47.2624,-21.3838,1023.38
250352,0.454328,9.82305,-0.205643,1.61,-2.59,0.28,19.7992,-50.5314,-21.6054,1023.41
250358,0.430416,9.89,-0.229555,1.33,-2.94,0.35,19.1309,-48.2492,-21.8271,1023.41
250364,0.473458,9.87087,-0.167384,0.63,-2.17,0.42,19.2762,-47.2315,-21.9748,1023.41
250370,0.396939,9.64132,-0.133907,1.47,-1.68,0.56,19.5086,-50.5622,-21.7384,1023.42
250376,0.439981,9.85174,-0.109995,2.03,-3.29,0.21,19.9735,-50.0071,-19.6549,1023.42
250382,0.549976,9.87087,-0.344333,1.68,-2.87,0.56,19.3343,-46.9848,-22.1226,1023.41
250388,0.454328,9.79914,-0.13869,1.82,-2.66,0.28,20.0607,-49.6987,-20.6006,1023.41
250394,0.430416,9.8087,-0.205643,1.82,-2.45,0.21,20.2932,-51.5183,-21.1474,1023.4
250400,0.47824,9.82305,-0.200861,1.33,-2.31,-0.35,19.5667,-47.5091,-21.9009,1023.4
250406,0.416069,9.83261,-0.167384,1.61,-3.08,-0.28,19.6249,-46.8306,-22.6989,1023.36
250412,0.449546,9.82305,-0.181731,1.89,-2.8,-0.21,19.3052,-50.8706,-20.97,1023.36
250418,0.502152,9.84218,-0.234338,1.54,-2.45,-0.14,19.683,-47.91,-19.9652,1023.36
250424,0.430416,9.81349,-0.157819,1.4,-2.59,0.07,19.189,-46.4914,-21.7384,1023.4
250430,0.396939,9.84696,-0.200861,1.54,-2.66,-0.21,20.0026,-49.7604,-20.379,1023.4
250436,0.468675,9.82305,-0.210426,1.68,-2.94,0.07,19.4215,-49.6679,-20.7779,1023.41
250442,0.449546,9.82783,-0.196078,1.4,-2.38,0.14,19.1018,-46.0288,-21.4724,1023.41
250448,0.454328,9.82305,-0.191296,1.68,-2.59,0,19.0728,-48.9586,-20.2312,1023.4
250454,0.487805,9.81827,-0.186514,1.61,-2.38,-0.21,20.3803,-50.5314,-19.9652,1023.4
250460,0.430416,9.85174,-0.215208,1.19,-2.31,0.35,19.4215,-47.5399,-22.1078,1023.42
250466,0.439981,9.78001,-0.191296,1.4,-2.52,0.14,19.0437,-47.7558,-21.7384,1023.42
250472,0.416069,9.81349,-0.176949,2.1,-2.38,0.56,19.5667,-50.223,-19.6106,1023.41
250478,0.416069,9.8374,-0.172166,1.68,-2.94,-0.07,20.0607,-48.4651,-21.4577,1023.41
250484,0.502152,9.79914,-0.210426,1.4,-2.31,0,19.2762,-46.7689,-21.4429,1023.41
250490,0.487805,9.81349,-0.186514,1.47,-2.73,-0.07,19.5377,-50.9015,-20.1573,1023.4
250496,0.449546,9.81827,-0.143472,1.82,-2.94,0.21,19.5667,-49.6062,-21.1621,1023.4
250502,0.483022,9.87566,-0.234338,1.54,-3.15,-0.21,18.6079,-47.8792,-23.2308,1023.4
250508,0.506934,9.81349,-0.224773,1.68,-2.24,-0.07,18.9565,-48.8044,-21.3838,1023.4
250514,0.47824,9.8087,-0.172166,1.96,-2.66,-0.42,19.4796,-51.3641,-20.5267,1023.39
250520,0.45911,9.83261,-0.176949,1.82,-2.59,-0.77,19.9445,-47.3857,-20.2164,1023.39
250526,0.47824,9.81349,-0.176949,1.96,-2.87,-0.7,19.2762,-47.9408,-21.5906,1023.41
250532,0.454328,9.85653,-0.200861,1.75,-2.59,-0.28,19.8283,-50.8398,-20.5267,1023.41
250538,0.468675,9.79436,-0.133907,1.89,-2.38,-0.63,20.206,-48.8352,-21.1326,1023.41
250544,0.387374,9.77523,-0.105213,2.38,-2.66,-0.49,18.3464,-46.6147,-21.3985,1023.37
250550,0.425634,9.85174,-0.176949,1.54,-2.8,-0.7,19.189,-50.1613,-20.2608,1023.37
250556,0.454328,9.8087,-0.176949,2.03,-2.87,-0.42,19.4505,-50.3772,-19.5811,1023.41
250562,0.430416,9.79436,-0.129125,1.68,-2.52,-0.35,18.3754,-46.2755,-21.0735,1023.41
250568,0.420851,9.79914,-0.181731,2.38,-2.73,-0.42,18.695,-48.8969,-20.9553,1023.4
250574,0.420851,9.83261,-0.282162,1.4,-2.73,-0.21,19.1309,-51.3332,-18.6649,1023.4
250580,0.435198,9.81349,-0.181731,1.75,-2.52,0.21,19.3343,-47.6016,-19.4924,1023.39
250586,0.439981,9.79436,-0.21999,1.54,-2.17,-0.07,19.7701,-48.3418,-21.3985,1023.39
250592,0.444763,9.82783,-0.234338,1.47,-2.52,-0.77,19.6539,-51.6108,-18.7831,1023.39
250598,0.425634,9.81349,-0.181731,1.19,-2.31,0.21,18.9565,-48.3109,-21.1178,1023.43
250604,0.401722,9.81827,-0.148254,1.47,-2.38,-0.07,19.3633,-46.9848,-22.8466,1023.43
250610,0.420851,9.81349,-0.172166,1.82,-2.66,0.28,19.3924,-50.3155,-20.4233,1023.39
250616,0.45911,9.83261,-0.210426,1.4,-2.45,-0.14,18.9565,-49.4828,-20.2608,1023.39
250622,0.473458,9.83261,-0.248685,1.05,-2.17,-0.63,18.6369,-46.5222,-21.7089,1023.44
250628,0.425634,9.81827,-0.157819,1.05,-2.45,-0.35,19.1018,-48.3109,-20.0982,1023.44
250634,0.416069,9.77523,-0.11956,1.61,-2.17,-0.14,19.9735,-50.0071,-20.9405,1023.43
250640,0.425634,9.84696,-0.229555,1.47,-2.59,-0.49,19.4215,-47.6324,-21.2065,1023.43
250646,0.45911,9.86609,-0.205643,0.84,-2.59,-0.07,19.3924,-48.5268,-21.0291,1023.43
250652,0.439981,9.77523,-0.13869,1.54,-2.66,0.35,20.0316,-51.5491,-19.3151,1023.39
250658,0.401722,9.8087,-0.114778,1.4,-2.17,-0.14,19.712,-49.0202,-20.7927,1023.39
250664,0.45911,9.8087,-0.205643,1.19,-2.1,0.21,19.1018,-46.6764,-21.2951,1023.4
250670,0.449546,9.84696,-0.196078,1.26,-2.24,0.21,19.8573,-50.3155,-20.1426,1023.4
250676,0.37781,9.82783,-0.172166,1.54,-2.52,0.07,19.3924,-50.1305,-20.3347,1023.43
250682,0.401722,9.80392,-0.148254,1.61,-2.52,0.21,18.4045,-45.9979,-22.2113,1023.43
250688,0.449546,9.82305,-0.162602,1.96,-2.31,-0.07,19.5086,-48.681,-20.8962,1023.43
250694,0.444763,9.85174,-0.205643,1.33,-2.66,0.21,19.9154,-51.2407,-20.7336,1023.43
250700,0.444763,9.81827,-0.186514,1.33,-2.59,0.21,19.6539,-47.6016,-21.1769,1023.42
250706,0.468675,9.79914,-0.186514,1.61,-1.89,0.07,19.1018,-48.4343,-21.6497,1023.42
250712,0.420851,9.82783,-0.167384,1.47,-2.17,0.07,20.0898,-51.7341,-20.2017,1023.42
250718,0.411286,9.87087,-0.181731,1.54,-2.87,-0.42,19.9154,-48.2184,-20.2312,1023.42
250724,0.463893,9.8374,-0.200861,1.19,-2.59,0.35,19.2181,-46.9848,-22.2704,1023.42
250730,0.454328,9.85174,-0.181731,1.47,-2.66,-0.28,19.7992,-51.1173,-20.113,1023.41
250736,0.444763,9.78957,-0.186514,1.12,-2.45,-0.28,20.0026,-49.7912,-19.4185,1023.41
250742,0.435198,9.84218,-0.143472,1.4,-2.52,-0.21,19.4796,-45.9363,-21.6054,1023.41
250748,0.406504,9.82783,-0.153037,1.75,-2.45,0,19.1309,-49.7604,-21.0735,1023.41
250754,0.416069,9.81827,-0.181731,1.26,-2.59,0.42,18.7532,-51.4874,-19.9505,1023.42
250760,0.439981,9.82783,-0.186514,1.61,-2.17,0.21,18.4335,-47.139,-20.4381,1023.42
250766,0.420851,9.81349,-0.176949,1.19,-2.66,-0.21,18.9856,-47.4782,-20.837,1023.42
250772,0.411286,9.8087,-0.143472,1.68,-2.38,0.28,19.1309,-51.765,-19.7731,1023.4
250778,0.430416,9.80392,-0.186514,1.61,-2.45,0.28,18.5207,-49.0511,-18.8275,1023.4
250784,0.439981,9.85174,-0.21999,1.4,-2.73,0.07,18.0848,-46.5839,-20.6745,1023.42
250790,0.468675,9.8374,-0.196078,1.33,-2.38,0.14,18.9275,-50.7781,-20.6745,1023.42
250796,0.435198,9.81349,-0.162602,1.47,-2.17,0.14,19.3052,-50.4389,-19.8766,1023.43
250802,0.430416,9.8087,-0.172166,1.75,-2.59,-0.49,19.4505,-46.6456,-21.103,1023.43
250808,0.454328,9.82783,-0.210426,1.75,-2.45,0.07,18.9275,-48.866,-19.847,1023.42
250814,0.425634,9.8374,-0.172166,1.54,-2.03,-0.49,19.8573,-51.1482,-18.8718,1023.42
250820,0.444763,9.8087,-0.143472,1.82,-2.59,0.35,19.3633,-46.9231,-21.0439,1023.42
250826,0.45911,9.8374,-0.176949,1.61,-2.8,-0.07,18.9856,-47.8483,-21.2803,1023.42
250832,0.439981,9.8087,-0.153037,1.54,-2.73,0,20.1188,-51.7033,-19.5219,1023.42
250838,0.387374,9.84696,-0.205643,1.61,-2.38,-0.07,19.2181,-49.0202,-19.7584,1023.41
250844,0.444763,9.80392,-0.153037,1.61,-2.38,0.21,18.3464,-46.954,-20.4381,1023.41
250850,0.45911,9.80392,-0.176949,1.61,-2.03,0.14,19.4215,-50.7473,-20.379,1023.44
250856,0.425634,9.81827,-0.186514,1.61,-2.31,0.14,20.4966,-49.9146,-19.4776,1023.44
250862,0.425634,9.85174,-0.191296,1.68,-2.52,0.28,19.3052,-46.2755,-21.4281,1023.4
250868,0.420851,9.84218,-0.157819,1.26,-2.31,0.35,18.8694,-49.0511,-20.2903,1023.4
250874,0.435198,9.79436,-0.143472,1.61,-2.66,17.71,19.7411,-52.0425,-19.9948,1023.4
250880,0.47824,9.81827,-0.157819,1.4,-2.66,-0.14,19.4505,-47.5708,-20.3494,1023.4
250886,0.425634,9.82783,-0.181731,1.26,-2.45,0.14,18.7241,-47.6324,-20.7632,1023.4
250892,0.454328,9.82783,-0.157819,1.54,-2.38,0.42,19.7992,-51.3332,-20.2755,1023.41
250898,0.463893,9.8087,-0.143472,1.33,-2.52,0,19.8283,-48.4651,-19.3151,1023.41
250904,0.435198,9.8374,-0.13869,1.82,-2.59,0,19.8283,-46.9231,-22.0192,1023.42
250910,0.483022,9.8374,-0.186514,1.26,-2.24,0.14,19.1599,-51.0865,-20.7041,1023.42
250916,0.454328,9.85174,-0.172166,1.19,-1.89,0.28,19.2471,-50.3155,-19.8766,1023.43
250922,0.411286,9.78957,-0.143472,1.68,-2.73,-0.21,18.9275,-46.8923,-20.8962,1023.43
250928,0.420851,9.85174,-0.205643,1.47,-2.45,-0.07,19.0728,-49.8221,-19.8914,1023.42
250934,0.435198,9.8374,-0.176949,1.75,-2.38,0.07,19.3052,-51.4566,-20.3347,1023.42
250940,0.416069,9.80392,-0.186514,1.68,-2.59,0.28,18.666,-47.5708,-21.2065,1023.42
250946,0.430416,9.81827,-0.157819,1.12,-2.38,0.21,19.1309,-48.2184,-22.492,1023.42
250952,0.416069,9.82305,-0.167384,1.54,-2.52,-0.21,19.2181,-51.6108,-20.2312,1023.42
250958,0.439981,9.80392,-0.157819,1.75,-2.17,0.28,19.7411,-48.9894,-21.768,1023.44
250964,0.411286,9.81349,-0.167384,1.61,-2.17,0.21,18.695,-47.0773,-22.3295,1023.44
250970,0.416069,9.87566,-0.181731,1.82,-2.8,0.07,19.8573,-50.5314,-21.9453,1023.39
250976,0.449546,9.81827,-0.191296,1.33,-2.24,0.42,19.5377,-49.6987,-20.97,1023.39
250982,0.425634,9.79436,-0.181731,1.4,-2.52,0.14,19.3633,-46.9231,-21.1769,1023.44
250988,0.430416,9.80392,-0.176949,1.19,-2.73,0.07,18.3754,-49.2669,-22.2704,1023.44
250994,0.463893,9.79914,-0.172166,1.68,-2.38,0.07,19.7411,-51.4257,-20.113,1023.44
251000,0.430416,9.89,-0.205643,1.47,-2.59,0.21,19.2762,-47.0465,-20.7632,1023.4
251006,0.439981,9.84218,-0.196078,1.12,-2.24,0.35,19.1599,-47.2315,-22.3886,1023.4
251012,0.416069,9.77044,-0.153037,1.4,-2.17,0.63,20.0898,-50.7781,-20.113,1023.41
251018,0.425634,9.85653,-0.186514,1.89,-2.66,0.21,19.8573,-47.6633,-21.2065,1023.41
251024,0.439981,9.83261,-0.191296,1.12,-2.73,-0.21,19.0728,-46.0596,-22.2999,1023.43
251030,0.420851,9.80392,-0.148254,1.47,-2.45,0.14,19.683,-51.2407,-19.8175,1023.43
251036,0.406504,9.81827,-0.181731,1.54,-2.66,0.28,20.8452,-50.3463,-20.0391,1023.41
251042,0.420851,9.82305,-0.153037,1.75,-2.38,-0.07,18.9565,-46.1521,-21.4724,1023.41
251048,0.406504,9.81349,-0.143472,1.33,-2.31,0.35,19.712,-49.9146,-21.1178,1023.41
251054,0.435198,9.83261,-0.176949,1.61,-2.66,0.49,19.3343,-51.3024,-19.9357,1023.41
251060,0.411286,9.8374,-0.196078,1.26,-2.8,0.35,19.683,-47.4474,-22.093,1023.41
251066,0.368245,9.82783,-0.153037,1.47,-2.31,0.14,19.4215,-47.6016,-22.6989,1023.43
251072,0.406504,9.86609,-0.172166,1.4,-2.45,0.35,20.3222,-51.3024,-19.847,1023.43
251078,0.463893,9.8087,-0.176949,1.33,-2.45,0.21,19.5958,-48.3418,-20.645,1023.4
251084,0.406504,9.81827,-0.153037,1.4,-2.59,0.35,19.1018,-47.4166,-21.4281,1023.4
251090,0.416069,9.8374,-0.186514,0.91,-2.17,0.7,19.0728,-50.6856,-19.0934,1023.44
251096,0.444763,9.79436,-0.191296,1.33,-2.38,0.14,18.9856,-50.1921,-19.98,1023.44
251102,0.416069,9.81827,-0.167384,1.54,-2.52,0.21,19.2471,-47.0773,-21.7975,1023.41
251108,0.425634,9.79436,-0.210426,1.61,-2.8,0.56,18.5788,-49.3286,-21.0735,1023.41
251114,0.430416,9.86131,-0.196078,1.61,-2.52,0.07,20.206,-50.8089,-19.256,1023.41
251120,0.449546,9.83261,-0.181731,1.12,-2.24,0,19.8283,-47.4782,-20.4085,1023.42
251126,0.435198,9.8374,-0.157819,1.19,-2.24,0.49,19.0147,-47.725,-21.0291,1023.42
251132,0.449546,9.79914,-0.13869,1.68,-2.31,0.21,19.4796,-51.3332,-18.2807,1023.43
251138,0.47824,9.8374,-0.205643,1.54,-2.8,-0.07,18.695,-48.1567,-21.6054,1023.43
251144,0.435198,9.79914,-0.191296,1.54,-2.52,-17.71,19.1309,-46.7689,-22.2704,1023.42
251150,0.439981,9.82305,-0.200861,1.47,-2.45,0.21,18.695,-51.3332,-20.8666,1023.42
251156,0.387374,9.79436,-0.172166,1.75,-3.08,0.28,20.0607,-50.0379,-19.9948,1023.43
251162,0.416069,9.83261,-0.21999,1.68,-2.66,0.21,18.9565,-46.5839,-20.8814,1023.43
251168,0.430416,9.79914,-0.200861,1.4,-2.59,-0.35,19.0147,-49.7604,-20.1278,1023.43
251174,0.502152,9.79914,-0.186514,1.75,-2.52,0.14,19.9735,-51.4566,-18.1182,1023.39
251180,0.425634,9.86609,-0.200861,0.98,-2.45,0.35,19.189,-46.3063,-20.9257,1023.39
251186,0.444763,9.82783,-0.205643,1.54,-2.66,-0.07,18.4626,-47.4782,-21.5168,1023.45
251192,0.416069,9.81349,-0.172166,1.33,-2.59,0.35,19.189,-51.5799,-20.8666,1023.45
251198,0.430416,9.80392,-0.157819,1.61,-2.66,0.49,19.189,-48.2801,-20.4676,1023.42
251204,0.420851,9.82305,-0.181731,1.47,-2.03,0.28,18.5207,-46.6456,-21.502,1023.42
251210,0.420851,9.80392,-0.172166,1.68,-2.66,0,19.3633,-50.9015,-20.379,1023.46
251216,0.444763,9.84696,-0.186514,1.61,-2.66,-0.14,19.3343,-49.0819,-20.1721,1023.46
251222,0.411286,9.82783,-0.176949,1.47,-2.8,0.14,18.5788,-46.7689,-20.9257,1023.44
251228,0.435198,9.82783,-0.167384,1.68,-2.59,0.35,18.8694,-50.223,-20.1278,1023.44
251234,0.449546,9.83261,-0.21999,1.54,-2.59,0.35,19.2471,-51.4874,-18.6206,1023.44
251240,0.411286,9.79914,-0.200861,1.68,-2.73,-0.35,18.9856,-47.7558,-20.3494,1023.4
251246,0.420851,9.86609,-0.210426,1.19,-2.73,0.14,18.3754,-47.6016,-21.2803,1023.4
251252,0.435198,9.81827,-0.215208,1.54,-2.52,0.42,19.1018,-51.8267,-20.0835,1023.43
251258,0.449546,9.84218,-0.196078,1.89,-2.87,-0.14,19.3633,-47.91,-20.7779,1023.43
251264,0.454328,9.84218,-0.176949,2.1,-2.87,-0.28,18.3173,-46.183,-21.5315,1023.44
251270,0.420851,9.82783,-0.181731,1.61,-2.66,-0.14,19.4505,-51.0248,-20.4233,1023.44
251276,0.449546,9.85174,-0.215208,1.82,-2.8,0.07,19.0728,-49.6679,-18.9457,1023.44
251282,0.416069,9.79914,-0.133907,1.61,-2.66,0.63,18.6079,-46.183,-21.6054,1023.44
251288,0.401722,9.84696,-0.181731,1.82,-2.45,-0.07,19.4505,-50.1613,-19.714,1023.44
251294,0.435198,9.85653,-0.210426,1.96,-2.94,-0.49,19.3343,-50.6547,-19.6549,1023.44
251300,0.454328,9.83261,-0.176949,1.75,-2.66,-0.07,19.3052,-47.6633,-20.2164,1023.44
251306,0.425634,9.82783,-0.205643,1.61,-2.45,0.28,18.4916,-48.8352,-20.4529,1023.44
251312,0.396939,9.85174,-0.205643,1.75,-2.73,-0.35,19.189,-52.3201,-19.3299,1023.44
251318,0.401722,9.79914,-0.162602,1.4,-2.87,-0.28,18.2882,-49.1128,-21.8714,1023.44
251324,0.435198,9.8087,-0.157819,1.82,-2.87,-0.07,18.5207,-46.954,-21.4724,1023.44
251330,0.435198,9.83261,-0.191296,1.82,-2.8,0.28,19.5086,-50.3772,-19.4628,1023.42
251336,0.401722,9.84696,-0.200861,1.82,-2.38,-0.21,19.712,-50.0379,-20.3642,1023.42
251342,0.396939,9.82783,-0.172166,1.96,-2.52,-0.28,19.1599,-46.6764,-20.512,1023.42
251348,0.449546,9.79436,-0.162602,1.47,-2.31,-0.21,19.5086,-50.0688,-19.98,1023.43
251354,0.463893,9.83261,-0.153037,1.68,-2.66,0.14,19.7701,-51.5183,-19.0343,1023.43
251360,0.47824,9.85653,-0.191296,1.26,-2.8,0.14,19.5377,-48.0334,-20.6154,1023.41
251366,0.439981,9.81349,-0.148254,1.4,-2.8,-0.21,18.8403,-48.1567,-20.7336,1023.41
251372,0.449546,9.80392,-0.167384,1.75,-2.73,-0.21,19.0728,-51.0865,-18.6058,1023.43
251378,0.439981,9.82783,-0.176949,1.4,-2.59,0.21,19.7992,-47.7866,-18.3842,1023.43
251384,0.411286,9.86131,-0.186514,1.4,-2.1,0,18.9565,-47.0773,-21.4133,1023.45
251390,0.435198,9.79914,-0.157819,1.68,-2.59,-0.07,19.712,-51.3024,-21.103,1023.45
251396,0.439981,9.80392,-0.11956,1.33,-2.8,0.21,19.5958,-49.9454,-19.4481,1023.45
251402,0.420851,9.79914,-0.181731,1.89,-2.59,0.07,19.1599,-46.2447,-20.7484,1023.43
251408,0.420851,9.80392,-0.143472,1.4,-2.73,0,19.683,-50.4697,-19.6845,1023.43
251414,0.430416,9.82783,-0.200861,1.89,-2.45,0,19.3343,-50.6547,-19.123,1023.43
251420,0.430416,9.79436,-0.186514,1.75,-3.15,0.35,18.5788,-47.324,-22.3295,1023.43
251426,0.435198,9.83261,-0.196078,1.61,-2.73,0.84,19.0728,-48.4651,-20.7188,1023.4
251432,0.435198,9.8374,-0.196078,1.75,-3.01,-0.21,19.3343,-51.2099,-19.8618,1023.4
251438,0.406504,9.82783,-0.181731,0.91,-2.45,0.49,19.6249,-47.4782,-20.9109,1023.42
251444,0.45911,9.8087,-0.176949,1.68,-2.8,0.42,19.3052,-47.2315,-20.0835,1023.42
251450,0.425634,9.85653,-0.157819,1.47,-2.8,-0.21,19.4796,-50.5622,-20.8075,1023.42
251456,0.425634,9.82783,-0.172166,1.4,-2.52,-0.14,20.3222,-49.6062,-20.246,1023.42
251462,0.430416,9.82305,-0.176949,1.26,-2.66,0.56,19.3633,-46.7381,-21.236,1023.42
251468,0.401722,9.8374,-0.143472,1.47,-2.31,0,19.3343,-49.5753,-20.8075,1023.39
251474,0.425634,9.82783,-0.162602,1.75,-2.24,-0.14,20.2932,-50.2847,-19.8914,1023.39
251480,0.435198,9.84696,-0.181731,1.61,-2.66,0.14,19.9735,-46.6147,-21.3542,1023.4
251486,0.387374,9.81349,-0.157819,1.26,-2.31,0,19.8573,-48.3726,-20.8223,1023.4
251492,0.411286,9.81349,-0.124342,1.89,-2.73,0.35,20.1188,-51.7341,-20.0096,1023.42
251498,0.425634,9.83261,-0.157819,1.68,-2.66,0.28,19.8283,-48.681,-20.7336,1023.42
251504,0.425634,9.8374,-0.191296,1.61,-2.8,-0.14,18.8403,-47.0465,-21.2803,1023.42
251510,0.449546,9.82305,-0.167384,1.47,-3.15,-0.21,19.8283,-50.7781,-19.8618,1023.42
251516,0.401722,9.82783,-0.167384,1.68,-2.52,0.14,19.8283,-49.8837,-20.97,1023.42
251522,0.396939,9.82305,-0.153037,1.4,-2.45,0.56,19.2762,-46.4605,-21.236,1023.44
251528,0.449546,9.86131,-0.205643,2.03,-2.8,-0.21,19.7411,-48.9277,-21.2951,1023.44
251534,0.435198,9.82305,-0.157819,1.05,-2.52,0.42,19.4505,-50.7473,-19.8323,1023.42
251540,0.420851,9.83261,-0.172166,1.68,-2.24,0.56,19.4796,-47.2007,-21.1474,1023.42
251546,0.430416,9.81349,-0.13869,1.68,-2.73,0.35,19.3052,-48.0334,-22.0487,1023.42
251552,0.439981,9.86131,-0.176949,1.4,-2.52,0.49,20.0898,-51.7033,-20.8223,1023.42
251558,0.45911,9.85653,-0.196078,1.54,-2.73,0.07,19.9445,-48.6193,-21.6941,1023.37
251564,0.401722,9.81827,-0.196078,1.68,-2.59,-0.07,19.3924,-47.139,-22.758,1023.37
251570,0.425634,9.82305,-0.167384,1.19,-2.52,0.07,19.1309,-50.5005,-21.9601,1023.37
251576,0.435198,9.81827,-0.234338,1.54,-2.59,0.07,20.6128,-49.3286,-20.9553,1023.43
251582,0.463893,9.87087,-0.191296,1.68,-2.66,-0.35,19.712,-45.597,-22.7432,1023.43
251588,0.353898,9.82783,-0.153037,1.4,-2.87,-0.14,20.2641,-49.3595,-20.8075,1023.41
251594,0.401722,9.84696,-0.167384,1.68,-2.8,-0.07,19.5086,-50.5005,-20.4233,1023.41
251600,0.411286,9.85174,-0.196078,1.68,-2.31,-0.21,19.3052,-46.4914,-20.6006,1023.45
251606,0.396939,9.8087,-0.172166,1.61,-2.8,0.07,18.8403,-47.5091,-22.1226,1023.45
251612,0.425634,9.80392,-0.153037,1.47,-3.15,-0.07,20.6128,-51.7033,-19.98,1023.41
251618,0.444763,9.84218,-0.191296,1.68,-2.8,0.28,20.235,-48.3418,-20.2017,1023.41
251624,0.430416,9.83261,-0.224773,1.68,-3.29,0.28,19.9735,-47.0773,-20.2755,1023.42
251630,0.425634,9.79436,-0.186514,1.68,-2.24,0.28,20.0316,-50.9631,-20.4972,1023.42
251636,0.396939,9.8087,-0.148254,1.61,-2.31,0.07,20.5837,-50.3463,-19.4333,1023.42
251642,0.430416,9.81349,-0.200861,1.68,-2.8,-0.07,19.3052,-46.6764,-21.369,1023.39
251648,0.420851,9.86609,-0.167384,1.4,-2.38,0.07,19.9445,-50.2538,-21.0735,1023.39
251654,0.444763,9.79436,-0.153037,1.47,-2.24,0.42,19.9445,-50.7781,-19.0934,1023.42
251660,0.439981,9.82305,-0.162602,1.68,-2.59,0.28,18.6369,-46.2755,-20.837,1023.42
251666,0.435198,9.81349,-0.191296,1.54,-2.45,0.14,18.8403,-47.6016,-21.8123,1023.4
251672,0.401722,9.83261,-0.205643,1.26,-2.38,0.28,19.5667,-51.0865,-19.123,1023.4
251678,0.435198,9.8087,-0.167384,1.54,-2.45,0.28,19.3052,-48.3726,-20.7927,1023.45
251684,0.454328,9.82305,-0.148254,1.47,-2.17,0.21,19.2762,-47.1698,-22.3442,1023.45
251690,0.392157,9.83261,-0.167384,1.26,-2.66,0.14,20.4675,-51.2099,-20.4233,1023.45
251696,0.444763,9.85174,-0.172166,1.33,-2.38,0.21,19.5377,-50.1921,-19.7584,1023.41
251702,0.420851,9.81349,-0.13869,1.89,-2.87,0.28,19.0437,-46.1521,-21.236,1023.41
251708,0.416069,9.8087,-0.148254,1.19,-2.73,0.21,19.3052,-49.8529,-21.2212,1023.41
251714,0.45911,9.82783,-0.191296,1.61,-2.45,0.14,20.3222,-50.6239,-20.8814,1023.41
251720,0.416069,9.82783,-0.176949,1.19,-2.17,0.42,18.7532,-47.0157,-22.4477,1023.43
251726,0.420851,9.78001,-0.13869,1.26,-2.45,0.28,18.9565,-47.5091,-22.2113,1023.43
251732,0.387374,9.79914,-0.153037,1.82,-2.8,0.07,20.0898,-50.8398,-20.0687,1023.4
251738,0.425634,9.82783,-0.157819,1.47,-2.52,0.21,20.4966,-47.9717,-21.9305,1023.4
251744,0.430416,9.80392,-0.162602,1.82,-2.66,0.21,19.4215,-47.4474,-22.2704,1023.4
251750,0.439981,9.82305,-0.157819,2.1,-2.87,0.07,19.5667,-50.8398,-21.1769,1023.45
251756,0.435198,9.83261,-0.186514,1.61,-2.66,0.28,19.5667,-50.1305,-20.2608,1023.45
251762,0.420851,9.82305,-0.157819,1.4,-2.45,0.49,19.0147,-46.4914,-22.4625,1023.41
251768,0.430416,9.82305,-0.176949,1.54,-2.52,0.56,19.7701,-49.3595,-21.6054,1023.41
251774,0.444763,9.82783,-0.200861,1.4,-2.31,0.35,19.4505,-50.9015,-20.379,1023.4
251780,0.45911,9.81827,-0.181731,1.4,-2.66,0,19.2181,-47.0157,-21.369,1023.4
251786,0.454328,9.84218,-0.148254,1.19,-2.38,0.28,19.7411,-48.0025,-21.1474,1023.4
251792,0.435198,9.82305,-0.172166,1.12,-2.24,0.28,20.1769,-52.3509,-20.5711,1023.4
251798,0.463893,9.8374,-0.167384,1.82,-2.45,-0.21,19.8283,-48.2492,-22.4181,1023.43
251804,0.430416,9.87087,-0.215208,1.47,-2.59,-0.28,19.4215,-46.8615,-22.3886,1023.43
251810,0.439981,9.84218,-0.176949,1.68,-2.38,0.21,19.7992,-51.1482,-21.4281,1023.43
251816,0.425634,9.8087,-0.181731,1.68,-2.8,0.07,19.8283,-50.6239,-21.0587,1023.4
251822,0.420851,9.79914,-0.162602,1.68,-2.66,0.07,19.1309,-47.9717,-21.6941,1023.4
251828,0.406504,9.8374,-0.172166,1.68,-2.73,0,19.1599,-49.8529,-21.2803,1023.41
251834,0.416069,9.79914,-0.157819,1.61,-2.52,-0.07,19.8573,-50.9323,-19.6993,1023.41
251840,0.425634,9.80392,-0.191296,1.33,-1.96,-0.07,19.4215,-46.7998,-22.8614,1023.39
251846,0.411286,9.82305,-0.157819,1.61,-2.52,0.7,18.3464,-48.2801,-21.7532,1023.39
251852,0.454328,9.8087,-0.153037,1.54,-2.17,0.35,18.8113,-51.3641,-20.9405,1023.43
251858,0.425634,9.86131,-0.205643,1.61,-2.73,0,18.8113,-48.0642,-20.6597,1023.43
251864,0.411286,9.82783,-0.196078,1.4,-2.73,0.35,18.3464,-46.3063,-22.891,1023.43
251870,0.444763,9.81827,-0.162602,1.61,-2.59,-0.28,18.9565,-50.8398,-19.9505,1023.41
251876,0.416069,9.85653,-0.162602,1.75,-2.87,-0.14,19.1018,-49.6987,-21.6202,1023.41
251882,0.454328,9.82305,-0.172166,1.61,-2.31,0.07,18.7532,-46.5531,-22.2113,1023.44
251888,0.454328,9.81349,-0.186514,1.54,-2.45,0.14,19.0147,-49.6679,-20.6006,1023.44
251894,0.382592,9.8374,-0.176949,1.68,-2.8,-0.07,19.9445,-51.0557,-20.1869,1023.42
251900,0.420851,9.81827,-0.129125,1.54,-2.31,0,18.5498,-46.9231,-22.492,1023.42
251906,0.416069,9.81349,-0.13869,1.68,-2.59,-0.21,18.5788,-48.9277,-21.5463,1023.41
251912,0.420851,9.81827,-0.148254,1.82,-3.01,-0.07,19.3633,-51.3332,-20.5711,1023.41
251918,0.444763,9.84696,-0.181731,1.82,-2.8,-0.14,19.5667,-48.2492,-21.0439,1023.41
251924,0.401722,9.80392,-0.157819,1.75,-2.73,-0.07,18.6369,-47.0157,-21.9453,1023.42
251930,0.449546,9.83261,-0.153037,1.68,-2.45,0.07,19.8864,-51.5491,-19.98,1023.42
251936,0.420851,9.8087,-0.186514,1.68,-2.8,0.07,19.6249,-50.2847,-20.3938,1023.41
251942,0.420851,9.84696,-0.181731,1.61,-2.31,0.07,19.0728,-47.0157,-21.4577,1023.41
251948,0.439981,9.8374,-0.172166,1.75,-2.52,0.21,19.5377,-50.0688,-21.6793,1023.42
251954,0.406504,9.82783,-0.162602,1.68,-2.94,-0.07,19.8864,-51.5491,-19.8027,1023.42
251960,0.420851,9.83261,-0.148254,1.82,-2.59,0.42,19.4215,-47.6016,-21.3099,1023.44
251966,0.439981,9.81349,-0.181731,1.61,-2.59,-0.28,19.3052,-48.1259,-21.1326,1023.44
251972,0.439981,9.8374,-0.153037,1.54,-2.8,-0.14,19.3052,-51.7341,-20.4085,1023.45
251978,0.430416,9.84696,-0.153037,1.26,-2.45,0.56,19.6249,-48.0642,-20.0835,1023.45
251984,0.449546,9.84696,-0.167384,1.68,-2.31,0,18.666,-46.6147,-21.9896,1023.45
251990,0.45911,9.8374,-0.157819,1.82,-2.31,-0.42,19.7701,-51.9809,-19.9505,1023.45
251996,0.430416,9.84218,-0.191296,1.54,-2.38,0,19.3343,-50.0071,-20.4381,1023.45
252002,0.420851,9.81827,-0.153037,2.1,-3.01,-0.42,19.4505,-46.8923,-21.3838,1023.44
252008,0.387374,9.85653,-0.162602,1.61,-2.59,-0.42,19.2181,-50.6547,-21.0144,1023.44
252014,0.430416,9.81349,-0.148254,1.54,-2.38,-0.07,20.206,-51.6416,-20.0539,1023.38
252020,0.411286,9.85653,-0.167384,1.54,-2.24,-17.85,19.1599,-47.324,-21.3247,1023.38
252026,0.387374,9.87087,-0.181731,1.75,-2.52,-0.28,19.2471,-48.5268,-21.8862,1023.43
252032,0.416069,9.82305,-0.210426,1.61,-2.59,0.21,19.0728,-51.5183,-21.0291,1023.43
252038,0.444763,9.80392,-0.196078,1.75,-2.45,0.14,18.8694,-48.7118,-20.4529,1023.43
252044,0.401722,9.80392,-0.143472,1.82,-2.73,-0.21,19.5086,-47.139,-22.3295,1023.42
252050,0.387374,9.85653,-0.196078,1.75,-2.38,0.07,19.9154,-51.0557,-20.512,1023.42
252056,0.430416,9.82305,-0.205643,1.68,-2.17,-0.07,19.189,-50.223,-20.1573,1023.44
252062,0.401722,9.79914,-0.181731,1.75,-2.45,-0.07,18.666,-45.7204,-22.0339,1023.44
252068,0.420851,9.84696,-0.200861,1.54,-2.31,0.21,19.2471,-49.6987,-20.0687,1023.4
252074,0.636059,9.82305,-0.315638,0.63,-0.28,-0.42,19.5086,-52.1659,-18.458,1023.4
252080,0.267814,9.79436,-0.0813008,1.33,-1.33,0.35,19.7701,-47.5091,-20.6154,1023.42
252086,0.263032,9.74653,0.0143472,1.68,-3.64,0.28,18.8113,-48.5576,-20.7188,1023.42
252092,0.564323,9.85174,-0.248685,1.75,-1.82,0.14,19.6249,-51.6108,-20.1426,1023.42
252098,0.454328,9.86609,-0.172166,1.12,-1.89,0.21,19.6539,-48.0025,-20.512,1023.41
252104,0.373027,9.79436,-0.114778,1.54,-2.52,-0.28,19.1599,-47.2624,-20.4233,1023.41
252110,0.435198,9.88044,-0.181731,1.47,-2.24,-0.07,19.4215,-51.4566,-18.133,1023.4
252116,0.420851,9.85174,-0.176949,1.4,-2.17,0.28,19.6539,-49.637,-19.2264,1023.4
252122,0.439981,9.81827,-0.129125,1.61,-2.24,-0.28,19.0437,-46.7998,-21.2951,1023.38
252128,0.425634,9.83261,-0.176949,1.19,-2.1,-0.63,19.189,-50.2538,-20.1278,1023.38
252134,0.411286,9.84696,-0.133907,1.19,-2.03,0,19.5377,-50.9015,-19.9357,1023.43
252140,0.463893,9.79914,-0.124342,1.33,-1.68,-0.07,19.4796,-47.0157,-20.645,1023.43
252146,0.37781,9.8374,-0.148254,1.68,-2.45,-0.14,19.1018,-47.8792,-21.2212,1023.43
252152,0.368245,9.83261,-0.162602,1.96,-2.59,0.07,19.7411,-52.0425,-19.7879,1023.42
252158,0.373027,9.79914,-0.133907,1.4,-2.66,-0.14,19.6249,-47.3857,-20.8666,1023.42
252164,0.435198,9.85174,-0.167384,1.68,-2.59,0.21,19.2762,-47.1082,-21.5906,1023.4
252170,0.392157,9.85174,-0.191296,1.75,-2.38,0.28,19.3633,-49.8221,-19.5219,1023.4
252176,0.416069,9.83261,-0.215208,1.54,-2.52,-0.21,20.1188,-50.0688,-21.369,1023.41
252182,0.406504,9.78957,-0.191296,1.68,-2.73,0,19.0147,-46.2138,-20.4824,1023.41
252188,0.411286,9.83261,-0.172166,1.54,-2.73,-0.42,19.3052,-49.5753,-21.4281,1023.42
252194,0.435198,9.79914,-0.176949,1.61,-2.17,0.35,19.8573,-50.8089,-19.5367,1023.42
252200,0.406504,9.87087,-0.191296,1.61,-2.8,-0.07,19.9735,-46.6764,-20.379,1023.4
252206,0.45911,9.82305,-0.196078,1.47,-2.45,0.07,19.2762,-48.2492,-21.9601,1023.4
252212,0.449546,9.84218,-0.157819,1.54,-2.03,-0.07,19.7992,-51.5491,-20.0243,1023.4
252218,0.416069,9.86609,-0.191296,1.54,-2.31,0,19.4796,-47.7866,-21.8418,1023.41
252224,0.401722,9.85174,-0.205643,1.19,-2.45,-0.28,19.2762,-47.8483,-22.6693,1023.41
252230,0.396939,9.79914,-0.148254,1.4,-2.1,-0.07,19.3633,-51.0557,-19.9209,1023.45
252236,0.449546,9.78001,-0.181731,1.75,-1.96,-0.07,19.2762,-50.0996,-19.714,1023.45
252242,0.411286,9.83261,-0.224773,1.47,-2.45,-1.05,17.9686,-46.9848,-21.6054,1023.43
252248,0.363462,9.81827,-0.176949,1.54,-2.52,0.14,19.712,-49.6987,-20.4676,1023.43
252254,0.411286,9.8087,-0.167384,1.19,-2.24,0.56,20.4966,-51.2715,-19.0196,1023.42
252260,0.416069,9.79436,-0.196078,1.89,-2.59,-0.42,19.2762,-47.2932,-21.9305,1023.42
252266,0.411286,9.86131,-0.21999,1.82,-2.8,-0.14,18.7822,-48.3418,-20.7484,1023.42
252272,0.430416,9.84696,-0.186514,1.26,-2.87,0.77,20.0898,-51.4566,-18.8127,1023.45
252278,0.454328,9.79914,-0.181731,1.33,-2.1,0.28,19.712,-47.6324,-20.4085,1023.45
252284,0.37781,9.79914,-0.157819,1.4,-2.59,0,19.1309,-46.8615,-21.8862,1023.41
252290,0.416069,9.8087,-0.191296,1.82,-2.59,-17.64,19.7992,-50.7781,-21.8566,1023.41
252296,0.416069,9.85174,-0.205643,1.4,-2.59,-0.07,20.1188,-49.9146,-21.0587,1023.42
252302,0.444763,9.8374,-0.176949,1.54,-2.66,0.07,19.3924,-46.7073,-21.0144,1023.42
252308,0.406504,9.82305,-0.176949,1.19,-2.38,0.21,19.4505,-50.0071,-21.5611,1023.43
252314,0.430416,9.8087,-0.167384,1.47,-2.24,0.28,19.683,-50.8398,-20.3938,1023.43
252320,0.392157,9.83261,-0.181731,1.61,-2.38,0.07,19.6539,-46.8923,-20.7188,1023.43
252326,0.406504,9.8087,-0.13869,1.68,-2.45,0.07,19.0437,-48.3418,-21.8123,1023.43
252332,0.45911,9.8374,-0.196078,2.24,-2.31,0.07,19.683,-51.2715,-20.0243,1023.43
252338,0.430416,9.86609,-0.200861,1.26,-2.45,0,19.3343,-48.5885,-21.0735,1023.45
252344,0.411286,9.8087,-0.181731,1.61,-2.59,-0.28,18.8403,-46.9231,-20.8962,1023.45
252350,0.420851,9.79436,-0.162602,1.68,-2.03,0.14,19.4505,-51.2715,-20.8223,1023.43
252356,0.430416,9.81827,-0.181731,1.54,-2.45,0,19.5377,-49.0819,-20.0982,1023.43
252362,0.449546,9.83261,-0.172166,1.54,-2.66,0.07,19.2471,-47.0157,-22.2851,1023.42
252368,0.406504,9.85174,-0.167384,1.4,-2.52,0.21,19.8283,-50.408,-21.5168,1023.42
252374,0.411286,9.84218,-0.157819,1.61,-2.52,0.42,19.6539,-50.7164,-19.2855,1023.4
252380,0.411286,9.81349,-0.162602,1.89,-2.52,0.14,19.1018,-47.139,-21.6645,1023.4
252386,0.420851,9.85174,-0.191296,1.54,-2.59,0.35,19.6249,-48.8352,-21.0882,1023.4
252392,0.382592,9.83261,-0.205643,1.54,-2.59,0.14,20.0026,-51.4566,-19.8027,1023.43
252398,0.416069,9.78479,-0.133907,1.54,-2.24,-0.07,19.9154,-47.324,-20.6893,1023.43
252404,0.430416,9.84696,-0.205643,1.89,-2.52,0,19.0437,-47.3549,-21.1917,1023.43
252410,0.454328,9.87566,-0.21999,1.19,-2.59,0,18.8113,-50.6856,-20.0982,1023.43
252416,0.430416,9.85653,-0.186514,1.12,-2.31,0.07,19.5377,-49.3595,-20.7632,1023.43
252422,0.387374,9.78479,-0.157819,1.54,-2.59,0.14,19.2762,-46.6764,-21.4724,1023.43
252428,0.430416,9.79914,-0.162602,1.54,-2.24,0.28,20.3513,-50.2847,-21.1474,1023.44
252434,0.401722,9.8087,-0.181731,1.4,-2.03,0.35,19.6249,-50.1921,-20.4085,1023.44
252440,0.406504,9.83261,-0.181731,1.47,-2.24,0,19.9735,-47.2624,-22.093,1023.44
252446,0.406504,9.81349,-0.148254,1.4,-2.45,0.14,20.4094,-49.1744,-20.7632,1023.42
252452,0.416069,9.83261,-0.148254,1.47,-2.66,0.28,20.1479,-51.2407,-20.0539,1023.42
252458,0.396939,9.8374,-0.200861,1.89,-2.59,0.21,19.9445,-48.2801,-20.3199,1023.43
252464,0.396939,9.85174,-0.172166,1.33,-2.24,0.42,18.4045,-47.324,-22.5216,1023.43
252470,0.439981,9.79914,-0.172166,1.61,-2.45,0.63,19.7992,-51.3332,-19.5811,1023.41
252476,0.401722,9.82305,-0.162602,2.03,-2.73,0.14,19.8283,-48.3726,-19.714,1023.41
252482,0.425634,9.84218,-0.210426,1.54,-2.45,0.07,19.5377,-46.183,-20.7779,1023.42
252488,0.416069,9.85174,-0.196078,1.68,-2.59,0.35,19.3633,-50.6239,-22.226,1023.42
252494,0.45911,9.81349,-0.176949,1.4,-2.59,0,20.1769,-50.994,-21.0735,1023.42
252500,0.439981,9.82305,-0.143472,1.47,-2.45,0.28,19.4505,-45.7204,-22.5807,1023.44
252506,0.444763,9.83261,-0.176949,1.82,-2.24,0.07,19.6249,-48.1567,-21.103,1023.44
252512,0.444763,9.82305,-0.196078,1.4,-2.24,-0.21,20.9324,-51.8267,-20.0391,1023.4
252518,0.416069,9.80392,-0.143472,1.68,-2.87,0.56,20.6418,-47.6016,-20.6597,1023.4
252524,0.45911,9.85653,-0.167384,1.68,-2.24,-0.14,19.4796,-46.954,-21.768,1023.43
252530,0.420851,9.87566,-0.210426,1.33,-1.96,-0.35,21.0196,-51.3332,-20.9109,1023.43
252536,0.392157,9.8087,-0.162602,1.4,-2.59,0.21,20.235,-50.1305,-19.98,1023.46
252542,0.435198,9.84218,-0.157819,1.75,-2.66,0.14,18.6369,-46.2138,-22.1817,1023.46
252548,0.368245,9.86131,-0.191296,1.89,-2.59,-0.14,19.3924,-50.994,-21.3394,1023.42
252554,0.396939,9.81827,-0.162602,1.61,-2.66,-0.49,19.5377,-50.223,-19.4628,1023.42
252560,0.396939,9.81827,-0.153037,1.54,-2.31,-0.56,19.3633,-46.8615,-21.8418,1023.42
252566,0.396939,9.82305,-0.176949,1.96,-2.66,-0.21,18.6079,-48.3109,-21.2212,1023.42
252572,0.396939,9.81349,-0.129125,1.75,-2.59,0.56,19.4215,-51.7033,-19.1082,1023.42
252578,0.420851,9.82783,-0.157819,1.33,-2.59,0,19.5958,-48.2801,-20.7336,1023.41
252584,0.416069,9.83261,-0.186514,1.12,-2.17,-0.35,20.1769,-47.8483,-20.5858,1023.41
252590,0.425634,9.82305,-0.157819,1.96,-2.66,0.21,19.3052,-50.8089,-20.7041,1023.42
252596,0.37781,9.84218,-0.162602,1.12,-2.8,0.56,19.2762,-49.637,-20.0687,1023.42
252602,0.401722,9.8087,-0.162602,1.75,-2.73,-0.35,19.5377,-46.7998,-22.5954,1023.42
252608,0.420851,9.79914,-0.157819,1.75,-2.38,0.28,20.1479,-49.4828,-20.97,1023.42
252614,0.425634,9.82783,-0.172166,1.89,-2.31,0.35,20.1769,-51.4257,-20.3642,1023.42
252620,0.425634,9.82783,-0.215208,1.54,-2.1,-0.21,19.8573,-46.3989,-20.9405,1023.46
252626,0.416069,9.82783,-0.191296,1.4,-2.38,17.85,20.4384,-47.7866,-22.3886,1023.46
252632,0.435198,9.82305,-0.162602,1.33,-2.8,0,20.1188,-51.1173,-19.7879,1023.41
252638,0.416069,9.84218,-0.196078,2.17,-2.87,-0.21,20.206,-48.3109,-20.7336,1023.41
252644,0.411286,9.82305,-0.205643,1.4,-1.82,0.21,19.9154,-47.4166,-21.2508,1023.44
252650,0.416069,9.84696,-0.186514,1.4,-2.52,0.14,20.0607,-50.994,-20.4085,1023.44
252656,0.401722,9.77044,-0.172166,1.75,-2.73,0.07,20.4966,-49.9763,-20.97,1023.42
252662,0.420851,9.84218,-0.157819,1.47,-2.59,0.07,18.7241,-46.5222,-21.7384,1023.42
252668,0.420851,9.8374,-0.143472,1.4,-2.52,-0.28,20.235,-49.2978,-21.1178,1023.42
252674,0.406504,9.82783,-0.157819,1.4,-2.1,0,19.9154,-51.0557,-20.3051,1023.4
252680,0.406504,9.83261,-0.191296,1.75,-2.52,-0.07,18.9856,-46.8306,-21.3542,1023.4
252686,0.416069,9.81349,-0.172166,1.68,-2.45,0.14,19.2762,-48.6193,-22.5068,1023.4
252692,0.382592,9.85653,-0.186514,1.47,-2.31,0.21,19.1018,-51.7033,-21.5168,1023.4
252698,0.430416,9.8374,-0.210426,1.89,-2.38,0.28,18.8113,-48.1259,-21.0735,1023.44
252704,0.439981,9.81349,-0.21999,1.4,-2.38,0.35,18.9565,-46.5531,-21.1326,1023.44
252710,0.416069,9.85653,-0.210426,1.54,-2.59,-0.07,19.7992,-51.9192,-20.246,1023.43
252716,0.439981,9.8087,-0.224773,1.12,-1.89,-0.07,19.8283,-49.4212,-20.97,1023.43
252722,0.368245,9.81349,-0.186514,1.47,-2.66,0.49,17.8814,-46.6456,-22.1521,1023.4
252728,0.392157,9.81349,-0.181731,1.33,-2.59,0.07,18.8113,-50.0688,-21.6497,1023.4
252734,0.420851,9.8087,-0.181731,1.68,-2.38,-0.28,20.1479,-50.5622,-20.0243,1023.4
252740,0.439981,9.83261,-0.210426,1.68,-2.31,0,18.9275,-46.5531,-20.2164,1023.43
252746,0.411286,9.83261,-0.215208,1.12,-2.31,0.28,18.9275,-48.095,-20.3051,1023.43
252752,0.373027,9.81827,-0.167384,1.47,-2.52,-0.49,20.0607,-51.4257,-20.8518,1023.41
252758,0.420851,9.78001,-0.167384,2.03,-2.73,-0.42,19.7411,-47.7558,-21.1621,1023.41
252764,0.430416,9.85174,-0.21999,1.61,-2.59,0,19.5377,-47.0773,-20.7927,1023.42
252770,0.416069,9.81827,-0.205643,1.82,-2.38,-0.14,20.0607,-51.4566,-19.5811,1023.42
252776,0.425634,9.84218,-0.205643,1.33,-2.31,0.21,20.206,-50.1921,-21.2212,1023.42
252782,0.420851,9.82305,-0.186514,1.19,-2.24,0.14,19.0147,-46.6456,-21.7089,1023.42
252788,0.420851,9.79914,-0.167384,1.68,-2.45,0.14,19.9154,-49.7604,-20.4529,1023.42
252794,0.406504,9.84218,-0.172166,1.75,-2.66,0.14,20.1769,-50.3772,-20.0391,1023.44
252800,0.435198,9.8374,-0.224773,1.19,-2.24,0.42,19.9154,-47.1082,-21.7532,1023.44
252806,0.444763,9.84218,-0.200861,1.4,-2.73,0.21,19.9735,-48.496,-21.1769,1023.44
252812,0.401722,9.82783,-0.143472,1.82,-3.01,0.21,20.1479,-51.3641,-20.7927,1023.44
252818,0.416069,9.80392,-0.210426,1.4,-2.24,0.07,19.5377,-47.9717,-20.5858,1023.44
252824,0.37781,9.85174,-0.200861,1.54,-2.38,0.14,19.6539,-46.9848,-21.4872,1023.44
252830,0.387374,9.80392,-0.143472,1.61,-2.59,0.21,19.3633,-51.3024,-20.6154,1023.44
252836,0.401722,9.81349,-0.176949,1.68,-2.52,-0.28,20.206,-49.637,-20.6154,1023.44
252842,0.425634,9.8087,-0.176949,1.4,-2.17,0.21,19.5377,-47.2315,-22.3295,1023.44
252848,0.396939,9.85653,-0.176949,1.47,-2.03,0.42,19.5667,-50.5314,-20.7484,1023.43
252854,0.411286,9.81827,-0.172166,1.19,-2.31,0.35,18.3754,-52.6593,-22.6102,1023.43
