Timestamp,AccX,AccY,AccZ,AngularVelX,AngularVelY,AngularVelZ,MagX,MagY,MagZ,AirPressure
21752,-0.685588,9.78988,-0.365709,0.21,-0.21,-0.42,27.8427,-65.4826,36.2013,1022.7
21758,-0.638191,9.86608,-0.299183,0.28,-0.14,-0.28,28.225,-65.3017,36.4093,1022.66
21764,-0.571835,9.83751,-0.31819,0.14,-0.21,-0.28,27.7881,-68.1049,35.6664,1022.66
21770,-0.628711,9.81369,-0.337197,0.07,-0.42,-0.28,27.0781,-66.4471,37.375,1022.69
21776,-0.65715,9.80893,-0.299183,0.07,-0.28,-0.28,28.2796,-64.0358,34.4482,1022.69
21782,-0.704547,9.80893,-0.289679,0.35,-0.21,-0.35,27.8154,-66.8088,36.127,1022.69
21788,-0.638191,9.87084,-0.365709,0.49,-0.14,-0.35,27.0781,-67.6226,36.335,1022.67
21794,-0.65241,9.82798,-0.322942,0.49,-0.07,-0.35,27.7062,-65.0304,35.7853,1022.67
21800,-0.595534,9.83274,-0.39422,0.35,-0.07,-0.21,27.5696,-66.4169,35.3842,1022.68
21806,-0.671369,9.83751,-0.322942,0.42,-0.14,-0.21,27.8973,-68.2254,37.6127,1022.68
21812,-0.676108,9.87084,-0.346701,0.21,-0.21,-0.28,27.9246,-65.2716,36.647,1022.67
21818,-0.642931,9.83274,-0.346701,0.21,-0.21,-0.28,28.1158,-65.0003,35.295,1022.67
21824,-0.614492,9.8899,-0.370461,0.14,-0.21,-0.28,28.8804,-68.4665,36.9144,1022.67
21830,-0.628711,9.84703,-0.408476,0.21,-0.21,-0.35,27.9792,-66.6279,37.479,1022.69
21836,-0.609753,9.81846,-0.327694,0.14,-0.28,-0.28,28.3069,-63.7343,35.0722,1022.69
21842,-0.633451,9.84703,-0.360957,0.07,-0.28,-0.28,28.0339,-68.0144,36.7213,1022.68
21848,-0.671369,9.87561,-0.31819,0.14,-0.28,-0.35,27.9246,-66.7183,37.7909,1022.68
21854,-0.609753,9.81846,-0.341949,0.14,-0.28,-0.35,28.1977,-64.307,35.1316,1022.69
21860,-0.600273,9.84703,-0.346701,0.07,-0.21,-0.28,27.8427,-66.1758,36.1716,1022.69
21866,-0.690327,9.80893,-0.322942,0.07,-0.21,-0.28,27.8973,-68.557,36.4836,1022.65
21872,-0.642931,9.84227,-0.356205,0.14,-0.35,-0.35,27.9246,-65.3921,34.9682,1022.65
21878,-0.623972,9.86132,-0.322942,0.14,-0.28,-0.35,28.3615,-64.3975,35.6219,1022.65
21884,-0.638191,9.81369,-0.322942,0.14,-0.14,-0.28,27.8427,-68.4364,37.687,1022.7
21890,-0.590794,9.86608,-0.365709,0.21,-0.28,-0.28,27.3239,-66.7485,36.7064,1022.7
21896,-0.671369,9.84227,-0.375212,0.21,-0.21,-0.42,26.3682,-65.0304,35.4436,1022.68
21902,-0.65715,9.85179,-0.322942,0.21,-0.35,-0.42,28.1158,-67.6829,37.3601,1022.68
21908,-0.581314,9.83751,-0.370461,0.21,-0.28,-0.35,27.4058,-67.6527,37.9989,1022.68
21914,-0.65241,9.80893,-0.289679,0.28,-0.21,-0.28,27.8427,-64.7592,35.3545,1022.68
21920,-0.642931,9.86608,-0.389468,0.07,-0.28,-0.28,27.7608,-66.6581,35.6813,1022.68
21926,-0.65715,9.84227,-0.332446,0.07,-0.42,-0.35,27.1327,-67.8939,37.375,1022.68
21932,-0.628711,9.82798,-0.322942,0.14,-0.42,-0.28,27.7608,-65.573,35.9784,1022.68
21938,-0.633451,9.87084,-0.346701,0.21,-0.28,-0.28,28.225,-64.8797,35.919,1022.69
21944,-0.619232,9.79941,-0.346701,0.14,-0.21,-0.35,27.9246,-69.4612,36.6618,1022.69
21950,-0.676108,9.84227,-0.351453,0.07,-0.28,-0.42,27.0781,-66.5978,37.375,1022.67
21956,-0.628711,9.83274,-0.341949,0.21,-0.28,-0.42,27.6243,-64.3673,36.2756,1022.67
21962,-0.638191,9.78512,-0.275423,0.28,-0.07,-0.42,27.8154,-67.1102,36.3647,1022.66
21968,-0.633451,9.88037,-0.346701,0.42,-0.07,-0.42,27.8154,-67.9541,37.1372,1022.66
21974,-0.619232,9.82322,-0.360957,0.28,-0.14,-0.35,28.2796,-64.8194,36.0527,1022.66
21980,-0.586054,9.80893,-0.332446,0.21,-0.14,-0.42,28.58,-65.6634,35.4733,1022.66
21986,-0.586054,9.78988,-0.351453,0.35,-0.07,-0.42,27.6789,-67.8939,36.543,1022.66
21992,-0.680848,9.87084,-0.432235,0.42,0,-0.49,27.5423,-64.3372,36.6915,1022.7
21998,-0.609753,9.80417,-0.341949,0.35,-0.14,-0.35,28.7438,-64.518,35.2653,1022.7
22004,-0.65241,9.84703,-0.403724,0.14,-0.21,-0.28,28.2523,-68.0747,38.2961,1022.69
22010,-0.671369,9.80417,-0.341949,0.14,-0.28,-0.35,28.2523,-66.8992,38.2218,1022.69
22016,-0.633451,9.81369,-0.327694,0.21,-0.28,-0.28,27.8154,-64.1262,35.8002,1022.7
22022,-0.609753,9.80417,-0.337197,0.21,-0.28,-0.42,28.2796,-66.2361,36.2161,1022.7
22028,-0.638191,9.78988,-0.322942,0.07,-0.35,-0.42,28.4162,-67.291,37.0778,1022.7
22034,-0.600273,9.80893,-0.284927,0,-0.28,-0.42,28.1431,-64.096,36.3944,1022.7
22040,-0.628711,9.80417,-0.332446,0.28,-0.21,-0.42,28.3069,-66.8992,37.1521,1022.7
22046,-0.661889,9.82322,-0.313438,0.28,-0.14,-0.42,26.9962,-69.1598,35.6516,1022.68
22052,-0.638191,9.80893,-0.337197,0.28,-0.21,-0.49,28.2523,-64.5482,36.0676,1022.68
22058,-0.623972,9.82322,-0.322942,0.28,-0.21,-0.42,28.6073,-64.5482,36.2013,1022.68
22064,-0.605013,9.83274,-0.322942,0.35,-0.07,-0.42,28.3615,-67.7733,37.0035,1022.68
22070,-0.609753,9.79464,-0.360957,0.35,0.07,-0.42,27.6243,-66.7485,35.8002,1022.68
22076,-0.65241,9.83274,-0.360957,0.42,0,-0.35,28.5254,-63.5234,35.3247,1022.67
22082,-0.638191,9.8899,-0.351453,0.42,-0.07,-0.42,28.3069,-67.5322,35.0722,1022.67
22088,-0.690327,9.85179,-0.346701,0.28,-0.14,-0.42,28.6619,-67.3212,36.1419,1022.67
22094,-0.65241,9.83274,-0.370461,0.35,-0.28,-0.49,28.1704,-64.2166,34.6859,1022.67
22100,-0.671369,9.86608,-0.365709,0.42,-0.28,-0.42,28.225,-65.7237,36.2161,1022.7
22106,-0.714026,9.82798,-0.398972,0,-0.28,-0.42,28.0885,-68.135,36.855,1022.7
22112,-0.633451,9.85179,-0.370461,0.07,-0.35,-0.49,28.4435,-65.9648,36.4687,1022.68
22118,-0.633451,9.83274,-0.322942,0.07,-0.42,-0.42,28.4981,-64.94,36.4984,1022.68
22124,-0.614492,9.79941,-0.31819,0.14,-0.28,-0.42,28.0885,-68.2556,37.3155,1022.68
22130,-0.614492,9.82322,-0.346701,0.14,-0.14,-0.42,27.3512,-66.5676,37.0035,1022.68
22136,-0.619232,9.78512,-0.351453,0.21,-0.21,-0.42,28.0612,-64.8496,35.6219,1022.68
22142,-0.661889,9.84227,-0.275423,0.14,-0.28,-0.49,28.4435,-67.5623,36.231,1022.65
22148,-0.666629,9.82798,-0.31819,0.21,-0.21,-0.49,27.9246,-67.4116,37.3452,1022.65
22154,-0.576575,9.80417,-0.375212,0.35,-0.14,-0.42,28.2523,-64.4879,36.4984,1022.68
22160,-0.623972,9.86132,-0.346701,0.28,-0.14,-0.56,28.3615,-65.995,36.751,1022.68
22166,-0.623972,9.87561,-0.346701,0.28,-0.21,-0.49,27.6243,-68.4364,37.6127,1022.68
22172,-0.581314,9.75178,-0.313438,0.35,-0.14,-0.56,28.3888,-65.6333,35.3842,1022.66
22178,-0.605013,9.80417,-0.360957,0.35,-0.21,-0.49,27.9246,-64.8194,35.6367,1022.66
22184,-0.699807,9.81369,-0.337197,0.28,-0.07,-0.56,27.1327,-67.4719,36.0527,1022.66
22190,-0.638191,9.83751,-0.322942,0.35,-0.14,-0.49,28.2796,-67.0499,37.4195,1022.66
22196,-0.666629,9.86132,-0.356205,0.28,-0.14,-0.63,27.87,-64.4577,34.6116,1022.67
22202,-0.64767,9.82322,-0.322942,0.28,-0.14,-0.63,28.2796,-67.2307,36.9441,1022.67
22208,-0.614492,9.82798,-0.365709,0.28,-0.14,-0.63,27.7335,-68.5268,36.1419,1022.7
22214,-0.642931,9.86608,-0.351453,0.21,0,-0.49,27.9519,-65.0907,36.023,1022.7
22220,-0.685588,9.86132,-0.346701,0.14,-0.14,-0.56,29.0169,-66.4169,35.2653,1022.7
22226,-0.628711,9.79464,-0.389468,0.28,-0.21,-0.49,28.1158,-68.9488,37.6127,1022.68
22232,-0.638191,9.88037,-0.360957,0.35,-0.07,-0.49,27.8154,-65.5127,36.2161,1022.68
22238,-0.609753,9.88513,-0.322942,0.14,-0.28,-0.49,28.225,-65.4524,35.5922,1022.67
22244,-0.609753,9.81369,-0.270671,0.14,-0.07,-0.49,28.935,-68.4665,36.7361,1022.67
22250,-0.628711,9.83274,-0.313438,0.42,-0.07,-0.35,27.7881,-66.7485,36.647,1022.66
22256,-0.609753,9.83751,-0.356205,0.35,-0.21,-0.42,28.4708,-65.0003,35.4139,1022.66
22262,-0.619232,9.85179,-0.313438,0.21,-0.21,-0.49,28.0339,-67.924,36.7064,1022.67
22268,-0.642931,9.85656,-0.370461,0.49,-0.07,-0.56,27.5423,-67.1705,37.9098,1022.67
22274,-0.732985,9.82798,-0.308686,0.42,0,-0.49,27.7062,-65.3017,35.1167,1022.67
22280,-0.614492,9.85179,-0.370461,0.42,0,-0.63,28.4708,-65.784,36.127,1022.66
22286,-0.619232,9.86132,-0.322942,0.42,-0.07,-0.49,28.3888,-68.6173,36.0527,1022.66
22292,-0.65715,9.84227,-0.351453,0.35,-0.07,-0.42,28.58,-65.2113,36.8401,1022.66
22298,-0.600273,9.85179,-0.332446,0.28,-0.07,-0.42,28.3615,-64.729,35.8893,1022.66
22304,-0.638191,9.83751,-0.327694,0.35,-0.14,-0.49,28.8531,-68.346,37.2264,1022.68
22310,-0.638191,9.81369,-0.356205,0.42,-0.21,-0.42,28.4435,-66.7485,35.5624,1022.68
22316,-0.623972,9.81369,-0.31819,0.28,-0.14,-0.49,27.7881,-64.5482,35.1019,1022.68
22322,-0.623972,9.83274,-0.417979,0.35,-0.07,-0.49,27.9246,-67.2006,36.2459,1022.67
22328,-0.661889,9.82798,-0.294431,0.21,0,-0.49,28.1431,-67.4719,36.9441,1022.67
22334,-0.638191,9.81369,-0.284927,0.21,-0.14,-0.42,27.7608,-64.6687,35.711,1022.68
22340,-0.661889,9.82322,-0.294431,0.28,-0.28,-0.49,27.8427,-65.3017,35.8893,1022.68
22346,-0.600273,9.81369,-0.332446,0.21,-0.14,-0.42,27.5423,-68.557,37.479,1022.7
22352,-0.699807,9.84703,-0.322942,0.21,-0.14,-0.42,27.5696,-64.6687,35.6516,1022.7
22358,-0.633451,9.82322,-0.346701,0.21,-0.21,-0.42,27.8973,-64.3975,35.3545,1022.7
22364,-0.638191,9.85656,-0.398972,0.21,-0.21,-0.49,28.4435,-68.3158,38.0287,1022.7
22370,-0.690327,9.82798,-0.341949,0.28,-0.14,-0.42,28.3888,-66.4471,37.7018,1022.7
22376,-0.671369,9.82798,-0.327694,0.28,-0.14,-0.42,28.3888,-63.8851,35.6219,1022.67
22382,-0.600273,9.83274,-0.303934,0.35,-0.07,-0.42,27.8973,-67.2609,36.1567,1022.67
22388,-0.619232,9.85179,-0.39422,0.28,-0.21,-0.42,28.0885,-67.8939,37.2264,1022.7
22394,-0.642931,9.78988,-0.39422,0.28,-0.07,-0.42,27.8973,-64.3673,36.127,1022.7
22400,-0.623972,9.79464,-0.398972,0.42,-0.14,-0.49,28.58,-65.3017,35.7853,1022.65
22406,-0.633451,9.81369,-0.346701,0.35,-0.21,-0.49,27.87,-67.7733,36.7213,1022.65
22412,-0.590794,9.83751,-0.31819,0.28,-0.21,-0.49,27.4331,-64.8797,35.9042,1022.65
22418,-0.609753,9.82798,-0.313438,0.21,-0.07,-0.49,28.4162,-64.7592,36.5133,1022.68
22424,-0.65715,9.84703,-0.332446,0.28,-0.21,-0.49,28.4162,-68.4967,37.5978,1022.68
22430,-0.661889,9.77559,-0.313438,0.07,-0.14,-0.49,27.8973,-66.4471,37.8652,1022.69
22436,-0.695067,9.84227,-0.322942,0.21,-0.14,-0.49,28.225,-63.9152,36.0379,1022.69
22442,-0.666629,9.84227,-0.375212,0.28,-0.07,-0.49,28.0885,-66.8088,36.8996,1022.67
22448,-0.576575,9.87561,-0.322942,0.28,-0.07,-0.49,28.0066,-67.6527,38.5338,1022.67
22454,-0.676108,9.88037,-0.370461,0.35,-0.14,-0.49,27.6789,-64.8797,37.3155,1022.68
22460,-0.605013,9.85656,-0.337197,0.49,-0.14,-0.56,28.1704,-66.9896,33.4974,1022.68
22466,-0.638191,9.84227,-0.31819,0.49,-0.07,-0.42,27.4058,-68.4063,37.9395,1022.68
22472,-0.666629,9.89466,-0.346701,0.28,-0.14,-0.42,27.4331,-65.1208,36.3053,1022.68
22478,-0.605013,9.83751,-0.337197,0.42,-0.14,-0.42,27.597,-65.6634,35.1167,1022.68
22484,-0.581314,9.78036,-0.327694,0.42,-0.21,-0.42,28.1704,-67.5924,37.0481,1022.66
22490,-0.590794,9.83751,-0.31819,0.35,-0.21,-0.49,27.2966,-66.0251,36.5281,1022.66
22496,-0.65715,9.85656,-0.360957,0.35,-0.21,-0.49,27.7062,-64.8496,35.5476,1022.68
22502,-0.590794,9.82798,-0.351453,0.35,-0.14,-0.42,28.1431,-67.8637,35.6813,1022.68
22508,-0.65241,9.81369,-0.322942,0.35,-0.14,-0.35,27.2147,-68.0446,37.9841,1022.68
22514,-0.633451,9.81369,-0.427483,0.28,-0.14,-0.42,27.3239,-64.4577,35.4287,1022.66
22520,-0.623972,9.85656,-0.351453,0.35,-0.07,-0.42,28.4162,-65.5428,36.8996,1022.66
22526,-0.690327,9.89466,-0.337197,0.35,-0.07,-0.35,28.2523,-69.0392,38.1178,1022.69
22532,-0.680848,9.84227,-0.337197,0.35,-0.14,-0.42,28.1431,-66.1758,36.231,1022.69
22538,-0.586054,9.85656,-0.341949,0.28,-0.21,-0.42,28.0612,-65.6634,36.2459,1022.65
22544,-0.581314,9.85179,-0.31819,0.35,-0.28,-0.49,28.0066,-68.768,36.6618,1022.65
22550,-0.676108,9.80893,-0.351453,0.35,-0.21,-0.42,27.5423,-66.5676,35.9933,1022.67
22556,-0.642931,9.90418,-0.379964,0.42,-0.14,-0.42,27.5423,-64.3372,36.023,1022.67
22562,-0.661889,9.83274,-0.341949,0.42,-0.14,-0.42,28.0339,-67.2609,35.8596,1022.67
22568,-0.666629,9.80417,-0.289679,0.35,-0.14,-0.49,27.7608,-68.2254,36.3944,1022.68
22574,-0.695067,9.85179,-0.299183,0.35,-0.14,-0.42,27.242,-64.5482,35.4139,1022.68
22580,-0.680848,9.81369,-0.294431,0.35,-0.28,-0.49,28.2796,-65.3017,36.2013,1022.69
22586,-0.628711,9.86608,-0.346701,0.35,-0.14,-0.35,28.0339,-69.0995,37.167,1022.69
22592,-0.633451,9.84703,-0.303934,0.28,-0.14,-0.35,27.4604,-65.9045,36.6024,1022.66
22598,-0.690327,9.79941,-0.275423,0.21,-0.21,-0.35,27.7062,-65.6031,36.1419,1022.66
22604,-0.576575,9.83751,-0.299183,0.07,-0.28,-0.49,27.7608,-68.1651,36.543,1022.68
22610,-0.623972,9.80417,-0.379964,0.21,-0.14,-0.49,27.3512,-66.8088,38.0287,1022.68
22616,-0.64767,9.84703,-0.39422,0.35,-0.21,-0.42,27.4331,-63.9152,34.9385,1022.68
22622,-0.586054,9.85656,-0.337197,0.28,-0.14,-0.42,28.1431,-67.2307,35.8299,1022.68
22628,-0.642931,9.86132,-0.356205,0.28,-0.14,-0.35,28.2796,-67.1403,36.6618,1022.68
22634,-0.64767,9.85656,-0.370461,0.28,-0.35,-0.35,27.5696,-64.2166,34.8345,1022.67
22640,-0.65715,9.79941,-0.308686,-0.07,-0.35,-0.28,28.1977,-65.9648,35.1465,1022.67
22646,-0.567095,9.80417,-0.351453,0.07,-0.42,-0.28,27.7608,-68.1953,37.7018,1022.69
22652,-0.661889,9.85179,-0.322942,0.21,-0.35,-0.28,27.2693,-65.2716,36.127,1022.69
22658,-0.704547,9.79464,-0.322942,0.21,-0.35,-0.28,28.3342,-64.7893,35.607,1022.69
22664,-0.65715,9.81369,-0.313438,0,-0.14,-0.21,28.935,-68.0144,36.2161,1022.72
22670,-0.524438,9.76131,-0.403724,0.28,-0.21,-0.42,28.2523,-66.7485,36.0527,1022.72
22676,-0.704547,9.85656,-0.341949,0.77,0.35,-0.35,28.1431,-63.6138,34.7453,1022.67
22682,-0.65715,9.8899,-0.346701,0.49,0.07,-0.42,27.87,-66.8992,35.6219,1022.67
22688,-0.633451,9.85179,-0.403724,0.14,-0.35,-0.28,27.7335,-68.3158,37.2115,1022.68
22694,-0.65715,9.81846,-0.375212,0.21,-0.14,-0.28,27.7608,-65.0304,35.2059,1022.68
22700,-0.609753,9.82798,-0.332446,0.28,-0.14,-0.14,27.4331,-66.0552,34.8939,1022.68
22706,-0.747204,9.81846,-0.175634,-0.07,-0.35,-0.28,28.3342,-68.8885,36.1419,1022.68
22712,-0.538657,9.74226,-0.308686,0,-0.42,-0.35,27.9792,-65.6634,36.0824,1022.68
22718,-0.661889,9.78036,-0.417979,0.56,0.28,-0.28,28.1431,-65.0003,35.7556,1022.69
22724,-0.642931,9.82798,-0.39422,0.14,-0.21,-0.21,28.4435,-68.2556,36.8847,1022.69
22730,-0.671369,9.81846,-0.313438,0,-0.35,-0.28,27.7335,-66.8389,36.7064,1022.69
22736,-0.623972,9.84703,-0.332446,0.14,-0.35,-0.21,27.9792,-64.1262,35.6813,1022.69
22742,-0.638191,9.86608,-0.360957,0.14,-0.49,-0.21,28.4981,-68.1049,35.7704,1022.72
22748,-0.642931,9.83274,-0.327694,0.07,-0.21,-0.14,28.8531,-68.768,37.5087,1022.72
22754,-0.671369,9.85656,-0.375212,0.07,-0.21,-0.14,27.7335,-63.8851,36.6915,1022.72
22760,-0.623972,9.82798,-0.303934,-0.14,-0.42,-0.21,28.8258,-66.2059,34.4631,1022.68
22766,-0.567095,9.81369,-0.294431,-0.14,-0.56,-0.21,27.6243,-69.3105,36.9293,1022.68
22772,-0.586054,9.76131,-0.313438,0.14,-0.21,-0.28,28.0612,-65.2113,35.5922,1022.69
22778,-0.666629,9.83751,-0.389468,0.14,-0.07,-0.28,28.6073,-64.1262,36.1419,1022.69
22784,-0.609753,9.79464,-0.346701,-0.07,-0.28,-0.28,28.4981,-67.5322,36.7807,1022.69
22790,-0.595534,9.82798,-0.327694,0.14,-0.21,-0.35,27.1874,-67.0198,37.0778,1022.69
22796,-0.619232,9.78512,-0.384716,0.49,0,-0.35,27.7881,-64.5482,35.2059,1022.67
22802,-0.690327,9.88513,-0.365709,0.35,-0.14,-0.28,28.7438,-67.1705,36.2756,1022.67
22808,-0.642931,9.82798,-0.360957,0.21,-0.21,-0.21,28.1431,-68.1049,36.231,1022.67
22814,-0.623972,9.82322,-0.346701,0.21,-0.28,-0.14,27.87,-64.2467,35.4882,1022.71
22820,-0.633451,9.85656,-0.351453,0.07,-0.28,-0.21,28.0612,-65.5127,35.8744,1022.71
22826,-0.671369,9.82798,-0.303934,0,-0.21,-0.21,28.0066,-68.4967,37.0778,1022.68
22832,-0.609753,9.83274,-0.294431,0,-0.35,-0.21,27.4604,-64.94,36.0676,1022.68
22838,-0.642931,9.86608,-0.360957,0.07,-0.07,-0.28,28.3615,-64.307,36.2013,1022.7
22844,-0.685588,9.85179,-0.31819,0.21,-0.21,-0.14,28.6346,-67.4719,35.7704,1022.7
22850,-0.562356,9.84227,-0.31819,0.07,-0.28,-0.07,27.9792,-66.6882,36.9293,1022.7
22856,-0.633451,9.90418,-0.356205,0.07,-0.28,-0.07,27.8973,-63.6138,36.2459,1022.67
22862,-0.65715,9.80893,-0.356205,0.28,-0.35,-0.07,28.225,-66.9293,35.8447,1022.67
22868,-0.690327,9.84703,-0.337197,0.28,-0.28,-0.14,28.3342,-68.3158,37.3601,1022.67
22874,-0.728245,9.83274,-0.322942,0.07,-0.35,-0.07,27.8973,-65.0606,37.1967,1022.67
22880,-0.600273,9.83274,-0.313438,-0.07,-0.42,0,28.4981,-65.4826,36.3647,1022.7
22886,-0.623972,9.85656,-0.365709,0.14,-0.35,-0.21,28.3615,-68.8282,36.9293,1022.7
22892,-0.695067,9.85656,-0.322942,0.28,-0.35,-0.14,28.1977,-65.6333,35.815,1022.68
22898,-0.614492,9.87084,-0.313438,0.14,-0.28,-0.14,28.3615,-64.6084,36.1864,1022.68
22904,-0.614492,9.87084,-0.332446,0,-0.35,-0.14,28.1431,-67.4417,37.9395,1022.68
22910,-0.64767,9.76607,-0.337197,0.07,-0.21,-0.14,28.3069,-67.0198,37.0927,1022.7
22916,-0.64767,9.86608,-0.398972,0.28,-0.14,-0.21,28.6892,-64.3673,36.1567,1022.7
22922,-0.633451,9.85656,-0.351453,0.07,-0.21,-0.28,29.0169,-67.1705,36.2459,1022.7
22928,-0.666629,9.81369,-0.289679,-0.07,-0.42,-0.28,29.0442,-68.4063,36.4836,1022.7
22934,-0.623972,9.82798,-0.322942,0.21,-0.21,-0.28,28.7165,-64.7893,36.0676,1022.7
22940,-0.699807,9.84703,-0.313438,0.07,-0.35,-0.28,29.0715,-65.9648,36.3647,1022.7
22946,-0.633451,9.79464,-0.389468,0,-0.42,-0.14,28.6619,-68.3158,36.4836,1022.7
22952,-0.586054,9.79464,-0.327694,-0.14,-0.49,-0.21,28.3342,-65.6935,35.4585,1022.7
22958,-0.605013,9.81846,-0.31819,-0.07,-0.35,-0.14,28.4981,-65.1208,34.9533,1022.7
22964,-0.666629,9.86132,-0.356205,0.21,-0.28,-0.07,28.0339,-68.4665,37.4938,1022.69
22970,-0.623972,9.80417,-0.308686,0.14,-0.35,-0.21,28.7711,-67.3815,36.2161,1022.69
22976,-0.671369,9.80417,-0.31819,0.14,-0.35,-0.21,28.1704,-63.4329,35.2207,1022.71
22982,-0.642931,9.81846,-0.356205,0.14,-0.35,-0.21,28.6619,-67.3212,36.5281,1022.71
22988,-0.666629,9.82798,-0.303934,0.35,-0.14,-0.21,29.0988,-67.8939,36.6767,1022.69
22994,-0.628711,9.88037,-0.384716,0.21,-0.21,-0.28,29.0169,-63.8851,34.879,1022.69
23000,-0.590794,9.83751,-0.346701,-0.07,-0.35,-0.21,28.3615,-65.6031,36.1567,1022.69
23006,-0.64767,9.81846,-0.327694,-0.21,-0.42,-0.21,28.2796,-69.3708,38.2664,1022.68
23012,-0.619232,9.83274,-0.284927,-0.07,-0.35,-0.21,28.0339,-65.4826,36.8847,1022.68
23018,-0.671369,9.83751,-0.313438,0.07,-0.35,-0.21,28.225,-64.6989,35.2802,1022.65
23024,-0.609753,9.81369,-0.280175,0.07,-0.42,-0.28,28.6892,-68.557,37.167,1022.65
23030,-0.64767,9.83751,-0.308686,0.21,-0.35,-0.35,27.8973,-67.924,36.6173,1022.69
23036,-0.64767,9.83751,-0.332446,0.14,-0.21,-0.35,28.935,-64.729,35.4733,1022.69
23042,-0.638191,9.82798,-0.303934,0.14,-0.21,-0.35,28.7438,-66.8389,35.6813,1022.7
23048,-0.64767,9.84227,-0.303934,0.21,-0.28,-0.35,27.4604,-67.8637,39.0092,1022.7
23054,-0.605013,9.78036,-0.303934,0.28,-0.14,-0.21,28.6892,-65.0606,36.9144,1022.7
23060,-0.676108,9.84703,-0.313438,0.28,-0.14,-0.35,29.0715,-65.5428,36.4241,1022.71
23066,-0.619232,9.78988,-0.308686,0.35,-0.14,-0.35,28.1158,-68.9187,38.2961,1022.71
23072,-0.619232,9.88513,-0.365709,0.42,-0.07,-0.35,27.9792,-65.8141,36.6321,1022.67
23078,-0.533917,9.85656,-0.313438,0.35,-0.07,-0.35,28.4708,-65.0003,36.3498,1022.67
23084,-0.628711,9.83274,-0.322942,0.21,-0.07,-0.42,28.5254,-68.1651,36.9887,1022.69
23090,-0.619232,9.81846,-0.346701,0.21,-0.07,-0.49,28.1431,-67.2307,37.1818,1022.69
23096,-0.605013,9.86132,-0.417979,0.28,-0.21,-0.35,28.0612,-64.3975,35.8596,1022.69
23102,-0.65715,9.85179,-0.303934,0.21,-0.28,-0.35,27.242,-67.9843,37.1075,1022.71
23108,-0.65715,9.82322,-0.275423,0.07,-0.42,-0.42,27.7062,-68.135,37.9247,1022.71
23114,-0.628711,9.81369,-0.265919,0.07,-0.42,-0.42,26.5593,-64.9099,36.6618,1022.71
23120,-0.623972,9.79941,-0.265919,0,-0.14,-0.49,27.6789,-65.1208,35.7853,1022.71
23126,-0.638191,9.83274,-0.332446,0.21,-0.14,-0.35,27.5696,-68.346,37.2115,1022.66
23132,-0.619232,9.84227,-0.284927,0.42,-0.21,-0.42,27.1327,-65.151,37.5978,1022.66
23138,-0.65715,9.85179,-0.332446,0.35,-0.14,-0.49,27.6243,-64.6084,35.2653,1022.7
23144,-0.642931,9.78512,-0.365709,0.35,0,-0.49,28.4162,-67.1705,36.8253,1022.7
23150,-0.605013,9.80417,-0.289679,0.42,-0.07,-0.42,28.4162,-67.2307,36.8698,1022.7
23156,-0.600273,9.85179,-0.365709,0.35,-0.07,-0.49,28.1431,-64.1563,34.775,1022.68
23162,-0.609753,9.81846,-0.351453,0.21,0,-0.49,28.1704,-66.6882,36.5281,1022.68
23168,-0.600273,9.86608,-0.303934,0.28,-0.07,-0.49,27.9792,-68.2857,36.1864,1022.68
23174,-0.605013,9.84227,-0.322942,0.28,0,-0.49,28.1158,-64.2467,35.5773,1022.68
23180,-0.623972,9.83274,-0.351453,0.42,0.07,-0.56,28.5254,-65.4223,37.0927,1022.68
23186,-0.581314,9.85656,-0.313438,0.35,0,-0.63,28.4435,-68.0144,37.3304,1022.68
23192,-0.590794,9.81846,-0.360957,0.35,-0.07,-0.56,27.597,-65.6634,36.3201,1022.68
23198,-0.595534,9.84703,-0.308686,0.28,-0.07,-0.56,28.3069,-63.9755,34.9682,1022.71
23204,-0.614492,9.82322,-0.308686,0.28,0,-0.63,28.7984,-68.557,36.5281,1022.71
23210,-0.65241,9.88513,-0.303934,0.42,-0.07,-0.56,28.2523,-67.8034,37.9544,1022.68
23216,-0.65241,9.78988,-0.332446,0.35,0,-0.63,28.6073,-64.6989,35.0573,1022.68
23222,-0.65715,9.81846,-0.289679,0.49,0,-0.7,28.8258,-66.7183,36.9441,1022.69
23228,-0.680848,9.82798,-0.332446,0.42,0.07,-0.7,28.0885,-67.4116,36.7064,1022.69
23234,-0.633451,9.81369,-0.275423,0.56,0.07,-0.63,28.0612,-64.1563,35.7853,1022.67
23240,-0.590794,9.82322,-0.31819,0.49,0.14,-0.7,27.6516,-65.362,35.8447,1022.67
23246,-0.609753,9.82322,-0.313438,0.49,0.14,-0.63,27.9246,-69.4009,37.375,1022.67
23252,-0.671369,9.80893,-0.356205,0.49,0.07,-0.7,28.3888,-66.1457,36.9293,1022.68
23258,-0.638191,9.85179,-0.370461,0.63,0,-0.63,28.4708,-65.151,35.5327,1022.68
23264,-0.666629,9.85656,-0.365709,0.49,0.14,-0.7,27.87,-67.8939,36.7064,1022.69
23270,-0.666629,9.81846,-0.341949,0.49,0.07,-0.77,27.597,-66.3868,36.5578,1022.69
23276,-0.614492,9.76607,-0.322942,0.42,0,-0.77,27.4604,-66.1457,35.4882,1022.67
23282,-0.699807,9.84227,-0.351453,0.49,0,-0.84,28.0885,-65.9648,37.0481,1022.67
23288,-0.595534,9.84703,-0.365709,0.42,-0.07,-0.77,28.3888,-68.1049,37.6127,1022.67
23294,-0.638191,9.78988,-0.270671,0.42,0,-0.77,28.3615,-64.4879,36.8253,1022.67
23300,-0.65241,9.79464,-0.303934,0.42,0,-0.77,28.6073,-64.7893,36.1716,1022.67
23306,-0.614492,9.80893,-0.360957,0.56,-0.14,-0.7,27.8154,-68.7077,36.5281,1022.69
23312,-0.638191,9.85656,-0.337197,0.49,0.07,-0.77,27.7335,-64.8194,36.3053,1022.69
23318,-0.65241,9.84227,-0.313438,0.42,0.07,-0.77,28.7984,-64.0056,35.7259,1022.68
23324,-0.633451,9.87561,-0.370461,0.49,0.07,-0.63,28.2523,-67.8637,36.0824,1022.68
23330,-0.614492,9.81369,-0.389468,0.42,-0.07,-0.7,28.225,-66.9595,36.4538,1022.71
23336,-0.666629,9.83274,-0.351453,0.49,-0.14,-0.63,27.7608,-63.7645,35.8744,1022.71
23342,-0.704547,9.80893,-0.341949,0.56,-0.07,-0.63,28.5254,-67.5322,36.5281,1022.71
23348,-0.65241,9.85656,-0.327694,0.49,-0.07,-0.63,28.6073,-68.4364,37.0927,1022.69
23354,-0.666629,9.85179,-0.284927,0.35,-0.07,-0.7,28.0339,-64.6989,35.4733,1022.69
23360,-0.676108,9.85179,-0.379964,0.35,-0.14,-0.63,27.8427,-65.7538,36.3647,1022.67
23366,-0.633451,9.80417,-0.356205,0.42,-0.14,-0.63,27.9246,-69.0995,38.5041,1022.67
23372,-0.65715,9.87084,-0.375212,0.42,-0.14,-0.49,27.4331,-65.573,36.6173,1022.66
23378,-0.590794,9.81846,-0.341949,0.42,-0.07,-0.49,28.58,-64.3372,35.6219,1022.66
23384,-0.676108,9.85656,-0.322942,0.42,-0.14,-0.49,28.3615,-68.7981,37.0778,1022.68
23390,-0.628711,9.82322,-0.360957,0.28,-0.14,-0.49,28.1977,-67.8336,36.0824,1022.68
23396,-0.586054,9.78988,-0.346701,0.42,-0.14,-0.56,29.0169,-64.3673,35.7853,1022.68
23402,-0.65715,9.88513,-0.356205,0.42,0,-0.56,28.4162,-67.0198,36.6173,1022.72
23408,-0.642931,9.86132,-0.360957,0.35,-0.07,-0.56,28.4708,-68.6173,37.6275,1022.72
23414,-0.586054,9.82322,-0.384716,0.49,-0.21,-0.56,27.87,-64.6386,36.9887,1022.7
23420,-0.65241,9.77559,-0.365709,0.56,-0.21,-0.63,28.0339,-65.7237,35.5327,1022.7
23426,-0.676108,9.79941,-0.346701,0.42,-0.07,-0.56,28.1431,-68.6474,37.4195,1022.7
23432,-0.586054,9.80893,-0.370461,0.42,0,-0.63,28.2523,-66.2361,36.6024,1022.7
23438,-0.614492,9.79941,-0.327694,0.35,0,-0.7,28.1704,-64.518,35.3396,1022.7
23444,-0.642931,9.78512,-0.332446,0.42,-0.14,-0.56,27.8973,-68.0144,36.3201,1022.7
23450,-0.600273,9.80893,-0.31819,0.49,-0.07,-0.56,27.9246,-68.4063,36.8996,1022.7
23456,-0.642931,9.82798,-0.389468,0.49,0.07,-0.49,28.4708,-63.6439,36.0081,1022.66
23462,-0.590794,9.86132,-0.341949,0.42,0.14,-0.56,28.5527,-66.6279,35.4139,1022.66
23468,-0.614492,9.84227,-0.346701,0.35,0,-0.7,28.225,-68.5871,37.0333,1022.7
23474,-0.576575,9.81846,-0.337197,0.42,0.07,-0.7,28.1977,-64.7592,36.9293,1022.7
23480,-0.666629,9.82798,-0.351453,0.49,0.07,-0.56,27.3512,-66.6882,35.0573,1022.71
23486,-0.65715,9.75654,-0.337197,0.49,0.07,-0.63,27.87,-67.7733,36.4687,1022.71
23492,-0.638191,9.87561,-0.313438,0.49,0,-0.63,28.1431,-65.5428,37.167,1022.71
23498,-0.661889,9.82798,-0.313438,0.35,0,-0.63,28.6892,-64.6386,35.4287,1022.68
23504,-0.576575,9.87084,-0.337197,0.56,0.07,-0.56,28.0612,-67.7431,36.4687,1022.68
23510,-0.600273,9.81846,-0.356205,0.56,0.07,-0.56,27.6243,-67.4417,36.0081,1022.65
23516,-0.628711,9.83274,-0.360957,0.42,0.14,-0.63,27.16,-63.9152,35.9339,1022.65
23522,-0.666629,9.79464,-0.294431,0.42,-0.07,-0.7,28.3069,-67.4116,36.5727,1022.7
23528,-0.65715,9.83751,-0.370461,0.42,-0.14,-0.63,28.3615,-68.3761,36.647,1022.7
23534,-0.699807,9.83274,-0.337197,0.35,0.07,-0.63,28.58,-65.7538,35.9042,1022.7
23540,-0.64767,9.78036,-0.313438,0.42,0,-0.63,28.5254,-65.2716,36.1419,1022.69
23546,-0.623972,9.81369,-0.351453,0.49,-0.07,-0.56,28.6073,-68.0747,36.5133,1022.69
23552,-0.666629,9.83751,-0.308686,0.21,0,-0.56,27.9792,-65.0606,36.0973,1022.68
23558,-0.619232,9.82322,-0.308686,0.21,0,-0.49,28.1431,-64.1865,35.5922,1022.68
23564,-0.609753,9.82798,-0.356205,0.35,-0.07,-0.56,28.0066,-67.924,36.231,1022.71
23570,-0.65241,9.84227,-0.341949,0.49,0,-0.56,28.1431,-66.7183,37.7167,1022.71
23576,-0.676108,9.85179,-0.337197,0.42,-0.07,-0.49,28.3888,-63.8549,36.0081,1022.68
23582,-0.638191,9.87084,-0.389468,0.42,-0.14,-0.42,29.0169,-66.7786,34.5373,1022.68
23588,-0.638191,9.83751,-0.351453,0.35,-0.21,-0.49,28.5254,-68.1953,36.543,1022.68
23594,-0.65715,9.83751,-0.39422,0.35,-0.14,-0.35,27.9246,-64.4276,36.6767,1022.73
23600,-0.680848,9.83274,-0.280175,0.28,-0.07,-0.35,28.6073,-65.3318,36.6915,1022.73
23606,-0.661889,9.86132,-0.365709,0.28,-0.14,-0.35,29.3446,-68.135,37.8058,1022.69
23612,-0.709286,9.84227,-0.327694,0.35,-0.07,-0.28,28.2796,-65.573,35.5922,1022.69
23618,-0.723505,9.81846,-0.299183,0.28,-0.21,-0.21,28.0339,-64.3372,34.5373,1022.7
23624,-0.699807,9.89466,-0.384716,0.14,-0.21,-0.21,28.6346,-67.502,36.5133,1022.7
23630,-0.576575,9.79464,-0.375212,0,-0.35,-0.07,28.3069,-67.0198,37.0778,1022.69
23636,-0.619232,9.78988,-0.332446,-0.07,-0.42,-0.21,29.0169,-63.9755,35.3693,1022.69
23642,-0.661889,9.79464,-0.31819,0.28,-0.14,-0.21,28.225,-66.2059,36.0527,1022.69
23648,-0.609753,9.82798,-0.346701,0.42,-0.07,-0.28,29.0442,-68.0446,37.2264,1022.71
23654,-0.666629,9.79941,-0.341949,0.35,-0.21,-0.35,28.6073,-64.1865,36.2607,1022.71
23660,-0.623972,9.80893,-0.332446,0.35,-0.07,-0.49,28.4708,-65.5127,36.2756,1022.69
23666,-0.638191,9.86608,-0.31819,0.35,0.07,-0.42,28.7438,-68.2556,36.5727,1022.69
23672,-0.642931,9.82322,-0.379964,0.42,-0.07,-0.42,28.7711,-65.7237,36.543,1022.7
23678,-0.666629,9.86608,-0.365709,0.42,-0.14,-0.35,28.9896,-64.1563,36.5578,1022.7
23684,-0.600273,9.85656,-0.360957,0.14,-0.14,-0.28,28.7165,-67.2307,36.5727,1022.7
23690,-0.685588,9.79941,-0.360957,0.14,-0.07,-0.35,28.0612,-66.8389,35.7704,1022.69
23696,-0.642931,9.82322,-0.332446,0.21,-0.14,-0.28,28.4981,-64.4276,36.023,1022.69
23702,-0.661889,9.78988,-0.356205,0.14,-0.21,-0.35,28.7438,-65.9347,35.5773,1022.69
23708,-0.628711,9.78512,-0.365709,0.14,0,-0.28,28.3342,-67.713,36.4836,1022.69
23714,-0.586054,9.84703,-0.384716,0.14,-0.07,-0.28,28.3888,-64.518,35.7407,1022.71
23720,-0.614492,9.79941,-0.337197,0.35,-0.07,-0.35,28.3888,-65.4524,34.5819,1022.71
23726,-0.671369,9.84703,-0.332446,0.28,-0.14,-0.49,28.6346,-68.4364,36.6618,1022.72
23732,-0.695067,9.80417,-0.322942,0.35,-0.14,-0.49,28.225,-65.0606,36.1567,1022.72
23738,-0.619232,9.82798,-0.303934,0.35,-0.21,-0.42,28.6073,-64.2769,35.1465,1022.72
23744,-0.633451,9.78036,-0.313438,0.35,-0.07,-0.49,28.4162,-67.8637,35.3842,1022.71
23750,-0.661889,9.86132,-0.284927,0.49,0,-0.42,28.9896,-66.9595,36.7955,1022.71
23756,-0.628711,9.85656,-0.351453,0.49,0,-0.42,29.0169,-64.2166,35.3693,1022.69
23762,-0.65715,9.82798,-0.337197,0.28,0,-0.49,28.4708,-66.2361,35.8002,1022.69
23768,-0.633451,9.84227,-0.284927,0.35,-0.07,-0.49,28.5527,-66.9595,37.5235,1022.67
23774,-0.609753,9.83751,-0.379964,0.35,-0.14,-0.49,28.4708,-64.5482,35.2653,1022.67
23780,-0.586054,9.80893,-0.365709,0.35,-0.07,-0.56,28.1977,-65.3318,35.399,1022.67
23786,-0.65241,9.81846,-0.289679,0.49,-0.07,-0.56,28.0885,-68.5871,37.271,1022.71
23792,-0.680848,9.84703,-0.346701,0.21,-0.07,-0.56,27.87,-65.9045,35.815,1022.71
23798,-0.65241,9.83274,-0.337197,0.21,-0.14,-0.49,28.0066,-63.8549,36.127,1022.72
23804,-0.548137,9.83274,-0.327694,0.35,-0.14,-0.56,28.7984,-67.6527,36.1864,1022.72
23810,-0.633451,9.86608,-0.341949,0.28,-0.21,-0.49,28.0066,-67.5623,37.7612,1022.68
23816,-0.642931,9.84227,-0.351453,0.21,-0.28,-0.49,29.0988,-63.4329,35.2802,1022.68
23822,-0.65241,9.84703,-0.332446,0.35,-0.14,-0.56,28.5527,-65.8744,36.231,1022.71
23828,-0.666629,9.88037,-0.327694,0.42,-0.14,-0.56,28.3888,-68.5268,36.6024,1022.71
23834,-0.64767,9.82322,-0.351453,0.35,-0.14,-0.42,28.2796,-64.7893,35.1465,1022.71
23840,-0.609753,9.83751,-0.332446,0.21,-0.28,-0.42,28.4435,-64.9701,36.3201,1022.69
23846,-0.619232,9.83274,-0.289679,0.35,-0.14,-0.49,28.1977,-68.7981,36.9441,1022.69
23852,-0.623972,9.82322,-0.341949,0.42,-0.07,-0.42,28.7438,-66.3265,36.439,1022.67
23858,-0.638191,9.85656,-0.322942,0.49,0,-0.35,27.8973,-63.7343,36.4093,1022.67
23864,-0.65715,9.81369,-0.365709,0.21,-0.14,-0.42,28.5254,-67.8637,37.1372,1022.7
23870,-0.666629,9.80417,-0.379964,0.35,-0.07,-0.49,28.3888,-67.7431,38.4149,1022.7
23876,-0.666629,9.85656,-0.365709,0.42,-0.07,-0.49,28.0339,-63.6439,35.3693,1022.7
23882,-0.666629,9.84227,-0.360957,0.42,-0.14,-0.49,28.6073,-65.9045,36.6618,1022.7
23888,-0.64767,9.84703,-0.360957,0.21,-0.14,-0.56,28.6073,-67.3513,37.9247,1022.7
23894,-0.699807,9.82798,-0.413227,0.21,-0.21,-0.56,28.0885,-64.0659,37.8058,1022.69
23900,-0.676108,9.83274,-0.31819,0.21,-0.28,-0.49,28.2796,-64.8496,36.231,1022.69
23906,-0.666629,9.81846,-0.370461,0.21,-0.28,-0.49,27.6516,-69.3406,37.1967,1022.67
23912,-0.628711,9.84703,-0.365709,0.14,-0.35,-0.35,28.225,-65.8744,35.7704,1022.67
23918,-0.671369,9.81846,-0.332446,0.21,-0.42,-0.42,27.6789,-63.6741,36.1567,1022.73
23924,-0.64767,9.86132,-0.341949,0.21,-0.28,-0.35,28.0885,-67.6226,36.8104,1022.73
23930,-0.699807,9.79941,-0.299183,0.35,-0.28,-0.49,27.9792,-67.291,37.7018,1022.73
23936,-0.623972,9.83751,-0.356205,0.28,-0.21,-0.56,27.9519,-63.3425,35.7853,1022.71
23942,-0.567095,9.81369,-0.299183,0.21,-0.14,-0.49,28.1977,-65.6031,36.1419,1022.71
23948,-0.614492,9.81369,-0.332446,0.35,-0.21,-0.42,27.6243,-67.3815,36.4984,1022.72
23954,-0.623972,9.80893,-0.346701,0.35,-0.21,-0.35,27.9519,-64.4577,36.439,1022.72
23960,-0.676108,9.82322,-0.360957,0.42,-0.21,-0.42,27.8973,-64.6084,34.3442,1022.71
23966,-0.642931,9.84227,-0.346701,0.35,-0.21,-0.42,28.1977,-68.1049,36.9738,1022.71
23972,-0.623972,9.86608,-0.356205,0.35,-0.28,-0.42,28.1431,-65.3318,36.7955,1022.68
23978,-0.628711,9.82798,-0.351453,0.21,-0.42,-0.56,27.9246,-63.4329,34.8048,1022.68
23984,-0.65241,9.81846,-0.346701,0.21,-0.35,-0.42,28.1158,-67.3513,37.0035,1022.68
23990,-0.64767,9.79941,-0.346701,0.21,-0.42,-0.42,27.3239,-68.4364,35.4585,1022.68
23996,-0.638191,9.83274,-0.384716,0.21,-0.35,-0.56,28.0066,-63.5535,36.8104,1022.68
24002,-0.671369,9.83274,-0.322942,0.28,-0.28,-0.42,27.87,-65.9347,36.4538,1022.66
24008,-0.619232,9.84703,-0.375212,0.14,-0.35,-0.49,28.1977,-67.502,37.3601,1022.66
24014,-0.609753,9.77559,-0.303934,0.14,-0.21,-0.49,28.1431,-64.94,36.3944,1022.69
24020,-0.609753,9.78988,-0.313438,0.42,-0.21,-0.42,28.1704,-65.362,37.2413,1022.69
24026,-0.590794,9.80893,-0.341949,0.42,-0.07,-0.49,27.9519,-68.2556,37.5829,1022.69
24032,-0.671369,9.86608,-0.360957,0.42,-0.14,-0.42,27.7062,-65.5428,36.8847,1022.7
24038,-0.671369,9.87084,-0.417979,0.28,-0.21,-0.42,28.1431,-63.9152,36.751,1022.7
24044,-0.65715,9.80417,-0.346701,0.35,-0.21,-0.49,28.1704,-67.8939,36.6767,1022.68
24050,-0.633451,9.77559,-0.384716,0.49,-0.07,-0.49,28.1158,-67.9541,36.3647,1022.68
24056,-0.633451,9.86608,-0.365709,0.35,-0.28,-0.35,28.5527,-64.6687,35.5773,1022.67
24062,-0.623972,9.85179,-0.413227,0.28,-0.28,-0.42,28.1977,-66.1155,36.8253,1022.67
24068,-0.586054,9.79464,-0.313438,0.28,-0.28,-0.42,28.3069,-68.4364,38.1921,1022.7
24074,-0.633451,9.80893,-0.375212,0.28,-0.28,-0.42,27.5423,-65.6634,36.543,1022.7
24080,-0.65715,9.84227,-0.370461,0.21,-0.21,-0.42,27.4877,-65.4524,36.1864,1022.7
24086,-0.638191,9.82322,-0.246912,0.21,-0.28,-0.42,28.4435,-68.4364,36.8401,1022.69
24092,-0.619232,9.83274,-0.370461,0.14,-0.35,-0.49,27.8154,-66.2059,37.7761,1022.69
24098,-0.699807,9.83751,-0.356205,0.14,-0.35,-0.49,27.8154,-64.7893,36.3944,1022.69
24104,-0.65715,9.83751,-0.346701,0.21,-0.21,-0.49,28.6346,-68.346,36.4093,1022.69
24110,-0.690327,9.81846,-0.337197,0.07,-0.28,-0.49,28.1158,-66.6882,38.4446,1022.73
24116,-0.638191,9.84227,-0.379964,0.14,-0.35,-0.42,28.6073,-63.4028,35.503,1022.73
24122,-0.576575,9.87084,-0.389468,0.21,-0.28,-0.49,28.6073,-66.0854,36.3647,1022.73
24128,-0.704547,9.85179,-0.327694,0.28,-0.21,-0.49,27.7062,-67.5322,38.3555,1022.69
24134,-0.605013,9.81369,-0.31819,0.28,-0.14,-0.42,27.7608,-64.729,36.2013,1022.69
24140,-0.567095,9.80893,-0.356205,0.21,-0.28,-0.42,28.6073,-64.8496,37.0035,1022.72
24146,-0.695067,9.78036,-0.337197,0.21,-0.28,-0.49,28.2523,-68.2254,36.959,1022.72
24152,-0.638191,9.78036,-0.322942,0.21,-0.28,-0.35,27.8973,-65.2414,37.0333,1022.69
24158,-0.666629,9.83274,-0.337197,0.21,-0.42,-0.49,28.0339,-64.2467,35.7853,1022.69
24164,-0.633451,9.78988,-0.303934,0.21,-0.21,-0.49,28.3888,-67.8637,36.5876,1022.71
24170,-0.638191,9.84227,-0.356205,0.21,-0.21,-0.56,28.6892,-68.1049,38.1029,1022.71
24176,-0.65241,9.78988,-0.417979,0.28,-0.14,-0.49,28.6346,-63.8248,35.6813,1022.71
24182,-0.633451,9.82798,-0.31819,0.28,-0.21,-0.49,28.4162,-66.5074,36.6915,1022.7
24188,-0.590794,9.85656,-0.31819,0.28,-0.14,-0.56,27.6516,-68.4967,36.6173,1022.7
24194,-0.614492,9.84703,-0.303934,0.35,-0.07,-0.49,28.4435,-64.096,36.3944,1022.7
24200,-0.64767,9.84227,-0.360957,0.28,-0.07,-0.49,28.3342,-65.3318,36.0527,1022.7
24206,-0.581314,9.77559,-0.313438,0.42,-0.14,-0.49,28.2796,-68.4063,37.4492,1022.71
24212,-0.695067,9.84703,-0.341949,0.42,-0.07,-0.42,28.6073,-65.0304,37.4492,1022.71
24218,-0.661889,9.87561,-0.370461,0.35,-0.07,-0.63,28.58,-63.6138,35.9784,1022.69
24224,-0.623972,9.80417,-0.365709,0.35,-0.14,-0.56,27.6516,-67.4417,37.4344,1022.69
24230,-0.628711,9.87084,-0.384716,0.42,-0.07,-0.49,28.3615,-67.2609,37.3601,1022.69
24236,-0.714026,9.81846,-0.341949,0.21,-0.14,-0.35,28.1158,-64.1865,36.2607,1022.7
24242,-0.64767,9.83274,-0.303934,0.14,-0.14,-0.42,28.4435,-66.7786,35.8596,1022.7
24248,-0.633451,9.80893,-0.365709,0.07,-0.14,-0.42,28.4708,-68.0446,36.8847,1022.68
24254,-0.642931,9.81846,-0.370461,0.07,-0.14,-0.42,28.1704,-64.729,35.7259,1022.68
24260,-0.614492,9.89466,-0.303934,0.14,-0.21,-0.42,28.2523,-64.9099,36.6173,1022.72
24266,-0.600273,9.78512,-0.341949,0.14,-0.21,-0.49,28.3069,-68.2556,36.543,1022.72
24272,-0.633451,9.83751,-0.398972,0.42,-0.07,-0.35,28.9623,-65.6333,35.9933,1022.72
24278,-0.65715,9.81846,-0.379964,0.42,-0.07,-0.49,28.6073,-64.4276,35.8447,1022.71
24284,-0.609753,9.82322,-0.360957,0.35,-0.07,-0.49,29.1261,-67.3513,37.1818,1022.71
24290,-0.666629,9.83274,-0.346701,0.42,-0.14,-0.49,27.6516,-67.3513,36.9887,1022.7
24296,-0.642931,9.79941,-0.370461,0.42,-0.07,-0.49,28.1431,-63.7946,36.2607,1022.7
24302,-0.671369,9.8899,-0.370461,0.42,-0.07,-0.42,28.4708,-66.4471,35.5773,1022.68
24308,-0.642931,9.81369,-0.346701,0.21,-0.07,-0.42,28.2523,-68.4967,36.3944,1022.68
24314,-0.633451,9.84227,-0.31819,0.14,-0.21,-0.35,28.3342,-65.0304,36.4687,1022.71
24320,-0.623972,9.77083,-0.294431,0.21,-0.28,-0.42,28.3342,-65.3017,36.3053,1022.71
24326,-0.709286,9.87561,-0.332446,0.35,-0.07,-0.35,28.58,-68.4364,37.5235,1022.71
24332,-0.690327,9.91371,-0.365709,0.21,-0.14,-0.35,27.6243,-65.8744,36.9887,1022.71
24338,-0.628711,9.83274,-0.332446,0.14,-0.28,-0.35,28.2796,-63.8248,36.3796,1022.71
24344,-0.628711,9.78988,-0.294431,0.07,-0.14,-0.35,28.3615,-67.2307,36.5727,1022.71
24350,-0.628711,9.82322,-0.346701,0.28,-0.07,-0.35,28.7165,-66.2964,37.2413,1022.71
24356,-0.661889,9.89466,-0.327694,0.28,-0.14,-0.28,27.8973,-64.0659,35.8596,1022.68
24362,-0.64767,9.89942,-0.280175,0.14,-0.28,-0.28,28.3615,-66.2059,36.8996,1022.68
24368,-0.638191,9.81369,-0.280175,0.14,-0.35,-0.42,28.0612,-68.4665,37.1967,1022.68
24374,-0.609753,9.80417,-0.356205,0.21,-0.35,-0.42,27.9792,-64.7893,36.4241,1022.67
24380,-0.676108,9.85656,-0.375212,0.35,-0.07,-0.42,28.1977,-65.0304,34.9533,1022.67
24386,-0.671369,9.83274,-0.375212,0.42,-0.07,-0.42,28.3615,-67.5623,37.2561,1022.68
24392,-0.619232,9.84703,-0.356205,0.28,-0.14,-0.42,28.5527,-65.4223,35.0722,1022.68
24398,-0.642931,9.76607,-0.356205,0.28,-0.14,-0.42,27.515,-64.0358,34.9088,1022.7
24404,-0.65241,9.87561,-0.313438,0.21,-0.21,-0.42,28.4435,-67.5924,37.4344,1022.7
24410,-0.633451,9.83751,-0.322942,0.14,-0.14,-0.49,28.1431,-66.7485,36.8401,1022.71
24416,-0.638191,9.8899,-0.365709,0.07,-0.14,-0.56,28.8258,-64.3975,35.2207,1022.71
24422,-0.633451,9.83751,-0.346701,0.21,-0.07,-0.42,28.4708,-66.4169,35.6367,1022.71
24428,-0.619232,9.80893,-0.337197,0.28,-0.14,-0.42,28.3615,-67.3212,37.8949,1022.71
24434,-0.614492,9.83274,-0.299183,0.35,-0.14,-0.49,28.0066,-65.0606,37.0184,1022.71
24440,-0.661889,9.75654,-0.337197,0.28,-0.07,-0.42,28.0612,-64.8496,34.9533,1022.7
24446,-0.595534,9.84227,-0.308686,0.28,-0.07,-0.35,28.7165,-68.0747,36.8996,1022.7
24452,-0.685588,9.86608,-0.322942,0.35,-0.07,-0.49,28.8804,-66.1758,36.3201,1022.7
24458,-0.633451,9.88037,-0.356205,0.42,-0.14,-0.42,27.0781,-65.0304,36.0676,1022.7
24464,-0.605013,9.85179,-0.332446,0.42,-0.07,-0.49,28.3069,-67.7431,35.8596,1022.7
24470,-0.65241,9.82322,-0.341949,0.49,0,-0.49,28.0339,-67.924,36.959,1022.69
24476,-0.65241,9.83274,-0.332446,0.42,-0.07,-0.42,28.1977,-64.2467,35.8744,1022.69
24482,-0.65715,9.82798,-0.346701,0.35,-0.14,-0.42,28.1977,-66.6581,34.775,1022.69
24488,-0.661889,9.83751,-0.332446,0.14,-0.14,-0.56,27.8427,-68.6474,37.7464,1022.69
24494,-0.642931,9.84703,-0.327694,0.21,-0.21,-0.49,28.3069,-65.0003,36.0527,1022.69
24500,-0.676108,9.81846,-0.360957,0.07,-0.35,-0.49,27.7608,-65.3017,36.6173,1022.69
24506,-0.676108,9.82798,-0.379964,0,-0.28,-0.49,28.4708,-68.8584,37.8058,1022.66
24512,-0.605013,9.83274,-0.346701,0.35,-0.21,-0.49,27.9519,-66.5375,38.3704,1022.66
24518,-0.638191,9.85179,-0.351453,0.35,-0.14,-0.56,28.1977,-64.7893,36.1716,1022.66
24524,-0.633451,9.88513,-0.351453,0.42,-0.07,-0.56,28.1158,-67.4116,37.2413,1022.69
24530,-0.595534,9.81846,-0.299183,0.42,0.07,-0.56,27.5696,-67.6226,37.3601,1022.69
24536,-0.638191,9.82322,-0.289679,0.63,0.07,-0.49,28.1431,-64.1563,35.919,1022.74
24542,-0.633451,9.80893,-0.360957,0.63,0.14,-0.56,28.6892,-65.8744,35.711,1022.74
24548,-0.695067,9.82798,-0.284927,0.56,0.07,-0.56,27.8154,-68.2556,37.0333,1022.69
24554,-0.680848,9.84703,-0.341949,0.49,-0.07,-0.56,28.58,-64.6084,35.8744,1022.69
24560,-0.633451,9.79464,-0.341949,0.21,-0.07,-0.56,27.9246,-64.9099,36.2904,1022.68
24566,-0.666629,9.81369,-0.313438,0.35,-0.14,-0.56,28.1158,-69.2201,37.375,1022.68
24572,-0.666629,9.82798,-0.356205,0.21,-0.14,-0.63,28.1158,-66.1758,36.8401,1022.68
24578,-0.695067,9.83751,-0.332446,0.28,-0.07,-0.63,27.9519,-63.3727,35.4733,1022.66
24584,-0.695067,9.81846,-0.360957,0.35,-0.07,-0.49,28.3342,-66.8088,36.7361,1022.66
24590,-0.619232,9.80893,-0.308686,0.14,-0.14,-0.49,28.3888,-66.6581,38.2366,1022.67
24596,-0.595534,9.80893,-0.308686,0.35,-0.07,-0.42,28.1704,-63.8248,36.1864,1022.67
24602,-0.666629,9.83751,-0.346701,0.56,0,-0.49,29.0169,-65.0606,36.5876,1022.68
24608,-0.642931,9.85179,-0.351453,0.56,0,-0.56,28.6346,-68.3158,37.8058,1022.68
24614,-0.642931,9.84227,-0.356205,0.56,0,-0.56,28.4435,-64.1262,35.3247,1022.68
24620,-0.64767,9.84227,-0.322942,0.42,0,-0.56,28.5254,-64.8797,35.9933,1022.68
24626,-0.661889,9.83274,-0.337197,0.49,0.07,-0.56,28.1158,-67.713,36.2607,1022.68
24632,-0.728245,9.83751,-0.327694,0.42,-0.14,-0.63,28.0066,-66.2964,36.3647,1022.67
24638,-0.642931,9.80417,-0.365709,0.21,-0.42,-0.63,27.87,-64.307,34.9979,1022.67
24644,-0.64767,9.80417,-0.322942,0.28,-0.07,-0.56,27.8427,-67.8034,36.335,1022.7
24650,-0.671369,9.83751,-0.313438,0.28,-0.07,-0.56,27.3239,-67.713,37.5681,1022.7
24656,-0.619232,9.83751,-0.365709,0.28,-0.14,-0.49,28.225,-64.6687,36.023,1022.68
24662,-0.642931,9.81846,-0.365709,0.21,-0.14,-0.56,28.9077,-66.5375,35.8299,1022.68
24668,-0.680848,9.88037,-0.351453,0.35,-0.07,-0.49,28.8804,-68.1953,37.0927,1022.68
24674,-0.623972,9.79941,-0.308686,0.49,-0.07,-0.56,28.58,-64.9701,35.8002,1022.68
24680,-0.65715,9.80893,-0.308686,0.49,0,-0.49,28.6346,-64.6989,36.2161,1022.68
24686,-0.676108,9.80893,-0.31819,0.35,-0.07,-0.49,28.935,-69.0091,36.231,1022.72
24692,-0.661889,9.87561,-0.341949,0.49,-0.21,-0.56,28.4435,-67.3212,37.2264,1022.72
24698,-0.65241,9.81846,-0.398972,0.49,0,-0.56,28.6073,-64.0659,35.0127,1022.68
24704,-0.695067,9.85179,-0.341949,0.35,-0.07,-0.49,28.7711,-67.8637,36.3647,1022.68
24710,-0.680848,9.80893,-0.332446,0.35,-0.14,-0.49,28.1158,-68.0446,36.2904,1022.68
24716,-0.581314,9.85656,-0.356205,0.35,-0.14,-0.56,28.2523,-64.1865,35.7556,1022.69
24722,-0.605013,9.85179,-0.341949,0.28,-0.14,-0.49,27.5423,-65.6031,35.5179,1022.69
24728,-0.638191,9.80417,-0.337197,0.28,-0.14,-0.56,28.2796,-68.0144,37.3601,1022.66
24734,-0.590794,9.85179,-0.337197,0.28,-0.14,-0.63,28.2796,-64.2467,36.3647,1022.66
24740,-0.666629,9.87084,-0.313438,0.49,0.07,-0.56,28.2523,-65.3921,35.5327,1022.68
24746,-0.628711,9.85656,-0.313438,0.35,-0.14,-0.56,29.4811,-68.768,36.5727,1022.68
24752,-0.671369,9.81846,-0.337197,0.07,-0.14,-0.56,28.3069,-66.1155,37.1818,1022.69
24758,-0.661889,9.82322,-0.299183,0.28,-0.07,-0.49,28.4708,-63.7946,36.231,1022.69
24764,-0.65715,9.84703,-0.356205,0.35,-0.14,-0.56,28.8804,-66.7786,36.9144,1022.69
24770,-0.633451,9.83751,-0.308686,0.28,-0.14,-0.49,27.9246,-66.7485,37.7315,1022.69
24776,-0.642931,9.85179,-0.327694,0.42,-0.07,-0.35,28.4708,-64.2166,36.6024,1022.69
24782,-0.690327,9.83751,-0.337197,0.35,-0.28,-0.42,28.7165,-65.6031,35.711,1022.68
24788,-0.623972,9.83274,-0.370461,0.28,-0.21,-0.42,28.0066,-68.0446,37.4344,1022.68
24794,-0.680848,9.86608,-0.337197,0.28,-0.07,-0.49,27.9792,-65.0606,36.1121,1022.69
24800,-0.614492,9.78988,-0.341949,0.35,-0.21,-0.42,28.2523,-65.0304,36.335,1022.69
24806,-0.671369,9.81369,-0.337197,0.49,0,-0.42,28.6346,-67.924,37.5087,1022.69
24812,-0.65715,9.82798,-0.322942,0.42,-0.07,-0.42,28.3069,-66.4772,36.9144,1022.68
24818,-0.633451,9.80417,-0.327694,0.28,-0.14,-0.42,27.9246,-63.4631,35.8596,1022.68
24824,-0.614492,9.80893,-0.313438,0.28,-0.07,-0.49,28.0339,-67.8034,36.0973,1022.69
24830,-0.666629,9.79941,-0.356205,0.35,-0.07,-0.42,28.3615,-68.0144,37.1521,1022.69
24836,-0.605013,9.88037,-0.365709,0.49,-0.21,-0.49,28.4435,-64.6386,35.1019,1022.71
24842,-0.65241,9.81846,-0.341949,0.49,-0.14,-0.35,29.0442,-66.2662,36.4538,1022.71
24848,-0.680848,9.84703,-0.313438,0.49,-0.14,-0.42,28.3615,-68.7981,37.9395,1022.69
24854,-0.64767,9.79464,-0.327694,0.42,-0.14,-0.56,28.1431,-65.2716,36.959,1022.69
24860,-0.680848,9.86608,-0.360957,0.28,-0.07,-0.42,28.7711,-64.8496,36.3647,1022.69
24866,-0.642931,9.84227,-0.346701,0.21,-0.14,-0.49,28.3888,-68.4364,36.8847,1022.68
24872,-0.64767,9.82322,-0.337197,0.21,-0.14,-0.42,28.2796,-66.0251,36.959,1022.68
24878,-0.695067,9.86608,-0.379964,0.21,-0.21,-0.42,28.1431,-64.1563,35.9339,1022.7
24884,-0.633451,9.87084,-0.303934,0.14,-0.21,-0.35,29.3992,-67.6226,36.5281,1022.7
24890,-0.65715,9.80417,-0.370461,0.21,-0.28,-0.28,28.1977,-68.4665,37.2115,1022.69
24896,-0.671369,9.84227,-0.308686,0.07,-0.35,-0.42,27.9792,-64.6989,36.3498,1022.69
24902,-0.65715,9.81369,-0.337197,0,-0.28,-0.42,28.0612,-66.0251,36.7955,1022.69
24908,-0.676108,9.83751,-0.375212,0,-0.21,-0.35,28.6073,-68.4063,36.4984,1022.69
24914,-0.685588,9.77083,-0.313438,0.21,-0.14,-0.28,28.0612,-65.1208,37.0184,1022.69
24920,-0.628711,9.86608,-0.322942,0.35,-0.07,-0.35,28.1977,-64.2769,36.3053,1022.72
24926,-0.642931,9.84703,-0.356205,0.21,-0.14,-0.35,28.4981,-68.0144,36.3944,1022.72
24932,-0.614492,9.83274,-0.403724,0.28,-0.14,-0.42,28.4162,-66.3265,36.543,1022.75
24938,-0.671369,9.85656,-0.370461,0.28,-0.35,-0.42,28.7165,-63.4028,35.087,1022.75
24944,-0.65241,9.86608,-0.379964,0.28,-0.14,-0.35,28.5254,-67.3513,36.6173,1022.68
24950,-0.671369,9.81369,-0.337197,0.28,-0.07,-0.35,27.9246,-67.6829,36.7064,1022.68
24956,-0.661889,9.83274,-0.384716,0.21,-0.14,-0.35,28.3888,-64.0358,36.6321,1022.68
24962,-0.64767,9.83751,-0.351453,0.21,-0.21,-0.42,28.2523,-66.0854,36.1419,1022.7
24968,-0.64767,9.81369,-0.332446,0.07,-0.14,-0.49,28.2796,-68.4364,37.271,1022.7
24974,-0.64767,9.79464,-0.356205,0.21,-0.21,-0.42,28.3615,-65.4524,36.439,1022.7
24980,-0.65241,9.88037,-0.360957,0.14,-0.28,-0.42,28.6619,-64.9099,37.4195,1022.7
24986,-0.680848,9.80893,-0.332446,0.07,-0.14,-0.35,27.8427,-68.1953,38.4001,1022.69
24992,-0.609753,9.83274,-0.360957,0.21,-0.28,-0.42,28.1431,-66.2059,37.3304,1022.69
24998,-0.671369,9.86608,-0.370461,0.21,-0.21,-0.49,28.935,-64.4577,35.1316,1022.71
25004,-0.685588,9.84227,-0.337197,0.07,-0.28,-0.35,28.4435,-67.7431,37.3007,1022.71
25010,-0.65241,9.81369,-0.294431,0.14,-0.28,-0.28,28.4981,-67.1403,37.4344,1022.71
25016,-0.633451,9.81846,-0.337197,0.21,-0.21,-0.28,28.4162,-64.5482,36.5281,1022.7
25022,-0.633451,9.79941,-0.375212,0.21,-0.28,-0.35,28.8804,-67.0198,36.5727,1022.7
25028,-0.65715,9.83274,-0.289679,0.14,-0.21,-0.42,28.3069,-68.6474,38.5189,1022.67
25034,-0.609753,9.78988,-0.294431,0.28,-0.21,-0.35,28.3888,-65.6031,36.6767,1022.67
25040,-0.690327,9.86608,-0.337197,0.28,-0.14,-0.35,28.5527,-64.096,36.0081,1022.7
25046,-0.728245,9.83274,-0.31819,0.28,-0.14,-0.42,28.3342,-68.7378,37.687,1022.7
25052,-0.590794,9.86608,-0.337197,0.28,-0.21,-0.42,28.0066,-66.4471,36.8104,1022.7
25058,-0.65241,9.83751,-0.31819,0.28,-0.21,-0.42,28.0339,-64.096,37.1521,1022.65
25064,-0.680848,9.85656,-0.327694,0.35,-0.21,-0.35,28.6892,-67.2307,37.4344,1022.65
25070,-0.676108,9.79941,-0.322942,0.28,-0.28,-0.42,28.3888,-67.8637,37.6721,1022.68
25076,-0.671369,9.84227,-0.332446,0.28,-0.28,-0.42,27.5423,-63.5234,35.5179,1022.68
25082,-0.714026,9.81369,-0.341949,0.35,-0.21,-0.35,28.2796,-65.1208,34.8642,1022.7
25088,-0.64767,9.85656,-0.346701,0.28,-0.14,-0.28,28.0339,-68.0144,36.9887,1022.7
25094,-0.661889,9.80893,-0.308686,0.14,-0.14,-0.35,27.7881,-64.9701,36.1716,1022.72
25100,-0.633451,9.81369,-0.332446,0.42,-0.28,-0.35,29.0715,-64.6084,35.6664,1022.72
25106,-0.685588,9.85656,-0.341949,0.35,-0.21,-0.28,28.8258,-68.6775,35.8744,1022.72
25112,-0.590794,9.79464,-0.31819,0.21,-0.21,-0.28,28.3342,-66.8389,36.023,1022.7
25118,-0.671369,9.83751,-0.327694,0.14,-0.21,-0.35,28.1431,-64.2769,34.9979,1022.7
25124,-0.633451,9.81846,-0.346701,0.07,-0.28,-0.42,28.3615,-67.6226,35.8002,1022.7
25130,-0.64767,9.82322,-0.39422,0.14,-0.28,-0.35,28.7984,-68.1049,35.3842,1022.7
25136,-0.633451,9.78988,-0.275423,0.14,-0.28,-0.49,28.2796,-63.7946,34.9682,1022.67
25142,-0.666629,9.81846,-0.299183,0.21,-0.21,-0.49,29.5903,-65.6634,37.5087,1022.67
25148,-0.676108,9.85179,-0.360957,0.28,-0.21,-0.42,28.6619,-67.8939,36.0081,1022.67
25154,-0.605013,9.85656,-0.322942,0.35,-0.21,-0.35,28.4435,-65.151,35.7704,1022.67
25160,-0.633451,9.81369,-0.299183,0.35,-0.21,-0.49,28.4435,-65.0606,35.8893,1022.67
25166,-0.590794,9.81846,-0.346701,0.35,-0.21,-0.49,28.1704,-67.3815,37.2858,1022.65
25172,-0.676108,9.81846,-0.313438,0.42,-0.14,-0.49,28.4162,-66.6581,36.335,1022.65
25178,-0.609753,9.84703,-0.337197,0.35,-0.07,-0.35,28.4981,-63.4932,35.087,1022.69
25184,-0.623972,9.80893,-0.384716,0.35,-0.14,-0.35,29.0442,-66.3868,35.4882,1022.69
25190,-0.65241,9.85656,-0.337197,0.35,-0.21,-0.42,28.4708,-67.3212,36.9441,1022.67
25196,-0.695067,9.79464,-0.299183,0.28,-0.14,-0.49,29.1534,-64.5783,35.3396,1022.67
25202,-0.614492,9.82798,-0.332446,0.28,-0.14,-0.35,28.58,-66.5978,36.8401,1022.67
25208,-0.642931,9.80417,-0.365709,0.21,-0.14,-0.49,28.8258,-68.3158,36.6321,1022.68
25214,-0.623972,9.79941,-0.31819,0.14,-0.14,-0.42,29.1807,-65.2716,35.711,1022.68
25220,-0.666629,9.81369,-0.294431,0.14,-0.14,-0.42,27.4877,-65.3318,35.5624,1022.69
25226,-0.623972,9.85656,-0.322942,0.35,-0.28,-0.42,28.1977,-67.9843,37.1967,1022.69
25232,-0.638191,9.81846,-0.294431,0.28,-0.07,-0.49,28.0066,-66.0854,37.0333,1022.66
25238,-0.633451,9.80893,-0.351453,0.21,-0.07,-0.49,27.8427,-63.4631,35.3842,1022.66
25244,-0.65241,9.85656,-0.322942,0.35,-0.21,-0.49,28.8258,-66.2662,36.5281,1022.68
25250,-0.614492,9.83274,-0.308686,0.28,-0.21,-0.56,29.3719,-67.5623,37.4195,1022.68
25256,-0.600273,9.80893,-0.327694,0.35,-0.07,-0.42,28.1158,-64.0358,36.3053,1022.68
25262,-0.65715,9.81846,-0.346701,0.28,-0.07,-0.56,28.225,-65.4524,36.231,1022.68
25268,-0.690327,9.84227,-0.341949,0.28,-0.14,-0.49,28.1704,-67.8939,36.9293,1022.68
25274,-0.65715,9.78988,-0.332446,0.28,-0.14,-0.49,28.8258,-64.7893,35.9487,1022.7
25280,-0.64767,9.84227,-0.360957,0.21,-0.07,-0.42,28.1977,-65.4524,35.607,1022.7
25286,-0.709286,9.82322,-0.313438,0.21,-0.14,-0.49,28.3615,-67.924,37.1521,1022.7
25292,-0.609753,9.82798,-0.31819,0.28,-0.14,-0.42,28.58,-66.5375,36.8847,1022.7
25298,-0.65241,9.83274,-0.408476,0.21,-0.14,-0.35,28.6892,-64.0056,35.6219,1022.7
25304,-0.65241,9.84227,-0.327694,0.14,-0.21,-0.35,27.7881,-65.6333,36.6767,1022.69
25310,-0.576575,9.81846,-0.313438,0.21,-0.21,-0.49,28.1977,-67.7733,37.3007,1022.69
25316,-0.614492,9.8899,-0.351453,0.35,-0.21,-0.42,28.0612,-63.8549,36.9293,1022.65
25322,-0.623972,9.81846,-0.346701,0.35,-0.21,-0.35,28.0885,-65.573,35.9784,1022.65
25328,-0.623972,9.85179,-0.313438,0.42,-0.14,-0.35,28.2523,-68.5871,36.9738,1022.68
25334,-0.676108,9.84227,-0.337197,0.35,-0.14,-0.49,28.0612,-64.729,36.2607,1022.68
25340,-0.605013,9.81369,-0.356205,0.14,-0.21,-0.49,28.0066,-64.2166,35.6813,1022.7
25346,-0.642931,9.83274,-0.337197,0.14,-0.21,-0.42,27.242,-67.713,37.167,1022.7
25352,-0.690327,9.82322,-0.337197,0.14,-0.28,-0.42,27.8973,-66.0552,36.4093,1022.7
25358,-0.590794,9.87084,-0.370461,0.14,-0.28,-0.42,28.0612,-63.5234,36.1716,1022.67
25364,-0.600273,9.82322,-0.299183,0.14,-0.21,-0.35,28.7438,-66.7485,34.8196,1022.67
25370,-0.628711,9.85656,-0.303934,0.07,-0.21,-0.49,28.225,-67.5924,36.2756,1022.71
25376,-0.642931,9.79941,-0.351453,0.14,-0.21,-0.35,28.2796,-63.2822,35.5624,1022.71
25382,-0.65241,9.80417,-0.346701,0.21,-0.21,-0.42,28.4981,-65.8744,36.1864,1022.69
25388,-0.623972,9.76131,-0.322942,0.28,-0.21,-0.42,28.3888,-68.8584,35.5476,1022.69
25394,-0.690327,9.82798,-0.341949,0.42,-0.14,-0.42,27.4058,-64.8496,36.4241,1022.69
25400,-0.699807,9.82798,-0.375212,0.42,-0.14,-0.35,27.87,-63.8549,36.2756,1022.69
25406,-0.623972,9.81846,-0.280175,0.35,-0.21,-0.35,28.2796,-67.2006,36.6024,1022.69
25412,-0.609753,9.82798,-0.337197,0.21,-0.28,-0.35,28.1704,-66.9896,37.271,1022.68
25418,-0.661889,9.79941,-0.384716,0.42,-0.07,-0.42,27.9246,-63.6741,35.6516,1022.68
25424,-0.695067,9.83274,-0.365709,0.49,-0.07,-0.49,28.3069,-67.6226,36.0676,1022.7
25430,-0.671369,9.88513,-0.370461,0.28,-0.14,-0.42,28.1977,-67.5322,36.4241,1022.7
25436,-0.628711,9.80417,-0.313438,0.28,-0.21,-0.42,27.87,-64.3975,36.8104,1022.66
25442,-0.65241,9.78988,-0.341949,0.21,-0.21,-0.42,28.3888,-65.9045,35.6664,1022.66
25448,-0.65241,9.82798,-0.327694,0.21,-0.14,-0.49,28.0612,-67.9843,36.9293,1022.66
25454,-0.65241,9.81846,-0.346701,0.28,-0.14,-0.56,28.7165,-64.6989,35.815,1022.67
25460,-0.600273,9.88037,-0.332446,0.35,-0.21,-0.56,28.9623,-64.6989,35.5179,1022.67
25466,-0.638191,9.78036,-0.341949,0.21,-0.07,-0.49,28.4162,-67.8637,37.7909,1022.69
25472,-0.642931,9.85179,-0.360957,0.49,-0.07,-0.49,29.3446,-66.1457,36.7955,1022.69
25478,-0.714026,9.84227,-0.375212,0.49,-0.07,-0.56,28.9896,-63.1315,34.5968,1022.7
25484,-0.723505,9.80893,-0.337197,0.42,-0.21,-0.49,28.7438,-65.9347,36.4241,1022.7
25490,-0.623972,9.85179,-0.346701,0.42,-0.21,-0.35,28.8258,-67.924,36.6915,1022.7
25496,-0.628711,9.80417,-0.313438,0.35,-0.21,-0.35,27.9792,-64.2769,36.127,1022.66
25502,-0.661889,9.82798,-0.327694,0.35,-0.07,-0.35,28.8258,-65.2716,35.1762,1022.66
25508,-0.623972,9.78988,-0.322942,0.35,-0.07,-0.42,27.8973,-67.7431,37.271,1022.69
25514,-0.638191,9.86608,-0.341949,0.35,-0.14,-0.42,28.4708,-64.4276,35.9487,1022.69
25520,-0.605013,9.81846,-0.384716,0.35,-0.07,-0.49,28.7711,-64.2467,34.7453,1022.68
25526,-0.633451,9.78988,-0.346701,0.35,-0.14,-0.49,28.4708,-68.7981,35.6219,1022.68
25532,-0.614492,9.87084,-0.360957,0.35,-0.21,-0.49,27.9246,-66.4471,36.4241,1022.69
25538,-0.709286,9.85179,-0.270671,0.35,0,-0.42,28.3888,-63.8248,35.3099,1022.69
25544,-0.638191,9.84227,-0.356205,0.42,0,-0.56,28.6073,-66.1155,35.9636,1022.69
25550,-0.666629,9.82322,-0.365709,0.42,-0.14,-0.63,28.225,-66.8992,37.0184,1022.67
25556,-0.576575,9.82322,-0.346701,0.42,-0.21,-0.56,28.7984,-63.4028,36.0527,1022.67
25562,-0.642931,9.86132,-0.351453,0.35,-0.21,-0.49,28.6346,-64.0358,35.3545,1022.67
25568,-0.65715,9.82798,-0.332446,0.56,-0.14,-0.49,28.6619,-68.1651,36.3647,1022.67
25574,-0.685588,9.84703,-0.322942,0.56,-0.14,-0.56,27.6516,-65.2414,36.0824,1022.67
25580,-0.633451,9.88037,-0.322942,0.35,-0.14,-0.56,27.9792,-64.3673,35.0722,1022.67
25586,-0.642931,9.84227,-0.31819,0.28,-0.14,-0.49,28.6073,-67.3212,36.0081,1022.69
25592,-0.671369,9.82322,-0.284927,0.35,-0.21,-0.56,27.8973,-66.3265,36.8996,1022.69
25598,-0.642931,9.83274,-0.360957,0.35,-0.14,-0.49,28.6892,-63.9453,34.6413,1022.69
25604,-0.671369,9.90418,-0.360957,0.21,-0.14,-0.56,27.8154,-66.0552,35.8596,1022.7
25610,-0.695067,9.85656,-0.332446,0.07,-0.35,-0.49,28.0339,-67.3212,36.6173,1022.7
25616,-0.690327,9.80417,-0.313438,0.21,-0.35,-0.49,28.3888,-63.7946,35.7407,1022.69
25622,-0.65241,9.80417,-0.384716,0.28,-0.21,-0.49,28.1704,-65.5127,35.8893,1022.69
25628,-0.676108,9.83751,-0.346701,0.28,-0.21,-0.56,27.7608,-68.1651,37.8355,1022.7
25634,-0.633451,9.79941,-0.351453,0.35,-0.14,-0.63,28.225,-65.2113,36.2607,1022.7
25640,-0.666629,9.86608,-0.341949,0.35,-0.14,-0.63,28.2796,-63.9453,35.9636,1022.7
25646,-0.65715,9.83751,-0.341949,0.35,-0.07,-0.63,28.58,-67.2006,37.1224,1022.68
25652,-0.661889,9.80417,-0.337197,0.42,0,-0.63,27.8154,-66.1155,36.2756,1022.68
25658,-0.628711,9.81846,-0.31819,0.42,-0.07,-0.63,28.4708,-64.0358,36.4093,1022.67
25664,-0.65241,9.82798,-0.322942,0.28,-0.14,-0.7,28.4981,-67.08,36.1567,1022.67
25670,-0.628711,9.82322,-0.337197,0.35,-0.07,-0.63,27.8154,-67.7733,37.4047,1022.7
25676,-0.661889,9.82322,-0.351453,0.42,0,-0.7,28.58,-64.0056,35.8893,1022.7
25682,-0.619232,9.78988,-0.370461,0.42,0,-0.63,28.3615,-64.8797,36.4687,1022.67
25688,-0.666629,9.83751,-0.365709,0.07,0,-0.63,28.3342,-67.4417,36.5281,1022.67
25694,-0.642931,9.86132,-0.356205,0.28,-0.07,-0.56,28.0885,-64.518,35.9487,1022.67
25700,-0.595534,9.83751,-0.384716,0.28,-0.07,-0.56,27.8427,-63.7645,34.879,1022.69
25706,-0.642931,9.86132,-0.389468,0.28,-0.21,-0.56,28.0339,-67.5623,36.4984,1022.69
25712,-0.633451,9.80417,-0.322942,0.28,-0.21,-0.42,27.7881,-66.8389,37.0035,1022.67
25718,-0.680848,9.84227,-0.332446,0.35,-0.21,-0.49,27.7608,-63.5234,34.775,1022.67
25724,-0.642931,9.78036,-0.337197,0.28,-0.21,-0.49,28.1704,-66.5978,36.2607,1022.69
25730,-0.642931,9.79941,-0.322942,0.28,-0.14,-0.56,27.8427,-66.5978,36.0676,1022.69
25736,-0.642931,9.80893,-0.327694,0.35,-0.14,-0.63,28.5527,-63.3425,34.9236,1022.69
25742,-0.64767,9.80417,-0.337197,0.28,-0.07,-0.56,28.7438,-64.7592,34.8345,1022.67
25748,-0.623972,9.84703,-0.356205,0.35,-0.14,-0.63,28.5254,-67.5924,36.0527,1022.67
25754,-0.628711,9.80893,-0.346701,0.28,-0.07,-0.63,27.7062,-64.9701,36.2904,1022.68
25760,-0.676108,9.83274,-0.337197,0.21,-0.07,-0.7,27.9246,-63.7946,35.7704,1022.68
25766,-0.623972,9.84703,-0.322942,0.14,-0.14,-0.56,28.3342,-67.3815,36.2459,1022.67
25772,-0.671369,9.84703,-0.356205,0.28,-0.07,-0.56,28.0612,-65.784,36.959,1022.67
25778,-0.65241,9.85179,-0.313438,0.35,0,-0.56,28.3615,-62.6794,35.8447,1022.71
25784,-0.65715,9.82798,-0.327694,0.42,-0.07,-0.56,28.6073,-66.3868,35.2653,1022.71
25790,-0.600273,9.81846,-0.370461,0.49,-0.28,-0.56,27.6243,-66.5375,37.1224,1022.71
25796,-0.695067,9.84227,-0.356205,0.35,-0.14,-0.49,27.9792,-63.6439,36.6618,1022.68
25802,-0.633451,9.85656,-0.308686,0.42,-0.14,-0.42,28.935,-65.0304,34.9682,1022.68
25808,-0.718766,9.90418,-0.322942,0.42,-0.07,-0.35,28.8804,-67.8939,37.5532,1022.68
25814,-0.65715,9.87561,-0.351453,0.28,-0.14,-0.42,27.9246,-65.6634,36.8847,1022.68
25820,-0.619232,9.78036,-0.313438,0.21,-0.21,-0.35,28.3615,-64.1563,36.1121,1022.68
25826,-0.581314,9.82322,-0.346701,0.42,-0.14,-0.28,28.6346,-68.2556,37.1372,1022.68
25832,-0.64767,9.82798,-0.365709,0.42,0.07,-0.42,28.3069,-65.2716,37.4047,1022.65
25838,-0.642931,9.78988,-0.360957,0.21,-0.07,-0.49,28.0066,-63.4028,36.0081,1022.65
25844,-0.709286,9.87084,-0.313438,0.07,-0.14,-0.42,28.4981,-66.7485,36.2459,1022.65
25850,-0.65715,9.81369,-0.365709,0.35,-0.21,-0.35,28.0066,-67.3513,36.0527,1022.68
25856,-0.671369,9.81369,-0.360957,0.35,-0.07,-0.35,28.3069,-64.307,35.7853,1022.68
25862,-0.676108,9.84227,-0.375212,0.28,-0.07,-0.49,28.4162,-65.6333,35.503,1022.71
25868,-0.676108,9.85656,-0.351453,0.35,-0.14,-0.42,28.2796,-67.7431,36.4538,1022.71
25874,-0.690327,9.86132,-0.39422,0.28,-0.14,-0.42,28.0612,-65.0907,36.7807,1022.67
25880,-0.638191,9.82322,-0.370461,0.42,-0.21,-0.42,28.0612,-64.2467,36.7064,1022.67
25886,-0.676108,9.83274,-0.351453,0.28,-0.28,-0.42,28.2523,-67.1102,37.4195,1022.67
25892,-0.704547,9.82798,-0.299183,0.21,-0.28,-0.42,28.4708,-66.7786,36.9441,1022.69
25898,-0.718766,9.78512,-0.327694,0.07,-0.21,-0.42,28.7165,-62.8602,36.6173,1022.69
25904,-0.690327,9.78988,-0.346701,0.28,-0.21,-0.42,28.7984,-66.1457,35.7259,1022.67
25910,-0.638191,9.87561,-0.398972,0.21,-0.21,-0.42,28.225,-67.4417,36.6173,1022.67
25916,-0.595534,9.82798,-0.365709,0.28,-0.28,-0.42,28.4435,-63.6439,36.2459,1022.68
25922,-0.728245,9.84227,-0.337197,0.14,-0.21,-0.35,28.6619,-64.6989,35.6516,1022.68
25928,-0.661889,9.81846,-0.308686,0.21,-0.35,-0.28,27.9519,-67.3513,36.0973,1022.71
25934,-0.685588,9.85179,-0.389468,0.28,-0.35,-0.42,27.7062,-65.6634,36.2459,1022.71
25940,-0.600273,9.80417,-0.360957,0.14,-0.28,-0.35,28.7711,-64.1262,35.2059,1022.71
25946,-0.676108,9.84703,-0.332446,0.21,-0.14,-0.35,28.1977,-67.502,35.6962,1022.7
25952,-0.666629,9.81369,-0.341949,0.28,-0.14,-0.42,27.6243,-66.4471,36.6321,1022.7
25958,-0.690327,9.83751,-0.313438,0.28,-0.21,-0.35,28.3615,-63.7042,34.8642,1022.66
25964,-0.671369,9.81369,-0.346701,0.35,-0.28,-0.42,28.7438,-65.9045,35.6813,1022.66
25970,-0.65715,9.85179,-0.360957,0.21,-0.14,-0.35,28.3888,-67.1403,37.0184,1022.68
25976,-0.619232,9.83751,-0.351453,0.21,-0.14,-0.42,28.2796,-64.4577,36.0527,1022.68
25982,-0.638191,9.86608,-0.370461,0.07,-0.21,-0.49,28.4981,-64.8797,35.711,1022.68
25988,-0.64767,9.84227,-0.337197,0.07,-0.21,-0.49,27.6789,-68.2254,37.5978,1022.69
25994,-0.633451,9.80417,-0.303934,0.21,-0.14,-0.35,28.6619,-65.362,35.607,1022.69
26000,-0.64767,9.76131,-0.356205,0.21,-0.21,-0.35,28.3615,-64.0358,35.3247,1022.67
26006,-0.638191,9.83751,-0.322942,0.14,-0.14,-0.49,28.9623,-67.7733,36.8996,1022.67
26012,-0.614492,9.83751,-0.346701,0.21,-0.21,-0.49,28.6619,-66.7183,36.4093,1022.68
26018,-0.623972,9.84703,-0.337197,0.28,-0.14,-0.42,28.8531,-63.5836,35.1465,1022.68
26024,-0.699807,9.83751,-0.370461,0.35,-0.14,-0.49,28.7438,-67.1102,36.6618,1022.7
26030,-0.642931,9.80893,-0.370461,0.35,-0.14,-0.42,28.4708,-68.6173,37.4344,1022.7
26036,-0.661889,9.81369,-0.341949,0.28,-0.21,-0.42,28.6346,-64.1563,34.5819,1022.7
26042,-0.633451,9.78988,-0.346701,0.21,-0.07,-0.35,28.1431,-65.1811,35.7704,1022.7
26048,-0.623972,9.83274,-0.351453,0.35,-0.07,-0.49,27.9519,-67.291,38.2515,1022.7
26054,-0.704547,9.84703,-0.360957,0.35,-0.14,-0.35,28.4708,-64.1262,35.8596,1022.68
26060,-0.64767,9.85656,-0.308686,0.07,-0.28,-0.35,29.3992,-64.6084,35.3099,1022.68
26066,-0.666629,9.84227,-0.313438,0.14,-0.28,-0.42,28.4162,-67.291,36.7955,1022.7
26072,-0.623972,9.84227,-0.356205,0.28,-0.14,-0.35,28.1977,-65.5428,38.0881,1022.7
26078,-0.680848,9.84703,-0.398972,0.28,-0.14,-0.28,28.8258,-63.6138,35.191,1022.7
26084,-0.64767,9.78036,-0.31819,-0.07,-0.28,-0.35,28.4162,-66.5074,35.7407,1022.68
26090,-0.623972,9.78036,-0.327694,0.21,-0.21,-0.49,27.7881,-68.0446,37.5087,1022.68
26096,-0.600273,9.80417,-0.294431,0.35,-0.14,-0.42,28.1158,-64.729,35.5773,1022.68
26102,-0.642931,9.78512,-0.365709,0.42,-0.28,-0.49,28.6073,-65.5127,35.8002,1022.68
26108,-0.690327,9.79941,-0.356205,0.35,-0.21,-0.42,28.1431,-68.6474,37.3898,1022.69
26114,-0.595534,9.80417,-0.337197,0.21,-0.21,-0.35,27.1054,-65.362,36.7807,1022.69
26120,-0.642931,9.85179,-0.299183,0.28,-0.14,-0.35,28.2796,-63.8248,36.2013,1022.66
26126,-0.581314,9.78988,-0.389468,0.28,-0.21,-0.42,28.4435,-67.9541,37.1075,1022.66
26132,-0.633451,9.83274,-0.365709,0.35,-0.14,-0.35,27.9792,-66.8992,37.6127,1022.66
26138,-0.751944,9.82798,-0.31819,0.35,-0.21,-0.42,28.0066,-63.8851,35.6664,1022.67
26144,-0.685588,9.81369,-0.384716,0.21,-0.07,-0.42,27.8427,-67.2307,34.6859,1022.67
26150,-0.64767,9.87561,-0.356205,0.35,-0.14,-0.42,28.0885,-67.5924,37.2413,1022.67
26156,-0.709286,9.80417,-0.313438,0.28,-0.14,-0.42,28.3615,-63.9152,35.9487,1022.67
26162,-0.633451,9.82322,-0.389468,0.35,-0.28,-0.49,28.8258,-65.6333,36.335,1022.69
26168,-0.671369,9.86608,-0.337197,0.35,-0.14,-0.56,28.4162,-67.9843,36.7213,1022.69
26174,-0.623972,9.88037,-0.370461,0.42,-0.21,-0.49,28.4162,-64.7893,36.231,1022.69
26180,-0.65715,9.83274,-0.389468,0.21,-0.21,-0.42,28.6619,-64.9099,36.7213,1022.69
26186,-0.642931,9.82322,-0.299183,0.28,-0.35,-0.42,28.5254,-67.924,37.3898,1022.69
26192,-0.581314,9.78512,-0.337197,0.49,-0.14,-0.35,28.1158,-66.5978,35.5922,1022.7
26198,-0.633451,9.81846,-0.360957,0.56,-0.07,-0.35,28.0612,-63.8549,36.335,1022.7
26204,-0.690327,9.80893,-0.303934,0.42,-0.14,-0.42,28.7984,-66.5676,36.2756,1022.69
26210,-0.685588,9.82322,-0.351453,0.49,-0.21,-0.42,28.0885,-67.8336,38.2366,1022.69
26216,-0.628711,9.85656,-0.356205,0.56,-0.21,-0.49,28.3615,-64.518,37.167,1022.66
26222,-0.666629,9.78512,-0.341949,0.35,-0.07,-0.49,28.6073,-65.362,37.1075,1022.66
26228,-0.65241,9.84703,-0.337197,0.42,0,-0.56,28.2796,-68.3158,37.7167,1022.66
26234,-0.671369,9.84227,-0.327694,0.42,-0.07,-0.56,28.0066,-65.3921,36.543,1022.66
26240,-0.661889,9.81369,-0.313438,0.28,-0.14,-0.56,28.9623,-64.4879,35.0127,1022.66
26246,-0.676108,9.82798,-0.365709,0.35,-0.14,-0.49,28.6619,-67.2006,36.1716,1022.71
26252,-0.64767,9.86608,-0.289679,0.42,-0.07,-0.42,28.3342,-66.0552,36.0973,1022.71
26258,-0.695067,9.83751,-0.327694,0.28,-0.14,-0.35,29.208,-63.9755,34.9385,1022.69
26264,-0.666629,9.82322,-0.337197,0.28,-0.14,-0.35,28.4708,-66.2361,37.2115,1022.69
26270,-0.685588,9.82322,-0.313438,0.28,-0.21,-0.35,28.1431,-68.0144,36.231,1022.71
26276,-0.633451,9.84703,-0.327694,0.35,-0.21,-0.42,28.4708,-64.6687,35.6813,1022.71
26282,-0.666629,9.82798,-0.341949,0.35,-0.14,-0.35,28.8531,-65.1208,35.3545,1022.71
26288,-0.65241,9.83751,-0.39422,0.42,-0.07,-0.42,28.4708,-68.2556,36.439,1022.71
26294,-0.714026,9.83274,-0.360957,0.21,-0.21,-0.42,28.2523,-65.8141,35.2653,1022.71
26300,-0.581314,9.83751,-0.384716,0.14,-0.21,-0.49,28.8531,-64.729,35.3545,1022.68
26306,-0.609753,9.88513,-0.332446,0.35,-0.07,-0.49,28.8258,-67.9541,37.2413,1022.68
26312,-0.690327,9.83274,-0.346701,0.49,0,-0.42,28.7984,-67.2006,36.9441,1022.67
26318,-0.638191,9.81846,-0.308686,0.28,-0.07,-0.42,28.5254,-63.2521,35.0573,1022.67
26324,-0.628711,9.84703,-0.370461,0.28,-0.21,-0.35,29.0715,-66.7183,35.9933,1022.67
26330,-0.638191,9.84227,-0.351453,0.35,-0.14,-0.42,27.8973,-68.1953,37.271,1022.65
26336,-0.619232,9.83274,-0.370461,0.35,-0.14,-0.49,28.4981,-64.2166,36.0527,1022.65
26342,-0.65715,9.80417,-0.365709,0.35,-0.21,-0.42,29.0169,-65.1811,36.0081,1022.68
26348,-0.633451,9.82322,-0.303934,0.28,-0.07,-0.42,27.6243,-68.2254,35.919,1022.68
26354,-0.65241,9.79464,-0.346701,0.28,-0.21,-0.49,28.6346,-65.5127,34.7008,1022.67
26360,-0.661889,9.82798,-0.360957,0.42,-0.07,-0.42,28.4708,-64.3372,35.9487,1022.67
26366,-0.728245,9.76131,-0.308686,0.42,-0.07,-0.42,28.5527,-67.6226,36.1121,1022.69
26372,-0.600273,9.84703,-0.322942,0.21,-0.07,-0.49,28.3888,-66.9293,35.9933,1022.69
26378,-0.65241,9.83274,-0.365709,0.21,-0.14,-0.49,28.0066,-63.7645,35.1019,1022.69
26384,-0.628711,9.74226,-0.337197,0.35,-0.28,-0.42,27.9246,-65.995,34.8345,1022.64
26390,-0.633451,9.80417,-0.337197,0.28,-0.14,-0.35,27.7881,-68.1651,35.1316,1022.64
26396,-0.714026,9.83751,-0.313438,0.14,-0.14,-0.35,27.87,-63.8248,35.7407,1022.68
26402,-0.661889,9.80893,-0.303934,0.21,-0.21,-0.35,28.3069,-64.6386,35.4436,1022.68
26408,-0.638191,9.83274,-0.337197,0.21,-0.21,-0.42,28.3342,-68.2254,36.647,1022.69
26414,-0.671369,9.80893,-0.370461,0.21,-0.14,-0.35,28.0339,-65.151,35.7704,1022.69
26420,-0.64767,9.82322,-0.379964,0.28,-0.21,-0.42,28.4981,-63.9453,34.4779,1022.69
26426,-0.638191,9.78988,-0.327694,0.21,-0.21,-0.42,28.935,-67.713,36.023,1022.68
26432,-0.661889,9.81846,-0.365709,0.21,-0.21,-0.35,28.4708,-66.0854,35.9042,1022.68
26438,-0.685588,9.83751,-0.389468,0.28,-0.28,-0.35,28.0339,-63.011,35.3693,1022.67
26444,-0.661889,9.80417,-0.337197,0.21,-0.28,-0.35,28.4435,-66.0854,35.8744,1022.67
26450,-0.642931,9.81846,-0.346701,0.07,-0.28,-0.35,28.1431,-67.713,37.1818,1022.68
26456,-0.671369,9.81846,-0.322942,0.28,-0.28,-0.35,28.1431,-64.5783,34.9236,1022.68
26462,-0.671369,9.81369,-0.322942,0.35,-0.07,-0.49,28.7165,-65.2414,34.9979,1022.66
26468,-0.642931,9.87561,-0.337197,0.35,-0.14,-0.49,28.2523,-68.4364,37.4344,1022.66
26474,-0.680848,9.82322,-0.346701,0.35,-0.07,-0.42,28.0066,-65.5428,36.5133,1022.66
26480,-0.605013,9.84227,-0.308686,0.42,-0.14,-0.49,28.4708,-63.9755,36.0379,1022.7
26486,-0.661889,9.84703,-0.351453,0.42,-0.14,-0.49,28.2796,-67.6829,36.335,1022.7
26492,-0.64767,9.79941,-0.351453,0.28,-0.14,-0.49,28.3615,-66.9595,37.5087,1022.71
26498,-0.642931,9.84703,-0.341949,0.28,-0.14,-0.42,28.0612,-63.8851,34.6413,1022.71
26504,-0.704547,9.80893,-0.379964,0.14,-0.28,-0.49,28.3615,-66.7485,36.4836,1022.71
26510,-0.661889,9.84703,-0.299183,0.21,-0.21,-0.35,28.1158,-67.6226,37.2115,1022.71
26516,-0.666629,9.83274,-0.360957,0.21,-0.21,-0.42,27.2693,-64.3673,35.3842,1022.68
26522,-0.623972,9.78512,-0.379964,0.21,-0.21,-0.42,28.5527,-65.4826,35.3842,1022.68
26528,-0.619232,9.83274,-0.313438,0.21,-0.28,-0.42,28.225,-68.5268,36.751,1022.68
26534,-0.661889,9.81846,-0.375212,0.28,-0.14,-0.42,28.1431,-65.2113,36.8253,1022.66
26540,-0.690327,9.85179,-0.356205,0.28,-0.07,-0.49,28.4435,-64.1563,35.815,1022.66
26546,-0.609753,9.82322,-0.327694,0.28,-0.07,-0.42,28.0339,-67.7431,36.1864,1022.72
26552,-0.671369,9.84227,-0.332446,0.35,-0.07,-0.42,28.0885,-66.5978,37.3898,1022.72
26558,-0.609753,9.81846,-0.322942,0.35,-0.21,-0.42,27.8427,-63.8248,35.815,1022.71
26564,-0.614492,9.83274,-0.360957,0.21,-0.14,-0.56,28.58,-66.2361,37.5532,1022.71
26570,-0.642931,9.86132,-0.365709,0.28,-0.14,-0.35,28.7438,-67.4417,37.2264,1022.71
26576,-0.661889,9.81369,-0.356205,0.21,-0.14,-0.42,27.6516,-64.0056,36.127,1022.67
26582,-0.666629,9.79941,-0.327694,0.21,-0.28,-0.42,28.1704,-64.94,35.5624,1022.67
26588,-0.609753,9.78036,-0.327694,0.21,-0.28,-0.49,28.4435,-68.135,36.7361,1022.7
26594,-0.64767,9.83274,-0.341949,0.35,-0.14,-0.56,27.8154,-65.3921,37.6424,1022.7
26600,-0.638191,9.82798,-0.365709,0.35,-0.14,-0.49,28.2796,-64.2166,34.9385,1022.69
26606,-0.661889,9.77559,-0.370461,0.28,-0.21,-0.49,28.3342,-68.4063,36.7955,1022.69
26612,-0.65715,9.78988,-0.346701,0.21,-0.21,-0.56,28.3615,-67.291,36.6767,1022.68
26618,-0.609753,9.78512,-0.346701,0.21,-0.28,-0.56,28.6619,-64.307,35.5476,1022.68
26624,-0.680848,9.84227,-0.346701,0.28,-0.07,-0.49,28.9623,-67.0198,35.919,1022.68
26630,-0.642931,9.83274,-0.332446,0.21,-0.14,-0.42,29.0169,-68.2857,37.6127,1022.69
26636,-0.576575,9.82322,-0.341949,0.21,-0.14,-0.42,28.4708,-63.8851,35.8744,1022.69
26642,-0.609753,9.82322,-0.341949,0.42,-0.21,-0.49,28.9623,-65.4524,36.9293,1022.72
26648,-0.661889,9.83274,-0.356205,0.35,-0.14,-0.42,27.87,-68.7378,38.2366,1022.72
26654,-0.661889,9.84703,-0.327694,0.21,-0.35,-0.49,28.1704,-67.0499,36.0527,1022.69
26660,-0.595534,9.85179,-0.379964,0.14,-0.49,-0.42,28.3615,-64.5783,36.1419,1022.69
26666,-0.65715,9.78512,-0.303934,0.14,-0.28,-0.42,28.7438,-67.7733,36.4241,1022.69
26672,-0.676108,9.83751,-0.294431,0.28,-0.14,-0.42,28.2523,-65.7538,36.7955,1022.7
26678,-0.638191,9.83274,-0.370461,0.28,-0.21,-0.49,28.6892,-63.5535,36.0824,1022.7
26684,-0.65241,9.83751,-0.322942,0.14,-0.07,-0.49,28.6619,-65.784,36.3944,1022.68
26690,-0.671369,9.81369,-0.294431,0.21,-0.21,-0.49,28.1704,-67.3815,37.2561,1022.68
26696,-0.65241,9.80417,-0.327694,0.35,-0.21,-0.42,28.1431,-64.307,36.3201,1022.71
26702,-0.685588,9.85179,-0.365709,0.28,-0.21,-0.49,28.9623,-64.9099,36.1121,1022.71
26708,-0.661889,9.80893,-0.422731,0.21,-0.35,-0.49,28.0066,-68.2556,37.5384,1022.69
26714,-0.65241,9.81846,-0.365709,0.21,-0.28,-0.49,28.3888,-64.9099,37.3898,1022.69
26720,-0.65715,9.83274,-0.308686,0.35,-0.21,-0.42,28.7438,-64.5783,34.8493,1022.69
26726,-0.619232,9.77083,-0.31819,0.56,-0.21,-0.56,29.1807,-68.4967,37.5235,1022.69
26732,-0.65241,9.83751,-0.365709,0.63,0,-0.56,28.3342,-66.9595,36.4538,1022.69
26738,-0.671369,9.85656,-0.39422,0.49,-0.07,-0.56,27.8973,-63.4631,34.5819,1022.7
26744,-0.633451,9.78512,-0.337197,0.28,0,-0.56,28.6346,-66.2361,36.0081,1022.7
26750,-0.642931,9.83751,-0.337197,0.35,-0.07,-0.49,28.3342,-66.9896,37.2561,1022.69
26756,-0.605013,9.85656,-0.398972,0.56,-0.21,-0.49,27.1054,-64.2166,35.7259,1022.69
26762,-0.685588,9.84227,-0.403724,0.28,-0.07,-0.63,29.208,-65.1811,35.5624,1022.69
26768,-0.699807,9.84227,-0.332446,0.21,-0.07,-0.49,28.1704,-68.2254,37.4344,1022.71
26774,-0.614492,9.82322,-0.303934,0.28,-0.14,-0.49,27.7335,-64.8194,36.5578,1022.71
26780,-0.676108,9.84703,-0.379964,0.42,-0.14,-0.42,28.6346,-64.096,35.5922,1022.7
26786,-0.623972,9.86608,-0.327694,0.21,-0.21,-0.42,28.6346,-67.3815,37.4641,1022.7
26792,-0.628711,9.79464,-0.341949,0.21,-0.28,-0.42,27.6789,-67.2307,37.1818,1022.69
26798,-0.65715,9.81846,-0.346701,0.35,-0.21,-0.56,28.5527,-63.3425,35.1465,1022.69
26804,-0.642931,9.78988,-0.294431,0.42,-0.14,-0.63,28.3888,-66.2059,37.5532,1022.68
26810,-0.676108,9.82798,-0.31819,0.35,-0.14,-0.56,28.4708,-67.9541,37.687,1022.68
26816,-0.714026,9.79464,-0.356205,0.49,-0.07,-0.63,28.4162,-64.096,34.3293,1022.68
26822,-0.600273,9.82322,-0.365709,0.35,-0.07,-0.56,28.7711,-64.8797,35.8744,1022.7
26828,-0.671369,9.80893,-0.360957,0.35,-0.07,-0.56,28.9623,-67.8336,37.4195,1022.7
26834,-0.671369,9.84703,-0.341949,0.35,0,-0.56,27.4877,-65.9347,36.023,1022.67
26840,-0.65241,9.87561,-0.337197,0.35,-0.14,-0.63,28.1431,-63.8248,35.2505,1022.67
26846,-0.628711,9.83751,-0.337197,0.21,-0.07,-0.63,28.1158,-67.1705,36.335,1022.69
26852,-0.65241,9.78988,-0.313438,0.21,-0.14,-0.63,28.1431,-67.1705,37.2561,1022.69
26858,-0.690327,9.84703,-0.356205,0.35,0,-0.56,28.3069,-64.2467,34.1065,1022.68
26864,-0.638191,9.77559,-0.351453,0.35,-0.14,-0.63,28.0339,-65.7538,36.6321,1022.68
26870,-0.642931,9.78512,-0.313438,0.21,-0.14,-0.56,28.0066,-67.3513,36.543,1022.68
26876,-0.685588,9.78512,-0.322942,0.28,-0.14,-0.56,27.9519,-64.4879,34.671,1022.68
26882,-0.676108,9.85656,-0.384716,0.42,0.07,-0.56,28.6346,-64.8797,35.7259,1022.68
26888,-0.671369,9.80893,-0.375212,0.35,-0.07,-0.49,28.6892,-68.346,36.7807,1022.68
26894,-0.638191,9.84227,-0.313438,0.28,-0.07,-0.56,28.0612,-65.1208,35.9487,1022.68
26900,-0.671369,9.84227,-0.370461,0.28,-0.07,-0.63,28.0885,-64.307,35.5922,1022.69
26906,-0.661889,9.80893,-0.370461,0.28,-0.07,-0.56,27.8973,-68.1953,36.3201,1022.69
26912,-0.633451,9.81369,-0.332446,0.35,0,-0.56,27.2966,-66.5978,36.4836,1022.69
26918,-0.685588,9.76607,-0.360957,0.21,0,-0.63,28.4435,-63.3124,35.4139,1022.68
26924,-0.590794,9.82322,-0.337197,0.28,0,-0.63,28.6346,-66.6882,36.3944,1022.68
26930,-0.64767,9.82322,-0.389468,0.35,0,-0.63,27.7881,-68.0747,37.1967,1022.65
26936,-0.661889,9.79941,-0.303934,0.49,0,-0.56,28.6073,-64.7893,35.4585,1022.65
26942,-0.661889,9.86132,-0.313438,0.49,-0.14,-0.56,28.3615,-64.8496,36.127,1022.67
26948,-0.642931,9.84703,-0.332446,0.49,-0.07,-0.49,28.4162,-68.2556,36.7807,1022.67
26954,-0.685588,9.84703,-0.289679,0.49,-0.07,-0.49,28.58,-65.6935,36.127,1022.7
26960,-0.666629,9.83274,-0.384716,0.42,-0.14,-0.56,28.1158,-63.7946,34.9533,1022.7
26966,-0.671369,9.83274,-0.31819,0.35,-0.14,-0.49,28.6619,-67.713,36.1716,1022.7
26972,-0.633451,9.84227,-0.346701,0.42,-0.28,-0.49,28.2523,-67.291,36.4538,1022.67
26978,-0.64767,9.81846,-0.375212,0.35,-0.21,-0.42,27.9519,-63.4631,35.6219,1022.67
26984,-0.676108,9.82322,-0.346701,0.21,-0.28,-0.49,28.1977,-66.5074,35.2802,1022.7
26990,-0.633451,9.83274,-0.384716,0.35,-0.21,-0.49,28.6619,-68.3158,36.6024,1022.7
26996,-0.671369,9.83274,-0.356205,0.35,-0.14,-0.49,27.8427,-64.3372,35.6962,1022.72
27002,-0.65715,9.89466,-0.365709,0.28,-0.28,-0.42,28.0885,-64.9099,35.1167,1022.72
27008,-0.699807,9.83274,-0.384716,0.28,-0.14,-0.42,28.0885,-67.8939,36.6618,1022.72
27014,-0.666629,9.78512,-0.289679,0.28,-0.14,-0.42,27.9792,-65.7237,36.023,1022.68
27020,-0.680848,9.86608,-0.275423,0.28,-0.14,-0.56,27.515,-63.7946,36.0973,1022.68
27026,-0.65715,9.79464,-0.303934,0.35,-0.07,-0.49,28.4435,-67.2609,36.5133,1022.68
27032,-0.690327,9.78036,-0.379964,0.42,-0.14,-0.63,27.8427,-67.4116,37.1075,1022.68
27038,-0.633451,9.82798,-0.351453,0.35,-0.14,-0.56,28.2796,-63.5836,33.9134,1022.69
27044,-0.671369,9.85179,-0.360957,0.21,-0.07,-0.49,28.0066,-65.6031,35.4139,1022.69
27050,-0.623972,9.84703,-0.346701,0.28,-0.21,-0.49,28.1704,-67.1102,36.4687,1022.68
27056,-0.65715,9.82322,-0.327694,0.42,-0.14,-0.42,28.3069,-65.0304,35.3693,1022.68
27062,-0.661889,9.84703,-0.299183,0.28,-0.14,-0.35,28.3342,-65.5428,35.5179,1022.68
27068,-0.671369,9.86132,-0.365709,0.35,-0.21,-0.42,28.2796,-68.0446,37.2858,1022.66
27074,-0.642931,9.82798,-0.346701,0.21,-0.35,-0.42,28.4708,-66.2662,36.5578,1022.66
27080,-0.628711,9.84227,-0.294431,0.28,-0.21,-0.42,28.3342,-64.4577,35.1762,1022.67
27086,-0.699807,9.78036,-0.346701,0.28,-0.14,-0.42,28.4435,-68.0747,36.0081,1022.67
27092,-0.65715,9.84703,-0.327694,0.28,-0.14,-0.35,28.1704,-67.08,36.4093,1022.68
27098,-0.64767,9.83274,-0.346701,0.28,-0.14,-0.35,27.9792,-63.9755,36.023,1022.68
27104,-0.704547,9.80893,-0.308686,0.35,-0.21,-0.49,28.7984,-65.573,36.1121,1022.68
27110,-0.614492,9.84703,-0.341949,0.35,-0.21,-0.42,28.4435,-67.7431,36.0973,1022.68
27116,-0.666629,9.76607,-0.337197,0.21,-0.14,-0.42,27.6516,-64.94,35.8447,1022.68
27122,-0.685588,9.84703,-0.31819,0.35,-0.14,-0.49,28.4435,-65.151,34.9385,1022.71
27128,-0.65715,9.81369,-0.360957,0.28,-0.14,-0.56,28.1158,-68.0446,36.7361,1022.71
27134,-0.709286,9.82322,-0.39422,0.28,-0.14,-0.56,28.3069,-65.3017,37.3155,1022.7
27140,-0.704547,9.80417,-0.341949,0.28,-0.14,-0.56,28.1431,-63.9453,34.8939,1022.7
27146,-0.65241,9.84227,-0.270671,0.28,-0.21,-0.56,28.5254,-67.6226,36.7361,1022.67
27152,-0.590794,9.85179,-0.403724,0.28,-0.14,-0.49,28.3342,-66.6279,36.959,1022.67
27158,-0.628711,9.79464,-0.356205,0.28,0,-0.56,28.1431,-63.8248,34.6116,1022.67
27164,-0.676108,9.85179,-0.360957,0.28,0,-0.49,28.3069,-66.1155,35.2802,1022.66
27170,-0.680848,9.88037,-0.346701,0.28,-0.14,-0.49,27.6789,-67.6226,37.3898,1022.66
27176,-0.65241,9.84227,-0.351453,0.35,-0.21,-0.56,27.8973,-64.7893,34.5373,1022.69
27182,-0.666629,9.86608,-0.332446,0.35,-0.07,-0.56,27.8154,-64.4879,34.8048,1022.69
27188,-0.628711,9.85656,-0.365709,0.21,-0.14,-0.49,28.2796,-68.0144,36.0824,1022.66
27194,-0.638191,9.86132,-0.337197,0.28,-0.14,-0.49,27.6789,-65.3318,36.7658,1022.66
27200,-0.64767,9.83274,-0.332446,0.14,-0.14,-0.49,27.7608,-64.1865,34.5819,1022.69
27206,-0.64767,9.84703,-0.313438,0.28,-0.28,-0.49,27.9519,-67.0499,37.2561,1022.69
27212,-0.695067,9.78036,-0.332446,0.49,-0.07,-0.49,28.0885,-67.1403,37.5384,1022.69
27218,-0.65715,9.79464,-0.360957,0.49,0,-0.49,27.9246,-64.3673,36.0379,1022.68
27224,-0.623972,9.79464,-0.356205,0.42,-0.07,-0.56,28.1977,-66.3868,36.2161,1022.68
27230,-0.676108,9.80417,-0.327694,0.21,-0.14,-0.49,28.1977,-68.2254,36.7361,1022.7
27236,-0.671369,9.78988,-0.365709,0.28,0,-0.7,27.8973,-64.1262,36.0081,1022.7
27242,-0.690327,9.77559,-0.375212,0.35,0,-0.63,28.0339,-65.3921,34.983,1022.69
27248,-0.65241,9.85656,-0.337197,0.56,0.07,-0.56,28.4435,-68.4967,36.0379,1022.69
27254,-0.64767,9.86132,-0.313438,0.49,0.07,-0.63,27.9246,-66.7485,36.2756,1022.69
27260,-0.699807,9.88037,-0.322942,0.35,-0.14,-0.56,28.4708,-63.9755,36.023,1022.68
27266,-0.638191,9.80417,-0.31819,0.35,-0.07,-0.49,28.2523,-67.6226,36.2161,1022.68
27272,-0.676108,9.84227,-0.341949,0.35,0,-0.56,28.6346,-66.9595,35.815,1022.68
27278,-0.666629,9.81846,-0.384716,0.42,0,-0.56,28.6892,-63.9152,35.399,1022.68
27284,-0.661889,9.82798,-0.31819,0.28,-0.14,-0.56,28.6346,-66.3868,35.2059,1022.67
27290,-0.685588,9.83751,-0.375212,0.28,-0.21,-0.42,28.3888,-68.4967,37.2115,1022.67
27296,-0.728245,9.81846,-0.322942,0.35,-0.14,-0.49,28.1431,-64.3372,35.8596,1022.71
27302,-0.65715,9.82322,-0.299183,0.28,-0.21,-0.49,28.1158,-65.5428,34.4333,1022.71
27308,-0.628711,9.82798,-0.308686,0.07,-0.28,-0.49,28.1977,-68.1049,35.295,1022.71
27314,-0.666629,9.87084,-0.389468,0.21,-0.21,-0.28,27.4877,-66.2361,35.5773,1022.7
27320,-0.65715,9.85656,-0.337197,0.21,-0.28,-0.35,28.0885,-63.9453,35.1019,1022.7
27326,-0.64767,9.83751,-0.360957,0.14,-0.28,-0.42,28.5527,-66.7183,36.6173,1022.66
27332,-0.642931,9.82322,-0.337197,0.07,-0.14,-0.49,28.5527,-66.1155,36.2904,1022.66
27338,-0.65715,9.77559,-0.332446,0.21,-0.07,-0.49,27.9519,-63.2219,35.1465,1022.67
27344,-0.628711,9.77559,-0.39422,0.28,-0.28,-0.49,28.5527,-66.6882,35.1762,1022.67
27350,-0.638191,9.78512,-0.398972,0.21,-0.21,-0.49,28.0885,-67.4719,36.3498,1022.67
27356,-0.638191,9.83751,-0.332446,0.28,-0.14,-0.56,28.1704,-64.9099,35.3693,1022.67
27362,-0.628711,9.84703,-0.408476,0.28,-0.14,-0.49,28.7711,-65.1208,36.5281,1022.67
27368,-0.619232,9.88037,-0.384716,0.56,-0.14,-0.56,27.87,-67.5623,36.7064,1022.66
27374,-0.600273,9.84703,-0.351453,0.28,-0.14,-0.56,27.4058,-66.0854,35.3099,1022.66
27380,-0.586054,9.82798,-0.327694,0.28,-0.21,-0.42,28.3342,-63.5836,35.2802,1022.66
27386,-0.728245,9.87561,-0.313438,0.21,-0.21,-0.35,28.1431,-67.8336,35.6962,1022.66
27392,-0.676108,9.82798,-0.39422,0.14,-0.14,-0.42,28.1977,-68.135,37.2264,1022.7
27398,-0.65241,9.81846,-0.370461,0.14,-0.21,-0.42,27.8427,-64.4276,34.6859,1022.7
27404,-0.619232,9.77083,-0.356205,0.28,-0.21,-0.49,28.9623,-66.3566,35.2505,1022.7
27410,-0.699807,9.82798,-0.346701,0.35,-0.21,-0.49,28.2523,-68.4063,36.7361,1022.67
27416,-0.676108,9.84703,-0.303934,0.21,-0.14,-0.42,28.58,-64.9701,36.8253,1022.67
27422,-0.695067,9.84227,-0.365709,0.14,-0.28,-0.42,28.2523,-65.151,35.7407,1022.67
27428,-0.671369,9.83751,-0.308686,0.14,-0.21,-0.49,29.0988,-67.5924,37.5829,1022.67
27434,-0.64767,9.82322,-0.337197,0.14,-0.14,-0.35,28.1977,-65.4223,36.647,1022.67
27440,-0.685588,9.82798,-0.294431,0.21,-0.21,-0.42,28.7711,-63.7343,34.4185,1022.67
27446,-0.661889,9.84227,-0.31819,0.42,-0.07,-0.42,29.2627,-66.7183,35.1316,1022.67
27452,-0.661889,9.79941,-0.313438,0.42,-0.07,-0.49,28.6892,-67.3815,36.2161,1022.65
27458,-0.642931,9.85179,-0.346701,0.42,-0.14,-0.56,28.4162,-62.7698,34.983,1022.65
27464,-0.65241,9.79464,-0.379964,0.42,0,-0.56,28.6346,-66.5074,35.5922,1022.73
27470,-0.609753,9.81369,-0.356205,0.35,0,-0.63,27.9792,-67.6527,37.9247,1022.73
27476,-0.638191,9.83274,-0.346701,0.28,-0.07,-0.49,27.3239,-65.7538,36.2161,1022.66
27482,-0.638191,9.79464,-0.351453,0.28,0,-0.56,28.7165,-64.7592,35.9339,1022.66
27488,-0.642931,9.82798,-0.365709,0.35,-0.07,-0.56,28.8258,-68.5871,36.6173,1022.68
27494,-0.64767,9.81369,-0.337197,0.49,-0.07,-0.56,29.1261,-65.3921,36.2904,1022.68
27500,-0.685588,9.84227,-0.360957,0.28,-0.07,-0.56,28.8531,-63.3425,34.9682,1022.68
27506,-0.638191,9.81846,-0.327694,0.14,-0.21,-0.49,28.7165,-67.2609,36.1716,1022.64
27512,-0.695067,9.80417,-0.332446,0.14,-0.14,-0.49,28.0339,-66.5074,37.1818,1022.64
27518,-0.65241,9.81846,-0.356205,0.35,-0.14,-0.56,28.0612,-63.9755,35.919,1022.66
27524,-0.676108,9.80893,-0.384716,0.49,-0.14,-0.49,29.3719,-66.2361,35.5476,1022.66
27530,-0.628711,9.84227,-0.379964,0.14,-0.14,-0.42,28.3615,-68.4063,37.7761,1022.69
27536,-0.690327,9.87561,-0.365709,0.35,-0.14,-0.42,27.87,-64.6989,35.8596,1022.69
27542,-0.680848,9.82322,-0.341949,0.49,-0.21,-0.35,28.9896,-65.6333,34.6265,1022.69
27548,-0.680848,9.88513,-0.370461,0.42,-0.14,-0.21,27.7608,-68.5871,35.8893,1022.69
27554,-0.699807,9.88037,-0.360957,0.21,-0.07,-0.14,28.3615,-65.5127,37.1372,1022.69
27560,-0.64767,9.77559,-0.232656,-0.35,-0.56,-0.35,28.4981,-64.4577,35.3099,1022.71
27566,-0.543397,9.7232,-0.327694,-0.07,-0.56,-0.56,28.3615,-67.5623,37.7315,1022.71
27572,-0.609753,9.81369,-0.379964,0.63,0.28,-0.63,28.0066,-67.1102,36.439,1022.66
27578,-0.775642,9.89942,-0.370461,0.91,0.35,-0.56,29.0988,-64.2769,36.023,1022.66
27584,-0.595534,9.83751,-0.398972,0.14,-0.63,-0.56,28.2523,-66.7183,35.607,1022.66
27590,-0.638191,9.77559,-0.284927,-0.21,-0.35,-0.49,28.7438,-68.1953,37.8652,1022.66
27596,-0.562356,9.81846,-0.313438,0.21,-0.35,-0.77,28.6073,-64.3372,35.9933,1022.66
27602,-0.685588,9.82798,-0.39422,0.77,0.07,-0.7,28.1977,-64.4276,36.2459,1022.68
27608,-0.709286,9.8899,-0.370461,0.28,-0.07,-0.56,29.2627,-67.924,37.3007,1022.68
27614,-0.685588,9.86608,-0.337197,0.21,-0.28,-0.56,27.9792,-67.08,35.2653,1022.69
27620,-0.699807,9.83274,-0.294431,0.42,-0.28,-0.49,28.3888,-64.4577,34.9979,1022.69
27626,-0.638191,9.84227,-0.39422,0.49,0.07,-0.49,29.208,-67.6829,34.5225,1022.68
27632,-0.633451,9.80417,-0.356205,0.35,0,-0.49,27.9792,-68.3158,35.4287,1022.68
27638,-0.638191,9.82322,-0.384716,0,-0.21,-0.63,28.8531,-64.096,36.3647,1022.67
27644,-0.685588,9.81369,-0.294431,0.07,-0.21,-0.63,28.6619,-65.4826,35.5624,1022.67
27650,-0.64767,9.81369,-0.365709,0.14,-0.07,-0.63,28.4981,-67.9541,38.4298,1022.67
27656,-0.65715,9.81369,-0.313438,0.42,-0.07,-0.49,28.1431,-64.1563,35.8447,1022.7
27662,-0.676108,9.84703,-0.375212,0.21,-0.21,-0.49,29.0169,-64.8194,35.8299,1022.7
27668,-0.65715,9.81846,-0.356205,0,-0.42,-0.42,28.5527,-67.8637,37.2858,1022.7
27674,-0.676108,9.81369,-0.289679,0.14,-0.21,-0.42,27.7881,-66.2662,35.191,1022.7
27680,-0.690327,9.80417,-0.398972,0.49,0,-0.42,27.6789,-65.0606,34.3888,1022.69
27686,-0.742464,9.8899,-0.327694,0.56,0,-0.42,28.3342,-66.8389,36.4687,1022.69
27692,-0.638191,9.82322,-0.375212,0.35,-0.21,-0.35,28.0339,-66.9293,37.8355,1022.69
27698,-0.614492,9.81846,-0.275423,0.42,-0.21,-0.42,27.7062,-63.6439,35.503,1022.68
27704,-0.623972,9.85656,-0.327694,0.49,-0.07,-0.56,28.4708,-65.995,35.3396,1022.68
27710,-0.690327,9.79464,-0.322942,0.42,0,-0.49,28.4435,-67.6829,36.0676,1022.68
27716,-0.65241,9.82798,-0.346701,0.42,-0.28,-0.49,28.3069,-64.2769,35.5773,1022.68
27722,-0.633451,9.85179,-0.332446,0.42,-0.07,-0.49,28.58,-64.4577,36.0973,1022.69
27728,-0.666629,9.83274,-0.365709,0.28,-0.14,-0.56,28.8258,-67.6527,37.0778,1022.69
27734,-0.666629,9.84703,-0.403724,0.28,-0.14,-0.49,28.8258,-65.7237,38.2069,1022.7
27740,-0.64767,9.81846,-0.346701,0.35,-0.14,-0.42,28.7438,-63.7343,35.6664,1022.7
27746,-0.704547,9.83751,-0.356205,0.28,-0.07,-0.49,29.0442,-66.9595,35.815,1022.7
27752,-0.676108,9.81369,-0.341949,0.28,-0.14,-0.42,28.0339,-67.0198,36.023,1022.67
27758,-0.685588,9.82322,-0.389468,0.35,-0.21,-0.42,28.3615,-63.5836,35.1613,1022.67
27764,-0.638191,9.80417,-0.384716,0.35,-0.07,-0.35,28.0885,-67.2609,35.1613,1022.68
27770,-0.65241,9.78512,-0.351453,0.28,-0.21,-0.42,28.5527,-67.8336,36.3053,1022.68
27776,-0.676108,9.83751,-0.346701,0.28,-0.28,-0.42,28.5254,-64.6687,35.4139,1022.72
27782,-0.605013,9.80893,-0.370461,0.21,-0.21,-0.42,28.6892,-64.729,35.3693,1022.72
27788,-0.690327,9.79464,-0.356205,0.28,-0.14,-0.42,28.4981,-67.5623,36.8253,1022.68
27794,-0.676108,9.87561,-0.356205,0.28,-0.21,-0.42,27.9792,-65.9648,35.6664,1022.68
27800,-0.65241,9.87561,-0.356205,0.07,-0.28,-0.42,28.9077,-64.5482,35.1465,1022.68
27806,-0.605013,9.87084,-0.379964,0.14,-0.28,-0.42,28.4435,-67.713,37.7018,1022.68
27812,-0.690327,9.87561,-0.332446,0.14,-0.21,-0.35,28.225,-66.7183,37.4641,1022.68
27818,-0.661889,9.82322,-0.360957,0.28,-0.14,-0.42,28.6073,-64.3372,35.4436,1022.7
27824,-0.633451,9.82322,-0.303934,0.35,-0.14,-0.42,28.6892,-66.7485,36.0527,1022.7
27830,-0.666629,9.81846,-0.346701,0.35,-0.21,-0.42,28.4162,-67.6829,37.1818,1022.69
27836,-0.633451,9.77083,-0.356205,0.35,-0.07,-0.42,28.6892,-64.4879,36.6024,1022.69
27842,-0.64767,9.82798,-0.370461,0.28,0,-0.42,28.0339,-65.0003,36.3944,1022.69
27848,-0.661889,9.83751,-0.341949,0.35,-17.92,-0.42,28.3888,-68.768,37.4641,1022.71
27854,-0.680848,9.82798,-0.337197,0.21,-0.14,-0.49,28.4162,-66.3868,36.3201,1022.71
27860,-0.695067,9.85179,-0.351453,0.21,-0.14,-0.49,28.4708,-63.9755,36.439,1022.68
27866,-0.685588,9.83751,-0.365709,0.28,-0.14,-0.42,28.6346,-66.7183,36.4241,1022.68
27872,-0.680848,9.83274,-0.356205,0.14,-0.14,-0.49,28.7711,-67.8336,36.543,1022.69
27878,-0.666629,9.81846,-0.31819,0.14,-0.21,-0.49,28.6073,-64.3372,35.7407,1022.69
27884,-0.65715,9.81369,-0.337197,0.14,-0.21,-0.49,28.5254,-65.9045,36.1419,1022.69
27890,-0.65241,9.82322,-0.341949,0.07,-0.21,-0.35,29.1534,-67.6829,37.6424,1022.69
27896,-0.695067,9.85656,-0.379964,0.21,-0.21,-0.42,28.4162,-64.8194,35.6664,1022.69
27902,-0.65715,9.91847,-0.346701,0.14,-0.28,-0.35,28.6619,-64.1865,35.6962,1022.72
27908,-0.666629,9.82798,-0.31819,0.14,-0.35,-0.42,28.6346,-68.4063,36.8253,1022.72
27914,-0.64767,9.83274,-0.332446,0.28,-0.21,-0.49,28.0339,-65.7538,36.855,1022.69
27920,-0.661889,9.80893,-0.379964,0.28,-0.21,-0.42,29.0442,-63.7343,34.7008,1022.69
27926,-0.671369,9.82798,-0.360957,0.21,-0.21,-0.42,28.6892,-67.4417,36.9441,1022.68
27932,-0.661889,9.83751,-0.39422,0.28,-0.14,-0.42,28.8258,-67.6226,36.4093,1022.68
27938,-0.695067,9.85656,-0.346701,0.28,-0.14,-0.42,28.4435,-64.0659,34.7156,1022.68
27944,-0.65241,9.82322,-0.351453,0.07,-0.14,-0.49,28.58,-65.7538,37.3007,1022.67
27950,-0.661889,9.82798,-0.308686,0.21,-0.07,-0.56,28.8258,-68.1651,36.2756,1022.67
27956,-0.65241,9.84227,-0.356205,0.28,-0.21,-0.56,28.6619,-64.8194,35.6664,1022.66
27962,-0.623972,9.84227,-0.337197,0.35,-0.14,-0.49,28.7984,-64.8194,35.2653,1022.66
27968,-0.671369,9.84227,-0.351453,0.28,-0.07,-0.49,28.1158,-67.6226,36.9441,1022.7
27974,-0.671369,9.82322,-0.375212,0.28,-0.14,-0.42,28.6892,-65.9648,36.5578,1022.7
27980,-0.65241,9.79464,-0.360957,0.28,-0.28,-0.49,28.2796,-63.6439,36.0824,1022.68
27986,-0.671369,9.85179,-0.370461,0.28,-0.21,-0.42,28.935,-66.8992,35.6664,1022.68
27992,-0.709286,9.84227,-0.356205,0.35,-0.21,-0.49,28.8258,-66.8088,36.8996,1022.68
27998,-0.704547,9.89466,-0.379964,0.35,-0.14,-0.42,28.1977,-64.307,35.3099,1022.7
28004,-0.690327,9.84703,-0.370461,0.28,-0.21,-0.28,28.4708,-66.0552,36.2161,1022.7
28010,-0.661889,9.81846,-0.346701,0.21,-0.35,-0.42,28.2796,-68.1049,36.8104,1022.68
28016,-0.676108,9.84703,-0.303934,0.21,-0.35,-0.35,27.242,-64.307,35.8744,1022.68
28022,-0.623972,9.81369,-0.341949,0.14,-0.21,-0.42,28.8258,-65.7538,35.0573,1022.73
28028,-0.690327,9.82322,-0.365709,0.21,-0.14,-0.42,28.5254,-68.5268,36.7658,1022.73
28034,-0.65241,9.81369,-0.313438,0.14,-0.21,-0.49,28.5527,-66.2964,36.7807,1022.73
28040,-0.614492,9.83751,-0.351453,0.28,-0.21,-0.42,28.2796,-64.6386,35.3396,1022.68
28046,-0.619232,9.79941,-0.341949,0.35,-0.14,-0.49,28.6073,-66.7485,36.1716,1022.68
28052,-0.64767,9.77559,-0.341949,0.28,-0.21,-0.63,28.8804,-67.8336,36.959,1022.69
28058,-0.661889,9.85179,-0.31819,0.35,-0.21,-0.63,28.4708,-63.7343,36.4241,1022.69
28064,-0.65715,9.84703,-0.398972,0.28,-0.14,-0.49,28.4708,-65.8141,36.2904,1022.69
28070,-0.676108,9.85179,-0.313438,0.28,-0.21,-0.56,29.208,-67.5623,36.6618,1022.69
28076,-0.638191,9.81846,-0.384716,0.35,-0.14,-0.56,28.5527,-64.4577,36.3498,1022.71
28082,-0.638191,9.83751,-0.327694,0.42,-0.07,-0.49,28.0339,-64.9701,35.607,1022.71
28088,-0.737725,9.84227,-0.365709,0.42,-0.14,-0.49,27.3785,-69.3105,35.2802,1022.71
28094,-0.633451,9.87561,-0.341949,0.21,-0.35,-0.42,27.9792,-65.6634,36.3796,1022.68
28100,-0.661889,9.77559,-0.351453,0.14,-0.28,-0.42,28.2796,-64.307,35.0722,1022.68
28106,-0.64767,9.82322,-0.303934,0.42,-0.21,-0.49,28.6346,-68.1953,35.9784,1022.66
28112,-0.723505,9.81846,-0.332446,0.42,-0.07,-0.35,29.29,-67.924,36.4093,1022.66
28118,-0.633451,9.85179,-0.313438,0.07,-0.21,-0.35,28.5254,-64.1262,34.4482,1022.69
28124,-0.709286,9.90895,-0.303934,0.07,-0.28,-0.35,28.8804,-66.0854,35.191,1022.69
28130,-0.64767,9.78988,-0.398972,0,-0.28,-0.42,27.8427,-68.6474,35.8002,1022.7
28136,-0.666629,9.81369,-0.370461,0.14,-0.14,-0.49,28.7438,-65.3017,35.7704,1022.7
28142,-0.699807,9.77083,-0.375212,0.21,-0.21,-0.42,28.7984,-65.1208,35.2802,1022.7
28148,-0.685588,9.84703,-0.313438,0.21,-0.14,-0.42,28.6619,-68.2556,37.0778,1022.68
28154,-0.633451,9.78512,-0.313438,0.35,-0.21,-0.49,28.2523,-66.3265,35.5476,1022.68
28160,-0.695067,9.83751,-0.375212,0.49,-0.14,-0.42,28.3888,-63.4631,34.4779,1022.68
28166,-0.628711,9.85656,-0.375212,0.42,-0.21,-0.49,28.8258,-67.3513,36.7064,1022.68
28172,-0.699807,9.84703,-0.337197,0.28,-0.21,-0.56,28.1158,-67.1403,36.439,1022.71
28178,-0.65715,9.80417,-0.360957,0.21,-0.21,-0.49,28.58,-64.3372,35.6367,1022.71
28184,-0.685588,9.84227,-0.313438,0.35,-0.28,-0.42,28.3342,-66.1758,35.607,1022.71
28190,-0.633451,9.85179,-0.379964,0.28,-0.14,-0.42,28.2523,-68.0747,37.6127,1022.72
28196,-0.65715,9.84227,-0.327694,0.07,-0.21,-0.49,27.87,-65.0606,35.191,1022.72
28202,-0.680848,9.85656,-0.341949,0.21,-0.28,-0.42,28.225,-64.3975,34.9385,1022.73
28208,-0.614492,9.80417,-0.327694,0.35,-0.21,-0.42,28.7711,-68.0446,37.7761,1022.73
28214,-0.761423,9.84703,-0.337197,0.28,-0.14,-0.35,28.1158,-66.0552,36.8253,1022.68
28220,-0.685588,9.80417,-0.313438,0.21,-0.14,-0.35,28.3069,-64.0056,35.399,1022.68
28226,-0.619232,9.81846,-0.356205,0.21,-0.28,-0.28,28.0339,-67.5623,36.4093,1022.7
28232,-0.614492,9.79941,-0.31819,0.14,-0.35,-0.35,27.7608,-67.2307,36.6173,1022.7
28238,-0.690327,9.85656,-0.313438,0.35,-0.21,-0.49,27.8973,-63.8549,35.5179,1022.7
28244,-0.628711,9.81846,-0.351453,0.49,-0.14,-0.42,28.3342,-65.5428,34.6116,1022.69
28250,-0.65715,9.82798,-0.337197,0.28,-0.14,-0.42,28.3342,-67.5623,36.1716,1022.69
28256,-0.680848,9.78512,-0.327694,0.28,-0.14,-0.49,28.4162,-64.7592,35.2802,1022.68
28262,-0.623972,9.84227,-0.389468,0.42,-0.14,-0.49,27.6243,-64.9701,36.543,1022.68
28268,-0.661889,9.82798,-0.365709,0.42,0,-0.56,28.9077,-68.3158,37.271,1022.7
28274,-0.65241,9.81846,-0.341949,0.35,-0.07,-0.56,27.8973,-66.3868,35.5624,1022.7
28280,-0.666629,9.81846,-0.365709,0.28,-0.28,-0.56,28.3069,-63.6439,35.2802,1022.7
28286,-0.685588,9.87561,-0.322942,0.21,-0.21,-0.56,28.2796,-67.7431,36.6024,1022.66
28292,-0.661889,9.81846,-0.413227,0.35,-0.21,-0.56,27.4877,-68.9488,35.7704,1022.66
28298,-0.685588,9.87561,-0.370461,0.28,-0.14,-0.56,28.8258,-64.2769,35.3247,1022.68
28304,-0.609753,9.82322,-0.375212,0.35,-0.14,-0.49,28.6073,-66.2361,35.6367,1022.68
28310,-0.642931,9.84227,-0.327694,0.28,-0.21,-0.49,27.5423,-68.1953,36.4538,1022.69
28316,-0.65715,9.82798,-0.313438,0.35,-0.21,-0.49,28.2523,-65.1208,35.7556,1022.69
28322,-0.64767,9.81846,-0.389468,0.49,-0.14,-0.49,28.9896,-65.0606,35.8596,1022.71
28328,-0.685588,9.83751,-0.337197,0.28,-0.07,-0.42,28.8804,-68.2556,36.0824,1022.71
28334,-0.609753,9.85179,-0.356205,0.14,-0.07,-0.49,28.3888,-66.8389,36.0081,1022.71
28340,-0.709286,9.85656,-0.303934,0.35,-0.21,-0.42,28.4435,-64.3673,34.4333,1022.69
28346,-0.671369,9.84703,-0.389468,0.35,-0.14,-0.42,29.1261,-67.0499,36.3201,1022.69
28352,-0.65715,9.82798,-0.337197,0.14,-0.14,-0.42,28.225,-66.7183,36.4093,1022.7
28358,-0.642931,9.81369,-0.313438,0.28,-0.14,-0.49,28.8804,-64.3975,35.7556,1022.7
28364,-0.704547,9.80893,-0.356205,0.42,-0.07,-0.56,29.0715,-66.2662,36.3647,1022.7
28370,-0.666629,9.84703,-0.360957,0.28,-0.07,-0.49,29.0442,-67.9541,36.8401,1022.7
28376,-0.661889,9.85656,-0.332446,0.28,-0.07,-0.49,28.6619,-65.151,36.0973,1022.7
28382,-0.685588,9.85656,-0.322942,0.35,-0.14,-0.49,28.8804,-64.8797,35.0127,1022.68
28388,-0.723505,9.81846,-0.346701,0.28,-0.07,-0.56,28.3069,-68.0144,36.023,1022.68
28394,-0.633451,9.82798,-0.322942,0.28,-0.14,-0.56,28.6619,-67.502,35.191,1022.67
28400,-0.64767,9.83274,-0.379964,0.42,-0.21,-0.49,28.4708,-64.2467,35.5179,1022.67
28406,-0.642931,9.82798,-0.375212,0.42,-0.07,-0.49,28.7711,-67.3212,36.2459,1022.68
28412,-0.628711,9.79941,-0.370461,0.28,-0.14,-0.56,27.515,-67.6829,36.2013,1022.68
28418,-0.666629,9.82798,-0.337197,0.21,-0.14,-0.56,27.3785,-63.7042,35.8299,1022.7
28424,-0.666629,9.82322,-0.322942,0.28,-0.14,-0.63,27.9792,-66.1758,35.7853,1022.7
28430,-0.695067,9.80417,-0.341949,0.28,-0.07,-0.63,28.1704,-68.135,37.5532,1022.7
28436,-0.699807,9.86132,-0.337197,0.28,-0.07,-0.49,28.4708,-64.8194,36.0081,1022.69
28442,-0.64767,9.86608,-0.31819,0.28,-0.14,-0.49,28.3069,-64.2166,35.1762,1022.69
28448,-0.699807,9.78988,-0.384716,0.21,-0.21,-0.49,28.4435,-68.1953,36.231,1022.7
28454,-0.685588,9.81846,-0.384716,0.21,-0.21,-0.42,28.6619,-66.3868,36.8401,1022.7
28460,-0.623972,9.81846,-0.356205,0.35,-0.14,-0.35,28.7984,-63.4028,35.9487,1022.67
28466,-0.676108,9.83751,-0.346701,0.35,-0.14,-0.35,28.6619,-67.6829,37.0035,1022.67
28472,-0.65241,9.81369,-0.365709,0.28,-0.21,-0.42,27.9792,-67.4719,36.7955,1022.68
28478,-0.699807,9.82322,-0.39422,0.28,-0.28,-0.35,28.6346,-64.6687,35.6813,1022.68
28484,-0.64767,9.77083,-0.356205,0.28,-0.35,-0.35,28.4708,-66.2964,35.8596,1022.68
28490,-0.714026,9.84227,-0.313438,0.28,-0.14,-0.35,28.1158,-68.9187,36.959,1022.7
28496,-0.661889,9.79941,-0.322942,0.21,-0.21,-0.42,28.0339,-65.6333,36.2161,1022.7
28502,-0.65715,9.78036,-0.365709,0.21,-0.28,-0.49,28.4162,-64.2467,35.8299,1022.68
28508,-0.671369,9.82798,-0.365709,0.14,-0.21,-0.49,28.5254,-68.557,36.855,1022.68
28514,-0.709286,9.78512,-0.294431,0.21,-0.21,-0.56,28.2796,-66.4772,37.2413,1022.68
28520,-0.685588,9.8899,-0.379964,0.28,-0.21,-0.49,28.6073,-63.7343,34.8345,1022.68
28526,-0.666629,9.80417,-0.365709,0.21,-0.35,-0.49,28.4981,-67.1705,35.8002,1022.68
28532,-0.633451,9.76131,-0.327694,0.14,-0.42,-0.49,28.5254,-67.8034,37.271,1022.69
28538,-0.64767,9.81369,-0.299183,0.14,-0.35,-0.56,27.597,-63.5234,36.1567,1022.69
28544,-0.723505,9.88037,-0.44649,0.42,-0.14,-0.56,28.3069,-64.9099,36.1716,1022.69
28550,-0.732985,9.90418,-0.379964,0.07,-0.35,-0.49,28.8804,-67.924,37.2413,1022.69
28556,-0.65715,9.81369,-0.308686,-0.14,-0.7,-0.49,28.4162,-64.4276,36.3498,1022.67
28562,-0.567095,9.79941,-0.341949,-0.07,-0.56,-0.49,28.4435,-64.1865,35.8447,1022.67
28568,-0.609753,9.79941,-0.289679,0.07,-0.21,-0.56,27.9519,-67.2609,36.8847,1022.67
28574,-0.638191,9.83751,-0.365709,0.35,0,-0.63,28.6619,-67.3212,35.7704,1022.67
28580,-0.65715,9.84703,-0.389468,0.42,0.07,-0.56,28.8258,-63.7343,34.5076,1022.67
28586,-0.728245,9.84703,-0.370461,0.14,-0.14,-0.56,28.6892,-67.1705,35.6219,1022.66
28592,-0.619232,9.82322,-0.346701,-0.14,-0.49,-0.63,27.1327,-67.6829,36.2161,1022.66
28598,-0.64767,9.83274,-0.332446,0.28,-0.14,-0.63,28.8258,-63.9453,36.6618,1022.69
28604,-0.714026,9.86608,-0.322942,0.35,-0.14,-0.63,28.7984,-64.7893,35.7259,1022.69
28610,-0.638191,9.80417,-0.346701,0.21,-0.14,-0.63,28.225,-68.6173,36.8104,1022.68
28616,-0.65241,9.81846,-0.346701,0.49,-0.07,-0.77,28.4981,-64.6989,36.5727,1022.68
28622,-0.609753,9.78988,-0.356205,0.63,0.14,-0.84,28.4708,-63.9152,34.4928,1022.68
28628,-0.699807,9.82798,-0.351453,0.63,0,-0.7,28.3888,-67.6226,36.2013,1022.68
28634,-0.666629,9.84227,-0.360957,0.56,0.07,-0.7,28.7438,-66.2662,35.7704,1022.68
28640,-0.699807,9.86132,-0.384716,0.56,0.14,-0.7,28.225,-63.2822,34.6562,1022.7
28646,-0.718766,9.88037,-0.432235,0.56,-0.21,-0.84,29.0715,-67.5322,36.2607,1022.7
28652,-0.543397,9.68511,-0.218401,0.07,-0.35,-1.05,28.6073,-67.6226,37.4344,1022.69
28658,-0.571835,9.79464,-0.365709,1.05,0.21,-1.26,28.1431,-63.8549,35.3545,1022.69
28664,-0.638191,9.94705,-0.455994,0.63,0.14,-1.26,28.7165,-65.4524,36.0973,1022.67
28670,-0.64767,9.79941,-0.299183,-0.63,-0.63,-1.4,28.7984,-67.6527,36.0824,1022.67
28676,-0.619232,9.61367,-0.199393,-0.14,-0.28,-1.4,28.7984,-64.3975,34.6413,1022.67
28682,-0.65241,9.81846,-0.408476,0.35,0,-1.26,28.9077,-64.307,35.3396,1022.71
28688,-0.751944,9.82322,-0.31819,0.14,-0.14,-1.26,28.3888,-67.3513,36.3647,1022.71
28694,-0.685588,9.86608,-0.370461,0.28,-0.49,-1.33,28.0612,-66.0251,36.959,1022.71
28700,-0.704547,9.86132,-0.441739,0.21,-0.35,-1.19,28.1431,-63.2521,36.0676,1022.71
28706,-0.676108,9.86132,-0.337197,0.21,-0.42,-1.05,28.6892,-66.8992,35.9339,1022.68
28712,-0.619232,9.86608,-0.356205,0.21,-0.42,-1.05,27.9246,-67.6829,36.5281,1022.68
28718,-0.709286,9.80417,-0.346701,0.21,-0.35,-0.98,28.0066,-63.6741,36.0081,1022.68
28724,-0.704547,9.81369,-0.379964,0.42,-0.42,-1.05,28.0339,-65.4826,34.2699,1022.71
28730,-0.576575,9.77559,-0.194641,0.49,-0.07,-1.19,28.6073,-68.1651,36.4093,1022.71
28736,-0.661889,9.81846,-0.365709,0.77,0.28,-1.26,28.225,-63.9152,35.5624,1022.7
28742,-0.619232,9.83274,-0.39422,0.98,0.42,-1.26,28.9077,-63.9152,35.3247,1022.7
28748,-0.728245,9.85179,-0.375212,0.77,0.42,-1.26,28.1704,-67.5322,36.2013,1022.68
28754,-0.671369,9.79941,-0.261168,0.56,0,-1.26,28.0885,-65.7538,36.1121,1022.68
28760,-0.65715,9.79941,-0.356205,1.05,0.56,-1.26,28.3615,-63.3124,35.5773,1022.69
28766,-0.714026,9.928,-0.417979,1.05,0.56,-1.26,28.0885,-66.1155,35.5773,1022.69
28772,-0.728245,9.86608,-0.560535,0.91,0.35,-1.12,27.9792,-67.7431,35.6664,1022.69
28778,-0.837258,9.91847,-0.313438,0.56,0.14,-0.98,28.4162,-63.3425,35.4436,1022.7
28784,-0.586054,9.76131,-0.403724,0.35,-0.14,-0.91,28.5527,-65.6031,35.7259,1022.7
28790,-0.789861,9.84703,-0.403724,0.98,0.77,-0.91,28.5527,-68.5268,35.7704,1022.67
28796,-0.80882,9.95657,-0.308686,0.56,0,-0.84,28.3888,-65.1208,35.4585,1022.67
28802,-0.581314,9.78036,-0.337197,-0.35,-0.84,-0.84,28.5254,-64.307,35.0127,1022.68
28808,-0.623972,9.66129,-0.204145,0.28,-0.07,-0.91,28.3888,-67.5322,37.3452,1022.68
28814,-0.756683,9.95657,-0.479754,0.56,0,-0.91,28.3888,-66.2964,36.0973,1022.69
28820,-0.695067,9.78512,-0.213649,-0.14,-0.42,-0.84,28.2523,-63.5836,34.9979,1022.69
28826,-0.557616,9.71844,-0.332446,0.28,-0.35,-0.98,29.0169,-66.4169,35.9339,1022.69
28832,-0.666629,9.82798,-0.39422,0.77,0.42,-0.98,28.6892,-67.1705,36.5281,1022.7
28838,-0.633451,9.77083,-0.337197,0.14,-0.21,-0.84,28.4981,-64.0056,35.1316,1022.7
28844,-0.633451,9.82798,-0.337197,0.42,0.07,-0.84,28.0339,-65.5428,36.6915,1022.69
28850,-0.728245,9.83274,-0.327694,0.7,0.21,-0.98,28.4162,-68.1953,36.7955,1022.69
28856,-0.737725,9.84227,-0.360957,0.42,-0.14,-0.98,28.58,-64.7893,36.959,1022.69
28862,-0.690327,9.76131,-0.375212,0.14,-0.21,-0.98,28.2523,-64.307,36.4241,1022.69
28868,-0.794601,9.82798,-0.356205,0.63,0.14,-1.05,28.5527,-67.7431,36.3498,1022.69
28874,-0.704547,9.80417,-0.422731,0.21,-0.35,-1.12,28.6073,-66.2662,35.4436,1022.67
28880,-0.690327,9.78988,-0.308686,0,-0.42,-0.98,27.9246,-63.7946,34.9088,1022.67
28886,-0.742464,9.76607,-0.337197,0.35,-0.07,-0.84,28.8531,-67.1403,35.3545,1022.68
28892,-0.685588,9.82322,-0.346701,0.28,-0.21,-0.84,28.9077,-68.0747,36.855,1022.68
28898,-0.642931,9.79464,-0.346701,0.21,-0.14,-0.91,28.6619,-63.4631,35.607,1022.67
28904,-0.685588,9.81846,-0.289679,0.63,0.21,-0.84,28.8258,-65.7237,35.7259,1022.67
28910,-0.628711,9.87084,-0.351453,0.77,0,-0.91,29.208,-67.924,36.2459,1022.68
28916,-0.718766,9.85656,-0.365709,0.56,0.21,-0.98,28.7438,-64.6989,36.0081,1022.68
28922,-0.633451,9.87084,-0.356205,0.56,-0.14,-0.84,28.7165,-64.3975,35.2505,1022.68
28928,-0.728245,9.85656,-0.356205,0.42,0,-0.84,28.225,-67.6226,36.3498,1022.67
28934,-0.761423,9.83751,-0.313438,0.42,0,-0.84,28.5254,-66.7786,35.9784,1022.67
28940,-0.723505,9.85179,-0.441739,0.56,-0.07,-0.77,28.5254,-63.2219,35.0276,1022.67
28946,-0.676108,9.75178,-0.261168,0.07,-0.21,-0.77,28.6346,-66.7183,36.4687,1022.67
28952,-0.567095,9.82798,-0.398972,0.56,-0.21,-0.91,28.8804,-67.2006,36.2161,1022.69
28958,-0.638191,9.88037,-0.432235,0.91,0.42,-0.77,28.5527,-64.5783,35.3099,1022.69
28964,-0.728245,9.83274,-0.44649,0.77,0.35,-0.77,28.4708,-64.94,36.4836,1022.69
28970,-0.766163,9.83274,-0.351453,0.56,-0.42,-0.7,28.3342,-68.4364,38.2812,1022.69
28976,-0.661889,9.83274,-0.351453,0.28,-0.21,-0.84,28.58,-65.0003,36.3053,1022.69
28982,-0.676108,9.79464,-0.265919,0.42,0.07,-0.77,28.1431,-63.7946,35.1316,1022.68
28988,-0.680848,9.88513,-0.379964,0.63,-0.07,-0.84,28.1158,-67.6226,36.2756,1022.68
28994,-0.728245,9.82322,-0.379964,0.49,0,-0.84,27.8973,-66.3566,36.8253,1022.68
29000,-0.676108,9.78512,-0.346701,0.21,-0.21,-0.84,27.9519,-62.8,35.8002,1022.68
29006,-0.65241,9.80417,-0.337197,0.21,-0.28,-0.77,28.8531,-66.869,36.4984,1022.66
29012,-0.642931,9.88513,-0.351453,0.28,-0.28,-0.77,27.7608,-67.3815,36.439,1022.66
29018,-0.671369,9.78988,-0.379964,0.56,0.07,-0.7,28.7438,-64.4577,35.711,1022.66
29024,-0.723505,9.86132,-0.389468,0.21,-0.42,-0.7,28.6619,-64.3975,36.8253,1022.69
29030,-0.680848,9.82322,-0.341949,0.07,-0.42,-0.63,27.7335,-67.6829,37.2858,1022.69
29036,-0.723505,9.83751,-0.337197,0.21,-0.35,-0.7,28.0885,-64.5783,35.3842,1022.66
29042,-0.718766,9.84227,-0.39422,0.28,-0.28,-0.56,28.7711,-63.7645,35.2059,1022.66
29048,-0.732985,9.83274,-0.365709,0.28,-0.21,-0.56,28.1158,-67.5623,36.3647,1022.65
29054,-0.552876,9.82322,-0.313438,0,-0.42,-0.7,27.1327,-66.9595,35.3842,1022.65
29060,-0.666629,9.80417,-0.346701,0.42,0.07,-0.63,28.8804,-63.0411,33.7796,1022.65
29066,-0.766163,9.86608,-0.365709,0.56,0.07,-0.7,27.6789,-66.0854,34.9682,1022.67
29072,-0.671369,9.85656,-0.436987,0.14,-0.14,-0.63,28.4708,-66.5074,37.0778,1022.67
29078,-0.718766,9.86132,-0.327694,0.21,-0.28,-0.56,28.7711,-64.0056,34.775,1022.72
29084,-0.623972,9.88513,-0.379964,0.35,-0.35,-0.63,29.3719,-66.0251,35.5624,1022.72
29090,-0.690327,9.83751,-0.346701,0.35,-0.35,-0.63,28.4162,-68.7981,37.2264,1022.68
29096,-0.704547,9.80417,-0.337197,0.35,-0.21,-0.63,27.7062,-65.573,33.9431,1022.68
29102,-0.709286,9.82798,-0.432235,0.35,-0.21,-0.63,28.6073,-63.9755,34.2848,1022.69
29108,-0.676108,9.81369,-0.356205,-0.28,-0.7,-0.63,28.6073,-66.5074,36.1716,1022.69
29114,-0.685588,9.80893,-0.436987,-0.42,-0.77,-0.63,28.5254,-66.1155,36.6024,1022.69
29120,-0.723505,9.88037,-0.341949,-0.49,-0.77,-0.63,28.4162,-62.8904,34.8939,1022.69
29126,-0.704547,9.86132,-0.341949,-0.7,-1.19,-0.63,28.0339,-67.1403,36.2904,1022.69
29132,-0.690327,9.88037,-0.398972,-0.7,-1.05,-0.84,27.9792,-66.4169,36.9887,1022.7
29138,-0.789861,9.928,-0.389468,-1.05,-1.4,-0.91,28.0339,-63.2521,35.5624,1022.7
29144,-0.714026,9.84227,-0.31819,-1.4,-1.68,-0.98,28.3342,-64.6687,34.6562,1022.7
29150,-0.695067,9.73749,-0.308686,-1.26,-1.47,-0.91,29.0169,-67.08,37.1372,1022.7
29156,-0.723505,9.83274,-0.356205,-0.63,-1.4,-0.91,27.515,-64.4276,35.191,1022.68
29162,-0.732985,9.78036,-0.327694,-0.98,-1.12,-0.91,28.9896,-63.6439,35.087,1022.68
29168,-0.642931,9.80417,-0.389468,-0.91,-1.47,-1.19,28.4435,-67.2006,36.5578,1022.68
29174,-0.789861,9.79941,-0.308686,-0.91,-1.12,-0.98,28.1158,-65.6935,37.0778,1022.65
29180,-0.751944,9.94705,-0.39422,-0.77,-1.54,-0.98,28.4708,-62.9205,35.1465,1022.65
29186,-0.709286,9.70892,-0.175634,-1.96,-1.96,-1.05,28.58,-66.5676,35.0573,1022.66
29192,-0.642931,9.77083,-0.39422,-1.68,-2.24,-1.05,28.1977,-67.5623,35.7407,1022.66
29198,-0.723505,9.85656,-0.351453,-1.54,-1.75,-1.05,27.9792,-63.9453,33.8688,1022.68
29204,-0.80882,9.78988,-0.227905,-1.47,-1.61,-1.19,28.4435,-63.9152,34.4036,1022.68
29210,-0.619232,9.84703,-0.303934,-1.33,-1.89,-1.26,28.4981,-67.291,35.8596,1022.68
29216,-0.761423,9.82798,-0.246912,-1.26,-1.47,-1.19,28.2796,-66.0854,34.4333,1022.69
29222,-0.704547,9.86608,-0.356205,-1.54,-1.75,-1.33,27.7062,-64.3673,35.1762,1022.69
29228,-0.619232,9.86608,-0.280175,-1.96,-2.03,-1.4,28.3615,-68.0144,36.023,1022.65
29234,-0.728245,9.80893,-0.351453,-2.17,-2.24,-1.54,27.597,-66.9896,36.1716,1022.65
29240,-0.695067,9.78512,-0.360957,-2.66,-2.31,-1.68,28.225,-63.7946,35.0276,1022.67
29246,-0.732985,9.83274,-0.246912,-2.59,-2.66,-1.82,28.6892,-66.0251,35.1316,1022.67
29252,-0.714026,9.84703,-0.365709,-2.52,-2.66,-1.82,28.3888,-67.3212,36.2013,1022.69
29258,-0.737725,9.80893,-0.337197,-2.31,-2.45,-1.96,27.7881,-63.7343,35.6367,1022.69
29264,-0.732985,9.69939,-0.299183,-2.03,-2.38,-1.68,28.1158,-65.2414,35.7704,1022.69
29270,-0.676108,9.77083,-0.275423,-1.75,-2.17,-1.68,28.8804,-67.5623,36.023,1022.71
29276,-0.732985,9.79941,-0.280175,-1.19,-1.61,-1.68,28.1704,-64.4879,35.2802,1022.71
29282,-0.699807,9.84703,-0.265919,-0.77,-1.26,-1.54,28.6619,-64.0056,34.671,1022.67
29288,-0.685588,9.76607,-0.360957,-0.7,-1.05,-1.61,29.0169,-66.869,36.3053,1022.67
29294,-0.704547,9.84703,-0.208897,-0.56,-0.91,-1.54,28.7165,-66.0251,36.231,1022.7
29300,-0.718766,9.81369,-0.346701,-0.14,-0.56,-1.26,28.58,-63.8549,34.4482,1022.7
29306,-0.766163,9.87561,-0.346701,0,-0.35,-1.19,28.5527,-66.6279,35.8447,1022.7
29312,-0.80408,9.81846,-0.308686,-0.14,-0.49,-1.05,28.5254,-67.08,35.7704,1022.66
29318,-0.789861,9.83751,-0.280175,-0.21,-0.56,-0.77,28.3615,-63.6439,35.8596,1022.66
29324,-0.761423,9.78036,-0.294431,-0.14,-0.63,-0.77,28.7438,-64.8797,34.8493,1022.71
29330,-0.714026,9.80417,-0.289679,-0.14,-0.56,-0.7,28.8804,-67.924,34.8939,1022.71
29336,-0.723505,9.81846,-0.322942,0,-0.42,-0.63,28.0885,-64.6989,36.4241,1022.68
29342,-0.737725,9.83274,-0.313438,0.28,-0.42,-0.63,29.3719,-63.8549,35.1762,1022.68
29348,-0.723505,9.82798,-0.265919,0.21,-0.49,-0.77,29.1261,-67.6829,36.231,1022.68
29354,-0.704547,9.84703,-0.275423,0.49,-0.07,-0.63,28.4708,-66.0552,35.9487,1022.68
29360,-0.785122,9.83274,-0.337197,0.7,0.14,-0.56,28.6346,-62.589,35.3693,1022.68
29366,-0.728245,9.91847,-0.337197,0.56,0,-0.49,28.9077,-66.4169,35.7259,1022.66
29372,-0.680848,9.79464,-0.223153,0.35,-0.21,-0.49,28.6346,-67.1705,36.3053,1022.66
29378,-0.695067,9.78988,-0.303934,0.49,-0.07,-0.42,29.4538,-63.9152,35.087,1022.68
29384,-0.64767,9.73749,-0.294431,0.77,0.14,-0.42,29.0442,-63.8248,34.8642,1022.68
29390,-0.742464,9.82798,-0.270671,0.7,0.21,-0.42,28.5527,-67.6527,36.6321,1022.66
29396,-0.742464,9.90418,-0.284927,0.77,0.14,-0.42,28.7165,-64.6989,36.7955,1022.66
29402,-0.714026,9.78988,-0.270671,0.77,0.21,-0.35,29.1534,-63.4028,34.8048,1022.69
29408,-0.732985,9.80417,-0.275423,0.91,0.28,-0.49,28.2796,-67.6527,37.0035,1022.69
29414,-0.728245,9.87084,-0.303934,1.05,0.35,-0.42,28.4981,-66.3868,38.2218,1022.69
29420,-0.770902,9.84227,-0.341949,1.05,0.42,-0.28,27.2147,-63.8851,35.0573,1022.71
29426,-0.680848,9.83274,-0.341949,0.7,0.21,-0.35,28.9896,-66.1457,38.1326,1022.71
29432,-0.709286,9.82798,-0.351453,0.84,0.14,-0.42,29.0169,-67.2006,37.4641,1022.67
29438,-0.704547,9.78988,-0.299183,0.77,0.14,-0.35,29.3446,-64.1563,35.2505,1022.67
29444,-0.699807,9.77083,-0.31819,0.98,0.21,-0.28,29.2627,-65.5127,33.9728,1022.69
29450,-0.714026,9.80893,-0.346701,1.19,0.42,-0.28,28.0885,-67.6527,37.0035,1022.69
29456,-0.709286,9.80893,-0.308686,0.77,0.35,-0.21,28.7711,-64.6989,35.8299,1022.69
29462,-0.676108,9.82798,-0.265919,0.7,0.28,-0.21,29.0442,-64.2769,35.1613,1022.69
29468,-0.761423,9.76131,-0.24216,0.98,0.42,-0.28,28.7984,-67.8034,36.4241,1022.69
29474,-0.718766,9.87561,-0.322942,1.19,0.63,-0.28,28.6892,-65.9648,36.6767,1022.69
29480,-0.642931,9.87561,-0.322942,0.98,0.28,-0.21,28.3342,-63.7343,34.8196,1022.69
29486,-0.714026,9.80893,-0.360957,0.84,0.42,-0.14,28.9896,-66.1155,36.6915,1022.69
29492,-0.756683,9.79464,-0.294431,1.05,0.63,-0.21,28.0339,-67.8336,37.5384,1022.69
29498,-0.690327,9.83274,-0.289679,1.19,0.49,-0.21,28.8804,-64.096,36.1716,1022.7
29504,-0.714026,9.89466,-0.375212,1.26,0.49,-0.21,29.3446,-65.8141,35.1613,1022.7
29510,-0.775642,9.84703,-0.351453,1.19,0.63,-0.21,28.7984,-67.9843,36.5133,1022.7
29516,-0.742464,9.84703,-0.270671,1.19,0.7,-0.21,28.5254,-64.9099,35.5773,1022.68
29522,-0.723505,9.79941,-0.351453,1.26,0.63,-0.14,28.7438,-64.2769,34.6413,1022.68
29528,-0.709286,9.79464,-0.246912,1.19,0.63,-0.07,28.4435,-66.6279,36.6321,1022.71
29534,-0.742464,9.84703,-0.308686,1.12,0.77,0,28.7711,-66.5676,35.919,1022.71
29540,-0.728245,9.81846,-0.237408,0.91,0.84,-0.07,28.6892,-63.2822,34.3591,1022.66
29546,-0.718766,9.76131,-0.256416,1.19,0.7,0.07,28.5254,-66.3868,35.6219,1022.66
29552,-0.680848,9.81369,-0.436987,1.47,0.98,0.07,27.7335,-67.5924,36.1716,1022.66
29558,-0.846738,9.86608,-0.313438,1.33,0.63,0.21,28.0885,-63.4932,36.023,1022.69
29564,-0.642931,9.79941,-0.379964,0.91,0.35,0.14,28.3069,-64.7893,35.1019,1022.69
29570,-0.638191,9.77559,-0.251664,1.05,0.63,-0.07,28.6346,-67.9541,35.8744,1022.65
29576,-0.756683,9.83274,-0.208897,1.54,0.91,-0.14,27.7335,-65.151,35.6962,1022.65
29582,-0.832518,9.88037,-0.341949,1.61,0.91,-0.07,28.9623,-64.1262,34.5819,1022.69
29588,-0.666629,9.82322,-0.332446,0.91,0.42,-0.28,29.1807,-67.2609,36.439,1022.69
29594,-0.704547,9.78512,-0.16613,0.91,0.7,-0.21,28.1158,-66.0854,36.2607,1022.69
29600,-0.80408,9.86132,-0.246912,1.47,0.63,-0.21,28.3342,-63.5836,34.0174,1022.69
29606,-0.747204,9.84227,-0.47025,1.61,0.7,-0.07,28.6619,-66.869,35.503,1022.69
29612,-0.761423,9.73749,-0.223153,0.56,0.49,-0.21,28.4981,-67.5322,35.6219,1022.7
29618,-0.690327,9.86132,-0.375212,1.05,0.42,-0.28,28.5254,-64.3975,35.0722,1022.7
29624,-0.780382,9.86132,-0.455994,1.33,1.05,0,28.1158,-65.4223,36.4984,1022.71
29630,-0.751944,9.85656,-0.18989,0.91,0.63,-0.07,28.7984,-68.135,36.9887,1022.71
29636,-0.642931,9.79464,-0.313438,0.91,0.21,-0.14,28.1977,-65.0907,36.2607,1022.69
29642,-0.832518,9.84703,-0.332446,1.4,0.98,-0.21,28.4435,-64.1262,35.4436,1022.69
29648,-0.827779,9.88513,-0.303934,1.19,0.7,-0.14,28.4981,-67.502,35.8299,1022.69
29654,-0.65715,9.79464,-0.356205,0.98,0.35,-0.07,28.5254,-67.1403,36.0676,1022.7
29660,-0.737725,9.80417,-0.332446,1.05,0.77,-0.07,28.2796,-63.5836,35.4585,1022.7
29666,-0.718766,9.84227,-0.413227,0.77,0.28,-0.07,28.3342,-67.5322,36.335,1022.67
29672,-0.676108,9.80417,-0.299183,0.7,0.49,-0.14,28.4162,-67.8034,36.7064,1022.67
29678,-0.747204,9.84703,-0.227905,0.91,0.42,-0.07,27.7881,-63.5836,36.2013,1022.71
29684,-0.642931,9.84703,-0.375212,1.05,0.56,0,28.2523,-65.9045,36.0676,1022.71
29690,-0.742464,9.78512,-0.322942,0.91,0.63,-0.07,28.1431,-67.8939,36.231,1022.69
29696,-0.718766,9.83751,-0.322942,1.05,0.56,-0.14,27.8154,-65.3318,36.0824,1022.69
29702,-0.756683,9.84703,-0.322942,1.12,0.49,-0.21,27.9792,-63.7946,34.8345,1022.69
29708,-0.709286,9.85179,-0.365709,0.84,0.42,-0.21,28.225,-66.8389,36.023,1022.72
29714,-0.785122,9.85656,-0.299183,0.91,0.49,-0.14,28.7165,-66.6581,35.4733,1022.72
29720,-0.718766,9.88513,-0.356205,1.05,0.7,-0.35,28.1977,-63.7343,35.0127,1022.68
29726,-0.732985,9.89466,-0.341949,0.77,0.49,-0.28,27.8973,-67.3212,34.7899,1022.68
29732,-0.785122,9.82798,-0.365709,0.49,0.14,-0.28,28.7438,-67.6226,36.9887,1022.68
29738,-0.709286,9.81369,-0.346701,0.56,0.21,-0.35,29.2354,-63.8851,35.8744,1022.68
29744,-0.676108,9.85656,-0.389468,0.49,0.14,-0.28,28.4981,-65.4826,34.8939,1022.7
29750,-0.709286,9.84227,-0.379964,0.56,0,-0.21,29.4265,-68.3158,37.8058,1022.7
29756,-0.742464,9.83274,-0.327694,0.49,0,-0.21,29.0715,-64.6386,36.439,1022.7
29762,-0.737725,9.83274,-0.332446,0.42,0.07,-0.35,29.0715,-63.6439,35.503,1022.68
29768,-0.742464,9.80417,-0.370461,0.49,0,-0.28,29.0169,-67.4417,37.7761,1022.68
29774,-0.671369,9.80417,-0.356205,0.56,0.21,-0.28,27.6516,-66.5978,37.1818,1022.69
29780,-0.718766,9.84703,-0.351453,0.56,0.28,-0.28,28.8258,-64.3372,34.7156,1022.69
29786,-0.756683,9.78988,-0.322942,0.49,0.21,-0.28,28.9077,-66.5676,35.6664,1022.71
29792,-0.714026,9.85656,-0.303934,0.49,0.21,-0.28,28.6346,-67.6527,37.5978,1022.71
29798,-0.699807,9.84703,-0.389468,0.49,0.21,-0.28,28.4435,-64.1563,35.711,1022.71
29804,-0.718766,9.80417,-0.346701,0.35,-0.14,-0.21,28.5527,-65.2113,34.7899,1022.72
29810,-0.723505,9.81369,-0.346701,0.35,-0.07,-0.21,28.8531,-67.8939,36.5578,1022.72
29816,-0.751944,9.88037,-0.346701,0.35,-0.14,-0.14,29.0442,-65.573,35.2653,1022.68
29822,-0.704547,9.84227,-0.351453,0.21,-0.21,-0.14,28.5527,-64.2467,35.1465,1022.68
29828,-0.676108,9.79464,-0.313438,0.42,-0.07,-0.28,28.2796,-68.1049,34.9533,1022.7
29834,-0.728245,9.86132,-0.351453,0.42,0,-0.35,28.7711,-66.7786,37.4195,1022.7
29840,-0.723505,9.83274,-0.322942,0.35,-0.14,-0.28,28.7165,-62.6191,36.023,1022.67
29846,-0.586054,9.79464,-0.375212,0.42,-0.14,-0.35,28.6346,-66.4169,36.9144,1022.67
29852,-0.751944,9.83274,-0.337197,0.7,0.21,-0.35,28.0066,-67.2006,36.751,1022.67
29858,-0.661889,9.88037,-0.365709,0.28,-0.07,-0.42,28.6892,-63.8851,36.439,1022.7
29864,-0.714026,9.79464,-0.31819,0.28,0,-0.42,28.6346,-64.6687,36.8104,1022.7
29870,-0.65715,9.81369,-0.351453,0.56,0,-0.28,28.58,-67.502,37.063,1022.66
29876,-0.718766,9.86132,-0.389468,0.7,0.07,-0.28,28.3342,-64.3673,36.5133,1022.66
29882,-0.728245,9.77559,-0.289679,0.28,-0.07,-0.35,28.5527,-64.2467,36.7361,1022.69
29888,-0.761423,9.82322,-0.360957,0.49,-0.07,-0.35,28.8531,-67.2006,36.3053,1022.69
29894,-0.699807,9.82798,-0.441739,0.56,0.07,-0.35,29.0715,-66.7183,37.6572,1022.69
29900,-0.747204,9.84703,-0.341949,0.42,-0.07,-0.28,29.2354,-63.5234,35.8596,1022.68
29906,-0.699807,9.86132,-0.351453,0.42,-0.14,-0.42,28.9896,-66.5978,36.1567,1022.68
29912,-0.699807,9.86132,-0.379964,0.14,-0.21,-0.28,28.6346,-67.3815,37.5235,1022.68
29918,-0.676108,9.80417,-0.365709,-0.07,-0.21,-0.35,29.2354,-63.7343,35.0425,1022.68
29924,-0.685588,9.84703,-0.360957,0.07,-0.21,-0.42,29.5903,-65.0304,35.399,1022.67
29930,-0.723505,9.76607,-0.375212,0.28,-0.07,-0.35,29.2354,-67.502,37.479,1022.67
29936,-0.737725,9.81846,-0.356205,0.21,-0.14,-0.35,28.7165,-65.2414,35.711,1022.68
29942,-0.732985,9.87561,-0.346701,0.14,-0.21,-0.42,27.8973,-64.1262,34.8196,1022.68
29948,-0.742464,9.85656,-0.337197,0.28,-0.21,-0.35,29.918,-67.5924,37.1224,1022.68
29954,-0.742464,9.81369,-0.346701,0.35,-0.14,-0.28,28.7165,-66.6581,36.1567,1022.72
29960,-0.728245,9.82798,-0.322942,0.42,-0.14,-0.42,28.7165,-64.096,34.9533,1022.72
29966,-0.761423,9.85179,-0.351453,0.56,-0.07,-0.42,28.4981,-65.8442,36.1716,1022.7
29972,-0.642931,9.81846,-0.389468,0.63,-0.07,-0.42,28.4435,-67.5924,37.2264,1022.7
29978,-0.737725,9.86132,-0.379964,0.49,-0.07,-0.42,27.9792,-64.0056,36.439,1022.68
29984,-0.728245,9.81846,-0.313438,0.42,-0.14,-0.35,29.0715,-64.6386,35.3842,1022.68
29990,-0.714026,9.82322,-0.398972,0.49,0,-0.28,28.8804,-68.3761,37.4195,1022.68
29996,-0.714026,9.82798,-0.365709,0.56,0,-0.35,28.58,-65.6031,35.919,1022.66
30002,-0.699807,9.84227,-0.370461,0.49,0.07,-0.42,28.935,-63.8248,35.6219,1022.66
30008,-0.723505,9.82322,-0.379964,0.42,0.07,-0.35,28.5527,-67.2609,37.4195,1022.68
30014,-0.723505,9.83274,-0.370461,0.28,-0.14,-0.42,28.0885,-66.3265,37.0184,1022.68
30020,-0.661889,9.84703,-0.370461,0.28,-0.14,-0.49,28.1431,-62.8602,35.3545,1022.68
30026,-0.709286,9.77559,-0.375212,0.28,-0.14,-0.42,28.9896,-65.7538,36.1567,1022.68
30032,-0.699807,9.83751,-0.322942,0.49,0,-0.42,28.3342,-67.4116,37.0333,1022.67
30038,-0.742464,9.83751,-0.39422,0.56,0.07,-0.35,28.7165,-63.9453,35.3842,1022.67
30044,-0.737725,9.84227,-0.379964,0.14,-0.35,-0.28,29.4811,-64.7893,36.8401,1022.67
30050,-0.690327,9.81846,-0.375212,0.21,-0.28,-0.35,28.5527,-67.6829,36.8104,1022.7
30056,-0.704547,9.83274,-0.360957,0.35,-0.14,-0.35,28.5254,-64.7592,36.0527,1022.7
30062,-0.723505,9.82322,-0.332446,0.28,-0.14,-0.35,28.5527,-64.2769,36.5133,1022.69
30068,-0.747204,9.83274,-0.337197,0.28,-0.07,-0.42,28.1431,-66.2964,36.6618,1022.69
30074,-0.699807,9.83751,-0.370461,0.21,-0.21,-0.42,28.1431,-67.0499,37.4047,1022.7
30080,-0.699807,9.75654,-0.365709,0.14,-0.35,-0.49,27.9519,-63.2521,35.191,1022.7
30086,-0.728245,9.76131,-0.31819,0.21,-0.14,-0.49,28.9077,-65.9648,35.2802,1022.69
30092,-0.709286,9.75654,-0.327694,0.49,0.07,-0.35,29.0169,-67.1102,37.6275,1022.69
30098,-0.747204,9.81846,-0.375212,0.07,-0.14,-0.35,28.935,-63.6741,34.671,1022.69
30104,-0.766163,9.83274,-0.356205,0,-0.21,-0.35,28.3888,-64.6687,36.2013,1022.67
30110,-0.709286,9.80893,-0.346701,0.35,-0.21,-0.42,28.4981,-67.4719,37.4047,1022.67
30116,-0.723505,9.86608,-0.327694,0.28,-0.35,-0.49,28.3069,-65.0606,36.855,1022.69
30122,-0.723505,9.78512,-0.370461,0.35,-0.07,-0.28,28.5527,-63.5234,35.0425,1022.69
30128,-0.732985,9.83751,-0.332446,0.35,-0.14,-0.21,28.4708,-67.502,36.2013,1022.71
30134,-0.695067,9.87084,-0.39422,0.14,-0.49,-0.28,28.4708,-66.4471,35.4139,1022.71
30140,-0.633451,9.77083,-0.351453,0,-0.28,-0.35,28.4162,-63.9152,34.4333,1022.71
30146,-0.742464,9.83274,-0.275423,0.35,0,-0.49,28.58,-66.5676,36.0527,1022.67
30152,-0.775642,9.81846,-0.398972,0.63,0.07,-0.35,27.6243,-67.1705,36.7807,1022.67
30158,-0.756683,9.90895,-0.351453,0.28,-0.07,-0.28,28.8804,-64.0358,35.9042,1022.68
30164,-0.704547,9.83751,-0.313438,-0.14,-0.35,-0.35,28.5527,-65.3017,36.023,1022.68
30170,-0.65715,9.78988,-0.294431,-0.21,-0.49,-0.35,28.3888,-67.8637,37.6424,1022.71
30176,-0.832518,9.79464,-0.351453,0.42,0,-0.56,28.6073,-65.2113,37.167,1022.71
30182,-0.761423,9.85179,-0.360957,0.49,0,-0.56,28.4435,-63.9755,35.191,1022.7
30188,-0.789861,9.94228,-0.403724,0.21,-0.21,-0.42,28.4435,-67.291,36.6024,1022.7
30194,-0.742464,9.78988,-0.360957,0,-0.35,-0.35,28.6892,-66.4471,37.167,1022.7
30200,-0.756683,9.82798,-0.294431,0.28,-0.21,-0.63,28.4981,-63.2822,35.7259,1022.67
30206,-0.737725,9.81369,-0.384716,0.42,0,-0.56,28.8258,-66.7485,37.1967,1022.67
30212,-0.709286,9.87561,-0.417979,0.35,-0.07,-0.49,28.1431,-67.1403,37.5087,1022.68
30218,-0.690327,9.78036,-0.360957,0,-0.21,-0.49,27.5696,-64.1865,35.4287,1022.68
30224,-0.732985,9.79464,-0.299183,0,-0.42,-0.63,28.0066,-64.94,35.4139,1022.7
30230,-0.732985,9.84703,-0.403724,0.42,-0.07,-0.56,29.0169,-68.6775,35.9784,1022.7
30236,-0.775642,9.84703,-0.332446,0.21,-0.14,-0.56,28.2523,-65.1811,36.3647,1022.7
30242,-0.642931,9.81369,-0.351453,0.07,-0.28,-0.7,28.2523,-64.729,35.6664,1022.72
30248,-0.775642,9.78036,-0.341949,0.21,-0.07,-0.56,28.3615,-67.5322,37.4938,1022.72
30254,-0.685588,9.80417,-0.341949,0.14,-0.14,-0.49,28.0612,-66.4471,37.6721,1022.65
30260,-0.742464,9.79464,-0.308686,0.42,0,-0.49,28.4981,-63.6138,35.3842,1022.65
30266,-0.680848,9.89466,-0.44649,0.49,-0.07,-0.63,28.6073,-65.573,34.879,1022.68
30272,-0.756683,9.79941,-0.289679,0.07,0,-0.56,28.3615,-66.9896,36.9441,1022.68
30278,-0.728245,9.87561,-0.375212,0.14,-0.35,-0.56,28.3342,-64.307,36.335,1022.68
30284,-0.709286,9.82798,-0.327694,0.28,0,-0.49,28.3069,-65.3017,35.3545,1022.68
30290,-0.723505,9.84703,-0.356205,0.14,-0.14,-0.42,28.0612,-68.4967,35.9487,1022.68
30296,-0.695067,9.89942,-0.322942,0,-0.49,-0.56,28.2796,-65.3921,37.167,1022.68
30302,-0.732985,9.78512,-0.327694,-0.14,-0.49,-0.49,28.8531,-63.2822,36.0973,1022.68
30308,-0.827779,9.84703,-0.294431,-0.14,-0.35,-0.56,28.4708,-67.2006,36.6915,1022.68
30314,-0.704547,9.78512,-0.346701,0,-0.42,-0.42,28.6619,-65.5127,37.7612,1022.68
30320,-0.81356,9.83274,-0.332446,0.21,-0.28,-0.56,28.3342,-63.4932,36.0973,1022.67
30326,-0.80882,9.86608,-0.31819,0.35,-0.35,-0.42,28.4708,-66.3566,36.8253,1022.67
30332,-0.605013,9.88037,-0.384716,-0.07,-0.7,-0.42,28.1158,-67.0499,37.2264,1022.67
30338,-0.879915,9.84227,-0.303934,0.14,-0.07,-0.28,28.1977,-64.3673,35.6367,1022.67
30344,-0.728245,9.85179,-0.346701,0,-0.56,-0.21,28.3069,-64.8797,35.6219,1022.67
30350,-0.685588,9.79464,-0.360957,-0.21,-0.42,-0.21,27.7608,-66.4772,37.6721,1022.66
30356,-0.742464,9.82798,-0.275423,-0.14,-0.28,-0.28,28.1977,-63.9755,36.9441,1022.66
30362,-0.65241,9.80893,-0.308686,0.21,-0.42,-0.21,28.4708,-63.4028,35.7853,1022.67
30368,-0.723505,9.81369,-0.351453,0.28,-0.21,-0.14,28.6346,-67.3212,36.0379,1022.67
30374,-0.666629,9.82322,-0.308686,0.42,-0.07,-0.28,27.2966,-66.2662,37.0333,1022.7
30380,-0.747204,9.84227,-0.322942,0.21,-0.14,-0.28,28.3342,-63.7343,35.4139,1022.7
30386,-0.718766,9.85179,-0.275423,0.14,-0.21,-0.21,28.225,-66.1155,36.6321,1022.7
30392,-0.680848,9.84703,-0.360957,0.56,0.21,-0.28,28.225,-67.6226,35.503,1022.7
30398,-0.785122,9.89466,-0.384716,0.49,0.28,-0.21,28.5527,-64.2166,35.9042,1022.7
30404,-0.775642,9.94705,-0.413227,0.21,-0.07,-0.21,27.7062,-64.4879,36.3944,1022.67
30410,-0.770902,9.89466,-0.370461,0.07,-0.21,0,28.3888,-68.2254,35.919,1022.67
30416,-0.837258,9.88513,-0.403724,0.35,0,0.77,28.5254,-64.94,36.3498,1022.67
30422,-0.685588,9.928,-0.332446,-0.35,-0.63,0.91,28.0885,-63.7946,35.8002,1022.67
30428,-0.567095,9.74226,-0.322942,-0.56,-0.77,0.91,28.1704,-66.7485,36.855,1022.7
