Timestamp,AccX,AccY,AccZ,AngleX,AngleY,AngleZ,AngularVelX,AngularVelY,AngularVelZ,QW,QX,QY,QZ,MagX,MagY,MagZ,Height,AirPressure
143596,9.86699,0.119629,-0.0717773,106.15,-88.9673,46.5106,0,0.12207,1.34277,0.172852,0.690155,-0.161713,0.683777,30146,27672,2022,-8977,-28664
143602,9.85264,0.100488,-0.0526367,106.183,-88.9728,46.5216,0,0.305176,0.305176,0.172272,0.690247,-0.161255,0.683929,30146,28184,230,-8977,-28664
143608,9.83828,0.105273,-0.0717773,106.007,-88.9728,46.7908,0,0.488281,0,0.171997,0.690308,-0.161011,0.684021,30402,28184,-283,-8977,-28664
143614,9.84785,0.114844,-0.0287109,105.787,-88.9728,47.0654,0,0.671387,-0.671387,0.171692,0.690338,-0.160706,0.684113,30914,27928,230,-8977,-28664
143620,9.82393,0.129199,-0.0430664,105.573,-88.9673,47.3236,0.12207,0.610352,-0.732422,0.171448,0.690399,-0.1604,0.684174,30914,28184,742,-8977,-28664
143626,9.82393,0.119629,-0.0191406,105.359,-88.9618,47.5873,0,0.549316,-1.09863,0.171173,0.69046,-0.160065,0.684265,31170,28696,998,-8977,-28664
143632,9.83828,0.15791,-0.0191406,105.161,-88.9563,47.8345,0.0610352,0.244141,-1.40381,0.170654,0.690582,-0.159393,0.684418,31170,30232,2278,-8977,-28664
143638,9.79043,0.14834,-0.0239258,104.87,-88.9453,48.23,0.183105,0.183105,-1.40381,0.17041,0.690643,-0.159058,0.684509,31170,31000,2790,-8977,-28664
143644,9.81436,0.162695,-0.0334961,104.777,-88.9398,48.3618,0,0,-1.40381,0.170166,0.690735,-0.158722,0.68457,31426,31000,2534,-8977,-28664
143650,9.81914,0.172266,-0.0526367,104.738,-88.9343,48.4552,0,-0.12207,-1.2207,0.169922,0.690796,-0.158417,0.684631,31426,31000,2278,-8977,-28664
143656,9.78564,0.186621,-0.0334961,104.683,-88.9288,48.5541,0.183105,-0.0610352,-1.15967,0.169678,0.690887,-0.158081,0.684692,31426,31000,1254,-8977,-28664
143662,9.80479,0.16748,-0.0669922,104.628,-88.9233,48.653,0.12207,0,-1.09863,0.169159,0.69104,-0.15744,0.684814,31170,28952,486,-8977,-28664
143668,9.79521,0.177051,-0.0526367,104.529,-88.9178,48.8507,0,0,-0.671387,0.168915,0.691101,-0.157135,0.684875,31938,27928,742,-8977,-28664
143674,9.78564,0.210547,-0.0669922,104.491,-88.9124,48.9331,0.12207,0.12207,-0.244141,0.16864,0.691162,-0.15683,0.684937,32706,27160,1510,-8977,-28664
143680,9.77129,0.205762,-0.0382813,104.365,-88.9178,49.1144,0.366211,0.549316,0,0.168335,0.691223,-0.156525,0.684998,32706,26904,2534,-8977,-28664
143686,9.74736,0.172266,-0.00478516,104.271,-88.9178,49.2572,0.549316,0.427246,0.12207,0.16806,0.691284,-0.156219,0.685089,32706,26648,4070,-8977,-28664
143692,9.81436,0.162695,-0.0334961,104.156,-88.9178,49.422,0.793457,0.793457,0.915527,0.16745,0.691376,-0.15564,0.685272,-32574,25368,5350,-8977,-28664
143698,9.79521,0.143555,-0.0574219,103.788,-88.9288,49.8889,0.671387,1.0376,0.366211,0.167114,0.691437,-0.155365,0.685394,-32318,24088,5862,-8977,-28664
143704,9.8335,0.14834,-0.0478516,103.519,-88.9343,50.2075,0.732422,1.15967,0.366211,0.166809,0.691467,-0.15506,0.685486,-31806,22296,6118,-8977,-28664
143710,9.82393,0.153125,-0.0717773,103.189,-88.9343,50.5975,0.671387,1.28174,-0.183105,0.166504,0.691498,-0.154755,0.685608,-31294,21784,6886,-8977,-28664
143716,9.83828,0.14834,-0.0478516,102.821,-88.9288,51.0205,0.427246,1.28174,-0.793457,0.166199,0.691528,-0.154419,0.68573,-31550,21272,7910,-8977,-28664
143722,9.79043,0.143555,-0.0334961,102.151,-88.9288,51.795,0.427246,1.15967,-0.915527,0.165588,0.69162,-0.153717,0.685944,-31806,21528,7398,-8977,-28664
143728,9.80957,0.14834,0.00957031,101.744,-88.9233,52.2565,0.366211,1.40381,-0.915527,0.165283,0.69165,-0.153351,0.686035,-31550,21272,6118,-8977,-28664
143734,9.8,0.16748,-0.00957031,101.376,-88.9233,52.6794,0.305176,1.28174,-0.915527,0.165009,0.691681,-0.152985,0.686157,-31038,21016,3814,-8977,-28664
143740,9.80479,0.172266,-0.00478516,101.03,-88.9178,53.0695,0.366211,1.15967,-1.0376,0.164734,0.691742,-0.152649,0.686249,-30782,21016,1510,-8977,-28664
143746,9.80957,0.196191,-0.00478516,100.767,-88.9124,53.3826,0.183105,0.854492,-1.0376,0.164459,0.691772,-0.152283,0.686371,-29246,19736,-1563,-8977,-28664
143752,9.78086,0.191406,0.0143555,100.464,-88.9069,53.7836,0.0610352,0.183105,-0.732422,0.16394,0.691864,-0.151642,0.686523,-28990,19480,-2587,-8977,-28664
143758,9.78086,0.205762,0,100.443,-88.9069,53.8495,-0.0610352,0,-0.610352,0.163696,0.691925,-0.151337,0.686615,-28734,18456,-3355,-8977,-28664
143764,9.76172,0.186621,0,100.459,-88.9014,53.8715,0.0610352,-0.183105,-0.610352,0.163452,0.691986,-0.151062,0.686646,-28222,18200,-4123,-8977,-28664
143770,9.80957,0.191406,0.0143555,100.536,-88.9014,53.833,0.183105,-0.305176,-0.12207,0.163208,0.692047,-0.150818,0.686707,-27710,18200,-5659,-8977,-28664
143776,9.80479,0.205762,-0.0239258,100.646,-88.9014,53.7616,0.305176,-0.427246,0,0.162994,0.692108,-0.150574,0.686737,-27454,18712,-6939,-8977,-28664
143782,9.80957,0.162695,-0.0334961,100.953,-88.9014,53.5309,0.488281,-0.549316,0.183105,0.162537,0.69223,-0.150116,0.686829,-28478,18968,-6939,-8977,-28664
143788,9.81436,0.172266,-0.0382813,101.074,-88.9014,53.443,0.366211,-0.427246,0.244141,0.162292,0.692322,-0.149902,0.686859,-30014,19480,-6427,-8977,-28664
143794,9.77129,0.177051,-0.0382813,101.118,-88.9014,53.443,0.366211,-0.12207,0.183105,0.162048,0.692352,-0.149689,0.68692,-31294,19736,-5659,-8977,-28664
143800,9.79043,0.143555,-0.0382813,101.173,-88.9069,53.421,0.0610352,-0.183105,0.244141,0.161835,0.692413,-0.149475,0.686951,-32574,20504,-5147,-8977,-28664
143806,9.81914,0.129199,-0.062207,101.107,-88.9069,53.5254,0.12207,0.244141,-0.12207,0.161591,0.692474,-0.149261,0.687012,32706,20504,-3867,-8977,-28664
143812,9.81914,0.14834,-0.0574219,100.679,-88.9014,54.0363,0.183105,0.854492,-0.793457,0.161133,0.692535,-0.148773,0.687134,-32574,20248,-3099,-8977,-28664
143818,9.82871,0.162695,-0.0478516,100.36,-88.8959,54.4043,0.183105,1.09863,-1.0376,0.160889,0.692596,-0.148468,0.687225,-32574,19736,-1563,-8977,-28664
143824,9.84785,0.13877,-0.0430664,99.9152,-88.8904,54.8987,0.671387,1.52588,-1.46484,0.160645,0.692627,-0.148163,0.687317,32706,19224,486,-8977,-28664
143830,9.83828,0.16748,-0.0430664,99.4318,-88.8849,55.437,0.549316,1.70898,-1.46484,0.1604,0.692657,-0.147797,0.687439,-32574,19224,3046,-8977,-28664
143836,9.79521,0.181836,-0.00957031,98.9154,-88.8794,56.0028,0.732422,1.83105,-1.58691,0.160156,0.692688,-0.14743,0.687531,32450,19480,8166,-8977,-28664
143842,9.78086,0.220117,0.00957031,98.1464,-88.8684,56.8817,0.671387,1.2207,-1.0376,0.159607,0.692719,-0.146667,0.687775,32450,19992,10470,-8977,-28664
143848,9.8,0.205762,-0.0239258,97.8882,-88.8684,57.1893,0.488281,0.915527,-1.15967,0.159332,0.69278,-0.146332,0.687866,32450,20760,11494,-8969,-28665
143854,9.79521,0.205762,0.0143555,97.7509,-88.8629,57.3761,0.366211,0.549316,-0.305176,0.159058,0.69281,-0.145966,0.687958,32450,21016,12518,-8969,-28665
143860,9.76172,0.200977,0,97.6904,-88.8629,57.4805,0.12207,0.244141,-0.183105,0.158783,0.692871,-0.14566,0.688049,32450,21272,13286,-8969,-28665
143866,9.77129,0.220117,-0.00478516,97.7673,-88.8684,57.442,0.0610352,-0.244141,0.427246,0.158539,0.692902,-0.145386,0.68811,31426,19480,14054,-8969,-28665
143872,9.80479,0.181836,-0.0239258,98.2123,-88.8739,57.0795,-0.244141,-0.915527,0.915527,0.15799,0.693024,-0.144928,0.688202,30914,18968,14566,-8969,-28665
143878,9.78564,0.186621,-0.00957031,98.5034,-88.8794,56.8213,-0.427246,-1.0376,0.854492,0.157715,0.693115,-0.144745,0.688232,30402,17944,15078,-8969,-28665
143884,9.80479,0.200977,-0.0143555,98.8605,-88.8849,56.4972,-0.488281,-1.2207,1.34277,0.157471,0.693176,-0.144562,0.688263,30146,17176,15334,-8969,-28665
143890,9.81436,0.181836,-0.0191406,99.3274,-88.8904,56.0632,-0.244141,-1.64795,1.34277,0.157227,0.693237,-0.144409,0.688263,29378,16408,14310,-8969,-28665
143896,9.81436,0.133984,-0.0143555,99.7723,-88.8959,55.6512,-0.183105,-1.52588,1.34277,0.156982,0.693329,-0.144257,0.688293,28610,15128,9190,-8969,-28665
143902,9.79521,0.15791,-0.0430664,100.662,-88.9014,54.8218,-0.305176,-1.64795,0.549316,0.156525,0.693481,-0.143982,0.688293,28354,14872,7142,-8969,-28665
143908,9.81914,0.15791,-0.0717773,100.97,-88.9014,54.5471,-0.183105,-1.09863,0.610352,0.156311,0.693573,-0.143829,0.688293,28866,14616,3558,-8969,-28665
143914,9.81436,0.143555,-0.0382813,101.173,-88.9014,54.3713,-0.183105,-0.793457,0.12207,0.156097,0.693634,-0.143677,0.688293,29890,15384,230,-8969,-28665
143920,9.81914,0.153125,-0.0191406,101.338,-88.9014,54.2395,0,-0.671387,-0.12207,0.155884,0.693695,-0.143494,0.688324,30402,15896,-1819,-8969,-28665
143926,9.80479,0.162695,-0.0191406,101.431,-88.8959,54.1791,0.12207,-0.488281,-0.488281,0.155701,0.693756,-0.14328,0.688354,31170,18200,-2587,-8969,-28665
143932,9.79521,0.210547,0,101.646,-88.8959,54.0308,0.305176,-0.610352,-0.183105,0.155304,0.693848,-0.142883,0.688416,31426,18456,-1819,-8969,-28665
143938,9.81436,0.14834,-0.0334961,101.865,-88.8959,53.844,0.305176,-0.854492,0.12207,0.155121,0.693909,-0.1427,0.688446,31682,19224,-2587,-8969,-28665
143944,9.80957,0.15791,-0.0478516,102.123,-88.8959,53.6078,0.0610352,-1.0376,0.0610352,0.154938,0.69397,-0.142517,0.688446,31682,19736,-3867,-8969,-28665
143950,9.82871,0.124414,-0.0765625,102.398,-88.8904,53.3716,-0.12207,-1.15967,-0.366211,0.154755,0.694031,-0.142365,0.688446,31938,20760,-6683,-8969,-28665
143956,9.82393,0.13877,-0.062207,102.552,-88.8904,53.2452,-0.183105,-0.793457,-0.732422,0.154572,0.694122,-0.142151,0.688477,31426,23320,-10267,-8969,-28665
143962,9.82393,0.133984,-0.0574219,102.338,-88.8794,53.5309,-0.12207,0.427246,-1.46484,0.154205,0.694244,-0.141724,0.688507,31682,24344,-11035,-8969,-28665
143968,9.82393,0.16748,-0.062207,102.047,-88.8684,53.8605,0.12207,0.793457,-1.77002,0.154053,0.694275,-0.141449,0.688568,30914,24856,-10267,-8969,-28665
143974,9.80957,0.15791,-0.0526367,101.695,-88.8629,54.256,-0.0610352,1.09863,-1.70898,0.15387,0.694305,-0.141174,0.688629,30146,25624,-9499,-8969,-28665
143980,9.8,0.181836,-0.0574219,101.239,-88.8574,54.7504,0.183105,1.52588,-1.70898,0.153687,0.694336,-0.140869,0.688721,29378,25880,-8219,-8969,-28665
143986,9.81436,0.205762,-0.0478516,100.767,-88.8519,55.2722,0.244141,1.64795,-1.70898,0.153473,0.694366,-0.140533,0.688812,26818,25112,-8475,-8969,-28665
143992,9.80957,0.215332,0,99.657,-88.8409,56.4807,0.976562,2.2583,-1.64795,0.153015,0.694397,-0.139862,0.689026,26050,23832,-9243,-8969,-28665
143998,9.79043,0.186621,-0.0813477,99.0033,-88.8354,57.1838,1.15967,2.50244,-1.52588,0.152771,0.694397,-0.139496,0.689148,25538,22552,-10267,-8969,-28665
144004,9.75693,0.172266,-0.062207,98.2178,-88.83,58.0298,0.976562,3.11279,-1.40381,0.152527,0.694397,-0.139099,0.68927,25538,21528,-11035,-8969,-28665
144010,9.77607,0.210547,0.0143555,97.3993,-88.8245,58.9087,1.09863,3.2959,-1.2207,0.152222,0.694366,-0.138702,0.689423,25282,20760,-11803,-8969,-28665
144016,9.79521,0.220117,0,96.5149,-88.8245,59.8535,1.64795,3.60107,-1.15967,0.151947,0.694366,-0.138306,0.689606,25026,19480,-13851,-8969,-28665
144022,9.84785,0.191406,-0.00957031,94.6637,-88.819,61.8311,1.77002,3.72314,-0.671387,0.151306,0.694305,-0.137421,0.689972,25026,19480,-15131,-8969,-28665
144028,9.82871,0.177051,-0.0191406,93.8617,-88.8135,62.699,1.40381,3.35693,-1.09863,0.15094,0.694275,-0.136993,0.690155,24514,19480,-15643,-8969,-28665
144034,9.85264,0.172266,-0.00957031,93.1915,-88.8135,63.4351,0.976562,2.80762,-1.2207,0.150604,0.694244,-0.136566,0.690338,24258,19224,-14875,-8969,-28665
144040,9.81914,0.181836,0.00957031,92.5653,-88.8025,64.1217,0.854492,2.62451,-1.58691,0.150269,0.694244,-0.136108,0.690491,23746,18968,-12827,-8969,-28665
144046,9.81436,0.181836,0.00957031,91.9446,-88.797,64.8029,0.549316,2.62451,-1.77002,0.149658,0.694275,-0.135223,0.690796,24002,17688,-6427,-8969,-28665
144052,9.79043,0.200977,0.00478516,90.802,-88.7805,66.0718,0.549316,2.50244,-2.13623,0.149323,0.694275,-0.134796,0.690948,24770,17688,-4379,-8969,-28665
144058,9.81436,0.210547,0.0287109,90.3241,-88.7695,66.6156,0.549316,2.13623,-1.52588,0.149017,0.694305,-0.134338,0.691071,24770,17432,-4123,-8969,-28665
144064,9.80479,0.220117,0.0287109,89.9011,-88.764,67.0935,0.305176,1.89209,-1.95312,0.148712,0.694305,-0.133911,0.691223,24770,17176,-5659,-8969,-28665
144070,9.79521,0.239258,0.0287109,89.5551,-88.7531,67.5,0.244141,1.58691,-1.40381,0.148407,0.694336,-0.133484,0.691315,24514,17176,-7707,-8969,-28665
144076,9.79043,0.239258,0.0526367,89.2804,-88.7476,67.8296,0.427246,1.28174,-1.0376,0.147827,0.694397,-0.13269,0.691528,24770,17688,-10779,-8969,-28665
144082,9.74258,0.253613,0.0287109,89.1266,-88.7476,68.0878,0.549316,0.183105,0.0610352,0.147522,0.694458,-0.132355,0.69162,25282,18968,-10523,-8977,-28664
144088,9.78086,0.239258,0.0143555,89.1595,-88.7476,68.0988,0.12207,-0.12207,0.12207,0.147217,0.694519,-0.13205,0.691681,25538,19992,-9755,-8977,-28664
144094,9.79521,0.191406,0.0287109,89.2365,-88.7531,68.0713,0.12207,-0.305176,0.976562,0.146912,0.69458,-0.131775,0.691742,26050,20760,-10267,-8977,-28664
144100,9.80957,0.186621,0.0287109,89.3079,-88.7585,68.0383,0.0610352,-0.305176,0.732422,0.146606,0.694611,-0.1315,0.691803,26050,20504,-11035,-8977,-28664
144106,9.83828,0.191406,0,89.5111,-88.7585,67.8845,0,-0.854492,0.610352,0.146027,0.694763,-0.131042,0.691895,27074,19480,-13083,-8977,-28664
144112,9.80957,0.172266,0.0430664,90.0604,-88.764,67.4066,-0.366211,-1.40381,0,0.145782,0.694824,-0.130798,0.691925,27330,18712,-13851,-8977,-28664
144118,9.81436,0.200977,0.0239258,90.401,-88.764,67.1045,-0.183105,-1.46484,-0.183105,0.145538,0.694916,-0.130585,0.691925,27586,18456,-14619,-8977,-28664
144124,9.80479,0.234473,0.0287109,90.8185,-88.764,66.72,-0.366211,-1.83105,0.0610352,0.145325,0.695007,-0.130371,0.691925,27074,19224,-14363,-8977,-28664
144130,9.77607,0.200977,0.0239258,91.3184,-88.764,66.2476,-0.488281,-2.19727,0.305176,0.145111,0.695099,-0.130219,0.691895,26050,19736,-13595,-8977,-28664
144136,9.8,0.248828,0.0191406,91.8951,-88.764,65.6982,-0.610352,-2.50244,0.610352,0.144745,0.695282,-0.129944,0.691833,23234,21272,-13851,-8977,-28664
144142,9.77129,0.205762,0,93.4003,-88.775,64.2261,-1.34277,-3.479,1.34277,0.144562,0.695404,-0.129852,0.691772,21954,21784,-14875,-8977,-28664
144148,9.80479,0.224902,0,94.3121,-88.7805,63.3307,-1.58691,-3.90625,1.34277,0.144409,0.695496,-0.129822,0.691711,21698,22552,-16155,-8977,-28664
144154,9.77607,0.229688,-0.0861328,95.3229,-88.786,62.3254,-2.50244,-4.27246,1.70898,0.144287,0.695618,-0.129791,0.69162,22210,22296,-17179,-8977,-28664
144160,9.74258,0.181836,-0.00957031,96.4435,-88.797,61.2103,-3.54004,-4.63867,2.44141,0.144135,0.69574,-0.129822,0.691498,22722,22552,-17179,-8977,-28664
144166,9.8335,0.177051,0.0861328,97.608,-88.8025,60.0403,-3.05176,-4.82178,2.0752,0.143982,0.696014,-0.130035,0.691254,24258,22040,-17691,-8977,-28664
144172,9.8,0.224902,-0.0239258,100.025,-88.8135,57.6178,-2.13623,-4.88281,1.77002,0.143921,0.696136,-0.130127,0.691101,24002,21528,-18971,-8977,-28664
144178,9.77607,0.205762,-0.0239258,101.261,-88.819,56.3654,-2.2583,-5.00488,2.0752,0.14386,0.696259,-0.130249,0.690979,24002,21272,-20763,-8977,-28664
144184,9.79043,0.215332,-0.0717773,102.541,-88.8245,55.08,-2.44141,-5.00488,2.56348,0.143829,0.696381,-0.130371,0.690826,24514,21016,-21275,-8977,-28664
144190,9.75215,0.205762,-0.0765625,103.92,-88.8354,53.6902,-2.92969,-5.31006,2.86865,0.143768,0.696503,-0.130554,0.690704,25026,21016,-20251,-8977,-28664
144196,9.83828,0.172266,-0.0143555,105.266,-88.8464,52.3279,-3.35693,-5.00488,3.2959,0.143707,0.696747,-0.130951,0.690399,25794,20504,-18971,-8977,-28664
144202,9.84307,0.181836,-0.0287109,108.023,-88.8574,49.5264,-2.92969,-5.06592,3.05176,0.143707,0.696838,-0.131226,0.690247,25538,19480,-18203,-8977,-28664
144208,9.81436,0.14834,-0.13877,109.424,-88.8629,48.1091,-3.17383,-5.12695,2.86865,0.143707,0.69696,-0.131439,0.690094,25282,18968,-17691,-8977,-28664
144214,9.83828,0.129199,-0.143555,110.748,-88.8684,46.7633,-4.21143,-5.00488,2.2583,0.143707,0.697052,-0.131683,0.689941,24002,18456,-18459,-8977,-28664
144220,9.86221,0.13877,-0.090918,112.05,-88.8684,45.434,-4.82178,-5.00488,2.0752,0.143738,0.697174,-0.131927,0.689789,23490,18456,-17435,-8977,-28664
144226,9.80479,0.181836,0.0143555,113.324,-88.8684,44.1321,-5.06592,-4.94385,1.89209,0.143921,0.697357,-0.132446,0.689453,23490,19480,-15387,-8977,-28664
144232,9.79043,0.196191,0.0191406,115.779,-88.8629,41.6107,-3.05176,-5.00488,1.70898,0.144012,0.697449,-0.13269,0.68927,24514,20248,-12571,-8977,-28664
144238,9.74736,0.220117,-0.0382813,117.109,-88.8629,40.2484,-2.62451,-5.06592,2.2583,0.144135,0.69754,-0.132965,0.689117,25538,20248,-10011,-8977,-28664
144244,9.74258,0.191406,-0.062207,118.636,-88.8629,38.6884,-2.68555,-5.49316,3.17383,0.144226,0.697632,-0.13327,0.688934,26306,19736,-7195,-8977,-28664
144250,9.77129,0.215332,-0.110059,120.3,-88.8684,36.9855,-3.11279,-5.79834,3.78418,0.144318,0.697723,-0.133606,0.688751,27074,19480,-4635,-8977,-28664
144256,9.7665,0.181836,-0.14834,122.124,-88.8684,35.1178,-3.35693,-6.10352,4.45557,0.144501,0.697937,-0.134399,0.688354,27330,19480,-2075,-8977,-28664
144262,9.76172,0.191406,-0.114844,126.101,-88.8739,31.0419,-4.5166,-6.5918,5.37109,0.144592,0.698029,-0.134857,0.688141,27586,19736,-1307,-8977,-28664
144268,9.77607,0.143555,-0.0957031,128.287,-88.8794,28.8007,-4.94385,-6.7749,5.85938,0.144714,0.698151,-0.135345,0.687927,27842,20248,230,-8977,-28664
144274,9.82393,0.13877,-0.129199,130.583,-88.8794,26.4496,-5.37109,-7.20215,5.98145,0.144836,0.698242,-0.135895,0.687683,28354,20504,2022,-8977,-28664
144280,9.80957,0.14834,-0.100488,132.913,-88.8794,24.0546,-5.31006,-7.32422,6.10352,0.144958,0.698334,-0.136475,0.687439,28610,21272,4326,-8977,-28664
144286,9.77607,0.143555,-0.143555,135.242,-88.8739,21.6595,-5.67627,-7.26318,6.22559,0.145294,0.698517,-0.137695,0.68692,29634,23064,9190,-8977,-28664
144292,9.8,0.133984,-0.177051,140.18,-88.8684,16.5784,-6.5918,-7.69043,7.01904,0.145477,0.698608,-0.138367,0.686676,30658,23832,12006,-8977,-28664
144298,9.8,0.129199,-0.177051,142.778,-88.8574,13.9032,-7.20215,-7.87354,7.50732,0.145691,0.6987,-0.139069,0.686401,31682,25112,13542,-8977,-28664
144304,9.79043,0.114844,-0.16748,145.371,-88.8519,11.2225,-7.62939,-7.8125,7.75146,0.145905,0.698792,-0.139832,0.686096,32706,26392,16358,-8977,-28664
144310,9.85742,0.0813477,-0.15791,147.859,-88.8409,8.64624,-7.38525,-7.44629,7.69043,0.146149,0.698853,-0.140625,0.685822,-32318,27416,18662,-8977,-28664
144316,9.79521,0.0143555,-0.253613,150.244,-88.83,6.17981,-6.46973,-5.5542,7.50732,0.146606,0.698975,-0.142181,0.685272,-32574,30488,25318,-8977,-28664
144322,9.89092,0.0669922,-0.244043,154.254,-88.8245,2.02148,-5.5542,-4.15039,6.95801,0.146851,0.698975,-0.142914,0.685059,-32574,32024,27878,-8977,-28664
144328,9.86221,0.0334961,-0.239258,155.847,-88.8245,0.368042,-4.69971,-2.38037,6.53076,0.147034,0.698975,-0.143555,0.684906,-32318,-32744,29158,-8977,-28664
144334,9.84785,0.0382813,-0.162695,157.077,-88.8354,-0.911865,-3.05176,-0.732422,5.5542,0.147217,0.698914,-0.144135,0.684814,-32062,-31976,29414,-8977,-28664
144340,9.87656,0,-0.215332,158.088,-88.8464,-1.96106,-1.46484,0.854492,5.12695,0.147369,0.698822,-0.144623,0.684753,-31550,-30952,29670,-8977,-28664
144346,9.87178,-0.0430664,-0.210547,158.802,-88.8684,-2.70264,0.0610352,3.17383,3.35693,0.147491,0.698608,-0.145264,0.684814,-29758,-28136,29670,-8977,-28664
144352,9.8957,-0.0574219,-0.205762,159.28,-88.9069,-3.19702,0.244141,3.54004,1.64795,0.147522,0.698456,-0.145416,0.684937,-28222,-26856,30950,-8977,-28664
144358,9.91006,-0.0478516,-0.186621,158.983,-88.9233,-2.90039,0.366211,3.66211,0.366211,0.147522,0.698334,-0.145477,0.685028,-26942,-25576,-32538,-8977,-28664
144364,9.88135,-0.0334961,-0.181836,158.445,-88.9398,-2.34558,0,3.60107,-0.610352,0.147491,0.698242,-0.145416,0.685181,-25406,-24552,-31002,-8977,-28664
144370,9.85264,0,-0.13877,157.643,-88.9508,-1.51611,-0.0610352,3.23486,-1.77002,0.147461,0.698151,-0.145294,0.685303,-24382,-23784,-31514,-8977,-28664
144376,9.71865,0.143555,-0.119629,156.835,-88.9618,-0.692139,-0.366211,2.50244,-1.0376,0.147339,0.698029,-0.144867,0.685516,-22846,-21736,31462,-8977,-28664
144382,9.66123,0.191406,-0.090918,156.121,-88.9838,0.0604248,-0.12207,1.95312,0.427246,0.147278,0.697998,-0.144684,0.685608,-22078,-20968,29670,-8977,-28664
144388,9.68994,0.220117,-0.0382813,156.643,-88.9948,-0.450439,0,0.915527,2.56348,0.147156,0.697968,-0.144562,0.685699,-22334,-19944,30182,-8977,-28664
144394,9.71865,0.181836,-0.0478516,157.753,-89.0002,-1.55457,-0.12207,-0.305176,4.27246,0.147034,0.697937,-0.144592,0.68576,-22590,-18664,31718,-8977,-28664
144400,9.7043,0.133984,-0.0717773,159.483,-89.0057,-3.30139,-0.427246,-1.52588,6.10352,0.146912,0.697906,-0.144714,0.685791,-22846,-18152,32230,-8977,-28664
144406,9.77129,0.0669922,-0.186621,161.526,-89.0057,-5.35583,-0.793457,-1.52588,7.99561,0.146667,0.697876,-0.145294,0.68573,-23358,-18664,-31258,-8977,-28664
144412,9.78086,0.0382813,-0.234473,166.146,-89.0167,-10.0195,-0.732422,-1.15967,8.30078,0.146576,0.697845,-0.14566,0.685699,-23358,-19688,-31770,-8977,-28664
144418,9.84785,-0.0382813,-0.181836,168.376,-89.0222,-12.2717,-0.976562,-0.610352,7.93457,0.146423,0.697815,-0.146027,0.685699,-22846,-20456,-31514,-8977,-28664
144424,9.88613,-0.114844,-0.172266,170.277,-89.0277,-14.1888,-1.46484,-0.549316,6.71387,0.146332,0.697754,-0.146393,0.685699,-22334,-20456,-32026,-8977,-28664
144430,9.91963,-0.100488,-0.14834,171.766,-89.0222,-15.694,-1.64795,-1.34277,5.12695,0.14624,0.697693,-0.146698,0.68573,-21054,-18152,-29722,-8977,-28664
144436,9.81914,0,-0.15791,174.15,-89.0057,-18.111,-2.74658,-2.68555,3.84521,0.146118,0.697693,-0.147156,0.685638,-20286,-16616,-27674,-8977,-28664
144442,9.78564,0.0287109,-0.14834,175.215,-88.9948,-19.1986,-2.99072,-3.2959,3.66211,0.146088,0.697723,-0.1474,0.685577,-19518,-14568,-25370,-8977,-28664
144448,9.74736,0.0574219,-0.172266,176.589,-88.9783,-20.5939,-2.62451,-3.11279,4.88281,0.146088,0.697754,-0.147644,0.685455,-18238,-13032,-23322,-8977,-28664
144454,9.69951,0.0669922,-0.234473,178.187,-88.9673,-22.2198,-2.50244,-2.62451,5.85938,0.146088,0.697784,-0.147949,0.685364,-17726,-11752,-23066,-8977,-28664
144460,9.70908,0.090918,-0.244043,-179.879,-88.9618,-24.1809,-2.0752,-1.40381,7.20215,0.146057,0.697815,-0.148315,0.685303,-16702,-9960,-24346,-8977,-28664
144466,9.84785,-0.0957031,-0.272754,-174.974,-88.9673,-29.1412,-1.0376,2.2583,9.15527,0.145966,0.697662,-0.1492,0.685272,-16702,-8936,-25114,-8977,-28664
144472,9.91006,-0.14834,-0.272754,-172.639,-88.9838,-31.4923,-0.610352,3.96729,8.17871,0.145874,0.697479,-0.149597,0.685364,-16190,-8424,-25114,-8977,-28664
144478,9.90527,-0.172266,-0.325391,-170.7,-89.0057,-33.4479,-0.488281,5.49316,6.28662,0.145752,0.697296,-0.149933,0.685516,-15166,-8168,-25882,-8977,-28664
144484,9.8335,-0.0861328,-0.282324,-168.728,-89.0387,-35.4254,-0.854492,7.26318,5.7373,0.14566,0.697083,-0.150116,0.685699,-14142,-7656,-26138,-8977,-28664
144490,9.78564,-0.0239258,-0.196191,-166.492,-89.0717,-37.6666,-0.488281,8.66699,5.85938,0.145599,0.696838,-0.150299,0.685944,-12350,-6632,-27418,-8977,-28664
144496,9.75215,-0.0478516,-0.0669922,-161.439,-89.1486,-42.7313,0.488281,8.97217,5.85938,0.145447,0.696198,-0.150574,0.686554,-11582,-5352,-26650,-8977,-28664
144502,9.86221,-0.0478516,-0.0717773,-158.807,-89.1705,-45.368,0.244141,7.56836,5.7373,0.145355,0.695892,-0.150726,0.686859,-10814,-4584,-26138,-8977,-28664
144508,9.85264,-0.0382813,-0.0526367,-156.105,-89.187,-48.0817,0,6.40869,5.98145,0.145294,0.695618,-0.150879,0.687103,-10046,-3304,-25370,-8977,-28664
144514,9.76172,-0.0717773,-0.0239258,-153.495,-89.198,-50.7074,-0.12207,5.12695,5.98145,0.145233,0.695374,-0.151093,0.687317,-9278,-2024,-24090,-8977,-28664
144520,9.84785,-0.177051,-0.119629,-151.089,-89.2035,-53.1244,-0.305176,4.15039,5.67627,0.145172,0.69519,-0.151306,0.6875,-7742,25,-23834,-8977,-28664
144526,10.001,-0.354102,-0.287109,-147.947,-89.2365,-56.25,-1.52588,6.04248,0.610352,0.144989,0.694855,-0.151581,0.687775,-7998,1305,-25626,-8977,-28664
144532,10.0058,-0.349316,-0.267969,-147.277,-89.2804,-56.8927,-1.09863,8.23975,-2.92969,0.144958,0.694702,-0.151459,0.687988,-7742,1561,-28442,-8977,-28664
144538,9.97705,-0.325391,-0.224902,-147.014,-89.3353,-57.1069,-0.427246,10.1929,-5.61523,0.144928,0.694519,-0.151154,0.688232,-7230,1817,-32026,-8977,-28664
144544,9.88613,-0.196191,-0.0957031,-147.239,-89.4012,-56.8268,-0.183105,11.1084,-7.56836,0.144867,0.694305,-0.150635,0.688568,-6462,2329,30182,-8977,-28664
144550,9.83828,-0.0813477,-0.0526367,-147.964,-89.4727,-56.0413,-0.183105,10.9253,-8.42285,0.144836,0.694122,-0.149994,0.688904,-3646,2585,28134,-8977,-28664
144556,9.77607,-0.0191406,-0.090918,-149.496,-89.6045,-54.3713,0.12207,11.2305,-7.8125,0.144714,0.693756,-0.14859,0.689606,-2878,3097,28902,-8977,-28664
144562,9.75215,-0.0430664,-0.0861328,-149.985,-89.6704,-53.8055,1.0376,12.0239,-7.56836,0.144592,0.693573,-0.147888,0.689972,-3134,2841,29670,-8977,-28664
144568,9.81914,-0.0526367,-0.105273,-149.551,-89.7473,-54.1626,1.58691,13.3057,-7.08008,0.14444,0.693359,-0.147125,0.690369,-3646,2841,28902,-8977,-28664
144574,9.84785,-0.0957031,-0.100488,-148.453,-89.8242,-55.1788,1.70898,14.5874,-7.62939,0.144257,0.693115,-0.146362,0.690826,-3902,2329,29158,-8977,-28664
144580,9.86221,-0.133984,-0.114844,-143.278,-89.9066,-60.26,2.01416,15.9302,-7.75146,0.144073,0.692841,-0.145538,0.691315,-4414,2841,27366,-8977,-28664
144586,9.82393,-0.0287109,0.0287109,20.7367,-89.8846,135.901,3.11279,18.0664,-9.33838,0.143707,0.6922,-0.143738,0.692413,-4158,3097,27110,-8977,-28664
144592,9.72344,0.114844,0.0574219,22.8131,-89.7913,133.918,3.96729,18.4326,-8.48389,0.143494,0.691864,-0.142761,0.692993,-4158,2841,26854,-8977,-28664
144598,9.65645,0.215332,0.114844,21.4014,-89.6979,135.417,4.5166,18.2495,-5.92041,0.14328,0.691498,-0.141815,0.693604,-3902,2585,26086,-8977,-28664
144604,9.64209,0.191406,0.191406,18.9349,-89.61,137.961,5.43213,17.7612,-3.23486,0.143036,0.691101,-0.140991,0.694214,-4158,1817,24806,-8977,-28664
144610,9.59902,0.200977,0.215332,16.0455,-89.5331,140.916,6.10352,16.7847,-0.671387,0.142761,0.690704,-0.14032,0.694794,-4926,793,18918,-8977,-28664
144616,9.71387,0.15791,0.244043,9.99207,-89.4067,147.019,6.46973,13.2446,3.479,0.142273,0.68988,-0.139526,0.695892,-5438,25,14822,-8977,-28664
144622,9.73301,0.090918,0.258398,7.1521,-89.3573,149.826,5.37109,10.6201,4.57764,0.142181,0.689484,-0.139496,0.696289,-5950,-488,12262,-8977,-28664
144628,9.80479,0.0526367,0.196191,4.45496,-89.3243,152.43,3.96729,8.05664,5.31006,0.142303,0.689117,-0.139801,0.696594,-5950,-488,10214,-8977,-28664
144634,9.86699,-0.00478516,0.177051,2.03247,-89.2969,154.693,2.19727,5.79834,5.31006,0.142761,0.688721,-0.140442,0.696716,-5438,-488,8678,-8977,-28664
144640,9.82393,-0.062207,0.143555,-0.181274,-89.2804,156.621,0.976562,4.21143,5.06592,0.143585,0.688324,-0.141541,0.696716,-3902,-1512,5094,-8977,-28664
144646,9.88135,-0.143555,0.177051,-2.67517,-89.2474,159.077,-0.915527,3.17383,2.62451,0.145325,0.687653,-0.143738,0.696594,-3134,-2792,3302,-8977,-28664
144652,9.88135,-0.13877,0.205762,-2.88391,-89.2365,159.285,-0.915527,2.74658,0.610352,0.145294,0.687531,-0.143829,0.696686,-2622,-4072,742,-8977,-28664
144658,9.78086,0,0.215332,-3.08716,-89.2255,159.516,-1.34277,2.0752,0.610352,0.145294,0.687469,-0.143829,0.696747,-2878,-4840,-283,-8977,-28664
144664,9.72344,0.062207,0.244043,-3.60352,-89.22,160.093,-1.70898,1.09863,1.46484,0.145111,0.687439,-0.143677,0.696838,-2878,-5352,-1051,-8977,-28664
144670,9.74258,0.0334961,0.186621,-4.60876,-89.22,161.186,-2.13623,-0.0610352,2.74658,0.144104,0.687592,-0.142914,0.697083,-3134,-5096,-1307,-8977,-28664
144676,9.82871,-0.124414,0.248828,-6.84448,-89.2365,163.603,-2.19727,-2.0752,2.74658,0.143433,0.687714,-0.142456,0.697174,-3134,-5096,-1563,-8977,-28664
144682,9.88135,-0.0574219,0.16748,-7.52014,-89.2474,164.372,-1.95312,-2.56348,1.46484,0.142792,0.687897,-0.141998,0.697235,-3646,-5864,-1819,-8977,-28664
144688,9.80957,-0.0430664,0.153125,-8.21228,-89.2694,165.163,-2.68555,-3.66211,1.28174,0.142151,0.68808,-0.14151,0.697266,-4158,-6120,-2075,-8977,-28664
144694,9.75215,0,0.0765625,-9.03625,-89.2859,166.08,-3.72314,-3.96729,1.46484,0.141541,0.688293,-0.141022,0.697296,-4670,-6888,-2331,-8977,-28664
144700,9.75693,0.0287109,0.0669922,-10.2997,-89.3024,167.448,-3.54004,-3.35693,2.56348,0.140137,0.688751,-0.139984,0.697327,-4926,-6376,-4379,-8977,-28664
144706,9.75693,-0.00957031,0.105273,-13.8538,-89.3079,171.255,-2.13623,-0.793457,4.63867,0.139282,0.688965,-0.139374,0.697418,-4670,-6632,-5659,-8977,-28664
144712,9.74258,-0.0143555,0.162695,-15.7489,-89.3079,173.293,-1.34277,-0.305176,4.69971,0.138336,0.689117,-0.138733,0.697571,-3646,-6632,-7707,-8977,-28664
144718,9.76172,0.0143555,0.210547,-18.1439,-89.3024,175.847,-0.915527,-0.549316,5.98145,0.137329,0.68927,-0.138,0.697784,-2366,-6376,-8475,-8977,-28664
144724,9.78564,0.0239258,0.181836,-20.9235,-89.2914,178.797,-0.732422,-1.0376,6.95801,0.136169,0.689453,-0.137207,0.697998,-574,-6376,-9243,-8977,-28664
144730,9.79043,-0.0430664,0.13877,-23.8843,-89.2859,-178.05,-0.732422,-1.58691,7.38525,0.133545,0.68988,-0.135529,0.698395,2499,-4584,-10267,-8977,-28664
144736,9.85264,-0.110059,0.0765625,-29.3225,-89.2639,-172.238,-0.12207,-1.0376,7.01904,0.132202,0.690094,-0.134613,0.698639,3779,-3304,-10779,-8977,-28664
144742,9.8335,-0.129199,0.133984,-31.377,-89.2529,-169.991,-0.12207,-0.915527,5.7373,0.130829,0.690277,-0.133698,0.698853,4547,-2536,-11291,-8977,-28664
144748,9.81436,-0.14834,0.133984,-33.2996,-89.2474,-167.888,-0.305176,-1.64795,5.00488,0.129517,0.690491,-0.132751,0.699066,4803,-1768,-11803,-8977,-28664
144754,9.82871,-0.13877,0.133984,-35.2002,-89.2474,-165.8,-0.915527,-2.50244,4.45557,0.128204,0.690735,-0.131775,0.699249,5571,-1512,-12059,-8977,-28664
144760,9.83828,-0.153125,0.13877,-37.0514,-89.2474,-163.768,-0.976562,-3.11279,3.84521,0.125732,0.691284,-0.129852,0.699524,7107,-744,-11291,-8977,-28664
144766,9.77607,-0.110059,0.0861328,-40.5396,-89.2529,-159.911,-0.549316,-2.99072,3.35693,0.124481,0.691559,-0.128876,0.699646,8387,25,-11547,-8977,-28664
144772,9.80479,-0.110059,0.0669922,-42.0392,-89.2529,-158.231,-0.305176,-2.38037,3.23486,0.12323,0.691833,-0.127899,0.699799,9411,793,-12059,-8977,-28664
144778,9.90049,-0.196191,0.062207,-43.1543,-89.2474,-156.934,-0.610352,-1.64795,2.56348,0.122009,0.692108,-0.126862,0.699921,10435,1817,-13339,-8977,-28664
144784,9.95312,-0.311035,0.0239258,-43.4894,-89.2474,-156.445,-0.549316,-0.610352,0.671387,0.12085,0.692322,-0.125885,0.700073,11459,3097,-15643,-8977,-28664
144790,9.8957,-0.277539,0.0334961,-42.9346,-89.2529,-156.846,-0.549316,0.427246,-1.58691,0.118958,0.692688,-0.123993,0.700409,12227,4889,-18715,-8977,-28664
144796,9.87178,-0.181836,0.0287109,-39.9188,-89.2584,-159.598,-0.12207,2.92969,-3.72314,0.118225,0.69278,-0.123077,0.700562,12227,5145,-19227,-8977,-28664
144802,9.87656,-0.215332,0.0430664,-37.5018,-89.2529,-161.9,0,4.15039,-4.82178,0.117584,0.692871,-0.122162,0.700775,11971,5657,-18971,-8977,-28664
144808,9.87656,-0.181836,0.143555,-34.574,-89.2529,-164.729,0.366211,4.57764,-6.22559,0.117035,0.692871,-0.121307,0.700989,11203,5913,-17691,-8977,-28664
144814,9.85264,-0.13877,0.153125,-31.6571,-89.2529,-167.542,0.488281,4.08936,-6.53076,0.116608,0.692902,-0.120453,0.701202,10947,6169,-16667,-8977,-28664
144820,9.79043,-0.062207,0.162695,-28.7183,-89.2529,-170.381,0.549316,3.90625,-6.71387,0.115814,0.692932,-0.118805,0.701569,9155,6425,-15387,-8977,-28664
144826,9.81914,-0.0382813,0.0526367,-23.1647,-89.2474,-175.759,0.305176,4.45557,-5.92041,0.115479,0.692932,-0.118042,0.701752,8899,6425,-15899,-8977,-28664
144832,9.77129,-0.0765625,0.0957031,-20.3082,-89.231,-178.533,1.0376,5.61523,-6.10352,0.115143,0.692932,-0.11734,0.701935,8899,6681,-16923,-8977,-28664
144838,9.67559,0.0239258,0.105273,-17.7869,-89.209,179.017,0.793457,6.46973,-5.18799,0.114868,0.692871,-0.116638,0.702148,9411,6425,-18459,-8977,-28664
144844,9.68037,0.105273,0.220117,-15.8478,-89.187,177.16,1.0376,6.34766,-3.90625,0.114594,0.69278,-0.115997,0.702393,9155,6425,-17691,-8977,-28664
144850,9.67559,0.143555,0.220117,-15.0293,-89.165,176.44,1.09863,5.00488,-1.15967,0.113678,0.692657,-0.114716,0.702881,8643,6169,-12827,-8977,-28664
144856,9.69473,0.090918,0.229688,-15.5511,-89.1321,177.188,0.732422,2.50244,2.56348,0.113007,0.692657,-0.114044,0.703094,8131,5657,-9499,-8977,-28664
144862,9.69951,0.00957031,0.244043,-16.6168,-89.1211,178.385,0.244141,1.0376,3.66211,0.112183,0.692688,-0.113373,0.703308,7875,4633,-7963,-8977,-28664
144868,9.7665,-0.0239258,0.258398,-18.056,-89.1156,179.962,-0.244141,-0.305176,4.5166,0.111298,0.692749,-0.112701,0.703491,8387,3865,-6683,-8977,-28664
144874,9.7665,-0.0574219,0.181836,-19.7205,-89.1156,-178.231,-1.15967,-1.52588,4.88281,0.110321,0.692871,-0.11203,0.703613,8643,3353,-5915,-8977,-28664
144880,9.84785,-0.129199,0.162695,-21.5332,-89.1156,-176.287,-1.95312,-2.31934,5.06592,0.108337,0.693207,-0.110718,0.703796,9667,3609,-5403,-8977,-28664
144886,9.82393,-0.0765625,0.215332,-25.0763,-89.1266,-172.474,-2.74658,-3.479,4.27246,0.10733,0.69339,-0.110046,0.703888,9923,3609,-4891,-8977,-28664
144892,9.79521,-0.0717773,0.229688,-27.0923,-89.1431,-170.31,-3.479,-5.31006,4.15039,0.106354,0.693634,-0.109375,0.703918,10179,3865,-3355,-8977,-28664
144898,9.71387,-0.0191406,0.191406,-29.6686,-89.1595,-167.596,-4.3335,-6.83594,4.94385,0.105347,0.693909,-0.108673,0.703918,10179,4121,-3099,-8977,-28664
144904,9.75693,0.0717773,0.210547,-33.0743,-89.176,-164.037,-4.94385,-8.36182,6.46973,0.104279,0.694214,-0.108002,0.703857,10435,3865,-3611,-8977,-28664
144910,9.71865,0.0239258,0.133984,-37.4963,-89.1925,-159.456,-5.67627,-10.1929,8.17871,0.101837,0.695007,-0.106628,0.703644,11203,4121,-4635,-8977,-28664
144916,9.71387,0,0.100488,-49.2188,-89.209,-147.393,-7.99561,-13.0615,11.6577,0.100464,0.695465,-0.105957,0.703491,11715,4377,-4379,-8977,-28664
144922,9.78086,-0.0574219,0.0526367,-55.6073,-89.2035,-140.823,-8.78906,-12.9395,12.3901,0.0989685,0.695984,-0.105316,0.703308,11715,5145,-4635,-8977,-28664
144928,9.84785,-0.15791,0.0526367,-61.5509,-89.176,-134.698,-8.54492,-12.085,12.7563,0.0974426,0.696472,-0.104675,0.703125,11459,6169,-4379,-8977,-28664
144934,9.77607,-0.162695,0.00478516,-66.4453,-89.1431,-129.606,-7.62939,-10.0098,12.6953,0.0958557,0.69693,-0.104004,0.702972,10691,7193,-3867,-8977,-28664
144940,9.78086,-0.0861328,0.00478516,-70.3619,-89.0936,-125.486,-6.53076,-8.05664,13.1226,0.0925293,0.697723,-0.102417,0.702881,8899,9241,-4379,-8977,-28664
144946,9.78564,-0.162695,0.0526367,-76.0803,-88.9783,-119.323,-4.76074,-5.24902,14.4043,0.0907593,0.698059,-0.101532,0.702881,8899,10777,-3867,-8977,-28664
144952,9.72344,-0.114844,0.0382813,-77.7612,-88.9069,-117.394,-2.38037,-3.23486,15.3809,0.0889282,0.698334,-0.100616,0.702972,9411,12313,-3611,-8977,-28664
144958,9.78086,-0.105273,-0.00957031,-78.6786,-88.8245,-116.213,0.12207,-0.732422,16.7847,0.0869141,0.698578,-0.0995789,0.703156,10435,13337,-1563,-8977,-28664
144964,-19.5952,4.46934,0.574219,-55.2942,-89.4012,-139.092,32.7148,20.6909,-131.592,0.0847778,0.69873,-0.0984802,0.7034,11715,13849,998,-8977,-28664
144970,0.301465,49.6173,-31.6825,53.6847,-87.3083,112.264,72.1436,254.456,-535.767,0.100891,0.693451,-0.0719299,0.709686,14019,13593,1766,-8977,-28664
144976,27.7204,-8.43623,29.0411,5.13611,-85.5396,160.131,43.0908,191.162,289.551,0.104462,0.680786,-0.0763855,0.720886,11459,10521,742,-8977,-28664
144982,8.4458,-5.68477,11.9725,-11.3104,-85.9241,176.446,30.0903,-86.0596,240.845,0.0964966,0.673859,-0.0845947,0.727539,7363,5145,-3867,-8977,-28664
144988,1.7418,-15.145,-0.813477,-22.7087,-87.1271,-172.963,-98.7549,-266.174,55.1758,0.0897217,0.675629,-0.0931091,0.725739,2755,-1000,-10779,-8977,-28664
144994,5.92881,-0.870898,-8.62764,-33.6786,-88.2312,-162.35,-128.784,-232.727,-28.6865,0.0918579,0.683105,-0.100952,0.717377,-830,-6376,-19227,-8977,-28664
145000,5.98623,2.04805,2.60791,-43.0884,-88.6322,-152.996,85.6323,27.3438,11.2915,0.0940552,0.693176,-0.10376,0.70697,-1598,-10216,-29979,-8977,-28664
145006,6.19678,2.01934,0.0526367,-37.2217,-88.0334,-157.467,142.761,83.313,48.8892,0.0904846,0.69278,-0.100464,0.708282,-1086,-10216,-29979,-8977,-28664
145012,10.0775,0.334961,-4.00518,-35.7825,-87.583,-158.22,105.347,78.5522,51.5747,0.0843506,0.690674,-0.0964355,0.71167,-1598,-9704,-27419,-8977,-28664
145018,12.7668,-1.11016,-1.75137,-35.9418,-87.2809,-157.709,32.959,48.584,40.8936,0.0789795,0.688568,-0.0933533,0.714691,-1854,-8680,-24603,-8977,-28664
145024,10.1015,-2.85674,1.08623,-35.8813,-87.204,-157.61,-11.3525,14.4043,10.9253,0.0758667,0.687225,-0.0921631,0.716492,-1854,-8168,-24091,-8977,-28664
145030,12.183,-2.04805,0.45459,-33.6566,-87.3083,-159.582,4.88281,-6.22559,-60.4248,0.0739746,0.687378,-0.0890503,0.716949,707,-6632,-28187,-8977,-28664
145036,11.0585,-0.344531,0.325391,-20.3412,-87.6874,-172.211,4.76074,-7.14111,-72.6318,0.073761,0.68808,-0.0851135,0.716766,2499,-6120,-31771,-8977,-28664
145042,8.10127,0.090918,0.626855,-11.6455,-87.8467,179.44,1.95312,-11.9629,-71.9604,0.073822,0.688873,-0.0807495,0.716522,4291,-6376,29669,-8977,-28664
145048,9.99141,0.354102,0.186621,-2.85645,-87.951,170.294,-0.854492,-12.8174,-68.2373,0.0738831,0.689728,-0.0764465,0.716125,4803,-7144,26085,-8977,-28664
145054,10.1062,0.291895,-0.277539,5.85022,-87.973,161.224,-1.64795,-6.40869,-63.5376,0.0780945,0.690125,-0.0765686,0.715302,4547,-8936,23269,-8977,-28664
145060,9.26885,0.301465,0.267969,14.1998,-87.9401,152.518,-3.90625,-3.72314,-61.6455,0.0862427,0.690369,-0.0772095,0.714081,1475,-15848,21733,-8977,-28664
145066,9.38369,0.325391,0.588574,28.9764,-87.7863,137.054,-8.78906,-7.93457,-58.1665,0.0901794,0.69043,-0.0776062,0.71347,-1342,-20200,21221,-8977,-28664
145072,10.2642,0.784766,0.0239258,35.1617,-87.6819,130.545,-9.70459,-7.8125,-54.6875,0.0939331,0.690643,-0.0779114,0.712738,-4158,-24296,19941,-8977,-28664
145078,8.99131,0.894824,0.416309,40.199,-87.572,125.156,-10.6201,-8.66699,-48.0957,0.0975037,0.690857,-0.0782471,0.712006,-7742,-28392,18917,-8977,-28664
145084,8.97695,1.12451,0.392383,44.0167,-87.4677,120.965,-8.48389,-7.08008,-40.2832,0.101074,0.69104,-0.07901,0.711273,-12094,32536,19173,-8977,-28664
145090,8.52715,1.61738,0.401953,46.7963,-87.3743,117.806,-3.35693,-4.02832,-19.5312,0.107788,0.691132,-0.0814514,0.70993,-21054,21784,18917,-8977,-28664
145096,8.5415,1.53125,0.669922,49.2737,-87.3138,114.62,-1.40381,-5.5542,-6.7749,0.110596,0.69104,-0.0830994,0.709381,-25150,15896,18149,-8977,-28664
145102,9.01523,1.58867,0.440234,49.2572,-87.3633,114.285,-0.488281,-6.28662,6.83594,0.112915,0.690979,-0.0850525,0.708832,-28734,10520,17381,-8977,-28664
145108,9.14443,1.40205,0.325391,48.609,-87.4567,114.593,-0.183105,-7.26318,16.9678,0.114807,0.690887,-0.0874329,0.708344,-32318,5144,16613,-8977,-28664
145114,8.9626,1.28242,0.334961,47.1698,-87.583,116.373,-1.46484,-8.42285,27.771,0.116364,0.690765,-0.0900879,0.707855,29890,536,16613,-8977,-28664
145120,9.22578,0.952246,0.191406,45.0055,-87.7313,118.872,-1.2207,-8.17871,40.7104,0.11026,0.691559,-0.0879211,0.708344,24514,-4585,19173,-8977,-28664
145126,9.46025,0.890039,0.133984,37.3041,-88.0664,127.255,-2.01416,-7.32422,46.6919,0.106873,0.691895,-0.0870972,0.708649,22722,-5609,20709,-8977,-28664
145132,9.52725,0.880469,0.339746,31.1133,-88.2422,133.786,-1.95312,-7.69043,52.8564,0.103363,0.692139,-0.0865173,0.708984,20930,-5865,21221,-8977,-28664
145138,9.30234,0.717773,0.30625,22.7032,-88.4015,142.537,-1.09863,-7.8125,58.7158,0.0996399,0.692383,-0.0860901,0.70932,19138,-6121,20965,-8977,-28664
145144,9.81436,0.531152,0.287109,11.8158,-88.5333,153.759,-2.2583,-9.70459,63.6597,0.0957336,0.692627,-0.0858459,0.709686,18370,-6121,21221,-8977,-28664
145150,10.2163,-0.062207,0.215332,-0.977783,-88.6102,166.893,-2.2583,-12.146,63.5986,0.0875549,0.693176,-0.0857544,0.710205,18370,-4073,22501,-8977,-28664
145156,10.3264,-0.392383,0.0239258,-26.0211,-88.5608,-167.393,-4.08936,-11.4746,58.2886,0.0834961,0.693481,-0.0856934,0.710388,19650,-2025,23525,-8977,-28664
145162,10.245,-0.564648,0.110059,-35.321,-88.4674,-157.769,-4.21143,-10.376,51.2085,0.0796509,0.693817,-0.0855103,0.710541,20930,1304,23013,-8977,-28664
145168,10.1685,-0.516797,0.133984,-42.5116,-88.3575,-150.249,-4.27246,-9.76562,45.0439,0.0760498,0.694122,-0.085144,0.710663,22978,4888,22757,-8977,-28664
145174,10.178,-0.535937,0.14834,-47.9993,-88.2532,-144.443,-5.06592,-9.82666,38.269,0.0726318,0.694427,-0.0845642,0.710785,25538,8728,22757,-8977,-28664
145180,10.1972,-0.521582,0.13877,-52.3279,-88.1543,-139.801,-6.5918,-9.46045,26.3672,0.0664978,0.69516,-0.0829468,0.710876,31682,17944,25573,-8977,-28664
145186,10.1732,-0.492871,0.129199,-58.1836,-88.0005,-133.325,-6.28662,-8.60596,21.6064,0.0637512,0.695526,-0.0818787,0.710907,-30270,22808,27365,-8977,-28664
145192,9.97227,-0.598145,0.119629,-60.1117,-87.9456,-131.089,-6.04248,-7.75146,16.2964,0.0611267,0.695892,-0.0806885,0.710907,-26686,27672,28901,-8977,-28664
145198,10.1589,-0.531152,0.0430664,-61.5234,-87.9181,-129.375,-6.22559,-7.08008,10.9253,0.0587158,0.696228,-0.0793152,0.710907,-22846,32280,30437,-8977,-28664
145204,9.97705,-0.579004,0.0765625,-62.3969,-87.9016,-128.21,-5.79834,-5.37109,6.04248,0.0565186,0.696594,-0.0778198,0.710907,-16702,-24296,-31771,-8977,-28664
145210,9.99141,-0.44502,0.0526367,-62.688,-87.9291,-127.348,-4.27246,-2.44141,-3.72314,0.0526733,0.697174,-0.0744629,0.710999,-14142,-19432,-30235,-8977,-28664
145216,9.91963,-0.349316,0.133984,-62.3199,-87.962,-127.458,-3.23486,-1.52588,-6.53076,0.0510864,0.697418,-0.0726318,0.71106,-11838,-15080,-28955,-8977,-28664
145222,9.87178,-0.220117,0.133984,-61.7432,-88.006,-127.782,-2.13623,-0.854492,-8.17871,0.0496826,0.697632,-0.0708313,0.711151,-9278,-10472,-28699,-8977,-28664
145228,9.71865,-0.13877,0.210547,-61.1279,-88.0444,-128.156,-1.0376,-0.854492,-8.54492,0.0484009,0.697815,-0.0690308,0.711212,-6974,-6632,-27675,-8977,-28664
145234,9.81914,-0.0526367,0.14834,-60.5511,-88.0829,-128.491,-0.0610352,-0.854492,-7.62939,0.0471802,0.697998,-0.0672607,0.711304,-3134,-1256,-24347,-8977,-28664
145240,9.86699,-0.220117,0.0334961,-59.3317,-88.1543,-129.282,0.244141,-0.427246,-7.69043,0.0447998,0.698334,-0.0639648,0.711426,-1086,793,-23323,-8977,-28664
145246,9.99141,-0.229688,0.062207,-58.3484,-88.1927,-130.078,0.732422,1.0376,-9.09424,0.0437927,0.698456,-0.062439,0.711487,963,1817,-22043,-8977,-28664
145252,9.79521,-0.186621,0.110059,-57.041,-88.2367,-131.215,1.2207,2.19727,-10.6201,0.0429382,0.698547,-0.0609741,0.711578,2755,2841,-21531,-8977,-28664
145258,9.8335,-0.0861328,0.172266,-55.6677,-88.2751,-132.435,1.34277,2.13623,-10.8032,0.0422363,0.698578,-0.0596008,0.7117,4035,3609,-21019,-8977,-28664
145264,9.69473,0,0.186621,-54.3988,-88.3136,-133.555,1.40381,1.58691,-9.94873,0.041626,0.698639,-0.0582886,0.711823,4547,5401,-18203,-8977,-28664
145270,9.74258,0.100488,0.153125,-52.641,-88.374,-135.011,1.64795,0.183105,-5.92041,0.0403748,0.698761,-0.0558472,0.711975,4547,6169,-17691,-8977,-28664
145276,9.66602,0.0813477,0.143555,-52.0532,-88.3905,-135.434,1.95312,0.183105,-4.15039,0.0396423,0.698822,-0.054718,0.712006,4291,6425,-16923,-8977,-28664
145282,9.69473,0.100488,0.124414,-51.6687,-88.4015,-135.665,1.89209,0.427246,-1.95312,0.0388184,0.698914,-0.0535889,0.712067,4291,6681,-17435,-8977,-28664
145288,9.68516,0.0574219,0.13877,-51.4819,-88.4015,-135.687,1.64795,0.427246,-0.12207,0.0379028,0.698975,-0.0525208,0.712158,4803,6425,-17179,-8977,-28664
145294,9.77607,0.0765625,0.090918,-51.4655,-88.396,-135.533,1.09863,0.305176,1.28174,0.0368958,0.699005,-0.0515137,0.712219,5571,5145,-14875,-8977,-28664
145300,9.63731,0.090918,0.129199,-51.9269,-88.3685,-134.714,0.732422,0.549316,4.88281,0.0346985,0.699127,-0.04953,0.712372,6083,4633,-13595,-8977,-28664
145306,9.64688,0.13877,0.162695,-52.4707,-88.3411,-133.978,0.671387,0.732422,7.26318,0.0334473,0.699158,-0.0485229,0.712463,5827,4633,-13851,-8977,-28664
145312,9.56074,0.110059,0.200977,-53.2727,-88.3026,-132.962,1.15967,0.549316,9.8877,0.0320435,0.699188,-0.0475159,0.712555,5315,4377,-13595,-8977,-28664
145318,9.69951,0.0861328,0.210547,-54.3109,-88.2532,-131.699,1.70898,0,12.085,0.030426,0.699219,-0.0465088,0.712646,4547,4377,-13851,-8977,-28664
145324,9.70908,-0.00478516,0.196191,-55.5249,-88.1982,-130.243,1.83105,-0.671387,13.7939,0.0286865,0.69928,-0.0454712,0.712738,4035,4121,-13851,-8977,-28664
145330,9.90527,-0.210547,0.105273,-57.7716,-88.0994,-127.524,1.40381,-0.976562,12.9395,0.0249023,0.699432,-0.0433655,0.71286,4035,3865,-13595,-8977,-28664
145336,9.96748,-0.378027,0.14834,-58.5242,-88.0554,-126.541,1.28174,-0.671387,10.1929,0.0230408,0.699524,-0.0422974,0.712921,4291,3609,-13339,-8977,-28664
145342,-52.7803,-8.66592,-2.98115,-41.4954,-88.2751,-143.432,35.0952,55.481,-103.638,0.0213623,0.699585,-0.0411987,0.712982,5059,3353,-14107,-8977,-28664
145348,131.118,2.42607,12.2691,12.5574,-87.4567,163.257,146.606,237,-335.327,0.0237122,0.69809,-0.0371094,0.7146,6339,3353,-14619,-8977,-28664
145354,11.159,44.8369,-42.1429,6.02051,-86.4294,170.002,-28.8086,209.412,40.4663,0.0297241,0.691254,-0.0217896,0.721588,5571,1305,-20251,-8977,-28664
145360,17.7194,-11.092,4.35928,-30.2179,-85.4791,-153.04,43.457,0.732422,231.384,0.0169067,0.682159,-0.0293884,0.730347,3011,-1256,-25371,-8977,-28664
145366,-8.63721,-13.8435,4.36885,-36.3373,-85.6549,-146.711,0.976562,-85.2051,59.8755,0.0067749,0.681763,-0.0334473,0.730713,963,-3816,-32027,-8977,-28664
145372,3.12471,-1.8375,-1.37334,-39.2596,-86.424,-143.965,-72.5098,-147.888,-67.3828,0.00350952,0.684296,-0.0340881,0.728302,-318,-5608,27109,-8977,-28664
145378,13.1305,3.49316,-1.50732,-42.0557,-87.0062,-141.196,-43.1519,-111.084,-53.2837,0.00643921,0.688995,-0.0333557,0.723907,1219,-6632,20453,-8977,-28664
145384,3.04336,3.98604,-1.00488,-44.2859,-87.226,-138.763,-1.70898,-51.7578,-13.916,0.00808716,0.692474,-0.0320129,0.720612,7363,-5864,13541,-8977,-28664
145390,10.7235,-0.100488,-1.23936,-47.785,-86.9458,-134.709,9.94873,11.9629,37.2314,0.00454712,0.694214,-0.0295715,0.719086,9411,-5864,12773,-8977,-28664
145396,10.9054,-1.33027,0.224902,-48.2849,-86.8195,-134,-1.28174,9.82666,23.4375,0.0017395,0.693726,-0.0290222,0.719604,10179,-5608,13285,-8977,-28664
145402,10.8097,-1.46904,1.48818,-48.6639,-86.803,-133.44,-4.88281,-4.08936,5.61523,-0.000274658,0.693329,-0.0284729,0.720001,10947,-5096,14053,-8977,-28664
145408,10.4795,-1.20107,1.30635,-48.7848,-86.8909,-133.132,-2.44141,-16.0522,-12.4512,-0.0015564,0.69339,-0.0275269,0.719971,11715,-4840,15077,-8977,-28664
145414,11.2021,-0.698633,0.339746,-48.7848,-87.0557,-132.957,-2.31934,-24.5972,-24.4751,-0.00234985,0.693848,-0.026062,0.719574,14019,-2792,16357,-8977,-28664
145420,8.64199,-0.215332,-0.30625,-48.7024,-87.3358,-132.742,-6.7749,-18.9819,-20.6299,-0.00296021,0.695282,-0.0226135,0.718323,14531,-2024,18149,-8977,-28664
145426,10.2307,-0.196191,-0.550293,-47.7136,-87.4347,-133.577,-5.67627,-8.8501,-20.5688,-0.00326538,0.695831,-0.0211182,0.717804,14787,-1256,19173,-8977,-28664
145432,9.98662,-0.162695,-0.401953,-45.8844,-87.5061,-135.258,-3.60107,0.0610352,-20.9351,-0.00354004,0.696075,-0.0195923,0.717621,14531,-744,21989,-8977,-28664
145438,10.3072,0.0334961,0,-43.7311,-87.5555,-137.258,-3.54004,4.08936,-19.7754,-0.00384521,0.696045,-0.0180054,0.717682,14019,-232,24293,-8977,-28664
145444,8.74727,-0.0191406,0.44502,-41.9128,-87.594,-138.944,-4.69971,2.31934,-16.8457,-0.00448608,0.695801,-0.0151062,0.717987,11715,281,28133,-8977,-28664
145450,10.0823,0.177051,-0.14834,-38.3423,-87.6709,-142.24,-4.27246,3.2959,-15.564,-0.00482178,0.69574,-0.0137939,0.718079,10947,25,30181,-8977,-28664
145456,9.50811,0.325391,0.062207,-36.3538,-87.6819,-144.08,-2.44141,6.22559,-13.855,-0.00521851,0.695618,-0.0124512,0.718231,10435,-488,31717,-8977,-28664
145462,9.44111,0.588574,0.143555,-34.6069,-87.6709,-145.668,-0.732422,8.60596,-9.58252,-0.00567627,0.695404,-0.0111084,0.718445,10435,-1256,-32027,-8977,-28664
145468,9.42197,0.588574,0.354102,-33.5303,-87.6434,-146.58,-0.427246,7.56836,-3.84521,-0.00637817,0.695099,-0.00982666,0.71875,9667,-2024,-30235,-8977,-28664
145474,9.35498,0.540723,0.248828,-33.0798,-87.605,-146.849,1.09863,7.14111,2.01416,-0.00845337,0.69455,-0.00762939,0.719269,7875,-4328,-27675,-8977,-28664
145480,9.77607,0.129199,0.267969,-33.2336,-87.5116,-146.316,2.13623,5.49316,7.44629,-0.00976562,0.694336,-0.00665283,0.719482,6339,-4840,-26907,-8977,-28664
145486,9.9627,0.0813477,0.200977,-33.5797,-87.4622,-145.783,2.19727,5.43213,9.0332,-0.0111694,0.694122,-0.00570679,0.719696,5315,-5864,-25883,-8977,-28664
145492,9.70908,-0.0143555,0.186621,-33.9972,-87.4127,-145.179,0.0610352,4.63867,9.39941,-0.0126343,0.693909,-0.00479126,0.719879,4291,-6376,-25371,-8977,-28664
145498,9.74736,-0.129199,0.13877,-34.3378,-87.3688,-144.657,-0.671387,4.39453,8.42285,-0.0140381,0.693726,-0.00393677,0.720032,3267,-7144,-24347,-8977,-28664
145504,9.73779,-0.0334961,0.100488,-34.519,-87.3193,-144.3,-0.427246,5.79834,7.69043,-0.0167236,0.693329,-0.00222778,0.720337,1219,-8424,-22555,-8977,-28664
145510,9.74736,0.114844,0.267969,-34.9805,-87.215,-143.47,-0.305176,6.34766,9.46045,-0.0180969,0.693115,-0.00134277,0.720551,451,-8424,-22811,-8977,-28664
145516,9.6708,-0.0382813,0.210547,-35.2771,-87.1545,-142.982,0.488281,6.95801,10.2539,-0.0195312,0.692871,-0.000488281,0.720734,-62,-8936,-21787,-8977,-28664
145522,9.99619,-0.110059,0.224902,-35.4803,-87.0996,-142.586,0.366211,7.44629,9.58252,-0.0210266,0.692627,0.000366211,0.720917,-62,-8936,-20507,-8977,-28664
145528,9.79043,-0.162695,0.311035,-35.6287,-87.0447,-142.245,1.15967,7.32422,8.8501,-0.0224915,0.692352,0.00125122,0.72113,451,-8936,-19739,-8977,-28664
145534,9.9627,-0.062207,0.31582,-35.7275,-86.9897,-141.949,1.09863,7.08008,8.17871,-0.0253906,0.691833,0.00311279,0.721527,1475,-8680,-18971,-8977,-28664
145540,9.82871,-0.100488,0.382812,-36.2329,-86.9019,-141.064,0.671387,3.90625,8.30078,-0.026825,0.69165,0.00405884,0.721649,1987,-7656,-19995,-8977,-28664
145546,9.8335,-0.200977,0.344531,-36.5131,-86.8744,-140.598,0.305176,2.2583,7.14111,-0.0282593,0.691498,0.00497437,0.721741,2499,-6376,-21019,-8977,-28664
145552,9.85264,-0.205762,0.311035,-36.7712,-86.8524,-140.164,-0.854492,0.793457,5.67627,-0.0296021,0.691376,0.00592041,0.721771,3523,-5096,-22555,-8977,-28664
145558,9.78564,-0.200977,0.325391,-37.0129,-86.8414,-139.752,-1.40381,-0.366211,4.5166,-0.0308838,0.691345,0.00683594,0.721771,4291,-3816,-25371,-8977,-28664
145564,9.86699,-0.177051,0.349316,-37.3206,-86.8359,-139.279,-1.89209,-1.77002,4.3335,-0.0332031,0.691345,0.00866699,0.721649,6595,-2536,-31259,-8977,-28664
145570,9.71387,-0.119629,0.301465,-37.9688,-86.8414,-138.307,-2.2583,-3.479,3.66211,-0.0343018,0.691406,0.00958252,0.721527,7619,-2280,31461,-8977,-28664
145576,9.82871,-0.124414,0.282324,-38.3313,-86.8469,-137.785,-2.0752,-3.84521,3.41797,-0.0354004,0.691498,0.0104675,0.721375,8643,-2024,28901,-8977,-28664
145582,9.75693,-0.229688,0.220117,-38.595,-86.8579,-137.362,-1.64795,-3.41797,2.31934,-0.0364685,0.691589,0.0113525,0.721222,9155,-1256,26853,-8977,-28664
145588,9.9292,-0.16748,0.162695,-38.7653,-86.8634,-137.038,-1.58691,-2.19727,1.89209,-0.0375061,0.69165,0.0122681,0.721069,10179,-1256,25061,-8977,-28664
145594,9.93877,-0.16748,0.210547,-38.8641,-86.8634,-136.785,-1.46484,-1.77002,1.2207,-0.0394592,0.691711,0.0140991,0.720856,10947,25,24549,-8977,-28664
145600,9.84307,-0.153125,0.229688,-38.7653,-86.8799,-136.588,-1.15967,-1.0376,-1.0376,-0.0403748,0.691742,0.0150146,0.720795,10947,25,25829,-8977,-28664
145606,9.74258,-0.0574219,0.287109,-38.6884,-86.8909,-136.522,-0.915527,-1.2207,-0.915527,-0.0412292,0.691742,0.0159607,0.720703,11459,537,26341,-8977,-28664
145612,9.73779,-0.00478516,0.258398,-38.6774,-86.8964,-136.379,0,-1.0376,0.305176,-0.0420837,0.691742,0.0169067,0.720642,12227,1049,27621,-8977,-28664
145618,9.69473,-0.0574219,0.291895,-38.7378,-86.9019,-136.165,0.12207,-1.15967,1.15967,-0.0430298,0.691742,0.0178528,0.720551,12739,1817,27621,-8977,-28664
145624,9.85264,-0.0717773,0.291895,-38.9081,-86.9019,-135.846,0.183105,-1.58691,2.31934,-0.0449829,0.691772,0.0196533,0.720367,14531,1817,26341,-8977,-28664
145630,9.72822,-0.15791,0.349316,-39.5673,-86.9128,-134.89,-0.610352,-4.08936,2.80762,-0.04599,0.691833,0.0204773,0.720245,14531,1817,25829,-8977,-28664
145636,9.72822,-0.0669922,0.397168,-40.0671,-86.9293,-134.242,-0.915527,-6.10352,3.11279,-0.0469666,0.691925,0.0213318,0.720062,15043,1561,24805,-8977,-28664
145642,9.74258,0,0.397168,-40.8252,-86.9458,-133.336,-1.58691,-8.17871,4.88281,-0.0479431,0.692078,0.0221558,0.719818,15043,2073,25061,-8977,-28664
145648,9.73779,-0.0669922,0.363672,-41.8085,-86.9678,-132.209,-2.01416,-10.498,5.85938,-0.0489502,0.692291,0.0229187,0.719513,15555,3609,24805,-8977,-28664
145654,9.81436,-0.16748,0.248828,-42.962,-86.9952,-130.908,-2.50244,-12.085,6.5918,-0.0510559,0.692963,0.0243835,0.718689,15555,6425,25829,-8977,-28664
145660,9.8335,-0.220117,0.177051,-45.5109,-87.0502,-128.09,-4.08936,-13.9771,6.16455,-0.0520935,0.693329,0.0250854,0.718231,15555,7449,27365,-8977,-28664
145666,9.84307,-0.263184,0.119629,-46.7853,-87.0776,-126.683,-4.57764,-13.855,5.49316,-0.0531006,0.693726,0.0257568,0.717743,15043,8473,29925,-8977,-28664
145672,9.9292,-0.239258,0.090918,-47.9883,-87.1106,-125.354,-5.31006,-13.4888,4.27246,-0.0540161,0.694122,0.0264282,0.717255,14531,9497,31973,-8977,-28664
145678,9.87656,-0.277539,0.0717773,-49.0814,-87.1436,-124.14,-5.31006,-12.5122,3.2959,-0.0548706,0.694519,0.0270996,0.716797,14275,10009,-31771,-8977,-28664
145684,6.55088,-62.9296,24.6483,-49.1858,-87.1875,-123.92,-3.41797,-6.7749,-5.31006,-0.0562134,0.695068,0.028656,0.716095,15299,10009,-31003,-8977,-28664
145690,17.7146,46.7845,-33.7641,39.5068,-84.8364,148.458,93.9941,230.835,-366.272,-0.0396423,0.687042,0.0551758,0.723358,15811,9241,-31003,-8977,-28664
145696,19.5521,22.7104,13.2022,27.3065,-85.2594,160.175,-162.598,38.8184,211.731,-0.0305786,0.678741,0.0675964,0.73056,14019,6169,-32027,-8977,-28664
145702,22.3945,-3.21084,2.14375,11.1237,-86.2646,176.424,-52.124,-110.474,288.147,-0.0344238,0.678162,0.0578003,0.73175,9667,537,30693,-8969,-28665
145708,7.10596,-14.2502,1.82793,-5.19104,-87.0502,-167.404,-74.646,-145.264,192.2,-0.0436096,0.682312,0.0494995,0.727997,4803,-5864,27109,-8969,-28665
145714,12.8386,0.392383,0.435449,-14.0845,-87.8741,-158.796,-86.3647,-173.645,43.8843,-0.0477905,0.693115,0.039856,0.718079,-5438,-18152,21989,-8969,-28665
145720,10.5178,1.18672,-0.430664,-26.4166,-88.5773,-146.459,11.0474,-34.0576,8.23975,-0.0466309,0.697021,0.0383911,0.714417,-7230,-20200,23525,-8969,-28665
145726,3.61758,1.26807,-0.468945,-29.6906,-88.418,-142.756,52.1851,19.2261,29.4189,-0.0482788,0.698059,0.0395203,0.713257,-7742,-20456,26853,-8969,-28665
145732,11.7141,0.684277,-2.63184,-30.564,-88.1213,-141.542,42.1753,49.4995,34.79,-0.0519104,0.697357,0.0411987,0.713593,-8254,-19688,31973,-8969,-28665
145738,10.3886,0.0669922,-1.30156,-30.3992,-87.8851,-141.531,16.1133,41.748,22.4609,-0.0551758,0.69577,0.0420532,0.714844,-8510,-18664,-28955,-8969,-28665
145744,10.2977,-0.698633,1.60781,-29.8938,-87.8247,-141.982,-5.92041,14.5264,2.50244,-0.0575562,0.694031,0.042572,0.716309,-10302,-17896,-19995,-8969,-28665
145750,10.0919,-0.124414,0.516797,-27.5592,-87.9565,-144.102,0.915527,-10.5591,-18.8599,-0.0577698,0.694122,0.043396,0.716156,-10302,-16872,-17691,-8969,-28665
145756,10.446,0.741699,-0.0478516,-26.6803,-88.0499,-144.849,-1.15967,-12.2681,-14.0991,-0.0579834,0.694397,0.0447693,0.71579,-9278,-15592,-15899,-8969,-28665
145762,8.25439,0.200977,0.0526367,-26.7352,-88.1158,-144.668,-1.52588,-11.1694,-6.10352,-0.0583191,0.694733,0.0459595,0.715363,-7998,-14312,-16155,-8969,-28665
145768,9.98184,-0.15791,-0.626855,-26.3232,-88.1378,-144.954,0.305176,-2.38037,-5.00488,-0.0589294,0.695038,0.0469666,0.714935,-7230,-13544,-15899,-8969,-28665
145774,10.1158,-0.110059,-0.0287109,-24.8401,-88.1213,-146.327,1.28174,8.60596,-7.44629,-0.0600586,0.694763,0.0487366,0.714996,-5438,-13544,-15643,-8969,-28665
145780,9.63731,0.0526367,0.15791,-21.1707,-88.0334,-149.793,1.09863,14.0381,-7.87354,-0.0604553,0.694336,0.0495911,0.715332,-4670,-13544,-16155,-8969,-28665
145786,9.39805,-0.0430664,0.205762,-19.3579,-87.995,-151.512,1.15967,12.6343,-9.39941,-0.0608826,0.693848,0.0503845,0.715668,-3902,-12008,-16923,-8969,-28665
145792,9.9292,0.311035,-0.0574219,-17.7704,-87.9456,-153.007,1.70898,14.2212,-7.62939,-0.0612488,0.69342,0.051239,0.716003,-3646,-10728,-15899,-8969,-28665
145798,9.44111,0.449805,0.0861328,-16.7596,-87.8741,-153.918,3.17383,16.7847,-2.86865,-0.061615,0.692963,0.0519714,0.71637,-4158,-9192,-14107,-8969,-28665
145804,9.67559,0.287109,0.334961,-16.2268,-87.7972,-154.352,5.37109,17.334,4.02832,-0.0628662,0.691864,0.0531616,0.717224,-5438,-8168,-10267,-8969,-28665
145810,9.56074,0.282324,0.349316,-16.507,-87.627,-153.82,6.71387,16.3574,8.30078,-0.0637512,0.691315,0.0537109,0.717651,-5950,-8168,-9243,-8969,-28665
145816,9.80479,-0.119629,0.406738,-16.908,-87.55,-153.276,7.14111,14.8926,8.23975,-0.0648804,0.690796,0.0542603,0.718018,-5950,-8680,-9243,-8969,-28665
145822,9.90527,-0.0861328,0.258398,-17.2211,-87.4786,-152.809,7.69043,14.0991,7.50732,-0.0660706,0.690308,0.0548401,0.718323,-5182,-8680,-10779,-8969,-28665
145828,9.97705,0.0191406,0.354102,-17.5067,-87.4072,-152.375,6.40869,12.8784,7.01904,-0.0672607,0.689819,0.055481,0.718628,-4158,-8680,-12315,-8969,-28665
145834,9.58945,-0.16748,0.411523,-17.9187,-87.3523,-151.815,3.78418,8.11768,6.46973,-0.0696106,0.689026,0.0568237,0.719055,-1598,-8424,-15387,-8969,-28665
145840,9.90527,-0.0717773,0.301465,-18.5614,-87.2754,-150.864,2.74658,7.01904,5.49316,-0.0707703,0.688751,0.0575562,0.719177,195,-8424,-16155,-8969,-28665
145846,9.8,-0.119629,0.45459,-18.7592,-87.2479,-150.513,1.64795,4.69971,3.84521,-0.0718994,0.688477,0.0582886,0.719238,1731,-8424,-17179,-8969,-28665
145852,10.1062,-0.105273,0.334961,-18.858,-87.2314,-150.26,1.34277,3.479,2.50244,-0.0729675,0.688293,0.0591125,0.719238,3011,-7400,-19227,-8969,-28665
145858,9.74258,-0.13877,0.401953,-18.8525,-87.226,-150.112,0.305176,1.64795,0.732422,-0.0740051,0.688141,0.059967,0.719238,3267,-6632,-20763,-8969,-28665
145864,9.72344,-0.105273,0.349316,-18.8361,-87.2314,-149.974,-0.305176,-0.610352,-0.183105,-0.0759277,0.687958,0.0617981,0.719025,4291,-4072,-26395,-8969,-28665
145870,9.99141,-0.0765625,0.267969,-18.7097,-87.2479,-149.782,-0.671387,-1.15967,-1.2207,-0.0768738,0.687927,0.0627747,0.718903,4803,-3304,-28699,-8969,-28665
145876,9.69473,0.0669922,0.320605,-18.6603,-87.2644,-149.672,-0.793457,-1.46484,-0.732422,-0.0778198,0.687897,0.0637817,0.71875,5571,-2792,-31003,-8969,-28665
145882,9.71865,0.0526367,0.368457,-18.7701,-87.2754,-149.398,-1.34277,-2.50244,0.488281,-0.0787964,0.687866,0.0647888,0.718567,6083,-2536,-32283,-8969,-28665
145888,9.73779,-0.00957031,0.239258,-18.9569,-87.2919,-149.041,-1.77002,-3.11279,1.09863,-0.079834,0.687866,0.0657959,0.718353,6851,-2024,31461,-8969,-28665
145894,9.70908,-0.0143555,0.301465,-19.1931,-87.3083,-148.64,-2.80762,-3.54004,1.89209,-0.0819702,0.687897,0.0678101,0.717896,7875,-488,30437,-8969,-28665
145900,9.76172,-0.0287109,0.339746,-19.8358,-87.3413,-147.651,-2.92969,-3.90625,2.38037,-0.0830688,0.687927,0.0687866,0.717651,8387,25,30181,-8969,-28665
145906,9.85264,0.00478516,0.258398,-20.2423,-87.3578,-147.063,-2.68555,-3.479,3.05176,-0.084198,0.687958,0.0697937,0.717377,8899,281,31461,-8969,-28665
145912,9.64209,0.0430664,0.330176,-20.7257,-87.3688,-146.393,-2.50244,-3.35693,3.84521,-0.0853882,0.687988,0.0708008,0.717102,9667,281,32229,-8969,-28665
145918,9.82871,-0.00957031,0.234473,-21.308,-87.3743,-145.613,-1.83105,-2.80762,5.06592,-0.0866394,0.687988,0.0718384,0.716858,10691,537,32741,-8969,-28665
145924,9.82871,-0.0382813,0.191406,-22.2363,-87.3743,-144.294,-0.793457,-0.305176,4.5166,-0.0893555,0.687927,0.0739441,0.71637,10691,793,32229,-8969,-28665
145930,9.83828,-0.124414,0.234473,-22.5714,-87.3688,-143.756,-0.610352,0.305176,3.96729,-0.0907288,0.687836,0.0750427,0.716187,10947,1049,32229,-8969,-28665
145936,9.98184,-0.181836,0.248828,-22.7032,-87.3578,-143.421,-0.366211,1.0376,2.2583,-0.0921021,0.687714,0.0761414,0.716003,11203,793,31973,-8969,-28665
145942,9.91484,-0.162695,0.234473,-22.6593,-87.3523,-143.267,-0.427246,1.52588,0.671387,-0.0933838,0.687561,0.077301,0.715851,11459,793,-32539,-8969,-28665
145948,9.85742,-0.114844,0.263184,-22.5,-87.3523,-143.229,-0.854492,1.58691,-0.488281,-0.094635,0.687408,0.0784912,0.715729,11203,25,-31515,-8969,-28665
145954,9.80957,-0.0287109,0.267969,-22.0111,-87.3413,-143.328,0,2.19727,-1.09863,-0.0969849,0.687012,0.0809021,0.715485,10947,-488,-31259,-8969,-28665
145960,9.67559,0.0669922,0.325391,-21.8848,-87.3358,-143.251,0,2.0752,0.0610352,-0.098175,0.686829,0.0821228,0.715393,10947,-1000,-32027,-8969,-28665
145966,9.75693,0.00957031,0.349316,-21.8848,-87.3248,-143.047,0.732422,1.64795,1.2207,-0.0994263,0.686615,0.0833435,0.715271,10947,-1512,-32539,-8969,-28665
145972,9.81914,-0.0430664,0.320605,-21.9507,-87.3193,-142.767,1.15967,1.34277,1.83105,-0.100739,0.686432,0.0845642,0.715118,11459,-1768,32485,-8969,-28665
145978,9.75215,-0.062207,0.325391,-22.0441,-87.3138,-142.46,1.2207,1.0376,1.95312,-0.102112,0.686249,0.0857849,0.714966,11459,-1000,32485,-8969,-28665
145984,9.91006,-0.205762,0.339746,-22.0166,-87.3193,-142.075,1.15967,-0.610352,-0.488281,-0.104797,0.685913,0.0882568,0.7146,11459,-744,-32027,-8969,-28665
145990,9.96748,-0.234473,0.239258,-21.7749,-87.3303,-142.119,0.305176,-1.28174,-2.50244,-0.106049,0.68576,0.0895386,0.714386,11459,-232,-30747,-8969,-28665
145996,9.93877,-0.244043,0.277539,-21.3684,-87.3523,-142.339,-0.427246,-1.89209,-4.45557,-0.107178,0.685638,0.0908203,0.714172,11203,25,-28955,-8969,-28665
146002,9.95791,-0.224902,0.267969,-20.7147,-87.3743,-142.811,-0.427246,-2.13623,-6.95801,-0.108185,0.685547,0.0921021,0.713959,11971,-232,-27931,-8969,-28665
146008,9.87656,-0.162695,0.272754,-19.8688,-87.4072,-143.481,-0.854492,-2.44141,-8.8501,-0.10907,0.685455,0.0934143,0.713745,11971,-1000,-27419,-8969,-28665
146014,9.81914,-0.0526367,0.339746,-18.0286,-87.4786,-144.992,-2.2583,-4.3335,-10.0098,-0.110565,0.685272,0.0960693,0.713318,12483,-1512,-28187,-8969,-28665
146020,9.77129,-0.00957031,0.363672,-17.1112,-87.5226,-145.75,-2.2583,-5.5542,-10.0708,-0.111267,0.685242,0.0973816,0.713074,12483,-1768,-29979,-8969,-28665
146026,-156.527,-30.9313,-27.3759,15.4797,-88.2587,-177.962,103.699,-130.92,-265.381,-0.111908,0.685242,0.0986633,0.712769,12995,-2280,-31515,-8969,-28665
146032,78.2421,37.2572,-5.7374,37.76,-87.3413,160.142,136.841,93.689,-235.229,-0.106384,0.68808,0.108887,0.709412,12483,-3048,32229,-8969,-28665
146038,28.0602,29.802,-40.8652,10.4919,-86.8689,-173.079,-47.2412,209.839,197.815,-0.102112,0.683899,0.11792,0.712616,9155,-6632,27621,-8969,-28665
146044,13.3793,-11.6566,3.24912,-33.6896,-86.781,-129.798,-30.5176,-89.2334,169.312,-0.112305,0.680603,0.0956421,0.71759,5571,-9704,24805,-8969,-28665
146050,-9.56074,-12.7764,-1.65088,-42.4731,-87.3303,-121.52,-52.9175,-132.324,-6.16455,-0.114716,0.684723,0.0881958,0.714233,2499,-12264,20197,-8969,-28665
146056,9.81436,-1.45469,-3.62715,-46.1755,-88.028,-118.356,-59.2041,-112.366,-85.9985,-0.111084,0.689514,0.0856628,0.71048,1219,-13288,16613,-8969,-28665
146062,9.21143,4.09609,-0.899609,-44.5001,-88.418,-120.3,-3.2959,-40.1611,-69.8242,-0.104919,0.69339,0.0852966,0.707703,1987,-12264,13029,-8969,-28665
146068,1.6126,3.97646,-0.0813477,-43.1763,-88.5168,-121.756,26.1841,-2.50244,-25.0854,-0.101135,0.694824,0.0857544,0.706787,4803,-8168,12005,-8961,-28666
146074,10.446,0.583789,-0.985742,-53.0585,-88.2257,-112.291,3.72314,3.2959,40.5884,-0.0997314,0.695343,0.0835571,0.706726,5571,-7400,14309,-8961,-28666
146080,11.1686,-1.225,0.430664,-57.442,-88.1049,-108.221,-7.56836,-2.13623,30.4565,-0.0995789,0.695831,0.0805969,0.706604,5571,-7400,15845,-8961,-28666
146086,11.2212,-2.20117,0.851758,-59.8206,-88.0829,-106.1,0.549316,-5.43213,6.71387,-0.0987549,0.696442,0.0776672,0.706451,5571,-7656,17381,-8961,-28666
146092,11.2068,-2.04805,0.645996,-60.2545,-88.1873,-105.897,4.63867,-7.69043,-21.1792,-0.0974426,0.697021,0.0757446,0.706268,6339,-7912,19173,-8961,-28666
146098,11.4796,-0.913965,-0.244043,-59.4196,-88.374,-106.974,1.34277,-9.09424,-38.269,-0.095459,0.69751,0.0748901,0.706146,8131,-7144,23269,-8961,-28666
146104,8.94824,0.0239258,-0.411523,-54.267,-88.6981,-112.637,-0.732422,2.0752,-37.1094,-0.0901184,0.698364,0.0740356,0.706085,8131,-6120,25573,-8961,-28666
146110,10.1254,0.119629,-0.459375,-48.0872,-88.797,-119.053,1.0376,12.3901,-36.6211,-0.0875854,0.698517,0.0735474,0.706329,8131,-6120,29669,-8961,-28666
146116,9.58467,0.291895,-0.0239258,-40.6549,-88.8519,-126.722,1.64795,18.3105,-32.1655,-0.0851135,0.698303,0.0730896,0.706879,7363,-6632,30949,-8961,-28666
146122,9.91006,0.569434,0.15791,-33.8818,-88.8574,-133.726,1.83105,18.9819,-25.8179,-0.0828552,0.697906,0.0725098,0.707581,6851,-7400,31973,-8961,-28666
146128,8.95781,0.177051,0.459375,-27.8888,-88.8519,-139.949,2.44141,17.2729,-22.8271,-0.08078,0.69754,0.0717163,0.708282,4547,-10728,31461,-8961,-28666
146134,9.95312,0.440234,-0.00957031,-16.441,-88.7915,-151.842,3.479,19.2871,-21.2402,-0.0768433,0.696869,0.0700989,0.709564,3011,-12520,30437,-8961,-28666
146140,9.20664,0.564648,0.378027,-12.3981,-88.7311,-156.11,3.23486,19.3481,-16.4795,-0.0749512,0.696442,0.0692749,0.710236,707,-15080,30181,-8961,-28666
146146,9.65645,0.660352,0.31582,-9.53064,-88.6652,-159.203,3.17383,18.2495,-12.6953,-0.0731812,0.696045,0.0682983,0.710907,-1854,-17896,28901,-8961,-28666
146152,9.3167,0.679492,0.47373,-8.05298,-88.5938,-160.906,5.31006,18.0664,-6.95801,-0.0715027,0.695679,0.0671997,0.711548,-3902,-20968,27877,-8961,-28666
146158,9.32148,0.736914,0.583789,-8.00354,-88.5278,-161.175,6.10352,15.8691,-0.366211,-0.0700073,0.695312,0.0659485,0.712158,-7230,-27368,25573,-8961,-28666
146164,9.63252,0.564648,0.46416,-10.5194,-88.4344,-159.115,6.04248,10.0098,8.60596,-0.0675354,0.694885,0.0629272,0.713074,-9022,-30184,23525,-8961,-28666
146170,9.8957,0.497656,0.430664,-12.8156,-88.4015,-157.077,3.05176,6.04248,12.085,-0.0664062,0.694824,0.0611877,0.713409,-10558,-32488,21477,-8969,-28665
146176,9.47461,0.277539,0.497656,-15.4523,-88.374,-154.709,1.77002,4.15039,14.2212,-0.0652466,0.694885,0.0592041,0.713623,-11838,30744,20965,-8969,-28665
146182,9.69951,0.186621,0.258398,-18.0505,-88.3466,-152.386,1.83105,3.78418,14.5264,-0.0640564,0.695007,0.0570679,0.713776,-12606,28952,21221,-8969,-28665
146188,9.70908,0.177051,0.397168,-20.6213,-88.3191,-150.106,-0.366211,2.2583,14.4653,-0.0628357,0.695129,0.0549316,0.713928,-12606,26904,24037,-8961,-28666
146194,9.79043,0.143555,0.46416,-25.6036,-88.2697,-145.723,-0.549316,0.427246,14.4043,-0.0601501,0.695496,0.050415,0.714142,-12350,27160,25061,-8961,-28666
146200,9.85742,0.0813477,0.392383,-28.0371,-88.2532,-143.602,-1.52588,-1.46484,13.6108,-0.0587463,0.695709,0.0480957,0.714203,-11326,27160,26085,-8961,-28666
146206,9.94834,-0.0574219,0.382812,-30.2124,-88.2367,-141.746,-1.34277,-2.01416,11.9629,-0.057251,0.695984,0.0457458,0.714233,-10814,27416,26085,-8961,-28666
146212,9.94355,-0.100488,0.30625,-31.9647,-88.2202,-140.306,-1.0376,-1.46484,9.64355,-0.0556641,0.696259,0.0434265,0.714233,-10302,27928,24293,-8961,-28666
146218,10.1062,-0.0813477,0.325391,-33.3875,-88.2147,-139.208,-1.40381,-1.46484,7.44629,-0.0540161,0.696503,0.0411987,0.714264,-9790,29208,18405,-8961,-28666
146224,9.92441,-0.00478516,0.354102,-35.5957,-88.2037,-137.664,-1.64795,-1.77002,4.57764,-0.0503845,0.69696,0.0367737,0.714325,-10302,30232,15333,-8961,-28666
146230,9.8335,-0.0334961,0.354102,-36.4471,-88.2092,-137.148,-1.89209,-2.0752,3.11279,-0.0484924,0.697174,0.0345764,0.714355,-10558,31256,13285,-8961,-28666
146236,9.85264,-0.0287109,0.267969,-37.0953,-88.2092,-136.846,-2.19727,-1.46484,2.01416,-0.0464783,0.697388,0.0323792,0.714386,-10814,32024,12005,-8961,-28666
146242,9.71387,0.0239258,0.31582,-37.6117,-88.2092,-136.681,-2.2583,-0.793457,1.52588,-0.0444031,0.697571,0.0302124,0.714417,-10814,32536,11493,-8961,-28666
146248,9.93877,0.0669922,0.234473,-37.9907,-88.2092,-136.653,-1.70898,0.0610352,1.15967,-0.0401917,0.697845,0.0258179,0.714569,-11070,-31720,11749,-8961,-28666
146254,9.77607,0.062207,0.291895,-38.54,-88.1873,-136.802,-1.15967,2.0752,1.77002,-0.0380859,0.697937,0.0236206,0.714691,-10558,-31208,12005,-8961,-28666
146260,9.77607,0.0143555,0.320605,-38.2654,-88.1708,-136.73,-0.671387,3.11279,1.95312,-0.0359802,0.697968,0.0213928,0.714844,-10046,-30696,12517,-8961,-28666
146266,9.80479,0.00478516,0.30625,-37.8204,-88.1488,-136.835,-0.183105,3.78418,0.976562,-0.038147,0.697784,0.0234375,0.714844,-9534,-31464,14309,-8961,-28666
146272,9.79521,0.0669922,0.373242,-37.3425,-88.1323,-136.978,0,4.02832,0.793457,-0.0403137,0.69754,0.0255127,0.714874,-9278,-31208,15589,-8961,-28666
146278,9.82393,0.0574219,0.339746,-36.8536,-88.1104,-137.126,0.244141,4.08936,0.671387,-0.0445557,0.697083,0.0296326,0.714935,-7998,-30696,17125,-8961,-28666
146284,9.8335,0.0669922,0.344531,-35.744,-88.0719,-137.565,0.854492,4.94385,0.549316,-0.0466309,0.696808,0.0317078,0.714966,-7486,-29928,16357,-8961,-28666
146290,9.81436,0.0287109,0.373242,-35.1178,-88.0499,-137.856,1.34277,5.18799,0,-0.0487366,0.696533,0.0337219,0.714996,-6974,-29672,15589,-8969,-28665
146296,9.87178,0.0191406,0.378027,-34.4806,-88.028,-138.164,1.77002,5.43213,-0.0610352,-0.0507812,0.696259,0.0357666,0.715027,-6462,-29672,15333,-8969,-28665
146302,9.8335,-0.00957031,0.421094,-33.8049,-88.006,-138.516,1.64795,5.00488,-0.854492,-0.0528259,0.695953,0.0377808,0.715088,-6974,-29672,14053,-8969,-28665
146308,9.8,0.062207,0.488086,-33.1677,-87.995,-138.84,1.58691,4.27246,-1.15967,-0.0567322,0.695374,0.0417786,0.715088,-6974,-29160,10725,-8969,-28665
146314,9.69473,0.0765625,0.535937,-32.2284,-87.9785,-139.153,1.46484,1.46484,-0.976562,-0.0586243,0.695129,0.0437317,0.715057,-6206,-28648,10213,-8969,-28665
146320,9.77607,0.0765625,0.526367,-32.0746,-87.984,-139.01,0.671387,-0.671387,-0.549316,-0.0604858,0.694946,0.0456543,0.714966,-5182,-28392,10213,-8969,-28665
146326,9.7665,0.0382813,0.521582,-32.1075,-87.995,-138.68,-0.0610352,-3.11279,-0.549316,-0.0623169,0.694824,0.0475159,0.714813,-4158,-28648,10469,-8969,-28665
146332,9.80957,0.062207,0.550293,-32.3108,-88.017,-138.186,-0.671387,-5.37109,-0.671387,-0.0641174,0.694763,0.0493469,0.7146,-3134,-28904,10469,-8969,-28665
146338,9.75693,0.105273,0.492871,-32.7393,-88.0499,-137.477,-1.09863,-7.32422,-0.183105,-0.0675659,0.694885,0.052887,0.713928,-2366,-29160,11749,-8969,-28665
146344,9.74258,0.0669922,0.421094,-34.2554,-88.1268,-135.412,-2.56348,-10.8032,0.549316,-0.0692749,0.695007,0.0545959,0.713501,-1854,-29416,13541,-8969,-28665
146350,9.80957,0.0574219,0.358887,-35.2167,-88.1708,-134.187,-3.23486,-11.4746,0.488281,-0.0709229,0.69519,0.0562744,0.713013,-1342,-29672,15845,-8969,-28665
146356,9.8,0.0526367,0.330176,-36.3153,-88.2147,-132.83,-3.90625,-11.7798,0.915527,-0.0725708,0.695404,0.0578918,0.712524,-1086,-29160,17381,-8969,-28665
146362,9.80479,0.0574219,0.282324,-37.381,-88.2532,-131.506,-4.27246,-11.3525,0.549316,-0.0741577,0.695587,0.0595093,0.712036,-574,-28904,18149,-8969,-28665
146368,9.81914,0.0574219,0.186621,-38.3917,-88.2916,-130.243,-4.57764,-10.5591,0.366211,-0.077301,0.695953,0.0626526,0.71106,-1342,-28392,17893,-8969,-28665
146374,9.75693,0.090918,0.15791,-40.0507,-88.3521,-128.073,-4.5166,-7.44629,0.610352,-0.0788269,0.696075,0.064209,0.710632,-1598,-28392,18405,-8969,-28665
146380,9.81436,0.090918,0.177051,-40.6989,-88.3685,-127.172,-3.90625,-5.49316,1.15967,-0.0803833,0.696136,0.0657654,0.710266,-2366,-28648,19429,-8969,-28665
146386,9.71865,0.133984,0.239258,-41.2756,-88.374,-126.332,-3.35693,-3.78418,2.0752,-0.0820007,0.696136,0.0673218,0.70993,-2366,-29160,20453,-8969,-28665
146392,-151.56,-41.7696,-17.2457,31.2451,-88.6707,161.691,124.451,-12.3901,-380.371,-0.0836487,0.696106,0.0688782,0.709656,-1854,-28904,21221,-8969,-28665
146398,12.1974,31.6347,-21.0547,48.598,-86.792,144.882,160.217,208.496,-346.436,-0.0697937,0.687164,0.0961914,0.716644,-3134,-29672,19685,-8969,-28665
146404,25.5384,-1.4834,24.768,-6.00952,-87.4841,-161.922,-29.48,-44.6777,310.547,-0.0706787,0.684753,0.0831299,0.72049,-5438,-31208,17637,-8969,-28665
146410,14.7813,-12.9343,1.97627,-35.8649,-87.6434,-132.567,-43.396,-111.45,217.468,-0.0775146,0.687805,0.0710449,0.71814,-8254,31512,12773,-8969,-28665
146416,-7.61318,-13.0874,1.53125,-53.5529,-88.0554,-115.378,-47.6685,-143.982,32.2876,-0.0808411,0.692474,0.061554,0.714172,-10558,28696,6117,-8969,-28665
146422,7.91465,-1.8375,-3.93818,-68.1866,-88.6212,-101.272,-53.6499,-122.131,-61.2183,-0.0783997,0.69751,0.0578308,0.709839,-11582,27416,-796,-8969,-28665
146428,1.98584,3.20605,-0.851758,-77.7063,-88.9124,-92.0599,-8.30078,-50.9033,-47.1191,-0.0696411,0.7034,0.0563354,0.705078,-7742,30232,-6940,-8969,-28665
146434,7.97207,1.81836,-1.16279,-81.8536,-88.808,-88.3246,13.6108,7.20215,27.6489,-0.0682068,0.703888,0.0554504,0.704773,-5694,31512,-4380,-8969,-28665
146440,11.3313,0.153125,-0.650781,-82.4084,-88.6432,-88.0554,0.549316,7.69043,30.3345,-0.0678101,0.70401,0.0531616,0.704865,-4158,-31976,-28,-8969,-28665
146446,10.4364,-1.60781,1.22021,-83.9191,-88.5498,-86.8579,-5.79834,-0.12207,16.4185,-0.0670776,0.704163,0.050354,0.704987,-4158,-30440,6117,-8969,-28665
146452,11.5896,-1.81836,1.24414,-86.5558,-88.5663,-84.5123,-1.64795,-9.27734,-4.69971,-0.0657043,0.704498,0.0478516,0.704956,-4158,-29672,12261,-8969,-28665
146458,11.336,-0.119629,-0.0239258,-91.5436,-88.7146,-79.7827,1.28174,-20.6299,-30.6396,-0.0612793,0.705811,0.0455017,0.704193,-3646,-27368,18405,-8969,-28665
146464,8.81426,0.119629,-0.0574219,-108.633,-89.0167,-63.2703,-6.46973,-23.8647,-35.5225,-0.0583496,0.706726,0.0449829,0.703552,-2622,-26600,20965,-8969,-28665
146470,9.42197,0.0287109,-0.655566,-117.18,-89.1266,-55.0085,-4.57764,-13.855,-32.6538,-0.0554504,0.707611,0.044281,0.702942,-1598,-26088,23525,-8969,-28665
146476,10.1637,0.090918,-0.579004,-123.618,-89.2529,-48.8287,-2.13623,-0.0610352,-32.4707,-0.0527344,0.708191,0.0435486,0.702637,-1598,-25576,24549,-8969,-28665
146482,9.69951,0.382812,-0.0574219,-129.21,-89.3848,-43.4949,-1.46484,7.32422,-30.0293,-0.0501404,0.708313,0.0428772,0.702728,-1598,-25320,26597,-8969,-28665
146488,8.7999,0.416309,0.382812,-134.253,-89.4946,-38.7158,-0.915527,9.52148,-23.8647,-0.0454102,0.708038,0.0412292,0.70343,-3646,-27368,30181,-8969,-28665
146494,9.8335,0.636426,0.090918,-147.53,-89.6539,-25.9552,0.244141,8.66699,-16.8457,-0.0432434,0.707916,0.0402222,0.703766,-4926,-29928,31461,-8969,-28665
146500,9.56074,0.689063,0.0382813,-151.315,-89.7253,-22.4286,1.70898,12.3291,-11.5967,-0.0411682,0.707764,0.039093,0.704071,-6718,32536,31973,-8969,-28665
146506,8.99609,0.741699,0.31582,-149.815,-89.7858,-24.1864,1.52588,13.3667,-5.67627,-0.0392761,0.70752,0.0378418,0.704498,-8510,29720,32229,-8969,-28665
146512,9.52246,0.870898,0.320605,-138.972,-89.8242,-35.2991,1.2207,12.207,1.0376,-0.0375366,0.707245,0.036377,0.704956,-10558,27160,32741,-8969,-28665
146518,9.60381,0.435449,0.406738,-117.57,-89.8242,-56.9696,2.86865,12.2681,7.32422,-0.0345459,0.706818,0.0327148,0.705719,-14910,23576,-31515,-8969,-28665
146524,9.66123,0.330176,0.440234,-88.0774,-89.7144,-87.0062,4.27246,10.1318,13.5498,-0.0332642,0.706604,0.0306702,0.706085,-16190,22040,-31771,-8969,-28665
146530,9.74258,0.363672,0.339746,-82.6886,-89.632,-92.6752,3.60107,9.27734,15.8081,-0.0320129,0.706421,0.0285645,0.70639,-17214,20248,-32027,-8969,-28665
146536,9.80957,0.349316,0.382812,-80.9857,-89.5386,-94.6747,1.52588,7.01904,18.3716,-0.0307922,0.706299,0.0263367,0.706696,-17982,18968,-32539,-8969,-28665
146542,9.4124,0.311035,0.430664,-80.755,-89.4287,-95.2075,1.2207,5.7373,21.3013,-0.029541,0.706207,0.0239258,0.706909,-17726,17688,32485,-8969,-28665
146548,9.65166,0.124414,0.387598,-80.7056,-89.3134,-95.5646,1.28174,4.82178,23.8647,-0.0271912,0.706146,0.0187683,0.707245,-17214,16664,31461,-8969,-28665
146554,10.0249,0.100488,0.392383,-81.4526,-89.0717,-95.4437,1.70898,4.21143,23.9868,-0.026001,0.706116,0.0161133,0.707367,-16702,16920,32229,-8969,-28665
146560,9.77607,0.0430664,0.516797,-82.1832,-88.9508,-95.0317,1.52588,2.62451,23.6816,-0.0247803,0.706085,0.0134277,0.707489,-16190,18200,31717,-8969,-28665
146566,9.91963,-0.0191406,0.46416,-83.3313,-88.8409,-94.2133,0.732422,0.183105,22.583,-0.0235291,0.706116,0.0107117,0.70755,-15934,19224,31461,-8969,-28665
146572,9.97705,-0.062207,0.416309,-84.4629,-88.7366,-93.4167,0.610352,-0.793457,21.0571,-0.0221863,0.706207,0.00799561,0.70755,-15166,20504,30693,-8969,-28665
146578,10.0297,-0.15791,0.368457,-85.4736,-88.6487,-92.7411,-0.12207,-1.89209,16.9067,-0.0192871,0.706421,0.00265503,0.707458,-12862,22552,30437,-8969,-28665
146584,9.88613,-0.181836,0.397168,-87.4292,-88.4949,-91.4667,-0.305176,-2.62451,14.4653,-0.0177002,0.706512,3.05176e-05,0.707397,-10814,23064,30693,-8969,-28665
146590,9.9292,-0.153125,0.449805,-88.5938,-88.429,-90.6537,-0.854492,-4.15039,12.8174,-0.0160217,0.706665,-0.00250244,0.707306,-8510,23832,31205,-8969,-28665
146596,9.81436,-0.172266,0.497656,-89.4342,-88.3795,-89.4781,-1.64795,-6.04248,10.3149,-0.0142517,0.706818,-0.0050354,0.707153,-6206,25368,29413,-8969,-28665
146602,9.83828,-0.162695,0.468945,-90.5823,-88.3356,-88.0005,-2.38037,-8.05664,9.09424,-0.0166321,0.70697,-0.00326538,0.70697,-5182,27416,27877,-8969,-28665
146608,9.9292,-0.105273,0.416309,-91.9391,-88.2971,-86.3141,-2.80762,-11.1694,7.56836,-0.0211792,0.707428,0.000213623,0.70639,-2878,31768,24549,-8969,-28665
146614,9.84307,-0.143555,0.349316,-95.0757,-88.2202,-82.5568,-2.68555,-11.7188,6.65283,-0.0233765,0.707733,0.00195312,0.706024,-1854,-32232,22245,-8969,-28665
146620,9.91963,-0.253613,0.301465,-96.6357,-88.1873,-80.7001,-2.68555,-11.7798,5.00488,-0.0254822,0.708038,0.00366211,0.705627,-318,-30952,20965,-8969,-28665
146626,9.8957,-0.263184,0.220117,-98.0804,-88.1708,-78.9642,-2.0752,-10.9863,2.56348,-0.0274658,0.708344,0.00534058,0.705231,1219,-29672,19941,-8969,-28665
146632,9.90049,-0.220117,0.196191,-99.4318,-88.1598,-77.3273,-2.01416,-10.2539,0.732422,-0.0293274,0.708618,0.00708008,0.704865,3267,-27112,18661,-8969,-28665
146638,9.80957,-0.143555,0.191406,-101.755,-88.1598,-74.4708,-1.89209,-8.11768,-1.77002,-0.0326843,0.709076,0.0105286,0.704224,3523,-25064,17893,-8969,-28665
146644,9.87178,-0.0813477,0.14834,-102.667,-88.1653,-73.3008,-1.28174,-6.83594,-2.0752,-0.0342407,0.709259,0.0122375,0.703918,4035,-23272,18149,-8969,-28665
146650,9.79521,-0.0861328,0.16748,-103.403,-88.1763,-72.3175,-1.0376,-5.5542,-2.38037,-0.0357361,0.709412,0.0138855,0.703674,4547,-21992,19429,-8969,-28665
146656,9.78086,-0.0717773,0.16748,-103.931,-88.1873,-71.543,-0.549316,-4.15039,-2.38037,-0.0372009,0.709503,0.0155334,0.703491,5827,-20456,20965,-8969,-28665
146662,9.79521,-0.0191406,0.133984,-104.222,-88.1927,-71.0046,-0.549316,-2.62451,-2.19727,-0.0386353,0.709564,0.0171509,0.703308,7363,-18664,24037,-8969,-28665
146668,9.73779,0,0.133984,-104.183,-88.2147,-70.5597,-0.12207,0.12207,-1.15967,-0.0414734,0.709503,0.0202942,0.703094,7619,-17384,24549,-8969,-28665
146674,9.77129,0.0287109,0.181836,-103.711,-88.2147,-70.7904,0.366211,1.58691,0.732422,-0.0429077,0.709442,0.0218201,0.703064,7875,-15848,25317,-8969,-28665
146680,9.66123,0,0.234473,-103.107,-88.2092,-71.153,0.549316,2.13623,1.95312,-0.0444031,0.70929,0.0233154,0.703064,7875,-14824,26085,-8969,-28665
146686,9.78086,0,0.215332,-102.404,-88.1982,-71.6089,0.488281,2.56348,2.80762,-0.0459595,0.709137,0.0247498,0.703064,8131,-13288,25317,-8969,-28665
146692,9.75693,-0.0287109,0.263184,-101.635,-88.1873,-72.1362,0.671387,2.86865,3.66211,-0.0475464,0.708954,0.0261841,0.703064,9411,-9960,24037,-8969,-28665
146698,9.81436,-0.0574219,0.263184,-99.9646,-88.1598,-73.3173,0.854492,3.2959,4.39453,-0.0507812,0.708588,0.0289917,0.703125,9155,-8424,23781,-8969,-28665
146704,9.79521,-0.0478516,0.244043,-99.1296,-88.1378,-73.905,0.793457,3.2959,4.94385,-0.0524292,0.708374,0.030365,0.703156,9155,-7656,23781,-8969,-28665
146710,9.78564,-0.124414,0.272754,-98.3661,-88.1213,-74.4269,0.671387,2.99072,4.69971,-0.0541077,0.708191,0.0317078,0.703156,9411,-7144,23525,-8969,-28665
146716,9.86699,-0.15791,0.253613,-97.6135,-88.1049,-74.9377,0.915527,3.05176,4.45557,-0.0557251,0.707977,0.0330811,0.703186,9923,-7144,23525,-8969,-28665
146722,9.88135,-0.143555,0.263184,-96.8884,-88.0884,-75.4211,0.915527,3.05176,3.66211,-0.0573425,0.707794,0.0344238,0.703186,9923,-7400,25061,-8969,-28665
146728,9.87656,-0.191406,0.234473,-95.4437,-88.0719,-76.4099,0.366211,3.479,1.89209,-0.0604248,0.707367,0.0371094,0.703186,9923,-7400,27109,-8969,-28665
146734,9.91006,-0.244043,0.258398,-94.7186,-88.0719,-76.9153,0.0610352,3.60107,0.671387,-0.0618896,0.707153,0.0384521,0.703217,10435,-7912,29413,-8969,-28665
146740,9.86699,-0.215332,0.277539,-94.0155,-88.0829,-77.4097,0.12207,3.66211,-1.64795,-0.0632324,0.70694,0.0397644,0.703247,10947,-8168,31205,-8969,-28665
146746,9.85264,-0.110059,0.272754,-93.3453,-88.0994,-77.8766,-0.427246,3.479,-2.44141,-0.0644836,0.706696,0.0411072,0.703278,12227,-8680,31973,-8969,-28665
146752,9.78564,-0.0813477,0.31582,-92.6862,-88.1104,-78.3325,-0.305176,3.2959,-2.2583,-0.0656738,0.706482,0.04245,0.703339,14019,-8936,30949,-8969,-28665
146758,9.6708,0,0.334961,-91.4832,-88.1268,-79.129,0,2.50244,-0.427246,-0.0680542,0.706055,0.0450745,0.703369,14787,-8680,30181,-8977,-28664
146764,9.75693,-0.00957031,0.31582,-90.9613,-88.1268,-79.4421,0,2.19727,0.732422,-0.0692749,0.705841,0.0463562,0.703369,15299,-8168,31205,-8977,-28664
146770,9.78564,-0.0526367,0.320605,-90.4395,-88.1213,-79.7498,0.12207,2.13623,1.77002,-0.0705872,0.705658,0.0476074,0.703339,15555,-7656,31461,-8977,-28664
146776,9.77129,-0.100488,0.330176,-89.9451,-88.1104,-80.0409,0.305176,2.01416,2.13623,-0.0719299,0.705475,0.0488281,0.703308,16835,-7144,32485,-8977,-28664
146782,9.88135,-0.13877,0.263184,-89.5111,-88.0994,-80.2661,0.244141,1.64795,1.64795,-0.0732727,0.705292,0.0500488,0.703278,17603,-6376,-31259,-8977,-28664
146788,9.85264,-0.14834,0.291895,-88.6047,-88.0994,-80.7715,0,1.77002,0.244141,-0.0758362,0.704926,0.0524902,0.703186,17603,-6376,-31003,-8977,-28664
146794,9.74258,-0.114844,0.301465,-88.1488,-88.0994,-81.0297,-0.0610352,1.83105,0.12207,-0.0770874,0.704742,0.0537109,0.703156,17091,-6632,-31003,-8977,-28664
146800,9.78564,-0.062207,0.344531,-87.7588,-88.0994,-81.2219,0,1.40381,0.488281,-0.0783081,0.704559,0.0549316,0.703094,17347,-7144,-31259,-8977,-28664
146806,9.75693,-0.0191406,0.354102,-87.4512,-88.0939,-81.3263,-0.0610352,0.854492,1.0376,-0.0795288,0.704376,0.0561218,0.703033,17347,-6888,-31771,-8977,-28664
146812,9.69951,-0.0813477,0.349316,-87.226,-88.0884,-81.3538,-0.366211,0.366211,1.58691,-0.08078,0.704224,0.0573425,0.702972,17859,-6888,32229,-8977,-28664
146818,9.75693,-0.0526367,0.330176,-86.781,-88.0664,-81.3977,-0.12207,0.366211,2.92969,-0.0833435,0.703918,0.0596924,0.702759,18115,-6632,31205,-8977,-28664
146824,9.77607,-0.0574219,0.334961,-86.6162,-88.0444,-81.3538,0.183105,0.0610352,3.60107,-0.0846558,0.703766,0.0608521,0.702667,19139,-6632,30437,-8977,-28664
146830,9.75693,-0.0669922,0.325391,-86.4624,-88.028,-81.3043,0.244141,0,4.08936,-0.0860291,0.703644,0.0619812,0.702515,19651,-6120,29669,-8977,-28664
146836,9.7665,-0.110059,0.325391,-86.3306,-88.006,-81.2274,0.427246,-0.12207,4.21143,-0.0874329,0.703491,0.0631409,0.702393,20675,-5864,29157,-8977,-28664
146842,9.8335,-0.13877,0.287109,-86.1713,-87.984,-81.1725,0.610352,0.0610352,4.21143,-0.0888367,0.703339,0.0643005,0.702271,21443,-5608,29157,-8977,-28664
146848,9.86699,-0.186621,0.31582,-85.7263,-87.9565,-81.2054,0.671387,0.549316,2.80762,-0.0916138,0.703033,0.0666504,0.701996,21955,-5352,28901,-8977,-28664
146854,9.84307,-0.177051,0.30625,-85.4626,-87.9456,-81.2659,0.732422,0.793457,2.31934,-0.0929565,0.702881,0.0678101,0.701874,22723,-4840,27621,-8977,-28664
146860,9.83828,-0.191406,0.30625,-85.21,-87.9401,-81.3153,0.549316,0.610352,1.0376,-0.0942993,0.702698,0.0690002,0.701752,24003,-4072,26597,-8977,-28664
146866,9.82393,-0.181836,0.282324,-84.9243,-87.9401,-81.3977,0.610352,0.793457,0.305176,-0.0955505,0.702515,0.0702209,0.70166,24259,-3304,26085,-8977,-28664
146872,9.84307,-0.224902,0.244043,-84.6057,-87.9401,-81.524,0.549316,1.0376,-0.366211,-0.0968018,0.702332,0.0714111,0.701538,24003,-1768,24293,-8977,-28664
146878,9.84307,-0.181836,0.334961,-83.8422,-87.962,-81.9086,0.12207,1.15967,-2.86865,-0.0991211,0.701935,0.0738525,0.701385,23747,-1768,23013,-8977,-28664
146884,9.79521,-0.124414,0.373242,-83.4906,-87.9785,-82.0734,0.0610352,0.915527,-3.41797,-0.100159,0.701721,0.0750732,0.701294,23747,-1256,21989,-8977,-28664
146890,9.80479,-0.105273,0.339746,-83.2269,-87.995,-82.1558,0.183105,0.305176,-3.23486,-0.101196,0.701508,0.0763245,0.701202,24003,-1000,20965,-8977,-28664
146896,9.75215,-0.0957031,0.330176,-82.9578,-88.0115,-82.2437,0.183105,0.305176,-3.17383,-0.102234,0.701324,0.0775452,0.701111,24003,-744,20197,-8977,-28664
146902,9.77607,-0.0861328,0.301465,-82.7435,-88.028,-82.2766,0,0,-2.44141,-0.104279,0.700989,0.0799561,0.700897,24003,25,18405,-8977,-28664
146908,9.79043,-0.124414,0.358887,-82.3151,-88.0499,-82.337,0,-0.183105,-2.19727,-0.105316,0.700806,0.0811462,0.700775,24259,25,17381,-8977,-28664
146914,9.81914,-0.124414,0.339746,-82.1722,-88.0609,-82.3041,0,-0.549316,-2.44141,-0.106354,0.700653,0.0823059,0.700653,24771,537,17637,-8977,-28664
146920,9.8,-0.114844,0.339746,-82.0569,-88.0719,-82.2437,-0.0610352,-0.671387,-2.13623,-0.107361,0.70047,0.0834961,0.7005,25027,1561,17893,-8977,-28664
146926,9.78086,-0.0861328,0.325391,-81.9525,-88.0829,-82.1667,0,-0.793457,-2.0752,-0.108398,0.700317,0.0846558,0.700378,25283,2585,17381,-8977,-28664
146932,9.77129,-0.0382813,0.30625,-81.8701,-88.0884,-82.0734,0.0610352,-0.793457,-1.2207,-0.110443,0.700012,0.0869446,0.700073,25539,3609,17893,-8977,-28664
146938,9.71865,0,0.320605,-81.7108,-88.0884,-81.8701,0.12207,-0.610352,0.854492,-0.111542,0.69986,0.0880432,0.699921,25539,3865,17381,-8977,-28664
146944,9.69951,-0.00957031,0.339746,-81.6888,-88.0829,-81.7053,0.366211,-0.793457,2.01416,-0.112671,0.699707,0.0891418,0.699738,25283,3609,18149,-8977,-28664
146950,9.73301,0,0.349316,-81.7328,-88.0664,-81.4746,0.305176,-1.09863,3.23486,-0.113892,0.699554,0.09021,0.699554,25027,3609,19173,-8977,-28664
146956,9.7665,-0.0334961,0.354102,-81.7987,-88.0444,-81.2109,0.610352,-1.15967,4.08936,-0.115112,0.699432,0.0912781,0.699371,24259,2841,19941,-8977,-28664
146962,9.81436,-0.114844,0.334961,-81.8536,-88.0225,-80.9583,0.671387,-1.0376,4.63867,-0.117737,0.699127,0.0933838,0.698944,24003,793,24037,-8977,-28664
146968,9.87178,-0.229688,0.29668,-82.0679,-87.9895,-80.365,0.12207,-1.52588,3.479,-0.119049,0.699005,0.0944519,0.69873,24003,-488,26341,-8977,-28664
146974,9.86221,-0.224902,0.253613,-82.0844,-87.9785,-80.1672,-0.0610352,-1.09863,1.70898,-0.1203,0.698853,0.0954895,0.698486,24259,-1256,28645,-8977,-28664
146980,9.84785,-0.181836,0.29668,-82.0514,-87.9785,-80.0134,0,-0.854492,1.09863,-0.12146,0.6987,0.0965881,0.698303,25027,-1768,30693,-8977,-28664
146986,9.80479,-0.186621,0.287109,-82.002,-87.973,-79.8816,-0.12207,-0.793457,0.488281,-0.12262,0.698547,0.0976868,0.69809,25795,-1768,32485,-8977,-28664
146992,9.80957,-0.16748,0.311035,-81.936,-87.973,-79.7717,-0.366211,-0.732422,0,-0.124817,0.698212,0.0998535,0.697754,28099,-744,31205,-8977,-28664
146998,9.84785,-0.153125,0.349316,-81.8317,-87.984,-79.5245,-0.671387,-1.0376,-1.15967,-0.125854,0.698029,0.100952,0.697571,28611,25,28645,-8977,-28664
147004,9.82871,-0.191406,0.31582,-81.8317,-87.995,-79.3488,-0.915527,-1.40381,-1.40381,-0.126892,0.697876,0.102051,0.697388,29123,1049,26853,-8977,-28664
147010,9.84307,-0.181836,0.320605,-81.8207,-88.006,-79.1949,-1.34277,-1.40381,-2.44141,-0.127869,0.697723,0.103149,0.697205,29379,2073,26853,-8977,-28664
147016,9.81914,-0.13877,0.325391,-81.8481,-88.0225,-79.0082,-1.28174,-1.70898,-2.74658,-0.128815,0.697571,0.104248,0.697021,28867,2841,26853,-8977,-28664
147022,9.73779,-0.0669922,0.320605,-81.8756,-88.0334,-78.8104,-1.28174,-1.77002,-2.86865,-0.130646,0.697266,0.106445,0.696625,28099,2841,25829,-8977,-28664
147028,9.68037,-0.0669922,0.334961,-81.925,-88.0554,-78.4259,-0.671387,-1.58691,-1.52588,-0.131592,0.697113,0.107513,0.696442,27075,2073,24037,-8977,-28664
147034,9.78564,-0.0382813,0.31582,-82.0129,-88.0554,-78.1622,-0.366211,-1.83105,-0.183105,-0.132568,0.69696,0.108612,0.696228,26563,1049,23013,-8977,-28664
147040,9.78564,-0.100488,0.282324,-82.1777,-88.0554,-77.8326,-0.427246,-2.2583,0.305176,-0.133575,0.696838,0.10968,0.696014,26563,1049,21989,-8977,-28664
147046,9.79521,-0.133984,0.267969,-82.3315,-88.0554,-77.5031,-0.12207,-2.19727,0.305176,-0.134644,0.696686,0.110718,0.695801,26563,793,21733,-8977,-28664
147052,9.83828,-0.105273,0.248828,-82.4854,-88.0554,-77.179,-0.366211,-2.19727,0.366211,-0.136719,0.696411,0.112793,0.695312,26819,1561,21221,-8977,-28664
147058,9.75693,-0.0669922,0.258398,-82.6501,-88.0609,-76.6736,-0.549316,-1.52588,0.366211,-0.137726,0.696289,0.113861,0.695099,26819,2073,20709,-8977,-28664
147064,9.75215,-0.0526367,0.258398,-82.6776,-88.0554,-76.4758,-0.549316,-1.28174,0.793457,-0.138763,0.696106,0.114868,0.694885,26563,2841,20197,-8977,-28664
147070,9.77129,-0.0382813,0.244043,-82.7161,-88.0499,-76.2616,-0.366211,-1.2207,1.77002,-0.139832,0.695953,0.115906,0.694672,26307,3353,19941,-8977,-28664
147076,9.72344,-0.0574219,0.282324,-82.6996,-88.0389,-76.1078,-0.305176,-0.732422,2.50244,-0.14093,0.695801,0.116913,0.694427,25539,2841,21989,-8977,-28664
147082,9.83828,-0.15791,0.272754,-82.6337,-88.0225,-75.9924,-0.183105,-0.366211,3.11279,-0.143219,0.695404,0.118896,0.694,24003,2073,27621,-8977,-28664
147088,9.85742,-0.15791,0.234473,-82.392,-88.0005,-75.8881,-0.427246,0,2.13623,-0.144348,0.695221,0.119873,0.693817,23235,2073,29669,-8977,-28664
147094,9.85742,-0.181836,0.229688,-82.1613,-87.995,-75.9485,-0.305176,0.610352,1.0376,-0.145447,0.695007,0.12085,0.693604,22723,3097,29925,-8977,-28664
147100,9.78564,-0.16748,0.229688,-81.8756,-87.9895,-76.0638,-0.305176,0.976562,0.732422,-0.146515,0.694763,0.121857,0.693451,21699,4121,29413,-8977,-28664
147106,9.80479,-0.119629,0.258398,-81.5076,-87.9895,-76.2616,-0.244141,1.58691,0.671387,-0.147583,0.69455,0.122864,0.693268,20931,4889,28645,-8977,-28664
147112,9.80957,-0.124414,0.272754,-81.0736,-87.984,-76.5308,-0.244141,2.0752,0.732422,-0.149658,0.694,0.124847,0.693024,19907,4889,27365,-8977,-28664
147118,9.80957,-0.172266,0.30625,-80.2386,-87.973,-77.0306,-0.183105,2.13623,0.854492,-0.150726,0.693726,0.125824,0.692871,19651,4377,28133,-8977,-28664
147124,9.8335,-0.205762,0.291895,-79.8212,-87.9675,-77.2833,-0.305176,2.01416,0.671387,-0.151764,0.693451,0.12677,0.692749,19651,4377,28133,-8977,-28664
147130,9.83828,-0.234473,0.263184,-79.3982,-87.9675,-77.547,-0.366211,1.89209,-0.366211,-0.152802,0.693176,0.127747,0.692627,20163,4121,28645,-8977,-28664
147136,9.86221,-0.220117,0.30625,-78.9423,-87.973,-77.8491,-0.610352,2.01416,-1.34277,-0.153748,0.692902,0.128693,0.692505,20675,4121,29157,-8977,-28664
147142,9.7665,-0.105273,0.330176,-78.4589,-87.9785,-78.1787,-0.793457,2.0752,-1.77002,-0.155548,0.692352,0.130646,0.692291,22467,2841,30949,-8977,-28664
147148,9.77129,-0.0574219,0.320605,-77.536,-87.995,-78.7939,-0.244141,1.83105,-1.15967,-0.156403,0.692078,0.131622,0.6922,22979,2585,32485,-8977,-28664
147154,9.73779,-0.0430664,0.339746,-77.146,-87.995,-79.0247,0,1.58691,-0.671387,-0.157318,0.691803,0.132568,0.692078,23235,2329,-32027,-8977,-28664
147160,9.72344,-0.00957031,0.358887,-76.8219,-87.9895,-79.1895,0.183105,1.34277,0.549316,-0.158234,0.691528,0.133545,0.691956,23235,2841,-30235,-8977,-28664
147166,9.73779,-0.0287109,0.358887,-76.6406,-87.984,-79.2059,0.366211,0.610352,1.77002,-0.159241,0.691284,0.134491,0.691803,23747,3097,-29467,-8977,-28664
147172,9.88135,-0.200977,0.330176,-76.5472,-87.9675,-79.129,0.610352,0.183105,2.74658,-0.161377,0.690826,0.136383,0.691376,24515,4121,-30491,-8977,-28664
147178,9.85264,-0.205762,0.282324,-76.2396,-87.9565,-79.1071,0.610352,0.427246,1.0376,-0.162445,0.690582,0.137329,0.691193,24515,4121,-32027,-8977,-28664
147184,9.8335,-0.177051,0.272754,-76.0199,-87.951,-79.162,0.915527,0.610352,0.488281,-0.163452,0.690369,0.138275,0.690979,25027,3609,-32539,-8977,-28664
147190,9.80479,-0.15791,0.258398,-75.7837,-87.951,-79.2444,0.793457,0.671387,0,-0.164459,0.690094,0.139252,0.690796,25027,2585,-32027,-8977,-28664
147196,9.78564,-0.15791,0.287109,-75.5255,-87.951,-79.3433,0.549316,0.793457,-0.0610352,-0.165436,0.68985,0.140198,0.690613,25027,2073,-31771,-8977,-28664
147202,9.78564,-0.153125,0.320605,-75.2563,-87.951,-79.4531,0.427246,0.976562,-0.183105,-0.167328,0.689362,0.14212,0.690277,24515,1561,-31515,-8977,-28664
147208,9.80479,-0.162695,0.334961,-74.7455,-87.951,-79.6509,0.427246,0.549316,-0.244141,-0.168274,0.689087,0.143036,0.690125,23747,1305,-31771,-8977,-28664
147214,9.80957,-0.162695,0.282324,-74.5093,-87.9565,-79.7333,0.0610352,0.488281,-0.732422,-0.169189,0.688843,0.143982,0.689941,23747,1561,31973,-8977,-28664
147220,9.80957,-0.124414,0.301465,-74.2511,-87.9565,-79.8431,0.0610352,0.671387,-0.793457,-0.170105,0.688599,0.144928,0.689758,23747,1305,31205,-8977,-28664
147226,9.78564,-0.129199,0.320605,-73.9984,-87.962,-79.9475,0.183105,0.610352,-0.732422,-0.17099,0.688354,0.145844,0.689606,24003,1305,30181,-8977,-28664
147232,9.77607,-0.090918,0.320605,-73.7128,-87.962,-80.0793,0.244141,0.793457,-0.488281,-0.17276,0.687866,0.147705,0.68927,25283,1305,28645,-8977,-28664
147238,9.78086,-0.119629,0.311035,-73.1799,-87.9675,-80.3101,0.366211,0.854492,-0.244141,-0.173645,0.687622,0.148621,0.689087,25539,1049,28901,-8977,-28664
147244,9.81436,-0.162695,0.301465,-72.8778,-87.9675,-80.4584,0.183105,1.0376,-0.427246,-0.174561,0.687347,0.149536,0.688904,26051,1305,28901,-8977,-28664
147250,9.79521,-0.14834,0.311035,-72.6196,-87.9675,-80.5737,0.183105,0.732422,-0.549316,-0.175446,0.687103,0.150452,0.688751,26051,1561,28645,-8977,-28664
147256,9.79043,-0.13877,0.320605,-72.3834,-87.973,-80.6616,0.183105,0.488281,-0.671387,-0.176331,0.686829,0.151337,0.688568,26051,2073,29413,-8977,-28664
147262,9.80957,-0.153125,0.325391,-72.1637,-87.973,-80.733,0.305176,0.427246,-0.732422,-0.17807,0.68634,0.153168,0.688202,26819,3097,30693,-8977,-28664
147268,9.97705,-0.105273,0.291895,-71.6913,-87.9785,-80.9088,0.549316,0.549316,-0.671387,-0.178925,0.686096,0.154053,0.688049,27331,3609,30949,-8977,-28664
147274,9.65166,-0.105273,0.373242,-71.4606,-87.9785,-80.9912,0.610352,0.488281,-0.549316,-0.17981,0.685852,0.154968,0.687866,27075,3609,31717,-8977,-28664
147280,9.91484,-0.105273,0.263184,-71.2518,-87.9785,-81.0516,0.427246,0.366211,-0.366211,-0.180695,0.685608,0.155884,0.687683,26307,3097,31973,-8977,-28664
147286,9.7665,-0.172266,0.311035,-71.0046,-87.984,-81.1505,0.488281,0.610352,-0.610352,-0.181549,0.685364,0.156769,0.687469,25027,2585,31973,-8977,-28664
147292,9.79043,-0.162695,0.30625,-70.719,-87.984,-81.2988,0.366211,0.915527,-1.28174,-0.183258,0.684845,0.158539,0.687134,24003,793,32741,-8977,-28664
147298,9.85264,-0.143555,0.29668,-70.0433,-87.995,-81.6833,0.305176,1.09863,-1.46484,-0.184082,0.68457,0.159424,0.686981,24003,793,32741,-8977,-28664
147304,9.80957,-0.129199,0.339746,-69.7192,-88.0005,-81.8756,0.12207,0.793457,-1.77002,-0.184875,0.684326,0.160309,0.686829,24003,1049,32741,-8977,-28664
147310,9.73301,-0.13877,0.339746,-69.3622,-88.0115,-82.0953,0,0.915527,-2.01416,-0.185669,0.684052,0.161194,0.686676,24259,1817,32229,-8977,-28664
147316,9.82393,-0.0957031,0.291895,-69.0326,-88.017,-82.2876,-0.183105,0.671387,-2.0752,-0.186432,0.683777,0.162048,0.686523,25027,2329,28901,-8977,-28664
147322,9.78564,-0.090918,0.358887,-68.5547,-88.028,-82.4908,-0.244141,0.12207,-0.976562,-0.187958,0.683289,0.163788,0.686188,25283,1817,27109,-8977,-28664
147328,9.79521,-0.119629,0.358887,-68.4229,-88.0334,-82.4854,-0.488281,-0.244141,-0.549316,-0.188751,0.683044,0.164642,0.686005,25283,793,24549,-8977,-28664
147334,9.79043,-0.0765625,0.378027,-68.4119,-88.0334,-82.359,-0.427246,-1.15967,-0.610352,-0.189545,0.682831,0.165466,0.685791,25027,281,21733,-8977,-28664
147340,9.79521,-0.0765625,0.363672,-68.4558,-88.0389,-82.1832,-0.549316,-1.40381,-0.244141,-0.190338,0.682648,0.166321,0.685577,25027,-232,20453,-8977,-28664
147346,9.7665,-0.090918,0.334961,-68.5657,-88.0444,-81.9305,-0.549316,-1.83105,0,-0.191132,0.682434,0.167145,0.685333,24515,281,19173,-8977,-28664
147352,9.75215,-0.0861328,0.320605,-68.8403,-88.0444,-81.3702,-0.244141,-2.01416,0.671387,-0.19278,0.682098,0.168854,0.684814,24259,1305,19429,-8977,-28664
147358,9.79043,-0.0813477,0.320605,-69.0161,-88.0444,-81.0516,-0.183105,-2.01416,0.854492,-0.193634,0.681915,0.169678,0.68454,23747,2073,18661,-8977,-28664
147364,9.8,-0.100488,0.272754,-69.1864,-88.0444,-80.7385,-0.183105,-1.89209,1.0376,-0.194519,0.681732,0.170532,0.684265,23491,2585,17637,-8977,-28664
147370,9.8,-0.114844,0.291895,-69.3402,-88.0389,-80.4364,0,-1.77002,1.09863,-0.195374,0.681549,0.171387,0.68399,23491,2841,16613,-8977,-28664
147376,9.8,-0.114844,0.291895,-69.4775,-88.0389,-80.1562,0,-1.58691,1.28174,-0.196259,0.681366,0.172211,0.683716,23747,2841,15589,-8977,-28664
147382,9.80479,-0.100488,0.320605,-69.6643,-88.028,-79.6838,0,-1.15967,1.15967,-0.198029,0.680969,0.173889,0.683167,24771,2585,14309,-8977,-28664
147388,9.79521,-0.119629,0.30625,-69.7522,-88.028,-79.4476,0.183105,-1.2207,1.34277,-0.198944,0.680756,0.174744,0.682892,24771,3097,13797,-8977,-28664
147394,9.80479,-0.181836,0.29668,-69.7577,-88.0225,-79.2938,0,-0.793457,0.854492,-0.199829,0.680573,0.175598,0.682617,24771,3609,13541,-8977,-28664
147400,9.87656,-0.177051,0.263184,-69.7467,-88.0225,-79.1675,-0.244141,-0.793457,0.366211,-0.200714,0.680328,0.176422,0.682373,24771,3353,13797,-8977,-28664
147406,9.83828,-0.162695,0.277539,-69.6588,-88.028,-79.1125,0,-0.549316,-0.488281,-0.201538,0.680115,0.177277,0.682129,24003,3865,13541,-8977,-28664
147412,9.79521,-0.133984,0.330176,-69.3567,-88.0334,-79.14,-0.0610352,-0.305176,-0.854492,-0.203156,0.679626,0.178986,0.681671,24003,3609,13797,-8977,-28664
147418,9.79043,-0.110059,0.320605,-69.2578,-88.0389,-79.0961,-0.0610352,-0.671387,-0.915527,-0.203949,0.679382,0.17984,0.681458,23491,3353,14309,-8977,-28664
147424,9.8,-0.105273,0.291895,-69.126,-88.0444,-79.0906,0,-0.305176,-0.732422,-0.204742,0.679169,0.180695,0.681213,22979,3353,14053,-8977,-28664
147430,9.79521,-0.124414,0.30625,-69.0491,-88.0444,-79.0302,0.12207,-0.488281,-0.12207,-0.205536,0.678925,0.181519,0.681,22979,3353,14565,-8977,-28664
147436,9.79521,-0.124414,0.320605,-68.9337,-88.0499,-79.0082,0.12207,-0.427246,-0.671387,-0.20636,0.67868,0.182373,0.680786,23235,3609,15845,-8977,-28664
147442,9.80957,-0.133984,0.291895,-68.7524,-88.0609,-78.9203,-0.12207,-0.671387,-1.09863,-0.207916,0.678192,0.184021,0.680298,23491,3609,16613,-8977,-28664
147448,9.84307,-0.133984,0.291895,-68.6865,-88.0664,-78.8489,0,-0.915527,-0.976562,-0.208679,0.677979,0.184875,0.680084,23491,3609,16869,-8977,-28664
147454,9.80479,-0.129199,0.291895,-68.5657,-88.0719,-78.8379,0,-0.549316,-1.15967,-0.209442,0.677734,0.185699,0.67984,22723,3609,16357,-8977,-28664
147460,9.7665,-0.0861328,0.330176,-68.4229,-88.0774,-78.8489,-0.0610352,-0.305176,-0.915527,-0.210175,0.67749,0.186523,0.679626,22979,3609,15589,-8977,-28664
147466,9.76172,-0.0765625,0.282324,-68.28,-88.0829,-78.8544,0.0610352,-0.183105,-0.488281,-0.210938,0.677246,0.187347,0.679413,22979,4377,15333,-8977,-28664
147472,9.8,-0.114844,0.311035,-68.0328,-88.0829,-78.8379,0,-0.427246,-0.305176,-0.212494,0.676758,0.188965,0.678986,23235,4889,15589,-8977,-28664
147478,9.80957,-0.110059,0.29668,-67.9889,-88.0829,-78.7445,-0.244141,-0.671387,0,-0.213287,0.676514,0.189789,0.678741,24259,4889,15589,-8977,-28664
147484,9.79521,-0.13877,0.29668,-67.868,-88.0884,-78.7335,0.183105,-0.305176,-0.427246,-0.21405,0.6763,0.190552,0.678497,24259,4633,16101,-8977,-28664
147490,9.79521,-0.100488,0.287109,-67.7582,-88.0884,-78.7115,0.0610352,-0.183105,0,-0.214813,0.676056,0.191376,0.678284,24515,4121,15845,-8977,-28664
147496,9.80479,-0.0861328,0.282324,-67.6318,-88.0884,-78.7006,0.183105,0,0.244141,-0.215607,0.675812,0.192169,0.67807,24259,3865,16869,-8977,-28664
147502,9.77607,-0.110059,0.263184,-67.3737,-88.0829,-78.6951,0.12207,0.183105,0.610352,-0.217194,0.675293,0.193726,0.677612,24003,3353,18917,-8977,-28664
147508,9.81436,-0.133984,0.248828,-67.2034,-88.0829,-78.739,-0.183105,0.427246,0.305176,-0.217987,0.675049,0.194489,0.677368,22979,3097,21477,-8977,-28664
147514,9.81436,-0.14834,0.29668,-67.0441,-88.0829,-78.772,-0.244141,0.183105,-0.0610352,-0.21875,0.674805,0.195251,0.677185,22467,2841,23781,-8977,-28664
147520,9.78086,-0.14834,0.29668,-66.8848,-88.0829,-78.7994,-0.12207,0.12207,-0.183105,-0.219513,0.674561,0.195984,0.676971,21699,2073,25061,-8977,-28664
147526,9.81436,-0.119629,0.339746,-66.7365,-88.0829,-78.8214,-0.244141,-0.0610352,-0.488281,-0.220245,0.674286,0.196747,0.676758,21443,-232,23013,-8977,-28664
147532,9.80957,-0.0861328,0.31582,-66.5717,-88.0884,-78.728,-0.244141,-0.488281,0.12207,-0.22171,0.673798,0.198273,0.6763,21699,-1512,21733,-8977,-28664
147538,9.78086,-0.0861328,0.30625,-66.5662,-88.0884,-78.6127,-0.183105,-0.915527,-0.0610352,-0.222473,0.673584,0.199036,0.676056,21955,-2536,21477,-8977,-28664
147544,9.80479,-0.105273,0.330176,-66.5826,-88.0884,-78.4644,-0.244141,-0.976562,0.244141,-0.223206,0.67334,0.199799,0.675812,22723,-3048,21733,-8977,-28664
147550,9.81436,-0.14834,0.29668,-66.6321,-88.0939,-78.2886,-0.244141,-1.2207,0.244141,-0.223969,0.673126,0.200562,0.675568,23491,-3560,21989,-8977,-28664
147556,9.78564,-0.100488,0.320605,-66.72,-88.0939,-78.0688,-0.12207,-1.52588,0.183105,-0.224731,0.672913,0.201324,0.675293,25027,-3048,24293,-8977,-28664
147562,9.79043,-0.133984,0.291895,-66.9067,-88.0994,-77.6239,-0.244141,-1.70898,0,-0.226227,0.672516,0.20285,0.674774,25027,-3304,23525,-8977,-28664
147568,9.78086,-0.14834,0.258398,-66.9177,-88.1049,-77.4866,-0.183105,-1.09863,-0.12207,-0.226959,0.672302,0.203644,0.6745,24771,-3304,23781,-8977,-28664
147574,9.81436,-0.124414,0.272754,-66.9067,-88.1049,-77.3712,-0.12207,-0.915527,-0.12207,-0.227692,0.672089,0.204407,0.674225,24771,-3304,23525,-8977,-28664
147580,9.79521,-0.114844,0.234473,-66.8463,-88.1049,-77.3053,0,-0.549316,-0.12207,-0.228394,0.671844,0.205139,0.673981,24259,-3304,23269,-8977,-28664
147586,9.8,-0.114844,0.282324,-66.72,-88.1104,-77.3108,0.0610352,-0.183105,-0.366211,-0.229126,0.6716,0.205902,0.673737,24003,-2536,24293,-8977,-28664
147592,9.78564,-0.129199,0.267969,-66.4124,-88.1104,-77.3657,0.366211,0.12207,0.12207,-0.230591,0.671112,0.207397,0.673279,23491,-2024,24037,-8977,-28664
147598,9.81436,-0.119629,0.301465,-66.2201,-88.1049,-77.4316,0.488281,0.488281,0.12207,-0.231354,0.670837,0.20813,0.673065,23747,-2280,23525,-8977,-28664
147604,9.77607,-0.100488,0.258398,-66.0168,-88.1049,-77.5085,0.549316,0.610352,0.183105,-0.232086,0.670563,0.208862,0.672852,23491,-2536,22501,-8977,-28664
147610,9.78564,-0.114844,0.267969,-65.7861,-88.0994,-77.6129,0.549316,0.915527,0.427246,-0.232849,0.670288,0.209595,0.672638,23747,-2792,20709,-8977,-28664
147616,9.75693,-0.0765625,0.320605,-65.5829,-88.0939,-77.6843,0.366211,0.854492,0.732422,-0.234375,0.669739,0.211029,0.672211,23747,-4328,18661,-8977,-28664
147622,9.75215,-0.0669922,0.354102,-65.4126,-88.0774,-77.5964,0.976562,0.244141,2.50244,-0.235168,0.669464,0.211731,0.671997,23747,-4584,17637,-8977,-28664
147628,9.80957,-0.143555,0.311035,-65.451,-88.0664,-77.4261,0.610352,-0.12207,2.50244,-0.236023,0.669189,0.212463,0.671722,23491,-5352,17893,-8977,-28664
147634,9.83828,-0.153125,0.282324,-65.5115,-88.0554,-77.2339,0.0610352,-0.427246,2.13623,-0.236877,0.668945,0.213135,0.671448,24003,-5864,18405,-8977,-28664
147640,9.85264,-0.224902,0.220117,-65.4236,-88.0499,-77.2009,-0.12207,0.305176,1.28174,-0.237671,0.668732,0.213837,0.671173,25027,-6120,19685,-8977,-28664
147646,9.87178,-0.244043,0.30625,-65.1544,-88.0499,-77.3492,-0.0610352,1.09863,-0.0610352,-0.239136,0.668182,0.21524,0.670746,26307,-5352,22757,-8977,-28664
147652,9.7665,-0.0957031,0.344531,-64.6051,-88.0554,-77.6569,-0.244141,0.610352,-1.0376,-0.239838,0.667908,0.215942,0.670563,27075,-5352,24037,-8977,-28664
147658,9.76172,-0.0717773,0.330176,-64.3634,-88.0554,-77.7777,-0.12207,0.549316,-0.732422,-0.240509,0.667633,0.216675,0.670349,26819,-5096,24549,-8977,-28664
147664,9.76172,-0.0669922,0.325391,-64.2041,-88.0554,-77.8162,0.0610352,0.366211,0.244141,-0.24118,0.667358,0.217407,0.670135,26563,-5608,26085,-8977,-28664
147670,9.8,-0.13877,0.311035,-64.0228,-88.0499,-77.8711,0.12207,0.488281,0.12207,-0.241913,0.667084,0.218109,0.669922,26051,-6376,27365,-8977,-28664
147676,9.8,-0.124414,0.339746,-63.858,-88.0499,-77.915,0.0610352,0.488281,0.305176,-0.243378,0.666534,0.219513,0.669464,25027,-6376,30181,-8977,-28664
147682,9.81436,-0.13877,0.30625,-63.4735,-88.0499,-78.0579,0.183105,0.427246,-0.366211,-0.24408,0.66626,0.220245,0.66925,24771,-6120,30949,-8977,-28664
147688,9.78564,-0.114844,0.330176,-63.2593,-88.0554,-78.1512,0.12207,0.366211,-0.671387,-0.244751,0.665985,0.220947,0.669037,24259,-5352,29413,-8977,-28664
147694,9.79043,-0.110059,0.301465,-63.1219,-88.0554,-78.1677,0.244141,0.0610352,-0.12207,-0.245453,0.66571,0.22168,0.668823,23491,-4584,29413,-8977,-28664
147700,9.79521,-0.100488,0.339746,-62.9901,-88.0554,-78.1787,0.183105,-0.12207,-0.366211,-0.246155,0.665466,0.222382,0.668579,22467,-3816,28901,-8977,-28664
147706,9.82871,-0.15791,0.282324,-62.9132,-88.0554,-78.1348,0.183105,-0.366211,-0.0610352,-0.247528,0.664948,0.223816,0.668121,20419,-2536,27621,-8977,-28664
147712,9.80957,-0.15791,0.267969,-62.6825,-88.0609,-78.1293,0,-0.183105,-0.610352,-0.24823,0.664703,0.224518,0.667877,20163,-2024,27621,-8977,-28664
147718,9.79521,-0.105273,0.277539,-62.5287,-88.0664,-78.1677,0.244141,0,-0.488281,-0.248871,0.664429,0.22522,0.667633,20163,-1512,26341,-8977,-28664
147724,9.77607,-0.0861328,0.31582,-62.3859,-88.0664,-78.1952,0.244141,0.0610352,-0.244141,-0.249542,0.664185,0.225922,0.667419,20419,-1512,24549,-8977,-28664
147730,9.78564,-0.114844,0.29668,-62.2375,-88.0664,-78.2172,0.427246,0.183105,0,-0.250214,0.66391,0.226593,0.667206,20419,-1256,22501,-8977,-28664
147736,9.78564,-0.143555,0.287109,-62.1057,-88.0664,-78.2336,0.12207,0.244141,0.244141,-0.251587,0.663391,0.227966,0.666748,20931,-1256,18149,-8977,-28664
147742,9.81436,-0.13877,0.263184,-61.6278,-88.0609,-78.4808,0.183105,1.0376,-0.427246,-0.252289,0.663116,0.228638,0.666534,20419,-1256,16613,-8977,-28664
147748,9.8,-0.110059,0.267969,-61.2817,-88.0609,-78.717,0,1.52588,-0.549316,-0.25293,0.662811,0.229309,0.666321,20419,-1512,15589,-8977,-28664
147754,9.81436,-0.13877,0.244043,-60.8698,-88.0609,-79.0137,0.12207,1.89209,-0.732422,-0.253601,0.662537,0.22995,0.666138,20931,-2024,16613,-8977,-28664
147760,9.81914,-0.133984,0.291895,-60.3864,-88.0554,-79.3872,0.12207,2.31934,-1.0376,-0.254242,0.662231,0.230591,0.665985,21443,-2280,17637,-8977,-28664
147766,9.80957,-0.090918,0.320605,-59.8975,-88.0554,-79.7662,0.305176,2.44141,-0.915527,-0.255493,0.66156,0.231903,0.66571,22723,-2536,18149,-8977,-28664
147772,9.80957,-0.119629,0.31582,-59.0131,-88.0554,-80.4364,0.305176,2.01416,-0.854492,-0.256104,0.661255,0.232544,0.665558,22979,-2280,19173,-8977,-28664
147778,9.8335,-0.143555,0.311035,-58.5461,-88.0499,-80.7935,0.183105,2.19727,-1.09863,-0.256744,0.66095,0.233185,0.665405,22723,-1768,19173,-8977,-28664
147784,9.82393,-0.15791,0.330176,-58.0243,-88.0554,-81.2054,0.488281,2.31934,-1.58691,-0.257355,0.660614,0.233795,0.665253,22723,-1512,19429,-8977,-28664
147790,9.8,-0.114844,0.29668,-57.4585,-88.0554,-81.6669,0.244141,2.44141,-2.01416,-0.257935,0.660309,0.234436,0.665131,22723,-1000,20709,-8977,-28664
147796,9.81436,-0.0861328,0.320605,-56.9092,-88.0609,-82.1173,0.305176,2.13623,-2.31934,-0.259064,0.659637,0.235748,0.664856,22723,-1512,20965,-8977,-28664
147802,9.8,-0.110059,0.330176,-55.7941,-88.0664,-83.0292,0.183105,1.95312,-2.56348,-0.259613,0.659332,0.236389,0.664734,22723,-2024,21477,-8977,-28664
147808,9.7665,-0.0717773,0.339746,-55.3107,-88.0719,-83.4082,0.183105,1.64795,-2.13623,-0.260132,0.659027,0.23703,0.664612,22723,-2280,21221,-8977,-28664
147814,9.78086,-0.0765625,0.387598,-54.9042,-88.0774,-83.7103,0.183105,1.34277,-1.58691,-0.260681,0.658722,0.23764,0.66449,22211,-2536,21989,-8977,-28664
147820,9.7665,-0.0430664,0.354102,-54.5526,-88.0774,-83.963,0.183105,1.28174,-1.09863,-0.26123,0.658417,0.238281,0.664337,21443,-2024,23013,-8977,-28664
147826,9.73779,-0.0717773,0.378027,-54.3274,-88.0774,-84.0839,0.183105,0.610352,-0.549316,-0.262421,0.657867,0.239502,0.663971,20675,-1768,24293,-8977,-28664
147832,9.7665,-0.0574219,0.354102,-54.3109,-88.0774,-83.8806,0.12207,-0.732422,0.732422,-0.263031,0.657654,0.240112,0.663727,20163,-2024,24037,-8977,-28664
147838,9.78564,-0.0669922,0.349316,-54.3768,-88.0719,-83.7103,0.366211,-0.732422,0.976562,-0.263641,0.65744,0.240723,0.663483,19651,-2536,24037,-8977,-28664
147844,9.7665,-0.0574219,0.354102,-54.5087,-88.0719,-83.4686,0.183105,-0.915527,1.52588,-0.264313,0.657196,0.241333,0.663208,18627,-3560,25061,-8977,-28664
147850,9.77607,-0.062207,0.368457,-54.7229,-88.0664,-83.1445,0,-1.28174,2.01416,-0.264984,0.656982,0.241943,0.662933,17347,-4584,26085,-8977,-28664
147856,9.80957,-0.0957031,0.311035,-54.9976,-88.0609,-82.7545,0.0610352,-1.34277,2.19727,-0.266357,0.656616,0.243164,0.662323,16579,-5864,25829,-8977,-28664
147862,9.80957,-0.143555,0.311035,-55.4425,-88.0499,-82.0789,0,-1.52588,1.70898,-0.267059,0.656403,0.243744,0.662018,16067,-5352,24549,-8977,-28664
147868,9.8335,-0.133984,0.291895,-55.5634,-88.0499,-81.8481,0.0610352,-1.0376,1.28174,-0.267731,0.656189,0.244385,0.661713,16323,-4840,22501,-8977,-28664
147874,9.79521,-0.124414,0.311035,-55.6512,-88.0444,-81.6449,-0.0610352,-0.732422,1.34277,-0.268402,0.655975,0.244995,0.661438,16579,-3816,20709,-8977,-28664
147880,9.81436,-0.13877,0.31582,-55.6787,-88.0444,-81.5076,0,-0.610352,0.793457,-0.269073,0.655762,0.245605,0.661163,16579,-3048,19941,-8977,-28664
147886,9.81914,-0.14834,0.287109,-55.7172,-88.0444,-81.3593,-0.183105,-0.671387,0.366211,-0.270386,0.655273,0.246857,0.660645,16067,-1512,18917,-8977,-28664
147892,9.82393,-0.186621,0.334961,-55.7062,-88.0444,-81.156,-0.305176,-0.732422,0.0610352,-0.270996,0.65506,0.247467,0.66037,15555,-1512,18661,-8977,-28664
147898,9.81914,-0.133984,0.311035,-55.6183,-88.0499,-81.1395,-0.244141,-0.488281,-0.488281,-0.271576,0.654816,0.248077,0.660126,15299,-1000,17893,-8977,-28664
147904,9.8,-0.100488,0.325391,-55.5249,-88.0499,-81.134,-0.427246,-0.549316,-0.671387,-0.272156,0.654602,0.248718,0.659912,14787,-744,17125,-8977,-28664
147910,9.77129,-0.100488,0.349316,-55.4535,-88.0554,-81.1011,-0.183105,-0.732422,-0.671387,-0.272736,0.654358,0.249329,0.659668,14787,-232,16357,-8977,-28664
147916,9.77129,-0.124414,0.330176,-55.3931,-88.0609,-81.0516,-0.366211,-1.0376,-0.427246,-0.273865,0.65387,0.25058,0.65918,15811,537,18661,-8977,-28664
147922,9.78564,-0.124414,0.31582,-55.3766,-88.0719,-80.8649,-0.244141,-1.09863,-0.366211,-0.274445,0.653656,0.25119,0.658936,16323,1049,19685,-8977,-28664
147928,9.79043,-0.124414,0.330176,-55.426,-88.0719,-80.7111,-0.183105,-1.40381,-0.183105,-0.275024,0.653442,0.251801,0.658691,17347,1561,21477,-8977,-28664
147934,9.81436,-0.119629,0.320605,-55.4425,-88.0774,-80.5902,-0.0610352,-1.15967,-0.183105,-0.275574,0.653229,0.252441,0.658417,18627,2585,22757,-8977,-28664
147940,9.80957,-0.119629,0.311035,-55.4315,-88.0829,-80.4968,-0.183105,-1.2207,-0.610352,-0.276154,0.653015,0.253052,0.658173,19139,3097,21733,-8977,-28664
147946,9.79043,-0.0957031,0.311035,-55.459,-88.0884,-80.3705,-0.244141,-1.0376,0,-0.277283,0.652557,0.254272,0.657654,21699,2585,20709,-8977,-28664
147952,9.78086,-0.0669922,0.311035,-55.5853,-88.0939,-80.0354,-0.12207,-1.40381,0.488281,-0.277863,0.652344,0.254852,0.65741,21955,2329,19173,-8977,-28664
147958,9.78086,-0.0430664,0.354102,-55.7446,-88.0884,-79.7717,-0.0610352,-1.34277,1.2207,-0.278442,0.65213,0.255463,0.657135,21955,2073,18405,-8977,-28664
147964,9.75215,-0.0382813,0.330176,-55.9808,-88.0884,-79.4257,-0.0610352,-1.52588,1.89209,-0.279053,0.651947,0.256042,0.65683,21699,1817,17637,-8977,-28664
147970,9.75215,-0.0669922,0.301465,-56.2775,-88.0774,-79.0247,0.12207,-1.46484,2.74658,-0.279724,0.651733,0.256622,0.656525,21443,1817,16869,-8977,-28664
147976,9.7665,-0.0574219,0.325391,-56.673,-88.0664,-78.5083,0.12207,-1.58691,4.21143,-0.281158,0.651337,0.257782,0.655853,20931,2073,16357,-8977,-28664
