Timestamp,AccX,AccY,AccZ,AngleX,AngleY,AngleZ,AngularVelX,AngularVelY,AngularVelZ,QW,QX,QY,QZ,MagX,MagY,MagZ,Height,AirPressure
7882,9.7665,-0.114844,-0.00957031,-70.0708,-89.4617,-163.987,0.244141,0.427246,-1.28174,0.319092,0.627411,-0.323578,0.632233,23746,-17638,1256,-8903,-28673
7888,9.86221,-0.153125,0.062207,-69.2084,-89.4727,-164.778,0.549316,0.976562,-2.0752,0.318787,0.627594,-0.323151,0.632416,23746,-18918,2280,-8903,-28673
7894,9.73779,-0.0813477,0,-68.324,-89.4781,-165.602,0,1.0376,-1.95312,0.318481,0.627777,-0.322723,0.632599,23746,-19686,3048,-8903,-28673
7900,9.81914,-0.0861328,0.0574219,-67.3517,-89.4891,-166.514,0.183105,1.0376,-2.2583,0.318237,0.62796,-0.322327,0.632751,23490,-20198,4840,-8903,-28673
7906,9.82871,-0.0526367,0.0717773,-65.6982,-89.5001,-168.041,0.12207,0.976562,-1.77002,0.317963,0.628143,-0.32193,0.632935,23490,-19942,5352,-8903,-28673
7912,9.79521,-0.0430664,0.062207,-65.072,-89.5056,-168.602,0.366211,0.610352,-1.40381,0.317322,0.62851,-0.321106,0.633301,24002,-19686,7400,-8903,-28673
7918,9.74736,-0.0239258,0.0334961,-64.6161,-89.5056,-168.986,0.366211,0.488281,-0.915527,0.316986,0.628693,-0.320679,0.633484,24514,-19686,7912,-8903,-28673
7924,9.76172,-0.0287109,0.062207,-64.3854,-89.5056,-169.146,0.488281,0.427246,-0.12207,0.316589,0.628876,-0.320282,0.633698,24770,-19942,9192,-8903,-28673
7930,9.7665,-0.0478516,0.0526367,-64.3579,-89.5001,-169.096,0.549316,0.366211,0.610352,0.316162,0.629089,-0.319885,0.633911,25282,-20198,10984,-8903,-28673
7936,9.78564,-0.0669922,0.00957031,-65.2863,-89.4836,-168.008,0.610352,-0.0610352,1.95312,0.315674,0.629272,-0.319489,0.634155,25282,-19686,11752,-8903,-28673
7942,9.79043,-0.119629,0.0669922,-66.0223,-89.4781,-167.195,0.549316,-0.366211,2.38037,0.314636,0.629669,-0.318726,0.634644,24258,-18150,12264,-8903,-28673
7948,9.83828,-0.0957031,0.0957031,-66.72,-89.4672,-166.404,0.732422,-0.549316,1.95312,0.314117,0.629913,-0.318329,0.634888,24002,-17382,10728,-8903,-28673
7954,9.80479,-0.0957031,0.105273,-67.9175,-89.4617,-165.119,0.488281,-1.52588,2.13623,0.313538,0.630188,-0.317902,0.635132,24258,-17126,8168,-8903,-28673
7960,9.81436,-0.0957031,0.0430664,-69.4666,-89.4562,-163.471,0.671387,-2.44141,1.83105,0.312897,0.630493,-0.317444,0.635376,25026,-16358,6632,-8903,-28673
7966,9.79521,-0.114844,0.0191406,-73.1085,-89.4507,-159.609,0.854492,-3.17383,1.89209,0.312195,0.630829,-0.316956,0.63562,25282,-15590,5864,-8903,-28673
7972,9.80957,-0.153125,0,-74.7784,-89.4452,-157.83,0.793457,-2.86865,1.83105,0.310791,0.631561,-0.315918,0.636078,26562,-13798,7656,-8903,-28673
7978,9.83828,-0.15791,-0.0143555,-76.0583,-89.4397,-156.445,0.549316,-2.31934,1.09863,0.31015,0.631897,-0.315399,0.636322,26818,-12518,8168,-8903,-28673
7984,9.8335,-0.172266,-0.0430664,-77.0691,-89.4397,-155.336,0.549316,-1.95312,0.427246,0.30954,0.632233,-0.31485,0.636566,27074,-11494,8424,-8903,-28673
7990,9.82871,-0.133984,-0.0334961,-77.6459,-89.4452,-154.66,0.183105,-1.2207,-0.244141,0.30899,0.632538,-0.314362,0.63678,27074,-10470,8680,-8903,-28673
7996,9.8335,-0.110059,0,-78.1293,-89.4562,-154.001,0.244141,-0.610352,-1.64795,0.308502,0.632812,-0.313843,0.636993,24770,-8422,7400,-8903,-28673
8002,9.80479,-0.0957031,0.00957031,-78.2501,-89.4672,-153.792,0.366211,-0.610352,-1.83105,0.307617,0.633362,-0.312805,0.63739,23490,-7910,6632,-8903,-28673
8008,9.8,-0.0957031,0,-78.4314,-89.4727,-153.523,0.610352,-0.671387,-1.58691,0.30719,0.633636,-0.312317,0.637573,22210,-7910,5864,-8903,-28673
8014,9.78564,-0.0861328,0.0191406,-78.5522,-89.4836,-153.32,0.305176,-0.549316,-1.64795,0.306763,0.633881,-0.311798,0.637756,21442,-8678,4840,-8903,-28673
8020,9.78086,-0.0957031,0.00478516,-78.6566,-89.4946,-153.138,0.488281,-0.549316,-1.83105,0.306335,0.634155,-0.31131,0.637939,20418,-8934,3816,-8903,-28673
8026,9.77607,-0.0669922,0.00478516,-78.8489,-89.5056,-152.781,0.12207,-0.427246,-1.40381,0.305939,0.634399,-0.310822,0.638123,20162,-9702,3560,-8903,-28673
8032,9.77607,-0.0669922,0.0191406,-79.0521,-89.5056,-152.496,0.183105,-0.427246,-0.427246,0.305084,0.634888,-0.309906,0.638489,20418,-9702,4328,-8903,-28673
8038,9.7665,-0.0813477,0.0574219,-79.2169,-89.5056,-152.254,0.183105,-0.244141,0.183105,0.304626,0.635101,-0.309479,0.638702,21186,-10214,6120,-8903,-28673
8044,9.8,-0.090918,0.0143555,-79.3542,-89.5056,-152.034,0.244141,-0.12207,0.610352,0.304138,0.635315,-0.309052,0.638916,21186,-9958,7144,-8903,-28673
8050,9.80957,-0.105273,0.00957031,-79.7607,-89.5001,-151.545,0.244141,-0.610352,0.549316,0.30365,0.635559,-0.308594,0.63916,21186,-9958,7656,-8903,-28673
8056,9.80479,-0.105273,0.00478516,-80.6891,-89.4946,-150.447,0.427246,-0.793457,0.427246,0.303162,0.635803,-0.308167,0.639343,22466,-10726,7912,-8903,-28673
8062,9.81436,-0.124414,0.0334961,-81.178,-89.5001,-149.87,0.488281,-0.854492,0.12207,0.302155,0.636292,-0.307251,0.639771,22722,-10726,7912,-8903,-28673
8068,9.81436,-0.110059,0.0239258,-81.8207,-89.4946,-149.139,0.12207,-1.09863,0.366211,0.301636,0.636566,-0.306763,0.639984,22978,-11238,8680,-8903,-28673
8074,9.82393,-0.100488,0.0143555,-82.5293,-89.4946,-148.337,0.488281,-1.28174,-0.12207,0.301086,0.636841,-0.306274,0.640198,22978,-11494,8936,-8903,-28673
8080,9.80479,-0.100488,0.00957031,-83.2489,-89.5001,-147.524,0.488281,-1.28174,0.12207,0.300537,0.637115,-0.305786,0.640411,22978,-10982,8680,-8903,-28673
8086,9.79043,-0.105273,-0.00957031,-84.408,-89.5001,-146.179,0.488281,-0.976562,-0.12207,0.300018,0.637421,-0.305267,0.640625,24514,-10470,9448,-8903,-28673
8092,9.8,-0.105273,0,-84.9023,-89.5001,-145.596,0.488281,-0.915527,-0.366211,0.298981,0.637939,-0.30426,0.641022,26306,-10982,11240,-8903,-28673
8098,9.77607,-0.090918,0,-85.2209,-89.5056,-145.19,0.183105,-0.610352,-0.488281,0.298523,0.638214,-0.303772,0.641235,27842,-11750,13544,-8903,-28673
8104,9.82393,-0.110059,0,-85.5396,-89.5056,-144.789,0.366211,-0.610352,-0.549316,0.298035,0.638458,-0.303284,0.641449,29122,-13286,16616,-8903,-28673
8110,9.80957,-0.0957031,0.0239258,-85.7263,-89.5056,-144.514,0.427246,-0.366211,-0.366211,0.297546,0.638702,-0.302826,0.641663,29634,-15078,17896,-8903,-28673
8116,9.79043,-0.100488,0.00478516,-85.9241,-89.5166,-144.141,0.488281,-0.183105,-0.732422,0.297089,0.638947,-0.302307,0.641846,29378,-18150,20968,-8903,-28673
8122,9.80957,-0.0765625,-0.0191406,-86.0669,-89.5221,-143.921,0.305176,-0.305176,-0.793457,0.296204,0.639404,-0.301331,0.642273,28610,-19174,21224,-8903,-28673
8128,9.77607,-0.0765625,-0.00957031,-86.2207,-89.5221,-143.685,0.427246,-0.305176,-0.671387,0.295746,0.639648,-0.300903,0.642456,28610,-19686,22248,-8903,-28673
8134,9.80957,-0.0765625,-0.0143555,-86.1987,-89.5276,-143.635,0.305176,0,-0.549316,0.295349,0.639832,-0.300446,0.642639,28354,-19430,23528,-8903,-28673
8140,9.77129,-0.100488,-0.00957031,-86.1658,-89.5276,-143.591,0.305176,0,-0.732422,0.294952,0.640045,-0.300018,0.642822,28098,-19174,23272,-8903,-28673
8146,9.8,-0.0717773,-0.0143555,-85.7373,-89.5331,-143.888,0.183105,0.488281,-0.366211,0.294556,0.640228,-0.299622,0.643005,27586,-18406,23528,-8903,-28673
8152,9.78086,-0.105273,0,-85.3198,-89.5331,-144.234,0.12207,0.671387,-0.244141,0.293854,0.640564,-0.298828,0.643372,27074,-18150,23528,-8903,-28673
8158,9.79521,-0.062207,0.00957031,-84.7595,-89.5331,-144.734,0.427246,0.915527,-0.183105,0.293488,0.640686,-0.298462,0.643555,26818,-18662,24040,-8903,-28673
8164,9.80479,-0.0861328,-0.00957031,-84.2651,-89.5331,-145.157,0.366211,0.793457,-0.244141,0.293152,0.640839,-0.298096,0.643738,26050,-18662,24040,-8903,-28673
8170,9.80957,-0.0717773,0,-83.7158,-89.5331,-145.646,0.305176,0.915527,0,0.292816,0.640961,-0.297729,0.643921,26050,-18662,23272,-8903,-28673
8176,9.8,-0.0813477,0.0334961,-82.782,-89.5331,-146.464,0.366211,0.671387,0.0610352,0.292511,0.641113,-0.297394,0.644104,25282,-17382,20968,-8903,-28673
8182,9.76172,-0.0574219,0.0717773,-82.6776,-89.5276,-146.503,0.427246,0.244141,0.427246,0.291809,0.641388,-0.296692,0.64444,24770,-16870,18664,-8903,-28673
8188,9.80957,-0.0287109,0.0526367,-82.7765,-89.5276,-146.332,0.488281,-0.0610352,0.854492,0.291382,0.641571,-0.296326,0.644653,24002,-17126,16872,-8903,-28673
8194,9.77607,-0.0334961,0.0430664,-83.2819,-89.5166,-145.75,0.488281,-0.671387,1.52588,0.290894,0.641754,-0.295959,0.644836,22466,-17382,14312,-8903,-28673
8200,9.75693,-0.062207,0.0239258,-83.952,-89.5056,-144.998,0.610352,-0.915527,2.2583,0.290344,0.641968,-0.295563,0.64505,21442,-17126,12264,-8903,-28673
8206,9.8,-0.0717773,0.0239258,-85.7483,-89.4727,-143.015,0.854492,-1.46484,3.72314,0.289734,0.642212,-0.295166,0.645294,19906,-17126,8680,-8903,-28673
8212,9.81436,-0.129199,-0.0143555,-86.5228,-89.4562,-142.147,0.915527,-1.2207,4.08936,0.288422,0.64267,-0.294342,0.645782,19650,-16358,6632,-8903,-28673
8218,9.81436,-0.14834,-0.0430664,-87.2424,-89.4342,-141.334,0.732422,-1.2207,4.02832,0.28775,0.642883,-0.293945,0.646057,19394,-15590,4584,-8903,-28673
8224,9.81914,-0.172266,-0.062207,-87.6709,-89.4177,-140.812,0.732422,-0.732422,3.90625,0.28714,0.643097,-0.293549,0.646301,19906,-14822,3816,-8903,-28673
8230,9.8335,-0.172266,-0.0574219,-87.8082,-89.4012,-140.592,0.732422,-0.183105,3.2959,0.286591,0.64325,-0.293182,0.646545,20418,-13542,3560,-8903,-28673
8236,9.85742,-0.16748,-0.0430664,-87.6489,-89.3793,-140.614,0.0610352,0.305176,1.52588,0.286102,0.643402,-0.292847,0.646759,21186,-12006,3560,-8903,-28673
8242,9.84307,-0.196191,-0.0430664,-87.2754,-89.3793,-140.927,0,0.854492,0.610352,0.285339,0.643677,-0.292175,0.647125,20930,-12006,3560,-8903,-28673
8248,9.85742,-0.181836,-0.00478516,-86.748,-89.3793,-141.394,0,1.15967,-0.244141,0.285034,0.643799,-0.29184,0.647308,21442,-12262,3048,-8903,-28673
8254,9.82871,-0.143555,0.00478516,-86.1548,-89.3793,-141.938,0.12207,1.28174,-0.671387,0.28476,0.643921,-0.291473,0.647461,21954,-13030,2536,-8903,-28673
8260,9.82393,-0.119629,0.0191406,-85.4791,-89.3848,-142.559,-0.12207,1.40381,-1.28174,0.284515,0.644012,-0.291138,0.647614,22722,-13542,1512,-8903,-28673
8266,9.77607,-0.0957031,0.0239258,-84.4519,-89.4012,-143.481,0.0610352,0.976562,-1.2207,0.283997,0.644287,-0.290436,0.647919,24258,-13286,232,-8903,-28673
8272,9.75215,-0.0526367,0.0382813,-84.1058,-89.4012,-143.767,0,0.671387,-0.793457,0.283691,0.644409,-0.29007,0.648071,24514,-12774,1768,-8903,-28673
8278,9.76172,-0.062207,0.0143555,-83.9301,-89.4012,-143.882,-0.12207,0.366211,-0.244141,0.283386,0.644562,-0.289734,0.648224,24514,-12518,3560,-8903,-28673
8284,9.79521,-0.062207,0.0478516,-83.952,-89.4012,-143.8,0,0,0.183105,0.283051,0.644714,-0.289398,0.648376,24258,-12262,5352,-8903,-28673
8290,9.8,-0.119629,0.0239258,-84.2322,-89.4012,-143.454,0.305176,-0.488281,0.854492,0.282623,0.644867,-0.289062,0.648529,24514,-12262,6632,-8903,-28673
8296,9.8,-0.13877,0.00478516,-85.1825,-89.3848,-142.366,0.366211,-0.793457,1.15967,0.281738,0.645233,-0.288361,0.648834,25794,-13030,5608,-8903,-28673
8302,9.81914,-0.143555,-0.0239258,-85.5396,-89.3793,-141.938,0.366211,-0.671387,1.2207,0.281311,0.645416,-0.288025,0.649017,26818,-13542,4072,-8903,-28673
8308,9.80479,-0.13877,-0.0143555,-85.7428,-89.3793,-141.674,0.488281,-0.366211,0.793457,0.280914,0.645569,-0.287689,0.64917,27330,-13798,3048,-8903,-28673
8314,9.8,-0.13877,-0.00957031,-85.7648,-89.3738,-141.586,0.244141,0,0.488281,0.280548,0.645752,-0.287354,0.649323,27330,-14310,2024,-8903,-28673
8320,9.82393,-0.13877,-0.0287109,-85.6989,-89.3738,-141.592,0.305176,0.183105,0.305176,0.280182,0.645874,-0.286987,0.649506,27586,-14822,1512,-8903,-28673
8326,9.8,-0.114844,-0.00478516,-85.3363,-89.3738,-141.839,0,0.488281,0.0610352,0.279541,0.646149,-0.286346,0.649811,26306,-13798,2280,-8903,-28673
8332,9.78564,-0.100488,0.00957031,-84.9847,-89.3738,-142.136,0.0610352,0.793457,-0.12207,0.279236,0.646271,-0.286011,0.649963,26050,-13798,4840,-8903,-28673
8338,9.8,-0.0813477,0,-84.7046,-89.3683,-142.355,0.12207,0.671387,0.305176,0.278931,0.646393,-0.285706,0.650116,25794,-13286,6376,-8903,-28673
8344,9.77607,-0.0861328,0.00957031,-84.4519,-89.3683,-142.559,0,0.610352,0.183105,0.278625,0.646484,-0.2854,0.650269,26306,-14054,7912,-8903,-28673
8350,9.78086,-0.105273,0.0191406,-84.3201,-89.3628,-142.635,0.0610352,0.427246,1.0376,0.27829,0.646606,-0.285126,0.650421,26818,-14566,8936,-8903,-28673
8356,9.8,-0.177051,0.0191406,-84.3091,-89.3518,-142.531,0.12207,0.0610352,0.854492,0.277588,0.646851,-0.284546,0.650726,27586,-14822,8936,-8903,-28673
8362,9.79521,-0.153125,0.00478516,-84.5013,-89.3463,-142.284,-0.0610352,-0.305176,1.0376,0.277252,0.646973,-0.284271,0.650848,28098,-15078,8168,-8903,-28673
8368,9.8,-0.14834,0.0191406,-84.5837,-89.3463,-142.152,-0.0610352,-0.12207,0.305176,0.276947,0.647125,-0.283966,0.65097,28098,-15078,7656,-8903,-28673
8374,9.8,-0.119629,0,-84.787,-89.3463,-141.894,-0.0610352,-0.427246,0.0610352,0.276611,0.647278,-0.283661,0.651093,27842,-15846,7144,-8903,-28673
8380,9.79521,-0.114844,-0.0143555,-85.0177,-89.3463,-141.603,-0.0610352,-0.183105,0,0.276306,0.64743,-0.283356,0.651215,27842,-16102,6376,-8903,-28673
8386,9.79521,-0.110059,0,-85.0946,-89.3463,-141.416,0,0.0610352,0,0.275665,0.647705,-0.282745,0.651489,27330,-15334,5608,-8903,-28673
8392,9.82393,-0.172266,0.0239258,-85.0397,-89.3518,-141.422,0.12207,0.12207,-0.488281,0.27536,0.647827,-0.28244,0.651611,27586,-15078,5864,-8903,-28673
8398,9.81436,-0.13877,0.00478516,-85.0122,-89.3518,-141.389,0.12207,0,-0.915527,0.275085,0.64798,-0.282074,0.651733,28098,-14566,5864,-8903,-28673
8404,9.81914,-0.133984,-0.0191406,-84.9353,-89.3573,-141.416,0.366211,0.12207,-0.976562,0.27478,0.648132,-0.281738,0.651855,29122,-14310,5352,-8903,-28673
8410,9.8,-0.119629,-0.0191406,-84.8639,-89.3628,-141.427,0.305176,0.427246,-0.976562,0.274506,0.648285,-0.281403,0.651978,29890,-13798,4584,-8903,-28673
8416,9.80957,-0.119629,0.0143555,-84.2377,-89.3793,-141.954,0.427246,0.793457,-1.64795,0.274017,0.648529,-0.280731,0.652222,30146,-12262,1768,-8903,-28673
8422,9.79521,-0.110059,0.00478516,-83.7708,-89.3848,-142.366,0.366211,0.915527,-1.28174,0.273773,0.648651,-0.280396,0.652344,30658,-12006,1768,-8903,-28673
8434,9.77129,-0.100488,-0.0191406,-82.7216,-89.3903,-143.322,0.12207,1.2207,-0.793457,0.273315,0.648834,-0.279785,0.652618,29634,-11238,1000,-8903,-28673
8440,9.7665,-0.0957031,0.0143555,-82.2217,-89.3903,-143.784,0,1.28174,0,0.273102,0.648926,-0.27951,0.65274,29634,-10982,488,-8903,-28673
8446,9.8,-0.100488,0.00957031,-81.0626,-89.3848,-144.855,0.0610352,1.40381,0.549316,0.272644,0.649048,-0.279022,0.653015,29122,-10214,744,-8903,-28673
8452,9.77607,-0.119629,0.00478516,-80.5463,-89.3793,-145.333,0.0610352,1.34277,0.976562,0.2724,0.649078,-0.278809,0.653168,29378,-9958,1768,-8903,-28673
8458,9.78086,-0.114844,0.0191406,-80.0464,-89.3738,-145.794,0,1.34277,1.0376,0.272156,0.649139,-0.278625,0.65332,29378,-9702,3048,-8903,-28673
8464,9.79043,-0.0765625,0.0478516,-79.7992,-89.3683,-146.003,-0.183105,0.793457,1.0376,0.271912,0.6492,-0.278412,0.653442,29378,-9446,5096,-8903,-28673
8470,9.81436,-0.0478516,0.062207,-79.7388,-89.3628,-146.019,-0.12207,0.0610352,1.46484,0.271667,0.649261,-0.278229,0.653564,29378,-8934,7144,-8903,-28673
8476,9.77607,-0.0334961,0.110059,-80.5573,-89.3408,-145.102,0.0610352,-1.15967,2.62451,0.270935,0.649506,-0.277771,0.653809,29634,-8422,11496,-8903,-28673
8482,9.78086,-0.0765625,0.062207,-81.9031,-89.3298,-143.685,0.0610352,-2.62451,3.54004,0.270416,0.649689,-0.277496,0.653961,29634,-8166,13032,-8903,-28673
8488,9.79043,-0.129199,-0.00478516,-83.6829,-89.3079,-141.823,0.427246,-3.72314,4.69971,0.269745,0.649963,-0.277191,0.654083,29890,-8166,14056,-8903,-28673
8494,9.79043,-0.16748,-0.0765625,-85.4407,-89.2859,-139.982,0.0610352,-3.90625,5.00488,0.269073,0.650208,-0.276917,0.654236,30146,-8166,13800,-8903,-28673
8500,9.82393,-0.191406,-0.00957031,-86.9238,-89.2639,-138.417,-0.244141,-2.38037,4.3335,0.268463,0.650421,-0.276642,0.654388,30146,-8166,12776,-8903,-28673
8506,9.79521,-0.196191,-0.0478516,-88.4454,-89.2255,-136.741,0.183105,-1.40381,3.54004,0.267303,0.650818,-0.276031,0.654724,29890,-8166,12520,-8903,-28673
8512,9.81914,-0.191406,-0.0334961,-88.7366,-89.209,-136.379,-0.183105,-0.732422,3.05176,0.266815,0.65097,-0.275726,0.654907,28866,-7910,11496,-8903,-28673
8518,9.83828,-0.215332,-0.0430664,-88.8849,-89.1925,-136.165,-0.244141,-0.366211,2.62451,0.266357,0.651123,-0.275421,0.65509,28098,-7910,11496,-8903,-28673
8524,9.80957,-0.215332,-0.0574219,-88.8959,-89.187,-136.088,-0.610352,0,1.77002,0.26593,0.651245,-0.275116,0.655243,27586,-7142,12776,-8903,-28673
8530,10.3407,-0.363672,-0.923535,-87.8357,-89.187,-137.115,-3.72314,2.86865,-0.610352,0.265594,0.651367,-0.274811,0.655396,27330,-6374,14056,-8903,-28673
8536,9.95312,-0.626855,-0.00957031,-81.568,-89.209,-143.465,-11.6577,17.5171,-6.53076,0.266602,0.650635,-0.274963,0.65564,28610,-4838,16872,-8903,-28673
8542,10.0345,-0.244043,0.588574,-72.8064,-89.2474,-152.292,-7.08008,21.7896,-12.8174,0.267578,0.650024,-0.274719,0.655945,29378,-5350,16872,-8903,-28673
8548,9.65645,0.162695,0.45459,-63.6163,-89.2859,-161.526,-7.01904,19.2871,-16.3574,0.268524,0.649567,-0.274323,0.656189,30146,-6374,16616,-8903,-28673
8554,9.45547,0.382812,0.598145,-56.239,-89.3188,-168.953,-9.39941,12.6343,-14.9536,0.269379,0.649261,-0.274017,0.65625,30914,-7654,16104,-8903,-28673
8560,9.51768,0.507227,0.483301,-51.5314,-89.3518,-173.661,-7.32422,0.488281,-2.62451,0.269836,0.6492,-0.273834,0.656219,31426,-8678,15080,-8903,-28673
8566,9.69473,0.0957031,0.14834,-52.8278,-89.3353,-172.293,-3.60107,-0.732422,3.72314,0.269257,0.649414,-0.273346,0.656464,32450,-9958,13032,-8903,-28673
8572,9.81914,-0.14834,0.0287109,-54.8163,-89.3079,-170.2,-0.427246,-0.244141,7.56836,0.268433,0.649597,-0.272949,0.656769,32450,-10470,12264,-8903,-28673
8578,9.89092,-0.30625,0.0526367,-56.6565,-89.2749,-168.25,0.732422,0.244141,8.42285,0.267548,0.64975,-0.272552,0.657135,32450,-10982,12520,-8903,-28673
8584,9.93877,-0.31582,0.0430664,-58.1671,-89.2474,-166.624,0,-0.244141,6.83594,0.266724,0.649933,-0.272156,0.657471,31938,-11494,11240,-8903,-28673
8590,9.88135,-0.263184,-0.0143555,-59.8645,-89.22,-164.745,-1.64795,-0.427246,2.19727,0.266022,0.650146,-0.271729,0.657715,30914,-11494,9960,-8903,-28673
8596,9.81436,-0.133984,-0.0430664,-59.9359,-89.2145,-164.603,-2.56348,0.488281,0.976562,0.265015,0.650482,-0.270905,0.658142,28866,-10214,6376,-8903,-28673
8602,9.7665,-0.0669922,0.0717773,-59.6503,-89.209,-164.822,-3.479,1.34277,0.488281,0.264648,0.650604,-0.270538,0.658325,27586,-9446,4072,-8903,-28673
8608,9.77129,-0.0382813,0.162695,-59.458,-89.198,-164.949,-3.90625,1.70898,1.58691,0.264252,0.650696,-0.270203,0.658508,26818,-8678,2792,-8903,-28673
8614,9.75693,-0.0382813,0.110059,-59.4525,-89.187,-164.883,-3.54004,1.40381,2.13623,0.263794,0.650787,-0.269836,0.658752,25794,-8166,1256,-8903,-28673
8620,9.74736,-0.0765625,0.0526367,-60.4083,-89.1486,-163.762,-3.2959,0.854492,4.57764,0.263214,0.65094,-0.26947,0.658997,25794,-7910,488,-8903,-28673
8626,9.78086,-0.14834,-0.0813477,-60.9027,-89.1266,-163.196,-3.96729,1.28174,5.12695,0.262054,0.651123,-0.268799,0.659515,26562,-6118,-1049,-8903,-28673
8632,9.78086,-0.177051,-0.062207,-60.9796,-89.0936,-163.054,-4.5166,2.86865,5.43213,0.261566,0.651154,-0.268585,0.659821,27330,-5606,-793,-8903,-28673
8638,9.87656,-0.253613,0.00957031,-60.6665,-89.0607,-163.323,-5.49316,4.3335,5.37109,0.2612,0.651062,-0.268433,0.660095,27330,-5606,-281,-8903,-28673
8644,9.88135,-0.277539,0.0717773,-59.9744,-89.0277,-163.982,-6.34766,5.37109,4.39453,0.260956,0.65094,-0.268311,0.660339,26818,-5606,744,-8903,-28673
8650,9.85742,-0.282324,0.143555,-57.9803,-88.9893,-165.938,-8.48389,4.82178,0.976562,0.260834,0.650818,-0.268188,0.660583,28098,-5350,3304,-8903,-28673
8656,9.82871,-0.210547,0.29668,-57.1069,-88.9838,-166.794,-8.60596,3.35693,-0.976562,0.260742,0.650665,-0.267914,0.660889,29122,-5350,3560,-8903,-28673
8662,9.82393,-0.14834,0.387598,-56.4697,-88.9893,-167.399,-7.62939,1.77002,-1.83105,0.26062,0.650726,-0.26767,0.66098,29634,-4582,3816,-8903,-28673
8668,12.2883,0.0574219,0.698633,-56.272,-89.0002,-167.542,-6.04248,-0.549316,-2.38037,0.260345,0.650909,-0.267303,0.661041,30146,-3558,4072,-8903,-28673
8674,8.19697,-1.16279,1.32549,-56.3214,-89.0332,-167.399,-4.3335,-3.78418,-5.43213,0.259918,0.651276,-0.266663,0.661102,30402,-2790,3816,-8903,-28673
8680,10.8288,-1.15801,-1.05273,-57.0685,-89.2529,-166.448,-2.19727,-14.2822,-24.231,0.259338,0.652069,-0.265717,0.66095,31170,-1254,3816,-8903,-28673
8686,7.80459,0.684277,-0.119629,-51.4655,-89.4012,-172.007,-4.57764,-7.08008,-32.959,0.260071,0.653595,-0.263702,0.659943,31682,-1254,6120,-8903,-28673
8692,10.0967,1.02402,-0.607715,-45.4614,-89.5166,-177.979,-8.05664,-6.34766,-24.7803,0.260529,0.654114,-0.262909,0.659576,32194,-2022,8936,-8903,-28673
8698,8.78076,1.18672,0.311035,-41.5997,-89.5551,178.154,-10.3149,-1.64795,-10.6201,0.260742,0.654297,-0.262604,0.659424,32194,-3046,12008,-8903,-28673
8704,9.69473,0.851758,1.28721,-43.7585,-89.5386,-179.604,-10.1318,0.915527,5.31006,0.260162,0.654388,-0.262299,0.659668,32194,-4326,14568,-8903,-28673
8710,9.73301,0.0382813,1.04795,-62.9462,-89.4067,-159.879,8.66699,-11.5356,22.7051,0.25827,0.654785,-0.261505,0.660339,31682,-5350,14824,-8903,-28673
8716,10.0297,-0.478516,-0.13877,-74.5203,-89.3463,-147.986,10.9863,-19.4092,20.5078,0.253082,0.656555,-0.259521,0.661377,30914,-6886,16360,-8903,-28673
8722,9.77607,-0.435449,-0.301465,-83.6719,-89.2859,-138.516,10.9253,-19.7754,15.3198,0.250641,0.657623,-0.258392,0.661682,30402,-7398,17384,-8903,-28673
8728,10.0105,-0.205762,-0.358887,-90.8734,-89.231,-131.028,7.32422,-18.5547,11.4746,0.248444,0.658661,-0.257294,0.661896,29634,-7142,18408,-8903,-28673
8734,9.58467,-0.00478516,-0.253613,-95.993,-89.1815,-125.64,5.7373,-15.1978,8.78906,0.246429,0.659607,-0.256134,0.66217,28610,-6886,19432,-8903,-28673
8740,9.75215,-0.062207,-0.181836,-102.387,-89.0607,-118.718,1.15967,-11.3525,11.0474,0.244476,0.660431,-0.255005,0.662506,26562,-6118,20456,-8903,-28673
8746,9.90049,-0.373242,-0.172266,-104.376,-88.9893,-116.472,0.183105,-10.376,12.2681,0.24057,0.661926,-0.25293,0.663239,26306,-6630,21480,-8903,-28673
8752,10.001,-0.545508,-0.172266,-105.771,-88.9288,-114.835,-0.12207,-8.66699,10.9863,0.238739,0.662598,-0.251892,0.663635,25794,-6630,22760,-8903,-28673
8758,10.0345,-0.655566,-0.0526367,-106.935,-88.8794,-113.434,-0.549316,-7.26318,7.44629,0.237122,0.663208,-0.250854,0.664001,25282,-6374,25064,-8903,-28673
8764,10.0919,-0.684277,0.0239258,-108.386,-88.8629,-111.758,-0.854492,-6.95801,1.83105,0.235687,0.663879,-0.249695,0.664276,25026,-5606,27112,-8903,-28673
8770,10.0105,-0.564648,0.0574219,-113.445,-88.8959,-106.265,-1.09863,-8.8501,-10.0708,0.234467,0.664581,-0.248383,0.664459,25282,-3558,31208,-8903,-28673
8776,9.93398,-0.344531,0.0191406,-117.488,-88.9343,-101.997,-0.610352,-10.7422,-13.7939,0.232361,0.666351,-0.245361,0.664581,26050,-3558,-32536,-8903,-28673
8782,9.78086,-0.301465,0.0478516,-122.602,-88.9728,-96.6577,-0.427246,-12.4512,-16.4795,0.231384,0.667358,-0.243683,0.66452,27330,-3558,-30744,-8903,-28673
8788,10.0153,-0.215332,0.0334961,-128.754,-89.0112,-90.2692,0.12207,-13.6719,-18.7988,0.230408,0.668427,-0.241943,0.664429,27842,-3558,-29208,-8903,-28673
8794,9.8,-0.224902,-0.0478516,-135.703,-89.0332,-83.0786,0.671387,-14.4653,-20.1416,0.229431,0.669556,-0.240112,0.664276,28354,-3814,-27416,-8903,-28673
8800,9.8,-0.248828,-0.14834,-151.523,-89.0387,-66.7639,1.83105,-15.1978,-23.3154,0.228455,0.670715,-0.23819,0.664124,28610,-3558,-21784,-8903,-28673
8806,9.84307,-0.0861328,-0.16748,-159.494,-89.0222,-58.5461,2.01416,-14.7095,-23.6816,0.226593,0.673096,-0.234253,0.663788,28354,-3814,-18712,-8903,-28673
8812,9.81436,0.00957031,-0.210547,-167.042,-88.9838,-50.7404,2.0752,-14.8315,-23.8037,0.225647,0.674255,-0.232239,0.663635,27842,-4326,-18200,-8903,-28673
8818,9.77607,0.0717773,-0.239258,-173.936,-88.9343,-43.5938,2.38037,-14.2822,-23.8647,0.224701,0.675415,-0.230225,0.663483,26818,-5094,-18456,-8903,-28673
8824,9.69473,0.14834,-0.311035,-179.83,-88.8684,-37.4469,2.44141,-13.7329,-22.7661,0.223755,0.676514,-0.22821,0.663361,26050,-6118,-18968,-8903,-28673
8830,9.69951,0.210547,-0.392383,171.497,-88.7366,-28.2843,2.13623,-10.9253,-18.3716,0.222748,0.677582,-0.226257,0.663269,21954,-8422,-20760,-8903,-28673
8836,9.6708,0.205762,-0.282324,168.585,-88.6816,-25.1312,2.38037,-9.33838,-15.8081,0.220703,0.679443,-0.222656,0.6633,19650,-10214,-19992,-8903,-28673
8842,9.68516,0.210547,-0.344531,166.355,-88.6267,-22.6648,2.31934,-8.54492,-13.4888,0.219635,0.680267,-0.220978,0.663361,16834,-12518,-17432,-8903,-28673
8848,9.69951,0.172266,-0.368457,164.685,-88.5718,-20.7806,1.64795,-7.87354,-11.2305,0.218597,0.681,-0.219452,0.663452,14786,-14822,-13848,-8903,-28673
8854,9.69473,0.224902,-0.401953,163.35,-88.5278,-19.2371,1.34277,-6.83594,-9.70459,0.21759,0.681671,-0.218018,0.663574,13250,-17382,-11544,-8903,-28673
8860,9.64209,0.253613,-0.330176,161.603,-88.4674,-17.1277,0.183105,-4.08936,-5.7373,0.216675,0.682251,-0.216705,0.663696,9666,-22502,-8728,-8903,-28673
8866,9.55117,0.330176,-0.220117,161.345,-88.4509,-16.7212,0.0610352,-3.17383,-2.99072,0.214966,0.683136,-0.214661,0.664032,7874,-24806,-8216,-8903,-28673
8872,9.68516,0.354102,-0.186621,161.592,-88.4344,-16.8365,0.488281,-2.99072,0,0.214172,0.683441,-0.213898,0.664185,6338,-27110,-7448,-8903,-28673
8878,9.68037,0.229688,-0.205762,162.515,-88.429,-17.6605,0.183105,-3.72314,3.84521,0.21344,0.683716,-0.21347,0.664307,4034,-29158,-6936,-8903,-28673
8884,9.78086,0.090918,-0.263184,163.993,-88.418,-19.0613,0,-4.69971,6.89697,0.212708,0.683899,-0.213226,0.664398,2242,-30694,-6680,-8903,-28673
8890,9.8335,-0.0334961,-0.311035,167.146,-88.396,-22.0715,0.0610352,-4.5166,7.38525,0.212036,0.684082,-0.213104,0.66449,-575,32282,-5656,-8903,-28673
8896,9.92441,-0.15791,-0.220117,168.327,-88.3795,-23.1866,-0.12207,-4.82178,5.61523,0.210754,0.684479,-0.212769,0.664612,-1343,32026,-5144,-8903,-28673
8902,10.0297,-0.181836,-0.210547,169.063,-88.3575,-23.8458,-0.244141,-5.37109,2.99072,0.210205,0.684723,-0.212463,0.664612,-1343,31770,-4632,-8903,-28673
8908,10.0153,-0.234473,-0.234473,169.25,-88.3301,-23.9557,-0.305176,-6.22559,-0.305176,0.209656,0.685059,-0.212006,0.664581,-831,31770,-3608,-8903,-28673
8914,9.95791,-0.0813477,-0.287109,168.915,-88.2916,-23.5162,-0.12207,-6.5918,-3.60107,0.209106,0.685455,-0.211395,0.664551,194,31514,-2072,-8903,-28673
8920,9.8957,-0.00957031,-0.220117,167.206,-88.2092,-21.5881,-0.12207,-7.44629,-7.8125,0.208618,0.685913,-0.210632,0.66449,962,31002,745,-8903,-28673
8926,9.79521,0.090918,-0.325391,166.207,-88.1653,-20.473,0.366211,-7.8125,-8.72803,0.207581,0.68689,-0.208893,0.664337,1218,30746,2025,-8903,-28673
8932,9.75215,0.177051,-0.387598,165.196,-88.1213,-19.3359,0.671387,-7.75146,-9.15527,0.207062,0.687408,-0.207977,0.664246,1730,29978,2793,-8903,-28673
8938,9.69951,0.220117,-0.387598,164.273,-88.0774,-18.2922,0.854492,-6.83594,-8.60596,0.206543,0.687897,-0.207062,0.664185,1730,29466,3305,-8903,-28673
8944,9.66602,0.272754,-0.378027,163.493,-88.0389,-17.3969,0.976562,-5.85938,-7.56836,0.206024,0.688324,-0.206207,0.664185,1474,28954,3561,-8903,-28673
8950,9.64209,0.287109,-0.382812,162.784,-87.9895,-16.463,2.31934,-3.41797,-3.11279,0.204865,0.689026,-0.204712,0.664276,194,28442,5353,-8903,-28673
8956,9.77129,0.129199,-0.535937,162.806,-87.9785,-16.3861,2.31934,-2.74658,-0.976562,0.204254,0.68927,-0.204102,0.664368,-831,28186,6889,-8903,-28673
8962,9.85742,-0.00478516,-0.526367,162.856,-87.973,-16.3312,1.83105,-1.46484,-0.366211,0.203674,0.689484,-0.203491,0.66452,-2111,28698,8425,-8903,-28673
8968,9.91006,-0.0717773,-0.507227,162.702,-87.973,-16.0785,1.0376,0.488281,-1.2207,0.203125,0.689667,-0.20285,0.664703,-3391,28698,9705,-8903,-28673
8974,9.9627,-0.062207,-0.435449,162.213,-87.9785,-15.4852,0.244141,2.13623,-3.23486,0.202637,0.689819,-0.202148,0.664917,-5183,28698,11241,-8903,-28673
8980,9.89092,0.0239258,-0.401953,160.252,-87.995,-13.3099,-0.305176,3.90625,-7.26318,0.201813,0.690094,-0.200409,0.665405,-7743,28954,12521,-8903,-28673
8986,9.75693,0.129199,-0.31582,158.972,-88.0005,-11.9147,-0.244141,4.69971,-8.11768,0.201416,0.690216,-0.199463,0.66568,-8511,28698,13289,-8903,-28673
8992,9.79043,0.14834,-0.30625,157.665,-88.0115,-10.4919,-0.12207,5.00488,-8.11768,0.201019,0.690338,-0.198517,0.665955,-9279,28698,12777,-8903,-28673
8998,9.79521,0.162695,-0.267969,156.379,-88.017,-9.09119,0.183105,4.88281,-7.93457,0.200623,0.69046,-0.19754,0.666229,-9023,27930,12777,-8903,-28673
9004,9.7665,0.186621,-0.325391,155.143,-88.0225,-7.73987,0.244141,4.63867,-7.62939,0.200195,0.690613,-0.196564,0.666504,-9279,26906,13033,-8903,-28673
9010,9.74736,0.16748,-0.291895,152.875,-88.0334,-5.22949,0.610352,4.63867,-6.46973,0.19928,0.690857,-0.194672,0.667084,-10303,24090,13033,-8903,-28673
9016,9.76172,0.224902,-0.248828,151.848,-88.0389,-4.08691,1.0376,4.3335,-6.04248,0.198792,0.690979,-0.193756,0.667358,-10815,23066,12009,-8903,-28673
9022,9.72344,0.229688,-0.172266,151.035,-88.0444,-3.15308,1.28174,3.66211,-4.69971,0.198273,0.691101,-0.192871,0.667633,-11583,21786,11241,-8903,-28673
9028,9.75693,0.215332,-0.210547,150.408,-88.0499,-2.4115,1.28174,2.92969,-3.60107,0.197723,0.691254,-0.192078,0.667908,-12351,21018,10985,-8903,-28673
9034,9.79043,0.220117,-0.224902,149.98,-88.0499,-1.87317,1.64795,1.64795,-2.74658,0.197144,0.691406,-0.191284,0.668121,-12607,20506,10473,-8903,-28673
9040,9.77129,0.215332,-0.239258,149.496,-88.0444,-1.17004,1.64795,0.366211,-1.58691,0.195953,0.691772,-0.18988,0.668488,-13631,20506,11753,-8903,-28673
9046,9.75693,0.258398,-0.349316,149.425,-88.0444,-0.98877,1.64795,0.244141,-0.732422,0.195374,0.691956,-0.189209,0.668671,-13887,20506,13033,-8903,-28673
9052,9.75215,0.229688,-0.30625,149.403,-88.0499,-0.86792,1.52588,0.732422,0,0.194763,0.692108,-0.188599,0.668854,-14399,19994,14825,-8903,-28673
9058,9.77607,0.205762,-0.363672,149.365,-88.0554,-0.730591,1.34277,1.09863,0.12207,0.194183,0.69223,-0.188019,0.669067,-15423,18970,16105,-8903,-28673
9064,9.74736,0.263184,-0.311035,149.354,-88.0609,-0.626221,0.793457,1.58691,0.671387,0.193634,0.692322,-0.187469,0.669281,-16447,17946,16105,-8903,-28673
9070,9.78086,0.248828,-0.210547,149.579,-88.0829,-0.675659,1.2207,1.52588,2.31934,0.192505,0.692505,-0.186462,0.669708,-18495,16154,14057,-8903,-28673
9076,9.78086,0.172266,-0.330176,149.815,-88.0994,-0.818481,1.77002,1.58691,2.56348,0.191925,0.692596,-0.186005,0.669922,-19519,14874,12265,-8903,-28673
9082,9.84307,0.143555,-0.368457,150.068,-88.1104,-0.98877,1.52588,1.70898,2.80762,0.191345,0.692657,-0.185547,0.670135,-20287,13594,10729,-8903,-28673
9088,9.86221,0.133984,-0.277539,150.32,-88.1268,-1.15906,1.46484,2.19727,3.05176,0.190765,0.692719,-0.185089,0.670349,-21055,13082,9193,-8903,-28673
9094,9.81436,0.119629,-0.311035,150.469,-88.1488,-1.21948,1.2207,2.80762,2.56348,0.190216,0.692749,-0.184662,0.670593,-21055,13082,7913,-8903,-28673
9100,9.7665,0.129199,-0.301465,150.524,-88.1818,-1.10962,1.2207,3.23486,1.77002,0.189178,0.69281,-0.183685,0.671112,-20543,13082,8169,-8903,-28673
9106,9.81436,0.15791,-0.205762,150.524,-88.1982,-1.01624,1.70898,3.17383,1.64795,0.188629,0.692841,-0.183197,0.671356,-19775,12058,9705,-8903,-28673
9112,9.80479,0.129199,-0.224902,150.518,-88.2202,-0.928345,1.64795,3.17383,1.64795,0.18811,0.692871,-0.182709,0.6716,-19007,11034,10729,-8903,-28673
9118,9.84307,0.14834,-0.224902,150.54,-88.2367,-0.862427,2.68555,3.11279,1.77002,0.187592,0.692902,-0.18222,0.671844,-18495,10522,12265,-8903,-28673
9124,9.77607,0.133984,-0.267969,150.551,-88.2532,-0.785522,2.50244,2.99072,1.64795,0.187042,0.692963,-0.181702,0.672089,-18239,10010,12777,-8903,-28673
9130,9.8,0.177051,-0.29668,150.491,-88.2806,-0.55481,2.86865,2.80762,1.15967,0.185974,0.693054,-0.180695,0.672546,-18495,8730,12777,-8903,-28673
9136,9.74736,0.253613,-0.248828,150.524,-88.2971,-0.499878,2.80762,2.86865,1.70898,0.185455,0.693085,-0.180206,0.672791,-18495,7962,11753,-8903,-28673
9142,9.77607,0.196191,-0.287109,150.787,-88.3191,-0.681152,3.23486,2.74658,3.23486,0.184906,0.693115,-0.179779,0.673035,-17983,6938,10217,-8903,-28673
9148,9.80479,0.119629,-0.239258,151.144,-88.3411,-0.955811,2.74658,3.17383,4.08936,0.184326,0.693115,-0.179413,0.673279,-17727,6426,8681,-8903,-28673
9154,9.83828,0.0765625,-0.277539,151.507,-88.363,-1.24695,2.19727,3.11279,3.2959,0.183777,0.693146,-0.179016,0.673523,-17471,5914,6889,-8903,-28673
9160,9.74736,0.133984,-0.229688,151.941,-88.4015,-1.5271,1.95312,3.23486,2.80762,0.18277,0.693146,-0.178253,0.673981,-17471,6170,4841,-8903,-28673
9166,9.80479,0.100488,-0.215332,152.111,-88.4235,-1.62048,1.95312,3.41797,2.86865,0.182281,0.693146,-0.177856,0.674225,-17727,6938,5353,-8903,-28673
9172,9.8335,0.119629,-0.215332,152.309,-88.4454,-1.75232,1.70898,3.35693,2.99072,0.181793,0.693146,-0.17749,0.674469,-17983,7962,6377,-8903,-28673
9178,9.86699,0.0574219,-0.229688,152.463,-88.4619,-1.83472,1.64795,3.35693,2.68555,0.181305,0.693146,-0.177094,0.674683,-17983,9242,6377,-8903,-28673
9184,9.85742,0.0861328,-0.196191,152.54,-88.4839,-1.84021,1.40381,2.56348,1.58691,0.180847,0.693146,-0.176697,0.674896,-17727,10778,6889,-8903,-28673
9190,9.77129,0.129199,-0.119629,152.501,-88.5059,-1.65894,1.2207,2.2583,0.671387,0.179993,0.693207,-0.175873,0.675293,-15935,12058,6377,-8903,-28673
9196,9.75693,0.196191,-0.110059,152.556,-88.5114,-1.64246,0.915527,0.793457,0.732422,0.179596,0.693298,-0.175476,0.675415,-14911,11802,6889,-8903,-28673
9202,9.78086,0.162695,-0.100488,152.842,-88.5114,-1.86218,1.28174,-0.549316,1.40381,0.179169,0.69339,-0.17514,0.675507,-14143,11034,6377,-8903,-28673
9208,9.8,0.129199,-0.143555,153.408,-88.5059,-2.36755,1.2207,-2.38037,2.13623,0.178741,0.693542,-0.174866,0.675537,-13375,11034,5097,-8903,-28673
9214,9.8335,0.105273,-0.200977,154.138,-88.4949,-3.04871,0.427246,-5.18799,2.0752,0.178314,0.693726,-0.174652,0.675537,-12351,11034,2281,-8903,-28673
9220,9.83828,0.0765625,-0.196191,155.654,-88.4509,-4.47144,0.244141,-5.98145,1.83105,0.177551,0.694183,-0.174255,0.675354,-11071,11802,-3096,-8903,-28673
9226,9.87656,-0.00957031,-0.239258,156.429,-88.4235,-5.19653,-0.12207,-6.46973,1.83105,0.177185,0.694427,-0.174103,0.675262,-10559,11802,-3608,-8903,-28673
9232,9.83828,-0.0334961,-0.277539,157.028,-88.3905,-5.75134,-0.183105,-7.20215,0.610352,0.176849,0.694702,-0.173889,0.67511,-10559,12058,-4888,-8903,-28673
9238,9.91006,-0.0287109,-0.253613,157.357,-88.3575,-6.03699,-0.732422,-7.50732,-1.0376,0.176544,0.694977,-0.173615,0.674957,-10815,11802,-5400,-8903,-28673
9244,9.90527,-0.00478516,-0.29668,157.148,-88.2751,-5.72388,-0.854492,-7.26318,-4.69971,0.17627,0.695312,-0.173309,0.674774,-11327,11546,-5400,-8903,-28673
9250,9.88613,-0.0143555,-0.258398,156.671,-88.2312,-5.18005,-0.549316,-6.7749,-6.10352,0.175812,0.695953,-0.172363,0.674469,-12863,12058,-4632,-8903,-28673
9256,9.88135,0.0239258,-0.320605,155.891,-88.1873,-4.32861,0,-6.34766,-8.17871,0.175568,0.69632,-0.171753,0.674316,-13631,11802,-3352,-8903,-28673
9262,9.8,0.090918,-0.354102,154.929,-88.1433,-3.29041,0.183105,-5.98145,-9.64355,0.175354,0.696686,-0.171021,0.674194,-15167,11290,-2840,-8903,-28673
9268,9.8335,0.13877,-0.401953,153.875,-88.0939,-2.14783,0,-5.37109,-10.437,0.17511,0.697021,-0.170227,0.674072,-16191,10778,-2840,-8903,-28673
9274,9.74736,0.210547,-0.425879,151.567,-88.0225,0.335083,0.12207,-2.13623,-10.498,0.174866,0.697357,-0.169403,0.674011,-16703,9242,-1816,-8903,-28673
9280,9.68516,0.325391,-0.30625,150.474,-87.995,1.51062,0,-0.976562,-9.39941,0.174347,0.697845,-0.167755,0.674072,-17471,7194,1257,-8903,-28673
9286,9.6708,0.368457,-0.31582,149.557,-87.9785,2.52136,0.488281,0.0610352,-7.62939,0.174042,0.698029,-0.166962,0.674133,-17727,6426,2025,-8903,-28673
9292,9.67559,0.291895,-0.229688,148.87,-87.9675,3.30139,0.915527,0.732422,-5.43213,0.173676,0.698181,-0.16626,0.674255,-18495,5658,2281,-8903,-28673
9298,9.75215,0.224902,-0.200977,148.508,-87.962,3.74634,1.0376,0,-3.17383,0.173248,0.698334,-0.165649,0.674377,-19519,4890,2281,-8903,-28673
9304,9.83828,0.16748,-0.220117,148.282,-87.9401,4.14185,1.70898,-1.46484,-1.70898,0.172791,0.698486,-0.16507,0.674469,-19775,4122,2793,-8903,-28673
9310,9.90527,0.0382813,-0.301465,148.195,-87.9236,4.31763,1.77002,-2.50244,-2.50244,0.171875,0.698883,-0.16394,0.674561,-20287,2842,5097,-8903,-28673
9316,9.9292,0,-0.382812,147.958,-87.9016,4.64722,1.28174,-2.92969,-4.08936,0.171448,0.699097,-0.16333,0.674591,-20287,2842,6121,-8903,-28673
9322,-19.5952,-1.04795,3.96689,147.497,-87.8741,5.19653,0.915527,-3.05176,-6.16455,0.171051,0.699371,-0.162598,0.674591,-20799,2842,6633,-8903,-28673
9328,39.1952,-25.7633,-13.03,143.273,-87.7643,9.58008,19.7754,-0.427246,-40.4053,0.171295,0.69986,-0.160461,0.67453,-21311,3098,7401,-8903,-28673
9334,26.2944,38.8411,78.0507,78.8928,-84.8859,74.3994,-112.549,481.201,-266.113,0.17868,0.702606,-0.138916,0.67453,-22591,2074,7913,-8903,-28673
9340,20.0881,-9.41719,23.0022,53.476,-85.0507,99.256,-81.7871,377.808,217.651,0.19458,0.674652,-0.138336,0.698395,-30783,-8423,4073,-8903,-28673
9346,9.61816,-4.68945,10.5848,43.9343,-85.4736,108.737,31.4331,55.1147,181.091,0.19043,0.67157,-0.14328,0.701477,28865,-17127,-2840,-8903,-28673
9352,-5.28281,-2.29209,-5.04355,49.9054,-86.2976,102.338,-32.2876,-187.561,72.5098,0.189972,0.675995,-0.148987,0.696167,23745,-25831,-11032,-8903,-28673
9358,6.13457,0.488086,-3.80898,70.3345,-86.9128,81.156,-90.7593,-285.522,-4.69971,0.192902,0.683258,-0.154999,0.686859,20161,31769,-20248,-8903,-28673
9364,10.2642,0.0430664,-2.8376,88.3191,-86.4954,62.5836,51.7578,-10.1929,-57.6782,0.196503,0.688354,-0.158478,0.679932,17345,26137,-28440,-8903,-28673
9370,7.30693,1.52646,-1.95713,83.1006,-86.1823,67.9395,76.7212,65.8569,-46.1426,0.199982,0.687347,-0.15332,0.681122,11969,20505,30440,-8903,-28673
9376,10.8575,0.334961,0.124414,80.0079,-86.0175,70.8948,22.2778,38.3301,-15.625,0.201935,0.685944,-0.153015,0.682037,8385,18457,28904,-8903,-28673
9382,9.82871,-0.483301,-0.110059,80.2057,-85.946,70.285,-30.7617,-11.5967,-5.7373,0.204803,0.685486,-0.155029,0.681183,5057,16665,28136,-8903,-28673
9388,10.9819,-0.244043,-0.13877,81.0242,-85.8417,69.0326,-34.5459,-19.5923,-14.3433,0.207977,0.685303,-0.157013,0.679962,2241,14105,26600,-8903,-28673
9394,10.8958,-0.0813477,0.90918,80.7275,-85.4297,68.5876,-19.2871,0.244141,-38.6963,0.211395,0.684784,-0.158203,0.679138,-3136,8473,25320,-8903,-28673
9400,9.60859,0.583789,0.631641,81.1285,-85.1935,67.868,-12.0239,-8.23975,-40.5884,0.218231,0.684174,-0.159332,0.677338,-5952,5401,26088,-8903,-28673
9406,10.4651,-0.215332,-0.378027,81.9745,-84.9628,66.7035,-10.6201,-16.6016,-41.1987,0.221436,0.684296,-0.159851,0.676056,-8768,1817,28136,-8903,-28673
9412,10.2354,0.0382813,-1.17715,82.7655,-84.6991,65.5994,-10.0708,-15.9302,-48.1567,0.224823,0.684448,-0.160156,0.674683,-11840,-2024,30184,-8903,-28673
9418,10.1924,0.110059,-0.995313,83.0127,-84.3805,65.0391,-10.0708,-5.24902,-58.2886,0.228546,0.684357,-0.160095,0.673553,-14656,-5864,32232,-8903,-28673
9424,9.87656,0.626855,-0.712988,82.8149,-83.6279,64.4897,-25.9399,2.80762,-71.5332,0.232849,0.684082,-0.159943,0.672394,-22080,-14312,-28952,-8903,-28673
9430,9.73779,1.17236,-0.0861328,82.5293,-83.2599,64.3689,-27.2217,5.98145,-69.1528,0.242035,0.683167,-0.159973,0.670044,-26176,-19176,-27928,-8903,-28673
9436,9.4124,1.18193,0.0478516,82.2437,-82.8973,64.248,-28.6255,6.40869,-67.749,0.246613,0.682617,-0.160126,0.668915,-30784,-24296,-26648,-8903,-28673
9442,9.11572,1.52168,0.196191,81.9745,-82.5513,64.1107,-29.2969,6.10352,-64.4531,0.251068,0.682037,-0.1604,0.667786,29632,-29928,-25112,-8903,-28673
9448,9.47939,1.804,0.248828,81.6779,-82.2327,64.0228,-25.7568,7.44629,-60.0586,0.25528,0.681427,-0.160675,0.666748,23744,29464,-23320,-8903,-28673
9454,9.11094,2.02412,0.44502,81.2054,-81.6943,63.7592,-21.3013,4.39453,-45.2271,0.259277,0.680847,-0.161041,0.66571,11712,16664,-18712,-8903,-28673
9460,8.76641,2.11982,0.368457,80.9967,-81.5131,63.6328,-16.6016,3.66211,-33.2031,0.265839,0.679718,-0.162445,0.66394,5568,9496,-15128,-8903,-28673
9466,8.95781,2.23945,0.349316,80.8044,-81.3867,63.5229,-13.3667,2.68555,-22.7661,0.268433,0.679169,-0.163452,0.663208,192,2584,-11800,-8903,-28673
9472,8.55107,2.11504,0.483301,80.5518,-81.3263,63.4955,-8.36182,3.2959,-9.27734,0.270416,0.678558,-0.164673,0.66272,-4929,-5097,-8216,-8903,-28673
9478,8.97217,2.04326,0.60293,80.2936,-81.3318,63.5065,-3.35693,2.13623,4.88281,0.27182,0.677979,-0.166138,0.662384,-9025,-12777,-5912,-8903,-28673
9496,9.03438,1.89492,0.287109,79.6783,-81.8646,63.3691,8.23975,-5.79834,41.8091,0.273102,0.676056,-0.173798,0.661835,-20801,31767,745,-8903,-28673
9502,9.39326,1.7418,0.311035,79.53,-82.1008,63.3856,10.5591,-6.34766,49.8047,0.272491,0.675629,-0.176086,0.661957,-22337,29207,745,-8903,-28673
9508,9.4124,1.66045,0.191406,79.4586,-82.3755,63.3197,10.0098,-10.0708,56.6406,0.271637,0.675232,-0.178589,0.662018,-24129,27671,-792,-8903,-28673
9514,9.27363,1.47383,-0.0191406,79.3707,-83.0292,63.1714,11.2305,-12.8784,68.9087,0.270477,0.674835,-0.181244,0.66217,-25921,25879,-2072,-8903,-28673
9520,9.88613,0.875684,-0.181836,79.3213,-83.3862,63.1165,11.7798,-13.0005,72.0825,0.267609,0.674072,-0.186829,0.662567,-26177,26647,-1560,-8903,-28673
9526,9.98662,0.669922,-0.200977,79.173,-83.7378,63.1659,11.6577,-11.0474,72.876,0.266052,0.673615,-0.189606,0.662872,-25409,28439,-1304,-8903,-28673
9532,10.001,0.6125,-0.191406,78.9313,-84.0894,63.3087,10.498,-9.33838,71.9604,0.264526,0.673096,-0.192352,0.663208,-23617,30743,-1304,-8903,-28673
9538,9.8957,0.665137,-0.196191,78.6072,-84.4354,63.5449,10.437,-7.8125,70.3735,0.263031,0.672577,-0.194977,0.663574,-21313,-31209,-1048,-8903,-28673
9544,9.87178,0.564648,-0.16748,77.6349,-85.0946,64.3634,10.5591,-5.06592,67.627,0.261536,0.671997,-0.19751,0.664001,-14913,-22505,-1304,-8903,-28673
9550,10.0584,0.311035,-0.15791,76.9318,-85.4077,64.9951,11.1084,-3.17383,66.4673,0.258545,0.670807,-0.20224,0.664948,-11585,-17129,-1304,-8903,-28673
9556,10.1397,0.224902,-0.339746,76.0748,-85.7153,65.7916,10.9863,-1.77002,64.0869,0.257111,0.670197,-0.204468,0.665466,-8001,-10473,-1816,-8903,-28673
9562,10.0536,0.220117,-0.267969,75.1025,-85.9955,66.7035,9.82666,-0.976562,60.1807,0.255768,0.669556,-0.206543,0.665955,-3905,-3305,-1560,-8903,-28673
9568,10.1302,-0.0334961,-0.272754,73.9819,-86.2592,67.7692,9.58252,0.12207,56.7627,0.254517,0.668945,-0.208466,0.666443,960,4632,-792,-8903,-28673
9574,10.3072,-0.368457,-0.258398,71.0596,-86.6986,70.5981,9.70459,5.24902,44.8608,0.253357,0.668304,-0.210205,0.666962,11968,19480,1001,-8903,-28673
9580,10.5321,-0.497656,-0.339746,69.3512,-86.8414,72.2681,9.52148,8.17871,35.0342,0.25177,0.667023,-0.21283,0.66803,17856,26648,233,-8903,-28673
9586,10.4125,-0.631641,-0.287109,67.6648,-86.9293,73.905,7.75146,10.2539,24.4751,0.251495,0.666412,-0.213684,0.668488,23488,-31976,-1304,-8903,-28673
9592,10.3981,-0.545508,-0.14834,66.1267,-86.9623,75.3882,5.31006,12.3291,13.3057,0.251587,0.665833,-0.214264,0.668854,29632,-25320,-3096,-8903,-28673
9598,10.2211,-0.344531,-0.0430664,64.7919,-86.9403,76.6626,4.82178,14.7095,2.13623,0.252014,0.665253,-0.214478,0.669159,-29504,-18920,-5656,-8903,-28673
9604,10.1541,-0.205762,-0.0191406,63.089,-86.7755,78.2336,2.80762,15.1367,-14.0381,0.252747,0.664734,-0.214478,0.669403,-19264,-7144,-7448,-8903,-28673
9610,9.97227,0.0239258,0.114844,62.644,-86.6547,78.6072,1.58691,15.564,-19.4702,0.254883,0.663879,-0.213989,0.669617,-15424,-2024,-9240,-8903,-28673
9616,10.0153,0.181836,0.162695,62.4243,-86.5173,78.7445,0.610352,14.7095,-23.1323,0.256165,0.663513,-0.213654,0.669617,-12096,2329,-10008,-8903,-28673
9622,9.8335,0.320605,0.234473,62.4133,-86.369,78.6731,0.366211,13.4888,-26.062,0.257507,0.663208,-0.213226,0.669525,-9024,6425,-11032,-8903,-28673
9628,-52.5602,-10.7905,-12.9247,62.5781,-86.2262,78.4204,0,11.4136,-27.2827,0.258911,0.662964,-0.21283,0.669373,-6464,10265,-13080,-8903,-28673
9634,156.795,17.9778,6.36426,51.0645,-84.364,91.0822,121.704,310.791,-98.877,0.260254,0.662781,-0.207031,0.670837,-1856,14105,-16152,-8903,-28673
9640,28.3999,-13.0826,35.9844,30.4376,-83.205,111.654,-75.2563,462.708,188.416,0.261017,0.640289,-0.197388,0.694855,193,14361,-21784,-8903,-28673
9646,21.9878,-10.0967,13.5037,17.7155,-83.0237,124.316,-49.5605,156.982,262.207,0.255249,0.632904,-0.203827,0.701874,3009,14361,-31000,-8903,-28673
9652,-3.56016,-8.57022,2.69883,13.7878,-83.5126,128.364,16.2354,-68.5425,118.652,0.250488,0.634155,-0.207275,0.701447,6337,14873,25064,-8903,-28673
9658,-4.7708,-2.56006,-7.67061,16.3422,-84.4189,125.793,6.04248,-188.66,-4.5166,0.248962,0.639954,-0.209229,0.696136,11457,17177,13288,-8903,-28673
9664,14.4272,0.799121,-2.33037,37.0459,-85.7153,105.145,30.9448,-129.395,-112.671,0.248962,0.648621,-0.209198,0.688049,22721,25113,-4633,-8903,-28673
9670,3.01943,1.03359,-1.09102,41.391,-85.4022,100.898,36.1938,7.38525,-90.21,0.252869,0.654541,-0.203674,0.682678,27329,27673,-10009,-8903,-28673
9676,10.2785,1.21543,0.660352,41.9568,-85.1331,100.289,2.50244,35.2783,-44.1895,0.25473,0.653809,-0.202301,0.683075,29121,28697,-12825,-8903,-28673
9682,11.0729,-0.344531,0.325391,42.1271,-85.0177,99.9591,-21.6675,13.7329,-19.2261,0.256317,0.653259,-0.202545,0.682953,29889,28953,-14617,-8903,-28673
9688,9.41719,-1.38291,2.13418,43.1653,-85.0067,98.6517,-40.7104,-12.6343,-18.4326,0.25824,0.653229,-0.203766,0.681885,29633,28185,-16153,-8903,-28673
9694,9.24014,-0.301465,1.55039,46.7029,-85.0562,94.7021,-6.28662,-27.4048,-18.0664,0.260162,0.653656,-0.204895,0.68042,26561,26137,-17433,-8903,-28673
9700,10.1876,1.37334,0.693848,48.3673,-85.1276,92.9059,-4.45557,-31.7383,-9.82666,0.261993,0.65509,-0.206421,0.677856,24769,24857,-17689,-8903,-28673
9706,9.16836,0.76084,0.631641,49.7461,-85.2374,91.4062,-1.77002,-32.6538,0.366211,0.262299,0.655823,-0.207458,0.676697,22721,23321,-16921,-8903,-28673
9712,10.6422,0.512012,-0.411523,50.8118,-85.3528,90.2637,4.5166,-28.5034,6.04248,0.262299,0.656464,-0.208405,0.675812,21185,21529,-15641,-8903,-28673
9718,9.98662,0.363672,-0.425879,51.9983,-85.3857,88.9948,3.11279,-19.2261,-7.75146,0.262817,0.656952,-0.208862,0.674988,19905,20505,-15129,-8903,-28673
9724,10.1302,0.880469,-0.440234,54.3549,-85.2979,86.413,-5.85938,-8.54492,-22.1558,0.263763,0.657257,-0.209076,0.674225,18113,17945,-12825,-8903,-28673
9730,9.08701,1.00967,-0.105273,55.3656,-85.2374,85.2649,-10.6812,-7.93457,-20.4468,0.266296,0.657623,-0.209564,0.67276,17089,16921,-11545,-8903,-28673
9736,9.65645,1.21064,-0.0478516,55.9369,-85.2045,84.5618,-10.1929,-4.63867,-12.7563,0.267334,0.657593,-0.210022,0.672211,16065,15129,-10521,-8903,-28673
9742,9.03438,1.11494,0.392383,56.2335,-85.1825,84.1443,-11.4136,-2.68555,-7.32422,0.268219,0.657471,-0.210571,0.671814,14273,13337,-8217,-8903,-28673
9748,9.30234,1.39727,0.559863,56.272,-85.1935,83.985,-11.4746,-2.44141,0.0610352,0.26886,0.657318,-0.211304,0.671509,12481,11033,-6937,-8903,-28673
9754,9.54639,1.46904,0.526367,55.4645,-85.3143,84.6442,-3.23486,-1.70898,17.7612,0.26889,0.65683,-0.213013,0.671387,8641,6425,-4377,-8903,-28673
9760,9.34541,1.0001,0.301465,54.6954,-85.4407,85.3802,0.610352,-3.66211,27.0996,0.268311,0.656616,-0.214081,0.671509,7361,5401,-3353,-8903,-28673
9766,9.4124,0.574219,0.30625,53.6298,-85.5945,86.4294,3.72314,-4.27246,35.0342,0.267334,0.656403,-0.21521,0.671722,6081,4633,-2073,-8903,-28673
9772,9.75215,0.507227,0.248828,52.4048,-85.7703,87.6434,4.08936,-6.16455,39.6729,0.266205,0.656189,-0.216492,0.671967,4801,4377,232,-8903,-28673
9778,9.64688,0.311035,0.263184,50.9766,-85.9625,89.0717,5.06592,-7.26318,43.457,0.264862,0.656006,-0.217834,0.672241,4801,4889,3048,-8903,-28673
9784,10.0775,-0.0430664,0.330176,47.5928,-86.3525,92.4884,7.99561,-8.30078,44.1284,0.261963,0.655701,-0.220398,0.672852,5569,6937,7144,-8903,-28673
9790,10.312,-0.354102,0.253613,46.1041,-86.5283,94.0045,9.09424,-9.8877,38.8794,0.260651,0.65567,-0.221497,0.673035,6849,9497,9704,-8903,-28673
9796,10.2163,-0.425879,0.15791,44.9561,-86.6766,95.1691,10.0098,-10.6812,31.4941,0.259491,0.655731,-0.222382,0.673126,8641,12313,11496,-8903,-28673
9802,10.2354,-0.416309,0,44.2859,-86.803,95.8612,9.70459,-12.085,23.7427,0.258606,0.655914,-0.223083,0.673065,10945,15641,13544,-8903,-28673
9808,10.1493,-0.263184,-0.114844,44.165,-86.9019,95.9875,7.75146,-12.8174,15.1367,0.258026,0.656158,-0.223663,0.672852,13249,18969,15592,-8903,-28673
9814,10.1254,-0.191406,-0.062207,45,-87.0227,95.1141,3.17383,-11.2915,2.50244,0.25769,0.656677,-0.224426,0.672241,16833,24857,19176,-8903,-28673
9820,9.84785,-0.133984,-0.200977,45.8789,-87.0557,94.1913,0.610352,-11.3525,-1.40381,0.257874,0.656921,-0.224762,0.671783,18881,27673,21224,-8903,-28673
9826,9.99141,-0.0574219,-0.0526367,46.9061,-87.0721,93.1036,-1.2207,-9.64355,-5.31006,0.25824,0.657166,-0.225037,0.671326,20417,30489,22248,-8903,-28673
9832,9.97227,0,0.143555,47.9388,-87.0667,92.005,-2.13623,-7.08008,-8.17871,0.258789,0.657318,-0.225281,0.670898,22465,-32743,23272,-8903,-28673
9838,9.85264,0.153125,0.13877,49.0869,-87.0557,90.7855,-2.38037,-7.14111,-10.1318,0.25943,0.657501,-0.225494,0.67041,24001,-30951,23784,-8903,-28673
9844,9.74736,0.220117,0.0765625,51.6412,-87.0282,88.0719,-1.77002,-8.54492,-10.8643,0.260773,0.657898,-0.225983,0.669342,25793,-28647,24552,-8903,-28673
9850,9.69473,0.224902,-0.062207,52.8168,-87.0117,86.8195,-0.732422,-7.75146,-10.376,0.261414,0.658051,-0.226196,0.668823,26305,-28135,24552,-8903,-28673
9856,9.82871,0.186621,-0.114844,53.844,-86.9952,85.7153,-0.610352,-6.46973,-9.76562,0.262054,0.658203,-0.22644,0.668365,27329,-27879,24296,-8903,-28673
9862,9.86221,0.200977,-0.0957031,54.7778,-86.9733,84.7156,-0.488281,-5.00488,-10.1929,0.262695,0.658295,-0.226654,0.667938,28097,-27367,24296,-8903,-28673
9868,9.78086,0.291895,-0.090918,55.5634,-86.9458,83.8531,-0.12207,-1.70898,-9.33838,0.263336,0.658356,-0.226837,0.667572,28865,-27111,25064,-8903,-28673
9874,9.68994,0.387598,0.0143555,56.5741,-86.8854,82.7161,0.366211,0.305176,-8.60596,0.264496,0.658356,-0.227081,0.667023,29889,-27111,28904,-8903,-28673
9880,9.70908,0.449805,0.00478516,56.8488,-86.8524,82.392,0.854492,1.2207,-7.32422,0.265015,0.658295,-0.227173,0.66687,29889,-27111,30952,-8903,-28673
9886,9.7043,0.559863,0.0143555,57.0081,-86.8304,82.1887,1.09863,1.64795,-5.7373,0.265442,0.658203,-0.227264,0.666748,29633,-27623,32488,-8903,-28673
9892,9.61816,0.516797,0.153125,56.9916,-86.8195,82.1667,1.09863,1.89209,-2.44141,0.265717,0.658112,-0.227417,0.666656,28609,-28135,-30488,-8903,-28673
9898,9.65645,0.416309,0.191406,56.9037,-86.825,82.2217,1.52588,-0.854492,3.17383,0.265869,0.65802,-0.227661,0.666626,27841,-28647,-28184,-8903,-28673
9904,156.795,16.6428,-36.1997,63.3746,-86.3416,75.575,31.3721,-26.3672,-123.108,0.270172,0.659454,-0.225311,0.664246,27329,-29927,-25368,-8903,-28673
9910,46.4112,-3.4166,22.9209,45.5603,-85.9241,93.7134,8.30078,247.009,74.8291,0.268768,0.652222,-0.2229,0.672729,27585,-30183,-26904,-8903,-28673
9916,21.8203,-13.9057,24.2751,21.9012,-84.2981,116.818,-82.7026,484.619,148.926,0.272644,0.634979,-0.225128,0.686768,28097,-30183,-29720,-8903,-28673
9922,7.42178,-6.42647,20.5618,15.9631,-83.139,122.173,-71.7773,256.775,38.8794,0.277527,0.625427,-0.226746,0.693054,29633,-29671,30440,-8903,-28673
9928,-0.966602,0.133984,3.07207,19.4897,-83.0896,118.262,-54.3823,-227.722,-133.484,0.282043,0.626038,-0.226593,0.690704,31937,-29159,20712,-8903,-28673
9934,5.86182,2.61748,-5.95752,42.4731,-84.4135,93.9001,-90.8203,-271.118,-175.293,0.293396,0.640747,-0.231354,0.670624,-28223,-27623,-1049,-8903,-28673
9940,4.51719,3.23477,-5.06748,54.8712,-84.2432,81.0571,-23.7427,-169.861,-189.636,0.299469,0.646576,-0.230347,0.662628,-27711,-28391,-7193,-8903,-28673
9946,2.38301,-1.77051,-0.75127,60.5951,-83.4796,75.2563,45.2271,-24.0479,-193.176,0.305145,0.649048,-0.225433,0.659302,-30015,-30439,-7449,-8903,-28673
9952,8.35488,-0.823047,-0.0574219,60.7983,-82.7161,74.7839,5.24902,64.8193,-136.536,0.311249,0.647827,-0.222137,0.658752,31937,31769,-5913,-8903,-28673
9958,9.9292,0.957031,-1.13887,61.6113,-82.2546,73.5645,-64.8193,-15.1367,-85.3271,0.316406,0.647217,-0.221466,0.657135,26049,27161,-2073,-8903,-28673
9964,7.30693,0.942676,1.871,64.292,-81.7657,69.527,-80.0781,-37.9028,-48.5229,0.32724,0.646423,-0.225891,0.651062,10689,10265,4072,-8903,-28673
9970,10.6278,2.56006,1.32549,65.1874,-81.7657,68.0713,-50.1709,-36.0718,-15.9302,0.330444,0.646118,-0.228973,0.648682,2241,537,6632,-8903,-28673
9976,11.0441,3.19648,0.942676,65.3796,-81.8042,67.4725,-24.1089,-16.8457,1.2207,0.33252,0.645508,-0.231476,0.647339,-5952,-8936,10472,-8903,-28673
9982,10.3072,2.84717,1.1293,65.2203,-81.8481,67.3022,-13.4277,-6.46973,8.05664,0.334106,0.644714,-0.233643,0.646545,-13632,-17384,15592,-8903,-28673
9988,10.6996,1.99063,-0.0430664,65.473,-81.8207,66.7419,-7.8125,-3.54004,-34.9731,0.33606,0.644287,-0.235199,0.645386,-21568,-24808,20712,-8903,-28673
9994,9.76172,1.09102,-0.478516,66.1102,-81.4581,65.528,-7.62939,5.79834,-43.396,0.341431,0.643524,-0.236115,0.643005,31424,27416,31208,-8903,-28673
10000,8.88603,1.30635,-0.382812,66.1981,-81.2384,65.1489,-11.7798,9.94873,-43.9453,0.344391,0.642914,-0.23642,0.641907,25536,21528,-30744,-8903,-28673
10006,8.8334,1.58867,-0.0813477,66.0938,-81.0352,64.9347,-16.1743,13.5498,-39.1846,0.347351,0.64209,-0.236877,0.640961,20160,15640,-27160,-8903,-28673
10012,9.20664,2.12461,0.124414,65.8356,-80.8539,64.8798,-18.0054,16.4185,-33.2642,0.350189,0.641113,-0.237488,0.640167,14528,9752,-24344,-8903,-28673
10018,8.24482,2.0959,0.626855,64.8962,-80.6671,65.2313,-17.334,15.8691,-6.10352,0.352692,0.640045,-0.238342,0.639557,9408,4376,-22040,-8903,-28673
10024,8.52236,2.51699,0.851758,64.2371,-80.7001,65.6653,-10.0098,13.3057,12.0239,0.355652,0.637756,-0.241058,0.639191,448,-8425,-15640,-8903,-28673
10030,8.36445,2.63184,1.09102,63.4296,-80.8264,66.297,-2.92969,10.3149,32.1045,0.355865,0.636658,-0.242859,0.639465,-3393,-14569,-12568,-8903,-28673
10036,8.7042,2.51699,1.27764,62.4683,-81.0406,67.132,3.72314,7.14111,50.415,0.355286,0.63559,-0.244934,0.640076,-7233,-19433,-10008,-8903,-28673
10042,9.16357,2.08154,1.00967,61.3092,-81.3043,68.2086,10.0708,7.14111,62.9272,0.354126,0.634491,-0.247131,0.640961,-11841,-22249,-7704,-8903,-28673
10048,9.57988,1.24893,0.741699,58.3759,-81.9086,71.098,20.6909,7.93457,77.8198,0.352509,0.633392,-0.249298,0.64209,-14913,-24297,-5912,-8903,-28673
10054,10.2259,0.196191,0.234473,56.7499,-82.2272,72.724,21.4233,6.10352,78.7964,0.34848,0.631317,-0.253571,0.644653,-18753,-25577,-2328,-8903,-28673
10060,10.4651,0.0334961,0.330176,55.1129,-82.5183,74.3555,18.9819,5.31006,73.7305,0.346558,0.630371,-0.255615,0.645782,-19265,-24553,-2328,-8903,-28673
10066,10.7283,-0.110059,0.45459,53.5254,-82.7655,75.932,16.2964,5.49316,65.2466,0.34494,0.629486,-0.257477,0.64679,-18241,-23017,-3096,-8903,-28673
10072,10.513,-0.224902,0.6125,52.1191,-82.9688,77.3163,14.2212,4.57764,54.3213,0.343658,0.628693,-0.259094,0.647614,-16193,-20969,-5400,-8903,-28673
10078,10.379,-0.133984,0.62207,50.2625,-83.2599,79.0796,9.27734,-1.83105,31.25,0.342743,0.628082,-0.260498,0.648102,-13633,-17897,-7448,-8903,-28673
10084,10.1924,0.14834,0.574219,49.845,-83.3643,79.4202,7.20215,-5.43213,21.9116,0.341888,0.627411,-0.262817,0.648285,-7233,-10473,-8472,-8903,-28673
10090,10.0297,0.220117,0.655566,49.6912,-83.4521,79.4971,5.67627,-8.48389,15.5029,0.341797,0.627289,-0.263824,0.648041,-3649,-6121,-9240,-8903,-28673
10096,9.93877,0.239258,0.660352,49.801,-83.5291,79.3048,5.06592,-11.4746,9.58252,0.341888,0.627289,-0.26474,0.647614,448,-1769,-9240,-8903,-28673
10102,9.95791,0.373242,0.502441,50.1526,-83.595,78.8599,5.18799,-14.7095,4.82178,0.342072,0.627472,-0.265564,0.647034,3776,2584,-11544,-8903,-28673
10108,9.91006,0.47373,0.263184,51.3721,-83.7158,77.4426,3.17383,-18.9209,-1.15967,0.342316,0.627716,-0.266388,0.646332,6592,6168,-13080,-8903,-28673
10114,9.85742,0.535937,0.14834,52.0917,-83.7598,76.6077,0.915527,-18.3716,-3.41797,0.34314,0.628296,-0.267975,0.644623,10432,13848,-16408,-8903,-28673
10120,9.8335,0.535937,0.13877,52.8058,-83.7982,75.7727,-0.549316,-17.395,-4.27246,0.343689,0.62854,-0.268799,0.643768,11456,17432,-17944,-8903,-28673
10126,9.87178,0.583789,0.153125,53.5144,-83.8257,74.9377,-1.52588,-15.9912,-5.92041,0.34433,0.628754,-0.269562,0.642914,13248,20760,-19992,-8903,-28673
10132,9.77129,0.679492,0.177051,54.1736,-83.8422,74.1577,-1.58691,-13.855,-6.71387,0.345001,0.628906,-0.270264,0.64209,15296,24088,-21272,-8903,-28673
10138,9.68516,0.741699,0.196191,55.2722,-83.8586,72.8229,-0.488281,-9.70459,-6.65283,0.345703,0.629028,-0.270905,0.641327,17600,26136,-21528,-8903,-28673
10144,9.60381,0.894824,0.191406,55.7007,-83.8641,72.29,0,-8.72803,-4.5166,0.346954,0.62912,-0.272125,0.640045,20160,30232,-19480,-8903,-28673
10150,9.52246,0.913965,0.234473,56.0138,-83.8806,71.8726,0.671387,-7.08008,-2.50244,0.347473,0.62912,-0.272736,0.639526,21696,31256,-18456,-8903,-28673
10156,9.53203,0.899609,0.272754,56.2061,-83.9026,71.5869,1.2207,-5.85938,0.732422,0.34787,0.629028,-0.273376,0.639099,22720,31512,-17688,-8903,-28673
10162,9.72344,0.861328,0.239258,56.283,-83.9355,71.4276,2.80762,-4.82178,3.96729,0.348114,0.628937,-0.274017,0.638794,23488,31768,-18200,-8903,-28673
10168,9.62295,0.794336,0.124414,56.1017,-84.0289,71.4825,5.49316,-2.13623,9.76562,0.348267,0.628815,-0.274658,0.63858,24256,31256,-18712,-8903,-28673
10174,35.9461,25.146,0.756055,57.0959,-83.7817,70.4993,10.437,11.9019,-54.6265,0.349762,0.629028,-0.273621,0.63797,24256,31768,-17688,-8903,-28673
10180,63.8866,-3.91904,1.02881,47.6038,-84.375,80.0739,4.21143,85.8154,216.858,0.344635,0.624207,-0.278015,0.643585,23488,32280,-16152,-8903,-28673
10186,27.3855,-13.4846,14.8436,30.0366,-84.1937,97.4872,-57.251,246.338,248.169,0.341949,0.613525,-0.282379,0.65329,23488,-32232,-14104,-8903,-28673
10192,16.4466,-12.585,15.7432,21.0663,-83.8147,106.397,-4.76074,149.414,136.658,0.340485,0.6073,-0.284424,0.658966,24768,-29416,-14360,-8903,-28673
10198,1.88535,-3.27783,8.81426,32.2504,-84.6552,94.6912,-26.8555,-226.379,-112.366,0.34137,0.608032,-0.285095,0.657562,32448,-20200,-22296,-8903,-28673
10204,2.1916,2.94766,-10.379,48.6749,-85.2814,77.6184,-76.6602,-289.368,-144.714,0.34726,0.623047,-0.290894,0.637573,-27968,-14824,-25368,-8903,-28673
10210,1.99063,2.91895,-3.79941,59.0955,-85.1935,66.9067,-10.498,-133.24,-118.164,0.35025,0.627441,-0.291107,0.63147,-24128,-10984,-26392,-8903,-28673
10216,4.58896,-0.861328,-2.45479,59.425,-84.6002,66.7639,77.5757,59.1431,-102.661,0.352783,0.627716,-0.286346,0.631989,-21312,-8680,-24600,-8903,-28673
10222,11.3169,0.674707,0.339746,56.4807,-84.007,69.7412,47.9736,115.173,-69.6411,0.356018,0.625519,-0.282623,0.634033,-21056,-7656,-20248,-8903,-28673
10228,10.6422,-0.205762,1.18193,56.261,-83.3807,69.3567,-41.9922,3.41797,-47.6074,0.359283,0.624084,-0.280823,0.634399,-24128,-10728,-11288,-8903,-28673
10234,5.68955,0.287109,1.00488,57.7936,-83.4302,67.3737,-38.3911,-41.626,-15.2588,0.365356,0.62326,-0.284668,0.630005,-26432,-14056,-7960,-8903,-28673
10240,8.03906,2.49785,0.133984,58.5791,-83.7048,66.3739,6.71387,-45.4102,34.9121,0.36496,0.623474,-0.287476,0.628754,-28992,-17640,-6680,-8903,-28673
10246,11.2451,3.16777,0.263184,57.6892,-84.0729,67.1539,17.5781,-23.3765,72.3877,0.363281,0.622894,-0.290466,0.628906,-31296,-21480,-4376,-8903,-28673
10252,10.9245,2.49785,0.382812,55.481,-84.4519,69.2798,13.7939,-4.82178,87.0972,0.361328,0.621674,-0.293427,0.629883,31936,-24808,-3352,-8903,-28673
10258,11.3839,1.94756,0.406738,51.828,-84.9792,72.8284,10.0098,-4.27246,46.1426,0.359467,0.620575,-0.29599,0.630829,28864,-28392,-280,-8903,-28673
10264,10.4556,1.33506,-0.186621,51.394,-85.0397,73.2294,9.64355,-1.09863,14.1602,0.358215,0.619751,-0.298187,0.631317,28864,-28648,1769,-8903,-28673
10270,9.04395,0.756055,0.0669922,51.3391,-85.0452,73.2568,8.91113,0.732422,1.40381,0.358337,0.619659,-0.29837,0.631256,28608,-28136,3817,-8903,-28673
10276,8.85254,0.492871,-0.0861328,51.1963,-85.0616,73.3667,6.95801,0.549316,3.90625,0.358398,0.619507,-0.298615,0.631226,29376,-27624,4841,-8903,-28673
10282,9.87656,0.91875,-0.29668,50.8722,-85.0891,73.6743,7.50732,1.58691,7.8125,0.358337,0.619324,-0.29895,0.631317,30400,-26600,5097,-8903,-28673
10288,9.32148,0.818262,0.387598,49.4604,-85.177,75.0256,0.915527,2.99072,17.334,0.358185,0.618988,-0.299347,0.631531,31936,-24296,4329,-8903,-28673
10294,10.0249,0.937891,0.416309,48.7024,-85.2594,75.7672,3.90625,-0.12207,20.3247,0.357513,0.618286,-0.300659,0.631989,-32320,-22760,2793,-8903,-28673
10300,9.69951,0.813477,0.258398,47.8345,-85.3583,76.6406,7.93457,-2.01416,25.0244,0.356781,0.618042,-0.301331,0.632294,-30784,-20712,2281,-8903,-28673
10306,9.77129,0.224902,0.0478516,46.7908,-85.4736,77.6953,8.97217,-2.80762,29.2969,0.355865,0.617828,-0.302094,0.63269,-29248,-18408,1001,-8903,-28673
10312,10.0536,-0.110059,-0.0239258,45.7306,-85.5945,78.783,9.52148,-3.2959,29.1748,0.354919,0.617615,-0.302826,0.633057,-27200,-16104,-536,-8903,-28673
10318,10.1445,-0.13877,-0.13877,44.0057,-85.7703,80.5243,4.5166,-2.56348,19.043,0.354126,0.617401,-0.303467,0.633392,-23104,-11240,-4376,-8903,-28673
10324,9.97705,-0.0574219,0.0861328,43.5223,-85.8307,80.9912,0.793457,-3.35693,13.6719,0.353241,0.617126,-0.304565,0.633636,-20544,-8168,-6168,-8903,-28673
10330,10.1397,0,0.100488,43.2477,-85.8801,81.2494,0.12207,-3.35693,9.27734,0.353027,0.617065,-0.304993,0.633606,-17728,-5352,-6936,-8903,-28673
10336,10.1589,-0.162695,0.205762,43.1488,-85.9076,81.3208,0,-2.68555,4.88281,0.352997,0.617035,-0.305298,0.633514,-14656,-2280,-5912,-8903,-28673
10342,10.111,-0.0143555,0.119629,43.4235,-85.9186,81.0132,0,-3.72314,-1.52588,0.353119,0.617096,-0.305481,0.633301,-12096,25,-3608,-8903,-28673
10348,9.86699,0.110059,0.105273,44.7858,-85.8911,79.574,-0.610352,-4.3335,-10.9253,0.353455,0.617218,-0.305573,0.632935,-8000,4121,-280,-8903,-28673
10354,9.7665,0.349316,0.196191,45.6757,-85.8691,78.6456,-0.732422,-4.57764,-13.4277,0.354401,0.617615,-0.305511,0.63205,-6208,5913,745,-8903,-28673
10360,9.8,0.401953,0.200977,46.6095,-85.8362,77.6569,-1.40381,-5.37109,-13.9771,0.35495,0.617828,-0.305511,0.631561,-5440,7449,1001,-8903,-28673
10366,9.64688,0.435449,0.14834,47.5653,-85.8142,76.6571,-0.183105,-6.16455,-13.7939,0.355469,0.618073,-0.305511,0.631042,-3904,8729,-280,-8903,-28673
10372,9.7043,0.401953,0.129199,48.5486,-85.7922,75.6299,-0.0610352,-7.32422,-13.2446,0.355957,0.618347,-0.305511,0.630493,-2624,10009,-536,-8903,-28673
10378,9.74258,0.488086,0.0239258,50.4877,-85.7648,73.5864,0.12207,-8.17871,-11.5356,0.356415,0.618622,-0.305573,0.629883,-832,12057,745,-8903,-28673
10384,9.56074,0.555078,0.062207,51.3336,-85.7538,72.702,0.183105,-7.75146,-10.1318,0.357239,0.619141,-0.305786,0.628845,-64,12825,2281,-8903,-28673
10390,9.56074,0.645996,0.0334961,52.0367,-85.7483,71.9495,0.427246,-7.14111,-7.62939,0.357544,0.619324,-0.305939,0.628387,-576,14361,2025,-8903,-28673
10396,9.60381,0.717773,-0.0334961,52.6135,-85.7538,71.3397,1.70898,-6.53076,-5.06592,0.357758,0.619507,-0.306091,0.628021,-1088,15129,3561,-8903,-28673
10402,9.57031,0.631641,-0.00957031,52.9486,-85.7703,70.9827,2.92969,-4.76074,-1.2207,0.357819,0.619629,-0.306274,0.627808,-1088,15641,6377,-8903,-28673
10408,9.63252,0.631641,-0.0765625,52.8497,-85.8197,71.0815,6.22559,0.244141,5.98145,0.357727,0.619659,-0.306458,0.627716,-1344,15385,9961,-8903,-28673
10414,9.7665,0.521582,-0.186621,52.4268,-85.8472,71.5265,7.08008,2.74658,8.11768,0.357208,0.619537,-0.306702,0.628021,-1344,15129,10985,-8903,-28673
10420,9.7665,0.502441,-0.172266,51.85,-85.8746,72.1307,7.14111,4.63867,9.46045,0.356842,0.619385,-0.306763,0.628326,-1344,14361,10985,-8903,-28673
10426,9.76172,0.421094,-0.114844,51.1359,-85.8966,72.8833,6.65283,6.5918,10.0708,0.356445,0.619202,-0.306763,0.628754,-1600,13849,11497,-8903,-28673
10432,9.94834,0.291895,-0.14834,50.2899,-85.9131,73.7677,6.5918,8.91113,10.0708,0.356049,0.618958,-0.306702,0.629211,-1856,13081,12009,-8903,-28673
10438,9.97705,0.31582,-0.0669922,48.5046,-85.9076,75.6519,4.82178,12.146,7.08008,0.355377,0.618439,-0.306335,0.63028,-1344,11289,13033,-8903,-28673
10444,9.85742,0.325391,0.0191406,47.6587,-85.8911,76.5472,4.39453,12.6953,5.67627,0.355103,0.618195,-0.30603,0.630829,-832,10777,11497,-8903,-28673
10450,9.79521,0.30625,0.0861328,46.8457,-85.8691,77.4152,3.78418,13.6108,4.27246,0.354858,0.61795,-0.305695,0.631378,-64,10521,9449,-8903,-28673
10456,-156.79,-7.05332,28.0841,46.1151,-85.8362,78.2007,2.68555,13.5498,2.80762,0.354645,0.617706,-0.305298,0.631897,193,10521,7145,-8903,-28673
10462,86.841,16.9155,-62.7047,51.1688,-85.4736,73.1305,33.6304,-29.6021,-90.7593,0.357422,0.619385,-0.302643,0.630005,449,10777,4329,-8911,-28672
10468,35.5776,-8.1874,44.8561,13.1561,-84.2432,111.693,-59.7534,310.669,221.069,0.350037,0.59906,-0.303741,0.652832,1217,13593,-2840,-8911,-28672
10474,3.07207,-7.84287,19.6479,10.5524,-83.9905,114.186,12.146,56.2134,43.335,0.350311,0.596497,-0.304504,0.654724,3521,16665,-9240,-8911,-28672
10480,1.91406,-2.79932,4.40713,18.067,-84.9792,106.43,-5.49316,-236.572,-90.8813,0.351074,0.603607,-0.306702,0.646729,6849,21017,-15896,-8911,-28672
10486,10.4843,5.66563,-11.915,39.6057,-86.2921,84.2981,-69.2139,-396.301,-165.283,0.353424,0.615021,-0.311096,0.632416,11201,26649,-22040,-8911,-28672
10492,-0.899609,6.82842,-17.4897,64.2261,-86.5778,58.7933,-130.676,-289.429,-147.461,0.358154,0.622192,-0.31601,0.620178,15553,32025,-24856,-8911,-28672
10498,1.19629,2.30645,2.72754,73.2239,-85.4846,49.4714,41.3818,82.0923,-123.23,0.365967,0.625763,-0.311493,0.614288,18113,-26855,-16408,-8911,-28672
10504,14.365,0.220117,0.689063,65.6158,-84.8584,57.1234,44.7998,161.56,-71.3501,0.370056,0.622345,-0.306793,0.617645,16321,-26855,-7704,-8911,-28672
10510,10.1637,1.71309,2.1916,61.441,-84.4684,61.3202,43.5791,102.6,-34.2407,0.372345,0.620026,-0.304108,0.619965,13249,-29159,-536,-8911,-28672
10516,6.35469,0.60293,4.52676,60.3479,-84.3311,62.1112,-23.0713,24.5361,-14.7705,0.374817,0.6185,-0.304932,0.619568,9921,-31975,5865,-8911,-28672
10522,6.18721,1.41162,1.1915,61.9684,-84.5398,60.0952,-38.4521,-56.8237,18.8599,0.375671,0.618469,-0.30835,0.617371,6849,29465,9449,-8911,-28672
10528,10.0584,4.08652,-1.43076,63.3527,-85.3198,58.5736,28.4424,-31.6162,79.2236,0.371643,0.618927,-0.314026,0.616516,193,20249,11753,-8911,-28672
10534,10.4269,0.91875,0.775195,61.04,-85.6989,60.8752,17.0898,-5.85938,85.3271,0.369476,0.617798,-0.316467,0.617706,-2880,17945,12265,-8911,-28672
10540,10.8862,-1.69395,-0.090918,58.9691,-86.0065,62.9242,12.6953,-7.44629,69.519,0.367737,0.616882,-0.318542,0.618561,-4928,16921,12777,-8911,-28672
10546,10.9484,-0.971387,-1.13408,57.7386,-86.2372,64.1107,12.146,-12.5122,48.645,0.366547,0.616364,-0.320221,0.618927,-5184,17177,14057,-8911,-28672
10552,10.5273,0.0382813,-1.21543,57.0685,-86.3525,64.704,5.18799,-7.38525,23.8647,0.366272,0.615936,-0.321381,0.618927,-5184,17945,14057,-8911,-28672
10558,8.82861,0.196191,-0.133984,55.1733,-86.4349,66.3794,-4.02832,4.45557,12.4512,0.366882,0.614655,-0.32312,0.618927,-3136,22297,15081,-8911,-28672
10564,9.85264,0.449805,0.16748,54.0747,-86.4734,67.3682,-3.2959,4.63867,13.6108,0.367188,0.613953,-0.323975,0.618988,-2112,24857,15849,-8911,-28672
10570,9.52725,0.0813477,0.358887,53.0475,-86.5173,68.302,-2.92969,2.86865,14.4043,0.367371,0.613342,-0.324799,0.619049,-832,27929,17129,-8911,-28672
10576,10.2642,0.062207,0,52.2125,-86.5723,69.0601,-0.610352,-0.488281,14.7705,0.367462,0.612854,-0.325653,0.619049,705,30489,17897,-8903,-28673
10582,10.0775,0.0957031,0.00957031,51.5973,-86.6272,69.5984,0.488281,-3.66211,11.0474,0.367493,0.612488,-0.326416,0.618988,2241,-32487,19177,-8903,-28673
10588,9.75693,-0.0478516,0.0334961,50.9161,-86.7261,70.1367,1.28174,-5.12695,8.60596,0.367615,0.611969,-0.32782,0.618713,5569,-28903,20201,-8903,-28673
10594,9.86221,-0.0669922,-0.119629,50.8832,-86.759,70.1038,1.64795,-5.12695,5.12695,0.367767,0.611786,-0.3284,0.618469,7361,-27111,20969,-8903,-28673
10600,9.99619,0.0239258,-0.162695,51.004,-86.7865,69.9115,1.2207,-5.12695,2.44141,0.367981,0.611664,-0.328888,0.618195,8641,-25831,21737,-8903,-28673
10606,9.71865,0.0765625,-0.124414,51.2457,-86.803,69.5984,0.488281,-5.43213,0.732422,0.368286,0.611572,-0.329407,0.617859,10177,-24039,24041,-8903,-28673
10612,10.068,0.0334961,-0.16748,51.5204,-86.8195,69.2523,-0.183105,-4.88281,-2.01416,0.368591,0.611481,-0.329865,0.617523,11457,-22759,26857,-8903,-28673
10618,9.71387,-0.119629,-0.062207,52.4377,-86.825,68.1812,-1.09863,-5.18799,-4.94385,0.369415,0.611328,-0.330688,0.616699,15297,-20967,-32535,-8903,-28673
10624,9.85742,0.0574219,-0.0669922,53.2617,-86.8085,67.2693,-1.58691,-5.79834,-9.21631,0.370026,0.611359,-0.330994,0.61615,17345,-20455,-29463,-8903,-28673
10630,10.0153,0.090918,-0.153125,54.234,-86.7865,66.2036,-2.62451,-6.46973,-11.4136,0.370728,0.611389,-0.331299,0.61554,18881,-19175,-27671,-8903,-28673
10636,9.99141,0.267969,-0.143555,55.4041,-86.7535,64.9292,-3.60107,-7.50732,-14.2212,0.371521,0.611481,-0.331604,0.614807,19905,-18151,-26647,-8903,-28673
10642,9.77129,0.330176,-0.0861328,56.6565,-86.7151,63.5779,-5.12695,-8.66699,-15.0757,0.372314,0.611603,-0.331909,0.614044,19649,-17383,-25879,-8903,-28673
10648,9.56074,0.30625,-0.15791,59.0076,-86.6492,61.0126,-5.31006,-8.17871,-13.3667,0.373901,0.611786,-0.332581,0.612518,18881,-17639,-24087,-8903,-28673
10654,9.73301,0.334961,-0.263184,60.0238,-86.6162,59.903,-4.94385,-7.62939,-12.5122,0.374603,0.611877,-0.332886,0.611847,17857,-17639,-21783,-8903,-28673
10660,9.66602,0.449805,-0.267969,60.9082,-86.5887,58.9307,-4.08936,-6.65283,-11.1694,0.375214,0.611969,-0.333191,0.611237,17089,-17895,-19735,-8903,-28673
10666,9.60381,0.545508,-0.368457,61.6168,-86.5668,58.1561,-3.479,-5.31006,-9.27734,0.375702,0.612,-0.333435,0.610718,15809,-17895,-17175,-8903,-28673
10672,9.55117,0.397168,-0.272754,62.0398,-86.5503,57.6837,-0.244141,0.183105,-4.15039,0.376068,0.61203,-0.333557,0.610413,15041,-17639,-14871,-8903,-28673
10678,9.66602,0.46416,-0.301465,62.0508,-86.5283,57.6562,1.52588,2.99072,-2.2583,0.376282,0.612,-0.333496,0.610352,14273,-18663,-10519,-8903,-28673
10684,9.63731,0.397168,-0.272754,61.6827,-86.5173,58.0573,2.19727,5.49316,-0.12207,0.37616,0.611938,-0.333282,0.610596,14017,-18919,-7703,-8903,-28673
10690,9.6708,0.382812,-0.239258,61.0785,-86.5118,58.7164,3.78418,8.17871,1.58691,0.375916,0.611877,-0.332916,0.610992,13505,-19431,-6423,-8903,-28673
10696,9.69951,0.401953,-0.162695,60.1996,-86.5009,59.6832,5.61523,11.5356,2.99072,0.375549,0.611786,-0.332428,0.611603,12481,-19687,-4631,-8911,-28672
10702,9.71387,0.421094,-0.215332,59.1064,-86.4954,60.8807,8.72803,15.8691,5.85938,0.375031,0.611694,-0.331787,0.612366,11713,-20455,-2839,-8911,-28672
10708,9.77129,0.229688,-0.153125,56.5411,-86.4734,63.7262,8.42285,16.2354,7.20215,0.373627,0.611511,-0.330231,0.614227,10945,-20199,-1559,-8911,-28672
10714,9.99619,0.229688,-0.196191,55.2283,-86.4624,65.1874,7.62939,16.1743,7.38525,0.372833,0.61145,-0.329376,0.615234,10689,-19943,-2071,-8911,-28672
10720,9.97227,0.220117,-0.153125,53.9758,-86.4459,66.6046,7.01904,16.2964,6.40869,0.371979,0.61142,-0.328461,0.616241,10689,-19687,-2839,-8911,-28672
10726,9.9627,0.090918,-0.062207,52.7893,-86.424,67.9614,6.10352,16.4795,5.06592,0.371155,0.61145,-0.327454,0.617279,10945,-19943,-3351,-8911,-28672
10732,9.95312,-0.0239258,-0.0287109,51.026,-86.3525,70.0763,3.60107,14.2822,-0.366211,0.370361,0.611542,-0.326385,0.618256,11969,-19943,-3607,-8911,-28672
10738,10.001,0.0813477,-0.00478516,50.5371,-86.2976,70.7465,2.99072,13.4277,-4.21143,0.368927,0.611938,-0.324005,0.619934,14273,-19431,-6423,-8911,-28672
10744,9.87178,0.0191406,0,50.2295,-86.2372,71.2299,2.31934,12.6953,-6.89697,0.368286,0.612244,-0.322662,0.620697,15297,-18663,-8215,-8911,-28672
10750,10.0105,0.110059,-0.0287109,50.1416,-86.1658,71.5045,1.52588,11.7798,-10.0098,0.367676,0.61264,-0.321259,0.621399,16321,-18407,-9495,-8911,-28672
10756,9.92441,0.172266,-0.00478516,50.1526,-86.0889,71.6803,0.915527,11.9019,-12.3291,0.367126,0.613068,-0.319763,0.62207,16833,-18151,-11031,-8911,-28672
10762,9.86221,0.239258,0.0574219,50.4437,-85.9131,71.7792,0.610352,11.7798,-15.3809,0.366638,0.613556,-0.318176,0.622711,17089,-18407,-12311,-8911,-28672
10768,9.84307,0.354102,0.129199,50.6305,-85.8142,71.7957,1.70898,12.0239,-16.2964,0.36557,0.614563,-0.31488,0.624023,16833,-19175,-13847,-8911,-28672
10774,9.75215,0.430664,0.13877,50.8008,-85.7208,71.8451,3.54004,12.5732,-16.5405,0.36499,0.615082,-0.31311,0.624725,16321,-20455,-14615,-8911,-28672
10780,9.71865,0.497656,-0.0478516,50.9711,-85.6219,71.889,4.3335,12.3901,-16.4795,0.36438,0.615631,-0.31131,0.625427,15553,-21479,-16407,-8911,-28672
10786,9.68516,0.401953,0.14834,51.1194,-85.5341,71.9659,4.21143,11.6577,-15.0146,0.363678,0.616211,-0.30954,0.62616,14785,-22503,-18967,-8911,-28672
10792,9.70908,0.46416,-0.200977,51.3007,-85.3693,72.2351,3.11279,11.3525,-13.2446,0.363007,0.61673,-0.307861,0.626892,13761,-24039,-20759,-8911,-28672
10798,9.59424,0.655566,0.330176,51.2402,-85.2924,72.5262,-1.58691,12.5732,-11.2305,0.36142,0.617767,-0.304382,0.628479,11969,-27111,-26647,-8911,-28672
10804,9.58945,0.75127,0.492871,51.0919,-85.2209,72.9163,1.28174,13.0005,-8.97217,0.360474,0.618225,-0.302643,0.629395,11457,-29159,-29463,-8911,-28672
10810,9.60859,0.684277,0.344531,50.8997,-85.1715,73.3557,2.92969,11.5967,-5.85938,0.359436,0.618713,-0.301025,0.63031,10945,-31463,-32535,-8911,-28672
10816,9.67559,0.478516,0.129199,50.6525,-85.1331,73.8556,4.88281,10.0708,-2.19727,0.358246,0.619171,-0.299469,0.631256,10177,32281,29673,-8911,-28672
10822,9.60381,0.387598,0.133984,50.1251,-85.0891,74.8883,5.18799,7.99561,0.732422,0.356964,0.619659,-0.297974,0.632202,9665,30745,25833,-8911,-28672
10828,9.83828,0.516797,0.354102,49.9329,-85.0781,75.3278,4.5166,6.65283,0.549316,0.35434,0.620697,-0.295105,0.634033,7361,28441,17897,-8911,-28672
10834,9.77129,0.507227,0.31582,49.801,-85.0726,75.7013,4.57764,4.82178,0.976562,0.352997,0.621216,-0.293762,0.634857,6593,27417,14569,-8911,-28672
10840,9.78086,0.497656,0.287109,49.7461,-85.0726,75.9979,4.94385,2.50244,1.58691,0.351654,0.621826,-0.29248,0.63562,5569,26393,12265,-8911,-28672
10846,9.76172,0.483301,0.200977,49.7845,-85.0836,76.1957,4.63867,0.366211,1.64795,0.350281,0.622467,-0.29126,0.636322,4545,25625,10217,-8911,-28672
10852,9.7665,0.497656,0.16748,49.8834,-85.1221,76.5637,4.69971,-1.0376,2.99072,0.348907,0.623108,-0.2901,0.636963,3777,24857,8425,-8911,-28672
10858,9.6708,0.435449,0.105273,49.8999,-85.144,76.778,4.88281,-1.09863,3.84521,0.346069,0.62439,-0.287811,0.638306,2497,23833,4585,-8911,-28672
10864,9.17314,0.220117,-0.0813477,49.9054,-85.166,77.0087,4.57764,-1.2207,4.21143,0.344635,0.625,-0.286682,0.638977,2241,23321,2793,-8911,-28672
10870,10.2211,0.421094,0.0574219,49.8834,-85.1935,77.2504,3.2959,-1.40381,4.94385,0.343201,0.62561,-0.285645,0.639618,2241,23065,1769,-8911,-28672
10876,9.91963,0.16748,-0.14834,49.823,-85.2319,77.536,1.95312,-1.70898,6.28662,0.341766,0.62619,-0.284637,0.640289,2241,22041,2025,-8911,-28672
10882,9.76172,0.0861328,0.244043,49.8999,-85.2594,77.8711,-0.549316,-0.610352,0.366211,0.340454,0.62674,-0.28363,0.640869,2241,20249,3049,-8911,-28672
10888,9.94355,0.0382813,0.0813477,50.1141,-85.2539,77.8711,0.244141,-0.244141,-2.80762,0.338165,0.627899,-0.281372,0.641937,2497,19481,3817,-8911,-28672
10894,10.0393,0,0.0143555,50.4492,-85.2374,77.7283,-0.793457,-0.0610352,-6.5918,0.337189,0.62854,-0.280121,0.642395,1985,18969,3817,-8911,-28672
10900,10.044,0.13877,0.0334961,50.9271,-85.199,77.4426,-2.2583,0.366211,-10.9863,0.336426,0.629181,-0.278809,0.642731,1217,18457,4073,-8911,-28672
10906,9.92441,0.29668,0.172266,51.4819,-85.144,77.0691,-3.05176,1.34277,-14.7705,0.335785,0.629822,-0.277374,0.643066,449,18713,3561,-8911,-28672
10912,9.87178,0.397168,0.224902,52.7783,-85.0012,76.1298,-2.74658,1.64795,-18.8599,0.335236,0.630463,-0.275909,0.643341,-1344,18713,3561,-8911,-28672
10918,9.78086,0.574219,0.31582,53.4814,-84.9298,75.6079,-1.89209,0.793457,-19.5923,0.33429,0.631805,-0.272919,0.643799,-1600,18201,3049,-8911,-28672
10924,9.73779,0.559863,0.258398,54.1681,-84.8584,75.0916,-1.0376,-0.183105,-18.4937,0.333771,0.632507,-0.271454,0.644012,-2112,17945,2537,-8911,-28672
10930,9.68516,0.62207,0.220117,54.8492,-84.798,74.5807,-0.305176,-1.0376,-17.7002,0.333221,0.633209,-0.27005,0.644196,-2368,17177,1001,-8911,-28672
10936,9.58467,0.665137,0.186621,55.5029,-84.743,74.1083,0.488281,-1.46484,-16.4795,0.332642,0.633911,-0.268677,0.644379,-3648,16921,-1304,-8911,-28672
10942,9.61816,0.727344,0.162695,56.6071,-84.6497,73.3612,1.52588,-1.77002,-12.5732,0.332001,0.634583,-0.267334,0.644592,-6464,16153,-6424,-8911,-28672
10948,9.71865,0.717773,0.143555,57.0465,-84.6222,73.103,1.95312,-1.64795,-9.94873,0.330475,0.635895,-0.264801,0.645142,-8768,15385,-8216,-8903,-28673
10954,9.64209,0.655566,0.0765625,57.42,-84.6002,72.9108,2.13623,-1.58691,-7.99561,0.32959,0.636505,-0.263611,0.645477,-11328,14105,-10264,-8903,-28673
10960,9.7043,0.669922,0.0382813,57.7277,-84.5837,72.7899,2.38037,-1.0376,-6.40869,0.328705,0.637085,-0.262451,0.645844,-13120,12313,-11800,-8903,-28673
10966,9.7043,0.660352,0.0574219,57.9803,-84.5673,72.713,1.64795,-0.610352,-5.49316,0.327789,0.637634,-0.261322,0.64621,-14400,10009,-12824,-8903,-28673
10972,9.68037,0.540723,-0.186621,58.2825,-84.5453,72.7789,0.244141,0.488281,-2.80762,0.326813,0.638123,-0.260223,0.646637,-15424,6169,-13336,-8903,-28673
10978,9.70908,0.856543,0.282324,58.3374,-84.5398,72.8998,-0.671387,1.64795,-2.13623,0.324921,0.639038,-0.258118,0.647552,-16192,4377,-12056,-8903,-28673
10984,9.82871,0.636426,0.0717773,58.3374,-84.5398,73.0811,0.976562,1.52588,0.12207,0.323853,0.639435,-0.257111,0.648071,-16960,2585,-11032,-8903,-28673
10990,9.72822,0.468945,0.0382813,58.3044,-84.5508,73.3008,0.671387,1.40381,1.52588,0.322754,0.639832,-0.256134,0.648621,-18496,1049,-10520,-8903,-28673
10996,9.79521,0.45459,0.00957031,58.266,-84.5563,73.5205,-0.183105,1.52588,1.52588,0.321686,0.640228,-0.255157,0.649139,-20032,-488,-10264,-8903,-28673
11002,9.86699,0.550293,0.0430664,58.1506,-84.5508,73.9929,-0.915527,3.41797,-0.366211,0.320679,0.640594,-0.254181,0.649658,-22080,-4328,-11032,-8903,-28673
11008,9.78086,0.545508,0.172266,58.0518,-84.5453,74.2731,-1.52588,4.15039,-0.610352,0.318695,0.641296,-0.252106,0.650787,-23360,-5864,-11544,-8903,-28673
11014,9.84785,0.512012,0.162695,57.9584,-84.5343,74.5422,-1.95312,4.15039,-1.0376,0.317749,0.641602,-0.251068,0.651337,-23872,-6888,-11800,-8903,-28673
11020,9.8335,0.535937,0.196191,57.9089,-84.5233,74.7675,-2.2583,3.41797,-1.40381,0.316833,0.641937,-0.250031,0.651825,-24640,-7400,-11288,-8903,-28673
11026,9.77607,0.583789,0.177051,57.8925,-84.5123,74.9542,-2.38037,2.80762,-1.77002,0.315918,0.642303,-0.249023,0.652344,-25152,-8168,-10008,-8903,-28673
11032,9.78564,0.598145,0.186621,57.9364,-84.4904,75.2454,-2.80762,2.0752,-2.44141,0.315033,0.64267,-0.247986,0.652802,-25920,-8936,-7192,-8903,-28673
11038,9.73301,0.641211,0.287109,57.9913,-84.4794,75.3607,-2.50244,1.64795,-2.50244,0.313232,0.643402,-0.245972,0.653687,-25920,-9960,-5912,-8903,-28673
11044,9.6708,0.660352,0.263184,58.0463,-84.4739,75.4761,-1.28174,1.2207,-1.83105,0.312317,0.643799,-0.244965,0.654114,-25920,-10216,-4376,-8903,-28673
11050,9.70908,0.655566,0.200977,58.0847,-84.4739,75.6079,-0.244141,0.854492,-0.549316,0.31131,0.644196,-0.243988,0.654572,-26176,-10472,-4376,-8903,-28673
11056,9.73779,0.669922,0.210547,58.1177,-84.4794,75.7562,0,0.549316,0.305176,0.310272,0.644592,-0.243011,0.655029,-26432,-10984,-5144,-8903,-28673
11062,9.73301,0.655566,0.210547,58.1396,-84.5013,76.0803,0.549316,-0.12207,2.13623,0.309235,0.644989,-0.242096,0.655487,-26176,-13288,-7448,-8903,-28673
11068,9.77607,0.559863,0.191406,58.1396,-84.5178,76.2561,0.549316,-0.366211,2.86865,0.307007,0.645782,-0.240295,0.656403,-25664,-14056,-8472,-8903,-28673
11074,9.80479,0.569434,0.14834,58.1451,-84.5398,76.4319,0.610352,-0.427246,2.99072,0.305908,0.646149,-0.23941,0.65686,-24896,-15336,-8984,-8903,-28673
11080,9.81436,0.531152,0.119629,58.1451,-84.5563,76.6022,0.488281,-0.488281,2.92969,0.304779,0.646545,-0.238525,0.657318,-24128,-16104,-8728,-8903,-28673
11086,9.76172,0.545508,0.15791,58.1671,-84.5728,76.7615,0.427246,-0.549316,2.50244,0.30368,0.646942,-0.23764,0.657745,-23616,-16360,-8472,-8903,-28673
11092,9.78086,0.545508,0.16748,58.2111,-84.6002,77.0581,0,-0.427246,1.83105,0.302612,0.647339,-0.236755,0.658203,-23104,-15592,-5912,-8903,-28673
11098,9.75215,0.559863,0.186621,58.244,-84.6167,77.1954,0.0610352,-0.610352,1.95312,0.300476,0.648102,-0.234985,0.659027,-23360,-15080,-5912,-8903,-28673
11104,9.77607,0.579004,0.186621,58.2825,-84.6277,77.3273,-0.0610352,-0.732422,1.95312,0.299438,0.648499,-0.234131,0.659454,-23360,-14568,-4888,-8903,-28673
11110,9.78564,0.598145,0.143555,58.3374,-84.6442,77.4371,0.12207,-1.34277,2.19727,0.29837,0.648895,-0.233276,0.659851,-23616,-14056,-4120,-8903,-28673
11116,9.75215,0.559863,0.181836,58.4088,-84.6661,77.536,0.183105,-1.52588,2.13623,0.297272,0.649292,-0.232391,0.660217,-24128,-13288,-2840,-8903,-28673
11122,9.69951,0.598145,0.215332,58.5516,-84.7046,77.7338,0.732422,-2.19727,2.80762,0.296204,0.649689,-0.231567,0.660614,-25664,-12008,-5144,-8903,-28673
11128,9.83828,0.555078,0.119629,58.6176,-84.7321,77.8381,0.610352,-2.19727,3.41797,0.293976,0.650513,-0.229919,0.661377,-25152,-12264,-7192,-8903,-28673
11134,9.78564,0.545508,0.105273,58.7,-84.754,77.9205,0.427246,-2.38037,3.11279,0.292877,0.65094,-0.229095,0.661743,-25152,-12008,-9496,-8903,-28673
11140,9.77607,0.555078,0.105273,58.7878,-84.776,77.9974,0.0610352,-2.44141,2.92969,0.291809,0.651337,-0.228302,0.662079,-24640,-11752,-10776,-8903,-28673
11146,9.81914,0.574219,0.100488,58.8757,-84.798,78.0798,0,-2.13623,2.62451,0.29071,0.651764,-0.227478,0.662445,-24384,-11752,-11544,-8903,-28673
11152,9.85742,0.564648,0.129199,58.9526,-84.8309,78.3325,0.12207,-0.854492,2.50244,0.289642,0.65213,-0.226624,0.662842,-23360,-10728,-11288,-8903,-28673
11158,9.74736,0.47373,0.114844,58.9691,-84.8474,78.4863,0.366211,-0.488281,2.44141,0.287537,0.652863,-0.224915,0.663635,-23104,-10728,-10776,-8903,-28673
11164,9.85264,0.478516,0.062207,58.9636,-84.8584,78.6566,0.183105,0,2.2583,0.286499,0.653198,-0.22406,0.664032,-22592,-10472,-11032,-8911,-28672
11170,9.85264,0.478516,0.0861328,58.9581,-84.8694,78.8324,0.366211,0.610352,1.40381,0.285461,0.653534,-0.223145,0.664459,-22592,-10216,-10008,-8911,-28672
11176,9.78564,0.540723,0.0669922,58.9142,-84.8749,79.0466,0.244141,1.64795,0.976562,0.284485,0.653839,-0.222229,0.664886,-23104,-9960,-11288,-8911,-28672
11182,9.76172,0.521582,0.090918,58.7164,-84.8749,79.5795,0.488281,3.11279,1.0376,0.282471,0.654388,-0.220337,0.665833,-23872,-9192,-12312,-8911,-28672
11188,9.83828,0.502441,0.0957031,58.5626,-84.8694,79.9036,0.488281,4.08936,0.854492,0.281464,0.654633,-0.21933,0.666351,-24128,-9704,-11544,-8911,-28672
11194,9.85742,0.430664,0.0478516,58.3813,-84.8639,80.2606,0.305176,5.00488,0.366211,0.280487,0.654846,-0.218323,0.66687,-24128,-10216,-11544,-8911,-28672
11200,9.73779,0.507227,0.143555,58.1891,-84.8529,80.6232,0.183105,5.5542,-0.183105,0.279541,0.65506,-0.217285,0.667419,-23616,-9960,-11800,-8911,-28672
11206,9.69951,0.626855,0.253613,57.9694,-84.8364,81.0132,-0.488281,6.46973,-0.732422,0.278595,0.655243,-0.216217,0.667969,-22848,-9960,-12824,-8911,-28672
11212,9.79521,0.579004,0.210547,57.5244,-84.809,81.8042,0.366211,5.92041,0.488281,0.276672,0.655609,-0.214111,0.669067,-22080,-9704,-14104,-8911,-28672
11218,9.76172,0.507227,0.205762,57.3267,-84.8035,82.1832,0.427246,5.43213,0.549316,0.275696,0.655823,-0.213104,0.669617,-21824,-9704,-14360,-8911,-28672
11224,9.79043,0.526367,0.186621,57.1344,-84.7925,82.5513,0.305176,5.31006,0.427246,0.274689,0.656006,-0.212067,0.670135,-21824,-9704,-13848,-8911,-28672
11230,9.76172,0.516797,0.215332,56.9476,-84.787,82.9083,0.488281,5.31006,0.305176,0.273712,0.656219,-0.211029,0.670685,-21312,-9192,-15128,-8911,-28672
11236,9.82871,0.540723,0.210547,56.7664,-84.776,83.2599,0.488281,5.06592,0.366211,0.272705,0.656433,-0.210022,0.671204,-21056,-8680,-17176,-8911,-28672
11242,9.72822,0.526367,0.200977,56.4862,-84.7595,83.8916,0.183105,4.3335,0.183105,0.270721,0.656891,-0.207977,0.67218,-20288,-7400,-17688,-8911,-28672
11248,9.78564,0.531152,0.272754,56.3544,-84.7595,84.1992,0.488281,3.96729,0.488281,0.269714,0.657135,-0.20697,0.672668,-19520,-6632,-17688,-8911,-28672
11254,9.7665,0.521582,0.287109,56.261,-84.754,84.4629,0.793457,3.23486,0.305176,0.268707,0.657379,-0.205963,0.673126,-18752,-6376,-16408,-8911,-28672
11260,9.80957,0.526367,0.248828,56.217,-84.754,84.6826,0.610352,2.38037,0.12207,0.2677,0.657654,-0.204987,0.673553,-18752,-5864,-16408,-8911,-28672
11266,9.79043,0.526367,0.282324,56.1896,-84.7485,84.8749,0.610352,1.89209,0,0.266724,0.657928,-0.20401,0.673981,-17984,-6120,-16920,-8911,-28672
11272,9.79521,0.545508,0.258398,56.217,-84.7485,85.177,0.549316,0.976562,-0.366211,0.264771,0.658539,-0.202087,0.674744,-16960,-6632,-15896,-8903,-28673
11278,9.79521,0.526367,0.253613,56.2555,-84.7485,85.3033,0.610352,0.732422,-0.488281,0.263794,0.658844,-0.201141,0.675079,-15936,-6888,-15128,-8911,-28672
11284,9.79521,0.535937,0.234473,56.3269,-84.754,85.4022,0.854492,0.183105,-0.549316,0.262817,0.65918,-0.200195,0.675415,-15424,-6632,-14872,-8911,-28672
11290,9.82393,0.521582,0.248828,56.4258,-84.754,85.4626,0.549316,-0.549316,-0.610352,0.261871,0.659515,-0.199249,0.675751,-15168,-5864,-14360,-8911,-28672
11296,9.83828,0.512012,0.258398,56.5521,-84.7595,85.4901,0.12207,-1.09863,-0.854492,0.260925,0.659882,-0.198364,0.676025,-15424,-5352,-15640,-8911,-28672
11302,9.81914,0.478516,0.287109,56.8927,-84.765,85.4681,0.488281,-1.89209,-1.58691,0.259094,0.660614,-0.196564,0.676544,-15680,-4584,-18456,-8911,-28672
11308,9.67559,0.617285,0.258398,57.1014,-84.765,85.4132,0.610352,-1.89209,-2.44141,0.258209,0.661011,-0.195618,0.676788,-15680,-4584,-19480,-8911,-28672
11314,9.77129,0.631641,0.287109,57.3157,-84.765,85.3528,0.244141,-1.95312,-2.50244,0.257324,0.661377,-0.194702,0.677002,-15680,-4584,-20248,-8911,-28672
11320,9.7043,0.60293,0.234473,57.5189,-84.7705,85.3033,1.28174,-2.2583,-1.58691,0.256409,0.661743,-0.193817,0.677246,-15424,-3816,-20504,-8911,-28672
11326,9.8335,0.483301,0.248828,57.7112,-84.776,85.2704,2.92969,-1.52588,-0.976562,0.255493,0.66214,-0.192902,0.67749,-15936,-3560,-20248,-8911,-28672
11332,9.82393,0.45459,0.0813477,58.0188,-84.776,85.2869,3.23486,-0.976562,-1.52588,0.253571,0.662842,-0.19101,0.67804,-15936,-4328,-20760,-8911,-28672
11338,9.77607,0.535937,0.129199,58.1342,-84.776,85.3308,2.44141,0.0610352,-1.95312,0.252655,0.663177,-0.190033,0.678314,-15680,-5096,-23320,-8911,-28672
11344,9.77129,0.531152,0.172266,58.233,-84.7705,85.3912,2.13623,0.488281,-2.19727,0.25177,0.663483,-0.189056,0.678619,-15168,-5608,-25368,-8911,-28672
11350,9.82871,0.545508,0.177051,58.3099,-84.7595,85.4736,2.2583,1.0376,-2.2583,0.250885,0.663788,-0.18808,0.678955,-15424,-5864,-27416,-8911,-28672
11356,9.8335,0.497656,0.143555,58.3978,-84.7485,85.5505,1.52588,1.28174,-3.23486,0.25,0.664062,-0.187103,0.67926,-15424,-5864,-28952,-8911,-28672
11362,9.7665,0.507227,0.14834,58.5681,-84.7211,85.6879,1.40381,1.58691,-3.60107,0.248322,0.664612,-0.185089,0.679871,-15680,-6632,-29208,-8911,-28672
11368,9.92441,0.521582,0.13877,58.656,-84.7046,85.7538,0.854492,2.01416,-4.45557,0.247559,0.664886,-0.184052,0.680176,-15424,-6888,-28696,-8911,-28672
11374,9.93877,0.645996,0.119629,58.7274,-84.6826,85.8417,0.854492,2.62451,-4.88281,0.246765,0.665131,-0.183014,0.680511,-15424,-7656,-28952,-8911,-28672
11380,9.54639,0.497656,0.253613,58.7988,-84.6552,85.9186,0.12207,2.99072,-5.67627,0.246063,0.665375,-0.181976,0.680817,-15424,-8680,-28440,-8911,-28672
11386,9.81914,0.569434,0.200977,58.8757,-84.6277,85.99,0,2.62451,-5.61523,0.245331,0.665588,-0.180939,0.681122,-15680,-9704,-28440,-8911,-28672
11392,9.71865,0.655566,0.186621,59.0131,-84.5782,86.1493,-0.366211,3.23486,-5.61523,0.243896,0.666046,-0.178864,0.681732,-16192,-12776,-26392,-8911,-28672
11398,9.6708,0.650781,0.220117,59.057,-84.5508,86.2537,-0.793457,3.2959,-5.31006,0.243195,0.66626,-0.177856,0.682068,-16448,-13544,-25368,-8911,-28672
11404,9.7665,0.674707,0.220117,59.0625,-84.5288,86.3965,-0.488281,3.54004,-4.27246,0.242432,0.666443,-0.176849,0.682404,-16704,-14312,-24600,-8911,-28672
11410,9.73301,0.650781,0.239258,59.0405,-84.5068,86.5668,-0.305176,3.78418,-3.78418,0.241669,0.666626,-0.175873,0.682739,-16960,-14824,-25880,-8911,-28672
11416,9.75215,0.665137,0.287109,59.0076,-84.4849,86.748,-0.305176,3.35693,-2.74658,0.240875,0.666809,-0.174866,0.683105,-16704,-14312,-27160,-8911,-28672
11422,9.5751,0.679492,0.253613,58.9581,-84.4574,87.0996,-0.183105,3.11279,-2.50244,0.239288,0.667175,-0.172974,0.683807,-17728,-12776,-29464,-8911,-28672
11428,9.88613,0.679492,0.282324,58.9362,-84.4409,87.2644,-0.488281,3.2959,-2.99072,0.238495,0.667358,-0.171997,0.684143,-18752,-12264,-29720,-8911,-28672
11434,9.85742,0.45459,0.062207,58.9197,-84.4244,87.4292,-0.427246,2.86865,-2.44141,0.237671,0.667542,-0.171082,0.684479,-19520,-12520,-28184,-8911,-28672
11440,9.73301,0.674707,0.411523,58.8977,-84.4135,87.5995,-0.671387,3.05176,-2.50244,0.236877,0.667725,-0.170135,0.684814,-20288,-13032,-28184,-8911,-28672
11446,9.80957,0.555078,0.334961,58.9362,-84.386,87.8412,-1.0376,1.70898,-2.86865,0.236145,0.667908,-0.16922,0.68512,-21056,-13288,-28696,-8911,-28672
11452,9.86699,0.535937,0.239258,59.0186,-84.3695,87.8961,-0.793457,1.28174,-3.78418,0.234619,0.668335,-0.167389,0.685669,-22080,-14312,-31256,-8911,-28672
11458,9.78086,0.60293,0.234473,59.1394,-84.353,87.9181,-1.2207,0.854492,-4.45557,0.233917,0.668579,-0.166473,0.685883,-22592,-14312,32232,-8911,-28672
11464,9.75215,0.626855,0.258398,59.2712,-84.3365,87.9181,-1.70898,0.854492,-5.24902,0.233246,0.668823,-0.165558,0.686096,-22848,-14824,30952,-8911,-28672
11470,9.75215,0.636426,0.291895,59.4141,-84.3146,87.9071,-1.95312,0.549316,-5.18799,0.232574,0.669067,-0.164642,0.68631,-23104,-15336,29928,-8911,-28672
11476,9.7665,0.689063,0.263184,59.6887,-84.2761,87.9016,-1.28174,0.793457,-5.31006,0.231934,0.669312,-0.163727,0.686523,-23872,-16104,30184,-8911,-28672
11482,9.72344,0.708203,0.215332,59.8041,-84.2596,87.9236,-1.15967,0.915527,-4.63867,0.23056,0.669769,-0.161896,0.686951,-25152,-17896,30696,-8911,-28672
11488,9.71865,0.727344,0.210547,59.87,-84.2432,87.995,-1.0376,1.52588,-3.78418,0.229858,0.669983,-0.161011,0.687225,-25408,-18920,31464,-8911,-28672
11494,9.68994,0.746484,0.191406,59.881,-84.2267,88.1158,-0.671387,2.44141,-3.23486,0.229126,0.670135,-0.160095,0.6875,-26176,-19176,30440,-8911,-28672
11500,9.68516,0.736914,0.229688,59.837,-84.2157,88.3026,-0.671387,3.41797,-2.38037,0.228363,0.670288,-0.15921,0.687836,-26944,-18920,29928,-8911,-28672
11506,9.67559,0.77041,0.229688,59.5679,-84.1937,88.8574,-0.305176,4.94385,-0.244141,0.227539,0.67041,-0.158325,0.688202,-27456,-18664,29928,-8911,-28672
11512,9.72344,0.741699,0.248828,59.3536,-84.1882,89.22,-0.12207,5.43213,1.28174,0.22583,0.670532,-0.156616,0.688995,-28480,-18920,28904,-8911,-28672
11518,9.73301,0.717773,0.267969,59.0955,-84.1882,89.621,-0.0610352,5.61523,2.50244,0.224884,0.670593,-0.155792,0.689453,-28736,-19432,28392,-8911,-28672
11524,9.73779,0.684277,0.31582,58.8098,-84.1937,90.0549,0.12207,5.7373,3.54004,0.223907,0.670624,-0.154999,0.689911,-29504,-19688,27368,-8911,-28672
11530,9.77607,0.650781,0.31582,58.5242,-84.2047,90.4889,-0.0610352,5.37109,4.15039,0.222931,0.670685,-0.154205,0.690369,-30528,-19944,27368,-8911,-28672
11536,9.80957,0.607715,0.349316,58.0627,-84.2212,91.2524,-0.244141,3.90625,3.78418,0.221954,0.670746,-0.153442,0.690796,-31040,-20456,26344,-8911,-28672
11542,9.8,0.631641,0.373242,57.876,-84.2322,91.582,-0.366211,3.2959,3.35693,0.220001,0.670929,-0.151917,0.691559,-32320,-21736,27624,-8911,-28672
11548,9.80957,0.593359,0.363672,57.7277,-84.2377,91.8732,-0.366211,2.68555,2.99072,0.219055,0.671051,-0.151184,0.691895,32448,-21736,28136,-8911,-28672
11554,9.82871,0.569434,0.349316,57.5903,-84.2487,92.1533,0,2.56348,2.56348,0.218109,0.671173,-0.150391,0.692261,32192,-21992,29928,-8911,-28672
11560,9.84785,0.555078,0.354102,57.5079,-84.2542,92.3785,0.12207,1.77002,2.01416,0.217194,0.671326,-0.149628,0.692566,31936,-21736,30952,-8911,-28672
11566,9.84785,0.555078,0.30625,57.4695,-84.2596,92.6971,-0.244141,1.0376,-0.244141,0.216309,0.671509,-0.148834,0.692841,32448,-21736,32232,-8911,-28672
11572,9.80957,0.60293,0.301465,57.5024,-84.2596,92.8015,-0.305176,0.976562,-1.28174,0.214661,0.671875,-0.147186,0.693329,-31552,-21224,31976,-8911,-28672
11578,9.78564,0.62207,0.311035,57.5519,-84.2487,92.8839,-0.549316,0.854492,-1.95312,0.213898,0.672058,-0.146362,0.693573,-31552,-20968,31208,-8911,-28672
11584,9.76172,0.6125,0.334961,57.6068,-84.2432,92.9663,-0.549316,0.854492,-2.0752,0.213135,0.672241,-0.145508,0.693817,-31296,-21224,31720,-8911,-28672
11590,9.78564,0.636426,0.30625,57.6892,-84.2377,93.0157,-0.549316,0.671387,-2.80762,0.212402,0.672455,-0.144653,0.694031,-31040,-21736,32232,-8911,-28672
11596,9.77129,0.626855,0.277539,57.854,-84.2157,93.1146,-0.793457,0.793457,-3.05176,0.21167,0.672638,-0.143799,0.694214,-31296,-21992,31720,-8911,-28672
11602,9.73301,0.684277,0.344531,57.9254,-84.2047,93.1696,-0.854492,0.854492,-2.86865,0.210236,0.673004,-0.14212,0.694641,-31808,-21480,32488,-8911,-28672
11608,9.76172,0.727344,0.363672,57.9913,-84.1937,93.2355,-0.976562,0.793457,-2.62451,0.209503,0.673187,-0.141296,0.694855,-32320,-20712,31720,-8911,-28672
11614,9.68037,0.775195,0.363672,58.0737,-84.1882,93.2794,-0.976562,0.0610352,-2.01416,0.208771,0.673401,-0.140503,0.695068,-32576,-20200,30952,-8911,-28672
11620,9.68037,0.775195,0.425879,58.1396,-84.1937,93.3398,-0.854492,-0.488281,-0.671387,0.208008,0.673584,-0.139771,0.695251,-32576,-19176,30184,-8911,-28672
11626,9.67559,0.717773,0.449805,58.3044,-84.2212,93.4387,-0.0610352,-2.50244,1.64795,0.207184,0.673798,-0.139038,0.695404,32448,-17640,30696,-8911,-28672
11632,9.77607,0.674707,0.334961,58.4033,-84.2432,93.4662,0.12207,-3.11279,2.44141,0.205444,0.674316,-0.137756,0.695709,31936,-16872,31208,-8911,-28672
11638,9.77607,0.674707,0.287109,58.5077,-84.2706,93.4827,0.12207,-3.84521,3.23486,0.204529,0.674591,-0.137146,0.695831,31168,-16360,32232,-8911,-28672
11644,9.74258,0.641211,0.244043,58.634,-84.2981,93.4882,0.183105,-4.21143,3.23486,0.203613,0.674866,-0.136536,0.695923,30656,-16104,-32536,-8911,-28672
11650,9.75693,0.62207,0.248828,58.7274,-84.3256,93.5156,0.0610352,-3.54004,3.2959,0.202698,0.67514,-0.135925,0.696075,30400,-16360,-32536,-8911,-28672
11656,9.75215,0.6125,0.234473,58.8318,-84.375,93.6639,0.183105,-2.2583,3.35693,0.201782,0.675385,-0.135345,0.696198,30400,-18152,-29720,-8911,-28672
11662,9.75693,0.617285,0.277539,58.8428,-84.397,93.7848,0.0610352,-1.64795,3.54004,0.199982,0.675812,-0.134125,0.696564,30400,-18152,-28696,-8911,-28672
11668,9.81436,0.569434,0.248828,58.8318,-84.4189,93.9276,0.183105,-1.0376,3.41797,0.199097,0.675995,-0.133484,0.696747,30656,-18152,-26904,-8911,-28672
11674,9.86221,0.545508,0.277539,58.8098,-84.4354,94.0704,0.12207,-0.549316,2.74658,0.198212,0.676178,-0.132843,0.69696,30400,-17896,-25880,-8911,-28672
11680,9.82393,0.540723,0.277539,58.8318,-84.4464,94.1748,0,-0.793457,1.64795,0.197388,0.676361,-0.132172,0.697144,29888,-17640,-26136,-8911,-28672
11686,9.85264,0.588574,0.239258,58.8977,-84.4629,94.3561,-0.183105,-0.305176,0.0610352,0.196594,0.676544,-0.1315,0.697327,29376,-17896,-29464,-8911,-28672
11692,9.80479,0.555078,0.258398,58.9417,-84.4629,94.4385,-0.305176,0.183105,-0.793457,0.195068,0.67688,-0.130066,0.697693,29632,-17896,-30232,-8911,-28672
11698,9.77607,0.579004,0.229688,58.9856,-84.4574,94.5154,-0.549316,0.488281,-1.40381,0.194366,0.677032,-0.129303,0.697876,30144,-17640,-30232,-8911,-28672
11704,9.78086,0.631641,0.277539,59.0131,-84.4519,94.6088,-0.793457,1.0376,-1.77002,0.193665,0.677155,-0.128571,0.698059,30912,-17640,-30232,-8911,-28672
11710,9.75693,0.636426,0.301465,59.0295,-84.4464,94.7076,-1.0376,1.28174,-1.95312,0.192993,0.677307,-0.127808,0.698273,31936,-17384,-29976,-8911,-28672
11716,9.77129,0.679492,0.363672,59.0625,-84.4354,94.9164,-0.366211,0.915527,-1.15967,0.192322,0.677429,-0.127045,0.698486,-32064,-16872,-30744,-8911,-28672
11722,9.70908,0.698633,0.406738,59.0955,-84.4354,95.0043,-0.0610352,0.305176,-0.610352,0.190857,0.677704,-0.12558,0.698853,-31552,-17384,-31000,-8911,-28672
11728,9.73301,0.684277,0.401953,59.1669,-84.4409,95.0537,0.183105,-1.0376,0,0.190094,0.677887,-0.124908,0.699005,-31808,-18152,-30744,-8911,-28672
11734,9.76172,0.693848,0.401953,59.2987,-84.4519,95.0427,0.305176,-2.62451,0.488281,0.189331,0.678131,-0.124237,0.699097,-32320,-18664,-30744,-8911,-28672
11740,9.74736,0.645996,0.311035,59.4635,-84.4739,94.9933,0.305176,-3.90625,1.28174,0.188538,0.678375,-0.123627,0.699188,32704,-18920,-30744,-8911,-28672
11746,9.73301,0.650781,0.234473,59.7876,-84.5178,94.9054,0.305176,-4.15039,2.2583,0.187714,0.67865,-0.123016,0.699249,31680,-18664,-30232,-8911,-28672
11752,9.76172,0.626855,0.234473,59.9084,-84.5398,94.8999,0.244141,-3.66211,2.50244,0.186066,0.679169,-0.121857,0.699402,31680,-17896,-29464,-8911,-28672
11758,9.75693,0.6125,0.210547,59.9908,-84.5673,94.9329,0.183105,-2.86865,2.86865,0.185242,0.679382,-0.121307,0.699493,31936,-17896,-28696,-8911,-28672
11764,9.8,0.6125,0.220117,60.0403,-84.5837,94.9988,0.183105,-1.95312,2.44141,0.184418,0.679565,-0.120697,0.699646,32448,-18152,-28440,-8911,-28672
11770,9.80957,0.6125,0.205762,60.0732,-84.6002,95.0867,0.183105,-1.34277,2.0752,0.183624,0.679749,-0.120087,0.699768,32704,-18152,-28440,-8911,-28672
11776,9.82393,0.593359,0.239258,60.0403,-84.6222,95.3503,0,0,1.83105,0.1828,0.679901,-0.119476,0.699951,32704,-18664,-27672,-8911,-28672
11782,9.82871,0.559863,0.224902,60.0183,-84.6332,95.4932,-0.0610352,0.427246,1.15967,0.181274,0.680145,-0.118225,0.700317,32192,-18408,-27672,-8911,-28672
11788,9.8,0.579004,0.210547,59.9963,-84.6332,95.636,-0.244141,0.854492,0.427246,0.180542,0.680267,-0.117554,0.7005,31936,-17384,-27160,-8911,-28672
11794,9.77129,0.579004,0.16748,59.9359,-84.6332,95.8118,-0.12207,1.95312,-0.0610352,0.17981,0.680359,-0.116852,0.700745,31680,-16616,-27160,-8911,-28672
11800,9.76172,0.6125,0.200977,59.837,-84.6277,96.0315,-0.183105,2.86865,-0.183105,0.179077,0.68042,-0.11615,0.700989,31680,-15592,-27928,-8911,-28672
11806,9.73779,0.617285,0.253613,59.491,-84.6112,96.6138,-0.12207,5.06592,-0.12207,0.178375,0.68042,-0.115417,0.701263,31936,-15080,-29464,-8911,-28672
11812,9.77129,0.636426,0.301465,59.2712,-84.6002,96.9598,0,5.61523,-0.0610352,0.176941,0.680389,-0.113922,0.701904,31680,-15080,-30232,-8911,-28672
11818,9.79521,0.598145,0.354102,59.0405,-84.5892,97.3114,0.305176,5.67627,0.305176,0.176178,0.680359,-0.113159,0.70224,31936,-15336,-29976,-8911,-28672
11824,9.83828,0.569434,0.378027,58.8428,-84.5837,97.6355,0.12207,5.00488,0.12207,0.175446,0.680359,-0.112427,0.702545,32448,-15592,-29976,-8911,-28672
11830,9.84307,0.598145,0.411523,58.7109,-84.5728,97.8882,0.12207,4.08936,-0.732422,0.174713,0.680389,-0.111664,0.70282,-32576,-15592,-31256,-8911,-28672
11836,9.81914,0.6125,0.30625,58.6011,-84.5508,98.2343,0.0610352,2.50244,-2.01416,0.174042,0.68045,-0.110931,0.703064,-32320,-14312,26344,-8911,-28672
11842,9.8,0.555078,0.287109,58.5791,-84.5398,98.3716,0.0610352,2.38037,-2.01416,0.172699,0.680573,-0.109375,0.703491,-32320,-14056,23528,-8911,-28672
11848,9.80479,0.545508,0.301465,58.5571,-84.5233,98.5199,0,2.74658,-2.44141,0.172028,0.680664,-0.108612,0.703705,-32576,-13800,21480,-8911,-28672
11854,9.82871,0.574219,0.330176,58.5406,-84.5068,98.6462,0.0610352,2.86865,-3.17383,0.171417,0.680725,-0.107819,0.703918,32448,-14056,20968,-8911,-28672
11860,9.81436,0.598145,0.349316,58.5406,-84.4904,98.7671,0,2.92969,-3.60107,0.170807,0.680786,-0.106995,0.704132,32192,-14568,20968,-8911,-28672
11866,9.79521,0.588574,0.330176,58.6011,-84.4464,98.9319,-0.427246,2.38037,-4.57764,0.170227,0.680847,-0.106201,0.704346,32448,-14824,20200,-8911,-28672
11872,9.80479,0.62207,0.334961,58.6725,-84.4244,98.9703,-0.549316,2.0752,-5.06592,0.169128,0.681,-0.104584,0.704681,-32576,-15080,20200,-8911,-28672
11878,9.75693,0.679492,0.301465,58.7549,-84.4025,99.0033,-0.183105,1.83105,-5.18799,0.168579,0.681091,-0.10379,0.704834,-32064,-15080,19944,-8911,-28672
11884,9.71865,0.698633,0.354102,58.8318,-84.3805,99.0308,-0.305176,1.83105,-5.06592,0.16806,0.681183,-0.102966,0.704987,-32064,-15080,20200,-8911,-28672
11890,9.72822,0.722559,0.30625,58.8922,-84.3585,99.0857,-0.488281,2.01416,-4.57764,0.167511,0.681274,-0.102173,0.70517,-31552,-15592,20200,-8911,-28672
11896,9.6708,0.765625,0.373242,58.9307,-84.3311,99.267,-0.427246,1.83105,-2.50244,0.166931,0.681335,-0.10144,0.705353,-31040,-18152,21224,-8911,-28672
11902,9.68037,0.756055,0.373242,58.9032,-84.3311,99.4043,-0.183105,1.40381,-0.427246,0.165619,0.681488,-0.100037,0.705688,-30784,-19432,21992,-8911,-28672
11908,9.68037,0.712988,0.401953,58.8757,-84.3311,99.5471,-0.0610352,1.15967,0.183105,0.164917,0.68158,-0.0993958,0.705872,-31040,-19688,22248,-8911,-28672
11914,9.74258,0.732129,0.411523,58.8428,-84.342,99.6899,0.183105,0.488281,1.40381,0.164154,0.681702,-0.0987549,0.706024,-31040,-20456,22504,-8911,-28672
11920,9.74736,0.712988,0.368457,58.8373,-84.353,99.8108,0.183105,-0.427246,1.83105,0.163391,0.681824,-0.098175,0.706177,-31808,-20456,22504,-8911,-28672
11926,9.73779,0.660352,0.31582,58.7714,-84.3915,100.107,0.549316,-0.427246,3.2959,0.161774,0.682068,-0.0970459,0.706482,32448,-22248,25064,-8911,-28672
11932,9.81436,0.62207,0.263184,58.7,-84.4025,100.289,0.793457,0.366211,3.11279,0.16095,0.682159,-0.0964661,0.706635,31424,-22248,26088,-8911,-28672
11938,9.82871,0.593359,0.263184,58.6011,-84.4189,100.503,0.732422,1.0376,3.05176,0.160156,0.68222,-0.0958862,0.706848,31424,-23016,26600,-8911,-28672
