Timestamp,AccX,AccY,AccZ,AngleX,AngleY,AngleZ,AngularVelX,AngularVelY,AngularVelZ,QW,QX,QY,QZ,MagX,MagY,MagZ,Height,AirPressure
6610,9.79043,0.373242,-0.0239258,102.629,-87.8302,-3.2959,0.12207,-0.305176,0.732422,0.46579,0.549438,-0.449646,0.528046,-28477,-3049,-11543,-8985,-28663
6616,9.79043,0.368457,-0.0478516,102.684,-87.8302,-3.31787,0.305176,-0.244141,0.732422,0.465637,0.549561,-0.449493,0.528198,-29245,-2793,-12311,-8985,-28663
6622,9.8,0.368457,-0.0191406,102.783,-87.8357,-3.38928,0.366211,-0.610352,0.732422,0.465454,0.549683,-0.449371,0.528351,-31037,-2025,-13591,-8985,-28663
6628,9.8,0.349316,-0.0669922,102.936,-87.8357,-3.50464,0.610352,-0.976562,0.793457,0.465271,0.549805,-0.449249,0.528473,-32061,-1257,-15639,-8985,-28663
6634,9.82393,0.334961,-0.0574219,103.244,-87.8412,-3.75183,0.854492,-0.976562,0.549316,0.464905,0.550079,-0.449005,0.528717,32707,-489,-16919,-8985,-28663
6640,9.79521,0.330176,-0.090918,103.365,-87.8467,-3.84521,0.549316,-0.854492,0.488281,0.464722,0.550201,-0.448914,0.528839,32707,-489,-18967,-8985,-28663
6646,9.81436,0.320605,-0.105273,103.436,-87.8412,-3.88367,0.610352,-0.610352,-0.244141,0.464539,0.550354,-0.448792,0.528961,32707,-745,-18711,-8985,-28663
6652,9.78086,0.334961,-0.0957031,103.475,-87.8412,-3.88916,0.610352,-0.305176,-0.0610352,0.464386,0.550476,-0.448639,0.529053,32707,-1001,-18199,-8985,-28663
6658,9.80479,0.358887,-0.100488,103.486,-87.8412,-3.86719,0.427246,-0.0610352,-0.0610352,0.464233,0.550629,-0.448486,0.529175,-32573,-1513,-15639,-8985,-28663
6664,9.84307,0.30625,-0.100488,103.414,-87.8357,-3.73535,0.488281,0.244141,-0.732422,0.463959,0.550873,-0.448181,0.529419,32707,-2025,-14103,-8985,-28663
6670,9.83828,0.334961,-0.114844,103.282,-87.8302,-3.56506,0.488281,0.732422,-1.40381,0.463837,0.550995,-0.447998,0.529541,31939,-2025,-14615,-8985,-28663
6676,9.79521,0.349316,-0.110059,103.101,-87.8247,-3.35083,0.671387,1.09863,-1.46484,0.463715,0.551147,-0.447784,0.529694,31939,-2025,-16407,-8985,-28663
6682,9.79521,0.334961,-0.100488,102.942,-87.8192,-3.15308,0.305176,0.915527,-1.64795,0.463623,0.5513,-0.447571,0.529816,32195,-2025,-17687,-8985,-28663
6688,9.80479,0.334961,-0.0957031,102.75,-87.8082,-2.92786,0.244141,1.09863,-1.89209,0.463501,0.551453,-0.447327,0.529938,-32573,-2537,-18199,-8985,-28663
6694,9.81914,0.354102,-0.062207,102.376,-87.7917,-2.48291,0.12207,1.0376,-2.13623,0.463287,0.551727,-0.446869,0.530212,-32317,-3049,-17687,-8985,-28663
6700,9.81436,0.358887,-0.0717773,102.233,-87.7863,-2.30713,0.0610352,0.732422,-2.01416,0.463196,0.55188,-0.446625,0.530334,-32061,-3049,-16663,-8985,-28663
6706,9.78086,0.392383,-0.0478516,102.112,-87.7753,-2.15332,0.183105,0.488281,-2.38037,0.463104,0.552063,-0.446411,0.530457,-32573,-2537,-15895,-8985,-28663
6712,9.78086,0.392383,-0.0574219,102.057,-87.7643,-2.05994,0.12207,0.0610352,-1.95312,0.463013,0.552216,-0.446167,0.530579,32707,-2025,-14871,-8985,-28663
6718,9.8,0.378027,-0.0382813,102.014,-87.7588,-1.98303,0.0610352,0.0610352,-1.52588,0.462891,0.552399,-0.445953,0.53067,32707,-1769,-15127,-8985,-28663
6724,9.75693,0.416309,-0.0382813,102.063,-87.7478,-1.97205,0.12207,-0.610352,-0.549316,0.462646,0.552704,-0.445587,0.530853,32707,-1769,-14871,-8985,-28663
6730,9.75215,0.430664,-0.0430664,102.173,-87.7478,-2.05444,0.244141,-0.915527,-0.183105,0.462524,0.552826,-0.445435,0.530975,32195,-3561,-13591,-8985,-28663
6736,9.75215,0.401953,-0.0813477,102.288,-87.7478,-2.13684,0.427246,-0.854492,0.366211,0.462372,0.552979,-0.445312,0.531067,32451,-4329,-12311,-8985,-28663
6742,9.79043,0.378027,-0.0717773,102.426,-87.7478,-2.2467,0.427246,-0.976562,0.610352,0.462189,0.553101,-0.44519,0.531158,32451,-5097,-12055,-8985,-28663
6748,9.77129,0.330176,-0.0382813,102.535,-87.7533,-2.3291,0.732422,-0.793457,0.366211,0.462036,0.553223,-0.445099,0.531281,32451,-5609,-12055,-8985,-28663
6754,9.7665,0.378027,-0.13877,102.678,-87.7533,-2.4115,0.671387,-0.305176,0.427246,0.4617,0.553467,-0.444855,0.531494,32707,-6121,-11799,-8985,-28663
6760,9.77607,0.392383,-0.105273,102.678,-87.7533,-2.37854,0.488281,0.0610352,0.244141,0.461548,0.553589,-0.444733,0.531616,31939,-7145,-12567,-8985,-28663
6766,9.77607,0.397168,-0.124414,102.623,-87.7588,-2.29065,0.671387,0.610352,0.610352,0.461426,0.553711,-0.44458,0.531738,31683,-7145,-12055,-8985,-28663
6772,9.77129,0.387598,-0.0861328,102.53,-87.7643,-2.1698,0.427246,0.976562,1.0376,0.461273,0.553802,-0.444427,0.531891,31171,-7657,-11543,-8985,-28663
6778,9.81436,0.344531,-0.0574219,102.431,-87.7698,-2.03796,0.793457,1.0376,0.915527,0.461121,0.553864,-0.444275,0.532074,30659,-8169,-10519,-8985,-28663
6784,9.83828,0.30625,-0.0813477,102.162,-87.7753,-1.69739,1.15967,1.28174,0.0610352,0.460815,0.554047,-0.44397,0.53241,30147,-8169,-8215,-8985,-28663
6790,9.87656,0.30625,-0.119629,101.948,-87.7698,-1.4502,1.34277,1.58691,-0.793457,0.460663,0.554169,-0.443756,0.532562,30659,-8425,-6423,-8985,-28663
6796,9.81914,0.301465,-0.105273,101.75,-87.7698,-1.21399,0.854492,1.40381,-1.09863,0.460541,0.554291,-0.443542,0.532745,30915,-7913,-5655,-8985,-28663
6802,9.76172,0.368457,-0.0765625,101.547,-87.7643,-0.97229,0.610352,1.40381,-1.40381,0.460419,0.554413,-0.443298,0.532898,31171,-7401,-5399,-8985,-28663
6808,9.82393,0.344531,-0.0574219,101.371,-87.7588,-0.76355,0.488281,1.15967,-1.40381,0.460327,0.554535,-0.443085,0.533051,31171,-7401,-5911,-8985,-28663
6814,9.8,0.378027,-0.0526367,101.091,-87.7478,-0.41748,0.488281,0.671387,-1.52588,0.460114,0.55481,-0.442627,0.533325,30659,-7401,-8983,-8985,-28663
6820,9.79043,0.373242,-0.0526367,101.019,-87.7423,-0.31311,0.610352,0.427246,-0.976562,0.459991,0.554962,-0.442413,0.533447,30147,-7913,-9495,-8985,-28663
6826,9.77607,0.378027,-0.0526367,100.981,-87.7368,-0.236206,0.671387,0.12207,-1.28174,0.459869,0.555115,-0.44223,0.533569,29123,-8425,-10263,-8985,-28663
6832,9.75693,0.397168,-0.0382813,100.986,-87.7313,-0.20874,0.671387,-0.183105,-0.854492,0.459747,0.555267,-0.442017,0.533691,28355,-8169,-10519,-8985,-28663
6838,9.75693,0.392383,-0.0478516,101.003,-87.7258,-0.197754,0.732422,-0.244141,-0.793457,0.459595,0.555389,-0.441864,0.533813,27843,-7913,-10519,-8985,-28663
6844,9.76172,0.406738,-0.114844,101.08,-87.7258,-0.20874,0.671387,-0.305176,0.0610352,0.45929,0.555695,-0.441528,0.534027,27843,-6889,-10775,-8985,-28663
6850,9.7665,0.373242,-0.105273,101.107,-87.7313,-0.197754,0.610352,-0.12207,0.183105,0.459137,0.555817,-0.441376,0.534149,27843,-6633,-11031,-8985,-28663
6856,9.79043,0.373242,-0.114844,101.091,-87.7313,-0.148315,0.366211,0.183105,0.0610352,0.458984,0.555939,-0.441223,0.534271,28355,-6889,-11031,-8985,-28663
6862,9.77607,0.373242,-0.0813477,101.036,-87.7313,-0.065918,0.244141,0.488281,0.183105,0.458832,0.556061,-0.441071,0.534424,28867,-7657,-10519,-8985,-28663
6868,9.81914,0.397168,-0.0957031,100.937,-87.7313,0.0604248,0.12207,0.793457,-0.183105,0.458679,0.556152,-0.440918,0.534576,29123,-8425,-11031,-8985,-28663
6874,9.80479,0.378027,-0.0669922,100.701,-87.7313,0.357056,0,1.09863,-0.244141,0.458435,0.556366,-0.440582,0.534851,30403,-10217,-12823,-8985,-28663
6880,9.81436,0.387598,-0.0813477,100.547,-87.7313,0.549316,0.183105,1.28174,-0.0610352,0.458313,0.556458,-0.440399,0.535004,30659,-10729,-13591,-8985,-28663
6886,9.80479,0.373242,-0.0861328,100.382,-87.7313,0.741577,0,1.28174,-0.366211,0.458191,0.55658,-0.440216,0.535156,30915,-10985,-15639,-8985,-28663
6892,9.8335,0.373242,-0.0430664,100.267,-87.7313,0.889893,0.0610352,0.915527,-0.427246,0.458069,0.556671,-0.440033,0.535309,31171,-10985,-17687,-8985,-28663
6898,9.83828,0.339746,-0.0287109,100.113,-87.7258,1.07666,0.488281,1.09863,-0.915527,0.457947,0.556793,-0.43985,0.535461,31427,-10473,-18711,-8985,-28663
6904,9.77129,0.401953,-0.0287109,99.8767,-87.7203,1.38428,0.854492,0.610352,-1.2207,0.457703,0.557037,-0.439423,0.535736,32451,-9193,-20503,-8985,-28663
6910,9.75693,0.411523,-0.0382813,99.7998,-87.7148,1.49414,0.732422,0.488281,-0.915527,0.457581,0.55719,-0.439209,0.535858,-32317,-8681,-20759,-8985,-28663
6916,9.7665,0.397168,-0.0813477,99.7339,-87.7094,1.59302,0.976562,0.488281,-0.793457,0.457458,0.557312,-0.439026,0.53598,-31293,-8425,-21783,-8985,-28663
6922,9.75693,0.378027,-0.0861328,99.6075,-87.7094,1.75781,0.976562,0.976562,-0.732422,0.457306,0.557434,-0.438812,0.536133,-30525,-8425,-22551,-8985,-28663
6928,9.80957,0.339746,-0.0717773,99.4647,-87.7039,1.93359,1.15967,1.09863,-0.671387,0.457031,0.557709,-0.438385,0.536438,-30013,-8169,-22807,-8985,-28663
6934,9.78564,0.363672,-0.124414,99.0253,-87.6984,2.44995,0.488281,1.83105,-1.34277,0.456909,0.557831,-0.438171,0.536591,-30013,-7401,-24343,-8985,-28663
6940,9.79043,0.349316,-0.124414,98.7177,-87.6929,2.79602,0,2.38037,-1.34277,0.456818,0.557953,-0.437927,0.536774,-30269,-6633,-25367,-8985,-28663
6946,9.79043,0.368457,-0.105273,98.3606,-87.6874,3.18604,-0.0610352,2.74658,-1.64795,0.456696,0.558075,-0.437653,0.536957,-30525,-6121,-26647,-8985,-28663
6952,9.78564,0.392383,-0.090918,97.9761,-87.6764,3.6145,-0.244141,2.99072,-1.89209,0.456604,0.558197,-0.437378,0.53714,-31549,-5865,-28183,-8985,-28663
6958,9.79043,0.406738,-0.0478516,97.5696,-87.6764,4.05945,-0.427246,3.23486,-1.46484,0.456451,0.558411,-0.436798,0.537506,-32061,-5865,-29207,-8985,-28663
6964,9.7665,0.387598,0,96.7786,-87.6654,4.92737,0,3.11279,-1.09863,0.45636,0.558502,-0.436523,0.53772,32451,-6889,-29207,-8985,-28663
6970,9.80479,0.425879,0,96.4435,-87.6599,5.3064,0.183105,2.74658,-1.15967,0.456268,0.558594,-0.436249,0.537933,32195,-7657,-29463,-8985,-28663
6976,9.79521,0.392383,-0.00957031,96.1139,-87.6599,5.67444,0.427246,2.68555,-1.09863,0.456146,0.558716,-0.435974,0.538116,31683,-8169,-29719,-8985,-28663
6982,9.79043,0.406738,-0.00478516,95.8063,-87.6544,6.02051,0.427246,2.56348,-0.915527,0.456024,0.558807,-0.435699,0.53833,31427,-8169,-30487,-8985,-28663
6988,9.78086,0.397168,0.0334961,95.5261,-87.6544,6.3446,0.488281,2.31934,-0.915527,0.455811,0.559021,-0.435181,0.538727,31683,-8169,-31511,-8985,-28663
6994,9.79043,0.440234,-0.0191406,95.0537,-87.6489,6.88843,0.488281,1.89209,-0.732422,0.455658,0.559143,-0.434967,0.53891,32707,-8937,32489,-8985,-28663
7000,9.78086,0.401953,-0.0143555,94.8395,-87.6489,7.13562,0.488281,1.83105,-0.12207,0.455536,0.559235,-0.434723,0.539093,32451,-8937,31977,-8985,-28663
7006,9.78086,0.406738,-0.0334961,94.6088,-87.6489,7.40479,0.488281,1.95312,-0.366211,0.455414,0.559357,-0.434509,0.539276,32707,-9193,31465,-8985,-28663
7012,9.79043,0.378027,-0.0957031,94.3726,-87.6489,7.67944,0,2.01416,-0.366211,0.455261,0.559448,-0.434296,0.539459,32707,-9449,30953,-8985,-28663
7018,9.80957,0.382812,-0.0239258,94.0814,-87.6489,8.00354,0,2.44141,-0.366211,0.455017,0.559631,-0.433838,0.539856,-32573,-9449,30185,-8985,-28663
7024,9.78564,0.435449,0.00957031,93.5101,-87.6434,8.65173,-0.183105,2.31934,-0.793457,0.454895,0.559723,-0.433594,0.540039,-31549,-10217,28649,-8985,-28663
7030,9.75693,0.416309,0.00957031,93.2629,-87.6434,8.93188,-0.183105,2.0752,-0.305176,0.454803,0.559814,-0.43335,0.540222,-31037,-10217,28649,-8985,-28663
7036,9.76172,0.421094,0.0191406,93.0597,-87.6434,9.17358,0,1.77002,-0.0610352,0.454681,0.559906,-0.433136,0.540405,-31293,-9705,28393,-8985,-28663
7042,9.76172,0.421094,0.0574219,92.9059,-87.6434,9.36035,0.0610352,1.34277,0.671387,0.454529,0.559998,-0.432922,0.540588,-31549,-9449,29673,-8985,-28663
7048,9.81914,0.411523,0.0669922,92.8125,-87.6489,9.4812,0.366211,0.854492,0.732422,0.454224,0.560181,-0.432587,0.540924,-32317,-8937,31209,-8985,-28663
7054,9.8,0.411523,0.0287109,92.796,-87.6544,9.5636,0.549316,-0.0610352,0.610352,0.454071,0.560272,-0.432465,0.541077,-32573,-8425,31465,-8985,-28663
7060,9.78086,0.401953,0,92.8235,-87.6599,9.56909,0.732422,-0.12207,0.915527,0.453918,0.560394,-0.432312,0.541199,-32573,-8425,30441,-8985,-28663
7066,9.74258,0.378027,-0.0334961,92.84,-87.6654,9.58008,0.244141,-0.0610352,1.09863,0.453735,0.560486,-0.43219,0.541351,-32573,-7913,29417,-8985,-28663
7072,9.77607,0.378027,-0.0430664,92.8839,-87.6709,9.56909,0.305176,-0.244141,0.793457,0.453583,0.560577,-0.432068,0.541473,32707,-7657,29929,-8985,-28663
7078,9.7665,0.45459,0.0430664,92.9224,-87.6764,9.55811,0.12207,-0.244141,0.915527,0.453247,0.560791,-0.431854,0.541718,32451,-7145,29673,-8985,-28663
7084,9.75693,0.416309,0.0191406,93.0542,-87.6929,9.4812,0.610352,-0.549316,2.0752,0.453064,0.560852,-0.431763,0.54187,-31805,-7145,30697,-8985,-28663
7090,9.77607,0.397168,0.0430664,93.186,-87.7039,9.37134,0.854492,-0.915527,2.56348,0.452881,0.560944,-0.431702,0.541992,-31293,-7145,31721,-8985,-28663
7096,9.81436,0.378027,0.0287109,93.3344,-87.7203,9.25049,1.15967,-1.0376,2.68555,0.452698,0.561005,-0.431641,0.542145,-30781,-6889,-32279,-8985,-28663
7102,9.77129,0.378027,0,93.5046,-87.7313,9.10767,1.15967,-1.15967,2.86865,0.452484,0.561096,-0.43161,0.542267,-30781,-6121,-30743,-8985,-28663
7108,9.77129,0.421094,-0.0382813,93.6804,-87.7478,8.95386,1.0376,-1.2207,2.86865,0.452057,0.561218,-0.431549,0.542511,-31037,-5097,-30231,-8985,-28663
7114,9.73779,0.411523,0.0191406,94.0869,-87.7808,8.59131,0.915527,-1.46484,3.479,0.451843,0.561279,-0.431519,0.542633,-30525,-3817,-29463,-8985,-28663
7120,9.75693,0.397168,0.00478516,94.3506,-87.7972,8.3551,1.09863,-1.77002,3.90625,0.45163,0.56134,-0.431519,0.542755,-30269,-4073,-29975,-8985,-28663
7126,9.80479,0.373242,-0.00957031,94.6582,-87.8192,8.06946,1.28174,-2.0752,4.08936,0.451385,0.561401,-0.431549,0.542877,-29757,-4073,-29719,-8985,-28663
7132,9.79521,0.382812,-0.0334961,94.9493,-87.8357,7.80029,1.2207,-1.89209,4.08936,0.451141,0.561462,-0.43158,0.542999,-29245,-4585,-30231,-8985,-28663
7138,9.80479,0.363672,-0.0861328,95.2625,-87.8577,7.50916,1.28174,-2.01416,4.3335,0.450684,0.561554,-0.431641,0.543243,-28733,-4585,-29719,-8985,-28663
7144,9.75693,0.358887,-0.114844,95.7019,-87.9016,7.10815,0.12207,-0.915527,4.39453,0.450439,0.561584,-0.431671,0.543365,-26941,-4073,-31255,-8985,-28663
7150,9.81436,0.31582,0.0574219,95.8557,-87.9236,6.97083,0.732422,-0.732422,4.57764,0.450256,0.561584,-0.431702,0.543518,-26941,-3817,-32279,-8985,-28663
7156,9.78086,0.378027,-0.0478516,96.0535,-87.9456,6.79504,0.732422,-0.976562,4.63867,0.450043,0.561584,-0.431732,0.543671,-26941,-3561,31465,-8985,-28663
7162,9.75215,0.392383,-0.0957031,96.2183,-87.9675,6.65222,0.610352,-0.671387,5.31006,0.449799,0.561615,-0.431763,0.543793,-27709,-3817,30185,-8985,-28663
7168,9.77129,0.330176,-0.100488,96.2567,-87.995,6.63574,0.183105,0.305176,5.67627,0.449371,0.561584,-0.431824,0.544159,-28733,-3305,29929,-8985,-28663
7174,9.79521,0.29668,-0.0526367,96.0645,-88.0554,6.86646,-0.12207,1.58691,5.98145,0.449127,0.561523,-0.431854,0.544373,-28733,-2537,32233,-8985,-28663
7180,9.82871,0.320605,-0.00478516,95.8777,-88.0829,7.0752,-0.0610352,1.83105,5.85938,0.448914,0.561432,-0.431854,0.544617,-28477,-2025,32745,-8985,-28663
7186,9.80479,0.291895,0.00478516,95.7239,-88.1158,7.25647,0,1.58691,5.7373,0.44873,0.561371,-0.431854,0.544861,-27965,-1257,-31767,-8985,-28663
7192,9.77607,0.330176,-0.00478516,95.6195,-88.1433,7.38281,0.244141,1.2207,5.61523,0.448517,0.56131,-0.431854,0.545105,-27709,24,-32023,-8985,-28663
7198,9.77129,0.31582,0.00478516,95.5261,-88.1708,7.49817,0.488281,1.15967,6.22559,0.448059,0.561218,-0.431854,0.545563,-27453,1304,-32535,-8985,-28663
7204,9.8335,0.263184,0,95.5096,-88.2312,7.56958,0.854492,0.671387,6.34766,0.447815,0.561188,-0.431885,0.545807,-26685,3608,32489,-8985,-28663
7210,9.88613,0.234473,-0.00478516,95.5316,-88.2587,7.56958,0.915527,0.366211,5.37109,0.44754,0.561157,-0.431885,0.546051,-26173,4120,32745,-8985,-28663
7216,9.90049,0.191406,0.0239258,95.5371,-88.2806,7.58606,0.915527,0.366211,4.63867,0.447327,0.561127,-0.431885,0.546234,-25661,3864,31721,-8985,-28663
7222,9.88135,0.200977,0,95.5975,-88.2971,7.54761,0.915527,-0.0610352,3.17383,0.447113,0.561127,-0.431854,0.546448,-24893,3608,31209,-8985,-28663
7228,9.88135,0.200977,-0.0287109,95.6305,-88.3081,7.53662,0.610352,0.0610352,0.793457,0.446747,0.561218,-0.431763,0.546722,-23869,3608,31209,-8985,-28663
7234,9.87178,0.220117,0.00478516,95.6415,-88.3081,7.57507,0.366211,-0.0610352,0.12207,0.446625,0.56131,-0.431671,0.546814,-22077,4888,30185,-8985,-28663
7240,9.80479,0.234473,0.0191406,95.6525,-88.3081,7.58057,0.549316,-0.183105,-0.671387,0.446533,0.561371,-0.431549,0.546906,-21309,5656,29673,-8985,-28663
7246,9.79043,0.277539,0.0143555,95.6799,-88.3026,7.58057,0.915527,-0.244141,-0.732422,0.446442,0.561462,-0.431427,0.546967,-20797,6168,28393,-8985,-28663
7252,9.76172,0.291895,0.00957031,95.7184,-88.3026,7.55859,1.0376,-0.305176,-0.305176,0.44635,0.561584,-0.431305,0.547028,-20797,6680,27369,-8985,-28663
7258,9.76172,0.320605,0.0191406,95.8008,-88.2971,7.49817,0.976562,-0.549316,-0.366211,0.446167,0.561768,-0.431122,0.54715,-20541,6936,26345,-8985,-28663
7264,9.8,0.301465,0,96.1798,-88.3026,7.15759,0.976562,-1.15967,0.793457,0.446045,0.561859,-0.43103,0.547211,-19517,8472,25577,-8985,-28663
7270,9.74736,0.320605,-0.00478516,96.4874,-88.3081,6.86646,0.976562,-1.77002,1.2207,0.445923,0.561951,-0.431,0.547272,-19005,9240,26601,-8985,-28663
7276,9.74736,0.31582,0,96.795,-88.3136,6.57532,1.15967,-1.70898,1.46484,0.44577,0.562042,-0.430969,0.547333,-18749,9752,26345,-8985,-28663
7282,9.78086,0.311035,0,97.1301,-88.3191,6.25671,0.976562,-1.77002,2.13623,0.445618,0.562103,-0.430939,0.547363,-18237,10264,26857,-8985,-28663
7288,9.78086,0.253613,-0.0430664,97.5311,-88.3301,5.8667,0.549316,-2.13623,2.68555,0.445312,0.562225,-0.431,0.547455,-17725,10776,27113,-8985,-28663
7294,9.83828,0.244043,-0.0143555,98.3386,-88.3521,5.08118,0.549316,-2.0752,2.2583,0.44516,0.562256,-0.43103,0.547516,-17213,11032,28137,-8985,-28663
7300,9.7665,0.282324,-0.062207,98.6737,-88.3575,4.75708,0.549316,-1.77002,1.89209,0.445038,0.562317,-0.431091,0.547546,-16957,11288,29417,-8985,-28663
7306,9.8,0.263184,-0.0861328,98.8879,-88.3685,4.55933,0.427246,-0.976562,2.0752,0.444885,0.562347,-0.431091,0.547577,-16701,12056,30953,-8985,-28663
7312,9.79521,0.239258,-0.0478516,98.9868,-88.3795,4.47144,0.793457,-0.305176,2.19727,0.444763,0.562378,-0.431122,0.547638,-16445,12568,32233,-8985,-28663
7318,9.88613,0.162695,-0.0382813,98.9758,-88.385,4.49341,0.854492,0.0610352,0.488281,0.44455,0.562439,-0.431061,0.547821,-16701,13336,32745,-8985,-28663
7324,9.93398,0.110059,-0.0957031,98.8055,-88.385,4.70215,1.09863,0.732422,-1.0376,0.444458,0.562469,-0.431,0.547913,-15677,14872,31721,-8985,-28663
7330,9.91963,0.119629,-0.0813477,98.454,-88.374,5.07568,1.09863,1.58691,-2.80762,0.444397,0.562561,-0.430847,0.547974,-14909,15896,30441,-8985,-28663
7336,9.91006,0.062207,-0.0382813,97.8882,-88.3466,5.66895,1.70898,2.56348,-5.12695,0.444397,0.562653,-0.430634,0.548065,-14141,16408,30441,-8985,-28663
7342,9.94834,0.0765625,-0.0526367,97.1356,-88.3136,6.45996,2.74658,3.479,-7.75146,0.444427,0.562805,-0.430328,0.548126,-13885,16920,30185,-8985,-28663
7348,9.64688,0.526367,0.0574219,96.3336,-88.2751,7.30591,2.86865,3.35693,-5.61523,0.44455,0.563232,-0.429413,0.548309,-13885,17432,29161,-8985,-28663
7354,9.53682,0.6125,0.124414,95.3668,-88.2422,8.34961,2.44141,1.89209,-2.19727,0.44455,0.563385,-0.429016,0.548431,-14653,16920,27881,-8985,-28663
7360,9.53203,0.62207,0.0765625,95.3009,-88.2532,8.44849,3.66211,0.671387,2.19727,0.444489,0.563507,-0.428741,0.548584,-15421,16408,26601,-8985,-28663
7366,9.57031,0.507227,0.00478516,95.246,-88.2806,8.54187,3.96729,0.976562,6.28662,0.444275,0.563599,-0.428619,0.548767,-15677,16408,26089,-8985,-28663
7372,9.62773,0.45459,0.133984,95.3064,-88.3246,8.5144,4.76074,0.488281,8.72803,0.44397,0.563599,-0.428589,0.549042,-15677,16152,25833,-8985,-28663
7378,9.78564,0.267969,-0.0239258,95.9106,-88.429,7.98706,4.15039,-0.915527,10.7422,0.443146,0.563538,-0.42865,0.549713,-14909,16152,25833,-8985,-28663
7384,9.82871,0.287109,0.0191406,96.3226,-88.4784,7.60803,4.45557,-1.0376,10.9863,0.442719,0.563477,-0.428772,0.550018,-14141,15128,26857,-8985,-28663
7390,9.75693,0.339746,-0.0191406,96.8115,-88.5388,7.15759,4.45557,-1.15967,11.9629,0.442261,0.563446,-0.428894,0.550354,-14397,14360,27881,-8985,-28663
7396,9.77607,0.311035,-0.0334961,97.5311,-88.5992,6.46545,3.78418,-2.01416,12.9395,0.441803,0.563385,-0.429016,0.550659,-14909,14360,28905,-8985,-28663
7402,9.78086,0.267969,-0.0382813,98.4869,-88.6597,5.53162,2.92969,-2.80762,13.3057,0.441315,0.563293,-0.42923,0.550964,-15677,14360,28905,-8985,-28663
7408,9.72344,0.248828,-0.215332,100.519,-88.786,3.54309,0.732422,-2.0752,13.5498,0.440369,0.56311,-0.429749,0.551514,-16445,15128,27881,-8985,-28663
7414,9.88135,0.253613,0.00478516,101.343,-88.8519,2.7301,-0.488281,-0.854492,14.2822,0.439911,0.562988,-0.429993,0.551819,-16189,16152,26345,-8985,-28663
7420,9.81436,0.0717773,0.0191406,102.508,-88.9178,1.57654,-0.976562,-1.83105,13.9771,0.439514,0.562805,-0.430298,0.552094,-14909,16664,26089,-8985,-28663
7426,9.91963,0.0334961,0.0287109,103.986,-88.9728,0.098877,-0.732422,-2.80762,12.5732,0.439117,0.562622,-0.430634,0.552338,-13373,17176,25833,-8985,-28663
7432,9.99619,-0.0239258,-0.110059,105.425,-89.0167,-1.32385,-0.793457,-2.68555,10.2539,0.438721,0.562469,-0.430939,0.552551,-12349,18456,25577,-8985,-28663
7438,9.81914,0.119629,-0.0813477,107.391,-89.0881,-3.27942,-1.83105,-0.915527,7.56836,0.438171,0.562286,-0.431396,0.552826,-11069,20248,25577,-8985,-28663
7444,9.73301,0.162695,-0.090918,108.375,-89.1211,-4.2572,-2.56348,-0.915527,7.8125,0.437958,0.562195,-0.431549,0.552979,-8765,23320,24041,-8985,-28663
7450,9.74258,0.110059,-0.090918,109.297,-89.1541,-5.17456,-2.74658,-0.549316,7.56836,0.437714,0.562103,-0.431732,0.553101,-7485,25624,22505,-8985,-28663
7456,9.8335,0.100488,-0.0239258,110.154,-89.187,-6.026,-2.19727,-0.183105,7.38525,0.437531,0.562012,-0.431885,0.553253,-6461,27672,20713,-8985,-28663
7462,9.84785,0.0717773,-0.062207,111.017,-89.22,-6.88293,-2.50244,-0.0610352,7.20215,0.437317,0.56189,-0.432037,0.553406,-4925,29976,18921,-8985,-28663
7468,9.87656,-0.0239258,-0.14834,112.33,-89.2639,-8.17383,-3.2959,0,4.5166,0.436951,0.561737,-0.432251,0.55368,-3901,31512,18153,-8985,-28663
7474,9.91963,-0.0574219,-0.15791,112.385,-89.2749,-8.21777,-4.39453,0.732422,2.56348,0.436798,0.561676,-0.432312,0.553802,-1853,32536,18665,-8985,-28663
7480,9.99141,-0.119629,-0.15791,111.786,-89.2804,-7.60254,-4.94385,1.77002,0.671387,0.436707,0.561676,-0.432281,0.553925,-573,-32744,19433,-8985,-28663
7486,9.93877,-0.124414,-0.129199,110.506,-89.2749,-6.29517,-6.22559,2.50244,-2.19727,0.436646,0.561676,-0.432159,0.554047,452,-32488,21225,-8985,-28663
7492,9.94834,-0.0813477,-0.129199,108.913,-89.2584,-4.67468,-7.14111,2.74658,-4.21143,0.436646,0.561768,-0.431946,0.554138,1220,-31720,22761,-8985,-28663
7498,9.91006,0.00478516,0.0239258,105.562,-89.198,-1.25244,-8.66699,2.2583,-7.69043,0.436676,0.562073,-0.431274,0.554321,2244,-30696,23529,-8985,-28663
7504,9.84307,0.0239258,0.100488,104.315,-89.1541,0.0219727,-8.60596,1.28174,-8.91113,0.436737,0.562286,-0.430847,0.554352,2756,-28648,25833,-8985,-28663
7510,9.8335,0.114844,0.0717773,103.524,-89.1101,0.840454,-8.66699,0,-9.64355,0.436829,0.562561,-0.43045,0.554352,3268,-28136,27625,-8985,-28663
7516,9.78086,0.16748,0.124414,103.134,-89.0662,1.25244,-8.72803,-0.976562,-9.09424,0.43689,0.562866,-0.430054,0.554291,3268,-27880,30697,-8985,-28663
7522,9.72344,0.229688,0.153125,103.271,-89.0222,1.1261,-8.30078,-2.56348,-8.36182,0.437012,0.56311,-0.429749,0.554169,3012,-27368,-31767,-8985,-28663
7528,9.74258,0.234473,-0.00478516,104.683,-88.9453,-0.285645,-7.8125,-4.76074,-6.10352,0.437195,0.563599,-0.429443,0.553772,2244,-26856,-29463,-8985,-28663
7534,9.69951,0.239258,-0.124414,105.474,-88.9178,-1.08215,-7.8125,-4.63867,-5.24902,0.437286,0.563782,-0.429413,0.553528,1476,-27112,-29719,-8985,-28663
7540,9.66123,0.301465,-0.0957031,106.188,-88.8959,-1.80725,-8.36182,-4.02832,-3.479,0.437378,0.563995,-0.429382,0.553284,1220,-27624,-30231,-8985,-28663
7546,9.67559,0.267969,-0.0813477,106.93,-88.8849,-2.55432,-8.60596,-3.72314,-1.77002,0.437408,0.564117,-0.429413,0.553101,1476,-28136,-30487,-8985,-28663
7552,9.68037,0.291895,-0.00957031,107.71,-88.8794,-3.35083,-8.42285,-3.41797,0.0610352,0.437439,0.564178,-0.429504,0.552948,1732,-28392,-29975,-8985,-28663
7558,9.63731,0.354102,0.0430664,109.484,-88.8904,-5.15808,-5.24902,-2.92969,3.479,0.437439,0.564178,-0.42981,0.552704,1988,-29416,-26903,-8985,-28663
7564,9.68037,0.339746,0.0287109,110.599,-88.9178,-6.28967,-3.78418,-2.50244,6.28662,0.437378,0.564117,-0.430023,0.552643,1476,-30184,-25367,-8985,-28663
7570,9.69473,0.334961,0,111.901,-88.9508,-7.59705,-2.44141,-2.19727,8.30078,0.437256,0.563995,-0.430298,0.552643,1220,-31208,-25111,-8985,-28663
7576,9.72344,0.282324,0.0143555,113.346,-88.9948,-9.05273,-0.854492,-1.70898,9.94873,0.437073,0.563873,-0.430573,0.552734,708,-31720,-25367,-8985,-28663
7582,9.73779,0.239258,-0.0430664,114.741,-89.0442,-10.448,0.427246,-0.549316,11.0474,0.436829,0.56369,-0.430878,0.552856,452,-31976,-26135,-8985,-28663
7588,9.80479,0.13877,-0.105273,118.24,-89.1486,-13.9362,1.0376,-0.12207,12.5732,0.436279,0.563293,-0.431427,0.553284,452,-32488,-27671,-8985,-28663
7594,9.84307,0.0957031,-0.143555,120.146,-89.2035,-15.8368,0.732422,0.366211,12.3291,0.435944,0.56308,-0.431702,0.553528,708,32536,-25879,-8985,-28663
7600,9.75215,0.114844,-0.0669922,122.272,-89.2584,-17.9517,0.732422,0.793457,12.7563,0.435608,0.562866,-0.431946,0.553802,1476,-32488,-23575,-8985,-28663
7606,9.74258,0.124414,-0.0957031,124.854,-89.3188,-20.517,0.671387,0.976562,13.4888,0.435272,0.562653,-0.43219,0.554108,2244,-31720,-22807,-8985,-28663
7612,9.74258,0.119629,-0.124414,127.936,-89.3793,-23.5876,0.183105,1.58691,14.4043,0.434937,0.562439,-0.432434,0.554413,2756,-30440,-22039,-8985,-28663
7618,9.80957,0.0382813,-0.0239258,136.132,-89.5056,-31.7615,-0.12207,2.44141,15.3809,0.434204,0.56192,-0.432922,0.555145,4292,-26856,-23319,-8985,-28663
7624,9.84307,0,0.00957031,141.976,-89.5551,-37.5897,-0.366211,1.95312,14.7705,0.433807,0.561615,-0.433167,0.555542,4804,-25576,-23575,-8985,-28663
7630,9.91484,-0.0861328,0.0334961,149.073,-89.6045,-44.6759,0,1.34277,13.916,0.433441,0.56134,-0.433441,0.555908,6340,-24040,-22039,-8985,-28663
7636,9.93877,-0.172266,0.0526367,156.253,-89.632,-51.85,0.549316,0.732422,11.5356,0.433105,0.561096,-0.433685,0.556244,7364,-23016,-19479,-8985,-28663
7642,9.93398,-0.153125,0.0478516,163.141,-89.6484,-58.7329,0.976562,-0.12207,9.52148,0.4328,0.560883,-0.433899,0.556519,8644,-21224,-18455,-8985,-28663
7648,9.86221,-0.0861328,-0.0334961,174.875,-89.6539,-70.4553,0.915527,-0.976562,7.20215,0.432312,0.560638,-0.434235,0.556854,10692,-17128,-17943,-8985,-28663
7654,9.83828,-0.0765625,-0.0287109,179.714,-89.6539,-75.2893,0.610352,-0.976562,6.10352,0.432098,0.560547,-0.434387,0.557007,11204,-15592,-19223,-8985,-28663
7660,9.8335,-0.062207,-0.0669922,-176.402,-89.6429,-79.1565,0.366211,-1.15967,5.06592,0.431915,0.560486,-0.434509,0.557098,11460,-14056,-19991,-8985,-28663
7666,9.8335,-0.0478516,-0.0813477,-172.969,-89.6375,-82.5787,-0.183105,-0.854492,4.63867,0.431763,0.560455,-0.434631,0.55719,11460,-12520,-20759,-8985,-28663
7672,9.79043,-0.0239258,-0.100488,-169.832,-89.632,-85.7098,-0.854492,-1.09863,4.45557,0.431396,0.560425,-0.434753,0.557404,11460,-11240,-20759,-8985,-28663
7678,9.82393,-0.0574219,-0.0191406,-163.037,-89.61,-92.4884,-0.854492,-1.40381,5.31006,0.431244,0.560364,-0.434845,0.557495,12996,-8168,-19223,-8985,-28663
7684,9.75693,-0.0334961,0.0191406,-160.104,-89.5935,-95.4218,-0.549316,-1.64795,5.06592,0.431061,0.560333,-0.434967,0.557587,13764,-7144,-19223,-8985,-28663
7690,9.83828,-0.0526367,-0.0574219,-157.242,-89.577,-98.2837,0,-1.70898,5.31006,0.430908,0.560272,-0.43512,0.557617,14788,-6120,-19223,-8985,-28663
7696,9.83828,-0.13877,-0.143555,-155.16,-89.566,-100.333,0.305176,-0.915527,3.96729,0.430756,0.560242,-0.435272,0.557678,15812,-5352,-19223,-8985,-28663
7702,9.91963,-0.177051,-0.153125,-153.688,-89.5605,-101.755,0.183105,-0.12207,2.68555,0.430176,0.560455,-0.435028,0.558105,16068,-5096,-19479,-8985,-28663
7708,9.9292,-0.181836,0.0239258,-154.177,-89.5715,-101.041,0.610352,0.549316,-1.70898,0.429718,0.560791,-0.43457,0.558472,17348,-4584,-21015,-8985,-28663
7714,9.85264,-0.0957031,-0.0334961,-156.077,-89.577,-98.9813,0.610352,-0.244141,-2.99072,0.429138,0.56131,-0.433868,0.558929,18116,-4328,-21271,-8985,-28663
7720,9.79043,-0.0287109,-0.0574219,-158.406,-89.577,-96.4764,0.610352,-0.854492,-3.35693,0.428467,0.561951,-0.433014,0.559479,19140,-3304,-21015,-8985,-28663
7726,9.78564,-0.00478516,-0.090918,-160.532,-89.5825,-94.1748,0,-0.854492,-2.99072,0.427673,0.562683,-0.432098,0.560028,20164,-2280,-21271,-8985,-28663
7732,9.84307,-0.0957031,-0.105273,-162.576,-89.5825,-91.9336,-0.244141,-0.427246,-2.99072,0.425964,0.56424,-0.430115,0.56131,21444,-1768,-21527,-8985,-28663
7738,9.90527,-0.114844,-0.0526367,-169.464,-89.599,-84.5782,-0.671387,0.366211,-5.79834,0.424957,0.565155,-0.428894,0.562073,23236,-2280,-24855,-8985,-28663
7744,9.83828,-0.0813477,-0.0669922,-174.232,-89.6045,-79.5465,-1.34277,0.12207,-6.71387,0.42392,0.566162,-0.427551,0.562866,23492,-2792,-26135,-8985,-28663
7750,9.81914,-0.062207,-0.0669922,-179.544,-89.6045,-73.9764,-2.13623,-0.12207,-7.32422,0.422852,0.567261,-0.426117,0.56369,23492,-3304,-27415,-8985,-28663
7756,9.8,-0.0765625,-0.0526367,174.847,-89.599,-68.0988,-2.80762,-0.610352,-7.8125,0.421722,0.568359,-0.424622,0.564514,22724,-3816,-27927,-8985,-28663
7762,9.83828,0.00478516,-0.0430664,170.096,-89.588,-63.067,-3.66211,-1.83105,-7.08008,0.419312,0.57074,-0.42157,0.566223,21956,-4328,-26647,-8985,-28663
7768,9.70908,0.062207,-0.186621,163.477,-89.5496,-55.9204,-7.44629,-2.56348,-4.82178,0.418091,0.57193,-0.420105,0.567017,21444,-5096,-23063,-8985,-28663
7774,9.75693,0.00478516,-0.220117,161.658,-89.5276,-53.855,-9.70459,-2.44141,-3.84521,0.41687,0.573029,-0.418762,0.56778,21444,-5096,-21015,-8985,-28663
7780,9.85742,-0.0526367,-0.13877,159.813,-89.5111,-51.7731,-11.7188,-2.68555,-4.21143,0.41571,0.574036,-0.41748,0.568542,21700,-5096,-19735,-8985,-28663
7786,9.90527,-0.13877,-0.00478516,157.484,-89.4836,-49.1913,-11.8408,-3.05176,-5.61523,0.414581,0.575073,-0.416199,0.569275,21700,-4840,-18967,-8985,-28663
7792,9.93398,-0.062207,-0.00957031,154.325,-89.4507,-45.7581,-10.6201,-3.72314,-8.17871,0.41217,0.577393,-0.413361,0.57074,21444,-4328,-18455,-8985,-28663
7798,9.82871,-0.0334961,-0.0526367,148.771,-89.3518,-39.6497,-11.8408,-6.40869,-10.1318,0.410919,0.578674,-0.411804,0.571442,21188,-3048,-15127,-8985,-28663
7804,9.79043,0.0334961,-0.129199,146.887,-89.2914,-37.4908,-12.7563,-7.50732,-10.1318,0.409668,0.580048,-0.410248,0.572113,21700,-2792,-12823,-8985,-28663
7810,9.78564,0.0957031,-0.124414,145.624,-89.2365,-35.9528,-13.7939,-7.8125,-9.27734,0.408417,0.58139,-0.408722,0.572723,21956,-3048,-11287,-8985,-28663
7816,9.79043,0.0287109,-0.0957031,144.657,-89.176,-34.7113,-14.0381,-7.69043,-8.78906,0.407135,0.582733,-0.407257,0.573303,21700,-3560,-9239,-8985,-28663
7822,9.73301,0.153125,-0.210547,143.674,-89.1211,-33.4534,-13.5498,-7.01904,-8.8501,0.404541,0.585358,-0.404297,0.574554,21188,-4328,-7703,-8985,-28663
7828,9.60859,0.29668,-0.15791,141.998,-89.0387,-31.2122,-11.4136,-3.66211,-5.98145,0.403259,0.586639,-0.40274,0.575256,18628,-4328,-4887,-8985,-28663
7834,9.63731,0.287109,-0.205762,141.801,-89.0222,-30.7343,-10.6201,-2.31934,-2.80762,0.401917,0.58783,-0.401215,0.57605,17348,-4072,-2839,-8985,-28663
7840,9.70908,0.162695,-0.090918,141.888,-89.0112,-30.542,-10.498,-1.70898,-1.09863,0.400513,0.588928,-0.399719,0.576935,15812,-3560,490,-8985,-28663
7846,9.8,0.16748,0.00957031,142.41,-89.0057,-30.7837,-10.1929,-2.44141,0.244141,0.399078,0.589966,-0.398285,0.57785,14532,-2792,4074,-8985,-28663
7852,9.75215,0.248828,0.00957031,143.498,-88.9948,-31.6022,-10.0708,-3.72314,1.83105,0.396179,0.59198,-0.39563,0.57962,13508,-2792,6890,-8985,-28663
7858,9.74258,0.191406,0.0382813,147.217,-88.9783,-34.8157,-7.69043,-5.98145,4.69971,0.394684,0.592926,-0.39447,0.580444,10948,-2280,12522,-8985,-28663
7864,9.71865,0.215332,0.0478516,149.529,-88.9673,-36.8811,-5.85938,-6.34766,5.7373,0.393188,0.593872,-0.393402,0.581238,10436,-2536,14314,-8985,-28663
7870,9.69951,0.258398,0.062207,152.441,-88.9508,-39.5673,-4.21143,-7.38525,7.93457,0.391693,0.594757,-0.392395,0.582031,9668,-3048,15850,-8985,-28663
7876,9.75693,0.200977,0.0813477,155.764,-88.9343,-42.6764,-2.38037,-8.66699,9.33838,0.390198,0.595581,-0.391541,0.582764,8900,-3560,17130,-8985,-28663
7882,-6.31641,19.5474,16.0111,155.874,-88.9014,-42.5116,3.11279,-6.40869,-2.74658,0.387268,0.597473,-0.389435,0.584167,8388,-3560,17898,-8985,-28663
7888,39.1952,39.1426,38.8459,81.2714,-83.2269,33.7061,141.113,427.49,-369.934,0.40506,0.614777,-0.362366,0.571472,3780,-7656,18410,-8985,-28663
7894,40.2432,33.5918,-58.4938,58.4198,-84.0509,55.6622,-231.384,395.081,326.904,0.417542,0.612061,-0.341125,0.5784,-3645,-14312,15338,-8985,-28663
7900,56.728,-25.8446,59.0728,44.0552,-84.0454,70.0488,-10.8032,228.943,189.88,0.420807,0.593353,-0.347473,0.591583,-12093,-23784,8682,-8985,-28663
7906,12.3218,-12.1687,14.9967,47.1423,-84.4135,66.5936,-62.6221,-105.591,7.93457,0.419769,0.58432,-0.348206,0.60083,-21821,31768,-2071,-8985,-28663
7912,-2.79453,5.49814,-1.01445,60.683,-85.166,52.2345,-144.653,-303.589,-27.8931,0.420013,0.591003,-0.360596,0.586639,-30013,23064,-13335,-8985,-28663
7918,-3.87598,0.363672,-1.40205,80.4089,-86.4185,32.124,43.0908,-101.807,121.216,0.41803,0.595581,-0.368439,0.578491,26051,11288,-32023,-8985,-28663
7924,-2.4835,-0.76084,-3.31133,78.7335,-87.1985,34.3817,121.643,-9.76562,163.513,0.412598,0.596771,-0.372284,0.578705,22723,7704,30441,-8985,-28663
7930,18.2362,6.21113,-5.61299,72.5372,-87.6709,40.946,71.9604,27.9541,111.511,0.405487,0.596375,-0.373505,0.583344,20931,5656,30185,-8985,-28663
7936,22.5285,-1.68438,-7.37871,66.1047,-87.6984,47.395,-2.44141,42.8467,27.4048,0.401459,0.595062,-0.37384,0.58725,20675,5144,31209,-8985,-28663
7942,14.4607,-2.08633,1.28721,64.4019,-87.5281,48.8397,-54.1382,21.1792,-21.7285,0.403992,0.592377,-0.37381,0.588257,21955,5656,31465,-8985,-28663
7948,8.59893,0.60293,0.77998,69.8291,-87.0117,42.8632,-58.7158,-11.0474,-59.1431,0.406616,0.592529,-0.373688,0.586365,24771,8472,31721,-8985,-28663
7954,7.39307,2.12461,1.69395,70.8618,-86.8304,41.6162,-40.3442,-4.02832,-35.2783,0.409607,0.592682,-0.373749,0.584076,26051,8984,31977,-8985,-28663
7960,8.51279,2.27295,0.607715,70.34,-86.77,42.0557,-16.2964,5.18799,-6.83594,0.411652,0.59256,-0.37384,0.582703,26819,9496,32489,-8985,-28663
7966,8.9626,1.46426,0.416309,69.4006,-86.748,42.9675,-6.16455,7.87354,2.19727,0.412476,0.592194,-0.373871,0.582458,27075,8984,-32023,-8985,-28663
7972,10.3312,0.15791,0.090918,68.4229,-86.6986,43.9178,-7.01904,10.1929,-1.89209,0.41333,0.591431,-0.373596,0.582794,27075,7960,-30743,-8985,-28663
7978,9.78564,0.401953,0.0430664,67.0715,-86.5668,45.1483,-15.3198,7.44629,-7.75146,0.414032,0.591064,-0.373352,0.582825,26819,6680,-26647,-8985,-28663
7984,8.21133,0.200977,0.253613,66.4783,-86.5448,45.6537,-18.9209,4.69971,0.366211,0.414825,0.590729,-0.37326,0.582672,25795,5400,-25623,-8985,-28663
7990,8.74248,0.45459,0.339746,65.3687,-86.5997,46.6864,-17.5781,4.08936,17.395,0.415466,0.59024,-0.373535,0.58255,25027,4376,-23575,-8985,-28663
7996,9.36455,0.712988,0.339746,63.5834,-86.7041,48.4113,-15.0757,6.34766,30.2124,0.415588,0.589539,-0.374207,0.582733,24771,3352,-22039,-8985,-28663
8002,9.60381,1.24893,0.732129,61.5234,-86.8524,50.4272,-10.8032,-0.183105,44.4336,0.414764,0.587677,-0.37616,0.583923,24515,3608,-21271,-8985,-28663
8008,9.67559,1.4499,0.598145,57.2003,-87.2205,54.6899,-10.6812,-4.39453,45.5322,0.41391,0.586792,-0.37738,0.584656,25283,5912,-18967,-8985,-28663
8014,9.35498,1.11973,0.736914,54.9207,-87.4182,56.9531,-8.66699,-7.26318,47.3022,0.412933,0.586029,-0.378662,0.585266,26051,7448,-18455,-8985,-28663
8020,9.81436,1.00967,0.60293,52.2949,-87.627,59.5844,-5.18799,-9.15527,49.6826,0.411804,0.585358,-0.379974,0.585907,27331,8216,-17431,-8985,-28663
8026,9.84785,0.799121,0.545508,49.1254,-87.8577,62.7704,-3.60107,-12.0239,53.7109,0.410461,0.584747,-0.381287,0.586609,29123,9240,-14871,-8985,-28663
8032,9.94355,0.105273,0.512012,45.4065,-88.0884,66.5167,-1.0376,-18.3716,55.2979,0.407257,0.58371,-0.384125,0.588013,30915,10776,-12567,-8985,-28663
8038,10.0249,-0.234473,0.263184,35.8594,-88.5498,76.1243,0,-19.3481,52.124,0.405518,0.583313,-0.38559,0.588623,-29501,16920,-8215,-8985,-28663
8044,10.1254,-0.507227,0.090918,30.0476,-88.7421,81.9745,-0.305176,-19.5312,46.5698,0.403778,0.583038,-0.386993,0.589203,-26429,20504,-6935,-8985,-28663
8050,10.3694,-0.449805,-0.0669922,23.5602,-88.8959,88.4894,-1.28174,-18.1885,40.5273,0.402222,0.582825,-0.388245,0.58963,-23101,25624,-4631,-8985,-28663
8056,9.85264,-0.430664,0.0574219,16.3751,-89.0222,95.7019,-0.854492,-16.3574,35.3394,0.400818,0.582703,-0.389374,0.589996,-19005,30232,-2583,-8985,-28663
8062,10.1445,-0.674707,-0.124414,8.81104,-89.1101,103.288,-3.60107,-12.146,24.1699,0.39856,0.582489,-0.391113,0.590546,-14653,-30184,-279,-8985,-28663
8068,10.0632,-0.636426,-0.119629,-4.13086,-89.209,116.246,-5.06592,-10.0708,18.4937,0.397766,0.582428,-0.391815,0.590698,-5437,-20200,2794,-8985,-28663
8074,10.0105,-0.512012,-0.401953,-8.53638,-89.2255,120.641,-7.20215,-5.85938,13.3667,0.397186,0.582367,-0.392365,0.59079,-829,-15848,4586,-8985,-28663
8080,9.78564,-0.497656,-0.215332,-11.4642,-89.2145,123.552,-8.42285,-0.793457,9.82666,0.396881,0.582245,-0.392792,0.59082,4036,-11496,4074,-8985,-28663
8086,9.80957,-0.368457,-0.100488,-13.233,-89.1925,125.299,-8.8501,2.0752,7.26318,0.396759,0.582031,-0.393066,0.590942,8900,-7656,4586,-8985,-28663
8092,9.95312,-0.31582,0.0334961,-14.9194,-89.1211,126.942,-10.0708,5.98145,4.94385,0.396881,0.581482,-0.393402,0.591187,13508,-3816,4842,-8985,-28663
8098,9.86221,-0.387598,0.215332,-14.9689,-89.0881,126.964,-8.66699,6.04248,3.23486,0.397034,0.581146,-0.393494,0.591339,19908,4377,5866,-8985,-28663
8104,10.0632,-0.339746,0.143555,-14.3427,-89.0497,126.315,-6.89697,6.40869,0.915527,0.397217,0.580841,-0.393555,0.591461,22468,7961,6634,-8985,-28663
8110,9.91963,-0.392383,0.196191,-13.1396,-89.0167,125.09,-5.92041,6.53076,-1.34277,0.397461,0.580566,-0.393524,0.591583,24260,11289,7402,-8985,-28663
8116,9.93877,-0.387598,0.181836,-11.5082,-88.9893,123.437,-4.76074,5.85938,-3.41797,0.397766,0.580353,-0.393463,0.591644,26308,14105,8682,-8985,-28663
8122,9.91963,-0.45459,0.200977,-6.11938,-88.9508,117.982,-2.92969,4.27246,-9.64355,0.39856,0.580048,-0.393188,0.591583,28100,16409,10218,-8985,-28663
8128,9.94834,-0.459375,0.272754,-2.18628,-88.9398,113.994,-3.2959,2.92969,-13.6719,0.399109,0.579987,-0.393036,0.5914,30660,20505,11498,-8985,-28663
8134,9.85264,-0.416309,0.344531,2.50488,-88.9343,109.226,-3.66211,0.549316,-16.9678,0.399811,0.579956,-0.392883,0.591034,31428,21785,10986,-8985,-28663
8140,9.87656,-0.205762,0.392383,7.69592,-88.9343,103.947,-3.54004,-2.68555,-18.7988,0.400635,0.579956,-0.392792,0.590515,32196,22553,10730,-8985,-28663
8146,9.79043,-0.114844,0.435449,12.9089,-88.9508,98.6243,-5.7373,-7.44629,-18.0054,0.40155,0.580048,-0.392792,0.589813,-32316,23065,10474,-8985,-28663
8152,9.78086,0,0.382812,24.5544,-89.0332,86.6931,-8.42285,-16.7236,-16.1743,0.403381,0.580322,-0.393463,0.58786,-31292,23321,10986,-8985,-28663
8158,9.61816,0.14834,0.301465,30.9705,-89.0826,80.1233,-9.27734,-20.0195,-13.5498,0.404266,0.580505,-0.394073,0.58667,-30012,22297,13290,-8985,-28663
8164,9.7665,0.224902,0.133984,37.4249,-89.1431,73.5095,-11.1084,-22.2778,-9.33838,0.40509,0.580688,-0.394836,0.585388,-29500,22297,15082,-8985,-28663
8170,9.62295,0.0861328,0.0717773,44.3024,-89.209,66.4508,-12.5732,-23.3154,-6.53076,0.405792,0.580841,-0.395813,0.584106,-30268,22297,18666,-8985,-28663
8176,9.60859,0.0334961,0.0239258,51.6962,-89.2639,58.8812,-12.3291,-22.9492,-4.76074,0.406464,0.580933,-0.396912,0.582794,-31292,22553,22250,-8985,-28663
8182,9.78086,-0.0765625,-0.311035,67.2748,-89.3353,42.9401,-13.0005,-19.8975,-3.23486,0.407745,0.580933,-0.399231,0.580292,-32572,23065,25834,-8985,-28663
8188,9.7665,-0.105273,-0.421094,73.9819,-89.3463,36.0297,-15.625,-16.2354,-2.68555,0.408447,0.580811,-0.400452,0.579102,30916,23321,30186,-8985,-28663
8194,9.74258,0.00478516,-0.31582,79.14,-89.3518,30.6628,-16.4795,-12.3901,-2.01416,0.409271,0.580536,-0.401672,0.577942,30916,23065,31978,-8985,-28663
8200,9.7043,0.114844,-0.291895,82.4634,-89.3573,27.1417,-16.1133,-8.42285,0.305176,0.410156,0.580139,-0.402863,0.576874,30660,22553,-32278,-8985,-28663
8206,9.7043,0.119629,-0.16748,84.5068,-89.3738,24.906,-15.564,-5.61523,2.86865,0.411011,0.57962,-0.404022,0.575958,30404,21785,-29974,-8985,-28663
8212,9.65645,0.0382813,-0.16748,86.2701,-89.4287,22.8076,-13.7939,-1.89209,5.92041,0.412506,0.57843,-0.406189,0.574585,30148,21273,-26390,-8985,-28663
8218,9.71865,0,0.0526367,86.2592,-89.4672,22.6703,-12.207,-1.0376,7.26318,0.413147,0.577789,-0.407166,0.574097,27844,19225,-18966,-8985,-28663
8224,9.81914,-0.00478516,0.13877,86.5942,-89.5056,22.2034,-10.0708,-1.64795,7.8125,0.413696,0.577148,-0.408112,0.573669,27588,18713,-15126,-8985,-28663
8230,9.74258,-0.0143555,0.215332,87.7808,-89.5496,20.896,-7.69043,-2.92969,8.48389,0.414154,0.576538,-0.408997,0.573303,27844,18969,-12054,-8985,-28663
8236,2.90459,-1.24893,0.0669922,83.941,-89.4397,24.5654,1.2207,7.69043,-20.752,0.41449,0.576019,-0.409851,0.572968,28100,19481,-8470,-8985,-28663
8242,59.3981,49.2297,-61.6328,61.8585,-83.5071,47.0819,46.0205,420.837,-309.57,0.437744,0.582764,-0.38913,0.563232,23492,18457,-4374,-8985,-28663
8248,29.5005,-1.47861,71.2079,46.7139,-83.7708,61.7871,-96.9238,232.422,232.544,0.44989,0.579681,-0.370483,0.569366,18628,14873,-5398,-8985,-28663
8254,25.3183,-14.3028,21.1743,46.1426,-84.1937,61.9794,-49.1333,-58.5938,64.9414,0.450531,0.567963,-0.37439,0.578033,12740,8729,-10006,-8985,-28663
8260,6.12979,-2.3208,8.98174,57.5299,-85.0397,49.8505,-110.718,-287.292,-7.62939,0.44989,0.566833,-0.378998,0.576691,5572,1049,-15126,-8985,-28663
8266,-15.4943,6.92891,2.10547,74.9103,-85.8966,31.9922,-62.2559,-332.336,42.9077,0.448792,0.571289,-0.387756,0.5672,-829,-6376,-20502,-8985,-28663
8272,9.26406,4.91436,-7.47441,86.6876,-88.017,21.5662,192.139,-19.104,222.534,0.434753,0.579651,-0.402557,0.559296,-9789,-17640,-21782,-8985,-28663
8278,22.7295,1.42119,-15.8245,82.2327,-88.385,26.4001,80.0781,19.5312,77.2095,0.424561,0.579437,-0.403961,0.566284,-12349,-19944,-20758,-8985,-28663
8284,11.5896,-8.63721,0.119629,80.2496,-88.4235,28.2074,-19.165,5.61523,9.33838,0.421143,0.578949,-0.403534,0.569641,-13117,-19688,-19734,-8985,-28663
8290,14.6234,-4.10566,-1.66045,82.1448,-88.1433,25.9717,-39.978,-7.26318,-57.6782,0.421997,0.577911,-0.404541,0.569366,-12093,-17640,-19734,-8985,-28663
8296,8.40752,1.3207,-1.18672,83.4686,-87.8467,24.2194,-58.7158,-6.7749,-61.0352,0.425018,0.577789,-0.404846,0.567017,-10557,-14824,-19222,-8985,-28663
8302,8.31182,2.96201,1.05273,82.6392,-87.7039,24.6039,-11.7798,5.24902,-0.671387,0.430847,0.576721,-0.406403,0.562592,-9021,-11752,-14358,-8985,-28663
8308,11.939,0.717773,-0.215332,81.1835,-87.7094,26.0046,1.2207,8.8501,2.44141,0.431641,0.57605,-0.406891,0.562317,-9021,-11496,-10774,-8985,-28663
8314,9.58945,-0.75127,0.535937,80.321,-87.6984,26.8011,0.732422,4.63867,-1.34277,0.432037,0.575531,-0.407013,0.562439,-8509,-11240,-6678,-8985,-28663
8320,10.0871,-0.339746,-0.239258,79.8651,-87.6434,27.1802,0,2.99072,-9.82666,0.432526,0.575134,-0.407166,0.562347,-8509,-11752,-3350,-8985,-28663
8326,9.32627,0.354102,-0.703418,78.75,-87.583,28.2129,-2.38037,9.15527,-10.5591,0.433228,0.57489,-0.407227,0.562012,-8253,-12264,-1302,-8985,-28663
8332,9.8335,0.507227,-0.248828,75.8881,-87.5336,30.899,-7.8125,11.1694,-0.12207,0.434875,0.573975,-0.407227,0.561676,-8253,-12776,1003,-8985,-28663
8338,8.64678,0.416309,0.468945,74.5093,-87.5446,32.1954,-7.26318,9.09424,4.21143,0.435547,0.573303,-0.407471,0.561676,-8253,-13032,1771,-8985,-28663
8344,9.87656,0.866113,0.272754,73.0701,-87.5775,33.5852,-3.479,8.11768,9.76562,0.436035,0.572632,-0.407806,0.561707,-7997,-13544,2795,-8985,-28663
8350,9.46504,0.90918,0.631641,71.5924,-87.6544,35.0409,-1.0376,5.61523,17.7612,0.436218,0.572052,-0.408112,0.561951,-7997,-13544,4331,-8985,-28663
8356,9.46982,0.636426,0.650781,70.4169,-87.7753,36.2164,2.2583,-0.305176,25.4517,0.435394,0.570984,-0.40918,0.562897,-7741,-13288,5099,-8985,-28663
8362,9.58945,0.062207,0.133984,68.1647,-88.0664,38.5291,5.79834,-4.39453,30.8228,0.434509,0.570587,-0.409821,0.563507,-7485,-10216,5867,-8985,-28663
8368,9.66602,-0.13877,-0.0478516,66.9232,-88.2092,39.809,5.12695,-4.76074,29.9072,0.433533,0.570251,-0.410492,0.564148,-6205,-9192,6635,-8985,-28663
8374,10.0488,-0.248828,-0.0430664,65.6708,-88.3466,41.0999,4.5166,-5.00488,27.5879,0.432526,0.569916,-0.411102,0.564758,-4925,-7912,7147,-8985,-28663
8380,10.1876,-0.191406,0.100488,64.5721,-88.4674,42.2314,4.21143,-5.85938,24.8413,0.43161,0.569672,-0.411682,0.565308,-3645,-7144,7659,-8985,-28663
8386,10.0823,-0.220117,0.110059,63.6987,-88.5883,43.1433,4.39453,-7.20215,23.0103,0.42984,0.569336,-0.41272,0.566223,-2109,-6376,7915,-8985,-28663
8392,10.1302,-0.545508,-0.0813477,63.2043,-88.7695,43.7091,5.00488,-7.75146,13.6108,0.429047,0.569305,-0.413147,0.566559,2500,-3048,9451,-8985,-28663
8398,9.86221,-0.559863,-0.15791,63.7372,-88.8135,43.1873,3.60107,-7.20215,7.38525,0.428436,0.569336,-0.413483,0.566772,5316,-1256,8939,-8985,-28663
8404,10.3407,-0.44502,-0.311035,64.4897,-88.8354,42.4292,1.77002,-5.37109,2.01416,0.42807,0.569397,-0.413727,0.566803,7876,25,8171,-8985,-28663
8410,9.80957,-0.406738,-0.0765625,65.495,-88.83,41.402,0.12207,-4.02832,-3.11279,0.427948,0.569458,-0.413879,0.566711,9924,1561,6635,-8985,-28663
8416,10.0967,-0.272754,-0.191406,66.6815,-88.808,40.1715,-0.183105,-3.23486,-6.89697,0.428406,0.569519,-0.414093,0.566132,11460,2329,6379,-8985,-28663
8422,9.86221,-0.0478516,-0.0239258,68.9502,-88.7366,37.793,-0.244141,-2.62451,-9.27734,0.428833,0.569519,-0.414185,0.565765,11716,4633,8171,-8985,-28663
8428,9.76172,0.0430664,-0.00478516,70.0378,-88.7036,36.6394,-0.427246,-2.86865,-8.54492,0.429291,0.569519,-0.414307,0.565338,11716,5913,10731,-8985,-28663
8434,9.81914,0.0382813,-0.00957031,71.1749,-88.6761,35.4364,-0.488281,-3.66211,-7.62939,0.429749,0.569489,-0.414459,0.56488,11972,6937,11755,-8985,-28663
8440,9.57988,0.0669922,-0.00957031,72.1692,-88.6542,34.3762,-0.549316,-3.479,-6.65283,0.430206,0.569427,-0.414673,0.564423,12740,7705,12523,-8985,-28663
8446,9.71387,0.0430664,-0.0334961,73.0261,-88.6322,33.4479,0.0610352,-3.2959,-5.49316,0.43103,0.569275,-0.415192,0.563568,13508,8473,12779,-8985,-28663
8452,9.72344,-0.0430664,0.0430664,74.6301,-88.5992,31.701,1.95312,-3.35693,-5.12695,0.431458,0.569183,-0.415466,0.563171,14788,9241,11499,-8985,-28663
8458,9.97705,0.0287109,-0.00957031,75.3552,-88.5773,30.9155,3.41797,-2.92969,-5.12695,0.431854,0.569061,-0.415771,0.562744,15044,9497,10987,-8985,-28663
8464,9.74736,0.0143555,0.0717773,76.0089,-88.5608,30.1959,4.82178,-2.74658,-4.82178,0.43222,0.56897,-0.416016,0.562347,15044,9497,11243,-8985,-28663
8470,9.78086,0.0430664,0.0430664,76.4923,-88.5498,29.6631,7.20215,-2.0752,-3.78418,0.432587,0.568878,-0.41629,0.561981,15044,10009,12011,-8985,-28663
8476,9.58467,0.100488,-0.0191406,76.7889,-88.5388,29.3225,8.42285,-1.28174,-3.05176,0.433136,0.568695,-0.416656,0.561462,15300,10265,12779,-8985,-28663
8482,9.71865,0.0765625,-0.287109,76.3495,-88.5333,29.696,6.95801,1.95312,-0.183105,0.43335,0.568573,-0.416809,0.56131,15300,10265,15083,-8985,-28663
8488,9.8,0.0287109,-0.14834,75.6903,-88.5388,30.3387,6.34766,3.11279,0.549316,0.433502,0.56842,-0.416931,0.561279,14788,10265,15083,-8985,-28663
8494,9.76172,0.0382813,-0.110059,74.7949,-88.5388,31.2177,6.53076,4.3335,0.732422,0.433655,0.568237,-0.417023,0.561279,14020,9753,15083,-8985,-28663
8500,9.81436,0.110059,-0.0574219,73.8281,-88.5443,32.1844,6.22559,4.57764,1.46484,0.433746,0.568054,-0.417053,0.561371,13252,8729,14571,-8985,-28663
8506,9.73301,0.00957031,-0.0478516,72.9932,-88.5553,33.0469,5.37109,3.41797,3.11279,0.433624,0.567841,-0.416901,0.561768,12228,7961,14315,-8985,-28663
8512,9.74736,-0.100488,-0.0574219,71.8781,-88.5992,34.2114,3.2959,1.09863,4.08936,0.433411,0.56781,-0.41687,0.562012,10692,6937,14315,-8985,-28663
8518,9.97227,-0.15791,-0.105273,71.5045,-88.6157,34.6014,2.38037,0.915527,2.80762,0.433167,0.56778,-0.41684,0.562225,10436,6937,13803,-8985,-28663
8524,9.86221,-0.133984,-0.0239258,71.3947,-88.6212,34.6948,1.0376,0.0610352,0.915527,0.433044,0.567749,-0.41684,0.562347,10436,6937,13547,-8985,-28663
8530,9.7665,-0.110059,0.00957031,71.5375,-88.6267,34.5135,0.732422,-0.976562,0.12207,0.433075,0.567688,-0.416962,0.562317,11204,7449,11755,-8985,-28663
8536,9.86221,-0.0574219,-0.00478516,71.8396,-88.6267,34.151,0.488281,-1.34277,-1.40381,0.433502,0.567383,-0.417511,0.56192,11716,7961,10475,-8985,-28663
8542,9.81914,-0.0334961,-0.00957031,72.9327,-88.6212,32.8766,0.305176,-2.74658,-2.50244,0.433899,0.567139,-0.417908,0.561523,12996,7705,8683,-8985,-28663
8548,9.82871,0.00478516,0,73.6908,-88.6157,32.0197,0.488281,-3.35693,-2.68555,0.434357,0.566895,-0.418396,0.561066,13252,7705,8171,-8985,-28663
8554,9.79521,0.0526367,-0.00478516,74.4928,-88.6157,31.1188,0.610352,-3.72314,-2.2583,0.434845,0.56662,-0.418915,0.560547,12740,7193,7915,-8985,-28663
8560,9.68037,0.0813477,0.0478516,75.3552,-88.6157,30.174,0.793457,-4.27246,-1.28174,0.435303,0.566376,-0.419434,0.560059,12996,6425,7147,-8985,-28663
8566,-20.4853,-5.1249,-1.57432,76.2561,-88.6267,29.2126,1.2207,-4.63867,-0.183105,0.435822,0.566071,-0.420319,0.559326,12740,5913,6635,-8985,-28663
8572,53.7899,-20.7006,1.86621,52.5916,-84.6881,53.2837,183.35,513.916,-454.956,0.44104,0.565765,-0.417084,0.557953,11972,2585,5611,-8985,-28663
8578,-0.349316,58.8335,-41.8079,38.3258,-83.2764,67.3682,-96.0083,409.18,12.085,0.458405,0.563446,-0.392944,0.563843,9412,-1000,2283,-8985,-28663
8584,32.1658,-15.9776,21.9352,29.5477,-83.4412,76.2122,-38.4521,89.0503,187.927,0.4664,0.552185,-0.386169,0.572968,5828,-5864,-5654,-8985,-28663
8590,26.0695,-9.58945,15.6714,31.7999,-84.386,73.6414,-59.3262,-187.805,49.0112,0.463104,0.546875,-0.388824,0.578918,1476,-10984,-16406,-8985,-28663
8596,-17.3749,7.48877,-3.64629,43.1433,-85.5945,61.5344,-75.5005,-316.345,-18.7988,0.458466,0.555023,-0.404816,0.56369,-2365,-15848,-28438,-8985,-28663
8602,-9.2832,4.16309,0.789551,51.4874,-87.6544,52.8168,106.75,-79.9561,195.74,0.455475,0.558716,-0.41391,0.555847,-7229,-22760,25578,-8985,-28663
8608,19.2315,9.19707,-8.34531,29.1467,-88.2312,75.5804,139.038,23.9868,198.059,0.448151,0.558075,-0.41925,0.558411,-8253,-25064,25322,-8985,-28663
8614,13.4511,-10.1445,-2.31602,15.5347,-88.407,89.0881,29.9683,1.83105,86.3037,0.441711,0.555573,-0.421692,0.564148,-7997,-25320,26858,-8985,-28663
8620,15.413,-7.72324,-0.579004,16.1224,-88.4894,88.2422,-16.7847,-14.4043,-0.427246,0.440063,0.553619,-0.424347,0.565399,-5693,-23784,28394,-8985,-28663
8626,7.37393,2.13896,0.593359,26.8616,-88.4454,77.2009,-34.3628,-10.9253,-58.8989,0.443604,0.553314,-0.42627,0.561462,-2109,-20712,29162,-8985,-28663
8632,6.97676,3.02422,1.04795,39.8859,-88.3685,63.5284,-21.7896,-10.5591,-18.4326,0.446289,0.553345,-0.427002,0.558746,5572,-15080,28138,-8985,-28663
8638,9.88613,1.225,0.641211,40.8307,-88.4015,62.3584,-3.2959,-6.46973,-1.09863,0.447906,0.552856,-0.428253,0.556946,8644,-13032,27626,-8985,-28663
8644,11.5035,-0.253613,0.392383,41.9513,-88.429,61.0455,4.08936,-6.53076,-1.95312,0.448853,0.552216,-0.429504,0.555878,10692,-11752,27114,-8985,-28663
8650,9.38848,-0.550293,0.583789,45.1099,-88.4619,57.7002,3.17383,-14.8315,-9.09424,0.449615,0.551727,-0.430542,0.554932,12484,-10472,27626,-8985,-28663
8656,9.12051,0.234473,-0.339746,48.4882,-88.4729,54.1351,2.0752,-13.2446,-11.7798,0.451324,0.551422,-0.432526,0.552338,14532,-9704,29162,-8985,-28663
8662,10.1685,0.263184,-0.516797,52.196,-88.4839,50.0317,-1.15967,-4.82178,-4.3335,0.452209,0.551086,-0.433472,0.551178,17348,-8680,32490,-8977,-28664
8668,9.05352,0.0239258,-0.177051,52.7179,-88.4894,49.2957,-3.96729,-1.40381,-2.19727,0.453156,0.550507,-0.434479,0.550171,18116,-8680,-31766,-8977,-28664
8674,9.43633,0.287109,-0.16748,52.6685,-88.4949,49.1309,-4.39453,0.671387,0.0610352,0.454163,0.549805,-0.435516,0.549225,18628,-8680,-30230,-8977,-28664
8680,9.74736,0.650781,0.00957031,51.5918,-88.5168,49.9658,-5.43213,2.99072,5.7373,0.45517,0.54895,-0.436615,0.54837,18884,-8680,-28694,-8977,-28664
8686,9.81914,0.229688,0.0765625,49.7845,-88.5608,51.5314,-1.52588,2.19727,15.9302,0.457031,0.546692,-0.439331,0.546936,18884,-8680,-28438,-8977,-28664
8692,9.73301,0.0574219,-0.062207,44.2749,-88.6761,56.5741,0.12207,3.96729,17.1509,0.457764,0.54541,-0.440826,0.546356,18884,-9192,-26902,-8977,-28664
8698,9.66602,-0.0717773,-0.205762,40.578,-88.7201,60.0403,-0.244141,6.16455,17.334,0.458496,0.544128,-0.442291,0.545868,18372,-8936,-25622,-8977,-28664
8704,9.69951,-0.248828,-0.181836,36.6504,-88.7421,63.7372,-0.915527,8.54492,15.5029,0.459259,0.542755,-0.443726,0.54541,18116,-8680,-23830,-8977,-28664
8710,10.1541,-0.224902,-0.162695,32.6239,-88.7421,67.533,-2.19727,10.9863,13.7939,0.460114,0.541351,-0.445068,0.544983,18884,-7912,-20502,-8977,-28664
8716,9.8335,-0.239258,0.100488,28.8446,-88.7311,71.087,-2.38037,11.7188,10.5591,0.462067,0.538544,-0.447479,0.544159,19396,-6632,-17942,-8977,-28664
8722,9.91006,-0.31582,0.0334961,22.7802,-88.6761,76.7065,-1.95312,12.146,7.62939,0.463074,0.53717,-0.448608,0.543732,19908,-4072,-15638,-8977,-28664
8728,9.73779,-0.282324,0.0717773,20.7257,-88.6377,78.5522,-2.50244,12.5122,4.94385,0.464111,0.535889,-0.449585,0.543274,20420,-3048,-16406,-8977,-28664
8734,10.001,-0.224902,0.0526367,19.1656,-88.5883,79.9091,-2.68555,12.7563,2.92969,0.46521,0.534698,-0.45047,0.542816,20420,-1768,-17942,-8977,-28664
8740,9.97227,-0.162695,0.15791,17.9791,-88.5333,80.9033,-2.92969,12.8174,1.46484,0.466278,0.533539,-0.451263,0.542328,20676,25,-19478,-8977,-28664
8746,9.85264,-0.0430664,0.220117,17.1552,-88.4894,81.535,-1.46484,10.5591,0.488281,0.468445,0.531433,-0.452698,0.541351,21188,793,-19734,-8977,-28664
8752,9.66602,-0.0239258,0.287109,15.5402,-88.407,82.7875,-1.46484,8.91113,1.89209,0.469482,0.530457,-0.453369,0.540863,22468,2585,-19990,-8977,-28664
8758,9.88135,-0.062207,0.181836,14.6228,-88.3795,83.5181,-1.46484,8.30078,2.56348,0.470428,0.52951,-0.454132,0.540344,24004,3353,-19990,-8977,-28664
8764,9.71865,-0.100488,0.205762,13.6945,-88.3521,84.2651,-1.46484,7.38525,3.05176,0.471375,0.528534,-0.454895,0.539825,25540,4121,-21014,-8977,-28664
8770,9.84307,-0.13877,0.210547,12.821,-88.3301,84.9683,-1.64795,6.34766,3.17383,0.47226,0.527588,-0.455688,0.539307,27076,4889,-21782,-8977,-28664
8776,9.94355,-0.224902,0.234473,11.4862,-88.2971,86.0229,-2.68555,4.08936,1.95312,0.473907,0.525818,-0.457245,0.538269,28356,5401,-22806,-8977,-28664
8782,9.7665,-0.220117,0.272754,11.228,-88.2916,86.3306,-3.11279,2.80762,1.0376,0.474426,0.525269,-0.457733,0.537933,30404,7705,-24086,-8985,-28663
8788,9.94355,-0.239258,0.301465,11.2555,-88.2861,86.4294,-2.92969,1.58691,-0.244141,0.474213,0.52536,-0.45752,0.538208,31940,8985,-25622,-8985,-28663
8794,9.9627,-0.224902,0.382812,11.6016,-88.2916,86.2482,-2.50244,0.366211,-1.89209,0.473602,0.525879,-0.456909,0.538757,-31804,9753,-27670,-8985,-28663
8800,9.82871,-0.181836,0.382812,12.1893,-88.2971,85.8527,-1.58691,-1.58691,-2.92969,0.47287,0.526611,-0.456116,0.539398,-30780,10521,-29206,-8985,-28663
8806,9.68994,-0.0813477,0.291895,13.6121,-88.3356,84.8474,-0.427246,-4.15039,-3.05176,0.471039,0.528442,-0.454285,0.54071,-30524,10777,-30742,-8985,-28663
8812,9.81436,-0.00478516,0.282324,14.2383,-88.3575,84.4464,0,-5.12695,-2.13623,0.470032,0.529449,-0.453339,0.541412,-30012,11289,-31766,-8985,-28663
8818,9.72344,0.0430664,0.344531,14.7546,-88.3905,84.1718,0.305176,-6.40869,-1.0376,0.468872,0.530548,-0.452362,0.542175,-30268,11545,-31766,-8985,-28663
8824,9.72822,0.0813477,0.172266,14.9689,-88.429,84.2047,0.976562,-7.08008,0.976562,0.467621,0.531677,-0.451355,0.542969,-30268,12057,-32278,-8985,-28663
8830,9.72822,0.0287109,0.110059,14.7766,-88.4674,84.6661,1.34277,-6.46973,3.17383,0.466248,0.532837,-0.450348,0.543823,-30268,12057,-31510,-8985,-28663
8836,9.79043,-0.15791,-0.0239258,13.8373,-88.5278,86.1328,1.15967,-3.72314,4.02832,0.463287,0.535126,-0.448273,0.545837,-30780,12313,-31510,-8985,-28663
8842,9.78564,-0.248828,0.0239258,13.3044,-88.5443,86.9128,0.549316,-2.13623,3.60107,0.461884,0.536163,-0.447235,0.546844,-31292,13081,-30998,-8985,-28663
8848,9.91963,-0.291895,0.0478516,13.1396,-88.5553,87.3138,0.183105,-0.854492,1.28174,0.460541,0.53714,-0.446228,0.547852,-31292,13337,-30486,-8985,-28663
8854,9.96748,-0.258398,0.0574219,13.2385,-88.5608,87.4402,-0.366211,-0.12207,-0.305176,0.459351,0.538055,-0.44516,0.548798,-30780,13849,-29718,-8985,-28663
8860,9.73301,-0.258398,0.15791,13.5846,-88.5608,87.3029,-0.793457,-0.244141,-1.64795,0.458282,0.53894,-0.444122,0.549652,-30524,14873,-29974,-8985,-28663
8866,9.87656,-0.205762,0.105273,14.9744,-88.5608,86.3196,-0.976562,-0.12207,-3.78418,0.456329,0.54071,-0.442078,0.551208,-30780,14873,-29974,-8985,-28663
8872,9.81436,-0.186621,0.177051,15.8752,-88.5663,85.6219,-0.793457,-0.549316,-4.5166,0.455444,0.541565,-0.441071,0.55191,-31036,16153,-30742,-8985,-28663
8878,9.79521,-0.13877,0.191406,16.8091,-88.5663,84.8859,-0.793457,-0.671387,-4.69971,0.45459,0.54245,-0.440063,0.552551,-30780,16409,-30742,-8985,-28663
8884,9.74258,-0.0957031,0.200977,17.7539,-88.5663,84.1333,-0.793457,-1.34277,-4.57764,0.453705,0.543335,-0.439056,0.553223,-30780,16665,-29974,-8985,-28663
8890,9.75215,0,0.215332,18.4515,-88.5718,83.6444,-0.610352,-1.46484,-3.17383,0.45282,0.54422,-0.438049,0.553864,-30524,16921,-29206,-8985,-28663
8896,5.83311,-0.880469,0.526367,21.3959,-88.5278,81.1285,3.479,7.75146,-16.2964,0.450775,0.546051,-0.436035,0.555328,-30524,16665,-27926,-8985,-28663
8902,-76.084,-22.1936,10.0871,45.9119,-85.8417,56.7389,8.8501,305.603,-499.512,0.450256,0.546967,-0.43454,0.556,-30780,14873,-24086,-8985,-28663
8908,81.8262,13.2549,-37.7453,41.2207,-83.2159,62.1826,176.697,458.618,-291.87,0.467041,0.549255,-0.415985,0.554108,-32572,13081,-25622,-8985,-28663
8914,25.8111,18.241,-7.88594,29.9048,-83.1116,72.1472,-233.948,163.818,178.345,0.478546,0.546326,-0.396301,0.561554,30148,9241,-30486,-8985,-28663
8920,24.8206,-12.4605,17.8821,25.4993,-83.6609,76.2506,-26.5503,-48.4619,133.85,0.48349,0.533417,-0.404266,0.564026,26308,3609,26346,-8985,-28663
8926,-9.58467,3.33047,2.3208,36.969,-85.6549,64.4403,-51.5137,-257.385,-12.146,0.477325,0.534637,-0.415497,0.559998,22468,-3560,15850,-8985,-28663
8932,-6.2877,8.6085,-0.631641,43.4399,-86.5009,58.1946,15.7471,-183.472,41.687,0.47348,0.540466,-0.421417,0.553192,15812,-15080,1258,-8985,-28663
8938,3.80898,7.71846,-4.30664,35.1782,-87.16,66.9232,123.413,-37.4756,158.508,0.467865,0.545074,-0.425079,0.550598,13508,-18408,-2327,-8985,-28663
8944,11.3121,0.0526367,-5.97188,21.4673,-87.5336,80.9747,91.7358,0.915527,149.353,0.461151,0.544952,-0.42749,0.554535,11460,-19176,-3607,-8985,-28663
8950,15.4369,-8.0582,-2.03848,10.3711,-87.7039,92.1478,21.6064,-3.96729,97.7173,0.455933,0.543549,-0.429504,0.558655,10180,-18408,-3351,-8985,-28663
8956,10.4125,-1.35898,-0.186621,14.0625,-87.8796,88.374,-23.5596,-18.7988,-33.7524,0.452545,0.542297,-0.432373,0.560394,11460,-13544,-5143,-8985,-28663
8962,7.70889,1.97148,-0.224902,17.7374,-87.9346,84.6057,-26.1841,-15.4419,-24.7803,0.453217,0.543213,-0.432373,0.55899,12740,-10984,-5399,-8985,-28663
8968,7.64189,1.80879,0.459375,17.9846,-87.9895,84.3036,-16.1743,-7.8125,0,0.453827,0.543732,-0.432617,0.55777,14276,-8424,-5911,-8985,-28663
8974,11.1398,0.626855,0.636426,16.6113,-88.0444,85.6604,-4.69971,-4.39453,11.0474,0.453888,0.543762,-0.433136,0.557312,16068,-6632,-5655,-8985,-28663
8980,9.95312,-0.655566,1.29678,15.7159,-88.1049,86.6052,1.0376,-8.30078,8.60596,0.453491,0.543671,-0.433624,0.557343,18372,-4584,-4119,-8985,-28663
8986,9.94355,-0.468945,-0.133984,17.5287,-88.2751,84.9518,4.08936,-14.4653,-3.23486,0.452087,0.544647,-0.433899,0.557312,23492,-2536,490,-8985,-28663
8992,9.39326,-0.430664,-0.16748,18.5999,-88.3356,83.9685,1.40381,-10.6201,-3.17383,0.451385,0.545441,-0.433746,0.55722,25284,-1768,3562,-8985,-28663
8998,9.85264,-0.263184,-0.263184,19.5172,-88.3685,83.1171,-2.13623,-6.28662,-3.479,0.450806,0.546112,-0.433533,0.55719,27076,-1512,5098,-8985,-28663
9004,9.13008,-0.200977,0.272754,20.3577,-88.4015,82.3425,-4.3335,-5.12695,-3.2959,0.450378,0.546631,-0.433319,0.55722,28356,-1512,6378,-8985,-28663
9010,9.7043,0.16748,0.186621,20.8575,-88.429,81.9196,-2.62451,-4.15039,-1.40381,0.449982,0.547089,-0.433075,0.557251,29380,-1000,6634,-8985,-28663
9016,9.56553,0.363672,0.44502,19.1492,-88.5114,83.8202,0.732422,-5.43213,9.27734,0.448853,0.547913,-0.432617,0.557709,32196,-232,6634,-8985,-28663
9022,9.69473,0.248828,0.153125,16.9958,-88.5663,86.0724,2.19727,-5.43213,13.4277,0.447998,0.548309,-0.432495,0.558105,-32316,25,8170,-8985,-28663
9028,9.51289,0.00478516,0.133984,14.1064,-88.6157,89.0662,2.56348,-4.15039,15.9912,0.447052,0.548584,-0.432465,0.558624,-31292,537,10218,-8985,-28663
9034,9.71387,-0.14834,-0.090918,10.7831,-88.6542,92.4884,1.95312,-2.56348,16.7847,0.446045,0.548798,-0.432495,0.559204,-30780,793,11754,-8985,-28663
9040,10.0249,-0.29668,-0.0813477,7.67944,-88.6652,95.6854,1.58691,0.854492,14.4653,0.445068,0.54895,-0.432526,0.559814,-30268,1305,13802,-8985,-28663
9046,9.99141,-0.363672,0.196191,2.8125,-88.6542,100.745,0.305176,4.5166,9.76562,0.443542,0.549072,-0.432281,0.561066,-30268,2841,16618,-8985,-28663
9052,9.81914,-0.363672,0.0669922,1.203,-88.6322,102.453,0,5.12695,7.14111,0.442871,0.549194,-0.431976,0.561707,-30012,3865,17130,-8985,-28663
9058,9.95791,-0.512012,0.0430664,0.41748,-88.6047,103.348,-0.366211,7.44629,3.35693,0.442261,0.549347,-0.43158,0.562347,-29500,5401,16874,-8985,-28663
9064,9.83828,-0.411523,0.177051,0.324097,-88.5663,103.541,-1.64795,8.60596,0,0.441772,0.54953,-0.431061,0.562988,-27708,7193,16618,-8985,-28663
9070,10.2067,-0.334961,0.0574219,0.807495,-88.5223,103.156,-2.44141,9.82666,-2.99072,0.441101,0.549957,-0.429718,0.564117,-26172,8729,16106,-8985,-28663
9076,9.88613,-0.244043,0.153125,2.87292,-88.429,101.305,-2.99072,11.1694,-7.20215,0.440857,0.550201,-0.428894,0.564636,-23868,12313,15338,-8985,-28663
9082,9.75693,-0.191406,0.181836,4.12537,-88.374,100.162,-3.41797,12.085,-8.17871,0.440704,0.550507,-0.42804,0.565155,-23612,13849,15082,-8985,-28663
9088,9.84785,-0.172266,0.263184,5.3064,-88.3136,99.0857,-4.08936,12.207,-8.30078,0.440552,0.550751,-0.427155,0.565674,-23356,14873,15338,-8985,-28663
9094,9.80957,-0.110059,0.244043,6.27319,-88.2587,98.2178,-5.06592,12.085,-7.50732,0.44043,0.551025,-0.426239,0.566193,-23356,15385,15850,-8985,-28663
9100,9.65645,-0.0382813,0.430664,6.9873,-88.1982,97.6135,-4.94385,11.9019,-6.22559,0.440094,0.551514,-0.4245,0.567291,-23100,15897,15850,-8985,-28663
9106,9.62773,0.00478516,0.516797,7.77832,-88.1104,97.0862,-3.2959,9.27734,-3.479,0.439758,0.551819,-0.423615,0.567902,-22588,15641,14570,-8985,-28663
9112,9.72822,0.0287109,0.492871,7.84424,-88.0719,97.1796,-2.44141,8.30078,-1.77002,0.439301,0.552216,-0.422699,0.568573,-22076,15129,14058,-8985,-28663
9118,9.65645,-0.0143555,0.564648,7.69043,-88.0444,97.5092,-1.52588,6.65283,0,0.43866,0.552643,-0.421783,0.569336,-21820,13849,13034,-8985,-28663
9124,9.86699,0,0.47373,7.41577,-88.0225,97.9816,-0.427246,5.24902,1.15967,0.437897,0.553131,-0.420837,0.57016,-21564,12825,12778,-8985,-28663
9130,9.69951,-0.0287109,0.488086,7.00928,-88.0115,98.5913,0.0610352,4.08936,2.2583,0.435944,0.554352,-0.418823,0.57193,-21564,12057,12778,-8977,-28664
9136,9.61816,0.00957031,0.430664,5.59204,-88.0005,100.459,0.427246,1.83105,5.67627,0.434784,0.555023,-0.417816,0.572876,-21052,12825,13802,-8977,-28664
9142,9.71387,-0.00478516,0.406738,4.56482,-88.0005,101.722,0.305176,1.64795,7.08008,0.433502,0.555725,-0.41684,0.573883,-20540,13337,14058,-8977,-28664
9148,9.74736,-0.0430664,0.488086,3.41675,-88.0005,103.123,0.549316,0.549316,8.05664,0.432159,0.556458,-0.415833,0.574951,-19772,13337,14314,-8977,-28664
9154,9.79043,-0.105273,0.559863,2.13684,-88.0115,104.661,1.15967,-0.793457,8.97217,0.430695,0.55719,-0.414825,0.576019,-19004,12569,14314,-8977,-28664
9160,9.79521,-0.100488,0.516797,0.829468,-88.028,106.238,2.0752,-2.01416,9.15527,0.427521,0.558899,-0.412781,0.578247,-18236,12313,13546,-8977,-28664
9166,9.78086,-0.172266,0.406738,-1.96655,-88.0664,109.594,2.13623,-4.02832,9.58252,0.425812,0.559814,-0.411743,0.579346,-16444,12825,13290,-8977,-28664
9172,9.80479,-0.215332,0.234473,-3.40576,-88.0884,111.308,1.09863,-4.63867,9.39941,0.424103,0.56073,-0.410706,0.580444,-15164,13081,12778,-8977,-28664
9178,9.81914,-0.358887,0.291895,-4.6637,-88.1104,112.835,-0.0610352,-4.27246,7.93457,0.422363,0.561676,-0.409668,0.581512,-14908,13593,12778,-8977,-28664
9184,9.91963,-0.416309,0.30625,-5.69641,-88.1323,114.126,-1.0376,-4.63867,6.16455,0.420715,0.562622,-0.408661,0.58252,-14652,13593,11242,-8977,-28664
9190,9.96748,-0.44502,0.311035,-6.31714,-88.1543,115.005,-1.46484,-4.63867,3.2959,0.417664,0.564545,-0.406555,0.584351,-14396,14105,9706,-8977,-28664
9196,9.90527,-0.325391,0.344531,-6.5918,-88.2147,115.779,-2.01416,-5.31006,-0.976562,0.41626,0.565552,-0.405457,0.585114,-14140,16665,8170,-8977,-28664
9202,9.84785,-0.311035,0.387598,-6.45447,-88.2477,115.889,-1.77002,-5.67627,-1.95312,0.414886,0.566589,-0.404297,0.585876,-13884,18201,8170,-8977,-28664
9208,9.81914,-0.291895,0.344531,-6.15234,-88.2806,115.845,-0.915527,-6.04248,-2.92969,0.413544,0.567657,-0.403137,0.586609,-13628,19225,8426,-8977,-28664
9214,9.8957,-0.344531,0.291895,-5.56458,-88.3136,115.505,-0.610352,-5.67627,-4.57764,0.412201,0.568756,-0.401917,0.587311,-13372,19993,8682,-8977,-28664
9220,9.91006,-0.291895,0.339746,-4.79553,-88.3466,114.994,-0.0610352,-5.5542,-5.49316,0.409607,0.571014,-0.399384,0.588654,-13116,21017,8426,-8977,-28664
9226,9.76172,-0.16748,0.425879,-2.35657,-88.396,113.06,0.671387,-3.54004,-8.97217,0.408386,0.572144,-0.398071,0.589325,-14396,21785,8938,-8977,-28664
9232,-30.4767,-33.7162,18.0544,61.6718,-85.5835,49.9933,167.969,106.873,-796.692,0.407196,0.573273,-0.396667,0.589966,-15420,21273,8938,-8977,-28664
9238,25.5862,8.55586,-34.6876,61.0236,-82.3645,50.8777,44.6777,329.407,-564.758,0.423889,0.587372,-0.36969,0.581818,-17980,18969,8170,-8977,-28664
9244,16.8677,31.3188,3.87598,52.1356,-82.8699,59.2218,-68.0542,129.761,201.233,0.441833,0.588745,-0.348114,0.580414,-23612,12569,5354,-8977,-28664
9250,23.3563,-12.1591,10.4891,50.7404,-83.7488,60.3973,-80.9937,-87.5244,149.109,0.437561,0.579102,-0.360748,0.585602,-30012,2841,-535,-8977,-28664
9256,-4.18701,-0.832617,5.50293,65.1379,-85.0012,45.5988,-15.5029,-184.998,-17.5171,0.435364,0.580994,-0.368683,0.580383,20420,-18152,-13079,-8977,-28664
9262,-12.1591,3.58887,1.15801,72.1417,-85.3143,39.2432,80.3223,-123.657,12.8174,0.431793,0.586487,-0.371063,0.576019,14020,-25832,-16151,-8977,-28664
9268,-0.287109,6.7375,-3.96211,72.5043,-85.9131,39.8309,128.967,-29.7241,113.342,0.425873,0.591766,-0.370453,0.575409,8132,-31720,-15383,-8977,-28664
9274,15.1689,7.14902,-10.5656,68.6206,-86.4514,43.8409,65.4907,17.334,118.042,0.417542,0.594086,-0.369202,0.579895,2500,28696,-13847,-8977,-28664
9280,13.9344,-4.5459,0.62207,64.5227,-86.759,47.9443,2.38037,21.6675,73.3032,0.412567,0.590454,-0.373047,0.584686,-1597,23832,-10775,-8977,-28664
9286,11.8337,-1.02881,-0.650781,64.0723,-86.7371,48.2959,-31.1279,-0.549316,-22.3389,0.412292,0.589996,-0.373322,0.585175,-5949,19224,-9751,-8977,-28664
9292,7.52705,1.65566,0.593359,64.8743,-86.6821,47.373,-35.2783,-3.72314,-17.2729,0.413269,0.589966,-0.373383,0.584442,-6973,18968,-11031,-8977,-28664
9298,7.27344,2.65098,1.37334,64.1492,-86.7206,48.0817,-18.2495,4.57764,8.36182,0.414154,0.589905,-0.373718,0.583679,-7741,19480,-12823,-8977,-28664
9304,9.98662,2.26338,0.980957,62.2321,-86.8414,50.0922,-2.0752,10.0098,28.8696,0.414032,0.589569,-0.374023,0.583923,-9021,19736,-14103,-8977,-28664
9310,9.86221,-0.689063,0.775195,60.3534,-86.9843,52.2565,3.90625,5.85938,34.5459,0.410645,0.589417,-0.373535,0.586792,-9789,19736,-13847,-8977,-28664
9316,10.1732,-0.339746,0.0574219,58.5791,-87.215,54.624,2.80762,-2.38037,19.8975,0.408325,0.590027,-0.372772,0.588287,-10045,19480,-11543,-8977,-28664
9322,9.8,0.0957031,0.0239258,57.7606,-87.2919,55.7172,-0.732422,-0.183105,17.2119,0.40625,0.590729,-0.371918,0.589539,-10045,20248,-10007,-8977,-28664
9328,9.79043,0.440234,0.291895,56.6125,-87.3743,57.1729,-2.31934,1.58691,19.3481,0.404327,0.5914,-0.370941,0.59082,-8765,21016,-8215,-8977,-28664
9334,8.91953,0.416309,0.497656,55.1624,-87.4786,58.9471,-2.19727,0.732422,24.1089,0.402252,0.592041,-0.369904,0.592194,-6973,21784,-6935,-8977,-28664
9340,10.1876,0.162695,0.392383,53.3002,-87.594,61.1499,-0.915527,0.366211,29.9072,0.39743,0.593384,-0.367889,0.595398,-5181,22808,-6935,-8977,-28664
9346,9.59902,0.358887,0.756055,48.6255,-87.8412,65.8191,-0.305176,-2.2583,31.6162,0.394897,0.593994,-0.366882,0.597076,196,25624,-7959,-8977,-28664
9352,11.0202,0.186621,1.0001,45.9119,-87.9675,68.2086,1.64795,-3.17383,31.6772,0.395813,0.592407,-0.369537,0.596405,2244,27416,-8215,-8977,-28664
9358,8.82383,-0.234473,0.373242,43.0444,-88.0829,70.7684,5.00488,-2.99072,29.9683,0.396667,0.590912,-0.372101,0.595734,4292,29720,-8471,-8977,-28664
9364,10.1685,-0.090918,-0.263184,39.6936,-88.1763,73.7842,0.0610352,-0.549316,28.7476,0.397461,0.589447,-0.374512,0.595123,6084,32024,-7959,-8977,-28664
9370,10.1062,-0.205762,0.6125,35.9967,-88.2477,77.1515,-0.427246,0.793457,24.353,0.399506,0.586273,-0.379272,0.593872,8132,-31464,-7191,-8977,-28664
9376,10.2307,-0.200977,0.492871,29.2236,-88.3685,83.2764,-0.0610352,-0.671387,21.9116,0.400604,0.584747,-0.381561,0.593201,11972,-26600,-6167,-8977,-28664
9382,9.80479,-0.349316,0.550293,26.2903,-88.418,85.8966,1.15967,-1.70898,19.104,0.401703,0.583282,-0.383789,0.592438,13764,-23784,-5655,-8977,-28664
9388,9.95791,-0.47373,0.267969,23.9392,-88.4454,87.9346,1.70898,-0.976562,14.2822,0.402832,0.58194,-0.385895,0.591644,16068,-21224,-5143,-8977,-28664
9394,9.87656,-0.512012,0.248828,22.2583,-88.4619,89.2914,1.15967,0.854492,9.09424,0.404083,0.580627,-0.387878,0.590759,18628,-18664,-4631,-8977,-28664
9400,9.69473,-0.30625,0.44502,21.2915,-88.4564,89.9286,-1.28174,2.50244,1.2207,0.407166,0.578094,-0.391418,0.588806,21444,-16872,-3095,-8977,-28664
9406,9.86221,-0.272754,0.401953,20.7916,-88.4235,89.7583,-1.15967,2.0752,-0.976562,0.408905,0.576813,-0.393097,0.587738,26564,-13032,-1047,-8977,-28664
9412,9.84785,-0.191406,0.373242,21.0114,-88.407,89.198,-1.28174,2.44141,-2.68555,0.410706,0.575592,-0.394714,0.586578,28612,-11240,-1303,-8977,-28664
9418,9.83828,-0.162695,0.468945,21.3794,-88.385,88.4949,-1.2207,2.2583,-3.54004,0.412537,0.574402,-0.396271,0.585419,30404,-9192,-2071,-8977,-28664
9424,9.90527,-0.110059,0.435449,21.7639,-88.3685,87.7753,-1.46484,1.77002,-3.479,0.414398,0.573212,-0.397827,0.584198,31428,-7400,-2583,-8977,-28664
9430,9.76172,-0.0813477,0.449805,22.2198,-88.3521,86.9788,-1.70898,0.305176,-3.41797,0.418091,0.570862,-0.40094,0.581757,32708,-5864,-3095,-8977,-28664
9436,9.68037,-0.0717773,0.492871,23.0273,-88.3301,85.5011,-1.46484,-0.183105,-2.56348,0.419922,0.569702,-0.402527,0.580475,-30780,-2792,-1559,-8977,-28664
9442,9.81436,-0.0861328,0.44502,23.3844,-88.3246,84.8035,-1.77002,-0.549316,-2.50244,0.421692,0.568542,-0.404114,0.579224,-29244,-1512,-791,-8977,-28664
9448,9.74736,-0.124414,0.550293,23.8184,-88.3246,84.0344,-1.64795,-1.40381,-2.56348,0.423462,0.567383,-0.405731,0.577942,-27964,-232,-279,-8977,-28664
9454,9.91006,-0.0526367,0.45459,24.2468,-88.3246,83.2709,-1.28174,-2.01416,-2.2583,0.425201,0.566254,-0.407318,0.57663,-27196,1049,-791,-8977,-28664
9460,9.81914,-0.110059,0.373242,24.6643,-88.3246,82.5238,-0.793457,-2.19727,-2.13623,0.428589,0.564026,-0.410522,0.574036,-26940,2073,-1815,-8977,-28664
9466,9.73779,-0.129199,0.344531,25.5322,-88.3246,80.9967,-0.732422,-1.46484,-2.56348,0.430267,0.562927,-0.412109,0.572723,-27452,3865,-2839,-8977,-28664
9472,9.75693,-0.0717773,0.344531,25.9387,-88.3136,80.2606,-0.793457,-0.549316,-2.80762,0.431976,0.561798,-0.413666,0.571411,-27196,4377,-2327,-8977,-28664
9478,9.78086,-0.0430664,0.387598,26.2793,-88.3026,79.5959,-0.488281,0.732422,-2.99072,0.433685,0.560669,-0.415222,0.570129,-26684,4377,-1559,-8977,-28664
9484,9.77607,-0.0574219,0.363672,26.5265,-88.2861,79.0247,-0.488281,1.2207,-2.68555,0.435425,0.559479,-0.416718,0.568878,-26172,3865,-1559,-8977,-28664
9490,9.84307,-0.0526367,0.363672,26.7188,-88.2422,78.1787,-0.305176,3.11279,-2.44141,0.438873,0.557068,-0.419678,0.566406,-26428,3609,-2071,-8977,-28664
9496,9.75215,-0.0334961,0.368457,26.6418,-88.2147,77.9315,-0.183105,4.02832,-1.95312,0.440613,0.555817,-0.421112,0.565216,-27452,1305,-4631,-8977,-28664
9502,9.71865,0.0191406,0.416309,26.3837,-88.1873,77.8656,0,4.69971,-0.976562,0.442322,0.554535,-0.422516,0.564056,-27708,281,-6423,-8985,-28663
9508,9.66602,0.0478516,0.47373,25.9497,-88.1653,77.9919,0.854492,4.88281,0.305176,0.444031,0.553253,-0.42395,0.562927,-28220,-744,-6935,-8985,-28663
9514,9.80479,0.00478516,0.483301,25.3455,-88.1433,78.2776,1.46484,4.88281,1.58691,0.445679,0.551941,-0.425354,0.561859,-28220,-1256,-6423,-8985,-28663
9520,9.68037,-0.110059,0.516797,23.9777,-88.1049,79.0356,2.0752,4.15039,2.56348,0.448822,0.549255,-0.428223,0.559784,-27964,-1000,-7447,-8985,-28663
9526,9.82393,-0.100488,0.45459,23.335,-88.0884,79.3762,2.56348,3.90625,2.68555,0.450348,0.547943,-0.429657,0.558746,-27196,793,-11031,-8985,-28663
9532,9.77607,-0.100488,0.521582,22.7802,-88.0774,79.6289,2.38037,2.99072,2.50244,0.451874,0.546661,-0.431061,0.557709,-26684,2329,-13847,-8985,-28663
9538,9.77607,-0.0765625,0.550293,22.3187,-88.0664,79.7882,2.2583,1.95312,2.31934,0.453339,0.54538,-0.432495,0.556671,-25916,3865,-15639,-8985,-28663
9544,9.80957,-0.105273,0.46416,21.8408,-88.0609,79.964,2.0752,1.40381,2.68555,0.454803,0.544128,-0.433929,0.555573,-25916,4889,-17687,-8985,-28663
9550,9.80957,-0.177051,0.363672,21.1597,-88.0444,80.0189,0.488281,1.95312,1.0376,0.457733,0.541595,-0.436859,0.553345,-25660,5401,-18199,-8985,-28663
9556,9.82393,-0.205762,0.382812,20.9839,-88.028,79.8816,-0.12207,2.74658,-0.12207,0.45929,0.540314,-0.438293,0.552155,-26428,5145,-17687,-8985,-28663
9562,9.7665,-0.129199,0.392383,20.8521,-88.006,79.7003,-0.610352,3.66211,-0.793457,0.460876,0.539032,-0.439697,0.550995,-26684,4889,-16663,-8985,-28663
9568,9.75693,-0.0334961,0.392383,20.7092,-87.9785,79.519,-1.40381,4.08936,-0.915527,0.462494,0.53772,-0.441101,0.549805,-26940,4633,-16407,-8985,-28663
9574,9.75215,-0.0430664,0.46416,20.4895,-87.9565,79.4147,-1.46484,4.27246,-0.366211,0.464142,0.536377,-0.442474,0.548584,-26684,4889,-16151,-8985,-28663
9580,9.78564,-0.0526367,0.468945,19.9786,-87.9016,79.3048,-0.305176,4.88281,0,0.467407,0.533661,-0.445221,0.546234,-26172,4889,-17431,-8985,-28663
9586,9.76172,-0.0143555,0.45459,19.671,-87.8796,79.2938,-0.488281,5.18799,0.12207,0.468994,0.532318,-0.446564,0.545105,-24892,4633,-21527,-8985,-28663
9592,9.69473,-0.00478516,0.540723,19.2371,-87.8522,79.4147,-0.244141,4.88281,1.34277,0.470612,0.530945,-0.447906,0.543945,-24124,4377,-22295,-8985,-28663
9598,9.8335,-0.0478516,0.574219,18.7317,-87.8302,79.6124,-0.183105,4.76074,2.0752,0.472168,0.529572,-0.449249,0.542847,-23356,4889,-23063,-8985,-28663
9604,9.78564,-0.105273,0.564648,18.2538,-87.8137,79.7827,0.183105,3.90625,2.19727,0.473694,0.528168,-0.450623,0.541718,-22588,5401,-23575,-8985,-28663
9610,9.8335,-0.0957031,0.583789,17.4463,-87.7808,79.986,0.549316,2.80762,1.89209,0.476654,0.525452,-0.453369,0.53949,-22076,6681,-24087,-8985,-28663
9616,9.77129,-0.0861328,0.641211,17.0782,-87.7698,80.0464,0.305176,1.89209,2.13623,0.478119,0.524139,-0.454712,0.53833,-22588,7449,-23575,-8985,-28663
9622,9.79521,-0.119629,0.588574,16.7487,-87.7643,80.0739,0.793457,0.732422,2.2583,0.479523,0.522827,-0.456116,0.53717,-23100,7961,-22807,-8985,-28663
9628,9.74736,-0.124414,0.574219,16.4905,-87.7698,80.0354,0.854492,-0.366211,2.01416,0.480927,0.521545,-0.457489,0.53598,-23356,7961,-21783,-8985,-28663
9634,9.78564,-0.0957031,0.564648,16.2762,-87.7698,79.9475,0.610352,-0.915527,1.83105,0.4823,0.520294,-0.458893,0.53479,-23868,8473,-22807,-8985,-28663
9640,9.75215,-0.090918,0.545508,15.9302,-87.7863,79.6948,0.427246,-2.13623,1.77002,0.484985,0.517822,-0.461731,0.532288,-23100,8217,-25623,-8985,-28663
9646,9.77607,-0.105273,0.564648,15.7104,-87.7972,79.6124,0.732422,-2.50244,2.31934,0.486328,0.516602,-0.463135,0.531006,-23100,7705,-26391,-8985,-28663
9652,9.75215,-0.114844,0.583789,15.5072,-87.8137,79.5245,1.0376,-3.05176,2.38037,0.48761,0.515411,-0.464569,0.529755,-22588,7449,-27415,-8985,-28663
9658,9.79043,-0.124414,0.497656,15.2875,-87.8302,79.4421,0.976562,-3.479,2.56348,0.488861,0.514191,-0.466003,0.528503,-22076,6937,-28183,-8985,-28663
9664,9.7665,-0.110059,0.449805,15.0568,-87.8412,79.3817,1.15967,-3.11279,2.56348,0.490112,0.513,-0.467438,0.527222,-22076,6425,-28183,-8985,-28663
9670,9.8,-0.0813477,0.397168,14.5404,-87.8577,79.3103,0.549316,-1.70898,2.31934,0.492615,0.51059,-0.470245,0.524719,-21052,5657,-28695,-8985,-28663
9676,9.79521,-0.124414,0.411523,14.1998,-87.8632,79.3597,0.12207,-0.976562,2.74658,0.493896,0.509369,-0.471649,0.523499,-21052,5145,-29207,-8985,-28663
9682,9.81914,-0.129199,0.425879,13.8922,-87.8632,79.3652,0.12207,0,2.19727,0.495209,0.508087,-0.473022,0.522247,-21308,4889,-30999,-8985,-28663
9688,9.77607,-0.0861328,0.46416,13.5791,-87.8632,79.3817,0,0,2.2583,0.496521,0.506805,-0.474365,0.521027,-21820,5145,-31511,-8985,-28663
9694,9.80957,-0.119629,0.440234,13.2275,-87.8577,79.4366,0.183105,0.915527,2.31934,0.497833,0.505493,-0.475708,0.519806,-22076,5657,-30743,-8985,-28663
9700,9.8,-0.172266,0.483301,12.6068,-87.8412,79.4751,0.0610352,1.52588,1.52588,0.500488,0.502869,-0.478333,0.517426,-21564,6681,-30743,-8985,-28663
9706,9.82393,-0.172266,0.44502,12.4036,-87.8302,79.3762,0,1.77002,0.976562,0.501831,0.501556,-0.479584,0.516235,-20796,6937,-30999,-8985,-28663
9712,9.78564,-0.153125,0.550293,12.2498,-87.8192,79.2389,-0.244141,1.46484,0.732422,0.503174,0.500244,-0.480865,0.515015,-19772,7193,-31255,-8985,-28663
9718,9.84785,-0.129199,0.521582,12.1124,-87.8082,79.0796,-0.12207,1.34277,0.610352,0.504547,0.498932,-0.482117,0.513763,-19004,7705,-31511,-8985,-28663
9724,9.78564,-0.13877,0.531152,12.0685,-87.7972,78.8269,-0.183105,0.976562,-0.0610352,0.50589,0.49762,-0.483368,0.512512,-18492,7705,-30999,-8985,-28663
9730,9.79043,-0.15791,0.526367,12.0465,-87.7863,78.2611,-0.427246,0.549316,-0.427246,0.508606,0.495056,-0.48584,0.509979,-16956,7961,-31255,-8985,-28663
9736,9.81436,-0.196191,0.516797,12.0959,-87.7808,77.915,-0.427246,0.0610352,-0.610352,0.509949,0.493774,-0.487091,0.508667,-16956,7449,-31511,-8985,-28663
9742,9.79043,-0.177051,0.46416,12.2223,-87.7753,77.4866,-0.671387,0,-1.2207,0.511322,0.492493,-0.488342,0.507355,-16700,6937,-32023,-8985,-28663
9748,9.8,-0.172266,0.483301,12.4091,-87.7698,76.9977,-0.854492,0.0610352,-1.77002,0.512665,0.491241,-0.489563,0.506012,-17212,7193,-32279,-8985,-28663
9754,9.77607,-0.129199,0.564648,12.6453,-87.7643,76.4648,-1.2207,-0.244141,-2.0752,0.515442,0.488708,-0.492035,0.503265,-17980,6937,-31767,-8985,-28663
9760,9.76172,-0.119629,0.598145,13.0847,-87.7588,75.4266,-0.793457,-1.46484,-1.64795,0.516785,0.487457,-0.493256,0.501892,-19260,7449,-30999,-8985,-28663
9766,9.8335,-0.0957031,0.626855,13.3539,-87.7698,74.8608,-0.305176,-2.56348,-1.77002,0.518097,0.486206,-0.494507,0.500488,-19260,7449,-29463,-8985,-28663
9772,9.78564,-0.0861328,0.574219,13.6011,-87.7753,74.3225,0,-3.35693,-1.34277,0.519409,0.485016,-0.495758,0.499084,-18748,7449,-28695,-8985,-28663
9778,9.76172,-0.114844,0.478516,13.8428,-87.7917,73.7897,0.183105,-3.72314,-1.2207,0.52063,0.483826,-0.497009,0.497681,-18492,7193,-26647,-8985,-28663
9784,9.74736,-0.114844,0.459375,14.09,-87.8027,73.2513,0,-3.90625,-1.15967,0.523102,0.481476,-0.499542,0.494843,-18236,7193,-25623,-8985,-28663
9790,9.79521,-0.129199,0.435449,14.4965,-87.8247,72.2626,-0.305176,-3.23486,-1.0376,0.524292,0.480286,-0.500824,0.493439,-18492,7449,-25367,-8985,-28663
9796,9.80479,-0.0861328,0.45459,14.7491,-87.8357,71.7133,-0.610352,-3.11279,-1.40381,0.525543,0.479095,-0.502075,0.492035,-18492,7705,-26391,-8985,-28663
9802,9.72344,-0.0526367,0.483301,14.8535,-87.8412,71.3177,-0.549316,-2.68555,-0.366211,0.526764,0.477875,-0.503326,0.490601,-18748,7961,-26647,-8985,-28663
9808,9.71387,-0.0239258,0.502441,14.9084,-87.8522,70.9772,-0.244141,-2.86865,0.12207,0.527985,0.476624,-0.504578,0.489227,-19004,8217,-26903,-8985,-28663
9814,9.74736,-0.0669922,0.483301,14.8315,-87.8632,70.7629,-0.183105,-2.99072,1.15967,0.530334,0.474152,-0.50708,0.486511,-18236,8729,-26135,-8985,-28663
9820,9.79521,-0.105273,0.45459,14.436,-87.8851,70.5872,0.183105,-2.62451,2.19727,0.531464,0.4729,-0.508331,0.485168,-17980,9241,-25367,-8985,-28663
9826,9.77129,-0.110059,0.478516,14.1943,-87.8961,70.5487,-0.0610352,-2.56348,2.31934,0.532562,0.471619,-0.509613,0.483856,-17724,9497,-25367,-8985,-28663
9832,9.75215,-0.0957031,0.507227,13.9032,-87.9071,70.5542,-0.12207,-2.50244,2.62451,0.533691,0.470337,-0.510864,0.482574,-17980,9753,-25111,-8985,-28663
9838,9.78564,-0.090918,0.459375,13.5406,-87.9236,70.6366,0.0610352,-2.80762,3.23486,0.53479,0.469055,-0.512115,0.481262,-17724,10009,-24087,-8985,-28663
9844,9.75693,-0.133984,0.478516,13.1122,-87.9346,70.7849,-0.0610352,-2.74658,3.66211,0.536896,0.466461,-0.514618,0.478729,-17212,10265,-22807,-8985,-28663
9850,9.8,-0.16748,0.449805,12.2772,-87.962,71.0651,0.366211,-2.80762,3.72314,0.537964,0.465179,-0.515869,0.477448,-16700,10777,-23063,-8985,-28663
9856,9.75693,-0.153125,0.440234,11.8268,-87.973,71.2354,0.488281,-2.19727,3.60107,0.538971,0.463898,-0.51712,0.476196,-16444,11289,-23063,-8985,-28663
9862,9.80957,-0.177051,0.368457,11.3818,-87.984,71.4111,0.0610352,-1.64795,3.41797,0.540009,0.462585,-0.518341,0.474945,-16188,12057,-23063,-8985,-28663
9868,9.79043,-0.191406,0.349316,10.9644,-87.984,71.543,0,-0.976562,2.99072,0.541077,0.461273,-0.519562,0.473694,-15676,12313,-22551,-8985,-28663
9874,9.82871,-0.177051,0.378027,10.5853,-87.984,71.6418,-0.183105,0.427246,2.44141,0.543304,0.458588,-0.521881,0.471222,-15676,12825,-23063,-8985,-28663
9880,9.81914,-0.172266,0.373242,10.0415,-87.962,71.6254,-0.427246,1.95312,1.28174,0.544464,0.457245,-0.52298,0.469971,-15932,13849,-23063,-8985,-28663
9886,9.77129,-0.0957031,0.44502,9.76135,-87.951,71.6254,-0.549316,2.2583,1.40381,0.545624,0.455872,-0.524078,0.468719,-15932,14617,-23319,-8985,-28663
9892,9.74736,-0.090918,0.45459,9.47021,-87.9346,71.6418,-0.244141,2.38037,1.52588,0.546814,0.454498,-0.525146,0.467468,-15164,15385,-22551,-8985,-28663
9898,9.78564,-0.13877,0.430664,9.10217,-87.9181,71.7352,0,2.44141,2.0752,0.548004,0.453125,-0.526184,0.466248,-13628,15385,-21783,-8985,-28663
9904,9.79043,-0.177051,0.425879,8.7561,-87.9071,71.8066,-0.12207,2.44141,1.95312,0.550293,0.450348,-0.52829,0.463837,-12860,14873,-20759,-8985,-28663
9910,9.77129,-0.143555,0.45459,8.10791,-87.8796,71.9,-0.0610352,2.56348,1.83105,0.551453,0.448975,-0.529358,0.462616,-11580,13593,-21271,-8985,-28663
9916,9.76172,-0.143555,0.468945,7.77283,-87.8632,71.9604,0.183105,2.44141,1.95312,0.552582,0.447571,-0.530396,0.461395,-11580,13849,-22295,-8985,-28663
9922,9.77607,-0.143555,0.512012,7.38281,-87.8522,72.0868,0.488281,2.44141,2.44141,0.553711,0.446198,-0.531433,0.460175,-11580,14105,-23319,-8985,-28663
9928,9.77607,-0.153125,0.540723,7.03125,-87.8357,72.1637,0.305176,1.95312,2.19727,0.55484,0.444824,-0.53244,0.458984,-11324,14873,-24343,-8985,-28663
9934,9.79521,-0.186621,0.483301,6.69067,-87.8247,72.2351,0.793457,1.83105,2.19727,0.557007,0.442108,-0.534485,0.456604,-10812,15641,-23575,-8985,-28663
9940,9.80479,-0.191406,0.47373,6.09192,-87.8027,72.301,0.732422,1.95312,1.64795,0.558105,0.440735,-0.535492,0.455383,-9532,16409,-22039,-8985,-28663
9946,9.80957,-0.181836,0.47373,5.82825,-87.7917,72.2955,0.732422,1.95312,1.64795,0.559204,0.439392,-0.536499,0.454193,-8764,16409,-21015,-8985,-28663
9952,9.78086,-0.181836,0.46416,5.58105,-87.7753,72.2736,0.305176,2.38037,1.46484,0.560272,0.438049,-0.537506,0.452972,-8252,17177,-20759,-8985,-28663
9958,9.80479,-0.186621,0.459375,5.36133,-87.7588,72.2241,0.427246,2.44141,1.28174,0.561371,0.436676,-0.538483,0.451752,-7740,17945,-22039,-8985,-28663
9964,9.78086,-0.177051,0.483301,5.13611,-87.7478,72.1802,0.427246,2.19727,1.34277,0.563568,0.43396,-0.540436,0.44928,-7484,18969,-23319,-8985,-28663
9970,9.79521,-0.196191,0.492871,4.79004,-87.7203,71.9934,0,1.89209,0.915527,0.564667,0.432617,-0.541412,0.448059,-6972,19993,-26391,-8985,-28663
9976,9.78564,-0.224902,0.492871,4.72412,-87.7094,71.7847,0.244141,1.77002,0.12207,0.565765,0.431274,-0.542389,0.446808,-6716,19481,-26903,-8985,-28663
9982,9.80957,-0.224902,0.459375,4.71863,-87.6984,71.521,0.12207,2.0752,-0.366211,0.566864,0.429932,-0.543335,0.445526,-6460,18713,-26391,-8985,-28663
9988,9.81436,-0.210547,0.483301,4.77356,-87.6819,71.1969,-0.0610352,2.13623,-0.915527,0.567993,0.428589,-0.544281,0.444244,-6460,17945,-25879,-8985,-28663
9994,9.82393,-0.205762,0.502441,4.86694,-87.6654,70.8289,0,1.95312,-1.2207,0.570251,0.425964,-0.546143,0.441589,-6460,17177,-25111,-8985,-28663
10000,9.8,-0.215332,0.497656,5.21301,-87.6379,69.939,0.244141,2.50244,-2.2583,0.571381,0.424622,-0.547028,0.440277,-7228,15897,-24855,-8985,-28663
10006,9.8,-0.177051,0.492871,5.41077,-87.6215,69.472,0.12207,2.19727,-2.13623,0.57254,0.42334,-0.547913,0.438934,-7996,15385,-24343,-8985,-28663
10012,9.78564,-0.191406,0.47373,5.64697,-87.605,68.9667,0.0610352,1.89209,-2.50244,0.573669,0.422028,-0.548828,0.437561,-8764,14361,-25623,-8985,-28663
10018,9.75693,-0.15791,0.497656,5.87769,-87.5885,68.4613,0.12207,2.19727,-2.50244,0.574829,0.420715,-0.549713,0.436218,-9276,14105,-26391,-8985,-28663
10024,9.77607,-0.0861328,0.516797,6.08643,-87.572,67.9834,0,2.44141,-1.89209,0.577118,0.418091,-0.551453,0.433472,-9276,13849,-26903,-8985,-28663
10030,9.76172,-0.110059,0.497656,6.32812,-87.5446,67.1979,0.0610352,2.19727,-1.40381,0.578247,0.416779,-0.552338,0.432129,-9532,13593,-25623,-8985,-28663
10036,9.78086,-0.133984,0.516797,6.39404,-87.5281,66.8628,0.183105,2.19727,-1.15967,0.579346,0.415466,-0.553223,0.430786,-10044,14105,-23063,-8985,-28663
10042,9.79043,-0.153125,0.47373,6.45447,-87.5116,66.5332,0,2.31934,-1.15967,0.580444,0.414124,-0.554108,0.429474,-9788,14105,-22295,-8985,-28663
10048,9.75215,-0.15791,0.516797,6.48743,-87.4951,66.2366,0,2.38037,-0.915527,0.581543,0.412781,-0.554993,0.428131,-9020,13849,-22295,-8985,-28663
10054,9.74736,-0.124414,0.545508,6.51489,-87.4786,65.9399,0,2.13623,0.0610352,0.58371,0.410095,-0.556732,0.425507,-8252,13593,-23575,-8985,-28663
10060,9.75693,-0.114844,0.564648,6.37756,-87.4567,65.5444,0.305176,1.77002,0,0.584747,0.408752,-0.557617,0.424194,-7484,11033,-25623,-8985,-28663
10066,9.77607,-0.14834,0.564648,6.30615,-87.4457,65.3577,0.244141,1.28174,0.183105,0.585785,0.40741,-0.558502,0.422882,-7484,10265,-26135,-8985,-28663
10072,9.81914,-0.16748,0.555078,6.22925,-87.4347,65.1709,0.305176,1.28174,0.183105,0.586792,0.406067,-0.559387,0.4216,-7740,9753,-25623,-8985,-28663
10078,9.78564,-0.177051,0.540723,6.17432,-87.4292,64.9622,0.366211,0.976562,0.0610352,0.587799,0.404724,-0.560272,0.420288,-8252,9753,-24599,-8985,-28663
10084,9.74736,-0.124414,0.535937,6.11389,-87.4182,64.7589,0.183105,0.915527,0,0.589783,0.4021,-0.562042,0.417664,-8508,10265,-23831,-8985,-28663
10090,9.74736,-0.114844,0.540723,5.99854,-87.4017,64.3524,0.0610352,0.793457,0.183105,0.59079,0.400757,-0.562927,0.416351,-8252,9497,-22807,-8985,-28663
10096,9.75215,-0.119629,0.555078,5.8667,-87.3962,64.2261,0.183105,0.488281,0.854492,0.591766,0.399445,-0.563812,0.415039,-7484,8985,-24087,-8985,-28663
10102,9.73779,-0.114844,0.545508,5.65796,-87.3962,64.1711,0.0610352,0.244141,1.52588,0.592712,0.398132,-0.564697,0.413757,-6716,8473,-24855,-8985,-28663
10108,9.75693,-0.129199,0.579004,5.42175,-87.3962,64.1547,0.183105,-0.244141,1.89209,0.593628,0.39679,-0.565613,0.412476,-5948,8473,-26391,-8985,-28663
10114,9.78086,-0.15791,0.507227,5.1416,-87.3962,64.1766,0.183105,-0.427246,2.13623,0.595398,0.394104,-0.567444,0.409943,-6204,8217,-27159,-8985,-28663
10120,9.8,-0.177051,0.488086,4.60876,-87.3907,64.1986,-0.0610352,-0.305176,2.19727,0.596283,0.392792,-0.568359,0.408661,-6716,8473,-25623,-8985,-28663
10126,9.78086,-0.177051,0.521582,4.35059,-87.3907,64.1986,0,-0.305176,2.0752,0.597168,0.391449,-0.569275,0.40741,-6716,8729,-24855,-8985,-28663
10132,9.77607,-0.172266,0.540723,4.10339,-87.3907,64.1931,0,-0.12207,1.95312,0.598022,0.390106,-0.57016,0.406158,-6460,8729,-24343,-8985,-28663
10138,9.78564,-0.181836,0.574219,3.8562,-87.3907,64.1876,0.12207,-0.488281,2.01416,0.598907,0.388763,-0.571075,0.404877,-5948,8473,-24855,-8985,-28663
10144,9.78564,-0.191406,0.574219,3.62,-87.3907,64.1766,0.549316,-0.976562,2.01416,0.600616,0.386139,-0.572845,0.402374,-5692,8217,-26391,-8985,-28663
10150,9.77607,-0.205762,0.512012,3.18054,-87.3962,64.1162,0.732422,-1.34277,1.64795,0.60144,0.384857,-0.57373,0.401093,-4924,8217,-28183,-8985,-28663
10156,9.79521,-0.205762,0.512012,3.00476,-87.3962,64.0448,0.732422,-0.732422,1.40381,0.602264,0.383575,-0.574615,0.399841,-4668,8729,-28439,-8985,-28663
10162,9.79521,-0.234473,0.512012,2.88391,-87.3962,63.9185,0.488281,-0.366211,0.854492,0.603088,0.382294,-0.57547,0.39859,-4412,9753,-27671,-8985,-28663
10168,9.79043,-0.253613,0.502441,2.77405,-87.3962,63.7756,0.305176,-0.366211,0.732422,0.603943,0.381012,-0.576294,0.397308,-4156,10521,-26391,-8985,-28663
10174,9.79521,-0.177051,0.526367,2.80151,-87.3962,63.2428,0.183105,-0.732422,-0.732422,0.605652,0.378448,-0.577972,0.394684,-4156,11289,-26391,-8985,-28663
10180,9.78564,-0.191406,0.521582,2.88391,-87.3962,62.9132,0.305176,-0.854492,-0.976562,0.606537,0.377197,-0.578796,0.393341,-3388,12825,-24087,-8985,-28663
10186,9.8335,-0.162695,0.531152,2.94983,-87.3962,62.6001,0.183105,-1.0376,-0.854492,0.607391,0.375946,-0.57959,0.391998,-3388,13337,-23575,-8985,-28663
10192,9.77129,-0.186621,0.564648,3.0542,-87.4017,62.2485,0.12207,-1.2207,-1.15967,0.608246,0.374695,-0.580414,0.390656,-3388,14617,-22551,-8985,-28663
10198,9.82871,-0.244043,0.535937,3.18604,-87.4017,61.864,0.366211,-1.46484,-1.40381,0.6091,0.373474,-0.581238,0.389313,-2876,15641,-21783,-8985,-28663
10204,9.80479,-0.200977,0.492871,3.35632,-87.4072,61.441,-0.183105,-0.915527,-2.19727,0.610809,0.371033,-0.582855,0.386566,-2876,16921,-21783,-8985,-28663
10210,9.78086,-0.129199,0.507227,3.72986,-87.4017,60.5676,-0.12207,-0.427246,-1.77002,0.611694,0.369781,-0.583618,0.385162,-3132,18201,-19991,-8985,-28663
10216,9.78564,-0.110059,0.531152,3.82874,-87.4017,60.2161,-0.12207,-0.610352,-1.2207,0.612549,0.368561,-0.584412,0.383789,-4156,18201,-20247,-8985,-28663
10222,9.74258,-0.0813477,0.579004,3.86169,-87.4017,59.9414,0,-0.854492,-0.549316,0.613403,0.36731,-0.585205,0.382416,-4924,18201,-20759,-8985,-28663
10228,9.72344,-0.090918,0.583789,3.7738,-87.4072,59.7821,0.427246,-1.15967,0.549316,0.614227,0.366028,-0.585999,0.381104,-5948,18201,-21271,-8985,-28663
10234,9.76172,-0.14834,0.497656,3.46069,-87.4127,59.6118,0.549316,-1.28174,1.28174,0.615784,0.363525,-0.587585,0.37854,-6204,17433,-21015,-8985,-28663
10240,4.87607,-0.105273,0.0669922,3.24097,-87.4127,59.5953,0.610352,-0.854492,1.77002,0.616516,0.362274,-0.588409,0.377258,-5180,15641,-20247,-8985,-28663
10246,9.7665,-0.172266,0.502441,3.03772,-87.4127,59.5569,0.427246,-0.610352,1.58691,0.617279,0.360992,-0.589203,0.376038,-4924,14873,-20247,-8985,-28663
10252,9.77129,-0.15791,0.550293,2.77954,-87.4182,59.5789,0.305176,-0.610352,2.0752,0.618042,0.35968,-0.589966,0.374786,-5180,15129,-22295,-8985,-28663
10258,9.79043,-0.16748,0.545508,2.52136,-87.4182,59.5953,0.305176,-0.610352,2.0752,0.618774,0.358398,-0.590759,0.373535,-5948,15641,-24599,-8985,-28663
10264,9.79043,-0.177051,0.516797,1.99951,-87.4182,59.6448,0.610352,-1.15967,2.2583,0.62027,0.355804,-0.592316,0.371094,-7484,16921,-26391,-8985,-28663
10270,9.81436,-0.200977,0.526367,1.72485,-87.4237,59.6832,0.366211,-1.46484,2.2583,0.620972,0.354553,-0.593109,0.369873,-8508,18457,-30743,-8985,-28663
10276,9.78564,-0.224902,0.516797,1.51062,-87.4292,59.6613,0.427246,-1.58691,1.70898,0.621674,0.353271,-0.593903,0.368652,-8252,19481,-31511,-8985,-28663
10282,9.81914,-0.215332,0.507227,1.34033,-87.4347,59.5953,0.12207,-1.64795,1.28174,0.622375,0.35202,-0.594666,0.367401,-7228,20505,32489,-8985,-28663
10288,9.7665,-0.215332,0.488086,1.25793,-87.4402,59.436,0.0610352,-1.34277,0.488281,0.623077,0.350739,-0.595459,0.36615,-6204,21785,32745,-8985,-28663
10294,9.82393,-0.215332,0.502441,1.17004,-87.4402,59.0515,0.305176,-0.793457,0.244141,0.624542,0.348267,-0.596954,0.363556,-6204,23321,-30999,-8985,-28663
10300,9.78564,-0.229688,0.521582,1.14807,-87.4402,58.8373,0.366211,-0.915527,-0.0610352,0.625275,0.347015,-0.597687,0.362305,-5692,24345,-26903,-8985,-28663
10306,9.84307,-0.210547,0.492871,1.15356,-87.4402,58.5956,0.366211,-0.671387,-0.305176,0.626007,0.345795,-0.598389,0.361023,-5436,23833,-26135,-8985,-28663
10312,9.77607,-0.210547,0.468945,1.203,-87.4402,58.3154,0.366211,-0.244141,-0.732422,0.62677,0.344574,-0.599121,0.359711,-5180,23321,-25111,-8985,-28663
10318,9.75215,-0.200977,0.449805,1.26343,-87.4347,58.0188,0.366211,0.183105,-0.854492,0.627502,0.343353,-0.599792,0.358429,-4924,22809,-24599,-8985,-28663
10324,9.83828,-0.248828,0.483301,1.54907,-87.4237,57.2552,0.366211,0.854492,-2.13623,0.629059,0.340881,-0.601135,0.355835,-4668,22553,-24855,-8985,-28663
10330,9.83828,-0.220117,0.531152,1.81824,-87.4127,56.7499,0.12207,0.793457,-2.80762,0.629852,0.339661,-0.601776,0.354492,-4412,22297,-25111,-8985,-28663
10336,9.79521,-0.200977,0.516797,2.13135,-87.4072,56.1951,0.305176,0.671387,-3.23486,0.630676,0.33844,-0.602386,0.353149,-4668,22041,-25623,-8985,-28663
10342,9.78086,-0.181836,0.526367,2.47742,-87.4017,55.6128,0.305176,0.366211,-3.54004,0.6315,0.33725,-0.603027,0.351776,-4668,21785,-25879,-8985,-28663
10348,9.77607,-0.15791,0.545508,2.79053,-87.3962,55.0635,0.12207,0.244141,-3.23486,0.632294,0.33606,-0.603638,0.350372,-5180,21273,-25879,-8985,-28663
10354,9.80479,-0.13877,0.545508,3.3783,-87.3853,53.9978,0.12207,-0.0610352,-3.11279,0.633881,0.333649,-0.604919,0.347626,-6204,20505,-27415,-8985,-28663
10360,9.77607,-0.133984,0.507227,3.63647,-87.3853,53.5034,0.244141,-0.549316,-2.74658,0.634644,0.332458,-0.60553,0.346222,-6460,19993,-27671,-8985,-28663
10366,9.75693,-0.110059,0.535937,3.83423,-87.3853,53.0695,0,-1.15967,-2.13623,0.635406,0.331268,-0.606201,0.344849,-6460,19225,-27927,-8985,-28663
10372,9.76172,-0.110059,0.521582,3.99353,-87.3907,52.674,0,-1.58691,-1.77002,0.636139,0.330078,-0.606873,0.343506,-6460,19225,-27415,-8985,-28663
10378,9.76172,-0.124414,0.531152,4.08691,-87.3962,52.3444,0.0610352,-1.52588,-1.15967,0.636841,0.328888,-0.607544,0.342133,-5948,19225,-27159,-8985,-28663
10384,9.79521,-0.172266,0.526367,4.28467,-87.4072,51.6797,0.488281,-1.77002,-1.40381,0.638184,0.326477,-0.608917,0.339478,-5692,19737,-26135,-8985,-28663
10390,9.79521,-0.13877,0.425879,4.37805,-87.4127,51.3556,0.0610352,-1.95312,-1.09863,0.638855,0.325287,-0.609589,0.338135,-6204,19737,-25367,-8985,-28663
10396,9.7665,-0.119629,0.478516,4.40552,-87.4182,51.0974,-0.183105,-1.64795,-0.549316,0.639526,0.324066,-0.61026,0.336792,-6972,19737,-24087,-8985,-28663
10402,9.77129,-0.110059,0.507227,4.43298,-87.4182,50.8337,-0.12207,-1.52588,-0.549316,0.640198,0.322845,-0.610962,0.33548,-7996,19737,-22807,-8985,-28663
10408,9.76172,-0.119629,0.502441,4.43848,-87.4237,50.603,0,-1.83105,-0.305176,0.640839,0.321625,-0.611633,0.334167,-9020,19737,-22295,-8985,-28663
10414,9.77129,-0.133984,0.550293,4.31213,-87.4457,50.2734,0.244141,-2.31934,0.427246,0.64209,0.319214,-0.612976,0.331573,-10044,19737,-23575,-8985,-28663
10420,9.76172,-0.14834,0.531152,4.21326,-87.4512,50.1526,0.366211,-2.62451,0.732422,0.6427,0.318024,-0.613678,0.330322,-10556,19737,-23831,-8985,-28663
10426,9.77129,-0.143555,0.47373,4.07043,-87.4622,50.0702,0.549316,-2.74658,1.09863,0.64328,0.316803,-0.61438,0.329071,-11324,19481,-24343,-8985,-28663
10432,9.78086,-0.177051,0.440234,3.93311,-87.4731,49.9878,0.732422,-2.0752,1.0376,0.643829,0.315613,-0.615051,0.32782,-12092,19481,-23831,-8985,-28663
10438,9.79521,-0.177051,0.46416,3.80127,-87.4786,49.8944,0.854492,-1.64795,0.915527,0.644409,0.314392,-0.615723,0.326599,-12092,18969,-24087,-8985,-28663
10444,9.79043,-0.110059,0.497656,3.55408,-87.4896,49.7021,0.854492,-1.52588,0.915527,0.645569,0.311981,-0.617004,0.324158,-11068,18969,-22551,-8985,-28663
10450,9.79521,-0.172266,0.521582,3.42773,-87.4951,49.6143,1.15967,-1.64795,0.915527,0.646149,0.310791,-0.617645,0.322937,-9788,18969,-21015,-8985,-28663
10456,9.81436,-0.191406,0.512012,3.30688,-87.5006,49.5209,1.40381,-1.95312,0.854492,0.646698,0.309601,-0.618286,0.321747,-8508,19737,-19479,-8985,-28663
10462,9.77607,-0.196191,0.488086,3.26294,-87.5061,49.3506,1.40381,-1.95312,0.183105,0.647247,0.308441,-0.618927,0.320526,-7228,19737,-18711,-8985,-28663
10468,9.80957,-0.196191,0.44502,3.21899,-87.5116,49.1803,1.2207,-1.64795,0.183105,0.647827,0.307281,-0.619537,0.319305,-6204,19737,-17687,-8985,-28663
10474,9.81436,-0.200977,0.430664,3.32886,-87.5171,48.6365,0.976562,-0.915527,-1.15967,0.648956,0.304962,-0.620758,0.316864,-5692,20249,-17687,-8985,-28663
10480,9.80957,-0.191406,0.373242,3.43323,-87.5171,48.3069,0.488281,-0.366211,-1.28174,0.649567,0.303802,-0.621307,0.315613,-5948,20249,-17175,-8985,-28663
10486,9.77129,-0.186621,0.416309,3.66943,-87.5116,47.8564,0.305176,0,-2.44141,0.650177,0.302643,-0.621887,0.314331,-6204,21017,-16919,-8985,-28663
10492,9.79043,-0.14834,0.45459,3.87268,-87.5061,47.428,0.183105,0.549316,-2.2583,0.650848,0.301483,-0.622437,0.313019,-7228,21017,-15383,-8985,-28663
10498,9.75693,-0.13877,0.47373,4.09241,-87.5006,46.9885,0.12207,0.732422,-2.38037,0.652161,0.299133,-0.623474,0.310425,-7740,21017,-13847,-8985,-28663
10504,9.77129,-0.124414,0.497656,4.41101,-87.4841,46.225,0.305176,0.427246,-1.52588,0.652832,0.297974,-0.623993,0.309113,-8508,20249,-10519,-8985,-28663
10510,9.7665,-0.105273,0.521582,4.47693,-87.4786,45.9393,0.488281,0.366211,-1.0376,0.653473,0.296783,-0.624512,0.307861,-8508,19225,-10263,-8985,-28663
10516,9.75215,-0.110059,0.507227,4.48792,-87.4786,45.7141,0.793457,-0.12207,-0.488281,0.654083,0.295624,-0.625031,0.30661,-7996,18457,-12055,-8985,-28663
10522,9.74736,-0.124414,0.516797,4.46594,-87.4786,45.5273,1.28174,-0.183105,-0.12207,0.654663,0.294434,-0.62558,0.305389,-7996,17433,-14359,-8985,-28663
10528,9.81914,-0.13877,0.44502,4.39453,-87.4731,45.39,1.46484,0.244141,0.244141,0.655823,0.292084,-0.626648,0.303009,-7996,16665,-17175,-8985,-28663
10534,9.79043,-0.14834,0.483301,4.30115,-87.4622,45.0604,1.58691,0.549316,-0.0610352,0.656372,0.290924,-0.627136,0.301819,-8764,14361,-21271,-8985,-28663
10540,9.78564,-0.124414,0.459375,4.22974,-87.4567,44.9231,1.58691,0.244141,0.244141,0.656952,0.289764,-0.627655,0.300659,-10044,14105,-23319,-8985,-28663
10546,9.76172,-0.129199,0.46416,4.14734,-87.4567,44.8022,1.28174,-0.0610352,0.366211,0.657532,0.288605,-0.628143,0.299469,-10556,13849,-24343,-8985,-28663
10552,9.81914,-0.172266,0.449805,4.08142,-87.4567,44.6539,1.2207,0.12207,0.183105,0.658081,0.287415,-0.628662,0.298309,-10044,14617,-25111,-8985,-28663
10558,9.83828,-0.196191,0.459375,4.03198,-87.4512,44.4946,0.915527,0.366211,0,0.65918,0.285065,-0.6297,0.295959,-9532,15129,-25879,-8985,-28663
10564,9.80957,-0.177051,0.468945,4.15283,-87.4402,43.9508,0.610352,0.793457,-1.2207,0.65976,0.283905,-0.630188,0.294739,-7740,15897,-25879,-8985,-28663
10570,9.79043,-0.177051,0.440234,4.25171,-87.4347,43.6377,0.244141,0.671387,-1.40381,0.660339,0.282745,-0.630646,0.293488,-7228,16153,-26647,-8985,-28663
10576,9.78564,-0.15791,0.46416,4.37805,-87.4237,43.2971,0,1.28174,-1.70898,0.66095,0.281586,-0.631134,0.292236,-6716,16921,-26647,-8985,-28663
10582,9.7665,-0.172266,0.45459,4.48792,-87.4127,42.973,-0.0610352,1.34277,-1.58691,0.66156,0.280396,-0.631592,0.290985,-6460,17945,-27159,-8985,-28663
10588,9.7665,-0.153125,0.531152,4.61975,-87.4017,42.6215,-0.183105,1.34277,-1.83105,0.662781,0.278046,-0.632507,0.288452,-6204,18969,-27671,-8985,-28663
10594,9.77607,-0.143555,0.507227,4.84497,-87.3907,41.9678,0.244141,0.793457,-1.40381,0.663391,0.276886,-0.632965,0.287201,-6716,18713,-27415,-8985,-28663
10600,9.80957,-0.143555,0.497656,5.00427,-87.3798,41.5942,0.183105,0.732422,-2.01416,0.663971,0.275696,-0.633453,0.28595,-7228,18457,-27159,-8985,-28663
10606,9.82393,-0.16748,0.507227,5.1416,-87.3743,41.2427,0.427246,0.732422,-1.83105,0.664551,0.274536,-0.633911,0.284698,-7484,17945,-26903,-8985,-28663
10612,9.81436,-0.153125,0.488086,5.36682,-87.3688,40.8087,0.244141,0.488281,-2.62451,0.665131,0.273407,-0.634369,0.283417,-7740,17945,-25879,-8985,-28663
10618,9.83828,-0.172266,0.492871,5.65247,-87.3633,40.3033,0.0610352,0.549316,-3.23486,0.66629,0.271149,-0.635254,0.280823,-7740,18457,-25367,-8985,-28663
10624,9.7665,-0.110059,0.488086,6.32812,-87.3468,39.2047,-0.0610352,0.488281,-3.60107,0.666901,0.27002,-0.635681,0.27951,-7740,19737,-23575,-8985,-28663
10630,9.77607,-0.114844,0.492871,6.63025,-87.3413,38.6829,0,0.244141,-3.41797,0.66748,0.268921,-0.636108,0.278168,-7996,20249,-23575,-8985,-28663
10636,9.7665,-0.13877,0.502441,6.91589,-87.3358,38.183,0.12207,0,-3.23486,0.66806,0.267792,-0.636566,0.276855,-8508,19993,-23063,-8985,-28663
10642,9.8,-0.0717773,0.47373,7.1521,-87.3303,37.738,0.183105,0,-2.74658,0.66864,0.266693,-0.637024,0.275513,-8764,19737,-22551,-8985,-28663
10648,9.74736,-0.0526367,0.47373,7.3938,-87.3303,37.2821,0,-0.12207,-2.80762,0.669708,0.264435,-0.637909,0.272919,-9020,19481,-22551,-8985,-28663
10654,9.79043,-0.0669922,0.478516,7.67395,-87.3193,36.579,0,0.0610352,-1.77002,0.670258,0.263306,-0.638367,0.271667,-7996,17945,-23063,-8985,-28663
10660,9.7665,-0.0813477,0.516797,7.75085,-87.3193,36.2988,0.244141,0,-1.2207,0.670776,0.262146,-0.638824,0.270386,-7996,17433,-23319,-8985,-28663
10666,9.7665,-0.0765625,0.468945,7.80029,-87.3138,36.0352,0,0.0610352,-1.0376,0.671295,0.261017,-0.639252,0.269165,-7740,17689,-24343,-8985,-28663
10672,9.75693,-0.0526367,0.502441,7.81677,-87.3138,35.8154,0,0.12207,-0.671387,0.671814,0.259857,-0.639709,0.267944,-7228,17177,-24855,-8985,-28663
10678,9.74736,-0.0813477,0.507227,7.76184,-87.3083,35.6671,-0.12207,-0.0610352,0,0.672791,0.257538,-0.640625,0.265533,-6972,16921,-25111,-8985,-28663
10684,9.79043,-0.0957031,0.47373,7.51465,-87.3083,35.5023,0,0.0610352,0.732422,0.673279,0.256378,-0.641083,0.264374,-7228,15641,-24599,-8985,-28663
10690,9.78564,-0.105273,0.521582,7.43774,-87.3029,35.3815,0.12207,0.0610352,0.244141,0.673737,0.255188,-0.641541,0.263214,-8764,14617,-24343,-8985,-28663
10696,9.80479,-0.105273,0.478516,7.35535,-87.3029,35.2606,0.12207,-0.12207,0.305176,0.674194,0.254028,-0.641968,0.262054,-9532,13849,-24343,-8985,-28663
10702,9.81436,-0.090918,0.497656,7.28394,-87.3029,35.1343,0.244141,-0.183105,0.244141,0.674652,0.252899,-0.642426,0.260895,-10044,12825,-23319,-8985,-28663
10708,9.76172,-0.0765625,0.512012,7.14661,-87.3029,35.0739,0.305176,-0.244141,0.854492,0.675568,0.25061,-0.64328,0.258636,-10556,12313,-22039,-8985,-28663
10714,9.80957,-0.0957031,0.488086,6.87744,-87.3083,34.953,0.427246,-0.854492,0.915527,0.675964,0.249481,-0.643738,0.257507,-11836,11801,-17431,-8985,-28663
10720,9.81436,-0.0957031,0.478516,6.73462,-87.3083,34.9036,0.854492,-0.610352,0.976562,0.676392,0.248352,-0.644196,0.256378,-12604,12313,-14871,-8985,-28663
10726,9.78086,-0.129199,0.507227,6.53687,-87.3138,34.9146,0.854492,-0.915527,1.58691,0.676788,0.247223,-0.644623,0.25531,-13372,12057,-13079,-8985,-28663
10732,9.75693,-0.0861328,0.497656,6.36108,-87.3138,34.8981,0.732422,-0.854492,1.34277,0.677185,0.246094,-0.645081,0.254211,-13628,12057,-12311,-8985,-28663
10738,9.77607,-0.114844,0.47373,6.12488,-87.3193,34.942,0.549316,-0.854492,1.89209,0.677948,0.243866,-0.645935,0.252075,-14140,11545,-12567,-8985,-28663
10744,9.8,-0.124414,0.478516,5.63049,-87.3248,35.0629,0.976562,-0.732422,2.0752,0.678314,0.242737,-0.646393,0.251038,-13628,8985,-14359,-8985,-28663
10750,10.0105,-0.239258,0.387598,5.46021,-87.3248,35.0464,0.915527,-0.427246,1.2207,0.678711,0.241608,-0.64682,0.25,-12860,7193,-14615,-8985,-28663
10756,9.55117,-0.177051,0.382812,5.34485,-87.3248,34.9695,0.549316,0.183105,0.610352,0.679077,0.240509,-0.647217,0.248932,-12604,5657,-13335,-8985,-28663
10762,9.86699,-0.110059,0.344531,5.24597,-87.3193,34.8761,0,0.793457,0.427246,0.679504,0.23941,-0.647614,0.247833,-12604,4889,-11543,-8985,-28663
10768,9.68037,-0.0574219,0.645996,5.11963,-87.3083,34.8102,0,1.46484,0.549316,0.680389,0.237152,-0.648346,0.245636,-12860,4377,-10263,-8985,-28663
10774,9.87656,-0.0717773,0.583789,4.71863,-87.3083,34.8431,1.2207,-0.244141,1.83105,0.680817,0.236023,-0.648712,0.244598,-12860,4377,-10007,-8985,-28663
10780,9.80957,-0.186621,0.497656,4.52087,-87.3083,34.8651,1.95312,-0.610352,1.58691,0.681183,0.234955,-0.649109,0.243561,-12604,5401,-11287,-8985,-28663
10786,9.83828,-0.200977,0.45459,4.43298,-87.3083,34.7772,2.01416,-0.488281,0.549316,0.681519,0.233887,-0.649506,0.242584,-12092,6425,-13335,-8985,-28663
10792,9.84785,-0.181836,0.44502,4.40552,-87.3083,34.6234,1.89209,0.12207,-0.12207,0.681885,0.232849,-0.649872,0.241516,-12348,7193,-15127,-8985,-28663
10798,9.81914,-0.162695,0.416309,4.46594,-87.3029,34.3762,0.854492,1.0376,-1.40381,0.682709,0.230804,-0.650574,0.23938,-12092,7449,-15895,-8985,-28663
10804,9.80957,-0.129199,0.488086,4.71313,-87.2864,33.7555,0.427246,1.0376,-2.01416,0.683136,0.229736,-0.650879,0.238251,-11580,6937,-15639,-8985,-28663
10810,9.77129,-0.0957031,0.564648,4.86694,-87.2809,33.4149,0.183105,0.366211,-1.95312,0.683594,0.228699,-0.651215,0.237091,-11580,6425,-15383,-8985,-28663
10816,9.73301,-0.0239258,0.559863,4.93835,-87.2809,33.1567,0.671387,-0.366211,-1.09863,0.684021,0.227661,-0.65155,0.235931,-12092,6681,-15127,-8985,-28663
10822,9.72822,-0.0334961,0.526367,4.89441,-87.2864,33.0194,1.28174,-0.976562,0.12207,0.684418,0.226624,-0.651886,0.234802,-12604,7193,-15127,-8985,-28663
10828,9.78086,-0.100488,0.502441,4.79004,-87.2919,32.9535,1.64795,-1.58691,1.70898,0.685059,0.224579,-0.652649,0.232727,-13116,7449,-15895,-8985,-28663
10834,9.79521,-0.133984,0.459375,4.43298,-87.3029,32.959,1.58691,-1.09863,1.15967,0.685364,0.223541,-0.653076,0.23172,-13372,6937,-16919,-8985,-28663
10840,9.78564,-0.13877,0.421094,4.24072,-87.3029,32.9755,1.15967,-1.0376,1.52588,0.685699,0.222504,-0.653442,0.230713,-13628,6937,-16407,-8985,-28663
10846,9.78564,-0.100488,0.449805,4.021,-87.3083,33.0194,0.732422,-0.549316,1.77002,0.686005,0.221466,-0.653809,0.229706,-13372,6937,-16151,-8985,-28663
10852,9.78086,-0.129199,0.440234,3.84521,-87.3083,33.0194,0.427246,-0.366211,1.28174,0.68634,0.220398,-0.654175,0.228699,-13372,7193,-16663,-8985,-28663
10858,9.75693,-0.119629,0.535937,3.66943,-87.3083,33.0139,0.427246,-0.915527,1.40381,0.687012,0.218262,-0.654907,0.226654,-14140,7193,-16919,-8985,-28663
10864,9.77129,-0.0957031,0.488086,3.25745,-87.3138,33.0743,0.732422,-0.854492,1.83105,0.687317,0.217194,-0.655273,0.225647,-14652,7449,-19223,-8985,-28663
10870,9.78086,-0.114844,0.502441,3.01025,-87.3193,33.1458,0.732422,-0.976562,2.01416,0.687622,0.216125,-0.65564,0.22464,-14908,6937,-20759,-8985,-28663
10876,9.78086,-0.13877,0.483301,2.7356,-87.3248,33.2501,0.671387,-1.15967,2.2583,0.687927,0.215088,-0.656006,0.223663,-14652,6937,-21783,-8985,-28663
10882,9.82871,-0.15791,0.435449,2.50488,-87.3248,33.3051,0.427246,-0.915527,1.83105,0.688202,0.21402,-0.656372,0.222717,-13628,6425,-20759,-8985,-28663
10888,9.78086,-0.133984,0.483301,2.28516,-87.3303,33.349,-0.244141,0,1.46484,0.688843,0.211914,-0.657104,0.220734,-12348,5913,-20503,-8985,-28663
10894,9.7665,-0.124414,0.507227,1.87866,-87.3248,33.4039,-0.549316,-0.12207,1.52588,0.689148,0.210846,-0.65744,0.219727,-10556,5401,-17943,-8985,-28663
10900,9.75215,-0.105273,0.521582,1.62598,-87.3248,33.4753,-0.244141,-0.244141,1.95312,0.689484,0.209747,-0.657776,0.218719,-10044,5657,-16919,-8985,-28663
10906,9.78086,-0.133984,0.488086,1.35132,-87.3303,33.5852,0.183105,-0.610352,2.2583,0.689789,0.208679,-0.658112,0.217743,-10300,6937,-16151,-8985,-28663
10912,9.78086,-0.16748,0.45459,1.06567,-87.3303,33.7006,0.793457,-0.305176,2.31934,0.690094,0.207642,-0.658447,0.216766,-10812,7961,-15383,-8985,-28663
10918,9.8335,-0.181836,0.45459,0.604248,-87.3248,33.8269,1.0376,0.488281,1.70898,0.690674,0.205566,-0.659088,0.214905,-10556,8985,-15383,-8985,-28663
10924,9.79521,-0.186621,0.416309,0.41748,-87.3193,33.8489,0.854492,0.183105,1.40381,0.69101,0.204529,-0.659363,0.213959,-9532,9497,-14871,-8985,-28663
10930,9.8,-0.15791,0.401953,0.280151,-87.3138,33.8159,0.427246,0.915527,0.915527,0.691315,0.203522,-0.659668,0.213013,-8764,9497,-14615,-8985,-28663
10936,9.78086,-0.13877,0.478516,0.175781,-87.3083,33.75,0.366211,1.15967,0.610352,0.69165,0.202484,-0.659943,0.212036,-7996,9497,-13591,-8985,-28663
10942,9.80957,-0.13877,0.521582,0.0549316,-87.2974,33.7061,0.366211,1.2207,0.793457,0.691986,0.201447,-0.660217,0.21106,-7484,9497,-12823,-8985,-28663
10948,9.78086,-0.133984,0.512012,-0.153809,-87.2864,33.5852,0.976562,0.732422,0.793457,0.692688,0.199432,-0.660736,0.209106,-7484,9753,-12055,-8985,-28663
10954,9.77607,-0.16748,0.488086,-0.280151,-87.2864,33.5468,1.15967,0.366211,0.854492,0.692993,0.198425,-0.661011,0.20813,-6972,8985,-12311,-8985,-28663
10960,9.77607,-0.15791,0.468945,-0.368042,-87.2809,33.4644,0.976562,0.488281,0.488281,0.693298,0.197449,-0.661285,0.207184,-6972,8985,-11799,-8985,-28663
10966,9.81914,-0.205762,0.425879,-0.43396,-87.2754,33.371,0.793457,0.854492,0.305176,0.693634,0.196472,-0.66156,0.206207,-6716,8985,-11799,-8985,-28663
10972,9.79043,-0.205762,0.449805,-0.439453,-87.2699,33.2007,0.427246,1.2207,-0.366211,0.693939,0.195465,-0.661804,0.205231,-6460,9753,-12823,-8985,-28663
10978,9.8,-0.15791,0.483301,-0.31311,-87.2479,32.7338,0,1.64795,-1.0376,0.694672,0.193481,-0.662292,0.203186,-6204,10777,-13847,-8985,-28663
10984,9.82393,-0.143555,0.47373,-0.230713,-87.2424,32.4756,-0.0610352,1.40381,-1.2207,0.695038,0.192474,-0.662506,0.202118,-5436,11545,-16407,-8985,-28663
10990,9.78564,-0.143555,0.488086,-0.170288,-87.2314,32.2449,0,1.34277,-1.0376,0.695374,0.191498,-0.66275,0.20108,-5436,10777,-16151,-8985,-28663
10996,9.78086,-0.143555,0.45459,-0.0933838,-87.2205,31.9977,-0.0610352,1.52588,-1.15967,0.69574,0.190491,-0.662964,0.200012,-5692,10265,-16151,-8985,-28663
11002,9.78086,-0.14834,0.47373,-0.032959,-87.215,31.7615,-0.12207,1.77002,-1.0376,0.696106,0.189514,-0.663208,0.198975,-5948,9497,-15895,-8985,-28663
11008,9.77607,-0.119629,0.478516,0.115356,-87.1875,31.2561,-0.488281,2.13623,-1.15967,0.696838,0.1875,-0.663605,0.196869,-6204,8985,-16407,-8985,-28663
11014,9.74736,-0.0813477,0.540723,0.137329,-87.1765,31.0638,-0.366211,2.31934,-0.671387,0.697205,0.186493,-0.663818,0.195801,-6460,7961,-19735,-8985,-28663
11020,9.72822,-0.0669922,0.535937,0.12085,-87.1655,30.91,-0.427246,2.19727,-0.305176,0.697571,0.185486,-0.664032,0.194763,-6972,7705,-21527,-8985,-28663
11026,9.75215,-0.0669922,0.46416,0.00549316,-87.1545,30.8606,-0.244141,1.95312,0.732422,0.697937,0.184479,-0.664215,0.193756,-6972,7449,-22551,-8985,-28663
11032,9.75693,-0.0765625,0.492871,-0.192261,-87.1436,30.8936,-0.244141,2.0752,1.58691,0.698273,0.183441,-0.664429,0.19278,-7484,7193,-23575,-8985,-28663
11038,9.78086,-0.15791,0.483301,-0.598755,-87.1161,30.9705,0,2.38037,1.89209,0.698944,0.181366,-0.664856,0.190887,-7996,7961,-23831,-8985,-28663
11044,9.77607,-0.15791,0.507227,-0.818481,-87.1051,31.0254,-0.183105,2.38037,1.83105,0.699249,0.180328,-0.66507,0.189972,-8252,8473,-23575,-8985,-28663
11050,9.79043,-0.129199,0.545508,-1.02173,-87.0941,31.0638,0,2.01416,1.64795,0.699585,0.17926,-0.665253,0.189056,-8252,9497,-23063,-8985,-28663
11056,9.79521,-0.13877,0.540723,-1.23596,-87.0831,31.1188,0.0610352,1.77002,1.83105,0.699921,0.178253,-0.665466,0.188141,-7996,9753,-23063,-8985,-28663
11062,9.79521,-0.177051,0.507227,-1.40076,-87.0721,31.1243,0,1.58691,1.34277,0.700226,0.177216,-0.66568,0.187256,-7740,10265,-23063,-8985,-28663
11068,9.80479,-0.181836,0.531152,-1.71387,-87.0502,31.1078,-0.0610352,2.0752,0.915527,0.700806,0.175201,-0.666077,0.185394,-6972,10009,-23575,-8985,-28663
11074,9.80957,-0.186621,0.516797,-1.83472,-87.0392,31.0693,0,2.0752,0.915527,0.701141,0.174194,-0.66626,0.184479,-6716,10009,-23575,-8985,-28663
11080,9.78564,-0.172266,0.545508,-1.93359,-87.0282,31.0089,0,1.83105,0.671387,0.701447,0.173187,-0.666473,0.183533,-6460,9753,-23063,-8985,-28663
11086,9.71865,-0.172266,0.550293,-2.02698,-87.0227,30.9375,-0.244141,1.77002,0.610352,0.701752,0.172211,-0.666656,0.182587,-5692,9753,-23319,-8985,-28663
11092,10.0058,-0.244043,0.535937,-2.03796,-87.0117,30.7837,0.244141,2.01416,-0.244141,0.702057,0.171234,-0.66684,0.181641,-5948,9753,-23319,-8985,-28663
11098,9.80479,-0.133984,0.440234,-2.02148,-86.9897,30.4431,-1.0376,2.0752,-0.549316,0.702698,0.169281,-0.667206,0.179688,-6460,9753,-22807,-8985,-28663
