Timestamp,AccX,AccY,AccZ,AngleX,AngleY,AngleZ,AngularVelX,AngularVelY,AngularVelZ,QW,QX,QY,QZ,MagX,MagY,MagZ,Height,AirPressure
17498,9.81436,0.311035,0.440234,34.6014,-86.9293,-147.557,0.0610352,-0.183105,0.12207,0.390015,-0.570282,-0.390717,-0.608185,-27965,-19944,-2330,-8985,-28663
17504,9.80479,0.272754,0.430664,34.5905,-86.9293,-147.546,0.0610352,0,0.12207,0.389984,-0.570312,-0.390686,-0.608185,-26685,-20456,-1818,-8985,-28663
17510,9.77129,0.301465,0.449805,34.552,-86.9293,-147.513,0.183105,0.12207,0.0610352,0.389984,-0.570343,-0.390656,-0.608185,-26173,-20712,-1050,-8985,-28663
17516,9.77129,0.339746,0.45459,34.53,-86.9238,-147.491,0.305176,0.305176,0.12207,0.389954,-0.570343,-0.390656,-0.608215,-25661,-20968,743,-8985,-28663
17522,9.7665,0.31582,0.44502,34.4861,-86.9293,-147.448,0.366211,0,0.549316,0.389954,-0.570343,-0.390625,-0.608215,-25405,-20968,2023,-8985,-28663
17528,9.78564,0.29668,0.411523,34.4366,-86.9293,-147.404,0.366211,0.0610352,0.610352,0.389984,-0.570343,-0.390625,-0.608215,-25917,-20968,2023,-8985,-28663
17534,9.80479,0.267969,0.401953,34.3707,-86.9293,-147.332,0.305176,0.244141,0.732422,0.390015,-0.570374,-0.390564,-0.608215,-26685,-20200,743,-8985,-28663
17540,9.78086,0.311035,0.421094,34.2224,-86.9293,-147.189,0.244141,0.366211,0.549316,0.390045,-0.570374,-0.390533,-0.608215,-27709,-18664,-1562,-8985,-28663
17546,9.78564,0.282324,0.430664,34.1565,-86.9293,-147.123,0.183105,0.610352,0.488281,0.390045,-0.570374,-0.390533,-0.608215,-28221,-17384,-4378,-8985,-28663
17552,9.78564,0.30625,0.46416,34.1125,-86.9293,-147.079,0.12207,0.183105,0.427246,0.390076,-0.570374,-0.390503,-0.608215,-28989,-16360,-6682,-8994,-28662
17558,9.79521,0.272754,0.459375,34.0961,-86.9293,-147.057,0.366211,0.244141,0.12207,0.390076,-0.570374,-0.390472,-0.608215,-29501,-15336,-8986,-8994,-28662
17564,9.76172,0.263184,0.425879,34.0906,-86.9293,-147.057,0.0610352,0.183105,0,0.390076,-0.570374,-0.390472,-0.608215,-29757,-14312,-11546,-8994,-28662
17570,9.77129,0.263184,0.401953,34.0906,-86.9238,-147.063,0.0610352,0.366211,-0.427246,0.390076,-0.570374,-0.390442,-0.608246,-29245,-14312,-12314,-8994,-28662
17576,9.78564,0.282324,0.44502,34.1235,-86.9238,-147.101,-0.305176,0.427246,-0.732422,0.390076,-0.570343,-0.390442,-0.608246,-29245,-14312,-12570,-8994,-28662
17582,9.79043,0.311035,0.449805,34.1675,-86.9183,-147.151,-0.0610352,0.427246,-0.915527,0.390045,-0.570343,-0.390442,-0.608307,-29245,-14312,-13082,-8994,-28662
17588,9.78564,0.320605,0.45459,34.1895,-86.9128,-147.173,0,0.183105,-0.427246,0.389984,-0.570343,-0.390442,-0.608337,-29245,-14312,-13594,-8994,-28662
17594,9.79521,0.287109,0.416309,34.2004,-86.9128,-147.184,-0.0610352,0.305176,-0.305176,0.389954,-0.570343,-0.390411,-0.608368,-29501,-14824,-13850,-8994,-28662
17600,9.78086,0.30625,0.406738,34.2004,-86.9128,-147.189,-0.183105,0.366211,-0.183105,0.389954,-0.570312,-0.390411,-0.608398,-29245,-15336,-12314,-8994,-28662
17606,9.78564,0.29668,0.411523,34.1895,-86.9073,-147.178,-0.366211,0.488281,-0.183105,0.389923,-0.570312,-0.390381,-0.608398,-29501,-15848,-11034,-8994,-28662
17612,9.77607,0.301465,0.387598,34.14,-86.9019,-147.134,-0.427246,0.915527,0,0.389923,-0.570312,-0.390381,-0.608429,-29501,-16104,-9498,-8994,-28662
17618,9.78086,0.282324,0.411523,34.0741,-86.9019,-147.074,-0.366211,1.0376,0.12207,0.389923,-0.570312,-0.39035,-0.608459,-29501,-16872,-7450,-8994,-28662
17624,9.76172,0.325391,0.440234,34.0192,-86.8964,-147.019,-0.0610352,1.34277,0.244141,0.389923,-0.570251,-0.390289,-0.608551,-29757,-17128,-7450,-8994,-28662
17630,9.78086,0.320605,0.459375,33.8324,-86.8854,-146.832,0,1.2207,0.488281,0.389954,-0.570221,-0.390259,-0.608582,-29501,-17128,-8730,-8994,-28662
17636,9.76172,0.320605,0.478516,33.7115,-86.8799,-146.711,0.12207,1.28174,0.732422,0.389984,-0.57019,-0.390228,-0.608582,-29245,-17640,-8986,-8994,-28662
17642,9.7665,0.334961,0.468945,33.5797,-86.8799,-146.58,0.183105,1.09863,1.0376,0.390045,-0.57016,-0.390198,-0.608612,-28733,-18408,-8986,-8994,-28662
17648,9.78564,0.311035,0.478516,33.4314,-86.8799,-146.42,0.183105,0.793457,1.52588,0.390106,-0.57016,-0.390167,-0.608612,-28221,-19176,-7962,-8994,-28662
17654,9.79043,0.244043,0.449805,33.2886,-86.8854,-146.277,0.305176,0.549316,1.40381,0.390228,-0.57016,-0.390076,-0.608582,-27709,-19688,-5914,-8994,-28662
17660,9.81914,0.253613,0.440234,33.0634,-86.8854,-146.047,0.0610352,0.793457,0.732422,0.390289,-0.57016,-0.390045,-0.608551,-27453,-19176,-4890,-8994,-28662
17666,9.79521,0.244043,0.459375,33.0084,-86.8799,-145.997,0,0.671387,0.244141,0.39032,-0.570129,-0.390045,-0.608551,-27453,-17640,-5658,-8994,-28662
17672,9.79043,0.258398,0.46416,32.9919,-86.8744,-145.975,-0.0610352,0.793457,-0.244141,0.39035,-0.570129,-0.390015,-0.608582,-27453,-15848,-7194,-8994,-28662
17678,9.80957,0.267969,0.478516,32.9919,-86.8744,-145.981,-0.0610352,0.793457,-0.549316,0.39035,-0.570099,-0.390015,-0.608612,-27709,-14824,-8474,-8994,-28662
17684,9.82393,0.239258,0.45459,33.0524,-86.8634,-146.047,0,0.488281,-2.19727,0.39032,-0.570038,-0.390015,-0.608673,-27709,-13032,-12570,-8994,-28662
17690,9.80479,0.277539,0.47373,33.349,-86.8524,-146.349,0,0.305176,-2.2583,0.390228,-0.570007,-0.390045,-0.608734,-27965,-12520,-13338,-8994,-28662
17696,9.79521,0.291895,0.468945,33.5303,-86.8414,-146.53,-0.0610352,0.0610352,-2.44141,0.390167,-0.569977,-0.390076,-0.608795,-28221,-12008,-14106,-8994,-28662
17702,9.78086,0.31582,0.459375,33.7006,-86.8359,-146.706,-0.0610352,0.12207,-2.38037,0.390076,-0.569946,-0.390106,-0.608856,-28221,-11752,-14106,-8994,-28662
17708,9.78086,0.320605,0.449805,33.8379,-86.8304,-146.849,0,0.366211,-2.13623,0.389984,-0.569916,-0.390137,-0.608917,-28733,-12008,-13594,-8994,-28662
17714,9.75215,0.334961,0.502441,33.9587,-86.825,-146.975,0.366211,-0.0610352,-0.854492,0.389862,-0.569855,-0.390167,-0.609009,-28989,-12264,-14362,-8994,-28662
17720,9.74258,0.354102,0.459375,34.0466,-86.825,-147.068,0.183105,-0.305176,-0.12207,0.389832,-0.569855,-0.390198,-0.609039,-29501,-12520,-14874,-8994,-28662
17726,9.75215,0.339746,0.497656,34.0631,-86.825,-147.085,0.244141,-0.610352,0.183105,0.389801,-0.569885,-0.390167,-0.609039,-29757,-12008,-14106,-8994,-28662
17732,9.7665,0.334961,0.497656,34.0356,-86.8304,-147.063,0.427246,-0.427246,0.610352,0.389771,-0.569916,-0.390167,-0.609039,-29757,-11752,-13082,-8994,-28662
17738,9.75215,0.325391,0.46416,33.9587,-86.8359,-146.986,0.427246,-0.427246,1.34277,0.389771,-0.569916,-0.390167,-0.609009,-30013,-11752,-10522,-8994,-28662
17744,9.7665,0.29668,0.44502,33.8049,-86.8524,-146.827,0.488281,-0.915527,1.89209,0.389832,-0.570007,-0.390106,-0.608948,-30525,-11752,-9754,-8994,-28662
17750,9.78564,0.272754,0.45459,33.739,-86.8579,-146.761,0.549316,-0.854492,1.46484,0.389862,-0.570068,-0.390076,-0.608887,-30525,-12008,-10266,-8994,-28662
17756,9.81436,0.248828,0.421094,33.6676,-86.8634,-146.695,0.427246,-0.732422,1.40381,0.389893,-0.570099,-0.390076,-0.608856,-30525,-12264,-10522,-8994,-28662
17762,9.8,0.248828,0.425879,33.6621,-86.8689,-146.689,0.427246,-0.488281,0.427246,0.389923,-0.57016,-0.390045,-0.608795,-29757,-12776,-10778,-8994,-28662
17768,9.80957,0.263184,0.425879,33.6566,-86.8689,-146.684,0.244141,-0.305176,0.305176,0.389923,-0.57016,-0.390045,-0.608795,-28477,-12776,-10778,-8994,-28662
17774,9.80957,0.301465,0.435449,33.7335,-86.8689,-146.766,0.12207,-0.12207,-0.488281,0.389893,-0.57019,-0.390015,-0.608795,-28221,-12776,-11034,-8994,-28662
17780,9.81436,0.277539,0.46416,33.7775,-86.8634,-146.81,0.305176,0,-0.549316,0.389862,-0.57019,-0.390045,-0.608795,-28477,-12264,-10778,-8994,-28662
17786,9.79043,0.287109,0.449805,33.8434,-86.8634,-146.876,0.183105,0.0610352,-0.915527,0.389832,-0.57019,-0.390045,-0.608826,-29501,-11752,-10522,-8985,-28663
17792,9.81914,0.30625,0.46416,33.9203,-86.8579,-146.959,0.12207,0.0610352,-1.09863,0.389801,-0.57019,-0.390045,-0.608856,-30269,-12008,-8730,-8985,-28663
17798,9.78564,0.301465,0.459375,33.9862,-86.8579,-147.025,0,0.0610352,-0.915527,0.389771,-0.57016,-0.390045,-0.608887,-30525,-12264,-5146,-8985,-28663
17804,9.7665,0.291895,0.478516,34.1016,-86.8524,-147.151,0.12207,0.0610352,-0.793457,0.389679,-0.57016,-0.390076,-0.608948,-30013,-12776,-3610,-8985,-28663
17810,9.77129,0.330176,0.478516,34.14,-86.8469,-147.195,0,0.183105,-0.671387,0.389648,-0.570129,-0.390076,-0.608978,-29501,-12776,-2842,-8985,-28663
17816,9.77607,0.301465,0.468945,34.1949,-86.8469,-147.25,0.0610352,0.0610352,-0.793457,0.389618,-0.570129,-0.390076,-0.609009,-29501,-13288,-2586,-8985,-28663
17822,9.79521,0.330176,0.440234,34.2279,-86.8469,-147.288,0.244141,-0.0610352,-0.427246,0.389557,-0.570129,-0.390076,-0.609039,-29757,-14056,-2586,-8985,-28663
17828,9.75693,0.301465,0.45459,34.2773,-86.8414,-147.338,0.244141,0,-0.671387,0.389557,-0.570129,-0.390076,-0.609039,-31037,-15336,-3354,-8985,-28663
17834,9.77607,0.301465,0.449805,34.4037,-86.8359,-147.469,0,0,-0.976562,0.389496,-0.570129,-0.390076,-0.60907,-31805,-16104,-2586,-8985,-28663
17840,9.79521,0.325391,0.425879,34.4421,-86.8359,-147.513,0,0,-0.549316,0.389435,-0.570129,-0.390076,-0.6091,-32573,-16616,-2842,-8985,-28663
17846,9.78564,0.30625,0.435449,34.4916,-86.8304,-147.563,0,0.305176,-0.854492,0.389404,-0.570129,-0.390076,-0.609131,32451,-17128,-3610,-8985,-28663
17852,9.79043,0.29668,0.459375,34.5026,-86.8304,-147.579,0.0610352,0.549316,-0.549316,0.389374,-0.570099,-0.390076,-0.609161,31683,-17896,-5146,-8985,-28663
17858,9.79043,0.330176,0.483301,34.53,-86.825,-147.607,0.12207,0.427246,-0.671387,0.389343,-0.570099,-0.390076,-0.609192,31427,-19944,-8218,-8985,-28663
17864,9.75693,0.344531,0.435449,34.519,-86.8195,-147.601,0.305176,0.427246,-0.0610352,0.389313,-0.570068,-0.390045,-0.609253,31171,-20712,-8986,-8985,-28663
17870,9.78564,0.358887,0.449805,34.4696,-86.8195,-147.552,0.12207,0.244141,0.488281,0.389313,-0.570068,-0.390045,-0.609253,31939,-20968,-8986,-8985,-28663
17876,9.77607,0.339746,0.483301,34.4202,-86.8195,-147.502,0.0610352,0.427246,0.366211,0.389343,-0.570068,-0.390015,-0.609253,32451,-21224,-8218,-8985,-28663
17882,9.76172,0.291895,0.425879,34.3542,-86.8195,-147.442,0,0.671387,0.427246,0.389343,-0.570068,-0.390015,-0.609283,32195,-20712,-8218,-8985,-28663
17888,9.77129,0.311035,0.45459,34.2444,-86.8195,-147.327,0,0.732422,1.0376,0.389374,-0.570068,-0.389984,-0.609283,-31805,-20968,-8218,-8985,-28663
17894,9.8,0.291895,0.45459,34.0686,-86.814,-147.151,-0.0610352,0.976562,0.427246,0.389435,-0.570038,-0.389893,-0.609314,-31293,-20712,-7962,-8985,-28663
17900,9.77129,0.320605,0.45459,33.9917,-86.8085,-147.079,-0.244141,1.2207,0.183105,0.389465,-0.570007,-0.389862,-0.609314,-30781,-20200,-7194,-8994,-28662
17906,9.75693,0.320605,0.488086,33.9313,-86.803,-147.019,0,0.976562,0.183105,0.389465,-0.570007,-0.389832,-0.609344,-31037,-19688,-6682,-8994,-28662
17912,9.76172,0.325391,0.44502,33.8434,-86.7975,-146.926,0,1.28174,0.366211,0.389496,-0.569977,-0.389832,-0.609375,-31293,-19688,-6426,-8994,-28662
17918,9.79043,0.29668,0.46416,33.7335,-86.7975,-146.816,0,1.2207,0.671387,0.389526,-0.569946,-0.389801,-0.609406,-32061,-19944,-8474,-8994,-28662
17924,9.79521,0.29668,0.488086,33.5358,-86.7865,-146.618,0,1.2207,0.549316,0.389618,-0.569885,-0.38974,-0.609436,-32061,-20200,-10010,-8994,-28662
17930,9.78564,0.311035,0.488086,33.4589,-86.7865,-146.541,0,1.15967,0.305176,0.389648,-0.569855,-0.389709,-0.609467,-32317,-19688,-11546,-8994,-28662
17936,9.79521,0.30625,0.497656,33.3875,-86.781,-146.464,0.12207,0.976562,0.366211,0.389679,-0.569824,-0.389679,-0.609467,-32061,-19176,-11802,-8994,-28662
17942,9.79043,0.30625,0.478516,33.3325,-86.7755,-146.415,0.12207,1.09863,0,0.389709,-0.569824,-0.389648,-0.609497,-31805,-17640,-12058,-8994,-28662
17948,9.80479,0.263184,0.497656,33.2776,-86.77,-146.354,0.0610352,1.09863,0.0610352,0.38974,-0.569763,-0.389648,-0.609528,-31293,-15592,-12826,-8994,-28662
17954,9.8,0.263184,0.478516,33.2886,-86.759,-146.371,-0.183105,0.915527,-0.854492,0.389771,-0.569702,-0.389618,-0.609589,-31037,-14824,-12826,-8994,-28662
17960,9.80479,0.291895,0.468945,33.3105,-86.7535,-146.393,-0.183105,1.09863,-1.0376,0.38974,-0.569672,-0.389618,-0.609619,-30525,-14312,-14362,-8994,-28662
17966,9.81436,0.277539,0.46416,33.3765,-86.7426,-146.464,-0.305176,0.915527,-1.52588,0.389709,-0.569641,-0.389618,-0.60968,-30269,-13800,-14874,-8994,-28662
17972,9.8,0.277539,0.44502,33.4149,-86.7371,-146.503,-0.549316,1.28174,-1.40381,0.389679,-0.569611,-0.389618,-0.609741,-30013,-13544,-14874,-8994,-28662
17978,9.78564,0.258398,0.459375,33.5083,-86.7261,-146.602,-0.671387,1.40381,-2.2583,0.389648,-0.56955,-0.389618,-0.609802,-30269,-13032,-13338,-8994,-28662
17984,9.7665,0.325391,0.497656,33.6731,-86.6986,-146.783,-0.793457,1.58691,-2.38037,0.389496,-0.569458,-0.389618,-0.610016,-30525,-13288,-13338,-8994,-28662
17990,9.75215,0.378027,0.488086,33.7335,-86.6876,-146.854,-0.854492,1.64795,-2.01416,0.389435,-0.569397,-0.389587,-0.610107,-30269,-13800,-13594,-8994,-28662
17996,9.73779,0.397168,0.488086,33.7555,-86.6766,-146.876,-0.427246,1.64795,-1.40381,0.389374,-0.569336,-0.389587,-0.610199,-30269,-14568,-14874,-8994,-28662
18002,9.73301,0.363672,0.526367,33.75,-86.6656,-146.876,-0.183105,1.34277,-0.854492,0.389343,-0.569275,-0.389557,-0.610291,-30269,-15336,-16666,-8994,-28662
18008,9.76172,0.354102,0.535937,33.717,-86.6602,-146.843,-0.0610352,0.976562,-0.244141,0.389343,-0.569214,-0.389526,-0.610382,-29245,-15592,-19482,-8994,-28662
18014,9.71865,0.397168,0.411523,33.717,-86.6602,-146.849,0.0610352,0.244141,0.0610352,0.389313,-0.569183,-0.389557,-0.610382,-28733,-15848,-19482,-8994,-28662
18020,9.69951,0.401953,0.531152,33.6072,-86.6602,-146.728,0.183105,0.183105,1.52588,0.389343,-0.569183,-0.389526,-0.610382,-28221,-15848,-18202,-8985,-28663
18026,9.73301,0.339746,0.540723,33.4644,-86.6656,-146.585,0.427246,-0.0610352,2.0752,0.389374,-0.569214,-0.389496,-0.610382,-28733,-15848,-15898,-8985,-28663
18032,9.8335,0.253613,0.526367,33.382,-86.6711,-146.503,0.671387,-0.549316,1.52588,0.389435,-0.569244,-0.389465,-0.610321,-29501,-15848,-13082,-8985,-28663
18038,9.79521,0.239258,0.521582,33.3435,-86.6766,-146.459,0.793457,-0.610352,1.0376,0.389526,-0.569275,-0.389465,-0.610229,-30525,-16104,-9754,-8985,-28663
18044,9.82871,0.311035,0.416309,33.5193,-86.6876,-146.629,1.0376,-1.2207,-0.793457,0.389496,-0.569305,-0.389465,-0.610199,-30781,-16104,-8986,-8985,-28663
18050,9.84785,0.263184,0.44502,33.6346,-86.6876,-146.75,0.793457,-0.671387,-1.15967,0.389465,-0.569336,-0.389526,-0.610199,-30781,-15848,-8730,-8985,-28663
18056,9.75215,0.234473,0.392383,33.7775,-86.6821,-146.893,0.915527,0,-2.01416,0.389435,-0.569336,-0.389557,-0.610199,-30269,-15592,-9242,-8985,-28663
18062,9.77129,0.287109,0.354102,33.8873,-86.6711,-147.008,0,0.488281,-1.89209,0.389374,-0.569275,-0.389618,-0.610229,-29501,-15336,-9498,-8985,-28663
18068,9.84307,0.29668,0.47373,33.9917,-86.6602,-147.118,-0.244141,1.2207,-2.38037,0.389252,-0.569214,-0.389648,-0.610382,-28989,-15080,-9242,-8985,-28663
18074,9.78564,0.31582,0.574219,34.3323,-86.6382,-147.469,0.244141,0.427246,-3.05176,0.38916,-0.569153,-0.389648,-0.610474,-28989,-14568,-8986,-8985,-28663
18080,9.81914,0.339746,0.555078,34.5575,-86.6327,-147.7,0.915527,-0.610352,-2.86865,0.389038,-0.569092,-0.389709,-0.610565,-29501,-14056,-8474,-8985,-28663
18086,9.79043,0.330176,0.555078,34.8486,-86.6272,-147.991,1.15967,-1.40381,-3.17383,0.388947,-0.569092,-0.389771,-0.610596,-30525,-13800,-10266,-8985,-28663
18092,9.82393,0.239258,0.535937,35.2222,-86.6217,-148.37,2.2583,-1.70898,-4.21143,0.388824,-0.569092,-0.389862,-0.610626,-31037,-13800,-11802,-8985,-28663
18098,9.83828,0.282324,0.521582,35.6726,-86.6162,-148.815,2.74658,-1.52588,-5.37109,0.388519,-0.569,-0.390137,-0.610718,-31037,-15080,-15642,-8985,-28663
18104,9.75693,0.378027,0.512012,36.5845,-86.5997,-149.738,1.95312,-2.19727,-5.49316,0.388336,-0.568939,-0.390289,-0.610779,-30781,-16104,-14874,-8985,-28663
18110,9.79043,0.387598,0.421094,37.0184,-86.5942,-150.183,1.77002,-2.2583,-4.82178,0.388123,-0.568939,-0.390442,-0.610809,-31037,-17128,-13850,-8985,-28663
18116,9.7665,0.325391,0.430664,37.4414,-86.5833,-150.606,1.58691,-1.95312,-4.88281,0.387939,-0.568939,-0.390564,-0.61087,-30781,-18408,-13082,-8985,-28663
18122,9.80957,0.358887,0.459375,37.8644,-86.5778,-151.046,1.2207,-1.89209,-5.06592,0.387726,-0.568939,-0.390686,-0.610931,-31293,-19688,-13082,-8985,-28663
18128,9.75215,0.382812,0.483301,38.2489,-86.5668,-151.441,0.793457,-1.46484,-4.88281,0.387299,-0.568909,-0.390869,-0.611084,-32317,-21736,-13594,-8985,-28663
18134,9.81914,0.363672,0.459375,39.0344,-86.5503,-152.254,0.732422,-1.77002,-4.88281,0.387085,-0.568939,-0.390961,-0.611145,32195,-22248,-14362,-8985,-28663
18140,9.76172,0.397168,0.459375,39.4354,-86.5448,-152.672,0.671387,-1.64795,-5.12695,0.386841,-0.568939,-0.391022,-0.611237,31683,-22248,-14106,-8985,-28663
18146,9.75693,0.401953,0.47373,39.8254,-86.5338,-153.078,0.732422,-1.70898,-4.88281,0.386627,-0.568939,-0.391113,-0.611328,31171,-21992,-13850,-8985,-28663
18152,9.73779,0.406738,0.483301,40.1935,-86.5283,-153.457,0.793457,-1.89209,-4.39453,0.386383,-0.56897,-0.391174,-0.61142,30659,-21992,-14362,-8985,-28663
18158,9.73779,0.354102,0.488086,40.556,-86.5228,-153.836,1.28174,-1.95312,-4.3335,0.385956,-0.569,-0.391327,-0.611572,30403,-21992,-14362,-8985,-28663
18164,9.85742,0.354102,0.468945,41.3635,-86.5009,-154.666,2.13623,-2.01416,-5.49316,0.385742,-0.569031,-0.391418,-0.611633,30403,-22504,-14618,-8985,-28663
18170,9.8,0.368457,0.46416,41.825,-86.4899,-155.143,1.89209,-2.01416,-5.98145,0.385498,-0.569,-0.39151,-0.611725,30403,-22760,-14362,-8985,-28663
18176,9.78086,0.330176,0.492871,42.3413,-86.4734,-155.671,2.31934,-2.0752,-6.83594,0.385254,-0.569,-0.391632,-0.611816,30147,-23016,-14106,-8985,-28663
18182,9.89092,0.330176,0.459375,42.951,-86.4514,-156.292,3.17383,-1.64795,-8.78906,0.384979,-0.569,-0.391785,-0.611908,29635,-23528,-13338,-8985,-28663
18188,9.88613,0.325391,0.421094,43.5992,-86.4185,-156.945,4.3335,-0.854492,-10.376,0.384338,-0.568787,-0.392212,-0.612213,27843,-25576,-12826,-8985,-28663
18194,9.83828,0.435449,0.44502,45.1538,-86.3416,-158.533,2.68555,-1.70898,-13.1226,0.383942,-0.568634,-0.392487,-0.612427,27331,-26344,-13594,-8985,-28663
18200,9.77129,0.468945,0.488086,45.9998,-86.3031,-159.406,1.70898,-2.86865,-13.0005,0.383484,-0.568512,-0.392731,-0.612671,27075,-27112,-14874,-8985,-28663
18206,9.74736,0.502441,0.421094,46.8182,-86.2701,-160.252,1.77002,-2.92969,-12.6953,0.382965,-0.568481,-0.392975,-0.612915,26307,-28136,-15386,-8985,-28663
18212,9.72822,0.502441,0.44502,47.5928,-86.2372,-161.054,1.40381,-2.86865,-12.2681,0.382446,-0.56842,-0.393188,-0.613129,25539,-29416,-15386,-8985,-28663
18218,9.78564,0.583789,0.430664,48.3344,-86.2042,-161.829,1.09863,-3.05176,-11.7188,0.381409,-0.568359,-0.393585,-0.613556,24259,31768,-11034,-8985,-28663
18224,9.75693,0.569434,0.411523,49.6857,-86.1438,-163.246,0.488281,-3.17383,-10.1929,0.38089,-0.568359,-0.393768,-0.61377,23747,29464,-8218,-8985,-28663
18230,9.68516,0.626855,0.397168,50.246,-86.1163,-163.839,0.244141,-2.50244,-9.33838,0.380402,-0.56839,-0.39389,-0.613953,22979,28184,-5914,-8985,-28663
18236,9.69951,0.617285,0.373242,50.7239,-86.0944,-164.35,0.244141,-2.13623,-8.17871,0.379944,-0.56842,-0.393982,-0.614166,21955,27160,-4634,-8985,-28663
18242,9.73301,0.626855,0.382812,51.0974,-86.0724,-164.751,0.610352,-1.34277,-6.89697,0.379547,-0.56842,-0.394073,-0.614349,20163,26392,-3866,-8985,-28663
18248,9.66123,0.650781,0.430664,51.3611,-86.0504,-165.042,0.732422,-0.0610352,-6.10352,0.378906,-0.56842,-0.394135,-0.614716,17347,24344,-3354,-8985,-28663
18254,9.67559,0.689063,0.421094,51.7236,-86.0175,-165.454,0.732422,0,-3.72314,0.378662,-0.56842,-0.394135,-0.614868,16067,23064,-2842,-8985,-28663
18260,9.66123,0.712988,0.468945,51.795,-86.012,-165.547,0.0610352,-0.244141,-1.64795,0.378448,-0.56842,-0.394104,-0.61499,15555,21272,-2586,-8985,-28663
18266,9.66602,0.674707,0.47373,51.828,-86.012,-165.597,0.427246,-0.610352,-0.244141,0.378265,-0.568481,-0.394043,-0.615082,15043,19480,-794,-8985,-28663
18272,9.71387,0.636426,0.425879,51.8225,-86.0175,-165.602,0.732422,-0.671387,0.854492,0.378174,-0.568573,-0.393951,-0.615143,14787,17944,743,-8985,-28663
18278,9.77129,0.540723,0.401953,51.7841,-86.0284,-165.586,0.915527,-0.854492,1.70898,0.378052,-0.568756,-0.393738,-0.615173,13507,15384,2279,-8985,-28663
18284,9.81914,0.507227,0.387598,51.6687,-86.0394,-165.487,1.58691,0,1.28174,0.378021,-0.568848,-0.393646,-0.615173,11715,15128,1767,-8985,-28663
18290,9.77129,0.540723,0.401953,51.6083,-86.0394,-165.438,1.28174,0.366211,0.793457,0.378021,-0.568878,-0.393585,-0.615173,10691,15640,231,-8985,-28663
18296,9.84307,0.531152,0.368457,51.5588,-86.0449,-165.399,0.366211,0.0610352,0.976562,0.377991,-0.568939,-0.393494,-0.615204,9667,15896,-1306,-8985,-28663
18302,9.83828,0.406738,0.392383,51.5533,-86.0449,-165.41,-0.0610352,-0.12207,0,0.37796,-0.569,-0.393402,-0.615234,9155,16664,-2586,-8985,-28663
18308,9.79043,0.492871,0.46416,51.6248,-86.0394,-165.498,-0.488281,-0.305176,-1.40381,0.377747,-0.569092,-0.39328,-0.615356,8387,16152,-4890,-8985,-28663
18314,9.74258,0.588574,0.459375,51.8774,-86.0284,-165.789,0,-0.854492,-2.01416,0.377563,-0.569122,-0.39325,-0.615448,7619,15640,-6170,-8985,-28663
18320,9.74258,0.579004,0.440234,52.0148,-86.0284,-165.938,0.0610352,-1.34277,-1.52588,0.377411,-0.569183,-0.393219,-0.615509,7363,14616,-6426,-8985,-28663
18326,9.80957,0.507227,0.401953,52.1466,-86.0284,-166.091,-0.0610352,-1.28174,-1.58691,0.377289,-0.569244,-0.393188,-0.61554,6595,14104,-5914,-8985,-28663
18332,9.81436,0.449805,0.339746,52.2949,-86.0175,-166.256,-0.305176,-0.610352,-2.86865,0.377136,-0.569305,-0.393188,-0.615601,6083,14104,-4890,-8985,-28663
18338,9.77607,0.583789,0.373242,52.4432,-86.001,-166.421,-1.0376,0.793457,-3.90625,0.37677,-0.569305,-0.393158,-0.615814,4803,14104,-3866,-8985,-28663
18344,9.72822,0.626855,0.382812,52.619,-85.968,-166.635,-1.09863,1.40381,-3.54004,0.376587,-0.569305,-0.393158,-0.615967,4803,13592,-3866,-8985,-28663
18350,9.74258,0.631641,0.406738,52.6355,-85.9515,-166.668,-0.976562,1.64795,-2.80762,0.376404,-0.569244,-0.393127,-0.616119,4547,12824,-4378,-8985,-28663
18356,9.71865,0.631641,0.44502,52.608,-85.9351,-166.657,-0.671387,2.01416,-2.19727,0.376282,-0.569214,-0.393066,-0.616241,4035,12056,-6170,-8985,-28663
18362,9.71865,0.655566,0.449805,52.5586,-85.9241,-166.613,-0.244141,2.01416,-1.52588,0.37619,-0.569183,-0.393036,-0.616394,3523,11800,-8986,-8985,-28663
18368,9.7043,0.660352,0.468945,52.4487,-85.9186,-166.514,0.488281,2.2583,0.610352,0.376099,-0.569122,-0.392914,-0.616577,1987,11032,-15386,-8985,-28663
18374,9.72344,0.631641,0.440234,52.1082,-85.9131,-166.179,0.915527,2.19727,1.70898,0.376129,-0.569092,-0.392822,-0.616638,963,10264,-17434,-8985,-28663
18380,9.8,0.574219,0.416309,51.8939,-85.9131,-165.965,1.0376,2.38037,2.0752,0.37619,-0.569061,-0.392731,-0.616669,707,9752,-19226,-8985,-28663
18386,9.78086,0.531152,0.401953,51.6852,-85.9131,-165.756,1.2207,2.68555,1.58691,0.376282,-0.569031,-0.392639,-0.616699,-62,8472,-19738,-8985,-28663
18392,9.87656,0.512012,0.468945,51.5149,-85.9021,-165.58,1.34277,2.80762,0.549316,0.376373,-0.56897,-0.392578,-0.61673,-1086,7448,-19738,-8985,-28663
18398,9.75693,0.545508,0.435449,51.3885,-85.8966,-165.449,1.15967,2.44141,-0.610352,0.376526,-0.568817,-0.392517,-0.616852,-2366,6936,-19738,-8985,-28663
18404,9.81914,0.492871,0.368457,51.1853,-85.8746,-165.245,0.732422,2.92969,-1.09863,0.376556,-0.568756,-0.392487,-0.616913,-2622,7960,-19994,-8985,-28663
18410,9.82871,0.468945,0.425879,51.1084,-85.8527,-165.174,0.610352,3.23486,-2.19727,0.376556,-0.568665,-0.392456,-0.617004,-2622,8728,-21018,-8985,-28663
18416,9.88613,0.512012,0.459375,51.0919,-85.8307,-165.163,-0.305176,3.05176,-3.35693,0.376556,-0.568542,-0.392456,-0.617126,-2622,9496,-21530,-8985,-28663
18422,9.7665,0.569434,0.488086,51.1249,-85.8087,-165.207,-0.732422,2.31934,-3.78418,0.376465,-0.56842,-0.392456,-0.617249,-2622,10008,-22554,-8985,-28663
18428,9.69473,0.655566,0.478516,51.1908,-85.7867,-165.278,-0.610352,1.89209,-2.86865,0.376251,-0.568237,-0.392487,-0.617554,-2878,9752,-24090,-8985,-28663
18434,9.6708,0.693848,0.521582,51.2073,-85.7593,-165.311,-0.610352,1.58691,-1.83105,0.37616,-0.568176,-0.392487,-0.617676,-3390,9496,-24090,-8985,-28663
18440,9.67559,0.717773,0.555078,51.1688,-85.7593,-165.278,-0.183105,0.732422,0,0.376099,-0.568115,-0.392487,-0.617767,-3646,9240,-22554,-8985,-28663
18446,9.71865,0.669922,0.564648,51.1414,-85.7593,-165.251,0.854492,-0.0610352,0.793457,0.376099,-0.568115,-0.392456,-0.617798,-3646,8984,-20250,-8985,-28663
18452,9.75215,0.660352,0.579004,51.0919,-85.7703,-165.201,1.52588,-0.671387,2.19727,0.376099,-0.568146,-0.392426,-0.617767,-3646,8728,-18202,-8985,-28663
18458,9.69951,0.655566,0.545508,51.0425,-85.7867,-165.141,3.05176,-1.52588,4.27246,0.376251,-0.568237,-0.392395,-0.617645,-2110,8216,-16410,-8985,-28663
18464,9.69473,0.645996,0.516797,50.8612,-85.8307,-164.938,3.41797,-2.13623,5.24902,0.376373,-0.568298,-0.392365,-0.617493,-1598,8216,-16922,-8985,-28663
18470,9.71865,0.650781,0.47373,50.7458,-85.8636,-164.811,3.23486,-2.68555,6.40869,0.376556,-0.56842,-0.392334,-0.61731,-1342,8472,-18458,-8985,-28663
18476,9.71387,0.60293,0.483301,50.614,-85.9021,-164.663,2.99072,-3.11279,7.26318,0.37674,-0.568542,-0.392303,-0.617096,-1342,8984,-20250,-8985,-28663
18482,9.73779,0.569434,0.459375,50.4602,-85.9406,-164.498,2.92969,-3.17383,7.69043,0.376923,-0.568695,-0.392242,-0.616882,-574,10264,-22554,-8985,-28663
18488,9.71865,0.555078,0.488086,50.1636,-86.0284,-164.18,2.74658,-4.15039,8.42285,0.377319,-0.569092,-0.39209,-0.616364,-62,10776,-22554,-8985,-28663
18494,9.77607,0.488086,0.497656,50.0427,-86.0724,-164.048,3.2959,-4.3335,8.17871,0.377533,-0.569275,-0.391998,-0.616089,-62,11288,-22298,-8985,-28663
18500,9.75215,0.531152,0.354102,49.8944,-86.1108,-163.878,3.60107,-3.84521,8.30078,0.377747,-0.569489,-0.391968,-0.615814,-62,12056,-22554,-8985,-28663
18506,9.79521,0.488086,0.459375,49.6692,-86.1493,-163.636,3.78418,-2.68555,8.36182,0.37796,-0.569672,-0.391907,-0.61554,451,12824,-25114,-8985,-28663
18512,9.78086,0.526367,0.378027,49.4495,-86.1877,-163.4,4.15039,-2.68555,8.23975,0.378235,-0.569824,-0.391846,-0.615295,1219,14104,-28698,-8985,-28663
18518,9.95312,0.349316,0.239258,49.0704,-86.2482,-162.982,3.84521,-0.915527,5.5542,0.378723,-0.570068,-0.391754,-0.614807,1731,15128,-29978,-8985,-28663
18524,9.85264,0.30625,0.344531,48.9386,-86.2592,-162.828,3.35693,0,3.17383,0.378967,-0.570129,-0.391754,-0.614624,2499,15640,-29466,-8985,-28663
18530,9.86699,0.373242,0.392383,48.8617,-86.2592,-162.735,3.84521,0.732422,1.15967,0.37912,-0.570129,-0.391754,-0.614532,3011,16664,-28698,-8985,-28663
18536,9.80957,0.430664,0.30625,48.7848,-86.2592,-162.642,3.96729,0.915527,0.976562,0.379242,-0.570068,-0.391815,-0.614471,3779,17176,-28186,-8985,-28663
18542,9.75693,0.598145,0.45459,48.7299,-86.2537,-162.57,3.54004,0.915527,0.549316,0.379364,-0.569977,-0.391876,-0.61441,4803,18968,-26906,-8985,-28663
18548,9.66123,0.483301,0.507227,48.609,-86.2537,-162.411,3.479,0.671387,1.0376,0.379608,-0.569824,-0.392029,-0.614319,5827,18968,-24858,-8985,-28663
18554,9.84785,0.483301,0.535937,48.6255,-86.2592,-162.411,4.02832,-0.488281,0.732422,0.37973,-0.569763,-0.39209,-0.614258,6595,19224,-23322,-8985,-28663
18560,9.84785,0.401953,0.516797,48.7079,-86.2646,-162.471,3.96729,-1.15967,0.183105,0.379822,-0.569733,-0.392181,-0.614166,7363,19480,-21530,-8985,-28663
18566,9.87178,0.358887,0.507227,48.9276,-86.2646,-162.68,3.479,-2.31934,-1.34277,0.379883,-0.569702,-0.392273,-0.614105,8131,19480,-19994,-8985,-28663
18572,9.94355,0.330176,0.502441,49.2847,-86.2592,-163.032,3.60107,-2.92969,-3.41797,0.379883,-0.569702,-0.392426,-0.614014,8899,20248,-21786,-8985,-28663
18578,9.70908,0.507227,0.521582,50.3833,-86.2482,-164.119,3.54004,-5.37109,-5.49316,0.379608,-0.569672,-0.392853,-0.613922,9155,20248,-23066,-8985,-28663
18584,9.81436,0.569434,0.488086,50.9711,-86.2482,-164.707,3.72314,-5.61523,-5.18799,0.379395,-0.569702,-0.393097,-0.613892,9411,19992,-24858,-8985,-28663
18590,9.84785,0.44502,0.421094,51.6028,-86.2427,-165.339,3.2959,-6.16455,-5.43213,0.37915,-0.569763,-0.393341,-0.613831,9667,19480,-25882,-8985,-28663
18596,9.77129,0.483301,0.334961,52.3059,-86.2372,-166.047,2.74658,-6.46973,-6.5918,0.378906,-0.569824,-0.393585,-0.61377,9411,18712,-26650,-8985,-28663
18602,9.73301,0.6125,0.358887,52.9541,-86.2317,-166.712,1.77002,-6.16455,-6.16455,0.378601,-0.569885,-0.393829,-0.613708,8899,17176,-25114,-8985,-28663
18608,9.75693,0.588574,0.401953,54.1132,-86.2317,-167.882,2.13623,-6.65283,-3.60107,0.377991,-0.570099,-0.394226,-0.613647,8387,16664,-24090,-8985,-28663
18614,9.75215,0.60293,0.29668,54.646,-86.2372,-168.431,1.58691,-6.5918,-2.99072,0.377747,-0.570221,-0.394379,-0.613586,8387,16408,-24602,-8985,-28663
18620,9.81436,0.497656,0.282324,55.1569,-86.2482,-168.953,0.610352,-6.34766,-2.74658,0.377502,-0.570374,-0.394531,-0.613495,8131,15896,-24602,-8985,-28663
18626,9.69473,0.526367,0.205762,55.5743,-86.2482,-169.398,-0.610352,-4.82178,-3.11279,0.377228,-0.570557,-0.394623,-0.613464,7619,15640,-24602,-8985,-28663
18632,9.71387,0.593359,0.177051,55.849,-86.2427,-169.689,-1.46484,-2.92969,-2.44141,0.376953,-0.570679,-0.394684,-0.613464,6851,14872,-25370,-8985,-28663
18638,9.74258,0.631641,0.282324,56.1072,-86.2427,-169.997,-2.2583,-1.0376,-0.793457,0.376526,-0.570923,-0.394592,-0.613556,6083,14616,-26650,-8985,-28663
18644,9.7043,0.607715,0.354102,56.1292,-86.2427,-170.035,-1.70898,-0.427246,-0.183105,0.376373,-0.571014,-0.394531,-0.613617,5571,14104,-27674,-8985,-28663
18650,9.75215,0.674707,0.459375,56.1292,-86.2482,-170.052,-0.427246,-0.671387,0.732422,0.376251,-0.571075,-0.39444,-0.613678,5571,13336,-27418,-8985,-28663
18656,9.74736,0.641211,0.46416,56.0962,-86.2592,-170.024,0.976562,-0.793457,2.01416,0.376221,-0.571136,-0.394348,-0.613708,4803,12312,-25626,-8985,-28663
18662,9.76172,0.645996,0.440234,56.0632,-86.2756,-169.991,1.70898,-1.46484,3.05176,0.376221,-0.571198,-0.394287,-0.613678,3523,11032,-20506,-8985,-28663
18668,9.82871,0.478516,0.44502,56.1127,-86.3141,-170.035,3.11279,-2.68555,3.11279,0.376312,-0.571411,-0.394196,-0.613464,2755,11032,-20250,-8985,-28663
18674,9.73301,0.545508,0.397168,56.1896,-86.3361,-170.112,3.23486,-3.23486,3.23486,0.376373,-0.571533,-0.394196,-0.613342,1987,11032,-19738,-8985,-28663
18680,9.69473,0.555078,0.387598,56.2994,-86.358,-170.217,2.50244,-3.90625,3.479,0.376404,-0.571655,-0.394196,-0.61322,1987,10776,-18970,-8985,-28663
18686,9.7665,0.579004,0.344531,56.3873,-86.391,-170.305,2.31934,-4.39453,4.69971,0.376434,-0.571808,-0.394165,-0.613068,1987,10264,-17690,-8985,-28663
18692,9.80957,0.512012,0.378027,56.4862,-86.4185,-170.409,2.38037,-4.63867,4.82178,0.376495,-0.571991,-0.394135,-0.612885,1731,9240,-13338,-8985,-28663
18698,9.88135,0.387598,0.287109,56.8323,-86.4679,-170.755,2.19727,-4.39453,2.56348,0.376556,-0.572388,-0.394073,-0.612518,1731,8984,-11546,-8985,-28663
18704,9.8335,0.430664,0.253613,57.0685,-86.4844,-170.997,1.64795,-3.90625,0.671387,0.376526,-0.57254,-0.394073,-0.612366,1731,8728,-11034,-8985,-28663
18710,9.81436,0.468945,0.277539,57.3157,-86.4899,-171.249,1.46484,-3.479,-0.183105,0.376434,-0.572693,-0.394104,-0.612274,1731,8728,-10778,-8985,-28663
18716,9.81436,0.46416,0.334961,57.5903,-86.4954,-171.53,1.89209,-3.41797,-0.854492,0.376343,-0.572784,-0.394135,-0.612213,1731,8984,-11546,-8985,-28663
18722,9.81436,0.46416,0.344531,57.9199,-86.4954,-171.865,1.58691,-3.72314,-1.77002,0.376251,-0.572876,-0.394196,-0.612152,1219,8472,-13850,-8985,-28663
18728,9.82393,0.535937,0.358887,58.7219,-86.4954,-172.683,2.13623,-4.27246,-2.80762,0.375916,-0.573029,-0.394379,-0.612091,707,7960,-13594,-8985,-28663
18734,9.77607,0.526367,0.162695,59.1174,-86.4899,-173.084,1.70898,-4.02832,-2.68555,0.375732,-0.57312,-0.394501,-0.612061,195,8216,-12826,-8985,-28663
18740,9.7665,0.502441,0.129199,59.4086,-86.4899,-173.386,0.610352,-2.86865,-2.38037,0.375549,-0.573181,-0.394592,-0.61203,-318,8472,-11802,-8985,-28663
18746,9.84307,0.483301,0.191406,59.6558,-86.4789,-173.655,-0.976562,-1.95312,-3.05176,0.375397,-0.573273,-0.394653,-0.61203,-318,8984,-10266,-8985,-28663
18752,9.77129,0.411523,0.205762,59.903,-86.4624,-173.919,-1.52588,-1.2207,-4.27246,0.374939,-0.573334,-0.394684,-0.612213,195,10264,-9242,-8985,-28663
18758,9.75693,0.574219,0.30625,60.2875,-86.4185,-174.353,-2.01416,0.244141,-5.49316,0.374695,-0.573334,-0.394684,-0.612366,451,10776,-8474,-8985,-28663
18764,9.76172,0.574219,0.401953,60.4578,-86.3965,-174.545,-1.89209,0,-4.69971,0.37442,-0.573303,-0.394714,-0.612549,963,10520,-7706,-8985,-28663
18770,9.83828,0.545508,0.363672,60.6885,-86.38,-174.803,-1.64795,-0.793457,-5.06592,0.374207,-0.573303,-0.394714,-0.612701,1475,9752,-7194,-8985,-28663
18776,9.72822,0.555078,0.382812,60.9686,-86.3635,-175.1,-1.09863,-1.58691,-4.76074,0.373932,-0.573303,-0.394714,-0.612823,1219,9496,-6682,-8985,-28663
18782,9.73301,0.631641,0.311035,61.1938,-86.347,-175.347,-0.305176,-1.34277,-3.96729,0.373444,-0.573364,-0.394806,-0.613037,-62,9752,-7450,-8985,-28663
18788,9.68037,0.674707,0.363672,61.6003,-86.3306,-175.776,0.427246,-1.89209,-2.01416,0.373291,-0.573395,-0.394836,-0.613098,-1086,10264,-7450,-8985,-28663
18794,9.70908,0.736914,0.354102,61.7596,-86.3361,-175.946,0.488281,-2.2583,-0.244141,0.373138,-0.573425,-0.394836,-0.613129,-2110,10264,-6682,-8985,-28663
18800,9.66123,0.741699,0.387598,61.8695,-86.347,-176.067,0.915527,-2.74658,2.01416,0.373016,-0.573517,-0.394836,-0.613098,-2622,9752,-4890,-8985,-28663
18806,9.6708,0.684277,0.349316,61.9684,-86.3745,-176.166,1.83105,-3.41797,3.72314,0.372986,-0.573669,-0.394775,-0.613037,-2622,9240,-3354,-8985,-28663
18812,9.75693,0.636426,0.334961,62.0343,-86.402,-176.232,2.44141,-3.41797,4.88281,0.373077,-0.574005,-0.394684,-0.612732,-2878,9752,-2586,-8985,-28663
18818,9.85264,0.502441,0.291895,62.1881,-86.4624,-176.38,3.41797,-3.90625,5.00488,0.373169,-0.574158,-0.394623,-0.612549,-2878,9496,-2074,-8985,-28663
18824,9.89092,0.435449,0.244043,62.309,-86.4844,-176.495,3.54004,-3.479,3.66211,0.37326,-0.574341,-0.394592,-0.612366,-3134,10008,-2586,-8985,-28663
18830,9.85264,0.373242,0.129199,62.4298,-86.5009,-176.611,2.99072,-2.56348,1.89209,0.373322,-0.574463,-0.394592,-0.612213,-3134,10776,-3610,-8985,-28663
18836,9.82871,0.373242,0.172266,62.5452,-86.5063,-176.732,1.95312,-1.89209,0.610352,0.373352,-0.574554,-0.394592,-0.612091,-2622,11032,-2842,-8985,-28663
18842,9.85264,0.430664,0.14834,62.7045,-86.5063,-176.902,0.244141,-1.64795,-1.2207,0.373199,-0.574677,-0.394623,-0.612061,-2622,11288,-3610,-8985,-28663
18848,9.90527,0.435449,0.191406,63.0396,-86.4789,-177.264,-1.09863,-0.305176,-4.27246,0.373047,-0.574707,-0.394623,-0.612122,-3134,11288,-3098,-8985,-28663
18854,9.8335,0.459375,0.220117,63.2153,-86.4514,-177.457,-1.2207,0.12207,-5.37109,0.372833,-0.574677,-0.394653,-0.612244,-4414,11288,-2586,-8985,-28663
18860,9.83828,0.521582,0.191406,63.3911,-86.424,-177.649,-2.13623,0.305176,-5.92041,0.37262,-0.574646,-0.394714,-0.612396,-5182,11544,-2586,-8985,-28663
18866,9.77129,0.574219,0.220117,63.5339,-86.3965,-177.819,-2.92969,0.610352,-5.85938,0.372375,-0.574615,-0.394745,-0.612549,-5694,11544,-2586,-8985,-28663
18872,9.74736,0.6125,0.220117,63.6548,-86.369,-177.962,-3.23486,1.09863,-6.16455,0.371826,-0.574524,-0.394745,-0.612976,-5694,11032,-1562,-8985,-28663
18878,9.69951,0.689063,0.277539,63.7976,-86.3141,-178.16,-3.54004,1.46484,-5.12695,0.371552,-0.574463,-0.394745,-0.613159,-5950,11032,-794,-8985,-28663
18884,9.68516,0.717773,0.311035,63.8086,-86.2976,-178.193,-3.17383,1.34277,-3.60107,0.371338,-0.574432,-0.394714,-0.613373,-6206,10776,487,-8985,-28663
18890,9.67559,0.732129,0.363672,63.7701,-86.2866,-178.171,-2.44141,1.28174,-1.83105,0.371155,-0.574402,-0.394684,-0.613556,-7230,10008,487,-8985,-28663
18896,9.6708,0.722559,0.291895,63.6932,-86.2811,-178.11,-2.01416,1.0376,-0.244141,0.371033,-0.574402,-0.394592,-0.613678,-7742,8984,487,-8985,-28663
18902,9.72344,0.732129,0.382812,63.5944,-86.2866,-178.017,-1.64795,0.488281,1.77002,0.370941,-0.574463,-0.394409,-0.61377,-9022,5912,231,-8985,-28663
18908,9.69473,0.698633,0.387598,63.3966,-86.3251,-177.841,-0.427246,-1.0376,4.82178,0.371002,-0.574554,-0.394257,-0.613739,-9278,4888,-282,-8985,-28663
18914,9.67559,0.698633,0.378027,63.3417,-86.358,-177.786,-0.427246,-2.2583,6.10352,0.371063,-0.574677,-0.394135,-0.613647,-9534,4376,-282,-8985,-28663
18920,9.68516,0.727344,0.358887,63.2867,-86.402,-177.742,-0.305176,-3.23486,7.87354,0.371155,-0.57486,-0.393982,-0.613525,-9534,3608,999,-8985,-28663
18926,9.69473,0.674707,0.382812,63.1989,-86.4569,-177.66,-0.305176,-4.15039,10.5591,0.371277,-0.575104,-0.393829,-0.613342,-9534,3096,2023,-8985,-28663
18932,9.69951,0.631641,0.325391,63.1439,-86.5173,-177.61,0.12207,-5.18799,11.7798,0.371643,-0.575745,-0.393372,-0.612793,-8510,1048,3559,-8985,-28663
18938,9.66602,0.693848,0.253613,63.0725,-86.6656,-177.545,0.12207,-6.83594,14.7095,0.371857,-0.576141,-0.393127,-0.612457,-7998,792,3559,-8985,-28663
18944,9.72822,0.617285,0.263184,62.9352,-86.7535,-177.407,0.244141,-6.5918,16.4185,0.372131,-0.576569,-0.392853,-0.612061,-8254,792,4071,-8985,-28663
18950,9.80957,0.430664,0.224902,62.8033,-86.8414,-177.275,0.183105,-6.7749,16.6016,0.372437,-0.577026,-0.392548,-0.611633,-8254,1816,4583,-8985,-28663
18956,9.87178,0.311035,0.220117,62.7209,-86.9183,-177.198,0.12207,-6.65283,14.8926,0.372742,-0.577484,-0.392242,-0.611237,-7998,2584,6375,-8985,-28663
18962,9.79043,0.411523,0.272754,62.6385,-86.9843,-177.116,0,-5.67627,13.0005,0.37323,-0.578278,-0.391754,-0.610504,-6718,3352,10727,-8985,-28663
18968,9.89092,0.411523,0.239258,62.5067,-87.1051,-176.984,0,-5.12695,11.0474,0.373444,-0.578613,-0.391541,-0.610199,-5694,4120,11495,-8985,-28663
18974,9.86221,0.354102,0.186621,62.4957,-87.16,-176.979,-0.244141,-5.12695,10.0708,0.373627,-0.578949,-0.391327,-0.609894,-5694,6168,10727,-8985,-28663
18980,9.85742,0.311035,0.143555,62.4957,-87.204,-176.99,-0.427246,-4.3335,8.23975,0.373779,-0.579254,-0.391144,-0.609619,-5182,8472,10215,-8985,-28663
18986,9.85264,0.339746,0.153125,62.4573,-87.2424,-176.951,-0.12207,-3.41797,7.38525,0.373901,-0.579498,-0.390991,-0.609406,-4414,11288,9447,-8985,-28663
18992,9.81436,0.363672,0.0957031,62.3584,-87.2754,-176.858,-0.183105,-2.38037,6.65283,0.374115,-0.579895,-0.390717,-0.60907,-3390,15640,9959,-8985,-28663
18998,9.82871,0.354102,0.119629,61.9189,-87.3248,-176.418,-0.671387,-0.244141,5.61523,0.374237,-0.580017,-0.390564,-0.608978,-2622,17432,12263,-8985,-28663
19004,9.81914,0.349316,0.14834,61.5948,-87.3468,-176.1,-1.0376,0.732422,5.00488,0.374359,-0.580109,-0.390442,-0.608887,-1342,18968,14311,-8985,-28663
19010,9.80957,0.339746,0.13877,61.2708,-87.3578,-175.776,-1.34277,1.09863,4.3335,0.374481,-0.5802,-0.390289,-0.608856,-318,20248,15591,-8985,-28663
19016,9.76172,0.363672,0.124414,60.8917,-87.3743,-175.397,-1.89209,1.64795,4.3335,0.374603,-0.580231,-0.390137,-0.608826,1475,21528,16615,-8985,-28663
19022,9.73301,0.387598,0.301465,60.5017,-87.3853,-175.012,-2.31934,1.64795,4.3335,0.374817,-0.580322,-0.389832,-0.608826,5059,23576,17127,-8985,-28663
19028,9.85264,0.354102,0.334961,59.881,-87.4237,-174.408,-2.38037,-0.0610352,4.69971,0.374939,-0.580383,-0.389648,-0.608795,6339,24856,15847,-8985,-28663
19034,9.80957,0.378027,0.354102,59.7382,-87.4402,-174.271,-0.976562,-0.915527,4.15039,0.375,-0.580475,-0.389496,-0.608765,7619,26136,14055,-8985,-28663
19040,9.73301,0.468945,0.358887,59.6613,-87.4622,-174.194,0.0610352,-1.64795,4.27246,0.375061,-0.580566,-0.389404,-0.608673,9155,27672,12007,-8985,-28663
19046,9.72344,0.47373,0.358887,59.6338,-87.4951,-174.161,0.671387,-2.99072,5.79834,0.375153,-0.580688,-0.389313,-0.608582,10179,28696,10727,-8985,-28663
19052,9.79043,0.363672,0.301465,59.6887,-87.5281,-174.216,2.01416,-5.61523,7.50732,0.375366,-0.581055,-0.38916,-0.608185,12483,29976,9703,-8985,-28663
19058,9.87656,0.320605,0.244043,60.1227,-87.616,-174.639,1.95312,-6.5918,6.65283,0.375488,-0.581299,-0.389099,-0.60791,12995,31000,8423,-8985,-28663
19064,9.79043,0.287109,0.114844,60.4303,-87.6599,-174.946,1.64795,-6.40869,6.22559,0.37558,-0.581573,-0.389069,-0.607635,13763,32280,7655,-8985,-28663
19070,9.86221,0.224902,0.0861328,60.7874,-87.6929,-175.303,0.488281,-5.85938,4.57764,0.375641,-0.581818,-0.389038,-0.607361,14787,-31464,6631,-8985,-28663
19076,9.83828,0.196191,0.15791,61.1554,-87.7148,-175.682,0.183105,-5.12695,3.11279,0.375641,-0.582062,-0.389008,-0.607178,15555,-30440,7143,-8985,-28663
19082,9.88613,0.220117,0.263184,61.6498,-87.7313,-176.188,0.0610352,-5.7373,-0.183105,0.375488,-0.582458,-0.389008,-0.606903,17603,-28648,9959,-8985,-28663
19088,9.88135,0.277539,0.244043,63.089,-87.7533,-177.66,0,-6.53076,-1.2207,0.375305,-0.582642,-0.389038,-0.606812,18627,-27624,12007,-8985,-28663
19094,9.82393,0.291895,0.244043,64.0503,-87.7533,-178.643,-0.244141,-7.38525,-2.38037,0.375061,-0.582825,-0.389069,-0.60675,19651,-26600,13287,-8985,-28663
19100,9.82871,0.272754,0.210547,65.1324,-87.7588,-179.747,-0.305176,-8.11768,-3.05176,0.374756,-0.583038,-0.38916,-0.606659,21443,-26344,13031,-8985,-28663
19106,9.8,0.234473,0.181836,66.297,-87.7588,179.05,-0.244141,-8.54492,-3.78418,0.37442,-0.583282,-0.389221,-0.606598,22211,-26344,13031,-8985,-28663
19112,9.8,0.311035,0.13877,67.5934,-87.7533,177.72,-0.976562,-9.52148,-5.31006,0.373566,-0.583801,-0.389435,-0.606506,24515,-26600,12007,-8985,-28663
19118,9.81914,0.373242,0.133984,70.2466,-87.7313,174.985,-1.64795,-9.46045,-5.31006,0.373047,-0.584076,-0.389526,-0.606506,25027,-26600,12007,-8985,-28663
19124,9.79521,0.368457,0.119629,71.5814,-87.7203,173.6,-1.89209,-9.64355,-5.7373,0.372528,-0.584381,-0.389587,-0.606506,25539,-26600,11751,-8985,-28663
19130,9.75693,0.382812,0.105273,72.9382,-87.7094,172.194,-2.2583,-10.0708,-5.31006,0.371979,-0.584686,-0.389648,-0.606506,25283,-26088,10983,-8985,-28663
19136,9.75215,0.45459,0.100488,74.295,-87.7039,170.782,-2.86865,-10.376,-4.76074,0.371399,-0.585022,-0.389679,-0.606506,24259,-25576,10471,-8985,-28663
19142,9.68516,0.531152,0.129199,75.6189,-87.6984,169.404,-1.15967,-10.3149,-1.52588,0.3703,-0.585754,-0.389679,-0.606476,22467,-25320,8423,-8985,-28663
19148,9.58945,0.579004,0.105273,78.0579,-87.7148,166.877,-0.793457,-10.3149,0.671387,0.369812,-0.586151,-0.389648,-0.606384,21187,-25576,8935,-8985,-28663
19154,9.68516,0.564648,0.062207,79.1125,-87.7423,165.778,-0.244141,-9.70459,3.96729,0.369446,-0.586578,-0.389557,-0.606293,20163,-26344,10727,-8985,-28663
19160,9.71865,0.516797,0.0143555,80.0299,-87.7753,164.822,0.488281,-8.66699,5.5542,0.369171,-0.587036,-0.389404,-0.60611,19395,-27368,12775,-8985,-28663
19166,9.77129,0.468945,-0.0191406,80.8209,-87.8137,163.998,0.854492,-7.62939,6.7749,0.368988,-0.587463,-0.389221,-0.605927,18883,-27624,15591,-8985,-28663
19172,9.81914,0.224902,-0.162695,81.5625,-87.8577,163.229,-1.15967,-6.22559,6.83594,0.368774,-0.588257,-0.388763,-0.60553,17347,-26856,20199,-8985,-28663
19178,9.84307,0.172266,-0.287109,82.5568,-87.9181,162.164,-2.99072,-3.54004,5.24902,0.368683,-0.588654,-0.388519,-0.605408,17091,-26600,21479,-8985,-28663
19184,9.80957,0.220117,-0.330176,82.4249,-87.9401,162.252,-5.06592,0,4.5166,0.368561,-0.588959,-0.388245,-0.605347,16323,-26600,24039,-8985,-28663
19190,9.79521,0.31582,-0.358887,81.7987,-87.9565,162.845,-7.01904,3.72314,3.54004,0.368469,-0.589142,-0.387939,-0.605408,16067,-26344,26343,-8985,-28663
19196,-19.5952,-3.97168,-7.37871,83.7653,-87.5226,161.164,13.1226,-2.44141,-87.3413,0.368439,-0.589233,-0.387573,-0.605591,14787,-25576,31463,-8985,-28663
19202,-47.062,78.3426,28.8928,72.1967,-83.7103,173.793,-69.1528,269.531,-74.3408,0.359985,-0.562073,-0.408997,-0.622162,13507,-26344,31719,-8985,-28663
19208,68.4995,-26.103,1.89492,50.8722,-83.15,-165.377,-86.3647,187.073,231.079,0.360992,-0.553741,-0.405365,-0.631378,10947,-28392,30695,-8985,-28663
19214,21.983,-12.5036,10.3981,49.3176,-83.5016,-164.366,-117.615,-30.4565,75.7446,0.368652,-0.553497,-0.394928,-0.633759,6851,32024,27367,-8985,-28663
19220,15.681,-3.73242,7.62275,55.8105,-83.941,-171.793,-180.603,-186.279,-22.522,0.367432,-0.55719,-0.390656,-0.633881,2755,24344,21991,-8985,-28663
19226,6.06758,4.61768,3.55059,64.1052,-84.3146,179.357,-101.807,-197.998,-19.6533,0.359192,-0.564575,-0.389313,-0.632904,-5182,9240,10727,-8985,-28663
19232,-8.95303,-0.244043,-0.358887,64.4952,-85.1056,179.83,118.347,-12.6343,115.417,0.354126,-0.572357,-0.391479,-0.627411,-7998,4888,8423,-8985,-28663
19238,14.5421,4.81387,-6.72793,61.875,-85.2814,-177.264,49.0112,23.1934,61.5234,0.359924,-0.57251,-0.392181,-0.623505,-10814,1304,9447,-8985,-28663
19244,18.6717,-0.789551,-8.51758,59.7546,-85.1935,-175.144,-13.6108,36.5601,8.11768,0.36322,-0.571808,-0.391937,-0.622375,-13118,-1513,11495,-8985,-28663
19250,7.01982,-2.75146,1.77051,58.8593,-85.0012,-174.463,-52.8564,26.5503,-20.6909,0.363861,-0.570801,-0.391205,-0.623413,-15678,-3817,13543,-8985,-28663
19256,10.6853,-0.311035,1.88535,59.3921,-84.8309,-175.243,-57.9834,3.17383,-31.3721,0.362579,-0.570221,-0.390228,-0.625305,-18750,-6889,19175,-8985,-28663
19262,7.40264,3.34961,2.07197,59.6887,-84.6936,-175.704,-16.8457,1.70898,-3.11279,0.359009,-0.570068,-0.389404,-0.627991,-19774,-7913,20967,-8985,-28663
19268,9.91484,2.40693,1.03838,59.3646,-84.6991,-175.38,-0.183105,-2.68555,17.8833,0.358643,-0.569946,-0.389313,-0.628387,-20542,-8937,24039,-8985,-28663
19274,9.25449,1.03359,1.0001,59.057,-84.809,-175.018,2.68555,-8.8501,28.3813,0.359161,-0.570007,-0.389221,-0.628052,-21566,-9449,25319,-8985,-28663
19280,10.1637,-0.215332,-1.04316,59.035,-84.9463,-174.941,2.13623,-15.1978,28.6865,0.359955,-0.570404,-0.389038,-0.62738,-21822,-9961,26087,-8985,-28663
19286,10.3646,0.0813477,-0.0813477,58.8153,-85.0342,-174.688,-1.83105,-8.05664,22.7051,0.360657,-0.570984,-0.388947,-0.626526,-22078,-10985,26855,-8985,-28663
19292,9.52246,0.885254,0.220117,57.7441,-85.155,-173.584,-7.01904,1.0376,20.5078,0.361694,-0.571503,-0.388519,-0.625671,-21822,-10473,26855,-8985,-28663
19298,9.27363,1.00488,0.186621,56.7444,-85.2319,-172.579,-7.38525,4.02832,25.9399,0.362244,-0.571655,-0.388092,-0.625488,-21566,-8937,27111,-8985,-28663
19304,9.75215,0.971387,0.31582,55.5249,-85.3253,-171.343,-8.05664,4.39453,31.0059,0.362976,-0.571838,-0.387512,-0.625275,-20542,-6889,27367,-8985,-28663
19310,9.50811,0.674707,0.631641,54.1571,-85.4352,-169.964,-7.69043,3.72314,34.5459,0.363831,-0.572113,-0.386749,-0.625,-19262,-5097,27879,-8985,-28663
19316,9.61816,0.617285,0.703418,52.7509,-85.556,-168.536,-4.45557,1.89209,36.6211,0.364807,-0.572449,-0.385956,-0.624634,-16702,-1257,29415,-8985,-28663
19322,9.82871,0.239258,0.502441,49.9878,-85.8032,-165.696,-1.77002,-1.83105,35.9497,0.366974,-0.573242,-0.384491,-0.623535,-15166,792,31463,-8985,-28663
19328,10.001,0.062207,0.46416,48.8617,-85.9296,-164.537,-1.09863,-4.82178,32.959,0.368011,-0.573669,-0.38385,-0.622894,-12606,2584,32743,-8985,-28663
19334,10.2977,0.0574219,0.368457,47.9663,-86.0339,-163.603,-1.34277,-5.92041,27.8931,0.368927,-0.574127,-0.383362,-0.622223,-9534,4120,-30745,-8985,-28663
19340,10.1732,0.0239258,0.368457,47.2797,-86.1273,-162.883,-1.09863,-6.83594,23.6206,0.36969,-0.574554,-0.382996,-0.621613,-6206,5400,-29465,-8985,-28663
19346,10.0871,0.0478516,0.363672,46.8182,-86.2152,-162.389,-0.793457,-7.75146,19.5312,0.370331,-0.574951,-0.382751,-0.621033,707,8728,-27417,-8985,-28663
19352,9.80957,-0.00957031,0.244043,46.5546,-86.3416,-162.07,-1.28174,-8.36182,10.9863,0.371216,-0.575623,-0.382568,-0.619995,3523,11544,-26137,-8985,-28663
19358,9.99141,0.0287109,0.153125,46.637,-86.3855,-162.131,-1.77002,-7.62939,8.30078,0.37146,-0.575867,-0.382599,-0.619598,6083,15128,-26137,-8985,-28663
19364,9.84785,0.133984,0.0478516,46.7413,-86.413,-162.213,-2.13623,-5.5542,5.5542,0.371613,-0.57608,-0.38269,-0.619263,7875,18968,-25369,-8985,-28663
19370,9.74258,0.0957031,0.119629,46.8292,-86.4294,-162.285,-2.56348,-3.84521,4.02832,0.371735,-0.576202,-0.382782,-0.619019,10435,22296,-25113,-8985,-28663
19376,9.81436,0.129199,0.0239258,46.9501,-86.4349,-162.389,-2.92969,-2.13623,1.40381,0.371826,-0.576263,-0.382874,-0.618835,15043,27928,-23833,-8985,-28663
19382,9.8957,0.090918,0.124414,47.1918,-86.402,-162.603,-3.41797,1.52588,-2.80762,0.371857,-0.576172,-0.383118,-0.618744,16835,30744,-23321,-8985,-28663
19388,9.89092,0.13877,0.124414,47.3346,-86.369,-162.746,-3.78418,2.74658,-4.63867,0.371857,-0.575989,-0.38324,-0.618835,17859,-32488,-23833,-8985,-28663
19394,9.85742,0.177051,0.172266,47.5214,-86.3306,-162.916,-3.41797,3.90625,-6.65283,0.371796,-0.575775,-0.383392,-0.618988,18883,-29928,-24601,-8985,-28663
19400,9.80957,0.272754,0.229688,47.6862,-86.2756,-163.07,-2.86865,5.06592,-7.75146,0.371704,-0.5755,-0.383575,-0.619171,19907,-27880,-26137,-8985,-28663
19406,9.86221,0.30625,0.205762,47.796,-86.2262,-163.163,-2.44141,5.79834,-7.44629,0.371613,-0.575165,-0.383789,-0.619415,21443,-25064,-27161,-8985,-28663
19412,9.8957,0.334961,0.191406,47.851,-86.1163,-163.185,-1.40381,7.75146,-7.50732,0.371552,-0.574432,-0.384186,-0.619904,21955,-23528,-26905,-8985,-28663
19418,9.80957,0.344531,0.239258,47.807,-86.0559,-163.12,-1.28174,8.60596,-7.62939,0.371552,-0.574005,-0.384369,-0.620178,21699,-22248,-26649,-8985,-28663
19424,9.71865,0.416309,0.282324,47.6917,-85.9955,-162.982,-0.854492,9.09424,-6.5918,0.371582,-0.573578,-0.384552,-0.620453,21187,-20968,-24857,-8985,-28663
19430,9.68516,0.421094,0.282324,47.5269,-85.9406,-162.79,-0.12207,9.58252,-5.98145,0.371643,-0.57312,-0.384705,-0.620697,20419,-20200,-23577,-8985,-28663
19436,9.68516,0.449805,0.330176,47.3126,-85.8911,-162.543,0,9.52148,-4.69971,0.371765,-0.572662,-0.384857,-0.620972,19139,-19432,-22297,-8985,-28663
19442,9.72344,0.440234,0.378027,46.7633,-85.8087,-161.933,0.12207,8.97217,-2.13623,0.372101,-0.571838,-0.385071,-0.621399,18627,-19688,-22041,-8985,-28663
19448,9.73779,0.449805,0.291895,46.4282,-85.7703,-161.576,-0.244141,8.78906,-1.2207,0.372345,-0.571472,-0.385162,-0.621552,18627,-20200,-22041,-8985,-28663
19454,9.78564,0.397168,0.334961,46.0657,-85.7373,-161.18,-0.0610352,8.8501,-0.427246,0.372559,-0.571106,-0.385193,-0.621704,19395,-20968,-23065,-8985,-28663
19460,9.82393,0.425879,0.679492,45.6757,-85.7098,-160.768,-0.610352,8.72803,0.244141,0.372833,-0.57077,-0.385223,-0.621826,19395,-21992,-23321,-8985,-28663
19466,9.77607,0.401953,0.378027,45.2692,-85.6879,-160.34,-0.488281,8.17871,1.2207,0.373108,-0.570496,-0.385193,-0.621979,18883,-23272,-23065,-8985,-28663
19472,9.69951,0.354102,0.421094,44.588,-85.6384,-159.609,-0.488281,7.38525,0.366211,0.373657,-0.569946,-0.385162,-0.622162,19395,-23528,-22297,-8985,-28663
19478,9.73301,0.502441,0.507227,44.2365,-85.6219,-159.236,-0.488281,6.16455,2.19727,0.373871,-0.569672,-0.385162,-0.622284,19395,-23528,-22041,-8985,-28663
19484,9.65645,0.425879,0.579004,43.8574,-85.6274,-158.835,0.366211,4.27246,4.69971,0.374146,-0.569489,-0.385132,-0.622314,19651,-22504,-23833,-8985,-28663
19490,9.76172,0.387598,0.598145,43.5114,-85.6384,-158.461,1.28174,2.50244,5.79834,0.374451,-0.569366,-0.385071,-0.622253,20419,-21480,-26393,-8985,-28663
19496,9.81436,0.397168,0.535937,43.1982,-85.6549,-158.115,2.38037,1.15967,6.40869,0.374786,-0.569336,-0.38504,-0.622131,21443,-19688,-28441,-8985,-28663
19502,9.7043,0.459375,0.497656,42.616,-85.7153,-157.456,4.63867,-1.58691,8.42285,0.375458,-0.569336,-0.38504,-0.621704,22211,-19176,-28441,-8985,-28663
19508,9.75693,0.387598,0.502441,42.2809,-85.7593,-157.088,5.18799,-2.2583,9.8877,0.375854,-0.569397,-0.385071,-0.621399,22979,-18664,-28185,-8985,-28663
19514,9.79043,0.339746,0.507227,41.9623,-85.8087,-156.72,5.92041,-3.60107,10.8032,0.376282,-0.569489,-0.385071,-0.621033,23235,-17640,-29209,-8985,-28663
19520,9.78086,0.363672,0.502441,41.6492,-85.8636,-156.363,6.7749,-4.57764,11.4136,0.376709,-0.569641,-0.385101,-0.620636,23235,-16872,-31769,-8985,-28663
19526,9.8,0.330176,0.44502,41.3361,-85.9241,-156,7.99561,-4.88281,11.5356,0.377625,-0.569977,-0.385193,-0.61969,22723,-16104,28903,-8985,-28663
19532,9.82393,0.215332,0.378027,40.8032,-86.0449,-155.363,9.39941,-6.16455,10.9863,0.378082,-0.57016,-0.385284,-0.619171,22979,-15336,27111,-8985,-28663
19538,9.87178,0.181836,0.334961,40.6,-86.0999,-155.105,9.39941,-6.22559,10.2539,0.37854,-0.570343,-0.385406,-0.618652,24259,-14824,25831,-8985,-28663
19544,9.77607,0.177051,0.344531,40.4187,-86.1548,-154.874,9.39941,-5.79834,9.39941,0.378967,-0.570526,-0.385529,-0.618164,25539,-13800,24807,-8985,-28663
19550,9.8,0.224902,0.196191,40.2209,-86.2042,-154.627,9.09424,-5.37109,9.21631,0.379364,-0.570679,-0.385681,-0.617676,27075,-12520,23527,-8985,-28663
19556,9.8957,0.15791,0.15791,39.9902,-86.2482,-154.352,7.8125,-4.02832,8.36182,0.380127,-0.570953,-0.385895,-0.616852,31427,-11496,22503,-8985,-28663
19562,9.84307,0.0574219,0.13877,39.6057,-86.3086,-153.907,3.2959,-2.01416,5.31006,0.380432,-0.571045,-0.385956,-0.616516,32707,-10728,21223,-8985,-28663
19568,-95.1959,-2.19639,-6.95762,47.417,-85.4572,-161.389,43.2739,49.4385,-195.129,0.380615,-0.571136,-0.385986,-0.616302,-32061,-10216,21223,-8985,-28663
19574,145.282,-25.8877,-44.2531,51.0864,-81.568,-163.867,172.791,467.834,-622.62,0.37796,-0.565338,-0.391907,-0.619537,-32317,-9960,20967,-8985,-28663
19580,-3.12949,48.2152,9.16357,40.8966,-81.546,-153.484,-37.7808,220.215,211.243,0.374725,-0.537689,-0.405945,-0.636841,32195,-10472,19687,-8985,-28663
19586,31.917,-18.686,28.5913,33.4369,-82.1338,-146.058,-60.5469,34.79,235.535,0.391479,-0.538483,-0.391052,-0.635406,25795,-20456,10983,-8985,-28663
19592,7.87158,-4.75645,4.04346,36.2659,-84.0399,-150.161,-89.1113,-222.717,27.5269,0.388702,-0.546631,-0.387146,-0.632538,21699,-27880,2279,-8985,-28663
19598,-15.1354,5.48857,0.45459,41.4459,-84.8859,-155.187,42.9077,-191.711,28.5645,0.383026,-0.555176,-0.387146,-0.62854,18627,31768,-5146,-8985,-28663
19604,-4.11523,5.3833,-1.94277,41.402,-85.4956,-154.402,133.972,-83.0688,88.8062,0.38147,-0.560333,-0.390625,-0.622742,16579,28696,-9754,-8985,-28663
19610,14.0684,4.00996,-11.0346,37.3096,-85.7318,-149.568,91.3086,9.58252,85.4492,0.386139,-0.561646,-0.393768,-0.616669,15043,26136,-12570,-8985,-28663
19616,13.4176,-5.8666,6.01973,33.8818,-85.7758,-145.854,-12.5122,22.9492,49.4385,0.395325,-0.559662,-0.395203,-0.611725,14275,25112,-6938,-8985,-28663
19622,13.3889,-2.10068,1.9667,34.2389,-85.4736,-147.173,-41.0767,15.8691,-46.5698,0.39328,-0.560547,-0.392273,-0.614075,15299,25624,-3354,-8985,-28663
19628,8.58936,1.36855,2.42129,36.8262,-85.3308,-150.128,-31.5552,-2.80762,-54.9316,0.389954,-0.561005,-0.390625,-0.616852,17347,26392,1767,-8985,-28663
19634,8.8334,1.98105,1.41641,39.1113,-85.2429,-152.595,-7.44629,-8.54492,-43.7622,0.386597,-0.561432,-0.390106,-0.618896,19139,27416,4839,-8985,-28663
19640,9.55117,1.03359,0.334961,40.8636,-85.166,-154.435,7.50732,-5.79834,-34.3628,0.38443,-0.561584,-0.390411,-0.619934,19907,28184,7143,-8985,-28663
19646,9.45547,-0.30625,0.301465,42.3413,-85.0781,-156.022,4.57764,-3.17383,-31.9824,0.381531,-0.561432,-0.391205,-0.621338,21699,27672,11239,-8985,-28663
19652,10.4986,0.0334961,0.0478516,45.2856,-84.8364,-159.357,-1.46484,1.28174,-41.3208,0.3797,-0.561523,-0.391235,-0.622375,22211,26904,13543,-8985,-28663
19658,10.2546,0.330176,0.401953,46.7468,-84.6661,-161.049,-1.77002,3.96729,-45.9595,0.377533,-0.561523,-0.391113,-0.623749,22467,26136,14567,-8985,-28663
19664,10.3359,0.698633,0.291895,48.1641,-84.4849,-162.702,-1.58691,3.96729,-47.3633,0.375214,-0.561462,-0.390991,-0.625305,21955,24856,15079,-8985,-28663
19670,9.16357,0.851758,0.492871,49.3506,-84.3146,-164.125,-0.915527,5.06592,-44.2505,0.372803,-0.561371,-0.3909,-0.626892,20931,24088,15847,-8985,-28663
19676,9.52246,1.14844,0.13877,50.3339,-84.1608,-165.333,-0.732422,4.3335,-39.0625,0.368408,-0.561279,-0.390442,-0.629822,16323,20248,13287,-8985,-28663
19682,9.3167,1.00488,0.507227,51.4819,-83.9136,-166.91,-2.86865,6.10352,-26.4893,0.366547,-0.56131,-0.390045,-0.631134,13507,17176,13031,-8985,-28663
19688,9.46025,0.990527,0.626855,51.8829,-83.8257,-167.52,-2.38037,4.21143,-21.9727,0.364807,-0.561462,-0.389496,-0.632324,9667,14360,13031,-8985,-28663
19694,9.5416,1.03838,0.531152,52.1906,-83.7598,-168.036,-2.62451,2.62451,-16.9678,0.36322,-0.561707,-0.388885,-0.633423,5827,11288,13031,-8985,-28663
19700,9.30234,1.00967,0.564648,52.4597,-83.7158,-168.514,-3.66211,0.0610352,-12.5732,0.361725,-0.562103,-0.388184,-0.634369,2755,8216,12775,-8985,-28663
19706,9.65166,1.3207,0.617285,52.6959,-83.6993,-168.964,-3.96729,-2.01416,-8.60596,0.358917,-0.563263,-0.386536,-0.635895,-3902,3608,12263,-8985,-28663
19712,9.63731,1.34941,0.708203,52.8772,-83.7433,-169.541,-2.2583,-5.24902,3.72314,0.357697,-0.564026,-0.38562,-0.636444,-6462,792,12263,-8985,-28663
19718,9.35977,1.30635,0.693848,52.8113,-83.8147,-169.656,-0.183105,-6.89697,10.2539,0.356689,-0.564941,-0.384613,-0.636841,-8766,-1513,12775,-8985,-28663
19724,9.42197,1.17715,0.559863,52.63,-83.9081,-169.645,1.77002,-7.87354,16.1133,0.355896,-0.565948,-0.383545,-0.637054,-10302,-3817,14311,-8985,-28663
19730,9.29756,1.13887,0.45459,52.3279,-84.0234,-169.497,2.38037,-8.23975,20.9961,0.355316,-0.567017,-0.382416,-0.637085,-11838,-6377,14567,-8985,-28663
19736,9.49854,1.0623,0.358887,51.8774,-84.1553,-169.2,2.2583,-7.8125,30.2734,0.354614,-0.569397,-0.379883,-0.636871,-13630,-11497,16615,-8985,-28663
19742,9.35498,0.899609,0.373242,50.4712,-84.4684,-168.085,2.74658,-8.30078,35.0952,0.354462,-0.570648,-0.378479,-0.636658,-14398,-13801,16615,-8985,-28663
19748,9.61816,0.856543,0.330176,49.4934,-84.6497,-167.25,2.44141,-7.8125,38.8794,0.354492,-0.57196,-0.377014,-0.636353,-15678,-15593,16871,-8985,-28663
19754,9.60381,0.698633,0.311035,48.3069,-84.8309,-166.201,2.13623,-6.89697,41.8091,0.354645,-0.573334,-0.375427,-0.635956,-16446,-16361,16103,-8985,-28663
19760,9.85742,0.555078,0.224902,46.9336,-85.0122,-164.965,2.38037,-5.67627,43.2129,0.354889,-0.574707,-0.373779,-0.635559,-16446,-16361,16103,-8985,-28663
19766,9.83828,0.421094,0.29668,45.3955,-85.188,-163.559,1.70898,-3.60107,43.0298,0.355591,-0.577332,-0.370392,-0.634766,-13886,-15081,15591,-8985,-28663
19772,9.89092,0.30625,0.277539,41.9513,-85.5121,-160.367,1.89209,-2.50244,42.1753,0.355957,-0.578583,-0.368713,-0.634399,-11582,-13545,17127,-8985,-28663
19778,9.90049,0.272754,0.287109,40.0671,-85.6549,-158.604,2.0752,-1.2207,40.6494,0.356323,-0.579773,-0.367035,-0.634064,-9534,-11753,17383,-8985,-28663
19784,9.81914,0.234473,0.29668,38.1116,-85.7812,-156.764,2.19727,-0.244141,39.0015,0.35672,-0.580902,-0.365387,-0.633789,-7230,-9193,18407,-8985,-28663
19790,9.9627,0.133984,0.277539,36.123,-85.8911,-154.896,1.89209,0.732422,36.7432,0.357086,-0.58194,-0.3638,-0.633514,-5438,-6121,20455,-8985,-28663
19796,9.85264,0.0143555,0.334961,34.1125,-85.99,-153.007,0.366211,2.56348,31.4331,0.357666,-0.583832,-0.360718,-0.633209,-830,280,21479,-8985,-28663
19802,9.90527,0.0765625,0.277539,30.2509,-86.1328,-149.392,0.12207,3.479,29.1748,0.357849,-0.584686,-0.359253,-0.633179,1475,4120,20455,-8985,-28663
19808,9.79521,0.0478516,0.344531,28.4161,-86.1823,-147.678,0,4.27246,26.5503,0.357971,-0.58548,-0.357819,-0.633179,3523,8216,18407,-8985,-28663
19814,9.95312,0.0287109,0.411523,26.6418,-86.2207,-146.03,-0.0610352,4.69971,24.7803,0.358063,-0.586182,-0.356445,-0.63324,6083,12056,15335,-8985,-28663
19820,9.89092,-0.00957031,0.459375,24.9994,-86.2537,-144.509,0.305176,4.45557,22.4609,0.358093,-0.586853,-0.355133,-0.633331,8643,16408,13031,-8985,-28663
19826,10.001,-0.124414,0.45459,23.5657,-86.2811,-143.196,1.0376,4.39453,16.0522,0.357971,-0.588074,-0.352692,-0.633667,14275,23320,13031,-8985,-28663
19832,9.95791,-0.15791,0.425879,21.3794,-86.3031,-141.257,1.2207,3.72314,12.2681,0.357758,-0.588623,-0.351562,-0.633881,17347,26136,13799,-8985,-28663
19838,9.99141,-0.263184,0.416309,20.7367,-86.3086,-140.746,1.0376,3.23486,7.99561,0.357422,-0.589111,-0.350555,-0.634155,20163,29208,14055,-8985,-28663
19844,9.98662,-0.253613,0.330176,20.473,-86.2976,-140.625,0.366211,3.41797,2.50244,0.356964,-0.5896,-0.34964,-0.634521,23747,31768,14055,-8985,-28663
19850,9.99141,-0.239258,0.363672,20.5115,-86.2866,-140.823,-0.610352,3.2959,-1.83105,0.356262,-0.589996,-0.348785,-0.634979,27075,-30952,14055,-8985,-28663
19856,9.78564,-0.105273,0.569434,20.8575,-86.2646,-141.334,-1.58691,1.83105,-9.70459,0.35437,-0.590729,-0.347229,-0.63623,32451,-25576,14311,-8985,-28663
19862,9.90049,-0.0334961,0.535937,22.2913,-86.2207,-143.13,-0.854492,0.366211,-12.085,0.353149,-0.591095,-0.346527,-0.636932,-31037,-23272,15079,-8985,-28663
19868,9.87656,0.0382813,0.545508,23.2471,-86.2042,-144.272,-0.305176,-0.915527,-13.7329,0.351807,-0.591461,-0.345917,-0.637665,-29501,-21480,16103,-8985,-28663
19874,9.76172,0.129199,0.559863,24.2743,-86.1877,-145.492,-0.0610352,-2.19727,-14.4043,0.350403,-0.591858,-0.345306,-0.638397,-27965,-20200,17127,-8985,-28663
19880,9.79043,0.162695,0.492871,25.34,-86.1768,-146.75,0.12207,-3.35693,-14.5264,0.348907,-0.592285,-0.344727,-0.63913,-25149,-18664,18407,-8985,-28663
19886,9.70908,0.186621,0.397168,26.4166,-86.1658,-148.03,-0.305176,-3.78418,-14.4653,0.345825,-0.593292,-0.343536,-0.640533,-23613,-17896,19431,-8985,-28663
19892,9.71387,0.267969,0.378027,28.4601,-86.1328,-150.485,0,-3.2959,-14.0381,0.344238,-0.593811,-0.342896,-0.641235,-22333,-17384,20967,-8985,-28663
19898,9.71865,0.430664,0.368457,29.2731,-86.1218,-151.501,0.12207,-2.56348,-11.7188,0.342682,-0.594299,-0.342255,-0.641968,-22077,-16616,21991,-8985,-28663
19904,9.60859,0.425879,0.425879,29.9213,-86.1108,-152.347,0.732422,-2.56348,-9.15527,0.341187,-0.594818,-0.341522,-0.64267,-21821,-16360,22759,-8985,-28663
19910,9.63252,0.430664,0.421094,30.4266,-86.1108,-153.045,1.70898,-2.74658,-6.71387,0.339813,-0.595367,-0.340759,-0.643311,-22589,-16104,22247,-8985,-28663
19916,-43.21,-1.63652,-0.842188,35.6067,-85.5725,-158.516,29.2969,53.3447,-117.676,0.337311,-0.596527,-0.339111,-0.644409,-23357,-16360,21479,-8985,-28663
19922,148.517,-22.94,-26.9452,41.9568,-82.0129,-163.74,172.729,487.549,-536.194,0.334259,-0.593567,-0.340973,-0.647766,-24381,-17128,21223,-8985,-28663
19928,24.7584,43.6023,5.92881,25.6476,-81.1066,-147.596,-81.543,416.504,292.969,0.332184,-0.568268,-0.354095,-0.664246,-25661,-18920,20199,-8985,-28663
19934,35.9892,-22.8252,41.2815,18.089,-81.0297,-140.334,-30.3955,101.746,207.214,0.345276,-0.561707,-0.338806,-0.671082,-28477,-21992,15079,-8985,-28663
19940,9.01523,-10.8192,4.97656,15.238,-81.5845,-138.038,-66.04,-85.022,103.027,0.3508,-0.562927,-0.330109,-0.671539,31683,-29160,-3866,-8985,-28663
19946,-6.53652,4.16787,3.53623,14.9634,-83.2983,-139.18,-67.627,-171.57,40.7715,0.343628,-0.576416,-0.322632,-0.667419,30403,-32488,-15386,-8985,-28663
19952,-5.0292,1.24414,3.38311,10.1953,-83.6609,-134.088,99.7925,-45.9595,132.446,0.339447,-0.583588,-0.320953,-0.664124,31171,31512,-24602,-8985,-28663
19958,11.2547,4.34971,-3.84727,4.19128,-83.6554,-127.744,95.8252,18.4326,142.334,0.343994,-0.585846,-0.320038,-0.660248,32451,32024,-30490,-8985,-28663
19964,10.4508,1.33027,-8.42666,0.85144,-83.6224,-124.464,14.6484,11.7188,75.0122,0.349792,-0.586334,-0.317932,-0.657745,-30525,-31720,31462,-8985,-28663
19970,12.8769,-4.02432,0.282324,-0.390015,-83.573,-123.459,-12.2681,10.8032,25.3296,0.351562,-0.58728,-0.31546,-0.657166,-21053,-25576,26342,-8985,-28663
19976,10.5369,-0.387598,2.03369,0.620728,-83.6005,-125.107,-23.1323,-11.4136,-22.1558,0.349274,-0.588684,-0.311768,-0.658905,-15677,-21736,23526,-8985,-28663
19982,8.32139,0.545508,1.44512,1.59302,-83.6829,-126.337,-12.146,-17.1509,-23.8647,0.346771,-0.58963,-0.310791,-0.659851,-9789,-17640,21478,-8985,-28663
19988,9.3502,0.468945,0.492871,2.34558,-83.7488,-127.304,-2.01416,-13.4277,-17.5781,0.344452,-0.590515,-0.310272,-0.660492,-4669,-13032,20454,-8985,-28663
19994,11.0824,0.124414,0.258398,2.85095,-83.7817,-128.018,-3.72314,-5.98145,-12.3901,0.342621,-0.591248,-0.309845,-0.66098,-61,-8936,20710,-8985,-28663
20000,8.81426,-0.0478516,1.07187,3.16956,-83.8092,-128.562,-5.24902,-5.79834,-8.42285,0.341003,-0.591858,-0.309113,-0.661621,6852,-2280,19942,-8985,-28663
20006,10.1254,-0.330176,0.712988,4.0979,-83.8312,-129.919,-2.56348,-1.28174,-13.4888,0.337952,-0.59314,-0.307434,-0.662842,9668,25,19686,-8985,-28663
20012,10.446,-0.406738,0.574219,4.92188,-83.8202,-130.952,-1.09863,1.52588,-19.4702,0.336365,-0.593597,-0.306671,-0.663574,11972,2329,18406,-8985,-28663
20018,9.74736,-0.411523,0.291895,6.00952,-83.7762,-132.259,-0.549316,6.46973,-26.001,0.334686,-0.593872,-0.306061,-0.66449,14532,3865,18918,-8985,-28663
20024,9.06787,-0.153125,0.516797,7.20703,-83.7103,-133.676,-1.46484,10.0708,-29.2969,0.332825,-0.593903,-0.305511,-0.665619,15812,5401,18406,-8985,-28663
20030,9.88613,0.205762,0.440234,8.33862,-83.6279,-135.044,-4.02832,13.5498,-29.2969,0.330902,-0.593842,-0.304962,-0.666901,17092,6681,19686,-8985,-28663
20036,9.66602,0.349316,1.0958,10.047,-83.4686,-137.247,-5.24902,11.5967,-22.0947,0.326996,-0.593658,-0.303406,-0.669678,16836,6937,19430,-8985,-28663
20042,9.80957,0.406738,1.06709,10.7172,-83.4082,-138.148,-3.72314,9.76562,-19.4702,0.325195,-0.593689,-0.302521,-0.670929,16580,6425,18662,-8985,-28663
20048,9.59424,0.311035,0.957031,11.2939,-83.3533,-138.961,-3.72314,7.75146,-17.2729,0.323486,-0.593781,-0.301666,-0.672089,15812,5401,18406,-8985,-28663
20054,9.61816,0.133984,1.00967,11.8433,-83.3148,-139.741,-4.69971,5.43213,-16.2964,0.321808,-0.593933,-0.300781,-0.673126,14532,3609,18406,-8985,-28663
20060,9.72344,0.263184,0.693848,12.3376,-83.2874,-140.477,-6.22559,3.11279,-14.7705,0.320099,-0.594208,-0.299866,-0.674103,11204,25,18662,-8985,-28663
20066,9.64688,0.368457,1.33984,13.0792,-83.2489,-141.691,-5.18799,0.854492,-10.5591,0.316681,-0.594971,-0.297913,-0.675903,9668,-1256,17894,-8985,-28663
20072,9.41719,0.45459,1.15322,13.3539,-83.2544,-142.18,-3.35693,-1.83105,-7.93457,0.315125,-0.595428,-0.296936,-0.676666,8644,-2536,16102,-8985,-28663
20078,9.34541,0.507227,0.937891,13.4747,-83.2709,-142.515,-3.41797,-4.02832,-3.66211,0.313629,-0.595978,-0.296021,-0.677277,7876,-3816,14822,-8985,-28663
20084,9.56074,0.373242,1.02881,13.4857,-83.3038,-142.734,-3.54004,-6.22559,-0.305176,0.312286,-0.596619,-0.295013,-0.677765,6852,-4840,14054,-8985,-28663
20090,9.85742,0.368457,0.832617,13.4143,-83.3423,-142.866,-3.41797,-6.95801,1.89209,0.311005,-0.597351,-0.294006,-0.678162,4036,-5352,12518,-8985,-28663
20096,9.90527,0.368457,0.655566,13.0463,-83.4247,-142.894,-3.96729,-6.04248,5.5542,0.308655,-0.598938,-0.29187,-0.678741,2500,-5608,12262,-8985,-28663
20102,9.50332,0.282324,0.818262,12.7386,-83.4576,-142.789,-4.94385,-5.12695,6.95801,0.307617,-0.599731,-0.29071,-0.679047,1476,-6120,12262,-8985,-28663
20108,9.93398,0.229688,0.784766,12.3596,-83.4906,-142.603,-5.18799,-4.08936,8.48389,0.30658,-0.600494,-0.28949,-0.679321,964,-7144,13030,-8985,-28663
20114,9.64688,0.263184,0.885254,11.9366,-83.5236,-142.377,-4.94385,-3.54004,9.27734,0.305634,-0.601257,-0.288239,-0.679596,196,-7912,13030,-8985,-28663
20120,9.81914,0.239258,0.890039,11.4862,-83.551,-142.114,-4.02832,-3.78418,10.0708,0.304749,-0.60199,-0.286987,-0.679871,-1597,-8424,10726,-8985,-28663
20126,9.78564,0.114844,0.904395,10.5249,-83.6224,-141.498,-1.77002,-4.82178,11.2305,0.303162,-0.603455,-0.284576,-0.680328,-2365,-8680,10214,-8985,-28663
20132,9.64209,0.15791,0.933105,10.036,-83.6664,-141.169,-1.46484,-5.67627,11.4746,0.302429,-0.604187,-0.283417,-0.680481,-2365,-9192,10726,-8985,-28663
20138,9.75215,0.119629,0.933105,9.53064,-83.7103,-140.828,-0.793457,-6.34766,11.8408,0.301697,-0.60495,-0.282288,-0.680603,-1853,-9448,12262,-8985,-28663
20144,9.83828,0.15791,0.842188,8.99231,-83.7543,-140.438,-0.0610352,-6.40869,12.6343,0.301025,-0.605713,-0.281189,-0.680664,-1341,-9704,13286,-8985,-28663
20150,9.62773,0.15791,0.818262,8.40454,-83.7982,-140.004,-0.12207,-6.04248,13.5498,0.300415,-0.606445,-0.280121,-0.680725,964,-9704,15590,-8985,-28663
20156,9.59902,0.16748,0.818262,6.98181,-83.8806,-138.873,-0.549316,-5.61523,17.0898,0.299286,-0.607941,-0.277893,-0.680817,1476,-9704,16358,-8985,-28663
20162,9.7665,0.16748,0.799121,6.15784,-83.9246,-138.186,-0.366211,-5.7373,18.1885,0.298859,-0.608704,-0.276703,-0.680817,1732,-9960,18662,-8985,-28663
20168,9.70908,0.220117,0.837402,5.26245,-83.963,-137.428,0,-5.43213,19.4702,0.298462,-0.609436,-0.275543,-0.680786,1732,-9960,21222,-8985,-28663
20174,9.72344,0.133984,0.842188,4.29565,-84.0015,-136.588,0.671387,-5.61523,20.9961,0.298157,-0.610199,-0.274353,-0.680725,1732,-9448,23014,-8985,-28663
20180,9.81914,-0.0191406,0.823047,3.31787,-84.0399,-135.731,1.0376,-5.7373,21.0571,0.297699,-0.611694,-0.272034,-0.680511,2244,-6376,25062,-8985,-28663
20186,9.89092,-0.124414,0.756055,1.45569,-84.1113,-134.11,0.915527,-5.18799,19.2261,0.297485,-0.612396,-0.270905,-0.68042,3524,-4584,25574,-8985,-28663
20192,9.83828,-0.186621,0.698633,0.604248,-84.1388,-133.38,0.610352,-4.82178,17.7612,0.297241,-0.613098,-0.269775,-0.680328,5060,-2536,25062,-8985,-28663
20198,9.88613,-0.291895,0.60293,-0.12085,-84.1608,-132.775,-0.305176,-3.60107,14.8926,0.296967,-0.61377,-0.268707,-0.680298,6852,-744,26342,-8985,-28663
20204,10.0153,-0.258398,0.440234,-0.769043,-84.1663,-132.264,-2.19727,-0.915527,13.0005,0.29657,-0.61438,-0.26767,-0.680328,8900,1049,27878,-8985,-28663
20210,9.79043,-0.349316,0.583789,-1.27991,-84.1608,-131.902,-3.60107,1.70898,9.94873,0.295532,-0.615356,-0.265472,-0.680756,11716,4889,28646,-8985,-28663
20216,9.89092,-0.339746,0.650781,-1.80176,-84.1278,-131.704,-5.92041,4.63867,2.92969,0.29483,-0.615723,-0.264404,-0.681122,13252,7449,28646,-8985,-28663
20222,9.81914,-0.291895,0.799121,-1.87317,-84.1058,-131.808,-6.53076,5.37109,0.610352,0.294006,-0.616028,-0.263336,-0.68161,14020,10265,28646,-8985,-28663
20228,9.87656,-0.301465,0.818262,-1.8512,-84.0839,-132.001,-7.01904,5.24902,-1.28174,0.293091,-0.616302,-0.262329,-0.682159,15044,12825,28902,-8985,-28663
20234,9.84307,-0.272754,0.870898,-1.71387,-84.0619,-132.314,-6.46973,4.76074,-3.78418,0.292084,-0.616577,-0.261322,-0.682739,16580,15385,29158,-8985,-28663
20240,9.82393,-0.248828,0.952246,-1.50513,-84.0454,-132.704,-5.61523,3.90625,-5.37109,0.289856,-0.617065,-0.259521,-0.683929,20164,18969,31462,-8985,-28663
20246,9.8335,-0.0430664,0.937891,-0.983276,-84.0344,-133.572,-4.3335,1.2207,-6.46973,0.288666,-0.61734,-0.258728,-0.684479,21700,20249,-32538,-8985,-28663
20252,9.74258,0.0334961,0.966602,-0.752563,-84.0399,-133.967,-3.54004,-0.12207,-5.61523,0.287506,-0.617645,-0.257935,-0.684967,22980,21017,-29978,-8985,-28663
20258,9.70908,0.062207,1.03838,-0.565796,-84.0509,-134.319,-2.80762,-2.01416,-4.63867,0.286377,-0.617981,-0.257202,-0.685425,23748,21785,-27162,-8985,-28663
20264,9.79521,0.0382813,1.03359,-0.422974,-84.0784,-134.615,-2.19727,-4.39453,-3.54004,0.285248,-0.618378,-0.25647,-0.685822,24260,22553,-24602,-8985,-28663
20270,9.63731,0.0526367,1.0001,-0.357056,-84.1113,-134.841,-2.19727,-6.53076,-2.0752,0.283112,-0.619385,-0.255035,-0.68634,23748,24601,-19738,-8985,-28663
20276,9.6708,0.143555,0.92832,-0.53833,-84.2047,-134.951,-0.610352,-9.58252,2.74658,0.282135,-0.619995,-0.254333,-0.686432,22980,25625,-17178,-8985,-28663
20282,-37.9224,-0.76084,-3.71328,3.50464,-84.0948,-139.092,17.9443,20.4468,-82.3364,0.28125,-0.620636,-0.253601,-0.686493,21700,26137,-15386,-8985,-28663
20288,131.314,-24.2225,-25.7776,22.1429,-82.1283,-157.407,158.569,279.297,-511.353,0.278534,-0.619263,-0.255219,-0.688232,20932,26137,-14618,-8985,-28663
20294,37.53,43.2961,10.8192,14.2767,-81.1945,-149.551,-54.9927,250.793,156.555,0.268616,-0.603821,-0.26825,-0.700836,19396,24345,-15386,-8985,-28663
20300,27.5769,-20.9207,26.438,10.3546,-81.6284,-145.827,-28.5034,-58.0444,128.052,0.277832,-0.602112,-0.256531,-0.703094,13764,15129,-23066,-8985,-28663
20306,-2.05762,4.21572,0.617285,9.34387,-83.5181,-145.97,-90.332,-224.487,36.6211,0.273651,-0.608429,-0.253876,-0.700256,10692,9753,-27930,-8985,-28663
20312,-16.839,3.14863,-1.36855,5.77881,-84.2212,-141.987,87.2192,-127.441,102.905,0.269409,-0.616943,-0.252319,-0.695007,6852,3865,32230,-8985,-28663
20318,7.49834,5.29238,-5.3498,1.31836,-84.3915,-136.967,101.379,-26.062,101.257,0.273224,-0.621002,-0.253448,-0.689453,4292,-488,30694,-8985,-28663
20324,17.5232,-6.22549,-8.0917,-0.203247,-84.3585,-135.472,6.34766,8.66699,29.6631,0.27887,-0.621674,-0.254242,-0.68631,1732,-2536,32742,-8985,-28663
20330,13.4941,-2.35908,1.5791,0.148315,-84.3146,-136.176,-40.2832,11.1084,-13.0005,0.277405,-0.622314,-0.251343,-0.687378,-829,-3560,-23834,-8985,-28663
20336,10.5991,0.703418,1.23457,4.61426,-84.353,-141.174,-15.3198,-5.92041,-52.7344,0.274445,-0.62265,-0.250854,-0.688446,-1085,-2792,-21018,-8985,-28663
20342,9.02002,0.837402,1.54082,6.88843,-84.3915,-143.619,-6.40869,-10.437,-46.3867,0.271576,-0.622803,-0.251099,-0.689331,-829,-2536,-19738,-8985,-28663
20348,7.74238,0.741699,1.04316,8.78357,-84.4409,-145.646,-1.77002,-13.5498,-37.3535,0.269165,-0.623016,-0.251556,-0.689911,-317,-2280,-18458,-8985,-28663
20354,9.30234,0.827832,0.382812,10.1953,-84.4849,-147.173,0.366211,-11.8408,-27.2827,0.267181,-0.623383,-0.252014,-0.690216,-317,-2024,-16666,-8985,-28663
20360,9.12529,0.512012,1.30156,11.1401,-84.5233,-148.228,-1.0376,-9.21631,-18.1885,0.264374,-0.624084,-0.252289,-0.690552,-2365,-2792,-10522,-8985,-28663
20366,10.4269,0.31582,0.440234,12.7332,-84.6387,-149.969,6.5918,-12.6343,-13.2446,0.263336,-0.624603,-0.252319,-0.690491,-3645,-4072,-7706,-8985,-28663
20372,9.46025,0.129199,0.430664,13.5461,-84.6716,-150.826,7.93457,-8.17871,-13.9771,0.262482,-0.625,-0.252533,-0.690369,-5437,-5608,-5146,-8985,-28663
20378,10.2546,0.244043,-0.0143555,14.3207,-84.6826,-151.672,4.76074,-4.21143,-14.4653,0.261688,-0.625244,-0.252747,-0.690338,-6717,-6888,-2842,-8985,-28663
20384,9.17314,0.512012,0.13877,14.87,-84.6716,-152.298,0.183105,0.793457,-11.7188,0.260834,-0.625397,-0.252838,-0.690491,-7997,-8424,-538,-8985,-28663
20390,9.40283,0.756055,0.708203,15.0513,-84.6606,-152.556,-0.549316,2.68555,-5.12695,0.259491,-0.62558,-0.252411,-0.69101,-10557,-12008,5095,-8985,-28663
20396,9.55117,0.607715,0.856543,14.5129,-84.6661,-152.111,0.793457,1.52588,7.20215,0.259247,-0.625671,-0.252014,-0.691162,-11069,-14056,7143,-8985,-28663
20402,9.66602,0.411523,0.794336,13.9087,-84.6881,-151.534,1.34277,-0.549316,11.4746,0.259247,-0.625824,-0.251587,-0.691162,-11581,-16872,8935,-8985,-28663
20408,9.8957,0.325391,0.545508,13.2275,-84.7156,-150.87,1.09863,-0.549316,13.0005,0.25943,-0.626099,-0.251129,-0.69104,-12349,-19176,9703,-8985,-28663
20414,9.71387,0.143555,0.684277,12.5684,-84.743,-150.222,1.40381,-0.976562,12.6953,0.259674,-0.626343,-0.250671,-0.690887,-12861,-20968,9447,-8985,-28663
20420,9.90049,0.153125,0.626855,11.9696,-84.7705,-149.628,1.77002,-1.89209,11.6577,0.260223,-0.626831,-0.249908,-0.690491,-15165,-24040,9447,-8985,-28663
20426,10.068,0.133984,0.512012,10.7721,-84.8309,-148.431,2.13623,-1.95312,11.5356,0.260529,-0.627075,-0.249634,-0.690247,-15677,-24808,8423,-8985,-28663
20432,9.84785,0.0287109,0.598145,10.1733,-84.8529,-147.832,1.64795,-1.52588,11.3525,0.260834,-0.627319,-0.249329,-0.690033,-16189,-25576,7911,-8985,-28663
20438,9.8335,-0.0239258,0.497656,9.646,-84.8749,-147.305,0.305176,-1.28174,9.82666,0.261169,-0.627533,-0.249054,-0.689819,-17213,-25320,6119,-8985,-28663
20444,9.46025,-0.0478516,0.545508,9.14062,-84.8859,-146.81,-0.915527,0,9.0332,0.261414,-0.627716,-0.248779,-0.689636,-17981,-24808,4839,-8985,-28663
20450,9.9627,0.114844,0.6125,8.75061,-84.9023,-146.431,-1.83105,0.0610352,6.83594,0.261719,-0.628052,-0.248199,-0.689453,-19005,-22760,3559,-8985,-28663
20456,9.64209,0.0957031,0.77041,7.99255,-84.9298,-145.706,-3.17383,-1.2207,6.71387,0.26178,-0.628204,-0.247925,-0.689392,-18749,-22248,4583,-8985,-28663
20462,9.90049,0.15791,0.626855,7.64099,-84.9463,-145.371,-3.17383,-1.77002,6.22559,0.261871,-0.628387,-0.24765,-0.689301,-17981,-21736,5863,-8985,-28663
20468,9.73301,0.153125,0.693848,7.26746,-84.9683,-145.009,-2.99072,-2.68555,6.83594,0.261963,-0.628571,-0.247406,-0.689178,-17213,-21736,8423,-8985,-28663
20474,9.97227,0.0287109,0.655566,6.9104,-84.9957,-144.657,-2.2583,-2.92969,6.53076,0.262054,-0.628784,-0.247192,-0.688995,-16957,-21480,11751,-8985,-28663
20480,9.99619,0.0334961,0.593359,6.58081,-85.0177,-144.333,-1.58691,-3.35693,5.67627,0.262299,-0.629211,-0.246857,-0.68866,-16189,-20456,16359,-8985,-28663
20486,9.61338,0.0382813,0.703418,5.99304,-85.0671,-143.745,-1.52588,-3.23486,5.18799,0.26239,-0.629395,-0.246735,-0.688477,-15421,-19432,16359,-8985,-28663
20492,9.87178,0.0382813,0.626855,5.7019,-85.0946,-143.448,-0.854492,-3.72314,5.43213,0.262512,-0.629578,-0.246643,-0.688293,-14653,-18408,17127,-8985,-28663
20498,9.50332,0.119629,0.756055,5.3833,-85.1221,-143.119,-0.12207,-4.27246,5.98145,0.262634,-0.629791,-0.246552,-0.68811,-13373,-17384,19175,-8985,-28663
20504,9.86699,0.0478516,0.641211,5.03723,-85.155,-142.762,0.488281,-4.82178,6.46973,0.262817,-0.630005,-0.24649,-0.687866,-12349,-16872,22247,-8985,-28663
20510,9.68037,-0.0239258,0.803906,4.66919,-85.188,-142.377,1.77002,-6.28662,6.53076,0.263245,-0.630432,-0.246399,-0.687347,-11325,-15336,28903,-8985,-28663
20516,9.76172,-0.0430664,0.564648,4.0155,-85.2649,-141.68,2.80762,-6.83594,5.98145,0.263489,-0.630676,-0.246429,-0.687012,-11069,-14568,30695,-8985,-28663
20522,9.79521,-0.13877,0.564648,3.76282,-85.3033,-141.405,3.11279,-6.46973,4.88281,0.263702,-0.63089,-0.24649,-0.686707,-10301,-13032,30695,-8985,-28663
20528,9.88613,-0.0861328,0.492871,3.62549,-85.3363,-141.24,3.35693,-5.98145,2.99072,0.263916,-0.631104,-0.246582,-0.686371,-9277,-11496,30439,-8985,-28663
20534,9.85742,-0.0717773,0.406738,3.60901,-85.3638,-141.207,2.80762,-4.76074,0.793457,0.264069,-0.631287,-0.246704,-0.686096,-8765,-9448,30439,-8985,-28663
20540,9.88135,-0.13877,0.44502,3.66943,-85.3857,-141.251,1.09863,-1.83105,-2.0752,0.26416,-0.6315,-0.247009,-0.68576,-6717,-7144,27623,-8985,-28663
20546,9.92441,-0.153125,0.373242,4.09241,-85.4022,-141.669,-0.244141,-0.976562,-4.57764,0.26413,-0.631531,-0.247131,-0.685699,-5949,-6376,27879,-8985,-28663
20552,9.84307,-0.090918,0.497656,4.44397,-85.4077,-142.037,-1.09863,0.12207,-5.92041,0.263947,-0.631561,-0.247253,-0.68573,-5437,-6632,27367,-8985,-28663
20558,9.77129,-0.00478516,0.512012,4.83948,-85.4022,-142.449,-1.40381,0.732422,-6.71387,0.263702,-0.631561,-0.247375,-0.685791,-4669,-6120,27111,-8985,-28663
20564,9.68994,0.0574219,0.545508,5.24597,-85.4022,-142.872,-1.15967,0.976562,-6.89697,0.263428,-0.6315,-0.247467,-0.685883,-4413,-5864,27879,-8985,-28663
20570,9.67559,0.172266,0.727344,5.59753,-85.3967,-143.24,-0.732422,-0.183105,-4.63867,0.262878,-0.631439,-0.24762,-0.686127,-4925,-5608,27879,-8985,-28663
20576,9.74736,0.13877,0.669922,6.06445,-85.4077,-143.729,-0.183105,-1.70898,-3.05176,0.262665,-0.631439,-0.247711,-0.686157,-5181,-5864,29415,-8985,-28663
20582,9.72822,0.129199,0.679492,6.1908,-85.4297,-143.855,0.0610352,-2.92969,-1.77002,0.262512,-0.6315,-0.247772,-0.686157,-5949,-6376,30951,-8985,-28663
20588,9.81914,0.0813477,0.631641,6.27869,-85.4517,-143.954,0.488281,-3.84521,-1.09863,0.26239,-0.631592,-0.247803,-0.686066,-6973,-6888,-32281,-8985,-28663
20594,9.68994,0.0334961,0.641211,6.39954,-85.4791,-144.075,0.732422,-5.00488,-1.40381,0.262268,-0.631744,-0.247864,-0.685974,-7229,-7400,-29721,-8985,-28663
20600,9.7665,0.062207,0.60293,6.47644,-85.5066,-144.152,0.549316,-5.85938,-0.305176,0.262085,-0.63208,-0.248016,-0.685669,-7485,-7656,-28441,-8985,-28663
20606,9.78086,0,0.488086,6.61377,-85.5725,-144.3,0.488281,-6.34766,-0.610352,0.261993,-0.632294,-0.248077,-0.685516,-7485,-7144,-27673,-8985,-28663
20612,9.82393,-0.0287109,0.382812,6.76758,-85.6,-144.459,0.488281,-5.12695,-1.89209,0.261871,-0.632507,-0.248169,-0.685333,-7741,-6888,-26905,-8985,-28663
20618,9.81914,-0.0191406,0.435449,6.9873,-85.6219,-144.684,0.183105,-3.78418,-3.05176,0.261719,-0.63266,-0.24826,-0.685211,-8509,-7400,-25369,-8985,-28663
20624,9.79043,-0.0143555,0.430664,7.26196,-85.6384,-144.97,0.244141,-2.68555,-4.02832,0.261536,-0.632782,-0.248322,-0.68512,-9021,-7912,-22041,-8985,-28663
20630,9.81914,0.0430664,0.488086,7.56958,-85.6439,-145.289,0.610352,-0.244141,-4.88281,0.261108,-0.632904,-0.248505,-0.68512,-9533,-8168,-20249,-8985,-28663
20636,9.82871,0.090918,0.459375,8.21777,-85.6439,-145.953,1.09863,0.671387,-5.31006,0.260895,-0.632904,-0.248596,-0.685181,-10301,-8424,-19737,-8985,-28663
20642,9.76172,0.114844,0.516797,8.53638,-85.6329,-146.283,1.46484,1.28174,-5.18799,0.260712,-0.632843,-0.248688,-0.685242,-10813,-8936,-19993,-8985,-28663
20648,9.74258,0.186621,0.459375,8.81104,-85.6274,-146.563,1.2207,1.95312,-4.57764,0.260529,-0.632812,-0.24881,-0.685333,-11325,-10216,-19993,-8985,-28663
20654,-51.9142,0.540723,-2.0959,13.4473,-85.3802,-151.122,20.9961,34.668,-79.5898,0.260376,-0.632721,-0.248871,-0.685425,-11581,-12008,-21529,-8985,-28663
20660,46.55,38.7167,13.8578,16.095,-81.568,-153.408,-66.3452,289.185,308.655,0.24942,-0.610046,-0.264374,-0.70401,-12605,-14312,-22041,-8985,-28663
20666,24.0119,-17.9826,29.3809,10.2063,-82.1503,-147.629,-39.0625,-75.1343,183.167,0.261383,-0.605042,-0.251892,-0.708527,-15165,-17896,-25369,-8985,-28663
20672,29.0794,-10.3503,10.5034,7.60254,-83.2269,-145.514,-104.98,-205.627,83.7402,0.265411,-0.609802,-0.246796,-0.704773,-18237,-22760,-31001,-8985,-28663
20678,-8.28311,0.77041,0.870898,6.89941,-84.5288,-144.937,-32.8369,-258.057,41.8701,0.263153,-0.618164,-0.243744,-0.699371,-20541,-26856,27623,-8985,-28663
20684,-12.1447,5.45029,-1.97627,4.85046,-85.2594,-142.284,107.849,-142.334,59.082,0.261078,-0.62674,-0.244659,-0.692169,-23357,-32488,15591,-8985,-28663
20690,15.3843,-4.32578,-10.1541,-4.65271,-85.1605,-131.99,4.15039,18.7378,63.5986,0.271606,-0.629761,-0.249268,-0.683655,-23101,-31976,14823,-8985,-28663
20696,9.48418,-4.59375,-0.100488,-5.77332,-85.0177,-131.16,-63.9038,27.5879,15.0146,0.27417,-0.62973,-0.247711,-0.683228,-22589,-30184,16871,-8985,-28663
20702,12.4366,-4.11045,3.34004,-3.60352,-85.0232,-133.478,-29.7241,2.38037,-42.1143,0.273315,-0.629822,-0.245148,-0.684387,-21309,-28392,19687,-8985,-28663
20708,11.9103,0.229688,0.966602,-0.302124,-85.1056,-136.879,-17.2729,-14.0381,-60.9131,0.271362,-0.629669,-0.245392,-0.685242,-20029,-26088,21735,-8985,-28663
20714,8.4793,0.689063,1.27285,2.91687,-85.2045,-140.136,-6.53076,-20.0806,-56.5796,0.269012,-0.629669,-0.246674,-0.685699,-16957,-21480,22759,-8985,-28663
20720,9.26885,0.162695,-0.334961,9.09119,-85.3583,-146.354,-5.00488,-18.3716,-49.0112,0.265228,-0.629852,-0.249939,-0.685822,-15677,-20456,23527,-8985,-28663
20726,10.3886,-0.593359,0.387598,12.2388,-85.3693,-149.579,-11.4136,-12.3901,-52.7344,0.263489,-0.629944,-0.251312,-0.685883,-15933,-18920,24807,-8985,-28663
20732,8.88603,-2.13418,0.952246,16.7926,-85.3583,-154.226,-10.9253,-15.8081,-75.6836,0.261475,-0.629913,-0.252472,-0.686279,-16189,-18664,27879,-8985,-28663
20738,9.66602,-2.68447,0.0526367,23.4723,-85.2374,-161.038,-11.6577,-16.4795,-115.295,0.258667,-0.629761,-0.254181,-0.686859,-17213,-18920,32487,-8985,-28663
20744,15.4321,0.382812,-2.12461,29.8993,-84.9408,-167.651,-16.5405,2.74658,-130.127,0.254486,-0.629242,-0.256805,-0.687897,-21053,-21992,-24857,-8985,-28663
20750,10.2211,2.38301,1.50732,36.8701,-84.4904,-175.029,-24.6582,-5.67627,-66.4673,0.245789,-0.627197,-0.260742,-0.691467,-23869,-25576,-20505,-8985,-28663
20756,5.6082,0.440234,1.75615,39.0839,-84.353,-177.336,-5.79834,-5.7373,-54.3823,0.242828,-0.627014,-0.261505,-0.692352,-27453,-30696,-17177,-8985,-28663
20762,6.49346,0.325391,0.531152,40.8966,-84.1388,-179.11,20.5078,10.0708,-56.7627,0.240753,-0.62677,-0.262512,-0.692932,-32061,29464,-15129,-8985,-28663
20768,8.26396,1.24414,-0.655566,42.3248,-83.9355,179.451,10.7422,11.4136,-51.5747,0.239471,-0.625763,-0.264191,-0.693665,27843,23576,-13081,-8985,-28663
20774,9.65166,0.90918,-0.665137,43.3026,-83.7488,178.391,-3.2959,13.1836,-44.3726,0.238098,-0.624878,-0.265411,-0.694458,15299,11544,-11801,-8985,-28663
20780,8.81904,0.947461,0.823047,43.9398,-83.4631,177.534,-10.8032,14.7095,-22.3999,0.235107,-0.623566,-0.266052,-0.696411,8899,5144,-11545,-8985,-28663
20786,9.03438,1.39248,0.827832,43.7421,-83.3917,177.649,-9.58252,12.8784,-9.8877,0.2341,-0.623138,-0.265869,-0.697205,2755,-1513,-11033,-8985,-28663
20792,9.24492,1.50254,0.923535,43.2532,-83.3752,178.105,-5.85938,11.0474,2.50244,0.233582,-0.622864,-0.265442,-0.697784,-3390,-7913,-10521,-8985,-28663
20798,9.39805,1.66523,0.756055,42.5281,-83.3972,178.83,-2.80762,8.42285,13.3057,0.233612,-0.622681,-0.264954,-0.69812,-8510,-14313,-10777,-8985,-28663
20804,9.47461,1.77529,0.846973,41.5833,-83.4576,179.802,-1.0376,6.04248,22.7051,0.234131,-0.62262,-0.264435,-0.698181,-16702,-25577,-8985,-8985,-28663
20810,9.38848,1.72744,0.650781,39.4684,-83.6554,-177.946,-1.28174,0.488281,30.0903,0.236359,-0.622864,-0.263275,-0.697662,-20542,-29929,-8217,-8985,-28663
20816,9.50811,1.74658,0.526367,38.4467,-83.7598,-176.83,-0.366211,-1.64795,30.2734,0.237701,-0.623077,-0.262787,-0.697205,-23870,32279,-8217,-8985,-28663
20822,9.86699,1.56475,0.502441,37.4304,-83.8751,-175.71,-0.915527,-3.41797,30.9448,0.239136,-0.623322,-0.262451,-0.696625,-26430,29975,-8985,-8985,-28663
20828,9.32148,1.1915,0.846973,36.2878,-84.007,-174.457,-1.40381,-6.40869,35.4004,0.240631,-0.623596,-0.262177,-0.695984,-27966,28183,-10009,-8985,-28663
20834,9.56553,1.10059,0.703418,35.0024,-84.1663,-173.057,-0.732422,-9.21631,39.7339,0.242279,-0.623962,-0.261841,-0.69519,-29758,26391,-11033,-8985,-28663
20840,9.58467,0.856543,0.583789,31.8054,-84.5123,-169.585,0.305176,-11.9629,48.0347,0.246002,-0.625,-0.261108,-0.693207,-30782,26135,-10265,-8985,-28663
20846,9.59902,0.77998,0.44502,29.8444,-84.7046,-167.476,-0.244141,-13.3057,51.8799,0.248108,-0.625641,-0.260651,-0.692078,-31294,26135,-9497,-8985,-28663
20852,9.82393,0.521582,0.421094,27.6306,-84.8914,-165.114,-0.976562,-13.1226,54.0771,0.250305,-0.626312,-0.260162,-0.690857,-31038,26647,-8473,-8985,-28663
20858,9.72344,0.358887,0.555078,25.2631,-85.0671,-162.598,-0.12207,-13.2446,53.894,0.252594,-0.627014,-0.259583,-0.689606,-30270,28183,-6681,-8985,-28663
20864,9.86221,0.267969,0.449805,22.8131,-85.2319,-159.983,0.732422,-13.0005,52.4292,0.254913,-0.627686,-0.259094,-0.688324,-26942,-32489,-3865,-8985,-28663
20870,9.95312,0.105273,0.492871,17.644,-85.5231,-154.479,1.2207,-13.0005,49.6826,0.259521,-0.628906,-0.258301,-0.685791,-24382,-29417,-2585,-8985,-28663
20876,10.2163,0.119629,0.363672,14.9963,-85.6494,-151.655,2.13623,-12.3291,47.5464,0.26178,-0.629486,-0.257996,-0.684509,-22078,-25833,-1817,-8985,-28663
20882,9.81436,-0.0382813,0.430664,12.3816,-85.7593,-148.859,3.05176,-11.5356,44.6777,0.264008,-0.629974,-0.257782,-0.683258,-19518,-21737,-1561,-8985,-28663
20888,10.0105,-0.0382813,0.344531,9.84375,-85.8472,-146.135,4.45557,-10.437,41.5649,0.266205,-0.630432,-0.25769,-0.682037,-15678,-17385,-25,-8985,-28663
20894,9.97227,-0.133984,0.320605,7.42676,-85.9186,-143.525,5.00488,-9.27734,38.208,0.268372,-0.630768,-0.257721,-0.680878,-7230,-7913,2792,-8985,-28663
20900,10.0105,-0.15791,0.172266,3.19153,-86.0175,-138.906,4.63867,-6.22559,30.2124,0.2724,-0.631226,-0.258057,-0.678711,-2622,-3305,3816,-8985,-28663
20906,9.8957,-0.215332,0.239258,1.40076,-86.0504,-136.934,4.3335,-4.76074,26.5503,0.274292,-0.631317,-0.258362,-0.677734,1731,536,4328,-8985,-28663
20912,9.94834,-0.248828,0.224902,-0.0878906,-86.0669,-135.247,5.12695,-2.86865,22.2778,0.276062,-0.631317,-0.258728,-0.67688,5827,4632,4328,-8985,-28663
20918,10.0393,-0.267969,0.239258,-1.24146,-86.0669,-133.901,6.10352,-0.610352,17.5171,0.27774,-0.631226,-0.259216,-0.676086,10435,9240,5352,-8985,-28663
20924,9.94834,-0.334961,0.277539,-2.06543,-86.0614,-132.885,6.83594,1.09863,13.0005,0.280792,-0.630676,-0.260559,-0.674835,18883,19224,7400,-8985,-28663
20930,9.96748,-0.334961,0.239258,-2.77954,-86.0449,-131.819,3.78418,1.70898,4.39453,0.282074,-0.63028,-0.261383,-0.674347,23235,23320,8168,-8985,-28663
20936,10.044,-0.344531,0.229688,-2.71362,-86.0339,-131.737,1.2207,2.2583,0.244141,0.283142,-0.629913,-0.262177,-0.67392,27075,26904,7912,-8985,-28663
20942,9.86699,-0.339746,0.263184,-2.38953,-86.0229,-131.935,0.12207,2.92969,-3.54004,0.283997,-0.629517,-0.26297,-0.673645,30147,31000,7144,-8985,-28663
20948,9.83828,-0.239258,0.272754,-1.80725,-86.012,-132.396,-0.488281,3.60107,-7.20215,0.284668,-0.629089,-0.263794,-0.673431,-31805,-31464,6376,-8985,-28663
20954,9.86699,-0.162695,0.339746,-1.06018,-85.9955,-133.033,-0.732422,4.3335,-9.64355,0.285583,-0.628143,-0.265472,-0.673248,-25917,-25320,5096,-8985,-28663
20960,9.8335,-0.0382813,0.416309,0.609741,-85.9625,-134.5,-0.183105,4.21143,-11.3525,0.285919,-0.627655,-0.266357,-0.673218,-23869,-22760,5352,-8985,-28663
20966,9.90049,-0.00478516,0.411523,1.53259,-85.9406,-135.335,-0.244141,4.21143,-12.6343,0.286194,-0.627197,-0.267181,-0.673218,-22845,-20712,5608,-8985,-28663
20972,9.8,0.0430664,0.435449,2.46094,-85.9241,-136.176,-0.12207,4.02832,-12.8784,0.286407,-0.626709,-0.268036,-0.673218,-22333,-19176,5352,-8985,-28663
20978,9.75215,0.0526367,0.354102,3.3728,-85.9076,-136.994,0,3.90625,-12.6953,0.286591,-0.626251,-0.26886,-0.673248,-21821,-17128,4328,-8985,-28663
20984,9.88613,0.0717773,0.373242,4.26819,-85.8856,-137.812,-0.0610352,4.15039,-12.7563,0.286896,-0.625366,-0.270447,-0.673309,-21309,-15080,5096,-8985,-28663
20990,9.68516,0.172266,0.387598,6.00952,-85.8362,-139.411,-1.0376,4.94385,-12.2681,0.287018,-0.624908,-0.271179,-0.673401,-21565,-14312,5096,-8985,-28663
20996,9.72822,0.224902,0.397168,6.70715,-85.8087,-140.037,-1.0376,5.49316,-10.498,0.287109,-0.624481,-0.271881,-0.673462,-21565,-14312,5864,-8985,-28663
21002,9.63731,0.272754,0.46416,7.30042,-85.7812,-140.554,-0.793457,5.49316,-9.0332,0.287262,-0.624054,-0.272491,-0.673553,-21565,-14568,5352,-8985,-28663
21008,9.67559,0.301465,0.430664,7.75635,-85.7593,-140.938,-0.915527,5.18799,-7.14111,0.287476,-0.623627,-0.273102,-0.673615,-21565,-14568,4584,-8985,-28663
21014,9.66123,0.320605,0.507227,8.04749,-85.7318,-141.152,-0.671387,5.06592,-4.63867,0.288116,-0.622864,-0.274139,-0.673615,-21053,-14824,1768,-8985,-28663
21020,9.75215,0.330176,0.483301,8.1189,-85.6989,-141.053,0.366211,4.08936,0.732422,0.288574,-0.622528,-0.274628,-0.673523,-21053,-15080,1000,-8985,-28663
21026,9.6708,0.272754,0.478516,7.93762,-85.6824,-140.779,0.671387,3.96729,2.80762,0.289154,-0.622253,-0.275055,-0.67337,-21053,-15336,-281,-8985,-28663
21032,9.75215,0.272754,0.44502,7.67944,-85.6714,-140.416,1.09863,3.72314,4.21143,0.289795,-0.621948,-0.275452,-0.673187,-21309,-15848,-281,-8985,-28663
21038,9.74736,0.234473,0.45459,7.30042,-85.6659,-139.944,1.15967,3.72314,5.98145,0.290527,-0.621674,-0.275879,-0.672974,-22077,-16872,1000,-8985,-28663
21044,9.68037,0.215332,0.488086,6.87744,-85.6549,-139.411,1.46484,3.60107,6.83594,0.292145,-0.621155,-0.276611,-0.672455,-22589,-19176,2280,-8985,-28663
21050,9.83828,0.0430664,0.512012,5.92712,-85.6384,-138.241,1.83105,2.92969,7.56836,0.29303,-0.620911,-0.276978,-0.67215,-22333,-19944,1768,-8985,-28663
21056,9.8957,0.0287109,0.492871,5.53162,-85.6384,-137.73,1.95312,2.38037,6.71387,0.293884,-0.620667,-0.277374,-0.671814,-21309,-19944,2280,-8985,-28663
21062,9.84307,0,0.435449,5.18555,-85.6329,-137.28,1.58691,1.64795,5.85938,0.294739,-0.620453,-0.277771,-0.671509,-20541,-19688,1512,-8985,-28663
21068,9.8957,-0.0478516,0.449805,4.95483,-85.6329,-136.945,1.28174,1.77002,4.15039,0.295502,-0.620209,-0.278198,-0.671173,-19517,-18920,1000,-8985,-28663
21074,9.87178,-0.0239258,0.449805,4.80103,-85.6329,-136.692,1.0376,1.58691,2.86865,0.296875,-0.619751,-0.279114,-0.670624,-18493,-17640,-1049,-8985,-28663
21080,9.86221,-0.0239258,0.492871,4.79004,-85.6274,-136.494,0.366211,1.0376,-0.366211,0.297455,-0.619537,-0.279602,-0.67038,-18493,-17128,-2841,-8985,-28663
21086,9.81914,0,0.507227,4.88892,-85.6329,-136.505,0.244141,0.305176,-1.0376,0.297974,-0.619293,-0.280121,-0.670166,-18493,-16104,-4633,-8985,-28663
21092,9.85742,0.0287109,0.502441,5.07568,-85.6329,-136.609,0.244141,-0.183105,-2.38037,0.298431,-0.61908,-0.280609,-0.669922,-18749,-15080,-5657,-8985,-28663
21098,9.78086,0.0765625,0.531152,5.28442,-85.6439,-136.736,0.183105,-0.915527,-2.62451,0.298828,-0.618866,-0.281158,-0.669708,-18493,-13800,-6681,-8985,-28663
21104,9.69473,0.129199,0.478516,5.49866,-85.6549,-136.868,0.366211,-1.46484,-2.68555,0.299561,-0.61853,-0.282257,-0.66925,-18493,-11752,-8729,-8985,-28663
21110,9.77607,0.114844,0.531152,5.85022,-85.6769,-137.065,0.427246,-1.77002,-2.19727,0.299927,-0.618378,-0.282806,-0.669006,-19005,-11240,-9753,-8985,-28663
21116,9.80957,0.114844,0.440234,6.00403,-85.6879,-137.137,0.366211,-1.83105,-1.64795,0.300293,-0.618225,-0.283325,-0.668762,-20285,-10728,-11033,-8985,-28663
21122,9.77129,0.090918,0.478516,6.15784,-85.7043,-137.214,0.366211,-1.89209,-1.70898,0.300659,-0.618073,-0.283844,-0.668488,-21309,-10728,-11801,-8985,-28663
21128,9.81436,0.119629,0.406738,6.31714,-85.7153,-137.296,0.366211,-1.64795,-1.83105,0.301025,-0.61795,-0.284363,-0.668243,-22589,-11240,-12313,-8985,-28663
21134,9.75215,0.153125,0.44502,6.45996,-85.7263,-137.362,0.244141,-1.52588,-1.58691,0.301727,-0.617645,-0.28537,-0.667755,-22845,-11752,-12313,-8985,-28663
21140,9.79043,0.133984,0.430664,6.66321,-85.7428,-137.411,-0.12207,-0.793457,-0.671387,0.302124,-0.617493,-0.285858,-0.667511,-22589,-11752,-11801,-8985,-28663
21146,9.75215,0.14834,0.512012,6.73462,-85.7483,-137.406,0,-0.854492,-0.549316,0.30249,-0.61734,-0.286316,-0.667297,-22589,-11752,-11033,-8985,-28663
21152,9.77607,0.14834,0.512012,6.75659,-85.7593,-137.357,-0.0610352,-1.40381,0.183105,0.302887,-0.617188,-0.286774,-0.667053,-22589,-12264,-9497,-8985,-28663
21158,9.74258,0.129199,0.574219,6.75659,-85.7758,-137.274,0.366211,-2.0752,0.732422,0.303314,-0.617065,-0.287201,-0.666779,-23101,-12520,-8729,-8985,-28663
21164,9.76172,0.153125,0.492871,6.71814,-85.7977,-137.159,0.915527,-3.23486,1.40381,0.304199,-0.616882,-0.288116,-0.666168,-23101,-14824,-8985,-8985,-28663
21170,9.69473,0.110059,0.502441,6.51489,-85.8527,-136.791,0.671387,-5.12695,2.92969,0.304657,-0.616852,-0.288574,-0.665802,-22077,-15080,-10777,-8985,-28663
21176,9.82393,0.129199,0.521582,6.36658,-85.8856,-136.56,0.915527,-5.85938,3.2959,0.305115,-0.616852,-0.289001,-0.665405,-20797,-14824,-12313,-8985,-28663
21182,9.77129,0.110059,0.497656,6.19629,-85.9241,-136.307,1.15967,-6.7749,3.66211,0.305573,-0.616882,-0.289459,-0.664948,-19773,-14824,-12057,-8985,-28663
21188,9.7665,0.114844,0.507227,6.00952,-85.968,-136.038,1.0376,-7.50732,3.90625,0.306061,-0.616943,-0.289917,-0.66449,-18749,-14824,-12313,-8985,-28663
21194,9.80957,0.062207,0.47373,5.80627,-86.0175,-135.753,1.0376,-9.21631,3.90625,0.307007,-0.617096,-0.290833,-0.663483,-18493,-15336,-10777,-8985,-28663
21200,9.81914,0.110059,0.483301,5.42725,-86.1163,-135.209,1.15967,-9.46045,4.08936,0.307465,-0.617218,-0.291321,-0.662964,-18493,-14824,-10521,-8985,-28663
21206,9.77129,0.100488,0.449805,5.21301,-86.1713,-134.907,1.34277,-9.8877,4.27246,0.307922,-0.61734,-0.291809,-0.662415,-19005,-14312,-10265,-8985,-28663
21212,9.79521,0.0717773,0.425879,5.03174,-86.2262,-134.643,1.64795,-10.0708,3.78418,0.30838,-0.617493,-0.292297,-0.661865,-19517,-13544,-10265,-8985,-28663
21218,9.7665,0.0861328,0.378027,4.81201,-86.2811,-134.335,1.58691,-10.1929,4.27246,0.308838,-0.617615,-0.292816,-0.661285,-19005,-13288,-10265,-8985,-28663
21224,9.79043,0.0574219,0.349316,4.57031,-86.3361,-134.011,1.70898,-10.2539,4.63867,0.309753,-0.61792,-0.293793,-0.660156,-18493,-12264,-11289,-8985,-28663
21230,9.77129,0.0430664,0.339746,4.06494,-86.4459,-133.336,1.77002,-9.76562,4.21143,0.310242,-0.618042,-0.294281,-0.659576,-18237,-12264,-11033,-8985,-28663
21236,9.80479,0.0239258,0.291895,3.78479,-86.4954,-132.968,1.52588,-9.0332,4.5166,0.310699,-0.618164,-0.294769,-0.659027,-17981,-12264,-9497,-8985,-28663
21242,9.7665,0.00957031,0.277539,3.51562,-86.5393,-132.621,1.58691,-8.11768,4.21143,0.311188,-0.618286,-0.295258,-0.658478,-17469,-12520,-8217,-8985,-28663
21248,9.81436,-0.0239258,0.277539,3.27942,-86.5778,-132.297,1.15967,-7.50732,3.72314,0.311676,-0.618378,-0.295715,-0.657959,-16701,-13032,-6937,-8985,-28663
21254,9.8335,-0.00957031,0.29668,3.09814,-86.6162,-132.034,1.28174,-5.92041,2.01416,0.312561,-0.618469,-0.296631,-0.657043,-14909,-15080,-1049,-8985,-28663
21260,9.8335,0,0.282324,2.90039,-86.6766,-131.682,1.09863,-5.37109,1.64795,0.312988,-0.618469,-0.297089,-0.656647,-14141,-15336,1768,-8985,-28663
21266,9.79043,-0.0382813,0.272754,2.88391,-86.7041,-131.594,0.976562,-4.63867,0.732422,0.313385,-0.618439,-0.297546,-0.65625,-13629,-15336,4584,-8985,-28663
21272,9.8335,-0.0287109,0.200977,2.92786,-86.7261,-131.567,0.671387,-3.78418,0,0.313751,-0.618408,-0.298004,-0.655914,-13117,-15080,7400,-8985,-28663
21278,9.79521,-0.0287109,0.220117,3.03772,-86.7426,-131.611,0.366211,-2.99072,-0.854492,0.314087,-0.618347,-0.298462,-0.655579,-12861,-14312,9704,-8985,-28663
21284,9.77607,0.0143555,0.215332,3.18054,-86.7535,-131.693,-0.854492,-1.46484,-1.89209,0.314667,-0.618164,-0.299316,-0.65509,-12093,-13288,12264,-8985,-28663
21290,9.77607,0.0143555,0.239258,3.55957,-86.77,-131.957,-1.15967,-0.488281,-1.95312,0.314911,-0.618042,-0.299713,-0.654907,-11581,-12520,13288,-8985,-28663
21296,9.81436,0.0239258,0.248828,3.7738,-86.77,-132.116,-0.915527,0.244141,-2.2583,0.315155,-0.617889,-0.300079,-0.654755,-10557,-12264,14056,-8985,-28663
21302,9.81436,0.0191406,0.229688,4.00452,-86.77,-132.297,-1.0376,0.915527,-2.56348,0.315399,-0.617737,-0.300446,-0.654633,-9533,-11752,14312,-8985,-28663
21308,9.81914,0.0526367,0.229688,4.24622,-86.7645,-132.484,-1.28174,1.64795,-2.68555,0.315643,-0.617554,-0.300812,-0.65451,-9021,-11240,15080,-8985,-28663
21314,9.7665,0.0669922,0.200977,4.45496,-86.7535,-132.638,-1.09863,3.96729,-2.50244,0.316101,-0.617126,-0.301453,-0.654388,-7741,-10984,18152,-8985,-28663
21320,9.8,0.0813477,0.210547,4.82849,-86.7096,-132.913,-0.793457,5.37109,-2.2583,0.316376,-0.616852,-0.301758,-0.654388,-7229,-10984,19176,-8985,-28663
21326,9.77607,0.129199,0.301465,4.96582,-86.6821,-132.995,-0.488281,6.16455,-1.89209,0.316681,-0.616547,-0.302063,-0.654388,-6973,-11496,19432,-8985,-28663
21332,9.75215,0.114844,0.29668,5.03174,-86.6547,-133,-0.305176,6.5918,-1.09863,0.317017,-0.616241,-0.302338,-0.654388,-6717,-12520,18920,-8985,-28663
21338,9.81914,0.0478516,0.287109,5.09216,-86.6217,-132.995,0.0610352,7.01904,-1.0376,0.317383,-0.615906,-0.302612,-0.654419,-7485,-12776,17384,-8985,-28663
21344,9.81436,0.00957031,0.30625,5.15808,-86.5942,-133.006,-0.549316,7.38525,-2.19727,0.318146,-0.615204,-0.303162,-0.654449,-8765,-13288,16616,-8985,-28663
21350,9.81914,0.0526367,0.344531,5.43823,-86.5228,-133.182,-0.854492,7.62939,-2.19727,0.318481,-0.614838,-0.303406,-0.65451,-9277,-13544,16872,-8985,-28663
21356,9.73301,0.119629,0.363672,5.5481,-86.4899,-133.237,-0.793457,7.50732,-1.83105,0.318817,-0.614471,-0.30368,-0.654572,-9277,-13288,16872,-8985,-28663
21362,9.75215,0.14834,0.44502,5.60852,-86.4624,-133.242,-0.671387,6.95801,-1.2207,0.319153,-0.614105,-0.303925,-0.654633,-9021,-12776,16872,-8985,-28663
21368,9.74736,0.143555,0.483301,5.58655,-86.4349,-133.16,-0.610352,6.10352,-0.0610352,0.319519,-0.61377,-0.304169,-0.654633,-7485,-12008,17128,-8985,-28663
21374,9.80957,0.0382813,0.483301,5.46021,-86.3965,-132.907,0.976562,4.08936,0.671387,0.320312,-0.61319,-0.304657,-0.654572,-6205,-12008,16616,-8985,-28663
21380,9.80479,0.0382813,0.449805,5.46021,-86.3855,-132.841,1.28174,3.78418,0,0.32074,-0.612946,-0.304962,-0.654449,-5949,-11496,16360,-8985,-28663
21386,9.77607,0.0430664,0.425879,5.48767,-86.369,-132.803,1.52588,3.41797,-0.366211,0.321167,-0.612671,-0.305298,-0.654358,-5949,-11240,16616,-8985,-28663
21392,9.78086,0.0382813,0.363672,5.52063,-86.358,-132.775,1.09863,3.41797,-0.427246,0.321564,-0.612427,-0.305634,-0.654236,-6717,-11240,16360,-8985,-28663
21398,9.81436,0.0334961,0.363672,5.58655,-86.347,-132.775,1.0376,3.2959,-0.854492,0.32193,-0.612152,-0.305939,-0.654144,-8509,-10728,16104,-8985,-28663
21404,9.84785,0.00478516,0.488086,5.80078,-86.3251,-132.874,1.09863,2.44141,-1.89209,0.322632,-0.611664,-0.30658,-0.653931,-9021,-10984,15592,-8985,-28663
21410,9.85742,0.0430664,0.478516,6.02051,-86.3196,-133.033,1.77002,1.58691,-2.68555,0.322937,-0.61145,-0.306946,-0.653839,-9277,-10728,14568,-8985,-28663
21416,9.79521,0.100488,0.468945,6.22375,-86.3196,-133.176,2.01416,0.915527,-2.44141,0.323181,-0.611237,-0.307312,-0.653748,-9789,-9448,13800,-8985,-28663
21422,9.98184,0.0191406,0.339746,6.50391,-86.3196,-133.401,1.70898,0.549316,-3.41797,0.323456,-0.611023,-0.307709,-0.653595,-9533,-8424,13032,-8985,-28663
21428,9.61338,0.0287109,0.416309,6.77856,-86.3196,-133.621,1.89209,0.610352,-3.35693,0.323669,-0.61084,-0.308105,-0.653503,-10301,-6632,11496,-8985,-28663
21434,9.80957,-0.0382813,0.368457,7.49268,-86.3086,-134.236,0.610352,1.09863,-5.00488,0.324066,-0.610474,-0.308899,-0.65329,-10557,-6632,11752,-8985,-28663
21440,9.75215,0,0.430664,7.97058,-86.3086,-134.676,0.610352,1.0376,-6.28662,0.324188,-0.61026,-0.309265,-0.653229,-10813,-6888,12264,-8985,-28663
21446,9.89092,0.0717773,0.425879,8.47595,-86.3031,-135.148,0.12207,0.854492,-6.65283,0.324219,-0.610077,-0.309631,-0.653229,-10557,-7656,12776,-8985,-28663
21452,9.77129,0.0813477,0.521582,8.99231,-86.3031,-135.637,-0.366211,0,-6.7749,0.324249,-0.609894,-0.309998,-0.653198,-10301,-7912,13032,-8985,-28663
21458,9.82871,0.13877,0.478516,9.52515,-86.3031,-136.143,-0.366211,-1.09863,-6.7749,0.324219,-0.609741,-0.310364,-0.653198,-9533,-8424,9960,-8985,-28663
21464,9.64688,0.234473,0.555078,10.4041,-86.3306,-136.961,0.183105,-3.479,-4.69971,0.324127,-0.609558,-0.311066,-0.653076,-9533,-8424,8424,-8985,-28663
21470,9.75215,0.239258,0.526367,10.6897,-86.358,-137.208,0.366211,-5.37109,-2.62451,0.324158,-0.609497,-0.311432,-0.652924,-9789,-8936,7400,-8985,-28663
21476,9.88135,0.200977,0.435449,10.9149,-86.391,-137.395,0.366211,-6.10352,-1.58691,0.324188,-0.609558,-0.311798,-0.65271,-10557,-9704,6376,-8985,-28663
21482,9.68994,0.124414,0.421094,11.1072,-86.424,-137.549,0.366211,-6.40869,-1.09863,0.32428,-0.609619,-0.312134,-0.652435,-11581,-10984,4584,-8985,-28663
21488,9.62295,0.129199,0.406738,11.272,-86.4569,-137.675,0.488281,-6.65283,-0.671387,0.324371,-0.609711,-0.312439,-0.652161,-13629,-14056,1768,-8985,-28663
21494,9.86699,0.16748,0.272754,11.4752,-86.5228,-137.796,0.427246,-5.31006,0.244141,0.324585,-0.609894,-0.31308,-0.651581,-14909,-15848,1512,-8985,-28663
21500,9.79521,0.162695,0.291895,11.5247,-86.5448,-137.807,0.366211,-4.3335,0.427246,0.324738,-0.609955,-0.313385,-0.651306,-15933,-17384,2792,-8985,-28663
21506,9.69951,0.15791,0.248828,11.4862,-86.5668,-137.725,0.305176,-3.2959,1.28174,0.324921,-0.609985,-0.31366,-0.651031,-16701,-18664,4072,-8985,-28663
21512,9.73301,0.129199,0.31582,11.4093,-86.5833,-137.604,0.244141,-2.74658,1.70898,0.325165,-0.609985,-0.313934,-0.650787,-17981,-19176,5096,-8985,-28663
21518,9.80479,0.110059,0.29668,11.2994,-86.5997,-137.45,0.366211,-1.95312,1.89209,0.325409,-0.609985,-0.314178,-0.650543,-19773,-19176,6888,-8985,-28663
21524,9.80479,0.0478516,0.224902,11.1127,-86.6107,-137.17,-0.305176,0.244141,1.2207,0.325958,-0.609894,-0.314636,-0.650116,-20541,-19176,6632,-8985,-28663
21530,9.7665,0.0669922,0.301465,11.0468,-86.6107,-137.06,-0.427246,1.09863,0.732422,0.326233,-0.609802,-0.31485,-0.649963,-21565,-19944,6376,-8985,-28663
21536,9.78564,0.0717773,0.320605,11.0028,-86.6052,-136.972,-0.427246,1.95312,0.305176,0.326508,-0.60968,-0.315033,-0.649841,-22333,-20200,5608,-8985,-28663
21542,9.80957,0.124414,0.363672,10.9918,-86.5997,-136.923,-0.793457,2.44141,-0.183105,0.326782,-0.609528,-0.315247,-0.64975,-22845,-20456,4328,-8985,-28663
21548,9.8,0.105273,0.339746,10.9918,-86.5887,-136.873,-0.366211,2.86865,-0.366211,0.327026,-0.609375,-0.31546,-0.649689,-22333,-20200,6376,-8985,-28663
21554,9.78086,0.13877,0.392383,10.9424,-86.5668,-136.736,-0.0610352,2.99072,0,0.327576,-0.608978,-0.315887,-0.649567,-21821,-19432,8168,-8985,-28663
21560,9.80957,0.14834,0.411523,10.8875,-86.5558,-136.631,-0.0610352,2.50244,0.427246,0.327881,-0.608795,-0.316101,-0.649475,-21565,-18408,8936,-8985,-28663
21566,9.79043,0.13877,0.430664,10.7996,-86.5503,-136.494,-0.0610352,2.19727,0.854492,0.328186,-0.608612,-0.316315,-0.649384,-21309,-18152,8936,-8985,-28663
21572,9.7665,0.129199,0.425879,10.7227,-86.5448,-136.368,0.305176,1.89209,0.854492,0.328522,-0.608459,-0.316528,-0.649261,-21565,-17896,8936,-8985,-28663
21578,9.77607,0.110059,0.411523,10.6677,-86.5393,-136.258,0.671387,1.64795,0.671387,0.328857,-0.608276,-0.316772,-0.649139,-21565,-18920,9704,-8985,-28663
21584,9.80957,0.0765625,0.363672,10.5634,-86.5338,-136.044,0.610352,1.28174,0.549316,0.329498,-0.607941,-0.317291,-0.648865,-21565,-19944,10472,-8985,-28663
21590,9.79521,0.0861328,0.387598,10.5414,-86.5338,-135.967,0.915527,1.28174,0.305176,0.329834,-0.607788,-0.317566,-0.648712,-21821,-21224,12264,-8985,-28663
21596,9.80957,0.0765625,0.368457,10.5743,-86.5283,-135.95,0.793457,1.2207,-0.366211,0.330139,-0.607635,-0.317841,-0.64859,-22589,-21736,13032,-8985,-28663
21602,9.80957,0.0669922,0.392383,10.6403,-86.5283,-135.967,0.793457,0.915527,-0.732422,0.330444,-0.607452,-0.318115,-0.648438,-22845,-22248,13800,-8985,-28663
21608,9.8,0.0765625,0.339746,10.7556,-86.5228,-136.027,0.366211,0.915527,-1.34277,0.330719,-0.6073,-0.31842,-0.648315,-23357,-21992,14056,-8985,-28663
21614,9.80957,0.0813477,0.363672,11.0413,-86.5118,-136.225,0,1.52588,-2.13623,0.331177,-0.606964,-0.319,-0.648102,-23101,-21992,12520,-8985,-28663
21620,9.79043,0.110059,0.354102,11.2061,-86.5063,-136.351,-0.305176,1.52588,-2.19727,0.33139,-0.606781,-0.319275,-0.648041,-22589,-22248,11496,-8985,-28663
21626,9.77129,0.100488,0.425879,11.4148,-86.5009,-136.511,-0.305176,1.46484,-2.68555,0.331573,-0.606628,-0.31955,-0.647949,-21821,-22504,10984,-8985,-28663
21632,9.78564,0.16748,0.430664,11.618,-86.4954,-136.675,-0.488281,1.40381,-2.68555,0.331726,-0.606445,-0.319824,-0.647888,-21565,-22504,10984,-8985,-28663
21638,9.79043,0.13877,0.435449,11.7883,-86.4899,-136.807,-0.305176,1.09863,-2.19727,0.331909,-0.606293,-0.320099,-0.647827,-21565,-22248,11752,-8985,-28663
21644,9.75693,0.196191,0.401953,12.0465,-86.4954,-136.978,0.0610352,-0.12207,-0.854492,0.332245,-0.605988,-0.320648,-0.647675,-22333,-21992,11496,-8985,-28663
21650,9.7665,0.186621,0.401953,12.0905,-86.5009,-136.978,0,-0.549316,-0.244141,0.332458,-0.605865,-0.320923,-0.647522,-22589,-22248,11496,-8985,-28663
21656,9.78086,0.177051,0.406738,12.1069,-86.5063,-136.95,0.12207,-0.854492,0.183105,0.332672,-0.605774,-0.321198,-0.647369,-22589,-22504,11496,-8985,-28663
21662,9.58945,0.181836,0.406738,12.074,-86.5173,-136.868,0.488281,-0.976562,0.915527,0.332916,-0.605682,-0.321442,-0.647186,-21821,-22760,10728,-8985,-28663
21668,10.0584,0.191406,0.320605,11.9916,-86.5283,-136.73,0.244141,-0.732422,1.46484,0.333527,-0.60553,-0.32196,-0.64679,-19517,-23016,9192,-8985,-28663
21674,9.64209,0.124414,0.406738,11.7114,-86.5393,-136.346,0.183105,-0.793457,2.44141,0.333832,-0.605438,-0.322205,-0.646576,-18749,-23016,8424,-8985,-28663
21680,9.92441,0.181836,0.31582,11.5192,-86.5503,-136.104,0.244141,-0.427246,2.74658,0.334167,-0.605347,-0.322449,-0.646362,-18749,-23016,8168,-8985,-28663
21686,9.70908,0.186621,0.430664,11.2445,-86.5558,-135.769,0.12207,-0.244141,3.72314,0.334534,-0.605286,-0.322693,-0.646118,-18749,-22504,7912,-8985,-28663
21692,9.75215,0.13877,0.382812,10.9094,-86.5668,-135.379,0.305176,-0.366211,4.5166,0.33493,-0.605194,-0.322906,-0.645905,-18749,-21992,6632,-8985,-28663
21698,9.73301,0.15791,0.378027,10.5304,-86.5778,-134.934,0.671387,-0.305176,5.06592,0.335846,-0.605042,-0.323334,-0.645355,-18237,-20968,6632,-8985,-28663
21704,9.74258,0.0717773,0.406738,9.68994,-86.5887,-133.967,0.549316,0.427246,5.43213,0.336334,-0.60495,-0.323517,-0.645081,-18493,-20200,7144,-8985,-28663
21710,9.77129,0.0765625,0.368457,9.3219,-86.5887,-133.533,0.488281,0.671387,4.76074,0.336853,-0.604828,-0.32373,-0.644806,-18749,-19176,8680,-8985,-28663
21716,9.86221,0.0430664,0.382812,8.98132,-86.5887,-133.132,0.671387,1.34277,4.21143,0.337341,-0.604736,-0.323944,-0.644562,-19261,-18152,10216,-8985,-28663
21722,9.79043,0.0813477,0.406738,8.70117,-86.5887,-132.781,0.671387,1.64795,3.54004,0.337799,-0.604584,-0.324158,-0.644318,-20285,-17640,11752,-8985,-28663
21728,9.86699,0,0.392383,8.46497,-86.5833,-132.484,0.671387,1.95312,2.86865,0.338715,-0.604248,-0.324646,-0.643921,-21565,-16872,12520,-8985,-28663
21734,9.85742,-0.0239258,0.358887,8.3551,-86.5668,-132.253,0.488281,2.68555,-0.12207,0.339111,-0.604034,-0.324921,-0.643768,-22077,-16616,12264,-8985,-28663
21740,9.87178,-0.0239258,0.382812,8.49243,-86.5558,-132.341,0.488281,3.11279,-1.89209,0.339447,-0.603821,-0.325195,-0.643677,-22333,-16360,11752,-8985,-28663
21746,9.85742,0.0287109,0.349316,8.72864,-86.5393,-132.528,0.549316,3.60107,-3.17383,0.339722,-0.603577,-0.3255,-0.643585,-22845,-15592,10472,-8985,-28663
21752,9.49375,0.0143555,0.129199,9.03625,-86.5228,-132.792,-0.427246,3.41797,-4.15039,0.339966,-0.603302,-0.325806,-0.643555,-22589,-15336,9704,-8985,-28663
21758,9.93877,0.119629,0.325391,9.34937,-86.5009,-133.066,-1.46484,4.15039,-4.39453,0.340302,-0.602753,-0.326385,-0.643616,-20541,-14824,6888,-8985,-28663
21764,9.78086,0.0717773,0.406738,10.0031,-86.4569,-133.649,-2.38037,4.27246,-4.82178,0.340424,-0.602478,-0.32666,-0.643677,-19773,-14824,5864,-8985,-28663
21770,9.88135,0.220117,0.425879,10.3326,-86.4404,-133.956,-3.60107,3.78418,-4.88281,0.340515,-0.602234,-0.326904,-0.643738,-19517,-15080,4328,-8985,-28663
21776,9.6708,0.16748,0.44502,10.6403,-86.424,-134.242,-3.84521,3.41797,-4.57764,0.340576,-0.60202,-0.327118,-0.643799,-19517,-15336,3304,-8985,-28663
21782,9.74258,0.200977,0.47373,10.871,-86.4075,-134.445,-3.41797,2.99072,-3.54004,0.340607,-0.601807,-0.327301,-0.64386,-20029,-15848,3304,-8985,-28663
21788,9.73301,0.205762,0.507227,11.0083,-86.3965,-134.55,-2.50244,2.68555,-2.19727,0.340851,-0.60144,-0.327698,-0.64389,-19517,-17896,5608,-8985,-28663
21794,9.75215,0,0.46416,11.2115,-86.38,-134.676,-0.305176,2.0752,-1.89209,0.341064,-0.601257,-0.327911,-0.643829,-19005,-19176,7656,-8985,-28663
21800,9.79043,0,0.416309,11.3873,-86.369,-134.808,0,2.38037,-2.56348,0.341248,-0.601074,-0.328156,-0.643768,-17725,-20456,8680,-8985,-28663
21806,9.81914,0.0813477,0.397168,11.5906,-86.3525,-134.978,0.366211,3.05176,-3.11279,0.341431,-0.600891,-0.3284,-0.643738,-16445,-21480,9960,-8985,-28663
21812,9.82871,0.191406,0.425879,11.7993,-86.3361,-135.143,0.610352,3.90625,-3.2959,0.341583,-0.600677,-0.328644,-0.643738,-15421,-21992,10728,-8985,-28663
21818,9.72344,0.253613,0.516797,11.9312,-86.3196,-135.231,0.610352,3.78418,-2.31934,0.34198,-0.600159,-0.329163,-0.643707,-15421,-21736,9704,-8985,-28663
21824,9.8,0.220117,0.555078,11.9861,-86.2921,-135.187,2.44141,2.86865,-0.244141,0.342255,-0.599945,-0.329407,-0.643646,-16189,-21224,8424,-8985,-28663
21830,9.81436,0.172266,0.512012,11.9641,-86.2866,-135.099,2.80762,2.31934,0.244141,0.34259,-0.599701,-0.329681,-0.643555,-16445,-21224,6888,-8985,-28663
21836,9.79521,0.172266,0.579004,11.9861,-86.2811,-135.06,3.35693,1.95312,-0.244141,0.342957,-0.599487,-0.329956,-0.643433,-16701,-21480,4584,-8985,-28663
21842,9.79521,0.14834,0.502441,12.0355,-86.2756,-135.049,4.08936,1.58691,-0.549316,0.343292,-0.599274,-0.330261,-0.64328,-16701,-22248,2536,-8985,-28663
21848,9.8,0.0813477,0.392383,12.1509,-86.2646,-135.104,4.27246,2.0752,-1.52588,0.343964,-0.598816,-0.330963,-0.643005,-17469,-21992,-2841,-8985,-28663
21854,9.77607,0.0669922,0.387598,12.3541,-86.2427,-135.192,3.17383,2.56348,-1.28174,0.344269,-0.598572,-0.331299,-0.642883,-17725,-20968,-4633,-8985,-28663
21860,9.8,0.0957031,0.406738,12.4475,-86.2317,-135.236,2.31934,2.56348,-1.52588,0.344543,-0.598328,-0.331604,-0.642792,-18493,-19432,-6169,-8985,-28663
21866,9.78086,0.090918,0.421094,12.5189,-86.2207,-135.258,1.89209,2.56348,-1.2207,0.344818,-0.598114,-0.331879,-0.642731,-18493,-18152,-7449,-8985,-28663
21872,9.7665,0.129199,0.46416,12.5574,-86.2097,-135.253,1.34277,2.92969,-0.915527,0.345062,-0.5979,-0.332153,-0.642639,-17981,-16872,-8217,-8985,-28663
21878,9.78564,0.14834,0.468945,12.5739,-86.1987,-135.225,1.34277,2.80762,-0.610352,0.345581,-0.597504,-0.332581,-0.642517,-17725,-15592,-7449,-8985,-28663
21884,9.78086,0.124414,0.512012,12.5574,-86.1823,-135.121,1.15967,2.38037,-0.183105,0.345825,-0.597321,-0.332794,-0.642456,-17725,-15592,-6937,-8985,-28663
21890,9.75693,0.162695,0.488086,12.5409,-86.1768,-135.06,1.40381,2.2583,0,0.3461,-0.597137,-0.333008,-0.642365,-17981,-16616,-6425,-8985,-28663
21896,9.76172,0.181836,0.516797,12.5079,-86.1658,-134.978,1.64795,2.2583,0.244141,0.346375,-0.596954,-0.333221,-0.642273,-18237,-17384,-6681,-8985,-28663
21902,9.75215,0.191406,0.488086,12.4146,-86.1603,-134.835,1.40381,2.0752,1.09863,0.346649,-0.596802,-0.333435,-0.642151,-19517,-17640,-6681,-8985,-28663
21908,9.78564,0.172266,0.540723,12.2772,-86.1603,-134.654,1.83105,1.58691,1.83105,0.347321,-0.596466,-0.333832,-0.641876,-21309,-18408,-7193,-8985,-28663
21914,9.81914,0.14834,0.555078,11.9421,-86.1603,-134.203,2.62451,1.0376,2.2583,0.347687,-0.596344,-0.334045,-0.641693,-21309,-18664,-7961,-8985,-28663
21920,9.81436,0.100488,0.555078,11.8158,-86.1603,-134.022,2.99072,0.732422,1.95312,0.348083,-0.596191,-0.33429,-0.64151,-21309,-19688,-8473,-8985,-28663
21926,9.79043,0.129199,0.516797,11.7554,-86.1603,-133.907,3.05176,0.305176,1.15967,0.34845,-0.596039,-0.334534,-0.641296,-20285,-20712,-8985,-8985,-28663
21932,9.80957,0.0574219,0.46416,11.7334,-86.1658,-133.824,3.05176,0.366211,0.671387,0.348785,-0.595917,-0.334808,-0.641113,-19261,-21736,-9497,-8985,-28663
21938,9.82871,0.062207,0.44502,11.7554,-86.1658,-133.797,2.56348,0.366211,-0.0610352,0.349396,-0.595612,-0.335388,-0.640778,-18749,-22760,-8985,-8985,-28663
21944,9.8,0.0430664,0.46416,11.9366,-86.1658,-133.885,1.09863,0.366211,-1.28174,0.349609,-0.595459,-0.335663,-0.640625,-18749,-22760,-9753,-8985,-28663
21950,9.80957,0.0717773,0.459375,12.0795,-86.1658,-133.989,0.671387,0.366211,-1.89209,0.349823,-0.595337,-0.335938,-0.640503,-19005,-22504,-10777,-8985,-28663
21956,9.79521,0.133984,0.478516,12.2278,-86.1603,-134.099,0.549316,0.793457,-2.01416,0.349976,-0.595184,-0.336182,-0.640411,-19517,-21736,-11801,-8985,-28663
21962,9.77607,0.162695,0.468945,12.3651,-86.1603,-134.203,0.610352,0.854492,-1.95312,0.350128,-0.595062,-0.336426,-0.64032,-19005,-21480,-12569,-8985,-28663
21968,9.74258,0.162695,0.45459,12.464,-86.1548,-134.264,0.244141,0.915527,-0.915527,0.350464,-0.594757,-0.336884,-0.640167,-17981,-22760,-12569,-8985,-28663
21974,9.7665,0.177051,0.435449,12.5739,-86.1493,-134.297,0.244141,1.40381,-0.793457,0.350647,-0.594635,-0.337097,-0.640076,-17213,-23272,-13337,-8985,-28663
21980,9.77607,0.13877,0.516797,12.6178,-86.1438,-134.302,0.305176,1.58691,-0.793457,0.35083,-0.594482,-0.337311,-0.639984,-16701,-23528,-13593,-8985,-28663
21986,9.78564,0.196191,0.521582,12.6343,-86.1383,-134.286,0.488281,1.52588,-0.427246,0.351044,-0.59433,-0.337524,-0.639923,-16445,-23016,-14617,-8985,-28663
21992,9.74736,0.186621,0.545508,12.5958,-86.1383,-134.203,0.793457,1.15967,0.488281,0.351257,-0.594208,-0.337708,-0.639832,-16189,-21736,-15641,-8985,-28663
21998,9.75215,0.186621,0.521582,12.5464,-86.1383,-134.11,1.15967,0.793457,1.77002,0.351776,-0.593933,-0.338104,-0.639557,-16957,-20968,-15129,-8985,-28663
22004,9.75215,0.15791,0.497656,12.2992,-86.1383,-133.77,1.64795,0.854492,1.83105,0.352081,-0.593811,-0.338318,-0.639404,-16701,-21480,-13849,-8985,-28663
22010,9.78086,0.119629,0.468945,12.1674,-86.1383,-133.588,1.34277,1.28174,1.83105,0.352417,-0.593689,-0.338501,-0.639252,-17469,-22248,-13337,-8985,-28663
22016,9.8,0.114844,0.507227,12.0081,-86.1328,-133.38,1.34277,1.28174,2.19727,0.352722,-0.593567,-0.338715,-0.639099,-17981,-23016,-13337,-8985,-28663
22022,9.84307,0.119629,0.516797,11.8982,-86.1328,-133.226,1.34277,1.64795,1.46484,0.353058,-0.593445,-0.338867,-0.638916,-18749,-22504,-14617,-8985,-28663
22028,9.81436,0.129199,0.502441,11.7883,-86.1273,-133.066,1.64795,1.70898,0.976562,0.353699,-0.593109,-0.339294,-0.638641,-20029,-20200,-18201,-8985,-28663
22034,9.77129,0.13877,0.521582,11.651,-86.1163,-132.83,1.58691,1.58691,0.854492,0.354004,-0.592957,-0.339508,-0.638519,-20285,-19688,-20249,-8985,-28663
