Timestamp,AccX,AccY,AccZ,AngleX,AngleY,AngleZ,AngularVelX,AngularVelY,AngularVelZ,QW,QX,QY,QZ,MagX,MagY,MagZ,Height,AirPressure
11250,9.74258,-0.29668,0.593359,-31.1517,-86.1493,-160.675,0,0.183105,-0.610352,-0.0627136,-0.681427,0.0829773,-0.724396,-314,-30950,27627,-8994,-28662
11256,9.75215,-0.267969,0.583789,-31.1243,-86.1438,-160.719,0.183105,0.244141,-0.366211,-0.0628052,-0.681396,0.0830383,-0.724396,-58,-31718,27883,-8994,-28662
11262,9.77607,-0.291895,0.574219,-31.1462,-86.1438,-160.708,0.183105,-0.0610352,0.366211,-0.0628662,-0.681396,0.0831299,-0.724396,455,-31718,27115,-8994,-28662
11268,9.77129,-0.282324,0.569434,-31.3824,-86.1438,-160.488,0.183105,-0.732422,1.95312,-0.0628967,-0.681396,0.0832214,-0.724365,967,-31462,23019,-8994,-28662
11274,9.73301,-0.320605,0.555078,-31.5692,-86.1383,-160.307,0.183105,-0.732422,2.56348,-0.0628662,-0.681396,0.0834351,-0.724335,1479,-31718,20459,-8994,-28662
11280,9.77129,-0.354102,0.545508,-31.8054,-86.1328,-160.082,0.305176,-0.671387,3.35693,-0.0627747,-0.681427,0.0835876,-0.724335,2247,-32230,18411,-8994,-28662
11286,9.77607,-0.401953,0.535937,-32.0361,-86.1273,-159.857,0.366211,-0.732422,3.2959,-0.0627136,-0.681427,0.0837097,-0.724304,3015,32538,18155,-8994,-28662
11292,9.81914,-0.397168,0.569434,-32.2614,-86.1218,-159.631,0.488281,-0.427246,3.41797,-0.0626526,-0.681427,0.0838318,-0.724304,3015,-32742,18923,-8994,-28662
11298,9.81436,-0.430664,0.555078,-32.5964,-86.1108,-159.307,0.488281,-0.12207,2.13623,-0.062561,-0.681427,0.0839539,-0.724304,2247,-31718,20459,-8985,-28663
11304,9.80957,-0.449805,0.555078,-32.6624,-86.1053,-159.252,0.12207,0,1.0376,-0.062561,-0.681396,0.084137,-0.724304,1223,-30950,20715,-8985,-28663
11310,9.81914,-0.449805,0.574219,-32.6624,-86.1053,-159.258,0.183105,-0.0610352,0.0610352,-0.0626221,-0.681396,0.084198,-0.724274,455,-30438,19435,-8985,-28663
11316,9.8335,-0.45459,0.569434,-32.6239,-86.1053,-159.307,0.0610352,0,-0.671387,-0.0627136,-0.681396,0.0842285,-0.724274,455,-29670,18667,-8985,-28663
11322,9.78086,-0.406738,0.559863,-32.514,-86.1108,-159.428,-0.12207,0,-1.77002,-0.0628357,-0.681366,0.084259,-0.724274,199,-28902,16875,-8985,-28663
11328,9.80957,-0.368457,0.550293,-32.179,-86.1273,-159.796,-0.12207,-0.244141,-2.92969,-0.0629883,-0.681366,0.084259,-0.724243,-314,-27366,14571,-8985,-28663
11334,9.72822,-0.401953,0.626855,-32.0251,-86.1383,-159.961,-0.12207,-0.427246,-2.74658,-0.0633545,-0.681396,0.084259,-0.724213,-570,-27110,14827,-8985,-28663
11340,9.79043,-0.354102,0.502441,-31.8549,-86.1493,-160.148,-0.244141,-0.671387,-3.23486,-0.0635376,-0.681427,0.084259,-0.724182,-570,-27366,15339,-8985,-28663
11346,9.75693,-0.334961,0.47373,-31.6901,-86.1603,-160.329,-0.427246,-1.0376,-3.35693,-0.0637512,-0.681458,0.084259,-0.724121,-570,-27366,16107,-8985,-28663
11352,9.84307,-0.282324,0.669922,-31.4868,-86.1713,-160.554,-1.58691,-0.12207,-3.41797,-0.0639954,-0.681458,0.0843201,-0.724091,-826,-27366,16107,-8985,-28663
11358,9.68516,-0.215332,0.583789,-31.2451,-86.1823,-160.823,0,-0.793457,-1.77002,-0.0641785,-0.681458,0.0843201,-0.724091,-2362,-26342,16619,-8985,-28663
11364,9.7665,-0.205762,0.60293,-31.344,-86.1932,-160.741,-1.28174,-1.95312,0.244141,-0.0643921,-0.681519,0.0844421,-0.723969,-2874,-25830,17387,-8985,-28663
11370,9.75215,-0.229688,0.574219,-31.6022,-86.1987,-160.494,-1.40381,-2.92969,2.19727,-0.0643921,-0.68158,0.0846252,-0.723877,-2874,-25062,19435,-8985,-28663
11376,9.69951,-0.263184,0.521582,-31.9592,-86.2042,-160.148,-0.549316,-3.23486,3.54004,-0.0643005,-0.681671,0.0847778,-0.723785,-2362,-24550,21227,-8985,-28663
11382,9.76172,-0.320605,0.478516,-32.3492,-86.1987,-159.758,0.244141,-2.68555,4.57764,-0.0641785,-0.681732,0.0849304,-0.723724,-1594,-24294,22507,-8985,-28663
11388,9.73301,-0.382812,0.468945,-33.1458,-86.1877,-158.967,0,-1.2207,5.43213,-0.0640259,-0.681793,0.085083,-0.723694,-2618,-24806,24811,-8985,-28663
11394,9.82393,-0.421094,0.521582,-33.4479,-86.1768,-158.665,-0.244141,-0.549316,4.57764,-0.0637512,-0.681793,0.0854187,-0.723663,-2874,-25318,25579,-8985,-28663
11400,9.77607,-0.411523,0.545508,-33.7061,-86.1658,-158.406,0.0610352,-0.12207,4.21143,-0.0636292,-0.681793,0.0855713,-0.723663,-2874,-25574,26091,-8985,-28663
11406,9.8,-0.435449,0.588574,-33.9203,-86.1548,-158.198,-0.0610352,-0.12207,3.41797,-0.0635376,-0.681763,0.0856934,-0.723663,-2362,-26086,25835,-8985,-28663
11412,9.79043,-0.435449,0.564648,-34.1016,-86.1493,-158.022,0.0610352,-0.244141,2.86865,-0.0634766,-0.681763,0.0857849,-0.723663,-1594,-25830,26347,-8985,-28663
11418,9.88135,-0.392383,0.617285,-34.3762,-86.1438,-157.753,0,-0.976562,1.77002,-0.063446,-0.681763,0.0858765,-0.723663,-1594,-24038,25323,-8985,-28663
11424,8.95303,-1.0623,0.31582,-34.4476,-86.1493,-157.687,-0.305176,-1.2207,0.427246,-0.0634155,-0.681824,0.0859985,-0.723602,-1594,-23014,26347,-8985,-28663
11430,8.99609,-0.497656,0.449805,-34.2664,-86.1713,-157.846,6.7749,-2.50244,-4.15039,-0.0634155,-0.681915,0.0857239,-0.723541,-1338,-22246,26603,-8985,-28663
11436,10.3742,-0.14834,-0.0765625,-34.0796,-86.1877,-158.049,-0.732422,-2.01416,-4.5166,-0.0636597,-0.681976,0.0857239,-0.72345,-570,-20966,27371,-8985,-28663
11442,9.85742,-0.191406,0.856543,-34.0961,-86.1932,-158.093,-8.42285,0,-0.549316,-0.0640259,-0.681946,0.0860596,-0.723419,-58,-20198,28651,-8985,-28663
11448,9.43154,-0.263184,0.923535,-34.0302,-86.1658,-158.187,4.39453,1.83105,1.0376,-0.0642395,-0.681824,0.0863342,-0.72348,455,-19686,30443,-8985,-28663
11454,9.93877,-0.497656,0.636426,-34.1235,-86.1603,-158.077,4.27246,-0.183105,1.77002,-0.0639954,-0.681793,0.0862427,-0.723572,-58,-20966,30699,-8985,-28663
11460,9.60859,-0.545508,0.650781,-34.3323,-86.1713,-157.879,-0.427246,-2.86865,1.46484,-0.0640259,-0.681854,0.0863647,-0.72348,-314,-21478,31467,-8985,-28663
11466,9.89092,-0.478516,0.416309,-34.5575,-86.1877,-157.67,-2.13623,-5.12695,-0.0610352,-0.0641174,-0.682007,0.0864868,-0.723297,-570,-21990,31979,-8985,-28663
11472,9.85742,-0.363672,0.406738,-34.6893,-86.2152,-157.566,-2.62451,-5.00488,-1.58691,-0.06427,-0.682159,0.0865784,-0.723145,-826,-22246,32235,-8985,-28663
11478,9.6708,-0.291895,0.555078,-34.7168,-86.2427,-157.571,-0.854492,-1.77002,-1.28174,-0.0645752,-0.682281,0.086731,-0.722961,-314,-22246,31211,-8985,-28663
11484,9.76172,-0.291895,0.559863,-34.7717,-86.2482,-157.522,-0.12207,-1.34277,0,-0.0646057,-0.682312,0.086792,-0.722931,-58,-22758,30443,-8985,-28663
11490,9.69473,-0.330176,0.607715,-34.92,-86.2482,-157.385,-0.549316,-1.64795,1.2207,-0.0646362,-0.682343,0.0868835,-0.7229,199,-23014,30187,-8985,-28663
11496,9.74258,-0.449805,0.579004,-35.1617,-86.2537,-157.154,-1.09863,-2.62451,1.95312,-0.0646362,-0.682404,0.0870056,-0.722809,199,-23270,30187,-8985,-28663
11502,9.75693,-0.440234,0.425879,-35.4309,-86.2592,-156.901,-2.50244,-2.86865,2.13623,-0.0646667,-0.682495,0.0871887,-0.722717,199,-23270,31467,-8985,-28663
11508,9.79043,-0.363672,0.526367,-35.8154,-86.2701,-156.544,-1.58691,-2.19727,1.28174,-0.0647278,-0.682587,0.0874634,-0.722565,-1338,-21478,31467,-8985,-28663
11514,9.73779,-0.363672,0.516797,-35.9692,-86.2701,-156.401,-1.2207,-1.58691,1.34277,-0.0647583,-0.682617,0.0875854,-0.722534,-1594,-20710,31467,-8985,-28663
11520,9.80957,-0.406738,0.502441,-36.123,-86.2756,-156.259,-0.915527,-1.77002,1.15967,-0.0647583,-0.682678,0.087677,-0.722473,-1594,-20198,31211,-8985,-28663
11526,9.81436,-0.382812,0.507227,-36.2384,-86.2756,-156.149,-0.549316,-1.28174,0.976562,-0.0647583,-0.682709,0.0877686,-0.722443,-1082,-19942,30955,-8985,-28663
11532,9.77129,-0.401953,0.497656,-36.3318,-86.2756,-156.061,-0.244141,-0.915527,0.854492,-0.0647583,-0.682709,0.0878296,-0.722412,-314,-19686,31723,-8985,-28663
11538,9.75693,-0.406738,0.483301,-36.4252,-86.2811,-155.978,-0.244141,-0.488281,0.0610352,-0.0648193,-0.682739,0.0879211,-0.722382,199,-19430,32235,-8985,-28663
11544,9.80479,-0.382812,0.516797,-36.4362,-86.2811,-155.978,-0.244141,-0.183105,0.0610352,-0.0648804,-0.682739,0.0879517,-0.722382,-58,-18662,32491,-8985,-28663
11550,9.79043,-0.416309,0.550293,-36.4307,-86.2811,-155.989,0,0,-0.0610352,-0.0649109,-0.682739,0.0879822,-0.722382,-314,-18662,-32021,-8985,-28663
11556,9.85742,-0.449805,0.564648,-36.4307,-86.2811,-155.995,0.12207,-0.366211,-0.183105,-0.0649414,-0.682739,0.0880127,-0.722351,-826,-17894,-30741,-8985,-28663
11562,9.81436,-0.459375,0.512012,-36.3757,-86.2866,-156.055,0,-0.732422,-1.40381,-0.065033,-0.68277,0.0880432,-0.722321,-1082,-17638,-29461,-8985,-28663
11568,9.82393,-0.440234,0.531152,-36.1945,-86.3086,-156.259,-0.549316,-1.34277,-2.68555,-0.0653076,-0.682831,0.0880432,-0.722229,-314,-19174,-27925,-8985,-28663
11574,9.80957,-0.392383,0.492871,-36.0132,-86.3251,-156.456,-0.732422,-1.34277,-3.90625,-0.0655212,-0.682861,0.0880127,-0.722168,199,-19942,-29205,-8985,-28663
11580,9.78564,-0.358887,0.478516,-35.8209,-86.3416,-156.66,-0.732422,-1.09863,-3.90625,-0.0657043,-0.682892,0.0879822,-0.722137,455,-20454,-28181,-8985,-28663
11586,9.7665,-0.354102,0.483301,-35.6012,-86.358,-156.901,-0.671387,-0.671387,-4.08936,-0.0659485,-0.682922,0.0879517,-0.722107,-314,-20454,-27669,-8985,-28663
11592,9.8,-0.339746,0.483301,-35.4034,-86.369,-157.11,-0.549316,-0.671387,-3.66211,-0.0661316,-0.682953,0.0879517,-0.722046,-1082,-19174,-27413,-8985,-28663
11598,9.77607,-0.31582,0.507227,-34.986,-86.391,-157.555,-0.549316,-0.183105,-3.41797,-0.0665283,-0.682953,0.0879211,-0.722015,-2106,-17382,-25109,-8985,-28663
11604,9.68037,-0.325391,0.521582,-34.8267,-86.3965,-157.736,-0.305176,0.12207,-2.50244,-0.0667114,-0.682953,0.0879517,-0.721985,-1850,-17126,-24853,-8985,-28663
11610,9.84307,-0.325391,0.435449,-34.7058,-86.402,-157.863,0.0610352,-0.305176,-2.0752,-0.0668335,-0.682953,0.0879517,-0.721985,-1850,-17382,-24085,-8985,-28663
11616,9.73779,-0.272754,0.569434,-34.6564,-86.402,-157.928,-0.610352,0.12207,-0.793457,-0.0669556,-0.682953,0.0880127,-0.721985,-2106,-17638,-24597,-8985,-28663
11622,9.77129,-0.263184,0.574219,-34.6729,-86.402,-157.923,-0.12207,0,0.244141,-0.0670166,-0.682922,0.0881042,-0.721954,-2106,-17382,-25621,-8985,-28663
11628,9.8,-0.30625,0.497656,-34.9036,-86.3965,-157.703,0.488281,-0.854492,1.83105,-0.0669861,-0.682953,0.0882568,-0.721924,-1594,-17126,-26901,-8985,-28663
11634,9.8,-0.368457,0.507227,-35.1013,-86.3965,-157.511,0.488281,-1.28174,2.19727,-0.0669556,-0.682983,0.0883484,-0.721893,-826,-18150,-26645,-8985,-28663
11640,9.80957,-0.387598,0.497656,-35.332,-86.3965,-157.28,0.366211,-1.95312,2.2583,-0.0668945,-0.683014,0.0884399,-0.721863,-314,-19430,-25877,-8985,-28663
11646,9.79043,-0.349316,0.502441,-35.5792,-86.402,-157.039,0.305176,-2.19727,2.31934,-0.0668335,-0.683075,0.0885315,-0.721802,455,-20454,-24853,-8985,-28663
11652,9.79043,-0.363672,0.483301,-35.755,-86.402,-156.868,0.12207,-1.83105,1.83105,-0.066803,-0.683136,0.088623,-0.721741,1479,-21222,-24597,-8985,-28663
11658,9.74736,-0.349316,0.435449,-36.1505,-86.4075,-156.484,0.12207,-1.77002,1.83105,-0.0667419,-0.683197,0.0887756,-0.721649,1735,-21478,-22293,-8985,-28663
11664,9.80957,-0.349316,0.507227,-36.3538,-86.4075,-156.281,0,-1.40381,2.19727,-0.0666809,-0.683228,0.0888672,-0.721619,1223,-20966,-21013,-8985,-28663
11670,9.79521,-0.363672,0.526367,-36.568,-86.402,-156.072,-0.12207,-1.64795,2.19727,-0.0666504,-0.683289,0.0889587,-0.721558,-58,-20710,-19221,-8985,-28663
11676,9.75693,-0.45459,0.502441,-36.8097,-86.4075,-155.83,-0.12207,-2.19727,2.2583,-0.0665894,-0.683319,0.0890503,-0.721527,-826,-20454,-17429,-8985,-28663
11682,9.84307,-0.540723,0.483301,-37.0239,-86.413,-155.621,-0.305176,-2.2583,0.0610352,-0.0665588,-0.683411,0.0891418,-0.721436,-1338,-20710,-16149,-8985,-28663
11688,9.79521,-0.483301,0.449805,-37.0953,-86.4294,-155.566,-0.610352,-1.64795,-1.95312,-0.0666809,-0.683502,0.0892029,-0.721313,-1338,-20198,-14869,-8985,-28663
11694,9.81436,-0.430664,0.430664,-36.925,-86.4459,-155.748,-0.549316,-0.915527,-3.35693,-0.066864,-0.683533,0.0891724,-0.721283,-1082,-20198,-15125,-8985,-28663
11700,9.80479,-0.378027,0.435449,-36.6504,-86.4569,-156.039,-0.12207,-0.12207,-4.45557,-0.0670776,-0.683563,0.0891113,-0.721252,-826,-20454,-14613,-8985,-28663
11706,9.79043,-0.363672,0.45459,-36.2988,-86.4734,-156.401,-0.427246,0.427246,-5.12695,-0.0673218,-0.683533,0.0890503,-0.721252,-570,-20454,-15125,-8985,-28663
11712,9.79043,-0.330176,0.497656,-35.9143,-86.4789,-156.802,-0.244141,1.15967,-5.06592,-0.0675964,-0.683502,0.0889893,-0.721252,-314,-20966,-14869,-8985,-28663
11718,9.72344,-0.267969,0.569434,-35.1837,-86.5009,-157.566,-0.12207,0.793457,-4.76074,-0.0681152,-0.683472,0.0888977,-0.721252,-314,-20966,-15125,-8985,-28663
11724,9.76172,-0.215332,0.545508,-34.9365,-86.5118,-157.824,-0.0610352,0.12207,-3.66211,-0.0682983,-0.683472,0.0888672,-0.721252,-314,-21478,-16661,-8985,-28663
11730,9.71387,-0.220117,0.531152,-34.7827,-86.5173,-157.994,-0.305176,-0.366211,-2.62451,-0.0684509,-0.683472,0.0888672,-0.721222,-570,-21990,-18197,-8985,-28663
11736,9.72344,-0.205762,0.535937,-34.8102,-86.5228,-157.983,-0.488281,-1.28174,-0.610352,-0.0685425,-0.683502,0.0889282,-0.721191,-570,-23014,-20245,-8985,-28663
11742,9.72344,-0.253613,0.507227,-34.931,-86.5283,-157.868,-0.671387,-2.13623,2.01416,-0.068573,-0.683533,0.0889893,-0.72113,-826,-24038,-21013,-8985,-28663
11748,9.80479,-0.354102,0.502441,-35.4529,-86.5338,-157.357,-0.976562,-2.38037,2.56348,-0.068512,-0.683655,0.0892639,-0.721008,-314,-26598,-21269,-8985,-28663
11754,9.79043,-0.373242,0.526367,-35.777,-86.5338,-157.05,-1.15967,-2.68555,2.80762,-0.0684814,-0.683716,0.0894165,-0.720947,199,-26854,-20757,-8985,-28663
11760,9.79043,-0.344531,0.497656,-36.0846,-86.5393,-156.742,-1.0376,-3.05176,2.44141,-0.0684204,-0.683777,0.0895386,-0.720856,199,-27110,-21013,-8985,-28663
11766,9.79521,-0.325391,0.502441,-36.4197,-86.5448,-156.418,-0.915527,-3.41797,2.50244,-0.0683594,-0.683868,0.0896606,-0.720764,-58,-27110,-22037,-8985,-28663
11772,9.78086,-0.339746,0.497656,-37.1558,-86.5613,-155.687,-0.610352,-4.08936,2.50244,-0.0682983,-0.68399,0.0897827,-0.720642,-570,-27110,-22805,-8985,-28663
11778,9.81436,-0.435449,0.449805,-37.5458,-86.5668,-155.297,-0.549316,-4.08936,2.86865,-0.0681152,-0.684204,0.0899963,-0.720428,-1594,-26086,-24853,-8985,-28663
11784,9.83828,-0.468945,0.411523,-37.8918,-86.5778,-154.951,-0.427246,-3.96729,2.2583,-0.0680542,-0.684326,0.0900879,-0.720306,-1338,-25062,-24597,-8985,-28663
11790,9.85264,-0.47373,0.363672,-38.1445,-86.5887,-154.698,-0.244141,-3.479,1.2207,-0.0679932,-0.684418,0.0901184,-0.720215,-1082,-24550,-23829,-8985,-28663
11796,9.76172,-0.478516,0.382812,-38.2764,-86.5942,-154.572,-0.183105,-2.56348,0.0610352,-0.0680237,-0.684479,0.0901794,-0.720154,-826,-23526,-23061,-8985,-28663
11802,9.81914,-0.440234,0.416309,-38.2104,-86.6162,-154.649,-0.305176,-1.09863,-2.2583,-0.0680847,-0.68454,0.0901794,-0.720093,-570,-23526,-22037,-8985,-28663
11808,9.78086,-0.401953,0.44502,-38.0457,-86.6272,-154.825,-0.488281,-0.671387,-3.05176,-0.0683594,-0.684601,0.0901489,-0.720001,-314,-24550,-21781,-8985,-28663
11814,9.75215,-0.354102,0.449805,-37.8369,-86.6382,-155.045,-0.366211,-0.305176,-3.35693,-0.068512,-0.684601,0.0901184,-0.720001,-570,-24806,-22549,-8985,-28663
11820,9.82871,-0.339746,0.44502,-37.6117,-86.6492,-155.281,0,-0.244141,-3.60107,-0.0686951,-0.684631,0.0900574,-0.719971,-826,-25318,-23573,-8985,-28663
11826,9.76172,-0.339746,0.459375,-37.4084,-86.6602,-155.495,-0.183105,-0.305176,-3.23486,-0.0688477,-0.684631,0.0900269,-0.71994,-1082,-25830,-24341,-8985,-28663
11832,9.7665,-0.334961,0.416309,-37.0734,-86.6821,-155.852,-0.12207,-0.732422,-2.68555,-0.0690308,-0.684662,0.0899963,-0.71991,-1338,-26086,-25365,-8985,-28663
11838,9.77607,-0.349316,0.449805,-36.8866,-86.6876,-156.055,-0.305176,0,-2.80762,-0.0693359,-0.684662,0.0899963,-0.719879,-1338,-27878,-28181,-8985,-28663
11844,9.75215,-0.421094,0.430664,-36.6833,-86.6986,-156.27,-0.12207,0,-2.99072,-0.0694885,-0.684662,0.0899963,-0.719849,-1082,-28902,-29717,-8985,-28663
11850,9.90527,-0.430664,0.435449,-36.4471,-86.7041,-156.522,-0.671387,0.244141,-3.35693,-0.0697021,-0.684662,0.0899963,-0.719849,-1082,-29414,-29461,-8985,-28663
11856,9.82871,-0.368457,0.46416,-36.123,-86.7151,-156.868,-0.793457,0.549316,-4.39453,-0.0699768,-0.684631,0.0899963,-0.719849,-1338,-29670,-29205,-8985,-28663
11862,9.77129,-0.339746,0.497656,-35.3595,-86.7426,-157.676,-0.732422,0.488281,-5.12695,-0.0702515,-0.684631,0.0899658,-0.719818,-1594,-29926,-28181,-8985,-28663
11868,9.73779,-0.258398,0.512012,-35.0299,-86.7535,-158.022,-0.671387,0.0610352,-4.69971,-0.0708008,-0.684601,0.0899048,-0.719788,-2106,-30182,-27669,-8985,-28663
11874,9.72822,-0.224902,0.478516,-34.7827,-86.7645,-158.291,-0.732422,-0.732422,-4.08936,-0.0710449,-0.684631,0.0899048,-0.719757,-3130,-30694,-27669,-8985,-28663
11880,9.75693,-0.234473,0.47373,-34.6509,-86.781,-158.439,-0.793457,-1.34277,-2.92969,-0.071228,-0.684662,0.0899353,-0.719696,-3898,-30950,-27157,-8985,-28663
11886,9.73779,-0.263184,0.497656,-34.6069,-86.792,-158.5,-0.732422,-1.83105,-1.95312,-0.0713806,-0.684723,0.0899963,-0.719635,-3898,-30950,-26133,-8985,-28663
11892,9.75693,-0.267969,0.354102,-34.7388,-86.8085,-158.395,-0.427246,-1.52588,-0.0610352,-0.0714722,-0.684784,0.0900574,-0.719543,-3642,-30950,-24085,-8985,-28663
11898,9.73779,-0.248828,0.411523,-34.8376,-86.8085,-158.307,0.0610352,-1.0376,0.549316,-0.0715942,-0.684845,0.09021,-0.719452,-3130,-31462,-20245,-8985,-28663
11904,9.77129,-0.267969,0.440234,-34.9695,-86.8085,-158.181,0.244141,-0.366211,1.52588,-0.0715942,-0.684814,0.0903015,-0.719452,-3642,-31718,-17173,-8985,-28663
11910,9.77129,-0.301465,0.449805,-35.1233,-86.7975,-158.027,0.854492,0.12207,2.2583,-0.0715332,-0.684814,0.0903931,-0.719482,-4410,-31462,-15125,-8985,-28663
11916,9.74736,-0.378027,0.488086,-35.3046,-86.792,-157.852,1.2207,0,2.50244,-0.0714722,-0.684784,0.0904846,-0.719482,-4666,-31462,-13845,-8985,-28663
11922,9.84785,-0.392383,0.45459,-35.5682,-86.781,-157.593,0.793457,-0.244141,1.40381,-0.0714111,-0.684784,0.0905762,-0.719482,-3130,-31974,-13077,-8985,-28663
11928,9.75215,-0.406738,0.45459,-35.6232,-86.7865,-157.544,0.305176,-0.732422,0.244141,-0.0714417,-0.684784,0.0906677,-0.719452,-2618,-32230,-13845,-8985,-28663
11934,9.82393,-0.363672,0.425879,-35.6396,-86.7865,-157.538,-0.183105,-0.732422,-0.366211,-0.0715027,-0.684814,0.0907288,-0.719421,-2362,-32486,-14357,-8985,-28663
11940,9.82393,-0.392383,0.421094,-35.5902,-86.7975,-157.599,-0.244141,-0.915527,-1.40381,-0.0716248,-0.684845,0.0907593,-0.719391,-2618,-31718,-14613,-8985,-28663
11946,9.8335,-0.382812,0.46416,-35.4803,-86.803,-157.725,-0.549316,-0.366211,-1.89209,-0.0717468,-0.684845,0.0907898,-0.71936,-2618,-31462,-14869,-8985,-28663
11952,9.81436,-0.358887,0.44502,-35.0739,-86.825,-158.159,-0.671387,-0.610352,-3.479,-0.0719299,-0.684845,0.0907898,-0.71933,-3386,-31718,-13333,-8985,-28663
11958,9.72344,-0.301465,0.44502,-34.8706,-86.8359,-158.379,-0.732422,-0.732422,-3.35693,-0.0723267,-0.684906,0.0907898,-0.719269,-4410,-31718,-11797,-8985,-28663
11964,9.78086,-0.325391,0.397168,-34.6783,-86.8469,-158.588,-0.976562,-0.793457,-3.2959,-0.0725403,-0.684906,0.0908203,-0.719208,-5434,-31462,-10773,-8985,-28663
11970,9.82393,-0.373242,0.392383,-34.4696,-86.8579,-158.824,-1.40381,-0.366211,-3.2959,-0.0727844,-0.684937,0.0908508,-0.719177,-6714,-31718,-9493,-8985,-28663
11976,9.88135,-0.406738,0.320605,-34.2334,-86.8689,-159.082,-1.77002,0.12207,-3.2959,-0.0730286,-0.684906,0.0909119,-0.719147,-7738,-32230,-9493,-8985,-28663
11982,9.84307,-0.397168,0.382812,-33.3875,-86.8799,-159.988,-1.77002,1.70898,-5.61523,-0.0733337,-0.684875,0.0909424,-0.719147,-7994,31770,-9493,-8985,-28663
11988,9.80479,-0.215332,0.373242,-32.8217,-86.8854,-160.587,-2.13623,2.50244,-6.04248,-0.0740967,-0.684753,0.0909729,-0.719208,-7738,30490,-8981,-8985,-28663
11994,9.77129,-0.14834,0.430664,-32.2339,-86.8909,-161.213,-2.74658,3.35693,-5.85938,-0.0745239,-0.684631,0.0910339,-0.719238,-7738,29978,-7701,-8985,-28663
12000,9.7043,-0.124414,0.483301,-31.7285,-86.8799,-161.752,-1.89209,4.21143,-4.21143,-0.0748596,-0.684509,0.091095,-0.71933,-7994,29466,-6933,-8985,-28663
12006,9.69473,-0.15791,0.512012,-31.2781,-86.8689,-162.224,-0.854492,4.69971,-3.11279,-0.0751343,-0.684357,0.091156,-0.719452,-8762,28954,-5653,-8985,-28663
12012,9.75693,-0.172266,0.492871,-30.7452,-86.8414,-162.801,-0.183105,3.96729,-0.671387,-0.0753174,-0.684204,0.091217,-0.719543,-11578,28698,-6421,-8985,-28663
12018,9.75693,-0.267969,0.488086,-30.6024,-86.825,-162.966,0,3.90625,0.305176,-0.075592,-0.683929,0.0914001,-0.719757,-12858,29210,-7445,-8985,-28663
12024,9.79043,-0.334961,0.507227,-30.5035,-86.8085,-163.081,-0.305176,3.54004,0.671387,-0.0756836,-0.683807,0.0915222,-0.719849,-13626,29978,-7445,-8985,-28663
12030,9.80957,-0.320605,0.507227,-30.3992,-86.792,-163.202,-0.488281,3.35693,0.427246,-0.0758057,-0.683685,0.0916443,-0.71994,-13626,30490,-6677,-8985,-28663
12036,9.82393,-0.30625,0.521582,-30.2673,-86.7755,-163.356,-0.305176,3.23486,0,-0.0759277,-0.683563,0.0917358,-0.720032,-14138,30746,-5397,-8985,-28663
12042,9.78564,-0.244043,0.564648,-30.0696,-86.759,-163.586,-0.305176,2.01416,-0.0610352,-0.0760498,-0.683472,0.0918274,-0.720093,-14394,28954,-4885,-8985,-28663
12048,9.75693,-0.200977,0.555078,-30.0421,-86.7535,-163.625,-0.12207,1.2207,0.244141,-0.0762329,-0.68335,0.0920105,-0.720154,-15162,28698,-5141,-8985,-28663
12054,9.73779,-0.229688,0.550293,-30.1135,-86.748,-163.564,-0.305176,-0.0610352,0.854492,-0.0762939,-0.68335,0.0921021,-0.720154,-15674,28186,-5397,-8985,-28663
12060,9.75693,-0.263184,0.512012,-30.3552,-86.748,-163.334,-0.305176,-1.09863,2.44141,-0.0762634,-0.68335,0.0922546,-0.720123,-16186,28186,-5653,-8985,-28663
12066,9.7665,-0.301465,0.512012,-30.6354,-86.748,-163.065,-0.244141,-1.77002,2.62451,-0.0762329,-0.683411,0.0923767,-0.720062,-16186,28442,-6421,-8985,-28663
12072,9.79521,-0.358887,0.488086,-31.1957,-86.759,-162.515,-0.732422,-2.74658,1.46484,-0.0761719,-0.683472,0.0925293,-0.720001,-15674,29722,-6677,-8985,-28663
12078,9.88135,-0.440234,0.435449,-31.3605,-86.77,-162.367,-1.0376,-2.80762,0.366211,-0.0762329,-0.683594,0.0927429,-0.719849,-14650,30234,-6933,-8985,-28663
12084,9.85264,-0.378027,0.47373,-31.3715,-86.7865,-162.367,-1.28174,-2.62451,-1.58691,-0.076355,-0.683685,0.092804,-0.719757,-14394,30746,-7189,-8985,-28663
12090,9.84785,-0.358887,0.44502,-31.2561,-86.803,-162.504,-1.28174,-2.56348,-3.23486,-0.0765686,-0.683746,0.0928345,-0.719635,-14394,31002,-8213,-8985,-28663
12096,9.76172,-0.31582,0.45459,-31.0583,-86.825,-162.719,-1.52588,-2.50244,-4.27246,-0.0768127,-0.683838,0.0928345,-0.719543,-13882,30746,-8725,-8985,-28663
12102,9.74258,-0.263184,0.411523,-30.564,-86.8689,-163.262,-1.70898,-2.2583,-4.63867,-0.0770874,-0.683899,0.0928345,-0.719452,-14394,29978,-7957,-8985,-28663
12108,9.77129,-0.282324,0.30625,-30.3497,-86.8854,-163.499,-1.89209,-1.83105,-3.96729,-0.0776062,-0.684021,0.092865,-0.719269,-14394,29722,-6677,-8985,-28663
12114,9.8335,-0.363672,0.349316,-30.163,-86.8964,-163.713,-2.68555,-0.610352,-2.99072,-0.0778503,-0.684052,0.0929565,-0.719208,-14394,29722,-6421,-8985,-28663
12120,9.77129,-0.373242,0.282324,-29.8718,-86.9019,-164.037,-2.50244,0.732422,-3.60107,-0.0781555,-0.684021,0.0930481,-0.719208,-14650,29722,-5653,-8985,-28663
12126,9.72822,-0.349316,0.334961,-29.3994,-86.9019,-164.548,-2.62451,2.2583,-4.94385,-0.0785217,-0.683929,0.0931091,-0.719238,-15418,29722,-6165,-8985,-28663
12132,9.82393,-0.330176,0.373242,-28.0756,-86.8909,-165.954,-3.17383,5.5542,-6.10352,-0.0789795,-0.683807,0.0931396,-0.719299,-15930,29210,-6421,-8985,-28663
12138,9.71865,-0.31582,0.349316,-27.29,-86.8744,-166.778,-2.80762,6.71387,-6.5918,-0.0799255,-0.683411,0.0932922,-0.719543,-16442,28954,-6677,-8985,-28663
12144,9.8335,-0.253613,0.406738,-26.4441,-86.8579,-167.679,-2.2583,7.32422,-7.20215,-0.0804749,-0.683167,0.0933228,-0.719727,-17466,28442,-5909,-8985,-28663
12150,9.77607,-0.196191,0.468945,-25.5432,-86.8359,-168.629,-3.11279,8.66699,-7.38525,-0.0810242,-0.682892,0.0933838,-0.71991,-18234,28442,-5141,-8985,-28663
12156,9.78086,-0.181836,0.540723,-24.6533,-86.8085,-169.574,-2.62451,9.46045,-7.01904,-0.081604,-0.682587,0.0934448,-0.720123,-19514,27930,-5141,-8985,-28663
12162,9.80479,-0.143555,0.531152,-22.912,-86.7426,-171.403,-1.2207,10.2539,-6.40869,-0.0821533,-0.682281,0.0935059,-0.720337,-21562,27930,-4373,-8985,-28663
12168,9.73779,-0.0957031,0.626855,-22.1649,-86.7096,-172.194,-0.244141,9.76562,-5.61523,-0.0830994,-0.681641,0.0935669,-0.720825,-21562,28186,-4629,-8985,-28663
12174,9.76172,-0.124414,0.6125,-21.5057,-86.6766,-172.886,0.0610352,9.33838,-4.76074,-0.0834656,-0.681335,0.0935974,-0.721069,-21818,27674,-5397,-8985,-28663
12180,9.73779,-0.124414,0.583789,-20.9839,-86.6437,-173.441,0.427246,8.17871,-3.66211,-0.0838318,-0.681091,0.0936584,-0.721252,-22074,26394,-5141,-8985,-28663
12186,9.61338,-0.196191,0.416309,-20.5609,-86.6162,-173.892,0.305176,7.44629,-2.74658,-0.0841064,-0.680847,0.09375,-0.721436,-22074,25114,-6165,-8985,-28663
12192,9.78086,-0.124414,0.641211,-19.8688,-86.5668,-174.65,-0.549316,6.34766,-1.83105,-0.0844116,-0.680634,0.093811,-0.721588,-22842,21530,-8981,-8985,-28663
12198,9.7665,-0.0813477,0.693848,-19.6051,-86.5448,-174.941,0.183105,5.79834,-1.52588,-0.0849304,-0.680237,0.0940552,-0.721893,-23354,20250,-10517,-8985,-28663
12204,9.74736,-0.0287109,0.6125,-19.4733,-86.5228,-175.106,-0.671387,4.94385,-0.244141,-0.085144,-0.680054,0.0942078,-0.721985,-23354,18970,-10773,-8985,-28663
12210,9.74736,-0.0813477,0.703418,-19.4513,-86.5009,-175.15,-0.305176,4.45557,1.09863,-0.0852966,-0.679901,0.0943604,-0.722107,-23610,18458,-10517,-8985,-28663
12216,9.74258,-0.13877,0.689063,-19.6051,-86.4789,-175.018,-0.305176,2.86865,2.80762,-0.0853271,-0.679779,0.094574,-0.722168,-23866,18202,-10261,-8985,-28663
12222,9.85742,-0.267969,0.689063,-20.1654,-86.4624,-174.49,-0.427246,-0.12207,3.72314,-0.0853271,-0.679688,0.0950012,-0.722229,-23866,19226,-10005,-8985,-28663
12228,9.82871,-0.287109,0.545508,-20.4565,-86.4624,-174.221,-0.671387,-1.28174,3.17383,-0.0853271,-0.679718,0.0952148,-0.722168,-24122,18970,-9493,-8985,-28663
12234,9.81436,-0.311035,0.46416,-20.7147,-86.4679,-173.979,-0.671387,-1.28174,2.80762,-0.0853271,-0.679749,0.0953979,-0.722137,-24378,19482,-10261,-8985,-28663
12240,9.77607,-0.354102,0.478516,-20.8575,-86.4624,-173.848,-0.793457,-0.244141,1.70898,-0.0853882,-0.679718,0.0955811,-0.722107,-25402,19226,-9237,-8985,-28663
12246,9.73779,-0.272754,0.401953,-20.896,-86.4569,-173.837,-0.793457,1.2207,0.732422,-0.0855103,-0.679657,0.0957336,-0.722137,-26426,18970,-8981,-8985,-28663
12252,9.71387,-0.191406,0.459375,-20.7257,-86.4185,-174.056,-1.77002,5.31006,0.305176,-0.0858459,-0.679352,0.0960388,-0.722321,-27706,19226,-8213,-8985,-28663
12258,9.75215,-0.0861328,0.60293,-20.6653,-86.3855,-174.15,-2.2583,6.71387,1.40381,-0.0859985,-0.679138,0.0962219,-0.722504,-27962,19482,-7701,-8985,-28663
12264,9.76172,-0.0334961,0.507227,-20.6598,-86.347,-174.177,-1.83105,7.32422,2.50244,-0.0861206,-0.678864,0.0964355,-0.722717,-27706,20506,-9237,-8985,-28663
12270,9.74258,-0.0478516,0.641211,-20.7532,-86.3031,-174.106,-1.95312,8.17871,4.15039,-0.0861511,-0.678589,0.0966492,-0.722931,-27450,21018,-11029,-8985,-28663
12276,9.73301,-0.13877,0.650781,-20.9564,-86.2592,-173.919,-1.28174,7.99561,5.79834,-0.0860901,-0.678314,0.0968933,-0.723175,-27450,21530,-13333,-8985,-28663
12282,9.77607,-0.177051,0.736914,-21.6266,-86.1658,-173.26,0,6.71387,7.8125,-0.0857849,-0.677795,0.0973511,-0.723633,-27450,21018,-16917,-8985,-28663
12288,9.8335,-0.224902,0.756055,-22.0221,-86.1273,-172.864,0.488281,5.5542,8.05664,-0.0855408,-0.677612,0.0975647,-0.723816,-27450,20250,-17685,-8985,-28663
12294,9.75693,-0.191406,0.818262,-22.5055,-86.0944,-172.37,0.976562,3.78418,8.8501,-0.0852356,-0.67746,0.0977783,-0.723969,-27706,19738,-18197,-8985,-28663
12300,9.72822,-0.215332,0.732129,-23.0493,-86.0669,-171.815,1.28174,1.70898,9.09424,-0.0848999,-0.677368,0.0979614,-0.72406,-27194,19738,-18965,-8985,-28663
12306,9.75693,-0.253613,0.736914,-23.692,-86.0504,-171.156,1.40381,0.0610352,9.94873,-0.0845032,-0.677338,0.0981445,-0.724091,-27450,19994,-19733,-8985,-28663
12312,9.78564,-0.320605,0.655566,-25.1093,-86.0229,-169.706,1.34277,-2.13623,9.94873,-0.0836487,-0.677399,0.0985413,-0.724091,-26682,21530,-19221,-8985,-28663
12318,9.82393,-0.44502,0.569434,-25.741,-86.0175,-169.052,1.46484,-2.19727,9.0332,-0.083252,-0.67746,0.0987244,-0.72406,-25914,22042,-19477,-8985,-28663
12324,9.8335,-0.492871,0.569434,-26.2793,-86.0065,-168.497,0.915527,-1.83105,7.75146,-0.0829163,-0.67749,0.0988464,-0.72406,-24890,22298,-19733,-8985,-28663
12330,9.87178,-0.46416,0.468945,-26.6858,-86.001,-168.074,0.915527,-1.58691,5.85938,-0.0826721,-0.677521,0.0989685,-0.72403,-24122,22554,-19221,-8985,-28663
12336,9.86221,-0.483301,0.559863,-26.911,-86.001,-167.844,0.183105,-0.793457,3.2959,-0.0825195,-0.677551,0.0990295,-0.72403,-22842,22810,-18709,-8985,-28663
12342,9.84307,-0.459375,0.545508,-26.9275,-86.001,-167.838,-0.427246,0.183105,-1.0376,-0.08255,-0.677551,0.0990295,-0.723999,-20538,23578,-19221,-8994,-28662
12348,9.84307,-0.483301,0.564648,-26.6968,-86.0065,-168.074,-0.610352,1.09863,-3.05176,-0.0827026,-0.677521,0.098999,-0.72403,-19002,24346,-20501,-8994,-28662
12354,9.82393,-0.382812,0.593359,-26.2573,-86.012,-168.519,-0.305176,2.0752,-5.85938,-0.0829468,-0.67749,0.098877,-0.72406,-18234,25626,-22293,-8994,-28662
12360,9.74258,-0.287109,0.660352,-25.708,-86.012,-169.085,-0.12207,2.50244,-7.38525,-0.0832825,-0.677429,0.0987244,-0.724091,-16954,26650,-23829,-8994,-28662
12366,9.72344,-0.15791,0.703418,-25.1422,-86.0175,-169.667,-0.0610352,2.68555,-7.56836,-0.0836182,-0.677368,0.0985718,-0.724121,-16442,27674,-25365,-8994,-28662
12372,9.71865,-0.16748,0.727344,-24.2963,-86.0284,-170.535,-0.12207,1.2207,-4.94385,-0.084137,-0.677307,0.0983276,-0.724152,-14906,28954,-26901,-8994,-28662
12378,9.88613,-0.110059,0.459375,-24.1205,-86.0394,-170.722,0.549316,-0.488281,-2.92969,-0.084259,-0.677338,0.0982666,-0.724121,-14650,29210,-28437,-8994,-28662
12384,9.8,-0.210547,1.00967,-24.137,-86.0449,-170.711,-0.305176,-1.46484,-0.427246,-0.0842896,-0.677368,0.0983276,-0.72406,-14906,29722,-29461,-8994,-28662
12390,9.57031,-0.0669922,0.77998,-24.3073,-86.0504,-170.541,0.427246,-1.34277,2.0752,-0.0842285,-0.677429,0.0983887,-0.72403,-15162,29722,-29973,-8994,-28662
12396,9.81914,-0.16748,0.722559,-24.6533,-86.0614,-170.173,1.52588,-5.24902,5.92041,-0.0840149,-0.677551,0.0984192,-0.723938,-15674,30746,-30741,-8994,-28662
12402,9.74736,-0.29668,0.756055,-25.8179,-86.0889,-168.986,1.34277,-7.08008,6.46973,-0.0834351,-0.677887,0.0986633,-0.723633,-16186,32282,-31253,-8994,-28662
12408,9.97227,-0.497656,0.373242,-26.4221,-86.1108,-168.365,1.52588,-7.50732,5.79834,-0.0831299,-0.678101,0.0987549,-0.72345,-15674,-32486,-29973,-8994,-28662
12414,9.71865,-0.378027,0.674707,-26.889,-86.1273,-167.882,0.793457,-6.65283,4.02832,-0.0829163,-0.678314,0.0988464,-0.723297,-15930,-31974,-28693,-8994,-28662
12420,9.83828,-0.368457,0.545508,-27.2571,-86.1493,-167.503,2.01416,-5.92041,2.80762,-0.0827026,-0.678497,0.0988464,-0.723145,-15930,-32230,-27157,-8994,-28662
12426,9.75693,-0.31582,0.564648,-27.6086,-86.1713,-167.135,1.28174,-5.92041,1.46484,-0.0825195,-0.67868,0.0988464,-0.722961,-15674,32538,-26133,-8994,-28662
12432,9.7665,-0.244043,0.540723,-28.1854,-86.2207,-166.531,1.40381,-6.65283,1.15967,-0.0822754,-0.679077,0.0988464,-0.722626,-15418,30746,-24853,-8994,-28662
12438,9.8,-0.31582,0.631641,-28.5315,-86.2482,-166.179,0.793457,-7.01904,1.58691,-0.0821228,-0.679291,0.0988464,-0.722443,-14906,29978,-24597,-8994,-28662
12444,9.80479,-0.325391,0.564648,-28.96,-86.2756,-165.74,0.0610352,-8.30078,2.0752,-0.0820007,-0.679535,0.0989075,-0.722229,-14138,29722,-24597,-8994,-28662
12450,9.78086,-0.373242,0.569434,-29.4159,-86.3086,-165.278,-0.427246,-8.91113,1.95312,-0.0818481,-0.67981,0.098938,-0.721985,-13882,29978,-23829,-8994,-28662
12456,9.7665,-0.378027,0.488086,-29.9103,-86.347,-164.778,-1.46484,-9.8877,1.15967,-0.0817566,-0.680115,0.0990295,-0.72171,-13114,30746,-23573,-8994,-28662
12462,9.73779,-0.397168,0.339746,-30.7343,-86.4185,-163.976,-4.45557,-8.05664,0.366211,-0.0817261,-0.680634,0.0992432,-0.721161,-12346,32026,-21269,-8985,-28663
12468,9.8957,-0.373242,0.46416,-30.899,-86.4569,-163.812,-1.28174,-7.50732,-2.01416,-0.0817871,-0.680878,0.0992432,-0.720947,-12602,-32486,-20245,-8985,-28663
12474,9.75215,-0.320605,0.425879,-30.9869,-86.4899,-163.735,-2.99072,-6.28662,-2.56348,-0.0819092,-0.681061,0.0992737,-0.720734,-12346,-32230,-19989,-8985,-28663
12480,9.80479,-0.349316,0.526367,-30.9814,-86.5173,-163.762,-3.17383,-5.18799,-3.35693,-0.0820923,-0.681244,0.0992737,-0.720581,-11834,-31974,-19733,-8985,-28663
12486,9.81436,-0.330176,0.430664,-30.9375,-86.5448,-163.817,-3.05176,-3.96729,-4.15039,-0.0822754,-0.681366,0.0993042,-0.720428,-11322,-31462,-18709,-8985,-28663
12492,9.78564,-0.234473,0.531152,-30.6793,-86.5942,-164.108,-2.62451,-3.479,-4.08936,-0.0827026,-0.68161,0.0992737,-0.720154,-10298,-30950,-18453,-8985,-28663
12498,9.73779,-0.200977,0.555078,-30.5859,-86.6162,-164.213,-1.70898,-3.54004,-3.41797,-0.0828552,-0.681702,0.0992432,-0.720032,-10042,-30438,-16917,-8985,-28663
12504,9.69473,-0.15791,0.507227,-30.5695,-86.6382,-164.235,-1.34277,-3.479,-2.2583,-0.0829468,-0.681824,0.0992432,-0.71991,-9530,-30182,-15637,-8985,-28663
12510,9.76172,-0.210547,0.550293,-30.6409,-86.6602,-164.169,-0.793457,-4.39453,-1.52588,-0.0829773,-0.681946,0.0992432,-0.719788,-8762,-29926,-13077,-8985,-28663
12516,9.98184,-0.349316,0.75127,-30.8441,-86.6821,-163.965,-2.31934,-3.17383,0.732422,-0.0829468,-0.682098,0.0992432,-0.719666,-8250,-29414,-10773,-8985,-28663
12522,9.82871,-0.253613,0.421094,-31.1792,-86.6986,-163.625,1.09863,-2.86865,0.427246,-0.0828857,-0.682251,0.0993042,-0.719513,-9018,-28646,-8981,-8985,-28663
12528,9.69951,-0.287109,0.15791,-31.3275,-86.7096,-163.477,0.610352,-2.56348,0.610352,-0.0828247,-0.682343,0.0992737,-0.719452,-9786,-28390,-8213,-8985,-28663
12534,9.79043,-0.387598,0.837402,-31.4154,-86.7096,-163.389,-2.13623,-0.732422,0.793457,-0.0828552,-0.682343,0.0993652,-0.719421,-11066,-28134,-8213,-8985,-28663
12540,9.74736,-0.191406,0.267969,-31.4539,-86.7096,-163.345,0.488281,-1.15967,0,-0.0827942,-0.682373,0.0993347,-0.719391,-11834,-28134,-8213,-8985,-28663
12546,9.79521,-0.15791,0.693848,-31.4539,-86.7096,-163.35,-1.95312,0.732422,1.46484,-0.0827942,-0.682373,0.0993042,-0.719391,-12346,-27878,-6421,-8985,-28663
12552,9.86699,-0.0382813,0.827832,-31.7065,-86.6931,-163.081,1.09863,-0.12207,2.74658,-0.0826111,-0.682312,0.0993958,-0.719452,-11322,-28902,-4373,-8985,-28663
12558,9.68037,-0.14834,0.344531,-32.146,-86.6821,-162.631,0.0610352,-0.488281,5.98145,-0.0823364,-0.682312,0.0994873,-0.719482,-10810,-29926,-2069,-8985,-28663
12564,9.75215,-0.263184,0.483301,-32.7722,-86.6602,-161.982,0.671387,-1.0376,8.36182,-0.0819702,-0.682312,0.0996094,-0.719513,-10042,-31206,-533,-8985,-28663
12570,9.87178,-0.425879,0.354102,-33.5632,-86.6437,-161.169,0.915527,-2.50244,9.82666,-0.0815125,-0.682373,0.0997925,-0.719482,-10042,-31974,-277,-8985,-28663
12576,9.80479,-0.478516,0.502441,-34.3378,-86.6217,-160.378,0.793457,-2.19727,8.36182,-0.0810852,-0.682373,0.0999756,-0.719482,-9786,-31974,236,-8985,-28663
12582,9.85264,-0.583789,0.607715,-35.4364,-86.5942,-159.258,-1.0376,-0.488281,6.22559,-0.0805054,-0.682404,0.100281,-0.719482,-8762,-30694,-1813,-8985,-28663
12588,9.79043,-0.46416,0.378027,-35.6232,-86.5778,-159.06,-0.305176,0.976562,3.66211,-0.0803528,-0.682373,0.100342,-0.719543,-7738,-30182,-2325,-8985,-28663
12594,9.81436,-0.334961,0.397168,-35.6451,-86.5668,-159.038,-0.183105,1.40381,1.46484,-0.0802917,-0.682312,0.100372,-0.719604,-6714,-29670,-2069,-8985,-28663
12600,9.77607,-0.382812,0.47373,-35.5847,-86.5558,-159.104,-1.28174,2.0752,0.671387,-0.0802917,-0.682251,0.100403,-0.719666,-5690,-29414,-789,-8985,-28663
12606,9.74258,-0.291895,0.47373,-35.4584,-86.5393,-159.236,-0.671387,1.46484,0.488281,-0.0803528,-0.682159,0.100433,-0.719727,-4922,-29158,748,-8985,-28663
12612,9.81914,-0.358887,0.827832,-35.5573,-86.5338,-159.142,-0.854492,0,1.52588,-0.0803223,-0.682098,0.100525,-0.719757,-4154,-29414,3052,-8985,-28663
12618,9.86221,-0.387598,0.818262,-35.7001,-86.5338,-159,-1.40381,-1.15967,1.40381,-0.0802612,-0.682129,0.100586,-0.719757,-4410,-28390,4076,-8985,-28663
12624,9.84307,-0.358887,0.717773,-35.9088,-86.5448,-158.78,-0.244141,-3.2959,0.976562,-0.0802002,-0.68222,0.100586,-0.719666,-4410,-27366,5100,-8985,-28663
12630,9.84307,-0.373242,0.440234,-36.1615,-86.5613,-158.527,-0.549316,-4.63867,0.549316,-0.0801086,-0.682373,0.100555,-0.719543,-4666,-26598,6380,-8985,-28663
12636,9.77129,-0.344531,0.516797,-36.8536,-86.6107,-157.824,-1.0376,-7.20215,0.488281,-0.0800476,-0.682556,0.100586,-0.71936,-4410,-26086,7404,-8985,-28663
12642,9.68994,-0.354102,0.311035,-37.2986,-86.6437,-157.374,-0.976562,-8.78906,0.12207,-0.0799255,-0.683044,0.100616,-0.718903,-2618,-25830,8172,-8985,-28663
12648,9.8,-0.483301,0.382812,-37.7875,-86.6766,-156.885,-1.2207,-9.33838,0.12207,-0.079895,-0.683319,0.100647,-0.718628,-1850,-25830,8172,-8985,-28663
12654,9.79521,-0.406738,0.488086,-38.2104,-86.7151,-156.456,-0.671387,-9.21631,-0.793457,-0.0798645,-0.683624,0.100647,-0.718384,-570,-25318,8428,-8985,-28663
12660,9.68994,-0.301465,0.569434,-38.5071,-86.748,-156.154,-0.366211,-7.56836,-1.46484,-0.079834,-0.683868,0.100586,-0.71814,455,-24550,8684,-8985,-28663
12666,9.76172,-0.16748,0.330176,-39.0619,-86.7975,-155.566,2.68555,-5.98145,0.244141,-0.0797729,-0.684082,0.100464,-0.717957,1223,-23782,8684,-8985,-28663
12672,9.73301,-0.229688,0.502441,-39.5892,-86.814,-155.017,1.46484,-6.22559,2.92969,-0.0793762,-0.684448,0.100372,-0.717651,711,-21734,8428,-8985,-28663
12678,9.71387,-0.363672,0.320605,-40.2814,-86.8195,-154.308,1.40381,-6.34766,5.12695,-0.079071,-0.684631,0.100403,-0.717499,-314,-21222,8428,-8985,-28663
12684,9.94834,-0.497656,0.488086,-40.9735,-86.825,-153.589,1.28174,-5.67627,5.7373,-0.0787659,-0.684784,0.100494,-0.717377,-570,-21478,9452,-8985,-28663
12690,9.78086,-0.44502,0.267969,-41.6382,-86.825,-152.913,0.610352,-5.37109,5.43213,-0.0784607,-0.684937,0.100555,-0.717255,-570,-21990,10732,-8985,-28663
12696,9.78086,-0.425879,0.172266,-42.5226,-86.825,-152.007,-0.305176,-2.86865,3.11279,-0.0782471,-0.685089,0.100616,-0.717163,199,-22502,12524,-8985,-28663
12702,9.77607,-0.31582,0.143555,-42.7588,-86.825,-151.754,0.793457,-1.70898,2.38037,-0.0779419,-0.685211,0.100677,-0.717072,967,-22758,16108,-8985,-28663
12708,9.74258,-0.401953,0.311035,-42.9236,-86.814,-151.589,0.366211,0,2.68555,-0.0778198,-0.685181,0.100708,-0.717072,1223,-22246,17388,-8985,-28663
12714,9.93877,-0.579004,0.507227,-43.0664,-86.8085,-151.436,0.976562,-0.12207,2.38037,-0.0776978,-0.685181,0.100739,-0.717102,455,-21478,17388,-8985,-28663
12720,9.94355,-0.669922,0.363672,-43.1543,-86.803,-151.353,-0.915527,0.0610352,1.46484,-0.0776672,-0.685181,0.1008,-0.717102,455,-19942,17388,-8985,-28663
12726,9.9292,-0.693848,0.344531,-42.6324,-86.825,-151.908,-3.23486,0.427246,-5.61523,-0.0778198,-0.68515,0.1008,-0.717102,1223,-18918,16364,-8985,-28663
12732,9.8335,-0.47373,0.430664,-42.0447,-86.8579,-152.534,-4.88281,0,-9.15527,-0.0786438,-0.68515,0.100739,-0.71701,2247,-17638,15852,-8985,-28663
12738,9.78086,-0.358887,0.526367,-41.3745,-86.8909,-153.254,-6.16455,-0.488281,-10.8032,-0.0792542,-0.685181,0.100708,-0.716919,3271,-18150,15084,-8985,-28663
12744,9.69951,-0.272754,0.60293,-40.7043,-86.9348,-153.973,-6.53076,-1.64795,-11.5356,-0.079895,-0.685242,0.100677,-0.716797,3783,-19174,14572,-8985,-28663
12750,9.65645,-0.14834,0.483301,-40.1715,-86.9788,-154.545,-6.04248,-3.2959,-10.6812,-0.0804749,-0.685364,0.100647,-0.716644,3783,-20710,14060,-8985,-28663
12756,9.65645,-0.119629,0.736914,-39.9188,-87.0831,-154.863,-2.74658,-8.66699,-6.83594,-0.0809631,-0.685547,0.100647,-0.7164,2503,-23782,15340,-8985,-28663
12762,9.81436,-0.229688,0.512012,-40.2539,-87.1436,-154.528,-0.610352,-11.5967,-5.24902,-0.0813904,-0.686188,0.100494,-0.715759,1479,-24294,16108,-8985,-28663
12768,9.78086,-0.272754,0.325391,-40.8087,-87.204,-153.962,0.732422,-13.3057,-3.90625,-0.0814209,-0.686615,0.100372,-0.715363,455,-24550,15084,-8985,-28663
12774,9.68994,-0.196191,0.291895,-41.5283,-87.2644,-153.232,1.58691,-14.1602,-2.86865,-0.0813599,-0.687073,0.100281,-0.714966,-570,-24038,13804,-8985,-28663
12780,9.69473,-0.172266,0.258398,-42.3578,-87.3248,-152.386,1.77002,-14.2212,-1.89209,-0.0812683,-0.6875,0.100189,-0.714539,-826,-24038,13292,-8985,-28663
12786,9.73301,-0.234473,0.215332,-44.2145,-87.4127,-150.48,3.479,-11.7188,1.09863,-0.0810852,-0.687958,0.100098,-0.714172,-570,-25830,16620,-8985,-28663
12792,9.8,-0.406738,-0.00478516,-44.9835,-87.4347,-149.678,4.39453,-9.21631,1.2207,-0.0805664,-0.688599,0.099884,-0.713623,-570,-27110,17900,-8985,-28663
12798,9.8335,-0.44502,-0.00957031,-45.5823,-87.4567,-149.057,3.2959,-7.32422,0.671387,-0.0803833,-0.688843,0.0997925,-0.71344,-826,-28390,19180,-8985,-28663
12804,9.79043,-0.387598,0.0717773,-45.8734,-87.4731,-148.76,1.28174,-4.3335,-0.488281,-0.0803528,-0.688965,0.099762,-0.713318,-2106,-28646,19948,-8985,-28663
12810,9.7665,-0.325391,0.215332,-45.9009,-87.4841,-148.738,-0.0610352,-1.89209,-1.46484,-0.0804138,-0.689026,0.099762,-0.713257,-3386,-28390,19948,-8985,-28663
12816,9.78086,-0.244043,0.263184,-45.8899,-87.5006,-148.788,-3.11279,-1.34277,-0.915527,-0.0805359,-0.689056,0.0997925,-0.713196,-5690,-26598,22764,-8994,-28662
12822,9.75693,-0.234473,0.344531,-46.0602,-87.5061,-148.634,-4.02832,-1.52588,0.488281,-0.0808105,-0.689087,0.100067,-0.713104,-6202,-26342,24044,-8994,-28662
12828,9.78086,-0.253613,0.363672,-46.4117,-87.5061,-148.315,-4.57764,-2.2583,1.89209,-0.0809021,-0.689117,0.100281,-0.713013,-6458,-26854,25324,-8985,-28663
12834,9.78564,-0.311035,0.248828,-46.9501,-87.5061,-147.799,-5.43213,-3.54004,2.99072,-0.0809631,-0.689209,0.100555,-0.712921,-6970,-27110,26092,-8985,-28663
12840,9.74258,-0.339746,0.186621,-47.5983,-87.5061,-147.178,-6.46973,-4.3335,3.41797,-0.0810242,-0.689301,0.100861,-0.712769,-7226,-27622,27116,-8985,-28663
12846,9.78564,-0.488086,0.320605,-48.9386,-87.5061,-145.931,-10.376,-4.45557,2.99072,-0.0811157,-0.689362,0.101257,-0.712616,-6202,-27878,26348,-8985,-28663
12852,9.73301,-0.416309,0.569434,-49.5374,-87.5171,-145.393,-11.1694,-5.18799,1.40381,-0.0815735,-0.689545,0.102081,-0.71228,-5690,-27622,25580,-8985,-28663
12858,9.87178,-0.349316,0.727344,-50.2185,-87.5391,-144.756,-9.94873,-7.26318,0.12207,-0.0818176,-0.689728,0.102417,-0.712006,-5178,-27110,25068,-8985,-28663
12864,9.95312,-0.406738,0.679492,-51.1743,-87.572,-143.811,-5.43213,-10.9253,-0.427246,-0.0819092,-0.690063,0.102539,-0.71167,-4922,-26342,25836,-8985,-28663
12870,9.9627,-0.478516,0.526367,-52.4048,-87.6215,-142.575,-2.31934,-14.6484,-1.58691,-0.0818481,-0.690521,0.102539,-0.711243,-4922,-26086,27372,-8985,-28663
12876,9.98662,-0.626855,0.349316,-55.3766,-87.7698,-139.57,0.183105,-19.5923,-6.34766,-0.0817871,-0.691071,0.102386,-0.710724,-4410,-25574,32492,-8985,-28663
12882,9.96748,-0.655566,0.186621,-56.684,-87.8632,-138.241,1.15967,-19.5312,-10.437,-0.0819092,-0.692352,0.101837,-0.709564,-4666,-25574,-30484,-8985,-28663
12888,9.87178,-0.416309,0.100488,-57.6343,-87.973,-137.274,2.99072,-18.5547,-15.2588,-0.0821533,-0.692993,0.101318,-0.708984,-5690,-25574,-27668,-8985,-28663
12894,9.7043,-0.153125,-0.00478516,-58.2385,-88.0939,-136.642,4.02832,-17.1509,-18.6768,-0.082489,-0.693604,0.100677,-0.708435,-6714,-26086,-25108,-8985,-28663
12900,9.65166,-0.0287109,-0.00478516,-58.7109,-88.2147,-136.148,4.63867,-15.5029,-18.6157,-0.0828247,-0.694153,0.100006,-0.707947,-8250,-26854,-23572,-8985,-28663
12906,9.60381,0.00957031,-0.234473,-59.1119,-88.385,-135.681,6.46973,-8.54492,-12.6343,-0.0830688,-0.694611,0.0993958,-0.70755,-11578,-27622,-19220,-8985,-28663
12912,39.1952,39.1474,33.5918,-19.2755,-88.5498,-175.281,59.9976,105.286,-182.007,-0.087738,-0.692596,0.0914612,-0.710022,-12858,-28134,-17684,-8985,-28663
12918,6.45039,78.3426,-50.4308,37.0294,-83.6609,129.1,115.906,737.305,-852.722,-0.112305,-0.672699,0.058075,-0.728943,-15674,-30950,-18196,-8985,-28663
12924,71.0739,-53.9144,156.436,23.67,-82.4139,142.493,-72.876,363.281,159.607,-0.108734,-0.660126,0.0611267,-0.740662,-21050,29722,-24084,-8985,-28663
12930,2.8041,2.75625,20.5905,13.0573,-81.601,153.177,-35.9497,232.117,225.159,-0.102142,-0.651428,0.0668335,-0.748749,-26426,24346,-31508,-8985,-28663
12936,8.14434,-5.85703,7.35,3.5376,-82.6337,163.021,-7.26318,-197.021,126.099,-0.0960999,-0.650543,0.0706177,-0.749969,26054,10522,9964,-8985,-28663
12942,13.9583,-3.4501,2.68926,0.12085,-84.1663,166.245,-71.5942,-320.74,78.064,-0.0881348,-0.665466,0.0794373,-0.736877,22214,5658,-2325,-8994,-28662
12948,13.7717,-3.26826,-10.7188,-3.2959,-85.3748,169.799,-4.5166,-260.864,52.7344,-0.0847473,-0.673126,0.0812988,-0.730072,20422,2586,-10773,-8994,-28662
12954,3.1582,-2.18203,-5.27803,-4.69666,-85.8911,171.788,89.2944,-120.667,18.4937,-0.0802002,-0.676819,0.0786438,-0.727448,19654,794,-15637,-8994,-28662
12960,10.6518,-4.12002,-4.88086,-2.61475,-85.9845,170.2,71.5942,-31.6162,-27.832,-0.0779724,-0.677765,0.0748596,-0.727203,19398,-231,-19221,-8994,-28662
12966,10.0632,-0.133984,-5.2876,5.46021,-85.4187,162.521,-12.7563,56.6406,-69.7021,-0.0776367,-0.67688,0.0708923,-0.728485,20422,-1255,-18197,-8994,-28662
12984,10.9102,2.01934,2.41172,7.49817,-84.9133,159.933,-51.6968,-1.89209,13.6108,-0.0847168,-0.671692,0.0697937,-0.732605,18886,-4071,-22037,-8994,-28662
12990,9.32148,0.0191406,1.88057,5.09766,-84.9573,162.356,-26.2451,-15.686,39.856,-0.083252,-0.671692,0.0710144,-0.732635,17606,-5863,-22805,-8994,-28662
12996,11.4222,-1.73223,0.31582,0.362549,-85.0836,167.421,8.78906,-21.0571,33.3862,-0.0785217,-0.672302,0.0717163,-0.732513,15814,-9959,-19221,-8994,-28662
13002,11.0489,-1.08145,-0.0957031,-0.181274,-85.1111,168.162,10.3149,-14.4043,9.27734,-0.0769958,-0.672546,0.0708923,-0.732544,15814,-11751,-17173,-8994,-28662
13008,9.74258,0.153125,0.00478516,0.335083,-85.1166,167.805,6.53076,-9.82666,-9.33838,-0.0762329,-0.672729,0.0696411,-0.732574,15814,-12519,-15381,-8994,-28662
13014,7.96729,0.866113,0.483301,1.10962,-85.1001,167.173,2.86865,-5.43213,-13.9771,-0.0757141,-0.67276,0.0683899,-0.732727,16070,-12775,-13589,-8994,-28662
13020,9.37412,0.90918,-0.277539,1.49414,-85.0726,166.954,5.12695,-2.92969,-7.01904,-0.0749207,-0.672699,0.0672302,-0.732941,15046,-13031,-11285,-8994,-28662
13026,9.38369,0.598145,-0.062207,0.395508,-84.9353,168.387,5.85938,11.1694,14.0991,-0.0722656,-0.671936,0.0657349,-0.734039,11974,-14055,-6677,-8994,-28662
13032,10.1732,-0.129199,0.856543,-0.571289,-84.8474,169.525,4.15039,11.2305,17.4561,-0.0707092,-0.671417,0.0652466,-0.734741,10694,-13287,-4885,-8994,-28662
13038,9.59902,0,1.07187,-1.54907,-84.7705,170.662,3.05176,8.17871,18.1274,-0.0691833,-0.67099,0.0648193,-0.735321,10950,-12775,-4373,-8994,-28662
13044,9.85742,0,0.923535,-2.52136,-84.7266,171.782,1.09863,2.56348,18.1885,-0.0677185,-0.670746,0.0644836,-0.735718,11718,-12007,-4629,-8994,-28662
13050,9.84307,0.090918,0.665137,-3.5376,-84.7156,172.936,-0.793457,-4.82178,18.6768,-0.0662231,-0.670746,0.0642395,-0.73587,12742,-11239,-4373,-8985,-28663
13056,10.1254,-0.0717773,0.631641,-5.92163,-84.7101,175.605,0.366211,-6.53076,22.4609,-0.0630493,-0.670868,0.0639343,-0.736053,14278,-9959,-5397,-8985,-28663
13062,9.78564,-0.425879,0.679492,-7.08069,-84.7046,176.913,1.52588,-5.92041,21.7285,-0.0614014,-0.670898,0.0636902,-0.736176,14534,-9447,-5909,-8994,-28662
13068,9.69473,-0.373242,0.478516,-8.05847,-84.7046,178.05,2.31934,-7.44629,18.3716,-0.0598755,-0.671021,0.0633545,-0.736206,15302,-8679,-6677,-8994,-28662
13074,9.7043,-0.354102,0.387598,-8.87695,-84.7156,179.011,0.305176,-8.66699,14.9536,-0.0585022,-0.671204,0.0629883,-0.736206,16582,-7911,-7445,-8994,-28662
13080,9.95791,-0.277539,0.143555,-9.54712,-84.7266,179.813,-0.793457,-8.42285,11.9629,-0.057251,-0.671387,0.062561,-0.736176,18374,-7143,-7701,-8994,-28662
13086,9.53682,-0.258398,0.358887,-10.448,-84.7101,-179.028,-2.31934,-1.40381,7.93457,-0.0551147,-0.671448,0.0615845,-0.736359,22470,-4583,-8469,-8994,-28662
13092,9.76172,-0.229688,0.421094,-10.7336,-84.6881,-178.616,-1.77002,-0.671387,6.16455,-0.0541382,-0.671417,0.0610352,-0.736511,24262,-2791,-7957,-8994,-28662
13098,10.068,-0.272754,0.349316,-10.9424,-84.6716,-178.286,-2.50244,0.12207,4.76074,-0.0532227,-0.671356,0.0604553,-0.736664,25798,-999,-7189,-8994,-28662
13104,9.8,-0.311035,0.459375,-11.0852,-84.6497,-178.028,-2.50244,0.854492,3.60107,-0.0523682,-0.671295,0.0598755,-0.736847,26822,794,-5653,-8994,-28662
13110,9.91006,-0.387598,0.401953,-11.1401,-84.6222,-177.858,-2.62451,2.13623,2.19727,-0.0515747,-0.671204,0.0592346,-0.73703,27846,2074,-4117,-8994,-28662
13116,9.76172,-0.30625,0.521582,-10.9204,-84.5728,-177.852,-2.38037,3.60107,-1.77002,-0.0502319,-0.670959,0.0578308,-0.737457,30918,3866,-2837,-8994,-28662
13122,9.5416,-0.0478516,0.46416,-10.6952,-84.5453,-177.962,-1.77002,4.15039,-2.80762,-0.0496216,-0.670837,0.0570679,-0.737671,-32570,3866,-2069,-8994,-28662
13128,9.70908,-0.0957031,0.320605,-10.5524,-84.5123,-177.995,-1.28174,5.31006,-1.09863,-0.0489502,-0.670654,0.056366,-0.737915,-31034,4378,-2581,-8994,-28662
13134,9.75693,-0.114844,0.215332,-10.4425,-84.4684,-177.99,-0.671387,7.69043,0,-0.0482483,-0.67041,0.0556335,-0.738251,-30010,5146,-2325,-8994,-28662
13140,9.65645,-0.0669922,0.842188,-10.3381,-84.397,-177.973,-0.183105,12.4512,1.09863,-0.0474854,-0.670044,0.0549316,-0.738708,-30010,5658,-3349,-8994,-28662
13146,9.84785,0,0.717773,-10.3271,-84.2432,-177.742,1.64795,13.7939,4.57764,-0.0458069,-0.669159,0.0535889,-0.739685,-29754,8730,-4373,-8994,-28662
13152,9.74258,-0.00957031,0.727344,-10.5139,-84.1718,-177.424,2.50244,12.4512,7.26318,-0.0447998,-0.668762,0.0529785,-0.740143,-29498,10522,-5141,-8994,-28662
13158,9.74258,-0.0861328,0.645996,-10.8105,-84.1058,-176.99,2.50244,10.9863,9.46045,-0.0437012,-0.668427,0.0524292,-0.74057,-28986,12058,-5653,-8994,-28662
13164,9.68516,-0.143555,0.569434,-11.1566,-84.0399,-176.512,1.89209,10.498,10.498,-0.042572,-0.668091,0.0519409,-0.740967,-27962,13594,-6421,-8994,-28662
13170,9.79521,-0.143555,0.631641,-11.5631,-83.9795,-175.984,1.15967,9.82666,11.6577,-0.0414429,-0.667786,0.0515137,-0.741333,-26938,14106,-6421,-8994,-28662
13176,9.79521,-0.0669922,0.722559,-12.4695,-83.8531,-174.825,0.915527,9.39941,13.6108,-0.0391235,-0.667175,0.0507507,-0.742065,-26426,14362,-7445,-8994,-28662
13182,9.68994,-0.0334961,0.913965,-13.0573,-83.7982,-174.106,1.46484,7.87354,16.0522,-0.0378418,-0.666931,0.0504456,-0.742371,-25914,14874,-8213,-8994,-28662
13188,9.72344,-0.172266,0.813477,-13.7769,-83.7543,-173.254,1.77002,4.69971,18.4937,-0.036438,-0.666779,0.0501709,-0.742584,-25658,15130,-8469,-8994,-28662
13194,9.79521,-0.291895,0.684277,-14.6063,-83.7158,-172.293,1.2207,2.19727,20.6299,-0.0349731,-0.666718,0.0499878,-0.742737,-25402,15642,-9493,-8994,-28662
13200,9.70908,-0.291895,0.727344,-15.4962,-83.6829,-171.271,0.427246,0.610352,22.2778,-0.0335083,-0.666687,0.0498657,-0.742828,-24378,15642,-10261,-8994,-28662
13206,9.81914,-0.325391,0.665137,-17.3364,-83.6115,-169.162,0.732422,0.427246,23.2544,-0.0304871,-0.666656,0.0496521,-0.743011,-22842,17434,-13845,-8994,-28662
13212,9.70908,-0.45459,0.732129,-18.2812,-83.5785,-168.085,1.34277,0.427246,23.6816,-0.0289001,-0.666626,0.04953,-0.743103,-21306,19482,-15893,-8994,-28662
13218,9.85264,-0.559863,0.655566,-19.2096,-83.5345,-167.014,2.2583,0.793457,23.9258,-0.0273132,-0.666595,0.049408,-0.743195,-20026,21530,-16661,-8994,-28662
13224,9.96748,-0.77041,0.593359,-20.05,-83.4961,-166.031,3.23486,0.854492,22.1558,-0.0257263,-0.666595,0.0491943,-0.743286,-18490,23834,-17173,-8994,-28662
13230,10.0058,-0.91875,0.540723,-20.7312,-83.4576,-165.212,2.31934,2.68555,13.0615,-0.0243225,-0.666565,0.0489197,-0.743378,-17210,26650,-18197,-8994,-28662
13236,10.0249,-0.784766,0.669922,-21.3354,-83.3972,-164.366,1.89209,3.72314,6.5918,-0.0222473,-0.666412,0.0480347,-0.743622,-14138,31514,-17429,-8994,-28662
13242,9.89092,-0.526367,0.832617,-21.275,-83.3807,-164.317,1.77002,4.3335,1.15967,-0.0215454,-0.666321,0.0474243,-0.743774,-12346,-31206,-17173,-8994,-28662
13248,9.80479,-0.483301,0.856543,-21.1322,-83.3698,-164.361,1.83105,3.35693,-1.40381,-0.0209351,-0.66629,0.0467224,-0.743866,-10298,-29158,-16917,-8994,-28662
13254,9.85742,-0.550293,0.722559,-20.9674,-83.3698,-164.416,2.86865,1.77002,-2.50244,-0.0203552,-0.66629,0.0460205,-0.743927,-8762,-27110,-17941,-8994,-28662
13260,9.74736,-0.526367,0.703418,-20.7642,-83.3698,-164.515,2.68555,0.549316,-5.24902,-0.0198364,-0.666321,0.0452271,-0.743958,-7226,-25062,-19221,-8994,-28662
13266,9.85264,-0.358887,0.91875,-20.2588,-83.3972,-164.844,0.793457,0,-5.92041,-0.019043,-0.666412,0.0438232,-0.743958,-3386,-22502,-24853,-8994,-28662
13272,-70.27,-35.7882,-9.75693,-19.9347,-83.4137,-165.092,-0.0610352,-0.244141,-7.8125,-0.0188293,-0.666504,0.0431213,-0.743958,-1338,-21990,-27669,-8994,-28662
13278,61.9965,11.537,-44.2483,0.461426,-84.4409,175.66,275.513,-132.935,-442.81,-0.0252686,-0.67157,0.0223999,-0.740082,-58,-22502,-28693,-8994,-28662
13284,12.6424,52.3735,15.8149,25.2631,-82.8149,150.529,13.1836,190.063,-618.225,-0.0462036,-0.665863,0.00546265,-0.744537,-826,-24806,-29717,-8994,-28662
13290,35.1183,-13.6712,52.7994,18.3417,-82.5897,157.67,-53.4668,14.4043,164.429,-0.0404053,-0.662323,0.00866699,-0.747986,-4922,-29670,-31509,-8994,-28662
13296,2.03848,-12.0203,4.9,7.75635,-83.8806,168.184,-53.5889,-217.041,122.742,-0.0313416,-0.668427,0.0185242,-0.742798,-15418,24602,29419,-8994,-28662
13302,-4.48848,-8.07256,-8.92432,9.99756,-85.5835,166.185,19.4702,-348.572,9.27734,-0.0290833,-0.679504,0.0178528,-0.732788,-21306,18970,27115,-8994,-28662
13308,15.1689,-0.803906,-13.3602,36.3318,-87.7588,140.295,71.0449,-513.245,-113.831,-0.0292664,-0.69577,0.0122681,-0.717499,-25914,15386,25579,-8994,-28662
13314,1.58389,2.86631,-15.7767,66.3629,-87.8687,110.248,-17.334,-193.848,-130.005,-0.03302,-0.701721,0.00866699,-0.711548,-29498,12314,28139,-8994,-28662
13320,2.39258,4.69902,-3.03857,78.0963,-87.4731,98.2068,-55.6641,44.1895,-47.2412,-0.0380554,-0.703827,0.00738525,-0.709259,31430,8730,-30229,-8994,-28662
13326,6.85234,3.17256,0.555078,63.7427,-86.9952,112.467,-11.4746,114.014,-2.56348,-0.0402222,-0.698792,0.00646973,-0.714081,20166,-743,-7189,-8994,-28662
13332,8.1252,1.97148,1.59824,53.2178,-86.814,123.322,16.5405,116.943,27.8931,-0.037384,-0.69519,0.00518799,-0.717773,13766,-5863,4588,-8994,-28662
13338,11.1063,0.0717773,3.11035,43.6267,-86.7151,133.27,15.8081,94.1772,57.8613,-0.0334473,-0.692261,0.00473022,-0.720795,6854,-10727,14572,-8994,-28662
13344,12.9486,-1.56953,2.0002,36.4526,-86.7096,140.773,11.8408,54.4434,61.8286,-0.0295105,-0.690552,0.00460815,-0.722595,1478,-14823,22764,-8994,-28662
13350,11.9198,-2.32559,1.10537,30.52,-86.7755,147.25,4.15039,3.41797,17.0898,-0.0262451,-0.68985,0.00421143,-0.723419,-2363,-18151,28652,-8994,-28662
13356,10.5465,-0.497656,-1.01924,31.4539,-86.7645,146.503,-1.46484,-3.90625,-11.4746,-0.0232544,-0.68985,0.00186157,-0.72348,-6971,-22503,-29716,-8994,-28662
13362,9.45068,0.282324,-0.985742,33.3435,-86.6986,144.756,-6.89697,0.488281,-27.5269,-0.0231323,-0.68985,0.000183105,-0.723511,-8763,-23527,-26900,-8994,-28662
13368,9.56553,0.880469,-1.14365,34.9915,-86.5723,143.223,-12.0239,10.3149,-32.1045,-0.0233459,-0.689545,-0.00140381,-0.723816,-9787,-24295,-25364,-8994,-28662
13374,8.78555,0.344531,-0.387598,35.7001,-86.4075,142.608,-17.2119,21.7896,-27.71,-0.0235596,-0.688843,-0.0027771,-0.724426,-11579,-25831,-22804,-8994,-28662
13380,9.38369,0.282324,0.215332,35.4144,-86.0339,143.069,-19.165,33.02,-20.5078,-0.0236816,-0.687897,-0.0039978,-0.725342,-13627,-27367,-20500,-8994,-28662
13386,10.4125,0.492871,0.62207,35.1123,-85.8417,143.465,-17.6392,34.6069,-20.6299,-0.0237122,-0.68576,-0.0062561,-0.727325,-18491,-31975,-16660,-8994,-28662
13392,9.95312,0.325391,0.866113,34.8596,-85.6659,143.811,-18.7988,31.9214,-19.165,-0.0236816,-0.684753,-0.00735474,-0.728271,-21307,31769,-15380,-8994,-28662
13398,9.54639,0.44502,0.416309,34.8541,-85.4901,143.921,-16.4185,28.8696,-21.2402,-0.0236206,-0.683838,-0.00857544,-0.729126,-23867,29465,-15124,-8994,-28662
13404,9.50332,0.60293,0.980957,34.9585,-85.3198,143.921,-15.3809,27.6489,-22.522,-0.0235901,-0.682983,-0.0098877,-0.729919,-27195,27673,-16148,-8994,-28662
13410,9.40283,0.904395,0.976172,35.2057,-85.0507,143.926,-10.8643,18.7378,-16.4185,-0.0234985,-0.68219,-0.0111389,-0.730621,31941,23065,-19732,-8994,-28662
13416,9.68516,1.1293,0.899609,35.2606,-84.9847,144.02,-10.8643,11.3525,-9.94873,-0.0223999,-0.681244,-0.0136108,-0.731537,28613,21273,-21524,-8985,-28663
13422,9.33584,1.00967,1.08623,35.1727,-84.9573,144.267,-9.94873,5.49316,-2.62451,-0.0214233,-0.681061,-0.0145874,-0.731689,26053,19737,-22804,-8985,-28663
13428,9.30713,0.789551,0.961816,34.9255,-84.9738,144.695,-7.75146,0.610352,4.45557,-0.0201416,-0.68103,-0.0155029,-0.73175,23237,18201,-24084,-8985,-28663
13434,9.42197,0.703418,0.669922,34.6234,-85.0122,145.201,-2.99072,-3.05176,8.54492,-0.0185547,-0.681122,-0.0164185,-0.731689,20933,17177,-24852,-8985,-28663
13440,9.56074,0.641211,0.406738,33.7665,-85.1495,146.492,-2.0752,-7.62939,15.3198,-0.0167847,-0.681305,-0.017334,-0.731506,18373,15897,-25876,-8985,-28663
13446,9.26406,0.756055,0.60293,33.0304,-85.2374,147.442,-3.479,-7.01904,19.4092,-0.0129395,-0.681763,-0.0188293,-0.73114,15045,12825,-26388,-8985,-28663
13452,9.5416,0.856543,0.45459,32.0306,-85.3308,148.672,-1.52588,-6.5918,24.0479,-0.0107117,-0.681976,-0.0195007,-0.730988,14021,10777,-25364,-8985,-28663
13458,9.70908,0.574219,0.430664,30.7397,-85.4297,150.216,0.549316,-6.46973,28.8696,-0.00823975,-0.682159,-0.0201111,-0.730804,12741,9753,-24852,-8985,-28663
13464,9.97705,0.334961,0.358887,29.1248,-85.5396,152.095,1.89209,-5.67627,33.3862,-0.00558472,-0.682343,-0.0206604,-0.730652,11461,10009,-23828,-8985,-28663
13470,9.9627,0.196191,0.334961,25.4828,-85.7373,156.275,2.50244,-4.5166,34.3628,-0.00280762,-0.682495,-0.0212097,-0.73053,10949,13081,-23572,-8985,-28663
13476,9.70908,0.196191,0.196191,23.5437,-85.8252,158.489,1.95312,-3.78418,33.9355,0.00268555,-0.682709,-0.0223999,-0.730255,11461,15385,-23828,-8985,-28663
13482,9.74258,0.215332,0.224902,21.4893,-85.9021,160.812,0.793457,-3.11279,34.1797,0.00543213,-0.6828,-0.0229797,-0.730164,12741,17689,-24596,-8985,-28663
13488,9.64209,0.224902,0.387598,19.292,-85.9735,163.279,0.183105,-1.95312,34.79,0.00817871,-0.682831,-0.0235291,-0.730072,14021,20505,-25108,-8985,-28663
13494,9.90527,0.14834,0.382812,16.9739,-86.0284,165.872,0.732422,-0.488281,35.0342,0.0109863,-0.682831,-0.0241394,-0.730011,15813,23065,-25108,-8985,-28663
13500,9.83828,0.0717773,0.46416,12.1179,-86.1163,171.293,1.15967,-0.915527,35.3394,0.013855,-0.6828,-0.0247192,-0.72998,20421,26649,-24340,-8985,-28663
13506,9.84785,-0.0191406,0.234473,9.65698,-86.1548,174.04,2.01416,-1.34277,35.0952,0.0195923,-0.682831,-0.0260315,-0.729797,23237,27673,-23828,-8985,-28663
13512,9.84785,-0.210547,0.15791,7.229,-86.1823,176.759,1.89209,-1.28174,34.1187,0.0224609,-0.682831,-0.0267334,-0.729675,25797,28697,-23828,-8985,-28663
13518,9.93877,-0.263184,0.0765625,4.92737,-86.1987,179.346,0.915527,0.0610352,31.8604,0.0252075,-0.6828,-0.0274963,-0.729584,29125,31001,-23572,-8994,-28662
13524,9.9627,-0.272754,0.301465,2.79602,-86.1987,-178.237,-0.366211,2.0752,29.2969,0.0278931,-0.682678,-0.0282898,-0.729553,31941,-32487,-23572,-8994,-28662
13530,9.9627,-0.311035,0.411523,-0.664673,-86.1548,-174.227,-1.2207,5.06592,22.3389,0.0303955,-0.682495,-0.0291748,-0.729584,-27451,-26087,-23828,-8994,-28662
13536,10.1015,-0.416309,0.550293,-1.91162,-86.1328,-172.711,-1.40381,4.08936,17.8833,0.0350342,-0.682129,-0.0312195,-0.729675,-25147,-22247,-22548,-8994,-28662
13542,9.98184,-0.320605,0.579004,-2.82349,-86.1163,-171.546,-2.86865,2.0752,13.2446,0.0370483,-0.682007,-0.0323486,-0.729614,-22843,-18919,-21780,-8994,-28662
13548,9.85742,-0.325391,0.60293,-3.48267,-86.1218,-170.634,-4.15039,-0.549316,9.64355,0.0388794,-0.681976,-0.0335083,-0.729523,-21051,-15079,-21268,-8994,-28662
13554,9.87656,-0.287109,0.535937,-3.96606,-86.1328,-169.915,-4.45557,-2.62451,6.95801,0.0405579,-0.682007,-0.034729,-0.72934,-19003,-11495,-19732,-8994,-28662
13560,9.89092,-0.234473,0.516797,-4.50439,-86.1768,-168.904,-2.31934,-4.57764,3.05176,0.0422058,-0.682068,-0.0360413,-0.729126,-14651,-6119,-15636,-8994,-28662
13566,9.86699,-0.320605,0.397168,-4.64172,-86.2042,-168.53,-2.01416,-5.43213,1.95312,0.0453186,-0.682251,-0.0387573,-0.728607,-12603,-3815,-13076,-8994,-28662
13572,9.92441,-0.440234,0.373242,-4.71313,-86.2317,-168.223,-1.64795,-5.92041,1.0376,0.0467834,-0.682373,-0.0401306,-0.728333,-9787,-2279,-9748,-8994,-28662
13578,9.81914,-0.339746,0.358887,-4.56482,-86.2646,-168.151,-1.40381,-5.61523,-1.95312,0.0481567,-0.682465,-0.0415649,-0.728058,-6715,26,-8468,-8994,-28662
13584,9.85264,-0.100488,0.45459,-4.21326,-86.2921,-168.272,-0.427246,-4.76074,-4.45557,0.049408,-0.682526,-0.0430603,-0.727844,-3643,1562,-6164,-8994,-28662
13590,4.8043,0.689063,1.15801,-2.54333,-86.3251,-169.503,0.0610352,-0.244141,-15.1978,0.0505981,-0.682587,-0.0445557,-0.7276,1222,3610,-4628,-8994,-28662
13596,-7.47441,94.2054,-26.2849,21.5717,-83.7817,167.179,181.763,425.598,-491.089,0.042572,-0.667358,-0.0652161,-0.740601,1990,4378,-4884,-8994,-28662
13602,47.3013,-24.3804,68.289,13.5901,-81.7657,174.117,-154.358,457.031,42.3584,0.0388489,-0.653656,-0.0559998,-0.753662,1222,2842,-7444,-8994,-28662
13608,2.55049,0.344531,-6.00059,6.47095,-81.4966,-178.698,-57.6782,78.7354,185.669,0.0454102,-0.651154,-0.0501404,-0.755859,-571,1050,-15380,-8994,-28662
13614,-2.17725,-4.0291,13.6138,2.19177,-81.4362,-174.089,-0.305176,12.9395,125.793,0.0515137,-0.650604,-0.0480957,-0.756073,-2363,-999,-26644,-8994,-28662
13620,-7.62275,-4.97656,6.72793,-4.2572,-83.6279,-168.151,-70.5566,-294.556,21.7285,0.0521851,-0.656219,-0.0422363,-0.751526,-5179,-3815,14572,-8994,-28662
13626,12.8769,2.77061,-12.0155,-2.94434,-84.765,-169.206,4.69971,-236.816,-47.3633,0.0521851,-0.672638,-0.0444641,-0.736725,-4923,-2791,6636,-8994,-28662
13632,-1.11016,4.04824,-6.68486,-0.549316,-85.3473,-171.227,25.2075,-123.352,-46.6919,0.052948,-0.676056,-0.0483093,-0.733276,-4411,-1255,3820,-8994,-28662
13638,8.76641,1.03838,1.27764,-0.692139,-85.2539,-170.887,-17.0288,9.52148,-1.09863,0.0542908,-0.675415,-0.0493164,-0.733704,-3899,538,6124,-8994,-28662
13644,8.58936,0.995313,-2.35908,-1.64795,-85.0177,-169.607,8.97217,39.2456,15.9302,0.0570374,-0.673798,-0.0505676,-0.734894,-3899,2330,9452,-8994,-28662
13650,10.6996,-1.11494,2.64619,-4.19128,-84.2596,-166.399,0,56.8848,25.5127,0.0605469,-0.670959,-0.0516968,-0.737152,-3643,5402,14316,-8994,-28662
13656,10.9197,-0.880469,1.96191,-4.86145,-84.0839,-165.498,-7.62939,27.5269,13.916,0.0654297,-0.667694,-0.0531921,-0.739563,-3643,7194,13804,-8994,-28662
13662,12.2356,-0.378027,0.401953,-5.02075,-84.0509,-165.146,-15.0757,0.732422,0.732422,0.066803,-0.667419,-0.0541382,-0.739624,-2619,8986,13292,-8994,-28662
13668,9.39805,0.0574219,0.832617,-4.83398,-84.0839,-165.157,-16.7847,-11.1694,-7.56836,0.0678101,-0.667511,-0.0553284,-0.739349,-2107,10522,13548,-8994,-28662
13674,9.32627,0.110059,0.980957,-4.60327,-84.1333,-165.201,-14.4653,-13.6719,-8.17871,0.0688171,-0.667694,-0.0566406,-0.739014,-1083,12314,13548,-8994,-28662
13680,9.65166,0.00957031,-0.0382813,-4.08691,-84.1882,-165.218,0.305176,-5.7373,-6.71387,0.0701294,-0.667847,-0.058197,-0.738617,198,14874,17900,-8994,-28662
13686,10.3455,0.248828,-0.124414,-3.90015,-84.1608,-165.157,-2.0752,2.74658,-4.15039,0.0731506,-0.667419,-0.0614014,-0.738464,198,16154,19692,-8994,-28662
13692,8.57022,0.124414,1.00967,-3.74084,-84.0894,-165.075,-3.90625,10.7422,-2.99072,0.074646,-0.66684,-0.0628357,-0.738739,198,17178,20972,-8994,-28662
13698,9.4459,0.0526367,1.0623,-3.7738,-84.0015,-164.806,-4.57764,14.3433,1.15967,0.0762939,-0.666138,-0.0640869,-0.739075,198,17946,22764,-8994,-28662
13704,9.8957,0.196191,0.842188,-3.90015,-83.9191,-164.427,-0.793457,13.4888,3.60107,0.0780945,-0.665466,-0.0653992,-0.739349,-59,18970,23788,-8994,-28662
13710,9.58945,0.0191406,1.15322,-4.43848,-83.7817,-163.372,-0.0610352,9.21631,8.23975,0.0799561,-0.664856,-0.0666809,-0.739624,198,19994,26860,-8994,-28662
13716,9.79043,-0.090918,1.21064,-4.83398,-83.7378,-162.724,-0.671387,4.82178,9.27734,0.0838623,-0.664001,-0.0690613,-0.739746,198,20762,28140,-8994,-28662
13722,9.78564,-0.339746,1.00488,-5.27893,-83.7158,-162.021,0.183105,1.15967,10.376,0.0858459,-0.663757,-0.0702209,-0.739624,710,21530,29164,-8994,-28662
13728,10.0153,-0.478516,0.765625,-5.66895,-83.7158,-161.378,0.305176,-2.74658,8.66699,0.087738,-0.663635,-0.0714417,-0.73938,1478,22810,29164,-8994,-28662
13734,9.85264,-0.16748,0.775195,-5.90515,-83.7268,-160.895,-0.732422,-4.76074,5.06592,0.0894775,-0.663605,-0.0727234,-0.739075,2758,23834,28908,-8994,-28662
13740,9.86221,0.0957031,0.75127,-6.1853,-83.7433,-160.137,-1.28174,-2.99072,3.2959,0.0910645,-0.663544,-0.0740356,-0.7388,4806,25882,27116,-8994,-28662
13746,9.53682,-0.0669922,0.703418,-6.40503,-83.7433,-159.675,0.183105,-2.13623,5.06592,0.0944214,-0.6633,-0.0765991,-0.738342,5574,26906,27116,-8994,-28662
13752,9.3502,-0.16748,0.717773,-6.67969,-83.7433,-159.153,0.488281,-1.46484,6.5918,0.0961914,-0.663147,-0.0778503,-0.738098,5574,27674,27372,-8994,-28662
13758,10.0728,-0.105273,0.47373,-6.93787,-83.7323,-158.648,1.0376,-0.732422,6.28662,0.0979614,-0.662994,-0.0791016,-0.737885,5830,27418,27884,-8994,-28662
13764,9.59902,-0.090918,0.832617,-7.16309,-83.7158,-158.176,0.610352,1.58691,5.92041,0.0997314,-0.66275,-0.0803528,-0.737732,6086,27674,28396,-8994,-28662
13770,9.86699,-0.200977,0.756055,-7.58057,-83.6719,-157.275,1.28174,2.80762,5.67627,0.101471,-0.662445,-0.081543,-0.73764,6342,27674,27628,-8994,-28662
13776,9.8957,-0.311035,0.856543,-7.72888,-83.6499,-156.885,0.976562,2.19727,4.45557,0.104889,-0.661926,-0.0840759,-0.737366,6598,28442,27884,-8994,-28662
13782,9.91006,-0.330176,0.803906,-7.84424,-83.6444,-156.533,0.732422,0.915527,3.479,0.106506,-0.661682,-0.0853271,-0.737183,7110,28442,28140,-8994,-28662
13788,9.94834,-0.282324,0.832617,-7.8772,-83.6389,-156.27,0,-0.244141,1.46484,0.108002,-0.661499,-0.0866394,-0.736969,6854,28698,28140,-8994,-28662
13794,9.71387,-0.224902,0.856543,-7.86621,-83.6444,-156.055,-0.0610352,-1.40381,0.183105,0.109436,-0.661377,-0.0879517,-0.736725,7110,29210,28140,-8994,-28662
13800,9.77607,-0.162695,0.823047,-7.80029,-83.6664,-155.671,0.244141,-3.41797,-0.732422,0.11084,-0.661255,-0.0892944,-0.736481,7366,29466,30444,-8994,-28662
13806,9.56074,-0.0526367,0.870898,-7.81128,-83.6884,-155.44,0.12207,-3.84521,0.244141,0.113617,-0.661102,-0.0919189,-0.73584,7622,30234,31212,-8994,-28662
13812,9.98184,0.00478516,0.75127,-7.85522,-83.7103,-155.176,0.549316,-4.94385,0.976562,0.115051,-0.661072,-0.0932312,-0.735504,7622,31002,31468,-8994,-28662
13818,9.58945,-0.13877,0.880469,-7.96509,-83.7323,-154.836,0.793457,-5.06592,2.50244,0.116516,-0.661041,-0.0944824,-0.735138,7622,32538,31980,-8994,-28662
13824,9.90049,-0.200977,0.741699,-8.12439,-83.7543,-154.457,1.34277,-5.06592,3.479,0.118011,-0.661011,-0.0957336,-0.734741,7878,-31974,31980,-8994,-28662
13830,9.72344,-0.133984,0.746484,-8.41003,-83.8092,-153.721,1.34277,-6.28662,2.92969,0.120972,-0.661041,-0.0982056,-0.733917,8902,-30950,31212,-8994,-28662
13836,9.78086,-0.0334961,0.564648,-8.55835,-83.8367,-153.353,1.46484,-5.98145,3.11279,0.122437,-0.661041,-0.0994568,-0.73349,9158,-30950,29420,-8994,-28662
13842,9.64688,-0.0526367,0.583789,-8.70667,-83.8531,-152.985,1.2207,-4.5166,3.2959,0.123901,-0.661011,-0.100677,-0.733124,9414,-30950,27628,-8994,-28662
13848,9.68037,-0.124414,0.559863,-8.89893,-83.8641,-152.567,1.77002,-2.44141,4.63867,0.125458,-0.660919,-0.101868,-0.732788,9926,-30950,25580,-8994,-28662
13854,9.83828,-0.14834,0.6125,-9.09668,-83.8641,-152.144,2.31934,-0.305176,5.24902,0.127014,-0.660736,-0.103027,-0.732513,10438,-30438,24300,-8994,-28662
13860,9.80479,-0.181836,0.593359,-9.45374,-83.8312,-151.342,2.19727,3.05176,4.94385,0.130157,-0.660217,-0.105316,-0.732086,12486,-28902,23788,-8994,-28662
13866,9.78086,-0.406738,0.679492,-9.54163,-83.8092,-151.035,2.19727,4.15039,3.60107,0.131653,-0.659912,-0.106476,-0.731934,13510,-28134,23788,-8994,-28662
13872,9.90049,-0.406738,0.756055,-9.53064,-83.7872,-150.831,1.46484,4.88281,1.46484,0.133057,-0.659546,-0.107666,-0.731842,14278,-27366,24812,-8994,-28662
13878,9.8957,-0.358887,0.861328,-9.3988,-83.7653,-150.754,1.15967,5.31006,-1.28174,0.134308,-0.65921,-0.108887,-0.73175,14790,-27366,25836,-8994,-28662
13884,9.84307,-0.239258,0.92832,-9.19006,-83.7433,-150.765,0.976562,4.88281,-3.23486,0.135498,-0.658844,-0.110138,-0.731659,14790,-26854,25836,-8994,-28662
13890,9.86699,-0.244043,0.971387,-8.65723,-83.7323,-150.908,0.671387,1.46484,-5.37109,0.137665,-0.658264,-0.112701,-0.731384,15046,-24550,24300,-8994,-28662
13896,9.77129,-0.210547,0.952246,-8.39355,-83.7488,-150.98,0.610352,-1.52588,-5.61523,0.138702,-0.658112,-0.113983,-0.73111,15302,-24806,23020,-8994,-28662
13902,9.81914,-0.196191,0.90918,-8.13538,-83.7762,-151.051,0.183105,-4.3335,-5.92041,0.139679,-0.658051,-0.115295,-0.730774,15302,-25574,21228,-8994,-28662
13908,9.85264,-0.244043,0.866113,-7.8772,-83.8147,-151.122,0.12207,-6.46973,-6.22559,0.140625,-0.658051,-0.116608,-0.730408,15558,-26598,20716,-8994,-28662
13914,9.75693,-0.210547,0.794336,-7.59705,-83.8641,-151.221,0,-7.56836,-6.83594,0.141541,-0.658081,-0.11792,-0.72998,15302,-27622,21484,-8994,-28662
13920,9.77129,-0.191406,0.775195,-6.90491,-83.9685,-151.556,0,-9.58252,-8.60596,0.143188,-0.658234,-0.120605,-0.729095,14278,-27622,24812,-8994,-28662
13926,-43.2722,109.767,10.647,14.2603,-82.1008,-172.018,188.11,336.609,-546.143,0.133392,-0.643555,-0.138702,-0.740753,13254,-27622,26348,-8994,-28662
13932,65.3509,-30.448,26.7395,14.4031,-80.1398,-172.244,-63.7207,329.773,-99.9146,0.131836,-0.630707,-0.138885,-0.751953,10182,-29670,24044,-8994,-28662
13938,-0.559863,4.00039,5.19189,8.21228,-80.2386,-166.014,-65.1245,8.17871,201.599,0.138611,-0.631256,-0.132568,-0.751404,6598,32026,18156,-8994,-28662
13944,9.26885,-6.50303,5.39766,3.8562,-80.5133,-161.455,-78.186,-163.696,175.476,0.144348,-0.63327,-0.129395,-0.749176,2758,26394,9196,-8994,-28662
13950,-8.77598,-8.35488,5.42158,-4.7406,-82.6501,-152.726,-11.8408,-293.274,50.415,0.150299,-0.648468,-0.125305,-0.735565,-1339,16666,-11541,-8994,-28662
13956,16.2025,1.59824,-14.8436,-3.33435,-83.7817,-153.803,26.3672,-238.464,-54.9927,0.149658,-0.654968,-0.130127,-0.729095,-1339,14106,-17685,-8994,-28662
13962,-1.94277,4.16787,-3.89512,0.219727,-84.4574,-157.088,11.4136,-140.32,-78.6133,0.148315,-0.658386,-0.134857,-0.725403,-571,13338,-21013,-8994,-28662
13968,7.39785,2.33516,1.24893,1.0437,-84.4135,-157.813,-31.189,0.610352,-20.3857,0.148499,-0.657928,-0.135864,-0.725616,-59,13850,-21269,-8994,-28662
13974,9.07266,2.6127,-2.26816,0.758057,-84.3091,-157.264,18.5547,65.8569,36.9873,0.150482,-0.656952,-0.137115,-0.725861,198,14106,-17941,-8994,-28662
13980,11.4317,0.0430664,2.60313,-2.75208,-83.6609,-152.99,13.7939,48.9502,44.1895,0.158325,-0.652466,-0.138245,-0.728027,-1083,13082,-10261,-8994,-28662
13986,10.6183,-1.56475,3.18691,-4.38354,-83.4686,-151.068,4.02832,29.7852,39.4287,0.161591,-0.651215,-0.138489,-0.728363,-1083,12826,-5397,-8994,-28662
13992,13.4463,-1.26807,0.593359,-5.34485,-83.4302,-149.854,-2.0752,0.671387,21.9116,0.163879,-0.650879,-0.139191,-0.728027,-1083,12826,-2325,-8994,-28662
13998,9.67559,-0.15791,0.789551,-5.60852,-83.4467,-149.37,-4.88281,-7.50732,4.76074,0.165436,-0.650757,-0.14032,-0.72757,-1083,13338,236,-8994,-28662
14004,8.94824,0.186621,0.77041,-5.5481,-83.4412,-149.2,3.96729,-2.31934,-0.183105,0.16687,-0.650452,-0.141632,-0.727264,-315,14106,2540,-8994,-28662
14010,9.72822,-0.191406,0.277539,-5.50964,-83.4137,-148.705,6.53076,1.28174,0.976562,0.170288,-0.649597,-0.144653,-0.726624,1222,15642,7916,-8994,-28662
14016,10.6518,-0.248828,0.129199,-5.53711,-83.3752,-148.409,5.00488,5.85938,2.38037,0.172058,-0.649017,-0.146057,-0.726471,1990,16410,11244,-8994,-28662
14022,9.06309,-0.0430664,0.559863,-5.41626,-83.2983,-148.271,3.78418,12.6343,-0.427246,0.173737,-0.648193,-0.14743,-0.726501,2502,16922,13804,-8994,-28662
14028,9.38848,-0.0478516,0.76084,-5.33386,-83.205,-148.107,3.66211,17.5781,0.854492,0.175476,-0.647247,-0.148743,-0.726654,2502,17178,15340,-8994,-28662
14034,9.78086,-0.110059,0.631641,-5.26794,-83.1006,-147.898,6.46973,19.7754,1.77002,0.177338,-0.64624,-0.150085,-0.726837,2246,17690,16620,-8994,-28662
14040,10.0153,-0.0478516,1.07187,-5.13611,-82.8918,-147.519,3.66211,18.7988,1.58691,0.180878,-0.644257,-0.152649,-0.727173,1990,18970,16620,-8994,-28662
14046,9.83828,-0.0526367,1.14844,-5.11414,-82.804,-147.299,2.50244,16.6626,2.13623,0.182556,-0.643372,-0.153809,-0.727295,1990,19482,14828,-8994,-28662
14052,9.64688,-0.31582,1.24414,-5.11414,-82.7325,-147.063,1.95312,14.0991,2.50244,0.184204,-0.642609,-0.154999,-0.727325,2502,18970,12268,-8994,-28662
14058,10.1828,-0.492871,1.0001,-5.08118,-82.6776,-146.86,2.56348,9.94873,1.2207,0.18576,-0.641937,-0.156219,-0.727234,3526,18714,9452,-8994,-28662
14064,9.99141,-0.334961,0.961816,-4.93286,-82.6392,-146.783,0.976562,5.31006,-5.67627,0.187164,-0.641388,-0.157532,-0.727112,4550,18202,5868,-8994,-28662
14070,9.74736,0,0.952246,-4.34509,-82.5952,-146.953,0,4.69971,-7.26318,0.189484,-0.64035,-0.160217,-0.726807,7110,18202,-789,-8994,-28662
14076,9.56074,0.0813477,0.985742,-4.03198,-82.5787,-147.057,-0.12207,4.02832,-7.14111,0.190582,-0.639862,-0.16156,-0.726654,7878,18970,-3093,-8994,-28662
14082,9.24971,0.00957031,1.01924,-3.7793,-82.5623,-147.101,0.305176,3.54004,-5.5542,0.191742,-0.639404,-0.162872,-0.726471,7878,19226,-4629,-8994,-28662
14088,10.0153,0,0.813477,-3.60901,-82.5513,-147.068,0.488281,2.44141,-3.60107,0.192932,-0.639008,-0.164154,-0.726227,7110,19226,-6677,-8994,-28662
14094,9.58467,-0.0287109,0.923535,-3.47717,-82.5403,-146.997,-0.915527,2.99072,-1.95312,0.194153,-0.638611,-0.165344,-0.725952,6598,19738,-7445,-8994,-28662
14100,9.86699,0.0574219,1.03838,-3.30139,-82.5128,-146.777,-0.671387,2.44141,-1.0376,0.196564,-0.637848,-0.167633,-0.725464,6598,19226,-8469,-8994,-28662
14106,9.71387,0.0669922,1.13887,-3.27942,-82.5128,-146.602,-0.793457,1.0376,0,0.197784,-0.637512,-0.168762,-0.725159,7366,19226,-8981,-8994,-28662
14112,9.72822,0.0526367,1.01924,-3.32336,-82.5128,-146.36,-0.610352,-0.610352,1.83105,0.199066,-0.637268,-0.16983,-0.724792,7878,18970,-8981,-8994,-28662
14118,9.67559,-0.0669922,1.02402,-3.44421,-82.5293,-146.041,-0.366211,-2.92969,3.66211,0.200409,-0.637085,-0.170868,-0.724335,8646,18970,-10005,-8994,-28662
14124,9.80957,-0.14834,0.880469,-3.62,-82.5513,-145.662,-0.671387,-4.3335,5.00488,0.201752,-0.636963,-0.171875,-0.723816,8902,19226,-10773,-8994,-28662
14130,9.76172,-0.0861328,0.890039,-3.95508,-82.5897,-144.937,-0.976562,-3.90625,4.45557,0.204407,-0.636719,-0.173889,-0.722809,9926,20250,-10773,-8994,-28662
14136,9.55117,-0.0957031,1.01924,-4.10889,-82.6117,-144.597,-1.52588,-3.96729,4.21143,0.205688,-0.636597,-0.174866,-0.722321,10438,20762,-11797,-8994,-28662
14142,10.0584,-0.16748,0.885254,-4.29565,-82.6392,-144.218,-1.77002,-5.37109,4.88281,0.20694,-0.636505,-0.175842,-0.721802,11206,21530,-13333,-8994,-28662
14148,9.82393,-0.239258,0.904395,-4.45496,-82.6666,-143.871,-1.58691,-5.61523,4.21143,0.208191,-0.636444,-0.176819,-0.721252,10950,22042,-14357,-8994,-28662
14154,9.80957,-0.263184,0.856543,-4.64172,-82.7271,-143.322,-1.95312,-6.10352,1.28174,0.209381,-0.636383,-0.177826,-0.720734,10438,21786,-14101,-8994,-28662
14160,9.81914,-0.191406,0.789551,-4.63074,-82.7545,-143.152,-2.01416,-5.67627,-0.427246,0.211548,-0.6362,-0.179932,-0.719727,8646,21530,-13077,-8994,-28662
14166,9.8,-0.0813477,0.77041,-4.57031,-82.7875,-143.036,-1.46484,-4.94385,-1.64795,0.212555,-0.636078,-0.18103,-0.719269,7878,21018,-11797,-8994,-28662
14172,9.61338,-0.0382813,0.818262,-4.46594,-82.804,-142.965,-1.09863,-3.41797,-2.44141,0.213562,-0.635895,-0.182129,-0.718842,7110,21018,-11285,-8994,-28662
14178,9.60859,-0.0717773,0.846973,-4.38904,-82.8204,-142.855,-0.427246,-2.0752,-1.58691,0.2146,-0.635681,-0.183228,-0.718445,6854,21274,-10517,-8994,-28662
14184,9.85264,-0.110059,0.851758,-4.25171,-82.8424,-142.635,-0.549316,-1.46484,-1.40381,0.215668,-0.635437,-0.184296,-0.718079,6342,21018,-8213,-8994,-28662
14190,9.77607,-0.15791,0.92832,-4.18579,-82.8534,-142.526,-0.976562,-1.95312,-1.46484,0.217743,-0.634979,-0.186432,-0.717285,7110,21018,-4117,-8994,-28662
14196,9.78086,-0.263184,0.923535,-4.08142,-82.8754,-142.454,-0.976562,-2.99072,-2.38037,0.218719,-0.634796,-0.1875,-0.716888,7622,21530,-3349,-8994,-28662
14202,9.88135,-0.248828,0.866113,-3.93311,-82.9028,-142.438,-0.976562,-4.02832,-3.72314,0.219604,-0.634613,-0.188599,-0.716461,7878,22298,-2069,-8994,-28662
14208,9.81914,-0.143555,0.818262,-3.70789,-82.9303,-142.498,-1.2207,-4.5166,-5.7373,0.220428,-0.63446,-0.189758,-0.716064,7366,22810,-1557,-8994,-28662
14214,9.69951,-0.177051,0.827832,-3.15308,-82.9852,-142.729,-1.28174,-4.15039,-7.32422,0.221222,-0.634277,-0.190918,-0.715668,7110,23578,-2069,-8994,-28662
14220,9.87178,-0.172266,0.885254,-2.81799,-83.0072,-142.905,-1.34277,-4.15039,-8.30078,0.222656,-0.633911,-0.193237,-0.714935,6854,22554,-3349,-8994,-28662
14226,9.75215,-0.172266,0.91875,-2.44446,-83.0402,-143.124,-1.28174,-4.45557,-9.27734,0.223297,-0.633728,-0.194427,-0.714569,6854,22298,-4373,-8994,-28662
14232,9.82871,-0.186621,0.861328,-2.03247,-83.0731,-143.383,-1.34277,-5.5542,-10.1929,0.223877,-0.633575,-0.195618,-0.714172,6598,22042,-5653,-8994,-28662
14238,9.87656,-0.15791,0.832617,-1.55457,-83.1116,-143.712,-1.64795,-6.89697,-11.7798,0.224396,-0.633484,-0.196869,-0.713776,5830,21786,-6165,-8994,-28662
14244,9.74258,-0.114844,0.947461,-0.505371,-83.205,-144.481,-2.31934,-8.23975,-13.1836,0.224823,-0.633362,-0.19809,-0.713409,4550,22554,-5653,-8994,-28662
14250,-156.79,-44.9661,-28.998,0.0384521,-83.2544,-144.893,-2.50244,-8.97217,-13.3057,0.225616,-0.63324,-0.200562,-0.712555,2246,22554,-4373,-8994,-28662
14256,-6.79492,80.6825,-15.4513,10.2777,-82.1558,-154.825,101.746,193.298,-306.458,0.221008,-0.623993,-0.208496,-0.719879,966,22298,-2837,-8994,-28662
14262,47.574,-23.1314,25.9308,10.6732,-80.365,-155.22,-54.9316,315.308,-58.2886,0.221802,-0.612213,-0.207245,-0.730042,-827,20762,-3861,-8994,-28662
14268,12.3074,-5.81396,2.78496,3.2135,-80.2496,-147.75,-85.2051,47.2412,242.676,0.229614,-0.612885,-0.199493,-0.729187,-3387,17690,-7445,-8994,-28662
14274,8.14912,-3.07207,6.07236,-4.15283,-80.8429,-140.164,-68.7866,-137.573,149.841,0.233948,-0.61264,-0.198303,-0.728333,-6715,10778,-21781,-8994,-28662
14280,8.34053,-2.75146,1.52646,-8.65723,-82.4414,-135.725,-58.1665,-335.327,83.7402,0.236511,-0.630035,-0.194977,-0.71344,-6459,9242,-28181,-8994,-28662
14286,13.987,-2.04805,-7.65146,-12.2827,-84.0674,-131.907,-0.0610352,-339.905,20.5688,0.235443,-0.64032,-0.198669,-0.703552,-3899,8986,-30997,-8994,-28662
14292,3.8377,-0.579004,-12.2404,-14.491,-85.1825,-129.315,47.6685,-228.638,-9.82666,0.235413,-0.646484,-0.2034,-0.696533,-1595,9242,-32021,-8994,-28662
14298,6.23984,-1.91406,-5.36895,-14.3591,-85.7153,-129.463,2.44141,-101.135,-31.189,0.23349,-0.649384,-0.20517,-0.693939,1222,10522,-29461,-8994,-28662
14304,10.8814,-0.899609,-2.77539,-7.75635,-85.4242,-136.269,15.625,68.9697,-59.082,0.231842,-0.648956,-0.205353,-0.694855,5830,13850,-13333,-8994,-28662
14310,7.7041,0.569434,3.91904,-4.18579,-84.8914,-139.966,11.7798,116.516,-53.7109,0.229218,-0.642914,-0.205505,-0.701263,7366,15642,-5653,-8994,-28662
14316,7.72803,0.234473,4.25879,-1.54907,-84.4794,-142.778,-5.37109,88.9893,-49.7437,0.2276,-0.640198,-0.204987,-0.704437,8134,16154,748,-8994,-28662
14322,12.8434,0.45459,2.08154,0.477905,-84.2816,-144.921,-7.50732,42.6025,-43.396,0.226074,-0.638824,-0.205109,-0.706116,8646,16410,4844,-8994,-28662
14328,10.5608,0.698633,0.91875,2.13684,-84.2761,-146.678,-14.7095,3.05176,-36.9263,0.224518,-0.638672,-0.205566,-0.706635,8134,15642,8172,-8994,-28662
14334,8.78076,-0.162695,1.57432,4.76257,-84.5013,-149.496,-24.4751,-24.7803,-27.3438,0.222839,-0.639282,-0.205811,-0.706543,5318,11034,13804,-8994,-28662
14340,9.86699,-0.090918,-0.177051,6.51489,-84.5728,-151.243,-9.52148,-15.1367,-34.2407,0.220428,-0.640259,-0.20752,-0.705902,2758,8218,17388,-8994,-28662
14346,10.5896,0.110059,-0.555078,8.53638,-84.5508,-153.232,-0.671387,1.64795,-40.2222,0.219482,-0.639862,-0.208832,-0.706177,-315,5146,21228,-8994,-28662
14352,9.13486,0.684277,-0.330176,10.6403,-84.4629,-155.325,1.2207,13.6719,-44.4946,0.218414,-0.639069,-0.210083,-0.706848,-3899,2330,24556,-8994,-28662
14358,8.35967,0.60293,1.12451,12.2827,-84.3146,-156.973,-0.610352,25.9399,-39.3066,0.217438,-0.638031,-0.210876,-0.707855,-7483,-487,26860,-8994,-28662
14364,9.26885,0.674707,0.31582,14.5294,-84.0454,-159.208,-4.88281,24.7803,-27.0996,0.216675,-0.637146,-0.211609,-0.708679,-14907,-6631,29420,-8994,-28662
14370,9.42197,0.349316,1.08145,15.1666,-83.8971,-159.84,-8.66699,27.5269,-22.2778,0.215851,-0.635193,-0.212585,-0.710358,-17979,-9959,29420,-8994,-28662
14376,9.72344,0.521582,0.703418,15.6995,-83.7488,-160.356,-10.1929,28.3203,-20.874,0.215607,-0.634216,-0.212952,-0.711212,-21563,-13287,30444,-8994,-28662
14382,9.52725,0.669922,1.03359,16.062,-83.5895,-160.686,-8.48389,31.311,-18.0664,0.215607,-0.633087,-0.213379,-0.712097,-25403,-16871,31212,-8994,-28662
14388,9.47939,0.708203,1.63174,16.3257,-83.4412,-160.895,-8.48389,29.2358,-15.1978,0.21579,-0.632019,-0.213837,-0.71286,-28731,-20711,31468,-8994,-28662
14394,9.51768,0.91875,1.54561,16.452,-83.2434,-160.818,-3.96729,17.4561,-4.39453,0.216248,-0.631073,-0.214386,-0.713379,29893,-28391,30956,-8994,-28662
14400,9.35977,1.05752,1.44033,16.2543,-83.2104,-160.488,-2.19727,8.97217,2.80762,0.217896,-0.629913,-0.215546,-0.713562,27077,-31975,28652,-8994,-28662
14406,9.30234,0.856543,1.18193,15.8478,-83.2269,-159.928,-0.549316,1.52588,10.498,0.219147,-0.62973,-0.216064,-0.713196,25029,31001,26092,-8994,-28662
14412,9.03916,0.535937,0.957031,15.1392,-83.2764,-159.055,0.12207,-3.41797,19.3481,0.220703,-0.62973,-0.216492,-0.712555,22981,27929,24300,-8994,-28662
14418,9.70908,0.401953,0.77041,14.2767,-83.3313,-158.011,1.70898,-5.12695,23.4985,0.222412,-0.629822,-0.216888,-0.711823,21189,26137,23276,-8994,-28662
14424,9.85742,0.30625,0.559863,12.2058,-83.4302,-155.555,3.17383,-1.2207,27.1606,0.224304,-0.629883,-0.217255,-0.71106,18117,24089,22764,-8994,-28662
14430,9.91006,0.277539,0.904395,11.1346,-83.4631,-154.281,3.23486,0.0610352,26.6724,0.22821,-0.629761,-0.217987,-0.709717,16581,24601,21484,-8994,-28662
14436,10.0201,0.244043,1.00967,10.058,-83.4906,-153.001,3.66211,0,26.6113,0.230194,-0.629669,-0.218384,-0.709045,15813,24857,20460,-8994,-28662
14442,9.7665,0.172266,1.1915,8.97034,-83.5236,-151.716,3.05176,-1.89209,26.7944,0.232178,-0.629608,-0.218781,-0.708313,16325,24857,19436,-8994,-28662
14448,9.79521,0.0191406,1.16758,7.88818,-83.5785,-150.43,2.74658,-5.92041,26.9775,0.2341,-0.6297,-0.219238,-0.707458,16837,24601,18412,-8994,-28662
14454,10.0919,-0.0382813,0.980957,5.91064,-83.7323,-148.052,3.35693,-13.7939,24.1699,0.235962,-0.629913,-0.219727,-0.706512,20677,24601,15852,-8994,-28662
14460,9.91484,-0.16748,0.775195,5.02625,-83.8257,-146.975,1.95312,-15.625,21.9116,0.23938,-0.630524,-0.220947,-0.704407,22981,24857,13804,-8994,-28662
14466,9.69473,-0.210547,0.708203,4.22974,-83.9191,-145.992,1.15967,-16.5405,19.5312,0.240875,-0.63089,-0.221619,-0.703369,25029,25881,12012,-8994,-28662
14472,10.0058,-0.200977,0.593359,3.51562,-84.007,-145.096,0.732422,-16.2964,17.1509,0.24231,-0.631226,-0.222321,-0.702362,27077,27673,10732,-8994,-28662
14478,9.99141,-0.13877,0.507227,2.91138,-84.0894,-144.322,0.366211,-15.0757,14.1602,0.243622,-0.6315,-0.223053,-0.701416,28613,29977,10732,-8994,-28662
14484,9.71387,-0.143555,0.660352,1.96655,-84.2267,-143.036,-0.732422,-12.5732,9.64355,0.244843,-0.631714,-0.223816,-0.700562,31685,-31207,12012,-8994,-28662
14490,9.88135,-0.0861328,0.502441,1.62048,-84.2926,-142.531,-0.793457,-11.7188,7.87354,0.247101,-0.631989,-0.225433,-0.698975,-31803,-29671,13036,-8994,-28662
14496,9.87178,-0.13877,0.512012,1.34583,-84.3475,-142.097,-2.01416,-10.8032,6.22559,0.248108,-0.632111,-0.226227,-0.698273,-29499,-28391,13548,-8994,-28662
14502,9.89092,-0.0957031,0.45459,1.15906,-84.397,-141.762,-3.23486,-9.33838,4.21143,0.248993,-0.632141,-0.227051,-0.697662,-26939,-26343,13804,-8994,-28662
14508,9.65166,-0.133984,0.488086,1.06018,-84.4354,-141.52,-3.72314,-7.01904,2.31934,0.249847,-0.632141,-0.227844,-0.697113,-25147,-24807,13804,-8994,-28662
14514,9.8,-0.0574219,0.478516,1.16455,-84.4739,-141.339,-2.2583,-1.89209,-1.34277,0.250671,-0.631989,-0.228699,-0.696655,-23099,-22503,13292,-8994,-28662
14520,9.73301,0.0813477,0.717773,1.27441,-84.4739,-141.306,-1.89209,0.427246,-1.77002,0.252258,-0.63147,-0.230438,-0.695984,-22331,-21735,13036,-8994,-28662
14526,9.66602,0.0861328,0.818262,1.3623,-84.4739,-141.246,-1.0376,1.28174,-1.28174,0.253143,-0.631134,-0.231293,-0.695679,-21819,-21223,13036,-8994,-28662
14532,9.8,0.0334961,0.832617,1.43372,-84.4739,-141.169,-0.183105,0.427246,-0.915527,0.253998,-0.630829,-0.232178,-0.695343,-20795,-19943,12780,-8994,-28662
14538,9.87178,0.00957031,0.832617,1.47217,-84.4849,-141.053,0.366211,-1.15967,-0.183105,0.254913,-0.630554,-0.233063,-0.694977,-20283,-18407,13292,-8994,-28662
14544,9.6708,0,0.784766,1.6095,-84.5288,-140.883,0.549316,-4.94385,-0.915527,0.255768,-0.630341,-0.233978,-0.69455,-21307,-15591,14572,-8994,-28662
14550,9.78086,0.0478516,0.645996,1.71387,-84.5618,-140.828,0.793457,-6.10352,-1.2207,0.257416,-0.630066,-0.23587,-0.693542,-21819,-15079,15596,-8994,-28662
14556,9.71387,0.0669922,0.703418,1.79077,-84.6002,-140.757,0.610352,-6.34766,-0.793457,0.258209,-0.629944,-0.236816,-0.693024,-22075,-15079,16620,-8994,-28662
14562,9.75215,0.0765625,0.732129,1.83472,-84.6332,-140.647,0.976562,-6.5918,-0.12207,0.259033,-0.629852,-0.237762,-0.692505,-22075,-15335,18156,-8994,-28662
14568,9.78086,0.0717773,0.775195,1.81824,-84.6716,-140.477,1.52588,-7.01904,1.0376,0.259918,-0.629761,-0.238678,-0.691925,-22075,-15335,18924,-8994,-28662
14574,9.77607,0.00957031,0.77041,1.65344,-84.765,-139.999,2.01416,-8.97217,2.74658,0.261719,-0.629669,-0.24054,-0.690674,-21051,-15079,22252,-8985,-28663
14580,9.80957,0.090918,0.813477,1.51611,-84.8199,-139.702,2.92969,-10.8032,3.41797,0.262665,-0.6297,-0.241455,-0.689972,-21051,-14567,22508,-8985,-28663
14586,9.61338,0.133984,0.803906,1.35681,-84.8859,-139.373,3.96729,-12.8784,3.90625,0.263641,-0.629791,-0.242462,-0.689178,-21051,-14055,24044,-8985,-28663
14592,9.69951,0.162695,0.660352,1.08215,-84.9628,-138.922,5.00488,-14.6484,5.98145,0.264679,-0.629913,-0.243439,-0.688293,-20795,-13799,25324,-8985,-28663
14598,9.70908,0.110059,0.354102,0.692139,-85.0397,-138.345,6.34766,-14.9536,7.99561,0.265839,-0.630066,-0.244415,-0.687378,-20283,-14311,26348,-8985,-28663
14604,9.66602,-0.0526367,0.253613,-0.41748,-85.1605,-136.862,5.85938,-9.82666,10.8643,0.268341,-0.630219,-0.246216,-0.685638,-17979,-14823,31468,-8985,-28663
14610,9.7665,-0.129199,0.234473,-0.928345,-85.188,-136.165,6.10352,-5.00488,9.58252,0.269653,-0.630066,-0.24704,-0.684937,-16187,-15335,-31508,-8985,-28663
14616,9.81436,-0.0717773,0.29668,-1.37329,-85.188,-135.533,5.85938,-0.183105,8.48389,0.270966,-0.629761,-0.247864,-0.684418,-14907,-15335,-29460,-8985,-28663
14622,9.81914,-0.00957031,0.358887,-1.75232,-85.1715,-134.978,5.31006,3.54004,7.38525,0.272247,-0.629364,-0.248627,-0.68399,-13371,-15591,-27412,-8985,-28663
14628,9.67559,0.0334961,0.502441,-2.12036,-85.1495,-134.429,4.45557,5.43213,7.38525,0.27356,-0.628906,-0.249359,-0.683624,-12347,-15591,-27156,-8985,-28663
14634,9.80479,0.062207,0.46416,-3.00476,-85.0946,-133.204,2.2583,5.49316,9.27734,0.276154,-0.628052,-0.250671,-0.682892,-10043,-14055,-28180,-8985,-28663
14640,9.64688,0.0287109,0.727344,-3.58704,-85.0671,-132.451,1.89209,5.06592,11.1084,0.277496,-0.627655,-0.251251,-0.682495,-8251,-12519,-29204,-8985,-28663
14646,9.81914,-0.0957031,0.60293,-4.2572,-85.0452,-131.6,2.50244,4.02832,12.8174,0.278931,-0.627289,-0.251862,-0.682007,-6971,-10727,-30484,-8985,-28663
14652,9.93877,-0.31582,0.607715,-4.94385,-85.0287,-130.732,2.44141,3.11279,13.1226,0.280365,-0.626953,-0.252441,-0.681519,-5947,-9191,-30740,-8985,-28663
14658,9.9292,-0.363672,0.689063,-5.55359,-85.0177,-129.957,1.15967,2.13623,11.5967,0.281708,-0.626678,-0.253052,-0.68103,-4923,-8167,-31252,-8985,-28663
14664,9.91006,-0.30625,0.77041,-6.31165,-85.0122,-128.875,0.793457,-0.305176,5.98145,0.283966,-0.626129,-0.254425,-0.680054,-3643,-6631,-30740,-8985,-28663
14670,9.7043,-0.090918,0.732129,-6.54785,-85.0232,-128.485,1.70898,-1.64795,4.5166,0.285004,-0.625885,-0.255219,-0.679535,-2619,-5607,-30228,-8985,-28663
14676,9.75215,-0.0574219,0.669922,-6.78955,-85.0342,-128.073,3.11279,-2.62451,4.69971,0.286072,-0.625641,-0.256073,-0.678986,-1595,-4583,-28948,-8994,-28662
14682,9.77607,-0.0669922,0.645996,-7.0697,-85.0507,-127.612,4.82178,-3.05176,5.43213,0.287231,-0.625397,-0.256958,-0.678406,-315,-3815,-28948,-8994,-28662
14688,9.73301,-0.0957031,0.569434,-7.39929,-85.0616,-127.095,6.89697,-2.50244,6.46973,0.288452,-0.625122,-0.257874,-0.677765,1222,-3303,-29204,-8994,-28662
14694,9.80479,-0.200977,0.368457,-8.14636,-85.0562,-125.953,9.09424,1.40381,7.75146,0.291168,-0.62442,-0.259674,-0.676605,4294,-2535,-28180,-8994,-28662
14700,9.83828,-0.267969,0.392383,-8.4375,-85.0342,-125.464,9.15527,4.27246,7.01904,0.292542,-0.623932,-0.260559,-0.676117,5574,-2535,-27924,-8994,-28662
14706,9.71865,-0.239258,0.411523,-8.62427,-85.0012,-125.085,8.60596,6.65283,5.49316,0.293854,-0.623352,-0.261383,-0.675751,6342,-2279,-28180,-8994,-28662
14712,9.8,-0.181836,0.488086,-8.75061,-84.9628,-124.777,7.08008,7.8125,4.57764,0.295105,-0.622772,-0.262207,-0.675446,6854,-2023,-29204,-8994,-28662
14718,9.79521,-0.172266,0.531152,-8.84949,-84.9243,-124.508,5.37109,8.23975,3.96729,0.296265,-0.622192,-0.262939,-0.675171,7878,-2023,-31508,-8994,-28662
14724,9.85742,-0.267969,0.593359,-9.0033,-84.8474,-124.041,2.68555,8.05664,3.05176,0.298431,-0.621094,-0.264313,-0.674683,9414,-1511,30700,-8994,-28662
14730,9.86699,-0.368457,0.650781,-8.93738,-84.8145,-123.953,2.50244,8.05664,0.671387,0.299408,-0.620544,-0.265045,-0.6745,10694,-999,29676,-8994,-28662
14736,9.88613,-0.339746,0.645996,-8.73413,-84.7815,-124.019,1.83105,7.69043,-2.0752,0.300232,-0.619995,-0.265778,-0.674347,11974,-487,27884,-8994,-28662
14742,9.9292,-0.277539,0.617285,-8.42651,-84.7595,-124.2,0.549316,6.5918,-4.45557,0.300903,-0.619446,-0.266541,-0.674194,13254,-231,26604,-8994,-28662
14748,9.74736,-0.215332,0.727344,-8.02002,-84.7375,-124.486,-1.58691,4.88281,-7.50732,0.301453,-0.618958,-0.267334,-0.674103,14534,-487,25068,-8994,-28662
14754,9.72822,-0.0239258,0.693848,-7.14661,-84.7156,-125.14,-1.58691,3.96729,-7.62939,0.302399,-0.618073,-0.26886,-0.673889,15302,-487,22508,-8994,-28662
14760,9.69473,0.00957031,0.732129,-6.74561,-84.7101,-125.431,-1.58691,3.54004,-7.01904,0.302887,-0.617645,-0.269623,-0.673767,15302,-487,23020,-8994,-28662
14766,9.6708,0.0430664,0.746484,-6.47095,-84.6991,-125.59,-1.09863,3.2959,-4.69971,0.303436,-0.617249,-0.270325,-0.673584,15046,-743,24556,-8994,-28662
14772,9.61338,0.0765625,0.784766,-6.32812,-84.6936,-125.618,-0.549316,2.86865,-2.2583,0.304077,-0.616882,-0.271027,-0.67337,14790,26,25580,-8994,-28662
14778,9.7043,0.0287109,0.77998,-6.33911,-84.6881,-125.48,0.549316,0.854492,3.23486,0.30484,-0.616547,-0.271667,-0.673065,14534,26,26604,-8994,-28662
14784,9.79043,-0.15791,0.765625,-6.72913,-84.6881,-124.832,0.488281,-0.0610352,4.69971,0.30658,-0.616058,-0.272858,-0.672241,14278,-231,25324,-8994,-28662
14790,9.8335,-0.215332,0.698633,-6.9873,-84.6936,-124.442,1.0376,-1.64795,4.94385,0.307434,-0.615875,-0.273499,-0.671753,14534,-231,22764,-8994,-28662
14796,9.84307,-0.267969,0.665137,-7.22351,-84.7101,-124.063,1.34277,-2.68555,4.5166,0.308319,-0.615692,-0.27417,-0.671265,15302,-231,20716,-8994,-28662
14802,9.80479,-0.229688,0.631641,-7.38281,-84.7266,-123.777,0.915527,-3.23486,2.74658,0.309082,-0.61554,-0.274841,-0.670776,16326,538,18924,-8994,-28662
14808,9.79521,-0.181836,0.569434,-7.46521,-84.7485,-123.563,0.244141,-2.50244,0.610352,0.309814,-0.615356,-0.275543,-0.670288,17094,2074,16364,-8994,-28662
14814,9.72822,-0.0861328,0.559863,-7.54761,-84.776,-123.239,0.12207,-1.28174,0.671387,0.311218,-0.614929,-0.276947,-0.669464,18118,4122,14316,-8994,-28662
14820,9.76172,-0.133984,0.593359,-7.56409,-84.776,-123.091,0.305176,0.12207,0.610352,0.311951,-0.614655,-0.277618,-0.669098,18886,4890,13292,-8994,-28662
14826,9.72344,-0.124414,0.636426,-7.63,-84.776,-122.904,0.854492,1.46484,1.58691,0.312744,-0.614319,-0.278259,-0.668762,19398,5402,12780,-8994,-28662
14832,9.78564,-0.16748,0.655566,-7.69592,-84.765,-122.706,1.28174,2.38037,1.83105,0.313568,-0.613983,-0.27887,-0.668427,19654,5658,12268,-8994,-28662
14838,9.80479,-0.14834,0.693848,-7.77283,-84.754,-122.503,1.89209,2.74658,1.95312,0.314392,-0.613647,-0.27951,-0.668121,19654,6426,11500,-8994,-28662
14844,9.81436,-0.14834,0.674707,-7.92664,-84.7375,-122.08,2.0752,2.13623,2.31934,0.316071,-0.612946,-0.280792,-0.667419,18630,6938,12012,-8994,-28662
14850,9.72822,-0.143555,0.703418,-8.00354,-84.7321,-121.871,2.0752,1.70898,2.01416,0.316895,-0.61261,-0.281433,-0.667053,18118,6682,12012,-8994,-28662
14856,9.74736,-0.119629,0.674707,-8.10242,-84.7266,-121.646,1.70898,1.15967,2.31934,0.317719,-0.612305,-0.282074,-0.666687,17350,6426,12268,-8994,-28662
14862,9.79521,-0.133984,0.631641,-8.20679,-84.7266,-121.404,1.52588,0.976562,2.44141,0.318542,-0.612,-0.282715,-0.66629,17606,6682,12012,-8994,-28662
14868,9.75215,-0.234473,0.679492,-8.34412,-84.7211,-121.141,0.793457,1.15967,2.74658,0.319366,-0.611694,-0.283325,-0.665924,17862,6682,11244,-8994,-28662
14874,9.8957,-0.291895,0.698633,-8.52539,-84.7156,-120.712,0.366211,1.15967,1.34277,0.320892,-0.611115,-0.284546,-0.665192,19398,7194,9452,-8994,-28662
14880,9.84785,-0.248828,0.698633,-8.50342,-84.7156,-120.619,-0.12207,0.549316,-0.183105,0.321564,-0.610809,-0.285187,-0.664886,19398,7450,8940,-8994,-28662
14886,9.79521,-0.177051,0.703418,-8.42651,-84.7211,-120.586,-0.427246,0.427246,-1.40381,0.322174,-0.610535,-0.285828,-0.664581,19398,7450,8172,-8994,-28662
14892,9.77129,-0.133984,0.717773,-8.30566,-84.7266,-120.591,-0.549316,-0.0610352,-2.19727,0.322723,-0.61026,-0.286499,-0.664276,19142,7962,9452,-8994,-28662
14898,9.75215,-0.153125,0.727344,-8.22876,-84.7321,-120.558,-0.183105,-1.34277,-1.2207,0.323334,-0.609985,-0.28717,-0.66394,19142,7706,10988,-8994,-28662
14904,9.72822,-0.129199,0.660352,-8.14087,-84.754,-120.421,-0.183105,-1.46484,-0.793457,0.324524,-0.609528,-0.288483,-0.663208,21190,8218,13548,-8994,-28662
14910,9.79521,-0.191406,0.641211,-8.15186,-84.765,-120.295,-0.12207,-1.34277,0.0610352,0.325134,-0.609283,-0.289124,-0.662842,22214,8730,14060,-8994,-28662
14916,9.80957,-0.229688,0.593359,-8.15735,-84.776,-120.174,0.0610352,-0.976562,0,0.325775,-0.609039,-0.289764,-0.662476,22982,9498,14060,-8994,-28662
14922,9.82393,-0.263184,0.598145,-8.1189,-84.7815,-120.103,0.305176,-0.12207,-0.671387,0.326385,-0.608765,-0.290405,-0.66214,24006,10266,14060,-8994,-28662
14928,9.79521,-0.253613,0.564648,-7.88818,-84.7815,-120.108,0,1.70898,-2.50244,0.326996,-0.60849,-0.291016,-0.661835,24262,10778,13548,-8994,-28662
14934,9.74736,-0.13877,0.569434,-7.68494,-84.7705,-120.207,0,3.23486,-3.35693,0.328094,-0.607758,-0.292267,-0.661377,24006,11290,12780,-8994,-28662
14940,9.72344,-0.105273,0.626855,-7.46521,-84.754,-120.328,0,4.57764,-3.54004,0.328644,-0.60733,-0.292877,-0.661224,23494,11034,12780,-8994,-28662
14946,9.72822,-0.0669922,0.626855,-7.24548,-84.7321,-120.443,0.0610352,5.98145,-3.2959,0.329193,-0.606873,-0.293457,-0.661133,22982,10266,12524,-8994,-28662
14952,9.72344,-0.0430664,0.712988,-7.05872,-84.7046,-120.526,0.366211,7.08008,-2.56348,0.329834,-0.606415,-0.293976,-0.661011,21958,9754,11756,-8994,-28662
14958,9.74736,-0.090918,0.741699,-6.84998,-84.6387,-120.52,-0.0610352,7.20215,-0.549316,0.330475,-0.605927,-0.294495,-0.660919,20934,9242,10988,-8994,-28662
14964,9.78086,-0.114844,0.77998,-6.81152,-84.6112,-120.46,-0.244141,6.40869,0,0.331787,-0.605042,-0.295471,-0.660614,19654,6938,11500,-8994,-28662
14970,9.72822,-0.114844,0.813477,-6.80054,-84.5892,-120.361,-0.305176,5.7373,0.549316,0.332489,-0.604645,-0.295929,-0.660431,19654,6682,11244,-8994,-28662
14976,9.72822,-0.0669922,0.885254,-6.82251,-84.5673,-120.24,-0.305176,4.94385,0.976562,0.33316,-0.604248,-0.296387,-0.660248,20422,6170,10476,-8994,-28662
14982,9.77607,-0.0287109,0.813477,-6.90491,-84.5508,-120.048,-0.0610352,3.90625,2.0752,0.333862,-0.603912,-0.296875,-0.659973,21190,5914,9196,-8994,-28662
14988,9.66602,-0.0478516,0.880469,-7.32788,-84.5398,-119.399,-0.183105,0.854492,5.24902,0.334625,-0.603638,-0.297333,-0.659637,21702,5914,7916,-8994,-28662
14994,9.8,-0.196191,0.813477,-7.65198,-84.5453,-118.96,0.305176,-0.915527,6.28662,0.336212,-0.603241,-0.298248,-0.658783,21446,6938,6892,-8994,-28662
15000,9.76172,-0.234473,0.794336,-8.02002,-84.5563,-118.482,-0.0610352,-2.68555,6.7749,0.337006,-0.603119,-0.298737,-0.658264,20422,7194,7404,-8994,-28662
15006,9.80957,-0.234473,0.722559,-8.37708,-84.5728,-118.004,0.244141,-3.84521,6.53076,0.337799,-0.603027,-0.299225,-0.657715,19142,7962,6636,-8994,-28662
15012,9.85264,-0.229688,0.712988,-8.70667,-84.5947,-117.559,0.183105,-4.3335,5.7373,0.338531,-0.602966,-0.299774,-0.657166,19142,8474,5612,-8994,-28662
15018,9.78564,-0.200977,0.746484,-9.28345,-84.6387,-116.752,0.183105,-4.3335,4.69971,0.339264,-0.602875,-0.300323,-0.656616,19142,8986,3820,-8994,-28662
15024,9.77129,-0.200977,0.712988,-9.55811,-84.6606,-116.362,0.549316,-4.15039,4.63867,0.340698,-0.602661,-0.301453,-0.655548,20678,10010,1004,-8994,-28662
15030,9.78086,-0.244043,0.693848,-9.84924,-84.6771,-115.95,0.915527,-4.27246,5.00488,0.341461,-0.602539,-0.302002,-0.654999,21958,11034,-1045,-8994,-28662
15036,9.80957,-0.29668,0.698633,-10.1184,-84.6991,-115.56,0.732422,-4.69971,4.39453,0.342163,-0.602448,-0.302612,-0.654449,21702,11802,-1557,-8994,-28662
15042,9.82871,-0.311035,0.679492,-10.3546,-84.7266,-115.208,0.549316,-4.88281,3.72314,0.342865,-0.602356,-0.303192,-0.6539,21702,12058,-2837,-8994,-28662
15048,9.80957,-0.31582,0.679492,-10.6348,-84.776,-114.703,0,-4.57764,1.09863,0.343506,-0.602234,-0.303833,-0.653381,21446,11034,-533,-8994,-28662
15054,9.80479,-0.311035,0.655566,-10.6842,-84.798,-114.543,-0.183105,-4.5166,0.0610352,0.344635,-0.601959,-0.305084,-0.652435,21446,11034,1260,-8994,-28662
15060,9.81914,-0.263184,0.641211,-10.6897,-84.8254,-114.434,-0.183105,-4.15039,-0.732422,0.345154,-0.601807,-0.305756,-0.652008,21702,11546,3564,-8994,-28662
15066,9.80479,-0.272754,0.660352,-10.6458,-84.8474,-114.373,-0.305176,-3.66211,-1.52588,0.345642,-0.601624,-0.306396,-0.651611,21190,12058,5356,-8994,-28662
15072,9.75693,-0.248828,0.655566,-10.5579,-84.8694,-114.357,-0.244141,-3.66211,-2.38037,0.3461,-0.60144,-0.307068,-0.651215,21446,13338,7404,-8994,-28662
15078,9.77129,-0.234473,0.650781,-10.3271,-84.9133,-114.384,-0.12207,-3.2959,-2.86865,0.346558,-0.601227,-0.307739,-0.650848,21702,14618,9452,-8994,-28662
15084,9.74258,-0.153125,0.631641,-10.2008,-84.9353,-114.412,-0.244141,-2.99072,-2.92969,0.347412,-0.60083,-0.309052,-0.650116,22470,14874,10476,-8994,-28662
15090,9.74736,-0.16748,0.550293,-10.0909,-84.9518,-114.423,-0.305176,-2.56348,-2.56348,0.34787,-0.600616,-0.309692,-0.64978,23494,15130,11244,-8994,-28662
15096,9.73779,-0.133984,0.535937,-9.99756,-84.9628,-114.423,-0.366211,-1.70898,-2.19727,0.348328,-0.600403,-0.310303,-0.649445,24262,15130,12012,-8994,-28662
15102,9.73301,-0.124414,0.521582,-9.93164,-84.9738,-114.39,-0.488281,-0.549316,-1.40381,0.348846,-0.600128,-0.310852,-0.649139,25286,15130,12012,-8994,-28662
15108,9.74736,-0.114844,0.535937,-9.86023,-84.9628,-114.263,-0.549316,2.13623,0,0.349365,-0.599854,-0.311401,-0.648865,25798,14362,10732,-8994,-28662
15114,9.68516,-0.0526367,0.641211,-9.87671,-84.9518,-114.153,-0.305176,3.479,0.793457,0.350525,-0.599213,-0.312317,-0.648376,25030,13338,10988,-8994,-28662
15120,9.71387,-0.0957031,0.583789,-9.95911,-84.9298,-113.967,0.305176,4.76074,2.31934,0.351227,-0.598846,-0.312744,-0.648132,24518,12314,10988,-8994,-28662
15126,9.72344,-0.0813477,0.641211,-10.1129,-84.9023,-113.708,0.854492,5.43213,3.84521,0.35202,-0.59848,-0.313141,-0.647858,24518,11546,11244,-8994,-28662
15132,9.78564,-0.105273,0.655566,-10.3491,-84.8694,-113.362,0.549316,6.04248,5.49316,0.352844,-0.598114,-0.313477,-0.647614,24262,11034,11244,-8994,-28662
15138,9.71865,-0.14834,0.684277,-11.0193,-84.8035,-112.473,0.244141,6.34766,7.99561,0.353699,-0.597748,-0.313782,-0.647308,25286,12314,13036,-8994,-28662
15144,9.79043,-0.282324,0.617285,-11.4093,-84.765,-111.973,0.488281,6.53076,8.72803,0.35553,-0.597046,-0.314301,-0.646698,25542,13338,13548,-8994,-28662
15150,9.74258,-0.354102,0.583789,-11.7554,-84.7266,-111.517,0.0610352,7.14111,8.11768,0.356445,-0.59668,-0.314575,-0.646393,25798,14362,13804,-8994,-28662
15156,9.7665,-0.387598,0.636426,-12.0245,-84.6881,-111.143,-0.305176,7.93457,6.7749,0.35733,-0.596283,-0.314819,-0.646149,25798,15130,13548,-8994,-28662
15162,9.9292,-0.382812,0.727344,-12.2058,-84.6442,-110.869,-1.64795,8.42285,5.18799,0.358124,-0.595886,-0.315063,-0.645966,26054,15386,11756,-8994,-28662
15168,9.80479,-0.358887,0.775195,-12.2717,-84.5673,-110.621,-2.86865,7.50732,1.28174,0.358826,-0.595459,-0.315338,-0.645844,26822,16410,7916,-8994,-28662
15174,9.82871,-0.334961,0.789551,-12.2443,-84.5453,-110.572,-4.39453,5.98145,0.366211,0.359924,-0.594727,-0.315948,-0.645599,27078,17434,6892,-8994,-28662
15180,9.78564,-0.320605,0.842188,-12.2113,-84.5233,-110.544,-6.10352,4.76074,-0.305176,0.360352,-0.594421,-0.316223,-0.645508,27590,18202,7404,-8994,-28662
15186,9.76172,-0.339746,0.808691,-12.1564,-84.5178,-110.533,-6.46973,3.05176,-1.09863,0.360718,-0.594177,-0.316528,-0.645355,27590,18970,7916,-8994,-28662
15192,9.8,-0.320605,0.732129,-12.074,-84.5123,-110.555,-6.7749,1.83105,-1.95312,0.361053,-0.593964,-0.316864,-0.645233,27590,18970,7404,-8994,-28662
15198,9.79521,-0.263184,0.712988,-11.8378,-84.5123,-110.676,-6.34766,1.70898,-2.92969,0.361328,-0.593781,-0.31723,-0.645081,27078,17946,6892,-8994,-28662
15204,9.72822,-0.191406,0.77041,-11.7004,-84.5068,-110.748,-5.92041,1.89209,-2.99072,0.361908,-0.593323,-0.317963,-0.644806,26566,17690,7660,-8994,-28662
15210,9.76172,-0.172266,0.756055,-11.5796,-84.5068,-110.808,-5.24902,1.89209,-2.62451,0.362213,-0.593079,-0.318329,-0.644684,26822,17946,8684,-8994,-28662
15216,9.76172,-0.15791,0.77998,-11.4917,-84.5013,-110.825,-4.82178,1.77002,-1.89209,0.362579,-0.592834,-0.318695,-0.644501,27334,18202,9196,-8994,-28662
15222,9.7665,-0.186621,0.827832,-11.4478,-84.5013,-110.803,-4.15039,1.64795,-1.09863,0.362946,-0.592621,-0.319061,-0.644318,27590,18202,10220,-8994,-28662
15228,9.75215,-0.186621,0.837402,-11.4587,-84.5013,-110.632,-2.13623,0.427246,0.366211,0.363373,-0.592407,-0.319458,-0.644073,29382,17946,10220,-8994,-28662
15234,9.76172,-0.239258,0.76084,-11.4917,-84.5013,-110.511,-1.40381,0.0610352,0.427246,0.364349,-0.59198,-0.320343,-0.643524,29638,17434,9452,-8994,-28662
15240,9.75693,-0.229688,0.736914,-11.5576,-84.5068,-110.363,-1.28174,0,1.09863,0.364838,-0.591766,-0.32077,-0.643188,30150,17434,7916,-8994,-28662
15246,9.79521,-0.282324,0.736914,-11.6235,-84.5068,-110.209,-0.976562,0,1.09863,0.365356,-0.591553,-0.321198,-0.642883,30150,17690,6892,-8994,-28662
15252,9.77129,-0.339746,0.746484,-11.6565,-84.5123,-110.083,-0.610352,0.12207,0.549316,0.365875,-0.591309,-0.321655,-0.642578,30150,17946,6380,-8994,-28662
15258,9.78086,-0.344531,0.746484,-11.5906,-84.5123,-109.973,-0.183105,0.549316,-1.09863,0.366364,-0.591064,-0.322144,-0.642273,30918,17690,5868,-8994,-28662
15264,9.79043,-0.234473,0.77041,-11.4752,-84.5178,-110.001,0.0610352,0.732422,-2.19727,0.367249,-0.590546,-0.32312,-0.641754,31686,17178,5868,-8994,-28662
15270,9.73779,-0.177051,0.794336,-11.3434,-84.5233,-110.045,0.183105,0.305176,-2.68555,0.367676,-0.590271,-0.323669,-0.64151,32454,16666,6636,-8994,-28662
15276,9.74736,-0.181836,0.818262,-11.228,-84.5288,-110.072,0.427246,0,-2.38037,0.368103,-0.589996,-0.324188,-0.641235,32710,16154,6892,-8994,-28662
15282,9.75693,-0.177051,0.823047,-11.1511,-84.5343,-110.061,0.305176,-0.976562,-1.83105,0.3685,-0.589752,-0.324738,-0.640961,32198,16154,7660,-8994,-28662
15288,9.68994,-0.210547,0.803906,-11.1676,-84.5673,-109.869,-0.488281,-3.05176,-0.183105,0.368958,-0.589569,-0.325226,-0.640625,30406,16410,8940,-8994,-28662
15294,9.79043,-0.244043,0.708203,-11.239,-84.5892,-109.709,-1.09863,-3.72314,0.427246,0.369812,-0.589325,-0.326233,-0.639862,29126,16666,9452,-8994,-28662
15300,9.74736,-0.229688,0.712988,-11.3324,-84.6112,-109.539,-1.28174,-3.72314,0.732422,0.370239,-0.589203,-0.326721,-0.639465,28358,16922,10476,-8994,-28662
15306,9.73779,-0.267969,0.636426,-11.4148,-84.6277,-109.374,-1.46484,-3.41797,0.610352,0.370636,-0.589111,-0.327179,-0.639069,28358,16922,11500,-8994,-28662
15312,9.78564,-0.234473,0.645996,-11.4587,-84.6387,-109.248,-1.34277,-2.01416,0.183105,0.371063,-0.588959,-0.327637,-0.638733,28358,17178,12268,-8994,-28662
15318,9.74736,-0.196191,0.626855,-11.4807,-84.6497,-109.061,-1.40381,0.427246,0,0.37149,-0.588745,-0.328064,-0.638458,29126,17946,13804,-8994,-28662
15324,9.7665,-0.181836,0.77041,-11.4807,-84.6442,-108.979,-1.28174,1.40381,0.0610352,0.372406,-0.588287,-0.328888,-0.637939,29382,17690,15596,-8994,-28662
15330,9.78086,-0.172266,0.794336,-11.5192,-84.6387,-108.858,-0.549316,1.89209,0.915527,0.372925,-0.588013,-0.329254,-0.637665,28870,17946,16364,-8994,-28662
15336,9.74736,-0.200977,0.803906,-11.5906,-84.6277,-108.699,-0.0610352,1.95312,1.64795,0.373474,-0.587769,-0.329651,-0.63739,29126,17946,16108,-8994,-28662
15342,9.75693,-0.258398,0.76084,-11.6895,-84.6222,-108.506,0.488281,1.46484,2.19727,0.374054,-0.587494,-0.330048,-0.637085,29126,18202,14572,-8994,-28662
15348,9.79521,-0.320605,0.746484,-11.9312,-84.6167,-108.083,0.549316,0.244141,2.13623,0.374634,-0.58725,-0.330444,-0.636749,29126,19482,10476,-8994,-28662
15354,9.78564,-0.277539,0.732129,-12.0081,-84.6167,-107.919,0.244141,0.244141,1.34277,0.375732,-0.586823,-0.331299,-0.636078,29126,19994,8940,-8994,-28662
15360,9.73779,-0.220117,0.712988,-12.041,-84.6167,-107.792,0.671387,0.854492,0.793457,0.376251,-0.586548,-0.331726,-0.635803,28358,20506,8428,-8994,-28662
15366,9.72822,-0.234473,0.741699,-12.063,-84.6112,-107.682,0.610352,1.28174,0.671387,0.37677,-0.586304,-0.332153,-0.635498,28358,21530,8684,-8994,-28662
15372,9.77129,-0.234473,0.75127,-12.0959,-84.6057,-107.562,0.732422,1.40381,0.854492,0.377289,-0.586029,-0.332581,-0.635223,27590,22298,8172,-8994,-28662
15378,9.76172,-0.244043,0.746484,-12.1948,-84.6002,-107.281,1.09863,1.34277,1.40381,0.378387,-0.58548,-0.333435,-0.634613,27846,23066,9964,-8994,-28662
15384,9.80957,-0.30625,0.746484,-12.2443,-84.5947,-107.139,1.0376,1.2207,1.2207,0.378937,-0.585205,-0.333862,-0.634308,28102,22810,11244,-8994,-28662
15390,9.78564,-0.301465,0.746484,-12.2607,-84.5892,-107.034,1.2207,1.15967,0.549316,0.379456,-0.58493,-0.33429,-0.634033,28358,23322,11756,-8994,-28662
15396,9.78564,-0.272754,0.727344,-12.2443,-84.5892,-106.963,0.854492,1.34277,-0.12207,0.379944,-0.584656,-0.334717,-0.633759,28358,23322,11756,-8994,-28662
15402,9.77607,-0.253613,0.693848,-12.2003,-84.5837,-106.924,0.549316,1.64795,-0.610352,0.380432,-0.584381,-0.335175,-0.633514,27590,23578,11756,-8994,-28662
15408,9.75215,-0.215332,0.727344,-12.0959,-84.5673,-106.848,1.0376,2.74658,-0.549316,0.381409,-0.58374,-0.336029,-0.633057,27078,23834,12012,-8994,-28662
15414,9.71865,-0.239258,0.746484,-12.0685,-84.5508,-106.793,1.28174,3.05176,0,0.381927,-0.583405,-0.336426,-0.632812,27078,23578,12780,-8994,-28662
15420,9.77129,-0.29668,0.746484,-12.041,-84.5398,-106.732,1.34277,2.99072,0.12207,0.382446,-0.583099,-0.336853,-0.632599,27846,23322,13804,-8994,-28662
15426,9.82393,-0.358887,0.765625,-11.9916,-84.5288,-106.688,1.46484,2.80762,-0.366211,0.382935,-0.582764,-0.33725,-0.632355,28358,23066,13804,-8994,-28662
15432,9.85264,-0.363672,0.756055,-11.9092,-84.5233,-106.688,1.2207,2.68555,-1.09863,0.383423,-0.582428,-0.337677,-0.632141,29126,22298,13292,-8994,-28662
15438,9.82393,-0.253613,0.784766,-11.5631,-84.5068,-106.875,0.976562,2.86865,-3.2959,0.384216,-0.581757,-0.338593,-0.631805,29894,21530,13036,-8994,-28662
15444,9.70908,-0.119629,0.784766,-11.3654,-84.5013,-106.99,1.40381,2.99072,-3.35693,0.384613,-0.58139,-0.33905,-0.631653,30150,21530,13804,-8994,-28662
15450,9.68516,-0.0957031,0.827832,-11.217,-84.4904,-107.051,1.77002,2.68555,-2.38037,0.38504,-0.581055,-0.339508,-0.63147,30406,22042,14572,-8994,-28662
15456,9.68994,-0.114844,0.823047,-11.1511,-84.4849,-107.034,1.95312,2.50244,-0.854492,0.385529,-0.580719,-0.339966,-0.631226,30406,22042,16108,-8994,-28662
15462,9.68037,-0.14834,0.799121,-11.1786,-84.4739,-106.913,2.19727,2.19727,1.0376,0.386078,-0.580414,-0.340363,-0.630951,30150,22554,16108,-8994,-28662
15468,9.73779,-0.186621,0.794336,-11.4203,-84.4574,-106.49,2.44141,1.52588,3.2959,0.387268,-0.579895,-0.341125,-0.63031,30150,22298,14316,-8994,-28662
15474,9.79043,-0.354102,0.77041,-11.5576,-84.4519,-106.254,2.44141,1.52588,3.23486,0.387878,-0.57962,-0.341492,-0.629974,29638,22554,12268,-8994,-28662
15480,9.81914,-0.373242,0.732129,-11.6565,-84.4409,-106.062,2.44141,1.83105,2.44141,0.388458,-0.579346,-0.341888,-0.629639,29638,21786,10732,-8994,-28662
15486,9.82871,-0.30625,0.736914,-11.6949,-84.4299,-105.936,2.86865,2.2583,1.34277,0.389008,-0.579041,-0.342285,-0.629364,29894,21018,9708,-8994,-28662
15492,9.7665,-0.267969,0.76084,-11.6895,-84.4189,-105.853,2.80762,2.80762,0.488281,0.389557,-0.578705,-0.342712,-0.629089,29894,20762,8172,-8994,-28662
15498,9.7665,-0.200977,0.813477,-11.6235,-84.3915,-105.727,3.72314,3.479,0.427246,0.390656,-0.578003,-0.343567,-0.628601,31174,19994,4844,-8994,-28662
15504,9.72822,-0.177051,0.818262,-11.6345,-84.3805,-105.623,4.02832,3.35693,1.09863,0.391235,-0.577667,-0.343994,-0.628326,31686,20506,3820,-8994,-28662
15510,9.73301,-0.215332,0.870898,-11.7169,-84.364,-105.447,3.54004,2.86865,2.44141,0.391876,-0.577332,-0.34436,-0.628021,31686,20506,2540,-8994,-28662
15516,9.7665,-0.282324,0.870898,-11.8048,-84.3585,-105.26,2.86865,2.01416,2.44141,0.392456,-0.577057,-0.344757,-0.627716,32198,21018,1516,-8994,-28662
15522,9.82871,-0.421094,0.837402,-11.9147,-84.353,-105.062,1.95312,-0.12207,1.09863,0.393005,-0.576813,-0.345154,-0.62738,32454,21530,748,-8994,-28662
15528,9.87178,-0.387598,0.823047,-11.9312,-84.364,-104.875,1.89209,-0.671387,-0.976562,0.393921,-0.576324,-0.346039,-0.62674,-32570,22810,-1813,-8994,-28662
15534,9.77129,-0.258398,0.856543,-11.8213,-84.3695,-104.903,1.89209,-0.976562,-2.44141,0.394287,-0.57608,-0.346558,-0.626465,-32570,23322,-3349,-8994,-28662
15540,9.72344,-0.172266,0.837402,-11.6949,-84.386,-104.947,1.83105,-1.40381,-2.80762,0.394623,-0.575836,-0.347076,-0.62619,32454,23578,-3861,-8994,-28662
15546,9.7043,-0.13877,0.827832,-11.5851,-84.397,-104.974,2.2583,-1.95312,-2.68555,0.394958,-0.575623,-0.347595,-0.625885,32454,23578,-5397,-8994,-28662
15552,9.7043,-0.133984,0.784766,-11.5356,-84.4135,-104.936,1.83105,-2.19727,0.0610352,0.395355,-0.575409,-0.348114,-0.625549,32454,23834,-5909,-8994,-28662
15558,9.66602,-0.162695,0.736914,-11.6345,-84.4409,-104.672,1.34277,-1.95312,1.0376,0.39621,-0.575043,-0.34903,-0.624817,32198,23066,-7445,-8994,-28662
15564,9.86221,-0.354102,0.75127,-11.7554,-84.4464,-104.469,0.488281,-1.83105,1.95312,0.396667,-0.574921,-0.349396,-0.624451,31942,23066,-9237,-8994,-28662
15570,9.86699,-0.363672,0.746484,-11.8158,-84.4574,-104.332,0.610352,-1.52588,0.732422,0.397064,-0.574738,-0.349823,-0.624115,31430,23066,-11285,-8994,-28662
15576,9.81914,-0.334961,0.794336,-11.7719,-84.4684,-104.299,0.366211,-1.15967,-1.28174,0.39743,-0.574524,-0.35025,-0.62384,31430,23322,-13333,-8994,-28662
15582,9.7665,-0.239258,0.794336,-11.6785,-84.4739,-104.321,0.366211,-1.46484,-3.05176,0.397736,-0.57431,-0.350708,-0.623566,31430,23322,-14869,-8994,-28662
15588,9.69473,-0.133984,0.803906,-11.4368,-84.5013,-104.414,0.427246,-1.64795,-2.74658,0.398315,-0.573914,-0.351654,-0.623077,29894,22554,-16405,-8994,-28662
15594,9.68516,-0.110059,0.77998,-11.3873,-84.5123,-104.392,0.488281,-1.52588,-1.46484,0.398651,-0.5737,-0.352081,-0.622772,29382,22554,-17429,-8994,-28662
15600,9.68994,-0.124414,0.756055,-11.4093,-84.5233,-104.299,0.610352,-1.34277,-0.0610352,0.399048,-0.573517,-0.352509,-0.622467,29638,22810,-17685,-8994,-28662
15606,9.64209,-0.153125,0.727344,-11.5302,-84.5288,-104.095,0.610352,-1.28174,2.01416,0.399475,-0.573364,-0.352875,-0.622131,29894,22554,-16917,-8994,-28662
15612,9.74258,-0.248828,0.77998,-11.7169,-84.5288,-103.832,0.915527,0,3.90625,0.399994,-0.573212,-0.35321,-0.621765,30406,22298,-16405,-8994,-28662
15618,9.80479,-0.282324,0.799121,-12.1179,-84.5233,-103.266,0.976562,0.488281,3.96729,0.401062,-0.572845,-0.353821,-0.621033,31686,20762,-17685,-8994,-28662
15624,9.7665,-0.267969,0.823047,-12.2937,-84.5178,-103.008,1.28174,0.854492,3.60107,0.401611,-0.572632,-0.354126,-0.620697,32198,20250,-16917,-8994,-28662
15630,9.7665,-0.210547,0.870898,-12.453,-84.5123,-102.766,1.46484,0.793457,3.35693,0.402161,-0.572418,-0.354462,-0.620361,32454,19994,-16917,-8994,-28662
15636,9.74736,-0.200977,0.842188,-12.6508,-84.5123,-102.48,1.77002,0.0610352,3.96729,0.40271,-0.572205,-0.354797,-0.619995,32710,20250,-15637,-8994,-28662
15642,9.71387,-0.196191,0.827832,-12.887,-84.5123,-102.156,2.19727,-0.549316,5.7373,0.40329,-0.572021,-0.355133,-0.619598,32454,21274,-13589,-8994,-28662
15648,9.73779,-0.30625,0.727344,-13.4857,-84.5068,-101.376,2.2583,-0.427246,6.16455,0.404541,-0.571686,-0.355774,-0.618713,31942,24090,-12821,-8994,-28662
15654,9.81914,-0.406738,0.722559,-13.8043,-84.5013,-100.964,2.13623,-0.427246,6.40869,0.405182,-0.571533,-0.356079,-0.618256,32710,24858,-12821,-8994,-28662
15660,9.87178,-0.46416,0.722559,-14.057,-84.5013,-100.624,1.70898,-0.305176,5.00488,0.405762,-0.57135,-0.356415,-0.617859,-31802,25626,-12821,-8994,-28662
15666,9.82871,-0.416309,0.765625,-14.2108,-84.4958,-100.388,1.2207,0.183105,3.11279,0.406311,-0.571167,-0.35675,-0.617493,-30522,26650,-12565,-8994,-28662
15672,9.81436,-0.358887,0.765625,-14.2712,-84.4958,-100.245,0.366211,0.12207,0.305176,0.406738,-0.570953,-0.357117,-0.617188,-29498,27930,-12565,-8994,-28662
15678,9.74736,-0.253613,0.77041,-14.2932,-84.5013,-100.074,0.366211,0.12207,-0.0610352,0.407532,-0.570496,-0.35788,-0.616638,-27962,30490,-17429,-8994,-28662
15684,9.71387,-0.248828,0.76084,-14.3042,-84.5013,-99.9866,0.610352,0.0610352,0.183105,0.407959,-0.570282,-0.358246,-0.616364,-27194,30490,-19477,-8994,-28662
15690,9.73779,-0.263184,0.746484,-14.3372,-84.5013,-99.8822,0.549316,0.366211,0.549316,0.408356,-0.570038,-0.358612,-0.616089,-26682,30234,-21013,-8994,-28662
15696,9.75215,-0.30625,0.741699,-14.3756,-84.5013,-99.7668,0.610352,0.793457,0.976562,0.408813,-0.569824,-0.358948,-0.615814,-26682,29466,-21525,-8994,-28662
15702,9.83828,-0.378027,0.784766,-14.3811,-84.4958,-99.6185,0.244141,1.15967,-0.427246,0.40921,-0.56958,-0.359283,-0.61554,-26938,28698,-19733,-8994,-28662
15708,9.75693,-0.358887,0.803906,-14.3097,-84.4904,-99.624,0.0610352,1.09863,-1.34277,0.409943,-0.569092,-0.360016,-0.615112,-27450,27418,-17173,-8994,-28662
15714,9.7665,-0.267969,0.818262,-14.1943,-84.4958,-99.668,0.0610352,0.610352,-2.2583,0.410248,-0.568848,-0.360382,-0.614899,-27706,26906,-15893,-8994,-28662
15720,9.78564,-0.234473,0.77998,-14.0735,-84.4958,-99.7174,0.183105,0.244141,-2.56348,0.410553,-0.568604,-0.360809,-0.614685,-28730,27162,-15637,-8994,-28662
15726,9.70908,-0.210547,0.775195,-13.9746,-84.5013,-99.7504,0.244141,0.244141,-2.13623,0.410858,-0.568359,-0.361206,-0.614471,-28986,27674,-15637,-8994,-28662
15732,9.71865,-0.244043,0.746484,-13.8538,-84.5013,-99.7339,0.488281,1.0376,-0.610352,0.411194,-0.568085,-0.361572,-0.614258,-29498,28186,-15893,-8994,-28662
15738,9.77129,-0.258398,0.736914,-13.8208,-84.4958,-99.7009,0.366211,1.52588,-0.488281,0.411926,-0.567596,-0.362244,-0.613831,-28474,27162,-14613,-8994,-28662
15744,9.7665,-0.248828,0.775195,-13.7933,-84.4904,-99.6625,0.427246,2.0752,-0.183105,0.412323,-0.567352,-0.362579,-0.613617,-28474,26906,-13589,-8994,-28662
15750,9.73301,-0.239258,0.775195,-13.7714,-84.4794,-99.613,0.366211,2.56348,0,0.41272,-0.567078,-0.362854,-0.613434,-28474,26906,-12565,-8994,-28662
15756,9.73301,-0.215332,0.77998,-13.7659,-84.4629,-99.5526,0.610352,3.17383,0.549316,0.413147,-0.566803,-0.363159,-0.613251,-28730,26906,-12309,-8994,-28662
15762,9.72822,-0.239258,0.789551,-13.8373,-84.4354,-99.3384,0.793457,3.54004,1.83105,0.413574,-0.566528,-0.363403,-0.613037,-29242,27418,-11285,-8994,-28662
15768,9.78086,-0.334961,0.870898,-13.9142,-84.4189,-99.1901,0.793457,3.35693,2.31934,0.414551,-0.565979,-0.363922,-0.61261,-30010,27418,-8469,-8994,-28662
15774,9.8,-0.363672,0.856543,-13.9636,-84.4025,-99.0747,0.610352,2.86865,1.52588,0.415009,-0.565704,-0.364166,-0.612366,-30010,26906,-6421,-8994,-28662
15780,9.85742,-0.354102,0.885254,-13.9746,-84.397,-98.9923,0.305176,2.0752,0.610352,0.415405,-0.56546,-0.364471,-0.612152,-30010,26906,-6421,-8994,-28662
15786,9.8,-0.30625,0.890039,-13.9417,-84.3915,-98.9594,0.183105,1.40381,-0.488281,0.415741,-0.565216,-0.364777,-0.611938,-30010,27418,-7701,-8994,-28662
15792,9.74736,-0.248828,0.894824,-13.9032,-84.397,-98.866,0.427246,-0.183105,-0.488281,0.416077,-0.565002,-0.365112,-0.611725,-29754,28698,-10261,-8994,-28662
15798,9.73779,-0.215332,0.765625,-13.9362,-84.4025,-98.7616,0.610352,-0.732422,0.427246,0.416779,-0.564636,-0.365814,-0.611176,-29498,30746,-14357,-8994,-28662
15804,9.69951,-0.282324,0.756055,-13.9911,-84.408,-98.6407,0.427246,-0.854492,0.732422,0.417145,-0.564453,-0.36615,-0.610901,-29754,30490,-15637,-8994,-28662
15810,9.75215,-0.311035,0.741699,-14.068,-84.408,-98.4979,0.183105,-0.366211,1.28174,0.417511,-0.564301,-0.366455,-0.610596,-30522,29722,-15637,-8994,-28662
15816,9.75215,-0.30625,0.736914,-14.1284,-84.408,-98.3716,0.244141,0.610352,1.15967,0.417908,-0.564087,-0.36676,-0.610352,-30778,28954,-15893,-8994,-28662
