Timestamp,AccX,AccY,AccZ,AngleX,AngleY,AngleZ,AngularVelX,AngularVelY,AngularVelZ,QW,QX,QY,QZ,MagX,MagY,MagZ,Height,AirPressure
141224,9.8,0.0861328,-0.0382813,110.923,-89.4672,32.5964,0,0.244141,0.0610352,0.223694,0.673645,-0.218658,0.669495,-30782,24854,-14106,-8787,-28687
141230,9.79043,0.0717773,-0.0143555,110.38,-89.4727,33.1128,0,0.610352,-0.12207,0.223877,0.673553,-0.218811,0.669464,-30270,25110,-15898,-8787,-28687
141236,9.82393,0.0287109,0,110.16,-89.4727,33.3215,0,0.427246,0.0610352,0.223969,0.673523,-0.218903,0.669464,-30270,25110,-16922,-8787,-28687
141242,9.82871,0.090918,-0.00957031,109.962,-89.4727,33.5028,-0.0610352,0.244141,-0.305176,0.22403,0.673492,-0.218964,0.669464,-29758,25366,-16666,-8787,-28687
141248,9.80957,0.090918,-0.0382813,109.902,-89.4672,33.5522,0,-0.0610352,-0.427246,0.224152,0.673462,-0.219055,0.669434,-29758,25110,-16666,-8787,-28687
141254,9.80957,0.0861328,-0.0239258,109.852,-89.4672,33.5852,0,-0.0610352,-0.366211,0.224213,0.673431,-0.219116,0.669403,-30270,25110,-16410,-8787,-28687
141260,9.79043,0.100488,0.00478516,109.698,-89.4617,33.717,0.0610352,-0.12207,-0.549316,0.224396,0.673401,-0.219208,0.669342,-31038,25366,-16922,-8787,-28687
141266,9.80479,0.100488,0,109.792,-89.4617,33.6072,0.12207,-0.305176,-0.244141,0.224487,0.67337,-0.219269,0.669312,-31294,25622,-16922,-8787,-28687
141272,9.77607,0.0957031,-0.0239258,109.874,-89.4562,33.5083,0,-0.305176,-0.305176,0.224579,0.67337,-0.21936,0.66925,-31550,25878,-17434,-8787,-28687
141278,9.79521,0.0765625,-0.0334961,109.94,-89.4562,33.4259,0.12207,-0.183105,-0.0610352,0.224701,0.67334,-0.219452,0.66922,-31550,26390,-17690,-8787,-28687
141284,9.77607,0.114844,-0.0382813,109.935,-89.4562,33.4149,0.183105,0,0.0610352,0.224854,0.673279,-0.219635,0.669159,-31806,27414,-18458,-8787,-28687
141290,9.82871,0.110059,-0.00478516,109.957,-89.4617,33.3655,0.305176,0.0610352,0.366211,0.224945,0.673248,-0.219727,0.669128,-32318,29206,-17434,-8787,-28687
141296,9.80957,0.100488,0.0239258,110.154,-89.4617,33.1458,0.12207,-0.305176,0.366211,0.225006,0.673218,-0.219818,0.669128,32706,29718,-17178,-8787,-28687
141302,9.81436,0.0669922,0.00957031,110.693,-89.4617,32.5854,0.183105,-0.915527,0.549316,0.225128,0.673187,-0.21994,0.669067,31682,29462,-15642,-8787,-28687
141308,9.82871,0.0765625,0.00478516,111.187,-89.4617,32.0636,0.12207,-0.854492,0.488281,0.22525,0.673157,-0.220123,0.669006,30402,29206,-13594,-8787,-28687
141314,9.8,0.0765625,-0.0143555,111.764,-89.4617,31.4594,0.244141,-1.09863,0.305176,0.225525,0.673096,-0.22049,0.668854,29634,28694,-12058,-8787,-28687
141320,9.80479,0.0765625,-0.0239258,113.049,-89.4562,30.108,0,-1.28174,0.0610352,0.225708,0.673065,-0.220703,0.668732,29890,28182,-9754,-8787,-28687
141326,9.80957,0.0717773,-0.0191406,113.637,-89.4562,29.4818,0.0610352,-1.28174,0,0.225891,0.673035,-0.220886,0.66864,29890,27670,-8730,-8787,-28687
141332,9.80957,0.0813477,-0.00957031,114.208,-89.4507,28.8776,0.12207,-1.28174,-0.0610352,0.226074,0.673004,-0.2211,0.668549,30402,27670,-9754,-8787,-28687
141338,9.80957,0.0765625,-0.0239258,114.774,-89.4507,28.2788,0.0610352,-1.28174,-0.0610352,0.226288,0.672974,-0.221344,0.668427,30402,27670,-11290,-8787,-28687
141344,9.80957,0.090918,-0.0382813,115.186,-89.4507,27.8284,0.183105,-0.915527,0.0610352,0.226685,0.672882,-0.221802,0.668213,30402,27670,-12314,-8787,-28687
141350,9.78086,0.090918,-0.0861328,115.697,-89.4452,27.2516,0.305176,-0.549316,-0.12207,0.226898,0.672852,-0.221985,0.668121,32450,28694,-14362,-8787,-28687
141356,9.81914,0.090918,-0.0574219,115.829,-89.4452,27.0923,0.183105,-0.366211,-0.0610352,0.227051,0.672821,-0.222168,0.66806,-32062,28694,-14618,-8787,-28687
141362,9.8,0.0861328,-0.0191406,115.763,-89.4452,27.1307,0,0,-0.183105,0.227234,0.67276,-0.222351,0.667999,-31294,29206,-14362,-8787,-28687
141368,9.80479,0.114844,-0.0430664,115.708,-89.4452,27.1582,0.366211,0.183105,0.244141,0.227386,0.672699,-0.222504,0.667938,-31294,29206,-13850,-8787,-28687
141374,9.80479,0.110059,-0.0717773,115.735,-89.4452,27.1033,0.183105,0.12207,0.488281,0.227661,0.672607,-0.222809,0.667847,-31038,29206,-13850,-8787,-28687
141380,9.80479,0.0765625,-0.0382813,115.56,-89.4507,27.2351,0.12207,0.366211,0.366211,0.227783,0.672546,-0.222931,0.667816,-30526,29206,-13082,-8787,-28687
141386,9.80957,0.0861328,-0.0191406,115.291,-89.4507,27.4878,0.183105,0.671387,0.305176,0.227905,0.672485,-0.223053,0.667786,-29502,29462,-14362,-8787,-28687
141392,9.8335,0.0478516,-0.0382813,114.966,-89.4562,27.7954,0.183105,0.671387,0.0610352,0.228027,0.672424,-0.223175,0.667786,-28990,30230,-15898,-8787,-28687
141398,9.82393,0.0717773,-0.0239258,114.587,-89.4562,28.158,0.0610352,0.732422,-0.0610352,0.228119,0.672363,-0.223267,0.667755,-28734,29974,-16154,-8787,-28687
141404,9.82393,0.0813477,-0.00478516,114.115,-89.4562,28.6194,0.183105,0.732422,-0.488281,0.228333,0.672272,-0.223419,0.667725,-28222,29718,-16922,-8787,-28687
141410,9.81436,0.0526367,-0.00478516,113.56,-89.4562,29.1467,0.183105,0.366211,-0.366211,0.228424,0.672241,-0.22348,0.667725,-27710,27414,-15386,-8787,-28687
141416,9.82871,0.062207,-0.00478516,113.291,-89.4507,29.3939,0.12207,0.12207,-0.915527,0.228516,0.672211,-0.223572,0.667694,-27454,26134,-13594,-8787,-28687
141422,9.82393,0.0669922,-0.0191406,113.049,-89.4452,29.6301,0.183105,0.12207,-0.854492,0.228638,0.67218,-0.223633,0.667664,-27454,25366,-12570,-8787,-28687
141428,9.82393,0.090918,-0.0334961,112.786,-89.4452,29.8773,0.12207,0.0610352,-1.09863,0.228729,0.67215,-0.223663,0.667633,-27454,24598,-12570,-8787,-28687
141434,9.8,0.105273,-0.0287109,112.516,-89.4397,30.1355,0,0.0610352,-1.15967,0.228943,0.672119,-0.223755,0.667572,-27710,24086,-13594,-8787,-28687
141440,9.80479,0.119629,-0.0143555,111.984,-89.4287,30.6409,0,0.0610352,-0.976562,0.229065,0.672119,-0.223785,0.667542,-27966,23830,-18202,-8787,-28687
141446,9.81914,0.110059,-0.0334961,111.786,-89.4232,30.8276,0,0.0610352,-0.854492,0.229187,0.672089,-0.223846,0.667511,-28478,24086,-19994,-8787,-28687
141452,9.8,0.119629,-0.0191406,111.627,-89.4232,30.9705,-0.0610352,0.183105,-0.305176,0.229279,0.672058,-0.223907,0.66748,-29502,24086,-20762,-8787,-28687
141458,9.79521,0.119629,-0.00957031,111.478,-89.4232,31.1023,0.183105,0.244141,-0.12207,0.22937,0.672028,-0.223969,0.66745,-30270,24598,-21530,-8787,-28687
141464,9.80957,0.124414,-0.0287109,111.396,-89.4232,31.1737,0.12207,0.244141,0.244141,0.229553,0.671967,-0.224152,0.667389,-30782,25366,-21018,-8787,-28687
141470,9.78564,0.105273,0,111.434,-89.4287,31.1023,0.0610352,0.244141,0.610352,0.229614,0.671906,-0.224243,0.667389,-30014,26134,-20762,-8787,-28687
141476,9.79521,0.100488,-0.0191406,111.703,-89.4342,30.8057,0.0610352,-0.0610352,1.40381,0.229706,0.671875,-0.224365,0.667358,-29502,26390,-21274,-8787,-28687
141482,9.81914,0.0957031,-0.0191406,111.813,-89.4397,30.6793,0,0,0.671387,0.229797,0.671814,-0.224518,0.667328,-29246,26390,-23322,-8787,-28687
141488,9.82393,0.0717773,-0.0239258,112.11,-89.4452,30.3607,0.0610352,-0.12207,1.34277,0.229889,0.671783,-0.22467,0.667297,-28734,26134,-25370,-8787,-28687
141494,9.8,0.0717773,-0.0287109,112.33,-89.4507,30.1245,0.12207,-0.12207,0.915527,0.230042,0.671692,-0.224976,0.667236,-28734,25878,-27674,-8787,-28687
141500,9.8335,0.0526367,-0.0430664,112.835,-89.4562,29.5807,0.0610352,-0.305176,0.488281,0.230133,0.671631,-0.225098,0.667206,-28990,24598,-29210,-8787,-28687
141506,9.80479,0.0334961,-0.0287109,112.961,-89.4562,29.4379,0.0610352,-0.244141,0.12207,0.230225,0.6716,-0.22522,0.667145,-29246,23830,-28442,-8787,-28687
141512,9.81914,0.0478516,-0.0334961,112.857,-89.4507,29.5312,0.0610352,0.0610352,-0.305176,0.230316,0.67157,-0.225311,0.667114,-29758,23574,-26650,-8787,-28687
141518,9.8335,0.0574219,-0.0334961,112.566,-89.4507,29.8114,0.183105,0.244141,-0.793457,0.230408,0.67157,-0.225403,0.667084,-30270,23574,-26394,-8787,-28687
141524,9.81436,0.0717773,-0.0574219,111.901,-89.4452,30.4706,0.366211,0.793457,-1.40381,0.23056,0.671509,-0.225403,0.667084,-30526,23574,-26138,-8787,-28687
141530,9.81914,0.0669922,-0.0861328,110.132,-89.4287,32.2504,0.244141,1.46484,-2.2583,0.230621,0.671509,-0.225342,0.667084,-31294,23574,-25114,-8787,-28687
141536,9.80479,0.0861328,-0.0717773,108.759,-89.4232,33.6401,0.488281,2.13623,-2.2583,0.230652,0.671509,-0.22522,0.667114,-31038,24342,-25370,-8787,-28687
141542,9.80479,0.090918,-0.0574219,107.194,-89.4177,35.2277,0.610352,2.62451,-2.2583,0.230621,0.671509,-0.225006,0.667206,-31038,24598,-24858,-8787,-28687
141548,9.81914,0.105273,-0.062207,105.205,-89.4122,37.2546,0.610352,3.54004,-2.56348,0.23056,0.671509,-0.224762,0.667297,-30782,24854,-24858,-8787,-28687
141554,9.80957,0.13877,0,102.997,-89.4012,39.5013,0.549316,4.15039,-2.50244,0.230347,0.671478,-0.224121,0.667603,-30526,25622,-24090,-8787,-28687
141560,9.75693,0.162695,0.0191406,98.454,-89.3958,44.1321,1.2207,4.76074,-1.46484,0.230194,0.671448,-0.223755,0.667816,-30014,25366,-22554,-8787,-28687
141566,9.77129,0.13877,0,96.1249,-89.3958,46.5161,1.40381,4.94385,-0.793457,0.230011,0.671417,-0.223389,0.66803,-31038,25622,-22298,-8787,-28687
141572,9.77129,0.13877,0,93.8727,-89.3903,48.8232,2.01416,4.82178,-0.610352,0.229797,0.671387,-0.223022,0.668274,-31550,25366,-21018,-8787,-28687
141578,9.76172,0.205762,0.0239258,91.7908,-89.3958,50.9601,1.89209,4.5166,0.244141,0.229553,0.671356,-0.222656,0.668518,-32318,25110,-21018,-8787,-28687
141584,9.82871,0.114844,0.0287109,89.9561,-89.3958,52.8497,1.77002,3.479,0,0.228973,0.671326,-0.221954,0.668976,-32062,24854,-20762,-8787,-28687
141590,9.81914,0.0574219,0.0813477,87.1985,-89.3958,55.7062,1.46484,2.50244,-0.0610352,0.228699,0.671326,-0.221588,0.669159,-30526,25366,-22298,-8787,-28687
141596,9.84785,0.0957031,0.0861328,86.5778,-89.3903,56.3599,0.915527,1.40381,-0.427246,0.228455,0.671356,-0.221313,0.669342,-30014,25878,-23066,-8787,-28687
141602,9.80957,0.090918,0.129199,86.4624,-89.3903,56.5027,0.549316,0.305176,-0.305176,0.228271,0.671387,-0.221069,0.669434,-29502,25878,-23578,-8787,-28687
141608,9.83828,0.100488,0.0813477,86.825,-89.3903,56.1511,0.305176,-0.732422,-0.305176,0.228149,0.671417,-0.220917,0.669495,-29502,25878,-23834,-8787,-28687
141614,9.81436,0.100488,0.0669922,87.6654,-89.3903,55.3107,0,-2.74658,-0.671387,0.228058,0.671539,-0.220856,0.669434,-29758,24854,-22810,-8787,-28687
141620,9.81436,0.124414,0.0574219,90.6097,-89.3848,52.3334,-0.183105,-3.60107,-0.488281,0.228119,0.6716,-0.220917,0.669342,-30270,23574,-22810,-8787,-28687
141626,9.8,0.129199,0.0143555,92.3181,-89.3848,50.603,-0.305176,-3.72314,-0.0610352,0.22821,0.671661,-0.221039,0.669189,-31294,23062,-23066,-8787,-28687
141632,9.80957,0.153125,0.0143555,94.1309,-89.3793,48.7573,-0.366211,-3.96729,0,0.228333,0.671722,-0.221222,0.669037,-31550,23574,-23834,-8787,-28687
141638,9.7665,0.114844,-0.0287109,95.8612,-89.3793,46.994,-0.12207,-3.78418,0.366211,0.228485,0.671783,-0.221466,0.668854,-31294,23830,-23322,-8787,-28687
141644,9.7665,0.172266,-0.0478516,97.4213,-89.3848,45.401,0.244141,-3.05176,1.28174,0.22876,0.671844,-0.221954,0.668518,-31038,24854,-23066,-8787,-28687
141650,9.8335,0.0813477,-0.0669922,100.135,-89.3903,42.627,0,-2.50244,1.52588,0.228882,0.671875,-0.222198,0.668396,-29758,25878,-22554,-8787,-28687
141656,9.82393,0.0382813,-0.0813477,101.008,-89.3958,41.7261,0.0610352,-1.70898,1.2207,0.228973,0.671844,-0.222443,0.668274,-29502,26390,-23066,-8787,-28687
141662,9.84307,0.0526367,-0.0861328,101.338,-89.4012,41.38,-0.0610352,-0.671387,0.427246,0.229065,0.671844,-0.222626,0.668182,-29502,26646,-24090,-8787,-28687
141668,9.79521,0.0717773,-0.0813477,101.124,-89.4012,41.5833,-0.0610352,0.427246,0,0.229156,0.671814,-0.222748,0.668121,-29758,26390,-24602,-8787,-28687
141674,9.80957,0.119629,-0.0191406,100.607,-89.4012,42.0886,0.0610352,1.46484,0,0.229279,0.671753,-0.22287,0.668152,-29502,25878,-24602,-8787,-28687
141680,9.81914,0.100488,-0.00478516,99.1022,-89.4012,43.5938,0.12207,1.64795,-0.244141,0.229309,0.671692,-0.22287,0.668182,-30526,25622,-26394,-8787,-28687
141686,9.82871,0.0813477,0,98.2782,-89.4012,44.4177,0.12207,1.70898,-0.0610352,0.22934,0.671631,-0.222839,0.668213,-30782,25878,-28442,-8787,-28687
141692,9.81914,0.0861328,0,97.5696,-89.4012,45.1263,0.183105,1.40381,-0.549316,0.22937,0.6716,-0.222839,0.668274,-30526,25878,-29466,-8787,-28687
141698,9.83828,0.0861328,0.0239258,96.8884,-89.4012,45.813,0.305176,1.34277,-0.732422,0.22937,0.67157,-0.222778,0.668304,-30526,26134,-29722,-8787,-28687
141704,9.82871,0.129199,0.0287109,96.0809,-89.3903,46.615,0.244141,0.427246,-0.915527,0.229462,0.671509,-0.222717,0.668365,-30526,26390,-29722,-8787,-28687
141710,9.8335,0.0957031,0.0239258,96.0205,-89.3848,46.6644,0.366211,0,-0.976562,0.229523,0.671509,-0.222717,0.668365,-30270,27414,-29466,-8787,-28687
141716,9.8,0.0717773,0.0382813,96.0205,-89.3793,46.6589,0.0610352,-0.12207,-0.915527,0.229584,0.671509,-0.222717,0.668335,-30270,27670,-29722,-8787,-28687
141722,9.82871,0.100488,0.0430664,96.2073,-89.3738,46.4502,0.12207,-0.610352,-1.40381,0.229675,0.671478,-0.222748,0.668304,-29758,27670,-29466,-8787,-28687
141728,9.82871,0.100488,0.0287109,96.6412,-89.3628,45.9998,0,-1.15967,-1.40381,0.229797,0.671478,-0.222809,0.668243,-29502,27670,-28954,-8787,-28687
141734,9.81914,0.133984,0.00957031,97.4982,-89.3518,45.0989,0,-1.2207,-1.28174,0.230103,0.671478,-0.222992,0.66806,-29246,27926,-27930,-8787,-28687
141740,9.8,0.13877,0.00957031,97.9761,-89.3408,44.5935,-0.0610352,-1.34277,-1.34277,0.230286,0.671478,-0.223114,0.667969,-30526,29206,-30490,-8787,-28687
141746,9.78086,0.153125,-0.0239258,98.5309,-89.3408,44.0057,0.12207,-1.46484,-0.732422,0.230469,0.671478,-0.223236,0.667847,-31294,29974,-32282,-8787,-28687
141752,9.80479,0.129199,0.0239258,99.1681,-89.3353,43.3411,0.12207,-1.64795,-0.610352,0.230621,0.671478,-0.223389,0.667755,-31806,30230,31462,-8787,-28687
141758,9.79521,0.129199,-0.0239258,99.9316,-89.3298,42.5446,0,-1.89209,-0.12207,0.230804,0.671478,-0.223572,0.667633,-32318,30230,30950,-8787,-28687
141764,9.78564,0.133984,0,101.206,-89.3243,41.2042,-0.0610352,-1.77002,-0.305176,0.23114,0.671448,-0.223969,0.667419,32706,29718,31462,-8787,-28687
141770,9.79521,0.13877,-0.00478516,101.909,-89.3298,40.4681,-0.12207,-1.64795,0.549316,0.231354,0.671448,-0.224182,0.667297,30914,28182,32486,-8787,-28687
141776,9.78564,0.14834,0,102.7,-89.3298,39.6332,-0.244141,-1.89209,0.488281,0.231506,0.671417,-0.224426,0.667175,29890,27158,31718,-8787,-28687
141782,9.7665,0.129199,-0.0143555,103.332,-89.3298,38.963,-0.366211,-1.52588,0.366211,0.23172,0.671387,-0.22467,0.667053,29890,26902,30438,-8787,-28687
141788,9.79521,0.105273,-0.0526367,104.046,-89.3298,38.2104,-0.244141,-1.58691,0.915527,0.231934,0.671326,-0.224945,0.666931,30658,26902,29670,-8787,-28687
141794,9.79043,0.124414,-0.0478516,104.963,-89.3353,37.2272,-0.12207,-0.732422,0.915527,0.232269,0.671265,-0.225433,0.666718,31682,26902,28902,-8787,-28687
141800,9.78564,0.0957031,-0.0430664,105.189,-89.3408,36.9745,0.0610352,-0.366211,0.915527,0.232422,0.671204,-0.225647,0.666656,-32318,27158,30438,-8787,-28687
141806,9.79521,0.119629,-0.0765625,105.128,-89.3463,37.0074,0,0.305176,0.854492,0.232574,0.671143,-0.225861,0.666595,-31806,26902,32486,-8787,-28687
141812,9.81436,0.0813477,-0.0861328,104.722,-89.3518,37.3975,0.183105,1.15967,0.915527,0.232697,0.671082,-0.226013,0.666565,-31550,26646,-32026,-8787,-28687
141818,9.83828,0.090918,-0.0526367,104.079,-89.3573,38.0292,0.305176,1.64795,0.732422,0.232788,0.67099,-0.226135,0.666565,-30526,25878,-29978,-8787,-28687
141824,9.82393,0.062207,-0.0143555,102.376,-89.3573,39.7211,0.183105,2.01416,-0.12207,0.23291,0.670868,-0.226227,0.666656,-30270,25622,-27930,-8787,-28687
141830,9.83828,0.062207,-0.00478516,101.409,-89.3573,40.6824,0.12207,2.01416,-0.793457,0.232971,0.670776,-0.226227,0.666687,-29502,26134,-25370,-8787,-28687
141836,9.82871,0.062207,0,100.657,-89.3518,41.4349,0,1.46484,-1.28174,0.233032,0.670715,-0.226227,0.666748,-29502,26390,-23322,-8787,-28687
141842,9.85264,0.0717773,-0.00957031,99.9811,-89.3463,42.1106,0,1.28174,-1.46484,0.233093,0.670685,-0.226166,0.666748,-30270,26902,-21786,-8787,-28687
141848,9.81436,0.110059,0.0287109,99.4757,-89.3408,42.6105,0.12207,0.854492,-1.77002,0.233154,0.670654,-0.226135,0.666779,-31038,27670,-19482,-8787,-28687
141854,9.80957,0.114844,0.0430664,99.0198,-89.3243,43.0444,0,0,-1.89209,0.233337,0.670624,-0.226074,0.666748,-32062,27670,-16666,-8787,-28687
141860,9.82393,0.129199,0.0526367,99.223,-89.3134,42.8247,-0.12207,-0.793457,-1.58691,0.233459,0.670624,-0.226105,0.666718,32450,28182,-11546,-8787,-28687
141866,9.8,0.13877,0.0813477,99.668,-89.3024,42.3468,-0.305176,-1.46484,-1.83105,0.233612,0.670624,-0.226196,0.666626,32706,27926,-10522,-8787,-28687
141872,9.79521,0.181836,0.0478516,100.432,-89.2969,41.5503,-0.0610352,-2.13623,-0.915527,0.233826,0.670624,-0.226318,0.666534,-32318,27414,-11290,-8787,-28687
141878,9.7665,0.162695,0.0478516,101.53,-89.2914,40.4077,0,-2.99072,-0.732422,0.234039,0.670624,-0.226501,0.666382,-32318,26646,-13850,-8787,-28687
141884,9.8,0.114844,-0.00478516,104.183,-89.2859,37.6611,0,-3.54004,0.244141,0.234497,0.670654,-0.227051,0.666016,-32318,26390,-17178,-8787,-28687
141890,9.8335,0.119629,-0.0669922,105.458,-89.2804,36.3373,0,-3.41797,0,0.234772,0.670624,-0.227386,0.665802,-32318,26646,-18714,-8787,-28687
141896,9.78564,0.119629,-0.0669922,106.65,-89.2749,35.0958,-0.0610352,-3.23486,0,0.235016,0.670624,-0.227722,0.665619,-32318,26646,-19226,-8787,-28687
141902,9.76172,0.119629,-0.090918,107.633,-89.2749,34.0631,-0.0610352,-2.62451,0.305176,0.23526,0.670624,-0.228027,0.665436,-32318,26390,-19738,-8787,-28687
141908,9.78564,0.129199,-0.0765625,108.38,-89.2694,33.2776,-0.0610352,-2.0752,0.0610352,0.235474,0.670624,-0.228333,0.665253,-32318,26390,-19226,-8787,-28687
141914,9.8,0.133984,-0.0669922,109.166,-89.2694,32.4207,0.366211,-0.732422,0.305176,0.235901,0.670532,-0.228821,0.665009,-31806,25878,-19226,-8787,-28687
141920,9.8,0.124414,-0.105273,109.182,-89.2694,32.3767,0.427246,0,0.305176,0.236084,0.670502,-0.229034,0.664917,-31806,25878,-19738,-8787,-28687
141926,9.81914,0.114844,-0.090918,108.935,-89.2749,32.6019,0.183105,0.732422,0.366211,0.236237,0.670441,-0.229218,0.664886,-32062,25878,-19738,-8787,-28687
141932,9.80957,0.105273,-0.090918,108.457,-89.2804,33.0634,0.12207,1.2207,0,0.236359,0.670349,-0.22934,0.664856,-32574,26134,-20506,-8787,-28687
141938,9.79521,0.105273,-0.0861328,107.71,-89.2804,33.8049,0.12207,2.01416,0.183105,0.23645,0.670288,-0.229431,0.664856,32450,26646,-21018,-8787,-28687
141944,9.79521,0.129199,-0.0287109,105.452,-89.2859,36.0516,0,2.92969,-0.305176,0.236603,0.670135,-0.229462,0.664978,30658,26646,-20506,-8787,-28687
141950,9.81914,0.143555,0.0239258,104.354,-89.2914,37.1503,-0.183105,2.86865,0.183105,0.236633,0.670044,-0.229431,0.665039,30146,26134,-19226,-8787,-28687
141956,9.80479,0.15791,0.0334961,103.453,-89.2914,38.0402,-0.305176,2.31934,0.244141,0.236694,0.669952,-0.229431,0.665131,29634,25110,-18458,-8787,-28687
141962,9.77129,0.16748,0.0334961,102.865,-89.2969,38.6224,-0.366211,1.58691,0.549316,0.236755,0.669861,-0.229431,0.665192,29122,24086,-19482,-8787,-28687
141968,9.80479,0.129199,0.0478516,102.612,-89.3079,38.8586,-0.305176,0.915527,1.40381,0.236816,0.6698,-0.229492,0.665222,29122,23830,-20762,-8787,-28687
141974,9.80957,0.129199,0.0334961,102.766,-89.3188,38.6664,-0.183105,-0.244141,1.64795,0.236908,0.669678,-0.229736,0.665222,29890,23574,-22042,-8787,-28687
141980,9.82393,0.100488,0.0334961,103.228,-89.3298,38.183,-0.366211,-0.732422,1.89209,0.236969,0.669617,-0.229919,0.665192,29890,23574,-21786,-8787,-28687
141986,9.84785,0.090918,0.0239258,103.771,-89.3353,37.6062,-0.366211,-1.0376,1.40381,0.237061,0.669556,-0.230133,0.665131,30146,23062,-22298,-8787,-28687
141992,9.82393,0.0957031,0.0191406,104.634,-89.3408,36.7108,-0.305176,-1.83105,1.2207,0.237213,0.669525,-0.230347,0.66507,29890,22550,-22554,-8787,-28687
141998,9.80957,0.110059,0.00478516,105.469,-89.3408,35.8374,-0.244141,-1.83105,0.915527,0.237335,0.669495,-0.230591,0.664948,29890,22294,-23578,-8787,-28687
142004,9.8335,0.114844,-0.0526367,107.419,-89.3463,33.8159,0,-1.95312,1.15967,0.237671,0.669434,-0.23114,0.664703,30146,21014,-25882,-8787,-28687
142010,9.82871,0.119629,-0.100488,108.029,-89.3463,33.1732,0,-1.34277,0.610352,0.237823,0.669403,-0.231384,0.664581,30402,21014,-27930,-8787,-28687
142016,9.81914,0.062207,-0.14834,107.924,-89.3463,33.2556,0.0610352,0.244141,0.183105,0.237976,0.669373,-0.231598,0.66449,30402,20758,-28954,-8787,-28687
142022,9.8,0.0574219,-0.13877,107.216,-89.3463,33.9587,0.305176,1.58691,-0.244141,0.238098,0.669312,-0.23172,0.664459,30402,20758,-29210,-8787,-28687
142028,9.78564,0.0813477,-0.119629,105.859,-89.3518,35.3156,0.0610352,3.05176,-0.488281,0.238159,0.66925,-0.23175,0.66449,30402,20758,-28954,-8787,-28687
142034,9.79521,0.129199,-0.0430664,101.92,-89.3518,39.2816,0,4.76074,-0.610352,0.23822,0.669098,-0.231567,0.664703,30402,21270,-29210,-8787,-28687
142040,9.77607,0.062207,-0.0574219,99.4757,-89.3573,41.748,-0.305176,5.5542,-0.366211,0.23819,0.669006,-0.231415,0.664856,31170,21526,-29722,-8787,-28687
142046,9.68516,0.133984,0.0574219,97.0038,-89.3573,44.2419,-0.610352,5.5542,-0.488281,0.238098,0.668884,-0.231201,0.66507,31682,22550,-30746,-8787,-28687
142052,9.7665,0.215332,0.0334961,94.4714,-89.3683,46.8018,-0.183105,5.79834,0.915527,0.238037,0.668762,-0.230988,0.665283,32194,23318,-30746,-8787,-28687
142058,9.7043,0.181836,0.0191406,91.8787,-89.3793,49.422,0.0610352,5.85938,2.2583,0.237793,0.668518,-0.230682,0.665741,32450,23574,-31258,-8787,-28687
142064,9.76172,0.15791,0.110059,87.2864,-89.4067,54.0582,-0.427246,4.45557,3.35693,0.23761,0.668396,-0.23053,0.665985,31426,26134,-31770,-8787,-28687
142070,9.78564,0.129199,0.0669922,85.3857,-89.4287,55.9808,-0.488281,3.66211,4.08936,0.237427,0.668274,-0.230469,0.666199,30658,27158,-32282,-8787,-28687
142076,9.8,0.133984,0.0669922,83.6719,-89.4452,57.7112,-0.366211,2.99072,4.63867,0.237274,0.668152,-0.230438,0.666382,30658,27670,32486,-8787,-28687
142082,9.80957,0.100488,0.0430664,81.9196,-89.4672,59.48,-0.244141,2.80762,4.63867,0.237061,0.66806,-0.230469,0.666534,31170,27414,32486,-8787,-28687
142088,9.75693,0.0957031,0.0813477,80.1233,-89.4946,61.2872,0,2.50244,5.37109,0.236664,0.667877,-0.23053,0.66684,32194,26902,32486,-8787,-28687
142094,9.85264,0.0526367,0.0334961,76.3165,-89.5276,65.127,-0.244141,2.50244,4.02832,0.236481,0.667786,-0.23053,0.666992,-31806,26646,-32538,-8787,-28687
142100,9.81436,0.0334961,0.0430664,74.5642,-89.5441,66.8958,-0.244141,2.0752,3.60107,0.236298,0.667694,-0.23053,0.667145,-31550,26902,-32026,-8787,-28687
142106,9.79521,0.062207,0.119629,73.0756,-89.5551,68.3954,-0.305176,1.46484,3.60107,0.236115,0.667633,-0.230499,0.667267,-31038,26902,-31258,-8787,-28687
142112,9.78564,0.062207,0.13877,72.3505,-89.5715,69.1205,0,0.183105,3.2959,0.235992,0.667572,-0.23053,0.667358,-30782,27670,-31002,-8787,-28687
142118,9.88135,0.0191406,0.110059,72.2681,-89.588,69.1919,-0.305176,-0.915527,3.41797,0.23584,0.667511,-0.230804,0.667389,-29758,28694,-31258,-8787,-28687
142124,9.89092,-0.00478516,0.0191406,74.6686,-89.6155,66.7474,-0.366211,-2.44141,1.77002,0.23587,0.667511,-0.230988,0.667297,-29246,30486,-32282,-8787,-28687
142130,9.85742,-0.0382813,-0.0382813,75.8441,-89.621,65.5444,-0.488281,-1.77002,0.610352,0.235931,0.667542,-0.231201,0.667206,-29246,31254,-32026,-8787,-28687
142136,9.8335,0,-0.0382813,76.3934,-89.6155,64.9677,-0.427246,-0.610352,-0.549316,0.236053,0.667511,-0.231384,0.667114,-29758,32022,-32282,-8787,-28687
142142,9.8,0.0717773,-0.0574219,76.4264,-89.61,64.9237,-0.427246,0.244141,-1.09863,0.236206,0.667511,-0.231506,0.667023,-29758,32278,-31770,-8787,-28687
142148,9.75693,0.162695,0.0287109,76.0199,-89.61,65.3247,-0.366211,0.671387,-0.305176,0.23642,0.66745,-0.231628,0.666992,-29502,-32746,-30490,-8787,-28687
142154,9.72344,0.13877,0,74.8169,-89.621,66.4948,-0.244141,0.427246,2.01416,0.23645,0.667389,-0.23172,0.666992,-28478,-31978,-29722,-8787,-28687
142160,9.71865,0.105273,-0.0239258,73.504,-89.632,67.8076,-0.305176,0.976562,2.99072,0.236481,0.667328,-0.231812,0.666992,-28478,-31978,-29978,-8787,-28687
142166,9.71387,0.119629,-0.0430664,71.0431,-89.6484,70.2795,-0.244141,1.95312,4.21143,0.23642,0.667267,-0.231903,0.667053,-28222,-31722,-30234,-8787,-28687
142172,9.76172,0.100488,-0.0287109,67.6703,-89.6649,73.6633,0.0610352,2.68555,4.5166,0.236267,0.667175,-0.231964,0.667175,-27454,-31722,-29466,-8787,-28687
142178,9.75215,0.062207,0.0287109,63.4296,-89.6814,77.926,0,3.17383,4.94385,0.23587,0.666992,-0.231964,0.667511,-26430,-31978,-28442,-8787,-28687
142184,9.75693,0.105273,0.0765625,52.8717,-89.7089,88.5278,-0.244141,3.2959,5.92041,0.235626,0.666901,-0.231964,0.667694,-25918,-31978,-27674,-8787,-28687
142190,9.83828,0.0574219,0.0430664,46.8896,-89.7253,94.5374,0.366211,2.68555,6.22559,0.235352,0.666809,-0.231964,0.667877,-25918,-31978,-27162,-8787,-28687
142196,9.83828,-0.0287109,0.0287109,40.3253,-89.7308,101.135,-0.12207,2.68555,6.22559,0.235046,0.666718,-0.231934,0.668091,-26174,-31466,-26906,-8787,-28687
142202,9.8335,-0.0143555,0.0143555,33.4094,-89.7363,108.078,-0.427246,2.92969,5.92041,0.234711,0.666626,-0.231903,0.668274,-26174,-29930,-26650,-8787,-28687
142208,9.86699,-0.0717773,0.062207,27.2021,-89.7418,114.318,-0.610352,2.80762,5.06592,0.2341,0.666504,-0.231781,0.668671,-25918,-29162,-25882,-8787,-28687
142214,9.90527,-0.0717773,0.0574219,17.8528,-89.7308,123.723,-1.0376,2.31934,3.11279,0.233826,0.666443,-0.23172,0.668854,-24382,-26858,-25882,-8787,-28687
142220,9.91006,-0.0957031,0.0478516,14.9908,-89.7253,126.601,-1.28174,2.01416,2.38037,0.233612,0.666382,-0.231628,0.669006,-23614,-26346,-26650,-8787,-28687
142226,9.86221,-0.062207,-0.0287109,13.7384,-89.7144,127.881,-1.70898,2.38037,0.793457,0.233459,0.666351,-0.231567,0.669128,-23102,-25322,-27162,-8787,-28687
142232,9.81914,-0.0669922,-0.0239258,13.645,-89.6979,128.013,-1.89209,3.479,-0.610352,0.233307,0.666321,-0.231415,0.66925,-22078,-24042,-27930,-8787,-28687
142238,9.73779,0.0813477,0.143555,13.6615,-89.6704,128.035,-1.83105,4.63867,-0.366211,0.233002,0.66626,-0.230835,0.669617,-21310,-23274,-28954,-8787,-28687
142244,9.78564,0.100488,0.210547,12.0026,-89.6375,129.76,-1.70898,3.2959,0.854492,0.232849,0.666229,-0.23056,0.66983,-20542,-22506,-32026,-8787,-28687
142250,9.78086,0.0861328,0.210547,10.2008,-89.632,131.583,-1.83105,1.40381,2.19727,0.232697,0.666168,-0.230377,0.669983,-20286,-22506,30950,-8787,-28687
142256,9.79043,0.0765625,0.133984,8.53088,-89.632,133.264,-1.46484,0.244141,2.2583,0.232544,0.666138,-0.230347,0.670074,-20030,-22762,28646,-8787,-28687
142262,9.73779,0.0574219,0.090918,6.11938,-89.632,135.692,-1.28174,0.0610352,3.23486,0.232391,0.666138,-0.230316,0.670135,-19262,-23274,26598,-8787,-28687
142268,9.69951,0.153125,0.133984,2.70264,-89.6375,139.136,-0.915527,-0.427246,5.79834,0.231903,0.666168,-0.230255,0.670319,-19006,-22762,25830,-8787,-28687
142274,9.75693,0.0861328,0.177051,-7.24548,-89.6429,149.167,-1.2207,-1.46484,7.01904,0.231537,0.666199,-0.230194,0.670441,-17726,-21738,24806,-8787,-28687
142280,9.80479,0.0334961,0.0813477,-13.7384,-89.6484,155.693,-1.77002,-2.38037,7.93457,0.23111,0.666229,-0.230225,0.670532,-18238,-21226,24294,-8787,-28687
142286,9.87178,-0.0526367,0.0334961,-20.2698,-89.6484,162.257,-2.56348,-2.74658,7.75146,0.230652,0.66629,-0.230255,0.670593,-18494,-21482,24038,-8787,-28687
142292,9.74258,-0.440234,0.277539,-26.1749,-89.6484,168.14,-3.35693,-2.2583,7.08008,0.230225,0.666351,-0.230316,0.670654,-19006,-22250,24294,-8787,-28687
142298,9.68516,0.0143555,0.129199,-31.5088,-89.6429,173.452,-7.99561,-5.5542,7.14111,0.230042,0.66629,-0.230988,0.670563,-19518,-22506,24038,-8787,-28687
142304,9.84785,0.0717773,0.301465,-48.4387,-89.6429,-169.678,-9.33838,-8.42285,8.8501,0.22998,0.666321,-0.231445,0.67041,-18750,-21482,25574,-8787,-28687
142310,9.73301,0.0430664,0.253613,-59.5953,-89.632,-158.538,-8.66699,-9.94873,10.5591,0.229828,0.666412,-0.231964,0.670197,-18238,-20202,26342,-8787,-28687
142316,9.72344,-0.0526367,0.0813477,-70.1147,-89.6045,-148.024,-7.56836,-10.437,11.2915,0.229523,0.666534,-0.232483,0.669983,-17470,-19434,27366,-8787,-28687
142322,9.85742,-0.153125,0.0813477,-78.9203,-89.5605,-139.224,-7.62939,-10.376,11.2915,0.229126,0.666718,-0.23291,0.669769,-16958,-18410,28390,-8787,-28687
142328,9.84307,-0.229688,-0.244043,-85.7812,-89.5221,-132.374,-7.75146,-9.8877,10.0708,0.228394,0.667053,-0.233795,0.669373,-16702,-17898,30438,-8787,-28687
142334,9.97705,-0.205762,-0.14834,-93.5486,-89.4507,-124.673,-9.70459,-5.85938,6.65283,0.228241,0.667175,-0.234253,0.669189,-15166,-17386,-32538,-8787,-28687
142340,9.89092,-0.191406,-0.0717773,-95.0262,-89.4232,-123.25,-8.72803,-3.35693,5.31006,0.228271,0.667175,-0.234741,0.668976,-13886,-16874,-31258,-8787,-28687
142346,9.80479,-0.0669922,-0.100488,-95.4163,-89.4012,-122.921,-7.8125,-1.28174,4.82178,0.228394,0.667114,-0.23526,0.668823,-12350,-15594,-29978,-8787,-28687
142352,9.78564,-0.0430664,0.0239258,-95.2625,-89.3793,-123.113,-6.46973,-0.183105,4.88281,0.228607,0.666992,-0.235748,0.668732,-11070,-14058,-28954,-8787,-28687
142358,9.78086,0,-0.0191406,-93.7518,-89.3243,-124.678,-4.02832,1.52588,6.16455,0.22876,0.666687,-0.23645,0.668701,-10302,-12266,-28954,-8787,-28687
142364,-9.21143,-4.42148,-1.81836,-23.8348,-89.5056,165.366,32.7759,98.5718,-95.3979,0.228729,0.666565,-0.236725,0.668762,-10046,-8426,-29722,-8787,-28687
142370,19.5952,-14.2837,-3.95732,26.0596,-86.8469,115.862,129.456,476.624,-318.115,0.232666,0.664551,-0.233154,0.670624,-10046,-7658,-31514,-8787,-28687
142376,25.2465,33.6301,10.9149,15.1886,-85.8307,126.475,-108.643,234.619,54.6875,0.244293,0.654419,-0.216766,0.681885,-11070,-8426,29926,-8787,-28687
142382,32.7065,-0.75127,14.2358,0.966797,-85.7208,141.411,92.7124,50.354,212.28,0.24646,0.64624,-0.217468,0.68866,-12094,-10474,24038,-8787,-28687
142388,1.36377,-9.80957,-1.95234,-16.4465,-85.8197,160.016,29.6021,-76.4771,88.8062,0.226746,0.643433,-0.218506,0.697662,-12094,-13802,16358,-8787,-28687
142394,6.24941,-7.29258,-0.540723,-18.8635,-86.5668,162.081,-87.7686,-151.672,-21.4233,0.221649,0.645416,-0.220062,0.69696,-8766,-17130,-539,-8787,-28687
142400,9.7665,1.44033,-1.83271,-19.9237,-87.3468,162.642,-118.835,-149.17,-47.8516,0.222778,0.649506,-0.223145,0.691803,-5182,-16362,-7963,-8787,-28687
142406,4.85215,3.44053,-0.291895,-22.7911,-87.8577,165.245,-79.1626,-103.882,-18.4937,0.225555,0.653442,-0.226288,0.686157,-1598,-14826,-13595,-8787,-28687
142412,6.11543,2.7084,0.153125,-27.2461,-88.0115,169.777,-19.104,-43.0298,15.0146,0.226562,0.656158,-0.228394,0.682526,963,-13290,-16155,-8787,-28687
142418,9.5751,-1.63174,0.119629,-32.7502,-87.8302,175.776,12.8784,8.72803,24.1089,0.222839,0.657562,-0.22818,0.682465,2243,-11754,-15643,-8787,-28687
142424,11.1542,-1.83271,0.0478516,-33.2446,-87.8027,176.407,-0.244141,1.2207,5.67627,0.220886,0.657501,-0.227478,0.683411,4035,-8938,-12571,-8787,-28687
142430,9.95791,-1.11973,0.291895,-32.168,-87.8357,175.424,-5.92041,-1.46484,-10.7422,0.21991,0.657654,-0.226837,0.683807,4803,-8170,-11803,-8787,-28687
142436,10.8432,0.0574219,0.00478516,-30.4486,-87.8687,173.804,-3.05176,0.366211,-14.8315,0.219666,0.657959,-0.226013,0.683838,5571,-7402,-10267,-8787,-28687
142442,9.47461,0.354102,0.564648,-29.0863,-87.8796,172.557,-0.0610352,2.74658,-9.8877,0.219482,0.658264,-0.225006,0.683929,6595,-6122,-9243,-8787,-28687
142448,9.80957,-0.334961,0.0191406,-27.5647,-87.8851,171.288,1.2207,3.05176,-5.5542,0.218475,0.658783,-0.223114,0.684387,8131,-5866,-7963,-8787,-28687
142454,10.0967,-0.478516,0.0957031,-26.0486,-87.8741,169.876,0.854492,6.28662,-9.33838,0.217957,0.658966,-0.222229,0.684662,9923,-4330,-3611,-8787,-28687
142460,10.4412,-0.320605,0.177051,-24.0051,-87.8687,167.932,0.305176,7.01904,-13.4888,0.217621,0.659058,-0.221252,0.684998,9667,-3818,-2075,-8787,-28687
142466,9.69951,-0.220117,0.368457,-21.8738,-87.8741,165.883,-0.671387,5.79834,-14.8926,0.217529,0.659149,-0.220245,0.685242,9411,-2538,-283,-8787,-28687
142472,9.75215,0.100488,0.15791,-19.8413,-87.8687,163.932,-0.976562,5.79834,-14.0991,0.217499,0.659271,-0.219269,0.685455,8643,-1770,-283,-8787,-28687
142478,9.24971,0.397168,0.277539,-17.3254,-87.8247,161.592,-0.915527,7.08008,-5.00488,0.217346,0.659424,-0.217499,0.685913,8131,-1258,-1819,-8787,-28687
142484,9.4459,0.382812,0.311035,-17.1222,-87.7863,161.494,-0.549316,7.20215,0.671387,0.21701,0.659454,-0.216736,0.686249,7619,-2026,-4379,-8787,-28687
142490,9.53682,0.224902,0.425879,-17.5342,-87.7478,162.021,-0.549316,6.7749,5.61523,0.216431,0.659424,-0.216095,0.686676,7107,-2794,-5915,-8787,-28687
142496,9.71865,0.210547,0.502441,-18.4241,-87.7094,163.032,-0.549316,4.76074,9.15527,0.215668,0.659363,-0.215546,0.687134,6851,-4330,-6427,-8787,-28687
142502,9.6708,0.0765625,0.6125,-19.7754,-87.6764,164.509,0.366211,2.0752,12.5122,0.214722,0.659363,-0.215088,0.687592,7107,-5610,-5915,-8787,-28687
142508,9.85742,-0.244043,0.435449,-22.9614,-87.6434,167.964,-0.305176,-2.74658,13.4277,0.212372,0.659546,-0.214294,0.688385,7107,-6634,-5403,-8787,-28687
142514,9.99141,-0.29668,0.416309,-24.3896,-87.6379,169.525,-0.183105,-3.84521,11.4746,0.211151,0.659729,-0.213928,0.68866,8899,-7146,-5403,-8787,-28687
142520,10.044,-0.31582,0.401953,-25.6311,-87.6379,170.898,-0.427246,-4.63867,9.46045,0.209991,0.660004,-0.213531,0.688904,9155,-6378,-5659,-8787,-28687
142526,9.8335,-0.349316,0.401953,-26.6803,-87.6489,172.073,-0.427246,-6.04248,6.95801,0.208893,0.660278,-0.213104,0.689117,9923,-5866,-6171,-8787,-28687
142532,9.9627,-0.267969,0.354102,-27.5592,-87.6654,173.073,-0.732422,-7.20215,4.63867,0.207886,0.660614,-0.212616,0.68924,10435,-4586,-6939,-8787,-28687
142538,9.8335,-0.215332,0.172266,-29.1083,-87.7203,174.869,-1.2207,-7.99561,2.56348,0.206055,0.661438,-0.211578,0.689331,11715,-2538,-7963,-8787,-28687
142544,9.97705,-0.200977,0.172266,-29.751,-87.7423,175.622,-1.83105,-7.01904,2.0752,0.2052,0.661865,-0.211029,0.689331,11715,-1258,-8475,-8787,-28687
142550,9.9627,-0.291895,0.191406,-30.2234,-87.7698,176.193,-2.99072,-6.71387,0.488281,0.204407,0.662262,-0.21051,0.689362,11715,-234,-8219,-8787,-28687
142556,9.89092,-0.220117,0.253613,-30.5695,-87.8027,176.638,-3.54004,-6.40869,-0.549316,0.203705,0.662628,-0.209961,0.689362,11459,535,-7707,-8787,-28687
142562,9.63252,-0.191406,0.330176,-30.921,-87.8302,177.089,-4.08936,-7.01904,-0.976562,0.203064,0.662994,-0.209442,0.689362,11459,1047,-8219,-8787,-28687
142568,9.66123,-0.062207,0.30625,-32.168,-87.8961,178.517,-5.37109,-8.36182,1.34277,0.201843,0.663788,-0.208466,0.68924,11459,1559,-8731,-8787,-28687
142574,9.80957,-0.13877,0.239258,-33.0963,-87.9291,179.533,-6.65283,-8.97217,2.31934,0.201172,0.664185,-0.208038,0.689178,11203,2327,-8987,-8787,-28687
142580,9.75215,-0.253613,0.162695,-34.2169,-87.9565,-179.275,-9.58252,-9.76562,2.99072,0.200531,0.664581,-0.207703,0.689117,10435,3095,-7451,-8787,-28687
142586,9.85264,-0.162695,0.31582,-35.6067,-87.995,-177.83,-14.2212,-12.0239,3.2959,0.199921,0.664978,-0.207458,0.688965,10179,3607,-5147,-8787,-28687
142592,9.78564,-0.0669922,0.459375,-37.4084,-88.0444,-175.984,-16.2964,-14.5874,4.3335,0.199402,0.665405,-0.207397,0.688751,9923,4631,-1819,-8787,-28687
142598,9.7665,-0.13877,0.15791,-41.6656,-88.1213,-171.584,-10.8643,-15.0757,5.79834,0.198181,0.666382,-0.207367,0.688141,8899,5655,4326,-8787,-28687
142604,3.70371,-2.98115,-0.00957031,-37.8534,-88.1543,-175.331,-0.732422,10.9253,-23.3154,0.197388,0.666931,-0.207184,0.687897,8387,5655,6886,-8787,-28687
142610,-14.6952,-35.6686,3.05771,21.0443,-85.8472,126.167,108.215,481.812,-528.87,0.197784,0.666931,-0.206024,0.688141,7619,4887,7910,-8787,-28687
142616,35.6877,43.1956,34.1756,17.1826,-84.375,130.106,-20.752,296.265,-38.208,0.214935,0.657562,-0.183838,0.698212,6339,2071,5606,-8787,-28687
142622,36.1566,6.01973,17.0112,4.47144,-84.8474,143.185,26.3672,-52.2461,252.991,0.218018,0.648712,-0.179688,0.706543,5059,-746,742,-8787,-28687
142628,-2.78496,-12.9295,-1.69395,-13.0792,-85.177,161.927,26.9165,-103.516,93.811,0.196472,0.648071,-0.186462,0.711731,5571,-7914,-16155,-8787,-28687
142634,8.99131,-10.1541,-4.00518,-12.2388,-85.9955,160.768,-84.0454,-159.119,-59.1431,0.19101,0.650787,-0.188416,0.710205,7619,-9450,-25371,-8787,-28687
142640,9.21621,3.69893,-2.50742,-8.95935,-86.7151,156.984,-123.596,-136.841,-79.2236,0.193146,0.655487,-0.190125,0.704803,10435,-9962,-32283,-8787,-28687
142646,2.9333,6.24463,2.73232,-9.56909,-87.2314,157.357,-74.585,-105.957,-17.5171,0.197174,0.659363,-0.1922,0.699524,12995,-9706,29157,-8787,-28687
142652,3.25869,4.01475,0.449805,-14.3481,-87.4292,162.241,-12.5732,-53.1616,31.6162,0.197998,0.66217,-0.194122,0.696106,13763,-8938,28389,-8787,-28687
142658,12.0395,-1.63652,-0.090918,-24.8895,-87.2754,173.205,9.21631,3.41797,44.8608,0.192932,0.663696,-0.195526,0.695648,14275,-7402,29925,-8787,-28687
142664,11.2882,-2.69883,0.77998,-26.6748,-87.215,175.161,4.3335,-0.12207,18.4937,0.190338,0.663422,-0.195618,0.696594,13763,-6378,32229,-8787,-28687
142670,10.1206,-1.8375,0.574219,-26.3892,-87.2369,175.007,-2.86865,-6.34766,-7.20215,0.18869,0.663422,-0.19519,0.697174,14019,-4074,-31771,-8787,-28687
142676,9.66123,-0.382812,-0.0334961,-25.2081,-87.2919,173.936,-4.69971,-7.8125,-17.4561,0.188019,0.663788,-0.194336,0.697266,13763,-1514,-30747,-8787,-28687
142682,11.0154,0.861328,-0.0191406,-24.3073,-87.2809,173.172,-1.34277,1.89209,-9.33838,0.187164,0.664368,-0.192261,0.697479,14019,1047,-29723,-8787,-28687
142688,9.91963,-0.516797,0.291895,-23.8513,-87.2424,173.007,-0.0610352,1.28174,-2.99072,0.186249,0.664459,-0.191315,0.697906,14787,3607,-28955,-8787,-28687
142694,9.82393,-0.483301,0.363672,-23.1262,-87.2314,172.414,-0.976562,1.58691,-7.75146,0.185486,0.664581,-0.19046,0.698242,14787,4375,-29467,-8787,-28687
142700,10.5704,-0.119629,0.30625,-22.1155,-87.2205,171.53,-0.732422,3.17383,-10.0708,0.184875,0.664734,-0.189484,0.698517,15811,4375,-29467,-8787,-28687
142706,9.60381,-0.105273,0.6125,-21.1652,-87.215,170.711,-0.366211,2.31934,-9.82666,0.184387,0.664825,-0.188446,0.698822,16323,4631,-29211,-8787,-28687
142712,9.55596,0.0143555,0.363672,-20.4071,-87.2095,170.085,-0.305176,1.40381,-8.11768,0.183289,0.665131,-0.186432,0.699371,16835,4887,-28699,-8787,-28687
142718,9.29277,0.181836,0.373242,-19.7534,-87.16,169.695,0,3.78418,-0.732422,0.182617,0.665222,-0.185516,0.699738,17347,4119,-27675,-8787,-28687
142724,9.56553,0.14834,0.425879,-19.9292,-87.1271,170.013,0.549316,4.21143,2.86865,0.181824,0.665253,-0.184692,0.700104,17347,3863,-27675,-8787,-28687
142730,9.77129,0.0861328,0.545508,-20.3632,-87.0886,170.59,0.854492,4.15039,5.79834,0.180908,0.665253,-0.18396,0.700531,17347,3863,-27931,-8787,-28687
142736,9.66602,0,0.598145,-21.0168,-87.0502,171.392,1.52588,2.19727,7.69043,0.179871,0.665253,-0.183289,0.700989,17091,4375,-27931,-8787,-28687
142742,9.8335,-0.100488,0.598145,-21.7859,-87.0282,172.315,1.34277,0.244141,8.48389,0.177551,0.665375,-0.182037,0.701782,17347,4375,-27675,-8787,-28687
142748,9.86699,-0.239258,0.478516,-23.3459,-86.9897,174.161,0.793457,-2.13623,7.44629,0.176361,0.665527,-0.181458,0.702087,18115,5143,-26139,-8787,-28687
142754,9.80479,-0.253613,0.535937,-24.0436,-86.9843,175.001,0.244141,-3.05176,6.5918,0.175232,0.66571,-0.180878,0.702362,18883,5655,-26395,-8787,-28687
142760,9.91963,-0.244043,0.46416,-24.6753,-86.9843,175.776,-0.0610352,-3.78418,5.49316,0.174133,0.665924,-0.180267,0.702576,19395,6679,-25883,-8787,-28687
142766,9.78564,-0.191406,0.478516,-25.3345,-86.9843,176.572,-0.305176,-4.88281,5.37109,0.173065,0.666168,-0.179657,0.702789,19651,7959,-26139,-8787,-28687
142772,9.82871,-0.210547,0.411523,-25.8948,-86.9897,177.275,-0.488281,-5.24902,4.02832,0.17099,0.666718,-0.178436,0.703064,19907,8471,-25883,-8787,-28687
142778,9.62773,-0.339746,0.325391,-26.7023,-87.0117,178.352,-0.183105,-4.39453,1.77002,0.170013,0.667023,-0.177765,0.703186,21699,9495,-25627,-8787,-28687
142784,10.0871,-0.244043,0.277539,-26.889,-87.0172,178.671,-0.183105,-3.11279,0.671387,0.169067,0.667328,-0.177063,0.703308,22211,10007,-25371,-8787,-28687
142790,9.84785,-0.29668,0.397168,-26.9659,-87.0227,178.885,0.244141,-2.50244,-0.305176,0.168213,0.667572,-0.176331,0.70343,22979,10519,-24859,-8787,-28687
142796,10.0584,-0.258398,0.368457,-26.9,-87.0282,178.951,0.12207,-1.95312,-1.70898,0.167358,0.667816,-0.175568,0.703613,22979,11031,-24091,-8787,-28687
142802,9.65166,-0.287109,0.46416,-26.7902,-87.0392,178.967,0.183105,-2.2583,-2.38037,0.165863,0.668335,-0.173981,0.703888,22467,11799,-23579,-8787,-28687
142808,9.80479,-0.162695,0.349316,-26.2738,-87.0667,178.698,-0.244141,-1.95312,-4.27246,0.165161,0.668579,-0.173157,0.70401,22979,12823,-21531,-8787,-28687
142814,9.81436,-0.0957031,0.411523,-25.9991,-87.0776,178.55,-0.366211,-1.46484,-3.84521,0.16452,0.668823,-0.172333,0.704132,22467,13335,-20763,-8787,-28687
142820,9.69951,-0.0861328,0.406738,-25.8069,-87.0886,178.478,-0.610352,-1.70898,-2.99072,0.163879,0.669067,-0.171509,0.704254,22723,13847,-18971,-8787,-28687
142826,9.7665,-0.105273,0.387598,-25.7794,-87.0996,178.566,-1.0376,-2.19727,-1.40381,0.163208,0.669281,-0.170746,0.704376,22723,14103,-17947,-8787,-28687
142832,9.81914,-0.0861328,0.401953,-25.8179,-87.1051,178.72,-1.46484,-2.50244,-0.793457,0.161774,0.669769,-0.169342,0.70459,21955,14871,-16411,-8787,-28687
142838,9.68037,-0.0430664,0.483301,-26.3287,-87.1326,179.467,-1.95312,-4.69971,1.46484,0.161011,0.670013,-0.168701,0.704681,21443,15639,-13339,-8787,-28687
142844,9.59424,-0.100488,0.421094,-26.8231,-87.149,-179.912,-2.0752,-5.18799,2.99072,0.160217,0.670288,-0.168091,0.704742,20931,16151,-12059,-8787,-28687
142850,-9.46025,-4.57939,-1.78008,-21.4783,-87.0831,174.853,13.3667,33.6304,-44.0674,0.159363,0.670593,-0.167542,0.704803,20163,16407,-12059,-8787,-28687
142856,65.2408,-8.87646,-5.84746,6.64673,-84.9408,147.036,107.849,462.463,-327.698,0.160217,0.670044,-0.165344,0.705658,19395,15639,-12827,-8787,-28687
142862,15.4417,34.7929,54.9767,2.24121,-84.3695,151.386,-38.3301,113.831,70.4346,0.170288,0.654144,-0.151825,0.721039,17347,14103,-15899,-8787,-28687
142868,8.29746,-9.40283,3.14863,-20.4236,-84.5508,174.952,70.2515,-60.791,181.091,0.159973,0.654449,-0.157501,0.721924,14787,9239,-27419,-8787,-28687
142874,1.86143,-14.6187,-1.40684,-24.0326,-85.0067,178.632,-3.84521,-114.563,25.1465,0.151184,0.655579,-0.160187,0.722198,15555,7191,30949,-8787,-28687
142880,10.0058,-6.71836,-5.05791,-20.8575,-85.6879,175.166,-63.8428,-107.849,-105.896,0.149261,0.658936,-0.161346,0.719299,17603,6935,26085,-8787,-28687
142886,4.56982,6.2542,0,-18.0286,-86.1548,172.013,-74.5239,-77.0264,-75.1953,0.153381,0.662567,-0.160797,0.71521,20163,7703,22757,-8787,-28687
142892,5.04355,2.59355,-0.808691,-18.6328,-86.413,172.535,-34.1187,-55.9082,-11.5356,0.15741,0.666473,-0.161713,0.71048,21699,8215,20453,-8787,-28687
142898,11.9246,0.0765625,-0.60293,-24.7961,-86.3855,178.901,4.21143,-5.31006,41.9312,0.155823,0.667053,-0.162415,0.710144,22979,7447,25317,-8787,-28687
142904,11.0489,-2.02891,1.00967,-26.7242,-86.3141,-179.039,6.28662,-1.83105,28.6865,0.153778,0.666962,-0.162933,0.710541,22467,7191,27365,-8787,-28687
142910,11.0298,-2.04805,0.416309,-27.2131,-86.3306,-178.462,0.915527,-9.39941,3.96729,0.15213,0.66684,-0.163025,0.710968,21955,7447,29669,-8787,-28687
142916,8.74248,-0.727344,0.287109,-26.8341,-86.3855,-178.775,-2.80762,-11.7798,-10.0708,0.151428,0.667114,-0.162659,0.710968,21443,8215,29925,-8787,-28687
142922,9.65166,0.626855,0.555078,-26.4551,-86.4075,-179.088,-1.34277,-4.76074,-6.34766,0.151001,0.667725,-0.161469,0.710754,20675,9239,31461,-8787,-28687
142928,9.26885,-0.579004,0.339746,-27.1362,-86.3361,-178.215,2.13623,0.183105,8.60596,0.150269,0.667633,-0.161041,0.71109,20163,9751,-29211,-8787,-28687
142934,10.0297,-0.784766,0.267969,-27.1362,-86.3086,-178.127,0.732422,2.38037,2.74658,0.149445,0.667603,-0.160706,0.711365,19907,10263,-26395,-8787,-28687
142940,10.2115,-0.559863,0.325391,-26.6638,-86.2866,-178.528,0.12207,3.35693,-3.90625,0.148865,0.667542,-0.160278,0.711639,19651,10263,-23579,-8787,-28687
142946,10.4316,-0.090918,0.378027,-26.0266,-86.2756,-179.094,0.305176,3.54004,-6.22559,0.14859,0.66748,-0.159698,0.711884,19395,11287,-22043,-8787,-28687
142952,9.68994,0.0143555,0.105273,-25.4993,-86.2701,-179.544,0.305176,2.0752,-5.43213,0.148102,0.66745,-0.158417,0.71228,19139,11543,-19739,-8787,-28687
142958,9.53682,0.0765625,0.373242,-24.5874,-86.2152,179.687,1.09863,5.85938,-2.2583,0.147797,0.667389,-0.157837,0.712555,18883,12311,-16155,-8787,-28687
142964,9.4459,0.100488,0.507227,-24.3842,-86.1823,179.561,1.34277,5.24902,0.549316,0.147461,0.667267,-0.157257,0.71286,18627,12567,-14875,-8787,-28687
142970,9.68516,0.177051,0.579004,-24.483,-86.1493,179.742,1.95312,3.90625,4.39453,0.147003,0.667145,-0.156769,0.713165,17603,12823,-14875,-8787,-28687
142976,9.65645,0.0143555,0.598145,-24.8236,-86.1163,-179.819,2.68555,2.2583,7.44629,0.146393,0.667053,-0.156372,0.71347,17347,13079,-15899,-8787,-28687
142982,9.85264,-0.220117,0.507227,-25.3235,-86.0889,-179.225,3.78418,0.671387,9.15527,0.144806,0.666992,-0.155701,0.713989,18115,13335,-17947,-8787,-28687
142988,9.91963,-0.31582,0.46416,-26.3068,-86.0449,-178.055,2.80762,-1.52588,7.93457,0.143951,0.667023,-0.155365,0.714203,20675,13847,-18971,-8787,-28687
142994,9.98184,-0.397168,0.411523,-26.6693,-86.0394,-177.61,1.46484,-2.31934,5.61523,0.143158,0.667114,-0.15506,0.714355,21955,14103,-20251,-8787,-28687
143000,9.82871,-0.421094,0.459375,-26.9,-86.0394,-177.308,0.610352,-2.68555,3.23486,0.142517,0.667206,-0.154755,0.714478,22211,14359,-20507,-8787,-28687
143006,10.0249,-0.301465,0.382812,-26.9934,-86.0449,-177.149,0,-2.92969,0.854492,0.141968,0.667328,-0.154419,0.714539,22211,14615,-19739,-8787,-28687
143012,9.90527,-0.229688,0.301465,-27.0428,-86.0614,-177.034,-0.671387,-3.54004,-0.12207,0.141144,0.667633,-0.153717,0.714569,22211,15127,-18971,-8787,-28687
143018,9.72822,-0.15791,0.45459,-27.0428,-86.0889,-176.924,-0.732422,-3.60107,-0.976562,0.140778,0.667786,-0.153351,0.714569,22979,15639,-17179,-8787,-28687
143024,9.61338,-0.172266,0.363672,-27.0868,-86.1053,-176.819,-0.732422,-4.45557,-0.793457,0.140442,0.667969,-0.152985,0.714539,23235,15383,-15899,-8787,-28687
143030,9.91484,-0.100488,0.349316,-27.1637,-86.1218,-176.682,-0.793457,-4.08936,-0.183105,0.140106,0.668152,-0.152649,0.714508,24003,15895,-15131,-8787,-28687
143036,9.82871,-0.13877,0.382812,-27.301,-86.1383,-176.495,-0.671387,-4.08936,0.671387,0.13974,0.668335,-0.152313,0.714478,24259,15639,-16155,-8787,-28687
143042,9.59424,-0.263184,0.334961,-27.4768,-86.1493,-176.265,-0.976562,-3.90625,1.34277,0.138977,0.668701,-0.151764,0.714417,24771,15383,-17179,-8787,-28687
143048,9.73779,-0.200977,0.272754,-27.8394,-86.1768,-175.798,-1.2207,-3.90625,1.15967,0.138611,0.668884,-0.151489,0.714386,25283,14359,-19483,-8787,-28687
143054,9.76172,-0.124414,0.272754,-28.0371,-86.1877,-175.551,-1.58691,-3.23486,1.83105,0.138245,0.669037,-0.151245,0.714355,25283,13591,-18715,-8787,-28687
143060,9.84785,-0.119629,0.325391,-28.2953,-86.1932,-175.248,-1.95312,-2.92969,2.86865,0.137878,0.669189,-0.151031,0.714325,24771,13335,-16923,-8787,-28687
143066,9.70908,-0.153125,0.368457,-28.5919,-86.1932,-174.902,-1.95312,-2.74658,3.60107,0.137512,0.669312,-0.150848,0.714325,25283,13335,-14619,-8787,-28687
143072,9.81914,-0.200977,0.349316,-28.9325,-86.1932,-174.518,-1.95312,-2.2583,4.08936,0.136688,0.669525,-0.150574,0.714325,26051,13335,-12571,-8787,-28687
143078,9.80957,-0.215332,0.382812,-29.6027,-86.1987,-173.76,-2.38037,-3.17383,4.08936,0.136292,0.669617,-0.150421,0.714355,28355,13847,-12059,-8787,-28687
143084,9.74736,-0.239258,0.401953,-29.9982,-86.2097,-173.326,-2.68555,-4.21143,4.08936,0.135895,0.669739,-0.150299,0.714325,28099,14103,-11803,-8787,-28687
143090,9.78086,-0.291895,0.354102,-30.3662,-86.2207,-172.919,-2.68555,-4.63867,3.35693,0.135498,0.669891,-0.150208,0.714294,28099,14359,-11803,-8787,-28687
143096,9.8957,-0.234473,0.334961,-30.6628,-86.2317,-172.579,-2.80762,-4.3335,2.44141,0.135132,0.670074,-0.150085,0.714203,28867,15127,-11803,-8787,-28687
143102,-133.798,-16.8725,-16.6763,-30.9869,-86.2482,-172.222,71.9604,62.9883,-169.312,0.134491,0.67041,-0.149841,0.71405,28867,16151,-11547,-8787,-28687
143108,102.063,29.1655,-29.4239,-1.01624,-84.3915,157.429,-23.0103,415.833,-217.834,0.138947,0.669556,-0.143799,0.71524,30915,16663,-10267,-8787,-28687
143114,35.6925,9.69951,21.8634,-10.0195,-84.3036,166.685,-26.8555,-2.01416,182.434,0.150787,0.657349,-0.137848,0.725281,30659,15127,-13083,-8787,-28687
143120,28.8784,-0.564648,1.6126,-21.2146,-83.9081,178.621,70.8618,8.30078,256.042,0.143829,0.656494,-0.141815,0.726715,30403,13335,-17179,-8787,-28687
143126,-3.51709,-12.049,5.52207,-25.719,-83.5455,-175.677,165.588,19.4092,141.357,0.131805,0.655426,-0.144745,0.72937,30403,11799,-23323,-8787,-28687
143132,11.8528,-2.20596,-1.82314,-26.0266,-83.9355,-175.523,-108.521,-121.826,-119.263,0.122192,0.657532,-0.141876,0.729706,30659,11543,-30491,-8787,-28687
143138,7.04854,5.77568,0.502441,-23.681,-85.4846,-179.604,-131.653,-127.563,-78.186,0.129791,0.661285,-0.144135,0.724548,-30781,13335,21733,-8787,-28687
143144,3.00029,5.86182,2.5457,-27.0868,-85.979,-176.902,-79.834,-105.957,-4.3335,0.13678,0.664764,-0.148376,0.719208,-29501,13847,19429,-8787,-28687
143150,3.1582,2.27295,0.330176,-32.0361,-86.2097,-172.43,-27.8931,-69.8242,31.8604,0.140442,0.667267,-0.153351,0.715118,-28989,13847,18149,-8787,-28687
143156,12.8816,0.349316,-1.61738,-36.2439,-86.2262,-168.574,-4.08936,-31.6162,41.0767,0.141815,0.66864,-0.157654,0.712646,-28733,14103,19173,-8787,-28687
143162,10.9293,-1.94277,-0.0287109,-39.3475,-86.2317,-165.789,-4.82178,-31.8604,8.17871,0.143341,0.669006,-0.164276,0.71048,-29757,14871,23013,-8787,-28687
143168,7.67061,-0.913965,-0.177051,-43.418,-86.4624,-162.422,-12.146,-32.2876,-4.3335,0.144897,0.669495,-0.166809,0.709137,-29245,17175,-31515,-8787,-28687
143174,10.9437,0.521582,-1.01924,-44.8627,-86.5448,-161.356,-12.8784,-21.3623,-1.2207,0.146973,0.670044,-0.169098,0.707611,-29245,17943,-25627,-8787,-28687
143180,10.1589,0.617285,0.29668,-46.2744,-86.5448,-160.285,-5.12695,-10.1929,9.58252,0.149109,0.670227,-0.171509,0.706451,-28733,18455,-19995,-8787,-28687
143186,9.04395,-0.665137,0.129199,-47.7081,-86.5393,-159.164,0,-9.58252,11.2305,0.150787,0.669983,-0.173981,0.705688,-28989,18967,-14619,-8787,-28687
143192,10.135,-0.722559,-0.244043,-48.4882,-86.5448,-158.687,-0.854492,-0.427246,-3.60107,0.1539,0.669495,-0.178253,0.704437,-29501,19991,-10267,-8787,-28687
143198,10.7235,-0.344531,-0.224902,-48.0322,-86.5723,-159.73,-0.610352,4.94385,-7.01904,0.155731,0.669128,-0.179932,0.703949,-31805,23831,-2843,-8787,-28687
143204,9.28799,-0.373242,0.224902,-47.406,-86.5833,-160.637,-0.427246,5.92041,-8.05664,0.157715,0.66861,-0.181427,0.703583,32707,25623,-539,-8787,-28687
143210,9.83828,-0.090918,-0.0526367,-46.6864,-86.5887,-161.636,-0.244141,8.05664,-7.32422,0.159668,0.668121,-0.182831,0.703278,32195,26391,1510,-8787,-28687
143216,9.47939,0.090918,0.220117,-45.9888,-86.5668,-162.603,0.488281,10.376,-4.3335,0.161621,0.667542,-0.184235,0.703003,32707,27159,3814,-8787,-28687
143222,9.84307,0.0334961,0.258398,-45.5548,-86.5393,-163.306,1.89209,9.15527,2.86865,0.165131,0.666168,-0.187195,0.702698,-32573,27415,6374,-8787,-28687
143228,9.73779,-0.172266,0.425879,-45.3406,-86.4514,-164.031,2.56348,8.48389,5.92041,0.166687,0.665497,-0.188782,0.702576,-32573,28951,12262,-8787,-28687
143234,9.82393,-0.263184,0.272754,-45.401,-86.413,-164.213,2.92969,7.14111,5.85938,0.16806,0.664825,-0.190369,0.702423,32707,29975,14566,-8787,-28687
143240,9.78564,-0.47373,0.320605,-45.4724,-86.3745,-164.372,2.80762,6.28662,5.31006,0.169403,0.664215,-0.191895,0.702271,32195,30999,16358,-8787,-28687
143246,9.98662,-0.502441,0.205762,-45.368,-86.347,-164.691,2.92969,6.65283,2.74658,0.170654,0.663635,-0.193359,0.702118,31683,31767,16614,-8787,-28687
143252,9.74258,-0.468945,0.339746,-44.7968,-86.3196,-165.663,2.80762,5.79834,-1.83105,0.173218,0.662598,-0.195831,0.701782,32195,32535,16870,-8787,-28687
143258,9.9292,-0.354102,0.354102,-44.4617,-86.3196,-166.185,2.74658,5.00488,-2.80762,0.174469,0.66214,-0.196869,0.701599,31939,-31721,18150,-8787,-28687
143264,9.70908,-0.368457,0.31582,-44.1376,-86.3196,-166.69,2.62451,4.27246,-3.35693,0.17572,0.661743,-0.197815,0.701385,31427,-30441,18150,-8787,-28687
143270,10.0249,-0.344531,0.253613,-43.764,-86.3251,-167.234,2.0752,3.78418,-4.57764,0.17691,0.661377,-0.19873,0.701172,30403,-30185,17894,-8787,-28687
143276,9.73301,-0.311035,0.45459,-43.4399,-86.3416,-167.723,1.52588,2.44141,-4.88281,0.178131,0.661041,-0.199585,0.700928,29891,-29417,16358,-8787,-28687
143282,9.79521,-0.191406,0.363672,-43.0994,-86.3855,-168.376,0.610352,-0.671387,-4.21143,0.18042,0.660583,-0.201172,0.700348,29635,-28649,14822,-8787,-28687
143288,9.98184,-0.244043,0.320605,-43.0554,-86.4075,-168.569,0.305176,-1.89209,-3.78418,0.181458,0.6604,-0.201965,0.700012,29891,-29161,12518,-8787,-28687
143294,9.85264,-0.272754,0.330176,-43.0994,-86.4349,-168.662,-0.305176,-2.80762,-3.05176,0.182434,0.660278,-0.202728,0.699677,29891,-29673,13542,-8787,-28687
143300,9.63731,-0.234473,0.282324,-43.1982,-86.4624,-168.706,-0.671387,-3.96729,-3.23486,0.18338,0.660187,-0.203491,0.69928,29379,-30441,13798,-8787,-28687
143306,9.6708,-0.172266,0.229688,-43.3466,-86.4899,-168.69,-1.0376,-3.96729,-2.31934,0.184265,0.660126,-0.204224,0.698883,29123,-30953,14822,-8787,-28687
143312,9.7665,-0.191406,0.200977,-43.6871,-86.5338,-168.602,-1.34277,-2.68555,-0.488281,0.185913,0.660004,-0.205688,0.69812,29123,-31977,16358,-8787,-28687
143318,9.74258,-0.205762,0.177051,-43.8409,-86.5448,-168.574,-0.976562,-1.64795,-0.0610352,0.186676,0.659912,-0.206451,0.697815,28355,32535,18918,-8787,-28687
143324,9.78564,-0.224902,0.177051,-43.9069,-86.5503,-168.624,-0.488281,0,0.183105,0.187408,0.65979,-0.207153,0.69751,27843,32023,19942,-8787,-28687
143330,9.73301,-0.244043,0.153125,-43.9233,-86.5503,-168.723,-0.12207,1.2207,0.549316,0.18811,0.659607,-0.207825,0.697296,28099,31511,20198,-8787,-28687
143336,9.78564,-0.239258,0.110059,-43.8519,-86.5393,-168.909,-0.0610352,3.05176,0.915527,0.188812,0.659393,-0.208527,0.697113,28611,30487,21222,-8787,-28687
143342,9.75693,-0.244043,0.15791,-43.4399,-86.5063,-169.557,0.366211,6.28662,0.793457,0.190216,0.658783,-0.209839,0.696899,29635,29719,21990,-8787,-28687
143348,9.88135,-0.220117,0.205762,-43.1488,-86.4789,-169.964,0.549316,7.01904,0.915527,0.190979,0.658417,-0.21048,0.696838,30659,27671,24294,-8787,-28687
143354,9.79043,-0.277539,0.287109,-42.8357,-86.4569,-170.392,0.488281,7.44629,0.793457,0.191711,0.65802,-0.211121,0.696808,30915,27159,24294,-8787,-28687
143360,9.84307,-0.234473,0.291895,-42.4896,-86.4349,-170.859,0.366211,7.50732,0.244141,0.192474,0.657623,-0.211761,0.696808,31171,26135,24294,-8787,-28687
143366,9.8,-0.16748,0.373242,-42.193,-86.4075,-171.266,1.09863,7.26318,0.854492,0.193237,0.657196,-0.212372,0.696808,31683,26135,23014,-8787,-28687
143372,9.91484,-0.263184,0.382812,-41.8195,-86.3635,-171.848,0.854492,5.24902,1.46484,0.19458,0.656433,-0.213562,0.696777,32195,26391,21222,-8787,-28687
143378,-119.021,-14.4799,-15.1737,-25.4279,-86.6931,171.788,67.0166,50.7202,-209.045,0.195221,0.656128,-0.214142,0.696747,32451,27927,17382,-8787,-28687
143384,101.517,53.6799,-67.064,0.296631,-84.2981,146.327,0.488281,537.109,-271.729,0.201447,0.656403,-0.20755,0.696686,31939,26647,12774,-8787,-28687
143390,43.6119,2.28252,29.7972,-8.77808,-84.1498,155.731,-12.5122,11.8408,195.923,0.213013,0.642853,-0.192474,0.710083,30659,24343,7910,-8787,-28687
143396,24.2225,1.01924,2.15332,-21.0333,-84.1388,168.453,13.5498,-67.3828,255.188,0.205688,0.641235,-0.195984,0.712738,29123,20759,1254,-8787,-28687
143402,10.2785,-17.7816,-7.06768,-27.4933,-85.3967,174.738,-49.4385,-142.029,-118.408,0.18811,0.645569,-0.203094,0.71167,27587,17687,-6171,-8787,-28687
143408,6.771,3.23955,-8.56543,-18.9569,-86.0175,165.388,-89.4165,-58.8989,-182.495,0.193726,0.649994,-0.204681,0.705688,27075,13335,-14619,-8787,-28687
143414,-0.947461,10.044,5.24453,-14.9524,-86.2701,160.746,-56.3354,-28.8086,-78.9185,0.203125,0.652008,-0.204987,0.70105,26563,12055,-14619,-8787,-28687
143420,1.5791,7.98164,2.92852,-15.5182,-86.3635,161.664,0.732422,-22.7661,10.9863,0.208679,0.652466,-0.20694,0.698425,24515,9751,-12827,-8787,-28687
143426,3.55537,1.84229,0.397168,-19.8578,-86.391,166.415,12.3901,-25.9399,59.8145,0.206329,0.653687,-0.205231,0.698517,21955,7191,-11291,-8787,-28687
143432,11.3647,-6.78535,-0.947461,-21.0278,-86.2921,168.426,18.0054,15.1367,-12.207,0.198303,0.655121,-0.203461,0.699982,19651,5143,-9243,-8787,-28687
143438,15.0732,-2.68926,0.253613,-16.1938,-86.369,163.185,-10.498,7.20215,-71.5942,0.196442,0.655518,-0.200226,0.70108,17603,4119,-6171,-8787,-28687
143444,7.91943,1.64131,2.85674,-12.0135,-86.6492,158.445,-42.5415,-39.0625,-71.8994,0.200867,0.655212,-0.200623,0.699982,17347,4119,-5147,-8787,-28687
143450,9.82871,3.12471,0.459375,-9.04175,-86.8799,155.682,-25.0244,-40.7104,-36.6821,0.205841,0.656067,-0.202393,0.697235,16067,3863,-3867,-8787,-28687
143456,11.5418,0.837402,-0.0861328,-7.43774,-86.9678,154.424,1.09863,-16.4795,-13.6108,0.205414,0.65799,-0.200287,0.696136,13763,2839,-2587,-8787,-28687
143462,9.28799,0.282324,0.0526367,-4.0979,-87.1106,151.804,1.0376,-14.9536,-12.9395,0.201996,0.6604,-0.195312,0.696289,6595,1303,1766,-8787,-28687
143468,6.12979,2.99551,1.33027,-4.41101,-87.1326,152.507,10.498,-6.10352,8.42285,0.200317,0.66153,-0.192871,0.69635,3011,279,4582,-8787,-28687
143474,7.25908,2.27773,0.827832,-7.37732,-87.16,155.934,24.6582,-10.1929,35.0342,0.197784,0.662323,-0.190704,0.69693,195,-1002,7398,-8787,-28687
143480,8.87646,0.339746,-0.186621,-11.9147,-87.182,160.922,20.4468,-13.916,49.3164,0.194031,0.663086,-0.188965,0.697723,-1598,-2282,10214,-8787,-28687
143486,10.6613,-0.712988,-0.971387,-15.7874,-87.16,165.196,12.9395,-6.5918,43.6401,0.189941,0.663818,-0.187775,0.698486,-2622,-3050,11238,-8787,-28687
143492,9.72344,-0.349316,-0.0334961,-20.1654,-87.0502,170.31,3.2959,3.17383,26.2451,0.183197,0.664612,-0.185211,0.700195,-4158,-3562,12006,-8787,-28687
143498,9.8,0.133984,0.124414,-21.9177,-86.9788,172.408,2.38037,5.37109,26.7944,0.18042,0.664886,-0.183746,0.70108,-3902,-3562,12262,-8787,-28687
143504,9.75215,0.124414,0.291895,-23.7415,-86.8909,174.589,4.27246,7.26318,29.3579,0.177673,0.665039,-0.182312,0.701996,-3646,-3818,12518,-8787,-28687
143510,9.70908,-0.0717773,0.30625,-25.5103,-86.7975,176.732,6.89697,7.56836,30.2124,0.174805,0.665161,-0.180908,0.702972,-3646,-3306,12774,-8787,-28687
143516,9.94355,-0.239258,0.368457,-27.2021,-86.7041,178.792,7.93457,6.95801,30.0293,0.171844,0.665253,-0.179474,0.703979,-3646,-2794,10982,-8787,-28687
143522,10.2259,-0.569434,0.44502,-30.0586,-86.5558,-177.605,7.93457,2.92969,24.6582,0.165894,0.665588,-0.176483,0.705841,-2878,-490,6374,-8787,-28687
143528,10.0297,-0.842188,0.291895,-30.943,-86.5063,-176.353,7.50732,1.58691,18.0664,0.163055,0.665863,-0.174927,0.706635,-2366,791,5094,-8787,-28687
143534,10.2642,-0.870898,0.143555,-31.2781,-86.4734,-175.66,4.57764,2.56348,10.6812,0.16037,0.666229,-0.173187,0.707336,-1086,1303,4070,-8787,-28687
143540,9.90049,-0.736914,0.291895,-31.1572,-86.4624,-175.441,1.46484,2.13623,3.479,0.15799,0.666595,-0.171295,0.707977,963,2327,4070,-8787,-28687
143546,10.2929,-0.421094,0.320605,-30.8441,-86.4624,-175.424,-0.671387,1.2207,-0.244141,0.155914,0.667023,-0.169281,0.708527,2755,3863,3814,-8787,-28687
143552,9.82871,-0.311035,0.392383,-30.0531,-86.5063,-175.545,-0.793457,-3.54004,-4.39453,0.152069,0.667999,-0.165131,0.709412,6851,7959,3558,-8787,-28687
143558,9.91484,-0.205762,0.378027,-29.6631,-86.5393,-175.6,-0.610352,-4.45557,-4.94385,0.150208,0.66861,-0.162994,0.709747,8643,9495,4070,-8787,-28687
143564,10.0249,-0.186621,0.229688,-29.2566,-86.5778,-175.671,-0.854492,-5.00488,-5.49316,0.148346,0.66925,-0.160828,0.710022,9923,11287,4326,-8787,-28687
143570,9.8957,-0.186621,0.31582,-28.8776,-86.6162,-175.715,-0.976562,-5.06592,-5.18799,0.146454,0.669922,-0.158661,0.710266,11203,12823,4326,-8787,-28687
143576,9.59902,-0.229688,0.277539,-28.4711,-86.6547,-175.781,-0.793457,-5.43213,-5.7373,0.1427,0.671204,-0.154297,0.710754,12483,13847,4582,-8787,-28687
143582,9.63252,-0.0813477,0.205762,-27.6306,-86.7206,-175.935,-0.488281,-3.60107,-4.39453,0.140778,0.671844,-0.152069,0.711029,14275,14359,4326,-8787,-28687
143588,9.73301,-0.0334961,0.229688,-27.7515,-86.7371,-176.166,-0.549316,-3.17383,-2.68555,0.138855,0.672424,-0.149902,0.711334,14787,14615,4582,-8787,-28687
143594,9.61816,-0.0717773,0.248828,-28.0151,-86.748,-176.248,-0.366211,-2.62451,-0.427246,0.140991,0.672089,-0.151947,0.710785,15811,14359,5350,-8787,-28687
143600,9.80957,-0.0765625,0.215332,-28.3612,-86.759,-176.248,-0.366211,-2.13623,0.854492,0.143066,0.671722,-0.154053,0.710266,16323,14359,5862,-8787,-28687
143606,9.66602,-0.0957031,0.244043,-28.8171,-86.759,-176.133,-0.488281,-1.89209,2.50244,0.147095,0.670929,-0.158325,0.709259,17347,14615,6118,-8787,-28687
143612,9.65645,-0.13877,0.267969,-30.0037,-86.759,-175.567,-0.427246,-1.58691,5.12695,0.148987,0.670532,-0.160492,0.708771,17603,14615,7910,-8787,-28687
143618,9.71387,-0.143555,0.13877,-30.6024,-86.759,-175.199,-0.610352,-0.915527,5.7373,0.150513,0.670197,-0.162323,0.708344,17603,14103,8934,-8787,-28687
143624,9.8,-0.13877,0.205762,-31.1902,-86.748,-174.803,-0.549316,0.183105,6.5918,0.151764,0.669891,-0.16391,0.707977,17603,14103,9190,-8787,-28687
143630,9.78564,-0.153125,0.277539,-31.7834,-86.7316,-174.348,-0.305176,0.671387,7.38525,0.152679,0.669617,-0.165222,0.707733,17603,14103,11750,-8787,-28687
143636,9.78564,-0.177051,0.248828,-32.3657,-86.7206,-173.881,0,0.366211,7.32422,0.153809,0.66922,-0.167145,0.707397,17603,14359,13286,-8787,-28687
143642,9.81436,-0.267969,0.277539,-33.4479,-86.6931,-172.974,0.488281,0.549316,7.20215,0.154205,0.669067,-0.167908,0.707275,18371,15383,16614,-8787,-28687
143648,9.99619,-0.411523,0.200977,-33.8818,-86.6821,-172.628,0.671387,0.671387,5.85938,0.15451,0.668945,-0.16861,0.707184,18627,16663,16614,-8787,-28687
143654,9.78086,-0.449805,0.244043,-34.0906,-86.6766,-172.518,0.549316,1.34277,3.17383,0.154877,0.668793,-0.169281,0.707062,19651,17687,16614,-8787,-28687
143660,10.001,-0.430664,0.224902,-34.1125,-86.6711,-172.595,0.549316,1.64795,0.671387,0.155396,0.66864,-0.169952,0.70697,20419,19223,16614,-8787,-28687
143666,9.89092,-0.363672,0.31582,-34.0027,-86.6766,-172.809,0.183105,1.46484,-1.28174,0.156677,0.668335,-0.171082,0.706665,21187,20759,16102,-8787,-28687
143672,9.86699,-0.301465,0.272754,-33.5797,-86.6986,-173.43,0.732422,0.915527,-3.60107,0.157379,0.668213,-0.1716,0.706512,22979,22039,14822,-8787,-28687
143678,9.80957,-0.224902,0.272754,-33.3765,-86.7151,-173.732,0.915527,0.427246,-3.17383,0.158112,0.668121,-0.172058,0.706329,23491,22295,14310,-8787,-28687
143684,9.80479,-0.186621,0.311035,-33.2007,-86.7316,-174.001,0.732422,-0.366211,-3.23486,0.158783,0.66803,-0.172546,0.706146,24003,22807,14054,-8787,-28687
143690,9.78564,-0.13877,0.291895,-33.0963,-86.748,-174.194,0.671387,-0.976562,-2.62451,0.159454,0.667969,-0.172974,0.705933,24259,23063,13030,-8787,-28687
143696,9.76172,-0.13877,0.301465,-33.0963,-86.7645,-174.276,0.854492,-1.46484,-1.46484,0.160614,0.667877,-0.173889,0.705536,24003,23319,12774,-8787,-28687
143702,9.74736,-0.119629,0.210547,-33.3105,-86.7865,-174.216,0.488281,-1.77002,0.366211,0.161102,0.667847,-0.174347,0.705322,23491,23831,12518,-8787,-28687
143708,9.75215,-0.114844,0.234473,-33.5028,-86.7975,-174.089,0.915527,-1.52588,1.2207,0.16156,0.667847,-0.174805,0.705139,23491,24343,12262,-8787,-28687
143714,9.67559,-0.14834,0.229688,-33.7885,-86.803,-173.875,0.854492,-1.46484,2.44141,0.161957,0.667786,-0.175262,0.704987,23491,25111,10982,-8787,-28687
143720,9.75693,-0.119629,0.200977,-34.1235,-86.803,-173.6,0.915527,-0.976562,3.54004,0.162262,0.667755,-0.17572,0.704834,23747,25367,9446,-8787,-28687
143726,9.71865,-0.162695,0.210547,-34.541,-86.7975,-173.243,0.732422,-0.610352,4.94385,0.16275,0.667633,-0.176666,0.70459,24259,25367,8678,-8787,-28687
143732,9.73779,-0.191406,0.263184,-35.5078,-86.77,-172.375,1.28174,-0.0610352,6.7749,0.162903,0.667542,-0.177155,0.704529,25027,25623,7142,-8787,-28687
143738,9.74258,-0.205762,0.239258,-36.0022,-86.7535,-171.914,2.01416,0.305176,7.01904,0.162964,0.66745,-0.177612,0.704468,25283,26135,6374,-8787,-28687
143744,9.80957,-0.181836,0.205762,-36.4856,-86.7316,-171.469,2.56348,1.28174,7.62939,0.163025,0.667358,-0.17804,0.704437,25283,26647,6374,-8787,-28687
143750,9.77129,-0.244043,0.196191,-36.958,-86.7096,-171.03,2.74658,1.58691,7.87354,0.163025,0.667236,-0.178436,0.704437,25027,26903,5606,-8787,-28687
143756,9.86221,-0.358887,0.191406,-37.403,-86.6821,-170.612,2.56348,1.89209,7.8125,0.162994,0.666992,-0.17923,0.704498,24771,27415,5094,-8787,-28687
143762,9.86699,-0.440234,0.229688,-37.8754,-86.6382,-170.211,3.17383,3.35693,4.63867,0.163025,0.66684,-0.179596,0.704559,24515,27415,5606,-8787,-28687
143768,9.98184,-0.478516,0.229688,-37.8369,-86.6217,-170.299,2.74658,3.96729,2.2583,0.163147,0.666656,-0.179901,0.70459,24771,26903,5862,-8787,-28687
143774,9.91484,-0.497656,0.29668,-37.6007,-86.6107,-170.585,2.38037,3.90625,-0.793457,0.163422,0.666473,-0.180206,0.70462,25795,26135,6118,-8787,-28687
143780,9.93877,-0.468945,0.29668,-37.2711,-86.6107,-170.975,1.89209,3.479,-2.62451,0.163788,0.666321,-0.18045,0.70462,27075,25879,6630,-8787,-28687
143786,9.87656,-0.387598,0.320605,-36.8481,-86.6162,-171.469,1.40381,2.80762,-4.63867,0.164856,0.666046,-0.180939,0.704529,27843,25623,6630,-8787,-28687
143792,9.87656,-0.311035,0.334961,-35.8978,-86.6492,-172.557,0.610352,1.15967,-6.5918,0.165466,0.665955,-0.181152,0.704407,28611,25367,6886,-8787,-28687
143798,9.82393,-0.277539,0.349316,-35.4309,-86.6766,-173.106,0.12207,0.305176,-7.08008,0.166138,0.665894,-0.181366,0.704254,28611,25111,6374,-8787,-28687
143804,9.78564,-0.224902,0.368457,-35.0244,-86.7041,-173.578,0.183105,-0.976562,-6.89697,0.166809,0.665833,-0.18161,0.704071,28867,24855,5350,-8787,-28687
143810,9.75693,-0.186621,0.378027,-34.7223,-86.7316,-173.958,-0.12207,-2.01416,-6.16455,0.16745,0.665833,-0.181824,0.703888,29379,23831,3302,-8787,-28687
143816,9.74258,-0.129199,0.330176,-34.5081,-86.7645,-174.238,-0.12207,-3.17383,-5.5542,0.16861,0.665924,-0.182343,0.703369,29891,22039,2022,-8787,-28687
143822,9.76172,-0.14834,0.29668,-34.4971,-86.825,-174.375,-0.366211,-4.63867,-2.86865,0.169098,0.666016,-0.182648,0.703125,30659,18967,230,-8787,-28687
143828,9.74736,-0.14834,0.248828,-34.6344,-86.8579,-174.304,-0.549316,-5.06592,-2.0752,0.169556,0.666077,-0.182953,0.70285,30403,18455,742,-8787,-28687
143834,9.75215,-0.191406,0.253613,-34.8212,-86.8854,-174.177,-0.732422,-5.12695,-1.40381,0.169952,0.666199,-0.183289,0.702576,29635,18967,742,-8787,-28687
143840,9.82871,-0.215332,0.220117,-35.0134,-86.9128,-174.051,-1.15967,-4.76074,-1.2207,0.170319,0.66629,-0.183655,0.702301,28355,19735,998,-8787,-28687
143846,9.79521,-0.153125,0.210547,-35.2222,-86.9348,-173.903,-1.64795,-4.69971,-0.976562,0.171082,0.666443,-0.184387,0.701782,27331,20503,1766,-8787,-28687
143852,9.79521,-0.196191,0.172266,-35.6561,-86.9843,-173.589,-1.83105,-4.15039,-0.610352,0.171448,0.666504,-0.184784,0.701508,25539,19991,4838,-8787,-28687
143858,9.72822,-0.162695,0.215332,-35.8759,-87.0007,-173.43,-1.46484,-3.41797,0,0.171783,0.666565,-0.18515,0.701294,25027,19223,6374,-8787,-28687
143864,9.77129,-0.162695,0.172266,-36.0791,-87.0117,-173.282,-1.15967,-2.68555,0.305176,0.172119,0.666595,-0.185516,0.70108,24771,18455,7910,-8787,-28687
143870,9.7665,-0.172266,0.215332,-36.2933,-87.0227,-173.117,-0.915527,-2.13623,0.915527,0.172424,0.666595,-0.185852,0.700897,25027,18711,8422,-8787,-28687
143876,9.80957,-0.248828,0.224902,-36.4801,-87.0282,-172.98,-0.549316,-1.15967,1.28174,0.172974,0.666565,-0.186554,0.700623,24771,18455,9446,-8787,-28687
143882,9.83828,-0.263184,0.200977,-36.7712,-87.0282,-172.787,-0.12207,-0.0610352,1.34277,0.173218,0.666504,-0.186859,0.700531,24771,17687,11238,-8787,-28687
143888,9.81914,-0.291895,0.234473,-36.8152,-87.0282,-172.787,-0.0610352,0.244141,0.488281,0.173462,0.666443,-0.187195,0.700439,24515,17431,13030,-8787,-28687
143894,9.84785,-0.29668,0.239258,-36.8097,-87.0282,-172.848,-0.244141,0.366211,-0.12207,0.173737,0.666382,-0.1875,0.700348,24771,17687,14822,-8787,-28687
143900,9.84307,-0.267969,0.239258,-36.7657,-87.0337,-172.947,-0.12207,0.244141,-0.732422,0.174072,0.66629,-0.187775,0.700256,25539,17943,16358,-8787,-28687
143906,9.82871,-0.248828,0.263184,-36.7218,-87.0392,-173.046,-0.305176,-0.305176,-1.28174,0.174774,0.666168,-0.188354,0.700043,26819,17431,17894,-8787,-28687
143912,9.86699,-0.258398,0.258398,-36.579,-87.0612,-173.298,-0.671387,-0.610352,-1.89209,0.17514,0.666138,-0.188629,0.699921,28611,17175,17638,-8787,-28687
143918,9.82871,-0.253613,0.258398,-36.535,-87.0721,-173.397,-1.09863,-1.52588,-2.0752,0.175537,0.666077,-0.188904,0.699799,29123,16919,17382,-8787,-28687
143924,9.82393,-0.239258,0.291895,-36.5405,-87.0941,-173.452,-1.58691,-2.62451,-2.2583,0.175934,0.666077,-0.189209,0.699615,29379,17431,17638,-8787,-28687
143930,9.79521,-0.181836,0.282324,-36.601,-87.1161,-173.447,-1.52588,-3.23486,-2.01416,0.176331,0.666107,-0.189514,0.699432,29635,18199,17126,-8787,-28687
143936,9.73301,-0.14834,0.287109,-36.7493,-87.1381,-173.359,-1.64795,-4.76074,-0.732422,0.177063,0.666199,-0.190125,0.698975,29891,18967,16614,-8787,-28687
143942,9.76172,-0.129199,0.253613,-37.337,-87.1875,-172.864,-1.83105,-5.18799,-0.0610352,0.177368,0.66629,-0.19043,0.69873,29635,19479,14310,-8787,-28687
143948,9.72822,-0.172266,0.191406,-37.7765,-87.2095,-172.474,-1.64795,-5.43213,0.976562,0.177612,0.666382,-0.190765,0.698486,28611,19479,13286,-8787,-28687
143954,9.75693,-0.177051,0.172266,-38.2764,-87.226,-172.013,-1.46484,-5.31006,1.77002,0.177826,0.666473,-0.191101,0.698242,27843,18967,13030,-8787,-28687
143960,9.80957,-0.215332,0.177051,-38.7817,-87.2424,-171.552,-1.52588,-5.12695,1.89209,0.178009,0.666565,-0.191437,0.698029,27075,18711,11750,-8787,-28687
143966,9.81914,-0.272754,0.177051,-39.2377,-87.2589,-171.14,-1.83105,-4.3335,1.34277,0.178345,0.666748,-0.192108,0.697601,26307,18711,11750,-8787,-28687
143972,9.80957,-0.224902,0.181836,-40.0232,-87.2864,-170.442,-1.70898,-3.90625,0.976562,0.178528,0.666809,-0.192444,0.697388,25283,18455,12774,-8787,-28687
143978,9.80957,-0.220117,0.162695,-40.3418,-87.3029,-170.167,-1.64795,-3.60107,0.610352,0.178741,0.66687,-0.192749,0.697205,25283,18711,14054,-8787,-28687
143984,9.80957,-0.244043,0.129199,-40.6055,-87.3138,-169.942,-1.46484,-2.92969,0.488281,0.178955,0.666901,-0.193054,0.697021,25539,18967,15846,-8787,-28687
143990,9.8335,-0.239258,0.172266,-40.8362,-87.3248,-169.755,-1.0376,-2.62451,0.305176,0.179169,0.666931,-0.193329,0.696838,26051,19223,16358,-8787,-28687
143996,9.78086,-0.215332,0.15791,-41.0229,-87.3358,-169.607,-0.366211,-1.95312,0.183105,0.179596,0.666992,-0.193848,0.696564,25539,19735,17638,-8787,-28687
144002,9.79043,-0.229688,0.143555,-41.3361,-87.3523,-169.365,-0.12207,-1.46484,0.244141,0.17981,0.666992,-0.194092,0.696411,24259,20247,19430,-8787,-28687
144008,9.78564,-0.253613,0.181836,-41.413,-87.3578,-169.327,0.12207,-0.793457,0,0.180023,0.666992,-0.194305,0.69632,23235,19991,21222,-8787,-28687
144014,9.81436,-0.267969,0.196191,-41.4789,-87.3688,-169.299,0.244141,-1.0376,-0.305176,0.180237,0.666962,-0.194519,0.696228,23235,19479,22758,-8787,-28687
144020,9.80479,-0.244043,0.224902,-41.5778,-87.3743,-169.233,0.305176,-1.2207,-0.0610352,0.18045,0.666962,-0.194733,0.696106,23747,18199,25062,-8787,-28687
144026,9.81436,-0.215332,0.16748,-41.6547,-87.3853,-169.195,0.305176,-1.46484,-0.305176,0.180908,0.666962,-0.19516,0.695892,24259,16919,26854,-8787,-28687
144032,9.8,-0.215332,0.186621,-41.8524,-87.4017,-169.069,0.427246,-1.40381,-0.244141,0.181122,0.666962,-0.195374,0.69577,24771,14615,27366,-8787,-28687
144038,9.80479,-0.244043,0.14834,-41.9348,-87.4127,-169.025,0.366211,-1.2207,-0.366211,0.181335,0.666962,-0.195587,0.695648,25027,14359,26342,-8787,-28687
144044,9.81436,-0.220117,0.16748,-42.0117,-87.4182,-168.981,0.366211,-1.34277,-0.427246,0.18158,0.666962,-0.195801,0.695526,24771,13847,24550,-8787,-28687
144050,9.76172,-0.200977,0.191406,-42.1271,-87.4237,-168.904,0.305176,-1.34277,-0.0610352,0.181793,0.666931,-0.195984,0.695404,24515,13591,24038,-8787,-28687
144056,9.75693,-0.200977,0.16748,-42.5665,-87.4402,-168.536,0.305176,-2.01416,0.915527,0.18219,0.666931,-0.196472,0.69519,24771,13847,25062,-8787,-28687
144062,9.80957,-0.205762,0.16748,-42.8577,-87.4457,-168.278,0.0610352,-2.19727,1.34277,0.182373,0.666962,-0.196716,0.695068,25283,13847,28390,-8787,-28687
144068,9.80479,-0.205762,0.162695,-43.1763,-87.4512,-167.997,0.0610352,-2.50244,1.28174,0.182526,0.666962,-0.19696,0.694946,25539,14103,30694,-8787,-28687
144074,9.78086,-0.229688,0.124414,-43.4619,-87.4622,-167.745,0.183105,-2.31934,1.09863,0.182678,0.666992,-0.197205,0.694824,25795,14871,31974,-8787,-28687
144080,9.78086,-0.224902,0.114844,-43.7421,-87.4677,-167.492,0.244141,-2.0752,1.28174,0.182831,0.666992,-0.197449,0.694672,26051,15639,32486,-8787,-28687
144086,9.83828,-0.267969,0.0957031,-44.1595,-87.4731,-167.146,0.488281,-0.976562,0.915527,0.183136,0.666992,-0.197937,0.694458,26563,16663,31462,-8787,-28687
144092,9.84307,-0.291895,0.114844,-44.2365,-87.4786,-167.108,0.244141,-0.671387,0.0610352,0.183319,0.666992,-0.198181,0.694366,27843,17175,30950,-8787,-28687
144098,9.83828,-0.325391,0.100488,-44.2145,-87.4841,-167.173,0.366211,0,-0.610352,0.183563,0.666962,-0.198425,0.694275,28355,17431,30694,-8787,-28687
144104,9.84785,-0.272754,0.16748,-44.0991,-87.4841,-167.327,0.427246,0.610352,-1.09863,0.183838,0.666901,-0.198639,0.694183,29123,17175,31462,-8787,-28687
144110,9.81436,-0.267969,0.143555,-43.9014,-87.4896,-167.574,0.549316,0.793457,-2.01416,0.184113,0.66684,-0.198853,0.694092,29123,17431,31974,-8787,-28687
144116,9.81914,-0.248828,0.133984,-43.3136,-87.5061,-168.261,0.549316,1.64795,-2.31934,0.184845,0.666687,-0.199249,0.693939,29123,17175,32230,-8787,-28687
144122,9.80479,-0.224902,0.172266,-43.0115,-87.5061,-168.607,0.793457,1.58691,-2.44141,0.185211,0.666595,-0.199432,0.693878,28611,17431,31974,-8787,-28687
144128,9.80479,-0.229688,0.191406,-42.7039,-87.5116,-168.97,0.732422,1.46484,-2.68555,0.185608,0.666504,-0.199646,0.693817,28099,17687,32230,-8787,-28687
144134,9.7665,-0.181836,0.196191,-42.4567,-87.5226,-169.266,0.610352,0.976562,-2.38037,0.186005,0.666412,-0.19986,0.693726,26819,18455,32230,-8787,-28687
144140,9.77607,-0.181836,0.16748,-42.2534,-87.5281,-169.514,0.549316,0.793457,-1.95312,0.186371,0.666321,-0.200043,0.693634,24771,18711,32486,-8787,-28687
144146,9.7665,-0.181836,0.133984,-41.8414,-87.5336,-170.03,0.488281,1.2207,-1.77002,0.187103,0.666138,-0.200531,0.693481,22979,18711,32230,-8787,-28687
144152,9.78564,-0.181836,0.172266,-41.7096,-87.5336,-170.217,0.183105,1.09863,-0.915527,0.187469,0.666046,-0.200775,0.69339,20675,18967,30694,-8787,-28687
144158,9.7665,-0.200977,0.181836,-41.6382,-87.5336,-170.338,0.244141,0.854492,-0.427246,0.187836,0.665955,-0.20105,0.693329,20419,18967,29414,-8787,-28687
144164,9.8,-0.186621,0.186621,-41.6327,-87.5391,-170.398,0,0.366211,-0.12207,0.188171,0.665863,-0.201324,0.693237,19907,18455,28902,-8787,-28687
144170,9.76172,-0.133984,0.220117,-41.7316,-87.5391,-170.349,-0.0610352,-0.305176,0.488281,0.188507,0.665771,-0.20163,0.693146,19139,18199,27878,-8787,-28687
144176,9.7665,-0.172266,0.200977,-42.2479,-87.5446,-169.92,-0.0610352,-1.52588,2.01416,0.188995,0.66568,-0.20224,0.692932,18627,18199,27110,-8787,-28687
144182,9.80479,-0.210547,0.177051,-42.594,-87.5446,-169.618,0,-1.77002,2.0752,0.189209,0.665649,-0.202545,0.69281,18627,18967,26342,-8787,-28687
144188,9.79521,-0.200977,0.15791,-42.9346,-87.5446,-169.316,-0.12207,-1.58691,2.2583,0.189362,0.665619,-0.20285,0.692688,18883,19991,27110,-8787,-28687
144194,9.78564,-0.229688,0.162695,-43.2697,-87.5446,-169.019,-0.244141,-1.46484,2.2583,0.189514,0.665588,-0.203186,0.692596,19907,19991,27622,-8787,-28687
144200,9.81914,-0.224902,0.153125,-43.5168,-87.55,-168.81,-0.366211,-1.2207,1.52588,0.189697,0.665558,-0.203491,0.692474,21187,20503,28646,-8787,-28687
144206,9.82871,-0.263184,0.13877,-43.9563,-87.55,-168.453,-0.427246,-0.976562,1.0376,0.190063,0.665497,-0.204041,0.692261,22211,20759,30694,-8787,-28687
144212,9.81436,-0.263184,0.143555,-44.1266,-87.5555,-168.327,-0.366211,-0.854492,0.854492,0.190277,0.665466,-0.204315,0.692169,22211,21527,31718,-8787,-28687
144218,9.82393,-0.239258,0.16748,-44.2584,-87.5555,-168.234,-0.244141,-0.610352,0.671387,0.190491,0.665405,-0.20459,0.692078,20931,21015,31206,-8787,-28687
144224,9.80957,-0.244043,0.153125,-44.3298,-87.5555,-168.206,-0.244141,-0.12207,0.427246,0.190704,0.665375,-0.204865,0.691956,19907,20759,30182,-8787,-28687
144230,9.80479,-0.239258,0.143555,-44.3353,-87.561,-168.239,-0.244141,0.183105,-0.0610352,0.190948,0.665314,-0.205109,0.691895,18883,20503,29670,-8787,-28687
144236,9.78564,-0.239258,0.124414,-44.3134,-87.561,-168.349,0,0.366211,-0.244141,0.191467,0.665192,-0.205597,0.691711,18115,20247,28390,-8787,-28687
144242,9.80479,-0.229688,0.162695,-44.2859,-87.5665,-168.42,0,0.427246,-0.244141,0.191742,0.6651,-0.205841,0.69165,18115,21015,29158,-8787,-28687
144248,9.8,-0.224902,0.15791,-44.187,-87.5665,-168.563,0,0.793457,-0.732422,0.192017,0.665039,-0.206085,0.691559,18627,22039,29414,-8787,-28687
144254,9.82871,-0.224902,0.14834,-44.0936,-87.5665,-168.701,-0.0610352,0.793457,-0.671387,0.192322,0.664948,-0.206329,0.691498,19395,23319,29414,-8787,-28687
144260,9.79521,-0.186621,0.133984,-43.9893,-87.572,-168.849,0.12207,0.976562,-0.610352,0.192627,0.664886,-0.206573,0.691406,19651,24599,29414,-8787,-28687
144266,9.80957,-0.234473,0.110059,-43.7531,-87.572,-169.184,0.12207,1.34277,-0.732422,0.193237,0.664703,-0.207031,0.691284,19651,25367,28902,-8787,-28687
144272,9.79043,-0.210547,0.133984,-43.6157,-87.5665,-169.371,0,1.83105,-0.244141,0.193573,0.664581,-0.207275,0.691193,19907,24855,29414,-8787,-28687
144278,9.80957,-0.210547,0.15791,-43.4784,-87.561,-169.557,0.12207,2.0752,0,0.193878,0.664459,-0.20755,0.691162,20419,23831,30438,-8787,-28687
144284,9.79043,-0.196191,0.177051,-43.363,-87.561,-169.728,0.183105,1.77002,-0.0610352,0.194214,0.664337,-0.207825,0.691101,21187,23063,30694,-8787,-28687
144290,9.80957,-0.205762,0.153125,-43.2806,-87.5555,-169.854,0.183105,1.58691,0.183105,0.194519,0.664215,-0.208099,0.691071,21699,22551,30182,-8787,-28687
144296,9.8335,-0.263184,0.16748,-43.1598,-87.5446,-170.079,0,1.52588,0.305176,0.195129,0.663971,-0.208649,0.690948,21443,21783,29158,-8787,-28687
144302,9.79521,-0.229688,0.200977,-43.1158,-87.5446,-170.173,0,1.40381,0.427246,0.195435,0.663849,-0.208954,0.690887,20931,21527,28390,-8787,-28687
144308,9.80957,-0.205762,0.229688,-43.0884,-87.5391,-170.25,0.12207,1.09863,0.366211,0.19574,0.663727,-0.209259,0.690826,21443,21271,27622,-8787,-28687
144314,9.81914,-0.234473,0.196191,-43.1104,-87.5391,-170.277,0,0.305176,0.183105,0.196045,0.663605,-0.209534,0.690765,21699,21783,25318,-8787,-28687
144320,9.8335,-0.272754,0.186621,-43.1433,-87.5446,-170.288,0,0,0.0610352,0.19632,0.663544,-0.209808,0.690674,22467,22295,24550,-8787,-28687
144326,9.82871,-0.258398,0.191406,-43.1104,-87.5555,-170.42,-0.244141,-0.427246,-0.915527,0.19693,0.663391,-0.210358,0.690491,23235,22807,25574,-8787,-28687
144332,9.8,-0.239258,0.143555,-43.0719,-87.561,-170.508,-0.183105,-0.549316,-1.28174,0.197235,0.66333,-0.210632,0.690369,23747,23575,26342,-8787,-28687
144338,9.80957,-0.200977,0.15791,-43.0774,-87.572,-170.557,-0.12207,-0.549316,-0.854492,0.197571,0.6633,-0.210876,0.690216,24259,23831,27622,-8787,-28687
144344,9.79521,-0.200977,0.205762,-43.0389,-87.5775,-170.64,-0.183105,-0.488281,-1.2207,0.197906,0.663239,-0.211151,0.690094,24515,24599,27622,-8787,-28687
144350,9.75693,-0.196191,0.143555,-43.0774,-87.583,-170.651,-0.0610352,-0.671387,-0.549316,0.198212,0.663208,-0.211395,0.689972,25027,24855,27622,-8787,-28687
144356,9.81436,-0.210547,0.162695,-43.1818,-87.594,-170.634,0,-0.610352,-0.305176,0.198792,0.663116,-0.211914,0.689728,26563,24087,27878,-8787,-28687
144362,9.79521,-0.196191,0.13877,-43.2037,-87.5995,-170.656,-0.12207,-0.183105,-0.244141,0.199066,0.663055,-0.212189,0.689636,26819,23575,27366,-8787,-28687
144368,9.78564,-0.200977,0.15791,-43.2257,-87.605,-170.689,-0.244141,0.0610352,-0.0610352,0.199341,0.662994,-0.212433,0.689514,27587,22807,28390,-8787,-28687
144374,9.78564,-0.172266,0.13877,-43.2312,-87.605,-170.722,0,0.427246,0.183105,0.199646,0.662933,-0.212708,0.689423,27843,22039,28390,-8787,-28687
144380,9.8,-0.186621,0.133984,-43.2422,-87.5995,-170.76,0,0.732422,0.488281,0.200165,0.66275,-0.213226,0.68927,28099,21527,28134,-8787,-28687
144386,9.8,-0.200977,0.200977,-43.3136,-87.594,-170.777,0.0610352,0.610352,0.671387,0.200409,0.662659,-0.213501,0.689209,29635,21783,28134,-8787,-28687
144392,9.81436,-0.248828,0.196191,-43.3411,-87.594,-170.793,0,0.427246,0.427246,0.200653,0.662567,-0.213776,0.689148,30147,21783,27878,-8787,-28687
144398,9.85264,-0.248828,0.196191,-43.3685,-87.5995,-170.804,0.12207,0.0610352,0.12207,0.200897,0.662506,-0.21402,0.689056,30403,21527,28134,-8787,-28687
144404,9.82393,-0.253613,0.162695,-43.3795,-87.5995,-170.837,0,-0.0610352,-0.244141,0.201172,0.662415,-0.214264,0.688995,30659,21527,27366,-8787,-28687
144410,9.84307,-0.248828,0.196191,-43.396,-87.605,-170.859,0.0610352,-0.305176,-0.366211,0.201691,0.662323,-0.214752,0.688782,30915,20759,27622,-8787,-28687
144416,9.79043,-0.229688,0.200977,-43.3795,-87.6215,-170.964,0,-0.671387,-1.0376,0.201965,0.662262,-0.214996,0.68866,30915,18711,28134,-8787,-28687
144422,9.8,-0.244043,0.196191,-43.3521,-87.627,-171.03,0,-0.732422,-1.28174,0.20224,0.662231,-0.21521,0.688568,30659,17943,28646,-8787,-28687
144428,9.81436,-0.200977,0.181836,-43.363,-87.6379,-171.063,0,-0.793457,-0.915527,0.202545,0.662201,-0.215424,0.688446,29635,18199,29670,-8787,-28687
144434,9.79043,-0.205762,0.196191,-43.4015,-87.6434,-171.063,0,-1.0376,-0.793457,0.202789,0.66217,-0.215637,0.688324,28611,17687,29670,-8787,-28687
144440,9.79521,-0.253613,0.16748,-43.4454,-87.6544,-171.063,-0.12207,-1.15967,-0.915527,0.203308,0.66214,-0.216064,0.68808,28099,17175,30182,-8787,-28687
144446,9.80479,-0.220117,0.181836,-43.5278,-87.6764,-171.063,-0.12207,-1.09863,-0.854492,0.203583,0.662109,-0.216278,0.687927,27587,15895,30438,-8787,-28687
144452,9.81436,-0.191406,0.196191,-43.5938,-87.6819,-171.035,-0.12207,-1.46484,-0.915527,0.203827,0.662109,-0.216492,0.687805,27075,15383,29926,-8787,-28687
144458,9.81436,-0.215332,0.15791,-43.6707,-87.6984,-170.997,-0.12207,-1.70898,-1.0376,0.204071,0.662079,-0.216705,0.687683,26563,15383,29414,-8787,-28687
144464,9.77607,-0.220117,0.177051,-43.7201,-87.7039,-170.98,0,-1.28174,-0.915527,0.204315,0.662079,-0.216919,0.687531,26051,14871,29670,-8787,-28687
144470,9.80479,-0.234473,0.16748,-43.7421,-87.7148,-170.997,0.12207,-1.2207,-1.15967,0.204803,0.662079,-0.217316,0.687286,25027,15127,29670,-8787,-28687
144476,9.8335,-0.263184,0.0957031,-43.6212,-87.7368,-171.2,-0.12207,-0.610352,-2.13623,0.205078,0.662048,-0.217499,0.687164,23235,15895,30694,-8787,-28687
144482,9.84307,-0.220117,0.13877,-43.396,-87.7478,-171.464,0.12207,-0.12207,-2.80762,0.205383,0.662018,-0.217682,0.687042,22211,16663,31718,-8787,-28687
144488,9.78086,-0.186621,0.153125,-43.1213,-87.7643,-171.782,0.0610352,0.244141,-3.05176,0.205719,0.661987,-0.217865,0.68692,21699,16663,32230,-8787,-28687
144494,9.80479,-0.181836,0.177051,-42.8796,-87.7698,-172.068,0,0.183105,-2.68555,0.206085,0.661957,-0.218018,0.686798,21699,16151,-31770,-8787,-28687
144500,9.79521,-0.162695,0.181836,-42.6599,-87.7808,-172.332,0.12207,0.183105,-2.44141,0.206757,0.661835,-0.218384,0.686584,21443,16407,-29722,-8787,-28687
144506,9.78086,-0.153125,0.205762,-42.4127,-87.7972,-172.661,-0.0610352,-0.0610352,-1.34277,0.207031,0.661804,-0.218567,0.686493,20931,17431,-30746,-8787,-28687
144512,9.78564,-0.143555,0.14834,-42.3798,-87.8027,-172.733,-0.183105,-0.488281,-1.0376,0.207336,0.661743,-0.21875,0.686401,20163,17943,-31514,-8787,-28687
144518,9.76172,-0.13877,0.153125,-42.4512,-87.8082,-172.7,-0.244141,-0.549316,0,0.207581,0.661713,-0.218964,0.686279,19907,17943,32486,-8787,-28687
144524,9.75215,-0.110059,0.15791,-42.55,-87.8082,-172.639,-0.427246,-0.366211,0.427246,0.207825,0.661682,-0.219177,0.686188,19651,17687,31974,-8787,-28687
144530,9.80479,-0.172266,0.153125,-42.6874,-87.8082,-172.54,-0.305176,-0.427246,0.793457,0.208191,0.66156,-0.219635,0.686005,19907,16919,31974,-8787,-28687
144536,9.81436,-0.162695,0.15791,-43.1543,-87.8027,-172.139,-0.305176,-0.305176,1.89209,0.208344,0.661499,-0.21991,0.685944,19139,15639,29926,-8787,-28687
144542,9.78086,-0.177051,0.186621,-43.4015,-87.8027,-171.92,-0.244141,-0.427246,2.01416,0.208496,0.661469,-0.220154,0.685883,18627,15639,28390,-8787,-28687
144548,9.81914,-0.177051,0.15791,-43.6871,-87.7972,-171.667,-0.12207,-0.427246,2.44141,0.208618,0.661407,-0.220367,0.685822,18115,15639,27366,-8787,-28687
144554,9.81914,-0.234473,0.15791,-43.9233,-87.7917,-171.453,-0.244141,-0.305176,2.0752,0.20871,0.661346,-0.220612,0.68576,17859,15639,27110,-8787,-28687
144560,9.83828,-0.215332,0.129199,-44.0717,-87.7917,-171.337,-0.305176,0,1.40381,0.208954,0.661224,-0.221069,0.685638,17859,15895,27366,-8787,-28687
144566,9.81914,-0.234473,0.14834,-44.209,-87.7808,-171.26,-0.0610352,0.671387,0.854492,0.209106,0.661163,-0.221283,0.685608,17603,14871,28134,-8787,-28687
144572,9.8335,-0.229688,0.172266,-44.22,-87.7808,-171.282,-0.0610352,0.732422,0.610352,0.20929,0.661102,-0.221466,0.685547,17347,14871,28902,-8787,-28687
144578,9.82393,-0.234473,0.177051,-44.22,-87.7753,-171.315,0.0610352,0.671387,0.427246,0.209473,0.661011,-0.22168,0.685516,16579,15127,29926,-8787,-28687
144584,9.82871,-0.229688,0.177051,-44.165,-87.7808,-171.403,0.183105,0.671387,-0.12207,0.209656,0.66095,-0.221863,0.685455,16323,15639,30438,-8787,-28687
144590,9.85264,-0.277539,0.133984,-44.0552,-87.7808,-171.552,0.305176,0.793457,-0.671387,0.210083,0.660797,-0.222198,0.685364,16067,16407,31206,-8787,-28687
144596,9.8335,-0.263184,0.133984,-43.5059,-87.7863,-172.178,0,1.46484,-2.2583,0.210388,0.660736,-0.222351,0.685272,16579,17943,31462,-8787,-28687
144602,9.80957,-0.229688,0.181836,-43.1323,-87.7917,-172.595,-0.0610352,1.64795,-2.68555,0.210724,0.660645,-0.222534,0.685211,16835,18199,31206,-8787,-28687
144608,9.75215,-0.181836,0.16748,-42.7972,-87.7972,-172.974,-0.183105,1.28174,-2.62451,0.21106,0.660553,-0.222687,0.68515,17347,18967,30182,-8787,-28687
144614,9.78564,-0.124414,0.191406,-42.5226,-87.8027,-173.293,-0.244141,1.34277,-1.95312,0.211426,0.660461,-0.222839,0.685059,17347,18967,30182,-8787,-28687
144620,9.77607,-0.129199,0.215332,-42.3303,-87.8027,-173.524,-0.549316,0.976562,-1.34277,0.212036,0.660278,-0.223236,0.684906,17347,18455,30182,-8787,-28687
144626,9.72344,-0.14834,0.215332,-42.3303,-87.8027,-173.6,-0.305176,0.244141,0.610352,0.21228,0.660217,-0.223419,0.684845,16835,17687,29926,-8787,-28687
144632,9.73779,-0.153125,0.181836,-42.4896,-87.8027,-173.48,-0.610352,-0.183105,1.2207,0.212494,0.660126,-0.223663,0.684784,16835,17175,30438,-8787,-28687
144638,9.75215,-0.153125,0.224902,-42.7258,-87.8027,-173.276,-0.549316,-0.610352,1.70898,0.212677,0.660065,-0.223907,0.684723,16835,16663,30438,-8787,-28687
144644,9.7665,-0.16748,0.196191,-43.1158,-87.7972,-172.914,-0.793457,-1.2207,2.74658,0.212799,0.660034,-0.224121,0.684631,17347,16151,30950,-8787,-28687
144650,9.8,-0.191406,0.16748,-43.5059,-87.7972,-172.551,-0.854492,-1.28174,2.74658,0.212982,0.659973,-0.22464,0.684479,18115,15895,31462,-8787,-28687
144656,9.81436,-0.210547,0.162695,-44.4342,-87.7863,-171.672,-0.976562,-1.46484,3.479,0.213013,0.659943,-0.224915,0.684418,18627,16151,31718,-8787,-28687
144662,9.81436,-0.248828,0.15791,-44.8517,-87.7863,-171.282,-1.28174,-1.58691,2.74658,0.213043,0.659912,-0.225159,0.684357,19139,16407,31718,-8787,-28687
144668,9.85264,-0.234473,0.129199,-45.3021,-87.7808,-170.859,-1.70898,-1.64795,3.11279,0.213104,0.659882,-0.225403,0.684265,19651,16919,31462,-8787,-28687
144674,9.78086,-0.234473,0.14834,-45.6757,-87.7808,-170.519,-1.52588,-1.52588,2.31934,0.213165,0.659851,-0.225677,0.684174,20419,16919,31206,-8787,-28687
144680,9.81436,-0.272754,0.13877,-46.0052,-87.7753,-170.211,-0.976562,-0.488281,2.19727,0.213318,0.659821,-0.226135,0.684021,21443,17175,30694,-8787,-28687
144686,9.81914,-0.272754,0.090918,-46.4008,-87.7698,-169.865,-0.671387,0.183105,1.52588,0.213409,0.65976,-0.226349,0.68396,22979,16919,31206,-8787,-28687
144692,9.80957,-0.248828,0.0957031,-46.4008,-87.7643,-169.898,-0.427246,1.0376,0.854492,0.213531,0.659698,-0.226562,0.683929,23491,16663,31718,-8787,-28687
144698,9.86221,-0.282324,0.0430664,-46.2579,-87.7588,-170.074,-0.366211,2.0752,0.305176,0.213684,0.659637,-0.226746,0.683899,23747,16407,31974,-8787,-28687
144704,9.79043,-0.210547,0.162695,-45.9888,-87.7533,-170.376,-0.488281,2.74658,-0.427246,0.213898,0.659515,-0.226929,0.683868,23491,15895,32742,-8787,-28687
144710,9.75693,-0.16748,0.200977,-45.7141,-87.7478,-170.684,0.183105,2.62451,0.549316,0.214386,0.659241,-0.227234,0.683868,22723,15639,32486,-8787,-28687
144716,9.8,-0.224902,0.143555,-45.379,-87.7258,-171.079,0.488281,2.68555,0.671387,0.2146,0.659119,-0.227386,0.683868,21443,14359,30950,-8787,-28687
144722,9.82871,-0.220117,0.15791,-45.1758,-87.7203,-171.315,0.366211,2.86865,0.366211,0.214783,0.658997,-0.22757,0.683899,20931,13847,30694,-8787,-28687
144728,9.81436,-0.229688,0.196191,-44.989,-87.7094,-171.535,0.366211,2.62451,0.305176,0.214996,0.658844,-0.227722,0.683899,21187,13847,31206,-8787,-28687
144734,9.79521,-0.244043,0.224902,-44.8407,-87.7039,-171.716,0.183105,2.31934,0.427246,0.21521,0.658722,-0.227875,0.683899,21955,13591,-32282,-8787,-28687
144740,9.80957,-0.234473,0.210547,-44.6649,-87.6984,-171.925,0.244141,1.83105,0.183105,0.215637,0.658478,-0.228241,0.683899,22211,13847,-30490,-8787,-28687
144746,9.82393,-0.234473,0.239258,-44.4562,-87.6874,-172.2,0.244141,1.52588,0.366211,0.215851,0.658356,-0.228394,0.683868,21699,15383,-29210,-8787,-28687
144752,9.82871,-0.239258,0.239258,-44.3848,-87.6874,-172.299,0.12207,1.15967,0.12207,0.216034,0.658264,-0.228577,0.683838,21699,16151,-30746,-8787,-28687
144758,9.81914,-0.263184,0.244043,-44.3573,-87.6874,-172.365,0,0.305176,-0.244141,0.216217,0.658173,-0.22876,0.683807,21443,16919,32742,-8787,-28687
144764,9.85264,-0.234473,0.234473,-44.3188,-87.6929,-172.43,0,-0.305176,-0.915527,0.216431,0.658112,-0.228912,0.683746,21699,17175,30438,-8787,-28687
144770,9.82393,-0.210547,0.196191,-44.2804,-87.6984,-172.496,0,-0.915527,-1.34277,0.216858,0.658081,-0.229218,0.683563,22467,16919,28134,-8787,-28687
144776,9.80957,-0.234473,0.186621,-44.2365,-87.7203,-172.601,-0.0610352,-0.915527,-1.28174,0.217072,0.658051,-0.22937,0.683472,23491,16151,27366,-8796,-28686
144782,9.80479,-0.220117,0.172266,-44.209,-87.7313,-172.656,0.12207,-0.793457,-1.28174,0.217255,0.658051,-0.229492,0.68335,23491,16407,27622,-8796,-28686
144788,9.77129,-0.200977,0.177051,-44.176,-87.7368,-172.722,0.0610352,-0.854492,-1.40381,0.217468,0.658051,-0.229645,0.683258,23235,16919,28134,-8796,-28686
144794,9.80957,-0.205762,0.186621,-44.1925,-87.7478,-172.733,0.12207,-0.854492,-0.793457,0.217682,0.658051,-0.229767,0.683136,23491,16919,28134,-8796,-28686
144800,9.79043,-0.229688,0.177051,-44.176,-87.7533,-172.782,0.12207,-0.183105,-0.488281,0.218079,0.65799,-0.230072,0.682953,23491,16919,27878,-8796,-28686
144806,9.78086,-0.181836,0.177051,-44.1266,-87.7588,-172.886,0.244141,0.183105,-0.427246,0.218262,0.657959,-0.230225,0.682892,23747,16919,26598,-8796,-28686
144812,9.78086,-0.205762,0.143555,-44.0881,-87.7588,-172.958,0.244141,0.427246,-0.183105,0.218445,0.657928,-0.230377,0.682831,23747,16663,26598,-8796,-28686
144818,9.79043,-0.210547,0.191406,-44.0277,-87.7588,-173.046,0.12207,0.671387,-0.183105,0.218628,0.657867,-0.23053,0.68277,23747,16919,26342,-8796,-28686
144824,9.81914,-0.224902,0.186621,-43.9728,-87.7588,-173.128,0.244141,0.793457,0,0.218811,0.657776,-0.230682,0.682709,23491,16663,26342,-8796,-28686
144830,9.80957,-0.215332,0.224902,-43.9178,-87.7643,-173.243,0.0610352,0,-0.12207,0.219177,0.657654,-0.231018,0.682617,22723,16407,26342,-8796,-28686
144836,9.78086,-0.196191,0.196191,-43.9288,-87.7643,-173.254,0,-0.366211,-0.366211,0.21936,0.657623,-0.231171,0.682556,21955,17175,27622,-8796,-28686
144842,9.79043,-0.162695,0.181836,-43.9893,-87.7698,-173.221,0,-0.427246,0.0610352,0.219543,0.657593,-0.231323,0.682465,21955,17943,28902,-8796,-28686
144848,9.78564,-0.186621,0.186621,-44.0826,-87.7698,-173.156,0,-0.610352,0.305176,0.219696,0.657562,-0.231476,0.682404,22467,18711,30182,-8796,-28686
144854,9.80957,-0.196191,0.196191,-44.1925,-87.7753,-173.073,-0.0610352,-0.549316,0.488281,0.219818,0.657532,-0.231628,0.682312,22467,19223,30438,-8796,-28686
144860,9.82393,-0.229688,0.16748,-44.3628,-87.7808,-172.952,-0.183105,-0.488281,-0.244141,0.220062,0.657471,-0.231964,0.68219,22211,19479,30950,-8796,-28686
144866,9.82393,-0.210547,0.200977,-44.4617,-87.7863,-172.881,-0.183105,-0.732422,0.183105,0.220245,0.65744,-0.232117,0.682098,22211,21527,29670,-8796,-28686
144872,9.80957,-0.200977,0.196191,-44.5496,-87.7863,-172.809,-0.12207,-0.793457,0.0610352,0.220367,0.65744,-0.232269,0.682037,21699,22551,28646,-8796,-28686
144878,9.79043,-0.210547,0.181836,-44.6594,-87.7917,-172.727,-0.183105,-0.671387,0.366211,0.22052,0.65741,-0.232422,0.681946,21187,23575,27366,-8796,-28686
144884,9.77607,-0.210547,0.162695,-44.7583,-87.7917,-172.656,-0.183105,-0.732422,0.183105,0.220642,0.657379,-0.232574,0.681885,20419,24087,26342,-8796,-28686
144890,9.79521,-0.196191,0.181836,-45.0055,-87.7972,-172.452,-0.183105,-0.549316,0.549316,0.220886,0.657349,-0.23288,0.681732,19651,24343,25574,-8787,-28687
144896,9.8,-0.210547,0.153125,-45.0934,-87.7972,-172.381,-0.183105,-0.305176,0.549316,0.221008,0.657318,-0.233002,0.681671,18883,24087,25318,-8787,-28687
144902,9.80957,-0.239258,0.14834,-45.1648,-87.7972,-172.337,-0.183105,-0.12207,0.488281,0.2211,0.657288,-0.233154,0.68161,18371,24343,24550,-8787,-28687
144908,9.80957,-0.215332,0.162695,-45.2032,-87.7972,-172.326,-0.0610352,0.0610352,0.305176,0.221252,0.657257,-0.233307,0.681549,17603,24855,25062,-8787,-28687
144914,9.78564,-0.215332,0.186621,-45.2252,-87.7972,-172.326,-0.0610352,0.305176,0.427246,0.221375,0.657196,-0.233459,0.681519,17603,25623,25062,-8787,-28687
144920,9.79521,-0.196191,0.172266,-45.1868,-87.7972,-172.408,-0.0610352,0.610352,0.366211,0.221649,0.657104,-0.233734,0.681427,17603,26647,25574,-8787,-28687
144926,9.80479,-0.234473,0.196191,-45.1758,-87.7972,-172.447,0,0.427246,0.12207,0.221802,0.657043,-0.233887,0.681396,18371,27927,26854,-8787,-28687
144932,9.82393,-0.239258,0.191406,-45.1648,-87.7972,-172.48,0.0610352,0.366211,0.12207,0.221954,0.656982,-0.234009,0.681335,19395,27927,27110,-8787,-28687
144938,9.82393,-0.234473,0.186621,-45.1373,-87.7972,-172.529,0,0.12207,-0.305176,0.222076,0.656952,-0.234131,0.681305,19907,27927,27622,-8787,-28687
144944,9.82393,-0.229688,0.191406,-45.0659,-87.8027,-172.634,-0.0610352,0.244141,-0.732422,0.222229,0.656891,-0.234283,0.681244,20419,27415,27878,-8787,-28687
144950,9.79043,-0.224902,0.172266,-44.9615,-87.8082,-172.782,0.0610352,-0.12207,-0.854492,0.222595,0.65683,-0.234528,0.681122,21443,27415,28134,-8787,-28687
144956,9.78086,-0.224902,0.172266,-44.9121,-87.8137,-172.864,0,-0.183105,-0.915527,0.222778,0.656799,-0.23465,0.68103,20931,27415,30694,-8787,-28687
144962,9.80957,-0.210547,0.191406,-44.8407,-87.8247,-172.958,-0.0610352,-0.305176,-1.2207,0.222961,0.656769,-0.234772,0.680969,20931,27415,31974,-8787,-28687
144968,9.78086,-0.200977,0.172266,-44.8077,-87.8302,-173.018,0,-0.488281,-0.976562,0.223145,0.656738,-0.234894,0.680878,20931,27927,31718,-8787,-28687
144974,9.7665,-0.177051,0.200977,-44.7968,-87.8357,-173.057,0,-0.671387,-0.976562,0.223328,0.656738,-0.235016,0.680786,20931,27671,30694,-8787,-28687
144980,9.80479,-0.153125,0.177051,-44.8352,-87.8467,-173.062,0,-0.732422,-0.366211,0.223663,0.656708,-0.23526,0.680634,20931,27159,28902,-8787,-28687
144986,9.79521,-0.210547,0.172266,-44.8846,-87.8522,-173.035,0,-0.732422,-0.366211,0.223785,0.656677,-0.235382,0.680542,19651,25367,26854,-8787,-28687
144992,9.8335,-0.205762,0.143555,-44.8956,-87.8577,-173.046,0.0610352,-0.488281,-0.488281,0.223938,0.656677,-0.235504,0.680481,18883,24343,25830,-8787,-28687
144998,9.79043,-0.205762,0.177051,-44.9231,-87.8632,-173.046,-0.12207,-0.488281,-0.366211,0.224091,0.656647,-0.235626,0.680389,18627,23319,25318,-8796,-28686
145004,9.78564,-0.172266,0.153125,-44.9176,-87.8687,-173.073,0,-0.244141,-0.427246,0.224243,0.656647,-0.235779,0.680328,18883,22551,25318,-8796,-28686
145010,9.78086,-0.172266,0.162695,-44.978,-87.8687,-173.057,-0.0610352,0.183105,0.427246,0.224518,0.656586,-0.236023,0.680206,19907,22039,24294,-8796,-28686
145016,9.78564,-0.205762,0.200977,-44.989,-87.8687,-173.068,0.0610352,0.305176,0.305176,0.22464,0.656525,-0.236145,0.680176,20419,21783,25318,-8796,-28686
145022,9.80957,-0.215332,0.186621,-45.0385,-87.8632,-173.046,0,0.366211,0.732422,0.224762,0.656494,-0.236298,0.680115,20675,21527,26598,-8796,-28686
145028,9.80479,-0.244043,0.15791,-45.0549,-87.8632,-173.051,-0.0610352,0.366211,0.427246,0.224884,0.656433,-0.23642,0.680084,20931,21783,28390,-8796,-28686
145034,9.82393,-0.239258,0.143555,-45.0275,-87.8632,-173.101,0,0.488281,0.0610352,0.225006,0.656372,-0.236572,0.680054,21443,22295,29670,-8796,-28686
145040,9.8,-0.210547,0.181836,-44.8737,-87.8632,-173.304,0,0.793457,-0.305176,0.225342,0.65625,-0.236816,0.679962,22979,21271,30950,-8796,-28686
145046,9.80479,-0.224902,0.181836,-44.7253,-87.8632,-173.485,-0.12207,0.915527,-0.854492,0.225494,0.656189,-0.236969,0.679901,24003,20247,30694,-8796,-28686
145052,9.79043,-0.186621,0.200977,-44.632,-87.8632,-173.6,0,0.732422,-0.366211,0.225708,0.656128,-0.237091,0.679871,24515,19223,30438,-8796,-28686
145058,9.79043,-0.215332,0.200977,-44.5001,-87.8687,-173.76,0.0610352,0.671387,-0.915527,0.225861,0.656067,-0.237213,0.67984,24771,18199,29926,-8796,-28686
145064,9.8,-0.224902,0.191406,-44.3958,-87.8687,-173.892,-0.0610352,0.366211,-0.854492,0.226074,0.656006,-0.237335,0.679779,25283,17431,28646,-8796,-28686
145070,9.80957,-0.200977,0.205762,-44.198,-87.8796,-174.139,0,0,-1.28174,0.22644,0.655945,-0.237579,0.679657,25027,16919,25318,-8796,-28686
145076,9.80479,-0.215332,0.153125,-44.0881,-87.8851,-174.276,0,0,-1.28174,0.226624,0.655914,-0.237671,0.679565,25027,17175,23526,-8796,-28686
145082,9.80957,-0.220117,0.162695,-43.9783,-87.8906,-174.413,-0.0610352,0.183105,-1.09863,0.226837,0.655884,-0.237793,0.679504,24515,17943,22758,-8796,-28686
145088,9.79521,-0.200977,0.200977,-43.8135,-87.8961,-174.606,-0.0610352,0.183105,-1.70898,0.22702,0.655823,-0.237915,0.679443,24259,18967,22758,-8796,-28686
145094,9.81914,-0.196191,0.224902,-43.7091,-87.9016,-174.738,0,0,-1.2207,0.227234,0.655792,-0.238037,0.679352,24515,19735,23526,-8796,-28686
145100,9.80957,-0.181836,0.200977,-43.6102,-87.9126,-174.886,0,-0.366211,-0.732422,0.2276,0.655731,-0.238251,0.679199,25027,19479,25574,-8796,-28686
145106,9.8,-0.191406,0.191406,-43.5773,-87.9181,-174.941,0.12207,-0.488281,-0.915527,0.227783,0.655701,-0.238373,0.679138,25027,18967,25574,-8796,-28686
145112,9.77607,-0.205762,0.143555,-43.5718,-87.9236,-174.974,0.12207,-0.488281,-0.671387,0.227936,0.655701,-0.238495,0.679047,25027,18711,24550,-8796,-28686
145118,9.81436,-0.200977,0.162695,-43.5443,-87.9291,-175.029,-0.0610352,-0.427246,-0.854492,0.228088,0.65567,-0.238617,0.678986,24259,18967,22758,-8796,-28686
145124,9.80957,-0.215332,0.196191,-43.4839,-87.9346,-175.117,0,-0.183105,-0.915527,0.228271,0.65564,-0.238739,0.678894,24003,18967,20966,-8796,-28686
145130,9.79521,-0.196191,0.172266,-43.2697,-87.9456,-175.38,0,0.0610352,-1.2207,0.228638,0.655579,-0.238983,0.678741,23235,19223,16102,-8796,-28686
145136,9.8,-0.177051,0.186621,-43.1213,-87.951,-175.556,0.0610352,0.305176,-1.28174,0.228851,0.655548,-0.239105,0.67868,22467,18967,14310,-8796,-28686
145142,9.80479,-0.172266,0.16748,-43.006,-87.9565,-175.693,0.183105,0.183105,-1.09863,0.229034,0.655518,-0.239227,0.678619,21443,18967,13030,-8796,-28686
145148,9.80479,-0.215332,0.196191,-42.9126,-87.962,-175.82,0.366211,0.183105,-0.915527,0.229218,0.655457,-0.239319,0.678528,21187,18455,13030,-8796,-28686
145154,9.8,-0.16748,0.220117,-42.8192,-87.962,-175.935,0.183105,0.244141,-0.793457,0.229401,0.655426,-0.239441,0.678467,20931,18199,13286,-8796,-28686
145160,9.8,-0.15791,0.162695,-42.6489,-87.9675,-176.155,0.427246,0.183105,-0.732422,0.229767,0.655334,-0.239685,0.678345,21187,18199,13286,-8796,-28686
145166,9.79521,-0.186621,0.191406,-42.5555,-87.973,-176.27,0.366211,0.549316,-0.488281,0.229919,0.655304,-0.239777,0.678314,21187,18199,11494,-8796,-28686
145172,9.8,-0.196191,0.200977,-42.5336,-87.973,-176.32,0.244141,0.183105,-0.183105,0.230072,0.655243,-0.239899,0.678253,21187,18711,10726,-8796,-28686
145178,9.79043,-0.143555,0.191406,-42.5116,-87.973,-176.358,0.183105,0.12207,-0.183105,0.230225,0.655212,-0.240021,0.678192,20931,19223,10470,-8796,-28686
145184,9.80957,-0.162695,0.215332,-42.561,-87.973,-176.331,0.0610352,-0.183105,0.183105,0.230499,0.655151,-0.240295,0.678101,20931,19479,12006,-8796,-28686
145190,9.81914,-0.191406,0.186621,-42.6544,-87.9785,-176.287,-0.244141,-0.12207,0.244141,0.230621,0.65509,-0.240417,0.67804,19651,19223,16614,-8796,-28686
145196,9.77607,-0.181836,0.210547,-42.7203,-87.9785,-176.243,-0.183105,-0.183105,0.366211,0.230743,0.65506,-0.24057,0.677979,18627,18711,18918,-8796,-28686
145202,9.79521,-0.177051,0.16748,-42.7917,-87.9785,-176.188,-0.244141,-0.305176,0.305176,0.230865,0.655029,-0.240692,0.677917,18115,18455,20454,-8796,-28686
145208,9.78564,-0.177051,0.162695,-42.9291,-87.9785,-176.078,-0.305176,-0.488281,0.732422,0.230988,0.654999,-0.240814,0.677856,17347,17687,21734,-8796,-28686
145214,9.8,-0.181836,0.186621,-43.0884,-87.9785,-175.935,-0.0610352,-0.610352,0.915527,0.231171,0.654938,-0.241119,0.677765,17091,16663,23270,-8796,-28686
145220,9.78564,-0.177051,0.181836,-43.4949,-87.984,-175.567,-0.244141,-0.854492,0.915527,0.231232,0.654938,-0.241272,0.677704,18627,15383,25830,-8796,-28686
145226,9.79521,-0.177051,0.172266,-43.6926,-87.984,-175.38,0.183105,-0.793457,1.09863,0.231293,0.654907,-0.241394,0.677643,18627,14871,26854,-8796,-28686
145232,9.79521,-0.220117,0.13877,-43.8519,-87.984,-175.237,-0.0610352,-0.732422,0.793457,0.231354,0.654907,-0.241516,0.677582,18883,15639,27366,-8796,-28686
145238,9.81914,-0.239258,0.181836,-43.9618,-87.984,-175.15,0.244141,-0.366211,0.610352,0.231415,0.654907,-0.241638,0.677521,18115,16151,27366,-8796,-28686
145244,9.83828,-0.215332,0.153125,-43.9948,-87.984,-175.133,0,-0.12207,0.12207,0.231598,0.654846,-0.241882,0.677429,16835,16663,26854,-8796,-28686
145250,9.80957,-0.181836,0.172266,-44.0057,-87.9895,-175.155,0.183105,0,-0.0610352,0.23172,0.654816,-0.241974,0.677368,15555,16663,24550,-8796,-28686
145256,9.80479,-0.186621,0.186621,-44.0057,-87.995,-175.172,0.305176,-0.183105,-0.244141,0.231842,0.654785,-0.242065,0.677338,15555,16407,23782,-8796,-28686
145262,9.79521,-0.220117,0.16748,-43.9838,-87.995,-175.215,0.12207,-0.12207,-0.427246,0.231934,0.654785,-0.242157,0.677277,15811,15895,23014,-8796,-28686
145268,9.84785,-0.186621,0.186621,-43.9618,-88.0005,-175.248,0.305176,-0.12207,-0.366211,0.232056,0.654755,-0.242249,0.677246,16323,15639,21990,-8796,-28686
145274,9.81436,-0.196191,0.186621,-43.9453,-88.006,-175.287,0.12207,-0.488281,-0.732422,0.232269,0.654724,-0.242401,0.677124,16067,15383,21478,-8796,-28686
145280,9.78086,-0.200977,0.196191,-43.9728,-88.017,-175.292,0,-0.854492,-0.610352,0.232391,0.654724,-0.242493,0.677063,15555,14871,21222,-8796,-28686
145286,9.80479,-0.181836,0.181836,-44.0332,-88.0225,-175.248,0.0610352,-0.854492,-0.305176,0.232513,0.654724,-0.242584,0.676971,15811,13847,21478,-8796,-28686
145292,9.80957,-0.177051,0.133984,-44.0717,-88.028,-175.232,0,-0.793457,-0.488281,0.232635,0.654724,-0.242706,0.67691,16323,13335,22502,-8796,-28686
145298,9.79521,-0.191406,0.191406,-44.0717,-88.0334,-175.248,-0.0610352,-0.854492,-0.915527,0.232758,0.654724,-0.242798,0.676849,17347,12823,23526,-8796,-28686
145304,9.77129,-0.153125,0.205762,-44.1321,-88.0444,-175.21,-0.183105,-0.976562,-0.488281,0.232971,0.654724,-0.242981,0.676697,18371,13335,25062,-8796,-28686
145310,9.7665,-0.162695,0.162695,-44.3463,-88.0554,-175.023,-0.244141,-1.15967,-0.12207,0.233063,0.654724,-0.243073,0.676605,20163,14359,28134,-8796,-28686
145316,9.78564,-0.153125,0.162695,-44.5056,-88.0609,-174.88,-0.244141,-1.28174,0.183105,0.233154,0.654755,-0.243164,0.676544,20419,14359,28646,-8796,-28686
145322,9.78086,-0.16748,0.16748,-44.7253,-88.0609,-174.672,-0.12207,-1.34277,0.732422,0.233246,0.654755,-0.243256,0.676453,20163,14871,29158,-8796,-28686
145328,9.79043,-0.162695,0.105273,-44.967,-88.0664,-174.441,-0.183105,-1.34277,0.915527,0.233276,0.654785,-0.243378,0.676392,20163,15127,28646,-8796,-28686
145334,9.77607,-0.16748,0.119629,-45.1978,-88.0664,-174.227,0.0610352,-0.854492,1.28174,0.233337,0.654785,-0.243591,0.6763,19651,15639,28646,-8796,-28686
145340,9.78564,-0.191406,0.124414,-45.5273,-88.0609,-173.919,0,-0.12207,1.40381,0.233368,0.654755,-0.243713,0.67627,19395,15895,29670,-8796,-28686
145346,9.80957,-0.210547,0.162695,-45.6482,-88.0554,-173.815,0,0.183105,1.28174,0.233429,0.654724,-0.243805,0.676239,19651,15639,30438,-8796,-28686
145352,9.8335,-0.210547,0.143555,-45.6921,-88.0554,-173.787,0,0.427246,0.793457,0.233459,0.654694,-0.243927,0.676208,20419,15639,30182,-8796,-28686
145358,9.83828,-0.234473,0.162695,-45.7471,-88.0499,-173.743,-0.12207,0.305176,0.793457,0.233521,0.654633,-0.244019,0.676208,21187,15127,29670,-8796,-28686
145364,9.81914,-0.224902,0.177051,-45.6921,-88.0499,-173.815,0.183105,0.671387,0.0610352,0.233704,0.654541,-0.244202,0.676147,21699,15383,28390,-8796,-28686
145370,9.79521,-0.205762,0.186621,-45.6812,-88.0499,-173.859,0,0.244141,0.0610352,0.233795,0.65451,-0.244324,0.676117,21443,16407,27366,-8796,-28686
145376,9.80957,-0.205762,0.16748,-45.6757,-88.0499,-173.881,0,0,-0.12207,0.233917,0.65448,-0.244415,0.676086,21699,17175,28390,-8796,-28686
145382,9.81914,-0.215332,0.16748,-45.6372,-88.0554,-173.941,0.0610352,0.0610352,-0.427246,0.234009,0.654449,-0.244507,0.676025,21699,17175,30182,-8796,-28686
145388,9.80957,-0.200977,0.177051,-45.5603,-88.0609,-174.034,0.0610352,-0.12207,-0.976562,0.234131,0.654419,-0.244598,0.675995,21699,17175,31974,-8796,-28686
