Timestamp,AccX,AccY,AccZ,AngleX,AngleY,AngleZ,AngularVelX,AngularVelY,AngularVelZ,QW,QX,QY,QZ,MagX,MagY,MagZ,Height,AirPressure
18138,-10.0297,-0.186621,-0.14834,-123.327,88.7091,97.3718,0.488281,0.671387,-0.0610352,0.238159,0.664642,0.253662,-0.661102,-8208,5612,-13330,-8985,-28663
18144,-10.7331,-0.449805,-0.172266,-123.497,88.7091,97.207,0.244141,0.427246,0.671387,0.238129,0.664673,0.253632,-0.661102,-7440,5868,-15122,-8985,-28663
18150,-8.89561,0,-0.0382813,-123.832,88.7091,96.8665,0.0610352,1.09863,1.0376,0.238159,0.664703,0.253632,-0.661072,-6928,6124,-17426,-8985,-28663
18156,-9.64209,-0.0382813,-0.119629,-124.151,88.7091,96.5533,0,1.46484,0.305176,0.23819,0.664734,0.253601,-0.661041,-6416,7148,-19218,-8985,-28663
18162,-9.5751,-0.13877,-0.133984,-124.579,88.6981,96.1194,0.610352,1.46484,-0.671387,0.238159,0.664825,0.253632,-0.66095,-6672,8428,-18962,-8985,-28663
18168,-9.95791,-0.224902,-0.186621,-124.86,88.6926,95.8392,0,1.34277,0.244141,0.238098,0.664856,0.253662,-0.660919,-6928,9196,-17682,-8985,-28663
18174,-9.9627,-0.215332,-0.124414,-125.096,88.6926,95.603,0,1.15967,0.183105,0.238098,0.664886,0.253662,-0.660858,-7696,10732,-16146,-8985,-28663
18180,-9.4124,-0.00957031,-0.133984,-125.321,88.6871,95.3778,0.305176,1.09863,0.183105,0.238098,0.664948,0.253693,-0.660828,-8208,11500,-15122,-8985,-28663
18186,-9.84307,-0.129199,-0.210547,-125.442,88.6871,95.257,0.12207,0.915527,-0.427246,0.238098,0.664978,0.253693,-0.660797,-8976,12012,-16402,-8985,-28663
18192,-9.68994,-0.186621,-0.119629,-125.535,88.6761,95.1636,0.183105,0.549316,-0.183105,0.238037,0.665009,0.253754,-0.660767,-8720,12268,-17682,-8985,-28663
18198,-9.75215,-0.16748,-0.15791,-125.645,88.6761,95.0592,0,0.732422,-0.244141,0.238037,0.665009,0.253754,-0.660736,-8464,12012,-18450,-8985,-28663
18204,-9.90527,-0.186621,-0.172266,-125.728,88.6707,94.9768,0,0.488281,-0.12207,0.238037,0.665039,0.253784,-0.660736,-8464,11500,-17682,-8985,-28663
18210,-9.74736,-0.162695,-0.16748,-125.711,88.6707,94.9933,0.244141,0,-0.183105,0.238037,0.665039,0.253784,-0.660706,-8464,11500,-16402,-8985,-28663
18216,-9.79521,-0.196191,-0.181836,-125.656,88.6707,95.0482,0.183105,-0.12207,-0.366211,0.238037,0.665039,0.253815,-0.660706,-8976,10732,-14354,-8985,-28663
18222,-9.8957,-0.224902,-0.200977,-125.629,88.6761,95.0757,0.244141,-0.610352,0.610352,0.238007,0.665039,0.253815,-0.660706,-8976,10220,-13842,-8985,-28663
18228,-9.79521,-0.16748,-0.181836,-125.59,88.6816,95.1141,0.12207,-1.0376,1.0376,0.238037,0.665039,0.253784,-0.660736,-9488,9964,-14098,-8985,-28663
18234,-9.79521,-0.153125,-0.153125,-125.486,88.6871,95.2185,0,-1.15967,0.671387,0.238098,0.665009,0.253723,-0.660736,-10256,8940,-14866,-8985,-28663
18240,-9.81436,-0.133984,-0.129199,-125.316,88.6926,95.3888,0,-1.34277,0.427246,0.238129,0.664978,0.253723,-0.660767,-10768,7916,-15634,-8985,-28663
18246,-9.78086,-0.13877,-0.110059,-125.184,88.6981,95.5206,0.0610352,-0.854492,0.0610352,0.238159,0.664948,0.253693,-0.660797,-10768,7404,-16146,-8985,-28663
18252,-9.79521,-0.153125,-0.110059,-125.03,88.6981,95.6744,0.183105,-0.549316,0.183105,0.23819,0.664886,0.253662,-0.660858,-10768,7148,-15634,-8985,-28663
18258,-9.75215,-0.153125,-0.0669922,-124.991,88.7036,95.7129,0,0,0.0610352,0.23819,0.664886,0.253662,-0.660858,-10768,7916,-15634,-8985,-28663
18264,-9.80957,-0.15791,-0.0669922,-125.063,88.7036,95.647,0.12207,0.366211,-0.0610352,0.23819,0.664886,0.253662,-0.660858,-11280,8428,-15122,-8985,-28663
18270,-9.82393,-0.177051,-0.0957031,-125.151,88.6981,95.5591,0.183105,0.610352,-0.244141,0.23819,0.664917,0.253662,-0.660828,-12048,8940,-15378,-8985,-28663
18276,-9.81436,-0.16748,-0.119629,-125.277,88.6981,95.4272,0,0.671387,0,0.23819,0.664917,0.253662,-0.660828,-12048,9196,-15122,-8985,-28663
18282,-9.78086,-0.16748,-0.143555,-125.403,88.6926,95.3064,0.12207,0.854492,-0.427246,0.238159,0.664948,0.253693,-0.660767,-11280,8428,-13330,-8985,-28663
18288,-9.79043,-0.153125,-0.14834,-125.563,88.6871,95.1471,0.244141,0.732422,-0.671387,0.238159,0.664978,0.253723,-0.660767,-11536,8172,-12562,-8985,-28663
18294,-9.82871,-0.205762,-0.181836,-125.607,88.6816,95.0977,0.0610352,0.427246,-0.305176,0.238129,0.664978,0.253754,-0.660736,-12304,7404,-12050,-8985,-28663
18300,-9.81914,-0.205762,-0.205762,-125.601,88.6816,95.1086,0.12207,-0.0610352,-0.0610352,0.238098,0.665009,0.253754,-0.660736,-12560,7148,-11282,-8985,-28663
18306,-9.83828,-0.229688,-0.205762,-125.469,88.6816,95.2405,0.183105,-0.671387,-0.183105,0.238098,0.665009,0.253754,-0.660736,-13584,6124,-8466,-8985,-28663
18312,-9.80479,-0.181836,-0.191406,-125.063,88.6926,95.6415,0.183105,-1.40381,0.0610352,0.238098,0.664948,0.253723,-0.660797,-13328,5612,-8210,-8985,-28663
18318,-9.88135,-0.191406,-0.162695,-124.816,88.6981,95.8832,0,-1.70898,0.366211,0.238098,0.664917,0.253693,-0.660828,-13584,5356,-8978,-8985,-28663
18324,-9.80957,-0.210547,-0.124414,-124.629,88.7036,96.0754,0.12207,-1.58691,0.671387,0.238129,0.664886,0.253662,-0.660889,-13072,5612,-10258,-8985,-28663
18330,-9.72344,-0.13877,-0.124414,-124.481,88.7091,96.2238,0.183105,-1.28174,0.549316,0.23819,0.664856,0.253632,-0.660919,-12560,5100,-11026,-8985,-28663
18336,-10.8719,-0.430664,-0.181836,-124.387,88.7201,96.3171,0.12207,-1.28174,1.0376,0.238251,0.664795,0.253571,-0.66098,-11024,3820,-11282,-8985,-28663
18342,-9.46982,0.0239258,-0.0813477,-124.442,88.7201,96.2622,0,0,0.0610352,0.238251,0.664795,0.25354,-0.66098,-10000,3308,-11794,-8985,-28663
18348,-10.5608,-0.291895,-0.119629,-124.398,88.7201,96.3007,0.610352,0.183105,-0.671387,0.238251,0.664795,0.25354,-0.66098,-9232,3564,-12562,-8985,-28663
18354,-9.46504,-0.124414,-0.0526367,-124.459,88.7146,96.2347,0.610352,0.427246,-0.183105,0.23822,0.664795,0.25354,-0.66098,-8208,3820,-13330,-8985,-28663
18360,-9.84785,-0.200977,-0.129199,-124.563,88.7146,96.1359,0,0.793457,-0.427246,0.23819,0.664825,0.25354,-0.66098,-7952,4588,-13842,-8985,-28663
18366,-9.44111,-0.100488,-0.119629,-124.772,88.7091,95.9271,0,0.976562,0.183105,0.23819,0.664856,0.253571,-0.660919,-6672,5356,-13074,-8985,-28663
18372,-9.82393,-0.14834,-0.191406,-125.25,88.7036,95.4437,0.305176,1.15967,0,0.238159,0.664917,0.25354,-0.660889,-6672,5356,-12050,-8985,-28663
18378,-10.1685,-0.267969,-0.196191,-125.392,88.7036,95.3009,0,0.671387,0.12207,0.238159,0.664948,0.25354,-0.660858,-6672,5612,-11538,-8985,-28663
18384,-9.73779,-0.172266,-0.133984,-125.563,88.7036,95.1306,0.12207,0.427246,0.671387,0.238159,0.664978,0.25354,-0.660828,-6928,6380,-11794,-8985,-28663
18390,-9.70908,-0.110059,-0.16748,-125.695,88.7091,94.9988,0,0.366211,0.427246,0.238159,0.664978,0.25354,-0.660797,-7952,6892,-12306,-8985,-28663
18396,-9.75693,-0.153125,-0.16748,-125.684,88.7036,95.0098,0,0,-0.12207,0.238159,0.665009,0.25354,-0.660797,-8976,7660,-13586,-8985,-28663
18402,-9.77129,-0.196191,-0.133984,-125.629,88.7036,95.0647,0.12207,-0.0610352,-0.427246,0.238159,0.665009,0.25354,-0.660797,-10000,8172,-13842,-8985,-28663
18408,-9.84785,-0.200977,-0.090918,-125.662,88.7036,95.0317,0.305176,0.0610352,0.12207,0.238159,0.665009,0.25354,-0.660797,-10256,8428,-14354,-8985,-28663
18414,-9.87178,-0.200977,-0.0957031,-125.843,88.7036,94.8505,0,0.549316,0.610352,0.238159,0.665009,0.25354,-0.660797,-10000,8428,-15122,-8985,-28663
18420,-9.77607,-0.133984,-0.0813477,-126.096,88.7036,94.5978,0,0.976562,0.549316,0.238159,0.665039,0.25354,-0.660767,-10000,8428,-15122,-8985,-28663
18426,-9.85264,-0.13877,-0.0861328,-126.403,88.7036,94.2902,0,1.46484,0.305176,0.238159,0.6651,0.25354,-0.660675,-10512,7916,-14354,-8985,-28663
18432,-9.7665,-0.0957031,-0.129199,-127.09,88.6871,93.6035,0.12207,2.2583,-0.366211,0.238159,0.665161,0.253571,-0.660645,-11280,7660,-15378,-8985,-28663
18438,-9.84785,-0.177051,-0.119629,-127.447,88.6761,93.2465,0,2.62451,-0.732422,0.238129,0.665222,0.253601,-0.660583,-12304,6636,-15122,-8985,-28663
18444,-9.82393,-0.191406,-0.114844,-127.919,88.6707,92.774,0,2.74658,0,0.238068,0.665283,0.253632,-0.660492,-12816,5868,-15378,-8985,-28663
18450,-9.75215,-0.177051,-0.15791,-128.342,88.6597,92.3566,-0.183105,2.68555,-0.244141,0.238068,0.665375,0.253662,-0.660431,-12304,5100,-14866,-8985,-28663
18456,-9.84785,-0.220117,-0.205762,-128.793,88.6542,91.9061,0,2.44141,-0.183105,0.238007,0.665497,0.253754,-0.660248,-11280,4076,-12818,-8985,-28663
18462,-9.80957,-0.172266,-0.234473,-129.457,88.6377,91.2415,-0.12207,1.95312,-0.244141,0.237976,0.665588,0.253784,-0.660187,-10768,3564,-12306,-8985,-28663
18468,-9.82393,-0.15791,-0.215332,-129.694,88.6322,91.0052,0,1.46484,0,0.237946,0.665619,0.253815,-0.660126,-10768,3308,-12306,-8985,-28663
18474,-9.81436,-0.15791,-0.253613,-129.798,88.6267,90.9009,-0.0610352,0.915527,-0.366211,0.237946,0.66568,0.253815,-0.660095,-11536,3308,-12306,-8985,-28663
18480,-9.76172,-0.162695,-0.229688,-129.836,88.6267,90.8624,0,0.244141,-0.0610352,0.237915,0.66568,0.253845,-0.660065,-13584,5612,-14866,-8985,-28663
18486,-9.83828,-0.205762,-0.234473,-129.622,88.6267,91.0767,0.244141,-0.915527,-0.305176,0.237915,0.66571,0.253876,-0.660065,-14096,6636,-15122,-8985,-28663
18492,-9.81914,-0.181836,-0.234473,-129.435,88.6322,91.2689,0,-1.52588,0.305176,0.237915,0.66568,0.253845,-0.660095,-14096,7404,-15890,-8985,-28663
18498,-9.87178,-0.181836,-0.234473,-129.177,88.6377,91.5216,0,-1.77002,0.12207,0.237946,0.665619,0.253845,-0.660126,-14096,7916,-16146,-8985,-28663
18504,-9.80957,-0.16748,-0.196191,-128.842,88.6487,91.8622,0.183105,-2.31934,0.183105,0.237976,0.665588,0.253815,-0.660187,-13840,7660,-16402,-8985,-28663
18510,-9.7665,-0.124414,-0.191406,-128.375,88.6542,92.3236,0.183105,-2.92969,0,0.238007,0.665527,0.253784,-0.660248,-13328,7660,-16402,-8985,-28663
18516,-9.8335,-0.186621,-0.15791,-127.326,88.6761,93.3728,0.0610352,-3.35693,0.0610352,0.238037,0.665344,0.253723,-0.6604,-13328,8428,-16146,-8985,-28663
18522,-9.77607,-0.177051,-0.143555,-126.744,88.6871,93.9551,0.183105,-3.479,0,0.238098,0.665253,0.253693,-0.660492,-13328,9452,-15378,-8985,-28663
18528,-9.74258,-0.153125,-0.114844,-126.107,88.6981,94.5923,0.12207,-3.66211,-0.183105,0.238129,0.665161,0.253632,-0.660614,-12816,10220,-14866,-8985,-28663
18534,-10.0249,-0.234473,-0.133984,-125.497,88.7091,95.202,0.0610352,-3.54004,0,0.238159,0.66507,0.253601,-0.660706,-11792,9964,-13330,-8985,-28663
18540,-9.8335,-0.177051,-0.0957031,-124.915,88.7146,95.7843,0.183105,-3.35693,0,0.23819,0.664978,0.253571,-0.660797,-9232,8684,-10002,-8985,-28663
18546,-9.91484,-0.172266,-0.0382813,-124.069,88.7256,96.6302,0.244141,-1.89209,-0.549316,0.238251,0.664795,0.25351,-0.66098,-8464,8172,-10258,-8985,-28663
18552,-9.82393,-0.191406,-0.0287109,-123.854,88.7256,96.839,0.427246,-0.976562,-0.366211,0.238251,0.664764,0.25351,-0.661041,-8720,8172,-11026,-8985,-28663
18558,-9.81914,-0.191406,-0.0526367,-123.788,88.7256,96.9049,0.12207,0,-0.671387,0.238251,0.664734,0.253479,-0.661072,-9488,8172,-11794,-8985,-28663
18564,-9.86699,-0.205762,-0.0382813,-123.997,88.7201,96.7017,0,1.0376,0,0.23822,0.664734,0.25351,-0.661072,-9232,8428,-13074,-8985,-28663
18570,-9.75693,-0.14834,0,-124.387,88.7146,96.3062,0.12207,1.95312,0.183105,0.23822,0.664764,0.25351,-0.661041,-7952,8428,-14354,-8985,-28663
18576,-9.91006,-0.181836,-0.105273,-125.349,88.6981,95.3503,0.12207,3.11279,-0.366211,0.238159,0.664886,0.253571,-0.660919,-6672,8172,-14866,-8985,-28663
18582,-9.80957,-0.177051,-0.124414,-125.903,88.6871,94.79,0.183105,3.41797,-0.427246,0.238129,0.664978,0.253601,-0.660828,-6416,7916,-14866,-8985,-28663
18588,-9.78564,-0.186621,-0.15791,-126.519,88.6761,94.1748,0,3.41797,0.12207,0.238068,0.66507,0.253662,-0.660736,-6672,7916,-14098,-8985,-28663
18594,-9.8335,-0.196191,-0.186621,-127.073,88.6707,93.62,0.183105,3.11279,0.12207,0.238037,0.665161,0.253693,-0.660614,-7440,7404,-14098,-8985,-28663
18600,-9.82871,-0.16748,-0.234473,-127.535,88.6597,93.1586,0.183105,2.68555,0,0.238007,0.665253,0.253723,-0.660522,-7696,7660,-15378,-8985,-28663
18606,-9.80479,-0.200977,-0.253613,-127.875,88.6542,92.8235,0.183105,1.09863,0.427246,0.237976,0.665375,0.253754,-0.6604,-8208,7916,-17426,-8985,-28663
18612,-9.84785,-0.196191,-0.253613,-128.232,88.6542,92.4664,0.0610352,0.366211,0.305176,0.237976,0.665436,0.253754,-0.66037,-8464,8428,-18706,-8985,-28663
18618,-9.80479,-0.153125,-0.234473,-128.254,88.6597,92.439,0.0610352,-0.305176,0.488281,0.237976,0.665436,0.253754,-0.660339,-8976,8172,-19218,-8985,-28663
18624,-9.82393,-0.15791,-0.205762,-128.139,88.6597,92.5543,0.0610352,-0.915527,0.183105,0.238007,0.665436,0.253723,-0.660339,-9232,7916,-19730,-8985,-28663
18630,-9.82393,-0.162695,-0.162695,-127.991,88.6652,92.7081,0.0610352,-1.2207,0.305176,0.238007,0.665405,0.253723,-0.66037,-9488,7916,-20498,-8985,-28663
18636,-9.80479,-0.129199,-0.114844,-127.804,88.6707,92.8949,-0.0610352,-1.2207,0,0.238068,0.665344,0.253693,-0.660431,-9744,7916,-19730,-8985,-28663
18642,-9.81436,-0.114844,-0.090918,-127.469,88.6761,93.2355,-0.12207,-0.793457,-0.183105,0.238098,0.665314,0.253693,-0.660461,-10000,7916,-19218,-8985,-28663
18648,-9.81436,-0.13877,-0.124414,-127.348,88.6761,93.3563,0.12207,-0.427246,-0.488281,0.238098,0.665283,0.253693,-0.660492,-10768,8172,-19730,-8985,-28663
18654,-9.81914,-0.153125,-0.110059,-127.288,88.6707,93.4167,-0.0610352,-0.0610352,-0.488281,0.238098,0.665253,0.253693,-0.660492,-11280,8428,-20754,-8985,-28663
18660,-9.79521,-0.177051,-0.0861328,-127.277,88.6707,93.4277,0.0610352,0.183105,-0.427246,0.238098,0.665253,0.253723,-0.660492,-11792,8428,-21266,-8985,-28663
18666,-9.81914,-0.172266,-0.153125,-127.293,88.6707,93.4113,0,0.549316,-0.488281,0.238068,0.665253,0.253754,-0.660492,-13328,8172,-22290,-8985,-28663
18672,-9.80957,-0.196191,-0.186621,-127.386,88.6597,93.3234,-0.244141,0.427246,-0.305176,0.238068,0.665283,0.253784,-0.660461,-12816,7660,-22802,-8985,-28663
18678,-9.77607,-0.210547,-0.186621,-127.365,88.6597,93.3453,0,0.183105,-0.488281,0.238068,0.665283,0.253815,-0.660461,-12304,6892,-24082,-8985,-28663
18684,-9.80957,-0.186621,-0.186621,-127.348,88.6597,93.3673,-0.244141,-0.183105,0,0.238068,0.665283,0.253845,-0.660431,-10768,6380,-25362,-8985,-28663
18690,-9.82393,-0.162695,-0.224902,-127.288,88.6597,93.4277,-0.183105,-0.488281,0.0610352,0.238068,0.665253,0.253845,-0.660431,-9744,6124,-26642,-8985,-28663
18696,-9.8335,-0.13877,-0.200977,-127.068,88.6652,93.6475,-0.0610352,-1.40381,0,0.238129,0.665222,0.253845,-0.660492,-9232,6892,-27922,-8985,-28663
18702,-9.80479,-0.162695,-0.186621,-126.458,88.6707,94.2627,-0.12207,-1.89209,-0.366211,0.238129,0.665161,0.253876,-0.660522,-9488,7916,-28434,-8985,-28663
18708,-9.8,-0.162695,-0.172266,-126.068,88.6761,94.6527,0,-2.01416,-0.488281,0.238159,0.6651,0.253876,-0.660583,-9744,9196,-29202,-8985,-28663
18714,-9.80957,-0.181836,-0.153125,-125.673,88.6816,95.0482,-0.0610352,-2.2583,-0.183105,0.238159,0.665039,0.253876,-0.660614,-10000,9964,-29970,-8985,-28663
18720,-9.82871,-0.191406,-0.100488,-125.277,88.6871,95.4547,-0.183105,-2.13623,-0.366211,0.23819,0.664978,0.253876,-0.660675,-11024,10476,-30738,-8985,-28663
18726,-9.65166,-0.124414,-0.0478516,-124.98,88.6926,95.7513,0,-1.64795,-0.183105,0.238251,0.664856,0.253876,-0.660797,-13072,12268,32494,-8985,-28663
18732,-9.78086,-0.181836,-0.090918,-124.492,88.6871,96.2402,0.0610352,-0.793457,-0.793457,0.238251,0.664825,0.253906,-0.660828,-14352,13292,30958,-8985,-28663
18738,-10.6278,-0.47373,-0.15791,-124.431,88.6926,96.3062,0,-0.671387,0.366211,0.238251,0.664795,0.253906,-0.660828,-14608,14316,30702,-8985,-28663
18744,-9.02481,-0.0143555,-0.0430664,-124.536,88.6981,96.2018,-0.305176,-0.0610352,0.793457,0.238281,0.664764,0.253906,-0.660858,-14608,15084,31470,-8985,-28663
18750,-9.74736,-0.0334961,-0.124414,-124.552,88.6926,96.1963,-0.549316,0.12207,-0.244141,0.238342,0.664764,0.253906,-0.660828,-14096,15596,32494,-8985,-28663
18756,-9.23057,-0.062207,-0.0813477,-124.464,88.6926,96.2842,0.183105,0.0610352,-0.915527,0.238342,0.664734,0.253998,-0.660828,-13328,16364,-31762,-8985,-28663
18762,-9.77129,-0.239258,-0.143555,-124.426,88.6816,96.3281,-0.244141,0.488281,-0.610352,0.238312,0.664734,0.254028,-0.660828,-13072,16620,-32530,-8994,-28662
18768,-10.2115,-0.354102,-0.129199,-124.503,88.6816,96.2512,0.0610352,0.366211,0,0.238312,0.664734,0.254059,-0.660797,-12560,16620,32494,-8994,-28662
18774,-9.45547,-0.13877,-0.124414,-124.623,88.6816,96.1304,0,0.244141,0.549316,0.238312,0.664764,0.254089,-0.660797,-11792,15852,-30994,-8994,-28662
18780,-9.87178,-0.172266,-0.153125,-124.7,88.6816,96.059,-0.305176,0.183105,0.244141,0.238342,0.664764,0.254059,-0.660767,-11280,14828,-27922,-8994,-28662
18786,-9.52246,-0.062207,-0.124414,-124.772,88.6871,95.993,-0.12207,0,0.488281,0.238403,0.664764,0.254089,-0.660736,-9744,12780,-23314,-8994,-28662
18792,-9.78086,-0.110059,-0.129199,-124.717,88.6871,96.0425,-0.0610352,-0.183105,0.12207,0.238403,0.664764,0.254089,-0.660736,-9488,11756,-22546,-8994,-28662
18798,-10.0201,-0.248828,-0.133984,-124.607,88.6871,96.1523,0.183105,-0.305176,-0.549316,0.238403,0.664764,0.254089,-0.660736,-8720,11244,-22034,-8994,-28662
18804,-9.72344,-0.181836,-0.124414,-124.448,88.6816,96.3116,0.12207,-0.610352,-0.488281,0.238403,0.664734,0.25412,-0.660767,-8720,10476,-22290,-8994,-28662
18810,-9.79521,-0.210547,-0.124414,-124.398,88.6871,96.3666,0.0610352,-0.427246,0.12207,0.238403,0.664703,0.25412,-0.660767,-9744,10732,-22802,-8994,-28662
18816,-9.89092,-0.224902,-0.133984,-124.36,88.6871,96.405,0.305176,-0.305176,0.0610352,0.238403,0.664703,0.25412,-0.660797,-10512,10476,-21522,-8994,-28662
18822,-9.73779,-0.133984,-0.105273,-124.525,88.6926,96.2402,0.183105,0.0610352,0.610352,0.238434,0.664703,0.254089,-0.660797,-10512,10988,-19218,-8994,-28662
18828,-9.8335,-0.15791,-0.119629,-124.53,88.6926,96.2347,0.183105,0,0,0.238434,0.664703,0.254089,-0.660767,-10512,10988,-17426,-8994,-28662
18834,-9.82871,-0.172266,-0.133984,-124.563,88.6926,96.2018,0.305176,0.12207,0,0.238434,0.664703,0.254089,-0.660767,-9744,10988,-15890,-8994,-28662
18840,-9.75693,-0.133984,-0.14834,-124.634,88.6926,96.1304,0.244141,0.305176,0.0610352,0.238434,0.664734,0.254059,-0.660767,-8720,10732,-15890,-8994,-28662
18846,-9.83828,-0.181836,-0.143555,-124.673,88.6926,96.0864,0.183105,0.183105,0,0.238434,0.664734,0.254059,-0.660767,-6672,8428,-18450,-8994,-28662
18852,-9.78564,-0.172266,-0.124414,-124.755,88.6871,96.004,0.0610352,0.305176,-0.0610352,0.238434,0.664734,0.254089,-0.660767,-6672,7660,-20242,-8994,-28662
18858,-9.86221,-0.196191,-0.119629,-124.794,88.6871,95.9711,0.0610352,0.244141,-0.12207,0.238434,0.664764,0.254089,-0.660736,-6672,7404,-21522,-8994,-28662
18864,-9.8335,-0.191406,-0.15791,-124.887,88.6871,95.8777,0.0610352,0.488281,0,0.238434,0.664764,0.254089,-0.660736,-6928,7660,-22802,-8994,-28662
18870,-9.8,-0.16748,-0.114844,-125.041,88.6816,95.7239,-0.0610352,0.671387,0.183105,0.238434,0.664764,0.254089,-0.660706,-6672,7404,-23058,-8994,-28662
18876,-9.82393,-0.196191,-0.119629,-125.189,88.6816,95.5811,0,0.915527,-0.183105,0.238434,0.664825,0.25412,-0.660675,-7440,7404,-21266,-8994,-28662
18882,-9.77129,-0.143555,-0.13877,-125.629,88.6761,95.1416,-0.0610352,1.0376,0.183105,0.238434,0.664856,0.25415,-0.660614,-7696,7148,-19218,-8994,-28662
18888,-9.82871,-0.181836,-0.153125,-125.837,88.6707,94.9329,0,1.15967,0,0.238434,0.664886,0.25415,-0.660583,-8208,7916,-19218,-8994,-28662
18894,-9.81436,-0.191406,-0.172266,-126.068,88.6707,94.7021,0,1.0376,0.366211,0.238434,0.664917,0.254181,-0.660553,-8720,8428,-19474,-8994,-28662
18900,-9.8,-0.196191,-0.15791,-126.293,88.6707,94.4769,0,1.0376,0.305176,0.238434,0.664948,0.254181,-0.660522,-8720,8940,-19474,-8994,-28662
18906,-9.84307,-0.172266,-0.186621,-126.502,88.6707,94.2737,0,0.976562,0.244141,0.238434,0.665009,0.254181,-0.660461,-8720,9196,-21522,-8994,-28662
18912,-9.8,-0.143555,-0.215332,-126.848,88.6652,93.9276,-0.0610352,0.671387,0.183105,0.238434,0.665039,0.254181,-0.660431,-8464,8940,-21522,-8994,-28662
18918,-9.81436,-0.196191,-0.181836,-126.843,88.6652,93.9331,-0.0610352,0.0610352,-0.183105,0.238464,0.665039,0.254211,-0.6604,-8208,8940,-22034,-8994,-28662
18924,-9.8335,-0.191406,-0.172266,-126.848,88.6652,93.9331,0.12207,0,-0.0610352,0.238464,0.665039,0.254211,-0.6604,-7952,8940,-21778,-8994,-28662
18930,-9.80479,-0.196191,-0.162695,-126.766,88.6652,94.01,0,-0.305176,-0.305176,0.238464,0.665039,0.254211,-0.6604,-7952,8684,-20498,-8994,-28662
18936,-9.53203,-0.119629,-0.13877,-126.689,88.6652,94.0924,0.183105,-0.427246,-0.12207,0.238464,0.665009,0.254242,-0.6604,-8464,8684,-19474,-8994,-28662
18942,-10.001,-0.282324,-0.143555,-126.458,88.6761,94.3176,-0.0610352,-1.15967,0.915527,0.238464,0.665009,0.254211,-0.660431,-7952,8428,-18450,-8994,-28662
18948,-8.98652,0.0382813,-0.0574219,-126.299,88.6761,94.4824,0,-1.0376,0.0610352,0.238495,0.664978,0.254181,-0.660461,-8208,8940,-18194,-8994,-28662
18954,-10.1732,-0.196191,-0.191406,-126.14,88.6816,94.6417,0,-0.732422,-0.366211,0.238525,0.664948,0.254181,-0.660492,-7952,9196,-17938,-8994,-28662
18960,-10.0728,-0.229688,-0.124414,-125.969,88.6816,94.812,0.366211,-0.976562,-0.0610352,0.238525,0.664917,0.254181,-0.660492,-8208,9196,-17938,-8994,-28662
18966,-9.57031,-0.162695,-0.090918,-125.848,88.6816,94.9329,0,-0.793457,0.0610352,0.238556,0.664856,0.254181,-0.660553,-8464,9196,-18962,-8994,-28662
18972,-9.69473,-0.0813477,-0.13877,-125.854,88.6926,94.9384,-0.793457,-0.488281,0.610352,0.238586,0.664856,0.25415,-0.660553,-8720,8940,-19218,-8994,-28662
18978,-9.61338,-0.0765625,-0.0861328,-125.711,88.6926,95.0867,-1.28174,-0.732422,-0.244141,0.238647,0.664825,0.25415,-0.660553,-8720,8428,-19730,-8994,-28662
18984,-10.0249,-0.15791,-0.119629,-125.579,88.6926,95.213,0.305176,-0.12207,-0.915527,0.238678,0.664795,0.254211,-0.660553,-7696,8172,-22034,-8994,-28662
18990,-9.83828,-0.210547,-0.090918,-125.48,88.6871,95.3174,0,-0.0610352,-0.793457,0.238647,0.664795,0.254211,-0.660553,-6928,7916,-22802,-8994,-28662
18996,-9.8335,-0.224902,-0.0478516,-125.508,88.6871,95.2899,0,0.366211,-0.366211,0.238647,0.664795,0.254272,-0.660553,-4880,7404,-23314,-8985,-28663
19002,-9.90049,-0.129199,-0.15791,-126.183,88.6761,94.6143,0.0610352,1.83105,0.549316,0.238617,0.664825,0.254272,-0.660522,-4112,7148,-22290,-8985,-28663
19008,-9.75215,-0.0430664,-0.110059,-126.546,88.6707,94.2517,-0.427246,2.13623,-0.12207,0.238617,0.664886,0.254272,-0.660461,-4880,7404,-20754,-8985,-28663
19014,-9.69951,-0.090918,-0.110059,-126.881,88.6597,93.9166,0,2.56348,-0.854492,0.238617,0.664948,0.254333,-0.6604,-5648,7660,-19218,-8985,-28663
19020,-9.89092,-0.172266,-0.119629,-127.249,88.6487,93.5541,0,2.86865,-0.976562,0.238556,0.665009,0.254364,-0.660339,-6672,7660,-17938,-8985,-28663
19026,-9.78086,-0.191406,-0.153125,-127.634,88.6377,93.1696,0.12207,2.99072,-0.915527,0.238464,0.665161,0.254486,-0.660187,-7952,6892,-18194,-8985,-28663
19032,-9.88613,-0.191406,-0.215332,-128.342,88.6157,92.4554,0.366211,2.62451,-0.732422,0.238403,0.665222,0.254547,-0.660095,-7952,6380,-20754,-8985,-28663
19038,-9.81436,-0.186621,-0.220117,-128.628,88.6047,92.1698,0.854492,2.2583,-0.610352,0.238342,0.665283,0.254578,-0.660034,-7440,5868,-23570,-8985,-28663
19044,-9.8335,-0.210547,-0.267969,-128.842,88.5992,91.9501,1.34277,1.58691,-0.305176,0.238281,0.665344,0.254608,-0.659973,-6928,5612,-25618,-8985,-28663
19050,-9.84785,-0.229688,-0.311035,-128.897,88.5992,91.8842,1.09863,0.366211,0,0.23822,0.665405,0.254608,-0.659943,-5904,5100,-25106,-8985,-28663
19056,-9.84785,-0.244043,-0.29668,-128.848,88.6047,91.9336,0.915527,-0.793457,0.549316,0.23819,0.665436,0.254517,-0.659973,-3344,4844,-22546,-8985,-28663
19062,-9.86221,-0.200977,-0.258398,-128.293,88.6267,92.4774,1.46484,-3.05176,1.0376,0.23822,0.665405,0.254456,-0.660034,-2064,4588,-20242,-8985,-28663
19068,-9.83828,-0.196191,-0.244043,-127.798,88.6432,92.9608,2.13623,-3.84521,1.0376,0.238251,0.665344,0.254333,-0.660126,-1552,4844,-19218,-8985,-28663
19074,-9.80479,-0.191406,-0.191406,-127.321,88.6597,93.4277,2.92969,-4.15039,1.64795,0.238251,0.665253,0.254211,-0.660248,-1552,4844,-17682,-8985,-28663
19080,-9.83828,-0.181836,-0.133984,-126.766,88.6761,93.9661,3.60107,-4.21143,1.28174,0.238251,0.665192,0.254028,-0.66037,-1808,4844,-15378,-8985,-28663
19086,-9.71865,-0.143555,-0.090918,-126.26,88.6926,94.444,4.08936,-3.90625,1.40381,0.23819,0.66507,0.253662,-0.660675,-3856,5356,-13074,-8985,-28663
19092,-11.1351,-0.373242,-0.258398,-125.156,88.7201,95.4987,4.82178,-3.84521,0.610352,0.238129,0.665039,0.253448,-0.660797,-4880,5612,-13586,-8985,-28663
19098,-9.2832,-0.13877,0,-124.799,88.7366,95.8392,3.84521,-2.99072,1.46484,0.238037,0.664978,0.253265,-0.66095,-5392,5612,-14354,-8985,-28663
19104,-8.6707,0.162695,0.0334961,-124.497,88.7421,96.1194,4.3335,-1.95312,0.488281,0.238007,0.664948,0.253082,-0.661072,-5648,5356,-15378,-8985,-28663
19110,-11.1063,-0.320605,-0.244043,-124.206,88.7476,96.3995,3.05176,-1.77002,0.244141,0.237915,0.664948,0.25293,-0.661163,-5904,5100,-16402,-8985,-28663
19116,-9.65645,-0.301465,0.062207,-124.08,88.7531,96.5094,3.84521,-1.15967,0.732422,0.237793,0.664948,0.252686,-0.661316,-6160,4332,-16658,-8985,-28663
19122,-10.4938,-0.320605,-0.229688,-124.634,88.764,95.8942,5.5542,0.610352,2.01416,0.23764,0.665039,0.252472,-0.661346,-6928,4076,-16914,-8985,-28663
19128,-9.45547,-0.14834,-0.100488,-124.98,88.7695,95.5206,5.79834,0.488281,2.01416,0.237549,0.665131,0.252289,-0.661377,-7696,3820,-16658,-8985,-28663
19134,-9.50332,-0.0143555,-0.210547,-125.294,88.775,95.1746,6.34766,0.488281,1.77002,0.237427,0.665222,0.252075,-0.661377,-8976,3820,-16402,-8985,-28663
19140,-10.4077,-0.200977,-0.311035,-125.283,88.786,95.1691,4.69971,-0.915527,1.2207,0.237305,0.665344,0.251831,-0.661407,-9744,4332,-16914,-8985,-28663
19146,-9.46025,-0.13877,-0.110059,-125.118,88.7915,95.3119,5.85938,-2.0752,0.549316,0.237122,0.665375,0.251495,-0.66156,-10000,4076,-14610,-8985,-28663
19152,-10.0584,-0.129199,-0.248828,-124.409,88.808,95.9656,5.12695,-2.38037,0.732422,0.237,0.665405,0.251312,-0.661682,-9232,3820,-12818,-8985,-28663
19158,-9.81914,-0.172266,-0.133984,-123.854,88.819,96.5039,4.57764,-3.05176,0.366211,0.236908,0.665375,0.251129,-0.661774,-8976,3308,-11794,-8985,-28663
19164,-9.66602,-0.0669922,-0.133984,-123.239,88.8245,97.0917,4.5166,-2.92969,-0.183105,0.236816,0.665344,0.250946,-0.661926,-8720,3052,-11282,-8985,-28663
19170,-9.85264,-0.100488,-0.13877,-122.558,88.83,97.7563,3.17383,-3.17383,-0.366211,0.236725,0.665314,0.250824,-0.662048,-8720,2796,-10770,-8985,-28663
19176,-9.76172,-0.133984,-0.100488,-121.866,88.8354,98.4375,2.50244,-2.74658,-0.305176,0.236603,0.665192,0.25061,-0.662292,-9488,3820,-11538,-8985,-28663
19182,-9.73301,-0.105273,-0.0382813,-120.822,88.8464,99.4647,1.2207,-2.01416,-0.366211,0.236542,0.665131,0.250519,-0.662384,-10000,4588,-11026,-8985,-28663
19188,-9.88613,-0.162695,-0.00957031,-120.547,88.8519,99.7394,0.183105,-1.34277,-0.12207,0.236542,0.6651,0.250488,-0.662445,-10000,5612,-11026,-8985,-28663
19194,-9.79043,-0.172266,0.0382813,-120.476,88.8519,99.8163,0.244141,-0.549316,0.183105,0.236542,0.665039,0.250488,-0.662476,-10000,6124,-12050,-8985,-28663
19200,-9.80957,-0.181836,0.0143555,-120.597,88.8519,99.6954,0.488281,0.488281,0,0.236572,0.665039,0.250488,-0.662506,-9744,6892,-13074,-8985,-28663
19206,-9.71387,-0.143555,-0.062207,-120.927,88.8464,99.3549,0.793457,1.95312,0.549316,0.236542,0.6651,0.250458,-0.662445,-8976,7148,-14098,-8985,-28663
19212,-9.81436,-0.186621,-0.0813477,-122.009,88.8464,98.2727,0.488281,2.13623,1.0376,0.236511,0.665161,0.250458,-0.662384,-8464,7148,-14866,-8985,-28663
19218,-9.84785,-0.191406,-0.0334961,-122.657,88.8409,97.63,0.427246,2.38037,1.09863,0.236511,0.665253,0.250458,-0.662323,-7952,6892,-14866,-8985,-28663
19224,-9.77129,-0.133984,-0.0861328,-123.409,88.8409,96.8719,0.732422,2.74658,1.40381,0.236542,0.665314,0.250458,-0.662231,-7696,6892,-15378,-8985,-28663
19230,-9.82871,-0.133984,-0.0765625,-124.206,88.8354,96.0754,1.15967,3.23486,1.0376,0.236542,0.665436,0.250427,-0.66214,-7440,6892,-16658,-8994,-28662
19236,-9.7665,-0.124414,-0.0430664,-125.914,88.819,94.3451,2.50244,4.15039,0.732422,0.23645,0.665649,0.250397,-0.661957,-7184,6892,-17170,-8994,-28662
19242,-9.78086,-0.0526367,-0.0957031,-126.788,88.808,93.4662,2.68555,4.45557,0.183105,0.236389,0.665802,0.250366,-0.661835,-7440,7404,-16658,-8994,-28662
19248,-9.8,-0.0717773,-0.0861328,-127.661,88.7915,92.5818,2.19727,4.94385,-0.305176,0.236267,0.665955,0.250336,-0.661743,-7952,7404,-14610,-8994,-28662
19254,-9.79521,-0.0861328,-0.110059,-128.452,88.775,91.7798,2.56348,5.31006,-1.15967,0.236176,0.666107,0.250336,-0.661621,-8464,7404,-12562,-8994,-28662
19260,-9.85264,-0.143555,-0.100488,-129.243,88.7531,90.9778,2.92969,5.43213,-1.09863,0.236023,0.66626,0.250366,-0.661499,-9488,6892,-9490,-8994,-28662
19266,-9.79521,-0.205762,-0.200977,-130.908,88.7091,89.2804,2.80762,5.85938,-0.488281,0.235657,0.666595,0.250366,-0.661285,-10256,6380,-9746,-8994,-28662
19272,-9.86699,-0.172266,-0.229688,-131.808,88.6926,88.374,2.13623,5.61523,-0.0610352,0.235535,0.666779,0.250366,-0.661133,-10768,5868,-9746,-8994,-28662
19278,-9.81436,-0.186621,-0.239258,-132.621,88.6761,87.561,1.28174,4.88281,0.305176,0.235413,0.666962,0.250366,-0.661011,-11280,5612,-10770,-8994,-28662
19284,-9.81914,-0.153125,-0.277539,-133.314,88.6652,86.8634,0.488281,3.96729,0.549316,0.235352,0.667114,0.250397,-0.660889,-11280,5100,-10770,-8994,-28662
19290,-9.79521,-0.13877,-0.277539,-133.901,88.6597,86.2811,-0.610352,3.05176,0.793457,0.235321,0.667236,0.250397,-0.660767,-11280,4588,-8722,-8994,-28662
19296,-9.84785,-0.110059,-0.258398,-134.637,88.6432,85.5615,-1.64795,1.77002,0.183105,0.235352,0.667389,0.250519,-0.660553,-11792,4332,-7698,-8994,-28662
19302,-9.81914,-0.119629,-0.196191,-134.863,88.6377,85.3418,-1.2207,1.64795,-0.183105,0.235382,0.667419,0.25058,-0.660492,-12304,3820,-6930,-8994,-28662
19308,-9.80957,-0.143555,-0.200977,-135.044,88.6322,85.166,-1.2207,1.40381,-0.244141,0.235413,0.66745,0.250641,-0.660431,-13072,3820,-6930,-8994,-28662
19314,-9.81914,-0.153125,-0.191406,-135.143,88.6267,85.0781,-1.64795,1.0376,-0.427246,0.235443,0.66748,0.250702,-0.66037,-13072,3052,-6674,-8994,-28662
19320,-9.8,-0.210547,-0.14834,-135.324,88.6267,84.9078,-1.28174,0.976562,0.183105,0.235474,0.66748,0.250763,-0.660339,-12816,2028,-3858,-8994,-28662
19326,-9.83828,-0.215332,-0.124414,-136.044,88.6212,84.1882,-0.854492,1.83105,1.15967,0.235535,0.667542,0.250824,-0.660217,-12304,1772,-3090,-8994,-28662
19332,-9.80957,-0.153125,-0.114844,-136.593,88.6157,83.6444,-0.915527,2.2583,1.52588,0.235565,0.667572,0.250854,-0.660156,-11536,1772,-2066,-8985,-28663
19338,-9.78564,-0.0861328,-0.110059,-137.17,88.6102,83.0786,-0.915527,2.92969,1.09863,0.235626,0.667664,0.250854,-0.660065,-11280,2284,-1554,-8985,-28663
19344,-9.78564,-0.0574219,-0.0717773,-137.736,88.5992,82.5128,-0.366211,3.78418,0.305176,0.235657,0.667725,0.250885,-0.659943,-10768,2796,-1298,-8985,-28663
19350,-9.80957,-0.0861328,-0.0861328,-138.274,88.5828,81.9745,0,4.5166,-0.427246,0.235626,0.667847,0.250916,-0.659851,-11536,4076,2799,-8985,-28663
19356,-9.78086,-0.090918,-0.200977,-139.224,88.5333,81.0187,0.671387,5.37109,-1.70898,0.235474,0.668091,0.251038,-0.659607,-11792,4588,4591,-8985,-28663
19362,-9.80957,-0.13877,-0.172266,-139.603,88.5059,80.6342,0.671387,5.67627,-2.19727,0.235352,0.668243,0.251099,-0.659454,-12560,5612,5615,-8985,-28663
19368,-9.79043,-0.119629,-0.172266,-140.021,88.4784,80.2167,0.732422,5.92041,-2.0752,0.235199,0.668396,0.251221,-0.659332,-12816,6380,6383,-8985,-28663
19374,-9.82393,-0.129199,-0.191406,-140.4,88.4509,79.8322,0.793457,5.98145,-2.2583,0.235077,0.668518,0.251312,-0.65918,-12304,6124,6639,-8985,-28663
19380,-9.83828,-0.196191,-0.244043,-140.801,88.4235,79.4257,0.488281,5.85938,-1.89209,0.234924,0.668671,0.251404,-0.659058,-11024,5868,5615,-8985,-28663
19386,-9.87656,-0.220117,-0.30625,-141.614,88.374,78.6127,0.0610352,5.12695,-1.15967,0.23468,0.668976,0.251587,-0.658783,-10512,5356,5615,-8985,-28663
19392,-9.82871,-0.181836,-0.29668,-141.949,88.3575,78.2721,0.0610352,4.27246,-0.854492,0.234589,0.669098,0.251678,-0.65863,-10768,5356,6383,-8985,-28663
19398,-9.83828,-0.172266,-0.325391,-142.273,88.3411,77.9535,0,3.54004,-0.366211,0.234528,0.66922,0.25174,-0.658539,-11280,5612,6895,-8985,-28663
19404,-9.84785,-0.205762,-0.358887,-142.471,88.3301,77.7557,-0.305176,2.62451,-0.549316,0.234467,0.669312,0.25177,-0.658447,-11792,5868,7919,-8985,-28663
19410,-9.81436,-0.162695,-0.330176,-142.635,88.3191,77.5964,-0.610352,1.95312,-0.305176,0.234436,0.669373,0.251831,-0.658356,-13328,7148,9711,-8985,-28663
19416,-9.79521,-0.119629,-0.291895,-142.888,88.3136,77.3438,-0.610352,0.976562,0,0.234436,0.669464,0.251892,-0.658264,-13840,7660,10479,-8985,-28663
19422,-9.82871,-0.114844,-0.29668,-142.894,88.3081,77.3438,-0.732422,0.793457,-0.610352,0.234436,0.669464,0.251923,-0.658234,-14352,8172,11247,-8985,-28663
19428,-9.79043,-0.129199,-0.248828,-142.894,88.3026,77.3492,-1.28174,1.09863,-0.915527,0.234436,0.669495,0.251953,-0.658203,-14864,8940,10991,-8985,-28663
19434,-9.84307,-0.186621,-0.248828,-142.927,88.2971,77.3218,-1.40381,1.09863,-0.671387,0.234436,0.669495,0.252014,-0.658173,-14608,9196,10991,-8985,-28663
19440,-9.8335,-0.205762,-0.210547,-143.053,88.2916,77.2009,-1.40381,1.28174,-0.12207,0.234436,0.669495,0.252075,-0.658142,-13584,9964,11759,-8985,-28663
19446,-9.81914,-0.200977,-0.334961,-143.339,88.2806,76.9263,-1.0376,0.976562,0.244141,0.234497,0.669556,0.252197,-0.65802,-13072,10732,12015,-8985,-28663
19452,-9.81436,-0.162695,-0.349316,-143.399,88.2806,76.8713,-1.09863,0.244141,0.183105,0.234497,0.669586,0.252197,-0.65799,-12304,11244,12271,-8985,-28663
19458,-9.83828,-0.153125,-0.382812,-143.388,88.2861,76.8878,-0.854492,-0.793457,0.427246,0.234558,0.669586,0.252228,-0.657959,-12048,11500,11247,-8985,-28663
19464,-9.83828,-0.172266,-0.411523,-143.234,88.2971,77.0416,-0.549316,-1.89209,0.183105,0.234589,0.669556,0.252228,-0.65799,-12304,11244,9711,-8994,-28662
19470,-9.82871,-0.16748,-0.397168,-142.987,88.3081,77.2943,-0.305176,-3.05176,0.305176,0.234619,0.669495,0.252228,-0.65802,-13328,11244,7407,-8994,-28662
19476,-9.80957,-0.191406,-0.31582,-142.185,88.3466,78.0908,-0.427246,-4.88281,0.488281,0.234741,0.669312,0.252136,-0.658203,-13584,11244,6383,-8994,-28662
19482,-9.82871,-0.14834,-0.277539,-141.718,88.3685,78.5632,-0.366211,-5.31006,0.549316,0.234802,0.669159,0.252106,-0.658356,-13328,11244,5871,-8994,-28662
19488,-9.81436,-0.143555,-0.224902,-141.229,88.385,79.0576,-0.488281,-5.12695,0.366211,0.234894,0.669037,0.252045,-0.658478,-12816,10988,4335,-8994,-28662
19494,-9.82871,-0.105273,-0.162695,-140.718,88.407,79.5685,-0.305176,-5.00488,0.183105,0.234955,0.668884,0.251984,-0.65863,-13072,10476,3055,-8994,-28662
19500,-9.8,-0.124414,-0.162695,-140.219,88.4235,80.0684,-0.549316,-4.27246,-0.244141,0.235046,0.668732,0.251923,-0.658752,-14352,9964,495,-8994,-28662
19506,-9.8,-0.162695,-0.110059,-139.537,88.4399,80.7605,-0.854492,-2.31934,-0.0610352,0.235138,0.668518,0.251892,-0.658966,-15120,10220,-1042,-8994,-28662
19512,-9.81914,-0.186621,-0.114844,-139.351,88.4454,80.9473,-0.976562,-1.52588,-0.183105,0.235168,0.668427,0.251923,-0.659027,-15632,10476,-1042,-8994,-28662
19518,-9.81914,-0.14834,-0.110059,-139.312,88.4509,80.9967,-1.2207,-0.610352,0.0610352,0.235229,0.668396,0.251923,-0.659058,-15376,10732,-1298,-8994,-28662
19524,-9.79521,-0.143555,-0.14834,-139.323,88.4454,80.9912,-0.976562,0.0610352,-0.12207,0.23526,0.668365,0.251953,-0.659058,-14608,10988,239,-8994,-28662
19530,-9.81436,-0.181836,-0.191406,-139.417,88.4454,80.9033,-1.09863,0.671387,-0.0610352,0.235291,0.668365,0.251984,-0.659027,-13328,11500,751,-8994,-28662
19536,-9.81914,-0.181836,-0.229688,-139.702,88.4399,80.6232,-0.976562,0.915527,0.244141,0.235352,0.668396,0.252075,-0.658966,-13840,11244,495,-8994,-28662
19542,-9.81436,-0.16748,-0.258398,-139.812,88.4344,80.5243,-0.793457,0.610352,0.12207,0.235352,0.668396,0.252106,-0.658905,-13840,11244,-18,-8994,-28662
19548,-9.81914,-0.205762,-0.267969,-139.922,88.4344,80.4144,-0.854492,0.305176,0.427246,0.235382,0.668427,0.252136,-0.658875,-14096,10476,495,-8994,-28662
19554,-9.81436,-0.191406,-0.258398,-140.026,88.4399,80.3156,-1.0376,-0.0610352,0.671387,0.235413,0.668427,0.252136,-0.658875,-13584,10476,1263,-8994,-28662
19560,-9.81914,-0.124414,-0.282324,-140.087,88.4399,80.2606,-0.976562,-0.549316,0.732422,0.235535,0.668396,0.252136,-0.658844,-12816,12012,4591,-8994,-28662
19566,-9.79043,-0.0957031,-0.263184,-139.938,88.4564,80.4199,-1.15967,-1.52588,0.427246,0.235565,0.668365,0.252167,-0.658844,-12560,13036,6127,-8994,-28662
19572,-9.81436,-0.110059,-0.258398,-139.779,88.4564,80.5847,-1.15967,-1.34277,-0.183105,0.235626,0.668335,0.252167,-0.658875,-12816,14316,6895,-8994,-28662
19578,-9.77129,-0.124414,-0.205762,-139.515,88.4619,80.8539,-0.976562,-1.40381,-0.854492,0.235657,0.668274,0.252197,-0.658905,-13584,14828,7151,-8994,-28662
19584,-9.80957,-0.162695,-0.210547,-139.285,88.4619,81.0846,-0.793457,-1.0376,-0.915527,0.235687,0.668213,0.252228,-0.658936,-14096,14828,6895,-8985,-28663
19590,-9.82393,-0.14834,-0.181836,-139.131,88.4619,81.2439,-1.28174,-0.793457,-0.610352,0.235718,0.668152,0.252289,-0.658966,-14608,12268,5103,-8985,-28663
19596,-9.83828,-0.15791,-0.162695,-138.862,88.4619,81.5295,-1.58691,-0.183105,-0.915527,0.235748,0.668121,0.25235,-0.658966,-14352,11500,4591,-8985,-28663
19602,-9.80957,-0.200977,-0.133984,-138.851,88.4564,81.5515,-1.64795,0.305176,-0.549316,0.235779,0.668091,0.252411,-0.658966,-14352,11244,3311,-8985,-28663
19608,-9.81914,-0.186621,-0.15791,-138.867,88.4509,81.5405,-1.46484,0.671387,-0.610352,0.235809,0.66806,0.252502,-0.658936,-14352,10988,2543,-8985,-28663
19614,-9.87656,-0.181836,-0.191406,-138.983,88.4509,81.4362,-1.77002,0.732422,0,0.235809,0.66806,0.252563,-0.658905,-14352,10732,2287,-8985,-28663
19620,-9.81436,-0.181836,-0.229688,-139.175,88.4454,81.2439,-1.52588,1.0376,0.366211,0.235901,0.668091,0.252655,-0.658813,-13072,9452,-1810,-8985,-28663
19626,-9.81914,-0.143555,-0.272754,-139.34,88.4454,81.0956,-1.46484,0.183105,0,0.235962,0.668091,0.252716,-0.658783,-12560,8940,-3602,-8985,-28663
19632,-9.8,-0.153125,-0.267969,-139.34,88.4454,81.1011,-1.09863,-0.183105,0,0.235992,0.668091,0.252747,-0.658752,-12304,8172,-4370,-8985,-28663
19638,-9.80479,-0.15791,-0.277539,-139.263,88.4454,81.189,-1.15967,-0.854492,0,0.236023,0.668091,0.252777,-0.658752,-11792,7404,-4114,-8985,-28663
19644,-9.80479,-0.153125,-0.272754,-139.098,88.4509,81.3538,-1.15967,-1.46484,-0.0610352,0.236053,0.66806,0.252808,-0.658752,-11792,6892,-2322,-8985,-28663
19650,-9.81436,-0.186621,-0.224902,-138.922,88.4564,81.535,-0.732422,-1.64795,0,0.236145,0.667938,0.252808,-0.658813,-11792,6124,239,-8985,-28663
19656,-9.81914,-0.143555,-0.13877,-138.658,88.4674,81.8042,-0.0610352,-0.976562,-0.12207,0.236176,0.667908,0.252808,-0.658844,-12048,6124,-18,-8985,-28663
19662,-9.81914,-0.153125,-0.110059,-138.62,88.4619,81.8372,0,0,-0.366211,0.236176,0.667877,0.252808,-0.658875,-12304,5612,-1554,-8985,-28663
19668,-9.78564,-0.15791,-0.090918,-138.647,88.4564,81.8097,0,0.915527,-0.671387,0.236145,0.667877,0.252808,-0.658875,-12560,5612,-2578,-8985,-28663
19674,-9.8,-0.16748,-0.119629,-138.862,88.4509,81.601,0,1.70898,-0.0610352,0.236145,0.667908,0.252838,-0.658875,-12816,5868,-3858,-8985,-28663
19680,-9.8,-0.14834,-0.153125,-139.153,88.4399,81.3043,-0.244141,2.44141,-0.0610352,0.236084,0.66803,0.252899,-0.658752,-11536,6380,-4114,-8985,-28663
19686,-9.82393,-0.172266,-0.210547,-139.944,88.4235,80.5188,-0.732422,3.11279,0.549316,0.236084,0.668091,0.25293,-0.658661,-11024,6892,-3090,-8994,-28662
19692,-9.83828,-0.172266,-0.191406,-140.438,88.4125,80.0299,-0.854492,3.17383,0.854492,0.236084,0.668182,0.25296,-0.658539,-11024,7404,-1810,-8994,-28662
19698,-9.81914,-0.153125,-0.220117,-140.9,88.4015,79.574,-0.976562,3.11279,0.732422,0.236084,0.668274,0.252991,-0.658447,-12048,7660,-1042,-8994,-28662
19704,-9.81914,-0.114844,-0.220117,-141.383,88.3905,79.0961,-0.976562,3.23486,0.793457,0.236115,0.668365,0.253021,-0.658325,-12816,8172,-274,-8994,-28662
19710,-9.81914,-0.13877,-0.239258,-141.79,88.385,78.6951,-1.09863,2.99072,0.488281,0.236115,0.668457,0.253052,-0.658234,-15888,9196,-1810,-8994,-28662
19716,-9.80479,-0.162695,-0.234473,-142.586,88.363,77.9041,-0.976562,3.11279,0.366211,0.236145,0.66861,0.253143,-0.65802,-16400,9708,-3346,-8994,-28662
19722,-9.8,-0.181836,-0.234473,-142.998,88.3521,77.4976,-0.793457,3.23486,0.488281,0.236145,0.668701,0.253204,-0.657898,-16656,9964,-4882,-8994,-28662
19728,-9.82871,-0.16748,-0.277539,-143.399,88.3411,77.1021,-0.671387,3.23486,0.427246,0.236145,0.668793,0.253235,-0.657806,-16144,9964,-5650,-8994,-28662
19734,-9.81436,-0.143555,-0.258398,-143.74,88.3301,76.756,-0.427246,2.86865,0.366211,0.236145,0.668884,0.253265,-0.657684,-15888,10220,-5138,-8994,-28662
19740,-9.8335,-0.181836,-0.272754,-144.091,88.3191,76.4099,-0.366211,3.05176,0.305176,0.236145,0.669037,0.253326,-0.657501,-15376,10220,-4882,-8994,-28662
19746,-9.80479,-0.16748,-0.258398,-144.679,88.2971,75.8331,-0.671387,2.86865,0.244141,0.236115,0.669128,0.253387,-0.65744,-15376,9708,-4370,-8994,-28662
19752,-9.8335,-0.210547,-0.263184,-145.058,88.2916,75.4486,-0.488281,2.74658,0.854492,0.236115,0.669189,0.253418,-0.657349,-15376,8684,-3346,-8994,-28662
19758,-9.84307,-0.277539,-0.287109,-145.388,88.2806,75.1245,-0.549316,2.38037,0.732422,0.236115,0.669281,0.253448,-0.657257,-15888,8172,-2578,-8994,-28662
19764,-10.0536,-0.401953,-0.200977,-146.19,88.2806,74.339,-3.2959,2.68555,3.96729,0.236145,0.669342,0.253448,-0.657166,-16144,7404,-1554,-8994,-28662
19770,-9.79043,-0.0334961,-0.435449,-147.101,88.2806,73.4381,-1.70898,2.99072,4.63867,0.23645,0.669556,0.253387,-0.65686,-16400,6636,239,-8994,-28662
19776,-9.69473,-0.0191406,-0.378027,-148.76,88.2916,71.7902,-1.34277,1.34277,4.5166,0.236633,0.669647,0.253326,-0.656738,-16656,6636,1007,-8994,-28662
19782,-9.77607,0.0382813,-0.311035,-149.266,88.2971,71.2848,-0.915527,0.366211,3.2959,0.236755,0.669739,0.253235,-0.656647,-16912,6636,1519,-8994,-28662
19788,-9.71865,0.0430664,-0.244043,-149.606,88.3026,70.9497,-1.46484,0.427246,2.0752,0.236877,0.669769,0.253174,-0.656586,-16656,6892,1775,-8994,-28662
19794,-9.77129,0.0334961,-0.0430664,-149.875,88.2971,70.697,-3.05176,2.01416,0.549316,0.236969,0.6698,0.253143,-0.656525,-16144,6380,2031,-8994,-28662
19800,-9.78564,-0.062207,0.0239258,-150.32,88.2751,70.274,-4.69971,4.88281,0.12207,0.237122,0.669922,0.253387,-0.65625,-16400,6380,2031,-8985,-28663
19806,-9.73301,-0.0191406,0,-151.754,88.1927,68.9062,-7.87354,10.6812,-0.427246,0.237213,0.670074,0.253632,-0.655945,-17424,6124,1007,-8985,-28663
19812,-9.78564,-0.124414,0,-152.666,88.1378,68.0328,-7.8125,13.5498,-0.732422,0.237305,0.670288,0.253998,-0.655579,-18960,6636,-530,-8985,-28663
19818,-9.84785,-0.186621,-0.114844,-153.743,88.0664,66.9891,-8.23975,15.7471,-0.12207,0.237366,0.670593,0.254364,-0.655121,-20240,6636,-1554,-8994,-28662
19824,-9.81914,-0.215332,-0.14834,-154.825,87.995,65.9454,-6.65283,16.7847,0.0610352,0.237427,0.670929,0.25473,-0.654572,-21008,6636,-1042,-8994,-28662
19830,-9.82393,-0.220117,-0.44502,-155.869,87.9181,64.9127,-2.74658,15.7471,1.15967,0.237366,0.671783,0.255341,-0.653503,-22032,6380,239,-8994,-28662
19836,-9.81914,-0.090918,-0.579004,-157.769,87.7917,63.0396,-2.44141,14.2212,1.58691,0.237305,0.672211,0.255554,-0.653015,-22288,6124,1775,-8994,-28662
19842,-9.79521,-0.105273,-0.512012,-158.538,87.7368,62.276,-2.74658,12.7563,1.40381,0.237244,0.672577,0.255707,-0.652557,-23056,5868,3311,-8994,-28662
19848,-9.83828,-0.162695,-0.382812,-159.192,87.6874,61.6278,-0.915527,11.2915,1.34277,0.237213,0.672943,0.255829,-0.652161,-23568,5356,4847,-8994,-28662
19854,-9.82871,-0.119629,-0.459375,-159.692,87.6434,61.1169,0.366211,10.6201,0.549316,0.237152,0.673248,0.25592,-0.651825,-24336,4844,5615,-8994,-28662
19860,-9.83828,-0.105273,-0.512012,-160.076,87.5995,60.7269,1.28174,9.21631,-0.305176,0.236877,0.673828,0.256042,-0.651276,-25360,4844,7407,-8994,-28662
19866,19.5952,19.5474,19.2411,-147.859,88.1323,72.4823,92.6514,-138.855,-35.5225,0.236725,0.674103,0.256073,-0.651031,-25360,4332,8175,-8994,-28662
19872,-39.1952,39.1474,38.8459,16.2872,88.6542,-122.684,-134.521,-567.017,264.648,0.23468,0.670654,0.252899,-0.656586,-25616,4332,10223,-8994,-28662
19878,-24.3708,38.7502,75.0504,46.582,86.9733,-92.3071,-12.2681,-141.113,352.661,0.252686,0.655548,0.242767,-0.668854,-25872,4844,11247,-8994,-28662
19884,-19.6622,1.25371,4.17744,62.3749,86.402,-76.4923,1.89209,97.7783,187.622,0.26532,0.654602,0.230957,-0.669067,-26640,4076,8687,-8994,-28662
19890,17.7625,28.9406,-2.22988,69.6643,85.9955,-69.4611,33.6304,77.6978,-175.232,0.271393,0.662201,0.222015,-0.66214,32240,-1557,-6418,-8994,-28662
19896,-1.40205,9.31191,3.78984,63.0066,88.385,-76.5253,47.2412,84.1675,-330.322,0.26532,0.662842,0.226257,-0.662506,25840,-7957,-16402,-8994,-28662
19902,-11.9198,-6.35469,6.5748,-38.4137,89.7638,-178.303,69.3359,126.465,-336.426,0.254333,0.662201,0.234619,-0.664551,19184,-14357,-25106,-8994,-28662
19908,-18.1645,-19.1406,2.92852,-119.301,88.7201,100.421,78.125,179.932,-210.571,0.242035,0.662811,0.24292,-0.665558,13808,-19733,-31506,-8994,-28662
19914,-6.74707,-16.2982,-1.14844,-143.3,87.9126,76.1682,50.5981,228.21,-39.4897,0.232422,0.66626,0.247986,-0.663666,11504,-22549,30702,-8994,-28662
19920,-14.0396,-2.90459,-7.80459,-161.439,87.4457,57.9694,-23.6206,97.29,114.746,0.228607,0.677856,0.248138,-0.653107,16368,-19733,31214,-8985,-28663
19926,-5.95273,6.41211,-5.2876,174.309,86.9952,34.0411,-41.8701,45.166,83.6182,0.232025,0.681274,0.245972,-0.649139,20720,-16149,-29202,-8985,-28663
19932,-6.95762,7.60361,-3.19648,170.975,86.9843,30.8057,-19.5923,10.3149,22.644,0.235657,0.682739,0.24472,-0.64679,23024,-13077,-22290,-8985,-28663
19938,-12.8194,3.46924,-3.86162,172.084,87.149,31.8494,14.2212,-20.0195,-26.6113,0.237244,0.6828,0.244263,-0.646301,24304,-11029,-15378,-8985,-28663
19944,-10.0919,-1.03359,-2.27295,173.93,87.4182,33.6401,11.9019,-40.6494,-33.8135,0.236755,0.681885,0.244019,-0.647552,24048,-9749,-8466,-8985,-28663
19950,-10.4221,-2.12939,0.492871,173.875,87.6984,33.5742,-4.27246,-39.917,8.05664,0.236664,0.678711,0.243408,-0.651123,22512,-9237,5359,-8985,-28663
19956,-9.26885,0.449805,1.26807,166.838,88.0884,26.5814,-4.39453,-27.0386,12.6343,0.237823,0.677429,0.242554,-0.652374,22768,-8725,10991,-8985,-28663
19962,-10.8192,1.1293,1.23457,164.377,88.1763,24.126,-0.366211,-12.0239,3.23486,0.238922,0.676575,0.241699,-0.653168,23536,-8213,15855,-8985,-28663
19968,-8.59893,1.08623,1.2585,164.097,88.2037,23.8293,2.86865,2.44141,-7.56836,0.239502,0.676086,0.24118,-0.653656,24304,-7957,19695,-8985,-28663
19974,-10.3455,-0.267969,0.387598,164.872,88.1873,24.5984,1.70898,13.3667,-10.9253,0.239502,0.675934,0.241028,-0.65387,24560,-7701,23023,-8985,-28663
19980,-9.49854,-0.626855,-0.976172,164.921,88.1323,24.6423,0.732422,17.5781,4.27246,0.239227,0.676392,0.24115,-0.653442,24304,-7189,28911,-8985,-28663
19986,-10.0058,0.0287109,-1.33984,162.35,88.028,22.066,0.671387,12.085,6.10352,0.23941,0.676788,0.240906,-0.653046,24048,-6933,30959,-8985,-28663
19992,-9.73301,0.29668,-1.52168,161.016,88.028,20.7202,2.0752,3.72314,3.2959,0.239685,0.677063,0.240601,-0.652802,24048,-6421,-32273,-8985,-28663
19998,-9.76172,0.200977,-1.38291,159.78,88.0609,19.4788,1.28174,-3.66211,0.305176,0.239899,0.677094,0.240265,-0.652802,24048,-5909,-30737,-8985,-28663
20004,-9.86221,0.00957031,-0.980957,158.434,88.1268,18.1274,0.976562,-9.27734,-0.976562,0.240112,0.67691,0.23996,-0.653046,24816,-4117,-25873,-8985,-28663
20010,-9.94834,-0.0334961,-0.224902,155.522,88.2587,15.1996,0.610352,-10.1929,-1.40381,0.240601,0.676117,0.239349,-0.6539,25840,-4373,-23057,-8985,-28663
20016,-9.59424,-0.162695,0.0239258,154.232,88.2971,13.9087,0.244141,-6.40869,-0.671387,0.240814,0.67572,0.239075,-0.654327,26864,-5141,-20753,-8985,-28663
20022,-10.1637,-0.349316,-0.0143555,152.968,88.3191,12.6398,0,-2.31934,1.2207,0.240997,0.675476,0.238831,-0.654602,27632,-5653,-19729,-8985,-28663
20028,-9.48897,-0.0239258,-0.062207,151.902,88.3136,11.5796,-0.427246,1.95312,2.31934,0.241211,0.675323,0.238617,-0.654755,28400,-6165,-18961,-8985,-28663
20034,-10.0584,0.0526367,-0.339746,151.271,88.2971,10.9479,-0.610352,4.88281,1.40381,0.241394,0.675323,0.238403,-0.654755,29936,-6165,-21009,-8985,-28663
20040,-9.76172,-0.0287109,-0.76084,151.024,88.2751,10.6952,0.305176,4.69971,-2.2583,0.241577,0.675476,0.23822,-0.654602,29936,-6165,-21265,-8985,-28663
20046,-10.0393,-0.200977,-0.90918,150.716,88.2751,10.3821,0.427246,2.2583,-1.09863,0.241547,0.675537,0.23819,-0.654572,30192,-6677,-20497,-8985,-28663
20052,-9.93877,-0.181836,-0.92832,150.057,88.2861,9.71741,0,-1.0376,-0.183105,0.241577,0.675537,0.238098,-0.654572,30192,-6677,-19729,-8985,-28663
20058,-9.87656,0.0143555,-0.832617,149.156,88.3081,8.81104,-0.305176,-3.90625,0,0.241669,0.675446,0.237976,-0.654663,29168,-6933,-18961,-8985,-28663
20064,-9.66123,0.090918,-0.650781,148.304,88.3411,7.95959,-0.366211,-5.43213,-1.15967,0.241821,0.675293,0.237823,-0.654846,27632,-6165,-19217,-8985,-28663
20070,-9.78564,-0.220117,-0.368457,146.656,88.396,6.31165,-0.671387,-4.5166,-0.427246,0.242004,0.674866,0.23761,-0.655304,27120,-6165,-19729,-8985,-28663
20076,-9.84785,-0.196191,-0.344531,145.789,88.4125,5.44373,-1.15967,-3.23486,0.610352,0.242126,0.674683,0.237488,-0.655487,26864,-5909,-20241,-8985,-28663
20082,-9.66602,0.062207,-0.344531,145.085,88.418,4.74609,-1.40381,-1.77002,0.610352,0.242249,0.674561,0.237396,-0.655609,26608,-5141,-19729,-8985,-28663
20088,-10.0201,0.0957031,-0.430664,144.662,88.4235,4.32861,-1.28174,-0.854492,-0.488281,0.242371,0.6745,0.237305,-0.65567,27376,-4885,-18705,-8985,-28663
20094,-9.72344,0.0717773,-0.430664,144.448,88.4344,4.11438,-0.732422,-0.610352,-1.52588,0.242432,0.674408,0.237244,-0.655731,28144,-4117,-15633,-8985,-28663
20100,-9.74736,-0.0382813,-0.535937,144.278,88.4564,3.9386,-0.244141,-0.915527,-2.19727,0.242462,0.674286,0.237244,-0.655853,28656,-4629,-14097,-8985,-28663
20106,-9.8,-0.090918,-0.555078,144.245,88.4674,3.90564,-0.366211,-1.15967,-2.56348,0.242432,0.674225,0.237213,-0.655945,29168,-4629,-13073,-8985,-28663
20112,-9.91484,-0.282324,-0.535937,144.091,88.4839,3.74634,0,-1.64795,-1.89209,0.242401,0.674164,0.237213,-0.656036,28656,-4885,-12817,-8985,-28663
20118,-9.83828,-0.311035,-0.526367,143.646,88.4894,3.29041,-0.12207,-1.89209,0.0610352,0.242371,0.674072,0.237183,-0.656128,27888,-5141,-13585,-8985,-28663
20124,-9.79043,-0.181836,-0.559863,142.883,88.4949,2.52686,-0.488281,-2.44141,1.83105,0.242401,0.674011,0.237122,-0.656189,27376,-5909,-15633,-8985,-28663
20130,-9.73779,0.110059,-0.607715,141.559,88.5168,1.19202,0.488281,-3.78418,0.0610352,0.242584,0.673889,0.236877,-0.656342,27888,-6165,-14609,-8985,-28663
20136,-9.93398,-0.0191406,-0.550293,141.108,88.5388,0.736084,0.244141,-4.08936,-1.2207,0.242584,0.673798,0.236755,-0.656494,29424,-6421,-13841,-8985,-28663
20142,-9.66123,-0.0430664,-0.449805,140.625,88.5608,0.247192,0.427246,-4.63867,-1.40381,0.242584,0.673676,0.236694,-0.656647,30448,-6165,-12817,-8985,-28663
20148,-9.90527,-0.0813477,-0.45459,140.125,88.5828,-0.252686,-0.305176,-4.57764,-1.2207,0.242584,0.673523,0.236633,-0.656799,30448,-5141,-11537,-8985,-28663
20154,-9.8,-0.114844,-0.354102,139.614,88.5992,-0.76355,-0.488281,-4.02832,-0.671387,0.242584,0.673401,0.236572,-0.656982,30704,-3605,-10257,-8985,-28663
20160,-9.9627,-0.181836,-0.387598,138.642,88.6157,-1.74133,-0.427246,-2.44141,0.793457,0.242615,0.673187,0.236481,-0.657196,30448,-3349,-10257,-8985,-28663
20166,-9.81436,-0.0957031,-0.401953,138.082,88.6157,-2.30713,-0.366211,-1.89209,1.70898,0.242676,0.673126,0.236389,-0.657288,30960,-3349,-11025,-8985,-28663
20172,-9.78564,0.0430664,-0.411523,137.642,88.6157,-2.74658,-0.671387,-1.58691,1.28174,0.242706,0.673096,0.236298,-0.657318,30960,-3093,-12305,-8985,-28663
20178,-9.79521,0.0957031,-0.406738,137.455,88.6212,-2.93884,-0.427246,-1.0376,0.183105,0.242767,0.673065,0.236237,-0.657349,30960,-3349,-13073,-8985,-28663
20184,-9.75693,0.0574219,-0.421094,137.604,88.6267,-2.79053,-0.366211,-0.244141,-1.2207,0.242767,0.673065,0.236206,-0.657379,30960,-3093,-14609,-8985,-28663
20190,-9.82393,-0.0669922,-0.411523,138.439,88.6267,-1.95557,-1.28174,1.40381,-1.83105,0.242676,0.673035,0.236267,-0.65741,30704,-2837,-15633,-8985,-28663
20196,-9.77129,-0.0765625,-0.449805,139.037,88.6267,-1.35132,-1.77002,1.89209,-2.01416,0.242615,0.673065,0.236359,-0.657379,30192,-2581,-17937,-8985,-28663
20202,-9.78564,-0.162695,-0.47373,139.636,88.6212,-0.752563,-1.89209,2.31934,-1.58691,0.242554,0.673096,0.23645,-0.657318,29680,-2069,-19729,-8985,-28663
20208,-9.89092,-0.253613,-0.540723,139.955,88.6157,-0.428467,-1.46484,1.64795,-0.305176,0.242523,0.673157,0.236572,-0.657257,29424,-1557,-21521,-8985,-28663
20214,-9.84785,-0.196191,-0.607715,139.988,88.6102,-0.390015,-1.34277,0.793457,0.854492,0.242493,0.673187,0.236603,-0.657196,28656,748,-24081,-8985,-28663
20220,-9.80957,0.0287109,-0.6125,139.554,88.6102,-0.823975,-0.610352,-2.0752,0.427246,0.242584,0.673218,0.236603,-0.657135,28400,1516,-23569,-8985,-28663
20226,-9.72344,0.0334961,-0.564648,139.384,88.6267,-0.999756,-0.244141,-3.11279,-0.915527,0.242584,0.673187,0.236572,-0.657196,28400,2284,-24081,-8985,-28663
20232,6.50781,-0.320605,-2.91416,136.445,88.6981,-3.94409,0.793457,-20.9351,0.915527,0.242554,0.673096,0.236542,-0.657288,28400,2028,-23825,-8985,-28663
20238,-102.402,-62.2884,-72.9545,63.9569,87.2974,-76.6406,31.6162,-437.683,314.575,0.242737,0.672546,0.236267,-0.657867,28656,1772,-23313,-8985,-28663
20244,-31.1131,43.0042,131.161,61.4136,85.7318,-78.6072,-112.915,-159.912,271.057,0.254822,0.663666,0.22171,-0.667328,26864,1260,-27665,-8985,-28663
20250,10.0967,28.5052,-8.80469,97.5311,84.7815,-42.5116,17.1509,245.239,100.525,0.269714,0.670807,0.213257,-0.657013,23024,-1301,32495,-8985,-28663
20256,28.9263,30.2996,-0.827832,113.291,85.2924,-26.933,49.8657,239.197,-172.302,0.269867,0.678711,0.212738,-0.648956,17392,-6933,26351,-8985,-28663
20262,-3.61279,13.8147,-10.958,137.664,86.3196,-2.84546,68.5425,174.194,-372.009,0.261414,0.684204,0.219116,-0.644501,10480,-14101,21743,-8985,-28663
20268,-17.0112,-12.1543,-12.8099,167.827,86.814,27.0099,70.2515,81.665,-362,0.247406,0.686096,0.230011,-0.644226,3568,-21269,21231,-8985,-28663
20274,-16.6858,-23.5908,-6.31641,-175.303,86.8524,43.5059,79.4678,7.75146,-182.861,0.234436,0.685364,0.239532,-0.646393,-5649,-28693,28399,-8994,-28662
20280,-3.24912,-6.78535,-0.564648,174.655,87.1326,33.2611,-6.5918,-44.9219,102.051,0.22583,0.684631,0.241119,-0.649628,-6161,-26901,-29969,-8994,-28662
20286,-19.0162,-2.35908,-5.32588,159.983,87.4841,18.7756,-40.7715,-96.0083,119.934,0.22937,0.684265,0.237885,-0.649963,-3857,-23061,-22545,-8994,-28662
20292,-9.86699,5.16797,-0.507227,143.921,87.7368,2.95532,-50.2319,-105.164,94.6655,0.234955,0.682281,0.234619,-0.651276,-529,-18453,-15377,-8994,-28662
20298,-0.832617,8.46016,3.63672,133.044,87.9565,-7.74536,-35.5835,-84.5337,32.3486,0.240143,0.679657,0.232208,-0.652954,2800,-14613,-10769,-8994,-28662
20304,-12.7094,4.22051,3.42617,128.326,88.2202,-12.4805,3.05176,-57.0068,-19.3481,0.242889,0.675323,0.231262,-0.656769,6896,-10773,-5905,-8994,-28662
20310,-8.10127,-2.01934,3.69414,134.506,88.5663,-6.38855,5.18799,10.3149,-32.0435,0.241577,0.674255,0.231781,-0.658173,8432,-10517,-5649,-8994,-28662
20316,-10.5656,-3.03857,2.53135,140.845,88.4564,-0.0549316,1.2207,40.8325,-8.97217,0.240417,0.674194,0.232697,-0.658325,9456,-10005,-5905,-8994,-28662
20322,-8.93389,-0.933105,0.823047,145.668,88.2202,4.77356,-0.305176,57.7393,6.95801,0.239746,0.675201,0.233368,-0.657318,10736,-10005,-5905,-8994,-28662
20328,-10.8192,0.540723,-1.28721,149.617,87.962,8.73413,-0.915527,60.9131,6.53076,0.23938,0.676819,0.233795,-0.65564,12528,-9493,-5393,-8994,-28662
20334,-10.1637,0.732129,-2.3543,152.787,87.7643,11.8927,2.80762,49.0112,-0.549316,0.238434,0.67984,0.234741,-0.652496,15088,-8469,-3345,-8994,-28662
20340,-10.6709,-0.904395,-3.39746,155.923,87.6105,15.0073,1.64795,10.9863,-1.83105,0.237854,0.680634,0.235168,-0.651733,15856,-7957,-2577,-8994,-28662
20346,-9.42676,-0.540723,-2.73711,154.979,87.6489,14.068,-1.09863,-9.8877,4.45557,0.23764,0.680878,0.235291,-0.651489,16112,-7189,-1041,-8994,-28662
20352,-9.35498,0.0287109,-1.98105,153.083,87.7478,12.1783,-1.89209,-23.2544,6.10352,0.237885,0.680603,0.235107,-0.651794,16368,-6421,1264,-8994,-28662
20358,-10.6135,0.114844,-1.41641,150.601,87.8851,9.69543,-0.732422,-32.959,4.45557,0.238312,0.679962,0.234741,-0.652435,17648,-6165,2800,-8994,-28662
20364,-9.36934,0.397168,-0.483301,147.997,88.0444,7.09167,-0.854492,-35.6445,0.976562,0.239136,0.678009,0.233917,-0.654449,19696,-6933,4336,-8994,-28662
20370,-9.78564,0.0813477,0.641211,144.179,88.2861,3.26843,0.366211,-22.522,-3.60107,0.23938,0.677063,0.233673,-0.655396,19952,-7189,4848,-8994,-28662
20376,-9.83828,-0.196191,0.732129,143.591,88.3521,2.67517,0.488281,-12.146,-4.15039,0.239471,0.676392,0.233551,-0.656128,19952,-7445,4592,-8994,-28662
20382,-9.82871,-0.502441,0.545508,143.448,88.3685,2.52686,0,-2.0752,-0.0610352,0.23941,0.675995,0.233521,-0.656555,20208,-7957,5616,-8994,-28662
20388,-9.91006,-0.387598,0.224902,143.663,88.3356,2.74109,-0.305176,6.10352,3.41797,0.23941,0.675903,0.233521,-0.656647,20208,-8469,6896,-8994,-28662
20394,-9.64688,0.181836,-0.253613,144.185,88.2916,3.26294,0.12207,9.82666,3.78418,0.23938,0.676392,0.23349,-0.656158,20976,-8213,8944,-8994,-28662
20400,-9.91484,0.224902,-0.937891,146.503,88.2312,5.56458,1.15967,7.93457,-3.78418,0.239258,0.676666,0.233582,-0.655884,20720,-7445,8176,-8994,-28662
20406,-9.40762,0,-0.990527,147.563,88.2312,6.61377,1.58691,4.27246,-4.45557,0.238983,0.67688,0.233734,-0.655731,20464,-6421,7664,-8994,-28662
20412,-10.2833,-0.421094,-1.07187,148.123,88.2422,7.16858,1.28174,0.427246,-3.11279,0.238739,0.676941,0.233856,-0.655701,19952,-5397,6128,-8994,-28662
20418,-9.77607,-0.196191,-0.875684,148.09,88.2532,7.13013,0.732422,-2.62451,-0.610352,0.238556,0.676941,0.233917,-0.655762,19952,-4885,5616,-8994,-28662
20424,-9.98662,-0.0813477,-0.655566,147.805,88.2697,6.8335,0,-3.90625,0.427246,0.238525,0.676758,0.233856,-0.655975,21488,-5141,6128,-8994,-28662
20430,-9.71387,-0.0717773,-0.200977,147.513,88.2861,6.53687,0.12207,-0.610352,0.854492,0.238525,0.676666,0.233795,-0.656097,22512,-5397,6640,-8994,-28662
20436,-9.69951,0.00478516,-0.220117,147.706,88.2751,6.72913,0,2.2583,0.854492,0.238495,0.676666,0.233765,-0.656097,23536,-5909,6640,-8994,-28662
20442,-9.83828,0.119629,-0.301465,148.233,88.2587,7.25098,-0.427246,5.00488,0.12207,0.238464,0.676727,0.233765,-0.656036,24304,-6421,5872,-8994,-28662
20448,-9.64209,0.14834,-0.373242,149.106,88.2312,8.12439,-0.610352,7.01904,-1.28174,0.238373,0.67688,0.233826,-0.655914,25072,-6677,4336,-8994,-28662
20454,-9.97705,-0.13877,-0.636426,150.238,88.2037,9.25598,-0.488281,8.30078,-2.62451,0.238068,0.677277,0.234131,-0.655518,25584,-5653,-17,-8994,-28662
20460,-9.68994,-0.14834,-0.717773,151.99,88.1488,11.0083,-0.915527,6.95801,-0.915527,0.237885,0.67749,0.234283,-0.655304,25328,-4629,-1041,-8994,-28662
20466,-9.84785,-0.220117,-0.799121,152.463,88.1268,11.4807,-0.915527,5.5542,0.244141,0.237793,0.677673,0.234406,-0.65509,25072,-3605,-1297,-8994,-28662
20472,-9.77129,-0.229688,-0.794336,152.589,88.1049,11.6125,-1.09863,3.84521,1.89209,0.237732,0.677826,0.234497,-0.654938,24816,-2837,-1041,-8994,-28662
20478,-9.90527,-0.153125,-0.827832,152.43,88.0884,11.4532,-1.15967,2.0752,3.17383,0.237732,0.677948,0.234497,-0.654785,24560,-2069,-1041,-8994,-28662
20484,-9.65645,0.181836,-0.689063,152.221,88.0774,11.25,-1.2207,0.488281,2.74658,0.237823,0.67807,0.234436,-0.654663,23792,-533,1264,-8994,-28662
20490,-9.77129,0.15791,-0.593359,152.342,88.0829,11.3654,-0.12207,-1.09863,-1.15967,0.237854,0.678101,0.234406,-0.654633,23792,-277,1776,-8985,-28663
20496,-9.83828,-0.0334961,-0.598145,152.704,88.0939,11.7169,0.549316,-1.40381,-2.50244,0.237793,0.67807,0.234436,-0.654694,24048,-277,2032,-8985,-28663
20502,-9.87656,-0.162695,-0.6125,153.067,88.1049,12.074,0.244141,-1.40381,-2.44141,0.23764,0.678009,0.234467,-0.654755,24048,-789,2288,-8985,-28663
20508,-9.90527,-0.186621,-0.593359,153.21,88.1104,12.2113,-0.0610352,-1.34277,-0.732422,0.237549,0.677979,0.234528,-0.654846,24048,-1301,2544,-8985,-28663
20514,-9.96748,-0.0382813,-0.6125,153.254,88.1158,12.2552,-0.366211,-1.15967,0.0610352,0.237457,0.677948,0.234528,-0.654907,24304,-2069,2032,-8985,-28663
20520,-9.64209,0.0287109,-0.574219,153.188,88.1268,12.1783,0,-1.77002,0.305176,0.237427,0.677917,0.234497,-0.654938,24816,-2325,2288,-8985,-28663
20526,-9.81914,0.0574219,-0.593359,153.325,88.1323,12.3102,0.305176,-1.40381,-0.732422,0.237396,0.677887,0.234467,-0.654999,25328,-2325,1776,-8985,-28663
20532,-9.85742,0.0191406,-0.555078,153.556,88.1378,12.5299,0.549316,-1.28174,-1.28174,0.237335,0.677887,0.234467,-0.655029,25328,-2581,1520,-8985,-28663
20538,-9.77607,-0.00478516,-0.478516,153.847,88.1433,12.8156,0.976562,-0.793457,-1.52588,0.237244,0.677856,0.234467,-0.65509,25328,-2837,496,-8985,-28663
20544,-9.81436,-0.153125,-0.483301,154.199,88.1488,13.1561,1.64795,-0.183105,-1.58691,0.236969,0.677856,0.234467,-0.655182,24560,-3861,-1553,-8985,-28663
20550,-9.82393,-0.181836,-0.574219,154.682,88.1323,13.6176,0.854492,1.46484,0.488281,0.236847,0.677917,0.234436,-0.655182,24560,-4629,-2577,-8985,-28663
20556,-9.82393,-0.13877,-0.617285,154.715,88.1213,13.6395,0.244141,1.52588,1.52588,0.236755,0.678009,0.234436,-0.655121,24560,-4885,-2833,-8985,-28663
20562,-9.81436,-0.0669922,-0.6125,154.737,88.1104,13.656,0.183105,1.64795,1.64795,0.236725,0.67807,0.234375,-0.65506,24304,-4629,-3601,-8985,-28663
20568,-9.81436,0,-0.645996,154.83,88.0994,13.7384,0.854492,1.28174,0.976562,0.236694,0.678162,0.234344,-0.654999,25072,-5141,-3601,-8985,-28663
20574,-9.83828,-0.0574219,-0.660352,154.951,88.0939,13.8538,1.46484,0.366211,0.427246,0.236542,0.678314,0.234253,-0.654907,26352,-5141,-4625,-8985,-28663
20580,72.5813,14.8196,6.40254,154.907,88.1433,13.7274,12.085,-10.498,-6.95801,0.23645,0.678375,0.234222,-0.654907,25840,-5141,-4369,-8985,-28663
20586,-136.741,-36.5299,-20.9446,151.716,89.1211,10.7996,-54.3213,-184.204,-72.0215,0.236053,0.678192,0.233795,-0.655396,25072,-4629,-3601,-8985,-28663
20592,-60.4174,-28.3951,79.5341,121.053,87.5226,-19.8688,5.92041,108.643,347.778,0.237335,0.671661,0.235687,-0.66098,23536,-3605,-2833,-8985,-28663
20598,-22.6625,30.0364,-2.49307,137.307,85.589,-3.69141,23.6816,399.658,177.979,0.246063,0.678009,0.226685,-0.654419,22000,-2837,-2833,-8985,-28663
20604,23.8062,22.4567,-21.672,146.234,84.4025,4.97681,33.5693,156.128,-165.71,0.242828,0.699677,0.225677,-0.632812,18672,-3861,-273,-8985,-28663
20610,-7.68496,0.397168,-17.5137,169.525,84.4849,28.1085,19.2871,3.11279,-256.958,0.235779,0.702576,0.231323,-0.630219,14832,-5909,4592,-8985,-28663
20616,-12.652,-15.6331,-13.3123,178.231,85.0452,36.7108,26.6724,-94.5435,-168.579,0.228119,0.700195,0.238556,-0.632996,9968,-8213,12784,-8985,-28663
20622,-10.2977,-15.7671,-6.98633,179.764,85.8142,38.0457,38.6353,-153.87,-22.583,0.223572,0.696075,0.241913,-0.637817,5360,-8981,23536,-8985,-28663
20628,-6.16328,-8.13477,-1.48818,172.93,86.6602,31.2286,-8.11768,-176.392,81.2378,0.223297,0.691956,0.240021,-0.643127,3056,-7957,-32528,-8985,-28663
20634,-11.5944,4.43584,3.69893,159.576,87.3853,18.0835,-46.2646,-149.841,82.9468,0.233398,0.683472,0.232727,-0.651215,4336,-3349,-19728,-8985,-28663
20640,-3.47402,6.91455,6.88584,129.996,88.1049,-11.1621,-28.0151,-98.2056,26.9165,0.238495,0.679626,0.230103,-0.654358,6128,-1045,-17424,-8985,-28663
20646,-8.69463,4.04346,7.40264,126.848,88.3026,-14.3042,-1.34277,-40.4053,-18.2495,0.240967,0.676819,0.229095,-0.656708,7664,492,-18960,-8985,-28663
20652,-9.78086,0.722559,5.58428,133.753,88.407,-7.44873,9.46045,17.4561,-40.4053,0.240845,0.675446,0.229248,-0.658081,8688,1516,-23568,-8985,-28663
20658,-12.9869,-3.02422,3.65586,144.52,88.2751,3.27942,6.5918,62.0728,-28.4424,0.239197,0.675629,0.230347,-0.658142,9456,2028,-29200,-8985,-28663
20664,-9.88613,-0.775195,-0.91875,152.139,87.9181,10.8984,-2.2583,96.3745,9.39941,0.23645,0.679565,0.232697,-0.654236,12016,2540,27632,-8985,-28663
20670,-9.18272,1.18193,-2.70361,159.225,87.0941,17.9956,1.52588,83.7402,5.37109,0.235809,0.682312,0.23349,-0.651306,12784,2284,24816,-8985,-28663
20676,-10.0775,0.990527,-4.04824,161.763,86.825,20.5225,3.05176,61.7065,-5.98145,0.235046,0.684662,0.234161,-0.648865,13552,1260,24816,-8985,-28663
20682,-10.4364,-0.468945,-4.29229,163.378,86.6821,22.1155,3.84521,32.6538,-7.8125,0.234131,0.68634,0.234894,-0.647156,13808,236,25584,-8985,-28663
20688,-9.27363,-0.913965,-3.88555,163.713,86.6656,22.4286,2.92969,4.57764,-1.34277,0.233398,0.687195,0.235382,-0.646362,13296,-21,27632,-8985,-28663
20694,-9.154,0.14834,-2.13418,162.861,86.759,21.5826,-2.56348,-36.6211,6.46973,0.233521,0.686798,0.235077,-0.646851,10480,492,-29200,-8985,-28663
20700,-9.4459,0.44502,-1.21543,159.917,87.1216,18.6383,-1.2207,-43.1519,2.62451,0.23407,0.685822,0.234558,-0.647858,9200,748,-24336,-8985,-28663
20706,-10.4029,0.191406,-0.44502,158.571,87.3193,17.2815,-0.366211,-43.1519,-0.915527,0.234528,0.684631,0.23407,-0.649109,7920,748,-21008,-8985,-28663
20712,-9.41719,0.143555,0.468945,157.582,87.4951,16.2817,0,-36.1938,-3.54004,0.234863,0.683441,0.233673,-0.650421,7664,492,-19216,-8985,-28663
20718,-10.0153,0.0382813,0.746484,157.192,87.616,15.8752,0.976562,-24.6582,-5.31006,0.235046,0.682404,0.233368,-0.65155,7664,748,-18704,-8985,-28663
20724,-10.1541,-0.62207,0.545508,157.17,87.6764,15.8478,-0.0610352,3.05176,2.0752,0.234955,0.681335,0.233215,-0.65274,8176,236,-20240,-8985,-28663
20730,-9.63252,-0.0478516,0.0574219,157.407,87.5995,16.073,-0.244141,11.2915,4.27246,0.234924,0.681458,0.233185,-0.652649,8432,236,-22032,-8985,-28663
20736,-9.82393,0.330176,-0.535937,157.978,87.5281,16.6388,0.0610352,14.8926,1.95312,0.234863,0.681824,0.233185,-0.652283,9200,-21,-22800,-8985,-28663
20742,-9.63731,0.406738,-1.0001,158.868,87.4677,17.5177,1.0376,13.6108,-1.89209,0.234711,0.682281,0.233276,-0.651825,9968,-21,-23824,-8985,-28663
20748,-9.8,0.0957031,-1.33027,159.846,87.4347,18.4845,1.0376,9.52148,-4.63867,0.234406,0.682648,0.233429,-0.651489,12272,-21,-24592,-8985,-28663
20754,-9.56074,-0.220117,-1.27764,160.928,87.4347,19.5392,1.0376,-1.46484,-2.99072,0.233826,0.682983,0.233734,-0.651245,13296,-277,-25616,-8985,-28663
20760,-10.1541,-0.378027,-1.22979,160.928,87.4622,19.5282,0.854492,-5.85938,-0.793457,0.233643,0.682953,0.233765,-0.651337,13808,-533,-26640,-8985,-28663
20766,-9.78564,-0.277539,-0.942676,160.609,87.5006,19.1986,0.0610352,-8.72803,1.15967,0.233582,0.6828,0.233704,-0.65152,14064,-789,-27664,-8985,-28663
20772,-10.0201,-0.13877,-0.741699,160.087,87.5391,18.6713,-0.0610352,-9.46045,2.68555,0.233612,0.682587,0.233551,-0.651764,14576,-1557,-27664,-8985,-28663
20778,-9.66123,0.062207,-0.430664,159.609,87.572,18.1824,0.244141,-8.42285,2.50244,0.233704,0.682373,0.233368,-0.652039,14832,-2069,-27920,-8985,-28663
20784,-9.60381,0.119629,-0.330176,159.681,87.605,18.2318,1.09863,-2.56348,-1.64795,0.233765,0.682068,0.233093,-0.652435,15344,-2837,-26128,-8985,-28663
20790,-9.9292,-0.0957031,-0.416309,160.087,87.605,18.6273,1.28174,0.549316,-2.2583,0.233612,0.682037,0.233093,-0.652527,15344,-3349,-25616,-8985,-28663
20796,-9.65645,-0.119629,-0.526367,160.433,87.594,18.9569,0.915527,2.19727,-1.15967,0.233429,0.682068,0.233093,-0.652557,15600,-3349,-24592,-8985,-28663
20802,-9.9627,-0.143555,-0.77041,160.768,87.583,19.2865,0.488281,3.17383,-0.793457,0.233276,0.682159,0.233124,-0.652527,15600,-3349,-24592,-8985,-28663
20808,-9.91484,-0.186621,-0.77998,160.928,87.5665,19.4348,-0.0610352,2.44141,0.549316,0.233124,0.682251,0.233154,-0.652435,15344,-3093,-28432,-8985,-28663
20814,-9.85264,-0.0334961,-0.794336,160.922,87.5391,19.4238,-0.549316,1.64795,1.95312,0.233002,0.682465,0.233124,-0.652283,15600,-2325,-30480,-8985,-28663
20820,-9.65645,0.062207,-0.722559,160.95,87.5281,19.4458,-0.305176,1.0376,1.15967,0.233002,0.682556,0.233093,-0.652222,15344,-2325,-32272,-8985,-28663
20826,-9.84307,0.0239258,-0.736914,161.087,87.5226,19.5721,0,0.732422,0.0610352,0.232941,0.682617,0.233063,-0.652161,16368,-2325,31728,-8985,-28663
20832,-9.84307,-0.0478516,-0.756055,161.29,87.5226,19.7644,0.0610352,0.305176,-0.671387,0.23288,0.682678,0.233063,-0.652161,17392,-2581,30704,-8985,-28663
20838,-9.63731,0,-0.708203,161.554,87.5171,20.0281,-0.244141,0.244141,-1.34277,0.232788,0.682709,0.233063,-0.65213,18416,-3093,28144,-8985,-28663
20844,-9.83828,-0.205762,-0.655566,162.147,87.5116,20.6104,0,0.610352,-1.0376,0.232544,0.682739,0.233154,-0.652161,18672,-3093,27632,-8985,-28663
20850,-9.94834,-0.29668,-0.689063,162.246,87.5061,20.6982,0,0.976562,0.488281,0.232452,0.6828,0.233185,-0.65213,18160,-3349,28912,-8985,-28663
20856,-9.78564,-0.119629,-0.712988,162.191,87.4951,20.6378,-0.366211,1.15967,1.95312,0.232361,0.682861,0.233154,-0.6521,17392,-3349,30192,-8985,-28663
20862,-9.73301,0.0574219,-0.717773,162.18,87.4841,20.6213,-0.183105,1.2207,1.52588,0.232361,0.682922,0.233124,-0.652039,16624,-3349,30704,-8985,-28663
20868,-9.83828,0.0765625,-0.717773,162.268,87.4731,20.6982,0.366211,1.09863,0.549316,0.2323,0.683014,0.233063,-0.651978,16368,-2837,29680,-8985,-28663
20874,-9.82393,-0.0957031,-0.722559,162.697,87.4567,21.1102,0.12207,1.28174,-0.488281,0.232117,0.683136,0.233063,-0.651917,16112,-2069,29680,-8985,-28663
20880,-9.85742,-0.0861328,-0.741699,162.878,87.4457,21.286,0,1.2207,-0.305176,0.232025,0.683228,0.233063,-0.651886,15600,-1045,30192,-8985,-28663
20886,-9.79521,-0.0669922,-0.741699,163.026,87.4402,21.4288,-0.427246,1.09863,-0.12207,0.231934,0.683289,0.233063,-0.651855,15344,-1045,30960,-8985,-28663
20892,-9.8,-0.0478516,-0.698633,163.141,87.4292,21.5387,-0.549316,1.15967,0.244141,0.231873,0.68335,0.233093,-0.651794,14576,-789,30192,-8985,-28663
20898,-9.75693,-0.100488,-0.689063,163.207,87.4182,21.5991,-0.915527,1.52588,0.793457,0.231812,0.683411,0.233093,-0.651764,14064,-1045,27632,-8985,-28663
20904,-9.7665,-0.00478516,-0.564648,163.262,87.3853,21.6541,-1.0376,3.17383,1.58691,0.23175,0.683563,0.233093,-0.651581,14576,-789,27120,-8985,-28663
20910,-9.77607,0.0191406,-0.579004,163.389,87.3578,21.7749,-0.244141,4.39453,0.976562,0.23172,0.683685,0.233093,-0.651459,15344,-277,27120,-8985,-28663
20916,-9.77129,-0.0526367,-0.669922,163.614,87.3303,21.9891,0.488281,5.31006,0.366211,0.231659,0.683868,0.233124,-0.651337,15856,-21,28400,-8985,-28663
20922,-9.82871,-0.0765625,-0.799121,163.856,87.3029,22.2198,1.15967,5.12695,0.12207,0.231506,0.684052,0.233124,-0.651154,15600,236,29680,-8985,-28663
20928,-9.82393,-0.14834,-0.913965,164.004,87.2809,22.3572,1.52588,4.02832,0.671387,0.231354,0.684235,0.233124,-0.651031,15344,1004,31216,-8985,-28663
20934,144.033,43.6071,13.1161,168.063,87.6654,26.1969,36.9873,-67.8711,-77.8198,0.23111,0.68454,0.233032,-0.650818,15600,1516,31216,-8985,-28663
20940,-148.871,-53.5507,-99.7035,-1.25244,89.1156,-143.212,7.93457,-649.536,-100.891,0.229156,0.682404,0.232727,-0.65387,16368,1516,30704,-8985,-28663
20946,-49.8661,-28.2085,102,31.701,88.0389,-110.023,-42.1143,-156.006,217.285,0.232056,0.663269,0.228729,-0.673645,17392,3052,30192,-8985,-28663
20952,-18.4229,19.5761,12.5132,103.947,88.2806,-37.9688,47.1191,418.152,130.859,0.241119,0.660278,0.222382,-0.675537,19696,5356,26608,-8985,-28663
20958,1.79922,12.5323,-14.9058,139.043,87.0996,-3.08167,46.9971,355.591,49.6826,0.239502,0.674072,0.22171,-0.662537,24048,7660,14064,-8985,-28663
20964,4.44063,-0.837402,-5.74219,169.167,85.2759,26.9604,26.9775,205.322,-124.084,0.231079,0.692474,0.227875,-0.644257,25328,8172,7408,-8985,-28663
20970,-18.3798,-11.1877,-10.7522,173.93,84.7046,31.4868,49.0112,123.291,-60.1807,0.224701,0.697235,0.23288,-0.639557,24816,6636,5616,-8985,-28663
20976,-11.7571,-8.34531,-10.0728,173.095,84.3695,30.5475,19.7144,62.1338,28.0151,0.220184,0.700562,0.234558,-0.636871,23280,5100,9200,-8985,-28663
20982,-2.97158,-0.636426,-6.75664,170.392,84.3036,27.9163,-19.5312,3.11279,56.0913,0.219574,0.702789,0.233795,-0.634888,21488,5100,15344,-8985,-28663
20988,-14.0588,1.66045,-7.55098,167.86,84.5343,25.4388,-17.5781,-58.7158,40.7715,0.221527,0.703369,0.232697,-0.634003,19696,6636,-32016,-8985,-28663
20994,-6.21592,1.95234,-1.89971,164.18,85.5725,21.7804,-7.87354,-122.314,-3.72314,0.225098,0.699463,0.230011,-0.638031,18672,7660,-23824,-8985,-28663
21000,-10.8479,-0.641211,0.626855,162.054,86.1438,19.6216,0.610352,-123.718,-2.2583,0.226257,0.696106,0.229095,-0.641602,17648,7660,-15888,-8985,-28663
21006,-11.3743,-1.53125,2.49307,159.148,86.5833,16.6882,1.2207,-99.4263,7.56836,0.227173,0.69281,0.227875,-0.645264,16624,7660,-10256,-8985,-28663
21012,-11.2451,-1.17236,3.76113,156.231,86.8414,13.7604,-3.41797,-64.4531,13.1836,0.228149,0.690216,0.226624,-0.648132,15856,7148,-7696,-8985,-28663
21018,-7.05811,0.775195,4.67031,154.742,86.9073,12.2827,-4.82178,-21.9116,10.8032,0.229065,0.688629,0.225677,-0.649841,14832,5868,-8976,-8985,-28663
21024,-8.70898,0.483301,-0.172266,156.984,86.6931,14.5349,-1.58691,30.0293,-4.3335,0.229462,0.68866,0.225494,-0.649719,14832,5356,-11792,-8985,-28663
21030,-11.427,-0.880469,-2.64141,158.198,86.5887,15.7434,0.183105,22.583,-3.54004,0.228973,0.689484,0.225983,-0.648834,15088,5100,-14352,-8985,-28663
21036,-9.74258,-1.11494,-2.45,158.165,86.5503,15.705,-0.488281,5.12695,5.18799,0.228546,0.690155,0.226318,-0.648163,15344,5612,-17168,-8985,-28663
21042,-10.4604,0.196191,-0.46416,157.676,86.5228,15.1941,1.64795,0.732422,9.46045,0.228516,0.690399,0.226227,-0.647919,15856,5100,-19216,-8985,-28663
21048,-9.29756,1.34941,0.114844,158.016,86.4844,15.5182,2.38037,6.34766,0.488281,0.228363,0.690857,0.225922,-0.647614,15856,3564,-23312,-8985,-28663
21054,-9.93398,-0.550293,-0.669922,160.62,86.3745,18.0615,5.12695,15.625,-10.0098,0.227753,0.691223,0.226227,-0.647339,15344,1772,-24336,-8985,-28663
21060,-10.3024,-1.05752,-1.20586,161.411,86.3141,18.8196,4.5166,14.0381,-3.54004,0.227051,0.69165,0.226562,-0.647003,14832,1260,-24592,-8985,-28663
21066,-9.71865,-0.459375,-1.53604,161.636,86.2592,19.0338,1.40381,9.21631,2.13623,0.226593,0.692108,0.226685,-0.646637,14576,748,-25104,-8985,-28663
21072,-9.84785,0.0574219,-1.63174,161.609,86.2372,19.0009,-0.671387,2.31934,3.11279,0.22641,0.692444,0.226685,-0.646332,14832,492,-25360,-8985,-28663
21078,-9.64688,0.215332,-1.46904,161.609,86.2537,18.9954,-0.183105,-4.45557,0.488281,0.226349,0.692535,0.226593,-0.646301,15856,1260,-24080,-8994,-28662
21084,-9.7665,-0.248828,-0.899609,161.45,86.3416,18.8141,0,-11.7188,-0.305176,0.226318,0.692322,0.226501,-0.646576,16880,1004,-22800,-8994,-28662
21090,-9.91484,-0.253613,-0.641211,161.241,86.3855,18.5944,-0.610352,-11.4136,0.854492,0.226318,0.692017,0.22641,-0.646912,17648,1004,-20752,-8994,-28662
21096,-9.59902,0.0191406,-0.349316,161.043,86.424,18.3966,-1.0376,-8.8501,1.40381,0.226349,0.691772,0.226288,-0.647217,18160,748,-19216,-8994,-28662
21102,-9.88135,0.0669922,-0.272754,161.021,86.4404,18.3691,-0.549316,-5.24902,0.244141,0.22641,0.691559,0.226196,-0.647461,18160,492,-18448,-8994,-28662
21108,-9.6708,-0.00957031,-0.282324,161.153,86.4459,18.49,-0.0610352,-1.58691,-0.549316,0.226288,0.691467,0.226166,-0.647614,16880,-277,-17936,-8994,-28662
21114,-10.0249,-0.267969,-0.583789,161.592,86.4075,18.9185,-0.366211,4.08936,0.366211,0.226166,0.691559,0.226196,-0.647552,15856,-789,-19984,-8994,-28662
21120,-9.74736,-0.16748,-0.712988,161.719,86.38,19.0393,-0.610352,4.88281,1.52588,0.226044,0.691681,0.226257,-0.64743,15856,-1557,-22288,-8994,-28662
21126,-10.001,-0.0669922,-0.846973,161.774,86.3525,19.0942,-0.915527,4.63867,2.31934,0.225983,0.691864,0.226288,-0.647247,16368,-1813,-23824,-8994,-28662
21132,-9.74258,0.0574219,-0.813477,161.867,86.3251,19.1876,-0.915527,3.90625,1.52588,0.225952,0.692047,0.226288,-0.647064,16624,-2069,-25104,-8994,-28662
21138,-9.68516,0.0717773,-0.736914,162.065,86.3086,19.3799,-0.427246,3.60107,0,0.2258,0.692322,0.226349,-0.64679,17392,-2325,-24592,-8994,-28662
21144,-9.85264,-0.110059,-0.703418,162.51,86.2646,19.8138,-0.244141,4.21143,-0.244141,0.225677,0.692474,0.22641,-0.646667,17648,-2325,-23312,-8994,-28662
21150,-9.69951,-0.062207,-0.708203,162.713,86.2372,20.0116,-0.427246,4.76074,0.12207,0.225555,0.692596,0.226471,-0.646545,18160,-2325,-23056,-8994,-28662
21156,-10.0393,-0.172266,-0.756055,162.911,86.2097,20.2039,-0.427246,5.18799,0.244141,0.225433,0.69278,0.226532,-0.646393,17904,-2069,-22288,-8994,-28662
21162,-9.76172,-0.105273,-0.775195,163.048,86.1823,20.3412,-1.0376,5.31006,0.976562,0.225311,0.692932,0.226593,-0.64621,17392,-1813,-21520,-8994,-28662
21168,-9.73301,-0.0143555,-0.818262,163.202,86.1493,20.495,-0.915527,5.49316,0.793457,0.225159,0.693298,0.226685,-0.645874,16368,-1813,-22800,-8994,-28662
21174,-9.68516,-0.0287109,-0.870898,163.625,86.0999,20.907,-0.366211,4.63867,-0.732422,0.225067,0.693451,0.226746,-0.645691,16624,-1557,-23312,-8994,-28662
21180,-9.92441,-0.129199,-0.913965,163.845,86.0834,21.1212,-0.305176,3.72314,-0.793457,0.224915,0.693604,0.226837,-0.645569,16880,-1301,-24080,-8994,-28662
21186,-9.81914,-0.13877,-0.971387,164.015,86.0669,21.2915,-0.610352,2.44141,-0.549316,0.224792,0.693726,0.226898,-0.645447,17136,-1557,-24336,-8994,-28662
21192,-9.74736,-0.114844,-0.957031,164.152,86.0614,21.4288,-1.0376,1.0376,-0.427246,0.224701,0.693817,0.226959,-0.645386,17392,-1557,-23824,-8994,-28662
21198,-9.78086,-0.105273,-0.980957,164.235,86.0614,21.5057,-0.732422,-0.305176,-0.0610352,0.224579,0.693848,0.22702,-0.645355,17136,-3093,-19728,-8994,-28662
21204,-9.88613,-0.0765625,-1.0001,164.301,86.0834,21.5607,-0.549316,-3.41797,0.12207,0.224548,0.693817,0.22702,-0.645416,17392,-3349,-17936,-8994,-28662
21210,-9.72822,-0.0334961,-0.947461,164.284,86.0999,21.5442,-0.793457,-4.5166,0.12207,0.224518,0.693756,0.22699,-0.645508,16624,-3605,-16656,-8994,-28662
21216,-9.78086,0.0191406,-0.866113,164.273,86.1273,21.5277,-0.976562,-5.5542,-0.244141,0.224487,0.693634,0.226959,-0.64563,16368,-3605,-16144,-8994,-28662
21222,-9.80479,0,-0.799121,164.306,86.1493,21.5607,-0.793457,-5.67627,-0.915527,0.224487,0.693512,0.226929,-0.645782,16880,-3349,-16144,-8994,-28662
21228,-9.85264,-0.100488,-0.660352,164.388,86.1768,21.6321,-0.732422,-5.31006,-1.46484,0.224426,0.693207,0.226898,-0.646118,17392,-2581,-15376,-8994,-28662
21234,-9.85742,-0.15791,-0.665137,164.537,86.2097,21.7749,-0.427246,-3.60107,-0.732422,0.224365,0.693115,0.226898,-0.646271,17136,-2069,-14864,-8994,-28662
21240,-9.7665,-0.090918,-0.669922,164.575,86.2207,21.8024,-0.427246,-2.68555,-0.12207,0.224304,0.693024,0.226898,-0.646362,17136,-2069,-14352,-8994,-28662
21246,-9.81436,-0.0717773,-0.736914,164.586,86.2262,21.8079,-0.488281,-1.89209,0.427246,0.224274,0.692963,0.226868,-0.646454,16880,-1813,-13072,-8994,-28662
21252,-9.83828,-0.0382813,-0.712988,164.641,86.2317,21.8628,-0.244141,-1.34277,-0.0610352,0.224243,0.692932,0.226837,-0.646515,16624,-1301,-12304,-8994,-28662
21258,-9.79521,-0.0478516,-0.698633,164.702,86.2317,21.9122,-0.12207,-0.854492,0.0610352,0.224121,0.692932,0.226807,-0.646576,15344,-277,-10000,-8994,-28662
21264,-9.79043,-0.0717773,-0.689063,164.91,86.2317,22.11,0.183105,0.183105,-0.366211,0.22403,0.692963,0.226807,-0.646576,14320,236,-9232,-8994,-28662
21270,-9.80957,-0.13877,-0.717773,164.998,86.2262,22.1869,0,0.610352,0.0610352,0.223938,0.692963,0.226807,-0.646576,14064,-21,-10000,-8994,-28662
21276,-9.80957,-0.105273,-0.684277,165.081,86.2152,22.2583,0,1.2207,0.305176,0.223877,0.693024,0.226807,-0.646576,14320,-277,-9744,-8994,-28662
21282,-9.78564,-0.062207,-0.698633,165.174,86.2097,22.3517,-0.12207,1.70898,0.183105,0.223785,0.693085,0.226776,-0.646545,14576,-277,-10000,-8994,-28662
21288,-9.79521,-0.062207,-0.741699,165.289,86.1932,22.4615,-0.183105,2.38037,0.0610352,0.223633,0.693237,0.226807,-0.646423,16368,-533,-10512,-8994,-28662
21294,-9.75693,-0.0813477,-0.75127,165.602,86.1603,22.7637,-0.183105,3.17383,-0.488281,0.223541,0.693329,0.226837,-0.646332,16624,-1301,-10512,-8994,-28662
21300,-9.81914,-0.0813477,-0.818262,165.751,86.1493,22.901,-0.0610352,3.05176,-0.244141,0.223419,0.693451,0.226868,-0.64624,16624,-2069,-10512,-8994,-28662
21306,-9.79521,-0.0478516,-0.823047,165.905,86.1328,23.0493,-0.12207,2.80762,-0.427246,0.223328,0.693542,0.226898,-0.646179,16880,-2837,-10512,-8994,-28662
21312,-9.7665,-0.0382813,-0.890039,166.053,86.1218,23.1921,0.12207,2.0752,-0.610352,0.223206,0.693634,0.226929,-0.646088,16880,-3605,-10256,-8994,-28662
21318,-9.78086,-0.119629,-0.885254,166.185,86.1108,23.313,0.244141,1.46484,-0.488281,0.222992,0.693787,0.226959,-0.645996,17392,-4373,-9232,-8994,-28662
21324,-5.61777,-0.6125,-1.07187,166.179,86.1108,23.291,-0.427246,-1.46484,1.83105,0.2229,0.693817,0.226929,-0.645996,17904,-4117,-9744,-8994,-28662
21330,-78.132,10.8479,-51.5313,159.384,86.9623,16.7047,-48.7061,-192.688,24.292,0.2229,0.693817,0.226868,-0.646027,17648,-3605,-11280,-8994,-28662
21336,-48.22,-53.1296,73.1028,145.113,85.2319,3.40576,-199.097,223.999,326.782,0.226776,0.688385,0.225494,-0.65094,17392,-2325,-12816,-8994,-28662
21342,-15.145,56.1682,-2.6749,149.31,83.3698,7.43774,37.3535,359.924,134.46,0.239685,0.695679,0.223755,-0.639069,16880,-2069,-16656,-8994,-28662
21348,1.49297,3.03857,-13.2166,157.879,81.8811,16.073,-0.244141,369.446,-66.8335,0.233368,0.716461,0.228088,-0.616516,9712,-5909,-22544,-8994,-28662
21354,3.36875,7.33564,-27.9357,170.189,80.6836,27.4768,125,51.8188,-166.992,0.225403,0.723541,0.231873,-0.609772,3312,-10517,-21264,-8994,-28662
21360,-10.7522,-6.90498,-18.3606,174.479,81.2933,31.3989,78.125,-106.14,-141.113,0.216461,0.724487,0.2341,-0.611023,-4113,-14869,-14352,-8994,-28662
21366,-8.23047,-10.4173,-12.4175,175.518,82.2546,32.2943,25.0244,-193.359,-44.3115,0.211212,0.721039,0.235229,-0.616455,-10769,-18197,-5392,-8994,-28662
21372,-7.15859,-7.40742,9.16357,173.342,83.4027,30.163,-17.395,-236.694,30.1514,0.211029,0.71579,0.233978,-0.623108,-16401,-19477,6385,-8994,-28662
21378,-9.69951,2.68447,3.11992,168.618,84.5453,25.5048,-27.6489,-224.67,58.1665,0.219299,0.703339,0.22757,-0.636627,-19985,-17173,23025,-8994,-28662
21384,-6.56045,4.93828,6.78057,156.088,86.2976,13.1342,-20.813,-173.523,23.7427,0.223816,0.69754,0.224304,-0.642609,-19473,-15637,26097,-8994,-28662
21390,-8.4458,3.52188,8.51758,153.353,86.792,10.3821,-0.732422,-105.408,-12.9395,0.226654,0.69281,0.222382,-0.647369,-17169,-15125,25585,-8994,-28662
21396,-9.68994,0.913965,7.88115,154.863,87.0007,11.8213,12.085,-31.7993,-33.1421,0.227234,0.689789,0.221649,-0.650635,-14865,-15125,22001,-8994,-28662
21402,-10.3934,-1.64609,6.39775,158.626,86.9073,15.5402,8.8501,33.4473,-29.2358,0.226166,0.688721,0.221893,-0.652039,-12817,-15125,17393,-8994,-28662
21408,-10.1015,-1.10537,1.15322,162.065,86.5393,18.9569,1.46484,109.863,1.15967,0.223419,0.691742,0.223816,-0.649109,-9489,-16405,5105,-8994,-28662
21414,-9.64688,0.119629,-1.41641,165.965,85.4791,22.8461,1.83105,112.549,5.43213,0.222351,0.694824,0.224762,-0.645844,-7697,-17429,-16,-8994,-28662
21420,-10.111,0.354102,-3.38311,167.223,85.0122,24.0875,2.68555,97.29,1.64795,0.221313,0.698029,0.225616,-0.642456,-5905,-17685,-3600,-8994,-28662
21426,-9.77607,-0.0191406,-4.35928,168.118,84.6716,24.9554,4.57764,71.3501,-0.610352,0.220306,0.700745,0.226379,-0.639557,-4625,-17429,-6160,-8994,-28662
21432,-9.77129,-0.14834,-4.86172,168.525,84.4794,25.34,2.99072,40.2222,0.793457,0.219421,0.702728,0.226898,-0.637482,-2833,-16917,-6160,-8985,-28663
21438,-9.1875,0.153125,-3.67021,168.492,84.4409,25.3015,-0.793457,-19.7144,2.38037,0.218842,0.704132,0.227081,-0.636108,-273,-14613,-5392,-8985,-28663
21444,-9.58467,0.200977,-2.65576,167.756,84.7156,24.5435,0,-37.7808,0.305176,0.219055,0.703644,0.226776,-0.636688,240,-14101,-3344,-8994,-28662
21450,-10.1015,0.0239258,-1.70352,167.245,84.9463,24.0106,0.793457,-47.7295,-0.549316,0.21936,0.702637,0.226349,-0.637848,496,-13333,-1296,-8994,-28662
21456,-9.82871,-0.181836,-0.689063,166.646,85.1825,23.4009,0.305176,-49.5605,-0.427246,0.219727,0.701355,0.22583,-0.639313,240,-12565,-16,-8994,-28662
21462,-10.001,-0.181836,0.0287109,165.943,85.3912,22.6868,-0.427246,-44.1895,1.64795,0.220093,0.700012,0.225311,-0.640839,-273,-12309,241,-8994,-28662
21468,-9.73779,0.119629,0.885254,165.284,85.5505,22.0111,-0.0610352,-20.813,1.52588,0.220856,0.697937,0.224335,-0.643158,-529,-12565,-784,-8994,-28662
21474,-9.84785,0.129199,0.808691,164.762,85.6769,21.4673,0.610352,-7.01904,0.244141,0.221039,0.697388,0.22406,-0.643799,-17,-12821,-2064,-8994,-28662
21480,-9.79521,0.100488,0.47373,164.932,85.6549,21.6266,1.0376,5.06592,-0.854492,0.221039,0.697235,0.223938,-0.644012,496,-13077,-3088,-8994,-28662
21486,-9.65166,0.0239258,-0.0669922,165.278,85.5945,21.9617,1.15967,13.2446,-1.52588,0.220886,0.697388,0.223938,-0.64389,1520,-13077,-3856,-8994,-28662
21492,-9.72822,0,-0.598145,165.707,85.5176,22.3792,1.46484,16.7236,-2.13623,0.220612,0.697754,0.22406,-0.643555,2032,-13589,-4112,-8994,-28662
21498,-9.58945,-0.110059,-1.30635,166.102,85.4407,22.7582,0.976562,12.6343,-1.95312,0.220001,0.6987,0.224335,-0.642639,2288,-14613,-5648,-8994,-28662
21504,-9.97705,-0.267969,-1.52168,166.597,85.3473,23.2306,0.305176,7.93457,-0.305176,0.219727,0.699036,0.224457,-0.642303,2288,-15125,-5648,-8994,-28662
21510,-9.80957,-0.177051,-1.45469,166.591,85.3308,23.2196,-0.0610352,2.13623,1.09863,0.219574,0.69928,0.224518,-0.64209,2032,-15381,-4880,-8994,-28662
21516,-9.84785,0.0191406,-1.33027,166.492,85.3418,23.1152,-0.488281,-2.44141,1.58691,0.219543,0.699371,0.224457,-0.642029,2032,-15381,-3856,-8994,-28662
21522,-9.8,0.162695,-1.10537,166.41,85.3693,23.0273,0,-5.79834,0.488281,0.219543,0.69931,0.224365,-0.64209,1776,-15125,-2576,-8994,-28662
21528,-9.68516,-0.00478516,-0.655566,166.432,85.4022,23.0383,0.488281,-6.40869,-1.89209,0.219513,0.699005,0.224182,-0.642517,752,-14869,-1040,-8994,-28662
21534,-9.8335,-0.162695,-0.569434,166.564,85.4572,23.1427,0.732422,-4.39453,-1.64795,0.219452,0.698822,0.224152,-0.642761,496,-14869,-1808,-8994,-28662
21540,-9.82871,-0.210547,-0.588574,166.569,85.4681,23.1372,0.854492,-2.2583,0,0.21936,0.6987,0.224091,-0.642914,-17,-14869,-3600,-8994,-28662
21546,-9.93398,-0.172266,-0.665137,166.481,85.4681,23.0383,0.549316,-0.671387,1.95312,0.219299,0.698669,0.22403,-0.643005,-273,-14869,-5392,-8994,-28662
21552,-9.80479,0.0143555,-0.708203,166.36,85.4626,22.912,0.244141,0.244141,2.68555,0.219269,0.6987,0.223907,-0.643036,-273,-14101,-7696,-8994,-28662
21558,-9.74736,0.186621,-0.818262,166.328,85.4572,22.8735,0.488281,1.0376,-0.427246,0.219269,0.698792,0.223755,-0.642975,752,-12565,-11024,-8994,-28662
21564,-9.75215,0.0143555,-0.842188,166.575,85.4517,23.1042,0.366211,0.854492,-1.95312,0.219177,0.698853,0.223724,-0.642975,2032,-11797,-12816,-8994,-28662
21570,-9.8335,-0.143555,-0.837402,166.718,85.4517,23.2361,0.488281,0.854492,-1.46484,0.219025,0.698853,0.223785,-0.642975,3056,-11029,-12816,-8994,-28662
21576,-9.80957,-0.224902,-0.856543,166.761,85.4462,23.2745,-0.0610352,0.671387,0,0.218933,0.698883,0.223785,-0.642975,3824,-11285,-12048,-8994,-28662
21582,-9.79521,-0.16748,-0.846973,166.778,85.4407,23.2855,-0.549316,0.610352,0.549316,0.218872,0.698914,0.223785,-0.642975,4592,-11797,-9232,-8994,-28662
21588,-9.81914,0.0765625,-0.842188,166.761,85.4352,23.2581,-0.671387,0.244141,0.427246,0.218811,0.698975,0.223724,-0.642944,4080,-12053,-9232,-8994,-28662
21594,-9.77129,0.114844,-0.765625,166.844,85.4352,23.3459,-0.732422,0.488281,-0.732422,0.218781,0.699005,0.223694,-0.642944,3568,-12309,-10256,-8994,-28662
21600,-9.80479,-0.0143555,-0.77041,166.948,85.4297,23.4448,-0.488281,0.793457,-0.915527,0.218719,0.699005,0.223724,-0.642944,3056,-12821,-12048,-8994,-28662
21606,-9.7665,-0.0574219,-0.775195,167.069,85.4242,23.5547,-0.244141,1.28174,-1.0376,0.218658,0.699036,0.223755,-0.642944,2800,-13589,-13072,-8994,-28662
21612,-9.79521,-0.100488,-0.861328,167.146,85.4187,23.6261,0,1.34277,-0.305176,0.218567,0.699066,0.223785,-0.642914,2544,-13333,-13072,-8994,-28662
21618,-9.75693,0.00957031,-0.952246,167.228,85.4132,23.6975,-0.305176,0,0.0610352,0.218445,0.699158,0.223785,-0.642853,2544,-12821,-12048,-8994,-28662
21624,-9.87178,0.00478516,-0.890039,167.239,85.4187,23.7085,-0.244141,-0.732422,0.244141,0.218384,0.699158,0.223785,-0.642883,2288,-12309,-11536,-8994,-28662
21630,-9.79521,0.0143555,-0.851758,167.278,85.4242,23.736,-0.305176,-1.28174,-0.244141,0.218353,0.699158,0.223755,-0.642914,2288,-12565,-10768,-8994,-28662
21636,-9.74258,0.0191406,-0.765625,167.294,85.4297,23.7524,0,-1.2207,0.0610352,0.218323,0.699127,0.223724,-0.642944,2288,-13077,-10256,-8994,-28662
21642,-9.7665,0.00478516,-0.722559,167.344,85.4297,23.7909,0.305176,-0.488281,-0.244141,0.218262,0.699097,0.223694,-0.643005,2800,-13845,-10768,-8994,-28662
21648,-9.76172,0,-0.655566,167.448,85.4242,23.8788,0.183105,1.15967,-0.12207,0.21814,0.699127,0.223633,-0.643036,4080,-13845,-11536,-8994,-28662
21654,-9.82393,-0.00957031,-0.708203,167.547,85.4132,23.9722,0.183105,2.38037,-0.427246,0.218048,0.699188,0.223633,-0.643005,5104,-13333,-12816,-8994,-28662
21660,-9.77129,-0.0287109,-0.703418,167.646,85.3967,24.0656,0.0610352,3.479,-0.244141,0.217957,0.699249,0.223633,-0.642975,6384,-12821,-13584,-8994,-28662
21666,-9.77607,-0.0239258,-0.756055,167.739,85.3748,24.1534,0.0610352,4.21143,-0.0610352,0.217865,0.699341,0.223663,-0.642883,7408,-12309,-14352,-8985,-28663
21672,-9.80479,-0.0191406,-0.818262,167.877,85.3528,24.2853,0.0610352,4.69971,-0.610352,0.217773,0.699493,0.223694,-0.642761,8432,-11797,-17680,-8985,-28663
21678,-9.75693,-0.00957031,-0.937891,168.074,85.3088,24.472,-0.0610352,4.02832,-0.244141,0.21756,0.699768,0.223755,-0.642517,9200,-12053,-18192,-8994,-28662
21684,-9.78564,-0.00478516,-1.01924,168.162,85.2979,24.5544,-0.12207,3.11279,-0.244141,0.217468,0.69986,0.223785,-0.642395,9456,-12309,-18192,-8994,-28662
21690,-9.78564,-0.0143555,-1.00488,168.25,85.2869,24.6368,0,1.52588,-0.549316,0.217407,0.699951,0.223816,-0.642334,10480,-12565,-17936,-8994,-28662
21696,-9.79521,-0.0669922,-1.10537,168.294,85.2924,24.6753,0,-0.427246,-0.183105,0.217316,0.700012,0.223846,-0.642303,11248,-13333,-16656,-8994,-28662
21702,-9.77129,-0.0765625,-1.10537,168.327,85.3033,24.7028,0.12207,-2.80762,-0.427246,0.217255,0.700012,0.223816,-0.642303,12016,-14613,-15120,-8994,-28662
21708,-9.81914,-0.0861328,-1.15801,168.261,85.3638,24.6259,0.183105,-7.62939,-0.12207,0.217194,0.699829,0.223724,-0.642578,12016,-15637,-13328,-8994,-28662
21714,-9.74258,-0.0334961,-1.06709,168.184,85.4077,24.538,0,-9.58252,0,0.217224,0.699615,0.223633,-0.642822,11248,-15893,-12304,-8994,-28662
21720,-9.79043,-0.062207,-1.02402,168.102,85.4626,24.4501,-0.0610352,-11.3525,-0.305176,0.217255,0.699371,0.223511,-0.643127,10224,-15381,-12304,-8994,-28662
21726,-9.79521,-0.0765625,-0.904395,168.014,85.5231,24.3567,-0.244141,-12.5732,-0.488281,0.217285,0.699066,0.223419,-0.643463,9968,-15381,-12816,-8994,-28662
21732,-9.8335,-0.0574219,-0.837402,167.91,85.5835,24.2523,-0.671387,-12.8784,-0.427246,0.217346,0.69873,0.223297,-0.64386,10224,-14613,-16912,-8994,-28662
21738,-9.80479,0.0382813,-0.693848,167.684,85.6989,24.0216,-1.15967,-11.8408,0,0.217499,0.698029,0.223083,-0.644623,11248,-14357,-17936,-8994,-28662
21744,-9.79521,0.0574219,-0.579004,167.629,85.7538,23.9667,-1.40381,-10.8032,-0.915527,0.21759,0.697723,0.222992,-0.644989,11760,-14357,-18704,-8994,-28662
21750,-9.77129,0.0526367,-0.545508,167.591,85.7977,23.9282,-1.58691,-9.15527,-0.793457,0.217651,0.697418,0.222961,-0.645325,12016,-14101,-18960,-8994,-28662
21756,-9.85264,-0.00478516,-0.540723,167.585,85.8307,23.9282,-1.40381,-7.26318,-0.976562,0.217712,0.697144,0.222931,-0.645569,12016,-13845,-18448,-8994,-28662
21762,-9.79521,0.00478516,-0.526367,167.591,85.8582,23.9337,-1.40381,-5.24902,-0.671387,0.217743,0.69693,0.2229,-0.645813,10736,-13589,-17168,-8994,-28662
21768,-9.80957,0.0191406,-0.531152,167.673,85.8801,24.0106,-0.488281,-1.46484,-0.610352,0.217773,0.696686,0.222931,-0.646057,9968,-12821,-17424,-8994,-28662
21774,-9.77129,0.0143555,-0.535937,167.75,85.8746,24.082,-0.12207,0.12207,-0.488281,0.217743,0.696655,0.222931,-0.646088,9456,-12821,-17936,-8994,-28662
21780,-9.78086,-0.00957031,-0.569434,167.871,85.8691,24.2029,0.12207,1.64795,-0.854492,0.217682,0.696655,0.222931,-0.646118,8944,-12821,-19216,-8994,-28662
21786,-9.81436,-0.0717773,-0.593359,167.992,85.8582,24.3182,0.244141,2.62451,-0.610352,0.21759,0.696716,0.222961,-0.646057,8944,-13333,-21008,-8985,-28663
21792,-9.79521,-0.0765625,-0.655566,168.107,85.8417,24.4281,0.244141,3.35693,-0.305176,0.217499,0.696808,0.222992,-0.645996,10736,-14357,-24848,-8985,-28663
21798,-9.76172,-0.0526367,-0.76084,168.294,85.8032,24.6039,0.366211,3.72314,0.183105,0.217316,0.697021,0.223053,-0.645813,11504,-14357,-26640,-8985,-28663
21804,-9.78564,-0.0526367,-0.799121,168.376,85.7867,24.6808,0.427246,3.11279,0.0610352,0.217255,0.697144,0.223053,-0.645721,12272,-15125,-26896,-8985,-28663
21810,-9.79043,-0.0334961,-0.875684,168.453,85.7758,24.7522,0.671387,2.38037,0,0.217163,0.697235,0.223083,-0.64563,12784,-15381,-26384,-8985,-28663
21816,-9.79043,-0.0287109,-0.894824,168.508,85.7648,24.7961,0.610352,1.52588,0.183105,0.217072,0.697296,0.223083,-0.645569,12784,-16405,-24336,-8985,-28663
21822,-9.78564,-0.0287109,-0.861328,168.58,85.7648,24.8621,0.854492,0.366211,-0.305176,0.21701,0.697357,0.223053,-0.645538,13296,-18197,-22032,-8985,-28663
21828,-9.77607,-0.0765625,-0.846973,168.64,85.7758,24.9005,0.854492,-1.40381,0.183105,0.216858,0.697388,0.222992,-0.645569,13808,-18709,-21520,-8985,-28663
21834,-9.8,-0.062207,-0.789551,168.629,85.7812,24.8785,0.732422,-2.0752,0.488281,0.216797,0.697388,0.222931,-0.64563,14064,-19733,-21264,-8985,-28663
21840,-9.81436,-0.0382813,-0.789551,168.635,85.7922,24.8785,0.671387,-2.31934,0.12207,0.216766,0.697357,0.22287,-0.645691,14576,-20245,-19472,-8985,-28663
21846,-9.78086,-0.00957031,-0.765625,168.64,85.8032,24.873,0.793457,-2.31934,0.183105,0.216705,0.697296,0.222839,-0.645782,14320,-20245,-17936,-8985,-28663
21852,-9.77129,-0.00478516,-0.75127,168.657,85.8142,24.884,0.610352,-2.19727,0,0.216675,0.697266,0.222778,-0.645874,14832,-20757,-17168,-8985,-28663
21858,-9.78086,-0.0478516,-0.732129,168.673,85.8307,24.884,0.610352,-1.52588,0.305176,0.216583,0.697174,0.222656,-0.646027,14832,-21269,-17936,-8985,-28663
21864,-9.83828,-0.0239258,-0.722559,168.701,85.8362,24.906,0.305176,-1.2207,0,0.216553,0.697144,0.222626,-0.646088,14832,-22037,-18704,-8985,-28663
21870,-9.77607,-0.0191406,-0.741699,168.728,85.8362,24.928,0.183105,-1.09863,0.0610352,0.216492,0.697144,0.222595,-0.646118,15088,-22805,-19728,-8985,-28663
21876,-9.8,-0.0143555,-0.741699,168.772,85.8417,24.9664,0.12207,-0.305176,-0.0610352,0.216461,0.697113,0.222565,-0.646179,15088,-23317,-19728,-8985,-28663
21882,-9.8,-0.0574219,-0.712988,168.816,85.8417,25.0049,-0.0610352,-0.244141,-0.0610352,0.21637,0.697113,0.222534,-0.64621,14320,-24085,-20240,-8985,-28663
21888,-9.80479,-0.0382813,-0.76084,168.86,85.8362,25.0433,-0.427246,0,0.427246,0.216339,0.697144,0.222534,-0.64621,14320,-24085,-20496,-8985,-28663
21894,-9.79043,0.00957031,-0.756055,168.915,85.8362,25.0928,-0.610352,0.12207,-0.183105,0.216309,0.697144,0.222504,-0.64621,13552,-23573,-21264,-8985,-28663
21900,-9.77129,0.0191406,-0.717773,168.975,85.8362,25.1587,-0.549316,0.12207,-0.366211,0.216278,0.697144,0.222534,-0.64621,12528,-22805,-20496,-8985,-28663
21906,-9.77129,-0.0239258,-0.703418,169.069,85.8362,25.2466,-0.183105,0.183105,-0.732422,0.216217,0.697144,0.222565,-0.64621,12016,-22549,-19984,-8985,-28663
21912,-9.8,-0.0287109,-0.746484,169.162,85.8362,25.3345,0,0.244141,-0.732422,0.216095,0.697174,0.222595,-0.64621,9968,-22037,-18704,-8985,-28663
21918,-9.79043,-0.0143555,-0.799121,169.31,85.8362,25.4718,0.12207,0,-0.488281,0.216034,0.697174,0.222595,-0.64624,9712,-22293,-19984,-8985,-28663
21924,-9.74258,-0.0239258,-0.808691,169.371,85.8362,25.5267,0.427246,-0.488281,-0.366211,0.215973,0.697174,0.222595,-0.64624,9456,-22293,-20752,-8985,-28663
21930,-9.79521,-0.0430664,-0.842188,169.426,85.8417,25.5707,0.549316,-1.28174,-0.366211,0.215912,0.697174,0.222565,-0.646271,9712,-22037,-20752,-8985,-28663
21936,-9.81436,-0.0382813,-0.851758,169.464,85.8527,25.6036,0.610352,-2.01416,-0.305176,0.215851,0.697144,0.222565,-0.646332,9968,-21525,-21264,-8985,-28663
21942,-9.77129,-0.0239258,-0.870898,169.503,85.8691,25.6366,0.671387,-3.17383,-0.549316,0.215759,0.697021,0.222473,-0.646515,10736,-19733,-19216,-8985,-28663
21948,-9.80957,-0.0574219,-0.842188,169.568,85.9131,25.686,0.610352,-5.12695,-0.732422,0.215729,0.69693,0.222443,-0.646667,10992,-18453,-20240,-8985,-28663
21954,-9.82871,-0.0574219,-0.789551,169.574,85.9406,25.686,0.671387,-5.85938,-0.488281,0.215698,0.696777,0.222382,-0.64682,11504,-17941,-22544,-8985,-28663
21960,-9.80957,-0.0191406,-0.746484,169.563,85.968,25.6696,0.793457,-6.22559,-0.366211,0.215668,0.696625,0.222321,-0.647034,12016,-17685,-25104,-8985,-28663
21966,-9.77129,-0.0191406,-0.684277,169.557,86.001,25.6531,0.854492,-6.22559,-0.366211,0.215668,0.696472,0.22226,-0.647217,12016,-17173,-27408,-8985,-28663
21972,-9.76172,-0.0143555,-0.636426,169.557,86.0284,25.6421,0.915527,-6.10352,-0.427246,0.215637,0.696167,0.222107,-0.647614,12016,-15893,-29456,-8985,-28663
21978,-9.82871,-0.00478516,-0.6125,169.623,86.0779,25.697,0.610352,-4.5166,-0.854492,0.215607,0.696014,0.222046,-0.647797,11760,-15381,-28944,-8985,-28663
21984,-9.8,-0.0191406,-0.60293,169.667,86.0944,25.741,0.549316,-3.72314,-0.732422,0.215576,0.695892,0.222015,-0.647949,12016,-14869,-28688,-8985,-28663
21990,-9.77607,-0.0430664,-0.598145,169.728,86.1053,25.7904,0.488281,-2.68555,-0.671387,0.215546,0.695801,0.221985,-0.648071,12016,-14613,-29456,-8985,-28663
21996,-9.81436,-0.062207,-0.588574,169.805,86.1163,25.8618,0.488281,-1.77002,-0.793457,0.215485,0.69574,0.221985,-0.648163,12272,-14357,-30736,-8985,-28663
22002,-9.79521,-0.0574219,-0.574219,169.882,86.1163,25.9387,0.305176,-0.732422,-0.610352,0.215393,0.695679,0.221985,-0.648254,12016,-13845,32240,-8985,-28663
22008,-9.79521,-0.0478516,-0.655566,170.008,86.1108,26.0596,0.0610352,0.610352,-0.0610352,0.215363,0.695679,0.221985,-0.648254,11504,-12821,30192,-8985,-28663
22014,-9.79521,-0.0191406,-0.655566,170.074,86.1053,26.1255,0,1.09863,-0.183105,0.215302,0.695709,0.222015,-0.648254,10992,-12309,28400,-8985,-28663
22020,-9.81914,-0.00478516,-0.708203,170.14,86.0999,26.1914,0,1.0376,-0.183105,0.215271,0.69574,0.222046,-0.648224,10736,-12053,28400,-8985,-28663
22026,-9.78564,-0.0382813,-0.717773,170.211,86.0944,26.2573,0.12207,1.15967,-0.244141,0.21524,0.69577,0.222046,-0.648193,10224,-11797,30192,-8985,-28663
22032,-9.8,-0.0669922,-0.717773,170.261,86.0889,26.3068,0,0.793457,0,0.215149,0.695831,0.222076,-0.648132,10992,-12565,-29712,-8985,-28663
22038,-9.79521,-0.0382813,-0.732129,170.354,86.0834,26.3947,-0.12207,0.244141,0,0.215118,0.695862,0.222107,-0.648132,10992,-13077,-28688,-8985,-28663
22044,-9.77607,-0.0287109,-0.698633,170.392,86.0834,26.4276,0.12207,0,0,0.215088,0.695862,0.222107,-0.648102,10992,-13589,-29456,-8985,-28663
22050,-9.78564,-0.0143555,-0.717773,170.431,86.0834,26.4661,0,-0.12207,0,0.215057,0.695862,0.222107,-0.648132,11248,-13845,-30480,-8985,-28663
22056,-9.80957,-0.00957031,-0.693848,170.458,86.0834,26.4935,0.0610352,-0.244141,0.0610352,0.215027,0.695892,0.222107,-0.648132,10736,-13845,-30736,-8985,-28663
22062,-9.8,-0.0478516,-0.684277,170.519,86.0834,26.5485,0.0610352,0,-0.244141,0.214966,0.695892,0.222107,-0.648132,11504,-13589,-27920,-8985,-28663
22068,-9.8,-0.0191406,-0.679492,170.634,86.0834,26.6583,0.12207,0.549316,-0.427246,0.214935,0.695892,0.222107,-0.648132,12016,-13333,-26384,-8985,-28663
22074,-9.81436,-0.0478516,-0.665137,170.717,86.0779,26.7352,0,0.854492,-0.488281,0.214874,0.695923,0.222137,-0.648132,12272,-12821,-25616,-8985,-28663
22080,-9.79043,-0.062207,-0.660352,170.81,86.0724,26.8286,-0.0610352,0.976562,-0.610352,0.214813,0.695923,0.222168,-0.648132,12016,-12565,-26384,-8985,-28663
22086,-9.78086,-0.0574219,-0.684277,170.876,86.0669,26.8945,0,1.0376,-0.244141,0.214752,0.695953,0.222198,-0.648102,12016,-12309,-28688,-8985,-28663
22092,-9.77129,-0.0382813,-0.75127,170.942,86.0614,26.9604,0,0.915527,-0.305176,0.214691,0.696014,0.222229,-0.648041,10480,-12309,32752,-8985,-28663
22098,-9.81914,-0.0478516,-0.765625,171.041,86.0559,27.0538,0.12207,0.183105,-0.0610352,0.21463,0.696045,0.22226,-0.648041,10224,-12821,30704,-8985,-28663
22104,-9.82393,-0.0239258,-0.741699,171.096,86.0559,27.1088,0.0610352,-0.0610352,-0.305176,0.2146,0.696045,0.22226,-0.648041,9712,-13077,29680,-8985,-28663
22110,-9.80479,-0.0287109,-0.77998,171.14,86.0614,27.1472,0,-0.793457,-0.183105,0.214569,0.696045,0.22226,-0.648041,9456,-12565,28912,-8985,-28663
22116,-9.78086,-0.0287109,-0.736914,171.178,86.0669,27.1857,0,-1.15967,-0.244141,0.214569,0.696014,0.22226,-0.648071,9456,-12565,29168,-8985,-28663
22122,-9.82871,-0.0861328,-0.732129,171.227,86.0724,27.2296,0,-1.28174,-0.305176,0.214508,0.695953,0.22229,-0.648163,10992,-12565,30704,-8985,-28663
22128,-9.81914,-0.0526367,-0.717773,171.255,86.0889,27.2571,0.0610352,-1.52588,0.244141,0.214508,0.695923,0.22226,-0.648224,12272,-13333,31216,-8985,-28663
22134,-9.8,-0.0287109,-0.703418,171.277,86.0944,27.2736,0.244141,-1.52588,0,0.214478,0.695862,0.22226,-0.648254,13040,-13845,30704,-8985,-28663
22140,-9.80957,-0.0430664,-0.693848,171.293,86.0999,27.29,0.183105,-1.70898,0.0610352,0.214478,0.695831,0.222229,-0.648315,13296,-14101,29936,-8985,-28663
22146,-9.80957,-0.0382813,-0.698633,171.31,86.1108,27.3065,0.183105,-1.58691,0,0.214447,0.695801,0.222229,-0.648376,13552,-15125,30704,-8985,-28663
22152,-9.81436,-0.062207,-0.684277,171.348,86.1163,27.3395,0.244141,-1.52588,-0.183105,0.214417,0.695709,0.222198,-0.648468,15344,-16405,30448,-8985,-28663
22158,-9.84307,-0.062207,-0.727344,171.381,86.1273,27.3669,0.305176,-1.64795,0.12207,0.214417,0.695679,0.222168,-0.648529,16112,-16917,30704,-8985,-28663
22164,-9.8,-0.0478516,-0.703418,171.381,86.1383,27.3615,0.366211,-1.70898,0.305176,0.214386,0.695648,0.222168,-0.64856,16880,-16917,30448,-8985,-28663
22170,-9.78086,-0.0430664,-0.679492,171.381,86.1438,27.3615,0.305176,-1.70898,0.244141,0.214386,0.695618,0.222137,-0.648621,16368,-16405,30704,-8985,-28663
22176,-9.80479,-0.0526367,-0.693848,171.387,86.1548,27.3615,0.427246,-1.64795,0.244141,0.214355,0.695587,0.222107,-0.648682,16112,-16405,32240,-8985,-28663
22182,-9.79521,-0.0478516,-0.665137,171.403,86.1603,27.3724,0.305176,-1.77002,0.0610352,0.214325,0.695496,0.222046,-0.648804,15856,-16405,-30992,-8985,-28663
22188,-9.79043,-0.0430664,-0.655566,171.42,86.1768,27.3834,0.366211,-1.46484,0.488281,0.214294,0.695465,0.222046,-0.648865,17136,-16405,-29712,-8985,-28663
22194,-9.81914,-0.0526367,-0.626855,171.425,86.1823,27.3834,0.610352,-1.15967,0.305176,0.214294,0.695435,0.221985,-0.648895,17392,-16149,-29456,-8985,-28663
22200,-9.79521,-0.0143555,-0.607715,171.431,86.1823,27.3834,0.427246,-0.610352,0.366211,0.214264,0.695404,0.221954,-0.648926,17648,-15637,-29456,-8985,-28663
22206,-9.81436,-0.00957031,-0.636426,171.458,86.1823,27.4109,0.366211,-0.305176,0.12207,0.214233,0.695404,0.221924,-0.648956,18416,-15381,-29712,-8985,-28663
22212,-9.80479,-0.00957031,-0.626855,171.519,86.1823,27.4658,0.305176,0.0610352,-0.305176,0.214172,0.695404,0.221924,-0.648987,18672,-15381,32752,-8985,-28663
22218,-9.82393,-0.0478516,-0.655566,171.661,86.1768,27.5977,0.427246,0.976562,-0.305176,0.214111,0.695435,0.221954,-0.648956,18160,-15893,32240,-8985,-28663
22224,-9.8,-0.0574219,-0.674707,171.727,86.1713,27.6636,0.427246,1.0376,-0.244141,0.21405,0.695465,0.221954,-0.648956,18160,-16405,32240,-8985,-28663
22230,-9.81914,-0.062207,-0.689063,171.771,86.1603,27.702,0.0610352,1.40381,0.12207,0.21402,0.695496,0.221954,-0.648926,17392,-16149,-32016,-8985,-28663
22236,-9.80479,-0.0382813,-0.693848,171.81,86.1548,27.7405,0.0610352,1.40381,0.12207,0.213989,0.695526,0.221985,-0.648895,16624,-16149,-31248,-8985,-28663
22242,-9.8,-0.0382813,-0.722559,171.848,86.1493,27.7789,0.12207,1.28174,0.183105,0.213898,0.695618,0.222015,-0.648804,15856,-15381,-31504,-8985,-28663
22248,-9.78086,-0.0382813,-0.708203,171.964,86.1328,27.8888,0.0610352,1.09863,-0.427246,0.213867,0.695648,0.222015,-0.648773,15344,-15381,-31760,-8985,-28663
22254,-9.82393,-0.0669922,-0.712988,171.996,86.1328,27.9218,0,0.793457,0.12207,0.213837,0.695679,0.222046,-0.648743,14832,-15125,-32272,-8985,-28663
22260,-9.80479,-0.0669922,-0.736914,172.035,86.1273,27.9547,-0.12207,0.610352,0.0610352,0.213806,0.695709,0.222046,-0.648743,14576,-15893,-31760,-8985,-28663
22266,-9.56074,-0.00478516,-0.689063,172.051,86.1273,27.9767,-0.0610352,0.305176,0.244141,0.213776,0.69574,0.222076,-0.648712,14064,-16149,-31504,-8985,-28663
22272,-9.52725,0,-0.665137,172.079,86.1273,28.0042,-0.244141,-0.183105,0.366211,0.213745,0.69574,0.222076,-0.648712,14064,-16917,-32272,-8985,-28663
22278,-9.77129,0,-0.674707,172.106,86.1273,28.0261,-0.366211,-0.0610352,0.183105,0.213745,0.69574,0.222076,-0.648712,14576,-17173,32240,-8985,-28663
22284,-9.8957,-0.0143555,-0.674707,172.139,86.1273,28.0591,-0.0610352,-0.0610352,0,0.213745,0.69574,0.222076,-0.648712,15856,-16917,30960,-8985,-28663
22290,-9.69951,-0.00478516,-0.679492,172.205,86.1218,28.125,-0.0610352,0.244141,-0.427246,0.213715,0.69574,0.222076,-0.648712,16368,-16661,29680,-8985,-28663
22296,-9.88613,-0.0669922,-0.693848,172.282,86.1218,28.2019,-0.0610352,0.12207,-0.549316,0.213684,0.69574,0.222107,-0.648712,16368,-16661,27888,-8985,-28663
22302,-9.81914,-0.0765625,-0.712988,172.326,86.1218,28.2458,0.12207,-0.0610352,0,0.213623,0.69574,0.222168,-0.648712,15600,-16661,25584,-8985,-28663
22308,-9.7665,-0.0287109,-0.722559,172.386,86.1218,28.3008,0.244141,-0.244141,0.12207,0.213593,0.69574,0.222168,-0.648712,15344,-17429,25328,-8985,-28663
22314,-9.81436,-0.0382813,-0.727344,172.419,86.1273,28.3337,0.0610352,-0.488281,-0.0610352,0.213562,0.69574,0.222168,-0.648743,14576,-17685,26608,-8985,-28663
22320,-9.85742,-0.062207,-0.708203,172.436,86.1273,28.3502,0.244141,-0.976562,0.12207,0.213562,0.69574,0.222168,-0.648743,14576,-18453,28656,-8985,-28663
22326,-9.75215,-0.0287109,-0.679492,172.447,86.1328,28.3557,0.12207,-0.854492,0.244141,0.213531,0.695709,0.222137,-0.648773,14576,-19221,29680,-8985,-28663
22332,-9.79521,-0.0334961,-0.626855,172.447,86.1328,28.3502,0.244141,-0.0610352,0,0.213501,0.695679,0.222107,-0.648834,14576,-18965,29424,-8985,-28663
22338,-9.81436,-0.0574219,-0.607715,172.513,86.1328,28.4161,-0.183105,0.488281,0.0610352,0.213501,0.695709,0.222107,-0.648834,14576,-19477,29424,-8985,-28663
22344,-9.8,-0.062207,-0.579004,172.546,86.1273,28.4491,0,1.46484,0.183105,0.21347,0.695709,0.222137,-0.648804,14832,-19733,29168,-8985,-28663
22350,-9.79043,-0.0478516,-0.598145,172.59,86.1163,28.4875,0.12207,2.13623,0.183105,0.21344,0.69574,0.222137,-0.648773,14832,-19477,28912,-8985,-28663
22356,-9.84307,-0.0239258,-0.641211,172.623,86.0999,28.526,0,2.80762,0.305176,0.213409,0.695831,0.222168,-0.648712,15088,-19221,28912,-8985,-28663
22362,-9.79521,-0.0143555,-0.722559,172.661,86.0834,28.559,0.12207,2.92969,0.0610352,0.213318,0.695984,0.222198,-0.64856,14832,-17941,28912,-8985,-28663
22368,-9.78564,-0.00957031,-0.732129,172.776,86.0559,28.6688,0.244141,2.56348,0,0.213257,0.696075,0.222229,-0.648468,14832,-17941,28656,-8985,-28663
22374,-9.81436,-0.0478516,-0.827832,172.853,86.0504,28.7457,0.366211,1.89209,-0.366211,0.213226,0.696136,0.22226,-0.648376,15600,-18453,29168,-8985,-28663
22380,-9.79521,-0.0287109,-0.832617,172.908,86.0449,28.8007,0.12207,0.915527,-0.244141,0.213165,0.696198,0.22229,-0.648346,16112,-18453,29680,-8985,-28663
22386,-9.79521,-0.0478516,-0.803906,172.941,86.0449,28.8281,0.244141,-0.0610352,0,0.213104,0.696228,0.22229,-0.648315,16880,-19733,29424,-8985,-28663
22392,-9.79043,-0.0430664,-0.832617,172.969,86.0504,28.8556,0.305176,-2.0752,0.305176,0.213074,0.696198,0.22229,-0.648376,16880,-19989,28656,-8985,-28663
22398,-9.79521,-0.0430664,-0.799121,172.958,86.0724,28.8391,0.427246,-2.92969,0.183105,0.213074,0.696136,0.22226,-0.648438,16880,-20245,27888,-8985,-28663
22404,-9.8,-0.0430664,-0.784766,172.952,86.0889,28.8281,0.366211,-3.54004,0.12207,0.213074,0.696075,0.222229,-0.648529,17136,-21013,26864,-8985,-28663
22410,-9.79521,-0.0239258,-0.736914,172.952,86.1108,28.8226,0.427246,-4.15039,0,0.213074,0.695984,0.222198,-0.648651,17136,-20757,25840,-8985,-28663
22416,-9.80957,-0.0239258,-0.665137,172.963,86.1273,28.8281,0.488281,-4.27246,-0.183105,0.213074,0.695862,0.222137,-0.648773,18160,-21269,25328,-8985,-28663
22422,-9.80957,-0.0478516,-0.607715,172.974,86.1658,28.8391,0.366211,-3.78418,-0.183105,0.213074,0.695648,0.222046,-0.649048,18672,-20757,25328,-8985,-28663
22428,-9.78086,-0.0430664,-0.6125,172.98,86.1823,28.8391,0.366211,-3.05176,0.0610352,0.213074,0.695557,0.222015,-0.64917,19440,-20757,25328,-8985,-28663
22434,-9.80479,-0.0382813,-0.579004,173.002,86.1932,28.8556,0.671387,-2.13623,-0.0610352,0.213074,0.695465,0.221985,-0.649261,19184,-19989,25072,-8985,-28663
22440,-9.78564,-0.0287109,-0.569434,172.991,86.1987,28.8391,0.854492,-1.40381,0.427246,0.213043,0.695404,0.221954,-0.649323,19184,-19733,25584,-8985,-28663
22446,-9.81436,-0.0239258,-0.6125,173.035,86.2042,28.8776,0.610352,-1.09863,-0.244141,0.213043,0.695404,0.221924,-0.649384,19184,-18709,25328,-8985,-28663
22452,-9.80957,-0.0143555,-0.636426,173.117,86.2042,28.9545,0.488281,-0.0610352,-0.244141,0.212982,0.695374,0.221893,-0.649414,19184,-17941,24560,-8985,-28663
22458,-9.77129,-0.0574219,-0.62207,173.167,86.2042,29.0039,0.488281,0.488281,-0.183105,0.212952,0.695374,0.221893,-0.649445,19184,-17429,23024,-8985,-28663
22464,-9.81436,-0.0526367,-0.655566,173.232,86.1987,29.0643,0.549316,1.0376,-0.244141,0.212891,0.695374,0.221893,-0.649445,19440,-17173,22256,-8985,-28663
22470,-9.8,-0.0574219,-0.62207,173.254,86.1932,29.0863,0.488281,1.15967,0.244141,0.21286,0.695404,0.221924,-0.649414,19440,-16917,23024,-8985,-28663
22476,-9.82393,-0.0287109,-0.655566,173.287,86.1823,29.1193,0.183105,1.58691,0.183105,0.21283,0.695465,0.221924,-0.649384,18416,-16405,25328,-8985,-28663
22482,-9.78564,-0.00478516,-0.636426,173.364,86.1658,29.1852,0.366211,2.13623,0,0.212769,0.695557,0.221954,-0.649292,17648,-16149,26864,-8985,-28663
22488,-9.79521,-0.0382813,-0.684277,173.419,86.1548,29.2456,0.366211,2.13623,-0.12207,0.212708,0.695618,0.221954,-0.649231,17648,-16149,27120,-8985,-28663
22494,-9.79043,-0.0239258,-0.717773,173.458,86.1438,29.2786,0.12207,1.95312,0.12207,0.212677,0.695679,0.221985,-0.64917,17904,-15637,26864,-8985,-28663
22500,-9.79521,-0.0478516,-0.722559,173.507,86.1328,29.328,0.244141,1.89209,0,0.212616,0.69574,0.222015,-0.649109,18928,-15893,26608,-8985,-28663
22506,-9.81914,-0.0669922,-0.75127,173.551,86.1273,29.3665,0.244141,1.52588,0,0.212585,0.695801,0.222015,-0.649048,20976,-15381,26608,-8985,-28663
22512,-9.81436,-0.0239258,-0.732129,173.595,86.1163,29.4104,0.244141,0.671387,0.12207,0.212524,0.695862,0.222046,-0.648987,21232,-15125,26864,-8985,-28663
22518,-9.79043,-0.0430664,-0.736914,173.622,86.1163,29.4379,0.305176,0.305176,0.0610352,0.212494,0.695892,0.222046,-0.648956,20720,-14357,27120,-8985,-28663
22524,-9.78564,-0.0191406,-0.732129,173.666,86.1108,29.4763,0.183105,0.12207,-0.12207,0.212463,0.695892,0.222046,-0.648956,19696,-13845,27120,-8985,-28663
22530,-9.81436,-0.0430664,-0.722559,173.694,86.1108,29.5038,0.0610352,0.183105,0.0610352,0.212463,0.695892,0.222076,-0.648956,18928,-13077,26352,-8985,-28663
22536,-9.78564,-0.0239258,-0.645996,173.732,86.1108,29.5422,0.183105,0.183105,-0.12207,0.212433,0.695923,0.222076,-0.648956,18160,-11541,26096,-8985,-28663
22542,-9.77607,-0.0191406,-0.660352,173.82,86.1108,29.6246,0.305176,0.427246,-0.12207,0.212402,0.695923,0.222107,-0.648956,17392,-11029,25584,-8985,-28663
22548,-9.77607,-0.0526367,-0.674707,173.853,86.1053,29.6631,0.0610352,0.427246,-0.0610352,0.212372,0.695923,0.222107,-0.648956,17136,-10517,25840,-8985,-28663
22554,-9.79521,-0.0382813,-0.712988,173.886,86.1053,29.696,0,0.427246,0,0.212341,0.695953,0.222137,-0.648926,17136,-10005,24816,-8985,-28663
22560,-9.8,-0.0382813,-0.741699,173.903,86.1053,29.7125,-0.12207,0,0.183105,0.212311,0.695953,0.222137,-0.648926,17136,-10517,24304,-8985,-28663
22566,-9.80957,-0.0430664,-0.732129,173.919,86.1053,29.729,0,-0.183105,0.12207,0.212311,0.695953,0.222137,-0.648926,16624,-11797,23792,-8985,-28663
22572,-9.80479,0,-0.75127,174.001,86.1108,29.8059,0,-1.2207,-0.183105,0.21228,0.695923,0.222168,-0.648956,16112,-12565,24304,-8985,-28663
22578,-9.80479,-0.0334961,-0.746484,174.045,86.1218,29.8499,0.0610352,-1.52588,-0.366211,0.21228,0.695892,0.222168,-0.648987,14320,-13077,25840,-8985,-28663
22584,-9.78086,-0.0478516,-0.698633,174.117,86.1273,29.9213,0.0610352,-1.64795,-0.793457,0.21228,0.695862,0.222168,-0.649048,13296,-12821,26608,-8985,-28663
22590,-9.81914,-0.0813477,-0.689063,174.15,86.1383,29.9542,0,-1.83105,-0.244141,0.21225,0.695801,0.222198,-0.649109,13040,-13333,28144,-8985,-28663
22596,-9.8,-0.0717773,-0.650781,174.172,86.1438,29.9762,0.0610352,-1.70898,-0.0610352,0.21225,0.69574,0.222198,-0.64917,13296,-13333,29168,-8985,-28663
22602,-9.79521,-0.0669922,-0.631641,174.188,86.1548,29.9872,0.183105,-1.28174,0.12207,0.212219,0.695679,0.222168,-0.649261,14320,-13333,28656,-8985,-28663
22608,-9.78564,-0.0526367,-0.636426,174.194,86.1603,29.9927,0.12207,-0.915527,0.244141,0.212219,0.695648,0.222137,-0.649292,14576,-13077,27888,-8985,-28663
22614,-9.80479,-0.0143555,-0.617285,174.205,86.1658,29.9982,0.366211,-0.793457,0.183105,0.212219,0.695618,0.222137,-0.649323,15344,-13333,27120,-8985,-28663
22620,-9.8,0,-0.655566,174.227,86.1658,30.0201,0.183105,-0.427246,0.0610352,0.212189,0.695587,0.222107,-0.649353,16624,-13333,26608,-8985,-28663
22626,-9.77607,-0.0143555,-0.645996,174.271,86.1658,30.0641,0.244141,0,-0.183105,0.212189,0.695587,0.222107,-0.649353,18160,-13589,28656,-8985,-28663
22632,-9.79043,-0.062207,-0.650781,174.359,86.1603,30.1465,0.305176,0.488281,0,0.212128,0.695587,0.222137,-0.649384,18416,-13333,29424,-8985,-28663
22638,-9.8335,-0.0813477,-0.684277,174.419,86.1603,30.2069,0.183105,0.671387,-0.366211,0.212097,0.695618,0.222137,-0.649353,18672,-13077,30192,-8985,-28663
22644,-9.78564,-0.0574219,-0.689063,174.419,86.1548,30.2069,0,0.671387,0.488281,0.212067,0.695618,0.222168,-0.649353,18416,-13077,29680,-8985,-28663
22650,-9.76172,-0.0430664,-0.698633,174.419,86.1493,30.2069,0,0.427246,0.427246,0.212067,0.695648,0.222168,-0.649323,18672,-13589,28912,-8985,-28663
22656,-9.8,-0.0287109,-0.727344,174.43,86.1493,30.2179,0,0.244141,0.244141,0.212036,0.695679,0.222168,-0.649292,17904,-13845,26864,-8985,-28663
22662,-9.7665,0.00957031,-0.689063,174.496,86.1493,30.2838,0.183105,0.12207,-0.183105,0.212036,0.695679,0.222198,-0.649292,18160,-13845,26352,-8985,-28663
22668,-9.79521,-0.0382813,-0.698633,174.573,86.1438,30.3607,0.183105,0.488281,-0.610352,0.212006,0.695679,0.222198,-0.649292,18160,-14101,25584,-8985,-28663
22674,-9.78086,-0.062207,-0.679492,174.644,86.1438,30.4266,0.183105,0.305176,-0.549316,0.211975,0.695709,0.222229,-0.649292,18416,-13845,25072,-8985,-28663
22680,-9.82393,-0.062207,-0.717773,174.699,86.1383,30.4816,0.0610352,0.488281,-0.305176,0.211914,0.695709,0.22226,-0.649292,18928,-13845,23792,-8985,-28663
22686,-9.79043,-0.062207,-0.674707,174.749,86.1383,30.531,0.183105,0.427246,-0.244141,0.211884,0.69574,0.22229,-0.649261,20464,-15125,22512,-8985,-28663
22692,-9.77129,-0.0334961,-0.746484,174.803,86.1383,30.5804,0.183105,0.0610352,0.0610352,0.211853,0.69574,0.22229,-0.649261,21488,-15637,23536,-8985,-28663
22698,-9.80479,-0.0430664,-0.75127,174.825,86.1383,30.6024,0.183105,-0.610352,0,0.211823,0.69574,0.222321,-0.649261,22000,-16405,25328,-8985,-28663
22704,-9.81914,-0.062207,-0.722559,174.825,86.1438,30.6024,0.12207,-1.2207,0.305176,0.211823,0.69574,0.22229,-0.649292,22256,-16661,26864,-8985,-28663
22710,-9.80957,-0.0669922,-0.732129,174.825,86.1493,30.6024,0.305176,-1.64795,0.244141,0.211823,0.695709,0.22229,-0.649323,22256,-16917,27120,-8985,-28663
22716,-9.80479,-0.0430664,-0.703418,174.82,86.1603,30.5969,0.183105,-2.01416,0.244141,0.211823,0.695618,0.222229,-0.649414,20720,-16405,25328,-8985,-28663
22722,-9.78564,0.00478516,-0.655566,174.76,86.1823,30.531,0,-2.2583,0.610352,0.211853,0.695557,0.222198,-0.649475,19952,-16149,24048,-8985,-28663
22728,-9.79043,-0.062207,-0.626855,174.765,86.1877,30.5365,0,-1.89209,0.12207,0.211884,0.695496,0.222198,-0.649536,19184,-15637,23792,-8985,-28663
22734,-9.79043,-0.062207,-0.645996,174.76,86.1987,30.531,0.12207,-1.70898,0.244141,0.211884,0.695435,0.222168,-0.649597,18160,-15381,24048,-8985,-28663
22740,-9.78086,-0.0574219,-0.641211,174.76,86.2042,30.531,-0.0610352,-1.40381,0.244141,0.211884,0.695404,0.222168,-0.649658,16880,-15637,23024,-8985,-28663
22746,-9.80957,-0.00957031,-0.62207,174.743,86.2097,30.5145,0,-1.2207,0.488281,0.211914,0.695343,0.222137,-0.649719,14576,-15893,24304,-8985,-28663
22752,-9.8,-0.0143555,-0.617285,174.847,86.2152,30.6134,0.0610352,-0.427246,-0.366211,0.211884,0.695312,0.222137,-0.64975,13808,-15637,25840,-8985,-28663
22758,-9.8,-0.0382813,-0.626855,174.908,86.2152,30.6738,0.305176,-0.12207,-0.488281,0.211884,0.695282,0.222168,-0.64978,14064,-15893,29680,-8985,-28663
22764,-9.78564,-0.0526367,-0.655566,174.974,86.2152,30.7343,0.549316,0.12207,-0.427246,0.211823,0.695282,0.222168,-0.64978,14064,-15637,-32528,-8985,-28663
22770,-9.80479,-0.0526367,-0.660352,175.012,86.2152,30.7727,0.305176,0.244141,-0.183105,0.211792,0.695312,0.222168,-0.649811,14064,-15125,-29712,-8985,-28663
22776,-9.79043,-0.0765625,-0.679492,175.034,86.2097,30.7947,0.244141,0.305176,0.12207,0.211731,0.695312,0.222168,-0.64978,15344,-15125,-28944,-8985,-28663
22782,-9.80479,-0.0239258,-0.693848,175.078,86.2097,30.8331,0.244141,0,0.305176,0.2117,0.695343,0.222168,-0.64978,15344,-15125,-30736,-8985,-28663
22788,-9.79521,-0.0478516,-0.684277,175.106,86.2097,30.8606,0.244141,0.0610352,0,0.21167,0.695343,0.222168,-0.64978,15088,-15381,-32272,-8985,-28663
22794,-9.78086,-0.0143555,-0.674707,175.139,86.2097,30.8881,0.0610352,-0.244141,-0.0610352,0.21167,0.695343,0.222168,-0.64978,15088,-15893,32752,-8985,-28663
22800,-9.80479,-0.0239258,-0.674707,175.161,86.2097,30.91,0.183105,0,0,0.211639,0.695343,0.222168,-0.649811,15088,-16405,32752,-8985,-28663
22806,-9.79521,-0.0478516,-0.650781,175.199,86.2097,30.943,0.244141,0.0610352,-0.12207,0.211578,0.695343,0.222168,-0.649811,15600,-16917,32496,-8985,-28663
22812,-9.8,-0.062207,-0.674707,175.254,86.2042,30.9924,0.305176,0.427246,0.0610352,0.211548,0.695343,0.222168,-0.649811,16112,-16661,31728,-8985,-28663
